File: data/xrd_creation/results/MINES_19.xy
9.903433 2599.00
9.968632 2660.00
10.0338 2624.00
10.099 2507.00
10.1642 2494.00
10.2294 2479.00
10.2946 2561.00
10.3598 2460.00
10.425 2571.00
10.4902 2346.00
10.5554 2417.00
10.6206 2418.00
10.6858 2402.00
10.751 2345.00
10.8162 2384.00
10.8814 2357.00
10.9466 2291.00
11.0118 2345.00
11.077 2237.00
11.1422 2247.00
11.2074 2193.00
11.2726 2098.00
11.3378 2242.00
11.403 2084.00
11.4682 2161.00
11.5334 2127.00
11.5986 2117.00
11.6638 2041.00
11.729 2062.00
11.7942 2042.00
11.8594 2088.00
11.9246 2002.00
11.9898 2067.00
12.055 2098.00
12.1202 1949.00
12.1854 1957.00
12.2506 1934.00
12.3158 1902.00
12.381 1868.00
12.4462 1890.00
12.5114 1808.00
12.5766 1890.00
12.6418 1858.00
12.707 2089.00
12.7722 2167.00
12.8374 2367.00
12.9026 2579.00
12.9678 2321.00
13.033 1989.00
13.0982 1772.00
13.1634 1711.00
13.2286 1676.00
13.2938 1632.00
13.359 1659.00
13.4242 1595.00
13.4894 1616.00
13.5546 1582.00
13.6198 1610.00
13.685 1647.00
13.7502 1557.00
13.8154 1545.00
13.8805 1526.00
13.9457 1548.00
14.0109 1563.00
14.0761 1545.00
14.1413 1539.00
14.2065 1477.00
14.2717 1514.00
14.3369 1429.00
14.4021 1507.00
14.4673 1511.00
14.5325 1415.00
14.5977 1421.00
14.6629 1437.00
14.7281 1520.00
14.7933 1578.00
14.8585 1468.00
14.9237 1516.00
14.9889 1504.00
15.0541 1568.00
15.1193 1571.00
15.1845 1654.00
15.2497 1550.00
15.3149 1628.00
15.3801 1465.00
15.4453 1425.00
15.5105 1422.00
15.5757 1431.00
15.6409 1444.00
15.7061 1328.00
15.7713 1385.00
15.8365 1382.00
15.9017 1376.00
15.9669 1353.00
16.0321 1355.00
16.0973 1390.00
16.1625 1411.00
16.2277 1471.00
16.2929 1492.00
16.3581 1459.00
16.4233 1353.00
16.4885 1253.00
16.5537 1287.00
16.6189 1314.00
16.6841 1261.00
16.7493 1242.00
16.8145 1295.00
16.8797 1229.00
16.9449 1225.00
17.0101 1166.00
17.0753 1179.00
17.1405 1271.00
17.2057 1211.00
17.2709 1243.00
17.3361 1193.00
17.4013 1202.00
17.4665 1222.00
17.5317 1205.00
17.5969 1202.00
17.6621 1165.00
17.7273 1197.00
17.7925 1202.00
17.8577 1246.00
17.9229 1224.00
17.9881 1110.00
18.0533 1199.00
18.1185 1179.00
18.1837 1156.00
18.2489 1098.00
18.3141 1095.00
18.3793 1152.00
18.4445 1110.00
18.5097 1149.00
18.5749 1138.00
18.6401 1172.00
18.7052 1117.00
18.7704 1120.00
18.8356 1111.00
18.9008 1073.00
18.966 1074.00
19.0312 1070.00
19.0964 1050.00
19.1616 1119.00
19.2268 1050.00
19.292 1040.00
19.3572 999.00
19.4224 1048.00
19.4876 1046.00
19.5528 978.00
19.618 1044.00
19.6832 986.00
19.7484 987.00
19.8136 1016.00
19.8788 984.00
19.944 1005.00
20.0092 1063.00
20.0744 966.00
20.1396 1067.00
20.2048 962.00
20.27 1034.00
20.3352 1073.00
20.4004 1060.00
20.4656 1165.00
20.5308 1271.00
20.596 1688.00
20.6612 2387.00
20.7264 2868.00
20.7916 2902.00
20.8568 2630.00
20.922 2127.00
20.9872 1468.00
21.0524 1114.00
21.1176 1024.00
21.1828 935.00
21.248 949.00
21.3132 947.00
21.3784 1027.00
21.4436 1007.00
21.5088 993.00
21.574 1051.00
21.6392 993.00
21.7044 1094.00
21.7696 1106.00
21.8348 1195.00
21.9 1512.00
21.9652 2238.00
22.0304 3406.00
22.0956 4728.00
22.1608 4139.00
22.226 2673.00
22.2912 1640.00
22.3564 1388.00
22.4216 1496.00
22.4868 1758.00
22.552 1683.00
22.6172 1345.00
22.6824 1063.00
22.7476 931.00
22.8128 919.00
22.878 949.00
22.9432 925.00
23.0084 879.00
23.0736 849.00
23.1388 871.00
23.204 885.00
23.2692 887.00
23.3344 903.00
23.3996 945.00
23.4647 986.00
23.5299 1138.00
23.5951 1427.00
23.6603 1783.00
23.7255 2088.00
23.7907 1784.00
23.8559 1299.00
23.9211 1141.00
23.9863 1105.00
24.0515 1194.00
24.1167 1368.00
24.1819 1700.00
24.2471 1901.00
24.3123 1704.00
24.3775 1377.00
24.4427 1103.00
24.5079 1070.00
24.5731 1281.00
24.6383 1626.00
24.7035 2198.00
24.7687 2492.00
24.8339 2261.00
24.8991 1461.00
24.9643 1004.00
25.0295 829.00
25.0947 818.00
25.1599 833.00
25.2251 844.00
25.2903 779.00
25.3555 818.00
25.4207 774.00
25.4859 860.00
25.5511 813.00
25.6163 881.00
25.6815 913.00
25.7467 955.00
25.8119 930.00
25.8771 1245.00
25.9423 1975.00
26.0075 2855.00
26.0727 3450.00
26.1379 2836.00
26.2031 1974.00
26.2683 1770.00
26.3335 2473.00
26.3987 4329.00
26.4639 7081.00
26.5291 7994.00
26.5943 5897.00
26.6595 3163.00
26.7247 1695.00
26.7899 1110.00
26.8551 955.00
26.9203 854.00
26.9855 826.00
27.0507 792.00
27.1159 812.00
27.1811 771.00
27.2463 717.00
27.3115 736.00
27.3767 723.00
27.4419 721.00
27.5071 792.00
27.5723 735.00
27.6375 732.00
27.7027 744.00
27.7679 909.00
27.8331 1013.00
27.8983 1312.00
27.9635 1307.00
28.0287 1194.00
28.0939 850.00
28.1591 782.00
28.2243 750.00
28.2894 708.00
28.3546 685.00
28.4198 745.00
28.485 657.00
28.5502 658.00
28.6154 703.00
28.6806 740.00
28.7458 787.00
28.811 966.00
28.8762 1182.00
28.9414 1146.00
29.0066 988.00
29.0718 799.00
29.137 670.00
29.2022 653.00
29.2674 627.00
29.3326 665.00
29.3978 633.00
29.463 676.00
29.5282 654.00
29.5934 649.00
29.6586 649.00
29.7238 615.00
29.789 627.00
29.8542 639.00
29.9194 771.00
29.9846 675.00
30.0498 720.00
30.115 683.00
30.1802 676.00
30.2454 764.00
30.3106 791.00
30.3758 779.00
30.441 921.00
30.5062 1007.00
30.5714 1221.00
30.6366 1405.00
30.7018 1572.00
30.767 1492.00
30.8322 1420.00
30.8974 1196.00
30.9626 1016.00
31.0278 849.00
31.093 798.00
31.1582 764.00
31.2234 690.00
31.2886 646.00
31.3538 655.00
31.419 668.00
31.4842 631.00
31.5494 666.00
31.6146 655.00
31.6798 654.00
31.745 628.00
31.8102 604.00
31.8754 668.00
31.9406 667.00
32.0058 754.00
32.071 1037.00
32.1362 1680.00
32.2014 2734.00
32.2666 2970.00
32.3318 2261.00
32.397 1415.00
32.4622 915.00
32.5274 724.00
32.5926 680.00
32.6578 609.00
32.723 565.00
32.7882 584.00
32.8534 597.00
32.9186 555.00
32.9838 566.00
33.0489 567.00
33.1141 563.00
33.1793 566.00
33.2445 594.00
33.3097 550.00
33.3749 528.00
33.4401 552.00
33.5053 580.00
33.5705 574.00
33.6357 594.00
33.7009 598.00
33.7661 566.00
33.8313 618.00
33.8965 547.00
33.9617 574.00
34.0269 552.00
34.0921 552.00
34.1573 563.00
34.2225 595.00
34.2877 636.00
34.3529 645.00
34.4181 697.00
34.4833 793.00
34.5485 941.00
34.6137 1438.00
34.6789 2243.00
34.7441 2653.00
34.8093 2203.00
34.8745 1479.00
34.9397 981.00
35.0049 732.00
35.0701 591.00
35.1353 602.00
35.2005 643.00
35.2657 588.00
35.3309 605.00
35.3961 620.00
35.4613 624.00
35.5265 646.00
35.5917 640.00
35.6569 714.00
35.7221 728.00
35.7873 817.00
35.8525 894.00
35.9177 1174.00
35.9829 1380.00
36.0481 1850.00
36.1133 2378.00
36.1785 3099.00
36.2437 3399.00
36.3089 3103.00
36.3741 2740.00
36.4393 2001.00
36.5045 1509.00
36.5697 1118.00
36.6349 932.00
36.7001 761.00
36.7653 716.00
36.8305 613.00
36.8957 579.00
36.9609 575.00
37.0261 576.00
37.0913 564.00
37.1565 561.00
37.2217 566.00
37.2869 659.00
37.3521 735.00
37.4173 811.00
37.4825 863.00
37.5477 878.00
37.6129 909.00
37.6781 722.00
37.7433 634.00
37.8085 662.00
37.8736 611.00
37.9388 691.00
38.004 693.00
38.0692 681.00
38.1344 719.00
38.1996 706.00
38.2648 546.00
38.33 504.00
38.3952 470.00
38.4604 456.00
38.5256 456.00
38.5908 500.00
38.656 483.00
38.7212 503.00
38.7864 461.00
38.8516 452.00
38.9168 475.00
38.982 462.00
39.0472 517.00
39.1124 586.00
39.1776 637.00
39.2428 701.00
39.308 899.00
39.3732 960.00
39.4384 863.00
39.5036 731.00
39.5688 757.00
39.634 958.00
39.6992 1073.00
39.7644 1048.00
39.8296 892.00
39.8948 648.00
39.96 616.00
40.0252 516.00
40.0904 605.00
40.1556 626.00
40.2208 607.00
40.286 586.00
40.3512 557.00
40.4164 489.00
40.4816 470.00
40.5468 429.00
40.612 403.00
40.6772 401.00
40.7424 388.00
40.8076 434.00
40.8728 416.00
40.938 414.00
41.0032 442.00
41.0684 419.00
41.1336 414.00
41.1988 426.00
41.264 387.00
41.3292 413.00
41.3944 442.00
41.4596 473.00
41.5248 571.00
41.59 587.00
41.6552 633.00
41.7204 530.00
41.7856 441.00
41.8508 429.00
41.916 404.00
41.9812 386.00
42.0464 462.00
42.1116 498.00
42.1768 537.00
42.242 564.00
42.3072 624.00
42.3724 571.00
42.4376 478.00
42.5028 431.00
42.568 431.00
42.6332 440.00
42.6983 372.00
42.7635 401.00
42.8287 367.00
42.8939 411.00
42.9591 534.00
43.0243 624.00
43.0895 682.00
43.1547 637.00
43.2199 581.00
43.2851 471.00
43.3503 438.00
43.4155 385.00
43.4807 409.00
43.5459 404.00
43.6111 371.00
43.6763 347.00
43.7415 419.00
43.8067 498.00
43.8719 611.00
43.9371 696.00
44.0023 754.00
44.0675 759.00
44.1327 687.00
44.1979 648.00
44.2631 557.00
44.3283 487.00
44.3935 415.00
44.4587 394.00
44.5239 449.00
44.5891 411.00
44.6543 411.00
44.7195 480.00
44.7847 447.00
44.8499 430.00
44.9151 421.00
44.9803 420.00
45.0455 417.00
45.1107 412.00
45.1759 459.00
45.2411 464.00
45.3063 430.00
45.3715 443.00
45.4367 441.00
45.5019 488.00
45.5671 474.00
45.6323 554.00
45.6975 526.00
45.7627 380.00
45.8279 403.00
45.8931 432.00
45.9583 558.00
46.0235 630.00
46.0887 719.00
46.1539 696.00
46.2191 570.00
46.2843 467.00
46.3495 392.00
46.4147 361.00
46.4799 344.00
46.5451 361.00
46.6103 350.00
46.6755 330.00
46.7407 355.00
46.8059 339.00
46.8711 321.00
46.9363 374.00
47.0015 365.00
47.0667 414.00
47.1319 430.00
47.1971 433.00
47.2623 460.00
47.3275 402.00
47.3927 383.00
47.4579 372.00
47.523 355.00
47.5882 362.00
47.6534 367.00
47.7186 426.00
47.7838 491.00
47.849 539.00
47.9142 590.00
47.9794 653.00
48.0446 568.00
48.1098 547.00
48.175 482.00
48.2402 423.00
48.3054 409.00
48.3706 349.00
48.4358 334.00
48.501 322.00
48.5662 355.00
48.6314 366.00
48.6966 330.00
48.7618 356.00
48.827 324.00
48.8922 325.00
48.9574 321.00
49.0226 305.00
49.0878 353.00
49.153 393.00
49.2182 372.00
49.2834 395.00
49.3486 393.00
49.4138 346.00
49.479 303.00
49.5442 350.00
49.6094 332.00
49.6746 381.00
49.7398 420.00
49.805 536.00
49.8702 700.00
49.9354 1040.00
50.0006 1399.00
50.0658 1504.00
50.131 1398.00
50.1962 1084.00
50.2614 786.00
50.3266 565.00
50.3918 474.00
50.457 477.00
50.5222 538.00
50.5874 504.00
50.6526 490.00
50.7178 445.00
50.783 422.00
50.8482 419.00
50.9134 403.00
50.9786 435.00
51.0438 480.00
51.109 440.00
51.1742 441.00
51.2394 378.00
51.3046 337.00
51.3698 338.00
51.435 380.00
51.5002 333.00
51.5654 359.00
51.6306 401.00
51.6958 389.00
51.761 337.00
51.8262 362.00
51.8914 336.00
51.9566 317.00
52.0218 332.00
52.087 304.00
52.1522 315.00
52.2174 328.00
52.2826 308.00
52.3477 307.00
52.4129 320.00
52.4781 392.00
52.5433 372.00
52.6085 336.00
52.6737 345.00
52.7389 279.00
52.8041 294.00
52.8693 300.00
52.9345 319.00
52.9997 321.00
53.0649 237.00
53.1301 310.00
53.1953 284.00
53.2605 272.00
53.3257 310.00
53.3909 289.00
53.4561 284.00
53.5213 315.00
53.5865 309.00
53.6517 318.00
53.7169 286.00
53.7821 317.00
53.8473 326.00
53.9125 323.00
53.9777 292.00
54.0429 309.00
54.1081 341.00
54.1733 327.00
54.2385 365.00
54.3037 440.00
54.3689 511.00
54.4341 563.00
54.4993 584.00
54.5645 640.00
54.6297 631.00
54.6949 642.00
54.7601 645.00
54.8253 566.00
54.8905 566.00
54.9557 497.00
55.0209 427.00
55.0861 409.00
55.1513 418.00
55.2165 418.00
55.2817 453.00
55.3469 459.00
55.4121 452.00
55.4773 448.00
55.5425 483.00
55.6077 507.00
55.6729 494.00
55.7381 416.00
55.8033 420.00
55.8685 334.00
55.9337 349.00
55.9989 376.00
56.0641 382.00
56.1293 381.00
56.1945 387.00
56.2597 324.00
56.3249 303.00
56.3901 294.00
56.4553 323.00
56.5205 272.00
56.5857 269.00
56.6509 269.00
56.7161 346.00
56.7813 328.00
56.8465 329.00
56.9117 372.00
56.9769 397.00
57.042 443.00
57.1073 414.00
57.1724 405.00
57.2376 372.00
57.3028 427.00
57.368 410.00
57.4332 373.00
57.4984 344.00
57.5636 316.00
57.6288 327.00
57.694 318.00
57.7592 378.00
57.8244 398.00
57.8896 424.00
57.9548 475.00
58.02 435.00
58.0852 457.00
58.1504 515.00
58.2156 557.00
58.2808 648.00
58.346 669.00
58.4112 704.00
58.4764 647.00
58.5416 656.00
58.6068 621.00
58.672 492.00
58.7372 453.00
58.8024 480.00
58.8676 492.00
58.9328 546.00
58.998 507.00
59.0632 477.00
59.1284 475.00
59.1936 393.00
59.2588 348.00
59.324 313.00
59.3892 368.00
59.4544 427.00
59.5196 444.00
59.5848 520.00
59.65 534.00
59.7152 593.00
59.7804 572.00
59.8456 514.00
59.9108 448.00
59.976 429.00
60.0412 345.00
60.1064 329.00
60.1716 329.00
60.2368 305.00
60.302 325.00
60.3672 281.00
60.4324 332.00
60.4976 338.00
60.5628 361.00
60.628 336.00
60.6932 371.00
60.7584 312.00
60.8236 357.00
60.8888 363.00
60.954 394.00
61.0192 485.00
61.0844 504.00
61.1496 453.00
61.2148 411.00
61.28 384.00
61.3452 320.00
61.4104 278.00
61.4756 287.00
61.5408 313.00
61.606 297.00
61.6712 290.00
61.7364 331.00
61.8016 305.00
61.8667 309.00
61.932 288.00
61.9971 300.00
62.0623 313.00
62.1275 312.00
62.1927 320.00
62.2579 357.00
62.3231 385.00
62.3883 378.00
62.4535 351.00
62.5187 358.00
62.5839 305.00
62.6491 301.00
62.7143 316.00
62.7795 343.00
62.8447 300.00
62.9099 329.00
62.9751 344.00
63.0403 323.00
63.1055 312.00
63.1707 332.00
63.2359 298.00
63.3011 292.00
63.3663 290.00
63.4315 315.00
63.4967 358.00
63.5619 339.00
63.6271 355.00
63.6923 372.00
63.7575 451.00
63.8227 518.00
63.8879 630.00
63.9531 733.00
64.0183 877.00
64.0835 898.00
64.1487 995.00
64.2139 973.00
64.2791 791.00
64.3443 760.00
64.4095 601.00
64.4747 526.00
64.5399 406.00
64.6051 348.00
64.6703 336.00
64.7355 350.00
64.8007 368.00
64.8659 328.00
64.9311 291.00
64.9963 320.00
65.0615 328.00
65.1267 311.00
65.1919 325.00
65.2571 290.00
65.3223 314.00
65.3875 325.00
65.4527 354.00
65.5179 347.00
65.5831 315.00
65.6483 324.00
65.7135 323.00
65.7787 287.00
65.8439 268.00
65.9091 283.00
65.9743 282.00
66.0395 273.00
66.1047 306.00
66.1699 290.00
66.2351 298.00
66.3003 315.00
66.3655 310.00
66.4307 258.00
66.4959 268.00
66.561 265.00
66.6263 238.00
66.6915 271.00
66.7566 291.00
66.8218 286.00
66.887 241.00
66.9522 269.00
67.0174 323.00
67.0826 378.00
67.1478 516.00
67.213 704.00
67.2782 822.00
67.3434 820.00
67.4086 777.00
67.4738 771.00
67.539 727.00
67.6042 660.00
67.6694 553.00
67.7346 509.00
67.7998 510.00
67.865 499.00
67.9302 570.00
67.9954 593.00
68.0606 600.00
68.1258 566.00
68.191 498.00
68.2562 467.00
68.3214 390.00
68.3866 374.00
68.4518 347.00
68.517 312.00
68.5822 295.00
68.6474 308.00
68.7126 320.00
68.7778 316.00
68.843 343.00
68.9082 325.00
68.9734 320.00
69.0386 317.00
69.1038 281.00
69.169 290.00
69.2342 271.00
69.2994 272.00
69.3646 281.00
69.4298 277.00
69.495 231.00
69.5602 273.00
69.6254 285.00
69.6906 228.00
69.7558 247.00
69.821 233.00
69.8862 249.00
69.9514 232.00
70.0166 244.00
70.0818 275.00
70.147 264.00
70.2122 336.00
70.2774 325.00
70.3426 402.00
70.4078 445.00
70.473 433.00
70.5382 428.00
70.6034 387.00
70.6686 383.00
70.7338 322.00
70.799 311.00
70.8642 323.00
70.9294 297.00
70.9946 337.00
71.0598 270.00
71.125 247.00
71.1902 290.00
71.2554 262.00
71.3205 275.00
71.3858 279.00
71.451 257.00
71.5162 236.00
71.5813 256.00
71.6465 266.00
71.7117 277.00
71.7769 281.00
71.8421 339.00
71.9073 337.00
71.9725 308.00
72.0377 322.00
72.1029 383.00
72.1681 416.00
72.2333 457.00
72.2985 421.00
72.3637 421.00
72.4289 380.00
72.4941 366.00
72.5593 354.00
72.6245 333.00
72.6897 296.00
72.7549 282.00
72.8201 337.00
72.8853 338.00
72.9505 316.00
73.0157 317.00
73.0809 299.00
73.1461 280.00
73.2113 296.00
73.2765 337.00
73.3417 338.00
73.4069 316.00
73.4721 313.00
73.5373 279.00
73.6025 282.00
73.6677 301.00
73.7329 269.00
73.7981 307.00
73.8633 257.00
73.9285 234.00
73.9937 274.00
74.0589 262.00
74.1241 236.00
74.1893 250.00
74.2545 247.00
74.3197 230.00
74.3849 233.00
74.4501 237.00
74.5153 242.00
74.5805 217.00
74.6457 256.00
74.7109 238.00
74.7761 247.00
74.8413 236.00
74.9065 246.00
74.9717 226.00
75.0369 248.00
75.1021 257.00
75.1673 270.00
75.2325 321.00
75.2977 306.00
75.3629 356.00
75.4281 341.00
75.4933 355.00
75.5585 360.00
75.6237 312.00
75.6889 343.00
75.7541 319.00
75.8193 328.00
75.8845 323.00
75.9497 405.00
76.0149 319.00
76.0801 442.00
76.1452 412.00
76.2104 366.00
76.2756 358.00
76.3409 357.00
76.406 356.00
76.4712 323.00
76.5364 303.00
76.6016 283.00
76.6668 294.00
76.732 289.00
76.7972 290.00
76.8624 292.00
76.9276 335.00
76.9928 297.00
77.058 316.00
77.1232 322.00
77.1884 299.00
77.2536 262.00
77.3188 346.00
77.384 331.00
77.4492 284.00
77.5144 240.00
77.5796 266.00
77.6448 273.00
77.71 283.00
77.7752 247.00
77.8404 278.00
77.9056 299.00
77.9708 317.00
78.036 292.00
78.1012 326.00
78.1664 281.00
78.2316 312.00
78.2968 283.00
78.362 317.00
78.4272 262.00
78.4924 289.00
78.5576 269.00
78.6228 269.00
78.688 261.00
78.7532 304.00
78.8184 266.00
78.8836 261.00
78.9488 284.00
79.014 284.00
79.0792 248.00
79.1444 269.00
79.2096 269.00
79.2748 293.00
79.34 273.00
79.4052 304.00
79.4704 305.00
79.5356 322.00
79.6008 314.00
79.666 348.00
79.7312 357.00
79.7964 313.00
79.8616 312.00
79.9268 303.00
79.992 281.00
80.0572 291.00
80.1224 261.00
80.1876 299.00
80.2528 295.00
80.318 293.00
80.3832 280.00
80.4484 273.00
80.5136 273.00
80.5788 277.00
80.644 297.00
80.7092 307.00
80.7744 306.00
80.8396 371.00
80.9048 355.00
80.9699 436.00
81.0351 440.00
81.1003 437.00
81.1655 395.00
81.2307 412.00
81.2959 390.00
81.3611 325.00
81.4263 340.00
81.4915 314.00
81.5567 295.00
81.6219 275.00
81.6871 302.00
81.7523 276.00
81.8175 235.00
81.8827 256.00
81.9479 260.00
82.0131 239.00
82.0783 275.00
82.1435 239.00
82.2087 226.00
82.2739 245.00
82.3391 242.00
82.4043 260.00
82.4695 250.00
82.5347 275.00
82.5999 271.00
82.6651 243.00
82.7303 264.00
82.7955 273.00
82.8607 272.00
82.9259 283.00
82.9911 272.00
83.0563 251.00
83.1215 266.00
83.1867 270.00
83.2519 276.00
83.3171 270.00
83.3823 264.00
83.4475 290.00
83.5127 313.00
83.5779 273.00
83.6431 281.00
83.7083 272.00
83.7735 280.00
83.8387 265.00
83.9039 247.00
83.9691 230.00
84.0343 270.00
84.0995 279.00
84.1647 234.00
84.2299 223.00
84.2951 256.00
84.3603 247.00
84.4255 274.00
84.4907 240.00
84.5559 245.00
84.6211 230.00
84.6863 294.00
84.7515 274.00
84.8167 238.00
84.8819 244.00
84.9471 237.00
85.0123 246.00
85.0775 258.00
85.1427 232.00
85.2079 243.00
85.2731 262.00
85.3383 277.00
85.4035 271.00
85.4687 306.00
85.5339 238.00
85.5991 265.00
85.6643 292.00
85.7295 272.00
85.7946 247.00
85.8598 301.00
85.925 302.00
85.9903 229.00
86.0554 231.00
86.1206 263.00
86.1858 278.00
86.251 284.00
86.3162 268.00
86.3814 238.00
86.4466 267.00
86.5118 269.00
86.577 265.00
86.6422 279.00
86.7074 276.00
86.7726 236.00
86.8378 283.00
86.903 261.00
86.9682 250.00
87.0334 245.00
87.0986 275.00
87.1638 267.00
87.229 278.00
87.2942 230.00
87.3594 261.00
87.4246 230.00
87.4898 232.00
87.555 243.00
87.6202 219.00
87.6854 225.00
87.7506 223.00
87.8158 215.00
87.881 260.00
87.9462 232.00
88.0114 246.00
88.0766 282.00
88.1418 275.00
88.207 230.00
88.2722 233.00
88.3374 242.00
88.4026 244.00
88.4678 220.00
88.533 235.00
88.5982 241.00
88.6634 248.00
88.7286 222.00
88.7938 269.00
88.859 266.00
88.9242 258.00
88.9894 280.00
89.0546 277.00
89.1198 271.00
89.185 281.00
89.2502 302.00
89.3154 237.00
89.3806 248.00
89.4458 279.00
89.511 281.00
89.5762 231.00
89.6414 286.00
89.7066 283.00
89.7718 260.00
89.837 247.00
89.9022 257.00
89.9674 281.00
90.0326 285.00
90.0978 297.00
90.163 293.00
90.2282 303.00
90.2934 295.00
90.3586 326.00
90.4238 322.00
90.489 304.00
90.5542 297.00
90.6193 276.00
90.6845 279.00
90.7497 257.00
90.8149 234.00
90.8801 245.00
90.9453 263.00
91.0105 262.00
91.0757 260.00
91.1409 226.00
91.2061 216.00
91.2713 225.00
91.3365 258.00
91.4017 246.00
91.4669 220.00
91.5321 232.00
91.5973 236.00
91.6625 219.00
91.7277 247.00
91.7929 278.00
91.8581 281.00
91.9233 286.00
91.9885 290.00
92.0537 251.00
92.1189 300.00
92.1841 303.00
92.2493 350.00
92.3145 319.00
92.3797 305.00
92.4449 351.00
92.5101 375.00
92.5753 281.00
92.6405 281.00
92.7057 318.00
92.7709 286.00
92.8361 271.00
92.9013 293.00
92.9665 281.00
93.0317 283.00
93.0969 287.00
93.1621 247.00
93.2273 246.00
93.2925 285.00
93.3577 266.00
93.4229 260.00
93.4881 222.00
93.5533 244.00
93.6185 214.00
93.6837 220.00
93.7489 250.00
93.8141 233.00
93.8793 224.00
93.9445 272.00
94.0097 224.00
94.0749 232.00
94.1401 257.00
94.2053 246.00
94.2705 203.00
94.3357 241.00
94.4009 248.00
94.4661 283.00
94.5313 285.00
94.5965 286.00
94.6617 244.00
94.7269 261.00
94.7921 266.00
94.8573 244.00
94.9225 267.00
94.9877 266.00
95.0529 256.00
95.1181 217.00
95.1833 236.00
95.2485 226.00
95.3137 238.00
95.3789 242.00
95.444 277.00
95.5092 248.00
95.5744 226.00
95.6396 221.00
95.7048 211.00
95.77 240.00
95.8352 210.00
95.9004 234.00
95.9656 283.00
96.0308 284.00
96.096 282.00
96.1612 237.00
96.2264 235.00
96.2916 200.00
96.3568 235.00
96.422 242.00
96.4872 235.00
96.5524 231.00
96.6176 244.00
96.6828 242.00
96.748 204.00
96.8132 215.00
96.8784 267.00
96.9436 231.00
97.0088 240.00
97.074 293.00
97.1392 277.00
97.2044 265.00
97.2696 282.00
97.3348 276.00
97.4 277.00
97.4652 303.00
97.5304 264.00
97.5956 245.00
97.6608 232.00
97.726 216.00
97.7912 266.00
97.8564 226.00
97.9216 201.00
97.9868 236.00
98.052 249.00
98.1172 242.00
98.1824 260.00
98.2476 243.00
98.3128 225.00
98.378 298.00
98.4432 307.00
98.5084 256.00
98.5736 248.00
98.6388 261.00
98.704 256.00
98.7692 268.00
98.8344 256.00
98.8996 269.00
98.9648 233.00
99.03 219.00
99.0952 228.00
99.1604 258.00
99.2256 221.00
99.2908 243.00
99.356 219.00
99.4212 234.00
99.4864 212.00
99.5516 222.00
99.6168 209.00
99.682 231.00
99.7472 225.00
99.8124 219.00
99.8776 226.00
99.9428 189.00
100.008 226.00
100.073 269.00
100.095 198.00