File: data/xrd_creation/results/MINES_17.xy
9.903433 2530.00
9.968632 2673.00
10.0338 2572.00
10.099 2524.00
10.1642 2499.00
10.2294 2638.00
10.2946 2471.00
10.3598 2451.00
10.425 2339.00
10.4902 2389.00
10.5554 2259.00
10.6206 2322.00
10.6858 2358.00
10.751 2286.00
10.8162 2221.00
10.8814 2157.00
10.9466 2208.00
11.0118 2310.00
11.077 2197.00
11.1422 2072.00
11.2074 2215.00
11.2726 2077.00
11.3378 2016.00
11.403 2206.00
11.4682 2110.00
11.5334 2013.00
11.5986 2074.00
11.6638 2017.00
11.729 1995.00
11.7942 2009.00
11.8594 1957.00
11.9246 1914.00
11.9898 1922.00
12.055 2044.00
12.1202 1944.00
12.1854 1876.00
12.2506 1796.00
12.3158 1806.00
12.381 1780.00
12.4462 1757.00
12.5114 1767.00
12.5766 1783.00
12.6418 1795.00
12.707 1745.00
12.7722 1754.00
12.8374 1611.00
12.9026 1707.00
12.9678 1691.00
13.033 1670.00
13.0982 1702.00
13.1634 1677.00
13.2286 1607.00
13.2938 1677.00
13.359 1604.00
13.4242 1657.00
13.4894 1593.00
13.5546 1579.00
13.6198 1532.00
13.685 1578.00
13.7502 1541.00
13.8154 1473.00
13.8805 1486.00
13.9457 1506.00
14.0109 1494.00
14.0761 1429.00
14.1413 1436.00
14.2065 1455.00
14.2717 1423.00
14.3369 1380.00
14.4021 1417.00
14.4673 1482.00
14.5325 1398.00
14.5977 1403.00
14.6629 1318.00
14.7281 1429.00
14.7933 1420.00
14.8585 1386.00
14.9237 1400.00
14.9889 1343.00
15.0541 1360.00
15.1193 1401.00
15.1845 1359.00
15.2497 1406.00
15.3149 1355.00
15.3801 1368.00
15.4453 1308.00
15.5105 1255.00
15.5757 1263.00
15.6409 1294.00
15.7061 1265.00
15.7713 1272.00
15.8365 1229.00
15.9017 1284.00
15.9669 1241.00
16.0321 1290.00
16.0973 1210.00
16.1625 1334.00
16.2277 1316.00
16.2929 1370.00
16.3581 1357.00
16.4233 1268.00
16.4885 1204.00
16.5537 1210.00
16.6189 1210.00
16.6841 1232.00
16.7493 1165.00
16.8145 1247.00
16.8797 1225.00
16.9449 1287.00
17.0101 1179.00
17.0753 1137.00
17.1405 1179.00
17.2057 1134.00
17.2709 1080.00
17.3361 1073.00
17.4013 1098.00
17.4665 1137.00
17.5317 1121.00
17.5969 1066.00
17.6621 1167.00
17.7273 1121.00
17.7925 1094.00
17.8577 1114.00
17.9229 987.00
17.9881 1127.00
18.0533 1043.00
18.1185 1067.00
18.1837 1020.00
18.2489 1016.00
18.3141 1073.00
18.3793 1055.00
18.4445 1034.00
18.5097 996.00
18.5749 1013.00
18.6401 979.00
18.7052 1020.00
18.7704 983.00
18.8356 991.00
18.9008 958.00
18.966 1020.00
19.0312 1014.00
19.0964 1040.00
19.1616 1101.00
19.2268 1106.00
19.292 1119.00
19.3572 1176.00
19.4224 1218.00
19.4876 1191.00
19.5528 1105.00
19.618 1036.00
19.6832 971.00
19.7484 933.00
19.8136 956.00
19.8788 955.00
19.944 954.00
20.0092 971.00
20.0744 925.00
20.1396 948.00
20.2048 956.00
20.27 868.00
20.3352 913.00
20.4004 941.00
20.4656 938.00
20.5308 1076.00
20.596 1131.00
20.6612 1177.00
20.7264 1154.00
20.7916 978.00
20.8568 964.00
20.922 864.00
20.9872 912.00
21.0524 850.00
21.1176 884.00
21.1828 809.00
21.248 880.00
21.3132 882.00
21.3784 903.00
21.4436 898.00
21.5088 799.00
21.574 830.00
21.6392 830.00
21.7044 869.00
21.7696 749.00
21.8348 795.00
21.9 816.00
21.9652 838.00
22.0304 803.00
22.0956 842.00
22.1608 787.00
22.226 816.00
22.2912 750.00
22.3564 815.00
22.4216 836.00
22.4868 832.00
22.552 866.00
22.6172 886.00
22.6824 980.00
22.7476 996.00
22.8128 1053.00
22.878 1110.00
22.9432 1105.00
23.0084 1036.00
23.0736 898.00
23.1388 797.00
23.204 787.00
23.2692 779.00
23.3344 698.00
23.3996 766.00
23.4647 784.00
23.5299 868.00
23.5951 1036.00
23.6603 1299.00
23.7255 1559.00
23.7907 1257.00
23.8559 1071.00
23.9211 850.00
23.9863 738.00
24.0515 712.00
24.1167 877.00
24.1819 980.00
24.2471 1146.00
24.3123 1106.00
24.3775 956.00
24.4427 863.00
24.5079 859.00
24.5731 875.00
24.6383 1041.00
24.7035 1478.00
24.7687 1816.00
24.8339 1707.00
24.8991 1444.00
24.9643 1149.00
25.0295 1063.00
25.0947 990.00
25.1599 1120.00
25.2251 1321.00
25.2903 1555.00
25.3555 1738.00
25.4207 2084.00
25.4859 2231.00
25.5511 2285.00
25.6163 2366.00
25.6815 2235.00
25.7467 1755.00
25.8119 1552.00
25.8771 1223.00
25.9423 1021.00
26.0075 910.00
26.0727 838.00
26.1379 813.00
26.2031 895.00
26.2683 1143.00
26.3335 1553.00
26.3987 2094.00
26.4639 2208.00
26.5291 1987.00
26.5943 1454.00
26.6595 1024.00
26.7247 817.00
26.7899 694.00
26.8551 708.00
26.9203 674.00
26.9855 667.00
27.0507 646.00
27.1159 647.00
27.1811 644.00
27.2463 691.00
27.3115 604.00
27.3767 644.00
27.4419 630.00
27.5071 593.00
27.5723 606.00
27.6375 603.00
27.7027 596.00
27.7679 626.00
27.8331 585.00
27.8983 584.00
27.9635 569.00
28.0287 658.00
28.0939 656.00
28.1591 616.00
28.2243 657.00
28.2894 730.00
28.3546 688.00
28.4198 676.00
28.485 647.00
28.5502 654.00
28.6154 623.00
28.6806 611.00
28.7458 545.00
28.811 576.00
28.8762 597.00
28.9414 551.00
29.0066 629.00
29.0718 573.00
29.137 555.00
29.2022 595.00
29.2674 630.00
29.3326 626.00
29.3978 626.00
29.463 570.00
29.5282 588.00
29.5934 570.00
29.6586 505.00
29.7238 520.00
29.789 573.00
29.8542 549.00
29.9194 578.00
29.9846 576.00
30.0498 560.00
30.115 539.00
30.1802 601.00
30.2454 571.00
30.3106 620.00
30.3758 610.00
30.441 888.00
30.5062 1027.00
30.5714 1038.00
30.6366 941.00
30.7018 725.00
30.767 666.00
30.8322 577.00
30.8974 533.00
30.9626 554.00
31.0278 551.00
31.093 544.00
31.1582 533.00
31.2234 514.00
31.2886 551.00
31.3538 520.00
31.419 554.00
31.4842 590.00
31.5494 523.00
31.6146 575.00
31.6798 571.00
31.745 531.00
31.8102 554.00
31.8754 540.00
31.9406 563.00
32.0058 577.00
32.071 533.00
32.1362 534.00
32.2014 566.00
32.2666 516.00
32.3318 469.00
32.397 508.00
32.4622 484.00
32.5274 490.00
32.5926 474.00
32.6578 441.00
32.723 523.00
32.7882 493.00
32.8534 495.00
32.9186 492.00
32.9838 469.00
33.0489 465.00
33.1141 465.00
33.1793 477.00
33.2445 444.00
33.3097 482.00
33.3749 470.00
33.4401 468.00
33.5053 413.00
33.5705 408.00
33.6357 431.00
33.7009 466.00
33.7661 443.00
33.8313 440.00
33.8965 527.00
33.9617 477.00
34.0269 488.00
34.0921 500.00
34.1573 528.00
34.2225 514.00
34.2877 483.00
34.3529 454.00
34.4181 410.00
34.4833 460.00
34.5485 468.00
34.6137 404.00
34.6789 417.00
34.7441 466.00
34.8093 536.00
34.8745 516.00
34.9397 465.00
35.0049 448.00
35.0701 433.00
35.1353 423.00
35.2005 419.00
35.2657 443.00
35.3309 516.00
35.3961 509.00
35.4613 503.00
35.5265 542.00
35.5917 480.00
35.6569 445.00
35.7221 421.00
35.7873 393.00
35.8525 408.00
35.9177 483.00
35.9829 419.00
36.0481 432.00
36.1133 454.00
36.1785 458.00
36.2437 488.00
36.3089 455.00
36.3741 499.00
36.4393 442.00
36.5045 468.00
36.5697 446.00
36.6349 424.00
36.7001 432.00
36.7653 398.00
36.8305 377.00
36.8957 396.00
36.9609 426.00
37.0261 439.00
37.0913 394.00
37.1565 479.00
37.2217 467.00
37.2869 444.00
37.3521 504.00
37.4173 574.00
37.4825 651.00
37.5477 780.00
37.6129 759.00
37.6781 668.00
37.7433 565.00
37.8085 524.00
37.8736 478.00
37.9388 443.00
38.004 496.00
38.0692 567.00
38.1344 553.00
38.1996 552.00
38.2648 514.00
38.33 438.00
38.3952 395.00
38.4604 389.00
38.5256 364.00
38.5908 373.00
38.656 380.00
38.7212 382.00
38.7864 371.00
38.8516 350.00
38.9168 359.00
38.982 393.00
39.0472 445.00
39.1124 423.00
39.1776 509.00
39.2428 508.00
39.308 543.00
39.3732 513.00
39.4384 457.00
39.5036 427.00
39.5688 415.00
39.634 445.00
39.6992 412.00
39.7644 405.00
39.8296 344.00
39.8948 405.00
39.96 418.00
40.0252 432.00
40.0904 356.00
40.1556 376.00
40.2208 372.00
40.286 387.00
40.3512 357.00
40.4164 356.00
40.4816 347.00
40.5468 326.00
40.612 298.00
40.6772 349.00
40.7424 312.00
40.8076 327.00
40.8728 332.00
40.938 335.00
41.0032 333.00
41.0684 343.00
41.1336 348.00
41.1988 351.00
41.264 336.00
41.3292 325.00
41.3944 334.00
41.4596 296.00
41.5248 301.00
41.59 338.00
41.6552 311.00
41.7204 334.00
41.7856 363.00
41.8508 322.00
41.916 351.00
41.9812 327.00
42.0464 355.00
42.1116 371.00
42.1768 350.00
42.242 357.00
42.3072 341.00
42.3724 315.00
42.4376 297.00
42.5028 299.00
42.568 292.00
42.6332 324.00
42.6983 300.00
42.7635 338.00
42.8287 368.00
42.8939 364.00
42.9591 349.00
43.0243 380.00
43.0895 331.00
43.1547 356.00
43.2199 340.00
43.2851 322.00
43.3503 337.00
43.4155 318.00
43.4807 290.00
43.5459 323.00
43.6111 325.00
43.6763 295.00
43.7415 313.00
43.8067 322.00
43.8719 330.00
43.9371 349.00
44.0023 351.00
44.0675 348.00
44.1327 320.00
44.1979 296.00
44.2631 300.00
44.3283 314.00
44.3935 290.00
44.4587 312.00
44.5239 291.00
44.5891 275.00
44.6543 286.00
44.7195 290.00
44.7847 296.00
44.8499 303.00
44.9151 388.00
44.9803 343.00
45.0455 335.00
45.1107 337.00
45.1759 331.00
45.2411 371.00
45.3063 344.00
45.3715 371.00
45.4367 362.00
45.5019 383.00
45.5671 419.00
45.6323 400.00
45.6975 394.00
45.7627 359.00
45.8279 396.00
45.8931 388.00
45.9583 436.00
46.0235 427.00
46.0887 443.00
46.1539 396.00
46.2191 386.00
46.2843 311.00
46.3495 293.00
46.4147 300.00
46.4799 332.00
46.5451 300.00
46.6103 294.00
46.6755 290.00
46.7407 278.00
46.8059 331.00
46.8711 305.00
46.9363 285.00
47.0015 292.00
47.0667 292.00
47.1319 321.00
47.1971 321.00
47.2623 312.00
47.3275 295.00
47.3927 237.00
47.4579 318.00
47.523 313.00
47.5882 312.00
47.6534 314.00
47.7186 342.00
47.7838 337.00
47.849 337.00
47.9142 379.00
47.9794 351.00
48.0446 394.00
48.1098 386.00
48.175 390.00
48.2402 377.00
48.3054 337.00
48.3706 376.00
48.4358 351.00
48.501 365.00
48.5662 369.00
48.6314 374.00
48.6966 347.00
48.7618 331.00
48.827 334.00
48.8922 333.00
48.9574 290.00
49.0226 280.00
49.0878 284.00
49.153 282.00
49.2182 314.00
49.2834 325.00
49.3486 308.00
49.4138 271.00
49.479 309.00
49.5442 302.00
49.6094 330.00
49.6746 339.00
49.7398 411.00
49.805 389.00
49.8702 422.00
49.9354 408.00
50.0006 394.00
50.0658 334.00
50.131 342.00
50.1962 293.00
50.2614 273.00
50.3266 249.00
50.3918 312.00
50.457 293.00
50.5222 284.00
50.5874 285.00
50.6526 294.00
50.7178 283.00
50.783 281.00
50.8482 312.00
50.9134 370.00
50.9786 354.00
51.0438 379.00
51.109 339.00
51.1742 315.00
51.2394 316.00
51.3046 263.00
51.3698 261.00
51.435 240.00
51.5002 250.00
51.5654 296.00
51.6306 246.00
51.6958 261.00
51.761 279.00
51.8262 239.00
51.8914 271.00
51.9566 243.00
52.0218 222.00
52.087 266.00
52.1522 267.00
52.2174 267.00
52.2826 267.00
52.3477 286.00
52.4129 305.00
52.4781 280.00
52.5433 232.00
52.6085 288.00
52.6737 263.00
52.7389 272.00
52.8041 263.00
52.8693 286.00
52.9345 246.00
52.9997 264.00
53.0649 275.00
53.1301 276.00
53.1953 260.00
53.2605 249.00
53.3257 263.00
53.3909 263.00
53.4561 238.00
53.5213 268.00
53.5865 262.00
53.6517 256.00
53.7169 229.00
53.7821 239.00
53.8473 262.00
53.9125 235.00
53.9777 280.00
54.0429 231.00
54.1081 211.00
54.1733 230.00
54.2385 271.00
54.3037 234.00
54.3689 229.00
54.4341 292.00
54.4993 289.00
54.5645 271.00
54.6297 297.00
54.6949 269.00
54.7601 259.00
54.8253 289.00
54.8905 270.00
54.9557 230.00
55.0209 300.00
55.0861 235.00
55.1513 286.00
55.2165 246.00
55.2817 229.00
55.3469 262.00
55.4121 232.00
55.4773 236.00
55.5425 237.00
55.6077 256.00
55.6729 275.00
55.7381 290.00
55.8033 283.00
55.8685 299.00
55.9337 315.00
55.9989 289.00
56.0641 310.00
56.1293 266.00
56.1945 310.00
56.2597 294.00
56.3249 263.00
56.3901 288.00
56.4553 258.00
56.5205 218.00
56.5857 246.00
56.6509 219.00
56.7161 245.00
56.7813 239.00
56.8465 236.00
56.9117 237.00
56.9769 217.00
57.042 225.00
57.1073 241.00
57.1724 262.00
57.2376 201.00
57.3028 208.00
57.368 208.00
57.4332 233.00
57.4984 218.00
57.5636 262.00
57.6288 227.00
57.694 226.00
57.7592 219.00
57.8244 215.00
57.8896 214.00
57.9548 211.00
58.02 221.00
58.0852 206.00
58.1504 197.00
58.2156 214.00
58.2808 208.00
58.346 194.00
58.4112 191.00
58.4764 191.00
58.5416 198.00
58.6068 228.00
58.672 205.00
58.7372 214.00
58.8024 197.00
58.8676 179.00
58.9328 213.00
58.998 212.00
59.0632 200.00
59.1284 204.00
59.1936 220.00
59.2588 222.00
59.324 257.00
59.3892 249.00
59.4544 216.00
59.5196 264.00
59.5848 283.00
59.65 244.00
59.7152 285.00
59.7804 227.00
59.8456 243.00
59.9108 278.00
59.976 235.00
60.0412 219.00
60.1064 239.00
60.1716 264.00
60.2368 231.00
60.302 266.00
60.3672 248.00
60.4324 292.00
60.4976 313.00
60.5628 324.00
60.628 357.00
60.6932 325.00
60.7584 291.00
60.8236 283.00
60.8888 290.00
60.954 290.00
61.0192 281.00
61.0844 242.00
61.1496 232.00
61.2148 256.00
61.28 260.00
61.3452 201.00
61.4104 228.00
61.4756 239.00
61.5408 179.00
61.606 205.00
61.6712 226.00
61.7364 215.00
61.8016 225.00
61.8667 224.00
61.932 203.00
61.9971 202.00
62.0623 213.00
62.1275 216.00
62.1927 227.00
62.2579 219.00
62.3231 202.00
62.3883 207.00
62.4535 217.00
62.5187 235.00
62.5839 203.00
62.6491 187.00
62.7143 172.00
62.7795 220.00
62.8447 209.00
62.9099 240.00
62.9751 260.00
63.0403 222.00
63.1055 208.00
63.1707 203.00
63.2359 240.00
63.3011 207.00
63.3663 236.00
63.4315 219.00
63.4967 263.00
63.5619 246.00
63.6271 220.00
63.6923 225.00
63.7575 230.00
63.8227 227.00
63.8879 240.00
63.9531 240.00
64.0183 222.00
64.0835 251.00
64.1487 236.00
64.2139 221.00
64.2791 249.00
64.3443 212.00
64.4095 205.00
64.4747 233.00
64.5399 197.00
64.6051 236.00
64.6703 249.00
64.7355 232.00
64.8007 218.00
64.8659 222.00
64.9311 209.00
64.9963 234.00
65.0615 210.00
65.1267 216.00
65.1919 204.00
65.2571 230.00
65.3223 215.00
65.3875 214.00
65.4527 258.00
65.5179 257.00
65.5831 236.00
65.6483 250.00
65.7135 271.00
65.7787 225.00
65.8439 256.00
65.9091 205.00
65.9743 229.00
66.0395 212.00
66.1047 209.00
66.1699 218.00
66.2351 215.00
66.3003 204.00
66.3655 237.00
66.4307 238.00
66.4959 242.00
66.561 260.00
66.6263 276.00
66.6915 266.00
66.7566 303.00
66.8218 294.00
66.887 301.00
66.9522 292.00
67.0174 298.00
67.0826 288.00
67.1478 265.00
67.213 250.00
67.2782 261.00
67.3434 244.00
67.4086 285.00
67.4738 284.00
67.539 236.00
67.6042 239.00
67.6694 259.00
67.7346 295.00
67.7998 277.00
67.865 261.00
67.9302 295.00
67.9954 282.00
68.0606 273.00
68.1258 275.00
68.191 270.00
68.2562 278.00
68.3214 216.00
68.3866 206.00
68.4518 230.00
68.517 211.00
68.5822 207.00
68.6474 207.00
68.7126 208.00
68.7778 216.00
68.843 216.00
68.9082 244.00
68.9734 215.00
69.0386 199.00
69.1038 204.00
69.169 213.00
69.2342 202.00
69.2994 204.00
69.3646 215.00
69.4298 186.00
69.495 197.00
69.5602 193.00
69.6254 216.00
69.6906 171.00
69.7558 205.00
69.821 172.00
69.8862 186.00
69.9514 195.00
70.0166 205.00
70.0818 208.00
70.147 208.00
70.2122 198.00
70.2774 158.00
70.3426 205.00
70.4078 174.00
70.473 187.00
70.5382 174.00
70.6034 197.00
70.6686 211.00
70.7338 219.00
70.799 189.00
70.8642 213.00
70.9294 219.00
70.9946 180.00
71.0598 210.00
71.125 188.00
71.1902 196.00
71.2554 213.00
71.3205 215.00
71.3858 169.00
71.451 208.00
71.5162 204.00
71.5813 208.00
71.6465 206.00
71.7117 216.00
71.7769 189.00
71.8421 197.00
71.9073 211.00
71.9725 206.00
72.0377 202.00
72.1029 204.00
72.1681 212.00
72.2333 185.00
72.2985 205.00
72.3637 210.00
72.4289 219.00
72.4941 210.00
72.5593 201.00
72.6245 201.00
72.6897 187.00
72.7549 215.00
72.8201 183.00
72.8853 204.00
72.9505 189.00
73.0157 204.00
73.0809 203.00
73.1461 216.00
73.2113 197.00
73.2765 209.00
73.3417 211.00
73.4069 191.00
73.4721 193.00
73.5373 195.00
73.6025 190.00
73.6677 201.00
73.7329 191.00
73.7981 193.00
73.8633 189.00
73.9285 194.00
73.9937 214.00
74.0589 181.00
74.1241 184.00
74.1893 195.00
74.2545 205.00
74.3197 187.00
74.3849 222.00
74.4501 212.00
74.5153 181.00
74.5805 194.00
74.6457 217.00
74.7109 190.00
74.7761 206.00
74.8413 184.00
74.9065 214.00
74.9717 214.00
75.0369 188.00
75.1021 220.00
75.1673 230.00
75.2325 218.00
75.2977 217.00
75.3629 221.00
75.4281 208.00
75.4933 212.00
75.5585 227.00
75.6237 226.00
75.6889 203.00
75.7541 213.00
75.8193 215.00
75.8845 214.00
75.9497 231.00
76.0149 216.00
76.0801 241.00
76.1452 196.00
76.2104 248.00
76.2756 234.00
76.3409 260.00
76.406 219.00
76.4712 178.00
76.5364 234.00
76.6016 195.00
76.6668 201.00
76.732 223.00
76.7972 213.00
76.8624 232.00
76.9276 227.00
76.9928 187.00
77.058 232.00
77.1232 202.00
77.1884 241.00
77.2536 212.00
77.3188 233.00
77.384 211.00
77.4492 204.00
77.5144 226.00
77.5796 189.00
77.6448 223.00
77.71 235.00
77.7752 257.00
77.8404 248.00
77.9056 246.00
77.9708 245.00
78.036 231.00
78.1012 249.00
78.1664 242.00
78.2316 225.00
78.2968 229.00
78.362 210.00
78.4272 236.00
78.4924 262.00
78.5576 231.00
78.6228 243.00
78.688 217.00
78.7532 216.00
78.8184 223.00
78.8836 210.00
78.9488 239.00
79.014 246.00
79.0792 235.00
79.1444 230.00
79.2096 214.00
79.2748 222.00
79.34 258.00
79.4052 228.00
79.4704 228.00
79.5356 223.00
79.6008 265.00
79.666 239.00
79.7312 219.00
79.7964 243.00
79.8616 240.00
79.9268 197.00
79.992 214.00
80.0572 207.00
80.1224 220.00
80.1876 200.00
80.2528 213.00
80.318 221.00
80.3832 224.00
80.4484 227.00
80.5136 227.00
80.5788 234.00
80.644 223.00
80.7092 233.00
80.7744 217.00
80.8396 260.00
80.9048 273.00
80.9699 284.00
81.0351 221.00
81.1003 232.00
81.1655 257.00
81.2307 208.00
81.2959 219.00
81.3611 228.00
81.4263 223.00
81.4915 228.00
81.5567 245.00
81.6219 235.00
81.6871 234.00
81.7523 230.00
81.8175 243.00
81.8827 213.00
81.9479 231.00
82.0131 213.00
82.0783 211.00
82.1435 209.00
82.2087 228.00
82.2739 221.00
82.3391 240.00
82.4043 190.00
82.4695 210.00
82.5347 221.00
82.5999 218.00
82.6651 220.00
82.7303 210.00
82.7955 226.00
82.8607 202.00
82.9259 212.00
82.9911 222.00
83.0563 261.00
83.1215 249.00
83.1867 243.00
83.2519 205.00
83.3171 221.00
83.3823 223.00
83.4475 237.00
83.5127 229.00
83.5779 225.00
83.6431 262.00
83.7083 218.00
83.7735 207.00
83.8387 241.00
83.9039 206.00
83.9691 199.00
84.0343 214.00
84.0995 216.00
84.1647 233.00
84.2299 211.00
84.2951 204.00
84.3603 194.00
84.4255 224.00
84.4907 223.00
84.5559 223.00
84.6211 217.00
84.6863 222.00
84.7515 219.00
84.8167 211.00
84.8819 241.00
84.9471 199.00
85.0123 210.00
85.0775 215.00
85.1427 227.00
85.2079 234.00
85.2731 234.00
85.3383 229.00
85.4035 211.00
85.4687 210.00
85.5339 204.00
85.5991 207.00
85.6643 222.00
85.7295 238.00
85.7946 212.00
85.8598 202.00
85.925 227.00
85.9903 208.00
86.0554 219.00
86.1206 195.00
86.1858 228.00
86.251 177.00
86.3162 182.00
86.3814 206.00
86.4466 211.00
86.5118 212.00
86.577 195.00
86.6422 193.00
86.7074 199.00
86.7726 220.00
86.8378 173.00
86.903 218.00
86.9682 218.00
87.0334 220.00
87.0986 193.00
87.1638 180.00
87.229 189.00
87.2942 214.00
87.3594 221.00
87.4246 191.00
87.4898 204.00
87.555 183.00
87.6202 189.00
87.6854 210.00
87.7506 224.00
87.8158 190.00
87.881 203.00
87.9462 203.00
88.0114 218.00
88.0766 209.00
88.1418 187.00
88.207 208.00
88.2722 226.00
88.3374 188.00
88.4026 205.00
88.4678 211.00
88.533 200.00
88.5982 199.00
88.6634 193.00
88.7286 188.00
88.7938 193.00
88.859 183.00
88.9242 182.00
88.9894 203.00
89.0546 229.00
89.1198 221.00
89.185 190.00
89.2502 197.00
89.3154 200.00
89.3806 193.00
89.4458 201.00
89.511 184.00
89.5762 195.00
89.6414 187.00
89.7066 180.00
89.7718 216.00
89.837 175.00
89.9022 191.00
89.9674 231.00
90.0326 189.00
90.0978 201.00
90.163 194.00
90.2282 196.00
90.2934 181.00
90.3586 163.00
90.4238 168.00
90.489 144.00
90.5542 178.00
90.6193 177.00
90.6845 182.00
90.7497 183.00
90.8149 174.00
90.8801 196.00
90.9453 185.00
91.0105 172.00
91.0757 176.00
91.1409 194.00
91.2061 204.00
91.2713 192.00
91.3365 198.00
91.4017 182.00
91.4669 185.00
91.5321 184.00
91.5973 175.00
91.6625 168.00
91.7277 168.00
91.7929 168.00
91.8581 207.00
91.9233 171.00
91.9885 190.00
92.0537 195.00
92.1189 178.00
92.1841 185.00
92.2493 185.00
92.3145 186.00
92.3797 171.00
92.4449 190.00
92.5101 197.00
92.5753 184.00
92.6405 182.00
92.7057 154.00
92.7709 188.00
92.8361 192.00
92.9013 183.00
92.9665 187.00
93.0317 181.00
93.0969 186.00
93.1621 154.00
93.2273 170.00
93.2925 205.00
93.3577 168.00
93.4229 180.00
93.4881 165.00
93.5533 186.00
93.6185 197.00
93.6837 180.00
93.7489 151.00
93.8141 187.00
93.8793 197.00
93.9445 201.00
94.0097 199.00
94.0749 184.00
94.1401 214.00
94.2053 214.00
94.2705 196.00
94.3357 192.00
94.4009 195.00
94.4661 188.00
94.5313 230.00
94.5965 205.00
94.6617 180.00
94.7269 184.00
94.7921 197.00
94.8573 190.00
94.9225 197.00
94.9877 190.00
95.0529 192.00
95.1181 201.00
95.1833 174.00
95.2485 185.00
95.3137 170.00
95.3789 191.00
95.444 192.00
95.5092 199.00
95.5744 210.00
95.6396 177.00
95.7048 196.00
95.77 194.00
95.8352 164.00
95.9004 157.00
95.9656 210.00
96.0308 169.00
96.096 160.00
96.1612 178.00
96.2264 190.00
96.2916 183.00
96.3568 209.00
96.422 194.00
96.4872 188.00
96.5524 183.00
96.6176 198.00
96.6828 189.00
96.748 201.00
96.8132 195.00
96.8784 197.00
96.9436 193.00
97.0088 200.00
97.074 186.00
97.1392 205.00
97.2044 176.00
97.2696 193.00
97.3348 184.00
97.4 185.00
97.4652 175.00
97.5304 190.00
97.5956 215.00
97.6608 199.00
97.726 191.00
97.7912 170.00
97.8564 170.00
97.9216 202.00
97.9868 189.00
98.052 185.00
98.1172 208.00
98.1824 203.00
98.2476 171.00
98.3128 175.00
98.378 178.00
98.4432 187.00
98.5084 198.00
98.5736 191.00
98.6388 190.00
98.704 160.00
98.7692 164.00
98.8344 195.00
98.8996 226.00
98.9648 180.00
99.03 188.00
99.0952 185.00
99.1604 152.00
99.2256 157.00
99.2908 178.00
99.356 184.00
99.4212 195.00
99.4864 193.00
99.5516 174.00
99.6168 155.00
99.682 167.00
99.7472 170.00
99.8124 172.00
99.8776 165.00
99.9428 179.00
100.008 177.00
100.073 167.00
100.095 175.00