File: data/xrd_creation/results/MINES_14.xy
9.903433 2618.00
9.968632 2593.00
10.0338 2640.00
10.099 2565.00
10.1642 2571.00
10.2294 2593.00
10.2946 2485.00
10.3598 2467.00
10.425 2505.00
10.4902 2493.00
10.5554 2408.00
10.6206 2426.00
10.6858 2412.00
10.751 2375.00
10.8162 2268.00
10.8814 2279.00
10.9466 2327.00
11.0118 2357.00
11.077 2261.00
11.1422 2216.00
11.2074 2185.00
11.2726 2204.00
11.3378 2228.00
11.403 2133.00
11.4682 2146.00
11.5334 2167.00
11.5986 2073.00
11.6638 2070.00
11.729 2020.00
11.7942 2160.00
11.8594 1979.00
11.9246 2083.00
11.9898 2035.00
12.055 2121.00
12.1202 2010.00
12.1854 2066.00
12.2506 1928.00
12.3158 1937.00
12.381 1931.00
12.4462 1894.00
12.5114 1960.00
12.5766 1892.00
12.6418 1887.00
12.707 1812.00
12.7722 1881.00
12.8374 1779.00
12.9026 1804.00
12.9678 1750.00
13.033 1723.00
13.0982 1740.00
13.1634 1793.00
13.2286 1618.00
13.2938 1706.00
13.359 1759.00
13.4242 1739.00
13.4894 1819.00
13.5546 1723.00
13.6198 1709.00
13.685 1734.00
13.7502 1623.00
13.8154 1663.00
13.8805 1645.00
13.9457 1628.00
14.0109 1640.00
14.0761 1678.00
14.1413 1534.00
14.2065 1551.00
14.2717 1548.00
14.3369 1681.00
14.4021 1592.00
14.4673 1635.00
14.5325 1561.00
14.5977 1514.00
14.6629 1558.00
14.7281 1527.00
14.7933 1522.00
14.8585 1574.00
14.9237 1660.00
14.9889 1484.00
15.0541 1706.00
15.1193 1786.00
15.1845 2032.00
15.2497 2049.00
15.3149 1981.00
15.3801 1789.00
15.4453 1624.00
15.5105 1536.00
15.5757 1511.00
15.6409 1508.00
15.7061 1436.00
15.7713 1461.00
15.8365 1475.00
15.9017 1506.00
15.9669 1503.00
16.0321 1500.00
16.0973 1485.00
16.1625 1535.00
16.2277 1611.00
16.2929 1672.00
16.3581 1666.00
16.4233 1566.00
16.4885 1515.00
16.5537 1412.00
16.6189 1479.00
16.6841 1429.00
16.7493 1356.00
16.8145 1284.00
16.8797 1340.00
16.9449 1366.00
17.0101 1351.00
17.0753 1359.00
17.1405 1342.00
17.2057 1267.00
17.2709 1283.00
17.3361 1300.00
17.4013 1311.00
17.4665 1330.00
17.5317 1280.00
17.5969 1299.00
17.6621 1261.00
17.7273 1251.00
17.7925 1306.00
17.8577 1277.00
17.9229 1288.00
17.9881 1214.00
18.0533 1234.00
18.1185 1320.00
18.1837 1290.00
18.2489 1346.00
18.3141 1355.00
18.3793 1372.00
18.4445 1347.00
18.5097 1377.00
18.5749 1350.00
18.6401 1387.00
18.7052 1370.00
18.7704 1420.00
18.8356 1414.00
18.9008 1376.00
18.966 1404.00
19.0312 1462.00
19.0964 1670.00
19.1616 2193.00
19.2268 2773.00
19.292 3288.00
19.3572 3172.00
19.4224 2556.00
19.4876 2161.00
19.5528 1751.00
19.618 1480.00
19.6832 1356.00
19.7484 1200.00
19.8136 1123.00
19.8788 1163.00
19.944 1122.00
20.0092 1116.00
20.0744 1086.00
20.1396 1090.00
20.2048 1107.00
20.27 1157.00
20.3352 1120.00
20.4004 1138.00
20.4656 1148.00
20.5308 1176.00
20.596 1264.00
20.6612 1177.00
20.7264 1167.00
20.7916 1207.00
20.8568 1027.00
20.922 1131.00
20.9872 1052.00
21.0524 1051.00
21.1176 1041.00
21.1828 1007.00
21.248 1075.00
21.3132 1012.00
21.3784 1025.00
21.4436 1075.00
21.5088 1066.00
21.574 1036.00
21.6392 1042.00
21.7044 1012.00
21.7696 1044.00
21.8348 1040.00
21.9 1054.00
21.9652 1074.00
22.0304 1011.00
22.0956 1040.00
22.1608 1092.00
22.226 1164.00
22.2912 1151.00
22.3564 1150.00
22.4216 1124.00
22.4868 1288.00
22.552 1713.00
22.6172 2421.00
22.6824 3675.00
22.7476 5344.00
22.8128 5979.00
22.878 5644.00
22.9432 4162.00
23.0084 2851.00
23.0736 1884.00
23.1388 1435.00
23.204 1225.00
23.2692 1098.00
23.3344 1085.00
23.3996 1150.00
23.4647 1152.00
23.5299 1317.00
23.5951 1727.00
23.6603 2489.00
23.7255 2879.00
23.7907 2420.00
23.8559 1779.00
23.9211 1290.00
23.9863 1124.00
24.0515 1190.00
24.1167 1391.00
24.1819 1731.00
24.2471 2120.00
24.3123 2012.00
24.3775 1679.00
24.4427 1383.00
24.5079 1337.00
24.5731 1599.00
24.6383 2131.00
24.7035 3083.00
24.7687 3744.00
24.8339 3376.00
24.8991 2629.00
24.9643 1915.00
25.0295 1949.00
25.0947 2428.00
25.1599 3166.00
25.2251 3999.00
25.2903 4917.00
25.3555 6296.00
25.4207 9335.00
25.4859 13788.00
25.5511 19360.00
25.6163 21436.00
25.6815 18478.00
25.7467 12715.00
25.8119 7715.00
25.8771 4648.00
25.9423 2767.00
26.0075 1889.00
26.0727 1418.00
26.1379 1237.00
26.2031 1275.00
26.2683 1339.00
26.3335 1554.00
26.3987 1756.00
26.4639 1902.00
26.5291 1653.00
26.5943 1410.00
26.6595 1203.00
26.7247 1070.00
26.7899 1114.00
26.8551 1105.00
26.9203 1047.00
26.9855 1046.00
27.0507 954.00
27.1159 965.00
27.1811 1007.00
27.2463 916.00
27.3115 914.00
27.3767 930.00
27.4419 953.00
27.5071 843.00
27.5723 892.00
27.6375 877.00
27.7027 820.00
27.7679 960.00
27.8331 938.00
27.8983 878.00
27.9635 996.00
28.0287 1116.00
28.0939 1412.00
28.1591 1933.00
28.2243 2436.00
28.2894 2517.00
28.3546 2188.00
28.4198 1540.00
28.485 1146.00
28.5502 1006.00
28.6154 918.00
28.6806 854.00
28.7458 831.00
28.811 825.00
28.8762 852.00
28.9414 770.00
29.0066 862.00
29.0718 757.00
29.137 779.00
29.2022 778.00
29.2674 822.00
29.3326 802.00
29.3978 745.00
29.463 803.00
29.5282 784.00
29.5934 822.00
29.6586 798.00
29.7238 796.00
29.789 759.00
29.8542 744.00
29.9194 767.00
29.9846 784.00
30.0498 789.00
30.115 763.00
30.1802 761.00
30.2454 831.00
30.3106 802.00
30.3758 779.00
30.441 876.00
30.5062 912.00
30.5714 938.00
30.6366 969.00
30.7018 869.00
30.767 823.00
30.8322 778.00
30.8974 796.00
30.9626 736.00
31.0278 741.00
31.093 725.00
31.1582 704.00
31.2234 671.00
31.2886 726.00
31.3538 738.00
31.419 748.00
31.4842 742.00
31.5494 757.00
31.6146 807.00
31.6798 834.00
31.745 859.00
31.8102 921.00
31.8754 882.00
31.9406 841.00
32.0058 852.00
32.071 788.00
32.1362 816.00
32.2014 720.00
32.2666 776.00
32.3318 707.00
32.397 739.00
32.4622 661.00
32.5274 736.00
32.5926 700.00
32.6578 696.00
32.723 776.00
32.7882 795.00
32.8534 888.00
32.9186 1036.00
32.9838 987.00
33.0489 935.00
33.1141 814.00
33.1793 798.00
33.2445 714.00
33.3097 680.00
33.3749 682.00
33.4401 648.00
33.5053 637.00
33.5705 673.00
33.6357 664.00
33.7009 733.00
33.7661 761.00
33.8313 774.00
33.8965 860.00
33.9617 912.00
34.0269 1016.00
34.0921 986.00
34.1573 941.00
34.2225 776.00
34.2877 766.00
34.3529 721.00
34.4181 656.00
34.4833 599.00
34.5485 603.00
34.6137 639.00
34.6789 623.00
34.7441 613.00
34.8093 576.00
34.8745 618.00
34.9397 538.00
35.0049 669.00
35.0701 623.00
35.1353 632.00
35.2005 639.00
35.2657 635.00
35.3309 634.00
35.3961 598.00
35.4613 606.00
35.5265 585.00
35.5917 647.00
35.6569 646.00
35.7221 646.00
35.7873 642.00
35.8525 662.00
35.9177 630.00
35.9829 672.00
36.0481 677.00
36.1133 641.00
36.1785 602.00
36.2437 645.00
36.3089 657.00
36.3741 629.00
36.4393 629.00
36.5045 567.00
36.5697 595.00
36.6349 581.00
36.7001 605.00
36.7653 589.00
36.8305 622.00
36.8957 592.00
36.9609 698.00
37.0261 667.00
37.0913 715.00
37.1565 784.00
37.2217 839.00
37.2869 869.00
37.3521 954.00
37.4173 1176.00
37.4825 1423.00
37.5477 1525.00
37.6129 1471.00
37.6781 1294.00
37.7433 1100.00
37.8085 917.00
37.8736 915.00
37.9388 859.00
38.004 972.00
38.0692 1010.00
38.1344 1101.00
38.1996 1040.00
38.2648 868.00
38.33 744.00
38.3952 748.00
38.4604 662.00
38.5256 626.00
38.5908 618.00
38.656 655.00
38.7212 560.00
38.7864 579.00
38.8516 605.00
38.9168 651.00
38.982 654.00
39.0472 752.00
39.1124 1051.00
39.1776 1304.00
39.2428 1323.00
39.308 1306.00
39.3732 1063.00
39.4384 881.00
39.5036 939.00
39.5688 868.00
39.634 924.00
39.6992 836.00
39.7644 845.00
39.8296 784.00
39.8948 879.00
39.96 887.00
40.0252 859.00
40.0904 851.00
40.1556 761.00
40.2208 711.00
40.286 619.00
40.3512 634.00
40.4164 554.00
40.4816 530.00
40.5468 544.00
40.612 499.00
40.6772 477.00
40.7424 498.00
40.8076 465.00
40.8728 448.00
40.938 508.00
41.0032 484.00
41.0684 477.00
41.1336 465.00
41.1988 527.00
41.264 570.00
41.3292 522.00
41.3944 581.00
41.4596 571.00
41.5248 610.00
41.59 600.00
41.6552 584.00
41.7204 526.00
41.7856 518.00
41.8508 531.00
41.916 513.00
41.9812 575.00
42.0464 481.00
42.1116 511.00
42.1768 495.00
42.242 505.00
42.3072 461.00
42.3724 430.00
42.4376 477.00
42.5028 472.00
42.568 485.00
42.6332 504.00
42.6983 600.00
42.7635 715.00
42.8287 907.00
42.8939 987.00
42.9591 1025.00
43.0243 1010.00
43.0895 964.00
43.1547 835.00
43.2199 821.00
43.2851 747.00
43.3503 669.00
43.4155 623.00
43.4807 625.00
43.5459 554.00
43.6111 534.00
43.6763 510.00
43.7415 562.00
43.8067 561.00
43.8719 600.00
43.9371 636.00
44.0023 624.00
44.0675 592.00
44.1327 565.00
44.1979 485.00
44.2631 485.00
44.3283 482.00
44.3935 489.00
44.4587 481.00
44.5239 458.00
44.5891 486.00
44.6543 464.00
44.7195 470.00
44.7847 481.00
44.8499 525.00
44.9151 516.00
44.9803 553.00
45.0455 559.00
45.1107 518.00
45.1759 531.00
45.2411 587.00
45.3063 586.00
45.3715 607.00
45.4367 605.00
45.5019 627.00
45.5671 637.00
45.6323 666.00
45.6975 639.00
45.7627 713.00
45.8279 703.00
45.8931 751.00
45.9583 804.00
46.0235 915.00
46.0887 845.00
46.1539 816.00
46.2191 712.00
46.2843 592.00
46.3495 511.00
46.4147 470.00
46.4799 430.00
46.5451 434.00
46.6103 512.00
46.6755 525.00
46.7407 542.00
46.8059 633.00
46.8711 764.00
46.9363 866.00
47.0015 1030.00
47.0667 1013.00
47.1319 911.00
47.1971 826.00
47.2623 719.00
47.3275 644.00
47.3927 643.00
47.4579 660.00
47.523 648.00
47.5882 691.00
47.6534 682.00
47.7186 686.00
47.7838 709.00
47.849 771.00
47.9142 965.00
47.9794 1037.00
48.0446 1097.00
48.1098 1070.00
48.175 1081.00
48.2402 1201.00
48.3054 1525.00
48.3706 1705.00
48.4358 1860.00
48.501 1852.00
48.5662 1793.00
48.6314 1587.00
48.6966 1394.00
48.7618 1263.00
48.827 1064.00
48.8922 888.00
48.9574 718.00
49.0226 628.00
49.0878 564.00
49.153 590.00
49.2182 530.00
49.2834 537.00
49.3486 492.00
49.4138 457.00
49.479 430.00
49.5442 452.00
49.6094 437.00
49.6746 454.00
49.7398 430.00
49.805 472.00
49.8702 536.00
49.9354 449.00
50.0006 519.00
50.0658 468.00
50.131 455.00
50.1962 422.00
50.2614 480.00
50.3266 502.00
50.3918 472.00
50.457 527.00
50.5222 568.00
50.5874 532.00
50.6526 458.00
50.7178 505.00
50.783 447.00
50.8482 441.00
50.9134 430.00
50.9786 441.00
51.0438 485.00
51.109 452.00
51.1742 457.00
51.2394 452.00
51.3046 411.00
51.3698 389.00
51.435 395.00
51.5002 405.00
51.5654 414.00
51.6306 447.00
51.6958 423.00
51.761 465.00
51.8262 390.00
51.8914 415.00
51.9566 434.00
52.0218 393.00
52.087 404.00
52.1522 412.00
52.2174 416.00
52.2826 421.00
52.3477 439.00
52.4129 462.00
52.4781 482.00
52.5433 505.00
52.6085 521.00
52.6737 489.00
52.7389 489.00
52.8041 490.00
52.8693 449.00
52.9345 437.00
52.9997 453.00
53.0649 440.00
53.1301 474.00
53.1953 456.00
53.2605 421.00
53.3257 430.00
53.3909 405.00
53.4561 440.00
53.5213 406.00
53.5865 428.00
53.6517 395.00
53.7169 377.00
53.7821 367.00
53.8473 419.00
53.9125 402.00
53.9777 428.00
54.0429 446.00
54.1081 480.00
54.1733 519.00
54.2385 537.00
54.3037 484.00
54.3689 495.00
54.4341 485.00
54.4993 449.00
54.5645 432.00
54.6297 419.00
54.6949 427.00
54.7601 372.00
54.8253 403.00
54.8905 379.00
54.9557 446.00
55.0209 407.00
55.0861 395.00
55.1513 435.00
55.2165 477.00
55.2817 416.00
55.3469 487.00
55.4121 543.00
55.4773 629.00
55.5425 691.00
55.6077 755.00
55.6729 720.00
55.7381 729.00
55.8033 757.00
55.8685 812.00
55.9337 867.00
55.9989 841.00
56.0641 874.00
56.1293 925.00
56.1945 829.00
56.2597 820.00
56.3249 649.00
56.3901 560.00
56.4553 514.00
56.5205 516.00
56.5857 438.00
56.6509 445.00
56.7161 396.00
56.7813 408.00
56.8465 375.00
56.9117 425.00
56.9769 412.00
57.042 403.00
57.1073 362.00
57.1724 357.00
57.2376 404.00
57.3028 418.00
57.368 376.00
57.4332 429.00
57.4984 404.00
57.5636 394.00
57.6288 391.00
57.694 410.00
57.7592 375.00
57.8244 413.00
57.8896 401.00
57.9548 371.00
58.02 394.00
58.0852 350.00
58.1504 364.00
58.2156 342.00
58.2808 346.00
58.346 365.00
58.4112 337.00
58.4764 377.00
58.5416 333.00
58.6068 350.00
58.672 356.00
58.7372 336.00
58.8024 369.00
58.8676 400.00
58.9328 334.00
58.998 377.00
59.0632 380.00
59.1284 396.00
59.1936 396.00
59.2588 386.00
59.324 401.00
59.3892 388.00
59.4544 400.00
59.5196 406.00
59.5848 401.00
59.65 370.00
59.7152 375.00
59.7804 361.00
59.8456 416.00
59.9108 382.00
59.976 437.00
60.0412 472.00
60.1064 523.00
60.1716 546.00
60.2368 640.00
60.302 630.00
60.3672 704.00
60.4324 729.00
60.4976 670.00
60.5628 689.00
60.628 663.00
60.6932 610.00
60.7584 517.00
60.8236 509.00
60.8888 501.00
60.954 512.00
61.0192 462.00
61.0844 523.00
61.1496 412.00
61.2148 428.00
61.28 428.00
61.3452 383.00
61.4104 370.00
61.4756 359.00
61.5408 353.00
61.606 373.00
61.6712 354.00
61.7364 355.00
61.8016 385.00
61.8667 375.00
61.932 351.00
61.9971 348.00
62.0623 368.00
62.1275 365.00
62.1927 379.00
62.2579 407.00
62.3231 417.00
62.3883 399.00
62.4535 440.00
62.5187 430.00
62.5839 454.00
62.6491 409.00
62.7143 398.00
62.7795 458.00
62.8447 506.00
62.9099 501.00
62.9751 545.00
63.0403 611.00
63.1055 550.00
63.1707 598.00
63.2359 561.00
63.3011 521.00
63.3663 521.00
63.4315 494.00
63.4967 525.00
63.5619 512.00
63.6271 505.00
63.6923 524.00
63.7575 559.00
63.8227 548.00
63.8879 559.00
63.9531 566.00
64.0183 556.00
64.0835 573.00
64.1487 596.00
64.2139 563.00
64.2791 515.00
64.3443 535.00
64.4095 532.00
64.4747 579.00
64.5399 557.00
64.6051 533.00
64.6703 542.00
64.7355 457.00
64.8007 492.00
64.8659 490.00
64.9311 484.00
64.9963 469.00
65.0615 470.00
65.1267 451.00
65.1919 537.00
65.2571 650.00
65.3223 659.00
65.3875 680.00
65.4527 711.00
65.5179 695.00
65.5831 691.00
65.6483 613.00
65.7135 624.00
65.7787 530.00
65.8439 456.00
65.9091 452.00
65.9743 450.00
66.0395 420.00
66.1047 415.00
66.1699 391.00
66.2351 410.00
66.3003 440.00
66.3655 524.00
66.4307 500.00
66.4959 605.00
66.561 652.00
66.6263 755.00
66.6915 800.00
66.7566 873.00
66.8218 857.00
66.887 825.00
66.9522 760.00
67.0174 691.00
67.0826 646.00
67.1478 606.00
67.213 501.00
67.2782 454.00
67.3434 454.00
67.4086 429.00
67.4738 432.00
67.539 391.00
67.6042 469.00
67.6694 414.00
67.7346 455.00
67.7998 487.00
67.865 589.00
67.9302 530.00
67.9954 535.00
68.0606 530.00
68.1258 564.00
68.191 527.00
68.2562 510.00
68.3214 527.00
68.3866 513.00
68.4518 478.00
68.517 439.00
68.5822 432.00
68.6474 387.00
68.7126 392.00
68.7778 385.00
68.843 423.00
68.9082 428.00
68.9734 400.00
69.0386 401.00
69.1038 399.00
69.169 369.00
69.2342 344.00
69.2994 388.00
69.3646 403.00
69.4298 353.00
69.495 389.00
69.5602 379.00
69.6254 451.00
69.6906 457.00
69.7558 468.00
69.821 442.00
69.8862 429.00
69.9514 444.00
70.0166 437.00
70.0818 387.00
70.147 360.00
70.2122 329.00
70.2774 363.00
70.3426 341.00
70.4078 301.00
70.473 342.00
70.5382 353.00
70.6034 372.00
70.6686 355.00
70.7338 367.00
70.799 357.00
70.8642 413.00
70.9294 452.00
70.9946 454.00
71.0598 418.00
71.125 412.00
71.1902 418.00
71.2554 437.00
71.3205 452.00
71.3858 410.00
71.451 468.00
71.5162 503.00
71.5813 458.00
71.6465 508.00
71.7117 497.00
71.7769 498.00
71.8421 482.00
71.9073 467.00
71.9725 476.00
72.0377 475.00
72.1029 477.00
72.1681 417.00
72.2333 393.00
72.2985 408.00
72.3637 380.00
72.4289 369.00
72.4941 355.00
72.5593 390.00
72.6245 332.00
72.6897 307.00
72.7549 333.00
72.8201 353.00
72.8853 328.00
72.9505 334.00
73.0157 285.00
73.0809 313.00
73.1461 326.00
73.2113 344.00
73.2765 343.00
73.3417 333.00
73.4069 305.00
73.4721 325.00
73.5373 323.00
73.6025 315.00
73.6677 333.00
73.7329 288.00
73.7981 321.00
73.8633 320.00
73.9285 277.00
73.9937 313.00
74.0589 352.00
74.1241 344.00
74.1893 377.00
74.2545 351.00
74.3197 361.00
74.3849 343.00
74.4501 368.00
74.5153 370.00
74.5805 428.00
74.6457 372.00
74.7109 396.00
74.7761 414.00
74.8413 395.00
74.9065 420.00
74.9717 423.00
75.0369 385.00
75.1021 400.00
75.1673 398.00
75.2325 388.00
75.2977 384.00
75.3629 378.00
75.4281 394.00
75.4933 333.00
75.5585 358.00
75.6237 347.00
75.6889 355.00
75.7541 413.00
75.8193 372.00
75.8845 360.00
75.9497 413.00
76.0149 401.00
76.0801 394.00
76.1452 442.00
76.2104 412.00
76.2756 440.00
76.3409 347.00
76.406 395.00
76.4712 367.00
76.5364 347.00
76.6016 381.00
76.6668 394.00
76.732 421.00
76.7972 439.00
76.8624 456.00
76.9276 484.00
76.9928 510.00
77.058 542.00
77.1232 487.00
77.1884 531.00
77.2536 565.00
77.3188 624.00
77.384 568.00
77.4492 510.00
77.5144 540.00
77.5796 543.00
77.6448 513.00
77.71 524.00
77.7752 534.00
77.8404 478.00
77.9056 474.00
77.9708 513.00
78.036 471.00
78.1012 448.00
78.1664 425.00
78.2316 440.00
78.2968 413.00
78.362 388.00
78.4272 386.00
78.4924 355.00
78.5576 398.00
78.6228 346.00
78.688 404.00
78.7532 377.00
78.8184 390.00
78.8836 383.00
78.9488 419.00
79.014 421.00
79.0792 368.00
79.1444 437.00
79.2096 389.00
79.2748 379.00
79.34 363.00
79.4052 373.00
79.4704 366.00
79.5356 377.00
79.6008 349.00
79.666 316.00
79.7312 354.00
79.7964 317.00
79.8616 333.00
79.9268 315.00
79.992 297.00
80.0572 329.00
80.1224 292.00
80.1876 320.00
80.2528 300.00
80.318 344.00
80.3832 371.00
80.4484 314.00
80.5136 336.00
80.5788 356.00
80.644 399.00
80.7092 368.00
80.7744 410.00
80.8396 417.00
80.9048 456.00
80.9699 446.00
81.0351 378.00
81.1003 404.00
81.1655 433.00
81.2307 390.00
81.2959 348.00
81.3611 341.00
81.4263 366.00
81.4915 326.00
81.5567 338.00
81.6219 355.00
81.6871 311.00
81.7523 365.00
81.8175 333.00
81.8827 328.00
81.9479 301.00
82.0131 339.00
82.0783 315.00
82.1435 355.00
82.2087 356.00
82.2739 335.00
82.3391 320.00
82.4043 284.00
82.4695 379.00
82.5347 295.00
82.5999 328.00
82.6651 306.00
82.7303 311.00
82.7955 358.00
82.8607 314.00
82.9259 301.00
82.9911 304.00
83.0563 323.00
83.1215 317.00
83.1867 318.00
83.2519 320.00
83.3171 339.00
83.3823 297.00
83.4475 337.00
83.5127 345.00
83.5779 289.00
83.6431 316.00
83.7083 299.00
83.7735 342.00
83.8387 314.00
83.9039 340.00
83.9691 329.00
84.0343 323.00
84.0995 328.00
84.1647 312.00
84.2299 348.00
84.2951 354.00
84.3603 351.00
84.4255 360.00
84.4907 325.00
84.5559 334.00
84.6211 370.00
84.6863 371.00
84.7515 366.00
84.8167 342.00
84.8819 370.00
84.9471 363.00
85.0123 363.00
85.0775 364.00
85.1427 339.00
85.2079 405.00
85.2731 406.00
85.3383 410.00
85.4035 373.00
85.4687 406.00
85.5339 384.00
85.5991 380.00
85.6643 367.00
85.7295 340.00
85.7946 356.00
85.8598 338.00
85.925 331.00
85.9903 309.00
86.0554 287.00
86.1206 304.00
86.1858 326.00
86.251 326.00
86.3162 320.00
86.3814 278.00
86.4466 276.00
86.5118 317.00
86.577 260.00
86.6422 311.00
86.7074 293.00
86.7726 304.00
86.8378 341.00
86.903 294.00
86.9682 261.00
87.0334 305.00
87.0986 324.00
87.1638 340.00
87.229 361.00
87.2942 309.00
87.3594 307.00
87.4246 313.00
87.4898 330.00
87.555 316.00
87.6202 313.00
87.6854 339.00
87.7506 322.00
87.8158 372.00
87.881 343.00
87.9462 320.00
88.0114 325.00
88.0766 359.00
88.1418 314.00
88.207 302.00
88.2722 326.00
88.3374 319.00
88.4026 311.00
88.4678 304.00
88.533 284.00
88.5982 304.00
88.6634 306.00
88.7286 300.00
88.7938 290.00
88.859 300.00
88.9242 304.00
88.9894 297.00
89.0546 310.00
89.1198 259.00
89.185 304.00
89.2502 283.00
89.3154 336.00
89.3806 297.00
89.4458 293.00
89.511 294.00
89.5762 323.00
89.6414 296.00
89.7066 289.00
89.7718 323.00
89.837 285.00
89.9022 268.00
89.9674 282.00
90.0326 312.00
90.0978 271.00
90.163 282.00
90.2282 308.00
90.2934 302.00
90.3586 293.00
90.4238 249.00
90.489 304.00
90.5542 280.00
90.6193 292.00
90.6845 302.00
90.7497 276.00
90.8149 301.00
90.8801 322.00
90.9453 315.00
91.0105 286.00
91.0757 270.00
91.1409 294.00
91.2061 267.00
91.2713 241.00
91.3365 292.00
91.4017 309.00
91.4669 298.00
91.5321 314.00
91.5973 272.00
91.6625 298.00
91.7277 322.00
91.7929 323.00
91.8581 296.00
91.9233 279.00
91.9885 304.00
92.0537 303.00
92.1189 332.00
92.1841 309.00
92.2493 268.00
92.3145 293.00
92.3797 328.00
92.4449 283.00
92.5101 285.00
92.5753 309.00
92.6405 349.00
92.7057 320.00
92.7709 302.00
92.8361 351.00
92.9013 313.00
92.9665 323.00
93.0317 323.00
93.0969 303.00
93.1621 336.00
93.2273 297.00
93.2925 291.00
93.3577 327.00
93.4229 313.00
93.4881 297.00
93.5533 336.00
93.6185 340.00
93.6837 318.00
93.7489 335.00
93.8141 345.00
93.8793 363.00
93.9445 331.00
94.0097 324.00
94.0749 318.00
94.1401 312.00
94.2053 330.00
94.2705 329.00
94.3357 335.00
94.4009 290.00
94.4661 280.00
94.5313 339.00
94.5965 296.00
94.6617 292.00
94.7269 317.00
94.7921 336.00
94.8573 290.00
94.9225 292.00
94.9877 301.00
95.0529 307.00
95.1181 309.00
95.1833 288.00
95.2485 281.00
95.3137 296.00
95.3789 313.00
95.444 283.00
95.5092 294.00
95.5744 291.00
95.6396 296.00
95.7048 304.00
95.77 310.00
95.8352 301.00
95.9004 251.00
95.9656 277.00
96.0308 289.00
96.096 303.00
96.1612 325.00
96.2264 337.00
96.2916 281.00
96.3568 311.00
96.422 283.00
96.4872 302.00
96.5524 292.00
96.6176 334.00
96.6828 335.00
96.748 337.00
96.8132 315.00
96.8784 283.00
96.9436 335.00
97.0088 334.00
97.074 308.00
97.1392 311.00
97.2044 350.00
97.2696 315.00
97.3348 328.00
97.4 290.00
97.4652 336.00
97.5304 304.00
97.5956 298.00
97.6608 296.00
97.726 307.00
97.7912 348.00
97.8564 287.00
97.9216 285.00
97.9868 301.00
98.052 284.00
98.1172 256.00
98.1824 268.00
98.2476 297.00
98.3128 321.00
98.378 287.00
98.4432 284.00
98.5084 292.00
98.5736 247.00
98.6388 288.00
98.704 300.00
98.7692 260.00
98.8344 300.00
98.8996 311.00
98.9648 302.00
99.03 281.00
99.0952 264.00
99.1604 281.00
99.2256 256.00
99.2908 266.00
99.356 313.00
99.4212 312.00
99.4864 286.00
99.5516 302.00
99.6168 265.00
99.682 276.00
99.7472 292.00
99.8124 268.00
99.8776 280.00
99.9428 264.00
100.008 315.00
100.073 310.00
100.095 269.00