File: data/xrd_creation/results/MINES_12.xy
9.903433 2872.00
9.968632 2711.00
10.0338 2748.00
10.099 2597.00
10.1642 2572.00
10.2294 2535.00
10.2946 2547.00
10.3598 2544.00
10.425 2441.00
10.4902 2597.00
10.5554 2465.00
10.6206 2457.00
10.6858 2338.00
10.751 2383.00
10.8162 2384.00
10.8814 2270.00
10.9466 2312.00
11.0118 2227.00
11.077 2241.00
11.1422 2281.00
11.2074 2225.00
11.2726 2193.00
11.3378 2245.00
11.403 2219.00
11.4682 2215.00
11.5334 2085.00
11.5986 2118.00
11.6638 2134.00
11.729 2151.00
11.7942 2097.00
11.8594 2070.00
11.9246 1982.00
11.9898 2032.00
12.055 2025.00
12.1202 1970.00
12.1854 2067.00
12.2506 1898.00
12.3158 1878.00
12.381 1895.00
12.4462 1860.00
12.5114 1860.00
12.5766 1855.00
12.6418 1823.00
12.707 1820.00
12.7722 1836.00
12.8374 1765.00
12.9026 1791.00
12.9678 1768.00
13.033 1742.00
13.0982 1819.00
13.1634 1737.00
13.2286 1677.00
13.2938 1728.00
13.359 1718.00
13.4242 1698.00
13.4894 1669.00
13.5546 1639.00
13.6198 1699.00
13.685 1589.00
13.7502 1682.00
13.8154 1595.00
13.8805 1664.00
13.9457 1657.00
14.0109 1729.00
14.0761 1734.00
14.1413 1845.00
14.2065 1900.00
14.2717 2075.00
14.3369 2026.00
14.4021 1924.00
14.4673 1862.00
14.5325 1737.00
14.5977 1645.00
14.6629 1506.00
14.7281 1495.00
14.7933 1537.00
14.8585 1498.00
14.9237 1512.00
14.9889 1417.00
15.0541 1533.00
15.1193 1453.00
15.1845 1512.00
15.2497 1481.00
15.3149 1418.00
15.3801 1486.00
15.4453 1497.00
15.5105 1441.00
15.5757 1371.00
15.6409 1485.00
15.7061 1442.00
15.7713 1452.00
15.8365 1394.00
15.9017 1485.00
15.9669 1400.00
16.0321 1459.00
16.0973 1399.00
16.1625 1436.00
16.2277 1382.00
16.2929 1438.00
16.3581 1414.00
16.4233 1414.00
16.4885 1420.00
16.5537 1421.00
16.6189 1299.00
16.6841 1280.00
16.7493 1310.00
16.8145 1302.00
16.8797 1299.00
16.9449 1329.00
17.0101 1272.00
17.0753 1297.00
17.1405 1320.00
17.2057 1275.00
17.2709 1247.00
17.3361 1320.00
17.4013 1247.00
17.4665 1353.00
17.5317 1262.00
17.5969 1326.00
17.6621 1240.00
17.7273 1233.00
17.7925 1203.00
17.8577 1267.00
17.9229 1230.00
17.9881 1201.00
18.0533 1188.00
18.1185 1196.00
18.1837 1228.00
18.2489 1216.00
18.3141 1205.00
18.3793 1243.00
18.4445 1201.00
18.5097 1181.00
18.5749 1159.00
18.6401 1184.00
18.7052 1205.00
18.7704 1197.00
18.8356 1151.00
18.9008 1197.00
18.966 1130.00
19.0312 1183.00
19.0964 1269.00
19.1616 1194.00
19.2268 1172.00
19.292 1255.00
19.3572 1122.00
19.4224 1277.00
19.4876 1322.00
19.5528 1269.00
19.618 1245.00
19.6832 1183.00
19.7484 1089.00
19.8136 1122.00
19.8788 1148.00
19.944 1244.00
20.0092 1311.00
20.0744 1255.00
20.1396 1422.00
20.2048 1455.00
20.27 1387.00
20.3352 1317.00
20.4004 1269.00
20.4656 1289.00
20.5308 1350.00
20.596 1493.00
20.6612 1577.00
20.7264 1587.00
20.7916 1669.00
20.8568 1444.00
20.922 1340.00
20.9872 1217.00
21.0524 1076.00
21.1176 1057.00
21.1828 1070.00
21.248 967.00
21.3132 973.00
21.3784 1011.00
21.4436 1024.00
21.5088 1021.00
21.574 998.00
21.6392 1000.00
21.7044 983.00
21.7696 987.00
21.8348 966.00
21.9 966.00
21.9652 875.00
22.0304 991.00
22.0956 942.00
22.1608 961.00
22.226 996.00
22.2912 967.00
22.3564 941.00
22.4216 993.00
22.4868 979.00
22.552 983.00
22.6172 989.00
22.6824 992.00
22.7476 1107.00
22.8128 1123.00
22.878 1136.00
22.9432 1138.00
23.0084 1061.00
23.0736 1031.00
23.1388 1043.00
23.204 945.00
23.2692 1013.00
23.3344 913.00
23.3996 977.00
23.4647 992.00
23.5299 982.00
23.5951 977.00
23.6603 1085.00
23.7255 1191.00
23.7907 1236.00
23.8559 1242.00
23.9211 1178.00
23.9863 1045.00
24.0515 1032.00
24.1167 936.00
24.1819 969.00
24.2471 992.00
24.3123 1109.00
24.3775 1143.00
24.4427 1182.00
24.5079 1152.00
24.5731 1105.00
24.6383 1151.00
24.7035 1209.00
24.7687 1315.00
24.8339 1405.00
24.8991 1331.00
24.9643 1254.00
25.0295 1200.00
25.0947 1255.00
25.1599 1325.00
25.2251 1489.00
25.2903 1797.00
25.3555 1925.00
25.4207 2202.00
25.4859 2302.00
25.5511 2587.00
25.6163 2400.00
25.6815 2291.00
25.7467 2127.00
25.8119 1742.00
25.8771 1579.00
25.9423 1319.00
26.0075 1143.00
26.0727 1109.00
26.1379 1096.00
26.2031 1107.00
26.2683 1254.00
26.3335 1466.00
26.3987 1810.00
26.4639 1948.00
26.5291 1879.00
26.5943 1681.00
26.6595 1524.00
26.7247 1242.00
26.7899 1079.00
26.8551 911.00
26.9203 887.00
26.9855 838.00
27.0507 795.00
27.1159 809.00
27.1811 872.00
27.2463 806.00
27.3115 770.00
27.3767 797.00
27.4419 806.00
27.5071 900.00
27.5723 902.00
27.6375 861.00
27.7027 850.00
27.7679 822.00
27.8331 758.00
27.8983 776.00
27.9635 846.00
28.0287 847.00
28.0939 816.00
28.1591 823.00
28.2243 904.00
28.2894 928.00
28.3546 922.00
28.4198 801.00
28.485 829.00
28.5502 845.00
28.6154 853.00
28.6806 812.00
28.7458 875.00
28.811 1033.00
28.8762 1052.00
28.9414 1054.00
29.0066 892.00
29.0718 836.00
29.137 821.00
29.2022 730.00
29.2674 764.00
29.3326 721.00
29.3978 724.00
29.463 748.00
29.5282 692.00
29.5934 738.00
29.6586 739.00
29.7238 705.00
29.789 801.00
29.8542 792.00
29.9194 862.00
29.9846 1006.00
30.0498 1133.00
30.115 1494.00
30.1802 1745.00
30.2454 1897.00
30.3106 1835.00
30.3758 1468.00
30.441 1280.00
30.5062 1109.00
30.5714 975.00
30.6366 864.00
30.7018 757.00
30.767 755.00
30.8322 760.00
30.8974 723.00
30.9626 790.00
31.0278 693.00
31.093 723.00
31.1582 720.00
31.2234 764.00
31.2886 707.00
31.3538 765.00
31.419 758.00
31.4842 886.00
31.5494 1118.00
31.6146 1237.00
31.6798 1434.00
31.745 1464.00
31.8102 1370.00
31.8754 1162.00
31.9406 1034.00
32.0058 843.00
32.071 794.00
32.1362 704.00
32.2014 692.00
32.2666 671.00
32.3318 657.00
32.397 692.00
32.4622 659.00
32.5274 681.00
32.5926 689.00
32.6578 661.00
32.723 716.00
32.7882 718.00
32.8534 759.00
32.9186 750.00
32.9838 713.00
33.0489 732.00
33.1141 686.00
33.1793 690.00
33.2445 661.00
33.3097 658.00
33.3749 678.00
33.4401 785.00
33.5053 817.00
33.5705 878.00
33.6357 950.00
33.7009 963.00
33.7661 917.00
33.8313 819.00
33.8965 772.00
33.9617 677.00
34.0269 683.00
34.0921 599.00
34.1573 646.00
34.2225 680.00
34.2877 645.00
34.3529 592.00
34.4181 606.00
34.4833 603.00
34.5485 573.00
34.6137 622.00
34.6789 596.00
34.7441 585.00
34.8093 590.00
34.8745 610.00
34.9397 661.00
35.0049 588.00
35.0701 646.00
35.1353 636.00
35.2005 598.00
35.2657 644.00
35.3309 628.00
35.3961 625.00
35.4613 620.00
35.5265 627.00
35.5917 615.00
35.6569 653.00
35.7221 612.00
35.7873 644.00
35.8525 738.00
35.9177 809.00
35.9829 786.00
36.0481 885.00
36.1133 917.00
36.1785 907.00
36.2437 966.00
36.3089 1015.00
36.3741 1045.00
36.4393 1143.00
36.5045 1020.00
36.5697 845.00
36.6349 888.00
36.7001 757.00
36.7653 627.00
36.8305 652.00
36.8957 616.00
36.9609 613.00
37.0261 614.00
37.0913 615.00
37.1565 629.00
37.2217 624.00
37.2869 642.00
37.3521 650.00
37.4173 665.00
37.4825 760.00
37.5477 760.00
37.6129 857.00
37.6781 894.00
37.7433 1052.00
37.8085 941.00
37.8736 926.00
37.9388 780.00
38.004 754.00
38.0692 666.00
38.1344 668.00
38.1996 682.00
38.2648 662.00
38.33 617.00
38.3952 613.00
38.4604 565.00
38.5256 523.00
38.5908 526.00
38.656 505.00
38.7212 528.00
38.7864 487.00
38.8516 516.00
38.9168 518.00
38.982 589.00
39.0472 576.00
39.1124 579.00
39.1776 594.00
39.2428 614.00
39.308 663.00
39.3732 660.00
39.4384 708.00
39.5036 608.00
39.5688 571.00
39.634 604.00
39.6992 597.00
39.7644 578.00
39.8296 558.00
39.8948 564.00
39.96 572.00
40.0252 598.00
40.0904 599.00
40.1556 594.00
40.2208 567.00
40.286 529.00
40.3512 513.00
40.4164 484.00
40.4816 502.00
40.5468 509.00
40.612 490.00
40.6772 494.00
40.7424 455.00
40.8076 458.00
40.8728 505.00
40.938 486.00
41.0032 550.00
41.0684 502.00
41.1336 512.00
41.1988 556.00
41.264 483.00
41.3292 530.00
41.3944 541.00
41.4596 518.00
41.5248 547.00
41.59 560.00
41.6552 534.00
41.7204 526.00
41.7856 493.00
41.8508 492.00
41.916 507.00
41.9812 522.00
42.0464 493.00
42.1116 482.00
42.1768 531.00
42.242 549.00
42.3072 554.00
42.3724 595.00
42.4376 680.00
42.5028 722.00
42.568 670.00
42.6332 687.00
42.6983 623.00
42.7635 601.00
42.8287 546.00
42.8939 562.00
42.9591 567.00
43.0243 506.00
43.0895 564.00
43.1547 602.00
43.2199 681.00
43.2851 694.00
43.3503 662.00
43.4155 684.00
43.4807 698.00
43.5459 605.00
43.6111 632.00
43.6763 622.00
43.7415 558.00
43.8067 565.00
43.8719 524.00
43.9371 550.00
44.0023 563.00
44.0675 525.00
44.1327 535.00
44.1979 539.00
44.2631 571.00
44.3283 566.00
44.3935 595.00
44.4587 547.00
44.5239 553.00
44.5891 456.00
44.6543 481.00
44.7195 496.00
44.7847 457.00
44.8499 498.00
44.9151 560.00
44.9803 521.00
45.0455 557.00
45.1107 534.00
45.1759 536.00
45.2411 547.00
45.3063 510.00
45.3715 506.00
45.4367 530.00
45.5019 505.00
45.5671 551.00
45.6323 522.00
45.6975 554.00
45.7627 514.00
45.8279 484.00
45.8931 499.00
45.9583 485.00
46.0235 522.00
46.0887 536.00
46.1539 556.00
46.2191 566.00
46.2843 527.00
46.3495 514.00
46.4147 464.00
46.4799 417.00
46.5451 489.00
46.6103 415.00
46.6755 460.00
46.7407 448.00
46.8059 462.00
46.8711 486.00
46.9363 448.00
47.0015 468.00
47.0667 456.00
47.1319 464.00
47.1971 433.00
47.2623 412.00
47.3275 479.00
47.3927 459.00
47.4579 489.00
47.523 542.00
47.5882 531.00
47.6534 574.00
47.7186 607.00
47.7838 688.00
47.849 762.00
47.9142 727.00
47.9794 734.00
48.0446 730.00
48.1098 689.00
48.175 678.00
48.2402 648.00
48.3054 578.00
48.3706 605.00
48.4358 542.00
48.501 534.00
48.5662 580.00
48.6314 562.00
48.6966 521.00
48.7618 493.00
48.827 557.00
48.8922 573.00
48.9574 551.00
49.0226 510.00
49.0878 505.00
49.153 524.00
49.2182 492.00
49.2834 528.00
49.3486 496.00
49.4138 487.00
49.479 525.00
49.5442 472.00
49.6094 500.00
49.6746 482.00
49.7398 520.00
49.805 541.00
49.8702 540.00
49.9354 540.00
50.0006 470.00
50.0658 487.00
50.131 530.00
50.1962 519.00
50.2614 518.00
50.3266 527.00
50.3918 530.00
50.457 511.00
50.5222 475.00
50.5874 500.00
50.6526 518.00
50.7178 444.00
50.783 403.00
50.8482 412.00
50.9134 428.00
50.9786 434.00
51.0438 431.00
51.109 414.00
51.1742 393.00
51.2394 438.00
51.3046 383.00
51.3698 408.00
51.435 416.00
51.5002 432.00
51.5654 501.00
51.6306 574.00
51.6958 505.00
51.761 488.00
51.8262 435.00
51.8914 459.00
51.9566 406.00
52.0218 429.00
52.087 437.00
52.1522 418.00
52.2174 418.00
52.2826 397.00
52.3477 442.00
52.4129 430.00
52.4781 450.00
52.5433 463.00
52.6085 423.00
52.6737 455.00
52.7389 417.00
52.8041 413.00
52.8693 378.00
52.9345 401.00
52.9997 427.00
53.0649 401.00
53.1301 442.00
53.1953 484.00
53.2605 411.00
53.3257 491.00
53.3909 457.00
53.4561 420.00
53.5213 414.00
53.5865 406.00
53.6517 375.00
53.7169 361.00
53.7821 417.00
53.8473 399.00
53.9125 416.00
53.9777 403.00
54.0429 443.00
54.1081 417.00
54.1733 426.00
54.2385 394.00
54.3037 413.00
54.3689 466.00
54.4341 466.00
54.4993 447.00
54.5645 473.00
54.6297 496.00
54.6949 511.00
54.7601 525.00
54.8253 581.00
54.8905 546.00
54.9557 557.00
55.0209 547.00
55.0861 497.00
55.1513 443.00
55.2165 440.00
55.2817 431.00
55.3469 421.00
55.4121 440.00
55.4773 386.00
55.5425 422.00
55.6077 439.00
55.6729 369.00
55.7381 427.00
55.8033 452.00
55.8685 503.00
55.9337 431.00
55.9989 405.00
56.0641 468.00
56.1293 484.00
56.1945 497.00
56.2597 427.00
56.3249 405.00
56.3901 431.00
56.4553 432.00
56.5205 430.00
56.5857 456.00
56.6509 511.00
56.7161 558.00
56.7813 668.00
56.8465 687.00
56.9117 682.00
56.9769 693.00
57.042 627.00
57.1073 556.00
57.1724 558.00
57.2376 538.00
57.3028 507.00
57.368 468.00
57.4332 424.00
57.4984 379.00
57.5636 410.00
57.6288 390.00
57.694 401.00
57.7592 396.00
57.8244 424.00
57.8896 450.00
57.9548 492.00
58.02 513.00
58.0852 549.00
58.1504 563.00
58.2156 548.00
58.2808 524.00
58.346 474.00
58.4112 432.00
58.4764 426.00
58.5416 408.00
58.6068 387.00
58.672 380.00
58.7372 375.00
58.8024 354.00
58.8676 385.00
58.9328 355.00
58.998 371.00
59.0632 391.00
59.1284 412.00
59.1936 402.00
59.2588 395.00
59.324 388.00
59.3892 425.00
59.4544 413.00
59.5196 426.00
59.5848 463.00
59.65 448.00
59.7152 471.00
59.7804 453.00
59.8456 472.00
59.9108 436.00
59.976 429.00
60.0412 417.00
60.1064 397.00
60.1716 366.00
60.2368 426.00
60.302 437.00
60.3672 377.00
60.4324 413.00
60.4976 425.00
60.5628 422.00
60.628 419.00
60.6932 415.00
60.7584 428.00
60.8236 368.00
60.8888 341.00
60.954 357.00
61.0192 396.00
61.0844 401.00
61.1496 373.00
61.2148 389.00
61.28 362.00
61.3452 370.00
61.4104 377.00
61.4756 360.00
61.5408 409.00
61.606 425.00
61.6712 387.00
61.7364 411.00
61.8016 406.00
61.8667 420.00
61.932 414.00
61.9971 387.00
62.0623 372.00
62.1275 425.00
62.1927 445.00
62.2579 434.00
62.3231 461.00
62.3883 406.00
62.4535 391.00
62.5187 420.00
62.5839 399.00
62.6491 424.00
62.7143 410.00
62.7795 461.00
62.8447 393.00
62.9099 454.00
62.9751 485.00
63.0403 464.00
63.1055 409.00
63.1707 440.00
63.2359 433.00
63.3011 432.00
63.3663 416.00
63.4315 423.00
63.4967 425.00
63.5619 452.00
63.6271 456.00
63.6923 427.00
63.7575 423.00
63.8227 403.00
63.8879 412.00
63.9531 400.00
64.0183 407.00
64.0835 391.00
64.1487 401.00
64.2139 364.00
64.2791 361.00
64.3443 355.00
64.4095 351.00
64.4747 359.00
64.5399 363.00
64.6051 406.00
64.6703 416.00
64.7355 397.00
64.8007 426.00
64.8659 417.00
64.9311 388.00
64.9963 456.00
65.0615 463.00
65.1267 466.00
65.1919 532.00
65.2571 516.00
65.3223 479.00
65.3875 505.00
65.4527 500.00
65.5179 451.00
65.5831 449.00
65.6483 451.00
65.7135 414.00
65.7787 399.00
65.8439 427.00
65.9091 418.00
65.9743 411.00
66.0395 401.00
66.1047 396.00
66.1699 391.00
66.2351 394.00
66.3003 388.00
66.3655 385.00
66.4307 397.00
66.4959 377.00
66.561 370.00
66.6263 357.00
66.6915 346.00
66.7566 410.00
66.8218 369.00
66.887 371.00
66.9522 357.00
67.0174 364.00
67.0826 381.00
67.1478 341.00
67.213 404.00
67.2782 408.00
67.3434 360.00
67.4086 371.00
67.4738 421.00
67.539 410.00
67.6042 420.00
67.6694 442.00
67.7346 400.00
67.7998 461.00
67.865 469.00
67.9302 456.00
67.9954 459.00
68.0606 403.00
68.1258 420.00
68.191 423.00
68.2562 437.00
68.3214 385.00
68.3866 398.00
68.4518 356.00
68.517 335.00
68.5822 353.00
68.6474 364.00
68.7126 353.00
68.7778 348.00
68.843 326.00
68.9082 363.00
68.9734 373.00
69.0386 387.00
69.1038 386.00
69.169 432.00
69.2342 431.00
69.2994 427.00
69.3646 437.00
69.4298 414.00
69.495 430.00
69.5602 384.00
69.6254 447.00
69.6906 483.00
69.7558 515.00
69.821 514.00
69.8862 493.00
69.9514 485.00
70.0166 436.00
70.0818 416.00
70.147 402.00
70.2122 352.00
70.2774 322.00
70.3426 365.00
70.4078 321.00
70.473 342.00
70.5382 370.00
70.6034 313.00
70.6686 354.00
70.7338 340.00
70.799 345.00
70.8642 365.00
70.9294 387.00
70.9946 413.00
71.0598 393.00
71.125 436.00
71.1902 436.00
71.2554 434.00
71.3205 430.00
71.3858 426.00
71.451 399.00
71.5162 387.00
71.5813 385.00
71.6465 349.00
71.7117 333.00
71.7769 367.00
71.8421 358.00
71.9073 353.00
71.9725 327.00
72.0377 342.00
72.1029 341.00
72.1681 364.00
72.2333 370.00
72.2985 358.00
72.3637 344.00
72.4289 389.00
72.4941 370.00
72.5593 351.00
72.6245 300.00
72.6897 323.00
72.7549 329.00
72.8201 378.00
72.8853 355.00
72.9505 395.00
73.0157 368.00
73.0809 387.00
73.1461 357.00
73.2113 377.00
73.2765 363.00
73.3417 400.00
73.4069 349.00
73.4721 355.00
73.5373 344.00
73.6025 350.00
73.6677 337.00
73.7329 338.00
73.7981 351.00
73.8633 351.00
73.9285 322.00
73.9937 338.00
74.0589 344.00
74.1241 351.00
74.1893 359.00
74.2545 344.00
74.3197 317.00
74.3849 363.00
74.4501 353.00
74.5153 366.00
74.5805 330.00
74.6457 339.00
74.7109 368.00
74.7761 368.00
74.8413 319.00
74.9065 326.00
74.9717 356.00
75.0369 378.00
75.1021 361.00
75.1673 350.00
75.2325 333.00
75.2977 339.00
75.3629 328.00
75.4281 366.00
75.4933 372.00
75.5585 352.00
75.6237 333.00
75.6889 346.00
75.7541 318.00
75.8193 355.00
75.8845 357.00
75.9497 382.00
76.0149 377.00
76.0801 374.00
76.1452 353.00
76.2104 384.00
76.2756 386.00
76.3409 359.00
76.406 405.00
76.4712 360.00
76.5364 357.00
76.6016 375.00
76.6668 338.00
76.732 383.00
76.7972 387.00
76.8624 358.00
76.9276 419.00
76.9928 413.00
77.058 420.00
77.1232 423.00
77.1884 401.00
77.2536 381.00
77.3188 449.00
77.384 376.00
77.4492 394.00
77.5144 415.00
77.5796 410.00
77.6448 392.00
77.71 400.00
77.7752 399.00
77.8404 399.00
77.9056 414.00
77.9708 390.00
78.036 391.00
78.1012 364.00
78.1664 372.00
78.2316 413.00
78.2968 370.00
78.362 367.00
78.4272 372.00
78.4924 351.00
78.5576 379.00
78.6228 375.00
78.688 383.00
78.7532 360.00
78.8184 365.00
78.8836 394.00
78.9488 379.00
79.014 410.00
79.0792 374.00
79.1444 366.00
79.2096 338.00
79.2748 353.00
79.34 380.00
79.4052 356.00
79.4704 348.00
79.5356 379.00
79.6008 353.00
79.666 372.00
79.7312 328.00
79.7964 355.00
79.8616 350.00
79.9268 362.00
79.992 354.00
80.0572 328.00
80.1224 338.00
80.1876 341.00
80.2528 343.00
80.318 331.00
80.3832 362.00
80.4484 375.00
80.5136 359.00
80.5788 347.00
80.644 425.00
80.7092 410.00
80.7744 389.00
80.8396 451.00
80.9048 417.00
80.9699 457.00
81.0351 436.00
81.1003 393.00
81.1655 404.00
81.2307 363.00
81.2959 374.00
81.3611 368.00
81.4263 365.00
81.4915 332.00
81.5567 391.00
81.6219 299.00
81.6871 350.00
81.7523 335.00
81.8175 342.00
81.8827 322.00
81.9479 344.00
82.0131 353.00
82.0783 332.00
82.1435 323.00
82.2087 350.00
82.2739 360.00
82.3391 344.00
82.4043 327.00
82.4695 336.00
82.5347 362.00
82.5999 347.00
82.6651 316.00
82.7303 371.00
82.7955 376.00
82.8607 322.00
82.9259 344.00
82.9911 303.00
83.0563 329.00
83.1215 314.00
83.1867 286.00
83.2519 327.00
83.3171 345.00
83.3823 344.00
83.4475 375.00
83.5127 340.00
83.5779 377.00
83.6431 346.00
83.7083 364.00
83.7735 318.00
83.8387 348.00
83.9039 349.00
83.9691 336.00
84.0343 324.00
84.0995 321.00
84.1647 322.00
84.2299 303.00
84.2951 341.00
84.3603 336.00
84.4255 324.00
84.4907 319.00
84.5559 315.00
84.6211 365.00
84.6863 311.00
84.7515 339.00
84.8167 341.00
84.8819 333.00
84.9471 341.00
85.0123 391.00
85.0775 321.00
85.1427 351.00
85.2079 347.00
85.2731 352.00
85.3383 315.00
85.4035 322.00
85.4687 332.00
85.5339 326.00
85.5991 347.00
85.6643 297.00
85.7295 310.00
85.7946 329.00
85.8598 281.00
85.925 311.00
85.9903 299.00
86.0554 315.00
86.1206 307.00
86.1858 318.00
86.251 312.00
86.3162 311.00
86.3814 258.00
86.4466 317.00
86.5118 328.00
86.577 311.00
86.6422 322.00
86.7074 316.00
86.7726 293.00
86.8378 311.00
86.903 293.00
86.9682 306.00
87.0334 317.00
87.0986 324.00
87.1638 298.00
87.229 329.00
87.2942 328.00
87.3594 330.00
87.4246 314.00
87.4898 307.00
87.555 331.00
87.6202 320.00
87.6854 301.00
87.7506 300.00
87.8158 325.00
87.881 296.00
87.9462 321.00
88.0114 323.00
88.0766 322.00
88.1418 326.00
88.207 329.00
88.2722 309.00
88.3374 296.00
88.4026 275.00
88.4678 300.00
88.533 321.00
88.5982 314.00
88.6634 335.00
88.7286 288.00
88.7938 277.00
88.859 308.00
88.9242 300.00
88.9894 308.00
89.0546 314.00
89.1198 316.00
89.185 300.00
89.2502 288.00
89.3154 280.00
89.3806 313.00
89.4458 339.00
89.511 308.00
89.5762 317.00
89.6414 328.00
89.7066 343.00
89.7718 331.00
89.837 289.00
89.9022 280.00
89.9674 293.00
90.0326 318.00
90.0978 324.00
90.163 339.00
90.2282 337.00
90.2934 335.00
90.3586 330.00
90.4238 316.00
90.489 351.00
90.5542 334.00
90.6193 327.00
90.6845 353.00
90.7497 325.00
90.8149 334.00
90.8801 298.00
90.9453 322.00
91.0105 326.00
91.0757 335.00
91.1409 304.00
91.2061 275.00
91.2713 300.00
91.3365 278.00
91.4017 270.00
91.4669 313.00
91.5321 317.00
91.5973 275.00
91.6625 291.00
91.7277 288.00
91.7929 295.00
91.8581 309.00
91.9233 296.00
91.9885 291.00
92.0537 295.00
92.1189 299.00
92.1841 309.00
92.2493 294.00
92.3145 292.00
92.3797 288.00
92.4449 279.00
92.5101 293.00
92.5753 293.00
92.6405 272.00
92.7057 302.00
92.7709 289.00
92.8361 259.00
92.9013 340.00
92.9665 298.00
93.0317 301.00
93.0969 340.00
93.1621 294.00
93.2273 321.00
93.2925 326.00
93.3577 267.00
93.4229 287.00
93.4881 300.00
93.5533 328.00
93.6185 322.00
93.6837 309.00
93.7489 343.00
93.8141 325.00
93.8793 312.00
93.9445 333.00
94.0097 327.00
94.0749 337.00
94.1401 310.00
94.2053 293.00
94.2705 307.00
94.3357 321.00
94.4009 298.00
94.4661 287.00
94.5313 365.00
94.5965 308.00
94.6617 289.00
94.7269 304.00
94.7921 314.00
94.8573 316.00
94.9225 288.00
94.9877 308.00
95.0529 321.00
95.1181 293.00
95.1833 306.00
95.2485 332.00
95.3137 340.00
95.3789 332.00
95.444 331.00
95.5092 304.00
95.5744 311.00
95.6396 337.00
95.7048 302.00
95.77 315.00
95.8352 338.00
95.9004 334.00
95.9656 343.00
96.0308 315.00
96.096 313.00
96.1612 330.00
96.2264 338.00
96.2916 302.00
96.3568 292.00
96.422 309.00
96.4872 311.00
96.5524 367.00
96.6176 302.00
96.6828 328.00
96.748 310.00
96.8132 289.00
96.8784 314.00
96.9436 264.00
97.0088 314.00
97.074 327.00
97.1392 297.00
97.2044 299.00
97.2696 307.00
97.3348 333.00
97.4 312.00
97.4652 322.00
97.5304 321.00
97.5956 301.00
97.6608 325.00
97.726 305.00
97.7912 332.00
97.8564 327.00
97.9216 312.00
97.9868 302.00
98.052 304.00
98.1172 302.00
98.1824 297.00
98.2476 314.00
98.3128 306.00
98.378 306.00
98.4432 357.00
98.5084 315.00
98.5736 328.00
98.6388 295.00
98.704 301.00
98.7692 298.00
98.8344 291.00
98.8996 300.00
98.9648 303.00
99.03 292.00
99.0952 314.00
99.1604 314.00
99.2256 314.00
99.2908 296.00
99.356 296.00
99.4212 286.00
99.4864 283.00
99.5516 291.00
99.6168 259.00
99.682 306.00
99.7472 295.00
99.8124 314.00
99.8776 321.00
99.9428 302.00
100.008 279.00
100.073 299.00
100.095 317.00