File: data/xrd_creation/results/MINES_21.xy
9.903433 2749.00
9.968632 2764.00
10.0338 2681.00
10.099 2661.00
10.1642 2575.00
10.2294 2657.00
10.2946 2607.00
10.3598 2618.00
10.425 2586.00
10.4902 2504.00
10.5554 2528.00
10.6206 2439.00
10.6858 2384.00
10.751 2408.00
10.8162 2423.00
10.8814 2345.00
10.9466 2414.00
11.0118 2385.00
11.077 2308.00
11.1422 2367.00
11.2074 2418.00
11.2726 2293.00
11.3378 2245.00
11.403 2232.00
11.4682 2332.00
11.5334 2207.00
11.5986 2266.00
11.6638 2164.00
11.729 2345.00
11.7942 2086.00
11.8594 2152.00
11.9246 2142.00
11.9898 2134.00
12.055 2082.00
12.1202 2190.00
12.1854 2116.00
12.2506 2152.00
12.3158 2145.00
12.381 2145.00
12.4462 2069.00
12.5114 2028.00
12.5766 1976.00
12.6418 2043.00
12.707 1947.00
12.7722 2016.00
12.8374 2026.00
12.9026 1951.00
12.9678 1909.00
13.033 1883.00
13.0982 1948.00
13.1634 1967.00
13.2286 1993.00
13.2938 1955.00
13.359 1950.00
13.4242 1792.00
13.4894 1830.00
13.5546 1820.00
13.6198 1739.00
13.685 1770.00
13.7502 1803.00
13.8154 1770.00
13.8805 1749.00
13.9457 1688.00
14.0109 1691.00
14.0761 1800.00
14.1413 1711.00
14.2065 1732.00
14.2717 1766.00
14.3369 1597.00
14.4021 1682.00
14.4673 1708.00
14.5325 1730.00
14.5977 1740.00
14.6629 1720.00
14.7281 1694.00
14.7933 1589.00
14.8585 1679.00
14.9237 1693.00
14.9889 1671.00
15.0541 1618.00
15.1193 1792.00
15.1845 1801.00
15.2497 1902.00
15.3149 2103.00
15.3801 2232.00
15.4453 2527.00
15.5105 2726.00
15.5757 2748.00
15.6409 2287.00
15.7061 1855.00
15.7713 1766.00
15.8365 1666.00
15.9017 1633.00
15.9669 1643.00
16.0321 1634.00
16.0973 1701.00
16.1625 1567.00
16.2277 1632.00
16.2929 1739.00
16.3581 1689.00
16.4233 1760.00
16.4885 1901.00
16.5537 2033.00
16.6189 2188.00
16.6841 2075.00
16.7493 1807.00
16.8145 1654.00
16.8797 1612.00
16.9449 1618.00
17.0101 1524.00
17.0753 1485.00
17.1405 1498.00
17.2057 1404.00
17.2709 1417.00
17.3361 1522.00
17.4013 1441.00
17.4665 1387.00
17.5317 1482.00
17.5969 1405.00
17.6621 1379.00
17.7273 1431.00
17.7925 1420.00
17.8577 1371.00
17.9229 1383.00
17.9881 1402.00
18.0533 1440.00
18.1185 1393.00
18.1837 1434.00
18.2489 1358.00
18.3141 1378.00
18.3793 1306.00
18.4445 1396.00
18.5097 1359.00
18.5749 1364.00
18.6401 1333.00
18.7052 1420.00
18.7704 1398.00
18.8356 1403.00
18.9008 1402.00
18.966 1490.00
19.0312 1441.00
19.0964 1482.00
19.1616 1508.00
19.2268 1501.00
19.292 1711.00
19.3572 1936.00
19.4224 2313.00
19.4876 2632.00
19.5528 3253.00
19.618 3309.00
19.6832 2655.00
19.7484 2019.00
19.8136 1755.00
19.8788 1579.00
19.944 1424.00
20.0092 1364.00
20.0744 1347.00
20.1396 1283.00
20.2048 1249.00
20.27 1330.00
20.3352 1283.00
20.4004 1302.00
20.4656 1229.00
20.5308 1291.00
20.596 1439.00
20.6612 1431.00
20.7264 1653.00
20.7916 1808.00
20.8568 2194.00
20.922 2708.00
20.9872 3078.00
21.0524 3289.00
21.1176 2680.00
21.1828 2041.00
21.248 1660.00
21.3132 1400.00
21.3784 1383.00
21.4436 1224.00
21.5088 1320.00
21.574 1273.00
21.6392 1198.00
21.7044 1303.00
21.7696 1325.00
21.8348 1505.00
21.9 1535.00
21.9652 1695.00
22.0304 2048.00
22.0956 2509.00
22.1608 2782.00
22.226 3116.00
22.2912 2954.00
22.3564 2984.00
22.4216 3573.00
22.4868 3683.00
22.552 2724.00
22.6172 2171.00
22.6824 2388.00
22.7476 2535.00
22.8128 3046.00
22.878 4007.00
22.9432 5088.00
23.0084 6503.00
23.0736 6805.00
23.1388 5381.00
23.204 3216.00
23.2692 2052.00
23.3344 1564.00
23.3996 1483.00
23.4647 1442.00
23.5299 1397.00
23.5951 1432.00
23.6603 1449.00
23.7255 1630.00
23.7907 1993.00
23.8559 2537.00
23.9211 3426.00
23.9863 4678.00
24.0515 5411.00
24.1167 4238.00
24.1819 2426.00
24.2471 1926.00
24.3123 1911.00
24.3775 2306.00
24.4427 2836.00
24.5079 3537.00
24.5731 4137.00
24.6383 3933.00
24.7035 2803.00
24.7687 2286.00
24.8339 2467.00
24.8991 3274.00
24.9643 4455.00
25.0295 6035.00
25.0947 7444.00
25.1599 6198.00
25.2251 3523.00
25.2903 2529.00
25.3555 2682.00
25.4207 3284.00
25.4859 4196.00
25.5511 5445.00
25.6163 7527.00
25.6815 10344.00
25.7467 14373.00
25.8119 19321.00
25.8771 22916.00
25.9423 21306.00
26.0075 14210.00
26.0727 8072.00
26.1379 4577.00
26.2031 2997.00
26.2683 2511.00
26.3335 2482.00
26.3987 2826.00
26.4639 2953.00
26.5291 3041.00
26.5943 3947.00
26.6595 5651.00
26.7247 8047.00
26.7899 10194.00
26.8551 10286.00
26.9203 6629.00
26.9855 3214.00
27.0507 1912.00
27.1159 1541.00
27.1811 1370.00
27.2463 1284.00
27.3115 1206.00
27.3767 1240.00
27.4419 1207.00
27.5071 1210.00
27.5723 1237.00
27.6375 1103.00
27.7027 1177.00
27.7679 1222.00
27.8331 1250.00
27.8983 1330.00
27.9635 1483.00
28.0287 1678.00
28.0939 2082.00
28.1591 2523.00
28.2243 2855.00
28.2894 2619.00
28.3546 2309.00
28.4198 2321.00
28.485 2620.00
28.5502 2764.00
28.6154 2443.00
28.6806 1852.00
28.7458 1478.00
28.811 1227.00
28.8762 1220.00
28.9414 1090.00
29.0066 1118.00
29.0718 1090.00
29.137 1167.00
29.2022 1230.00
29.2674 1222.00
29.3326 1074.00
29.3978 956.00
29.463 939.00
29.5282 1004.00
29.5934 980.00
29.6586 1022.00
29.7238 1016.00
29.789 976.00
29.8542 1003.00
29.9194 1020.00
29.9846 1003.00
30.0498 1003.00
30.115 1016.00
30.1802 1047.00
30.2454 958.00
30.3106 1044.00
30.3758 1010.00
30.441 1149.00
30.5062 1259.00
30.5714 1313.00
30.6366 1404.00
30.7018 1446.00
30.767 1668.00
30.8322 1957.00
30.8974 2294.00
30.9626 2534.00
31.0278 2535.00
31.093 2293.00
31.1582 2021.00
31.2234 1769.00
31.2886 1522.00
31.3538 1306.00
31.419 1217.00
31.4842 1125.00
31.5494 1128.00
31.6146 1079.00
31.6798 1030.00
31.745 1098.00
31.8102 1193.00
31.8754 1155.00
31.9406 1238.00
32.0058 1340.00
32.071 1402.00
32.1362 1535.00
32.2014 1409.00
32.2666 1317.00
32.3318 1288.00
32.397 1372.00
32.4622 1700.00
32.5274 1907.00
32.5926 1913.00
32.6578 1568.00
32.723 1150.00
32.7882 1019.00
32.8534 975.00
32.9186 990.00
32.9838 906.00
33.0489 945.00
33.1141 972.00
33.1793 990.00
33.2445 1093.00
33.3097 1119.00
33.3749 1058.00
33.4401 1068.00
33.5053 949.00
33.5705 876.00
33.6357 902.00
33.7009 845.00
33.7661 933.00
33.8313 938.00
33.8965 1013.00
33.9617 1028.00
34.0269 1050.00
34.0921 1085.00
34.1573 1176.00
34.2225 1132.00
34.2877 1130.00
34.3529 1140.00
34.4181 1106.00
34.4833 1007.00
34.5485 1037.00
34.6137 1049.00
34.6789 1078.00
34.7441 1106.00
34.8093 1184.00
34.8745 1306.00
34.9397 1388.00
35.0049 1607.00
35.0701 1720.00
35.1353 1487.00
35.2005 1170.00
35.2657 981.00
35.3309 1015.00
35.3961 938.00
35.4613 1022.00
35.5265 1158.00
35.5917 1268.00
35.6569 1306.00
35.7221 1295.00
35.7873 1122.00
35.8525 1076.00
35.9177 1092.00
35.9829 1195.00
36.0481 1308.00
36.1133 1595.00
36.1785 1809.00
36.2437 2229.00
36.3089 2804.00
36.3741 3581.00
36.4393 4471.00
36.5045 4998.00
36.5697 5141.00
36.6349 4693.00
36.7001 3805.00
36.7653 2834.00
36.8305 2097.00
36.8957 1745.00
36.9609 1486.00
37.0261 1362.00
37.0913 1331.00
37.1565 1235.00
37.2217 1371.00
37.2869 1334.00
37.3521 1409.00
37.4173 1470.00
37.4825 1657.00
37.5477 1681.00
37.6129 1904.00
37.6781 2103.00
37.7433 2407.00
37.8085 2848.00
37.8736 3041.00
37.9388 2767.00
38.004 2191.00
38.0692 1782.00
38.1344 1832.00
38.1996 1867.00
38.2648 2016.00
38.33 2124.00
38.3952 2250.00
38.4604 2199.00
38.5256 1849.00
38.5908 1494.00
38.656 1230.00
38.7212 1074.00
38.7864 1037.00
38.8516 1014.00
38.9168 1034.00
38.982 975.00
39.0472 1131.00
39.1124 1281.00
39.1776 1373.00
39.2428 1547.00
39.308 1851.00
39.3732 2418.00
39.4384 2713.00
39.5036 2926.00
39.5688 2840.00
39.634 2596.00
39.6992 2293.00
39.7644 1981.00
39.8296 1802.00
39.8948 1670.00
39.96 1573.00
40.0252 1591.00
40.0904 1580.00
40.1556 1519.00
40.2208 1493.00
40.286 1371.00
40.3512 1330.00
40.4164 1191.00
40.4816 1021.00
40.5468 970.00
40.612 843.00
40.6772 773.00
40.7424 746.00
40.8076 723.00
40.8728 666.00
40.938 713.00
41.0032 749.00
41.0684 746.00
41.1336 696.00
41.1988 810.00
41.264 724.00
41.3292 820.00
41.3944 827.00
41.4596 828.00
41.5248 825.00
41.59 834.00
41.6552 793.00
41.7204 861.00
41.7856 799.00
41.8508 778.00
41.916 884.00
41.9812 800.00
42.0464 810.00
42.1116 881.00
42.1768 842.00
42.242 854.00
42.3072 911.00
42.3724 970.00
42.4376 1036.00
42.5028 1138.00
42.568 1074.00
42.6332 1010.00
42.6983 907.00
42.7635 859.00
42.8287 825.00
42.8939 968.00
42.9591 994.00
43.0243 1137.00
43.0895 1309.00
43.1547 1334.00
43.2199 1300.00
43.2851 1211.00
43.3503 1237.00
43.4155 1167.00
43.4807 1088.00
43.5459 1058.00
43.6111 912.00
43.6763 841.00
43.7415 886.00
43.8067 806.00
43.8719 820.00
43.9371 836.00
44.0023 974.00
44.0675 1038.00
44.1327 1245.00
44.1979 1435.00
44.2631 1538.00
44.3283 1557.00
44.3935 1422.00
44.4587 1230.00
44.5239 1030.00
44.5891 947.00
44.6543 795.00
44.7195 798.00
44.7847 786.00
44.8499 782.00
44.9151 861.00
44.9803 856.00
45.0455 859.00
45.1107 884.00
45.1759 1026.00
45.2411 1057.00
45.3063 961.00
45.3715 988.00
45.4367 994.00
45.5019 1052.00
45.5671 1138.00
45.6323 1093.00
45.6975 1179.00
45.7627 1295.00
45.8279 1312.00
45.8931 1412.00
45.9583 1411.00
46.0235 1361.00
46.0887 1296.00
46.1539 1334.00
46.2191 1428.00
46.2843 1664.00
46.3495 1824.00
46.4147 1727.00
46.4799 1445.00
46.5451 1167.00
46.6103 1027.00
46.6755 866.00
46.7407 882.00
46.8059 793.00
46.8711 809.00
46.9363 895.00
47.0015 1100.00
47.0667 1198.00
47.1319 1281.00
47.1971 1336.00
47.2623 1362.00
47.3275 1197.00
47.3927 1031.00
47.4579 964.00
47.523 818.00
47.5882 818.00
47.6534 785.00
47.7186 839.00
47.7838 848.00
47.849 898.00
47.9142 1001.00
47.9794 1078.00
48.0446 1176.00
48.1098 1265.00
48.175 1508.00
48.2402 1601.00
48.3054 1728.00
48.3706 1696.00
48.4358 1863.00
48.501 2011.00
48.5662 2160.00
48.6314 2465.00
48.6966 2504.00
48.7618 2547.00
48.827 2285.00
48.8922 2200.00
48.9574 1735.00
49.0226 1442.00
49.0878 1127.00
49.153 927.00
49.2182 868.00
49.2834 837.00
49.3486 846.00
49.4138 897.00
49.479 948.00
49.5442 979.00
49.6094 893.00
49.6746 775.00
49.7398 768.00
49.805 721.00
49.8702 767.00
49.9354 870.00
50.0006 1090.00
50.0658 1253.00
50.131 1471.00
50.1962 1780.00
50.2614 1866.00
50.3266 1768.00
50.3918 1618.00
50.457 1286.00
50.5222 979.00
50.5874 1035.00
50.6526 908.00
50.7178 1061.00
50.783 1091.00
50.8482 1109.00
50.9134 980.00
50.9786 844.00
51.0438 905.00
51.109 853.00
51.1742 877.00
51.2394 946.00
51.3046 902.00
51.3698 972.00
51.435 817.00
51.5002 797.00
51.5654 706.00
51.6306 664.00
51.6958 652.00
51.761 655.00
51.8262 652.00
51.8914 652.00
51.9566 659.00
52.0218 646.00
52.087 591.00
52.1522 581.00
52.2174 582.00
52.2826 644.00
52.3477 616.00
52.4129 612.00
52.4781 711.00
52.5433 591.00
52.6085 700.00
52.6737 748.00
52.7389 774.00
52.8041 773.00
52.8693 655.00
52.9345 670.00
52.9997 681.00
53.0649 645.00
53.1301 634.00
53.1953 545.00
53.2605 656.00
53.3257 611.00
53.3909 622.00
53.4561 608.00
53.5213 633.00
53.5865 663.00
53.6517 668.00
53.7169 642.00
53.7821 664.00
53.8473 685.00
53.9125 682.00
53.9777 712.00
54.0429 708.00
54.1081 645.00
54.1733 704.00
54.2385 713.00
54.3037 731.00
54.3689 822.00
54.4341 891.00
54.4993 875.00
54.5645 874.00
54.6297 1011.00
54.6949 1029.00
54.7601 1133.00
54.8253 1124.00
54.8905 1211.00
54.9557 1157.00
55.0209 1213.00
55.0861 1139.00
55.1513 1046.00
55.2165 934.00
55.2817 876.00
55.3469 898.00
55.4121 880.00
55.4773 970.00
55.5425 1012.00
55.6077 1103.00
55.6729 1250.00
55.7381 1314.00
55.8033 1468.00
55.8685 1525.00
55.9337 1540.00
55.9989 1548.00
56.0641 1569.00
56.1293 1450.00
56.1945 1425.00
56.2597 1496.00
56.3249 1363.00
56.3901 1190.00
56.4553 1060.00
56.5205 931.00
56.5857 791.00
56.6509 700.00
56.7161 668.00
56.7813 639.00
56.8465 600.00
56.9117 643.00
56.9769 640.00
57.042 691.00
57.1073 657.00
57.1724 704.00
57.2376 738.00
57.3028 713.00
57.368 761.00
57.4332 795.00
57.4984 717.00
57.5636 685.00
57.6288 774.00
57.694 762.00
57.7592 726.00
57.8244 762.00
57.8896 729.00
57.9548 728.00
58.02 741.00
58.0852 762.00
58.1504 814.00
58.2156 891.00
58.2808 949.00
58.346 1115.00
58.4112 1182.00
58.4764 1279.00
58.5416 1279.00
58.6068 1352.00
58.672 1392.00
58.7372 1428.00
58.8024 1227.00
58.8676 1135.00
58.9328 1140.00
58.998 971.00
59.0632 908.00
59.1284 862.00
59.1936 838.00
59.2588 862.00
59.324 929.00
59.3892 851.00
59.4544 814.00
59.5196 841.00
59.5848 864.00
59.65 984.00
59.7152 1041.00
59.7804 1121.00
59.8456 1215.00
59.9108 1206.00
59.976 1193.00
60.0412 1161.00
60.1064 1101.00
60.1716 1037.00
60.2368 1083.00
60.302 1022.00
60.3672 982.00
60.4324 1069.00
60.4976 1083.00
60.5628 1161.00
60.628 1215.00
60.6932 1307.00
60.7584 1312.00
60.8236 1242.00
60.8888 1153.00
60.954 1118.00
61.0192 1032.00
61.0844 1105.00
61.1496 1072.00
61.2148 1102.00
61.28 1078.00
61.3452 1053.00
61.4104 952.00
61.4756 918.00
61.5408 892.00
61.606 836.00
61.6712 823.00
61.7364 741.00
61.8016 750.00
61.8667 766.00
61.932 688.00
61.9971 790.00
62.0623 798.00
62.1275 742.00
62.1927 810.00
62.2579 742.00
62.3231 732.00
62.3883 765.00
62.4535 833.00
62.5187 832.00
62.5839 852.00
62.6491 852.00
62.7143 826.00
62.7795 883.00
62.8447 853.00
62.9099 846.00
62.9751 848.00
63.0403 889.00
63.1055 985.00
63.1707 1063.00
63.2359 1138.00
63.3011 1108.00
63.3663 1078.00
63.4315 1010.00
63.4967 955.00
63.5619 931.00
63.6271 897.00
63.6923 966.00
63.7575 1110.00
63.8227 1105.00
63.8879 1176.00
63.9531 1345.00
64.0183 1513.00
64.0835 1735.00
64.1487 1981.00
64.2139 2144.00
64.2791 2488.00
64.3443 2458.00
64.4095 2485.00
64.4747 2325.00
64.5399 2047.00
64.6051 1899.00
64.6703 1538.00
64.7355 1392.00
64.8007 1221.00
64.8659 1162.00
64.9311 1020.00
64.9963 993.00
65.0615 841.00
65.1267 886.00
65.1919 837.00
65.2571 893.00
65.3223 892.00
65.3875 1031.00
65.4527 1099.00
65.5179 1177.00
65.5831 1289.00
65.6483 1340.00
65.7135 1289.00
65.7787 1328.00
65.8439 1251.00
65.9091 1102.00
65.9743 929.00
66.0395 882.00
66.1047 830.00
66.1699 819.00
66.2351 787.00
66.3003 793.00
66.3655 802.00
66.4307 831.00
66.4959 887.00
66.561 992.00
66.6263 1061.00
66.6915 1162.00
66.7566 1334.00
66.8218 1491.00
66.887 1540.00
66.9522 1618.00
67.0174 1643.00
67.0826 1570.00
67.1478 1547.00
67.213 1379.00
67.2782 1347.00
67.3434 1328.00
67.4086 1333.00
67.4738 1316.00
67.539 1367.00
67.6042 1353.00
67.6694 1322.00
67.7346 1321.00
67.7998 1341.00
67.865 1293.00
67.9302 1352.00
67.9954 1327.00
68.0606 1438.00
68.1258 1563.00
68.191 1599.00
68.2562 1514.00
68.3214 1487.00
68.3866 1461.00
68.4518 1384.00
68.517 1259.00
68.5822 1066.00
68.6474 939.00
68.7126 856.00
68.7778 808.00
68.843 804.00
68.9082 714.00
68.9734 722.00
69.0386 733.00
69.1038 850.00
69.169 824.00
69.2342 776.00
69.2994 718.00
69.3646 748.00
69.4298 822.00
69.495 703.00
69.5602 738.00
69.6254 772.00
69.6906 770.00
69.7558 734.00
69.821 772.00
69.8862 741.00
69.9514 744.00
70.0166 731.00
70.0818 667.00
70.147 691.00
70.2122 609.00
70.2774 598.00
70.3426 577.00
70.4078 608.00
70.473 619.00
70.5382 657.00
70.6034 680.00
70.6686 681.00
70.7338 765.00
70.799 722.00
70.8642 730.00
70.9294 717.00
70.9946 730.00
71.0598 783.00
71.125 782.00
71.1902 882.00
71.2554 887.00
71.3205 832.00
71.3858 856.00
71.451 922.00
71.5162 876.00
71.5813 850.00
71.6465 810.00
71.7117 771.00
71.7769 803.00
71.8421 757.00
71.9073 750.00
71.9725 716.00
72.0377 664.00
72.1029 723.00
72.1681 665.00
72.2333 721.00
72.2985 727.00
72.3637 730.00
72.4289 753.00
72.4941 752.00
72.5593 727.00
72.6245 780.00
72.6897 713.00
72.7549 702.00
72.8201 749.00
72.8853 766.00
72.9505 733.00
73.0157 754.00
73.0809 729.00
73.1461 693.00
73.2113 682.00
73.2765 690.00
73.3417 639.00
73.4069 681.00
73.4721 661.00
73.5373 659.00
73.6025 678.00
73.6677 672.00
73.7329 637.00
73.7981 638.00
73.8633 634.00
73.9285 585.00
73.9937 539.00
74.0589 618.00
74.1241 550.00
74.1893 554.00
74.2545 563.00
74.3197 615.00
74.3849 604.00
74.4501 589.00
74.5153 563.00
74.5805 579.00
74.6457 590.00
74.7109 593.00
74.7761 574.00
74.8413 651.00
74.9065 577.00
74.9717 642.00
75.0369 688.00
75.1021 607.00
75.1673 658.00
75.2325 611.00
75.2977 647.00
75.3629 677.00
75.4281 631.00
75.4933 720.00
75.5585 687.00
75.6237 716.00
75.6889 675.00
75.7541 661.00
75.8193 703.00
75.8845 727.00
75.9497 740.00
76.0149 797.00
76.0801 898.00
76.1452 895.00
76.2104 1053.00
76.2756 963.00
76.3409 984.00
76.406 861.00
76.4712 890.00
76.5364 870.00
76.6016 783.00
76.6668 830.00
76.732 823.00
76.7972 778.00
76.8624 802.00
76.9276 847.00
76.9928 947.00
77.058 924.00
77.1232 991.00
77.1884 1006.00
77.2536 1041.00
77.3188 992.00
77.384 980.00
77.4492 1006.00
77.5144 878.00
77.5796 910.00
77.6448 794.00
77.71 846.00
77.7752 845.00
77.8404 783.00
77.9056 795.00
77.9708 822.00
78.036 748.00
78.1012 790.00
78.1664 797.00
78.2316 744.00
78.2968 811.00
78.362 792.00
78.4272 711.00
78.4924 689.00
78.5576 681.00
78.6228 613.00
78.688 660.00
78.7532 618.00
78.8184 681.00
78.8836 636.00
78.9488 700.00
79.014 695.00
79.0792 676.00
79.1444 656.00
79.2096 672.00
79.2748 674.00
79.34 686.00
79.4052 675.00
79.4704 655.00
79.5356 659.00
79.6008 610.00
79.666 650.00
79.7312 650.00
79.7964 688.00
79.8616 678.00
79.9268 614.00
79.992 577.00
80.0572 562.00
80.1224 511.00
80.1876 503.00
80.2528 520.00
80.318 497.00
80.3832 525.00
80.4484 538.00
80.5136 539.00
80.5788 503.00
80.644 574.00
80.7092 576.00
80.7744 651.00
80.8396 666.00
80.9048 706.00
80.9699 776.00
81.0351 856.00
81.1003 840.00
81.1655 849.00
81.2307 838.00
81.2959 856.00
81.3611 844.00
81.4263 753.00
81.4915 727.00
81.5567 669.00
81.6219 651.00
81.6871 586.00
81.7523 577.00
81.8175 590.00
81.8827 571.00
81.9479 549.00
82.0131 526.00
82.0783 538.00
82.1435 542.00
82.2087 494.00
82.2739 498.00
82.3391 460.00
82.4043 452.00
82.4695 449.00
82.5347 462.00
82.5999 431.00
82.6651 442.00
82.7303 468.00
82.7955 468.00
82.8607 469.00
82.9259 506.00
82.9911 500.00
83.0563 501.00
83.1215 512.00
83.1867 537.00
83.2519 540.00
83.3171 533.00
83.3823 552.00
83.4475 533.00
83.5127 554.00
83.5779 535.00
83.6431 566.00
83.7083 500.00
83.7735 521.00
83.8387 483.00
83.9039 494.00
83.9691 480.00
84.0343 518.00
84.0995 465.00
84.1647 515.00
84.2299 503.00
84.2951 514.00
84.3603 466.00
84.4255 559.00
84.4907 529.00
84.5559 548.00
84.6211 539.00
84.6863 555.00
84.7515 541.00
84.8167 592.00
84.8819 588.00
84.9471 559.00
85.0123 542.00
85.0775 584.00
85.1427 570.00
85.2079 538.00
85.2731 580.00
85.3383 579.00
85.4035 549.00
85.4687 588.00
85.5339 585.00
85.5991 601.00
85.6643 616.00
85.7295 507.00
85.7946 527.00
85.8598 529.00
85.925 514.00
85.9903 518.00
86.0554 470.00
86.1206 471.00
86.1858 505.00
86.251 450.00
86.3162 497.00
86.3814 470.00
86.4466 459.00
86.5118 467.00
86.577 458.00
86.6422 419.00
86.7074 418.00
86.7726 458.00
86.8378 443.00
86.903 475.00
86.9682 432.00
87.0334 452.00
87.0986 466.00
87.1638 462.00
87.229 471.00
87.2942 533.00
87.3594 466.00
87.4246 567.00
87.4898 519.00
87.555 501.00
87.6202 524.00
87.6854 468.00
87.7506 541.00
87.8158 486.00
87.881 534.00
87.9462 569.00
88.0114 555.00
88.0766 628.00
88.1418 554.00
88.207 591.00
88.2722 563.00
88.3374 566.00
88.4026 541.00
88.4678 561.00
88.533 521.00
88.5982 502.00
88.6634 560.00
88.7286 565.00
88.7938 534.00
88.859 531.00
88.9242 512.00
88.9894 512.00
89.0546 478.00
89.1198 505.00
89.185 522.00
89.2502 553.00
89.3154 571.00
89.3806 537.00
89.4458 557.00
89.511 561.00
89.5762 574.00
89.6414 576.00
89.7066 563.00
89.7718 509.00
89.837 516.00
89.9022 489.00
89.9674 509.00
90.0326 521.00
90.0978 489.00
90.163 514.00
90.2282 490.00
90.2934 525.00
90.3586 529.00
90.4238 535.00
90.489 557.00
90.5542 561.00
90.6193 570.00
90.6845 589.00
90.7497 557.00
90.8149 496.00
90.8801 529.00
90.9453 454.00
91.0105 456.00
91.0757 455.00
91.1409 472.00
91.2061 439.00
91.2713 496.00
91.3365 434.00
91.4017 416.00
91.4669 420.00
91.5321 469.00
91.5973 432.00
91.6625 462.00
91.7277 529.00
91.7929 519.00
91.8581 527.00
91.9233 499.00
91.9885 550.00
92.0537 600.00
92.1189 636.00
92.1841 643.00
92.2493 717.00
92.3145 707.00
92.3797 747.00
92.4449 753.00
92.5101 784.00
92.5753 777.00
92.6405 740.00
92.7057 756.00
92.7709 691.00
92.8361 698.00
92.9013 658.00
92.9665 701.00
93.0317 636.00
93.0969 668.00
93.1621 613.00
93.2273 618.00
93.2925 586.00
93.3577 563.00
93.4229 575.00
93.4881 566.00
93.5533 537.00
93.6185 583.00
93.6837 572.00
93.7489 623.00
93.8141 569.00
93.8793 609.00
93.9445 609.00
94.0097 582.00
94.0749 569.00
94.1401 597.00
94.2053 547.00
94.2705 537.00
94.3357 549.00
94.4009 526.00
94.4661 536.00
94.5313 514.00
94.5965 555.00
94.6617 580.00
94.7269 539.00
94.7921 562.00
94.8573 573.00
94.9225 583.00
94.9877 522.00
95.0529 578.00
95.1181 531.00
95.1833 525.00
95.2485 471.00
95.3137 478.00
95.3789 544.00
95.444 491.00
95.5092 507.00
95.5744 501.00
95.6396 457.00
95.7048 517.00
95.77 480.00
95.8352 481.00
95.9004 491.00
95.9656 487.00
96.0308 569.00
96.096 538.00
96.1612 512.00
96.2264 525.00
96.2916 531.00
96.3568 522.00
96.422 576.00
96.4872 552.00
96.5524 533.00
96.6176 537.00
96.6828 551.00
96.748 531.00
96.8132 556.00
96.8784 503.00
96.9436 541.00
97.0088 556.00
97.074 605.00
97.1392 543.00
97.2044 577.00
97.2696 607.00
97.3348 592.00
97.4 644.00
97.4652 597.00
97.5304 608.00
97.5956 644.00
97.6608 627.00
97.726 601.00
97.7912 612.00
97.8564 566.00
97.9216 565.00
97.9868 548.00
98.052 505.00
98.1172 541.00
98.1824 511.00
98.2476 495.00
98.3128 476.00
98.378 488.00
98.4432 513.00
98.5084 507.00
98.5736 530.00
98.6388 499.00
98.704 509.00
98.7692 492.00
98.8344 499.00
98.8996 517.00
98.9648 473.00
99.03 451.00
99.0952 494.00
99.1604 484.00
99.2256 486.00
99.2908 479.00
99.356 458.00
99.4212 440.00
99.4864 469.00
99.5516 458.00
99.6168 463.00
99.682 436.00
99.7472 417.00
99.8124 488.00
99.8776 454.00
99.9428 441.00
100.008 451.00
100.073 491.00
100.095 506.00