File: data/xrd_creation/results/MINES_6.xy
9.903433 2762.00
9.968632 2666.00
10.0338 2705.00
10.099 2684.00
10.1642 2609.00
10.2294 2587.00
10.2946 2580.00
10.3598 2507.00
10.425 2579.00
10.4902 2483.00
10.5554 2479.00
10.6206 2475.00
10.6858 2382.00
10.751 2256.00
10.8162 2401.00
10.8814 2361.00
10.9466 2369.00
11.0118 2399.00
11.077 2338.00
11.1422 2295.00
11.2074 2255.00
11.2726 2183.00
11.3378 2191.00
11.403 2211.00
11.4682 2230.00
11.5334 2182.00
11.5986 2211.00
11.6638 2068.00
11.729 2103.00
11.7942 2090.00
11.8594 2027.00
11.9246 2082.00
11.9898 2096.00
12.055 2079.00
12.1202 1980.00
12.1854 2065.00
12.2506 2051.00
12.3158 2034.00
12.381 2028.00
12.4462 2019.00
12.5114 2014.00
12.5766 1799.00
12.6418 1946.00
12.707 1812.00
12.7722 1839.00
12.8374 1783.00
12.9026 1823.00
12.9678 1763.00
13.033 1754.00
13.0982 1769.00
13.1634 1768.00
13.2286 1667.00
13.2938 1688.00
13.359 1625.00
13.4242 1695.00
13.4894 1730.00
13.5546 1672.00
13.6198 1603.00
13.685 1685.00
13.7502 1711.00
13.8154 1665.00
13.8805 1627.00
13.9457 1748.00
14.0109 1643.00
14.0761 1682.00
14.1413 1609.00
14.2065 1698.00
14.2717 1490.00
14.3369 1565.00
14.4021 1542.00
14.4673 1546.00
14.5325 1555.00
14.5977 1537.00
14.6629 1458.00
14.7281 1431.00
14.7933 1529.00
14.8585 1489.00
14.9237 1546.00
14.9889 1461.00
15.0541 1469.00
15.1193 1471.00
15.1845 1466.00
15.2497 1540.00
15.3149 1493.00
15.3801 1443.00
15.4453 1489.00
15.5105 1519.00
15.5757 1573.00
15.6409 1558.00
15.7061 1472.00
15.7713 1392.00
15.8365 1322.00
15.9017 1387.00
15.9669 1398.00
16.0321 1446.00
16.0973 1390.00
16.1625 1409.00
16.2277 1336.00
16.2929 1424.00
16.3581 1573.00
16.4233 1588.00
16.4885 1652.00
16.5537 1682.00
16.6189 1774.00
16.6841 1707.00
16.7493 1553.00
16.8145 1421.00
16.8797 1334.00
16.9449 1353.00
17.0101 1313.00
17.0753 1387.00
17.1405 1351.00
17.2057 1394.00
17.2709 1280.00
17.3361 1319.00
17.4013 1281.00
17.4665 1293.00
17.5317 1319.00
17.5969 1312.00
17.6621 1310.00
17.7273 1329.00
17.7925 1255.00
17.8577 1237.00
17.9229 1268.00
17.9881 1174.00
18.0533 1197.00
18.1185 1190.00
18.1837 1176.00
18.2489 1202.00
18.3141 1163.00
18.3793 1185.00
18.4445 1238.00
18.5097 1183.00
18.5749 1197.00
18.6401 1166.00
18.7052 1126.00
18.7704 1138.00
18.8356 1165.00
18.9008 1089.00
18.966 1117.00
19.0312 1172.00
19.0964 1167.00
19.1616 1096.00
19.2268 1162.00
19.292 1175.00
19.3572 1223.00
19.4224 1361.00
19.4876 1409.00
19.5528 1531.00
19.618 1562.00
19.6832 1646.00
19.7484 1629.00
19.8136 1481.00
19.8788 1381.00
19.944 1323.00
20.0092 1197.00
20.0744 1144.00
20.1396 1200.00
20.2048 1204.00
20.27 1149.00
20.3352 1231.00
20.4004 1243.00
20.4656 1302.00
20.5308 1370.00
20.596 1463.00
20.6612 1529.00
20.7264 1450.00
20.7916 1658.00
20.8568 1675.00
20.922 1788.00
20.9872 1915.00
21.0524 1827.00
21.1176 1487.00
21.1828 1223.00
21.248 1076.00
21.3132 976.00
21.3784 966.00
21.4436 962.00
21.5088 972.00
21.574 981.00
21.6392 991.00
21.7044 1005.00
21.7696 1019.00
21.8348 1035.00
21.9 974.00
21.9652 1042.00
22.0304 1150.00
22.0956 1123.00
22.1608 1189.00
22.226 1296.00
22.2912 1356.00
22.3564 1341.00
22.4216 1304.00
22.4868 1187.00
22.552 1175.00
22.6172 1110.00
22.6824 1152.00
22.7476 1170.00
22.8128 1333.00
22.878 1422.00
22.9432 1652.00
23.0084 1681.00
23.0736 1682.00
23.1388 1701.00
23.204 1622.00
23.2692 1557.00
23.3344 1383.00
23.3996 1145.00
23.4647 1065.00
23.5299 1025.00
23.5951 1080.00
23.6603 1270.00
23.7255 1532.00
23.7907 1840.00
23.8559 2175.00
23.9211 2751.00
23.9863 3238.00
24.0515 3642.00
24.1167 3288.00
24.1819 2053.00
24.2471 1402.00
24.3123 1479.00
24.3775 1699.00
24.4427 1903.00
24.5079 2303.00
24.5731 2655.00
24.6383 2598.00
24.7035 2179.00
24.7687 1870.00
24.8339 2139.00
24.8991 2691.00
24.9643 3406.00
25.0295 4423.00
25.0947 5086.00
25.1599 4563.00
25.2251 3072.00
25.2903 2247.00
25.3555 2178.00
25.4207 2604.00
25.4859 3146.00
25.5511 3811.00
25.6163 4137.00
25.6815 4476.00
25.7467 4943.00
25.8119 5135.00
25.8771 5110.00
25.9423 4667.00
26.0075 4100.00
26.0727 3355.00
26.1379 2549.00
26.2031 2134.00
26.2683 1957.00
26.3335 1897.00
26.3987 2136.00
26.4639 2520.00
26.5291 3221.00
26.5943 3941.00
26.6595 4764.00
26.7247 5435.00
26.7899 5773.00
26.8551 5003.00
26.9203 3492.00
26.9855 2059.00
27.0507 1261.00
27.1159 962.00
27.1811 924.00
27.2463 865.00
27.3115 813.00
27.3767 808.00
27.4419 840.00
27.5071 790.00
27.5723 757.00
27.6375 762.00
27.7027 801.00
27.7679 734.00
27.8331 732.00
27.8983 804.00
27.9635 853.00
28.0287 744.00
28.0939 783.00
28.1591 788.00
28.2243 843.00
28.2894 913.00
28.3546 942.00
28.4198 1044.00
28.485 1130.00
28.5502 1241.00
28.6154 1360.00
28.6806 1387.00
28.7458 1378.00
28.811 1423.00
28.8762 1371.00
28.9414 1369.00
29.0066 1350.00
29.0718 998.00
29.137 897.00
29.2022 814.00
29.2674 765.00
29.3326 731.00
29.3978 777.00
29.463 713.00
29.5282 783.00
29.5934 770.00
29.6586 763.00
29.7238 771.00
29.789 714.00
29.8542 721.00
29.9194 742.00
29.9846 787.00
30.0498 798.00
30.115 902.00
30.1802 933.00
30.2454 888.00
30.3106 780.00
30.3758 778.00
30.441 869.00
30.5062 908.00
30.5714 961.00
30.6366 1066.00
30.7018 1160.00
30.767 1208.00
30.8322 1323.00
30.8974 1337.00
30.9626 1282.00
31.0278 1190.00
31.093 1034.00
31.1582 1027.00
31.2234 999.00
31.2886 1021.00
31.3538 1326.00
31.419 1614.00
31.4842 1897.00
31.5494 2521.00
31.6146 2828.00
31.6798 3186.00
31.745 3080.00
31.8102 2714.00
31.8754 2102.00
31.9406 1547.00
32.0058 1252.00
32.071 976.00
32.1362 859.00
32.2014 801.00
32.2666 749.00
32.3318 725.00
32.397 702.00
32.4622 681.00
32.5274 672.00
32.5926 677.00
32.6578 597.00
32.723 576.00
32.7882 576.00
32.8534 541.00
32.9186 569.00
32.9838 572.00
33.0489 579.00
33.1141 561.00
33.1793 545.00
33.2445 584.00
33.3097 577.00
33.3749 581.00
33.4401 555.00
33.5053 561.00
33.5705 570.00
33.6357 533.00
33.7009 543.00
33.7661 526.00
33.8313 555.00
33.8965 523.00
33.9617 583.00
34.0269 573.00
34.0921 572.00
34.1573 581.00
34.2225 629.00
34.2877 658.00
34.3529 682.00
34.4181 673.00
34.4833 662.00
34.5485 674.00
34.6137 606.00
34.6789 597.00
34.7441 607.00
34.8093 598.00
34.8745 591.00
34.9397 610.00
35.0049 638.00
35.0701 601.00
35.1353 666.00
35.2005 658.00
35.2657 786.00
35.3309 927.00
35.3961 954.00
35.4613 852.00
35.5265 798.00
35.5917 709.00
35.6569 654.00
35.7221 546.00
35.7873 592.00
35.8525 579.00
35.9177 560.00
35.9829 516.00
36.0481 561.00
36.1133 598.00
36.1785 571.00
36.2437 624.00
36.3089 637.00
36.3741 738.00
36.4393 809.00
36.5045 960.00
36.5697 1029.00
36.6349 1084.00
36.7001 946.00
36.7653 892.00
36.8305 830.00
36.8957 639.00
36.9609 684.00
37.0261 594.00
37.0913 534.00
37.1565 541.00
37.2217 528.00
37.2869 557.00
37.3521 576.00
37.4173 626.00
37.4825 720.00
37.5477 774.00
37.6129 923.00
37.6781 1160.00
37.7433 1340.00
37.8085 1691.00
37.8736 1739.00
37.9388 1565.00
38.004 1159.00
38.0692 894.00
38.1344 810.00
38.1996 843.00
38.2648 916.00
38.33 991.00
38.3952 1107.00
38.4604 1169.00
38.5256 1038.00
38.5908 843.00
38.656 703.00
38.7212 615.00
38.7864 601.00
38.8516 570.00
38.9168 581.00
38.982 635.00
39.0472 604.00
39.1124 610.00
39.1776 636.00
39.2428 738.00
39.308 790.00
39.3732 972.00
39.4384 1106.00
39.5036 1210.00
39.5688 1275.00
39.634 1260.00
39.6992 1111.00
39.7644 988.00
39.8296 825.00
39.8948 733.00
39.96 703.00
40.0252 587.00
40.0904 611.00
40.1556 628.00
40.2208 647.00
40.286 651.00
40.3512 590.00
40.4164 606.00
40.4816 561.00
40.5468 525.00
40.612 488.00
40.6772 446.00
40.7424 429.00
40.8076 439.00
40.8728 439.00
40.938 446.00
41.0032 461.00
41.0684 442.00
41.1336 432.00
41.1988 431.00
41.264 481.00
41.3292 468.00
41.3944 477.00
41.4596 521.00
41.5248 517.00
41.59 552.00
41.6552 549.00
41.7204 512.00
41.7856 532.00
41.8508 511.00
41.916 554.00
41.9812 559.00
42.0464 477.00
42.1116 531.00
42.1768 536.00
42.242 552.00
42.3072 569.00
42.3724 575.00
42.4376 579.00
42.5028 536.00
42.568 570.00
42.6332 579.00
42.6983 483.00
42.7635 471.00
42.8287 475.00
42.8939 490.00
42.9591 544.00
43.0243 645.00
43.0895 660.00
43.1547 760.00
43.2199 762.00
43.2851 903.00
43.3503 854.00
43.4155 768.00
43.4807 690.00
43.5459 573.00
43.6111 523.00
43.6763 528.00
43.7415 519.00
43.8067 477.00
43.8719 456.00
43.9371 483.00
44.0023 529.00
44.0675 591.00
44.1327 608.00
44.1979 660.00
44.2631 696.00
44.3283 703.00
44.3935 578.00
44.4587 547.00
44.5239 470.00
44.5891 444.00
44.6543 467.00
44.7195 491.00
44.7847 409.00
44.8499 403.00
44.9151 434.00
44.9803 465.00
45.0455 507.00
45.1107 529.00
45.1759 595.00
45.2411 601.00
45.3063 623.00
45.3715 635.00
45.4367 571.00
45.5019 536.00
45.5671 573.00
45.6323 667.00
45.6975 599.00
45.7627 578.00
45.8279 606.00
45.8931 614.00
45.9583 596.00
46.0235 629.00
46.0887 677.00
46.1539 685.00
46.2191 789.00
46.2843 883.00
46.3495 1032.00
46.4147 920.00
46.4799 779.00
46.5451 581.00
46.6103 438.00
46.6755 386.00
46.7407 395.00
46.8059 425.00
46.8711 429.00
46.9363 448.00
47.0015 503.00
47.0667 615.00
47.1319 579.00
47.1971 680.00
47.2623 713.00
47.3275 753.00
47.3927 655.00
47.4579 556.00
47.523 576.00
47.5882 533.00
47.6534 523.00
47.7186 536.00
47.7838 585.00
47.849 577.00
47.9142 584.00
47.9794 608.00
48.0446 604.00
48.1098 633.00
48.175 617.00
48.2402 653.00
48.3054 671.00
48.3706 667.00
48.4358 662.00
48.501 722.00
48.5662 687.00
48.6314 781.00
48.6966 793.00
48.7618 854.00
48.827 777.00
48.8922 746.00
48.9574 704.00
49.0226 635.00
49.0878 582.00
49.153 536.00
49.2182 539.00
49.2834 529.00
49.3486 516.00
49.4138 534.00
49.479 603.00
49.5442 576.00
49.6094 513.00
49.6746 531.00
49.7398 457.00
49.805 544.00
49.8702 590.00
49.9354 665.00
50.0006 716.00
50.0658 806.00
50.131 871.00
50.1962 891.00
50.2614 852.00
50.3266 785.00
50.3918 660.00
50.457 570.00
50.5222 560.00
50.5874 557.00
50.6526 584.00
50.7178 680.00
50.783 653.00
50.8482 688.00
50.9134 633.00
50.9786 589.00
51.0438 544.00
51.109 435.00
51.1742 478.00
51.2394 485.00
51.3046 476.00
51.3698 433.00
51.435 465.00
51.5002 371.00
51.5654 418.00
51.6306 382.00
51.6958 378.00
51.761 443.00
51.8262 423.00
51.8914 469.00
51.9566 471.00
52.0218 488.00
52.087 510.00
52.1522 478.00
52.2174 505.00
52.2826 482.00
52.3477 548.00
52.4129 591.00
52.4781 750.00
52.5433 926.00
52.6085 1205.00
52.6737 1454.00
52.7389 1512.00
52.8041 1521.00
52.8693 1352.00
52.9345 1105.00
52.9997 819.00
53.0649 672.00
53.1301 609.00
53.1953 487.00
53.2605 438.00
53.3257 381.00
53.3909 385.00
53.4561 403.00
53.5213 357.00
53.5865 386.00
53.6517 368.00
53.7169 401.00
53.7821 347.00
53.8473 361.00
53.9125 350.00
53.9777 376.00
54.0429 406.00
54.1081 385.00
54.1733 451.00
54.2385 425.00
54.3037 475.00
54.3689 452.00
54.4341 491.00
54.4993 507.00
54.5645 461.00
54.6297 500.00
54.6949 496.00
54.7601 513.00
54.8253 496.00
54.8905 508.00
54.9557 477.00
55.0209 457.00
55.0861 417.00
55.1513 399.00
55.2165 403.00
55.2817 414.00
55.3469 360.00
55.4121 404.00
55.4773 405.00
55.5425 431.00
55.6077 395.00
55.6729 427.00
55.7381 433.00
55.8033 464.00
55.8685 454.00
55.9337 539.00
55.9989 569.00
56.0641 604.00
56.1293 629.00
56.1945 676.00
56.2597 660.00
56.3249 631.00
56.3901 618.00
56.4553 523.00
56.5205 499.00
56.5857 481.00
56.6509 416.00
56.7161 444.00
56.7813 461.00
56.8465 404.00
56.9117 398.00
56.9769 367.00
57.042 351.00
57.1073 332.00
57.1724 374.00
57.2376 317.00
57.3028 379.00
57.368 317.00
57.4332 307.00
57.4984 339.00
57.5636 336.00
57.6288 386.00
57.694 371.00
57.7592 389.00
57.8244 462.00
57.8896 467.00
57.9548 393.00
58.02 416.00
58.0852 372.00
58.1504 380.00
58.2156 351.00
58.2808 357.00
58.346 363.00
58.4112 379.00
58.4764 370.00
58.5416 351.00
58.6068 328.00
58.672 353.00
58.7372 331.00
58.8024 321.00
58.8676 315.00
58.9328 349.00
58.998 312.00
59.0632 294.00
59.1284 344.00
59.1936 310.00
59.2588 336.00
59.324 376.00
59.3892 382.00
59.4544 432.00
59.5196 463.00
59.5848 483.00
59.65 538.00
59.7152 531.00
59.7804 501.00
59.8456 544.00
59.9108 550.00
59.976 521.00
60.0412 495.00
60.1064 415.00
60.1716 430.00
60.2368 420.00
60.302 384.00
60.3672 411.00
60.4324 442.00
60.4976 488.00
60.5628 545.00
60.628 580.00
60.6932 549.00
60.7584 689.00
60.8236 632.00
60.8888 564.00
60.954 603.00
61.0192 611.00
61.0844 585.00
61.1496 655.00
61.2148 643.00
61.28 503.00
61.3452 533.00
61.4104 464.00
61.4756 432.00
61.5408 410.00
61.606 403.00
61.6712 406.00
61.7364 397.00
61.8016 444.00
61.8667 428.00
61.932 422.00
61.9971 398.00
62.0623 406.00
62.1275 424.00
62.1927 408.00
62.2579 427.00
62.3231 488.00
62.3883 547.00
62.4535 592.00
62.5187 693.00
62.5839 716.00
62.6491 799.00
62.7143 800.00
62.7795 805.00
62.8447 757.00
62.9099 669.00
62.9751 615.00
63.0403 526.00
63.1055 523.00
63.1707 554.00
63.2359 536.00
63.3011 517.00
63.3663 530.00
63.4315 494.00
63.4967 484.00
63.5619 463.00
63.6271 496.00
63.6923 506.00
63.7575 572.00
63.8227 545.00
63.8879 573.00
63.9531 590.00
64.0183 547.00
64.0835 592.00
64.1487 595.00
64.2139 578.00
64.2791 559.00
64.3443 497.00
64.4095 501.00
64.4747 476.00
64.5399 447.00
64.6051 435.00
64.6703 416.00
64.7355 460.00
64.8007 512.00
64.8659 482.00
64.9311 519.00
64.9963 507.00
65.0615 473.00
65.1267 470.00
65.1919 430.00
65.2571 389.00
65.3223 398.00
65.3875 416.00
65.4527 454.00
65.5179 460.00
65.5831 547.00
65.6483 542.00
65.7135 668.00
65.7787 699.00
65.8439 723.00
65.9091 620.00
65.9743 590.00
66.0395 574.00
66.1047 488.00
66.1699 444.00
66.2351 425.00
66.3003 373.00
66.3655 401.00
66.4307 407.00
66.4959 393.00
66.561 406.00
66.6263 466.00
66.6915 442.00
66.7566 513.00
66.8218 517.00
66.887 514.00
66.9522 520.00
67.0174 598.00
67.0826 615.00
67.1478 599.00
67.213 581.00
67.2782 579.00
67.3434 622.00
67.4086 573.00
67.4738 567.00
67.539 605.00
67.6042 566.00
67.6694 627.00
67.7346 563.00
67.7998 598.00
67.865 584.00
67.9302 616.00
67.9954 641.00
68.0606 685.00
68.1258 697.00
68.191 720.00
68.2562 738.00
68.3214 750.00
68.3866 724.00
68.4518 766.00
68.517 709.00
68.5822 637.00
68.6474 581.00
68.7126 627.00
68.7778 538.00
68.843 502.00
68.9082 494.00
68.9734 483.00
69.0386 494.00
69.1038 477.00
69.169 455.00
69.2342 468.00
69.2994 442.00
69.3646 444.00
69.4298 427.00
69.495 385.00
69.5602 374.00
69.6254 366.00
69.6906 339.00
69.7558 356.00
69.821 311.00
69.8862 287.00
69.9514 276.00
70.0166 285.00
70.0818 272.00
70.147 304.00
70.2122 347.00
70.2774 350.00
70.3426 370.00
70.4078 341.00
70.473 372.00
70.5382 339.00
70.6034 342.00
70.6686 330.00
70.7338 326.00
70.799 330.00
70.8642 310.00
70.9294 299.00
70.9946 314.00
71.0598 313.00
71.125 335.00
71.1902 296.00
71.2554 336.00
71.3205 344.00
71.3858 334.00
71.451 349.00
71.5162 355.00
71.5813 319.00
71.6465 320.00
71.7117 318.00
71.7769 352.00
71.8421 341.00
71.9073 347.00
71.9725 355.00
72.0377 340.00
72.1029 353.00
72.1681 362.00
72.2333 373.00
72.2985 361.00
72.3637 366.00
72.4289 354.00
72.4941 391.00
72.5593 343.00
72.6245 345.00
72.6897 342.00
72.7549 338.00
72.8201 323.00
72.8853 298.00
72.9505 299.00
73.0157 316.00
73.0809 314.00
73.1461 295.00
73.2113 278.00
73.2765 290.00
73.3417 290.00
73.4069 294.00
73.4721 323.00
73.5373 317.00
73.6025 354.00
73.6677 305.00
73.7329 303.00
73.7981 318.00
73.8633 324.00
73.9285 282.00
73.9937 269.00
74.0589 279.00
74.1241 267.00
74.1893 268.00
74.2545 246.00
74.3197 276.00
74.3849 272.00
74.4501 294.00
74.5153 273.00
74.5805 244.00
74.6457 277.00
74.7109 278.00
74.7761 277.00
74.8413 291.00
74.9065 284.00
74.9717 297.00
75.0369 312.00
75.1021 310.00
75.1673 278.00
75.2325 358.00
75.2977 334.00
75.3629 353.00
75.4281 313.00
75.4933 353.00
75.5585 352.00
75.6237 348.00
75.6889 323.00
75.7541 314.00
75.8193 314.00
75.8845 322.00
75.9497 338.00
76.0149 335.00
76.0801 356.00
76.1452 416.00
76.2104 396.00
76.2756 449.00
76.3409 452.00
76.406 430.00
76.4712 440.00
76.5364 394.00
76.6016 347.00
76.6668 357.00
76.732 311.00
76.7972 322.00
76.8624 334.00
76.9276 329.00
76.9928 364.00
77.058 349.00
77.1232 355.00
77.1884 363.00
77.2536 349.00
77.3188 363.00
77.384 425.00
77.4492 391.00
77.5144 426.00
77.5796 417.00
77.6448 492.00
77.71 429.00
77.7752 447.00
77.8404 414.00
77.9056 411.00
77.9708 433.00
78.036 424.00
78.1012 407.00
78.1664 458.00
78.2316 481.00
78.2968 450.00
78.362 413.00
78.4272 428.00
78.4924 397.00
78.5576 339.00
78.6228 370.00
78.688 345.00
78.7532 337.00
78.8184 357.00
78.8836 366.00
78.9488 401.00
79.014 421.00
79.0792 422.00
79.1444 449.00
79.2096 433.00
79.2748 443.00
79.34 440.00
79.4052 435.00
79.4704 378.00
79.5356 376.00
79.6008 395.00
79.666 384.00
79.7312 337.00
79.7964 404.00
79.8616 350.00
79.9268 311.00
79.992 315.00
80.0572 310.00
80.1224 294.00
80.1876 283.00
80.2528 286.00
80.318 325.00
80.3832 317.00
80.4484 349.00
80.5136 306.00
80.5788 319.00
80.644 334.00
80.7092 346.00
80.7744 357.00
80.8396 357.00
80.9048 359.00
80.9699 360.00
81.0351 385.00
81.1003 350.00
81.1655 368.00
81.2307 386.00
81.2959 374.00
81.3611 365.00
81.4263 363.00
81.4915 319.00
81.5567 327.00
81.6219 311.00
81.6871 336.00
81.7523 302.00
81.8175 334.00
81.8827 366.00
81.9479 319.00
82.0131 304.00
82.0783 286.00
82.1435 307.00
82.2087 288.00
82.2739 246.00
82.3391 306.00
82.4043 258.00
82.4695 247.00
82.5347 241.00
82.5999 293.00
82.6651 227.00
82.7303 292.00
82.7955 268.00
82.8607 293.00
82.9259 271.00
82.9911 268.00
83.0563 299.00
83.1215 256.00
83.1867 263.00
83.2519 307.00
83.3171 304.00
83.3823 297.00
83.4475 303.00
83.5127 295.00
83.5779 278.00
83.6431 286.00
83.7083 297.00
83.7735 286.00
83.8387 277.00
83.9039 273.00
83.9691 270.00
84.0343 277.00
84.0995 251.00
84.1647 250.00
84.2299 237.00
84.2951 250.00
84.3603 268.00
84.4255 343.00
84.4907 308.00
84.5559 346.00
84.6211 334.00
84.6863 328.00
84.7515 328.00
84.8167 318.00
84.8819 316.00
84.9471 328.00
85.0123 305.00
85.0775 289.00
85.1427 299.00
85.2079 327.00
85.2731 288.00
85.3383 290.00
85.4035 298.00
85.4687 296.00
85.5339 342.00
85.5991 295.00
85.6643 306.00
85.7295 326.00
85.7946 287.00
85.8598 313.00
85.925 326.00
85.9903 312.00
86.0554 342.00
86.1206 344.00
86.1858 324.00
86.251 356.00
86.3162 337.00
86.3814 351.00
86.4466 322.00
86.5118 287.00
86.577 274.00
86.6422 243.00
86.7074 245.00
86.7726 235.00
86.8378 225.00
86.903 243.00
86.9682 232.00
87.0334 229.00
87.0986 220.00
87.1638 258.00
87.229 240.00
87.2942 267.00
87.3594 279.00
87.4246 297.00
87.4898 293.00
87.555 286.00
87.6202 298.00
87.6854 244.00
87.7506 291.00
87.8158 261.00
87.881 312.00
87.9462 313.00
88.0114 333.00
88.0766 344.00
88.1418 331.00
88.207 313.00
88.2722 335.00
88.3374 364.00
88.4026 309.00
88.4678 325.00
88.533 268.00
88.5982 307.00
88.6634 305.00
88.7286 305.00
88.7938 291.00
88.859 303.00
88.9242 296.00
88.9894 286.00
89.0546 278.00
89.1198 259.00
89.185 240.00
89.2502 258.00
89.3154 278.00
89.3806 267.00
89.4458 248.00
89.511 257.00
89.5762 242.00
89.6414 288.00
89.7066 270.00
89.7718 259.00
89.837 219.00
89.9022 269.00
89.9674 260.00
90.0326 272.00
90.0978 239.00
90.163 285.00
90.2282 264.00
90.2934 262.00
90.3586 300.00
90.4238 286.00
90.489 294.00
90.5542 246.00
90.6193 312.00
90.6845 276.00
90.7497 285.00
90.8149 284.00
90.8801 266.00
90.9453 273.00
91.0105 283.00
91.0757 264.00
91.1409 226.00
91.2061 249.00
91.2713 203.00
91.3365 196.00
91.4017 267.00
91.4669 212.00
91.5321 232.00
91.5973 246.00
91.6625 236.00
91.7277 267.00
91.7929 271.00
91.8581 271.00
91.9233 263.00
91.9885 258.00
92.0537 246.00
92.1189 257.00
92.1841 263.00
92.2493 244.00
92.3145 256.00
92.3797 270.00
92.4449 236.00
92.5101 236.00
92.5753 244.00
92.6405 229.00
92.7057 258.00
92.7709 247.00
92.8361 258.00
92.9013 299.00
92.9665 257.00
93.0317 274.00
93.0969 278.00
93.1621 295.00
93.2273 263.00
93.2925 282.00
93.3577 259.00
93.4229 261.00
93.4881 280.00
93.5533 269.00
93.6185 291.00
93.6837 295.00
93.7489 311.00
93.8141 279.00
93.8793 326.00
93.9445 277.00
94.0097 297.00
94.0749 294.00
94.1401 324.00
94.2053 302.00
94.2705 274.00
94.3357 292.00
94.4009 276.00
94.4661 291.00
94.5313 298.00
94.5965 272.00
94.6617 248.00
94.7269 283.00
94.7921 269.00
94.8573 273.00
94.9225 270.00
94.9877 262.00
95.0529 263.00
95.1181 260.00
95.1833 320.00
95.2485 284.00
95.3137 245.00
95.3789 269.00
95.444 272.00
95.5092 257.00
95.5744 290.00
95.6396 247.00
95.7048 259.00
95.77 262.00
95.8352 257.00
95.9004 276.00
95.9656 276.00
96.0308 273.00
96.096 290.00
96.1612 298.00
96.2264 274.00
96.2916 263.00
96.3568 258.00
96.422 270.00
96.4872 241.00
96.5524 290.00
96.6176 265.00
96.6828 238.00
96.748 245.00
96.8132 271.00
96.8784 261.00
96.9436 258.00
97.0088 264.00
97.074 264.00
97.1392 279.00
97.2044 269.00
97.2696 268.00
97.3348 280.00
97.4 236.00
97.4652 249.00
97.5304 282.00
97.5956 259.00
97.6608 276.00
97.726 243.00
97.7912 235.00
97.8564 288.00
97.9216 287.00
97.9868 246.00
98.052 244.00
98.1172 260.00
98.1824 249.00
98.2476 242.00
98.3128 262.00
98.378 232.00
98.4432 268.00
98.5084 275.00
98.5736 288.00
98.6388 275.00
98.704 306.00
98.7692 316.00
98.8344 272.00
98.8996 304.00
98.9648 272.00
99.03 276.00
99.0952 292.00
99.1604 260.00
99.2256 247.00
99.2908 245.00
99.356 261.00
99.4212 225.00
99.4864 250.00
99.5516 235.00
99.6168 242.00
99.682 259.00
99.7472 246.00
99.8124 257.00
99.8776 225.00
99.9428 295.00
100.008 275.00
100.073 316.00
100.095 300.00