File: data/xrd_creation/results/MINES_13.xy
9.903433 3160.00
9.968632 2970.00
10.0338 3052.00
10.099 2904.00
10.1642 3011.00
10.2294 2847.00
10.2946 2965.00
10.3598 2907.00
10.425 2887.00
10.4902 2818.00
10.5554 2857.00
10.6206 2804.00
10.6858 2771.00
10.751 2736.00
10.8162 2684.00
10.8814 2727.00
10.9466 2647.00
11.0118 2728.00
11.077 2747.00
11.1422 2647.00
11.2074 2661.00
11.2726 2585.00
11.3378 2562.00
11.403 2493.00
11.4682 2588.00
11.5334 2609.00
11.5986 2559.00
11.6638 2595.00
11.729 2472.00
11.7942 2534.00
11.8594 2483.00
11.9246 2434.00
11.9898 2461.00
12.055 2480.00
12.1202 2525.00
12.1854 2365.00
12.2506 2404.00
12.3158 2469.00
12.381 2339.00
12.4462 2279.00
12.5114 2415.00
12.5766 2319.00
12.6418 2299.00
12.707 2297.00
12.7722 2294.00
12.8374 2233.00
12.9026 2257.00
12.9678 2293.00
13.033 2225.00
13.0982 2268.00
13.1634 2112.00
13.2286 2220.00
13.2938 2209.00
13.359 2132.00
13.4242 2091.00
13.4894 2247.00
13.5546 2171.00
13.6198 2127.00
13.685 2101.00
13.7502 2154.00
13.8154 2056.00
13.8805 2154.00
13.9457 2133.00
14.0109 2181.00
14.0761 2142.00
14.1413 2110.00
14.2065 1978.00
14.2717 2099.00
14.3369 2008.00
14.4021 2049.00
14.4673 2047.00
14.5325 2086.00
14.5977 2121.00
14.6629 2111.00
14.7281 2003.00
14.7933 2106.00
14.8585 2004.00
14.9237 1958.00
14.9889 2015.00
15.0541 2004.00
15.1193 2079.00
15.1845 2029.00
15.2497 1968.00
15.3149 1969.00
15.3801 1991.00
15.4453 1959.00
15.5105 1974.00
15.5757 1978.00
15.6409 2001.00
15.7061 1986.00
15.7713 1938.00
15.8365 1992.00
15.9017 1976.00
15.9669 2025.00
16.0321 1987.00
16.0973 2050.00
16.1625 1976.00
16.2277 2152.00
16.2929 2043.00
16.3581 2185.00
16.4233 2187.00
16.4885 2143.00
16.5537 2068.00
16.6189 1948.00
16.6841 1874.00
16.7493 1912.00
16.8145 1904.00
16.8797 1900.00
16.9449 1911.00
17.0101 1843.00
17.0753 1934.00
17.1405 1871.00
17.2057 1879.00
17.2709 1871.00
17.3361 1862.00
17.4013 1887.00
17.4665 1917.00
17.5317 1875.00
17.5969 1863.00
17.6621 1889.00
17.7273 1913.00
17.7925 1862.00
17.8577 1919.00
17.9229 1840.00
17.9881 1878.00
18.0533 1839.00
18.1185 1788.00
18.1837 1761.00
18.2489 1872.00
18.3141 1811.00
18.3793 1784.00
18.4445 1766.00
18.5097 1813.00
18.5749 1820.00
18.6401 1828.00
18.7052 1860.00
18.7704 1886.00
18.8356 1858.00
18.9008 1837.00
18.966 1858.00
19.0312 1897.00
19.0964 1837.00
19.1616 1849.00
19.2268 1781.00
19.292 1755.00
19.3572 1794.00
19.4224 1842.00
19.4876 1811.00
19.5528 1831.00
19.618 1774.00
19.6832 1762.00
19.7484 1723.00
19.8136 1673.00
19.8788 1793.00
19.944 1799.00
20.0092 1734.00
20.0744 1765.00
20.1396 1743.00
20.2048 1720.00
20.27 1805.00
20.3352 1801.00
20.4004 1745.00
20.4656 1755.00
20.5308 1759.00
20.596 1759.00
20.6612 1776.00
20.7264 1803.00
20.7916 1763.00
20.8568 1867.00
20.922 1811.00
20.9872 1816.00
21.0524 1826.00
21.1176 1818.00
21.1828 1804.00
21.248 1769.00
21.3132 1753.00
21.3784 1752.00
21.4436 1844.00
21.5088 1838.00
21.574 1947.00
21.6392 2094.00
21.7044 2340.00
21.7696 2830.00
21.8348 3205.00
21.9 3806.00
21.9652 4278.00
22.0304 4364.00
22.0956 3844.00
22.1608 2930.00
22.226 2138.00
22.2912 1877.00
22.3564 1693.00
22.4216 1790.00
22.4868 1809.00
22.552 1727.00
22.6172 1789.00
22.6824 1799.00
22.7476 1762.00
22.8128 1703.00
22.878 1751.00
22.9432 1742.00
23.0084 1733.00
23.0736 1713.00
23.1388 1767.00
23.204 1733.00
23.2692 1690.00
23.3344 1741.00
23.3996 1736.00
23.4647 1771.00
23.5299 1776.00
23.5951 1950.00
23.6603 2343.00
23.7255 2678.00
23.7907 3116.00
23.8559 3251.00
23.9211 2949.00
23.9863 2300.00
24.0515 1985.00
24.1167 1851.00
24.1819 2013.00
24.2471 2238.00
24.3123 2537.00
24.3775 2671.00
24.4427 2690.00
24.5079 2220.00
24.5731 2079.00
24.6383 2178.00
24.7035 2518.00
24.7687 3043.00
24.8339 3654.00
24.8991 3956.00
24.9643 3654.00
25.0295 2681.00
25.0947 2010.00
25.1599 1751.00
25.2251 1702.00
25.2903 1755.00
25.3555 1748.00
25.4207 1830.00
25.4859 1967.00
25.5511 2029.00
25.6163 1939.00
25.6815 1818.00
25.7467 1687.00
25.8119 1660.00
25.8771 1667.00
25.9423 1614.00
26.0075 1638.00
26.0727 1611.00
26.1379 1705.00
26.2031 1600.00
26.2683 1602.00
26.3335 1652.00
26.3987 1627.00
26.4639 1661.00
26.5291 1741.00
26.5943 1800.00
26.6595 1873.00
26.7247 1779.00
26.7899 1710.00
26.8551 1700.00
26.9203 1644.00
26.9855 1629.00
27.0507 1638.00
27.1159 1556.00
27.1811 1662.00
27.2463 1625.00
27.3115 1629.00
27.3767 1667.00
27.4419 1560.00
27.5071 1636.00
27.5723 1622.00
27.6375 1509.00
27.7027 1611.00
27.7679 1601.00
27.8331 1621.00
27.8983 1622.00
27.9635 1599.00
28.0287 1626.00
28.0939 1652.00
28.1591 1635.00
28.2243 1681.00
28.2894 1674.00
28.3546 1712.00
28.4198 1707.00
28.485 1890.00
28.5502 1736.00
28.6154 1760.00
28.6806 1548.00
28.7458 1526.00
28.811 1579.00
28.8762 1602.00
28.9414 1512.00
29.0066 1530.00
29.0718 1560.00
29.137 1557.00
29.2022 1499.00
29.2674 1538.00
29.3326 1482.00
29.3978 1545.00
29.463 1505.00
29.5282 1534.00
29.5934 1558.00
29.6586 1520.00
29.7238 1545.00
29.789 1490.00
29.8542 1515.00
29.9194 1546.00
29.9846 1563.00
30.0498 1544.00
30.115 1536.00
30.1802 1445.00
30.2454 1618.00
30.3106 1556.00
30.3758 1636.00
30.441 1647.00
30.5062 1671.00
30.5714 1613.00
30.6366 1696.00
30.7018 1716.00
30.767 1758.00
30.8322 1684.00
30.8974 1674.00
30.9626 1522.00
31.0278 1502.00
31.093 1559.00
31.1582 1601.00
31.2234 1636.00
31.2886 1690.00
31.3538 1763.00
31.419 1806.00
31.4842 1761.00
31.5494 1798.00
31.6146 1760.00
31.6798 1548.00
31.745 1583.00
31.8102 1544.00
31.8754 1578.00
31.9406 1540.00
32.0058 1592.00
32.071 1593.00
32.1362 1629.00
32.2014 1620.00
32.2666 1594.00
32.3318 1579.00
32.397 1595.00
32.4622 1523.00
32.5274 1631.00
32.5926 1699.00
32.6578 1678.00
32.723 1879.00
32.7882 2346.00
32.8534 3127.00
32.9186 4750.00
32.9838 6848.00
33.0489 8095.00
33.1141 7322.00
33.1793 5149.00
33.2445 2985.00
33.3097 2012.00
33.3749 1821.00
33.4401 1571.00
33.5053 1594.00
33.5705 1554.00
33.6357 1549.00
33.7009 1542.00
33.7661 1516.00
33.8313 1470.00
33.8965 1551.00
33.9617 1531.00
34.0269 1451.00
34.0921 1480.00
34.1573 1491.00
34.2225 1445.00
34.2877 1528.00
34.3529 1486.00
34.4181 1487.00
34.4833 1494.00
34.5485 1503.00
34.6137 1416.00
34.6789 1492.00
34.7441 1449.00
34.8093 1489.00
34.8745 1502.00
34.9397 1470.00
35.0049 1442.00
35.0701 1556.00
35.1353 1470.00
35.2005 1411.00
35.2657 1494.00
35.3309 1491.00
35.3961 1453.00
35.4613 1453.00
35.5265 1417.00
35.5917 1509.00
35.6569 1548.00
35.7221 1541.00
35.7873 1657.00
35.8525 1619.00
35.9177 1744.00
35.9829 1763.00
36.0481 1867.00
36.1133 1942.00
36.1785 1896.00
36.2437 1882.00
36.3089 1740.00
36.3741 1676.00
36.4393 1581.00
36.5045 1577.00
36.5697 1477.00
36.6349 1476.00
36.7001 1422.00
36.7653 1415.00
36.8305 1450.00
36.8957 1515.00
36.9609 1461.00
37.0261 1498.00
37.0913 1482.00
37.1565 1500.00
37.2217 1400.00
37.2869 1452.00
37.3521 1499.00
37.4173 1550.00
37.4825 1671.00
37.5477 1827.00
37.6129 2075.00
37.6781 2267.00
37.7433 2275.00
37.8085 1895.00
37.8736 1699.00
37.9388 1610.00
38.004 1723.00
38.0692 1973.00
38.1344 2291.00
38.1996 2741.00
38.2648 2827.00
38.33 2508.00
38.3952 2088.00
38.4604 1876.00
38.5256 1802.00
38.5908 1836.00
38.656 1694.00
38.7212 1630.00
38.7864 1548.00
38.8516 1499.00
38.9168 1375.00
38.982 1467.00
39.0472 1443.00
39.1124 1486.00
39.1776 1565.00
39.2428 1694.00
39.308 1720.00
39.3732 1756.00
39.4384 1594.00
39.5036 1601.00
39.5688 1525.00
39.634 1436.00
39.6992 1456.00
39.7644 1464.00
39.8296 1500.00
39.8948 1453.00
39.96 1479.00
40.0252 1444.00
40.0904 1472.00
40.1556 1388.00
40.2208 1421.00
40.286 1396.00
40.3512 1435.00
40.4164 1381.00
40.4816 1487.00
40.5468 1405.00
40.612 1415.00
40.6772 1418.00
40.7424 1421.00
40.8076 1354.00
40.8728 1382.00
40.938 1453.00
41.0032 1432.00
41.0684 1451.00
41.1336 1485.00
41.1988 1424.00
41.264 1345.00
41.3292 1371.00
41.3944 1442.00
41.4596 1388.00
41.5248 1392.00
41.59 1482.00
41.6552 1471.00
41.7204 1541.00
41.7856 1736.00
41.8508 1731.00
41.916 1774.00
41.9812 1848.00
42.0464 1883.00
42.1116 1963.00
42.1768 2029.00
42.242 1991.00
42.3072 1921.00
42.3724 1723.00
42.4376 1516.00
42.5028 1510.00
42.568 1469.00
42.6332 1502.00
42.6983 1525.00
42.7635 1554.00
42.8287 1464.00
42.8939 1410.00
42.9591 1448.00
43.0243 1498.00
43.0895 1348.00
43.1547 1485.00
43.2199 1404.00
43.2851 1389.00
43.3503 1439.00
43.4155 1441.00
43.4807 1416.00
43.5459 1452.00
43.6111 1417.00
43.6763 1404.00
43.7415 1407.00
43.8067 1518.00
43.8719 1605.00
43.9371 1600.00
44.0023 1578.00
44.0675 1662.00
44.1327 1593.00
44.1979 1471.00
44.2631 1526.00
44.3283 1430.00
44.3935 1425.00
44.4587 1442.00
44.5239 1477.00
44.5891 1462.00
44.6543 1449.00
44.7195 1521.00
44.7847 1504.00
44.8499 1510.00
44.9151 1580.00
44.9803 1577.00
45.0455 1557.00
45.1107 1652.00
45.1759 1491.00
45.2411 1524.00
45.3063 1494.00
45.3715 1427.00
45.4367 1509.00
45.5019 1570.00
45.5671 1408.00
45.6323 1433.00
45.6975 1358.00
45.7627 1432.00
45.8279 1422.00
45.8931 1434.00
45.9583 1474.00
46.0235 1553.00
46.0887 1723.00
46.1539 1828.00
46.2191 1918.00
46.2843 1793.00
46.3495 1667.00
46.4147 1519.00
46.4799 1483.00
46.5451 1456.00
46.6103 1389.00
46.6755 1426.00
46.7407 1434.00
46.8059 1470.00
46.8711 1537.00
46.9363 1549.00
47.0015 1470.00
47.0667 1535.00
47.1319 1478.00
47.1971 1553.00
47.2623 1466.00
47.3275 1488.00
47.3927 1510.00
47.4579 1486.00
47.523 1504.00
47.5882 1458.00
47.6534 1481.00
47.7186 1417.00
47.7838 1380.00
47.849 1331.00
47.9142 1476.00
47.9794 1346.00
48.0446 1376.00
48.1098 1455.00
48.175 1421.00
48.2402 1427.00
48.3054 1469.00
48.3706 1524.00
48.4358 1577.00
48.501 1641.00
48.5662 1720.00
48.6314 1664.00
48.6966 1711.00
48.7618 1659.00
48.827 1522.00
48.8922 1515.00
48.9574 1459.00
49.0226 1451.00
49.0878 1462.00
49.153 1517.00
49.2182 1473.00
49.2834 1561.00
49.3486 1580.00
49.4138 1502.00
49.479 1548.00
49.5442 1423.00
49.6094 1393.00
49.6746 1385.00
49.7398 1464.00
49.805 1445.00
49.8702 1374.00
49.9354 1521.00
50.0006 1419.00
50.0658 1391.00
50.131 1482.00
50.1962 1478.00
50.2614 1473.00
50.3266 1542.00
50.3918 1571.00
50.457 1587.00
50.5222 1712.00
50.5874 1697.00
50.6526 1654.00
50.7178 1602.00
50.783 1565.00
50.8482 1483.00
50.9134 1487.00
50.9786 1509.00
51.0438 1489.00
51.109 1452.00
51.1742 1525.00
51.2394 1471.00
51.3046 1501.00
51.3698 1422.00
51.435 1352.00
51.5002 1356.00
51.5654 1454.00
51.6306 1492.00
51.6958 1376.00
51.761 1432.00
51.8262 1405.00
51.8914 1416.00
51.9566 1444.00
52.0218 1450.00
52.087 1419.00
52.1522 1488.00
52.2174 1474.00
52.2826 1433.00
52.3477 1425.00
52.4129 1522.00
52.4781 1503.00
52.5433 1567.00
52.6085 1637.00
52.6737 1686.00
52.7389 1681.00
52.8041 1693.00
52.8693 1640.00
52.9345 1558.00
52.9997 1466.00
53.0649 1406.00
53.1301 1446.00
53.1953 1348.00
53.2605 1443.00
53.3257 1482.00
53.3909 1423.00
53.4561 1508.00
53.5213 1382.00
53.5865 1426.00
53.6517 1390.00
53.7169 1444.00
53.7821 1449.00
53.8473 1478.00
53.9125 1404.00
53.9777 1505.00
54.0429 1414.00
54.1081 1438.00
54.1733 1484.00
54.2385 1445.00
54.3037 1434.00
54.3689 1538.00
54.4341 1459.00
54.4993 1472.00
54.5645 1490.00
54.6297 1503.00
54.6949 1434.00
54.7601 1455.00
54.8253 1574.00
54.8905 1655.00
54.9557 1716.00
55.0209 1976.00
55.0861 2252.00
55.1513 2477.00
55.2165 2854.00
55.2817 3355.00
55.3469 3777.00
55.4121 3688.00
55.4773 3247.00
55.5425 2550.00
55.6077 2156.00
55.6729 1833.00
55.7381 1641.00
55.8033 1546.00
55.8685 1511.00
55.9337 1506.00
55.9989 1495.00
56.0641 1452.00
56.1293 1422.00
56.1945 1416.00
56.2597 1397.00
56.3249 1424.00
56.3901 1423.00
56.4553 1443.00
56.5205 1431.00
56.5857 1432.00
56.6509 1403.00
56.7161 1462.00
56.7813 1389.00
56.8465 1504.00
56.9117 1501.00
56.9769 1522.00
57.042 1551.00
57.1073 1607.00
57.1724 1541.00
57.2376 1547.00
57.3028 1522.00
57.368 1515.00
57.4332 1487.00
57.4984 1480.00
57.5636 1455.00
57.6288 1420.00
57.694 1433.00
57.7592 1407.00
57.8244 1457.00
57.8896 1370.00
57.9548 1471.00
58.02 1449.00
58.0852 1484.00
58.1504 1490.00
58.2156 1452.00
58.2808 1406.00
58.346 1407.00
58.4112 1401.00
58.4764 1487.00
58.5416 1447.00
58.6068 1474.00
58.672 1439.00
58.7372 1455.00
58.8024 1501.00
58.8676 1425.00
58.9328 1466.00
58.998 1367.00
59.0632 1423.00
59.1284 1488.00
59.1936 1437.00
59.2588 1412.00
59.324 1337.00
59.3892 1417.00
59.4544 1417.00
59.5196 1441.00
59.5848 1434.00
59.65 1516.00
59.7152 1473.00
59.7804 1457.00
59.8456 1491.00
59.9108 1522.00
59.976 1611.00
60.0412 1648.00
60.1064 1730.00
60.1716 1748.00
60.2368 1782.00
60.302 1683.00
60.3672 1676.00
60.4324 1588.00
60.4976 1665.00
60.5628 1671.00
60.628 1670.00
60.6932 1626.00
60.7584 1594.00
60.8236 1511.00
60.8888 1513.00
60.954 1577.00
61.0192 1567.00
61.0844 1535.00
61.1496 1561.00
61.2148 1508.00
61.28 1496.00
61.3452 1408.00
61.4104 1385.00
61.4756 1518.00
61.5408 1586.00
61.606 1569.00
61.6712 1612.00
61.7364 1596.00
61.8016 1685.00
61.8667 1621.00
61.932 1602.00
61.9971 1553.00
62.0623 1502.00
62.1275 1485.00
62.1927 1508.00
62.2579 1547.00
62.3231 1510.00
62.3883 1526.00
62.4535 1490.00
62.5187 1452.00
62.5839 1569.00
62.6491 1503.00
62.7143 1472.00
62.7795 1470.00
62.8447 1499.00
62.9099 1422.00
62.9751 1580.00
63.0403 1610.00
63.1055 1618.00
63.1707 1702.00
63.2359 1660.00
63.3011 1666.00
63.3663 1702.00
63.4315 1762.00
63.4967 1673.00
63.5619 1723.00
63.6271 1589.00
63.6923 1651.00
63.7575 1649.00
63.8227 1569.00
63.8879 1508.00
63.9531 1542.00
64.0183 1582.00
64.0835 1532.00
64.1487 1604.00
64.2139 1440.00
64.2791 1481.00
64.3443 1513.00
64.4095 1479.00
64.4747 1465.00
64.5399 1564.00
64.6051 1578.00
64.6703 1576.00
64.7355 1626.00
64.8007 1649.00
64.8659 1572.00
64.9311 1644.00
64.9963 1575.00
65.0615 1699.00
65.1267 1586.00
65.1919 1551.00
65.2571 1680.00
65.3223 1585.00
65.3875 1675.00
65.4527 1697.00
65.5179 1839.00
65.5831 2025.00
65.6483 2295.00
65.7135 2538.00
65.7787 2759.00
65.8439 2520.00
65.9091 2299.00
65.9743 2149.00
66.0395 2065.00
66.1047 2079.00
66.1699 2174.00
66.2351 2201.00
66.3003 2097.00
66.3655 2040.00
66.4307 1794.00
66.4959 1702.00
66.561 1562.00
66.6263 1538.00
66.6915 1448.00
66.7566 1473.00
66.8218 1455.00
66.887 1528.00
66.9522 1480.00
67.0174 1526.00
67.0826 1527.00
67.1478 1507.00
67.213 1475.00
67.2782 1423.00
67.3434 1441.00
67.4086 1502.00
67.4738 1501.00
67.539 1453.00
67.6042 1457.00
67.6694 1497.00
67.7346 1435.00
67.7998 1544.00
67.865 1566.00
67.9302 1487.00
67.9954 1528.00
68.0606 1513.00
68.1258 1551.00
68.191 1635.00
68.2562 1747.00
68.3214 1867.00
68.3866 1865.00
68.4518 1816.00
68.517 1852.00
68.5822 1735.00
68.6474 1681.00
68.7126 1609.00
68.7778 1548.00
68.843 1608.00
68.9082 1623.00
68.9734 1666.00
69.0386 1733.00
69.1038 1814.00
69.169 1916.00
69.2342 1908.00
69.2994 1905.00
69.3646 1812.00
69.4298 1881.00
69.495 1695.00
69.5602 1628.00
69.6254 1547.00
69.6906 1545.00
69.7558 1453.00
69.821 1465.00
69.8862 1509.00
69.9514 1422.00
70.0166 1539.00
70.0818 1553.00
70.147 1438.00
70.2122 1463.00
70.2774 1477.00
70.3426 1505.00
70.4078 1474.00
70.473 1538.00
70.5382 1520.00
70.6034 1447.00
70.6686 1467.00
70.7338 1394.00
70.799 1514.00
70.8642 1465.00
70.9294 1483.00
70.9946 1389.00
71.0598 1422.00
71.125 1486.00
71.1902 1442.00
71.2554 1427.00
71.3205 1416.00
71.3858 1420.00
71.451 1419.00
71.5162 1494.00
71.5813 1478.00
71.6465 1518.00
71.7117 1469.00
71.7769 1518.00
71.8421 1527.00
71.9073 1522.00
71.9725 1515.00
72.0377 1463.00
72.1029 1488.00
72.1681 1464.00
72.2333 1502.00
72.2985 1569.00
72.3637 1503.00
72.4289 1608.00
72.4941 1535.00
72.5593 1522.00
72.6245 1539.00
72.6897 1623.00
72.7549 1499.00
72.8201 1571.00
72.8853 1636.00
72.9505 1526.00
73.0157 1519.00
73.0809 1437.00
73.1461 1474.00
73.2113 1554.00
73.2765 1481.00
73.3417 1399.00
73.4069 1520.00
73.4721 1534.00
73.5373 1467.00
73.6025 1497.00
73.6677 1460.00
73.7329 1548.00
73.7981 1487.00
73.8633 1528.00
73.9285 1517.00
73.9937 1521.00
74.0589 1507.00
74.1241 1403.00
74.1893 1536.00
74.2545 1483.00
74.3197 1523.00
74.3849 1436.00
74.4501 1417.00
74.5153 1495.00
74.5805 1503.00
74.6457 1443.00
74.7109 1453.00
74.7761 1485.00
74.8413 1555.00
74.9065 1496.00
74.9717 1475.00
75.0369 1478.00
75.1021 1483.00
75.1673 1471.00
75.2325 1452.00
75.2977 1509.00
75.3629 1505.00
75.4281 1519.00
75.4933 1467.00
75.5585 1449.00
75.6237 1507.00
75.6889 1525.00
75.7541 1488.00
75.8193 1439.00
75.8845 1444.00
75.9497 1550.00
76.0149 1524.00
76.0801 1569.00
76.1452 1514.00
76.2104 1549.00
76.2756 1602.00
76.3409 1589.00
76.406 1553.00
76.4712 1479.00
76.5364 1541.00
76.6016 1558.00
76.6668 1551.00
76.732 1493.00
76.7972 1431.00
76.8624 1484.00
76.9276 1536.00
76.9928 1475.00
77.058 1498.00
77.1232 1438.00
77.1884 1571.00
77.2536 1515.00
77.3188 1556.00
77.384 1509.00
77.4492 1498.00
77.5144 1485.00
77.5796 1532.00
77.6448 1486.00
77.71 1508.00
77.7752 1487.00
77.8404 1563.00
77.9056 1538.00
77.9708 1486.00
78.036 1535.00
78.1012 1651.00
78.1664 1642.00
78.2316 1632.00
78.2968 1547.00
78.362 1575.00
78.4272 1599.00
78.4924 1568.00
78.5576 1535.00
78.6228 1544.00
78.688 1519.00
78.7532 1594.00
78.8184 1444.00
78.8836 1598.00
78.9488 1562.00
79.014 1577.00
79.0792 1588.00
79.1444 1558.00
79.2096 1616.00
79.2748 1598.00
79.34 1568.00
79.4052 1546.00
79.4704 1532.00
79.5356 1596.00
79.6008 1481.00
79.666 1504.00
79.7312 1525.00
79.7964 1473.00
79.8616 1510.00
79.9268 1478.00
79.992 1521.00
80.0572 1462.00
80.1224 1487.00
80.1876 1484.00
80.2528 1440.00
80.318 1575.00
80.3832 1535.00
80.4484 1613.00
80.5136 1457.00
80.5788 1471.00
80.644 1515.00
80.7092 1519.00
80.7744 1488.00
80.8396 1553.00
80.9048 1562.00
80.9699 1451.00
81.0351 1542.00
81.1003 1504.00
81.1655 1489.00
81.2307 1579.00
81.2959 1551.00
81.3611 1548.00
81.4263 1514.00
81.4915 1585.00
81.5567 1569.00
81.6219 1635.00
81.6871 1648.00
81.7523 1622.00
81.8175 1629.00
81.8827 1682.00
81.9479 1558.00
82.0131 1563.00
82.0783 1523.00
82.1435 1555.00
82.2087 1473.00
82.2739 1515.00
82.3391 1536.00
82.4043 1636.00
82.4695 1671.00
82.5347 1737.00
82.5999 1710.00
82.6651 1701.00
82.7303 1771.00
82.7955 1630.00
82.8607 1591.00
82.9259 1654.00
82.9911 1520.00
83.0563 1571.00
83.1215 1489.00
83.1867 1508.00
83.2519 1598.00
83.3171 1493.00
83.3823 1515.00
83.4475 1526.00
83.5127 1513.00
83.5779 1467.00
83.6431 1528.00
83.7083 1480.00
83.7735 1489.00
83.8387 1464.00
83.9039 1488.00
83.9691 1493.00
84.0343 1553.00
84.0995 1507.00
84.1647 1553.00
84.2299 1661.00
84.2951 1511.00
84.3603 1573.00
84.4255 1561.00
84.4907 1568.00
84.5559 1550.00
84.6211 1593.00
84.6863 1562.00
84.7515 1552.00
84.8167 1500.00
84.8819 1562.00
84.9471 1558.00
85.0123 1513.00
85.0775 1473.00
85.1427 1479.00
85.2079 1551.00
85.2731 1566.00
85.3383 1510.00
85.4035 1500.00
85.4687 1573.00
85.5339 1590.00
85.5991 1527.00
85.6643 1525.00
85.7295 1553.00
85.7946 1533.00
85.8598 1527.00
85.925 1526.00
85.9903 1526.00
86.0554 1530.00
86.1206 1590.00
86.1858 1511.00
86.251 1540.00
86.3162 1507.00
86.3814 1485.00
86.4466 1523.00
86.5118 1487.00
86.577 1435.00
86.6422 1488.00
86.7074 1491.00
86.7726 1524.00
86.8378 1525.00
86.903 1504.00
86.9682 1506.00
87.0334 1424.00
87.0986 1503.00
87.1638 1573.00
87.229 1596.00
87.2942 1538.00
87.3594 1521.00
87.4246 1539.00
87.4898 1595.00
87.555 1532.00
87.6202 1504.00
87.6854 1615.00
87.7506 1578.00
87.8158 1590.00
87.881 1645.00
87.9462 1644.00
88.0114 1643.00
88.0766 1712.00
88.1418 1601.00
88.207 1613.00
88.2722 1617.00
88.3374 1594.00
88.4026 1563.00
88.4678 1675.00
88.533 1532.00
88.5982 1560.00
88.6634 1534.00
88.7286 1565.00
88.7938 1644.00
88.859 1626.00
88.9242 1599.00
88.9894 1591.00
89.0546 1564.00
89.1198 1578.00
89.185 1621.00
89.2502 1625.00
89.3154 1672.00
89.3806 1584.00
89.4458 1543.00
89.511 1533.00
89.5762 1589.00
89.6414 1511.00
89.7066 1617.00
89.7718 1530.00
89.837 1519.00
89.9022 1564.00
89.9674 1535.00
90.0326 1432.00
90.0978 1581.00
90.163 1539.00
90.2282 1515.00
90.2934 1552.00
90.3586 1605.00
90.4238 1589.00
90.489 1498.00
90.5542 1486.00
90.6193 1606.00
90.6845 1549.00
90.7497 1610.00
90.8149 1589.00
90.8801 1688.00
90.9453 1690.00
91.0105 1726.00
91.0757 1723.00
91.1409 1700.00
91.2061 1809.00
91.2713 1906.00
91.3365 1903.00
91.4017 1932.00
91.4669 1780.00
91.5321 1711.00
91.5973 1767.00
91.6625 1718.00
91.7277 1736.00
91.7929 1686.00
91.8581 1549.00
91.9233 1599.00
91.9885 1588.00
92.0537 1597.00
92.1189 1560.00
92.1841 1539.00
92.2493 1553.00
92.3145 1527.00
92.3797 1559.00
92.4449 1546.00
92.5101 1493.00
92.5753 1499.00
92.6405 1613.00
92.7057 1540.00
92.7709 1537.00
92.8361 1564.00
92.9013 1529.00
92.9665 1512.00
93.0317 1511.00
93.0969 1600.00
93.1621 1550.00
93.2273 1581.00
93.2925 1508.00
93.3577 1513.00
93.4229 1584.00
93.4881 1675.00
93.5533 1593.00
93.6185 1537.00
93.6837 1549.00
93.7489 1636.00
93.8141 1613.00
93.8793 1745.00
93.9445 1691.00
94.0097 1680.00
94.0749 1757.00
94.1401 1742.00
94.2053 1740.00
94.2705 1669.00
94.3357 1636.00
94.4009 1669.00
94.4661 1599.00
94.5313 1596.00
94.5965 1581.00
94.6617 1663.00
94.7269 1639.00
94.7921 1690.00
94.8573 1725.00
94.9225 1603.00
94.9877 1657.00
95.0529 1692.00
95.1181 1584.00
95.1833 1634.00
95.2485 1616.00
95.3137 1592.00
95.3789 1519.00
95.444 1542.00
95.5092 1611.00
95.5744 1593.00
95.6396 1568.00
95.7048 1516.00
95.77 1492.00
95.8352 1531.00
95.9004 1500.00
95.9656 1475.00
96.0308 1497.00
96.096 1514.00
96.1612 1514.00
96.2264 1544.00
96.2916 1478.00
96.3568 1532.00
96.422 1550.00
96.4872 1493.00
96.5524 1546.00
96.6176 1541.00
96.6828 1521.00
96.748 1505.00
96.8132 1594.00
96.8784 1593.00
96.9436 1460.00
97.0088 1506.00
97.074 1555.00
97.1392 1524.00
97.2044 1542.00
97.2696 1516.00
97.3348 1493.00
97.4 1522.00
97.4652 1483.00
97.5304 1491.00
97.5956 1560.00
97.6608 1552.00
97.726 1597.00
97.7912 1574.00
97.8564 1486.00
97.9216 1468.00
97.9868 1493.00
98.052 1508.00
98.1172 1605.00
98.1824 1586.00
98.2476 1566.00
98.3128 1601.00
98.378 1583.00
98.4432 1558.00
98.5084 1548.00
98.5736 1589.00
98.6388 1601.00
98.704 1463.00
98.7692 1580.00
98.8344 1685.00
98.8996 1478.00
98.9648 1512.00
99.03 1578.00
99.0952 1590.00
99.1604 1506.00
99.2256 1507.00
99.2908 1490.00
99.356 1530.00
99.4212 1650.00
99.4864 1496.00
99.5516 1529.00
99.6168 1552.00
99.682 1567.00
99.7472 1558.00
99.8124 1515.00
99.8776 1570.00
99.9428 1548.00
100.008 1558.00
100.073 1603.00
100.095 1569.00