File: data/xrd_creation/results/MINES_10.xy
9.903433 2941.00
9.968632 2720.00
10.0338 2872.00
10.099 2824.00
10.1642 2861.00
10.2294 2794.00
10.2946 2721.00
10.3598 2735.00
10.425 2758.00
10.4902 2736.00
10.5554 2618.00
10.6206 2646.00
10.6858 2709.00
10.751 2598.00
10.8162 2616.00
10.8814 2566.00
10.9466 2514.00
11.0118 2456.00
11.077 2529.00
11.1422 2481.00
11.2074 2454.00
11.2726 2467.00
11.3378 2506.00
11.403 2378.00
11.4682 2441.00
11.5334 2437.00
11.5986 2399.00
11.6638 2372.00
11.729 2365.00
11.7942 2361.00
11.8594 2329.00
11.9246 2315.00
11.9898 2259.00
12.055 2230.00
12.1202 2288.00
12.1854 2261.00
12.2506 2278.00
12.3158 2178.00
12.381 2211.00
12.4462 2155.00
12.5114 2131.00
12.5766 2127.00
12.6418 2163.00
12.707 2053.00
12.7722 2178.00
12.8374 2081.00
12.9026 2028.00
12.9678 2059.00
13.033 2174.00
13.0982 2095.00
13.1634 2048.00
13.2286 2047.00
13.2938 1943.00
13.359 2002.00
13.4242 1988.00
13.4894 1988.00
13.5546 1922.00
13.6198 1999.00
13.685 1903.00
13.7502 1921.00
13.8154 1959.00
13.8805 2033.00
13.9457 1922.00
14.0109 1929.00
14.0761 1941.00
14.1413 1923.00
14.2065 1944.00
14.2717 1990.00
14.3369 1990.00
14.4021 2196.00
14.4673 2314.00
14.5325 2503.00
14.5977 2558.00
14.6629 2333.00
14.7281 1926.00
14.7933 1864.00
14.8585 1825.00
14.9237 1825.00
14.9889 1788.00
15.0541 1835.00
15.1193 1777.00
15.1845 1835.00
15.2497 1815.00
15.3149 1745.00
15.3801 1787.00
15.4453 1795.00
15.5105 1764.00
15.5757 1798.00
15.6409 1753.00
15.7061 1806.00
15.7713 1768.00
15.8365 1772.00
15.9017 1781.00
15.9669 1766.00
16.0321 1701.00
16.0973 1702.00
16.1625 1733.00
16.2277 1737.00
16.2929 1717.00
16.3581 1744.00
16.4233 1815.00
16.4885 1745.00
16.5537 1696.00
16.6189 1778.00
16.6841 1924.00
16.7493 1774.00
16.8145 1688.00
16.8797 1659.00
16.9449 1707.00
17.0101 1655.00
17.0753 1663.00
17.1405 1642.00
17.2057 1641.00
17.2709 1545.00
17.3361 1640.00
17.4013 1629.00
17.4665 1703.00
17.5317 1658.00
17.5969 1650.00
17.6621 1628.00
17.7273 1594.00
17.7925 1576.00
17.8577 1660.00
17.9229 1608.00
17.9881 1553.00
18.0533 1584.00
18.1185 1623.00
18.1837 1563.00
18.2489 1633.00
18.3141 1675.00
18.3793 1745.00
18.4445 1947.00
18.5097 2073.00
18.5749 2220.00
18.6401 2609.00
18.7052 3139.00
18.7704 3044.00
18.8356 2142.00
18.9008 1855.00
18.966 1827.00
19.0312 1838.00
19.0964 1980.00
19.1616 2220.00
19.2268 2169.00
19.292 1923.00
19.3572 1611.00
19.4224 1596.00
19.4876 1561.00
19.5528 1551.00
19.618 1575.00
19.6832 1488.00
19.7484 1521.00
19.8136 1517.00
19.8788 1458.00
19.944 1516.00
20.0092 1485.00
20.0744 1542.00
20.1396 1539.00
20.2048 1545.00
20.27 1679.00
20.3352 1821.00
20.4004 1977.00
20.4656 2098.00
20.5308 1938.00
20.596 1687.00
20.6612 1613.00
20.7264 1776.00
20.7916 1908.00
20.8568 2115.00
20.922 2587.00
20.9872 3038.00
21.0524 3040.00
21.1176 3284.00
21.1828 3451.00
21.248 2298.00
21.3132 1710.00
21.3784 1679.00
21.4436 1528.00
21.5088 1426.00
21.574 1453.00
21.6392 1465.00
21.7044 1519.00
21.7696 1536.00
21.8348 1415.00
21.9 1441.00
21.9652 1552.00
22.0304 1600.00
22.0956 1593.00
22.1608 1684.00
22.226 1794.00
22.2912 1786.00
22.3564 1576.00
22.4216 1463.00
22.4868 1405.00
22.552 1443.00
22.6172 1361.00
22.6824 1357.00
22.7476 1332.00
22.8128 1359.00
22.878 1360.00
22.9432 1412.00
23.0084 1340.00
23.0736 1392.00
23.1388 1324.00
23.204 1373.00
23.2692 1400.00
23.3344 1375.00
23.3996 1352.00
23.4647 1320.00
23.5299 1401.00
23.5951 1256.00
23.6603 1400.00
23.7255 1449.00
23.7907 1369.00
23.8559 1487.00
23.9211 1559.00
23.9863 1694.00
24.0515 1902.00
24.1167 1966.00
24.1819 1638.00
24.2471 1521.00
24.3123 1450.00
24.3775 1521.00
24.4427 1566.00
24.5079 1651.00
24.5731 2065.00
24.6383 2458.00
24.7035 2749.00
24.7687 3422.00
24.8339 3626.00
24.8991 2555.00
24.9643 1948.00
25.0295 1986.00
25.0947 2228.00
25.1599 2259.00
25.2251 1837.00
25.2903 1455.00
25.3555 1433.00
25.4207 1328.00
25.4859 1394.00
25.5511 1401.00
25.6163 1418.00
25.6815 1517.00
25.7467 1635.00
25.8119 1936.00
25.8771 2125.00
25.9423 1720.00
26.0075 1491.00
26.0727 1343.00
26.1379 1368.00
26.2031 1419.00
26.2683 1458.00
26.3335 1436.00
26.3987 1621.00
26.4639 1687.00
26.5291 1962.00
26.5943 2363.00
26.6595 3140.00
26.7247 4202.00
26.7899 5916.00
26.8551 8935.00
26.9203 12590.00
26.9855 10838.00
27.0507 5813.00
27.1159 3158.00
27.1811 2500.00
27.2463 2639.00
27.3115 2536.00
27.3767 1875.00
27.4419 1457.00
27.5071 1403.00
27.5723 1269.00
27.6375 1359.00
27.7027 1340.00
27.7679 1410.00
27.8331 1436.00
27.8983 1335.00
27.9635 1291.00
28.0287 1203.00
28.0939 1287.00
28.1591 1217.00
28.2243 1239.00
28.2894 1194.00
28.3546 1278.00
28.4198 1172.00
28.485 1181.00
28.5502 1217.00
28.6154 1186.00
28.6806 1216.00
28.7458 1213.00
28.811 1196.00
28.8762 1154.00
28.9414 1179.00
29.0066 1131.00
29.0718 1196.00
29.137 1087.00
29.2022 1206.00
29.2674 1214.00
29.3326 1186.00
29.3978 1100.00
29.463 1152.00
29.5282 1171.00
29.5934 1110.00
29.6586 1173.00
29.7238 1133.00
29.789 1138.00
29.8542 1193.00
29.9194 1182.00
29.9846 1146.00
30.0498 1260.00
30.115 1191.00
30.1802 1363.00
30.2454 1529.00
30.3106 1748.00
30.3758 2367.00
30.441 3190.00
30.5062 3314.00
30.5714 2473.00
30.6366 1608.00
30.7018 1307.00
30.767 1307.00
30.8322 1233.00
30.8974 1198.00
30.9626 1330.00
31.0278 1251.00
31.093 1146.00
31.1582 1212.00
31.2234 1127.00
31.2886 1159.00
31.3538 1204.00
31.419 1186.00
31.4842 1115.00
31.5494 1177.00
31.6146 1244.00
31.6798 1265.00
31.745 1427.00
31.8102 1694.00
31.8754 1956.00
31.9406 2616.00
32.0058 2525.00
32.071 1833.00
32.1362 1334.00
32.2014 1212.00
32.2666 1130.00
32.3318 1156.00
32.397 1099.00
32.4622 1106.00
32.5274 1104.00
32.5926 1103.00
32.6578 1075.00
32.723 1104.00
32.7882 1149.00
32.8534 1101.00
32.9186 1119.00
32.9838 1194.00
33.0489 1229.00
33.1141 1313.00
33.1793 1470.00
33.2445 1607.00
33.3097 1817.00
33.3749 1642.00
33.4401 1678.00
33.5053 1467.00
33.5705 1396.00
33.6357 1382.00
33.7009 1667.00
33.7661 2142.00
33.8313 3363.00
33.8965 4589.00
33.9617 3593.00
34.0269 2263.00
34.0921 1415.00
34.1573 1263.00
34.2225 1149.00
34.2877 1073.00
34.3529 1033.00
34.4181 1038.00
34.4833 1054.00
34.5485 1056.00
34.6137 1049.00
34.6789 1070.00
34.7441 1049.00
34.8093 964.00
34.8745 1024.00
34.9397 1047.00
35.0049 1012.00
35.0701 1065.00
35.1353 1081.00
35.2005 1131.00
35.2657 1171.00
35.3309 1035.00
35.3961 1081.00
35.4613 1105.00
35.5265 1040.00
35.5917 1018.00
35.6569 1074.00
35.7221 1062.00
35.7873 1117.00
35.8525 1190.00
35.9177 1105.00
35.9829 1255.00
36.0481 1330.00
36.1133 1500.00
36.1785 1733.00
36.2437 1809.00
36.3089 2171.00
36.3741 2657.00
36.4393 3999.00
36.5045 5401.00
36.5697 4596.00
36.6349 3867.00
36.7001 2754.00
36.7653 2419.00
36.8305 2255.00
36.8957 1804.00
36.9609 1468.00
37.0261 1202.00
37.0913 1119.00
37.1565 1128.00
37.2217 1142.00
37.2869 1015.00
37.3521 1054.00
37.4173 1033.00
37.4825 1084.00
37.5477 1080.00
37.6129 1113.00
37.6781 1173.00
37.7433 1210.00
37.8085 1281.00
37.8736 1643.00
37.9388 1717.00
38.004 1772.00
38.0692 1445.00
38.1344 1367.00
38.1996 1318.00
38.2648 1177.00
38.33 1220.00
38.3952 1198.00
38.4604 1256.00
38.5256 1278.00
38.5908 1229.00
38.656 1326.00
38.7212 1333.00
38.7864 1373.00
38.8516 1407.00
38.9168 1478.00
38.982 1305.00
39.0472 1093.00
39.1124 1062.00
39.1776 979.00
39.2428 1034.00
39.308 1015.00
39.3732 1048.00
39.4384 1095.00
39.5036 1158.00
39.5688 1278.00
39.634 1437.00
39.6992 1647.00
39.7644 1818.00
39.8296 1605.00
39.8948 1418.00
39.96 1233.00
40.0252 1216.00
40.0904 1205.00
40.1556 1075.00
40.2208 1103.00
40.286 1067.00
40.3512 1084.00
40.4164 1131.00
40.4816 1169.00
40.5468 1305.00
40.612 1279.00
40.6772 1213.00
40.7424 1069.00
40.8076 1042.00
40.8728 981.00
40.938 929.00
41.0032 931.00
41.0684 938.00
41.1336 999.00
41.1988 967.00
41.264 1087.00
41.3292 1104.00
41.3944 1108.00
41.4596 1112.00
41.5248 1059.00
41.59 1170.00
41.6552 1412.00
41.7204 1755.00
41.7856 2134.00
41.8508 1710.00
41.916 1473.00
41.9812 1066.00
42.0464 991.00
42.1116 1002.00
42.1768 996.00
42.242 997.00
42.3072 1004.00
42.3724 1022.00
42.4376 1073.00
42.5028 1049.00
42.568 1339.00
42.6332 1480.00
42.6983 1871.00
42.7635 1883.00
42.8287 1681.00
42.8939 1292.00
42.9591 1062.00
43.0243 1035.00
43.0895 1006.00
43.1547 956.00
43.2199 983.00
43.2851 965.00
43.3503 1012.00
43.4155 1189.00
43.4807 1346.00
43.5459 1464.00
43.6111 1332.00
43.6763 1292.00
43.7415 1137.00
43.8067 1192.00
43.8719 1342.00
43.9371 1353.00
44.0023 1654.00
44.0675 1882.00
44.1327 2268.00
44.1979 2372.00
44.2631 2031.00
44.3283 1729.00
44.3935 1467.00
44.4587 1450.00
44.5239 1308.00
44.5891 1242.00
44.6543 1147.00
44.7195 996.00
44.7847 1051.00
44.8499 924.00
44.9151 918.00
44.9803 979.00
45.0455 970.00
45.1107 915.00
45.1759 943.00
45.2411 972.00
45.3063 1004.00
45.3715 963.00
45.4367 1015.00
45.5019 968.00
45.5671 921.00
45.6323 955.00
45.6975 947.00
45.7627 964.00
45.8279 993.00
45.8931 1024.00
45.9583 1101.00
46.0235 1300.00
46.0887 1272.00
46.1539 1137.00
46.2191 1120.00
46.2843 1106.00
46.3495 1111.00
46.4147 1071.00
46.4799 1069.00
46.5451 950.00
46.6103 891.00
46.6755 942.00
46.7407 953.00
46.8059 941.00
46.8711 861.00
46.9363 888.00
47.0015 862.00
47.0667 877.00
47.1319 931.00
47.1971 863.00
47.2623 969.00
47.3275 848.00
47.3927 861.00
47.4579 881.00
47.523 858.00
47.5882 868.00
47.6534 965.00
47.7186 868.00
47.7838 914.00
47.849 980.00
47.9142 1089.00
47.9794 1156.00
48.0446 1290.00
48.1098 1350.00
48.175 1382.00
48.2402 1313.00
48.3054 1199.00
48.3706 1074.00
48.4358 944.00
48.501 937.00
48.5662 886.00
48.6314 929.00
48.6966 933.00
48.7618 899.00
48.827 929.00
48.8922 895.00
48.9574 959.00
49.0226 967.00
49.0878 1000.00
49.153 1034.00
49.2182 982.00
49.2834 985.00
49.3486 961.00
49.4138 907.00
49.479 976.00
49.5442 957.00
49.6094 994.00
49.6746 1095.00
49.7398 983.00
49.805 929.00
49.8702 950.00
49.9354 943.00
50.0006 1022.00
50.0658 1073.00
50.131 1155.00
50.1962 1279.00
50.2614 1659.00
50.3266 2141.00
50.3918 2920.00
50.457 3287.00
50.5222 3080.00
50.5874 2339.00
50.6526 1826.00
50.7178 1291.00
50.783 1197.00
50.8482 1120.00
50.9134 1067.00
50.9786 977.00
51.0438 877.00
51.109 882.00
51.1742 906.00
51.2394 914.00
51.3046 916.00
51.3698 919.00
51.435 919.00
51.5002 828.00
51.5654 895.00
51.6306 911.00
51.6958 976.00
51.761 917.00
51.8262 908.00
51.8914 966.00
51.9566 1037.00
52.0218 1044.00
52.087 1099.00
52.1522 985.00
52.2174 992.00
52.2826 887.00
52.3477 913.00
52.4129 828.00
52.4781 912.00
52.5433 876.00
52.6085 853.00
52.6737 845.00
52.7389 940.00
52.8041 877.00
52.8693 864.00
52.9345 876.00
52.9997 881.00
53.0649 825.00
53.1301 865.00
53.1953 844.00
53.2605 868.00
53.3257 899.00
53.3909 913.00
53.4561 951.00
53.5213 1006.00
53.5865 939.00
53.6517 899.00
53.7169 919.00
53.7821 906.00
53.8473 890.00
53.9125 933.00
53.9777 889.00
54.0429 868.00
54.1081 836.00
54.1733 893.00
54.2385 851.00
54.3037 873.00
54.3689 871.00
54.4341 869.00
54.4993 941.00
54.5645 1039.00
54.6297 1100.00
54.6949 1073.00
54.7601 1103.00
54.8253 1250.00
54.8905 1425.00
54.9557 1799.00
55.0209 2639.00
55.0861 3906.00
55.1513 3939.00
55.2165 3002.00
55.2817 2713.00
55.3469 1836.00
55.4121 1270.00
55.4773 1153.00
55.5425 1166.00
55.6077 1198.00
55.6729 1198.00
55.7381 1042.00
55.8033 1049.00
55.8685 1050.00
55.9337 998.00
55.9989 923.00
56.0641 902.00
56.1293 846.00
56.1945 954.00
56.2597 840.00
56.3249 874.00
56.3901 802.00
56.4553 877.00
56.5205 870.00
56.5857 898.00
56.6509 882.00
56.7161 965.00
56.7813 970.00
56.8465 963.00
56.9117 1215.00
56.9769 1400.00
57.042 1476.00
57.1073 1429.00
57.1724 1397.00
57.2376 1193.00
57.3028 1067.00
57.368 991.00
57.4332 957.00
57.4984 919.00
57.5636 954.00
57.6288 975.00
57.694 998.00
57.7592 991.00
57.8244 940.00
57.8896 968.00
57.9548 1065.00
58.02 1039.00
58.0852 1156.00
58.1504 1191.00
58.2156 1238.00
58.2808 1334.00
58.346 1329.00
58.4112 1267.00
58.4764 1142.00
58.5416 1073.00
58.6068 1105.00
58.672 1182.00
58.7372 1020.00
58.8024 1002.00
58.8676 954.00
58.9328 951.00
58.998 928.00
59.0632 897.00
59.1284 951.00
59.1936 1002.00
59.2588 1024.00
59.324 958.00
59.3892 993.00
59.4544 1074.00
59.5196 969.00
59.5848 965.00
59.65 934.00
59.7152 928.00
59.7804 965.00
59.8456 1043.00
59.9108 1088.00
59.976 1135.00
60.0412 1228.00
60.1064 1404.00
60.1716 1678.00
60.2368 1776.00
60.302 1376.00
60.3672 1414.00
60.4324 1214.00
60.4976 1056.00
60.5628 953.00
60.628 956.00
60.6932 943.00
60.7584 978.00
60.8236 942.00
60.8888 948.00
60.954 910.00
61.0192 898.00
61.0844 890.00
61.1496 828.00
61.2148 830.00
61.28 914.00
61.3452 885.00
61.4104 861.00
61.4756 851.00
61.5408 885.00
61.606 872.00
61.6712 804.00
61.7364 826.00
61.8016 981.00
61.8667 948.00
61.932 1008.00
61.9971 915.00
62.0623 886.00
62.1275 931.00
62.1927 919.00
62.2579 947.00
62.3231 934.00
62.3883 961.00
62.4535 931.00
62.5187 986.00
62.5839 1002.00
62.6491 916.00
62.7143 910.00
62.7795 949.00
62.8447 923.00
62.9099 946.00
62.9751 1005.00
63.0403 1029.00
63.1055 1051.00
63.1707 1085.00
63.2359 1150.00
63.3011 1079.00
63.3663 1180.00
63.4315 1166.00
63.4967 1205.00
63.5619 1431.00
63.6271 1701.00
63.6923 2029.00
63.7575 1999.00
63.8227 1620.00
63.8879 1561.00
63.9531 1366.00
64.0183 1115.00
64.0835 1037.00
64.1487 1026.00
64.2139 1060.00
64.2791 1180.00
64.3443 1219.00
64.4095 1278.00
64.4747 1227.00
64.5399 1135.00
64.6051 1105.00
64.6703 993.00
64.7355 967.00
64.8007 887.00
64.8659 917.00
64.9311 921.00
64.9963 977.00
65.0615 1064.00
65.1267 1141.00
65.1919 1277.00
65.2571 1527.00
65.3223 2035.00
65.3875 2107.00
65.4527 1722.00
65.5179 1678.00
65.5831 1452.00
65.6483 1152.00
65.7135 1030.00
65.7787 970.00
65.8439 968.00
65.9091 915.00
65.9743 940.00
66.0395 934.00
66.1047 900.00
66.1699 884.00
66.2351 881.00
66.3003 807.00
66.3655 880.00
66.4307 893.00
66.4959 886.00
66.561 867.00
66.6263 821.00
66.6915 859.00
66.7566 809.00
66.8218 831.00
66.887 801.00
66.9522 818.00
67.0174 860.00
67.0826 856.00
67.1478 873.00
67.213 828.00
67.2782 861.00
67.3434 908.00
67.4086 935.00
67.4738 925.00
67.539 975.00
67.6042 1073.00
67.6694 1139.00
67.7346 1211.00
67.7998 1199.00
67.865 1415.00
67.9302 1584.00
67.9954 1557.00
68.0606 1380.00
68.1258 1411.00
68.191 1465.00
68.2562 1412.00
68.3214 1540.00
68.3866 1758.00
68.4518 1747.00
68.517 1654.00
68.5822 1638.00
68.6474 1316.00
68.7126 1256.00
68.7778 1115.00
68.843 948.00
68.9082 961.00
68.9734 870.00
69.0386 941.00
69.1038 904.00
69.169 944.00
69.2342 985.00
69.2994 927.00
69.3646 990.00
69.4298 1055.00
69.495 954.00
69.5602 956.00
69.6254 1065.00
69.6906 1020.00
69.7558 1048.00
69.821 1059.00
69.8862 1161.00
69.9514 1264.00
70.0166 1289.00
70.0818 1207.00
70.147 1096.00
70.2122 1030.00
70.2774 934.00
70.3426 891.00
70.4078 850.00
70.473 819.00
70.5382 801.00
70.6034 806.00
70.6686 867.00
70.7338 813.00
70.799 828.00
70.8642 879.00
70.9294 854.00
70.9946 836.00
71.0598 919.00
71.125 925.00
71.1902 947.00
71.2554 917.00
71.3205 961.00
71.3858 1003.00
71.451 962.00
71.5162 951.00
71.5813 936.00
71.6465 954.00
71.7117 867.00
71.7769 827.00
71.8421 866.00
71.9073 757.00
71.9725 802.00
72.0377 802.00
72.1029 789.00
72.1681 833.00
72.2333 844.00
72.2985 833.00
72.3637 844.00
72.4289 822.00
72.4941 866.00
72.5593 818.00
72.6245 853.00
72.6897 911.00
72.7549 921.00
72.8201 965.00
72.8853 1016.00
72.9505 1073.00
73.0157 1074.00
73.0809 1238.00
73.1461 1392.00
73.2113 1404.00
73.2765 1215.00
73.3417 1265.00
73.4069 1195.00
73.4721 1150.00
73.5373 1047.00
73.6025 1046.00
73.6677 1090.00
73.7329 1059.00
73.7981 1068.00
73.8633 973.00
73.9285 958.00
73.9937 936.00
74.0589 885.00
74.1241 904.00
74.1893 833.00
74.2545 841.00
74.3197 862.00
74.3849 814.00
74.4501 780.00
74.5153 847.00
74.5805 843.00
74.6457 839.00
74.7109 829.00
74.7761 762.00
74.8413 822.00
74.9065 843.00
74.9717 848.00
75.0369 854.00
75.1021 849.00
75.1673 870.00
75.2325 844.00
75.2977 839.00
75.3629 890.00
75.4281 844.00
75.4933 843.00
75.5585 823.00
75.6237 787.00
75.6889 898.00
75.7541 958.00
75.8193 1064.00
75.8845 1137.00
75.9497 1097.00
76.0149 984.00
76.0801 1083.00
76.1452 1056.00
76.2104 1030.00
76.2756 948.00
76.3409 987.00
76.406 946.00
76.4712 992.00
76.5364 946.00
76.6016 964.00
76.6668 902.00
76.732 911.00
76.7972 957.00
76.8624 969.00
76.9276 1027.00
76.9928 1121.00
77.058 1119.00
77.1232 1204.00
77.1884 1138.00
77.2536 1092.00
77.3188 1048.00
77.384 1017.00
77.4492 1034.00
77.5144 932.00
77.5796 889.00
77.6448 835.00
77.71 913.00
77.7752 971.00
77.8404 935.00
77.9056 945.00
77.9708 915.00
78.036 928.00
78.1012 880.00
78.1664 835.00
78.2316 875.00
78.2968 882.00
78.362 851.00
78.4272 841.00
78.4924 871.00
78.5576 838.00
78.6228 819.00
78.688 790.00
78.7532 845.00
78.8184 809.00
78.8836 852.00
78.9488 805.00
79.014 845.00
79.0792 827.00
79.1444 897.00
79.2096 957.00
79.2748 978.00
79.34 961.00
79.4052 913.00
79.4704 893.00
79.5356 933.00
79.6008 839.00
79.666 924.00
79.7312 886.00
79.7964 848.00
79.8616 931.00
79.9268 906.00
79.992 964.00
80.0572 1068.00
80.1224 1042.00
80.1876 1082.00
80.2528 1024.00
80.318 1001.00
80.3832 986.00
80.4484 944.00
80.5136 921.00
80.5788 884.00
80.644 908.00
80.7092 932.00
80.7744 904.00
80.8396 910.00
80.9048 951.00
80.9699 937.00
81.0351 922.00
81.1003 984.00
81.1655 1034.00
81.2307 1032.00
81.2959 1099.00
81.3611 1139.00
81.4263 1127.00
81.4915 1107.00
81.5567 1103.00
81.6219 1151.00
81.6871 1131.00
81.7523 1066.00
81.8175 999.00
81.8827 986.00
81.9479 946.00
82.0131 881.00
82.0783 924.00
82.1435 936.00
82.2087 883.00
82.2739 928.00
82.3391 874.00
82.4043 882.00
82.4695 908.00
82.5347 938.00
82.5999 915.00
82.6651 934.00
82.7303 863.00
82.7955 950.00
82.8607 974.00
82.9259 931.00
82.9911 858.00
83.0563 855.00
83.1215 838.00
83.1867 883.00
83.2519 854.00
83.3171 804.00
83.3823 901.00
83.4475 844.00
83.5127 824.00
83.5779 813.00
83.6431 825.00
83.7083 834.00
83.7735 829.00
83.8387 866.00
83.9039 892.00
83.9691 912.00
84.0343 862.00
84.0995 892.00
84.1647 910.00
84.2299 885.00
84.2951 893.00
84.3603 962.00
84.4255 1018.00
84.4907 1011.00
84.5559 970.00
84.6211 945.00
84.6863 887.00
84.7515 899.00
84.8167 910.00
84.8819 844.00
84.9471 822.00
85.0123 846.00
85.0775 804.00
85.1427 848.00
85.2079 828.00
85.2731 837.00
85.3383 804.00
85.4035 866.00
85.4687 820.00
85.5339 813.00
85.5991 855.00
85.6643 841.00
85.7295 835.00
85.7946 850.00
85.8598 867.00
85.925 852.00
85.9903 825.00
86.0554 824.00
86.1206 797.00
86.1858 858.00
86.251 796.00
86.3162 906.00
86.3814 818.00
86.4466 903.00
86.5118 820.00
86.577 904.00
86.6422 922.00
86.7074 1051.00
86.7726 912.00
86.8378 937.00
86.903 947.00
86.9682 920.00
87.0334 942.00
87.0986 842.00
87.1638 796.00
87.229 824.00
87.2942 823.00
87.3594 823.00
87.4246 843.00
87.4898 795.00
87.555 819.00
87.6202 790.00
87.6854 789.00
87.7506 744.00
87.8158 786.00
87.881 794.00
87.9462 784.00
88.0114 865.00
88.0766 867.00
88.1418 838.00
88.207 841.00
88.2722 843.00
88.3374 767.00
88.4026 782.00
88.4678 770.00
88.533 770.00
88.5982 793.00
88.6634 792.00
88.7286 813.00
88.7938 786.00
88.859 814.00
88.9242 820.00
88.9894 822.00
89.0546 784.00
89.1198 787.00
89.185 813.00
89.2502 850.00
89.3154 782.00
89.3806 781.00
89.4458 825.00
89.511 791.00
89.5762 820.00
89.6414 833.00
89.7066 797.00
89.7718 806.00
89.837 828.00
89.9022 811.00
89.9674 801.00
90.0326 805.00
90.0978 817.00
90.163 851.00
90.2282 893.00
90.2934 1084.00
90.3586 1188.00
90.4238 1214.00
90.489 1058.00
90.5542 1016.00
90.6193 1028.00
90.6845 1084.00
90.7497 1000.00
90.8149 909.00
90.8801 973.00
90.9453 974.00
91.0105 1009.00
91.0757 979.00
91.1409 888.00
91.2061 1000.00
91.2713 818.00
91.3365 844.00
91.4017 876.00
91.4669 839.00
91.5321 803.00
91.5973 787.00
91.6625 813.00
91.7277 850.00
91.7929 805.00
91.8581 807.00
91.9233 909.00
91.9885 793.00
92.0537 808.00
92.1189 816.00
92.1841 827.00
92.2493 838.00
92.3145 838.00
92.3797 769.00
92.4449 763.00
92.5101 801.00
92.5753 811.00
92.6405 816.00
92.7057 735.00
92.7709 773.00
92.8361 843.00
92.9013 831.00
92.9665 769.00
93.0317 863.00
93.0969 825.00
93.1621 782.00
93.2273 788.00
93.2925 799.00
93.3577 829.00
93.4229 855.00
93.4881 832.00
93.5533 838.00
93.6185 818.00
93.6837 793.00
93.7489 809.00
93.8141 808.00
93.8793 898.00
93.9445 853.00
94.0097 849.00
94.0749 826.00
94.1401 820.00
94.2053 795.00
94.2705 788.00
94.3357 798.00
94.4009 799.00
94.4661 861.00
94.5313 812.00
94.5965 790.00
94.6617 854.00
94.7269 908.00
94.7921 933.00
94.8573 925.00
94.9225 929.00
94.9877 913.00
95.0529 1045.00
95.1181 959.00
95.1833 1008.00
95.2485 996.00
95.3137 1009.00
95.3789 1037.00
95.444 1127.00
95.5092 1222.00
95.5744 1111.00
95.6396 1032.00
95.7048 1000.00
95.77 992.00
95.8352 994.00
95.9004 986.00
95.9656 864.00
96.0308 908.00
96.096 933.00
96.1612 917.00
96.2264 904.00
96.2916 947.00
96.3568 979.00
96.422 904.00
96.4872 923.00
96.5524 866.00
96.6176 840.00
96.6828 869.00
96.748 966.00
96.8132 876.00
96.8784 926.00
96.9436 935.00
97.0088 799.00
97.074 806.00
97.1392 847.00
97.2044 900.00
97.2696 862.00
97.3348 893.00
97.4 886.00
97.4652 866.00
97.5304 853.00
97.5956 807.00
97.6608 877.00
97.726 880.00
97.7912 858.00
97.8564 885.00
97.9216 840.00
97.9868 818.00
98.052 792.00
98.1172 783.00
98.1824 844.00
98.2476 865.00
98.3128 851.00
98.378 821.00
98.4432 912.00
98.5084 814.00
98.5736 849.00
98.6388 858.00
98.704 874.00
98.7692 898.00
98.8344 931.00
98.8996 936.00
98.9648 867.00
99.03 820.00
99.0952 864.00
99.1604 902.00
99.2256 883.00
99.2908 830.00
99.356 838.00
99.4212 852.00
99.4864 831.00
99.5516 823.00
99.6168 807.00
99.682 845.00
99.7472 820.00
99.8124 836.00
99.8776 787.00
99.9428 738.00
100.008 800.00
100.073 811.00
100.095 838.00