File: data/xrd_creation/results/MINES_16.xy
9.903433 2738.00
9.968632 2665.00
10.0338 2716.00
10.099 2681.00
10.1642 2567.00
10.2294 2597.00
10.2946 2650.00
10.3598 2548.00
10.425 2616.00
10.4902 2568.00
10.5554 2555.00
10.6206 2631.00
10.6858 2507.00
10.751 2504.00
10.8162 2470.00
10.8814 2443.00
10.9466 2543.00
11.0118 2448.00
11.077 2384.00
11.1422 2376.00
11.2074 2362.00
11.2726 2326.00
11.3378 2330.00
11.403 2333.00
11.4682 2320.00
11.5334 2280.00
11.5986 2283.00
11.6638 2205.00
11.729 2264.00
11.7942 2281.00
11.8594 2202.00
11.9246 2269.00
11.9898 2206.00
12.055 2136.00
12.1202 2246.00
12.1854 2043.00
12.2506 2241.00
12.3158 2125.00
12.381 2188.00
12.4462 2244.00
12.5114 2174.00
12.5766 2036.00
12.6418 2052.00
12.707 2034.00
12.7722 1950.00
12.8374 2008.00
12.9026 2068.00
12.9678 2191.00
13.033 2027.00
13.0982 2033.00
13.1634 2130.00
13.2286 1918.00
13.2938 1938.00
13.359 1918.00
13.4242 1994.00
13.4894 1968.00
13.5546 2008.00
13.6198 1990.00
13.685 2009.00
13.7502 2157.00
13.8154 2317.00
13.8805 2633.00
13.9457 3082.00
14.0109 3863.00
14.0761 4109.00
14.1413 2522.00
14.2065 2037.00
14.2717 1978.00
14.3369 1982.00
14.4021 1890.00
14.4673 1901.00
14.5325 1904.00
14.5977 1834.00
14.6629 1810.00
14.7281 1844.00
14.7933 1858.00
14.8585 1955.00
14.9237 1809.00
14.9889 1862.00
15.0541 1798.00
15.1193 1750.00
15.1845 1722.00
15.2497 1789.00
15.3149 1824.00
15.3801 1765.00
15.4453 1743.00
15.5105 1741.00
15.5757 1814.00
15.6409 1757.00
15.7061 1710.00
15.7713 1749.00
15.8365 1680.00
15.9017 1650.00
15.9669 1822.00
16.0321 1639.00
16.0973 1707.00
16.1625 1695.00
16.2277 1676.00
16.2929 1645.00
16.3581 1713.00
16.4233 1675.00
16.4885 1745.00
16.5537 1735.00
16.6189 1823.00
16.6841 1935.00
16.7493 1928.00
16.8145 1717.00
16.8797 1620.00
16.9449 1716.00
17.0101 1751.00
17.0753 1799.00
17.1405 2009.00
17.2057 2188.00
17.2709 2111.00
17.3361 1803.00
17.4013 1569.00
17.4665 1583.00
17.5317 1671.00
17.5969 1549.00
17.6621 1565.00
17.7273 1639.00
17.7925 1576.00
17.8577 1709.00
17.9229 1677.00
17.9881 1559.00
18.0533 1594.00
18.1185 1601.00
18.1837 1528.00
18.2489 1562.00
18.3141 1516.00
18.3793 1571.00
18.4445 1549.00
18.5097 1585.00
18.5749 1498.00
18.6401 1484.00
18.7052 1500.00
18.7704 1549.00
18.8356 1516.00
18.9008 1530.00
18.966 1562.00
19.0312 1555.00
19.0964 1472.00
19.1616 1461.00
19.2268 1431.00
19.292 1518.00
19.3572 1548.00
19.4224 1586.00
19.4876 1751.00
19.5528 2019.00
19.618 2207.00
19.6832 2204.00
19.7484 2376.00
19.8136 2604.00
19.8788 2731.00
19.944 2298.00
20.0092 1918.00
20.0744 1617.00
20.1396 1461.00
20.2048 1557.00
20.27 1441.00
20.3352 1584.00
20.4004 1487.00
20.4656 1619.00
20.5308 1609.00
20.596 1455.00
20.6612 1380.00
20.7264 1393.00
20.7916 1434.00
20.8568 1435.00
20.922 1473.00
20.9872 1464.00
21.0524 1820.00
21.1176 2126.00
21.1828 2208.00
21.248 1783.00
21.3132 1449.00
21.3784 1425.00
21.4436 1514.00
21.5088 1509.00
21.574 1586.00
21.6392 1915.00
21.7044 2577.00
21.7696 3836.00
21.8348 4596.00
21.9 3007.00
21.9652 1652.00
22.0304 1524.00
22.0956 1423.00
22.1608 1473.00
22.226 1474.00
22.2912 1408.00
22.3564 1325.00
22.4216 1340.00
22.4868 1302.00
22.552 1254.00
22.6172 1297.00
22.6824 1271.00
22.7476 1269.00
22.8128 1275.00
22.878 1313.00
22.9432 1198.00
23.0084 1218.00
23.0736 1225.00
23.1388 1210.00
23.204 1285.00
23.2692 1234.00
23.3344 1229.00
23.3996 1213.00
23.4647 1228.00
23.5299 1225.00
23.5951 1236.00
23.6603 1273.00
23.7255 1284.00
23.7907 1288.00
23.8559 1347.00
23.9211 1553.00
23.9863 1956.00
24.0515 2812.00
24.1167 3453.00
24.1819 2479.00
24.2471 1429.00
24.3123 1335.00
24.3775 1254.00
24.4427 1385.00
24.5079 1528.00
24.5731 2028.00
24.6383 2536.00
24.7035 2308.00
24.7687 1655.00
24.8339 1487.00
24.8991 1501.00
24.9643 1736.00
25.0295 2460.00
25.0947 3851.00
25.1599 5483.00
25.2251 4765.00
25.2903 3980.00
25.3555 3097.00
25.4207 2021.00
25.4859 1488.00
25.5511 1338.00
25.6163 1260.00
25.6815 1208.00
25.7467 1202.00
25.8119 1214.00
25.8771 1104.00
25.9423 1150.00
26.0075 1187.00
26.0727 1187.00
26.1379 1120.00
26.2031 1188.00
26.2683 1133.00
26.3335 1219.00
26.3987 1154.00
26.4639 1168.00
26.5291 1162.00
26.5943 1270.00
26.6595 1386.00
26.7247 1560.00
26.7899 2293.00
26.8551 3642.00
26.9203 5378.00
26.9855 5533.00
27.0507 3072.00
27.1159 1571.00
27.1811 1205.00
27.2463 1143.00
27.3115 1135.00
27.3767 1058.00
27.4419 1009.00
27.5071 1048.00
27.5723 1100.00
27.6375 993.00
27.7027 1056.00
27.7679 991.00
27.8331 1132.00
27.8983 1115.00
27.9635 1055.00
28.0287 1054.00
28.0939 1013.00
28.1591 1036.00
28.2243 1079.00
28.2894 957.00
28.3546 1030.00
28.4198 1095.00
28.485 987.00
28.5502 1063.00
28.6154 1047.00
28.6806 1134.00
28.7458 1142.00
28.811 1197.00
28.8762 1194.00
28.9414 1226.00
29.0066 1295.00
29.0718 1518.00
29.137 1733.00
29.2022 2258.00
29.2674 2786.00
29.3326 2613.00
29.3978 2087.00
29.463 1622.00
29.5282 1443.00
29.5934 1341.00
29.6586 1368.00
29.7238 1543.00
29.789 1809.00
29.8542 1670.00
29.9194 1296.00
29.9846 1226.00
30.0498 1223.00
30.115 1276.00
30.1802 1216.00
30.2454 1232.00
30.3106 1324.00
30.3758 1479.00
30.441 1556.00
30.5062 1709.00
30.5714 1985.00
30.6366 2667.00
30.7018 4378.00
30.767 8875.00
30.8322 20223.00
30.8974 34910.00
30.9626 25146.00
31.0278 12345.00
31.093 5737.00
31.1582 3656.00
31.2234 2354.00
31.2886 1748.00
31.3538 1456.00
31.419 1424.00
31.4842 1536.00
31.5494 1397.00
31.6146 1177.00
31.6798 1141.00
31.745 1100.00
31.8102 1165.00
31.8754 1189.00
31.9406 1151.00
32.0058 967.00
32.071 1021.00
32.1362 986.00
32.2014 975.00
32.2666 1037.00
32.3318 938.00
32.397 952.00
32.4622 856.00
32.5274 896.00
32.5926 859.00
32.6578 869.00
32.723 917.00
32.7882 897.00
32.8534 870.00
32.9186 878.00
32.9838 842.00
33.0489 889.00
33.1141 870.00
33.1793 863.00
33.2445 872.00
33.3097 1013.00
33.3749 1205.00
33.4401 1258.00
33.5053 1105.00
33.5705 978.00
33.6357 847.00
33.7009 864.00
33.7661 877.00
33.8313 903.00
33.8965 820.00
33.9617 859.00
34.0269 839.00
34.0921 859.00
34.1573 883.00
34.2225 884.00
34.2877 896.00
34.3529 999.00
34.4181 1273.00
34.4833 1645.00
34.5485 1811.00
34.6137 1597.00
34.6789 1299.00
34.7441 1053.00
34.8093 992.00
34.8745 981.00
34.9397 991.00
35.0049 1075.00
35.0701 1263.00
35.1353 1717.00
35.2005 2441.00
35.2657 2292.00
35.3309 1839.00
35.3961 1355.00
35.4613 1261.00
35.5265 1411.00
35.5917 2040.00
35.6569 3666.00
35.7221 7833.00
35.7873 10916.00
35.8525 7206.00
35.9177 3991.00
35.9829 1983.00
36.0481 1536.00
36.1133 1261.00
36.1785 1250.00
36.2437 1154.00
36.3089 1112.00
36.3741 1089.00
36.4393 963.00
36.5045 987.00
36.5697 1035.00
36.6349 1042.00
36.7001 1252.00
36.7653 1358.00
36.8305 1588.00
36.8957 1513.00
36.9609 1311.00
37.0261 1064.00
37.0913 957.00
37.1565 912.00
37.2217 865.00
37.2869 928.00
37.3521 851.00
37.4173 840.00
37.4825 892.00
37.5477 880.00
37.6129 962.00
37.6781 1082.00
37.7433 1078.00
37.8085 1252.00
37.8736 1932.00
37.9388 2892.00
38.004 3188.00
38.0692 2332.00
38.1344 1599.00
38.1996 980.00
38.2648 934.00
38.33 926.00
38.3952 1041.00
38.4604 1212.00
38.5256 1272.00
38.5908 1065.00
38.656 927.00
38.7212 800.00
38.7864 772.00
38.8516 809.00
38.9168 712.00
38.982 760.00
39.0472 798.00
39.1124 812.00
39.1776 792.00
39.2428 826.00
39.308 903.00
39.3732 903.00
39.4384 907.00
39.5036 946.00
39.5688 1000.00
39.634 959.00
39.6992 1024.00
39.7644 1111.00
39.8296 971.00
39.8948 933.00
39.96 911.00
40.0252 896.00
40.0904 1218.00
40.1556 1212.00
40.2208 996.00
40.286 789.00
40.3512 724.00
40.4164 722.00
40.4816 724.00
40.5468 813.00
40.612 795.00
40.6772 757.00
40.7424 642.00
40.8076 696.00
40.8728 660.00
40.938 675.00
41.0032 689.00
41.0684 742.00
41.1336 757.00
41.1988 876.00
41.264 930.00
41.3292 910.00
41.3944 849.00
41.4596 823.00
41.5248 829.00
41.59 882.00
41.6552 1121.00
41.7204 1237.00
41.7856 1235.00
41.8508 1199.00
41.916 1111.00
41.9812 1123.00
42.0464 1368.00
42.1116 2070.00
42.1768 2222.00
42.242 1756.00
42.3072 1414.00
42.3724 1135.00
42.4376 969.00
42.5028 939.00
42.568 873.00
42.6332 861.00
42.6983 925.00
42.7635 901.00
42.8287 825.00
42.8939 783.00
42.9591 713.00
43.0243 746.00
43.0895 754.00
43.1547 762.00
43.2199 821.00
43.2851 787.00
43.3503 756.00
43.4155 783.00
43.4807 747.00
43.5459 741.00
43.6111 660.00
43.6763 698.00
43.7415 636.00
43.8067 645.00
43.8719 736.00
43.9371 726.00
44.0023 832.00
44.0675 938.00
44.1327 1004.00
44.1979 919.00
44.2631 872.00
44.3283 903.00
44.3935 781.00
44.4587 709.00
44.5239 675.00
44.5891 668.00
44.6543 681.00
44.7195 616.00
44.7847 676.00
44.8499 766.00
44.9151 835.00
44.9803 782.00
45.0455 711.00
45.1107 643.00
45.1759 638.00
45.2411 701.00
45.3063 810.00
45.3715 746.00
45.4367 785.00
45.5019 764.00
45.5671 819.00
45.6323 828.00
45.6975 898.00
45.7627 930.00
45.8279 1210.00
45.8931 1737.00
45.9583 3121.00
46.0235 3057.00
46.0887 2366.00
46.1539 1693.00
46.2191 1069.00
46.2843 862.00
46.3495 939.00
46.4147 1086.00
46.4799 954.00
46.5451 881.00
46.6103 702.00
46.6755 599.00
46.7407 576.00
46.8059 613.00
46.8711 621.00
46.9363 665.00
47.0015 723.00
47.0667 691.00
47.1319 721.00
47.1971 684.00
47.2623 617.00
47.3275 613.00
47.3927 676.00
47.4579 655.00
47.523 625.00
47.5882 639.00
47.6534 653.00
47.7186 680.00
47.7838 640.00
47.849 637.00
47.9142 630.00
47.9794 622.00
48.0446 648.00
48.1098 593.00
48.175 661.00
48.2402 697.00
48.3054 764.00
48.3706 746.00
48.4358 720.00
48.501 684.00
48.5662 618.00
48.6314 631.00
48.6966 614.00
48.7618 630.00
48.827 655.00
48.8922 623.00
48.9574 626.00
49.0226 589.00
49.0878 611.00
49.153 656.00
49.2182 636.00
49.2834 599.00
49.3486 627.00
49.4138 670.00
49.479 831.00
49.5442 1388.00
49.6094 1509.00
49.6746 1122.00
49.7398 1068.00
49.805 812.00
49.8702 882.00
49.9354 1014.00
50.0006 989.00
50.0658 820.00
50.131 772.00
50.1962 738.00
50.2614 841.00
50.3266 953.00
50.3918 1130.00
50.457 1141.00
50.5222 895.00
50.5874 866.00
50.6526 737.00
50.7178 779.00
50.783 862.00
50.8482 1007.00
50.9134 1010.00
50.9786 1075.00
51.0438 1312.00
51.109 1581.00
51.1742 2814.00
51.2394 6250.00
51.3046 11475.00
51.3698 8502.00
51.435 7102.00
51.5002 4473.00
51.5654 2332.00
51.6306 1675.00
51.6958 1408.00
51.761 1200.00
51.8262 998.00
51.8914 762.00
51.9566 721.00
52.0218 653.00
52.087 636.00
52.1522 575.00
52.2174 627.00
52.2826 625.00
52.3477 564.00
52.4129 569.00
52.4781 623.00
52.5433 578.00
52.6085 603.00
52.6737 617.00
52.7389 675.00
52.8041 705.00
52.8693 769.00
52.9345 959.00
52.9997 1280.00
53.0649 968.00
53.1301 934.00
53.1953 827.00
53.2605 674.00
53.3257 641.00
53.3909 661.00
53.4561 713.00
53.5213 743.00
53.5865 739.00
53.6517 648.00
53.7169 664.00
53.7821 656.00
53.8473 672.00
53.9125 715.00
53.9777 668.00
54.0429 602.00
54.1081 578.00
54.1733 549.00
54.2385 536.00
54.3037 545.00
54.3689 562.00
54.4341 574.00
54.4993 607.00
54.5645 687.00
54.6297 809.00
54.6949 909.00
54.7601 885.00
54.8253 859.00
54.8905 855.00
54.9557 782.00
55.0209 754.00
55.0861 751.00
55.1513 851.00
55.2165 913.00
55.2817 1006.00
55.3469 1055.00
55.4121 1026.00
55.4773 945.00
55.5425 845.00
55.6077 833.00
55.6729 681.00
55.7381 801.00
55.8033 740.00
55.8685 780.00
55.9337 784.00
55.9989 869.00
56.0641 1000.00
56.1293 1196.00
56.1945 1700.00
56.2597 2174.00
56.3249 1697.00
56.3901 1474.00
56.4553 1119.00
56.5205 766.00
56.5857 684.00
56.6509 545.00
56.7161 611.00
56.7813 621.00
56.8465 532.00
56.9117 593.00
56.9769 532.00
57.042 591.00
57.1073 549.00
57.1724 556.00
57.2376 642.00
57.3028 755.00
57.368 800.00
57.4332 680.00
57.4984 720.00
57.5636 585.00
57.6288 533.00
57.694 586.00
57.7592 666.00
57.8244 846.00
57.8896 897.00
57.9548 722.00
58.02 716.00
58.0852 627.00
58.1504 486.00
58.2156 489.00
58.2808 489.00
58.346 491.00
58.4112 527.00
58.4764 501.00
58.5416 542.00
58.6068 544.00
58.672 564.00
58.7372 605.00
58.8024 627.00
58.8676 588.00
58.9328 660.00
58.998 667.00
59.0632 705.00
59.1284 641.00
59.1936 662.00
59.2588 783.00
59.324 1027.00
59.3892 1661.00
59.4544 1598.00
59.5196 1280.00
59.5848 1276.00
59.65 857.00
59.7152 647.00
59.7804 651.00
59.8456 640.00
59.9108 624.00
59.976 712.00
60.0412 791.00
60.1064 874.00
60.1716 991.00
60.2368 1026.00
60.302 940.00
60.3672 966.00
60.4324 916.00
60.4976 972.00
60.5628 1111.00
60.628 1187.00
60.6932 1447.00
60.7584 1765.00
60.8236 2904.00
60.8888 5829.00
60.954 8000.00
61.0192 4896.00
61.0844 4772.00
61.1496 3733.00
61.2148 1961.00
61.28 1314.00
61.3452 1112.00
61.4104 1074.00
61.4756 1032.00
61.5408 901.00
61.606 784.00
61.6712 698.00
61.7364 694.00
61.8016 633.00
61.8667 687.00
61.932 595.00
61.9971 634.00
62.0623 679.00
62.1275 690.00
62.1927 736.00
62.2579 761.00
62.3231 955.00
62.3883 1481.00
62.4535 1960.00
62.5187 1476.00
62.5839 1337.00
62.6491 1238.00
62.7143 832.00
62.7795 646.00
62.8447 625.00
62.9099 589.00
62.9751 530.00
63.0403 503.00
63.1055 530.00
63.1707 550.00
63.2359 619.00
63.3011 675.00
63.3663 754.00
63.4315 587.00
63.4967 651.00
63.5619 632.00
63.6271 607.00
63.6923 635.00
63.7575 741.00
63.8227 1023.00
63.8879 1563.00
63.9531 1931.00
64.0183 1340.00
64.0835 1308.00
64.1487 1233.00
64.2139 801.00
64.2791 747.00
64.3443 675.00
64.4095 588.00
64.4747 666.00
64.5399 604.00
64.6051 594.00
64.6703 590.00
64.7355 644.00
64.8007 569.00
64.8659 663.00
64.9311 677.00
64.9963 690.00
65.0615 620.00
65.1267 614.00
65.1919 591.00
65.2571 631.00
65.3223 784.00
65.3875 1043.00
65.4527 960.00
65.5179 824.00
65.5831 851.00
65.6483 794.00
65.7135 659.00
65.7787 679.00
65.8439 740.00
65.9091 781.00
65.9743 647.00
66.0395 689.00
66.1047 613.00
66.1699 532.00
66.2351 517.00
66.3003 507.00
66.3655 504.00
66.4307 484.00
66.4959 458.00
66.561 497.00
66.6263 562.00
66.6915 600.00
66.7566 627.00
66.8218 823.00
66.887 817.00
66.9522 699.00
67.0174 708.00
67.0826 663.00
67.1478 529.00
67.213 530.00
67.2782 538.00
67.3434 545.00
67.4086 571.00
67.4738 540.00
67.539 562.00
67.6042 565.00
67.6694 620.00
67.7346 692.00
67.7998 674.00
67.865 714.00
67.9302 796.00
67.9954 899.00
68.0606 818.00
68.1258 818.00
68.191 960.00
68.2562 1346.00
68.3214 1519.00
68.3866 1281.00
68.4518 1346.00
68.517 1388.00
68.5822 1144.00
68.6474 955.00
68.7126 836.00
68.7778 755.00
68.843 668.00
68.9082 631.00
68.9734 600.00
69.0386 627.00
69.1038 621.00
69.169 617.00
69.2342 732.00
69.2994 686.00
69.3646 650.00
69.4298 630.00
69.495 574.00
69.5602 626.00
69.6254 744.00
69.6906 873.00
69.7558 857.00
69.821 649.00
69.8862 683.00
69.9514 696.00
70.0166 549.00
70.0818 498.00
70.147 482.00
70.2122 457.00
70.2774 513.00
70.3426 487.00
70.4078 508.00
70.473 505.00
70.5382 496.00
70.6034 485.00
70.6686 472.00
70.7338 465.00
70.799 488.00
70.8642 456.00
70.9294 471.00
70.9946 426.00
71.0598 444.00
71.125 430.00
71.1902 448.00
71.2554 411.00
71.3205 475.00
71.3858 453.00
71.451 469.00
71.5162 449.00
71.5813 498.00
71.6465 498.00
71.7117 432.00
71.7769 471.00
71.8421 486.00
71.9073 528.00
71.9725 523.00
72.0377 463.00
72.1029 492.00
72.1681 477.00
72.2333 463.00
72.2985 436.00
72.3637 468.00
72.4289 485.00
72.4941 439.00
72.5593 483.00
72.6245 477.00
72.6897 491.00
72.7549 524.00
72.8201 564.00
72.8853 548.00
72.9505 514.00
73.0157 568.00
73.0809 563.00
73.1461 567.00
73.2113 585.00
73.2765 558.00
73.3417 643.00
73.4069 581.00
73.4721 609.00
73.5373 549.00
73.6025 620.00
73.6677 578.00
73.7329 629.00
73.7981 673.00
73.8633 852.00
73.9285 1004.00
73.9937 814.00
74.0589 759.00
74.1241 813.00
74.1893 659.00
74.2545 562.00
74.3197 523.00
74.3849 481.00
74.4501 474.00
74.5153 419.00
74.5805 433.00
74.6457 449.00
74.7109 439.00
74.7761 423.00
74.8413 468.00
74.9065 461.00
74.9717 492.00
75.0369 497.00
75.1021 561.00
75.1673 678.00
75.2325 987.00
75.2977 1245.00
75.3629 947.00
75.4281 825.00
75.4933 882.00
75.5585 789.00
75.6237 612.00
75.6889 552.00
75.7541 576.00
75.8193 544.00
75.8845 605.00
75.9497 569.00
76.0149 524.00
76.0801 571.00
76.1452 602.00
76.2104 586.00
76.2756 567.00
76.3409 613.00
76.406 562.00
76.4712 669.00
76.5364 771.00
76.6016 1043.00
76.6668 1268.00
76.732 930.00
76.7972 816.00
76.8624 858.00
76.9276 790.00
76.9928 568.00
77.058 504.00
77.1232 490.00
77.1884 428.00
77.2536 441.00
77.3188 413.00
77.384 422.00
77.4492 454.00
77.5144 467.00
77.5796 445.00
77.6448 482.00
77.71 521.00
77.7752 524.00
77.8404 599.00
77.9056 714.00
77.9708 866.00
78.036 1023.00
78.1012 780.00
78.1664 740.00
78.2316 761.00
78.2968 706.00
78.362 612.00
78.4272 596.00
78.4924 536.00
78.5576 487.00
78.6228 516.00
78.688 462.00
78.7532 439.00
78.8184 441.00
78.8836 433.00
78.9488 435.00
79.014 461.00
79.0792 491.00
79.1444 522.00
79.2096 555.00
79.2748 651.00
79.34 834.00
79.4052 818.00
79.4704 711.00
79.5356 632.00
79.6008 669.00
79.666 640.00
79.7312 511.00
79.7964 455.00
79.8616 447.00
79.9268 449.00
79.992 489.00
80.0572 492.00
80.1224 528.00
80.1876 483.00
80.2528 487.00
80.318 464.00
80.3832 513.00
80.4484 474.00
80.5136 518.00
80.5788 503.00
80.644 635.00
80.7092 737.00
80.7744 634.00
80.8396 593.00
80.9048 594.00
80.9699 591.00
81.0351 518.00
81.1003 499.00
81.1655 447.00
81.2307 490.00
81.2959 504.00
81.3611 529.00
81.4263 528.00
81.4915 497.00
81.5567 514.00
81.6219 525.00
81.6871 613.00
81.7523 592.00
81.8175 568.00
81.8827 628.00
81.9479 784.00
82.0131 981.00
82.0783 1142.00
82.1435 876.00
82.2087 695.00
82.2739 731.00
82.3391 781.00
82.4043 614.00
82.4695 552.00
82.5347 477.00
82.5999 433.00
82.6651 459.00
82.7303 462.00
82.7955 472.00
82.8607 492.00
82.9259 517.00
82.9911 464.00
83.0563 528.00
83.1215 526.00
83.1867 586.00
83.2519 741.00
83.3171 1187.00
83.3823 1776.00
83.4475 1587.00
83.5127 1147.00
83.5779 1010.00
83.6431 1145.00
83.7083 1010.00
83.7735 660.00
83.8387 600.00
83.9039 524.00
83.9691 552.00
84.0343 497.00
84.0995 480.00
84.1647 446.00
84.2299 476.00
84.2951 491.00
84.3603 438.00
84.4255 450.00
84.4907 403.00
84.5559 426.00
84.6211 435.00
84.6863 446.00
84.7515 465.00
84.8167 414.00
84.8819 415.00
84.9471 444.00
85.0123 431.00
85.0775 388.00
85.1427 408.00
85.2079 418.00
85.2731 477.00
85.3383 416.00
85.4035 470.00
85.4687 483.00
85.5339 496.00
85.5991 441.00
85.6643 534.00
85.7295 506.00
85.7946 536.00
85.8598 638.00
85.925 829.00
85.9903 1104.00
86.0554 1501.00
86.1206 1189.00
86.1858 890.00
86.251 859.00
86.3162 982.00
86.3814 858.00
86.4466 625.00
86.5118 527.00
86.577 461.00
86.6422 455.00
86.7074 420.00
86.7726 458.00
86.8378 441.00
86.903 410.00
86.9682 428.00
87.0334 463.00
87.0986 418.00
87.1638 503.00
87.229 488.00
87.2942 528.00
87.3594 670.00
87.4246 639.00
87.4898 613.00
87.555 559.00
87.6202 601.00
87.6854 570.00
87.7506 498.00
87.8158 466.00
87.881 480.00
87.9462 467.00
88.0114 517.00
88.0766 456.00
88.1418 462.00
88.207 460.00
88.2722 476.00
88.3374 496.00
88.4026 449.00
88.4678 463.00
88.533 506.00
88.5982 532.00
88.6634 628.00
88.7286 661.00
88.7938 575.00
88.859 516.00
88.9242 569.00
88.9894 535.00
89.0546 553.00
89.1198 517.00
89.185 479.00
89.2502 499.00
89.3154 467.00
89.3806 466.00
89.4458 503.00
89.511 434.00
89.5762 456.00
89.6414 468.00
89.7066 456.00
89.7718 507.00
89.837 548.00
89.9022 576.00
89.9674 711.00
90.0326 893.00
90.0978 811.00
90.163 639.00
90.2282 591.00
90.2934 689.00
90.3586 702.00
90.4238 481.00
90.489 466.00
90.5542 423.00
90.6193 425.00
90.6845 397.00
90.7497 397.00
90.8149 448.00
90.8801 449.00
90.9453 441.00
91.0105 484.00
91.0757 460.00
91.1409 450.00
91.2061 451.00
91.2713 454.00
91.3365 486.00
91.4017 489.00
91.4669 428.00
91.5321 448.00
91.5973 444.00
91.6625 447.00
91.7277 430.00
91.7929 452.00
91.8581 376.00
91.9233 445.00
91.9885 410.00
92.0537 427.00
92.1189 424.00
92.1841 441.00
92.2493 449.00
92.3145 388.00
92.3797 440.00
92.4449 442.00
92.5101 516.00
92.5753 538.00
92.6405 716.00
92.7057 861.00
92.7709 689.00
92.8361 598.00
92.9013 583.00
92.9665 708.00
93.0317 667.00
93.0969 596.00
93.1621 487.00
93.2273 495.00
93.2925 492.00
93.3577 499.00
93.4229 427.00
93.4881 449.00
93.5533 442.00
93.6185 456.00
93.6837 428.00
93.7489 423.00
93.8141 430.00
93.8793 443.00
93.9445 470.00
94.0097 424.00
94.0749 422.00
94.1401 404.00
94.2053 413.00
94.2705 446.00
94.3357 411.00
94.4009 383.00
94.4661 413.00
94.5313 392.00
94.5965 433.00
94.6617 384.00
94.7269 400.00
94.7921 405.00
94.8573 437.00
94.9225 427.00
94.9877 447.00
95.0529 444.00
95.1181 501.00
95.1833 561.00
95.2485 678.00
95.3137 823.00
95.3789 885.00
95.444 689.00
95.5092 684.00
95.5744 607.00
95.6396 680.00
95.7048 692.00
95.77 654.00
95.8352 545.00
95.9004 496.00
95.9656 523.00
96.0308 536.00
96.096 490.00
96.1612 563.00
96.2264 528.00
96.2916 540.00
96.3568 581.00
96.422 580.00
96.4872 654.00
96.5524 824.00
96.6176 1033.00
96.6828 1283.00
96.748 1119.00
96.8132 833.00
96.8784 720.00
96.9436 825.00
97.0088 907.00
97.074 710.00
97.1392 578.00
97.2044 505.00
97.2696 444.00
97.3348 440.00
97.4 447.00
97.4652 477.00
97.5304 463.00
97.5956 442.00
97.6608 459.00
97.726 488.00
97.7912 479.00
97.8564 535.00
97.9216 656.00
97.9868 832.00
98.052 794.00
98.1172 710.00
98.1824 628.00
98.2476 604.00
98.3128 585.00
98.378 611.00
98.4432 571.00
98.5084 500.00
98.5736 460.00
98.6388 452.00
98.704 446.00
98.7692 443.00
98.8344 479.00
98.8996 467.00
98.9648 482.00
99.03 465.00
99.0952 484.00
99.1604 455.00
99.2256 513.00
99.2908 618.00
99.356 754.00
99.4212 627.00
99.4864 549.00
99.5516 498.00
99.6168 542.00
99.682 585.00
99.7472 584.00
99.8124 451.00
99.8776 478.00
99.9428 444.00
100.008 441.00
100.073 429.00
100.095 430.00