File: data/xrd_creation/results/MINES_1.xy
9.903433 3621.00
9.968632 3731.00
10.0338 3647.00
10.099 3655.00
10.1642 3725.00
10.2294 3653.00
10.2946 3627.00
10.3598 3633.00
10.425 3587.00
10.4902 3583.00
10.5554 3455.00
10.6206 3547.00
10.6858 3540.00
10.751 3652.00
10.8162 3571.00
10.8814 3489.00
10.9466 3436.00
11.0118 3465.00
11.077 3560.00
11.1422 3529.00
11.2074 3400.00
11.2726 3439.00
11.3378 3395.00
11.403 3414.00
11.4682 3468.00
11.5334 3455.00
11.5986 3492.00
11.6638 3426.00
11.729 3323.00
11.7942 3337.00
11.8594 3273.00
11.9246 3338.00
11.9898 3275.00
12.055 3383.00
12.1202 3429.00
12.1854 3266.00
12.2506 3229.00
12.3158 3291.00
12.381 3241.00
12.4462 3265.00
12.5114 3262.00
12.5766 3232.00
12.6418 3187.00
12.707 3255.00
12.7722 3230.00
12.8374 3240.00
12.9026 3176.00
12.9678 3216.00
13.033 3197.00
13.0982 3309.00
13.1634 3181.00
13.2286 3174.00
13.2938 3143.00
13.359 3138.00
13.4242 3185.00
13.4894 3195.00
13.5546 3050.00
13.6198 3178.00
13.685 3078.00
13.7502 3261.00
13.8154 3135.00
13.8805 3165.00
13.9457 3197.00
14.0109 3341.00
14.0761 3270.00
14.1413 3327.00
14.2065 3419.00
14.2717 3490.00
14.3369 3621.00
14.4021 3655.00
14.4673 3795.00
14.5325 3492.00
14.5977 3158.00
14.6629 3220.00
14.7281 3124.00
14.7933 3044.00
14.8585 3249.00
14.9237 3102.00
14.9889 3025.00
15.0541 3099.00
15.1193 3012.00
15.1845 3128.00
15.2497 3163.00
15.3149 3206.00
15.3801 3192.00
15.4453 3047.00
15.5105 2924.00
15.5757 3108.00
15.6409 3131.00
15.7061 3001.00
15.7713 3131.00
15.8365 3008.00
15.9017 3120.00
15.9669 3043.00
16.0321 3056.00
16.0973 3104.00
16.1625 3190.00
16.2277 3101.00
16.2929 3227.00
16.3581 3032.00
16.4233 3135.00
16.4885 3212.00
16.5537 3146.00
16.6189 3096.00
16.6841 3163.00
16.7493 3069.00
16.8145 3131.00
16.8797 3226.00
16.9449 3074.00
17.0101 3060.00
17.0753 3077.00
17.1405 3148.00
17.2057 3114.00
17.2709 3093.00
17.3361 3014.00
17.4013 3122.00
17.4665 3092.00
17.5317 3110.00
17.5969 3075.00
17.6621 3028.00
17.7273 3048.00
17.7925 3014.00
17.8577 3069.00
17.9229 3066.00
17.9881 3072.00
18.0533 3020.00
18.1185 3073.00
18.1837 3099.00
18.2489 3109.00
18.3141 3066.00
18.3793 2975.00
18.4445 3037.00
18.5097 3063.00
18.5749 3029.00
18.6401 3035.00
18.7052 2966.00
18.7704 3046.00
18.8356 3011.00
18.9008 3007.00
18.966 3086.00
19.0312 2980.00
19.0964 3031.00
19.1616 3133.00
19.2268 2995.00
19.292 3123.00
19.3572 3044.00
19.4224 2998.00
19.4876 3059.00
19.5528 3037.00
19.618 3041.00
19.6832 3095.00
19.7484 3050.00
19.8136 3079.00
19.8788 3167.00
19.944 3270.00
20.0092 3286.00
20.0744 3321.00
20.1396 3495.00
20.2048 3503.00
20.27 3646.00
20.3352 3646.00
20.4004 3452.00
20.4656 3235.00
20.5308 3240.00
20.596 3305.00
20.6612 3439.00
20.7264 3443.00
20.7916 3594.00
20.8568 3625.00
20.922 3265.00
20.9872 3184.00
21.0524 3241.00
21.1176 3345.00
21.1828 3290.00
21.248 3180.00
21.3132 3193.00
21.3784 2947.00
21.4436 2990.00
21.5088 3026.00
21.574 3008.00
21.6392 3082.00
21.7044 3033.00
21.7696 3061.00
21.8348 3045.00
21.9 3023.00
21.9652 3056.00
22.0304 3038.00
22.0956 2920.00
22.1608 3043.00
22.226 3013.00
22.2912 2999.00
22.3564 3020.00
22.4216 3033.00
22.4868 3013.00
22.552 2984.00
22.6172 2928.00
22.6824 2871.00
22.7476 3015.00
22.8128 3006.00
22.878 2947.00
22.9432 3064.00
23.0084 2909.00
23.0736 2984.00
23.1388 2947.00
23.204 3064.00
23.2692 2979.00
23.3344 3003.00
23.3996 3021.00
23.4647 2953.00
23.5299 3070.00
23.5951 2947.00
23.6603 3049.00
23.7255 3104.00
23.7907 3180.00
23.8559 3264.00
23.9211 3228.00
23.9863 3338.00
24.0515 3692.00
24.1167 3710.00
24.1819 3389.00
24.2471 3404.00
24.3123 3375.00
24.3775 3493.00
24.4427 3582.00
24.5079 3530.00
24.5731 3349.00
24.6383 3514.00
24.7035 3269.00
24.7687 3315.00
24.8339 3215.00
24.8991 3306.00
24.9643 3475.00
25.0295 3591.00
25.0947 3796.00
25.1599 3890.00
25.2251 3541.00
25.2903 3304.00
25.3555 3181.00
25.4207 3282.00
25.4859 3271.00
25.5511 3412.00
25.6163 3443.00
25.6815 3575.00
25.7467 3345.00
25.8119 3113.00
25.8771 3026.00
25.9423 2838.00
26.0075 2948.00
26.0727 2909.00
26.1379 2939.00
26.2031 2931.00
26.2683 2857.00
26.3335 2986.00
26.3987 2973.00
26.4639 3073.00
26.5291 3172.00
26.5943 3385.00
26.6595 3474.00
26.7247 3715.00
26.7899 3893.00
26.8551 4256.00
26.9203 4552.00
26.9855 4304.00
27.0507 3593.00
27.1159 3074.00
27.1811 2956.00
27.2463 3009.00
27.3115 2993.00
27.3767 2967.00
27.4419 2920.00
27.5071 3002.00
27.5723 2952.00
27.6375 2950.00
27.7027 2878.00
27.7679 2780.00
27.8331 2842.00
27.8983 2868.00
27.9635 2823.00
28.0287 2798.00
28.0939 2861.00
28.1591 2890.00
28.2243 2794.00
28.2894 2838.00
28.3546 2847.00
28.4198 2841.00
28.485 2940.00
28.5502 2862.00
28.6154 2908.00
28.6806 2869.00
28.7458 2844.00
28.811 2944.00
28.8762 2861.00
28.9414 2889.00
29.0066 2867.00
29.0718 2777.00
29.137 2823.00
29.2022 2813.00
29.2674 2893.00
29.3326 2852.00
29.3978 2737.00
29.463 2901.00
29.5282 2762.00
29.5934 2816.00
29.6586 2860.00
29.7238 2906.00
29.789 3231.00
29.8542 3444.00
29.9194 3548.00
29.9846 3840.00
30.0498 4084.00
30.115 4636.00
30.1802 4747.00
30.2454 4074.00
30.3106 3333.00
30.3758 2899.00
30.441 2830.00
30.5062 2944.00
30.5714 2984.00
30.6366 2838.00
30.7018 2920.00
30.767 2877.00
30.8322 2866.00
30.8974 2868.00
30.9626 2900.00
31.0278 2939.00
31.093 2840.00
31.1582 2883.00
31.2234 3008.00
31.2886 3087.00
31.3538 3146.00
31.419 3361.00
31.4842 3540.00
31.5494 3806.00
31.6146 3955.00
31.6798 3664.00
31.745 3174.00
31.8102 2903.00
31.8754 2809.00
31.9406 2763.00
32.0058 2760.00
32.071 2735.00
32.1362 2720.00
32.2014 2783.00
32.2666 2888.00
32.3318 2802.00
32.397 2824.00
32.4622 2671.00
32.5274 2817.00
32.5926 2889.00
32.6578 2892.00
32.723 2962.00
32.7882 2853.00
32.8534 2940.00
32.9186 2929.00
32.9838 2776.00
33.0489 2957.00
33.1141 2959.00
33.1793 3157.00
33.2445 3313.00
33.3097 3488.00
33.3749 3832.00
33.4401 4107.00
33.5053 3995.00
33.5705 3399.00
33.6357 2869.00
33.7009 2610.00
33.7661 2679.00
33.8313 2772.00
33.8965 2642.00
33.9617 2755.00
34.0269 2786.00
34.0921 2702.00
34.1573 2650.00
34.2225 2688.00
34.2877 2662.00
34.3529 2758.00
34.4181 2629.00
34.4833 2716.00
34.5485 2769.00
34.6137 2652.00
34.6789 2624.00
34.7441 2644.00
34.8093 2808.00
34.8745 2776.00
34.9397 2708.00
35.0049 2734.00
35.0701 2621.00
35.1353 2713.00
35.2005 2673.00
35.2657 2621.00
35.3309 2678.00
35.3961 2752.00
35.4613 2779.00
35.5265 2814.00
35.5917 2924.00
35.6569 3157.00
35.7221 3374.00
35.7873 3577.00
35.8525 3855.00
35.9177 3926.00
35.9829 3641.00
36.0481 3321.00
36.1133 2998.00
36.1785 3019.00
36.2437 3009.00
36.3089 3175.00
36.3741 3350.00
36.4393 3331.00
36.5045 3158.00
36.5697 2947.00
36.6349 2636.00
36.7001 2732.00
36.7653 2859.00
36.8305 2622.00
36.8957 2748.00
36.9609 2718.00
37.0261 2586.00
37.0913 2614.00
37.1565 2609.00
37.2217 2666.00
37.2869 2626.00
37.3521 2727.00
37.4173 2763.00
37.4825 2784.00
37.5477 2995.00
37.6129 3053.00
37.6781 3213.00
37.7433 2909.00
37.8085 2817.00
37.8736 2902.00
37.9388 2846.00
38.004 2672.00
38.0692 2735.00
38.1344 2651.00
38.1996 2761.00
38.2648 2713.00
38.33 2645.00
38.3952 2777.00
38.4604 2687.00
38.5256 2705.00
38.5908 2689.00
38.656 2642.00
38.7212 2614.00
38.7864 2486.00
38.8516 2596.00
38.9168 2534.00
38.982 2592.00
39.0472 2668.00
39.1124 2568.00
39.1776 2623.00
39.2428 2598.00
39.308 2643.00
39.3732 2669.00
39.4384 2676.00
39.5036 2714.00
39.5688 2671.00
39.634 2792.00
39.6992 2698.00
39.7644 2750.00
39.8296 2599.00
39.8948 2620.00
39.96 2606.00
40.0252 2532.00
40.0904 2581.00
40.1556 2496.00
40.2208 2518.00
40.286 2590.00
40.3512 2653.00
40.4164 2566.00
40.4816 2607.00
40.5468 2705.00
40.612 2600.00
40.6772 2603.00
40.7424 2649.00
40.8076 2660.00
40.8728 2710.00
40.938 2619.00
41.0032 2760.00
41.0684 2671.00
41.1336 2842.00
41.1988 2902.00
41.264 2777.00
41.3292 2609.00
41.3944 2542.00
41.4596 2608.00
41.5248 2541.00
41.59 2557.00
41.6552 2537.00
41.7204 2527.00
41.7856 2431.00
41.8508 2554.00
41.916 2524.00
41.9812 2473.00
42.0464 2590.00
42.1116 2588.00
42.1768 2733.00
42.242 2673.00
42.3072 2763.00
42.3724 2850.00
42.4376 2871.00
42.5028 2816.00
42.568 2705.00
42.6332 2690.00
42.6983 2648.00
42.7635 2673.00
42.8287 2645.00
42.8939 2762.00
42.9591 2708.00
43.0243 2847.00
43.0895 2881.00
43.1547 2723.00
43.2199 2729.00
43.2851 2678.00
43.3503 2526.00
43.4155 2650.00
43.4807 2624.00
43.5459 2467.00
43.6111 2549.00
43.6763 2511.00
43.7415 2571.00
43.8067 2523.00
43.8719 2559.00
43.9371 2567.00
44.0023 2657.00
44.0675 2556.00
44.1327 2569.00
44.1979 2525.00
44.2631 2598.00
44.3283 2586.00
44.3935 2584.00
44.4587 2511.00
44.5239 2511.00
44.5891 2442.00
44.6543 2385.00
44.7195 2526.00
44.7847 2469.00
44.8499 2446.00
44.9151 2465.00
44.9803 2403.00
45.0455 2488.00
45.1107 2463.00
45.1759 2480.00
45.2411 2541.00
45.3063 2578.00
45.3715 2426.00
45.4367 2476.00
45.5019 2560.00
45.5671 2460.00
45.6323 2537.00
45.6975 2443.00
45.7627 2551.00
45.8279 2579.00
45.8931 2551.00
45.9583 2558.00
46.0235 2584.00
46.0887 2485.00
46.1539 2527.00
46.2191 2514.00
46.2843 2562.00
46.3495 2575.00
46.4147 2561.00
46.4799 2523.00
46.5451 2456.00
46.6103 2440.00
46.6755 2586.00
46.7407 2470.00
46.8059 2421.00
46.8711 2428.00
46.9363 2457.00
47.0015 2387.00
47.0667 2398.00
47.1319 2470.00
47.1971 2463.00
47.2623 2493.00
47.3275 2487.00
47.3927 2523.00
47.4579 2603.00
47.523 2661.00
47.5882 2733.00
47.6534 2763.00
47.7186 2660.00
47.7838 2567.00
47.849 2394.00
47.9142 2514.00
47.9794 2427.00
48.0446 2510.00
48.1098 2415.00
48.175 2475.00
48.2402 2420.00
48.3054 2474.00
48.3706 2449.00
48.4358 2522.00
48.501 2592.00
48.5662 2538.00
48.6314 2467.00
48.6966 2414.00
48.7618 2474.00
48.827 2451.00
48.8922 2417.00
48.9574 2378.00
49.0226 2503.00
49.0878 2452.00
49.153 2404.00
49.2182 2392.00
49.2834 2429.00
49.3486 2477.00
49.4138 2475.00
49.479 2496.00
49.5442 2585.00
49.6094 2671.00
49.6746 2916.00
49.7398 2977.00
49.805 2744.00
49.8702 2622.00
49.9354 2611.00
50.0006 2560.00
50.0658 2496.00
50.131 2464.00
50.1962 2533.00
50.2614 2605.00
50.3266 2534.00
50.3918 2547.00
50.457 2615.00
50.5222 2486.00
50.5874 2355.00
50.6526 2450.00
50.7178 2429.00
50.783 2425.00
50.8482 2401.00
50.9134 2530.00
50.9786 2387.00
51.0438 2395.00
51.109 2294.00
51.1742 2293.00
51.2394 2376.00
51.3046 2440.00
51.3698 2374.00
51.435 2320.00
51.5002 2370.00
51.5654 2473.00
51.6306 2433.00
51.6958 2346.00
51.761 2404.00
51.8262 2276.00
51.8914 2320.00
51.9566 2397.00
52.0218 2281.00
52.087 2286.00
52.1522 2375.00
52.2174 2258.00
52.2826 2453.00
52.3477 2268.00
52.4129 2427.00
52.4781 2361.00
52.5433 2265.00
52.6085 2391.00
52.6737 2289.00
52.7389 2421.00
52.8041 2379.00
52.8693 2354.00
52.9345 2428.00
52.9997 2395.00
53.0649 2343.00
53.1301 2361.00
53.1953 2362.00
53.2605 2248.00
53.3257 2325.00
53.3909 2332.00
53.4561 2327.00
53.5213 2348.00
53.5865 2331.00
53.6517 2327.00
53.7169 2329.00
53.7821 2306.00
53.8473 2425.00
53.9125 2514.00
53.9777 2517.00
54.0429 2537.00
54.1081 2689.00
54.1733 2666.00
54.2385 2778.00
54.3037 2911.00
54.3689 2956.00
54.4341 2773.00
54.4993 2685.00
54.5645 2530.00
54.6297 2383.00
54.6949 2330.00
54.7601 2307.00
54.8253 2333.00
54.8905 2304.00
54.9557 2341.00
55.0209 2326.00
55.0861 2402.00
55.1513 2353.00
55.2165 2388.00
55.2817 2254.00
55.3469 2346.00
55.4121 2318.00
55.4773 2329.00
55.5425 2343.00
55.6077 2307.00
55.6729 2355.00
55.7381 2310.00
55.8033 2274.00
55.8685 2237.00
55.9337 2273.00
55.9989 2271.00
56.0641 2297.00
56.1293 2315.00
56.1945 2365.00
56.2597 2376.00
56.3249 2489.00
56.3901 2570.00
56.4553 2745.00
56.5205 2789.00
56.5857 2797.00
56.6509 2684.00
56.7161 2587.00
56.7813 2436.00
56.8465 2323.00
56.9117 2355.00
56.9769 2230.00
57.042 2277.00
57.1073 2287.00
57.1724 2282.00
57.2376 2296.00
57.3028 2376.00
57.368 2431.00
57.4332 2348.00
57.4984 2503.00
57.5636 2586.00
57.6288 2605.00
57.694 2555.00
57.7592 2450.00
57.8244 2418.00
57.8896 2442.00
57.9548 2374.00
58.02 2313.00
58.0852 2284.00
58.1504 2323.00
58.2156 2303.00
58.2808 2264.00
58.346 2197.00
58.4112 2251.00
58.4764 2256.00
58.5416 2288.00
58.6068 2158.00
58.672 2152.00
58.7372 2230.00
58.8024 2226.00
58.8676 2209.00
58.9328 2322.00
58.998 2344.00
59.0632 2296.00
59.1284 2361.00
59.1936 2372.00
59.2588 2236.00
59.324 2359.00
59.3892 2251.00
59.4544 2281.00
59.5196 2226.00
59.5848 2236.00
59.65 2273.00
59.7152 2306.00
59.7804 2266.00
59.8456 2238.00
59.9108 2418.00
59.976 2318.00
60.0412 2405.00
60.1064 2348.00
60.1716 2398.00
60.2368 2324.00
60.302 2213.00
60.3672 2235.00
60.4324 2225.00
60.4976 2303.00
60.5628 2301.00
60.628 2278.00
60.6932 2221.00
60.7584 2276.00
60.8236 2205.00
60.8888 2402.00
60.954 2166.00
61.0192 2315.00
61.0844 2198.00
61.1496 2324.00
61.2148 2296.00
61.28 2295.00
61.3452 2358.00
61.4104 2350.00
61.4756 2311.00
61.5408 2338.00
61.606 2292.00
61.6712 2328.00
61.7364 2278.00
61.8016 2345.00
61.8667 2267.00
61.932 2271.00
61.9971 2238.00
62.0623 2366.00
62.1275 2292.00
62.1927 2286.00
62.2579 2362.00
62.3231 2323.00
62.3883 2409.00
62.4535 2476.00
62.5187 2602.00
62.5839 2649.00
62.6491 2694.00
62.7143 2756.00
62.7795 2510.00
62.8447 2396.00
62.9099 2453.00
62.9751 2328.00
63.0403 2249.00
63.1055 2289.00
63.1707 2235.00
63.2359 2316.00
63.3011 2296.00
63.3663 2188.00
63.4315 2250.00
63.4967 2224.00
63.5619 2243.00
63.6271 2296.00
63.6923 2260.00
63.7575 2261.00
63.8227 2339.00
63.8879 2316.00
63.9531 2446.00
64.0183 2304.00
64.0835 2451.00
64.1487 2482.00
64.2139 2550.00
64.2791 2586.00
64.3443 2409.00
64.4095 2414.00
64.4747 2385.00
64.5399 2352.00
64.6051 2336.00
64.6703 2275.00
64.7355 2373.00
64.8007 2301.00
64.8659 2293.00
64.9311 2345.00
64.9963 2193.00
65.0615 2228.00
65.1267 2154.00
65.1919 2180.00
65.2571 2120.00
65.3223 2228.00
65.3875 2119.00
65.4527 2171.00
65.5179 2160.00
65.5831 2099.00
65.6483 2157.00
65.7135 2102.00
65.7787 2236.00
65.8439 2243.00
65.9091 2197.00
65.9743 2176.00
66.0395 2121.00
66.1047 2152.00
66.1699 2115.00
66.2351 2230.00
66.3003 2158.00
66.3655 2209.00
66.4307 2099.00
66.4959 2136.00
66.561 2200.00
66.6263 2075.00
66.6915 2257.00
66.7566 2175.00
66.8218 2077.00
66.887 2157.00
66.9522 2126.00
67.0174 2216.00
67.0826 2117.00
67.1478 2260.00
67.213 2277.00
67.2782 2213.00
67.3434 2195.00
67.4086 2259.00
67.4738 2098.00
67.539 2146.00
67.6042 2185.00
67.6694 2196.00
67.7346 2117.00
67.7998 2168.00
67.865 2182.00
67.9302 2280.00
67.9954 2213.00
68.0606 2165.00
68.1258 2202.00
68.191 2235.00
68.2562 2263.00
68.3214 2334.00
68.3866 2385.00
68.4518 2422.00
68.517 2424.00
68.5822 2367.00
68.6474 2255.00
68.7126 2354.00
68.7778 2325.00
68.843 2321.00
68.9082 2272.00
68.9734 2295.00
69.0386 2329.00
69.1038 2318.00
69.169 2416.00
69.2342 2546.00
69.2994 2358.00
69.3646 2346.00
69.4298 2120.00
69.495 2248.00
69.5602 2196.00
69.6254 2192.00
69.6906 2190.00
69.7558 2090.00
69.821 2104.00
69.8862 2086.00
69.9514 2090.00
70.0166 2086.00
70.0818 2145.00
70.147 2231.00
70.2122 2205.00
70.2774 2308.00
70.3426 2317.00
70.4078 2305.00
70.473 2253.00
70.5382 2243.00
70.6034 2229.00
70.6686 2246.00
70.7338 2164.00
70.799 2098.00
70.8642 2074.00
70.9294 2104.00
70.9946 2091.00
71.0598 2137.00
71.125 2140.00
71.1902 2060.00
71.2554 2037.00
71.3205 2039.00
71.3858 2038.00
71.451 2031.00
71.5162 2056.00
71.5813 2044.00
71.6465 2042.00
71.7117 2091.00
71.7769 2136.00
71.8421 2151.00
71.9073 2165.00
71.9725 2255.00
72.0377 2187.00
72.1029 2196.00
72.1681 2233.00
72.2333 2211.00
72.2985 2247.00
72.3637 2077.00
72.4289 2165.00
72.4941 2120.00
72.5593 2228.00
72.6245 2184.00
72.6897 2129.00
72.7549 2221.00
72.8201 2141.00
72.8853 2169.00
72.9505 2185.00
73.0157 2109.00
73.0809 2086.00
73.1461 2098.00
73.2113 2155.00
73.2765 2161.00
73.3417 2175.00
73.4069 2167.00
73.4721 2165.00
73.5373 2255.00
73.6025 2166.00
73.6677 2205.00
73.7329 2044.00
73.7981 2118.00
73.8633 2078.00
73.9285 2117.00
73.9937 2134.00
74.0589 2112.00
74.1241 2099.00
74.1893 2062.00
74.2545 2160.00
74.3197 2107.00
74.3849 2142.00
74.4501 2101.00
74.5153 2046.00
74.5805 2059.00
74.6457 2041.00
74.7109 2046.00
74.7761 2060.00
74.8413 2031.00
74.9065 2058.00
74.9717 2064.00
75.0369 2085.00
75.1021 2060.00
75.1673 2149.00
75.2325 2183.00
75.2977 2071.00
75.3629 2122.00
75.4281 2131.00
75.4933 2160.00
75.5585 2121.00
75.6237 2209.00
75.6889 2182.00
75.7541 2157.00
75.8193 2175.00
75.8845 2178.00
75.9497 2161.00
76.0149 2104.00
76.0801 2099.00
76.1452 2154.00
76.2104 2081.00
76.2756 2157.00
76.3409 2141.00
76.406 2145.00
76.4712 2149.00
76.5364 2117.00
76.6016 2195.00
76.6668 2165.00
76.732 2116.00
76.7972 2072.00
76.8624 2222.00
76.9276 2117.00
76.9928 2114.00
77.058 2121.00
77.1232 2030.00
77.1884 2044.00
77.2536 2092.00
77.3188 2106.00
77.384 2059.00
77.4492 2064.00
77.5144 2018.00
77.5796 2015.00
77.6448 2133.00
77.71 2043.00
77.7752 2115.00
77.8404 2089.00
77.9056 2037.00
77.9708 2076.00
78.036 2093.00
78.1012 2087.00
78.1664 2091.00
78.2316 2120.00
78.2968 2126.00
78.362 2131.00
78.4272 2151.00
78.4924 2115.00
78.5576 2107.00
78.6228 2048.00
78.688 2024.00
78.7532 1960.00
78.8184 1998.00
78.8836 2036.00
78.9488 2013.00
79.014 2091.00
79.0792 2105.00
79.1444 2064.00
79.2096 2067.00
79.2748 1978.00
79.34 2035.00
79.4052 2015.00
79.4704 2008.00
79.5356 2078.00
79.6008 2018.00
79.666 2033.00
79.7312 2057.00
79.7964 2020.00
79.8616 2095.00
79.9268 2191.00
79.992 2093.00
80.0572 2091.00
80.1224 2225.00
80.1876 2089.00
80.2528 2216.00
80.318 2176.00
80.3832 2030.00
80.4484 2053.00
80.5136 2098.00
80.5788 2084.00
80.644 2026.00
80.7092 2032.00
80.7744 2075.00
80.8396 2083.00
80.9048 2127.00
80.9699 2054.00
81.0351 2064.00
81.1003 2052.00
81.1655 2071.00
81.2307 2117.00
81.2959 2117.00
81.3611 2034.00
81.4263 2143.00
81.4915 2010.00
81.5567 2106.00
81.6219 2159.00
81.6871 2078.00
81.7523 2115.00
81.8175 2102.00
81.8827 2025.00
81.9479 2111.00
82.0131 2047.00
82.0783 2120.00
82.1435 1999.00
82.2087 2002.00
82.2739 1977.00
82.3391 1984.00
82.4043 2039.00
82.4695 2005.00
82.5347 2083.00
82.5999 2012.00
82.6651 1983.00
82.7303 2017.00
82.7955 2003.00
82.8607 2045.00
82.9259 2007.00
82.9911 2098.00
83.0563 2040.00
83.1215 2110.00
83.1867 2092.00
83.2519 2111.00
83.3171 2041.00
83.3823 1967.00
83.4475 2055.00
83.5127 2033.00
83.5779 2042.00
83.6431 1989.00
83.7083 1979.00
83.7735 2050.00
83.8387 2134.00
83.9039 2028.00
83.9691 1996.00
84.0343 1998.00
84.0995 1990.00
84.1647 2028.00
84.2299 1980.00
84.2951 2072.00
84.3603 2036.00
84.4255 2100.00
84.4907 2078.00
84.5559 1910.00
84.6211 1965.00
84.6863 2055.00
84.7515 2051.00
84.8167 2005.00
84.8819 2016.00
84.9471 2064.00
85.0123 2150.00
85.0775 2085.00
85.1427 2089.00
85.2079 2065.00
85.2731 2070.00
85.3383 2053.00
85.4035 2090.00
85.4687 1999.00
85.5339 2012.00
85.5991 2077.00
85.6643 2025.00
85.7295 1968.00
85.7946 2028.00
85.8598 2054.00
85.925 1957.00
85.9903 2041.00
86.0554 2016.00
86.1206 2063.00
86.1858 1920.00
86.251 2041.00
86.3162 2008.00
86.3814 1976.00
86.4466 1907.00
86.5118 1964.00
86.577 1976.00
86.6422 2074.00
86.7074 1969.00
86.7726 1954.00
86.8378 1968.00
86.903 1955.00
86.9682 1929.00
87.0334 2016.00
87.0986 2006.00
87.1638 1965.00
87.229 1969.00
87.2942 2000.00
87.3594 2009.00
87.4246 2000.00
87.4898 1960.00
87.555 2016.00
87.6202 1984.00
87.6854 1968.00
87.7506 1957.00
87.8158 1933.00
87.881 1957.00
87.9462 1997.00
88.0114 2052.00
88.0766 1930.00
88.1418 1987.00
88.207 1939.00
88.2722 2042.00
88.3374 1982.00
88.4026 2022.00
88.4678 1996.00
88.533 1939.00
88.5982 1993.00
88.6634 1994.00
88.7286 2042.00
88.7938 2073.00
88.859 2082.00
88.9242 1951.00
88.9894 2093.00
89.0546 2034.00
89.1198 1984.00
89.185 1968.00
89.2502 2018.00
89.3154 1910.00
89.3806 1963.00
89.4458 1962.00
89.511 2016.00
89.5762 1934.00
89.6414 2045.00
89.7066 1974.00
89.7718 1898.00
89.837 1912.00
89.9022 1988.00
89.9674 1999.00
90.0326 2000.00
90.0978 2003.00
90.163 1930.00
90.2282 1936.00
90.2934 1972.00
90.3586 1898.00
90.4238 2002.00
90.489 1923.00
90.5542 1986.00
90.6193 1996.00
90.6845 1927.00
90.7497 1939.00
90.8149 2010.00
90.8801 1969.00
90.9453 1943.00
91.0105 1948.00
91.0757 1975.00
91.1409 1956.00
91.2061 1929.00
91.2713 1938.00
91.3365 1950.00
91.4017 2032.00
91.4669 1888.00
91.5321 1948.00
91.5973 1954.00
91.6625 2011.00
91.7277 1912.00
91.7929 1939.00
91.8581 1995.00
91.9233 1926.00
91.9885 2007.00
92.0537 1947.00
92.1189 1928.00
92.1841 1918.00
92.2493 1906.00
92.3145 2017.00
92.3797 1973.00
92.4449 1926.00
92.5101 1987.00
92.5753 1988.00
92.6405 1959.00
92.7057 1910.00
92.7709 1998.00
92.8361 1957.00
92.9013 1863.00
92.9665 1935.00
93.0317 1979.00
93.0969 1907.00
93.1621 2003.00
93.2273 1954.00
93.2925 1918.00
93.3577 1803.00
93.4229 1927.00
93.4881 1931.00
93.5533 1992.00
93.6185 1917.00
93.6837 1959.00
93.7489 1977.00
93.8141 1982.00
93.8793 2112.00
93.9445 2103.00
94.0097 2038.00
94.0749 1968.00
94.1401 2025.00
94.2053 1945.00
94.2705 1961.00
94.3357 1929.00
94.4009 1971.00
94.4661 2050.00
94.5313 1869.00
94.5965 2020.00
94.6617 1967.00
94.7269 1998.00
94.7921 1973.00
94.8573 2002.00
94.9225 1913.00
94.9877 1929.00
95.0529 2006.00
95.1181 1963.00
95.1833 2007.00
95.2485 1995.00
95.3137 1963.00
95.3789 2028.00
95.444 1944.00
95.5092 1942.00
95.5744 1880.00
95.6396 1892.00
95.7048 1960.00
95.77 1918.00
95.8352 1985.00
95.9004 1957.00
95.9656 2043.00
96.0308 1986.00
96.096 1993.00
96.1612 2025.00
96.2264 1965.00
96.2916 1954.00
96.3568 2007.00
96.422 2021.00
96.4872 1965.00
96.5524 1908.00
96.6176 1885.00
96.6828 1895.00
96.748 1912.00
96.8132 1946.00
96.8784 1977.00
96.9436 1970.00
97.0088 1938.00
97.074 1976.00
97.1392 1957.00
97.2044 1885.00
97.2696 1887.00
97.3348 1905.00
97.4 1903.00
97.4652 1919.00
97.5304 1975.00
97.5956 1904.00
97.6608 1991.00
97.726 1973.00
97.7912 1915.00
97.8564 1983.00
97.9216 1945.00
97.9868 1910.00
98.052 1961.00
98.1172 1938.00
98.1824 1922.00
98.2476 1889.00
98.3128 1841.00
98.378 1906.00
98.4432 1919.00
98.5084 1906.00
98.5736 1944.00
98.6388 1967.00
98.704 1922.00
98.7692 1955.00
98.8344 1928.00
98.8996 1894.00
98.9648 1997.00
99.03 1931.00
99.0952 1943.00
99.1604 1944.00
99.2256 1889.00
99.2908 1946.00
99.356 1925.00
99.4212 1989.00
99.4864 1805.00
99.5516 1885.00
99.6168 1857.00
99.682 1897.00
99.7472 1917.00
99.8124 1999.00
99.8776 1848.00
99.9428 1903.00
100.008 1921.00
100.073 1932.00
100.095 1917.00