File: data/xrd_creation/results/MINES_3.xy
9.903433 4785.00
9.968632 4816.00
10.0338 4666.00
10.099 4801.00
10.1642 4717.00
10.2294 4665.00
10.2946 4668.00
10.3598 4580.00
10.425 4699.00
10.4902 4686.00
10.5554 4553.00
10.6206 4591.00
10.6858 4637.00
10.751 4649.00
10.8162 4586.00
10.8814 4419.00
10.9466 4657.00
11.0118 4557.00
11.077 4563.00
11.1422 4479.00
11.2074 4543.00
11.2726 4607.00
11.3378 4370.00
11.403 4448.00
11.4682 4634.00
11.5334 4545.00
11.5986 4557.00
11.6638 4486.00
11.729 4421.00
11.7942 4469.00
11.8594 4495.00
11.9246 4378.00
11.9898 4500.00
12.055 4422.00
12.1202 4482.00
12.1854 4519.00
12.2506 4381.00
12.3158 4536.00
12.381 4601.00
12.4462 4570.00
12.5114 4582.00
12.5766 4364.00
12.6418 4414.00
12.707 4434.00
12.7722 4265.00
12.8374 4349.00
12.9026 4432.00
12.9678 4363.00
13.033 4398.00
13.0982 4331.00
13.1634 4260.00
13.2286 4296.00
13.2938 4206.00
13.359 4456.00
13.4242 4280.00
13.4894 4219.00
13.5546 4442.00
13.6198 4293.00
13.685 4249.00
13.7502 4351.00
13.8154 4150.00
13.8805 4208.00
13.9457 4326.00
14.0109 4327.00
14.0761 4284.00
14.1413 4299.00
14.2065 4433.00
14.2717 4514.00
14.3369 4897.00
14.4021 5096.00
14.4673 5390.00
14.5325 5200.00
14.5977 4421.00
14.6629 4327.00
14.7281 4394.00
14.7933 4339.00
14.8585 4280.00
14.9237 4262.00
14.9889 4211.00
15.0541 4191.00
15.1193 4263.00
15.1845 4195.00
15.2497 4427.00
15.3149 4273.00
15.3801 4352.00
15.4453 4454.00
15.5105 4280.00
15.5757 4468.00
15.6409 4406.00
15.7061 4286.00
15.7713 4265.00
15.8365 4192.00
15.9017 4038.00
15.9669 4125.00
16.0321 4247.00
16.0973 4271.00
16.1625 4141.00
16.2277 4206.00
16.2929 4254.00
16.3581 4307.00
16.4233 4153.00
16.4885 4461.00
16.5537 4419.00
16.6189 4650.00
16.6841 4774.00
16.7493 4526.00
16.8145 4292.00
16.8797 4173.00
16.9449 4137.00
17.0101 4132.00
17.0753 4006.00
17.1405 4200.00
17.2057 4192.00
17.2709 4186.00
17.3361 4099.00
17.4013 4238.00
17.4665 4182.00
17.5317 4131.00
17.5969 4013.00
17.6621 4068.00
17.7273 4096.00
17.7925 4115.00
17.8577 4106.00
17.9229 4101.00
17.9881 3938.00
18.0533 4161.00
18.1185 4083.00
18.1837 4128.00
18.2489 4109.00
18.3141 4169.00
18.3793 4064.00
18.4445 4132.00
18.5097 4059.00
18.5749 3979.00
18.6401 4191.00
18.7052 4122.00
18.7704 4050.00
18.8356 4118.00
18.9008 4097.00
18.966 3994.00
19.0312 4092.00
19.0964 3962.00
19.1616 4151.00
19.2268 3989.00
19.292 3979.00
19.3572 4081.00
19.4224 4158.00
19.4876 4118.00
19.5528 4337.00
19.618 4554.00
19.6832 4468.00
19.7484 4728.00
19.8136 4457.00
19.8788 4404.00
19.944 4221.00
20.0092 4070.00
20.0744 4164.00
20.1396 4174.00
20.2048 4444.00
20.27 4743.00
20.3352 5037.00
20.4004 4570.00
20.4656 4081.00
20.5308 4103.00
20.596 4165.00
20.6612 4266.00
20.7264 4477.00
20.7916 4869.00
20.8568 5180.00
20.922 5323.00
20.9872 5220.00
21.0524 5266.00
21.1176 5119.00
21.1828 4497.00
21.248 4220.00
21.3132 3970.00
21.3784 3956.00
21.4436 3846.00
21.5088 3947.00
21.574 3950.00
21.6392 3908.00
21.7044 3941.00
21.7696 3839.00
21.8348 3927.00
21.9 3811.00
21.9652 3924.00
22.0304 3872.00
22.0956 3992.00
22.1608 3891.00
22.226 3848.00
22.2912 3879.00
22.3564 3838.00
22.4216 3929.00
22.4868 3838.00
22.552 3873.00
22.6172 3879.00
22.6824 4003.00
22.7476 3872.00
22.8128 3997.00
22.878 4144.00
22.9432 4123.00
23.0084 4368.00
23.0736 4582.00
23.1388 4556.00
23.204 4474.00
23.2692 4569.00
23.3344 4429.00
23.3996 4107.00
23.4647 3940.00
23.5299 3877.00
23.5951 3785.00
23.6603 3872.00
23.7255 4022.00
23.7907 3927.00
23.8559 4092.00
23.9211 4553.00
23.9863 5329.00
24.0515 6940.00
24.1167 7612.00
24.1819 5795.00
24.2471 4401.00
24.3123 4285.00
24.3775 4785.00
24.4427 5225.00
24.5079 5597.00
24.5731 5872.00
24.6383 6279.00
24.7035 5412.00
24.7687 4410.00
24.8339 4169.00
24.8991 4357.00
24.9643 4675.00
25.0295 5741.00
25.0947 7881.00
25.1599 9369.00
25.2251 6905.00
25.2903 4791.00
25.3555 4203.00
25.4207 4658.00
25.4859 5115.00
25.5511 6150.00
25.6163 7070.00
25.6815 7579.00
25.7467 8073.00
25.8119 8648.00
25.8771 8161.00
25.9423 7777.00
26.0075 7325.00
26.0727 6429.00
26.1379 5476.00
26.2031 4938.00
26.2683 4562.00
26.3335 4412.00
26.3987 4291.00
26.4639 4389.00
26.5291 4514.00
26.5943 4880.00
26.6595 5652.00
26.7247 7504.00
26.7899 9781.00
26.8551 11513.00
26.9203 9990.00
26.9855 6541.00
27.0507 4548.00
27.1159 3924.00
27.1811 3924.00
27.2463 3740.00
27.3115 3790.00
27.3767 3811.00
27.4419 3702.00
27.5071 3675.00
27.5723 3870.00
27.6375 3903.00
27.7027 3847.00
27.7679 3752.00
27.8331 3740.00
27.8983 3676.00
27.9635 3807.00
28.0287 3836.00
28.0939 3729.00
28.1591 3670.00
28.2243 3741.00
28.2894 3790.00
28.3546 3711.00
28.4198 3738.00
28.485 3829.00
28.5502 4001.00
28.6154 3996.00
28.6806 3838.00
28.7458 3889.00
28.811 3771.00
28.8762 3768.00
28.9414 3745.00
29.0066 3708.00
29.0718 3674.00
29.137 3708.00
29.2022 3565.00
29.2674 3660.00
29.3326 3563.00
29.3978 3692.00
29.463 3662.00
29.5282 3733.00
29.5934 3678.00
29.6586 3719.00
29.7238 3732.00
29.789 3797.00
29.8542 3643.00
29.9194 3736.00
29.9846 3748.00
30.0498 4112.00
30.115 4924.00
30.1802 6291.00
30.2454 6806.00
30.3106 5591.00
30.3758 4313.00
30.441 3916.00
30.5062 3813.00
30.5714 4105.00
30.6366 4307.00
30.7018 4090.00
30.767 3824.00
30.8322 3803.00
30.8974 4029.00
30.9626 4043.00
31.0278 4073.00
31.093 3816.00
31.1582 3713.00
31.2234 3576.00
31.2886 3651.00
31.3538 3633.00
31.419 3763.00
31.4842 3839.00
31.5494 4364.00
31.6146 5105.00
31.6798 5460.00
31.745 4725.00
31.8102 4013.00
31.8754 3696.00
31.9406 3699.00
32.0058 3684.00
32.071 3713.00
32.1362 3630.00
32.2014 3625.00
32.2666 3601.00
32.3318 3632.00
32.397 3625.00
32.4622 3768.00
32.5274 3583.00
32.5926 3553.00
32.6578 3604.00
32.723 3615.00
32.7882 3661.00
32.8534 3947.00
32.9186 3839.00
32.9838 3775.00
33.0489 3755.00
33.1141 3707.00
33.1793 3829.00
33.2445 3701.00
33.3097 4342.00
33.3749 5561.00
33.4401 7411.00
33.5053 7406.00
33.5705 5516.00
33.6357 4103.00
33.7009 3639.00
33.7661 3654.00
33.8313 3671.00
33.8965 3497.00
33.9617 3485.00
34.0269 3562.00
34.0921 3511.00
34.1573 3435.00
34.2225 3567.00
34.2877 3579.00
34.3529 3601.00
34.4181 3760.00
34.4833 3632.00
34.5485 3546.00
34.6137 3631.00
34.6789 3547.00
34.7441 3537.00
34.8093 3549.00
34.8745 3486.00
34.9397 3552.00
35.0049 3605.00
35.0701 3541.00
35.1353 3596.00
35.2005 3536.00
35.2657 3328.00
35.3309 3484.00
35.3961 3463.00
35.4613 3588.00
35.5265 3498.00
35.5917 3609.00
35.6569 3564.00
35.7221 3772.00
35.7873 4255.00
35.8525 5547.00
35.9177 7085.00
35.9829 6856.00
36.0481 6038.00
36.1133 4670.00
36.1785 3957.00
36.2437 3774.00
36.3089 3826.00
36.3741 4134.00
36.4393 4635.00
36.5045 4475.00
36.5697 4248.00
36.6349 3962.00
36.7001 3948.00
36.7653 3867.00
36.8305 3668.00
36.8957 3606.00
36.9609 3581.00
37.0261 3492.00
37.0913 3446.00
37.1565 3539.00
37.2217 3424.00
37.2869 3509.00
37.3521 3528.00
37.4173 3616.00
37.4825 3476.00
37.5477 3677.00
37.6129 3915.00
37.6781 4271.00
37.7433 4552.00
37.8085 4708.00
37.8736 5102.00
37.9388 4955.00
38.004 4595.00
38.0692 3908.00
38.1344 3881.00
38.1996 3579.00
38.2648 3662.00
38.33 3703.00
38.3952 3949.00
38.4604 4311.00
38.5256 4313.00
38.5908 3982.00
38.656 3667.00
38.7212 3567.00
38.7864 3455.00
38.8516 3505.00
38.9168 3433.00
38.982 3416.00
39.0472 3343.00
39.1124 3469.00
39.1776 3509.00
39.2428 3545.00
39.308 3522.00
39.3732 3582.00
39.4384 3716.00
39.5036 4139.00
39.5688 4301.00
39.634 4290.00
39.6992 4271.00
39.7644 4005.00
39.8296 3842.00
39.8948 3733.00
39.96 3626.00
40.0252 3646.00
40.0904 3613.00
40.1556 3549.00
40.2208 3560.00
40.286 3635.00
40.3512 3578.00
40.4164 3524.00
40.4816 3525.00
40.5468 3494.00
40.612 3539.00
40.6772 3440.00
40.7424 3422.00
40.8076 3449.00
40.8728 3368.00
40.938 3589.00
41.0032 3656.00
41.0684 3866.00
41.1336 4240.00
41.1988 3997.00
41.264 3934.00
41.3292 3477.00
41.3944 3462.00
41.4596 3468.00
41.5248 3294.00
41.59 3422.00
41.6552 3434.00
41.7204 3467.00
41.7856 3440.00
41.8508 3306.00
41.916 3319.00
41.9812 3379.00
42.0464 3344.00
42.1116 3451.00
42.1768 3444.00
42.242 3484.00
42.3072 3482.00
42.3724 3630.00
42.4376 3994.00
42.5028 4044.00
42.568 3873.00
42.6332 3808.00
42.6983 3455.00
42.7635 3481.00
42.8287 3467.00
42.8939 3433.00
42.9591 3475.00
43.0243 3615.00
43.0895 3905.00
43.1547 3913.00
43.2199 3904.00
43.2851 3714.00
43.3503 3657.00
43.4155 3669.00
43.4807 3698.00
43.5459 3636.00
43.6111 3608.00
43.6763 3640.00
43.7415 3657.00
43.8067 3551.00
43.8719 3507.00
43.9371 3433.00
44.0023 3349.00
44.0675 3610.00
44.1327 3505.00
44.1979 3606.00
44.2631 3757.00
44.3283 3687.00
44.3935 3576.00
44.4587 3457.00
44.5239 3322.00
44.5891 3412.00
44.6543 3307.00
44.7195 3459.00
44.7847 3398.00
44.8499 3276.00
44.9151 3320.00
44.9803 3337.00
45.0455 3362.00
45.1107 3413.00
45.1759 3441.00
45.2411 3494.00
45.3063 3617.00
45.3715 3516.00
45.4367 3436.00
45.5019 3492.00
45.5671 3554.00
45.6323 3593.00
45.6975 3552.00
45.7627 3660.00
45.8279 3639.00
45.8931 3639.00
45.9583 3652.00
46.0235 3698.00
46.0887 3720.00
46.1539 3630.00
46.2191 3597.00
46.2843 3756.00
46.3495 3957.00
46.4147 4149.00
46.4799 3882.00
46.5451 3795.00
46.6103 3481.00
46.6755 3377.00
46.7407 3398.00
46.8059 3345.00
46.8711 3319.00
46.9363 3450.00
47.0015 3349.00
47.0667 3369.00
47.1319 3509.00
47.1971 3402.00
47.2623 3499.00
47.3275 3339.00
47.3927 3372.00
47.4579 3430.00
47.523 3534.00
47.5882 3613.00
47.6534 3692.00
47.7186 3965.00
47.7838 3964.00
47.849 3811.00
47.9142 3640.00
47.9794 3670.00
48.0446 3600.00
48.1098 3573.00
48.175 3572.00
48.2402 3582.00
48.3054 3644.00
48.3706 3736.00
48.4358 3631.00
48.501 3701.00
48.5662 3747.00
48.6314 3781.00
48.6966 3751.00
48.7618 3746.00
48.827 3718.00
48.8922 3640.00
48.9574 3787.00
49.0226 3551.00
49.0878 3535.00
49.153 3647.00
49.2182 3560.00
49.2834 3405.00
49.3486 3489.00
49.4138 3509.00
49.479 3600.00
49.5442 3629.00
49.6094 3990.00
49.6746 4332.00
49.7398 4861.00
49.805 4393.00
49.8702 4107.00
49.9354 3822.00
50.0006 3609.00
50.0658 3701.00
50.131 3884.00
50.1962 3929.00
50.2614 4136.00
50.3266 4042.00
50.3918 3848.00
50.457 3691.00
50.5222 3537.00
50.5874 3284.00
50.6526 3444.00
50.7178 3496.00
50.783 3657.00
50.8482 3613.00
50.9134 3578.00
50.9786 3400.00
51.0438 3506.00
51.109 3256.00
51.1742 3360.00
51.2394 3316.00
51.3046 3371.00
51.3698 3443.00
51.435 3408.00
51.5002 3382.00
51.5654 3389.00
51.6306 3270.00
51.6958 3277.00
51.761 3357.00
51.8262 3225.00
51.8914 3380.00
51.9566 3214.00
52.0218 3245.00
52.087 3308.00
52.1522 3292.00
52.2174 3316.00
52.2826 3419.00
52.3477 3295.00
52.4129 3265.00
52.4781 3341.00
52.5433 3339.00
52.6085 3280.00
52.6737 3256.00
52.7389 3432.00
52.8041 3446.00
52.8693 3290.00
52.9345 3384.00
52.9997 3343.00
53.0649 3397.00
53.1301 3416.00
53.1953 3337.00
53.2605 3407.00
53.3257 3251.00
53.3909 3322.00
53.4561 3298.00
53.5213 3329.00
53.5865 3256.00
53.6517 3388.00
53.7169 3291.00
53.7821 3265.00
53.8473 3342.00
53.9125 3409.00
53.9777 3554.00
54.0429 3435.00
54.1081 3573.00
54.1733 3719.00
54.2385 4152.00
54.3037 4719.00
54.3689 5091.00
54.4341 4425.00
54.4993 4122.00
54.5645 3772.00
54.6297 3511.00
54.6949 3547.00
54.7601 3455.00
54.8253 3342.00
54.8905 3421.00
54.9557 3352.00
55.0209 3430.00
55.0861 3374.00
55.1513 3508.00
55.2165 3359.00
55.2817 3342.00
55.3469 3310.00
55.4121 3376.00
55.4773 3363.00
55.5425 3418.00
55.6077 3373.00
55.6729 3374.00
55.7381 3456.00
55.8033 3363.00
55.8685 3363.00
55.9337 3497.00
55.9989 3429.00
56.0641 3533.00
56.1293 3580.00
56.1945 3533.00
56.2597 3658.00
56.3249 3557.00
56.3901 3590.00
56.4553 3703.00
56.5205 3933.00
56.5857 4078.00
56.6509 4020.00
56.7161 4143.00
56.7813 3830.00
56.8465 3726.00
56.9117 3632.00
56.9769 3433.00
57.042 3441.00
57.1073 3411.00
57.1724 3353.00
57.2376 3398.00
57.3028 3398.00
57.368 3243.00
57.4332 3387.00
57.4984 3293.00
57.5636 3555.00
57.6288 3743.00
57.694 4013.00
57.7592 4007.00
57.8244 3960.00
57.8896 3891.00
57.9548 3762.00
58.02 3517.00
58.0852 3453.00
58.1504 3296.00
58.2156 3318.00
58.2808 3302.00
58.346 3269.00
58.4112 3162.00
58.4764 3257.00
58.5416 3320.00
58.6068 3189.00
58.672 3368.00
58.7372 3194.00
58.8024 3221.00
58.8676 3244.00
58.9328 3315.00
58.998 3339.00
59.0632 3301.00
59.1284 3363.00
59.1936 3356.00
59.2588 3431.00
59.324 3438.00
59.3892 3458.00
59.4544 3505.00
59.5196 3422.00
59.5848 3379.00
59.65 3475.00
59.7152 3554.00
59.7804 3467.00
59.8456 3661.00
59.9108 3627.00
59.976 3574.00
60.0412 3761.00
60.1064 3653.00
60.1716 3527.00
60.2368 3512.00
60.302 3447.00
60.3672 3349.00
60.4324 3418.00
60.4976 3364.00
60.5628 3323.00
60.628 3413.00
60.6932 3587.00
60.7584 3635.00
60.8236 3668.00
60.8888 3535.00
60.954 3520.00
61.0192 3485.00
61.0844 3442.00
61.1496 3651.00
61.2148 3652.00
61.28 3542.00
61.3452 3632.00
61.4104 3559.00
61.4756 3530.00
61.5408 3399.00
61.606 3419.00
61.6712 3463.00
61.7364 3362.00
61.8016 3423.00
61.8667 3388.00
61.932 3322.00
61.9971 3320.00
62.0623 3393.00
62.1275 3307.00
62.1927 3365.00
62.2579 3376.00
62.3231 3435.00
62.3883 3375.00
62.4535 3501.00
62.5187 3704.00
62.5839 3911.00
62.6491 4214.00
62.7143 4462.00
62.7795 4156.00
62.8447 4027.00
62.9099 3899.00
62.9751 3547.00
63.0403 3468.00
63.1055 3347.00
63.1707 3459.00
63.2359 3566.00
63.3011 3902.00
63.3663 3908.00
63.4315 3805.00
63.4967 3620.00
63.5619 3668.00
63.6271 3502.00
63.6923 3576.00
63.7575 3592.00
63.8227 3637.00
63.8879 3586.00
63.9531 3574.00
64.0183 3689.00
64.0835 3896.00
64.1487 4056.00
64.2139 4323.00
64.2791 4251.00
64.3443 3972.00
64.4095 4048.00
64.4747 3732.00
64.5399 3564.00
64.6051 3480.00
64.6703 3491.00
64.7355 3442.00
64.8007 3593.00
64.8659 3709.00
64.9311 3720.00
64.9963 3583.00
65.0615 3708.00
65.1267 3676.00
65.1919 3504.00
65.2571 3393.00
65.3223 3471.00
65.3875 3406.00
65.4527 3403.00
65.5179 3430.00
65.5831 3395.00
65.6483 3510.00
65.7135 3532.00
65.7787 3536.00
65.8439 3751.00
65.9091 3641.00
65.9743 3429.00
66.0395 3531.00
66.1047 3486.00
66.1699 3326.00
66.2351 3296.00
66.3003 3393.00
66.3655 3412.00
66.4307 3381.00
66.4959 3327.00
66.561 3306.00
66.6263 3421.00
66.6915 3374.00
66.7566 3423.00
66.8218 3577.00
66.887 3515.00
66.9522 3629.00
67.0174 3552.00
67.0826 3507.00
67.1478 3431.00
67.213 3648.00
67.2782 3516.00
67.3434 3648.00
67.4086 3677.00
67.4738 3635.00
67.539 3599.00
67.6042 3493.00
67.6694 3510.00
67.7346 3504.00
67.7998 3649.00
67.865 3596.00
67.9302 3632.00
67.9954 3558.00
68.0606 3712.00
68.1258 3661.00
68.191 3688.00
68.2562 3773.00
68.3214 3683.00
68.3866 3703.00
68.4518 3799.00
68.517 3813.00
68.5822 3611.00
68.6474 3637.00
68.7126 3631.00
68.7778 3485.00
68.843 3523.00
68.9082 3501.00
68.9734 3527.00
69.0386 3545.00
69.1038 3542.00
69.169 3504.00
69.2342 3777.00
69.2994 3749.00
69.3646 3641.00
69.4298 3799.00
69.495 3631.00
69.5602 3549.00
69.6254 3446.00
69.6906 3490.00
69.7558 3331.00
69.821 3515.00
69.8862 3506.00
69.9514 3371.00
70.0166 3411.00
70.0818 3223.00
70.147 3310.00
70.2122 3275.00
70.2774 3373.00
70.3426 3318.00
70.4078 3403.00
70.473 3495.00
70.5382 3529.00
70.6034 3572.00
70.6686 3492.00
70.7338 3591.00
70.799 3368.00
70.8642 3441.00
70.9294 3434.00
70.9946 3351.00
71.0598 3314.00
71.125 3430.00
71.1902 3248.00
71.2554 3403.00
71.3205 3278.00
71.3858 3320.00
71.451 3324.00
71.5162 3296.00
71.5813 3366.00
71.6465 3270.00
71.7117 3377.00
71.7769 3405.00
71.8421 3279.00
71.9073 3356.00
71.9725 3450.00
72.0377 3419.00
72.1029 3484.00
72.1681 3663.00
72.2333 3737.00
72.2985 3681.00
72.3637 3484.00
72.4289 3450.00
72.4941 3520.00
72.5593 3389.00
72.6245 3459.00
72.6897 3306.00
72.7549 3418.00
72.8201 3323.00
72.8853 3276.00
72.9505 3392.00
73.0157 3317.00
73.0809 3334.00
73.1461 3299.00
73.2113 3265.00
73.2765 3178.00
73.3417 3452.00
73.4069 3358.00
73.4721 3309.00
73.5373 3383.00
73.6025 3373.00
73.6677 3342.00
73.7329 3237.00
73.7981 3395.00
73.8633 3350.00
73.9285 3311.00
73.9937 3254.00
74.0589 3294.00
74.1241 3316.00
74.1893 3305.00
74.2545 3325.00
74.3197 3338.00
74.3849 3295.00
74.4501 3352.00
74.5153 3356.00
74.5805 3228.00
74.6457 3236.00
74.7109 3289.00
74.7761 3375.00
74.8413 3305.00
74.9065 3340.00
74.9717 3331.00
75.0369 3303.00
75.1021 3284.00
75.1673 3359.00
75.2325 3414.00
75.2977 3321.00
75.3629 3357.00
75.4281 3358.00
75.4933 3530.00
75.5585 3469.00
75.6237 3512.00
75.6889 3533.00
75.7541 3561.00
75.8193 3484.00
75.8845 3475.00
75.9497 3388.00
76.0149 3382.00
76.0801 3418.00
76.1452 3348.00
76.2104 3438.00
76.2756 3516.00
76.3409 3461.00
76.406 3481.00
76.4712 3517.00
76.5364 3538.00
76.6016 3446.00
76.6668 3515.00
76.732 3405.00
76.7972 3422.00
76.8624 3444.00
76.9276 3331.00
76.9928 3396.00
77.058 3380.00
77.1232 3286.00
77.1884 3521.00
77.2536 3264.00
77.3188 3389.00
77.384 3339.00
77.4492 3332.00
77.5144 3412.00
77.5796 3371.00
77.6448 3433.00
77.71 3368.00
77.7752 3421.00
77.8404 3425.00
77.9056 3335.00
77.9708 3429.00
78.036 3451.00
78.1012 3359.00
78.1664 3293.00
78.2316 3365.00
78.2968 3464.00
78.362 3502.00
78.4272 3404.00
78.4924 3391.00
78.5576 3440.00
78.6228 3295.00
78.688 3375.00
78.7532 3259.00
78.8184 3213.00
78.8836 3310.00
78.9488 3294.00
79.014 3335.00
79.0792 3375.00
79.1444 3425.00
79.2096 3365.00
79.2748 3342.00
79.34 3313.00
79.4052 3380.00
79.4704 3308.00
79.5356 3351.00
79.6008 3380.00
79.666 3433.00
79.7312 3305.00
79.7964 3327.00
79.8616 3302.00
79.9268 3456.00
79.992 3323.00
80.0572 3332.00
80.1224 3364.00
80.1876 3417.00
80.2528 3319.00
80.318 3375.00
80.3832 3423.00
80.4484 3431.00
80.5136 3291.00
80.5788 3332.00
80.644 3279.00
80.7092 3394.00
80.7744 3444.00
80.8396 3409.00
80.9048 3341.00
80.9699 3480.00
81.0351 3527.00
81.1003 3401.00
81.1655 3453.00
81.2307 3442.00
81.2959 3465.00
81.3611 3447.00
81.4263 3403.00
81.4915 3320.00
81.5567 3426.00
81.6219 3246.00
81.6871 3301.00
81.7523 3319.00
81.8175 3389.00
81.8827 3342.00
81.9479 3348.00
82.0131 3349.00
82.0783 3363.00
82.1435 3379.00
82.2087 3249.00
82.2739 3214.00
82.3391 3318.00
82.4043 3222.00
82.4695 3271.00
82.5347 3150.00
82.5999 3259.00
82.6651 3233.00
82.7303 3255.00
82.7955 3251.00
82.8607 3184.00
82.9259 3402.00
82.9911 3296.00
83.0563 3220.00
83.1215 3355.00
83.1867 3320.00
83.2519 3324.00
83.3171 3430.00
83.3823 3412.00
83.4475 3340.00
83.5127 3308.00
83.5779 3200.00
83.6431 3290.00
83.7083 3408.00
83.7735 3232.00
83.8387 3214.00
83.9039 3097.00
83.9691 3217.00
84.0343 3214.00
84.0995 3193.00
84.1647 3233.00
84.2299 3260.00
84.2951 3350.00
84.3603 3273.00
84.4255 3270.00
84.4907 3240.00
84.5559 3280.00
84.6211 3211.00
84.6863 3327.00
84.7515 3309.00
84.8167 3330.00
84.8819 3245.00
84.9471 3273.00
85.0123 3413.00
85.0775 3478.00
85.1427 3468.00
85.2079 3500.00
85.2731 3317.00
85.3383 3454.00
85.4035 3340.00
85.4687 3333.00
85.5339 3340.00
85.5991 3329.00
85.6643 3298.00
85.7295 3246.00
85.7946 3371.00
85.8598 3295.00
85.925 3262.00
85.9903 3186.00
86.0554 3222.00
86.1206 3240.00
86.1858 3203.00
86.251 3262.00
86.3162 3276.00
86.3814 3205.00
86.4466 3241.00
86.5118 3266.00
86.577 3257.00
86.6422 3253.00
86.7074 3364.00
86.7726 3217.00
86.8378 3256.00
86.903 3242.00
86.9682 3209.00
87.0334 3172.00
87.0986 3225.00
87.1638 3245.00
87.229 3226.00
87.2942 3392.00
87.3594 3291.00
87.4246 3264.00
87.4898 3294.00
87.555 3289.00
87.6202 3343.00
87.6854 3326.00
87.7506 3285.00
87.8158 3381.00
87.881 3370.00
87.9462 3259.00
88.0114 3239.00
88.0766 3380.00
88.1418 3338.00
88.207 3392.00
88.2722 3276.00
88.3374 3416.00
88.4026 3316.00
88.4678 3283.00
88.533 3348.00
88.5982 3316.00
88.6634 3394.00
88.7286 3484.00
88.7938 3405.00
88.859 3555.00
88.9242 3333.00
88.9894 3259.00
89.0546 3335.00
89.1198 3339.00
89.185 3262.00
89.2502 3235.00
89.3154 3181.00
89.3806 3341.00
89.4458 3381.00
89.511 3231.00
89.5762 3296.00
89.6414 3326.00
89.7066 3369.00
89.7718 3233.00
89.837 3186.00
89.9022 3323.00
89.9674 3218.00
90.0326 3286.00
90.0978 3236.00
90.163 3219.00
90.2282 3178.00
90.2934 3214.00
90.3586 3299.00
90.4238 3261.00
90.489 3276.00
90.5542 3343.00
90.6193 3218.00
90.6845 3395.00
90.7497 3438.00
90.8149 3406.00
90.8801 3256.00
90.9453 3250.00
91.0105 3372.00
91.0757 3177.00
91.1409 3224.00
91.2061 3212.00
91.2713 3247.00
91.3365 3263.00
91.4017 3238.00
91.4669 3165.00
91.5321 3230.00
91.5973 3323.00
91.6625 3235.00
91.7277 3318.00
91.7929 3189.00
91.8581 3355.00
91.9233 3249.00
91.9885 3232.00
92.0537 3292.00
92.1189 3231.00
92.1841 3328.00
92.2493 3255.00
92.3145 3254.00
92.3797 3158.00
92.4449 3269.00
92.5101 3243.00
92.5753 3301.00
92.6405 3327.00
92.7057 3219.00
92.7709 3185.00
92.8361 3280.00
92.9013 3280.00
92.9665 3269.00
93.0317 3134.00
93.0969 3244.00
93.1621 3274.00
93.2273 3375.00
93.2925 3241.00
93.3577 3309.00
93.4229 3387.00
93.4881 3237.00
93.5533 3371.00
93.6185 3308.00
93.6837 3295.00
93.7489 3281.00
93.8141 3345.00
93.8793 3477.00
93.9445 3560.00
94.0097 3559.00
94.0749 3446.00
94.1401 3434.00
94.2053 3395.00
94.2705 3289.00
94.3357 3370.00
94.4009 3400.00
94.4661 3456.00
94.5313 3235.00
94.5965 3432.00
94.6617 3295.00
94.7269 3357.00
94.7921 3330.00
94.8573 3295.00
94.9225 3349.00
94.9877 3279.00
95.0529 3286.00
95.1181 3460.00
95.1833 3354.00
95.2485 3289.00
95.3137 3256.00
95.3789 3143.00
95.444 3411.00
95.5092 3377.00
95.5744 3369.00
95.6396 3337.00
95.7048 3247.00
95.77 3393.00
95.8352 3353.00
95.9004 3390.00
95.9656 3371.00
96.0308 3285.00
96.096 3420.00
96.1612 3336.00
96.2264 3376.00
96.2916 3358.00
96.3568 3308.00
96.422 3283.00
96.4872 3258.00
96.5524 3347.00
96.6176 3162.00
96.6828 3202.00
96.748 3418.00
96.8132 3253.00
96.8784 3277.00
96.9436 3320.00
97.0088 3337.00
97.074 3365.00
97.1392 3308.00
97.2044 3251.00
97.2696 3243.00
97.3348 3285.00
97.4 3298.00
97.4652 3305.00
97.5304 3306.00
97.5956 3286.00
97.6608 3311.00
97.726 3215.00
97.7912 3289.00
97.8564 3147.00
97.9216 3235.00
97.9868 3394.00
98.052 3308.00
98.1172 3360.00
98.1824 3307.00
98.2476 3248.00
98.3128 3286.00
98.378 3314.00
98.4432 3333.00
98.5084 3331.00
98.5736 3238.00
98.6388 3303.00
98.704 3317.00
98.7692 3277.00
98.8344 3238.00
98.8996 3356.00
98.9648 3241.00
99.03 3269.00
99.0952 3267.00
99.1604 3300.00
99.2256 3240.00
99.2908 3357.00
99.356 3238.00
99.4212 3214.00
99.4864 3299.00
99.5516 3290.00
99.6168 3277.00
99.682 3225.00
99.7472 3215.00
99.8124 3262.00
99.8776 3301.00
99.9428 3249.00
100.008 3220.00
100.073 3286.00
100.095 3185.00