File: data/xrd_creation/results/MINES_11.xy
9.903433 2581.00
9.968632 2703.00
10.0338 2688.00
10.099 2658.00
10.1642 2499.00
10.2294 2556.00
10.2946 2542.00
10.3598 2478.00
10.425 2447.00
10.4902 2391.00
10.5554 2466.00
10.6206 2407.00
10.6858 2234.00
10.751 2250.00
10.8162 2289.00
10.8814 2313.00
10.9466 2297.00
11.0118 2282.00
11.077 2195.00
11.1422 2222.00
11.2074 2166.00
11.2726 2073.00
11.3378 2203.00
11.403 2074.00
11.4682 2116.00
11.5334 2106.00
11.5986 2048.00
11.6638 2027.00
11.729 2049.00
11.7942 2013.00
11.8594 2024.00
11.9246 1875.00
11.9898 1908.00
12.055 1931.00
12.1202 1960.00
12.1854 1885.00
12.2506 1894.00
12.3158 1937.00
12.381 1859.00
12.4462 1826.00
12.5114 1883.00
12.5766 1886.00
12.6418 1806.00
12.707 1752.00
12.7722 1728.00
12.8374 1768.00
12.9026 1725.00
12.9678 1752.00
13.033 1684.00
13.0982 1704.00
13.1634 1647.00
13.2286 1657.00
13.2938 1638.00
13.359 1563.00
13.4242 1628.00
13.4894 1605.00
13.5546 1512.00
13.6198 1534.00
13.685 1570.00
13.7502 1597.00
13.8154 1514.00
13.8805 1488.00
13.9457 1570.00
14.0109 1456.00
14.0761 1482.00
14.1413 1450.00
14.2065 1453.00
14.2717 1490.00
14.3369 1432.00
14.4021 1435.00
14.4673 1501.00
14.5325 1450.00
14.5977 1458.00
14.6629 1453.00
14.7281 1466.00
14.7933 1362.00
14.8585 1506.00
14.9237 1505.00
14.9889 1425.00
15.0541 1443.00
15.1193 1387.00
15.1845 1416.00
15.2497 1415.00
15.3149 1467.00
15.3801 1464.00
15.4453 1449.00
15.5105 1386.00
15.5757 1350.00
15.6409 1346.00
15.7061 1317.00
15.7713 1358.00
15.8365 1376.00
15.9017 1297.00
15.9669 1284.00
16.0321 1325.00
16.0973 1297.00
16.1625 1300.00
16.2277 1370.00
16.2929 1365.00
16.3581 1379.00
16.4233 1292.00
16.4885 1389.00
16.5537 1267.00
16.6189 1279.00
16.6841 1313.00
16.7493 1203.00
16.8145 1198.00
16.8797 1224.00
16.9449 1224.00
17.0101 1290.00
17.0753 1179.00
17.1405 1258.00
17.2057 1188.00
17.2709 1169.00
17.3361 1171.00
17.4013 1149.00
17.4665 1164.00
17.5317 1140.00
17.5969 1230.00
17.6621 1153.00
17.7273 1229.00
17.7925 1104.00
17.8577 1133.00
17.9229 1132.00
17.9881 1121.00
18.0533 1149.00
18.1185 1108.00
18.1837 1132.00
18.2489 1107.00
18.3141 1138.00
18.3793 1127.00
18.4445 1119.00
18.5097 1097.00
18.5749 1065.00
18.6401 1051.00
18.7052 1073.00
18.7704 1094.00
18.8356 1077.00
18.9008 1142.00
18.966 1126.00
19.0312 1091.00
19.0964 1147.00
19.1616 1153.00
19.2268 1210.00
19.292 1306.00
19.3572 1349.00
19.4224 1413.00
19.4876 1346.00
19.5528 1300.00
19.618 1233.00
19.6832 1074.00
19.7484 998.00
19.8136 1006.00
19.8788 1078.00
19.944 979.00
20.0092 998.00
20.0744 952.00
20.1396 997.00
20.2048 991.00
20.27 1054.00
20.3352 964.00
20.4004 1013.00
20.4656 1036.00
20.5308 1080.00
20.596 1115.00
20.6612 1178.00
20.7264 1165.00
20.7916 1116.00
20.8568 1102.00
20.922 1025.00
20.9872 917.00
21.0524 893.00
21.1176 994.00
21.1828 927.00
21.248 889.00
21.3132 950.00
21.3784 872.00
21.4436 869.00
21.5088 886.00
21.574 899.00
21.6392 833.00
21.7044 882.00
21.7696 845.00
21.8348 832.00
21.9 926.00
21.9652 839.00
22.0304 872.00
22.0956 886.00
22.1608 831.00
22.226 914.00
22.2912 892.00
22.3564 917.00
22.4216 835.00
22.4868 945.00
22.552 968.00
22.6172 1018.00
22.6824 1200.00
22.7476 1283.00
22.8128 1349.00
22.878 1291.00
22.9432 1298.00
23.0084 1208.00
23.0736 1092.00
23.1388 1034.00
23.204 968.00
23.2692 936.00
23.3344 825.00
23.3996 768.00
23.4647 819.00
23.5299 874.00
23.5951 941.00
23.6603 1100.00
23.7255 1282.00
23.7907 1240.00
23.8559 1104.00
23.9211 1035.00
23.9863 926.00
24.0515 900.00
24.1167 881.00
24.1819 930.00
24.2471 1011.00
24.3123 1046.00
24.3775 1011.00
24.4427 968.00
24.5079 968.00
24.5731 917.00
24.6383 993.00
24.7035 1106.00
24.7687 1383.00
24.8339 1449.00
24.8991 1342.00
24.9643 1208.00
25.0295 1196.00
25.0947 1346.00
25.1599 1559.00
25.2251 1954.00
25.2903 2143.00
25.3555 2232.00
25.4207 2372.00
25.4859 2658.00
25.5511 2924.00
25.6163 2970.00
25.6815 2933.00
25.7467 2442.00
25.8119 2045.00
25.8771 1618.00
25.9423 1349.00
26.0075 1061.00
26.0727 1004.00
26.1379 993.00
26.2031 997.00
26.2683 1169.00
26.3335 1341.00
26.3987 1560.00
26.4639 1690.00
26.5291 1733.00
26.5943 1427.00
26.6595 1245.00
26.7247 1019.00
26.7899 803.00
26.8551 800.00
26.9203 761.00
26.9855 724.00
27.0507 700.00
27.1159 709.00
27.1811 716.00
27.2463 683.00
27.3115 687.00
27.3767 712.00
27.4419 644.00
27.5071 709.00
27.5723 686.00
27.6375 668.00
27.7027 675.00
27.7679 721.00
27.8331 668.00
27.8983 725.00
27.9635 709.00
28.0287 657.00
28.0939 734.00
28.1591 769.00
28.2243 837.00
28.2894 843.00
28.3546 792.00
28.4198 761.00
28.485 767.00
28.5502 736.00
28.6154 689.00
28.6806 670.00
28.7458 605.00
28.811 623.00
28.8762 617.00
28.9414 619.00
29.0066 627.00
29.0718 602.00
29.137 620.00
29.2022 592.00
29.2674 632.00
29.3326 612.00
29.3978 624.00
29.463 588.00
29.5282 611.00
29.5934 625.00
29.6586 601.00
29.7238 646.00
29.789 611.00
29.8542 581.00
29.9194 663.00
29.9846 596.00
30.0498 545.00
30.115 549.00
30.1802 627.00
30.2454 605.00
30.3106 601.00
30.3758 600.00
30.441 633.00
30.5062 655.00
30.5714 597.00
30.6366 672.00
30.7018 631.00
30.767 609.00
30.8322 578.00
30.8974 548.00
30.9626 603.00
31.0278 551.00
31.093 532.00
31.1582 522.00
31.2234 561.00
31.2886 538.00
31.3538 511.00
31.419 567.00
31.4842 526.00
31.5494 573.00
31.6146 598.00
31.6798 585.00
31.745 612.00
31.8102 546.00
31.8754 578.00
31.9406 618.00
32.0058 600.00
32.071 542.00
32.1362 538.00
32.2014 553.00
32.2666 537.00
32.3318 521.00
32.397 511.00
32.4622 557.00
32.5274 532.00
32.5926 545.00
32.6578 581.00
32.723 550.00
32.7882 581.00
32.8534 536.00
32.9186 506.00
32.9838 536.00
33.0489 528.00
33.1141 481.00
33.1793 506.00
33.2445 522.00
33.3097 523.00
33.3749 527.00
33.4401 512.00
33.5053 481.00
33.5705 529.00
33.6357 485.00
33.7009 499.00
33.7661 511.00
33.8313 505.00
33.8965 501.00
33.9617 501.00
34.0269 501.00
34.0921 532.00
34.1573 557.00
34.2225 540.00
34.2877 487.00
34.3529 499.00
34.4181 492.00
34.4833 513.00
34.5485 520.00
34.6137 479.00
34.6789 467.00
34.7441 459.00
34.8093 486.00
34.8745 432.00
34.9397 509.00
35.0049 484.00
35.0701 455.00
35.1353 492.00
35.2005 480.00
35.2657 451.00
35.3309 511.00
35.3961 529.00
35.4613 483.00
35.5265 498.00
35.5917 453.00
35.6569 465.00
35.7221 462.00
35.7873 481.00
35.8525 490.00
35.9177 463.00
35.9829 462.00
36.0481 468.00
36.1133 485.00
36.1785 473.00
36.2437 502.00
36.3089 495.00
36.3741 486.00
36.4393 480.00
36.5045 444.00
36.5697 464.00
36.6349 437.00
36.7001 493.00
36.7653 395.00
36.8305 483.00
36.8957 493.00
36.9609 421.00
37.0261 437.00
37.0913 472.00
37.1565 470.00
37.2217 473.00
37.2869 532.00
37.3521 475.00
37.4173 482.00
37.4825 530.00
37.5477 586.00
37.6129 604.00
37.6781 583.00
37.7433 541.00
37.8085 483.00
37.8736 481.00
37.9388 530.00
38.004 471.00
38.0692 461.00
38.1344 481.00
38.1996 499.00
38.2648 531.00
38.33 429.00
38.3952 438.00
38.4604 418.00
38.5256 424.00
38.5908 378.00
38.656 446.00
38.7212 421.00
38.7864 395.00
38.8516 431.00
38.9168 409.00
38.982 397.00
39.0472 413.00
39.1124 454.00
39.1776 453.00
39.2428 554.00
39.308 521.00
39.3732 499.00
39.4384 524.00
39.5036 450.00
39.5688 407.00
39.634 471.00
39.6992 443.00
39.7644 460.00
39.8296 420.00
39.8948 416.00
39.96 390.00
40.0252 453.00
40.0904 411.00
40.1556 402.00
40.2208 418.00
40.286 392.00
40.3512 378.00
40.4164 386.00
40.4816 411.00
40.5468 354.00
40.612 332.00
40.6772 363.00
40.7424 401.00
40.8076 382.00
40.8728 409.00
40.938 344.00
41.0032 369.00
41.0684 375.00
41.1336 370.00
41.1988 362.00
41.264 396.00
41.3292 374.00
41.3944 355.00
41.4596 355.00
41.5248 346.00
41.59 377.00
41.6552 342.00
41.7204 340.00
41.7856 387.00
41.8508 349.00
41.916 369.00
41.9812 367.00
42.0464 347.00
42.1116 349.00
42.1768 360.00
42.242 332.00
42.3072 355.00
42.3724 308.00
42.4376 349.00
42.5028 364.00
42.568 333.00
42.6332 375.00
42.6983 352.00
42.7635 380.00
42.8287 405.00
42.8939 422.00
42.9591 417.00
43.0243 430.00
43.0895 434.00
43.1547 366.00
43.2199 356.00
43.2851 362.00
43.3503 393.00
43.4155 390.00
43.4807 366.00
43.5459 364.00
43.6111 349.00
43.6763 326.00
43.7415 314.00
43.8067 351.00
43.8719 362.00
43.9371 378.00
44.0023 390.00
44.0675 378.00
44.1327 405.00
44.1979 328.00
44.2631 390.00
44.3283 322.00
44.3935 317.00
44.4587 347.00
44.5239 336.00
44.5891 319.00
44.6543 309.00
44.7195 361.00
44.7847 361.00
44.8499 327.00
44.9151 387.00
44.9803 340.00
45.0455 311.00
45.1107 372.00
45.1759 350.00
45.2411 371.00
45.3063 375.00
45.3715 376.00
45.4367 388.00
45.5019 362.00
45.5671 363.00
45.6323 363.00
45.6975 362.00
45.7627 353.00
45.8279 323.00
45.8931 386.00
45.9583 327.00
46.0235 403.00
46.0887 375.00
46.1539 342.00
46.2191 328.00
46.2843 397.00
46.3495 323.00
46.4147 325.00
46.4799 334.00
46.5451 316.00
46.6103 323.00
46.6755 289.00
46.7407 321.00
46.8059 330.00
46.8711 304.00
46.9363 378.00
47.0015 335.00
47.0667 345.00
47.1319 336.00
47.1971 341.00
47.2623 339.00
47.3275 339.00
47.3927 333.00
47.4579 351.00
47.523 370.00
47.5882 372.00
47.6534 360.00
47.7186 391.00
47.7838 347.00
47.849 384.00
47.9142 376.00
47.9794 388.00
48.0446 371.00
48.1098 346.00
48.175 401.00
48.2402 398.00
48.3054 388.00
48.3706 409.00
48.4358 381.00
48.501 393.00
48.5662 448.00
48.6314 392.00
48.6966 343.00
48.7618 345.00
48.827 297.00
48.8922 358.00
48.9574 362.00
49.0226 300.00
49.0878 323.00
49.153 331.00
49.2182 301.00
49.2834 325.00
49.3486 302.00
49.4138 324.00
49.479 316.00
49.5442 301.00
49.6094 329.00
49.6746 281.00
49.7398 352.00
49.805 312.00
49.8702 355.00
49.9354 349.00
50.0006 360.00
50.0658 362.00
50.131 344.00
50.1962 309.00
50.2614 318.00
50.3266 319.00
50.3918 295.00
50.457 313.00
50.5222 308.00
50.5874 308.00
50.6526 273.00
50.7178 276.00
50.783 322.00
50.8482 292.00
50.9134 295.00
50.9786 277.00
51.0438 277.00
51.109 289.00
51.1742 298.00
51.2394 309.00
51.3046 325.00
51.3698 309.00
51.435 336.00
51.5002 280.00
51.5654 290.00
51.6306 294.00
51.6958 292.00
51.761 295.00
51.8262 281.00
51.8914 288.00
51.9566 283.00
52.0218 281.00
52.087 315.00
52.1522 264.00
52.2174 273.00
52.2826 295.00
52.3477 288.00
52.4129 276.00
52.4781 316.00
52.5433 282.00
52.6085 236.00
52.6737 266.00
52.7389 291.00
52.8041 279.00
52.8693 257.00
52.9345 300.00
52.9997 270.00
53.0649 270.00
53.1301 284.00
53.1953 281.00
53.2605 248.00
53.3257 287.00
53.3909 314.00
53.4561 296.00
53.5213 327.00
53.5865 283.00
53.6517 300.00
53.7169 263.00
53.7821 296.00
53.8473 283.00
53.9125 276.00
53.9777 239.00
54.0429 299.00
54.1081 281.00
54.1733 281.00
54.2385 292.00
54.3037 316.00
54.3689 288.00
54.4341 274.00
54.4993 265.00
54.5645 308.00
54.6297 270.00
54.6949 259.00
54.7601 262.00
54.8253 263.00
54.8905 239.00
54.9557 246.00
55.0209 262.00
55.0861 231.00
55.1513 224.00
55.2165 259.00
55.2817 239.00
55.3469 272.00
55.4121 265.00
55.4773 321.00
55.5425 316.00
55.6077 281.00
55.6729 266.00
55.7381 303.00
55.8033 332.00
55.8685 295.00
55.9337 309.00
55.9989 331.00
56.0641 312.00
56.1293 307.00
56.1945 313.00
56.2597 286.00
56.3249 276.00
56.3901 247.00
56.4553 271.00
56.5205 272.00
56.5857 215.00
56.6509 248.00
56.7161 245.00
56.7813 245.00
56.8465 218.00
56.9117 261.00
56.9769 268.00
57.042 265.00
57.1073 283.00
57.1724 262.00
57.2376 262.00
57.3028 230.00
57.368 260.00
57.4332 272.00
57.4984 242.00
57.5636 222.00
57.6288 238.00
57.694 238.00
57.7592 259.00
57.8244 243.00
57.8896 219.00
57.9548 241.00
58.02 205.00
58.0852 244.00
58.1504 210.00
58.2156 215.00
58.2808 227.00
58.346 217.00
58.4112 240.00
58.4764 213.00
58.5416 223.00
58.6068 261.00
58.672 247.00
58.7372 241.00
58.8024 224.00
58.8676 231.00
58.9328 258.00
58.998 244.00
59.0632 275.00
59.1284 236.00
59.1936 279.00
59.2588 236.00
59.324 244.00
59.3892 276.00
59.4544 230.00
59.5196 217.00
59.5848 271.00
59.65 241.00
59.7152 247.00
59.7804 237.00
59.8456 219.00
59.9108 272.00
59.976 228.00
60.0412 240.00
60.1064 232.00
60.1716 241.00
60.2368 256.00
60.302 227.00
60.3672 256.00
60.4324 269.00
60.4976 244.00
60.5628 260.00
60.628 268.00
60.6932 237.00
60.7584 226.00
60.8236 223.00
60.8888 220.00
60.954 224.00
61.0192 267.00
61.0844 235.00
61.1496 242.00
61.2148 213.00
61.28 218.00
61.3452 224.00
61.4104 241.00
61.4756 202.00
61.5408 207.00
61.606 222.00
61.6712 229.00
61.7364 247.00
61.8016 243.00
61.8667 232.00
61.932 212.00
61.9971 206.00
62.0623 235.00
62.1275 216.00
62.1927 193.00
62.2579 258.00
62.3231 245.00
62.3883 244.00
62.4535 209.00
62.5187 210.00
62.5839 236.00
62.6491 262.00
62.7143 228.00
62.7795 229.00
62.8447 229.00
62.9099 246.00
62.9751 214.00
63.0403 232.00
63.1055 266.00
63.1707 209.00
63.2359 219.00
63.3011 245.00
63.3663 219.00
63.4315 226.00
63.4967 256.00
63.5619 258.00
63.6271 266.00
63.6923 271.00
63.7575 274.00
63.8227 236.00
63.8879 276.00
63.9531 249.00
64.0183 241.00
64.0835 244.00
64.1487 240.00
64.2139 240.00
64.2791 233.00
64.3443 229.00
64.4095 276.00
64.4747 213.00
64.5399 211.00
64.6051 236.00
64.6703 249.00
64.7355 230.00
64.8007 259.00
64.8659 228.00
64.9311 271.00
64.9963 267.00
65.0615 244.00
65.1267 234.00
65.1919 274.00
65.2571 244.00
65.3223 221.00
65.3875 236.00
65.4527 284.00
65.5179 233.00
65.5831 230.00
65.6483 247.00
65.7135 190.00
65.7787 263.00
65.8439 228.00
65.9091 240.00
65.9743 226.00
66.0395 226.00
66.1047 227.00
66.1699 206.00
66.2351 247.00
66.3003 244.00
66.3655 225.00
66.4307 245.00
66.4959 259.00
66.561 257.00
66.6263 226.00
66.6915 270.00
66.7566 262.00
66.8218 237.00
66.887 227.00
66.9522 228.00
67.0174 257.00
67.0826 228.00
67.1478 247.00
67.213 220.00
67.2782 228.00
67.3434 196.00
67.4086 225.00
67.4738 249.00
67.539 224.00
67.6042 240.00
67.6694 239.00
67.7346 236.00
67.7998 245.00
67.865 235.00
67.9302 216.00
67.9954 230.00
68.0606 257.00
68.1258 241.00
68.191 260.00
68.2562 225.00
68.3214 244.00
68.3866 235.00
68.4518 215.00
68.517 218.00
68.5822 233.00
68.6474 202.00
68.7126 211.00
68.7778 233.00
68.843 231.00
68.9082 217.00
68.9734 213.00
69.0386 194.00
69.1038 220.00
69.169 219.00
69.2342 215.00
69.2994 200.00
69.3646 227.00
69.4298 231.00
69.495 212.00
69.5602 225.00
69.6254 213.00
69.6906 203.00
69.7558 241.00
69.821 222.00
69.8862 202.00
69.9514 208.00
70.0166 205.00
70.0818 225.00
70.147 225.00
70.2122 214.00
70.2774 228.00
70.3426 199.00
70.4078 214.00
70.473 218.00
70.5382 212.00
70.6034 220.00
70.6686 216.00
70.7338 215.00
70.799 227.00
70.8642 205.00
70.9294 213.00
70.9946 234.00
71.0598 234.00
71.125 203.00
71.1902 203.00
71.2554 228.00
71.3205 200.00
71.3858 213.00
71.451 246.00
71.5162 218.00
71.5813 210.00
71.6465 221.00
71.7117 232.00
71.7769 209.00
71.8421 222.00
71.9073 204.00
71.9725 202.00
72.0377 207.00
72.1029 218.00
72.1681 230.00
72.2333 202.00
72.2985 229.00
72.3637 198.00
72.4289 216.00
72.4941 172.00
72.5593 209.00
72.6245 200.00
72.6897 196.00
72.7549 216.00
72.8201 195.00
72.8853 202.00
72.9505 230.00
73.0157 200.00
73.0809 215.00
73.1461 186.00
73.2113 246.00
73.2765 211.00
73.3417 241.00
73.4069 227.00
73.4721 208.00
73.5373 198.00
73.6025 207.00
73.6677 209.00
73.7329 201.00
73.7981 208.00
73.8633 187.00
73.9285 211.00
73.9937 203.00
74.0589 196.00
74.1241 214.00
74.1893 201.00
74.2545 211.00
74.3197 231.00
74.3849 237.00
74.4501 235.00
74.5153 220.00
74.5805 199.00
74.6457 242.00
74.7109 230.00
74.7761 213.00
74.8413 231.00
74.9065 247.00
74.9717 225.00
75.0369 225.00
75.1021 225.00
75.1673 223.00
75.2325 221.00
75.2977 238.00
75.3629 212.00
75.4281 211.00
75.4933 237.00
75.5585 242.00
75.6237 236.00
75.6889 198.00
75.7541 232.00
75.8193 234.00
75.8845 211.00
75.9497 260.00
76.0149 261.00
76.0801 246.00
76.1452 188.00
76.2104 248.00
76.2756 227.00
76.3409 231.00
76.406 241.00
76.4712 233.00
76.5364 211.00
76.6016 216.00
76.6668 243.00
76.732 215.00
76.7972 233.00
76.8624 251.00
76.9276 258.00
76.9928 248.00
77.058 248.00
77.1232 209.00
77.1884 224.00
77.2536 239.00
77.3188 228.00
77.384 247.00
77.4492 235.00
77.5144 236.00
77.5796 238.00
77.6448 239.00
77.71 251.00
77.7752 222.00
77.8404 224.00
77.9056 282.00
77.9708 245.00
78.036 243.00
78.1012 258.00
78.1664 251.00
78.2316 226.00
78.2968 243.00
78.362 278.00
78.4272 244.00
78.4924 224.00
78.5576 226.00
78.6228 245.00
78.688 237.00
78.7532 235.00
78.8184 227.00
78.8836 260.00
78.9488 231.00
79.014 217.00
79.0792 261.00
79.1444 228.00
79.2096 234.00
79.2748 233.00
79.34 235.00
79.4052 240.00
79.4704 244.00
79.5356 238.00
79.6008 218.00
79.666 258.00
79.7312 226.00
79.7964 268.00
79.8616 233.00
79.9268 210.00
79.992 200.00
80.0572 240.00
80.1224 223.00
80.1876 245.00
80.2528 233.00
80.318 237.00
80.3832 230.00
80.4484 215.00
80.5136 268.00
80.5788 232.00
80.644 233.00
80.7092 257.00
80.7744 239.00
80.8396 261.00
80.9048 249.00
80.9699 223.00
81.0351 262.00
81.1003 221.00
81.1655 261.00
81.2307 240.00
81.2959 262.00
81.3611 224.00
81.4263 256.00
81.4915 227.00
81.5567 242.00
81.6219 269.00
81.6871 222.00
81.7523 279.00
81.8175 243.00
81.8827 228.00
81.9479 236.00
82.0131 221.00
82.0783 242.00
82.1435 219.00
82.2087 229.00
82.2739 250.00
82.3391 226.00
82.4043 237.00
82.4695 235.00
82.5347 231.00
82.5999 240.00
82.6651 224.00
82.7303 218.00
82.7955 242.00
82.8607 222.00
82.9259 233.00
82.9911 237.00
83.0563 248.00
83.1215 233.00
83.1867 239.00
83.2519 214.00
83.3171 231.00
83.3823 241.00
83.4475 233.00
83.5127 235.00
83.5779 259.00
83.6431 244.00
83.7083 212.00
83.7735 256.00
83.8387 257.00
83.9039 217.00
83.9691 259.00
84.0343 222.00
84.0995 217.00
84.1647 215.00
84.2299 207.00
84.2951 231.00
84.3603 209.00
84.4255 227.00
84.4907 237.00
84.5559 220.00
84.6211 241.00
84.6863 240.00
84.7515 230.00
84.8167 225.00
84.8819 217.00
84.9471 230.00
85.0123 221.00
85.0775 229.00
85.1427 226.00
85.2079 236.00
85.2731 242.00
85.3383 234.00
85.4035 226.00
85.4687 234.00
85.5339 212.00
85.5991 190.00
85.6643 224.00
85.7295 229.00
85.7946 234.00
85.8598 225.00
85.925 220.00
85.9903 206.00
86.0554 219.00
86.1206 215.00
86.1858 225.00
86.251 220.00
86.3162 223.00
86.3814 205.00
86.4466 224.00
86.5118 219.00
86.577 207.00
86.6422 216.00
86.7074 223.00
86.7726 207.00
86.8378 257.00
86.903 236.00
86.9682 201.00
87.0334 230.00
87.0986 212.00
87.1638 234.00
87.229 186.00
87.2942 209.00
87.3594 210.00
87.4246 199.00
87.4898 221.00
87.555 223.00
87.6202 194.00
87.6854 196.00
87.7506 226.00
87.8158 235.00
87.881 224.00
87.9462 215.00
88.0114 205.00
88.0766 214.00
88.1418 225.00
88.207 221.00
88.2722 220.00
88.3374 208.00
88.4026 201.00
88.4678 208.00
88.533 211.00
88.5982 207.00
88.6634 191.00
88.7286 206.00
88.7938 197.00
88.859 234.00
88.9242 202.00
88.9894 206.00
89.0546 241.00
89.1198 220.00
89.185 213.00
89.2502 180.00
89.3154 202.00
89.3806 207.00
89.4458 219.00
89.511 187.00
89.5762 204.00
89.6414 224.00
89.7066 234.00
89.7718 212.00
89.837 192.00
89.9022 227.00
89.9674 189.00
90.0326 197.00
90.0978 206.00
90.163 191.00
90.2282 201.00
90.2934 208.00
90.3586 237.00
90.4238 189.00
90.489 200.00
90.5542 193.00
90.6193 201.00
90.6845 176.00
90.7497 188.00
90.8149 212.00
90.8801 195.00
90.9453 195.00
91.0105 195.00
91.0757 198.00
91.1409 199.00
91.2061 209.00
91.2713 213.00
91.3365 190.00
91.4017 185.00
91.4669 211.00
91.5321 204.00
91.5973 218.00
91.6625 191.00
91.7277 197.00
91.7929 215.00
91.8581 181.00
91.9233 216.00
91.9885 206.00
92.0537 216.00
92.1189 203.00
92.1841 209.00
92.2493 180.00
92.3145 195.00
92.3797 169.00
92.4449 201.00
92.5101 184.00
92.5753 194.00
92.6405 200.00
92.7057 177.00
92.7709 203.00
92.8361 183.00
92.9013 207.00
92.9665 214.00
93.0317 229.00
93.0969 193.00
93.1621 209.00
93.2273 190.00
93.2925 204.00
93.3577 198.00
93.4229 190.00
93.4881 174.00
93.5533 201.00
93.6185 191.00
93.6837 212.00
93.7489 199.00
93.8141 215.00
93.8793 209.00
93.9445 222.00
94.0097 232.00
94.0749 215.00
94.1401 228.00
94.2053 203.00
94.2705 198.00
94.3357 185.00
94.4009 164.00
94.4661 195.00
94.5313 199.00
94.5965 195.00
94.6617 202.00
94.7269 183.00
94.7921 192.00
94.8573 186.00
94.9225 222.00
94.9877 186.00
95.0529 196.00
95.1181 182.00
95.1833 186.00
95.2485 208.00
95.3137 183.00
95.3789 195.00
95.444 160.00
95.5092 196.00
95.5744 197.00
95.6396 223.00
95.7048 209.00
95.77 210.00
95.8352 192.00
95.9004 167.00
95.9656 210.00
96.0308 214.00
96.096 208.00
96.1612 176.00
96.2264 211.00
96.2916 229.00
96.3568 205.00
96.422 235.00
96.4872 229.00
96.5524 205.00
96.6176 222.00
96.6828 200.00
96.748 213.00
96.8132 181.00
96.8784 178.00
96.9436 192.00
97.0088 200.00
97.074 192.00
97.1392 199.00
97.2044 191.00
97.2696 215.00
97.3348 194.00
97.4 209.00
97.4652 188.00
97.5304 190.00
97.5956 174.00
97.6608 204.00
97.726 199.00
97.7912 216.00
97.8564 220.00
97.9216 183.00
97.9868 200.00
98.052 209.00
98.1172 200.00
98.1824 196.00
98.2476 185.00
98.3128 188.00
98.378 223.00
98.4432 168.00
98.5084 194.00
98.5736 188.00
98.6388 206.00
98.704 214.00
98.7692 190.00
98.8344 213.00
98.8996 195.00
98.9648 217.00
99.03 180.00
99.0952 206.00
99.1604 183.00
99.2256 201.00
99.2908 200.00
99.356 214.00
99.4212 222.00
99.4864 210.00
99.5516 192.00
99.6168 197.00
99.682 193.00
99.7472 194.00
99.8124 214.00
99.8776 196.00
99.9428 170.00
100.008 206.00
100.073 203.00
100.095 171.00