File: data/xrd_creation/results/MINES_24.xy
9.903433 2618.00
9.968632 2609.00
10.0338 2496.00
10.099 2527.00
10.1642 2478.00
10.2294 2431.00
10.2946 2407.00
10.3598 2446.00
10.425 2355.00
10.4902 2353.00
10.5554 2249.00
10.6206 2252.00
10.6858 2226.00
10.751 2243.00
10.8162 2293.00
10.8814 2194.00
10.9466 2172.00
11.0118 2232.00
11.077 2139.00
11.1422 2119.00
11.2074 2205.00
11.2726 2086.00
11.3378 2055.00
11.403 2037.00
11.4682 1999.00
11.5334 2065.00
11.5986 1932.00
11.6638 1998.00
11.729 1991.00
11.7942 1911.00
11.8594 1958.00
11.9246 1871.00
11.9898 1902.00
12.055 1904.00
12.1202 1935.00
12.1854 1838.00
12.2506 1785.00
12.3158 1780.00
12.381 1830.00
12.4462 1766.00
12.5114 1728.00
12.5766 1696.00
12.6418 1754.00
12.707 1701.00
12.7722 1721.00
12.8374 1761.00
12.9026 1666.00
12.9678 1679.00
13.033 1682.00
13.0982 1642.00
13.1634 1667.00
13.2286 1603.00
13.2938 1611.00
13.359 1645.00
13.4242 1614.00
13.4894 1538.00
13.5546 1512.00
13.6198 1590.00
13.685 1536.00
13.7502 1619.00
13.8154 1549.00
13.8805 1481.00
13.9457 1484.00
14.0109 1514.00
14.0761 1457.00
14.1413 1435.00
14.2065 1476.00
14.2717 1423.00
14.3369 1398.00
14.4021 1479.00
14.4673 1347.00
14.5325 1409.00
14.5977 1393.00
14.6629 1387.00
14.7281 1454.00
14.7933 1396.00
14.8585 1435.00
14.9237 1368.00
14.9889 1345.00
15.0541 1358.00
15.1193 1395.00
15.1845 1417.00
15.2497 1403.00
15.3149 1310.00
15.3801 1345.00
15.4453 1274.00
15.5105 1287.00
15.5757 1308.00
15.6409 1373.00
15.7061 1325.00
15.7713 1241.00
15.8365 1309.00
15.9017 1332.00
15.9669 1244.00
16.0321 1273.00
16.0973 1338.00
16.1625 1298.00
16.2277 1302.00
16.2929 1341.00
16.3581 1285.00
16.4233 1321.00
16.4885 1264.00
16.5537 1301.00
16.6189 1180.00
16.6841 1221.00
16.7493 1173.00
16.8145 1270.00
16.8797 1199.00
16.9449 1170.00
17.0101 1180.00
17.0753 1214.00
17.1405 1189.00
17.2057 1209.00
17.2709 1230.00
17.3361 1218.00
17.4013 1132.00
17.4665 1182.00
17.5317 1083.00
17.5969 1115.00
17.6621 1166.00
17.7273 1085.00
17.7925 1109.00
17.8577 1097.00
17.9229 1063.00
17.9881 1076.00
18.0533 1111.00
18.1185 1139.00
18.1837 1119.00
18.2489 1103.00
18.3141 1064.00
18.3793 1069.00
18.4445 986.00
18.5097 1051.00
18.5749 1128.00
18.6401 1055.00
18.7052 1060.00
18.7704 1063.00
18.8356 1034.00
18.9008 1014.00
18.966 1020.00
19.0312 1044.00
19.0964 1043.00
19.1616 1053.00
19.2268 1015.00
19.292 1038.00
19.3572 1068.00
19.4224 1039.00
19.4876 1012.00
19.5528 1008.00
19.618 990.00
19.6832 976.00
19.7484 969.00
19.8136 942.00
19.8788 964.00
19.944 963.00
20.0092 908.00
20.0744 967.00
20.1396 940.00
20.2048 981.00
20.27 975.00
20.3352 997.00
20.4004 1024.00
20.4656 1053.00
20.5308 1022.00
20.596 1013.00
20.6612 1106.00
20.7264 1014.00
20.7916 989.00
20.8568 984.00
20.922 923.00
20.9872 844.00
21.0524 865.00
21.1176 906.00
21.1828 878.00
21.248 856.00
21.3132 855.00
21.3784 848.00
21.4436 879.00
21.5088 923.00
21.574 906.00
21.6392 935.00
21.7044 976.00
21.7696 1016.00
21.8348 1123.00
21.9 1121.00
21.9652 1110.00
22.0304 1087.00
22.0956 883.00
22.1608 864.00
22.226 849.00
22.2912 818.00
22.3564 880.00
22.4216 819.00
22.4868 841.00
22.552 866.00
22.6172 884.00
22.6824 866.00
22.7476 860.00
22.8128 877.00
22.878 866.00
22.9432 860.00
23.0084 892.00
23.0736 862.00
23.1388 884.00
23.204 885.00
23.2692 817.00
23.3344 811.00
23.3996 775.00
23.4647 797.00
23.5299 827.00
23.5951 934.00
23.6603 1137.00
23.7255 1274.00
23.7907 1183.00
23.8559 1020.00
23.9211 852.00
23.9863 837.00
24.0515 798.00
24.1167 808.00
24.1819 949.00
24.2471 1064.00
24.3123 1016.00
24.3775 1018.00
24.4427 891.00
24.5079 832.00
24.5731 811.00
24.6383 1023.00
24.7035 1182.00
24.7687 1459.00
24.8339 1375.00
24.8991 1084.00
24.9643 918.00
25.0295 816.00
25.0947 779.00
25.1599 822.00
25.2251 945.00
25.2903 893.00
25.3555 985.00
25.4207 1067.00
25.4859 1033.00
25.5511 1099.00
25.6163 1033.00
25.6815 1005.00
25.7467 933.00
25.8119 928.00
25.8771 898.00
25.9423 844.00
26.0075 876.00
26.0727 871.00
26.1379 779.00
26.2031 801.00
26.2683 911.00
26.3335 979.00
26.3987 1175.00
26.4639 1372.00
26.5291 1447.00
26.5943 1181.00
26.6595 974.00
26.7247 762.00
26.7899 700.00
26.8551 701.00
26.9203 682.00
26.9855 660.00
27.0507 669.00
27.1159 677.00
27.1811 599.00
27.2463 679.00
27.3115 672.00
27.3767 711.00
27.4419 652.00
27.5071 648.00
27.5723 620.00
27.6375 677.00
27.7027 637.00
27.7679 679.00
27.8331 659.00
27.8983 675.00
27.9635 634.00
28.0287 589.00
28.0939 665.00
28.1591 700.00
28.2243 702.00
28.2894 649.00
28.3546 663.00
28.4198 666.00
28.485 621.00
28.5502 729.00
28.6154 772.00
28.6806 719.00
28.7458 797.00
28.811 873.00
28.8762 922.00
28.9414 1002.00
29.0066 1169.00
29.0718 1377.00
29.137 1430.00
29.2022 1146.00
29.2674 997.00
29.3326 712.00
29.3978 679.00
29.463 625.00
29.5282 676.00
29.5934 644.00
29.6586 643.00
29.7238 677.00
29.789 617.00
29.8542 638.00
29.9194 625.00
29.9846 604.00
30.0498 586.00
30.115 578.00
30.1802 595.00
30.2454 614.00
30.3106 634.00
30.3758 542.00
30.441 635.00
30.5062 591.00
30.5714 643.00
30.6366 693.00
30.7018 653.00
30.767 628.00
30.8322 653.00
30.8974 588.00
30.9626 684.00
31.0278 795.00
31.093 861.00
31.1582 753.00
31.2234 726.00
31.2886 624.00
31.3538 584.00
31.419 522.00
31.4842 554.00
31.5494 523.00
31.6146 543.00
31.6798 551.00
31.745 541.00
31.8102 586.00
31.8754 628.00
31.9406 694.00
32.0058 841.00
32.071 981.00
32.1362 1044.00
32.2014 890.00
32.2666 720.00
32.3318 616.00
32.397 573.00
32.4622 563.00
32.5274 520.00
32.5926 552.00
32.6578 601.00
32.723 699.00
32.7882 647.00
32.8534 667.00
32.9186 645.00
32.9838 570.00
33.0489 588.00
33.1141 636.00
33.1793 683.00
33.2445 657.00
33.3097 546.00
33.3749 549.00
33.4401 531.00
33.5053 520.00
33.5705 521.00
33.6357 552.00
33.7009 591.00
33.7661 650.00
33.8313 586.00
33.8965 546.00
33.9617 580.00
34.0269 524.00
34.0921 555.00
34.1573 575.00
34.2225 566.00
34.2877 506.00
34.3529 498.00
34.4181 524.00
34.4833 522.00
34.5485 518.00
34.6137 463.00
34.6789 534.00
34.7441 497.00
34.8093 450.00
34.8745 444.00
34.9397 408.00
35.0049 460.00
35.0701 409.00
35.1353 469.00
35.2005 494.00
35.2657 420.00
35.3309 488.00
35.3961 455.00
35.4613 446.00
35.5265 468.00
35.5917 412.00
35.6569 410.00
35.7221 465.00
35.7873 468.00
35.8525 444.00
35.9177 447.00
35.9829 437.00
36.0481 510.00
36.1133 502.00
36.1785 430.00
36.2437 439.00
36.3089 512.00
36.3741 482.00
36.4393 538.00
36.5045 435.00
36.5697 489.00
36.6349 418.00
36.7001 416.00
36.7653 411.00
36.8305 464.00
36.8957 390.00
36.9609 388.00
37.0261 409.00
37.0913 429.00
37.1565 444.00
37.2217 444.00
37.2869 447.00
37.3521 445.00
37.4173 471.00
37.4825 509.00
37.5477 605.00
37.6129 651.00
37.6781 544.00
37.7433 469.00
37.8085 417.00
37.8736 447.00
37.9388 472.00
38.004 517.00
38.0692 481.00
38.1344 499.00
38.1996 521.00
38.2648 451.00
38.33 407.00
38.3952 449.00
38.4604 410.00
38.5256 399.00
38.5908 379.00
38.656 432.00
38.7212 387.00
38.7864 427.00
38.8516 407.00
38.9168 403.00
38.982 410.00
39.0472 376.00
39.1124 436.00
39.1776 406.00
39.2428 425.00
39.308 458.00
39.3732 455.00
39.4384 466.00
39.5036 431.00
39.5688 416.00
39.634 446.00
39.6992 452.00
39.7644 407.00
39.8296 419.00
39.8948 419.00
39.96 377.00
40.0252 422.00
40.0904 421.00
40.1556 413.00
40.2208 407.00
40.286 356.00
40.3512 348.00
40.4164 319.00
40.4816 325.00
40.5468 378.00
40.612 380.00
40.6772 373.00
40.7424 347.00
40.8076 371.00
40.8728 355.00
40.938 354.00
41.0032 401.00
41.0684 377.00
41.1336 360.00
41.1988 386.00
41.264 366.00
41.3292 391.00
41.3944 362.00
41.4596 338.00
41.5248 335.00
41.59 380.00
41.6552 371.00
41.7204 358.00
41.7856 337.00
41.8508 339.00
41.916 336.00
41.9812 338.00
42.0464 382.00
42.1116 364.00
42.1768 373.00
42.242 346.00
42.3072 398.00
42.3724 390.00
42.4376 358.00
42.5028 370.00
42.568 376.00
42.6332 379.00
42.6983 369.00
42.7635 377.00
42.8287 359.00
42.8939 394.00
42.9591 416.00
43.0243 356.00
43.0895 399.00
43.1547 347.00
43.2199 342.00
43.2851 326.00
43.3503 381.00
43.4155 383.00
43.4807 441.00
43.5459 456.00
43.6111 459.00
43.6763 417.00
43.7415 369.00
43.8067 376.00
43.8719 372.00
43.9371 359.00
44.0023 388.00
44.0675 363.00
44.1327 362.00
44.1979 331.00
44.2631 351.00
44.3283 387.00
44.3935 319.00
44.4587 370.00
44.5239 338.00
44.5891 316.00
44.6543 381.00
44.7195 383.00
44.7847 340.00
44.8499 404.00
44.9151 404.00
44.9803 376.00
45.0455 368.00
45.1107 342.00
45.1759 344.00
45.2411 339.00
45.3063 323.00
45.3715 314.00
45.4367 304.00
45.5019 314.00
45.5671 307.00
45.6323 313.00
45.6975 368.00
45.7627 350.00
45.8279 359.00
45.8931 322.00
45.9583 367.00
46.0235 378.00
46.0887 367.00
46.1539 394.00
46.2191 328.00
46.2843 332.00
46.3495 314.00
46.4147 353.00
46.4799 321.00
46.5451 334.00
46.6103 305.00
46.6755 285.00
46.7407 325.00
46.8059 352.00
46.8711 330.00
46.9363 362.00
47.0015 366.00
47.0667 341.00
47.1319 337.00
47.1971 370.00
47.2623 361.00
47.3275 409.00
47.3927 398.00
47.4579 366.00
47.523 352.00
47.5882 319.00
47.6534 316.00
47.7186 311.00
47.7838 351.00
47.849 350.00
47.9142 328.00
47.9794 342.00
48.0446 343.00
48.1098 317.00
48.175 317.00
48.2402 316.00
48.3054 392.00
48.3706 395.00
48.4358 502.00
48.501 533.00
48.5662 524.00
48.6314 501.00
48.6966 458.00
48.7618 415.00
48.827 375.00
48.8922 324.00
48.9574 316.00
49.0226 391.00
49.0878 353.00
49.153 358.00
49.2182 396.00
49.2834 394.00
49.3486 352.00
49.4138 341.00
49.479 326.00
49.5442 332.00
49.6094 323.00
49.6746 287.00
49.7398 339.00
49.805 395.00
49.8702 332.00
49.9354 395.00
50.0006 397.00
50.0658 417.00
50.131 422.00
50.1962 347.00
50.2614 368.00
50.3266 378.00
50.3918 436.00
50.457 479.00
50.5222 423.00
50.5874 418.00
50.6526 400.00
50.7178 337.00
50.783 330.00
50.8482 323.00
50.9134 321.00
50.9786 326.00
51.0438 319.00
51.109 323.00
51.1742 356.00
51.2394 308.00
51.3046 284.00
51.3698 329.00
51.435 297.00
51.5002 322.00
51.5654 305.00
51.6306 321.00
51.6958 380.00
51.761 335.00
51.8262 328.00
51.8914 331.00
51.9566 303.00
52.0218 327.00
52.087 318.00
52.1522 290.00
52.2174 307.00
52.2826 320.00
52.3477 319.00
52.4129 308.00
52.4781 302.00
52.5433 290.00
52.6085 308.00
52.6737 368.00
52.7389 335.00
52.8041 370.00
52.8693 349.00
52.9345 325.00
52.9997 281.00
53.0649 283.00
53.1301 295.00
53.1953 310.00
53.2605 280.00
53.3257 271.00
53.3909 260.00
53.4561 273.00
53.5213 294.00
53.5865 316.00
53.6517 303.00
53.7169 257.00
53.7821 265.00
53.8473 300.00
53.9125 285.00
53.9777 266.00
54.0429 287.00
54.1081 300.00
54.1733 279.00
54.2385 258.00
54.3037 300.00
54.3689 300.00
54.4341 335.00
54.4993 318.00
54.5645 301.00
54.6297 338.00
54.6949 352.00
54.7601 306.00
54.8253 330.00
54.8905 267.00
54.9557 244.00
55.0209 256.00
55.0861 240.00
55.1513 264.00
55.2165 228.00
55.2817 285.00
55.3469 241.00
55.4121 235.00
55.4773 269.00
55.5425 297.00
55.6077 263.00
55.6729 260.00
55.7381 258.00
55.8033 276.00
55.8685 274.00
55.9337 250.00
55.9989 256.00
56.0641 268.00
56.1293 272.00
56.1945 271.00
56.2597 246.00
56.3249 235.00
56.3901 263.00
56.4553 256.00
56.5205 286.00
56.5857 272.00
56.6509 227.00
56.7161 287.00
56.7813 246.00
56.8465 283.00
56.9117 275.00
56.9769 264.00
57.042 281.00
57.1073 230.00
57.1724 256.00
57.2376 222.00
57.3028 264.00
57.368 228.00
57.4332 297.00
57.4984 324.00
57.5636 358.00
57.6288 339.00
57.694 352.00
57.7592 360.00
57.8244 286.00
57.8896 234.00
57.9548 290.00
58.02 266.00
58.0852 257.00
58.1504 256.00
58.2156 261.00
58.2808 249.00
58.346 257.00
58.4112 265.00
58.4764 278.00
58.5416 256.00
58.6068 279.00
58.672 249.00
58.7372 277.00
58.8024 259.00
58.8676 257.00
58.9328 262.00
58.998 268.00
59.0632 234.00
59.1284 298.00
59.1936 262.00
59.2588 247.00
59.324 234.00
59.3892 247.00
59.4544 226.00
59.5196 247.00
59.5848 277.00
59.65 238.00
59.7152 237.00
59.7804 247.00
59.8456 247.00
59.9108 247.00
59.976 220.00
60.0412 243.00
60.1064 270.00
60.1716 271.00
60.2368 283.00
60.302 275.00
60.3672 288.00
60.4324 280.00
60.4976 300.00
60.5628 329.00
60.628 294.00
60.6932 228.00
60.7584 246.00
60.8236 290.00
60.8888 234.00
60.954 271.00
61.0192 302.00
61.0844 245.00
61.1496 292.00
61.2148 245.00
61.28 260.00
61.3452 239.00
61.4104 202.00
61.4756 205.00
61.5408 250.00
61.606 227.00
61.6712 234.00
61.7364 217.00
61.8016 240.00
61.8667 238.00
61.932 278.00
61.9971 234.00
62.0623 226.00
62.1275 210.00
62.1927 217.00
62.2579 205.00
62.3231 202.00
62.3883 201.00
62.4535 239.00
62.5187 221.00
62.5839 224.00
62.6491 219.00
62.7143 243.00
62.7795 226.00
62.8447 192.00
62.9099 244.00
62.9751 247.00
63.0403 277.00
63.1055 284.00
63.1707 296.00
63.2359 283.00
63.3011 217.00
63.3663 240.00
63.4315 227.00
63.4967 276.00
63.5619 280.00
63.6271 237.00
63.6923 281.00
63.7575 282.00
63.8227 289.00
63.8879 309.00
63.9531 307.00
64.0183 311.00
64.0835 271.00
64.1487 245.00
64.2139 247.00
64.2791 220.00
64.3443 246.00
64.4095 237.00
64.4747 242.00
64.5399 284.00
64.6051 261.00
64.6703 275.00
64.7355 246.00
64.8007 278.00
64.8659 265.00
64.9311 216.00
64.9963 221.00
65.0615 208.00
65.1267 244.00
65.1919 238.00
65.2571 246.00
65.3223 279.00
65.3875 291.00
65.4527 295.00
65.5179 266.00
65.5831 270.00
65.6483 262.00
65.7135 269.00
65.7787 283.00
65.8439 237.00
65.9091 274.00
65.9743 213.00
66.0395 226.00
66.1047 232.00
66.1699 236.00
66.2351 215.00
66.3003 244.00
66.3655 205.00
66.4307 241.00
66.4959 219.00
66.561 229.00
66.6263 237.00
66.6915 228.00
66.7566 239.00
66.8218 257.00
66.887 245.00
66.9522 224.00
67.0174 214.00
67.0826 229.00
67.1478 227.00
67.213 264.00
67.2782 210.00
67.3434 219.00
67.4086 233.00
67.4738 227.00
67.539 238.00
67.6042 268.00
67.6694 226.00
67.7346 222.00
67.7998 257.00
67.865 228.00
67.9302 216.00
67.9954 216.00
68.0606 225.00
68.1258 262.00
68.191 259.00
68.2562 277.00
68.3214 237.00
68.3866 260.00
68.4518 264.00
68.517 233.00
68.5822 205.00
68.6474 243.00
68.7126 214.00
68.7778 217.00
68.843 228.00
68.9082 271.00
68.9734 229.00
69.0386 227.00
69.1038 207.00
69.169 208.00
69.2342 239.00
69.2994 198.00
69.3646 195.00
69.4298 241.00
69.495 246.00
69.5602 223.00
69.6254 205.00
69.6906 221.00
69.7558 226.00
69.821 219.00
69.8862 190.00
69.9514 233.00
70.0166 229.00
70.0818 234.00
70.147 217.00
70.2122 205.00
70.2774 205.00
70.3426 216.00
70.4078 206.00
70.473 204.00
70.5382 209.00
70.6034 219.00
70.6686 213.00
70.7338 210.00
70.799 213.00
70.8642 214.00
70.9294 264.00
70.9946 224.00
71.0598 218.00
71.125 228.00
71.1902 220.00
71.2554 197.00
71.3205 178.00
71.3858 221.00
71.451 196.00
71.5162 205.00
71.5813 229.00
71.6465 237.00
71.7117 218.00
71.7769 224.00
71.8421 197.00
71.9073 207.00
71.9725 198.00
72.0377 267.00
72.1029 216.00
72.1681 230.00
72.2333 246.00
72.2985 231.00
72.3637 229.00
72.4289 233.00
72.4941 230.00
72.5593 232.00
72.6245 219.00
72.6897 225.00
72.7549 215.00
72.8201 215.00
72.8853 249.00
72.9505 224.00
73.0157 224.00
73.0809 200.00
73.1461 219.00
73.2113 223.00
73.2765 201.00
73.3417 239.00
73.4069 244.00
73.4721 229.00
73.5373 236.00
73.6025 247.00
73.6677 219.00
73.7329 248.00
73.7981 192.00
73.8633 177.00
73.9285 234.00
73.9937 224.00
74.0589 224.00
74.1241 241.00
74.1893 212.00
74.2545 211.00
74.3197 204.00
74.3849 221.00
74.4501 195.00
74.5153 227.00
74.5805 241.00
74.6457 226.00
74.7109 228.00
74.7761 219.00
74.8413 227.00
74.9065 238.00
74.9717 243.00
75.0369 202.00
75.1021 241.00
75.1673 211.00
75.2325 212.00
75.2977 231.00
75.3629 220.00
75.4281 264.00
75.4933 217.00
75.5585 212.00
75.6237 239.00
75.6889 239.00
75.7541 229.00
75.8193 264.00
75.8845 206.00
75.9497 225.00
76.0149 268.00
76.0801 234.00
76.1452 278.00
76.2104 280.00
76.2756 223.00
76.3409 209.00
76.406 210.00
76.4712 244.00
76.5364 245.00
76.6016 218.00
76.6668 237.00
76.732 220.00
76.7972 236.00
76.8624 219.00
76.9276 237.00
76.9928 239.00
77.058 239.00
77.1232 259.00
77.1884 246.00
77.2536 261.00
77.3188 238.00
77.384 271.00
77.4492 262.00
77.5144 275.00
77.5796 244.00
77.6448 284.00
77.71 234.00
77.7752 267.00
77.8404 234.00
77.9056 245.00
77.9708 242.00
78.036 261.00
78.1012 257.00
78.1664 243.00
78.2316 273.00
78.2968 249.00
78.362 246.00
78.4272 243.00
78.4924 295.00
78.5576 305.00
78.6228 273.00
78.688 267.00
78.7532 318.00
78.8184 277.00
78.8836 304.00
78.9488 265.00
79.014 270.00
79.0792 262.00
79.1444 290.00
79.2096 248.00
79.2748 264.00
79.34 242.00
79.4052 249.00
79.4704 245.00
79.5356 272.00
79.6008 259.00
79.666 257.00
79.7312 240.00
79.7964 263.00
79.8616 282.00
79.9268 226.00
79.992 224.00
80.0572 242.00
80.1224 232.00
80.1876 227.00
80.2528 239.00
80.318 272.00
80.3832 221.00
80.4484 233.00
80.5136 261.00
80.5788 272.00
80.644 233.00
80.7092 258.00
80.7744 266.00
80.8396 244.00
80.9048 288.00
80.9699 278.00
81.0351 286.00
81.1003 270.00
81.1655 277.00
81.2307 261.00
81.2959 282.00
81.3611 257.00
81.4263 249.00
81.4915 271.00
81.5567 239.00
81.6219 241.00
81.6871 231.00
81.7523 238.00
81.8175 256.00
81.8827 246.00
81.9479 241.00
82.0131 242.00
82.0783 234.00
82.1435 228.00
82.2087 236.00
82.2739 267.00
82.3391 240.00
82.4043 229.00
82.4695 228.00
82.5347 262.00
82.5999 245.00
82.6651 251.00
82.7303 262.00
82.7955 242.00
82.8607 239.00
82.9259 232.00
82.9911 231.00
83.0563 207.00
83.1215 238.00
83.1867 273.00
83.2519 241.00
83.3171 256.00
83.3823 257.00
83.4475 261.00
83.5127 251.00
83.5779 239.00
83.6431 231.00
83.7083 266.00
83.7735 275.00
83.8387 216.00
83.9039 236.00
83.9691 218.00
84.0343 261.00
84.0995 233.00
84.1647 237.00
84.2299 244.00
84.2951 237.00
84.3603 226.00
84.4255 237.00
84.4907 210.00
84.5559 258.00
84.6211 259.00
84.6863 242.00
84.7515 249.00
84.8167 232.00
84.8819 235.00
84.9471 242.00
85.0123 244.00
85.0775 247.00
85.1427 218.00
85.2079 249.00
85.2731 219.00
85.3383 273.00
85.4035 212.00
85.4687 218.00
85.5339 230.00
85.5991 231.00
85.6643 237.00
85.7295 202.00
85.7946 232.00
85.8598 229.00
85.925 232.00
85.9903 222.00
86.0554 238.00
86.1206 270.00
86.1858 226.00
86.251 217.00
86.3162 240.00
86.3814 235.00
86.4466 207.00
86.5118 206.00
86.577 216.00
86.6422 216.00
86.7074 202.00
86.7726 213.00
86.8378 243.00
86.903 208.00
86.9682 224.00
87.0334 220.00
87.0986 233.00
87.1638 204.00
87.229 202.00
87.2942 229.00
87.3594 218.00
87.4246 226.00
87.4898 209.00
87.555 213.00
87.6202 236.00
87.6854 243.00
87.7506 213.00
87.8158 230.00
87.881 205.00
87.9462 221.00
88.0114 223.00
88.0766 207.00
88.1418 248.00
88.207 233.00
88.2722 212.00
88.3374 236.00
88.4026 234.00
88.4678 219.00
88.533 213.00
88.5982 208.00
88.6634 221.00
88.7286 216.00
88.7938 205.00
88.859 215.00
88.9242 177.00
88.9894 201.00
89.0546 220.00
89.1198 208.00
89.185 201.00
89.2502 222.00
89.3154 231.00
89.3806 262.00
89.4458 241.00
89.511 225.00
89.5762 217.00
89.6414 233.00
89.7066 224.00
89.7718 237.00
89.837 222.00
89.9022 264.00
89.9674 219.00
90.0326 215.00
90.0978 231.00
90.163 210.00
90.2282 208.00
90.2934 232.00
90.3586 214.00
90.4238 200.00
90.489 244.00
90.5542 231.00
90.6193 225.00
90.6845 215.00
90.7497 270.00
90.8149 222.00
90.8801 218.00
90.9453 221.00
91.0105 216.00
91.0757 203.00
91.1409 211.00
91.2061 200.00
91.2713 224.00
91.3365 189.00
91.4017 200.00
91.4669 192.00
91.5321 191.00
91.5973 218.00
91.6625 201.00
91.7277 165.00
91.7929 193.00
91.8581 198.00
91.9233 229.00
91.9885 232.00
92.0537 197.00
92.1189 209.00
92.1841 183.00
92.2493 240.00
92.3145 197.00
92.3797 204.00
92.4449 189.00
92.5101 227.00
92.5753 180.00
92.6405 238.00
92.7057 201.00
92.7709 221.00
92.8361 218.00
92.9013 203.00
92.9665 178.00
93.0317 203.00
93.0969 193.00
93.1621 233.00
93.2273 179.00
93.2925 191.00
93.3577 193.00
93.4229 213.00
93.4881 223.00
93.5533 214.00
93.6185 214.00
93.6837 218.00
93.7489 225.00
93.8141 229.00
93.8793 225.00
93.9445 202.00
94.0097 224.00
94.0749 205.00
94.1401 202.00
94.2053 219.00
94.2705 189.00
94.3357 206.00
94.4009 213.00
94.4661 200.00
94.5313 177.00
94.5965 211.00
94.6617 206.00
94.7269 219.00
94.7921 179.00
94.8573 191.00
94.9225 223.00
94.9877 226.00
95.0529 201.00
95.1181 215.00
95.1833 219.00
95.2485 193.00
95.3137 211.00
95.3789 193.00
95.444 200.00
95.5092 215.00
95.5744 196.00
95.6396 207.00
95.7048 236.00
95.77 201.00
95.8352 206.00
95.9004 208.00
95.9656 198.00
96.0308 205.00
96.096 201.00
96.1612 206.00
96.2264 217.00
96.2916 216.00
96.3568 181.00
96.422 211.00
96.4872 196.00
96.5524 187.00
96.6176 203.00
96.6828 202.00
96.748 216.00
96.8132 181.00
96.8784 213.00
96.9436 173.00
97.0088 187.00
97.074 187.00
97.1392 216.00
97.2044 221.00
97.2696 212.00
97.3348 205.00
97.4 208.00
97.4652 232.00
97.5304 215.00
97.5956 196.00
97.6608 214.00
97.726 180.00
97.7912 217.00
97.8564 226.00
97.9216 227.00
97.9868 220.00
98.052 223.00
98.1172 199.00
98.1824 214.00
98.2476 220.00
98.3128 221.00
98.378 206.00
98.4432 201.00
98.5084 216.00
98.5736 224.00
98.6388 209.00
98.704 223.00
98.7692 213.00
98.8344 213.00
98.8996 199.00
98.9648 215.00
99.03 205.00
99.0952 192.00
99.1604 194.00
99.2256 217.00
99.2908 217.00
99.356 192.00
99.4212 230.00
99.4864 202.00
99.5516 207.00
99.6168 185.00
99.682 204.00
99.7472 188.00
99.8124 195.00
99.8776 206.00
99.9428 190.00
100.008 189.00
100.073 185.00
100.095 209.00