File: data/xrd_creation/results/MINES_5.xy
9.903433 2808.00
9.968632 2765.00
10.0338 2779.00
10.099 2776.00
10.1642 2795.00
10.2294 2658.00
10.2946 2650.00
10.3598 2727.00
10.425 2644.00
10.4902 2698.00
10.5554 2547.00
10.6206 2539.00
10.6858 2572.00
10.751 2482.00
10.8162 2317.00
10.8814 2462.00
10.9466 2507.00
11.0118 2445.00
11.077 2478.00
11.1422 2318.00
11.2074 2382.00
11.2726 2386.00
11.3378 2276.00
11.403 2364.00
11.4682 2261.00
11.5334 2270.00
11.5986 2264.00
11.6638 2218.00
11.729 2205.00
11.7942 2202.00
11.8594 2114.00
11.9246 2202.00
11.9898 2148.00
12.055 2208.00
12.1202 2194.00
12.1854 2129.00
12.2506 2266.00
12.3158 2262.00
12.381 2204.00
12.4462 2100.00
12.5114 2058.00
12.5766 2021.00
12.6418 1972.00
12.707 2022.00
12.7722 1945.00
12.8374 1992.00
12.9026 1877.00
12.9678 1748.00
13.033 1870.00
13.0982 1880.00
13.1634 1810.00
13.2286 1808.00
13.2938 1760.00
13.359 1772.00
13.4242 1780.00
13.4894 1798.00
13.5546 1767.00
13.6198 1753.00
13.685 1833.00
13.7502 1771.00
13.8154 1741.00
13.8805 1693.00
13.9457 1752.00
14.0109 1708.00
14.0761 1686.00
14.1413 1700.00
14.2065 1653.00
14.2717 1634.00
14.3369 1638.00
14.4021 1677.00
14.4673 1661.00
14.5325 1622.00
14.5977 1586.00
14.6629 1667.00
14.7281 1671.00
14.7933 1587.00
14.8585 1597.00
14.9237 1527.00
14.9889 1636.00
15.0541 1621.00
15.1193 1605.00
15.1845 1579.00
15.2497 1676.00
15.3149 1623.00
15.3801 1735.00
15.4453 1776.00
15.5105 1769.00
15.5757 1790.00
15.6409 1806.00
15.7061 1556.00
15.7713 1552.00
15.8365 1519.00
15.9017 1680.00
15.9669 1615.00
16.0321 1546.00
16.0973 1593.00
16.1625 1538.00
16.2277 1617.00
16.2929 1605.00
16.3581 1725.00
16.4233 1739.00
16.4885 1843.00
16.5537 1967.00
16.6189 2102.00
16.6841 1972.00
16.7493 1599.00
16.8145 1520.00
16.8797 1442.00
16.9449 1420.00
17.0101 1398.00
17.0753 1434.00
17.1405 1422.00
17.2057 1424.00
17.2709 1422.00
17.3361 1368.00
17.4013 1424.00
17.4665 1333.00
17.5317 1335.00
17.5969 1315.00
17.6621 1372.00
17.7273 1357.00
17.7925 1342.00
17.8577 1362.00
17.9229 1341.00
17.9881 1302.00
18.0533 1297.00
18.1185 1267.00
18.1837 1240.00
18.2489 1226.00
18.3141 1244.00
18.3793 1274.00
18.4445 1183.00
18.5097 1200.00
18.5749 1197.00
18.6401 1274.00
18.7052 1319.00
18.7704 1209.00
18.8356 1294.00
18.9008 1347.00
18.966 1245.00
19.0312 1308.00
19.0964 1344.00
19.1616 1311.00
19.2268 1439.00
19.292 1529.00
19.3572 1618.00
19.4224 1890.00
19.4876 2085.00
19.5528 2375.00
19.618 2493.00
19.6832 2586.00
19.7484 2313.00
19.8136 2050.00
19.8788 1808.00
19.944 1557.00
20.0092 1379.00
20.0744 1290.00
20.1396 1240.00
20.2048 1363.00
20.27 1280.00
20.3352 1365.00
20.4004 1357.00
20.4656 1450.00
20.5308 1502.00
20.596 1682.00
20.6612 1840.00
20.7264 2077.00
20.7916 2300.00
20.8568 2521.00
20.922 2771.00
20.9872 2826.00
21.0524 2564.00
21.1176 1852.00
21.1828 1445.00
21.248 1308.00
21.3132 1196.00
21.3784 1196.00
21.4436 1131.00
21.5088 1089.00
21.574 1072.00
21.6392 1124.00
21.7044 1107.00
21.7696 1070.00
21.8348 1098.00
21.9 1058.00
21.9652 1094.00
22.0304 1177.00
22.0956 1192.00
22.1608 1131.00
22.226 1165.00
22.2912 1149.00
22.3564 1212.00
22.4216 1159.00
22.4868 1104.00
22.552 1266.00
22.6172 1294.00
22.6824 1383.00
22.7476 1504.00
22.8128 1738.00
22.878 2024.00
22.9432 2463.00
23.0084 2794.00
23.0736 2885.00
23.1388 2896.00
23.204 3004.00
23.2692 2615.00
23.3344 2036.00
23.3996 1657.00
23.4647 1357.00
23.5299 1335.00
23.5951 1408.00
23.6603 1636.00
23.7255 2056.00
23.7907 2492.00
23.8559 3026.00
23.9211 3578.00
23.9863 4676.00
24.0515 4974.00
24.1167 3725.00
24.1819 2085.00
24.2471 1861.00
24.3123 2004.00
24.3775 2180.00
24.4427 2681.00
24.5079 3157.00
24.5731 3708.00
24.6383 3383.00
24.7035 2826.00
24.7687 2791.00
24.8339 3408.00
24.8991 4111.00
24.9643 5106.00
25.0295 6382.00
25.0947 7368.00
25.1599 6190.00
25.2251 4228.00
25.2903 4295.00
25.3555 5151.00
25.4207 6486.00
25.4859 8143.00
25.5511 9700.00
25.6163 10671.00
25.6815 10838.00
25.7467 11327.00
25.8119 11516.00
25.8771 11402.00
25.9423 10410.00
26.0075 8711.00
26.0727 6580.00
26.1379 5113.00
26.2031 4048.00
26.2683 3703.00
26.3335 3719.00
26.3987 4590.00
26.4639 5485.00
26.5291 6764.00
26.5943 8196.00
26.6595 9864.00
26.7247 11005.00
26.7899 10935.00
26.8551 8597.00
26.9203 5223.00
26.9855 2713.00
27.0507 1801.00
27.1159 1477.00
27.1811 1290.00
27.2463 1098.00
27.3115 1121.00
27.3767 1129.00
27.4419 1102.00
27.5071 1084.00
27.5723 1141.00
27.6375 1088.00
27.7027 1029.00
27.7679 971.00
27.8331 1017.00
27.8983 1007.00
27.9635 1017.00
28.0287 1049.00
28.0939 1068.00
28.1591 1117.00
28.2243 1142.00
28.2894 1303.00
28.3546 1392.00
28.4198 1584.00
28.485 1718.00
28.5502 1722.00
28.6154 1624.00
28.6806 1449.00
28.7458 1291.00
28.811 1139.00
28.8762 1011.00
28.9414 979.00
29.0066 941.00
29.0718 933.00
29.137 890.00
29.2022 892.00
29.2674 891.00
29.3326 852.00
29.3978 814.00
29.463 844.00
29.5282 887.00
29.5934 843.00
29.6586 820.00
29.7238 771.00
29.789 787.00
29.8542 812.00
29.9194 777.00
29.9846 855.00
30.0498 803.00
30.115 831.00
30.1802 837.00
30.2454 877.00
30.3106 850.00
30.3758 938.00
30.441 921.00
30.5062 1028.00
30.5714 1107.00
30.6366 1162.00
30.7018 1139.00
30.767 1188.00
30.8322 1254.00
30.8974 1341.00
30.9626 1316.00
31.0278 1092.00
31.093 957.00
31.1582 912.00
31.2234 910.00
31.2886 906.00
31.3538 949.00
31.419 1080.00
31.4842 1248.00
31.5494 1357.00
31.6146 1310.00
31.6798 1373.00
31.745 1376.00
31.8102 1326.00
31.8754 1132.00
31.9406 1097.00
32.0058 1059.00
32.071 1038.00
32.1362 1016.00
32.2014 983.00
32.2666 910.00
32.3318 984.00
32.397 1011.00
32.4622 926.00
32.5274 912.00
32.5926 877.00
32.6578 832.00
32.723 747.00
32.7882 775.00
32.8534 741.00
32.9186 754.00
32.9838 674.00
33.0489 720.00
33.1141 731.00
33.1793 720.00
33.2445 715.00
33.3097 731.00
33.3749 700.00
33.4401 727.00
33.5053 758.00
33.5705 695.00
33.6357 665.00
33.7009 709.00
33.7661 714.00
33.8313 714.00
33.8965 747.00
33.9617 777.00
34.0269 775.00
34.0921 895.00
34.1573 873.00
34.2225 946.00
34.2877 1000.00
34.3529 992.00
34.4181 995.00
34.4833 947.00
34.5485 828.00
34.6137 821.00
34.6789 710.00
34.7441 689.00
34.8093 652.00
34.8745 680.00
34.9397 626.00
35.0049 609.00
35.0701 617.00
35.1353 620.00
35.2005 667.00
35.2657 605.00
35.3309 734.00
35.3961 647.00
35.4613 655.00
35.5265 685.00
35.5917 653.00
35.6569 672.00
35.7221 683.00
35.7873 653.00
35.8525 663.00
35.9177 673.00
35.9829 763.00
36.0481 806.00
36.1133 783.00
36.1785 890.00
36.2437 920.00
36.3089 1015.00
36.3741 1143.00
36.4393 1170.00
36.5045 1213.00
36.5697 1171.00
36.6349 1148.00
36.7001 1054.00
36.7653 1013.00
36.8305 892.00
36.8957 840.00
36.9609 791.00
37.0261 813.00
37.0913 837.00
37.1565 877.00
37.2217 984.00
37.2869 954.00
37.3521 1103.00
37.4173 1144.00
37.4825 1418.00
37.5477 1686.00
37.6129 1975.00
37.6781 2161.00
37.7433 2549.00
37.8085 2785.00
37.8736 2857.00
37.9388 2465.00
38.004 1943.00
38.0692 1720.00
38.1344 1590.00
38.1996 1619.00
38.2648 1702.00
38.33 1774.00
38.3952 1831.00
38.4604 1822.00
38.5256 1391.00
38.5908 1121.00
38.656 904.00
38.7212 827.00
38.7864 776.00
38.8516 826.00
38.9168 810.00
38.982 748.00
39.0472 855.00
39.1124 872.00
39.1776 1044.00
39.2428 1146.00
39.308 1375.00
39.3732 1661.00
39.4384 1908.00
39.5036 2013.00
39.5688 2064.00
39.634 2003.00
39.6992 1619.00
39.7644 1500.00
39.8296 1298.00
39.8948 1219.00
39.96 1100.00
40.0252 1051.00
40.0904 996.00
40.1556 1055.00
40.2208 1033.00
40.286 987.00
40.3512 974.00
40.4164 907.00
40.4816 798.00
40.5468 756.00
40.612 709.00
40.6772 630.00
40.7424 578.00
40.8076 580.00
40.8728 553.00
40.938 535.00
41.0032 560.00
41.0684 557.00
41.1336 582.00
41.1988 532.00
41.264 534.00
41.3292 529.00
41.3944 561.00
41.4596 522.00
41.5248 585.00
41.59 602.00
41.6552 600.00
41.7204 579.00
41.7856 608.00
41.8508 599.00
41.916 645.00
41.9812 690.00
42.0464 669.00
42.1116 809.00
42.1768 744.00
42.242 759.00
42.3072 805.00
42.3724 833.00
42.4376 815.00
42.5028 815.00
42.568 787.00
42.6332 745.00
42.6983 626.00
42.7635 626.00
42.8287 674.00
42.8939 649.00
42.9591 765.00
43.0243 885.00
43.0895 927.00
43.1547 985.00
43.2199 1057.00
43.2851 996.00
43.3503 909.00
43.4155 802.00
43.4807 792.00
43.5459 699.00
43.6111 641.00
43.6763 668.00
43.7415 599.00
43.8067 660.00
43.8719 633.00
43.9371 667.00
44.0023 731.00
44.0675 776.00
44.1327 843.00
44.1979 879.00
44.2631 888.00
44.3283 750.00
44.3935 672.00
44.4587 575.00
44.5239 539.00
44.5891 512.00
44.6543 524.00
44.7195 531.00
44.7847 525.00
44.8499 578.00
44.9151 639.00
44.9803 697.00
45.0455 696.00
45.1107 853.00
45.1759 927.00
45.2411 979.00
45.3063 993.00
45.3715 857.00
45.4367 1003.00
45.5019 1006.00
45.5671 1083.00
45.6323 1115.00
45.6975 1227.00
45.7627 1229.00
45.8279 1241.00
45.8931 1227.00
45.9583 1294.00
46.0235 1341.00
46.0887 1347.00
46.1539 1407.00
46.2191 1392.00
46.2843 1534.00
46.3495 1450.00
46.4147 1398.00
46.4799 1003.00
46.5451 806.00
46.6103 681.00
46.6755 604.00
46.7407 585.00
46.8059 608.00
46.8711 613.00
46.9363 639.00
47.0015 653.00
47.0667 727.00
47.1319 817.00
47.1971 757.00
47.2623 829.00
47.3275 812.00
47.3927 864.00
47.4579 970.00
47.523 941.00
47.5882 1030.00
47.6534 1138.00
47.7186 1171.00
47.7838 1257.00
47.849 1396.00
47.9142 1320.00
47.9794 1324.00
48.0446 1311.00
48.1098 1332.00
48.175 1342.00
48.2402 1284.00
48.3054 1383.00
48.3706 1288.00
48.4358 1285.00
48.501 1265.00
48.5662 1322.00
48.6314 1389.00
48.6966 1381.00
48.7618 1365.00
48.827 1281.00
48.8922 1158.00
48.9574 1079.00
49.0226 995.00
49.0878 942.00
49.153 870.00
49.2182 841.00
49.2834 848.00
49.3486 816.00
49.4138 818.00
49.479 849.00
49.5442 851.00
49.6094 785.00
49.6746 828.00
49.7398 883.00
49.805 960.00
49.8702 1033.00
49.9354 1223.00
50.0006 1360.00
50.0658 1481.00
50.131 1556.00
50.1962 1427.00
50.2614 1302.00
50.3266 1107.00
50.3918 856.00
50.457 794.00
50.5222 764.00
50.5874 724.00
50.6526 803.00
50.7178 855.00
50.783 858.00
50.8482 891.00
50.9134 672.00
50.9786 628.00
51.0438 618.00
51.109 532.00
51.1742 595.00
51.2394 603.00
51.3046 613.00
51.3698 569.00
51.435 510.00
51.5002 547.00
51.5654 490.00
51.6306 458.00
51.6958 438.00
51.761 409.00
51.8262 413.00
51.8914 439.00
51.9566 442.00
52.0218 480.00
52.087 445.00
52.1522 463.00
52.2174 482.00
52.2826 487.00
52.3477 528.00
52.4129 565.00
52.4781 607.00
52.5433 669.00
52.6085 776.00
52.6737 771.00
52.7389 753.00
52.8041 798.00
52.8693 654.00
52.9345 651.00
52.9997 544.00
53.0649 539.00
53.1301 582.00
53.1953 505.00
53.2605 456.00
53.3257 477.00
53.3909 512.00
53.4561 472.00
53.5213 509.00
53.5865 466.00
53.6517 462.00
53.7169 521.00
53.7821 482.00
53.8473 488.00
53.9125 481.00
53.9777 470.00
54.0429 471.00
54.1081 458.00
54.1733 508.00
54.2385 536.00
54.3037 533.00
54.3689 596.00
54.4341 525.00
54.4993 573.00
54.5645 653.00
54.6297 683.00
54.6949 714.00
54.7601 666.00
54.8253 707.00
54.8905 619.00
54.9557 664.00
55.0209 571.00
55.0861 588.00
55.1513 597.00
55.2165 513.00
55.2817 556.00
55.3469 589.00
55.4121 578.00
55.4773 618.00
55.5425 605.00
55.6077 583.00
55.6729 628.00
55.7381 667.00
55.8033 726.00
55.8685 859.00
55.9337 934.00
55.9989 989.00
56.0641 980.00
56.1293 1080.00
56.1945 1076.00
56.2597 1028.00
56.3249 1040.00
56.3901 867.00
56.4553 799.00
56.5205 773.00
56.5857 747.00
56.6509 681.00
56.7161 580.00
56.7813 594.00
56.8465 566.00
56.9117 548.00
56.9769 520.00
57.042 506.00
57.1073 517.00
57.1724 476.00
57.2376 469.00
57.3028 516.00
57.368 505.00
57.4332 446.00
57.4984 439.00
57.5636 450.00
57.6288 499.00
57.694 455.00
57.7592 493.00
57.8244 424.00
57.8896 476.00
57.9548 461.00
58.02 427.00
58.0852 438.00
58.1504 436.00
58.2156 416.00
58.2808 421.00
58.346 399.00
58.4112 438.00
58.4764 439.00
58.5416 414.00
58.6068 399.00
58.672 433.00
58.7372 404.00
58.8024 487.00
58.8676 413.00
58.9328 410.00
58.998 455.00
59.0632 405.00
59.1284 483.00
59.1936 526.00
59.2588 574.00
59.324 545.00
59.3892 648.00
59.4544 687.00
59.5196 732.00
59.5848 851.00
59.65 857.00
59.7152 852.00
59.7804 913.00
59.8456 912.00
59.9108 896.00
59.976 837.00
60.0412 773.00
60.1064 764.00
60.1716 699.00
60.2368 684.00
60.302 660.00
60.3672 732.00
60.4324 753.00
60.4976 825.00
60.5628 904.00
60.628 928.00
60.6932 941.00
60.7584 978.00
60.8236 945.00
60.8888 891.00
60.954 882.00
61.0192 873.00
61.0844 875.00
61.1496 912.00
61.2148 795.00
61.28 766.00
61.3452 691.00
61.4104 633.00
61.4756 607.00
61.5408 551.00
61.606 498.00
61.6712 512.00
61.7364 466.00
61.8016 510.00
61.8667 495.00
61.932 459.00
61.9971 470.00
62.0623 525.00
62.1275 473.00
62.1927 461.00
62.2579 503.00
62.3231 448.00
62.3883 533.00
62.4535 560.00
62.5187 571.00
62.5839 608.00
62.6491 630.00
62.7143 610.00
62.7795 564.00
62.8447 517.00
62.9099 544.00
62.9751 580.00
63.0403 611.00
63.1055 630.00
63.1707 683.00
63.2359 780.00
63.3011 696.00
63.3663 766.00
63.4315 739.00
63.4967 731.00
63.5619 764.00
63.6271 788.00
63.6923 890.00
63.7575 879.00
63.8227 899.00
63.8879 954.00
63.9531 980.00
64.0183 882.00
64.0835 828.00
64.1487 835.00
64.2139 771.00
64.2791 730.00
64.3443 696.00
64.4095 677.00
64.4747 641.00
64.5399 654.00
64.6051 674.00
64.6703 702.00
64.7355 763.00
64.8007 763.00
64.8659 840.00
64.9311 860.00
64.9963 867.00
65.0615 863.00
65.1267 815.00
65.1919 786.00
65.2571 730.00
65.3223 763.00
65.3875 768.00
65.4527 804.00
65.5179 873.00
65.5831 870.00
65.6483 945.00
65.7135 1028.00
65.7787 1022.00
65.8439 935.00
65.9091 881.00
65.9743 798.00
66.0395 706.00
66.1047 648.00
66.1699 595.00
66.2351 620.00
66.3003 597.00
66.3655 621.00
66.4307 707.00
66.4959 745.00
66.561 817.00
66.6263 947.00
66.6915 1017.00
66.7566 1175.00
66.8218 1188.00
66.887 1285.00
66.9522 1345.00
67.0174 1391.00
67.0826 1349.00
67.1478 1303.00
67.213 1317.00
67.2782 1190.00
67.3434 1195.00
67.4086 1156.00
67.4738 1133.00
67.539 1158.00
67.6042 1046.00
67.6694 1062.00
67.7346 1096.00
67.7998 1134.00
67.865 1053.00
67.9302 1204.00
67.9954 1134.00
68.0606 1202.00
68.1258 1180.00
68.191 1221.00
68.2562 1221.00
68.3214 1215.00
68.3866 1145.00
68.4518 1058.00
68.517 1013.00
68.5822 868.00
68.6474 773.00
68.7126 681.00
68.7778 636.00
68.843 565.00
68.9082 611.00
68.9734 660.00
69.0386 632.00
69.1038 640.00
69.169 683.00
69.2342 651.00
69.2994 596.00
69.3646 575.00
69.4298 542.00
69.495 519.00
69.5602 535.00
69.6254 499.00
69.6906 509.00
69.7558 445.00
69.821 460.00
69.8862 415.00
69.9514 413.00
70.0166 444.00
70.0818 399.00
70.147 448.00
70.2122 446.00
70.2774 412.00
70.3426 422.00
70.4078 407.00
70.473 414.00
70.5382 419.00
70.6034 438.00
70.6686 417.00
70.7338 413.00
70.799 466.00
70.8642 507.00
70.9294 530.00
70.9946 513.00
71.0598 505.00
71.125 537.00
71.1902 505.00
71.2554 492.00
71.3205 522.00
71.3858 487.00
71.451 520.00
71.5162 471.00
71.5813 495.00
71.6465 523.00
71.7117 501.00
71.7769 488.00
71.8421 511.00
71.9073 550.00
71.9725 557.00
72.0377 513.00
72.1029 558.00
72.1681 605.00
72.2333 604.00
72.2985 562.00
72.3637 582.00
72.4289 595.00
72.4941 504.00
72.5593 518.00
72.6245 481.00
72.6897 470.00
72.7549 498.00
72.8201 449.00
72.8853 414.00
72.9505 416.00
73.0157 432.00
73.0809 395.00
73.1461 453.00
73.2113 448.00
73.2765 423.00
73.3417 455.00
73.4069 461.00
73.4721 414.00
73.5373 457.00
73.6025 437.00
73.6677 440.00
73.7329 418.00
73.7981 413.00
73.8633 366.00
73.9285 369.00
73.9937 357.00
74.0589 351.00
74.1241 322.00
74.1893 338.00
74.2545 360.00
74.3197 388.00
74.3849 351.00
74.4501 377.00
74.5153 376.00
74.5805 423.00
74.6457 383.00
74.7109 421.00
74.7761 407.00
74.8413 436.00
74.9065 415.00
74.9717 444.00
75.0369 543.00
75.1021 486.00
75.1673 494.00
75.2325 525.00
75.2977 538.00
75.3629 557.00
75.4281 563.00
75.4933 566.00
75.5585 534.00
75.6237 535.00
75.6889 540.00
75.7541 482.00
75.8193 528.00
75.8845 445.00
75.9497 476.00
76.0149 505.00
76.0801 503.00
76.1452 556.00
76.2104 609.00
76.2756 561.00
76.3409 587.00
76.406 612.00
76.4712 571.00
76.5364 586.00
76.6016 539.00
76.6668 516.00
76.732 515.00
76.7972 527.00
76.8624 504.00
76.9276 486.00
76.9928 506.00
77.058 514.00
77.1232 555.00
77.1884 592.00
77.2536 571.00
77.3188 602.00
77.384 641.00
77.4492 663.00
77.5144 634.00
77.5796 742.00
77.6448 703.00
77.71 725.00
77.7752 725.00
77.8404 736.00
77.9056 670.00
77.9708 730.00
78.036 695.00
78.1012 689.00
78.1664 683.00
78.2316 673.00
78.2968 709.00
78.362 624.00
78.4272 627.00
78.4924 544.00
78.5576 553.00
78.6228 531.00
78.688 474.00
78.7532 480.00
78.8184 504.00
78.8836 517.00
78.9488 520.00
79.014 508.00
79.0792 564.00
79.1444 533.00
79.2096 555.00
79.2748 600.00
79.34 592.00
79.4052 615.00
79.4704 568.00
79.5356 599.00
79.6008 590.00
79.666 580.00
79.7312 534.00
79.7964 502.00
79.8616 547.00
79.9268 490.00
79.992 500.00
80.0572 451.00
80.1224 399.00
80.1876 416.00
80.2528 457.00
80.318 441.00
80.3832 444.00
80.4484 476.00
80.5136 450.00
80.5788 447.00
80.644 456.00
80.7092 489.00
80.7744 491.00
80.8396 505.00
80.9048 555.00
80.9699 551.00
81.0351 591.00
81.1003 610.00
81.1655 597.00
81.2307 530.00
81.2959 587.00
81.3611 559.00
81.4263 552.00
81.4915 461.00
81.5567 438.00
81.6219 398.00
81.6871 431.00
81.7523 431.00
81.8175 421.00
81.8827 386.00
81.9479 402.00
82.0131 357.00
82.0783 356.00
82.1435 364.00
82.2087 380.00
82.2739 365.00
82.3391 313.00
82.4043 330.00
82.4695 352.00
82.5347 314.00
82.5999 336.00
82.6651 342.00
82.7303 357.00
82.7955 369.00
82.8607 354.00
82.9259 365.00
82.9911 364.00
83.0563 368.00
83.1215 313.00
83.1867 369.00
83.2519 377.00
83.3171 369.00
83.3823 348.00
83.4475 375.00
83.5127 370.00
83.5779 357.00
83.6431 378.00
83.7083 349.00
83.7735 349.00
83.8387 348.00
83.9039 330.00
83.9691 320.00
84.0343 386.00
84.0995 338.00
84.1647 331.00
84.2299 374.00
84.2951 359.00
84.3603 395.00
84.4255 374.00
84.4907 411.00
84.5559 424.00
84.6211 410.00
84.6863 389.00
84.7515 394.00
84.8167 408.00
84.8819 419.00
84.9471 425.00
85.0123 405.00
85.0775 433.00
85.1427 392.00
85.2079 394.00
85.2731 422.00
85.3383 433.00
85.4035 406.00
85.4687 450.00
85.5339 469.00
85.5991 433.00
85.6643 413.00
85.7295 372.00
85.7946 344.00
85.8598 400.00
85.925 382.00
85.9903 342.00
86.0554 336.00
86.1206 355.00
86.1858 316.00
86.251 362.00
86.3162 347.00
86.3814 339.00
86.4466 308.00
86.5118 295.00
86.577 302.00
86.6422 312.00
86.7074 310.00
86.7726 326.00
86.8378 278.00
86.903 292.00
86.9682 306.00
87.0334 335.00
87.0986 309.00
87.1638 310.00
87.229 334.00
87.2942 319.00
87.3594 366.00
87.4246 364.00
87.4898 363.00
87.555 361.00
87.6202 324.00
87.6854 357.00
87.7506 357.00
87.8158 404.00
87.881 374.00
87.9462 386.00
88.0114 447.00
88.0766 462.00
88.1418 428.00
88.207 409.00
88.2722 441.00
88.3374 417.00
88.4026 354.00
88.4678 397.00
88.533 323.00
88.5982 408.00
88.6634 347.00
88.7286 363.00
88.7938 372.00
88.859 302.00
88.9242 301.00
88.9894 322.00
89.0546 298.00
89.1198 301.00
89.185 325.00
89.2502 321.00
89.3154 279.00
89.3806 335.00
89.4458 352.00
89.511 338.00
89.5762 313.00
89.6414 330.00
89.7066 343.00
89.7718 356.00
89.837 367.00
89.9022 345.00
89.9674 351.00
90.0326 371.00
90.0978 350.00
90.163 338.00
90.2282 372.00
90.2934 334.00
90.3586 323.00
90.4238 387.00
90.489 384.00
90.5542 344.00
90.6193 386.00
90.6845 380.00
90.7497 331.00
90.8149 354.00
90.8801 344.00
90.9453 344.00
91.0105 327.00
91.0757 317.00
91.1409 305.00
91.2061 323.00
91.2713 305.00
91.3365 296.00
91.4017 306.00
91.4669 314.00
91.5321 333.00
91.5973 284.00
91.6625 345.00
91.7277 326.00
91.7929 342.00
91.8581 352.00
91.9233 341.00
91.9885 352.00
92.0537 341.00
92.1189 347.00
92.1841 334.00
92.2493 352.00
92.3145 319.00
92.3797 336.00
92.4449 351.00
92.5101 353.00
92.5753 330.00
92.6405 355.00
92.7057 341.00
92.7709 339.00
92.8361 350.00
92.9013 351.00
92.9665 350.00
93.0317 380.00
93.0969 370.00
93.1621 336.00
93.2273 369.00
93.2925 326.00
93.3577 373.00
93.4229 383.00
93.4881 364.00
93.5533 383.00
93.6185 386.00
93.6837 417.00
93.7489 427.00
93.8141 419.00
93.8793 418.00
93.9445 412.00
94.0097 403.00
94.0749 432.00
94.1401 431.00
94.2053 402.00
94.2705 417.00
94.3357 436.00
94.4009 404.00
94.4661 399.00
94.5313 410.00
94.5965 410.00
94.6617 402.00
94.7269 407.00
94.7921 438.00
94.8573 409.00
94.9225 376.00
94.9877 396.00
95.0529 392.00
95.1181 381.00
95.1833 354.00
95.2485 359.00
95.3137 366.00
95.3789 318.00
95.444 364.00
95.5092 356.00
95.5744 343.00
95.6396 360.00
95.7048 371.00
95.77 415.00
95.8352 394.00
95.9004 398.00
95.9656 336.00
96.0308 356.00
96.096 391.00
96.1612 383.00
96.2264 348.00
96.2916 388.00
96.3568 356.00
96.422 389.00
96.4872 339.00
96.5524 360.00
96.6176 391.00
96.6828 400.00
96.748 385.00
96.8132 397.00
96.8784 449.00
96.9436 367.00
97.0088 374.00
97.074 384.00
97.1392 348.00
97.2044 392.00
97.2696 371.00
97.3348 385.00
97.4 383.00
97.4652 399.00
97.5304 389.00
97.5956 399.00
97.6608 403.00
97.726 403.00
97.7912 390.00
97.8564 388.00
97.9216 395.00
97.9868 371.00
98.052 387.00
98.1172 376.00
98.1824 406.00
98.2476 375.00
98.3128 346.00
98.378 355.00
98.4432 369.00
98.5084 344.00
98.5736 374.00
98.6388 326.00
98.704 389.00
98.7692 387.00
98.8344 353.00
98.8996 369.00
98.9648 341.00
99.03 319.00
99.0952 344.00
99.1604 341.00
99.2256 300.00
99.2908 310.00
99.356 278.00
99.4212 294.00
99.4864 303.00
99.5516 306.00
99.6168 303.00
99.682 306.00
99.7472 328.00
99.8124 294.00
99.8776 312.00
99.9428 328.00
100.008 340.00
100.073 365.00
100.095 322.00