File: data/xrd_creation/results/MINES_8.xy
9.903433 2729.00
9.968632 2585.00
10.0338 2622.00
10.099 2569.00
10.1642 2496.00
10.2294 2643.00
10.2946 2558.00
10.3598 2573.00
10.425 2476.00
10.4902 2396.00
10.5554 2420.00
10.6206 2343.00
10.6858 2439.00
10.751 2315.00
10.8162 2370.00
10.8814 2218.00
10.9466 2261.00
11.0118 2257.00
11.077 2243.00
11.1422 2184.00
11.2074 2180.00
11.2726 2245.00
11.3378 2115.00
11.403 2077.00
11.4682 2060.00
11.5334 2125.00
11.5986 2004.00
11.6638 2071.00
11.729 1996.00
11.7942 2088.00
11.8594 2031.00
11.9246 1889.00
11.9898 1985.00
12.055 2001.00
12.1202 1919.00
12.1854 1902.00
12.2506 1930.00
12.3158 1872.00
12.381 1880.00
12.4462 1807.00
12.5114 1831.00
12.5766 1828.00
12.6418 1781.00
12.707 1761.00
12.7722 1753.00
12.8374 1770.00
12.9026 1709.00
12.9678 1688.00
13.033 1720.00
13.0982 1666.00
13.1634 1632.00
13.2286 1625.00
13.2938 1610.00
13.359 1625.00
13.4242 1592.00
13.4894 1598.00
13.5546 1571.00
13.6198 1578.00
13.685 1634.00
13.7502 1543.00
13.8154 1492.00
13.8805 1524.00
13.9457 1540.00
14.0109 1406.00
14.0761 1493.00
14.1413 1457.00
14.2065 1495.00
14.2717 1497.00
14.3369 1404.00
14.4021 1463.00
14.4673 1439.00
14.5325 1441.00
14.5977 1449.00
14.6629 1427.00
14.7281 1405.00
14.7933 1377.00
14.8585 1425.00
14.9237 1376.00
14.9889 1373.00
15.0541 1423.00
15.1193 1428.00
15.1845 1410.00
15.2497 1424.00
15.3149 1441.00
15.3801 1450.00
15.4453 1486.00
15.5105 1346.00
15.5757 1383.00
15.6409 1361.00
15.7061 1267.00
15.7713 1325.00
15.8365 1230.00
15.9017 1293.00
15.9669 1299.00
16.0321 1351.00
16.0973 1265.00
16.1625 1281.00
16.2277 1219.00
16.2929 1244.00
16.3581 1259.00
16.4233 1264.00
16.4885 1266.00
16.5537 1236.00
16.6189 1270.00
16.6841 1253.00
16.7493 1300.00
16.8145 1199.00
16.8797 1210.00
16.9449 1187.00
17.0101 1186.00
17.0753 1136.00
17.1405 1130.00
17.2057 1212.00
17.2709 1126.00
17.3361 1102.00
17.4013 1134.00
17.4665 1176.00
17.5317 1103.00
17.5969 1132.00
17.6621 1163.00
17.7273 1099.00
17.7925 1074.00
17.8577 1157.00
17.9229 1037.00
17.9881 1071.00
18.0533 1088.00
18.1185 1075.00
18.1837 1075.00
18.2489 1082.00
18.3141 1104.00
18.3793 1072.00
18.4445 1028.00
18.5097 1088.00
18.5749 1083.00
18.6401 1028.00
18.7052 1000.00
18.7704 1091.00
18.8356 997.00
18.9008 1075.00
18.966 1067.00
19.0312 1080.00
19.0964 1117.00
19.1616 1183.00
19.2268 1311.00
19.292 1292.00
19.3572 1361.00
19.4224 1603.00
19.4876 1567.00
19.5528 1538.00
19.618 1293.00
19.6832 1081.00
19.7484 1092.00
19.8136 1088.00
19.8788 1017.00
19.944 955.00
20.0092 922.00
20.0744 923.00
20.1396 948.00
20.2048 969.00
20.27 933.00
20.3352 895.00
20.4004 901.00
20.4656 915.00
20.5308 895.00
20.596 910.00
20.6612 877.00
20.7264 892.00
20.7916 916.00
20.8568 893.00
20.922 839.00
20.9872 838.00
21.0524 898.00
21.1176 781.00
21.1828 851.00
21.248 832.00
21.3132 841.00
21.3784 898.00
21.4436 928.00
21.5088 890.00
21.574 914.00
21.6392 858.00
21.7044 824.00
21.7696 887.00
21.8348 865.00
21.9 859.00
21.9652 849.00
22.0304 814.00
22.0956 802.00
22.1608 878.00
22.226 864.00
22.2912 791.00
22.3564 884.00
22.4216 856.00
22.4868 918.00
22.552 1089.00
22.6172 1377.00
22.6824 1667.00
22.7476 2024.00
22.8128 2196.00
22.878 2531.00
22.9432 2757.00
23.0084 2328.00
23.0736 1696.00
23.1388 1101.00
23.204 871.00
23.2692 863.00
23.3344 829.00
23.3996 779.00
23.4647 731.00
23.5299 787.00
23.5951 806.00
23.6603 761.00
23.7255 748.00
23.7907 738.00
23.8559 757.00
23.9211 744.00
23.9863 687.00
24.0515 775.00
24.1167 687.00
24.1819 773.00
24.2471 815.00
24.3123 730.00
24.3775 759.00
24.4427 781.00
24.5079 797.00
24.5731 707.00
24.6383 764.00
24.7035 714.00
24.7687 739.00
24.8339 756.00
24.8991 789.00
24.9643 759.00
25.0295 775.00
25.0947 850.00
25.1599 845.00
25.2251 910.00
25.2903 1122.00
25.3555 1630.00
25.4207 2528.00
25.4859 4062.00
25.5511 5277.00
25.6163 6387.00
25.6815 7595.00
25.7467 8255.00
25.8119 7675.00
25.8771 5556.00
25.9423 2950.00
26.0075 1564.00
26.0727 1035.00
26.1379 876.00
26.2031 850.00
26.2683 777.00
26.3335 729.00
26.3987 685.00
26.4639 755.00
26.5291 696.00
26.5943 699.00
26.6595 679.00
26.7247 668.00
26.7899 732.00
26.8551 692.00
26.9203 664.00
26.9855 672.00
27.0507 623.00
27.1159 611.00
27.1811 691.00
27.2463 657.00
27.3115 659.00
27.3767 684.00
27.4419 679.00
27.5071 655.00
27.5723 667.00
27.6375 617.00
27.7027 669.00
27.7679 651.00
27.8331 651.00
27.8983 647.00
27.9635 663.00
28.0287 716.00
28.0939 857.00
28.1591 908.00
28.2243 1070.00
28.2894 1165.00
28.3546 1182.00
28.4198 1248.00
28.485 1038.00
28.5502 802.00
28.6154 661.00
28.6806 691.00
28.7458 627.00
28.811 607.00
28.8762 557.00
28.9414 562.00
29.0066 567.00
29.0718 558.00
29.137 590.00
29.2022 513.00
29.2674 581.00
29.3326 530.00
29.3978 596.00
29.463 617.00
29.5282 546.00
29.5934 583.00
29.6586 536.00
29.7238 556.00
29.789 523.00
29.8542 539.00
29.9194 577.00
29.9846 555.00
30.0498 533.00
30.115 565.00
30.1802 579.00
30.2454 546.00
30.3106 571.00
30.3758 524.00
30.441 564.00
30.5062 544.00
30.5714 552.00
30.6366 540.00
30.7018 514.00
30.767 550.00
30.8322 567.00
30.8974 511.00
30.9626 500.00
31.0278 469.00
31.093 523.00
31.1582 498.00
31.2234 543.00
31.2886 518.00
31.3538 513.00
31.419 489.00
31.4842 510.00
31.5494 488.00
31.6146 505.00
31.6798 475.00
31.745 533.00
31.8102 543.00
31.8754 563.00
31.9406 519.00
32.0058 511.00
32.071 515.00
32.1362 508.00
32.2014 512.00
32.2666 486.00
32.3318 522.00
32.397 467.00
32.4622 473.00
32.5274 488.00
32.5926 517.00
32.6578 509.00
32.723 543.00
32.7882 522.00
32.8534 526.00
32.9186 515.00
32.9838 496.00
33.0489 516.00
33.1141 461.00
33.1793 479.00
33.2445 510.00
33.3097 463.00
33.3749 428.00
33.4401 468.00
33.5053 451.00
33.5705 451.00
33.6357 463.00
33.7009 458.00
33.7661 478.00
33.8313 490.00
33.8965 500.00
33.9617 521.00
34.0269 565.00
34.0921 550.00
34.1573 476.00
34.2225 505.00
34.2877 504.00
34.3529 468.00
34.4181 471.00
34.4833 423.00
34.5485 473.00
34.6137 466.00
34.6789 421.00
34.7441 423.00
34.8093 452.00
34.8745 420.00
34.9397 405.00
35.0049 447.00
35.0701 387.00
35.1353 440.00
35.2005 388.00
35.2657 408.00
35.3309 420.00
35.3961 426.00
35.4613 385.00
35.5265 395.00
35.5917 399.00
35.6569 345.00
35.7221 396.00
35.7873 402.00
35.8525 423.00
35.9177 402.00
35.9829 424.00
36.0481 398.00
36.1133 378.00
36.1785 413.00
36.2437 435.00
36.3089 422.00
36.3741 423.00
36.4393 429.00
36.5045 402.00
36.5697 402.00
36.6349 395.00
36.7001 389.00
36.7653 394.00
36.8305 356.00
36.8957 411.00
36.9609 410.00
37.0261 375.00
37.0913 376.00
37.1565 447.00
37.2217 328.00
37.2869 424.00
37.3521 357.00
37.4173 426.00
37.4825 339.00
37.5477 352.00
37.6129 415.00
37.6781 366.00
37.7433 383.00
37.8085 388.00
37.8736 403.00
37.9388 376.00
38.004 377.00
38.0692 357.00
38.1344 374.00
38.1996 411.00
38.2648 390.00
38.33 354.00
38.3952 369.00
38.4604 360.00
38.5256 394.00
38.5908 394.00
38.656 362.00
38.7212 343.00
38.7864 386.00
38.8516 363.00
38.9168 399.00
38.982 436.00
39.0472 412.00
39.1124 472.00
39.1776 533.00
39.2428 522.00
39.308 543.00
39.3732 537.00
39.4384 439.00
39.5036 409.00
39.5688 488.00
39.634 455.00
39.6992 450.00
39.7644 443.00
39.8296 488.00
39.8948 492.00
39.96 489.00
40.0252 507.00
40.0904 521.00
40.1556 434.00
40.2208 409.00
40.286 396.00
40.3512 333.00
40.4164 334.00
40.4816 357.00
40.5468 348.00
40.612 350.00
40.6772 392.00
40.7424 329.00
40.8076 335.00
40.8728 323.00
40.938 320.00
41.0032 291.00
41.0684 341.00
41.1336 324.00
41.1988 363.00
41.264 349.00
41.3292 363.00
41.3944 372.00
41.4596 344.00
41.5248 334.00
41.59 369.00
41.6552 302.00
41.7204 352.00
41.7856 283.00
41.8508 352.00
41.916 334.00
41.9812 305.00
42.0464 349.00
42.1116 300.00
42.1768 344.00
42.242 321.00
42.3072 345.00
42.3724 331.00
42.4376 288.00
42.5028 317.00
42.568 301.00
42.6332 353.00
42.6983 337.00
42.7635 406.00
42.8287 437.00
42.8939 462.00
42.9591 472.00
43.0243 427.00
43.0895 429.00
43.1547 413.00
43.2199 374.00
43.2851 379.00
43.3503 390.00
43.4155 341.00
43.4807 312.00
43.5459 340.00
43.6111 314.00
43.6763 285.00
43.7415 305.00
43.8067 321.00
43.8719 303.00
43.9371 308.00
44.0023 312.00
44.0675 280.00
44.1327 300.00
44.1979 284.00
44.2631 282.00
44.3283 294.00
44.3935 268.00
44.4587 289.00
44.5239 278.00
44.5891 285.00
44.6543 320.00
44.7195 285.00
44.7847 267.00
44.8499 275.00
44.9151 277.00
44.9803 299.00
45.0455 275.00
45.1107 281.00
45.1759 286.00
45.2411 285.00
45.3063 309.00
45.3715 258.00
45.4367 279.00
45.5019 297.00
45.5671 274.00
45.6323 298.00
45.6975 298.00
45.7627 276.00
45.8279 294.00
45.8931 279.00
45.9583 281.00
46.0235 301.00
46.0887 294.00
46.1539 296.00
46.2191 274.00
46.2843 289.00
46.3495 290.00
46.4147 307.00
46.4799 305.00
46.5451 278.00
46.6103 299.00
46.6755 321.00
46.7407 391.00
46.8059 382.00
46.8711 409.00
46.9363 503.00
47.0015 491.00
47.0667 495.00
47.1319 421.00
47.1971 400.00
47.2623 329.00
47.3275 293.00
47.3927 308.00
47.4579 304.00
47.523 295.00
47.5882 300.00
47.6534 295.00
47.7186 345.00
47.7838 331.00
47.849 349.00
47.9142 371.00
47.9794 425.00
48.0446 465.00
48.1098 554.00
48.175 535.00
48.2402 617.00
48.3054 682.00
48.3706 773.00
48.4358 869.00
48.501 799.00
48.5662 805.00
48.6314 691.00
48.6966 593.00
48.7618 507.00
48.827 383.00
48.8922 305.00
48.9574 304.00
49.0226 305.00
49.0878 290.00
49.153 286.00
49.2182 283.00
49.2834 227.00
49.3486 260.00
49.4138 297.00
49.479 263.00
49.5442 271.00
49.6094 247.00
49.6746 287.00
49.7398 243.00
49.805 258.00
49.8702 262.00
49.9354 258.00
50.0006 282.00
50.0658 232.00
50.131 282.00
50.1962 256.00
50.2614 243.00
50.3266 311.00
50.3918 272.00
50.457 247.00
50.5222 266.00
50.5874 240.00
50.6526 251.00
50.7178 265.00
50.783 278.00
50.8482 257.00
50.9134 256.00
50.9786 223.00
51.0438 271.00
51.109 266.00
51.1742 264.00
51.2394 266.00
51.3046 269.00
51.3698 241.00
51.435 247.00
51.5002 242.00
51.5654 256.00
51.6306 272.00
51.6958 262.00
51.761 258.00
51.8262 247.00
51.8914 247.00
51.9566 266.00
52.0218 271.00
52.087 278.00
52.1522 259.00
52.2174 257.00
52.2826 258.00
52.3477 269.00
52.4129 271.00
52.4781 310.00
52.5433 285.00
52.6085 268.00
52.6737 239.00
52.7389 291.00
52.8041 267.00
52.8693 279.00
52.9345 238.00
52.9997 259.00
53.0649 214.00
53.1301 234.00
53.1953 239.00
53.2605 271.00
53.3257 268.00
53.3909 258.00
53.4561 248.00
53.5213 231.00
53.5865 201.00
53.6517 259.00
53.7169 229.00
53.7821 229.00
53.8473 223.00
53.9125 278.00
53.9777 272.00
54.0429 274.00
54.1081 227.00
54.1733 272.00
54.2385 306.00
54.3037 250.00
54.3689 262.00
54.4341 261.00
54.4993 271.00
54.5645 258.00
54.6297 246.00
54.6949 237.00
54.7601 247.00
54.8253 228.00
54.8905 259.00
54.9557 214.00
55.0209 230.00
55.0861 227.00
55.1513 223.00
55.2165 232.00
55.2817 233.00
55.3469 286.00
55.4121 267.00
55.4773 303.00
55.5425 336.00
55.6077 344.00
55.6729 360.00
55.7381 341.00
55.8033 421.00
55.8685 420.00
55.9337 436.00
55.9989 351.00
56.0641 368.00
56.1293 326.00
56.1945 325.00
56.2597 292.00
56.3249 279.00
56.3901 279.00
56.4553 274.00
56.5205 217.00
56.5857 247.00
56.6509 231.00
56.7161 191.00
56.7813 216.00
56.8465 244.00
56.9117 190.00
56.9769 226.00
57.042 191.00
57.1073 218.00
57.1724 210.00
57.2376 221.00
57.3028 220.00
57.368 203.00
57.4332 213.00
57.4984 219.00
57.5636 246.00
57.6288 202.00
57.694 217.00
57.7592 214.00
57.8244 196.00
57.8896 198.00
57.9548 230.00
58.02 236.00
58.0852 211.00
58.1504 217.00
58.2156 199.00
58.2808 188.00
58.346 225.00
58.4112 226.00
58.4764 213.00
58.5416 222.00
58.6068 216.00
58.672 220.00
58.7372 240.00
58.8024 212.00
58.8676 205.00
58.9328 228.00
58.998 200.00
59.0632 219.00
59.1284 196.00
59.1936 205.00
59.2588 199.00
59.324 184.00
59.3892 206.00
59.4544 216.00
59.5196 231.00
59.5848 208.00
59.65 223.00
59.7152 202.00
59.7804 235.00
59.8456 218.00
59.9108 229.00
59.976 267.00
60.0412 277.00
60.1064 305.00
60.1716 268.00
60.2368 256.00
60.302 244.00
60.3672 281.00
60.4324 220.00
60.4976 228.00
60.5628 241.00
60.628 214.00
60.6932 196.00
60.7584 192.00
60.8236 195.00
60.8888 210.00
60.954 228.00
61.0192 202.00
61.0844 220.00
61.1496 212.00
61.2148 202.00
61.28 202.00
61.3452 189.00
61.4104 211.00
61.4756 242.00
61.5408 214.00
61.606 190.00
61.6712 210.00
61.7364 196.00
61.8016 167.00
61.8667 199.00
61.932 197.00
61.9971 191.00
62.0623 203.00
62.1275 205.00
62.1927 209.00
62.2579 196.00
62.3231 225.00
62.3883 202.00
62.4535 211.00
62.5187 198.00
62.5839 218.00
62.6491 222.00
62.7143 218.00
62.7795 207.00
62.8447 241.00
62.9099 272.00
62.9751 228.00
63.0403 245.00
63.1055 238.00
63.1707 208.00
63.2359 216.00
63.3011 230.00
63.3663 214.00
63.4315 191.00
63.4967 180.00
63.5619 214.00
63.6271 200.00
63.6923 198.00
63.7575 220.00
63.8227 246.00
63.8879 226.00
63.9531 223.00
64.0183 290.00
64.0835 297.00
64.1487 271.00
64.2139 261.00
64.2791 294.00
64.3443 247.00
64.4095 221.00
64.4747 217.00
64.5399 237.00
64.6051 211.00
64.6703 196.00
64.7355 208.00
64.8007 187.00
64.8659 180.00
64.9311 207.00
64.9963 197.00
65.0615 222.00
65.1267 228.00
65.1919 276.00
65.2571 282.00
65.3223 278.00
65.3875 283.00
65.4527 239.00
65.5179 250.00
65.5831 208.00
65.6483 229.00
65.7135 219.00
65.7787 193.00
65.8439 236.00
65.9091 242.00
65.9743 220.00
66.0395 200.00
66.1047 182.00
66.1699 222.00
66.2351 201.00
66.3003 218.00
66.3655 219.00
66.4307 248.00
66.4959 263.00
66.561 270.00
66.6263 270.00
66.6915 278.00
66.7566 295.00
66.8218 239.00
66.887 207.00
66.9522 226.00
67.0174 223.00
67.0826 214.00
67.1478 185.00
67.213 191.00
67.2782 191.00
67.3434 211.00
67.4086 198.00
67.4738 201.00
67.539 199.00
67.6042 214.00
67.6694 206.00
67.7346 217.00
67.7998 278.00
67.865 219.00
67.9302 207.00
67.9954 229.00
68.0606 240.00
68.1258 210.00
68.191 240.00
68.2562 220.00
68.3214 231.00
68.3866 208.00
68.4518 227.00
68.517 200.00
68.5822 160.00
68.6474 174.00
68.7126 201.00
68.7778 176.00
68.843 194.00
68.9082 208.00
68.9734 204.00
69.0386 179.00
69.1038 181.00
69.169 193.00
69.2342 213.00
69.2994 205.00
69.3646 183.00
69.4298 172.00
69.495 188.00
69.5602 251.00
69.6254 232.00
69.6906 249.00
69.7558 239.00
69.821 245.00
69.8862 194.00
69.9514 199.00
70.0166 183.00
70.0818 182.00
70.147 168.00
70.2122 179.00
70.2774 192.00
70.3426 172.00
70.4078 190.00
70.473 179.00
70.5382 184.00
70.6034 210.00
70.6686 189.00
70.7338 209.00
70.799 204.00
70.8642 212.00
70.9294 230.00
70.9946 229.00
71.0598 208.00
71.125 293.00
71.1902 247.00
71.2554 258.00
71.3205 280.00
71.3858 258.00
71.451 283.00
71.5162 261.00
71.5813 235.00
71.6465 224.00
71.7117 215.00
71.7769 190.00
71.8421 225.00
71.9073 214.00
71.9725 195.00
72.0377 218.00
72.1029 214.00
72.1681 200.00
72.2333 194.00
72.2985 223.00
72.3637 165.00
72.4289 174.00
72.4941 171.00
72.5593 188.00
72.6245 198.00
72.6897 184.00
72.7549 160.00
72.8201 202.00
72.8853 195.00
72.9505 203.00
73.0157 207.00
73.0809 194.00
73.1461 211.00
73.2113 194.00
73.2765 175.00
73.3417 194.00
73.4069 203.00
73.4721 180.00
73.5373 203.00
73.6025 187.00
73.6677 202.00
73.7329 212.00
73.7981 205.00
73.8633 208.00
73.9285 197.00
73.9937 209.00
74.0589 201.00
74.1241 180.00
74.1893 224.00
74.2545 213.00
74.3197 175.00
74.3849 185.00
74.4501 217.00
74.5153 215.00
74.5805 250.00
74.6457 213.00
74.7109 223.00
74.7761 240.00
74.8413 219.00
74.9065 242.00
74.9717 211.00
75.0369 207.00
75.1021 206.00
75.1673 218.00
75.2325 200.00
75.2977 188.00
75.3629 207.00
75.4281 211.00
75.4933 217.00
75.5585 169.00
75.6237 202.00
75.6889 202.00
75.7541 190.00
75.8193 189.00
75.8845 221.00
75.9497 183.00
76.0149 181.00
76.0801 208.00
76.1452 221.00
76.2104 211.00
76.2756 204.00
76.3409 189.00
76.406 195.00
76.4712 229.00
76.5364 230.00
76.6016 215.00
76.6668 249.00
76.732 238.00
76.7972 281.00
76.8624 298.00
76.9276 303.00
76.9928 291.00
77.058 311.00
77.1232 291.00
77.1884 257.00
77.2536 256.00
77.3188 256.00
77.384 263.00
77.4492 231.00
77.5144 207.00
77.5796 217.00
77.6448 219.00
77.71 223.00
77.7752 223.00
77.8404 214.00
77.9056 265.00
77.9708 230.00
78.036 231.00
78.1012 217.00
78.1664 232.00
78.2316 242.00
78.2968 210.00
78.362 201.00
78.4272 205.00
78.4924 193.00
78.5576 215.00
78.6228 211.00
78.688 219.00
78.7532 246.00
78.8184 244.00
78.8836 240.00
78.9488 201.00
79.014 258.00
79.0792 226.00
79.1444 227.00
79.2096 206.00
79.2748 257.00
79.34 212.00
79.4052 197.00
79.4704 215.00
79.5356 209.00
79.6008 217.00
79.666 194.00
79.7312 223.00
79.7964 197.00
79.8616 245.00
79.9268 201.00
79.992 190.00
80.0572 222.00
80.1224 187.00
80.1876 215.00
80.2528 241.00
80.318 232.00
80.3832 239.00
80.4484 222.00
80.5136 263.00
80.5788 264.00
80.644 248.00
80.7092 269.00
80.7744 261.00
80.8396 213.00
80.9048 231.00
80.9699 244.00
81.0351 207.00
81.1003 229.00
81.1655 247.00
81.2307 205.00
81.2959 208.00
81.3611 221.00
81.4263 207.00
81.4915 211.00
81.5567 244.00
81.6219 219.00
81.6871 213.00
81.7523 205.00
81.8175 188.00
81.8827 221.00
81.9479 228.00
82.0131 235.00
82.0783 202.00
82.1435 208.00
82.2087 217.00
82.2739 222.00
82.3391 201.00
82.4043 248.00
82.4695 231.00
82.5347 234.00
82.5999 241.00
82.6651 206.00
82.7303 227.00
82.7955 197.00
82.8607 222.00
82.9259 213.00
82.9911 207.00
83.0563 234.00
83.1215 197.00
83.1867 239.00
83.2519 214.00
83.3171 201.00
83.3823 221.00
83.4475 243.00
83.5127 224.00
83.5779 207.00
83.6431 204.00
83.7083 200.00
83.7735 225.00
83.8387 215.00
83.9039 206.00
83.9691 213.00
84.0343 214.00
84.0995 242.00
84.1647 236.00
84.2299 203.00
84.2951 191.00
84.3603 227.00
84.4255 244.00
84.4907 239.00
84.5559 227.00
84.6211 216.00
84.6863 237.00
84.7515 243.00
84.8167 229.00
84.8819 218.00
84.9471 226.00
85.0123 219.00
85.0775 232.00
85.1427 227.00
85.2079 232.00
85.2731 220.00
85.3383 172.00
85.4035 221.00
85.4687 222.00
85.5339 189.00
85.5991 232.00
85.6643 219.00
85.7295 208.00
85.7946 209.00
85.8598 209.00
85.925 185.00
85.9903 202.00
86.0554 192.00
86.1206 182.00
86.1858 187.00
86.251 202.00
86.3162 197.00
86.3814 196.00
86.4466 206.00
86.5118 200.00
86.577 203.00
86.6422 196.00
86.7074 185.00
86.7726 208.00
86.8378 206.00
86.903 199.00
86.9682 195.00
87.0334 195.00
87.0986 162.00
87.1638 187.00
87.229 208.00
87.2942 171.00
87.3594 161.00
87.4246 200.00
87.4898 183.00
87.555 220.00
87.6202 192.00
87.6854 194.00
87.7506 187.00
87.8158 162.00
87.881 202.00
87.9462 193.00
88.0114 187.00
88.0766 187.00
88.1418 199.00
88.207 185.00
88.2722 195.00
88.3374 170.00
88.4026 177.00
88.4678 209.00
88.533 186.00
88.5982 170.00
88.6634 183.00
88.7286 204.00
88.7938 174.00
88.859 191.00
88.9242 153.00
88.9894 181.00
89.0546 204.00
89.1198 198.00
89.185 187.00
89.2502 194.00
89.3154 193.00
89.3806 171.00
89.4458 167.00
89.511 174.00
89.5762 178.00
89.6414 170.00
89.7066 194.00
89.7718 172.00
89.837 183.00
89.9022 186.00
89.9674 189.00
90.0326 185.00
90.0978 164.00
90.163 167.00
90.2282 183.00
90.2934 188.00
90.3586 180.00
90.4238 172.00
90.489 167.00
90.5542 168.00
90.6193 162.00
90.6845 170.00
90.7497 167.00
90.8149 183.00
90.8801 190.00
90.9453 192.00
91.0105 180.00
91.0757 155.00
91.1409 194.00
91.2061 199.00
91.2713 199.00
91.3365 142.00
91.4017 185.00
91.4669 182.00
91.5321 172.00
91.5973 179.00
91.6625 179.00
91.7277 169.00
91.7929 176.00
91.8581 191.00
91.9233 176.00
91.9885 198.00
92.0537 167.00
92.1189 181.00
92.1841 180.00
92.2493 188.00
92.3145 168.00
92.3797 200.00
92.4449 166.00
92.5101 176.00
92.5753 209.00
92.6405 183.00
92.7057 180.00
92.7709 185.00
92.8361 176.00
92.9013 187.00
92.9665 211.00
93.0317 175.00
93.0969 184.00
93.1621 177.00
93.2273 174.00
93.2925 195.00
93.3577 198.00
93.4229 171.00
93.4881 185.00
93.5533 198.00
93.6185 183.00
93.6837 178.00
93.7489 197.00
93.8141 179.00
93.8793 177.00
93.9445 188.00
94.0097 188.00
94.0749 173.00
94.1401 184.00
94.2053 188.00
94.2705 193.00
94.3357 187.00
94.4009 176.00
94.4661 207.00
94.5313 193.00
94.5965 200.00
94.6617 196.00
94.7269 202.00
94.7921 194.00
94.8573 187.00
94.9225 175.00
94.9877 178.00
95.0529 153.00
95.1181 190.00
95.1833 163.00
95.2485 169.00
95.3137 181.00
95.3789 179.00
95.444 179.00
95.5092 174.00
95.5744 178.00
95.6396 197.00
95.7048 176.00
95.77 187.00
95.8352 172.00
95.9004 181.00
95.9656 198.00
96.0308 173.00
96.096 189.00
96.1612 206.00
96.2264 174.00
96.2916 183.00
96.3568 185.00
96.422 206.00
96.4872 167.00
96.5524 183.00
96.6176 179.00
96.6828 213.00
96.748 209.00
96.8132 195.00
96.8784 165.00
96.9436 191.00
97.0088 174.00
97.074 190.00
97.1392 183.00
97.2044 162.00
97.2696 200.00
97.3348 186.00
97.4 200.00
97.4652 153.00
97.5304 182.00
97.5956 162.00
97.6608 189.00
97.726 181.00
97.7912 170.00
97.8564 187.00
97.9216 200.00
97.9868 179.00
98.052 164.00
98.1172 191.00
98.1824 161.00
98.2476 171.00
98.3128 186.00
98.378 204.00
98.4432 192.00
98.5084 154.00
98.5736 173.00
98.6388 176.00
98.704 162.00
98.7692 169.00
98.8344 182.00
98.8996 182.00
98.9648 169.00
99.03 194.00
99.0952 176.00
99.1604 170.00
99.2256 184.00
99.2908 174.00
99.356 176.00
99.4212 174.00
99.4864 188.00
99.5516 182.00
99.6168 180.00
99.682 175.00
99.7472 159.00
99.8124 178.00
99.8776 173.00
99.9428 184.00
100.008 179.00
100.073 175.00
100.095 197.00