File: data/xrd_creation/results/MINES_7.xy
9.903433 3028.00
9.968632 2975.00
10.0338 2908.00
10.099 2970.00
10.1642 2784.00
10.2294 2937.00
10.2946 2823.00
10.3598 2874.00
10.425 2834.00
10.4902 2816.00
10.5554 2742.00
10.6206 2746.00
10.6858 2720.00
10.751 2800.00
10.8162 2639.00
10.8814 2589.00
10.9466 2577.00
11.0118 2520.00
11.077 2556.00
11.1422 2606.00
11.2074 2556.00
11.2726 2445.00
11.3378 2528.00
11.403 2444.00
11.4682 2440.00
11.5334 2456.00
11.5986 2456.00
11.6638 2367.00
11.729 2373.00
11.7942 2408.00
11.8594 2307.00
11.9246 2336.00
11.9898 2301.00
12.055 2256.00
12.1202 2306.00
12.1854 2186.00
12.2506 2283.00
12.3158 2217.00
12.381 2181.00
12.4462 2234.00
12.5114 2136.00
12.5766 2178.00
12.6418 2116.00
12.707 2150.00
12.7722 2136.00
12.8374 2019.00
12.9026 2053.00
12.9678 2061.00
13.033 1998.00
13.0982 2020.00
13.1634 1994.00
13.2286 2006.00
13.2938 1958.00
13.359 1954.00
13.4242 2015.00
13.4894 1951.00
13.5546 1950.00
13.6198 1917.00
13.685 1913.00
13.7502 1826.00
13.8154 1868.00
13.8805 1897.00
13.9457 1946.00
14.0109 1924.00
14.0761 1982.00
14.1413 1917.00
14.2065 1987.00
14.2717 2100.00
14.3369 2177.00
14.4021 2014.00
14.4673 1882.00
14.5325 1847.00
14.5977 1806.00
14.6629 1790.00
14.7281 1711.00
14.7933 1754.00
14.8585 1784.00
14.9237 1726.00
14.9889 1766.00
15.0541 1623.00
15.1193 1744.00
15.1845 1752.00
15.2497 1716.00
15.3149 1733.00
15.3801 1628.00
15.4453 1650.00
15.5105 1680.00
15.5757 1714.00
15.6409 1687.00
15.7061 1672.00
15.7713 1681.00
15.8365 1603.00
15.9017 1604.00
15.9669 1605.00
16.0321 1558.00
16.0973 1507.00
16.1625 1560.00
16.2277 1572.00
16.2929 1572.00
16.3581 1586.00
16.4233 1621.00
16.4885 1598.00
16.5537 1527.00
16.6189 1601.00
16.6841 1548.00
16.7493 1571.00
16.8145 1510.00
16.8797 1558.00
16.9449 1516.00
17.0101 1472.00
17.0753 1566.00
17.1405 1547.00
17.2057 1529.00
17.2709 1608.00
17.3361 1537.00
17.4013 1490.00
17.4665 1461.00
17.5317 1485.00
17.5969 1451.00
17.6621 1453.00
17.7273 1395.00
17.7925 1381.00
17.8577 1393.00
17.9229 1421.00
17.9881 1420.00
18.0533 1397.00
18.1185 1401.00
18.1837 1393.00
18.2489 1441.00
18.3141 1451.00
18.3793 1500.00
18.4445 1440.00
18.5097 1466.00
18.5749 1478.00
18.6401 1650.00
18.7052 1747.00
18.7704 2195.00
18.8356 3013.00
18.9008 4157.00
18.966 5355.00
19.0312 4432.00
19.0964 2511.00
19.1616 1746.00
19.2268 1556.00
19.292 1398.00
19.3572 1422.00
19.4224 1369.00
19.4876 1315.00
19.5528 1304.00
19.618 1289.00
19.6832 1328.00
19.7484 1256.00
19.8136 1324.00
19.8788 1323.00
19.944 1288.00
20.0092 1298.00
20.0744 1351.00
20.1396 1410.00
20.2048 1333.00
20.27 1320.00
20.3352 1319.00
20.4004 1362.00
20.4656 1357.00
20.5308 1508.00
20.596 1464.00
20.6612 1677.00
20.7264 2021.00
20.7916 2897.00
20.8568 3855.00
20.922 5188.00
20.9872 6081.00
21.0524 4929.00
21.1176 3385.00
21.1828 2897.00
21.248 2852.00
21.3132 2867.00
21.3784 2930.00
21.4436 2587.00
21.5088 2391.00
21.574 2253.00
21.6392 2220.00
21.7044 2292.00
21.7696 2429.00
21.8348 2889.00
21.9 3597.00
21.9652 4833.00
22.0304 7049.00
22.0956 9893.00
22.1608 11730.00
22.226 13044.00
22.2912 17341.00
22.3564 17967.00
22.4216 8654.00
22.4868 3263.00
22.552 2408.00
22.6172 2130.00
22.6824 1966.00
22.7476 1958.00
22.8128 1968.00
22.878 2019.00
22.9432 1973.00
23.0084 1934.00
23.0736 2074.00
23.1388 1997.00
23.204 1880.00
23.2692 1846.00
23.3344 1799.00
23.3996 1839.00
23.4647 2001.00
23.5299 2275.00
23.5951 2762.00
23.6603 3110.00
23.7255 2995.00
23.7907 2348.00
23.8559 1756.00
23.9211 1552.00
23.9863 1451.00
24.0515 1447.00
24.1167 1393.00
24.1819 1305.00
24.2471 1222.00
24.3123 1264.00
24.3775 1165.00
24.4427 1279.00
24.5079 1251.00
24.5731 1341.00
24.6383 1266.00
24.7035 1255.00
24.7687 1167.00
24.8339 1187.00
24.8991 1144.00
24.9643 1152.00
25.0295 1050.00
25.0947 1067.00
25.1599 1042.00
25.2251 1054.00
25.2903 1058.00
25.3555 1067.00
25.4207 1000.00
25.4859 1107.00
25.5511 1065.00
25.6163 1117.00
25.6815 1182.00
25.7467 1026.00
25.8119 1003.00
25.8771 1052.00
25.9423 1448.00
26.0075 1287.00
26.0727 1154.00
26.1379 1188.00
26.2031 1191.00
26.2683 1239.00
26.3335 1202.00
26.3987 1169.00
26.4639 1222.00
26.5291 1352.00
26.5943 1302.00
26.6595 1410.00
26.7247 1590.00
26.7899 2061.00
26.8551 2695.00
26.9203 3766.00
26.9855 3852.00
27.0507 2756.00
27.1159 1773.00
27.1811 1464.00
27.2463 1333.00
27.3115 1301.00
27.3767 1300.00
27.4419 1252.00
27.5071 1330.00
27.5723 1363.00
27.6375 1546.00
27.7027 1837.00
27.7679 2107.00
27.8331 2096.00
27.8983 1761.00
27.9635 1643.00
28.0287 1419.00
28.0939 1342.00
28.1591 1305.00
28.2243 1260.00
28.2894 1353.00
28.3546 1420.00
28.4198 1501.00
28.485 1734.00
28.5502 1928.00
28.6154 2062.00
28.6806 2229.00
28.7458 2649.00
28.811 2727.00
28.8762 1982.00
28.9414 1399.00
29.0066 1264.00
29.0718 1282.00
29.137 1282.00
29.2022 1433.00
29.2674 1613.00
29.3326 2028.00
29.3978 2590.00
29.463 3141.00
29.5282 2641.00
29.5934 1918.00
29.6586 1451.00
29.7238 1215.00
29.789 1097.00
29.8542 1155.00
29.9194 1163.00
29.9846 1073.00
30.0498 1085.00
30.115 1076.00
30.1802 1248.00
30.2454 1446.00
30.3106 2004.00
30.3758 2815.00
30.441 2781.00
30.5062 2131.00
30.5714 1468.00
30.6366 1245.00
30.7018 1178.00
30.767 1069.00
30.8322 1055.00
30.8974 914.00
30.9626 938.00
31.0278 962.00
31.093 913.00
31.1582 962.00
31.2234 977.00
31.2886 903.00
31.3538 1057.00
31.419 1102.00
31.4842 1219.00
31.5494 1600.00
31.6146 1897.00
31.6798 2413.00
31.745 2886.00
31.8102 3163.00
31.8754 2258.00
31.9406 1635.00
32.0058 1315.00
32.071 1311.00
32.1362 1309.00
32.2014 1311.00
32.2666 1167.00
32.3318 1159.00
32.397 1105.00
32.4622 1133.00
32.5274 1078.00
32.5926 1133.00
32.6578 1269.00
32.723 1451.00
32.7882 1804.00
32.8534 1705.00
32.9186 1356.00
32.9838 1257.00
33.0489 1152.00
33.1141 1127.00
33.1793 1081.00
33.2445 993.00
33.3097 887.00
33.3749 909.00
33.4401 926.00
33.5053 926.00
33.5705 907.00
33.6357 818.00
33.7009 779.00
33.7661 756.00
33.8313 776.00
33.8965 773.00
33.9617 760.00
34.0269 751.00
34.0921 763.00
34.1573 736.00
34.2225 700.00
34.2877 731.00
34.3529 744.00
34.4181 717.00
34.4833 720.00
34.5485 695.00
34.6137 662.00
34.6789 659.00
34.7441 741.00
34.8093 663.00
34.8745 704.00
34.9397 737.00
35.0049 729.00
35.0701 718.00
35.1353 717.00
35.2005 672.00
35.2657 698.00
35.3309 715.00
35.3961 734.00
35.4613 699.00
35.5265 746.00
35.5917 738.00
35.6569 719.00
35.7221 768.00
35.7873 748.00
35.8525 772.00
35.9177 807.00
35.9829 835.00
36.0481 861.00
36.1133 1040.00
36.1785 1169.00
36.2437 1568.00
36.3089 2113.00
36.3741 3186.00
36.4393 3892.00
36.5045 3393.00
36.5697 2455.00
36.6349 1832.00
36.7001 1657.00
36.7653 1373.00
36.8305 1073.00
36.8957 870.00
36.9609 832.00
37.0261 800.00
37.0913 776.00
37.1565 778.00
37.2217 743.00
37.2869 738.00
37.3521 707.00
37.4173 731.00
37.4825 741.00
37.5477 688.00
37.6129 728.00
37.6781 687.00
37.7433 712.00
37.8085 785.00
37.8736 836.00
37.9388 851.00
38.004 1043.00
38.0692 1059.00
38.1344 1025.00
38.1996 889.00
38.2648 773.00
38.33 746.00
38.3952 731.00
38.4604 639.00
38.5256 691.00
38.5908 662.00
38.656 673.00
38.7212 690.00
38.7864 757.00
38.8516 772.00
38.9168 698.00
38.982 737.00
39.0472 708.00
39.1124 868.00
39.1776 946.00
39.2428 979.00
39.308 987.00
39.3732 985.00
39.4384 1039.00
39.5036 980.00
39.5688 831.00
39.634 777.00
39.6992 683.00
39.7644 677.00
39.8296 692.00
39.8948 669.00
39.96 601.00
40.0252 608.00
40.0904 610.00
40.1556 583.00
40.2208 581.00
40.286 581.00
40.3512 605.00
40.4164 588.00
40.4816 587.00
40.5468 584.00
40.612 583.00
40.6772 622.00
40.7424 603.00
40.8076 655.00
40.8728 525.00
40.938 573.00
41.0032 593.00
41.0684 560.00
41.1336 546.00
41.1988 548.00
41.264 543.00
41.3292 548.00
41.3944 550.00
41.4596 510.00
41.5248 580.00
41.59 593.00
41.6552 529.00
41.7204 528.00
41.7856 598.00
41.8508 609.00
41.916 640.00
41.9812 619.00
42.0464 589.00
42.1116 538.00
42.1768 534.00
42.242 503.00
42.3072 599.00
42.3724 591.00
42.4376 583.00
42.5028 582.00
42.568 613.00
42.6332 639.00
42.6983 645.00
42.7635 672.00
42.8287 743.00
42.8939 893.00
42.9591 1045.00
43.0243 1025.00
43.0895 913.00
43.1547 842.00
43.2199 733.00
43.2851 708.00
43.3503 655.00
43.4155 677.00
43.4807 710.00
43.5459 617.00
43.6111 613.00
43.6763 673.00
43.7415 640.00
43.8067 652.00
43.8719 705.00
43.9371 562.00
44.0023 594.00
44.0675 528.00
44.1327 582.00
44.1979 569.00
44.2631 515.00
44.3283 526.00
44.3935 508.00
44.4587 580.00
44.5239 596.00
44.5891 647.00
44.6543 725.00
44.7195 748.00
44.7847 663.00
44.8499 649.00
44.9151 575.00
44.9803 622.00
45.0455 742.00
45.1107 866.00
45.1759 933.00
45.2411 845.00
45.3063 698.00
45.3715 547.00
45.4367 508.00
45.5019 504.00
45.5671 509.00
45.6323 515.00
45.6975 503.00
45.7627 531.00
45.8279 527.00
45.8931 548.00
45.9583 561.00
46.0235 572.00
46.0887 650.00
46.1539 822.00
46.2191 980.00
46.2843 947.00
46.3495 1011.00
46.4147 970.00
46.4799 950.00
46.5451 774.00
46.6103 768.00
46.6755 699.00
46.7407 743.00
46.8059 733.00
46.8711 735.00
46.9363 696.00
47.0015 714.00
47.0667 704.00
47.1319 749.00
47.1971 885.00
47.2623 1122.00
47.3275 1298.00
47.3927 1393.00
47.4579 1210.00
47.523 962.00
47.5882 790.00
47.6534 673.00
47.7186 662.00
47.7838 603.00
47.849 656.00
47.9142 752.00
47.9794 816.00
48.0446 810.00
48.1098 728.00
48.175 645.00
48.2402 646.00
48.3054 577.00
48.3706 521.00
48.4358 537.00
48.501 580.00
48.5662 547.00
48.6314 608.00
48.6966 646.00
48.7618 826.00
48.827 984.00
48.8922 1301.00
48.9574 1335.00
49.0226 1110.00
49.0878 1029.00
49.153 781.00
49.2182 889.00
49.2834 933.00
49.3486 1008.00
49.4138 852.00
49.479 769.00
49.5442 663.00
49.6094 623.00
49.6746 574.00
49.7398 537.00
49.805 564.00
49.8702 578.00
49.9354 558.00
50.0006 597.00
50.0658 607.00
50.131 629.00
50.1962 633.00
50.2614 636.00
50.3266 609.00
50.3918 590.00
50.457 572.00
50.5222 572.00
50.5874 587.00
50.6526 548.00
50.7178 511.00
50.783 459.00
50.8482 490.00
50.9134 500.00
50.9786 522.00
51.0438 529.00
51.109 476.00
51.1742 484.00
51.2394 498.00
51.3046 540.00
51.3698 498.00
51.435 553.00
51.5002 643.00
51.5654 802.00
51.6306 961.00
51.6958 969.00
51.761 967.00
51.8262 758.00
51.8914 695.00
51.9566 661.00
52.0218 598.00
52.087 562.00
52.1522 523.00
52.2174 643.00
52.2826 617.00
52.3477 632.00
52.4129 640.00
52.4781 590.00
52.5433 555.00
52.6085 530.00
52.6737 490.00
52.7389 547.00
52.8041 527.00
52.8693 521.00
52.9345 517.00
52.9997 557.00
53.0649 606.00
53.1301 582.00
53.1953 614.00
53.2605 538.00
53.3257 498.00
53.3909 439.00
53.4561 439.00
53.5213 507.00
53.5865 467.00
53.6517 559.00
53.7169 524.00
53.7821 529.00
53.8473 475.00
53.9125 585.00
53.9777 571.00
54.0429 608.00
54.1081 601.00
54.1733 644.00
54.2385 728.00
54.3037 846.00
54.3689 949.00
54.4341 1051.00
54.4993 1018.00
54.5645 1005.00
54.6297 922.00
54.6949 843.00
54.7601 820.00
54.8253 641.00
54.8905 679.00
54.9557 671.00
55.0209 649.00
55.0861 640.00
55.1513 638.00
55.2165 599.00
55.2817 597.00
55.3469 591.00
55.4121 537.00
55.4773 598.00
55.5425 577.00
55.6077 574.00
55.6729 508.00
55.7381 546.00
55.8033 574.00
55.8685 581.00
55.9337 572.00
55.9989 743.00
56.0641 757.00
56.1293 773.00
56.1945 675.00
56.2597 648.00
56.3249 604.00
56.3901 515.00
56.4553 549.00
56.5205 517.00
56.5857 549.00
56.6509 511.00
56.7161 526.00
56.7813 487.00
56.8465 614.00
56.9117 588.00
56.9769 600.00
57.042 648.00
57.1073 636.00
57.1724 691.00
57.2376 793.00
57.3028 897.00
57.368 1078.00
57.4332 1037.00
57.4984 879.00
57.5636 784.00
57.6288 743.00
57.694 693.00
57.7592 690.00
57.8244 709.00
57.8896 658.00
57.9548 638.00
58.02 618.00
58.0852 630.00
58.1504 575.00
58.2156 535.00
58.2808 475.00
58.346 506.00
58.4112 489.00
58.4764 509.00
58.5416 523.00
58.6068 552.00
58.672 585.00
58.7372 675.00
58.8024 644.00
58.8676 624.00
58.9328 514.00
58.998 621.00
59.0632 543.00
59.1284 558.00
59.1936 532.00
59.2588 543.00
59.324 496.00
59.3892 495.00
59.4544 444.00
59.5196 415.00
59.5848 458.00
59.65 463.00
59.7152 483.00
59.7804 471.00
59.8456 478.00
59.9108 510.00
59.976 537.00
60.0412 551.00
60.1064 646.00
60.1716 634.00
60.2368 629.00
60.302 637.00
60.3672 599.00
60.4324 720.00
60.4976 746.00
60.5628 954.00
60.628 974.00
60.6932 823.00
60.7584 796.00
60.8236 743.00
60.8888 668.00
60.954 614.00
61.0192 558.00
61.0844 523.00
61.1496 499.00
61.2148 535.00
61.28 504.00
61.3452 493.00
61.4104 501.00
61.4756 478.00
61.5408 506.00
61.606 518.00
61.6712 495.00
61.7364 503.00
61.8016 540.00
61.8667 431.00
61.932 458.00
61.9971 498.00
62.0623 563.00
62.1275 554.00
62.1927 658.00
62.2579 741.00
62.3231 838.00
62.3883 762.00
62.4535 726.00
62.5187 640.00
62.5839 600.00
62.6491 572.00
62.7143 480.00
62.7795 541.00
62.8447 487.00
62.9099 456.00
62.9751 454.00
63.0403 447.00
63.1055 458.00
63.1707 458.00
63.2359 434.00
63.3011 456.00
63.3663 452.00
63.4315 476.00
63.4967 542.00
63.5619 554.00
63.6271 550.00
63.6923 534.00
63.7575 602.00
63.8227 502.00
63.8879 479.00
63.9531 441.00
64.0183 483.00
64.0835 466.00
64.1487 448.00
64.2139 505.00
64.2791 501.00
64.3443 505.00
64.4095 486.00
64.4747 445.00
64.5399 445.00
64.6051 489.00
64.6703 465.00
64.7355 476.00
64.8007 492.00
64.8659 531.00
64.9311 494.00
64.9963 547.00
65.0615 558.00
65.1267 592.00
65.1919 711.00
65.2571 731.00
65.3223 920.00
65.3875 910.00
65.4527 823.00
65.5179 692.00
65.5831 682.00
65.6483 662.00
65.7135 632.00
65.7787 590.00
65.8439 643.00
65.9091 698.00
65.9743 710.00
66.0395 730.00
66.1047 704.00
66.1699 745.00
66.2351 774.00
66.3003 730.00
66.3655 855.00
66.4307 855.00
66.4959 766.00
66.561 766.00
66.6263 692.00
66.6915 678.00
66.7566 606.00
66.8218 639.00
66.887 567.00
66.9522 620.00
67.0174 619.00
67.0826 735.00
67.1478 729.00
67.213 688.00
67.2782 726.00
67.3434 625.00
67.4086 584.00
67.4738 518.00
67.539 512.00
67.6042 540.00
67.6694 547.00
67.7346 552.00
67.7998 557.00
67.865 543.00
67.9302 579.00
67.9954 624.00
68.0606 552.00
68.1258 556.00
68.191 524.00
68.2562 535.00
68.3214 577.00
68.3866 587.00
68.4518 623.00
68.517 606.00
68.5822 643.00
68.6474 612.00
68.7126 589.00
68.7778 696.00
68.843 735.00
68.9082 756.00
68.9734 787.00
69.0386 734.00
69.1038 703.00
69.169 695.00
69.2342 625.00
69.2994 602.00
69.3646 553.00
69.4298 556.00
69.495 525.00
69.5602 612.00
69.6254 636.00
69.6906 678.00
69.7558 665.00
69.821 658.00
69.8862 669.00
69.9514 671.00
70.0166 622.00
70.0818 651.00
70.147 604.00
70.2122 639.00
70.2774 659.00
70.3426 638.00
70.4078 611.00
70.473 590.00
70.5382 573.00
70.6034 587.00
70.6686 631.00
70.7338 574.00
70.799 650.00
70.8642 705.00
70.9294 566.00
70.9946 553.00
71.0598 584.00
71.125 505.00
71.1902 489.00
71.2554 430.00
71.3205 454.00
71.3858 476.00
71.451 415.00
71.5162 452.00
71.5813 473.00
71.6465 443.00
71.7117 422.00
71.7769 429.00
71.8421 426.00
71.9073 444.00
71.9725 378.00
72.0377 421.00
72.1029 410.00
72.1681 415.00
72.2333 459.00
72.2985 452.00
72.3637 448.00
72.4289 476.00
72.4941 466.00
72.5593 507.00
72.6245 516.00
72.6897 478.00
72.7549 512.00
72.8201 525.00
72.8853 658.00
72.9505 673.00
73.0157 665.00
73.0809 566.00
73.1461 572.00
73.2113 551.00
73.2765 554.00
73.3417 471.00
73.4069 451.00
73.4721 466.00
73.5373 456.00
73.6025 475.00
73.6677 465.00
73.7329 444.00
73.7981 508.00
73.8633 521.00
73.9285 575.00
73.9937 616.00
74.0589 613.00
74.1241 638.00
74.1893 740.00
74.2545 708.00
74.3197 603.00
74.3849 573.00
74.4501 542.00
74.5153 488.00
74.5805 480.00
74.6457 472.00
74.7109 441.00
74.7761 448.00
74.8413 434.00
74.9065 440.00
74.9717 453.00
75.0369 429.00
75.1021 449.00
75.1673 488.00
75.2325 491.00
75.2977 533.00
75.3629 536.00
75.4281 573.00
75.4933 610.00
75.5585 587.00
75.6237 592.00
75.6889 555.00
75.7541 540.00
75.8193 475.00
75.8845 479.00
75.9497 483.00
76.0149 481.00
76.0801 461.00
76.1452 447.00
76.2104 507.00
76.2756 456.00
76.3409 421.00
76.406 448.00
76.4712 518.00
76.5364 481.00
76.6016 529.00
76.6668 446.00
76.732 458.00
76.7972 452.00
76.8624 461.00
76.9276 438.00
76.9928 400.00
77.058 439.00
77.1232 445.00
77.1884 437.00
77.2536 466.00
77.3188 428.00
77.384 462.00
77.4492 432.00
77.5144 512.00
77.5796 572.00
77.6448 513.00
77.71 500.00
77.7752 542.00
77.8404 511.00
77.9056 576.00
77.9708 524.00
78.036 505.00
78.1012 545.00
78.1664 597.00
78.2316 601.00
78.2968 603.00
78.362 573.00
78.4272 556.00
78.4924 537.00
78.5576 514.00
78.6228 474.00
78.688 433.00
78.7532 410.00
78.8184 427.00
78.8836 449.00
78.9488 415.00
79.014 459.00
79.0792 464.00
79.1444 447.00
79.2096 453.00
79.2748 473.00
79.34 482.00
79.4052 491.00
79.4704 511.00
79.5356 499.00
79.6008 575.00
79.666 575.00
79.7312 571.00
79.7964 494.00
79.8616 525.00
79.9268 486.00
79.992 497.00
80.0572 460.00
80.1224 483.00
80.1876 429.00
80.2528 463.00
80.318 420.00
80.3832 450.00
80.4484 454.00
80.5136 459.00
80.5788 477.00
80.644 454.00
80.7092 429.00
80.7744 454.00
80.8396 481.00
80.9048 513.00
80.9699 471.00
81.0351 537.00
81.1003 575.00
81.1655 521.00
81.2307 515.00
81.2959 547.00
81.3611 554.00
81.4263 605.00
81.4915 588.00
81.5567 502.00
81.6219 525.00
81.6871 506.00
81.7523 515.00
81.8175 456.00
81.8827 486.00
81.9479 438.00
82.0131 504.00
82.0783 486.00
82.1435 496.00
82.2087 528.00
82.2739 519.00
82.3391 512.00
82.4043 501.00
82.4695 488.00
82.5347 444.00
82.5999 454.00
82.6651 451.00
82.7303 424.00
82.7955 421.00
82.8607 411.00
82.9259 462.00
82.9911 444.00
83.0563 444.00
83.1215 462.00
83.1867 466.00
83.2519 417.00
83.3171 399.00
83.3823 408.00
83.4475 398.00
83.5127 403.00
83.5779 374.00
83.6431 375.00
83.7083 397.00
83.7735 382.00
83.8387 377.00
83.9039 392.00
83.9691 414.00
84.0343 399.00
84.0995 433.00
84.1647 394.00
84.2299 350.00
84.2951 389.00
84.3603 386.00
84.4255 370.00
84.4907 352.00
84.5559 389.00
84.6211 357.00
84.6863 353.00
84.7515 383.00
84.8167 422.00
84.8819 304.00
84.9471 355.00
85.0123 366.00
85.0775 389.00
85.1427 376.00
85.2079 380.00
85.2731 362.00
85.3383 337.00
85.4035 377.00
85.4687 382.00
85.5339 351.00
85.5991 330.00
85.6643 353.00
85.7295 356.00
85.7946 322.00
85.8598 338.00
85.925 334.00
85.9903 338.00
86.0554 341.00
86.1206 355.00
86.1858 361.00
86.251 388.00
86.3162 385.00
86.3814 368.00
86.4466 387.00
86.5118 412.00
86.577 395.00
86.6422 456.00
86.7074 404.00
86.7726 393.00
86.8378 434.00
86.903 426.00
86.9682 432.00
87.0334 403.00
87.0986 385.00
87.1638 401.00
87.229 396.00
87.2942 369.00
87.3594 351.00
87.4246 384.00
87.4898 411.00
87.555 339.00
87.6202 369.00
87.6854 366.00
87.7506 360.00
87.8158 379.00
87.881 371.00
87.9462 365.00
88.0114 370.00
88.0766 417.00
88.1418 424.00
88.207 347.00
88.2722 374.00
88.3374 388.00
88.4026 385.00
88.4678 385.00
88.533 381.00
88.5982 337.00
88.6634 360.00
88.7286 361.00
88.7938 361.00
88.859 371.00
88.9242 381.00
88.9894 363.00
89.0546 423.00
89.1198 407.00
89.185 397.00
89.2502 462.00
89.3154 531.00
89.3806 548.00
89.4458 550.00
89.511 564.00
89.5762 561.00
89.6414 505.00
89.7066 518.00
89.7718 498.00
89.837 493.00
89.9022 432.00
89.9674 421.00
90.0326 430.00
90.0978 369.00
90.163 362.00
90.2282 374.00
90.2934 390.00
90.3586 381.00
90.4238 323.00
90.489 390.00
90.5542 343.00
90.6193 336.00
90.6845 339.00
90.7497 374.00
90.8149 341.00
90.8801 388.00
90.9453 342.00
91.0105 356.00
91.0757 338.00
91.1409 421.00
91.2061 388.00
91.2713 381.00
91.3365 380.00
91.4017 396.00
91.4669 390.00
91.5321 366.00
91.5973 393.00
91.6625 363.00
91.7277 361.00
91.7929 332.00
91.8581 345.00
91.9233 333.00
91.9885 340.00
92.0537 350.00
92.1189 314.00
92.1841 323.00
92.2493 392.00
92.3145 383.00
92.3797 342.00
92.4449 376.00
92.5101 366.00
92.5753 377.00
92.6405 366.00
92.7057 381.00
92.7709 344.00
92.8361 388.00
92.9013 340.00
92.9665 361.00
93.0317 317.00
93.0969 358.00
93.1621 340.00
93.2273 318.00
93.2925 364.00
93.3577 333.00
93.4229 349.00
93.4881 425.00
93.5533 447.00
93.6185 435.00
93.6837 425.00
93.7489 390.00
93.8141 432.00
93.8793 394.00
93.9445 400.00
94.0097 390.00
94.0749 435.00
94.1401 366.00
94.2053 394.00
94.2705 401.00
94.3357 376.00
94.4009 370.00
94.4661 324.00
94.5313 349.00
94.5965 347.00
94.6617 359.00
94.7269 339.00
94.7921 390.00
94.8573 371.00
94.9225 375.00
94.9877 358.00
95.0529 385.00
95.1181 389.00
95.1833 387.00
95.2485 367.00
95.3137 352.00
95.3789 385.00
95.444 375.00
95.5092 346.00
95.5744 362.00
95.6396 354.00
95.7048 380.00
95.77 342.00
95.8352 388.00
95.9004 408.00
95.9656 349.00
96.0308 385.00
96.096 348.00
96.1612 365.00
96.2264 368.00
96.2916 369.00
96.3568 378.00
96.422 372.00
96.4872 360.00
96.5524 349.00
96.6176 356.00
96.6828 316.00
96.748 338.00
96.8132 342.00
96.8784 344.00
96.9436 331.00
97.0088 377.00
97.074 347.00
97.1392 333.00
97.2044 300.00
97.2696 331.00
97.3348 358.00
97.4 368.00
97.4652 354.00
97.5304 315.00
97.5956 320.00
97.6608 375.00
97.726 342.00
97.7912 370.00
97.8564 376.00
97.9216 369.00
97.9868 392.00
98.052 390.00
98.1172 344.00
98.1824 362.00
98.2476 399.00
98.3128 371.00
98.378 417.00
98.4432 371.00
98.5084 377.00
98.5736 405.00
98.6388 363.00
98.704 372.00
98.7692 358.00
98.8344 371.00
98.8996 363.00
98.9648 382.00
99.03 373.00
99.0952 349.00
99.1604 351.00
99.2256 341.00
99.2908 367.00
99.356 339.00
99.4212 340.00
99.4864 322.00
99.5516 339.00
99.6168 292.00
99.682 358.00
99.7472 318.00
99.8124 335.00
99.8776 329.00
99.9428 331.00
100.008 352.00
100.073 320.00
100.095 364.00