File: data/xrd_creation/results/MINES_2.xy
9.903433 2708.00
9.968632 2709.00
10.0338 2587.00
10.099 2647.00
10.1642 2666.00
10.2294 2620.00
10.2946 2576.00
10.3598 2540.00
10.425 2445.00
10.4902 2516.00
10.5554 2360.00
10.6206 2414.00
10.6858 2411.00
10.751 2338.00
10.8162 2375.00
10.8814 2431.00
10.9466 2321.00
11.0118 2251.00
11.077 2313.00
11.1422 2295.00
11.2074 2193.00
11.2726 2120.00
11.3378 2116.00
11.403 2244.00
11.4682 2055.00
11.5334 2169.00
11.5986 2127.00
11.6638 2069.00
11.729 2053.00
11.7942 2062.00
11.8594 2126.00
11.9246 2091.00
11.9898 1990.00
12.055 2095.00
12.1202 2046.00
12.1854 2012.00
12.2506 1947.00
12.3158 1872.00
12.381 1937.00
12.4462 1937.00
12.5114 1777.00
12.5766 1851.00
12.6418 1808.00
12.707 1831.00
12.7722 1773.00
12.8374 1811.00
12.9026 1774.00
12.9678 1832.00
13.033 1757.00
13.0982 1689.00
13.1634 1769.00
13.2286 1695.00
13.2938 1701.00
13.359 1680.00
13.4242 1674.00
13.4894 1677.00
13.5546 1689.00
13.6198 1663.00
13.685 1590.00
13.7502 1649.00
13.8154 1649.00
13.8805 1607.00
13.9457 1579.00
14.0109 1598.00
14.0761 1577.00
14.1413 1515.00
14.2065 1572.00
14.2717 1620.00
14.3369 1572.00
14.4021 1556.00
14.4673 1577.00
14.5325 1513.00
14.5977 1452.00
14.6629 1519.00
14.7281 1503.00
14.7933 1464.00
14.8585 1448.00
14.9237 1549.00
14.9889 1489.00
15.0541 1520.00
15.1193 1536.00
15.1845 1568.00
15.2497 1624.00
15.3149 1580.00
15.3801 1499.00
15.4453 1432.00
15.5105 1473.00
15.5757 1422.00
15.6409 1362.00
15.7061 1415.00
15.7713 1396.00
15.8365 1390.00
15.9017 1423.00
15.9669 1400.00
16.0321 1409.00
16.0973 1446.00
16.1625 1443.00
16.2277 1506.00
16.2929 1603.00
16.3581 1474.00
16.4233 1484.00
16.4885 1358.00
16.5537 1358.00
16.6189 1374.00
16.6841 1310.00
16.7493 1311.00
16.8145 1325.00
16.8797 1289.00
16.9449 1350.00
17.0101 1291.00
17.0753 1211.00
17.1405 1228.00
17.2057 1311.00
17.2709 1278.00
17.3361 1303.00
17.4013 1290.00
17.4665 1237.00
17.5317 1202.00
17.5969 1294.00
17.6621 1229.00
17.7273 1219.00
17.7925 1267.00
17.8577 1185.00
17.9229 1149.00
17.9881 1141.00
18.0533 1203.00
18.1185 1182.00
18.1837 1169.00
18.2489 1121.00
18.3141 1138.00
18.3793 1170.00
18.4445 1198.00
18.5097 1155.00
18.5749 1194.00
18.6401 1181.00
18.7052 1162.00
18.7704 1206.00
18.8356 1180.00
18.9008 1133.00
18.966 1167.00
19.0312 1186.00
19.0964 1293.00
19.1616 1363.00
19.2268 1486.00
19.292 1681.00
19.3572 1641.00
19.4224 1579.00
19.4876 1550.00
19.5528 1300.00
19.618 1191.00
19.6832 1148.00
19.7484 1118.00
19.8136 1061.00
19.8788 1091.00
19.944 1052.00
20.0092 1088.00
20.0744 1137.00
20.1396 1075.00
20.2048 1050.00
20.27 1094.00
20.3352 1088.00
20.4004 1130.00
20.4656 1227.00
20.5308 1328.00
20.596 1445.00
20.6612 1518.00
20.7264 1417.00
20.7916 1298.00
20.8568 1146.00
20.922 1088.00
20.9872 1061.00
21.0524 986.00
21.1176 1016.00
21.1828 1018.00
21.248 969.00
21.3132 1040.00
21.3784 999.00
21.4436 994.00
21.5088 1008.00
21.574 956.00
21.6392 965.00
21.7044 943.00
21.7696 937.00
21.8348 952.00
21.9 961.00
21.9652 944.00
22.0304 995.00
22.0956 977.00
22.1608 962.00
22.226 1001.00
22.2912 1039.00
22.3564 982.00
22.4216 958.00
22.4868 1030.00
22.552 1124.00
22.6172 1365.00
22.6824 1585.00
22.7476 1710.00
22.8128 1889.00
22.878 1728.00
22.9432 1687.00
23.0084 1339.00
23.0736 1129.00
23.1388 1043.00
23.204 988.00
23.2692 945.00
23.3344 1006.00
23.3996 994.00
23.4647 937.00
23.5299 1055.00
23.5951 1346.00
23.6603 1825.00
23.7255 2200.00
23.7907 1969.00
23.8559 1385.00
23.9211 1067.00
23.9863 1008.00
24.0515 1033.00
24.1167 1065.00
24.1819 1417.00
24.2471 1704.00
24.3123 1608.00
24.3775 1316.00
24.4427 1096.00
24.5079 1060.00
24.5731 1115.00
24.6383 1448.00
24.7035 2181.00
24.7687 2843.00
24.8339 2576.00
24.8991 1921.00
24.9643 1436.00
25.0295 1499.00
25.0947 1834.00
25.1599 2479.00
25.2251 3206.00
25.2903 3510.00
25.3555 3692.00
25.4207 4118.00
25.4859 4796.00
25.5511 5310.00
25.6163 4977.00
25.6815 4185.00
25.7467 3125.00
25.8119 2327.00
25.8771 1757.00
25.9423 1483.00
26.0075 1266.00
26.0727 1184.00
26.1379 1198.00
26.2031 1331.00
26.2683 1667.00
26.3335 2370.00
26.3987 3168.00
26.4639 3454.00
26.5291 3025.00
26.5943 2123.00
26.6595 1422.00
26.7247 1035.00
26.7899 998.00
26.8551 844.00
26.9203 849.00
26.9855 805.00
27.0507 736.00
27.1159 744.00
27.1811 820.00
27.2463 792.00
27.3115 757.00
27.3767 856.00
27.4419 813.00
27.5071 844.00
27.5723 806.00
27.6375 799.00
27.7027 780.00
27.7679 761.00
27.8331 758.00
27.8983 794.00
27.9635 820.00
28.0287 847.00
28.0939 870.00
28.1591 1000.00
28.2243 1060.00
28.2894 1070.00
28.3546 954.00
28.4198 920.00
28.485 817.00
28.5502 782.00
28.6154 749.00
28.6806 768.00
28.7458 698.00
28.811 704.00
28.8762 738.00
28.9414 711.00
29.0066 724.00
29.0718 697.00
29.137 677.00
29.2022 713.00
29.2674 709.00
29.3326 695.00
29.3978 713.00
29.463 678.00
29.5282 706.00
29.5934 703.00
29.6586 714.00
29.7238 682.00
29.789 667.00
29.8542 682.00
29.9194 636.00
29.9846 682.00
30.0498 676.00
30.115 707.00
30.1802 715.00
30.2454 742.00
30.3106 797.00
30.3758 731.00
30.441 655.00
30.5062 689.00
30.5714 800.00
30.6366 784.00
30.7018 730.00
30.767 682.00
30.8322 641.00
30.8974 644.00
30.9626 650.00
31.0278 605.00
31.093 682.00
31.1582 681.00
31.2234 670.00
31.2886 662.00
31.3538 715.00
31.419 624.00
31.4842 625.00
31.5494 645.00
31.6146 718.00
31.6798 695.00
31.745 683.00
31.8102 662.00
31.8754 690.00
31.9406 656.00
32.0058 659.00
32.071 677.00
32.1362 645.00
32.2014 637.00
32.2666 635.00
32.3318 634.00
32.397 635.00
32.4622 588.00
32.5274 600.00
32.5926 635.00
32.6578 588.00
32.723 616.00
32.7882 587.00
32.8534 614.00
32.9186 598.00
32.9838 664.00
33.0489 686.00
33.1141 689.00
33.1793 688.00
33.2445 624.00
33.3097 599.00
33.3749 593.00
33.4401 530.00
33.5053 623.00
33.5705 561.00
33.6357 580.00
33.7009 606.00
33.7661 611.00
33.8313 664.00
33.8965 638.00
33.9617 659.00
34.0269 690.00
34.0921 713.00
34.1573 672.00
34.2225 607.00
34.2877 666.00
34.3529 598.00
34.4181 615.00
34.4833 583.00
34.5485 557.00
34.6137 564.00
34.6789 530.00
34.7441 520.00
34.8093 559.00
34.8745 564.00
34.9397 502.00
35.0049 559.00
35.0701 536.00
35.1353 536.00
35.2005 509.00
35.2657 551.00
35.3309 568.00
35.3961 535.00
35.4613 553.00
35.5265 629.00
35.5917 647.00
35.6569 693.00
35.7221 625.00
35.7873 607.00
35.8525 548.00
35.9177 569.00
35.9829 586.00
36.0481 585.00
36.1133 582.00
36.1785 606.00
36.2437 645.00
36.3089 678.00
36.3741 569.00
36.4393 611.00
36.5045 583.00
36.5697 559.00
36.6349 552.00
36.7001 556.00
36.7653 535.00
36.8305 527.00
36.8957 615.00
36.9609 578.00
37.0261 574.00
37.0913 537.00
37.1565 606.00
37.2217 604.00
37.2869 670.00
37.3521 605.00
37.4173 713.00
37.4825 911.00
37.5477 1112.00
37.6129 1084.00
37.6781 878.00
37.7433 838.00
37.8085 711.00
37.8736 643.00
37.9388 602.00
38.004 686.00
38.0692 742.00
38.1344 809.00
38.1996 756.00
38.2648 696.00
38.33 606.00
38.3952 579.00
38.4604 549.00
38.5256 527.00
38.5908 478.00
38.656 507.00
38.7212 508.00
38.7864 475.00
38.8516 471.00
38.9168 514.00
38.982 607.00
39.0472 565.00
39.1124 707.00
39.1776 803.00
39.2428 817.00
39.308 830.00
39.3732 739.00
39.4384 660.00
39.5036 643.00
39.5688 655.00
39.634 635.00
39.6992 605.00
39.7644 614.00
39.8296 576.00
39.8948 566.00
39.96 569.00
40.0252 550.00
40.0904 557.00
40.1556 517.00
40.2208 533.00
40.286 520.00
40.3512 438.00
40.4164 444.00
40.4816 435.00
40.5468 482.00
40.612 453.00
40.6772 435.00
40.7424 464.00
40.8076 438.00
40.8728 424.00
40.938 459.00
41.0032 432.00
41.0684 485.00
41.1336 489.00
41.1988 447.00
41.264 433.00
41.3292 439.00
41.3944 460.00
41.4596 449.00
41.5248 449.00
41.59 441.00
41.6552 483.00
41.7204 448.00
41.7856 429.00
41.8508 434.00
41.916 465.00
41.9812 473.00
42.0464 444.00
42.1116 513.00
42.1768 473.00
42.242 456.00
42.3072 467.00
42.3724 423.00
42.4376 475.00
42.5028 395.00
42.568 453.00
42.6332 444.00
42.6983 459.00
42.7635 461.00
42.8287 480.00
42.8939 567.00
42.9591 517.00
43.0243 558.00
43.0895 538.00
43.1547 486.00
43.2199 459.00
43.2851 422.00
43.3503 450.00
43.4155 458.00
43.4807 398.00
43.5459 457.00
43.6111 452.00
43.6763 438.00
43.7415 413.00
43.8067 428.00
43.8719 489.00
43.9371 511.00
44.0023 520.00
44.0675 521.00
44.1327 448.00
44.1979 426.00
44.2631 405.00
44.3283 417.00
44.3935 438.00
44.4587 386.00
44.5239 407.00
44.5891 422.00
44.6543 381.00
44.7195 409.00
44.7847 411.00
44.8499 485.00
44.9151 434.00
44.9803 492.00
45.0455 482.00
45.1107 494.00
45.1759 431.00
45.2411 506.00
45.3063 496.00
45.3715 519.00
45.4367 492.00
45.5019 504.00
45.5671 565.00
45.6323 504.00
45.6975 548.00
45.7627 499.00
45.8279 511.00
45.8931 504.00
45.9583 516.00
46.0235 615.00
46.0887 618.00
46.1539 574.00
46.2191 504.00
46.2843 484.00
46.3495 461.00
46.4147 414.00
46.4799 384.00
46.5451 387.00
46.6103 385.00
46.6755 384.00
46.7407 404.00
46.8059 474.00
46.8711 477.00
46.9363 448.00
47.0015 450.00
47.0667 480.00
47.1319 461.00
47.1971 445.00
47.2623 476.00
47.3275 428.00
47.3927 506.00
47.4579 512.00
47.523 527.00
47.5882 572.00
47.6534 550.00
47.7186 552.00
47.7838 572.00
47.849 535.00
47.9142 559.00
47.9794 559.00
48.0446 582.00
48.1098 511.00
48.175 555.00
48.2402 532.00
48.3054 584.00
48.3706 636.00
48.4358 644.00
48.501 625.00
48.5662 597.00
48.6314 562.00
48.6966 568.00
48.7618 540.00
48.827 456.00
48.8922 479.00
48.9574 452.00
49.0226 438.00
49.0878 432.00
49.153 415.00
49.2182 469.00
49.2834 443.00
49.3486 428.00
49.4138 469.00
49.479 429.00
49.5442 450.00
49.6094 464.00
49.6746 449.00
49.7398 515.00
49.805 530.00
49.8702 540.00
49.9354 586.00
50.0006 527.00
50.0658 476.00
50.131 449.00
50.1962 425.00
50.2614 379.00
50.3266 408.00
50.3918 397.00
50.457 457.00
50.5222 458.00
50.5874 453.00
50.6526 421.00
50.7178 418.00
50.783 362.00
50.8482 340.00
50.9134 376.00
50.9786 362.00
51.0438 406.00
51.109 380.00
51.1742 391.00
51.2394 358.00
51.3046 382.00
51.3698 354.00
51.435 389.00
51.5002 358.00
51.5654 320.00
51.6306 332.00
51.6958 343.00
51.761 361.00
51.8262 346.00
51.8914 353.00
51.9566 348.00
52.0218 373.00
52.087 366.00
52.1522 361.00
52.2174 385.00
52.2826 356.00
52.3477 369.00
52.4129 351.00
52.4781 361.00
52.5433 389.00
52.6085 395.00
52.6737 338.00
52.7389 367.00
52.8041 348.00
52.8693 376.00
52.9345 334.00
52.9997 364.00
53.0649 327.00
53.1301 377.00
53.1953 372.00
53.2605 363.00
53.3257 380.00
53.3909 333.00
53.4561 339.00
53.5213 359.00
53.5865 308.00
53.6517 347.00
53.7169 370.00
53.7821 313.00
53.8473 363.00
53.9125 297.00
53.9777 395.00
54.0429 366.00
54.1081 378.00
54.1733 371.00
54.2385 359.00
54.3037 396.00
54.3689 398.00
54.4341 366.00
54.4993 385.00
54.5645 358.00
54.6297 362.00
54.6949 354.00
54.7601 351.00
54.8253 344.00
54.8905 336.00
54.9557 302.00
55.0209 300.00
55.0861 329.00
55.1513 336.00
55.2165 325.00
55.2817 318.00
55.3469 371.00
55.4121 390.00
55.4773 370.00
55.5425 363.00
55.6077 420.00
55.6729 428.00
55.7381 441.00
55.8033 455.00
55.8685 505.00
55.9337 471.00
55.9989 522.00
56.0641 468.00
56.1293 471.00
56.1945 412.00
56.2597 366.00
56.3249 393.00
56.3901 401.00
56.4553 351.00
56.5205 341.00
56.5857 362.00
56.6509 373.00
56.7161 325.00
56.7813 333.00
56.8465 290.00
56.9117 328.00
56.9769 331.00
57.042 334.00
57.1073 321.00
57.1724 313.00
57.2376 341.00
57.3028 323.00
57.368 328.00
57.4332 350.00
57.4984 343.00
57.5636 341.00
57.6288 320.00
57.694 322.00
57.7592 332.00
57.8244 289.00
57.8896 364.00
57.9548 299.00
58.02 321.00
58.0852 316.00
58.1504 311.00
58.2156 307.00
58.2808 294.00
58.346 323.00
58.4112 300.00
58.4764 288.00
58.5416 295.00
58.6068 332.00
58.672 308.00
58.7372 292.00
58.8024 297.00
58.8676 313.00
58.9328 299.00
58.998 363.00
59.0632 326.00
59.1284 310.00
59.1936 336.00
59.2588 337.00
59.324 340.00
59.3892 366.00
59.4544 369.00
59.5196 377.00
59.5848 364.00
59.65 332.00
59.7152 361.00
59.7804 368.00
59.8456 348.00
59.9108 334.00
59.976 365.00
60.0412 332.00
60.1064 349.00
60.1716 347.00
60.2368 369.00
60.302 377.00
60.3672 395.00
60.4324 398.00
60.4976 382.00
60.5628 374.00
60.628 414.00
60.6932 363.00
60.7584 341.00
60.8236 341.00
60.8888 355.00
60.954 348.00
61.0192 371.00
61.0844 349.00
61.1496 310.00
61.2148 322.00
61.28 304.00
61.3452 300.00
61.4104 311.00
61.4756 296.00
61.5408 287.00
61.606 300.00
61.6712 306.00
61.7364 324.00
61.8016 299.00
61.8667 325.00
61.932 327.00
61.9971 285.00
62.0623 289.00
62.1275 275.00
62.1927 281.00
62.2579 311.00
62.3231 312.00
62.3883 341.00
62.4535 289.00
62.5187 321.00
62.5839 296.00
62.6491 314.00
62.7143 315.00
62.7795 342.00
62.8447 314.00
62.9099 345.00
62.9751 358.00
63.0403 347.00
63.1055 354.00
63.1707 367.00
63.2359 338.00
63.3011 299.00
63.3663 326.00
63.4315 367.00
63.4967 377.00
63.5619 369.00
63.6271 404.00
63.6923 397.00
63.7575 350.00
63.8227 380.00
63.8879 365.00
63.9531 403.00
64.0183 368.00
64.0835 358.00
64.1487 341.00
64.2139 368.00
64.2791 302.00
64.3443 314.00
64.4095 291.00
64.4747 293.00
64.5399 296.00
64.6051 350.00
64.6703 374.00
64.7355 339.00
64.8007 378.00
64.8659 377.00
64.9311 398.00
64.9963 338.00
65.0615 327.00
65.1267 354.00
65.1919 340.00
65.2571 339.00
65.3223 332.00
65.3875 337.00
65.4527 419.00
65.5179 390.00
65.5831 457.00
65.6483 371.00
65.7135 385.00
65.7787 328.00
65.8439 336.00
65.9091 352.00
65.9743 294.00
66.0395 345.00
66.1047 332.00
66.1699 293.00
66.2351 350.00
66.3003 297.00
66.3655 342.00
66.4307 359.00
66.4959 379.00
66.561 374.00
66.6263 398.00
66.6915 390.00
66.7566 412.00
66.8218 473.00
66.887 387.00
66.9522 398.00
67.0174 403.00
67.0826 421.00
67.1478 369.00
67.213 395.00
67.2782 350.00
67.3434 365.00
67.4086 352.00
67.4738 323.00
67.539 357.00
67.6042 375.00
67.6694 383.00
67.7346 376.00
67.7998 410.00
67.865 415.00
67.9302 412.00
67.9954 372.00
68.0606 393.00
68.1258 422.00
68.191 376.00
68.2562 355.00
68.3214 369.00
68.3866 355.00
68.4518 365.00
68.517 341.00
68.5822 315.00
68.6474 324.00
68.7126 286.00
68.7778 316.00
68.843 315.00
68.9082 327.00
68.9734 310.00
69.0386 341.00
69.1038 303.00
69.169 310.00
69.2342 278.00
69.2994 285.00
69.3646 306.00
69.4298 289.00
69.495 271.00
69.5602 332.00
69.6254 300.00
69.6906 267.00
69.7558 268.00
69.821 275.00
69.8862 265.00
69.9514 289.00
70.0166 281.00
70.0818 263.00
70.147 267.00
70.2122 265.00
70.2774 279.00
70.3426 320.00
70.4078 275.00
70.473 284.00
70.5382 277.00
70.6034 281.00
70.6686 316.00
70.7338 332.00
70.799 325.00
70.8642 284.00
70.9294 277.00
70.9946 280.00
71.0598 285.00
71.125 316.00
71.1902 292.00
71.2554 309.00
71.3205 289.00
71.3858 311.00
71.451 279.00
71.5162 282.00
71.5813 317.00
71.6465 287.00
71.7117 294.00
71.7769 303.00
71.8421 300.00
71.9073 323.00
71.9725 306.00
72.0377 290.00
72.1029 339.00
72.1681 289.00
72.2333 304.00
72.2985 280.00
72.3637 300.00
72.4289 305.00
72.4941 303.00
72.5593 318.00
72.6245 307.00
72.6897 322.00
72.7549 280.00
72.8201 249.00
72.8853 296.00
72.9505 283.00
73.0157 302.00
73.0809 265.00
73.1461 289.00
73.2113 291.00
73.2765 268.00
73.3417 287.00
73.4069 285.00
73.4721 281.00
73.5373 276.00
73.6025 261.00
73.6677 263.00
73.7329 273.00
73.7981 283.00
73.8633 282.00
73.9285 239.00
73.9937 269.00
74.0589 283.00
74.1241 267.00
74.1893 289.00
74.2545 268.00
74.3197 257.00
74.3849 291.00
74.4501 298.00
74.5153 272.00
74.5805 291.00
74.6457 293.00
74.7109 267.00
74.7761 305.00
74.8413 290.00
74.9065 317.00
74.9717 325.00
75.0369 319.00
75.1021 285.00
75.1673 309.00
75.2325 289.00
75.2977 299.00
75.3629 289.00
75.4281 354.00
75.4933 312.00
75.5585 271.00
75.6237 300.00
75.6889 287.00
75.7541 264.00
75.8193 276.00
75.8845 240.00
75.9497 336.00
76.0149 309.00
76.0801 307.00
76.1452 298.00
76.2104 270.00
76.2756 308.00
76.3409 306.00
76.406 307.00
76.4712 324.00
76.5364 288.00
76.6016 299.00
76.6668 318.00
76.732 316.00
76.7972 339.00
76.8624 338.00
76.9276 334.00
76.9928 285.00
77.058 284.00
77.1232 335.00
77.1884 322.00
77.2536 325.00
77.3188 366.00
77.384 388.00
77.4492 327.00
77.5144 385.00
77.5796 357.00
77.6448 388.00
77.71 337.00
77.7752 375.00
77.8404 331.00
77.9056 304.00
77.9708 349.00
78.036 323.00
78.1012 319.00
78.1664 305.00
78.2316 342.00
78.2968 314.00
78.362 306.00
78.4272 295.00
78.4924 300.00
78.5576 284.00
78.6228 295.00
78.688 304.00
78.7532 298.00
78.8184 274.00
78.8836 299.00
78.9488 309.00
79.014 276.00
79.0792 268.00
79.1444 331.00
79.2096 332.00
79.2748 326.00
79.34 332.00
79.4052 355.00
79.4704 338.00
79.5356 315.00
79.6008 332.00
79.666 322.00
79.7312 317.00
79.7964 296.00
79.8616 280.00
79.9268 314.00
79.992 272.00
80.0572 328.00
80.1224 279.00
80.1876 287.00
80.2528 293.00
80.318 265.00
80.3832 341.00
80.4484 298.00
80.5136 308.00
80.5788 317.00
80.644 318.00
80.7092 331.00
80.7744 332.00
80.8396 323.00
80.9048 310.00
80.9699 333.00
81.0351 348.00
81.1003 325.00
81.1655 319.00
81.2307 301.00
81.2959 329.00
81.3611 322.00
81.4263 314.00
81.4915 312.00
81.5567 302.00
81.6219 320.00
81.6871 309.00
81.7523 283.00
81.8175 311.00
81.8827 323.00
81.9479 291.00
82.0131 290.00
82.0783 303.00
82.1435 305.00
82.2087 288.00
82.2739 301.00
82.3391 287.00
82.4043 273.00
82.4695 259.00
82.5347 271.00
82.5999 282.00
82.6651 276.00
82.7303 278.00
82.7955 286.00
82.8607 250.00
82.9259 249.00
82.9911 291.00
83.0563 271.00
83.1215 267.00
83.1867 247.00
83.2519 286.00
83.3171 298.00
83.3823 308.00
83.4475 295.00
83.5127 272.00
83.5779 279.00
83.6431 300.00
83.7083 300.00
83.7735 271.00
83.8387 246.00
83.9039 266.00
83.9691 262.00
84.0343 264.00
84.0995 318.00
84.1647 257.00
84.2299 283.00
84.2951 290.00
84.3603 282.00
84.4255 277.00
84.4907 313.00
84.5559 307.00
84.6211 315.00
84.6863 292.00
84.7515 306.00
84.8167 277.00
84.8819 287.00
84.9471 274.00
85.0123 311.00
85.0775 272.00
85.1427 317.00
85.2079 302.00
85.2731 283.00
85.3383 296.00
85.4035 280.00
85.4687 313.00
85.5339 287.00
85.5991 248.00
85.6643 290.00
85.7295 273.00
85.7946 299.00
85.8598 286.00
85.925 291.00
85.9903 256.00
86.0554 258.00
86.1206 271.00
86.1858 267.00
86.251 277.00
86.3162 257.00
86.3814 262.00
86.4466 276.00
86.5118 257.00
86.577 275.00
86.6422 276.00
86.7074 256.00
86.7726 274.00
86.8378 259.00
86.903 247.00
86.9682 257.00
87.0334 276.00
87.0986 281.00
87.1638 272.00
87.229 259.00
87.2942 243.00
87.3594 229.00
87.4246 264.00
87.4898 250.00
87.555 262.00
87.6202 266.00
87.6854 319.00
87.7506 284.00
87.8158 243.00
87.881 304.00
87.9462 282.00
88.0114 267.00
88.0766 247.00
88.1418 269.00
88.207 272.00
88.2722 280.00
88.3374 257.00
88.4026 271.00
88.4678 274.00
88.533 266.00
88.5982 249.00
88.6634 246.00
88.7286 257.00
88.7938 283.00
88.859 238.00
88.9242 260.00
88.9894 243.00
89.0546 233.00
89.1198 229.00
89.185 227.00
89.2502 241.00
89.3154 289.00
89.3806 260.00
89.4458 238.00
89.511 264.00
89.5762 256.00
89.6414 259.00
89.7066 228.00
89.7718 245.00
89.837 260.00
89.9022 273.00
89.9674 262.00
90.0326 271.00
90.0978 243.00
90.163 227.00
90.2282 238.00
90.2934 235.00
90.3586 259.00
90.4238 280.00
90.489 247.00
90.5542 262.00
90.6193 234.00
90.6845 246.00
90.7497 224.00
90.8149 268.00
90.8801 259.00
90.9453 239.00
91.0105 229.00
91.0757 273.00
91.1409 224.00
91.2061 223.00
91.2713 241.00
91.3365 245.00
91.4017 286.00
91.4669 262.00
91.5321 224.00
91.5973 230.00
91.6625 269.00
91.7277 226.00
91.7929 245.00
91.8581 244.00
91.9233 239.00
91.9885 268.00
92.0537 271.00
92.1189 263.00
92.1841 267.00
92.2493 259.00
92.3145 257.00
92.3797 259.00
92.4449 277.00
92.5101 232.00
92.5753 243.00
92.6405 265.00
92.7057 262.00
92.7709 266.00
92.8361 242.00
92.9013 214.00
92.9665 234.00
93.0317 246.00
93.0969 236.00
93.1621 243.00
93.2273 225.00
93.2925 248.00
93.3577 219.00
93.4229 269.00
93.4881 295.00
93.5533 276.00
93.6185 248.00
93.6837 283.00
93.7489 262.00
93.8141 239.00
93.8793 245.00
93.9445 306.00
94.0097 266.00
94.0749 266.00
94.1401 261.00
94.2053 283.00
94.2705 268.00
94.3357 276.00
94.4009 281.00
94.4661 237.00
94.5313 270.00
94.5965 260.00
94.6617 245.00
94.7269 262.00
94.7921 245.00
94.8573 247.00
94.9225 278.00
94.9877 259.00
95.0529 299.00
95.1181 256.00
95.1833 249.00
95.2485 243.00
95.3137 237.00
95.3789 236.00
95.444 278.00
95.5092 269.00
95.5744 264.00
95.6396 268.00
95.7048 275.00
95.77 242.00
95.8352 244.00
95.9004 244.00
95.9656 247.00
96.0308 268.00
96.096 226.00
96.1612 233.00
96.2264 244.00
96.2916 261.00
96.3568 275.00
96.422 236.00
96.4872 256.00
96.5524 314.00
96.6176 242.00
96.6828 284.00
96.748 269.00
96.8132 243.00
96.8784 282.00
96.9436 243.00
97.0088 256.00
97.074 236.00
97.1392 270.00
97.2044 272.00
97.2696 262.00
97.3348 310.00
97.4 251.00
97.4652 244.00
97.5304 303.00
97.5956 240.00
97.6608 266.00
97.726 232.00
97.7912 238.00
97.8564 258.00
97.9216 250.00
97.9868 275.00
98.052 268.00
98.1172 238.00
98.1824 270.00
98.2476 243.00
98.3128 240.00
98.378 237.00
98.4432 259.00
98.5084 273.00
98.5736 222.00
98.6388 261.00
98.704 248.00
98.7692 246.00
98.8344 258.00
98.8996 203.00
98.9648 215.00
99.03 227.00
99.0952 241.00
99.1604 256.00
99.2256 202.00
99.2908 274.00
99.356 236.00
99.4212 250.00
99.4864 220.00
99.5516 259.00
99.6168 227.00
99.682 229.00
99.7472 246.00
99.8124 235.00
99.8776 243.00
99.9428 232.00
100.008 229.00
100.073 227.00
100.095 240.00