File: data/xrd_creation/results/MINES_23.xy
9.903433 2783.00
9.968632 2772.00
10.0338 2776.00
10.099 2804.00
10.1642 2698.00
10.2294 2805.00
10.2946 2730.00
10.3598 2747.00
10.425 2645.00
10.4902 2582.00
10.5554 2705.00
10.6206 2626.00
10.6858 2602.00
10.751 2617.00
10.8162 2603.00
10.8814 2541.00
10.9466 2515.00
11.0118 2442.00
11.077 2474.00
11.1422 2495.00
11.2074 2501.00
11.2726 2503.00
11.3378 2328.00
11.403 2288.00
11.4682 2305.00
11.5334 2275.00
11.5986 2373.00
11.6638 2260.00
11.729 2265.00
11.7942 2187.00
11.8594 2162.00
11.9246 2224.00
11.9898 2310.00
12.055 2217.00
12.1202 2291.00
12.1854 2181.00
12.2506 2142.00
12.3158 2243.00
12.381 2363.00
12.4462 2195.00
12.5114 2110.00
12.5766 2132.00
12.6418 2023.00
12.707 2111.00
12.7722 2029.00
12.8374 2046.00
12.9026 1944.00
12.9678 2026.00
13.033 1915.00
13.0982 2050.00
13.1634 1962.00
13.2286 1889.00
13.2938 1905.00
13.359 1856.00
13.4242 1915.00
13.4894 1918.00
13.5546 1923.00
13.6198 1884.00
13.685 1867.00
13.7502 1782.00
13.8154 1790.00
13.8805 1830.00
13.9457 1850.00
14.0109 1797.00
14.0761 1726.00
14.1413 1830.00
14.2065 1724.00
14.2717 1818.00
14.3369 1772.00
14.4021 1785.00
14.4673 1794.00
14.5325 1735.00
14.5977 1691.00
14.6629 1712.00
14.7281 1684.00
14.7933 1672.00
14.8585 1706.00
14.9237 1721.00
14.9889 1672.00
15.0541 1803.00
15.1193 1745.00
15.1845 1769.00
15.2497 1814.00
15.3149 1810.00
15.3801 1810.00
15.4453 1894.00
15.5105 2033.00
15.5757 1875.00
15.6409 1981.00
15.7061 1692.00
15.7713 1752.00
15.8365 1698.00
15.9017 1681.00
15.9669 1602.00
16.0321 1746.00
16.0973 1726.00
16.1625 1752.00
16.2277 1700.00
16.2929 1822.00
16.3581 1975.00
16.4233 1881.00
16.4885 2001.00
16.5537 2108.00
16.6189 2159.00
16.6841 2068.00
16.7493 1696.00
16.8145 1672.00
16.8797 1618.00
16.9449 1554.00
17.0101 1617.00
17.0753 1496.00
17.1405 1513.00
17.2057 1488.00
17.2709 1451.00
17.3361 1485.00
17.4013 1458.00
17.4665 1447.00
17.5317 1512.00
17.5969 1403.00
17.6621 1392.00
17.7273 1457.00
17.7925 1452.00
17.8577 1403.00
17.9229 1436.00
17.9881 1383.00
18.0533 1404.00
18.1185 1460.00
18.1837 1398.00
18.2489 1451.00
18.3141 1410.00
18.3793 1398.00
18.4445 1363.00
18.5097 1410.00
18.5749 1393.00
18.6401 1341.00
18.7052 1371.00
18.7704 1334.00
18.8356 1351.00
18.9008 1371.00
18.966 1467.00
19.0312 1343.00
19.0964 1510.00
19.1616 1552.00
19.2268 1600.00
19.292 1646.00
19.3572 1847.00
19.4224 2182.00
19.4876 2408.00
19.5528 2636.00
19.618 2710.00
19.6832 2841.00
19.7484 2496.00
19.8136 2186.00
19.8788 1963.00
19.944 1575.00
20.0092 1494.00
20.0744 1480.00
20.1396 1357.00
20.2048 1406.00
20.27 1370.00
20.3352 1323.00
20.4004 1475.00
20.4656 1424.00
20.5308 1600.00
20.596 1779.00
20.6612 1914.00
20.7264 2082.00
20.7916 2294.00
20.8568 2401.00
20.922 2590.00
20.9872 2334.00
21.0524 2037.00
21.1176 1611.00
21.1828 1378.00
21.248 1278.00
21.3132 1299.00
21.3784 1273.00
21.4436 1203.00
21.5088 1227.00
21.574 1203.00
21.6392 1215.00
21.7044 1243.00
21.7696 1232.00
21.8348 1367.00
21.9 1403.00
21.9652 1401.00
22.0304 1465.00
22.0956 1427.00
22.1608 1465.00
22.226 1399.00
22.2912 1394.00
22.3564 1298.00
22.4216 1317.00
22.4868 1358.00
22.552 1330.00
22.6172 1401.00
22.6824 1486.00
22.7476 1771.00
22.8128 2045.00
22.878 2379.00
22.9432 2826.00
23.0084 3262.00
23.0736 3533.00
23.1388 3852.00
23.204 3799.00
23.2692 3489.00
23.3344 2789.00
23.3996 2057.00
23.4647 1588.00
23.5299 1517.00
23.5951 1737.00
23.6603 2065.00
23.7255 2445.00
23.7907 3101.00
23.8559 3524.00
23.9211 4242.00
23.9863 4962.00
24.0515 4929.00
24.1167 3878.00
24.1819 2394.00
24.2471 2155.00
24.3123 2410.00
24.3775 2700.00
24.4427 3136.00
24.5079 3605.00
24.5731 4079.00
24.6383 3839.00
24.7035 3284.00
24.7687 3405.00
24.8339 4098.00
24.8991 4981.00
24.9643 5879.00
25.0295 7051.00
25.0947 7491.00
25.1599 5766.00
25.2251 4005.00
25.2903 3561.00
25.3555 4418.00
25.4207 5464.00
25.4859 6916.00
25.5511 8605.00
25.6163 10177.00
25.6815 11926.00
25.7467 13141.00
25.8119 13588.00
25.8771 13513.00
25.9423 13121.00
26.0075 11432.00
26.0727 8616.00
26.1379 6004.00
26.2031 4506.00
26.2683 3752.00
26.3335 3562.00
26.3987 3897.00
26.4639 4925.00
26.5291 5920.00
26.5943 7314.00
26.6595 8585.00
26.7247 9327.00
26.7899 8074.00
26.8551 5564.00
26.9203 3326.00
26.9855 1929.00
27.0507 1545.00
27.1159 1350.00
27.1811 1366.00
27.2463 1217.00
27.3115 1171.00
27.3767 1230.00
27.4419 1225.00
27.5071 1168.00
27.5723 1218.00
27.6375 1214.00
27.7027 1270.00
27.7679 1135.00
27.8331 1153.00
27.8983 1281.00
27.9635 1211.00
28.0287 1189.00
28.0939 1210.00
28.1591 1258.00
28.2243 1326.00
28.2894 1507.00
28.3546 1635.00
28.4198 1699.00
28.485 1908.00
28.5502 2011.00
28.6154 2033.00
28.6806 1961.00
28.7458 1674.00
28.811 1486.00
28.8762 1464.00
28.9414 1373.00
29.0066 1349.00
29.0718 1383.00
29.137 1441.00
29.2022 1606.00
29.2674 1644.00
29.3326 1669.00
29.3978 1677.00
29.463 1514.00
29.5282 1335.00
29.5934 1097.00
29.6586 1032.00
29.7238 1104.00
29.789 1042.00
29.8542 1022.00
29.9194 1166.00
29.9846 1144.00
30.0498 1190.00
30.115 1144.00
30.1802 1119.00
30.2454 1094.00
30.3106 1121.00
30.3758 1142.00
30.441 1206.00
30.5062 1263.00
30.5714 1286.00
30.6366 1394.00
30.7018 1425.00
30.767 1504.00
30.8322 1497.00
30.8974 1604.00
30.9626 1628.00
31.0278 1415.00
31.093 1229.00
31.1582 1312.00
31.2234 1228.00
31.2886 1226.00
31.3538 1337.00
31.419 1255.00
31.4842 1204.00
31.5494 1087.00
31.6146 1107.00
31.6798 1092.00
31.745 1091.00
31.8102 1131.00
31.8754 1257.00
31.9406 1291.00
32.0058 1295.00
32.071 1458.00
32.1362 1516.00
32.2014 1590.00
32.2666 1705.00
32.3318 1826.00
32.397 1719.00
32.4622 1484.00
32.5274 1329.00
32.5926 1092.00
32.6578 1068.00
32.723 1068.00
32.7882 942.00
32.8534 1061.00
32.9186 1088.00
32.9838 1065.00
33.0489 1112.00
33.1141 1150.00
33.1793 1008.00
33.2445 968.00
33.3097 1019.00
33.3749 1087.00
33.4401 1075.00
33.5053 1091.00
33.5705 980.00
33.6357 911.00
33.7009 969.00
33.7661 921.00
33.8313 971.00
33.8965 956.00
33.9617 1015.00
34.0269 1071.00
34.0921 1142.00
34.1573 1147.00
34.2225 1194.00
34.2877 1228.00
34.3529 1252.00
34.4181 1248.00
34.4833 1240.00
34.5485 1127.00
34.6137 963.00
34.6789 922.00
34.7441 832.00
34.8093 805.00
34.8745 824.00
34.9397 796.00
35.0049 799.00
35.0701 792.00
35.1353 800.00
35.2005 735.00
35.2657 819.00
35.3309 752.00
35.3961 744.00
35.4613 782.00
35.5265 792.00
35.5917 778.00
35.6569 803.00
35.7221 770.00
35.7873 795.00
35.8525 773.00
35.9177 858.00
35.9829 831.00
36.0481 811.00
36.1133 949.00
36.1785 972.00
36.2437 1016.00
36.3089 1064.00
36.3741 1132.00
36.4393 1285.00
36.5045 1282.00
36.5697 1238.00
36.6349 1110.00
36.7001 1026.00
36.7653 971.00
36.8305 922.00
36.8957 944.00
36.9609 943.00
37.0261 900.00
37.0913 1001.00
37.1565 1032.00
37.2217 1072.00
37.2869 1203.00
37.3521 1242.00
37.4173 1536.00
37.4825 1728.00
37.5477 1985.00
37.6129 2393.00
37.6781 2776.00
37.7433 3262.00
37.8085 3423.00
37.8736 3452.00
37.9388 2953.00
38.004 2429.00
38.0692 2067.00
38.1344 1898.00
38.1996 1884.00
38.2648 2051.00
38.33 2063.00
38.3952 2113.00
38.4604 1951.00
38.5256 1633.00
38.5908 1327.00
38.656 1151.00
38.7212 988.00
38.7864 898.00
38.8516 896.00
38.9168 922.00
38.982 889.00
39.0472 911.00
39.1124 1044.00
39.1776 1116.00
39.2428 1221.00
39.308 1587.00
39.3732 1792.00
39.4384 2067.00
39.5036 2250.00
39.5688 2249.00
39.634 2108.00
39.6992 1790.00
39.7644 1586.00
39.8296 1456.00
39.8948 1331.00
39.96 1333.00
40.0252 1252.00
40.0904 1245.00
40.1556 1177.00
40.2208 1172.00
40.286 1134.00
40.3512 1117.00
40.4164 1070.00
40.4816 986.00
40.5468 888.00
40.612 791.00
40.6772 727.00
40.7424 731.00
40.8076 732.00
40.8728 699.00
40.938 705.00
41.0032 695.00
41.0684 697.00
41.1336 704.00
41.1988 748.00
41.264 691.00
41.3292 757.00
41.3944 744.00
41.4596 721.00
41.5248 752.00
41.59 711.00
41.6552 696.00
41.7204 712.00
41.7856 699.00
41.8508 747.00
41.916 806.00
41.9812 767.00
42.0464 844.00
42.1116 873.00
42.1768 896.00
42.242 846.00
42.3072 874.00
42.3724 963.00
42.4376 882.00
42.5028 851.00
42.568 868.00
42.6332 780.00
42.6983 702.00
42.7635 719.00
42.8287 789.00
42.8939 796.00
42.9591 901.00
43.0243 992.00
43.0895 1117.00
43.1547 1082.00
43.2199 1201.00
43.2851 1195.00
43.3503 1129.00
43.4155 1105.00
43.4807 956.00
43.5459 919.00
43.6111 918.00
43.6763 895.00
43.7415 949.00
43.8067 983.00
43.8719 939.00
43.9371 942.00
44.0023 990.00
44.0675 978.00
44.1327 1054.00
44.1979 1097.00
44.2631 1028.00
44.3283 930.00
44.3935 866.00
44.4587 744.00
44.5239 649.00
44.5891 688.00
44.6543 729.00
44.7195 674.00
44.7847 729.00
44.8499 756.00
44.9151 828.00
44.9803 903.00
45.0455 907.00
45.1107 941.00
45.1759 1075.00
45.2411 1058.00
45.3063 1045.00
45.3715 1081.00
45.4367 1102.00
45.5019 1184.00
45.5671 1211.00
45.6323 1170.00
45.6975 1334.00
45.7627 1425.00
45.8279 1456.00
45.8931 1541.00
45.9583 1667.00
46.0235 1677.00
46.0887 1784.00
46.1539 1752.00
46.2191 1949.00
46.2843 1886.00
46.3495 1828.00
46.4147 1562.00
46.4799 1227.00
46.5451 948.00
46.6103 865.00
46.6755 745.00
46.7407 699.00
46.8059 716.00
46.8711 800.00
46.9363 746.00
47.0015 774.00
47.0667 820.00
47.1319 905.00
47.1971 948.00
47.2623 939.00
47.3275 1041.00
47.3927 1094.00
47.4579 1135.00
47.523 1168.00
47.5882 1189.00
47.6534 1211.00
47.7186 1114.00
47.7838 1115.00
47.849 1170.00
47.9142 1208.00
47.9794 1282.00
48.0446 1292.00
48.1098 1442.00
48.175 1481.00
48.2402 1619.00
48.3054 1723.00
48.3706 1677.00
48.4358 1759.00
48.501 1647.00
48.5662 1694.00
48.6314 1798.00
48.6966 1882.00
48.7618 1894.00
48.827 1886.00
48.8922 1729.00
48.9574 1604.00
49.0226 1532.00
49.0878 1452.00
49.153 1238.00
49.2182 1272.00
49.2834 1090.00
49.3486 1067.00
49.4138 1052.00
49.479 1075.00
49.5442 958.00
49.6094 904.00
49.6746 943.00
49.7398 950.00
49.805 934.00
49.8702 1199.00
49.9354 1200.00
50.0006 1474.00
50.0658 1518.00
50.131 1436.00
50.1962 1407.00
50.2614 1247.00
50.3266 1144.00
50.3918 974.00
50.457 976.00
50.5222 1081.00
50.5874 1041.00
50.6526 1113.00
50.7178 1200.00
50.783 1170.00
50.8482 999.00
50.9134 939.00
50.9786 834.00
51.0438 751.00
51.109 729.00
51.1742 768.00
51.2394 833.00
51.3046 824.00
51.3698 701.00
51.435 681.00
51.5002 645.00
51.5654 562.00
51.6306 584.00
51.6958 580.00
51.761 580.00
51.8262 586.00
51.8914 647.00
51.9566 647.00
52.0218 669.00
52.087 652.00
52.1522 646.00
52.2174 610.00
52.2826 629.00
52.3477 640.00
52.4129 673.00
52.4781 725.00
52.5433 756.00
52.6085 741.00
52.6737 778.00
52.7389 734.00
52.8041 728.00
52.8693 730.00
52.9345 692.00
52.9997 723.00
53.0649 701.00
53.1301 649.00
53.1953 623.00
53.2605 640.00
53.3257 628.00
53.3909 651.00
53.4561 645.00
53.5213 582.00
53.5865 569.00
53.6517 551.00
53.7169 622.00
53.7821 616.00
53.8473 592.00
53.9125 631.00
53.9777 622.00
54.0429 621.00
54.1081 564.00
54.1733 587.00
54.2385 575.00
54.3037 611.00
54.3689 653.00
54.4341 708.00
54.4993 810.00
54.5645 794.00
54.6297 871.00
54.6949 879.00
54.7601 845.00
54.8253 881.00
54.8905 790.00
54.9557 722.00
55.0209 682.00
55.0861 629.00
55.1513 565.00
55.2165 587.00
55.2817 622.00
55.3469 621.00
55.4121 633.00
55.4773 629.00
55.5425 640.00
55.6077 697.00
55.6729 745.00
55.7381 786.00
55.8033 866.00
55.8685 952.00
55.9337 1040.00
55.9989 1029.00
56.0641 1134.00
56.1293 1106.00
56.1945 1126.00
56.2597 1204.00
56.3249 1159.00
56.3901 1094.00
56.4553 1120.00
56.5205 1055.00
56.5857 955.00
56.6509 921.00
56.7161 883.00
56.7813 900.00
56.8465 830.00
56.9117 782.00
56.9769 776.00
57.042 687.00
57.1073 685.00
57.1724 695.00
57.2376 647.00
57.3028 680.00
57.368 600.00
57.4332 566.00
57.4984 606.00
57.5636 619.00
57.6288 626.00
57.694 631.00
57.7592 666.00
57.8244 689.00
57.8896 689.00
57.9548 664.00
58.02 590.00
58.0852 559.00
58.1504 538.00
58.2156 537.00
58.2808 519.00
58.346 527.00
58.4112 502.00
58.4764 481.00
58.5416 562.00
58.6068 585.00
58.672 505.00
58.7372 582.00
58.8024 589.00
58.8676 578.00
58.9328 538.00
58.998 552.00
59.0632 572.00
59.1284 591.00
59.1936 590.00
59.2588 607.00
59.324 696.00
59.3892 797.00
59.4544 762.00
59.5196 855.00
59.5848 881.00
59.65 971.00
59.7152 932.00
59.7804 920.00
59.8456 844.00
59.9108 903.00
59.976 758.00
60.0412 823.00
60.1064 778.00
60.1716 714.00
60.2368 740.00
60.302 836.00
60.3672 837.00
60.4324 944.00
60.4976 1056.00
60.5628 1178.00
60.628 1206.00
60.6932 1235.00
60.7584 1279.00
60.8236 1186.00
60.8888 1149.00
60.954 1146.00
61.0192 1118.00
61.0844 1081.00
61.1496 1052.00
61.2148 1040.00
61.28 919.00
61.3452 845.00
61.4104 791.00
61.4756 725.00
61.5408 670.00
61.606 693.00
61.6712 675.00
61.7364 585.00
61.8016 585.00
61.8667 582.00
61.932 622.00
61.9971 541.00
62.0623 635.00
62.1275 622.00
62.1927 578.00
62.2579 587.00
62.3231 618.00
62.3883 591.00
62.4535 669.00
62.5187 626.00
62.5839 608.00
62.6491 588.00
62.7143 603.00
62.7795 589.00
62.8447 622.00
62.9099 603.00
62.9751 680.00
63.0403 714.00
63.1055 782.00
63.1707 901.00
63.2359 918.00
63.3011 928.00
63.3663 927.00
63.4315 959.00
63.4967 860.00
63.5619 918.00
63.6271 965.00
63.6923 1061.00
63.7575 1035.00
63.8227 1067.00
63.8879 1031.00
63.9531 1066.00
64.0183 983.00
64.0835 1086.00
64.1487 993.00
64.2139 959.00
64.2791 922.00
64.3443 859.00
64.4095 813.00
64.4747 808.00
64.5399 789.00
64.6051 862.00
64.6703 856.00
64.7355 894.00
64.8007 918.00
64.8659 989.00
64.9311 914.00
64.9963 929.00
65.0615 905.00
65.1267 802.00
65.1919 809.00
65.2571 850.00
65.3223 901.00
65.3875 810.00
65.4527 889.00
65.5179 1014.00
65.5831 1049.00
65.6483 1189.00
65.7135 1171.00
65.7787 1271.00
65.8439 1166.00
65.9091 1106.00
65.9743 1025.00
66.0395 928.00
66.1047 855.00
66.1699 804.00
66.2351 738.00
66.3003 790.00
66.3655 727.00
66.4307 736.00
66.4959 874.00
66.561 989.00
66.6263 1104.00
66.6915 1125.00
66.7566 1361.00
66.8218 1496.00
66.887 1563.00
66.9522 1757.00
67.0174 1803.00
67.0826 1847.00
67.1478 1807.00
67.213 1634.00
67.2782 1523.00
67.3434 1442.00
67.4086 1306.00
67.4738 1180.00
67.539 1137.00
67.6042 1103.00
67.6694 1090.00
67.7346 1130.00
67.7998 1104.00
67.865 1107.00
67.9302 1137.00
67.9954 1220.00
68.0606 1141.00
68.1258 1141.00
68.191 1145.00
68.2562 1156.00
68.3214 1153.00
68.3866 1209.00
68.4518 1173.00
68.517 1033.00
68.5822 980.00
68.6474 858.00
68.7126 764.00
68.7778 743.00
68.843 734.00
68.9082 729.00
68.9734 774.00
69.0386 731.00
69.1038 789.00
69.169 768.00
69.2342 725.00
69.2994 692.00
69.3646 666.00
69.4298 646.00
69.495 586.00
69.5602 604.00
69.6254 592.00
69.6906 554.00
69.7558 551.00
69.821 515.00
69.8862 574.00
69.9514 548.00
70.0166 535.00
70.0818 551.00
70.147 557.00
70.2122 543.00
70.2774 574.00
70.3426 518.00
70.4078 513.00
70.473 505.00
70.5382 508.00
70.6034 496.00
70.6686 486.00
70.7338 485.00
70.799 500.00
70.8642 560.00
70.9294 519.00
70.9946 570.00
71.0598 509.00
71.125 583.00
71.1902 602.00
71.2554 630.00
71.3205 598.00
71.3858 641.00
71.451 642.00
71.5162 682.00
71.5813 608.00
71.6465 532.00
71.7117 589.00
71.7769 575.00
71.8421 558.00
71.9073 630.00
71.9725 610.00
72.0377 617.00
72.1029 737.00
72.1681 684.00
72.2333 725.00
72.2985 682.00
72.3637 705.00
72.4289 700.00
72.4941 750.00
72.5593 664.00
72.6245 639.00
72.6897 624.00
72.7549 658.00
72.8201 606.00
72.8853 509.00
72.9505 511.00
73.0157 491.00
73.0809 484.00
73.1461 515.00
73.2113 528.00
73.2765 547.00
73.3417 555.00
73.4069 526.00
73.4721 516.00
73.5373 557.00
73.6025 571.00
73.6677 512.00
73.7329 512.00
73.7981 483.00
73.8633 446.00
73.9285 445.00
73.9937 449.00
74.0589 410.00
74.1241 466.00
74.1893 415.00
74.2545 434.00
74.3197 423.00
74.3849 418.00
74.4501 430.00
74.5153 412.00
74.5805 459.00
74.6457 439.00
74.7109 482.00
74.7761 513.00
74.8413 520.00
74.9065 542.00
74.9717 563.00
75.0369 542.00
75.1021 606.00
75.1673 603.00
75.2325 557.00
75.2977 592.00
75.3629 620.00
75.4281 635.00
75.4933 575.00
75.5585 658.00
75.6237 591.00
75.6889 548.00
75.7541 553.00
75.8193 548.00
75.8845 549.00
75.9497 590.00
76.0149 641.00
76.0801 695.00
76.1452 735.00
76.2104 761.00
76.2756 691.00
76.3409 698.00
76.406 737.00
76.4712 677.00
76.5364 698.00
76.6016 637.00
76.6668 657.00
76.732 599.00
76.7972 634.00
76.8624 590.00
76.9276 583.00
76.9928 588.00
77.058 631.00
77.1232 615.00
77.1884 681.00
77.2536 689.00
77.3188 711.00
77.384 679.00
77.4492 745.00
77.5144 724.00
77.5796 809.00
77.6448 771.00
77.71 839.00
77.7752 773.00
77.8404 812.00
77.9056 785.00
77.9708 813.00
78.036 844.00
78.1012 827.00
78.1664 815.00
78.2316 865.00
78.2968 860.00
78.362 790.00
78.4272 770.00
78.4924 749.00
78.5576 749.00
78.6228 675.00
78.688 593.00
78.7532 673.00
78.8184 621.00
78.8836 673.00
78.9488 631.00
79.014 638.00
79.0792 687.00
79.1444 704.00
79.2096 705.00
79.2748 724.00
79.34 698.00
79.4052 685.00
79.4704 710.00
79.5356 696.00
79.6008 672.00
79.666 681.00
79.7312 629.00
79.7964 625.00
79.8616 562.00
79.9268 587.00
79.992 536.00
80.0572 488.00
80.1224 479.00
80.1876 447.00
80.2528 455.00
80.318 488.00
80.3832 470.00
80.4484 489.00
80.5136 518.00
80.5788 522.00
80.644 516.00
80.7092 521.00
80.7744 559.00
80.8396 555.00
80.9048 654.00
80.9699 625.00
81.0351 635.00
81.1003 625.00
81.1655 629.00
81.2307 646.00
81.2959 581.00
81.3611 579.00
81.4263 591.00
81.4915 557.00
81.5567 512.00
81.6219 528.00
81.6871 498.00
81.7523 469.00
81.8175 485.00
81.8827 474.00
81.9479 465.00
82.0131 456.00
82.0783 425.00
82.1435 445.00
82.2087 412.00
82.2739 430.00
82.3391 421.00
82.4043 426.00
82.4695 455.00
82.5347 426.00
82.5999 454.00
82.6651 424.00
82.7303 469.00
82.7955 476.00
82.8607 431.00
82.9259 446.00
82.9911 424.00
83.0563 483.00
83.1215 440.00
83.1867 453.00
83.2519 443.00
83.3171 417.00
83.3823 429.00
83.4475 434.00
83.5127 426.00
83.5779 422.00
83.6431 410.00
83.7083 397.00
83.7735 400.00
83.8387 373.00
83.9039 448.00
83.9691 373.00
84.0343 420.00
84.0995 407.00
84.1647 388.00
84.2299 436.00
84.2951 399.00
84.3603 461.00
84.4255 455.00
84.4907 481.00
84.5559 467.00
84.6211 480.00
84.6863 453.00
84.7515 512.00
84.8167 567.00
84.8819 556.00
84.9471 560.00
85.0123 509.00
85.0775 496.00
85.1427 496.00
85.2079 556.00
85.2731 516.00
85.3383 537.00
85.4035 529.00
85.4687 507.00
85.5339 524.00
85.5991 517.00
85.6643 547.00
85.7295 555.00
85.7946 506.00
85.8598 464.00
85.925 479.00
85.9903 473.00
86.0554 437.00
86.1206 478.00
86.1858 476.00
86.251 464.00
86.3162 433.00
86.3814 430.00
86.4466 459.00
86.5118 429.00
86.577 371.00
86.6422 400.00
86.7074 350.00
86.7726 373.00
86.8378 373.00
86.903 381.00
86.9682 395.00
87.0334 397.00
87.0986 381.00
87.1638 395.00
87.229 460.00
87.2942 460.00
87.3594 447.00
87.4246 457.00
87.4898 460.00
87.555 456.00
87.6202 417.00
87.6854 482.00
87.7506 449.00
87.8158 471.00
87.881 495.00
87.9462 473.00
88.0114 494.00
88.0766 562.00
88.1418 474.00
88.207 523.00
88.2722 476.00
88.3374 550.00
88.4026 521.00
88.4678 449.00
88.533 452.00
88.5982 477.00
88.6634 468.00
88.7286 403.00
88.7938 402.00
88.859 373.00
88.9242 352.00
88.9894 400.00
89.0546 380.00
89.1198 394.00
89.185 391.00
89.2502 393.00
89.3154 385.00
89.3806 385.00
89.4458 432.00
89.511 457.00
89.5762 475.00
89.6414 389.00
89.7066 439.00
89.7718 476.00
89.837 424.00
89.9022 436.00
89.9674 437.00
90.0326 471.00
90.0978 461.00
90.163 442.00
90.2282 445.00
90.2934 476.00
90.3586 445.00
90.4238 393.00
90.489 437.00
90.5542 444.00
90.6193 419.00
90.6845 433.00
90.7497 424.00
90.8149 398.00
90.8801 463.00
90.9453 451.00
91.0105 404.00
91.0757 394.00
91.1409 427.00
91.2061 362.00
91.2713 361.00
91.3365 350.00
91.4017 404.00
91.4669 349.00
91.5321 381.00
91.5973 381.00
91.6625 407.00
91.7277 426.00
91.7929 396.00
91.8581 390.00
91.9233 407.00
91.9885 452.00
92.0537 444.00
92.1189 432.00
92.1841 389.00
92.2493 407.00
92.3145 408.00
92.3797 426.00
92.4449 386.00
92.5101 434.00
92.5753 434.00
92.6405 423.00
92.7057 421.00
92.7709 443.00
92.8361 437.00
92.9013 433.00
92.9665 467.00
93.0317 436.00
93.0969 495.00
93.1621 450.00
93.2273 474.00
93.2925 449.00
93.3577 471.00
93.4229 472.00
93.4881 464.00
93.5533 469.00
93.6185 481.00
93.6837 488.00
93.7489 490.00
93.8141 445.00
93.8793 479.00
93.9445 449.00
94.0097 502.00
94.0749 479.00
94.1401 443.00
94.2053 503.00
94.2705 486.00
94.3357 461.00
94.4009 487.00
94.4661 419.00
94.5313 442.00
94.5965 491.00
94.6617 496.00
94.7269 479.00
94.7921 470.00
94.8573 484.00
94.9225 441.00
94.9877 475.00
95.0529 420.00
95.1181 478.00
95.1833 467.00
95.2485 427.00
95.3137 414.00
95.3789 398.00
95.444 424.00
95.5092 459.00
95.5744 489.00
95.6396 462.00
95.7048 430.00
95.77 447.00
95.8352 459.00
95.9004 405.00
95.9656 471.00
96.0308 421.00
96.096 456.00
96.1612 422.00
96.2264 443.00
96.2916 435.00
96.3568 417.00
96.422 440.00
96.4872 431.00
96.5524 440.00
96.6176 448.00
96.6828 459.00
96.748 469.00
96.8132 505.00
96.8784 493.00
96.9436 454.00
97.0088 482.00
97.074 463.00
97.1392 498.00
97.2044 520.00
97.2696 480.00
97.3348 486.00
97.4 457.00
97.4652 439.00
97.5304 458.00
97.5956 449.00
97.6608 456.00
97.726 430.00
97.7912 458.00
97.8564 481.00
97.9216 466.00
97.9868 474.00
98.052 476.00
98.1172 459.00
98.1824 453.00
98.2476 490.00
98.3128 428.00
98.378 482.00
98.4432 440.00
98.5084 496.00
98.5736 437.00
98.6388 421.00
98.704 407.00
98.7692 421.00
98.8344 389.00
98.8996 430.00
98.9648 424.00
99.03 406.00
99.0952 416.00
99.1604 359.00
99.2256 391.00
99.2908 357.00
99.356 374.00
99.4212 419.00
99.4864 419.00
99.5516 344.00
99.6168 393.00
99.682 395.00
99.7472 382.00
99.8124 387.00
99.8776 421.00
99.9428 421.00
100.008 402.00
100.073 404.00
100.095 389.00