File: data/xrd_creation/results/MINES_9.xy
9.903433 2715.00
9.968632 2592.00
10.0338 2587.00
10.099 2663.00
10.1642 2550.00
10.2294 2557.00
10.2946 2563.00
10.3598 2444.00
10.425 2457.00
10.4902 2436.00
10.5554 2383.00
10.6206 2425.00
10.6858 2418.00
10.751 2344.00
10.8162 2320.00
10.8814 2320.00
10.9466 2295.00
11.0118 2308.00
11.077 2187.00
11.1422 2247.00
11.2074 2330.00
11.2726 2195.00
11.3378 2142.00
11.403 2048.00
11.4682 2107.00
11.5334 2029.00
11.5986 2064.00
11.6638 2101.00
11.729 2020.00
11.7942 2045.00
11.8594 1972.00
11.9246 1858.00
11.9898 1965.00
12.055 1926.00
12.1202 1985.00
12.1854 1956.00
12.2506 1906.00
12.3158 1848.00
12.381 1884.00
12.4462 1796.00
12.5114 1824.00
12.5766 1839.00
12.6418 1799.00
12.707 1816.00
12.7722 1729.00
12.8374 1730.00
12.9026 1761.00
12.9678 1736.00
13.033 1729.00
13.0982 1671.00
13.1634 1638.00
13.2286 1710.00
13.2938 1773.00
13.359 1621.00
13.4242 1682.00
13.4894 1617.00
13.5546 1621.00
13.6198 1692.00
13.685 1607.00
13.7502 1548.00
13.8154 1572.00
13.8805 1569.00
13.9457 1549.00
14.0109 1602.00
14.0761 1588.00
14.1413 1537.00
14.2065 1544.00
14.2717 1480.00
14.3369 1495.00
14.4021 1455.00
14.4673 1468.00
14.5325 1488.00
14.5977 1391.00
14.6629 1534.00
14.7281 1488.00
14.7933 1518.00
14.8585 1439.00
14.9237 1465.00
14.9889 1463.00
15.0541 1394.00
15.1193 1526.00
15.1845 1505.00
15.2497 1458.00
15.3149 1588.00
15.3801 1488.00
15.4453 1396.00
15.5105 1301.00
15.5757 1362.00
15.6409 1341.00
15.7061 1356.00
15.7713 1315.00
15.8365 1438.00
15.9017 1327.00
15.9669 1356.00
16.0321 1396.00
16.0973 1330.00
16.1625 1297.00
16.2277 1269.00
16.2929 1342.00
16.3581 1288.00
16.4233 1292.00
16.4885 1272.00
16.5537 1335.00
16.6189 1278.00
16.6841 1298.00
16.7493 1216.00
16.8145 1234.00
16.8797 1268.00
16.9449 1158.00
17.0101 1229.00
17.0753 1234.00
17.1405 1255.00
17.2057 1310.00
17.2709 1251.00
17.3361 1247.00
17.4013 1215.00
17.4665 1131.00
17.5317 1196.00
17.5969 1197.00
17.6621 1184.00
17.7273 1186.00
17.7925 1161.00
17.8577 1199.00
17.9229 1216.00
17.9881 1172.00
18.0533 1183.00
18.1185 1186.00
18.1837 1146.00
18.2489 1137.00
18.3141 1205.00
18.3793 1239.00
18.4445 1319.00
18.5097 1532.00
18.5749 1592.00
18.6401 1495.00
18.7052 1305.00
18.7704 1212.00
18.8356 1105.00
18.9008 1157.00
18.966 1099.00
19.0312 1070.00
19.0964 1182.00
19.1616 1193.00
19.2268 1350.00
19.292 1529.00
19.3572 1493.00
19.4224 1331.00
19.4876 1191.00
19.5528 1118.00
19.618 1079.00
19.6832 1058.00
19.7484 1067.00
19.8136 1121.00
19.8788 1016.00
19.944 993.00
20.0092 991.00
20.0744 978.00
20.1396 977.00
20.2048 965.00
20.27 1026.00
20.3352 1061.00
20.4004 1069.00
20.4656 1075.00
20.5308 1059.00
20.596 1054.00
20.6612 1052.00
20.7264 1063.00
20.7916 991.00
20.8568 1011.00
20.922 997.00
20.9872 997.00
21.0524 898.00
21.1176 962.00
21.1828 913.00
21.248 958.00
21.3132 964.00
21.3784 934.00
21.4436 898.00
21.5088 937.00
21.574 978.00
21.6392 869.00
21.7044 885.00
21.7696 920.00
21.8348 946.00
21.9 874.00
21.9652 990.00
22.0304 900.00
22.0956 926.00
22.1608 898.00
22.226 884.00
22.2912 959.00
22.3564 938.00
22.4216 941.00
22.4868 942.00
22.552 1013.00
22.6172 1034.00
22.6824 1249.00
22.7476 1373.00
22.8128 1668.00
22.878 1987.00
22.9432 2037.00
23.0084 1648.00
23.0736 1213.00
23.1388 963.00
23.204 999.00
23.2692 904.00
23.3344 863.00
23.3996 845.00
23.4647 850.00
23.5299 807.00
23.5951 846.00
23.6603 854.00
23.7255 858.00
23.7907 833.00
23.8559 808.00
23.9211 800.00
23.9863 799.00
24.0515 839.00
24.1167 770.00
24.1819 849.00
24.2471 776.00
24.3123 799.00
24.3775 777.00
24.4427 771.00
24.5079 784.00
24.5731 820.00
24.6383 761.00
24.7035 815.00
24.7687 775.00
24.8339 823.00
24.8991 765.00
24.9643 833.00
25.0295 839.00
25.0947 830.00
25.1599 862.00
25.2251 951.00
25.2903 971.00
25.3555 1173.00
25.4207 1588.00
25.4859 2258.00
25.5511 3204.00
25.6163 4538.00
25.6815 4749.00
25.7467 3769.00
25.8119 2566.00
25.8771 2047.00
25.9423 1522.00
26.0075 1129.00
26.0727 1040.00
26.1379 1068.00
26.2031 1093.00
26.2683 1285.00
26.3335 1476.00
26.3987 1563.00
26.4639 1475.00
26.5291 1268.00
26.5943 1104.00
26.6595 958.00
26.7247 844.00
26.7899 833.00
26.8551 846.00
26.9203 821.00
26.9855 816.00
27.0507 832.00
27.1159 800.00
27.1811 776.00
27.2463 735.00
27.3115 790.00
27.3767 849.00
27.4419 820.00
27.5071 801.00
27.5723 874.00
27.6375 887.00
27.7027 783.00
27.7679 847.00
27.8331 809.00
27.8983 844.00
27.9635 822.00
28.0287 859.00
28.0939 898.00
28.1591 976.00
28.2243 1040.00
28.2894 1233.00
28.3546 1163.00
28.4198 1016.00
28.485 906.00
28.5502 803.00
28.6154 787.00
28.6806 754.00
28.7458 899.00
28.811 1069.00
28.8762 1099.00
28.9414 1113.00
29.0066 955.00
29.0718 799.00
29.137 761.00
29.2022 785.00
29.2674 733.00
29.3326 707.00
29.3978 709.00
29.463 724.00
29.5282 687.00
29.5934 706.00
29.6586 704.00
29.7238 688.00
29.789 749.00
29.8542 722.00
29.9194 716.00
29.9846 835.00
30.0498 809.00
30.115 757.00
30.1802 770.00
30.2454 720.00
30.3106 743.00
30.3758 753.00
30.441 667.00
30.5062 682.00
30.5714 668.00
30.6366 628.00
30.7018 608.00
30.767 626.00
30.8322 570.00
30.8974 634.00
30.9626 644.00
31.0278 631.00
31.093 629.00
31.1582 645.00
31.2234 668.00
31.2886 639.00
31.3538 632.00
31.419 640.00
31.4842 685.00
31.5494 700.00
31.6146 745.00
31.6798 666.00
31.745 721.00
31.8102 690.00
31.8754 756.00
31.9406 710.00
32.0058 725.00
32.071 673.00
32.1362 656.00
32.2014 618.00
32.2666 616.00
32.3318 670.00
32.397 608.00
32.4622 642.00
32.5274 622.00
32.5926 628.00
32.6578 669.00
32.723 664.00
32.7882 689.00
32.8534 659.00
32.9186 608.00
32.9838 628.00
33.0489 568.00
33.1141 585.00
33.1793 610.00
33.2445 599.00
33.3097 596.00
33.3749 627.00
33.4401 646.00
33.5053 682.00
33.5705 700.00
33.6357 712.00
33.7009 828.00
33.7661 775.00
33.8313 683.00
33.8965 614.00
33.9617 554.00
34.0269 586.00
34.0921 577.00
34.1573 602.00
34.2225 549.00
34.2877 531.00
34.3529 534.00
34.4181 504.00
34.4833 537.00
34.5485 494.00
34.6137 581.00
34.6789 487.00
34.7441 491.00
34.8093 495.00
34.8745 492.00
34.9397 511.00
35.0049 486.00
35.0701 473.00
35.1353 501.00
35.2005 561.00
35.2657 519.00
35.3309 548.00
35.3961 535.00
35.4613 515.00
35.5265 480.00
35.5917 514.00
35.6569 477.00
35.7221 490.00
35.7873 476.00
35.8525 487.00
35.9177 491.00
35.9829 519.00
36.0481 472.00
36.1133 499.00
36.1785 464.00
36.2437 476.00
36.3089 491.00
36.3741 463.00
36.4393 495.00
36.5045 467.00
36.5697 463.00
36.6349 486.00
36.7001 489.00
36.7653 467.00
36.8305 451.00
36.8957 463.00
36.9609 446.00
37.0261 435.00
37.0913 490.00
37.1565 471.00
37.2217 479.00
37.2869 472.00
37.3521 473.00
37.4173 453.00
37.4825 455.00
37.5477 432.00
37.6129 486.00
37.6781 474.00
37.7433 506.00
37.8085 485.00
37.8736 512.00
37.9388 475.00
38.004 473.00
38.0692 451.00
38.1344 441.00
38.1996 455.00
38.2648 411.00
38.33 440.00
38.3952 407.00
38.4604 413.00
38.5256 413.00
38.5908 457.00
38.656 425.00
38.7212 375.00
38.7864 432.00
38.8516 441.00
38.9168 462.00
38.982 436.00
39.0472 390.00
39.1124 418.00
39.1776 497.00
39.2428 503.00
39.308 590.00
39.3732 530.00
39.4384 499.00
39.5036 473.00
39.5688 490.00
39.634 442.00
39.6992 409.00
39.7644 502.00
39.8296 427.00
39.8948 470.00
39.96 463.00
40.0252 429.00
40.0904 442.00
40.1556 474.00
40.2208 498.00
40.286 479.00
40.3512 378.00
40.4164 413.00
40.4816 422.00
40.5468 435.00
40.612 372.00
40.6772 386.00
40.7424 416.00
40.8076 438.00
40.8728 380.00
40.938 358.00
41.0032 387.00
41.0684 383.00
41.1336 393.00
41.1988 383.00
41.264 424.00
41.3292 428.00
41.3944 429.00
41.4596 391.00
41.5248 378.00
41.59 421.00
41.6552 389.00
41.7204 414.00
41.7856 420.00
41.8508 416.00
41.916 405.00
41.9812 410.00
42.0464 402.00
42.1116 409.00
42.1768 386.00
42.242 385.00
42.3072 391.00
42.3724 390.00
42.4376 374.00
42.5028 439.00
42.568 399.00
42.6332 451.00
42.6983 429.00
42.7635 433.00
42.8287 482.00
42.8939 454.00
42.9591 495.00
43.0243 499.00
43.0895 539.00
43.1547 449.00
43.2199 428.00
43.2851 416.00
43.3503 433.00
43.4155 438.00
43.4807 459.00
43.5459 417.00
43.6111 417.00
43.6763 380.00
43.7415 412.00
43.8067 367.00
43.8719 403.00
43.9371 373.00
44.0023 388.00
44.0675 365.00
44.1327 383.00
44.1979 321.00
44.2631 372.00
44.3283 353.00
44.3935 357.00
44.4587 347.00
44.5239 369.00
44.5891 336.00
44.6543 379.00
44.7195 334.00
44.7847 371.00
44.8499 370.00
44.9151 347.00
44.9803 327.00
45.0455 362.00
45.1107 324.00
45.1759 364.00
45.2411 348.00
45.3063 355.00
45.3715 347.00
45.4367 348.00
45.5019 354.00
45.5671 371.00
45.6323 360.00
45.6975 361.00
45.7627 348.00
45.8279 345.00
45.8931 363.00
45.9583 352.00
46.0235 392.00
46.0887 371.00
46.1539 347.00
46.2191 353.00
46.2843 334.00
46.3495 367.00
46.4147 317.00
46.4799 348.00
46.5451 328.00
46.6103 321.00
46.6755 367.00
46.7407 358.00
46.8059 439.00
46.8711 426.00
46.9363 378.00
47.0015 373.00
47.0667 411.00
47.1319 496.00
47.1971 456.00
47.2623 467.00
47.3275 448.00
47.3927 416.00
47.4579 386.00
47.523 339.00
47.5882 339.00
47.6534 348.00
47.7186 336.00
47.7838 341.00
47.849 389.00
47.9142 377.00
47.9794 382.00
48.0446 438.00
48.1098 478.00
48.175 491.00
48.2402 499.00
48.3054 533.00
48.3706 512.00
48.4358 633.00
48.501 622.00
48.5662 568.00
48.6314 540.00
48.6966 534.00
48.7618 532.00
48.827 545.00
48.8922 508.00
48.9574 538.00
49.0226 429.00
49.0878 456.00
49.153 349.00
49.2182 341.00
49.2834 349.00
49.3486 358.00
49.4138 373.00
49.479 347.00
49.5442 361.00
49.6094 340.00
49.6746 337.00
49.7398 388.00
49.805 387.00
49.8702 374.00
49.9354 350.00
50.0006 332.00
50.0658 354.00
50.131 347.00
50.1962 313.00
50.2614 315.00
50.3266 327.00
50.3918 301.00
50.457 355.00
50.5222 342.00
50.5874 331.00
50.6526 337.00
50.7178 314.00
50.783 304.00
50.8482 350.00
50.9134 350.00
50.9786 335.00
51.0438 323.00
51.109 316.00
51.1742 351.00
51.2394 375.00
51.3046 336.00
51.3698 350.00
51.435 328.00
51.5002 384.00
51.5654 387.00
51.6306 453.00
51.6958 457.00
51.761 414.00
51.8262 404.00
51.8914 352.00
51.9566 340.00
52.0218 322.00
52.087 338.00
52.1522 264.00
52.2174 307.00
52.2826 334.00
52.3477 298.00
52.4129 306.00
52.4781 292.00
52.5433 288.00
52.6085 300.00
52.6737 288.00
52.7389 286.00
52.8041 340.00
52.8693 315.00
52.9345 340.00
52.9997 302.00
53.0649 352.00
53.1301 299.00
53.1953 282.00
53.2605 306.00
53.3257 307.00
53.3909 327.00
53.4561 353.00
53.5213 283.00
53.5865 321.00
53.6517 303.00
53.7169 284.00
53.7821 351.00
53.8473 278.00
53.9125 296.00
53.9777 318.00
54.0429 322.00
54.1081 335.00
54.1733 320.00
54.2385 324.00
54.3037 355.00
54.3689 354.00
54.4341 343.00
54.4993 331.00
54.5645 326.00
54.6297 323.00
54.6949 303.00
54.7601 312.00
54.8253 325.00
54.8905 300.00
54.9557 287.00
55.0209 309.00
55.0861 288.00
55.1513 293.00
55.2165 317.00
55.2817 298.00
55.3469 278.00
55.4121 261.00
55.4773 281.00
55.5425 368.00
55.6077 340.00
55.6729 348.00
55.7381 338.00
55.8033 318.00
55.8685 327.00
55.9337 333.00
55.9989 294.00
56.0641 304.00
56.1293 377.00
56.1945 365.00
56.2597 354.00
56.3249 302.00
56.3901 334.00
56.4553 315.00
56.5205 332.00
56.5857 310.00
56.6509 303.00
56.7161 275.00
56.7813 297.00
56.8465 262.00
56.9117 295.00
56.9769 291.00
57.042 299.00
57.1073 305.00
57.1724 338.00
57.2376 358.00
57.3028 362.00
57.368 308.00
57.4332 318.00
57.4984 321.00
57.5636 301.00
57.6288 286.00
57.694 309.00
57.7592 258.00
57.8244 276.00
57.8896 294.00
57.9548 289.00
58.02 284.00
58.0852 281.00
58.1504 291.00
58.2156 277.00
58.2808 267.00
58.346 261.00
58.4112 270.00
58.4764 277.00
58.5416 282.00
58.6068 298.00
58.672 287.00
58.7372 281.00
58.8024 265.00
58.8676 291.00
58.9328 284.00
58.998 277.00
59.0632 274.00
59.1284 268.00
59.1936 298.00
59.2588 280.00
59.324 283.00
59.3892 286.00
59.4544 275.00
59.5196 237.00
59.5848 293.00
59.65 232.00
59.7152 262.00
59.7804 270.00
59.8456 266.00
59.9108 268.00
59.976 290.00
60.0412 284.00
60.1064 260.00
60.1716 260.00
60.2368 273.00
60.302 311.00
60.3672 291.00
60.4324 324.00
60.4976 317.00
60.5628 339.00
60.628 293.00
60.6932 319.00
60.7584 291.00
60.8236 290.00
60.8888 288.00
60.954 283.00
61.0192 242.00
61.0844 225.00
61.1496 231.00
61.2148 225.00
61.28 249.00
61.3452 232.00
61.4104 243.00
61.4756 247.00
61.5408 264.00
61.606 277.00
61.6712 260.00
61.7364 286.00
61.8016 262.00
61.8667 273.00
61.932 266.00
61.9971 245.00
62.0623 282.00
62.1275 231.00
62.1927 289.00
62.2579 232.00
62.3231 238.00
62.3883 232.00
62.4535 232.00
62.5187 257.00
62.5839 259.00
62.6491 240.00
62.7143 268.00
62.7795 261.00
62.8447 247.00
62.9099 245.00
62.9751 271.00
63.0403 277.00
63.1055 231.00
63.1707 243.00
63.2359 242.00
63.3011 268.00
63.3663 293.00
63.4315 289.00
63.4967 287.00
63.5619 272.00
63.6271 303.00
63.6923 312.00
63.7575 265.00
63.8227 269.00
63.8879 245.00
63.9531 273.00
64.0183 256.00
64.0835 295.00
64.1487 263.00
64.2139 285.00
64.2791 304.00
64.3443 261.00
64.4095 275.00
64.4747 288.00
64.5399 322.00
64.6051 280.00
64.6703 284.00
64.7355 299.00
64.8007 286.00
64.8659 284.00
64.9311 260.00
64.9963 260.00
65.0615 266.00
65.1267 263.00
65.1919 241.00
65.2571 279.00
65.3223 242.00
65.3875 276.00
65.4527 297.00
65.5179 315.00
65.5831 271.00
65.6483 298.00
65.7135 263.00
65.7787 270.00
65.8439 270.00
65.9091 256.00
65.9743 268.00
66.0395 269.00
66.1047 236.00
66.1699 283.00
66.2351 223.00
66.3003 231.00
66.3655 242.00
66.4307 259.00
66.4959 219.00
66.561 247.00
66.6263 268.00
66.6915 236.00
66.7566 243.00
66.8218 243.00
66.887 285.00
66.9522 318.00
67.0174 309.00
67.0826 284.00
67.1478 249.00
67.213 288.00
67.2782 304.00
67.3434 237.00
67.4086 274.00
67.4738 269.00
67.539 260.00
67.6042 247.00
67.6694 258.00
67.7346 257.00
67.7998 226.00
67.865 245.00
67.9302 266.00
67.9954 272.00
68.0606 274.00
68.1258 262.00
68.191 276.00
68.2562 269.00
68.3214 238.00
68.3866 234.00
68.4518 270.00
68.517 217.00
68.5822 201.00
68.6474 220.00
68.7126 284.00
68.7778 274.00
68.843 249.00
68.9082 221.00
68.9734 282.00
69.0386 248.00
69.1038 246.00
69.169 239.00
69.2342 227.00
69.2994 246.00
69.3646 225.00
69.4298 223.00
69.495 245.00
69.5602 237.00
69.6254 244.00
69.6906 209.00
69.7558 232.00
69.821 263.00
69.8862 279.00
69.9514 245.00
70.0166 256.00
70.0818 245.00
70.147 240.00
70.2122 243.00
70.2774 241.00
70.3426 248.00
70.4078 230.00
70.473 233.00
70.5382 218.00
70.6034 245.00
70.6686 256.00
70.7338 256.00
70.799 241.00
70.8642 250.00
70.9294 271.00
70.9946 245.00
71.0598 256.00
71.125 278.00
71.1902 249.00
71.2554 229.00
71.3205 259.00
71.3858 260.00
71.451 293.00
71.5162 242.00
71.5813 226.00
71.6465 226.00
71.7117 270.00
71.7769 229.00
71.8421 238.00
71.9073 239.00
71.9725 249.00
72.0377 222.00
72.1029 277.00
72.1681 260.00
72.2333 275.00
72.2985 280.00
72.3637 239.00
72.4289 220.00
72.4941 246.00
72.5593 220.00
72.6245 202.00
72.6897 241.00
72.7549 220.00
72.8201 240.00
72.8853 242.00
72.9505 226.00
73.0157 221.00
73.0809 262.00
73.1461 231.00
73.2113 243.00
73.2765 225.00
73.3417 264.00
73.4069 238.00
73.4721 240.00
73.5373 205.00
73.6025 273.00
73.6677 212.00
73.7329 225.00
73.7981 226.00
73.8633 276.00
73.9285 228.00
73.9937 249.00
74.0589 229.00
74.1241 237.00
74.1893 219.00
74.2545 208.00
74.3197 249.00
74.3849 276.00
74.4501 243.00
74.5153 238.00
74.5805 246.00
74.6457 279.00
74.7109 245.00
74.7761 231.00
74.8413 229.00
74.9065 238.00
74.9717 278.00
75.0369 250.00
75.1021 297.00
75.1673 264.00
75.2325 300.00
75.2977 249.00
75.3629 246.00
75.4281 240.00
75.4933 260.00
75.5585 263.00
75.6237 284.00
75.6889 287.00
75.7541 272.00
75.8193 247.00
75.8845 259.00
75.9497 257.00
76.0149 250.00
76.0801 241.00
76.1452 231.00
76.2104 231.00
76.2756 271.00
76.3409 229.00
76.406 211.00
76.4712 229.00
76.5364 239.00
76.6016 244.00
76.6668 257.00
76.732 229.00
76.7972 237.00
76.8624 290.00
76.9276 269.00
76.9928 267.00
77.058 306.00
77.1232 297.00
77.1884 239.00
77.2536 290.00
77.3188 292.00
77.384 285.00
77.4492 303.00
77.5144 298.00
77.5796 300.00
77.6448 261.00
77.71 307.00
77.7752 271.00
77.8404 249.00
77.9056 302.00
77.9708 262.00
78.036 276.00
78.1012 285.00
78.1664 269.00
78.2316 272.00
78.2968 291.00
78.362 299.00
78.4272 287.00
78.4924 276.00
78.5576 275.00
78.6228 260.00
78.688 272.00
78.7532 291.00
78.8184 238.00
78.8836 295.00
78.9488 258.00
79.014 243.00
79.0792 271.00
79.1444 278.00
79.2096 266.00
79.2748 278.00
79.34 273.00
79.4052 268.00
79.4704 262.00
79.5356 243.00
79.6008 269.00
79.666 287.00
79.7312 284.00
79.7964 267.00
79.8616 265.00
79.9268 232.00
79.992 248.00
80.0572 274.00
80.1224 269.00
80.1876 274.00
80.2528 237.00
80.318 257.00
80.3832 294.00
80.4484 265.00
80.5136 307.00
80.5788 258.00
80.644 293.00
80.7092 299.00
80.7744 271.00
80.8396 292.00
80.9048 302.00
80.9699 284.00
81.0351 281.00
81.1003 266.00
81.1655 297.00
81.2307 278.00
81.2959 260.00
81.3611 275.00
81.4263 278.00
81.4915 241.00
81.5567 294.00
81.6219 278.00
81.6871 275.00
81.7523 259.00
81.8175 257.00
81.8827 223.00
81.9479 259.00
82.0131 233.00
82.0783 226.00
82.1435 246.00
82.2087 257.00
82.2739 245.00
82.3391 278.00
82.4043 231.00
82.4695 262.00
82.5347 259.00
82.5999 237.00
82.6651 236.00
82.7303 229.00
82.7955 267.00
82.8607 212.00
82.9259 232.00
82.9911 250.00
83.0563 270.00
83.1215 239.00
83.1867 244.00
83.2519 226.00
83.3171 239.00
83.3823 249.00
83.4475 259.00
83.5127 231.00
83.5779 257.00
83.6431 248.00
83.7083 227.00
83.7735 236.00
83.8387 270.00
83.9039 244.00
83.9691 257.00
84.0343 241.00
84.0995 263.00
84.1647 220.00
84.2299 241.00
84.2951 219.00
84.3603 246.00
84.4255 220.00
84.4907 235.00
84.5559 250.00
84.6211 238.00
84.6863 229.00
84.7515 226.00
84.8167 236.00
84.8819 221.00
84.9471 246.00
85.0123 236.00
85.0775 246.00
85.1427 212.00
85.2079 233.00
85.2731 226.00
85.3383 187.00
85.4035 213.00
85.4687 231.00
85.5339 244.00
85.5991 230.00
85.6643 239.00
85.7295 267.00
85.7946 267.00
85.8598 260.00
85.925 256.00
85.9903 197.00
86.0554 234.00
86.1206 230.00
86.1858 229.00
86.251 222.00
86.3162 207.00
86.3814 238.00
86.4466 222.00
86.5118 234.00
86.577 205.00
86.6422 209.00
86.7074 247.00
86.7726 230.00
86.8378 204.00
86.903 208.00
86.9682 203.00
87.0334 248.00
87.0986 196.00
87.1638 224.00
87.229 216.00
87.2942 245.00
87.3594 207.00
87.4246 202.00
87.4898 274.00
87.555 194.00
87.6202 231.00
87.6854 217.00
87.7506 204.00
87.8158 228.00
87.881 218.00
87.9462 224.00
88.0114 188.00
88.0766 210.00
88.1418 224.00
88.207 225.00
88.2722 233.00
88.3374 203.00
88.4026 245.00
88.4678 207.00
88.533 204.00
88.5982 213.00
88.6634 221.00
88.7286 226.00
88.7938 219.00
88.859 207.00
88.9242 241.00
88.9894 227.00
89.0546 216.00
89.1198 247.00
89.185 210.00
89.2502 197.00
89.3154 251.00
89.3806 226.00
89.4458 219.00
89.511 207.00
89.5762 196.00
89.6414 195.00
89.7066 223.00
89.7718 209.00
89.837 259.00
89.9022 218.00
89.9674 223.00
90.0326 201.00
90.0978 221.00
90.163 221.00
90.2282 211.00
90.2934 219.00
90.3586 199.00
90.4238 219.00
90.489 183.00
90.5542 231.00
90.6193 213.00
90.6845 240.00
90.7497 225.00
90.8149 197.00
90.8801 234.00
90.9453 186.00
91.0105 238.00
91.0757 220.00
91.1409 211.00
91.2061 188.00
91.2713 211.00
91.3365 220.00
91.4017 231.00
91.4669 190.00
91.5321 218.00
91.5973 203.00
91.6625 201.00
91.7277 180.00
91.7929 209.00
91.8581 205.00
91.9233 208.00
91.9885 191.00
92.0537 218.00
92.1189 203.00
92.1841 209.00
92.2493 231.00
92.3145 211.00
92.3797 230.00
92.4449 178.00
92.5101 223.00
92.5753 201.00
92.6405 210.00
92.7057 186.00
92.7709 238.00
92.8361 212.00
92.9013 190.00
92.9665 211.00
93.0317 190.00
93.0969 216.00
93.1621 209.00
93.2273 245.00
93.2925 198.00
93.3577 212.00
93.4229 191.00
93.4881 209.00
93.5533 200.00
93.6185 221.00
93.6837 203.00
93.7489 224.00
93.8141 227.00
93.8793 175.00
93.9445 239.00
94.0097 195.00
94.0749 220.00
94.1401 240.00
94.2053 236.00
94.2705 191.00
94.3357 219.00
94.4009 211.00
94.4661 174.00
94.5313 207.00
94.5965 233.00
94.6617 203.00
94.7269 188.00
94.7921 206.00
94.8573 214.00
94.9225 238.00
94.9877 244.00
95.0529 222.00
95.1181 229.00
95.1833 206.00
95.2485 181.00
95.3137 177.00
95.3789 202.00
95.444 208.00
95.5092 203.00
95.5744 211.00
95.6396 214.00
95.7048 207.00
95.77 214.00
95.8352 207.00
95.9004 212.00
95.9656 223.00
96.0308 219.00
96.096 195.00
96.1612 201.00
96.2264 184.00
96.2916 202.00
96.3568 188.00
96.422 209.00
96.4872 195.00
96.5524 215.00
96.6176 248.00
96.6828 241.00
96.748 212.00
96.8132 223.00
96.8784 189.00
96.9436 212.00
97.0088 200.00
97.074 223.00
97.1392 184.00
97.2044 207.00
97.2696 241.00
97.3348 229.00
97.4 205.00
97.4652 228.00
97.5304 221.00
97.5956 226.00
97.6608 192.00
97.726 218.00
97.7912 229.00
97.8564 202.00
97.9216 199.00
97.9868 247.00
98.052 215.00
98.1172 209.00
98.1824 214.00
98.2476 211.00
98.3128 214.00
98.378 207.00
98.4432 200.00
98.5084 200.00
98.5736 203.00
98.6388 207.00
98.704 201.00
98.7692 170.00
98.8344 219.00
98.8996 201.00
98.9648 202.00
99.03 193.00
99.0952 243.00
99.1604 212.00
99.2256 198.00
99.2908 187.00
99.356 201.00
99.4212 172.00
99.4864 212.00
99.5516 212.00
99.6168 165.00
99.682 191.00
99.7472 213.00
99.8124 197.00
99.8776 208.00
99.9428 220.00
100.008 215.00
100.073 196.00
100.095 192.00