File: data/xrd_creation/results/MINES_20.xy
9.903433 2624.00
9.968632 2549.00
10.0338 2560.00
10.099 2483.00
10.1642 2513.00
10.2294 2454.00
10.2946 2451.00
10.3598 2378.00
10.425 2501.00
10.4902 2443.00
10.5554 2377.00
10.6206 2321.00
10.6858 2408.00
10.751 2310.00
10.8162 2281.00
10.8814 2335.00
10.9466 2280.00
11.0118 2172.00
11.077 2323.00
11.1422 2123.00
11.2074 2173.00
11.2726 2172.00
11.3378 2130.00
11.403 2076.00
11.4682 2071.00
11.5334 2081.00
11.5986 2142.00
11.6638 2027.00
11.729 2017.00
11.7942 2086.00
11.8594 2069.00
11.9246 1976.00
11.9898 1873.00
12.055 1981.00
12.1202 1926.00
12.1854 1945.00
12.2506 1927.00
12.3158 1795.00
12.381 1913.00
12.4462 1808.00
12.5114 1720.00
12.5766 1742.00
12.6418 1797.00
12.707 1732.00
12.7722 1732.00
12.8374 1634.00
12.9026 1713.00
12.9678 1670.00
13.033 1709.00
13.0982 1647.00
13.1634 1668.00
13.2286 1636.00
13.2938 1681.00
13.359 1650.00
13.4242 1593.00
13.4894 1575.00
13.5546 1633.00
13.6198 1577.00
13.685 1573.00
13.7502 1478.00
13.8154 1492.00
13.8805 1543.00
13.9457 1599.00
14.0109 1544.00
14.0761 1470.00
14.1413 1508.00
14.2065 1500.00
14.2717 1417.00
14.3369 1441.00
14.4021 1461.00
14.4673 1316.00
14.5325 1430.00
14.5977 1467.00
14.6629 1449.00
14.7281 1503.00
14.7933 1434.00
14.8585 1399.00
14.9237 1376.00
14.9889 1375.00
15.0541 1371.00
15.1193 1402.00
15.1845 1428.00
15.2497 1424.00
15.3149 1414.00
15.3801 1464.00
15.4453 1427.00
15.5105 1444.00
15.5757 1407.00
15.6409 1358.00
15.7061 1456.00
15.7713 1354.00
15.8365 1384.00
15.9017 1295.00
15.9669 1334.00
16.0321 1342.00
16.0973 1296.00
16.1625 1389.00
16.2277 1421.00
16.2929 1459.00
16.3581 1438.00
16.4233 1424.00
16.4885 1495.00
16.5537 1390.00
16.6189 1331.00
16.6841 1288.00
16.7493 1302.00
16.8145 1181.00
16.8797 1247.00
16.9449 1203.00
17.0101 1233.00
17.0753 1215.00
17.1405 1215.00
17.2057 1192.00
17.2709 1190.00
17.3361 1163.00
17.4013 1117.00
17.4665 1113.00
17.5317 1181.00
17.5969 1218.00
17.6621 1179.00
17.7273 1115.00
17.7925 1051.00
17.8577 1173.00
17.9229 1117.00
17.9881 1083.00
18.0533 1138.00
18.1185 1073.00
18.1837 1068.00
18.2489 1136.00
18.3141 1126.00
18.3793 1057.00
18.4445 1075.00
18.5097 1102.00
18.5749 1062.00
18.6401 1089.00
18.7052 1138.00
18.7704 1089.00
18.8356 1019.00
18.9008 1072.00
18.966 1076.00
19.0312 1074.00
19.0964 1071.00
19.1616 1053.00
19.2268 1130.00
19.292 1290.00
19.3572 1407.00
19.4224 1416.00
19.4876 1458.00
19.5528 1370.00
19.618 1388.00
19.6832 1307.00
19.7484 1276.00
19.8136 1144.00
19.8788 1095.00
19.944 1110.00
20.0092 1027.00
20.0744 1039.00
20.1396 991.00
20.2048 1008.00
20.27 1017.00
20.3352 1018.00
20.4004 1005.00
20.4656 1170.00
20.5308 1135.00
20.596 1225.00
20.6612 1467.00
20.7264 1577.00
20.7916 1608.00
20.8568 1553.00
20.922 1495.00
20.9872 1406.00
21.0524 1257.00
21.1176 1136.00
21.1828 917.00
21.248 944.00
21.3132 949.00
21.3784 867.00
21.4436 857.00
21.5088 887.00
21.574 898.00
21.6392 859.00
21.7044 961.00
21.7696 898.00
21.8348 941.00
21.9 933.00
21.9652 1000.00
22.0304 951.00
22.0956 955.00
22.1608 895.00
22.226 893.00
22.2912 915.00
22.3564 935.00
22.4216 882.00
22.4868 949.00
22.552 987.00
22.6172 1032.00
22.6824 1072.00
22.7476 1257.00
22.8128 1394.00
22.878 1378.00
22.9432 1483.00
23.0084 1489.00
23.0736 1330.00
23.1388 1265.00
23.204 1167.00
23.2692 1067.00
23.3344 966.00
23.3996 925.00
23.4647 903.00
23.5299 990.00
23.5951 1136.00
23.6603 1447.00
23.7255 1757.00
23.7907 1959.00
23.8559 2135.00
23.9211 1831.00
23.9863 1600.00
24.0515 1531.00
24.1167 1393.00
24.1819 1313.00
24.2471 1505.00
24.3123 1592.00
24.3775 1667.00
24.4427 1505.00
24.5079 1468.00
24.5731 1458.00
24.6383 1455.00
24.7035 1707.00
24.7687 2260.00
24.8339 2589.00
24.8991 2567.00
24.9643 2454.00
25.0295 2253.00
25.0947 2089.00
25.1599 2006.00
25.2251 2019.00
25.2903 2269.00
25.3555 2773.00
25.4207 3417.00
25.4859 3896.00
25.5511 4271.00
25.6163 4590.00
25.6815 4512.00
25.7467 4390.00
25.8119 3828.00
25.8771 3287.00
25.9423 2760.00
26.0075 2244.00
26.0727 1816.00
26.1379 1523.00
26.2031 1490.00
26.2683 1603.00
26.3335 1929.00
26.3987 2634.00
26.4639 3549.00
26.5291 4308.00
26.5943 4279.00
26.6595 4044.00
26.7247 3463.00
26.7899 2876.00
26.8551 2294.00
26.9203 1515.00
26.9855 1252.00
27.0507 963.00
27.1159 908.00
27.1811 808.00
27.2463 740.00
27.3115 760.00
27.3767 790.00
27.4419 772.00
27.5071 762.00
27.5723 735.00
27.6375 755.00
27.7027 736.00
27.7679 764.00
27.8331 841.00
27.8983 748.00
27.9635 700.00
28.0287 731.00
28.0939 810.00
28.1591 805.00
28.2243 849.00
28.2894 884.00
28.3546 940.00
28.4198 879.00
28.485 791.00
28.5502 810.00
28.6154 744.00
28.6806 734.00
28.7458 661.00
28.811 607.00
28.8762 618.00
28.9414 619.00
29.0066 611.00
29.0718 657.00
29.137 609.00
29.2022 640.00
29.2674 624.00
29.3326 604.00
29.3978 677.00
29.463 600.00
29.5282 638.00
29.5934 567.00
29.6586 575.00
29.7238 602.00
29.789 570.00
29.8542 585.00
29.9194 562.00
29.9846 619.00
30.0498 596.00
30.115 603.00
30.1802 619.00
30.2454 607.00
30.3106 614.00
30.3758 646.00
30.441 609.00
30.5062 684.00
30.5714 699.00
30.6366 774.00
30.7018 768.00
30.767 773.00
30.8322 780.00
30.8974 734.00
30.9626 717.00
31.0278 681.00
31.093 639.00
31.1582 632.00
31.2234 621.00
31.2886 556.00
31.3538 601.00
31.419 622.00
31.4842 561.00
31.5494 595.00
31.6146 642.00
31.6798 611.00
31.745 661.00
31.8102 606.00
31.8754 643.00
31.9406 637.00
32.0058 618.00
32.071 623.00
32.1362 662.00
32.2014 612.00
32.2666 608.00
32.3318 606.00
32.397 574.00
32.4622 609.00
32.5274 542.00
32.5926 549.00
32.6578 560.00
32.723 553.00
32.7882 534.00
32.8534 531.00
32.9186 526.00
32.9838 542.00
33.0489 547.00
33.1141 521.00
33.1793 498.00
33.2445 521.00
33.3097 482.00
33.3749 462.00
33.4401 518.00
33.5053 526.00
33.5705 511.00
33.6357 475.00
33.7009 492.00
33.7661 525.00
33.8313 511.00
33.8965 518.00
33.9617 512.00
34.0269 538.00
34.0921 574.00
34.1573 573.00
34.2225 573.00
34.2877 571.00
34.3529 561.00
34.4181 533.00
34.4833 498.00
34.5485 478.00
34.6137 501.00
34.6789 476.00
34.7441 490.00
34.8093 483.00
34.8745 486.00
34.9397 495.00
35.0049 462.00
35.0701 435.00
35.1353 451.00
35.2005 449.00
35.2657 460.00
35.3309 464.00
35.3961 481.00
35.4613 483.00
35.5265 496.00
35.5917 490.00
35.6569 513.00
35.7221 474.00
35.7873 477.00
35.8525 479.00
35.9177 505.00
35.9829 482.00
36.0481 518.00
36.1133 518.00
36.1785 555.00
36.2437 644.00
36.3089 665.00
36.3741 721.00
36.4393 749.00
36.5045 711.00
36.5697 673.00
36.6349 586.00
36.7001 577.00
36.7653 520.00
36.8305 528.00
36.8957 507.00
36.9609 512.00
37.0261 539.00
37.0913 531.00
37.1565 537.00
37.2217 597.00
37.2869 605.00
37.3521 622.00
37.4173 676.00
37.4825 810.00
37.5477 974.00
37.6129 1135.00
37.6781 1154.00
37.7433 1055.00
37.8085 1031.00
37.8736 1041.00
37.9388 885.00
38.004 886.00
38.0692 823.00
38.1344 857.00
38.1996 840.00
38.2648 825.00
38.33 847.00
38.3952 730.00
38.4604 641.00
38.5256 548.00
38.5908 494.00
38.656 484.00
38.7212 479.00
38.7864 481.00
38.8516 467.00
38.9168 463.00
38.982 497.00
39.0472 562.00
39.1124 567.00
39.1776 646.00
39.2428 706.00
39.308 804.00
39.3732 819.00
39.4384 877.00
39.5036 826.00
39.5688 794.00
39.634 699.00
39.6992 650.00
39.7644 621.00
39.8296 581.00
39.8948 570.00
39.96 542.00
40.0252 534.00
40.0904 533.00
40.1556 532.00
40.2208 475.00
40.286 507.00
40.3512 494.00
40.4164 458.00
40.4816 432.00
40.5468 400.00
40.612 407.00
40.6772 400.00
40.7424 379.00
40.8076 383.00
40.8728 396.00
40.938 383.00
41.0032 336.00
41.0684 342.00
41.1336 395.00
41.1988 379.00
41.264 393.00
41.3292 364.00
41.3944 360.00
41.4596 370.00
41.5248 378.00
41.59 341.00
41.6552 345.00
41.7204 373.00
41.7856 356.00
41.8508 386.00
41.916 401.00
41.9812 421.00
42.0464 429.00
42.1116 394.00
42.1768 461.00
42.242 467.00
42.3072 476.00
42.3724 459.00
42.4376 446.00
42.5028 443.00
42.568 396.00
42.6332 434.00
42.6983 376.00
42.7635 381.00
42.8287 422.00
42.8939 405.00
42.9591 434.00
43.0243 454.00
43.0895 429.00
43.1547 426.00
43.2199 462.00
43.2851 433.00
43.3503 453.00
43.4155 417.00
43.4807 403.00
43.5459 393.00
43.6111 395.00
43.6763 374.00
43.7415 351.00
43.8067 372.00
43.8719 364.00
43.9371 404.00
44.0023 466.00
44.0675 464.00
44.1327 413.00
44.1979 396.00
44.2631 391.00
44.3283 365.00
44.3935 407.00
44.4587 323.00
44.5239 356.00
44.5891 335.00
44.6543 320.00
44.7195 335.00
44.7847 330.00
44.8499 324.00
44.9151 397.00
44.9803 407.00
45.0455 447.00
45.1107 443.00
45.1759 434.00
45.2411 432.00
45.3063 443.00
45.3715 471.00
45.4367 519.00
45.5019 479.00
45.5671 535.00
45.6323 575.00
45.6975 606.00
45.7627 644.00
45.8279 682.00
45.8931 623.00
45.9583 642.00
46.0235 623.00
46.0887 675.00
46.1539 675.00
46.2191 701.00
46.2843 586.00
46.3495 576.00
46.4147 472.00
46.4799 439.00
46.5451 401.00
46.6103 360.00
46.6755 406.00
46.7407 341.00
46.8059 374.00
46.8711 366.00
46.9363 389.00
47.0015 345.00
47.0667 377.00
47.1319 371.00
47.1971 351.00
47.2623 386.00
47.3275 359.00
47.3927 386.00
47.4579 389.00
47.523 396.00
47.5882 412.00
47.6534 430.00
47.7186 450.00
47.7838 483.00
47.849 483.00
47.9142 495.00
47.9794 576.00
48.0446 574.00
48.1098 532.00
48.175 535.00
48.2402 512.00
48.3054 570.00
48.3706 588.00
48.4358 558.00
48.501 534.00
48.5662 533.00
48.6314 515.00
48.6966 517.00
48.7618 473.00
48.827 476.00
48.8922 466.00
48.9574 467.00
49.0226 397.00
49.0878 416.00
49.153 375.00
49.2182 387.00
49.2834 419.00
49.3486 360.00
49.4138 390.00
49.479 385.00
49.5442 413.00
49.6094 359.00
49.6746 363.00
49.7398 413.00
49.805 466.00
49.8702 527.00
49.9354 565.00
50.0006 600.00
50.0658 610.00
50.131 540.00
50.1962 556.00
50.2614 490.00
50.3266 442.00
50.3918 398.00
50.457 415.00
50.5222 447.00
50.5874 396.00
50.6526 387.00
50.7178 367.00
50.783 369.00
50.8482 357.00
50.9134 317.00
50.9786 338.00
51.0438 298.00
51.109 361.00
51.1742 353.00
51.2394 337.00
51.3046 313.00
51.3698 290.00
51.435 276.00
51.5002 277.00
51.5654 315.00
51.6306 273.00
51.6958 260.00
51.761 273.00
51.8262 280.00
51.8914 292.00
51.9566 281.00
52.0218 245.00
52.087 292.00
52.1522 292.00
52.2174 314.00
52.2826 294.00
52.3477 246.00
52.4129 297.00
52.4781 310.00
52.5433 334.00
52.6085 321.00
52.6737 334.00
52.7389 320.00
52.8041 315.00
52.8693 312.00
52.9345 290.00
52.9997 273.00
53.0649 325.00
53.1301 259.00
53.1953 227.00
53.2605 300.00
53.3257 308.00
53.3909 279.00
53.4561 270.00
53.5213 304.00
53.5865 269.00
53.6517 298.00
53.7169 300.00
53.7821 297.00
53.8473 262.00
53.9125 263.00
53.9777 281.00
54.0429 279.00
54.1081 302.00
54.1733 297.00
54.2385 318.00
54.3037 274.00
54.3689 326.00
54.4341 342.00
54.4993 361.00
54.5645 332.00
54.6297 314.00
54.6949 323.00
54.7601 365.00
54.8253 339.00
54.8905 343.00
54.9557 333.00
55.0209 323.00
55.0861 338.00
55.1513 295.00
55.2165 299.00
55.2817 338.00
55.3469 300.00
55.4121 340.00
55.4773 316.00
55.5425 295.00
55.6077 342.00
55.6729 351.00
55.7381 362.00
55.8033 394.00
55.8685 366.00
55.9337 347.00
55.9989 413.00
56.0641 416.00
56.1293 404.00
56.1945 435.00
56.2597 378.00
56.3249 437.00
56.3901 365.00
56.4553 373.00
56.5205 344.00
56.5857 337.00
56.6509 323.00
56.7161 299.00
56.7813 302.00
56.8465 299.00
56.9117 287.00
56.9769 259.00
57.042 280.00
57.1073 304.00
57.1724 265.00
57.2376 281.00
57.3028 260.00
57.368 276.00
57.4332 264.00
57.4984 286.00
57.5636 277.00
57.6288 243.00
57.694 256.00
57.7592 256.00
57.8244 239.00
57.8896 260.00
57.9548 257.00
58.02 263.00
58.0852 268.00
58.1504 249.00
58.2156 258.00
58.2808 271.00
58.346 268.00
58.4112 286.00
58.4764 268.00
58.5416 287.00
58.6068 239.00
58.672 263.00
58.7372 284.00
58.8024 261.00
58.8676 237.00
58.9328 232.00
58.998 247.00
59.0632 249.00
59.1284 266.00
59.1936 258.00
59.2588 258.00
59.324 298.00
59.3892 297.00
59.4544 335.00
59.5196 358.00
59.5848 384.00
59.65 394.00
59.7152 424.00
59.7804 388.00
59.8456 417.00
59.9108 436.00
59.976 363.00
60.0412 345.00
60.1064 316.00
60.1716 361.00
60.2368 335.00
60.302 311.00
60.3672 335.00
60.4324 345.00
60.4976 380.00
60.5628 421.00
60.628 381.00
60.6932 405.00
60.7584 389.00
60.8236 403.00
60.8888 373.00
60.954 333.00
61.0192 369.00
61.0844 347.00
61.1496 383.00
61.2148 330.00
61.28 351.00
61.3452 342.00
61.4104 281.00
61.4756 250.00
61.5408 281.00
61.606 231.00
61.6712 273.00
61.7364 238.00
61.8016 272.00
61.8667 263.00
61.932 249.00
61.9971 246.00
62.0623 230.00
62.1275 210.00
62.1927 223.00
62.2579 256.00
62.3231 241.00
62.3883 261.00
62.4535 269.00
62.5187 283.00
62.5839 283.00
62.6491 249.00
62.7143 241.00
62.7795 248.00
62.8447 271.00
62.9099 266.00
62.9751 306.00
63.0403 304.00
63.1055 313.00
63.1707 299.00
63.2359 320.00
63.3011 338.00
63.3663 307.00
63.4315 295.00
63.4967 348.00
63.5619 354.00
63.6271 370.00
63.6923 358.00
63.7575 325.00
63.8227 349.00
63.8879 362.00
63.9531 370.00
64.0183 379.00
64.0835 345.00
64.1487 393.00
64.2139 319.00
64.2791 317.00
64.3443 334.00
64.4095 323.00
64.4747 322.00
64.5399 329.00
64.6051 326.00
64.6703 322.00
64.7355 330.00
64.8007 334.00
64.8659 351.00
64.9311 293.00
64.9963 321.00
65.0615 300.00
65.1267 270.00
65.1919 269.00
65.2571 286.00
65.3223 323.00
65.3875 296.00
65.4527 331.00
65.5179 377.00
65.5831 386.00
65.6483 384.00
65.7135 392.00
65.7787 388.00
65.8439 382.00
65.9091 348.00
65.9743 332.00
66.0395 295.00
66.1047 291.00
66.1699 298.00
66.2351 282.00
66.3003 280.00
66.3655 271.00
66.4307 351.00
66.4959 340.00
66.561 357.00
66.6263 401.00
66.6915 426.00
66.7566 452.00
66.8218 517.00
66.887 527.00
66.9522 560.00
67.0174 549.00
67.0826 534.00
67.1478 493.00
67.213 492.00
67.2782 456.00
67.3434 428.00
67.4086 423.00
67.4738 386.00
67.539 438.00
67.6042 407.00
67.6694 417.00
67.7346 404.00
67.7998 441.00
67.865 439.00
67.9302 468.00
67.9954 461.00
68.0606 434.00
68.1258 488.00
68.191 503.00
68.2562 443.00
68.3214 422.00
68.3866 411.00
68.4518 436.00
68.517 353.00
68.5822 353.00
68.6474 345.00
68.7126 278.00
68.7778 326.00
68.843 275.00
68.9082 304.00
68.9734 297.00
69.0386 296.00
69.1038 302.00
69.169 267.00
69.2342 266.00
69.2994 271.00
69.3646 268.00
69.4298 265.00
69.495 264.00
69.5602 262.00
69.6254 274.00
69.6906 246.00
69.7558 244.00
69.821 194.00
69.8862 246.00
69.9514 231.00
70.0166 191.00
70.0818 230.00
70.147 239.00
70.2122 216.00
70.2774 224.00
70.3426 211.00
70.4078 263.00
70.473 212.00
70.5382 209.00
70.6034 245.00
70.6686 239.00
70.7338 216.00
70.799 202.00
70.8642 244.00
70.9294 235.00
70.9946 234.00
71.0598 259.00
71.125 257.00
71.1902 261.00
71.2554 256.00
71.3205 233.00
71.3858 290.00
71.451 289.00
71.5162 272.00
71.5813 246.00
71.6465 267.00
71.7117 288.00
71.7769 281.00
71.8421 269.00
71.9073 261.00
71.9725 263.00
72.0377 244.00
72.1029 282.00
72.1681 279.00
72.2333 244.00
72.2985 302.00
72.3637 289.00
72.4289 270.00
72.4941 257.00
72.5593 272.00
72.6245 231.00
72.6897 270.00
72.7549 248.00
72.8201 261.00
72.8853 262.00
72.9505 273.00
73.0157 243.00
73.0809 232.00
73.1461 256.00
73.2113 221.00
73.2765 242.00
73.3417 274.00
73.4069 239.00
73.4721 239.00
73.5373 274.00
73.6025 259.00
73.6677 245.00
73.7329 275.00
73.7981 233.00
73.8633 210.00
73.9285 277.00
73.9937 224.00
74.0589 220.00
74.1241 258.00
74.1893 237.00
74.2545 219.00
74.3197 225.00
74.3849 213.00
74.4501 171.00
74.5153 233.00
74.5805 220.00
74.6457 203.00
74.7109 204.00
74.7761 210.00
74.8413 238.00
74.9065 214.00
74.9717 237.00
75.0369 281.00
75.1021 268.00
75.1673 290.00
75.2325 267.00
75.2977 270.00
75.3629 257.00
75.4281 277.00
75.4933 275.00
75.5585 273.00
75.6237 258.00
75.6889 289.00
75.7541 249.00
75.8193 248.00
75.8845 270.00
75.9497 261.00
76.0149 278.00
76.0801 291.00
76.1452 300.00
76.2104 352.00
76.2756 279.00
76.3409 289.00
76.406 303.00
76.4712 295.00
76.5364 280.00
76.6016 283.00
76.6668 293.00
76.732 273.00
76.7972 268.00
76.8624 292.00
76.9276 279.00
76.9928 268.00
77.058 298.00
77.1232 307.00
77.1884 264.00
77.2536 290.00
77.3188 290.00
77.384 269.00
77.4492 278.00
77.5144 325.00
77.5796 300.00
77.6448 305.00
77.71 296.00
77.7752 313.00
77.8404 261.00
77.9056 307.00
77.9708 287.00
78.036 313.00
78.1012 353.00
78.1664 333.00
78.2316 320.00
78.2968 319.00
78.362 287.00
78.4272 298.00
78.4924 293.00
78.5576 274.00
78.6228 234.00
78.688 269.00
78.7532 258.00
78.8184 270.00
78.8836 290.00
78.9488 316.00
79.014 287.00
79.0792 306.00
79.1444 309.00
79.2096 337.00
79.2748 302.00
79.34 318.00
79.4052 311.00
79.4704 314.00
79.5356 328.00
79.6008 339.00
79.666 312.00
79.7312 331.00
79.7964 322.00
79.8616 278.00
79.9268 284.00
79.992 272.00
80.0572 276.00
80.1224 273.00
80.1876 256.00
80.2528 288.00
80.318 259.00
80.3832 242.00
80.4484 243.00
80.5136 259.00
80.5788 238.00
80.644 299.00
80.7092 231.00
80.7744 263.00
80.8396 287.00
80.9048 295.00
80.9699 354.00
81.0351 289.00
81.1003 349.00
81.1655 367.00
81.2307 315.00
81.2959 311.00
81.3611 311.00
81.4263 275.00
81.4915 263.00
81.5567 283.00
81.6219 236.00
81.6871 271.00
81.7523 270.00
81.8175 278.00
81.8827 283.00
81.9479 231.00
82.0131 227.00
82.0783 238.00
82.1435 238.00
82.2087 227.00
82.2739 242.00
82.3391 281.00
82.4043 248.00
82.4695 234.00
82.5347 223.00
82.5999 237.00
82.6651 210.00
82.7303 274.00
82.7955 256.00
82.8607 224.00
82.9259 214.00
82.9911 264.00
83.0563 242.00
83.1215 230.00
83.1867 265.00
83.2519 238.00
83.3171 240.00
83.3823 250.00
83.4475 250.00
83.5127 238.00
83.5779 259.00
83.6431 247.00
83.7083 208.00
83.7735 220.00
83.8387 261.00
83.9039 227.00
83.9691 233.00
84.0343 221.00
84.0995 225.00
84.1647 233.00
84.2299 225.00
84.2951 261.00
84.3603 219.00
84.4255 246.00
84.4907 243.00
84.5559 227.00
84.6211 239.00
84.6863 260.00
84.7515 264.00
84.8167 246.00
84.8819 249.00
84.9471 264.00
85.0123 245.00
85.0775 242.00
85.1427 268.00
85.2079 232.00
85.2731 244.00
85.3383 284.00
85.4035 250.00
85.4687 231.00
85.5339 268.00
85.5991 250.00
85.6643 259.00
85.7295 241.00
85.7946 210.00
85.8598 244.00
85.925 247.00
85.9903 211.00
86.0554 218.00
86.1206 239.00
86.1858 234.00
86.251 261.00
86.3162 225.00
86.3814 248.00
86.4466 210.00
86.5118 182.00
86.577 240.00
86.6422 190.00
86.7074 238.00
86.7726 203.00
86.8378 218.00
86.903 194.00
86.9682 197.00
87.0334 225.00
87.0986 230.00
87.1638 234.00
87.229 233.00
87.2942 207.00
87.3594 249.00
87.4246 235.00
87.4898 245.00
87.555 219.00
87.6202 222.00
87.6854 211.00
87.7506 239.00
87.8158 221.00
87.881 245.00
87.9462 227.00
88.0114 220.00
88.0766 223.00
88.1418 245.00
88.207 240.00
88.2722 234.00
88.3374 240.00
88.4026 214.00
88.4678 247.00
88.533 221.00
88.5982 238.00
88.6634 206.00
88.7286 214.00
88.7938 215.00
88.859 220.00
88.9242 264.00
88.9894 222.00
89.0546 204.00
89.1198 208.00
89.185 198.00
89.2502 201.00
89.3154 212.00
89.3806 227.00
89.4458 205.00
89.511 213.00
89.5762 226.00
89.6414 209.00
89.7066 205.00
89.7718 213.00
89.837 222.00
89.9022 244.00
89.9674 209.00
90.0326 224.00
90.0978 192.00
90.163 226.00
90.2282 211.00
90.2934 214.00
90.3586 223.00
90.4238 238.00
90.489 246.00
90.5542 208.00
90.6193 216.00
90.6845 200.00
90.7497 222.00
90.8149 200.00
90.8801 199.00
90.9453 208.00
91.0105 209.00
91.0757 200.00
91.1409 194.00
91.2061 192.00
91.2713 182.00
91.3365 209.00
91.4017 224.00
91.4669 175.00
91.5321 177.00
91.5973 209.00
91.6625 214.00
91.7277 228.00
91.7929 231.00
91.8581 196.00
91.9233 220.00
91.9885 192.00
92.0537 204.00
92.1189 204.00
92.1841 206.00
92.2493 207.00
92.3145 216.00
92.3797 216.00
92.4449 230.00
92.5101 224.00
92.5753 197.00
92.6405 248.00
92.7057 233.00
92.7709 216.00
92.8361 225.00
92.9013 217.00
92.9665 202.00
93.0317 224.00
93.0969 218.00
93.1621 220.00
93.2273 223.00
93.2925 227.00
93.3577 185.00
93.4229 222.00
93.4881 224.00
93.5533 205.00
93.6185 212.00
93.6837 204.00
93.7489 215.00
93.8141 201.00
93.8793 233.00
93.9445 218.00
94.0097 213.00
94.0749 217.00
94.1401 204.00
94.2053 222.00
94.2705 226.00
94.3357 199.00
94.4009 218.00
94.4661 230.00
94.5313 236.00
94.5965 242.00
94.6617 223.00
94.7269 239.00
94.7921 243.00
94.8573 220.00
94.9225 228.00
94.9877 213.00
95.0529 227.00
95.1181 218.00
95.1833 194.00
95.2485 216.00
95.3137 196.00
95.3789 204.00
95.444 200.00
95.5092 183.00
95.5744 228.00
95.6396 206.00
95.7048 198.00
95.77 205.00
95.8352 230.00
95.9004 230.00
95.9656 231.00
96.0308 227.00
96.096 230.00
96.1612 242.00
96.2264 220.00
96.2916 239.00
96.3568 245.00
96.422 221.00
96.4872 219.00
96.5524 233.00
96.6176 185.00
96.6828 195.00
96.748 231.00
96.8132 227.00
96.8784 237.00
96.9436 222.00
97.0088 218.00
97.074 247.00
97.1392 243.00
97.2044 240.00
97.2696 223.00
97.3348 221.00
97.4 232.00
97.4652 237.00
97.5304 232.00
97.5956 224.00
97.6608 164.00
97.726 224.00
97.7912 242.00
97.8564 219.00
97.9216 208.00
97.9868 230.00
98.052 223.00
98.1172 218.00
98.1824 224.00
98.2476 230.00
98.3128 208.00
98.378 233.00
98.4432 215.00
98.5084 217.00
98.5736 208.00
98.6388 211.00
98.704 208.00
98.7692 233.00
98.8344 180.00
98.8996 212.00
98.9648 197.00
99.03 197.00
99.0952 179.00
99.1604 175.00
99.2256 195.00
99.2908 211.00
99.356 178.00
99.4212 177.00
99.4864 185.00
99.5516 223.00
99.6168 211.00
99.682 186.00
99.7472 219.00
99.8124 212.00
99.8776 214.00
99.9428 208.00
100.008 234.00
100.073 206.00
100.095 203.00