File: data/xrd_creation/results/MINES_4.xy
9.903433 2733.00
9.968632 2772.00
10.0338 2717.00
10.099 2698.00
10.1642 2609.00
10.2294 2620.00
10.2946 2549.00
10.3598 2450.00
10.425 2662.00
10.4902 2578.00
10.5554 2510.00
10.6206 2463.00
10.6858 2458.00
10.751 2370.00
10.8162 2462.00
10.8814 2388.00
10.9466 2397.00
11.0118 2311.00
11.077 2262.00
11.1422 2297.00
11.2074 2290.00
11.2726 2270.00
11.3378 2189.00
11.403 2200.00
11.4682 2259.00
11.5334 2211.00
11.5986 2149.00
11.6638 2131.00
11.729 2083.00
11.7942 2099.00
11.8594 2140.00
11.9246 2095.00
11.9898 2124.00
12.055 2015.00
12.1202 2072.00
12.1854 2066.00
12.2506 2041.00
12.3158 1995.00
12.381 2179.00
12.4462 2107.00
12.5114 1943.00
12.5766 1907.00
12.6418 1866.00
12.707 1865.00
12.7722 1877.00
12.8374 1845.00
12.9026 1870.00
12.9678 1793.00
13.033 1800.00
13.0982 1768.00
13.1634 1793.00
13.2286 1771.00
13.2938 1787.00
13.359 1860.00
13.4242 1763.00
13.4894 1678.00
13.5546 1799.00
13.6198 1741.00
13.685 1765.00
13.7502 1731.00
13.8154 1758.00
13.8805 1719.00
13.9457 1804.00
14.0109 1844.00
14.0761 1883.00
14.1413 1975.00
14.2065 1775.00
14.2717 1636.00
14.3369 1642.00
14.4021 1636.00
14.4673 1590.00
14.5325 1606.00
14.5977 1527.00
14.6629 1532.00
14.7281 1516.00
14.7933 1519.00
14.8585 1494.00
14.9237 1467.00
14.9889 1512.00
15.0541 1525.00
15.1193 1473.00
15.1845 1497.00
15.2497 1532.00
15.3149 1477.00
15.3801 1494.00
15.4453 1472.00
15.5105 1522.00
15.5757 1439.00
15.6409 1495.00
15.7061 1412.00
15.7713 1531.00
15.8365 1434.00
15.9017 1341.00
15.9669 1454.00
16.0321 1361.00
16.0973 1428.00
16.1625 1419.00
16.2277 1421.00
16.2929 1521.00
16.3581 1481.00
16.4233 1471.00
16.4885 1537.00
16.5537 1642.00
16.6189 1829.00
16.6841 2011.00
16.7493 1714.00
16.8145 1491.00
16.8797 1405.00
16.9449 1445.00
17.0101 1386.00
17.0753 1493.00
17.1405 1543.00
17.2057 1625.00
17.2709 1704.00
17.3361 1607.00
17.4013 1472.00
17.4665 1334.00
17.5317 1332.00
17.5969 1299.00
17.6621 1314.00
17.7273 1268.00
17.7925 1268.00
17.8577 1244.00
17.9229 1272.00
17.9881 1214.00
18.0533 1239.00
18.1185 1283.00
18.1837 1270.00
18.2489 1256.00
18.3141 1248.00
18.3793 1245.00
18.4445 1263.00
18.5097 1199.00
18.5749 1277.00
18.6401 1221.00
18.7052 1195.00
18.7704 1170.00
18.8356 1144.00
18.9008 1213.00
18.966 1163.00
19.0312 1201.00
19.0964 1179.00
19.1616 1164.00
19.2268 1199.00
19.292 1188.00
19.3572 1210.00
19.4224 1186.00
19.4876 1166.00
19.5528 1132.00
19.618 1222.00
19.6832 1210.00
19.7484 1263.00
19.8136 1226.00
19.8788 1374.00
19.944 1356.00
20.0092 1558.00
20.0744 1672.00
20.1396 1728.00
20.2048 1544.00
20.27 1400.00
20.3352 1339.00
20.4004 1329.00
20.4656 1557.00
20.5308 1776.00
20.596 1944.00
20.6612 1653.00
20.7264 1372.00
20.7916 1318.00
20.8568 1299.00
20.922 1507.00
20.9872 1672.00
21.0524 2141.00
21.1176 2599.00
21.1828 2433.00
21.248 1680.00
21.3132 1243.00
21.3784 1186.00
21.4436 1163.00
21.5088 1247.00
21.574 1161.00
21.6392 1168.00
21.7044 1287.00
21.7696 1245.00
21.8348 1380.00
21.9 1398.00
21.9652 1722.00
22.0304 1744.00
22.0956 1980.00
22.1608 2106.00
22.226 2088.00
22.2912 2172.00
22.3564 2137.00
22.4216 2156.00
22.4868 1928.00
22.552 1589.00
22.6172 1480.00
22.6824 1328.00
22.7476 1290.00
22.8128 1415.00
22.878 1425.00
22.9432 1467.00
23.0084 1307.00
23.0736 1080.00
23.1388 1144.00
23.204 1031.00
23.2692 1017.00
23.3344 1059.00
23.3996 1010.00
23.4647 1057.00
23.5299 1031.00
23.5951 1001.00
23.6603 1103.00
23.7255 1115.00
23.7907 1247.00
23.8559 1498.00
23.9211 2106.00
23.9863 3350.00
24.0515 4870.00
24.1167 5276.00
24.1819 2806.00
24.2471 1545.00
24.3123 1394.00
24.3775 1352.00
24.4427 1520.00
24.5079 2047.00
24.5731 2968.00
24.6383 3709.00
24.7035 2759.00
24.7687 1649.00
24.8339 1501.00
24.8991 1768.00
24.9643 2386.00
25.0295 3862.00
25.0947 6151.00
25.1599 7327.00
25.2251 4239.00
25.2903 1878.00
25.3555 1575.00
25.4207 1771.00
25.4859 2016.00
25.5511 1927.00
25.6163 1565.00
25.6815 1130.00
25.7467 986.00
25.8119 1049.00
25.8771 964.00
25.9423 999.00
26.0075 947.00
26.0727 970.00
26.1379 957.00
26.2031 972.00
26.2683 917.00
26.3335 986.00
26.3987 1077.00
26.4639 1083.00
26.5291 1107.00
26.5943 1291.00
26.6595 1755.00
26.7247 2697.00
26.7899 4358.00
26.8551 7423.00
26.9203 9702.00
26.9855 7520.00
27.0507 3631.00
27.1159 1766.00
27.1811 1310.00
27.2463 1167.00
27.3115 1059.00
27.3767 989.00
27.4419 938.00
27.5071 904.00
27.5723 935.00
27.6375 907.00
27.7027 882.00
27.7679 868.00
27.8331 939.00
27.8983 939.00
27.9635 975.00
28.0287 919.00
28.0939 961.00
28.1591 936.00
28.2243 972.00
28.2894 963.00
28.3546 863.00
28.4198 931.00
28.485 842.00
28.5502 910.00
28.6154 955.00
28.6806 1033.00
28.7458 1059.00
28.811 1095.00
28.8762 1107.00
28.9414 1223.00
29.0066 1210.00
29.0718 1126.00
29.137 1077.00
29.2022 975.00
29.2674 972.00
29.3326 1054.00
29.3978 1042.00
29.463 1033.00
29.5282 1050.00
29.5934 1057.00
29.6586 1085.00
29.7238 1037.00
29.789 946.00
29.8542 922.00
29.9194 960.00
29.9846 968.00
30.0498 1078.00
30.115 1165.00
30.1802 1565.00
30.2454 1622.00
30.3106 1316.00
30.3758 979.00
30.441 927.00
30.5062 890.00
30.5714 981.00
30.6366 1016.00
30.7018 1097.00
30.767 1128.00
30.8322 1265.00
30.8974 1652.00
30.9626 2017.00
31.0278 2124.00
31.093 2178.00
31.1582 1920.00
31.2234 1545.00
31.2886 1354.00
31.3538 1500.00
31.419 1706.00
31.4842 2238.00
31.5494 3251.00
31.6146 4569.00
31.6798 6185.00
31.745 7084.00
31.8102 6542.00
31.8754 4977.00
31.9406 3334.00
32.0058 2399.00
32.071 1784.00
32.1362 1286.00
32.2014 1115.00
32.2666 925.00
32.3318 840.00
32.397 876.00
32.4622 749.00
32.5274 681.00
32.5926 776.00
32.6578 699.00
32.723 669.00
32.7882 692.00
32.8534 656.00
32.9186 665.00
32.9838 656.00
33.0489 612.00
33.1141 657.00
33.1793 622.00
33.2445 606.00
33.3097 591.00
33.3749 618.00
33.4401 640.00
33.5053 616.00
33.5705 579.00
33.6357 576.00
33.7009 576.00
33.7661 609.00
33.8313 580.00
33.8965 605.00
33.9617 626.00
34.0269 580.00
34.0921 600.00
34.1573 607.00
34.2225 636.00
34.2877 633.00
34.3529 679.00
34.4181 649.00
34.4833 634.00
34.5485 666.00
34.6137 602.00
34.6789 673.00
34.7441 662.00
34.8093 756.00
34.8745 697.00
34.9397 734.00
35.0049 803.00
35.0701 740.00
35.1353 777.00
35.2005 833.00
35.2657 985.00
35.3309 1189.00
35.3961 1717.00
35.4613 2121.00
35.5265 1832.00
35.5917 1316.00
35.6569 921.00
35.7221 837.00
35.7873 719.00
35.8525 728.00
35.9177 680.00
35.9829 712.00
36.0481 733.00
36.1133 801.00
36.1785 780.00
36.2437 808.00
36.3089 778.00
36.3741 804.00
36.4393 873.00
36.5045 905.00
36.5697 1114.00
36.6349 1522.00
36.7001 1858.00
36.7653 2050.00
36.8305 1820.00
36.8957 1379.00
36.9609 1082.00
37.0261 770.00
37.0913 682.00
37.1565 632.00
37.2217 596.00
37.2869 564.00
37.3521 580.00
37.4173 646.00
37.4825 560.00
37.5477 544.00
37.6129 653.00
37.6781 706.00
37.7433 976.00
37.8085 1548.00
37.8736 2292.00
37.9388 2190.00
38.004 1572.00
38.0692 936.00
38.1344 698.00
38.1996 656.00
38.2648 729.00
38.33 869.00
38.3952 1158.00
38.4604 1408.00
38.5256 1413.00
38.5908 1075.00
38.656 855.00
38.7212 645.00
38.7864 594.00
38.8516 627.00
38.9168 661.00
38.982 663.00
39.0472 729.00
39.1124 714.00
39.1776 762.00
39.2428 665.00
39.308 674.00
39.3732 847.00
39.4384 997.00
39.5036 1269.00
39.5688 1472.00
39.634 1459.00
39.6992 1573.00
39.7644 1559.00
39.8296 1363.00
39.8948 938.00
39.96 697.00
40.0252 557.00
40.0904 550.00
40.1556 473.00
40.2208 420.00
40.286 514.00
40.3512 562.00
40.4164 579.00
40.4816 660.00
40.5468 681.00
40.612 634.00
40.6772 669.00
40.7424 512.00
40.8076 512.00
40.8728 455.00
40.938 479.00
41.0032 486.00
41.0684 506.00
41.1336 510.00
41.1988 545.00
41.264 531.00
41.3292 600.00
41.3944 618.00
41.4596 728.00
41.5248 791.00
41.59 775.00
41.6552 753.00
41.7204 630.00
41.7856 577.00
41.8508 542.00
41.916 570.00
41.9812 546.00
42.0464 556.00
42.1116 524.00
42.1768 512.00
42.242 488.00
42.3072 503.00
42.3724 501.00
42.4376 533.00
42.5028 582.00
42.568 697.00
42.6332 854.00
42.6983 884.00
42.7635 861.00
42.8287 751.00
42.8939 599.00
42.9591 596.00
43.0243 624.00
43.0895 673.00
43.1547 768.00
43.2199 968.00
43.2851 1127.00
43.3503 1232.00
43.4155 1186.00
43.4807 982.00
43.5459 801.00
43.6111 658.00
43.6763 597.00
43.7415 503.00
43.8067 507.00
43.8719 525.00
43.9371 488.00
44.0023 491.00
44.0675 512.00
44.1327 596.00
44.1979 705.00
44.2631 940.00
44.3283 902.00
44.3935 721.00
44.4587 605.00
44.5239 542.00
44.5891 524.00
44.6543 527.00
44.7195 464.00
44.7847 459.00
44.8499 449.00
44.9151 480.00
44.9803 492.00
45.0455 421.00
45.1107 485.00
45.1759 655.00
45.2411 792.00
45.3063 823.00
45.3715 692.00
45.4367 606.00
45.5019 659.00
45.5671 601.00
45.6323 641.00
45.6975 527.00
45.7627 521.00
45.8279 526.00
45.8931 533.00
45.9583 659.00
46.0235 791.00
46.0887 693.00
46.1539 689.00
46.2191 675.00
46.2843 811.00
46.3495 1099.00
46.4147 1320.00
46.4799 1092.00
46.5451 884.00
46.6103 614.00
46.6755 478.00
46.7407 457.00
46.8059 472.00
46.8711 462.00
46.9363 481.00
47.0015 467.00
47.0667 556.00
47.1319 620.00
47.1971 805.00
47.2623 922.00
47.3275 1020.00
47.3927 867.00
47.4579 835.00
47.523 647.00
47.5882 504.00
47.6534 435.00
47.7186 443.00
47.7838 408.00
47.849 371.00
47.9142 386.00
47.9794 368.00
48.0446 363.00
48.1098 377.00
48.175 359.00
48.2402 393.00
48.3054 339.00
48.3706 387.00
48.4358 393.00
48.501 367.00
48.5662 427.00
48.6314 421.00
48.6966 462.00
48.7618 547.00
48.827 594.00
48.8922 604.00
48.9574 580.00
49.0226 487.00
49.0878 420.00
49.153 446.00
49.2182 401.00
49.2834 387.00
49.3486 389.00
49.4138 442.00
49.479 542.00
49.5442 660.00
49.6094 662.00
49.6746 545.00
49.7398 509.00
49.805 412.00
49.8702 448.00
49.9354 422.00
50.0006 450.00
50.0658 525.00
50.131 611.00
50.1962 772.00
50.2614 961.00
50.3266 1236.00
50.3918 1487.00
50.457 1265.00
50.5222 1070.00
50.5874 904.00
50.6526 758.00
50.7178 864.00
50.783 932.00
50.8482 1027.00
50.9134 935.00
50.9786 884.00
51.0438 731.00
51.109 697.00
51.1742 652.00
51.2394 592.00
51.3046 578.00
51.3698 582.00
51.435 577.00
51.5002 480.00
51.5654 475.00
51.6306 502.00
51.6958 442.00
51.761 511.00
51.8262 582.00
51.8914 693.00
51.9566 760.00
52.0218 860.00
52.087 890.00
52.1522 792.00
52.2174 757.00
52.2826 742.00
52.3477 719.00
52.4129 845.00
52.4781 927.00
52.5433 1111.00
52.6085 1520.00
52.6737 2133.00
52.7389 2769.00
52.8041 3203.00
52.8693 3250.00
52.9345 2731.00
52.9997 2112.00
53.0649 1507.00
53.1301 1074.00
53.1953 817.00
53.2605 662.00
53.3257 544.00
53.3909 450.00
53.4561 487.00
53.5213 421.00
53.5865 418.00
53.6517 390.00
53.7169 409.00
53.7821 433.00
53.8473 403.00
53.9125 443.00
53.9777 428.00
54.0429 402.00
54.1081 436.00
54.1733 468.00
54.2385 534.00
54.3037 649.00
54.3689 548.00
54.4341 550.00
54.4993 557.00
54.5645 504.00
54.6297 512.00
54.6949 500.00
54.7601 452.00
54.8253 500.00
54.8905 489.00
54.9557 544.00
55.0209 619.00
55.0861 691.00
55.1513 769.00
55.2165 751.00
55.2817 645.00
55.3469 599.00
55.4121 578.00
55.4773 557.00
55.5425 639.00
55.6077 705.00
55.6729 641.00
55.7381 640.00
55.8033 597.00
55.8685 592.00
55.9337 539.00
55.9989 544.00
56.0641 480.00
56.1293 408.00
56.1945 437.00
56.2597 446.00
56.3249 445.00
56.3901 411.00
56.4553 421.00
56.5205 415.00
56.5857 403.00
56.6509 439.00
56.7161 467.00
56.7813 526.00
56.8465 596.00
56.9117 550.00
56.9769 471.00
57.042 484.00
57.1073 432.00
57.1724 406.00
57.2376 390.00
57.3028 374.00
57.368 385.00
57.4332 373.00
57.4984 404.00
57.5636 412.00
57.6288 479.00
57.694 516.00
57.7592 554.00
57.8244 605.00
57.8896 619.00
57.9548 678.00
58.02 598.00
58.0852 592.00
58.1504 511.00
58.2156 453.00
58.2808 450.00
58.346 389.00
58.4112 379.00
58.4764 445.00
58.5416 436.00
58.6068 414.00
58.672 349.00
58.7372 351.00
58.8024 352.00
58.8676 321.00
58.9328 310.00
58.998 281.00
59.0632 296.00
59.1284 280.00
59.1936 366.00
59.2588 301.00
59.324 340.00
59.3892 349.00
59.4544 366.00
59.5196 379.00
59.5848 380.00
59.65 396.00
59.7152 410.00
59.7804 437.00
59.8456 454.00
59.9108 517.00
59.976 602.00
60.0412 713.00
60.1064 838.00
60.1716 896.00
60.2368 832.00
60.302 688.00
60.3672 678.00
60.4324 598.00
60.4976 604.00
60.5628 605.00
60.628 585.00
60.6932 698.00
60.7584 796.00
60.8236 793.00
60.8888 706.00
60.954 663.00
61.0192 707.00
61.0844 717.00
61.1496 794.00
61.2148 891.00
61.28 823.00
61.3452 712.00
61.4104 671.00
61.4756 556.00
61.5408 492.00
61.606 526.00
61.6712 479.00
61.7364 525.00
61.8016 542.00
61.8667 625.00
61.932 598.00
61.9971 636.00
62.0623 542.00
62.1275 600.00
62.1927 540.00
62.2579 569.00
62.3231 679.00
62.3883 728.00
62.4535 781.00
62.5187 921.00
62.5839 1109.00
62.6491 1259.00
62.7143 1439.00
62.7795 1494.00
62.8447 1517.00
62.9099 1320.00
62.9751 1135.00
63.0403 869.00
63.1055 722.00
63.1707 660.00
63.2359 661.00
63.3011 688.00
63.3663 594.00
63.4315 557.00
63.4967 539.00
63.5619 464.00
63.6271 422.00
63.6923 425.00
63.7575 532.00
63.8227 582.00
63.8879 564.00
63.9531 579.00
64.0183 567.00
64.0835 548.00
64.1487 583.00
64.2139 676.00
64.2791 671.00
64.3443 782.00
64.4095 711.00
64.4747 656.00
64.5399 567.00
64.6051 497.00
64.6703 431.00
64.7355 473.00
64.8007 469.00
64.8659 522.00
64.9311 610.00
64.9963 563.00
65.0615 469.00
65.1267 465.00
65.1919 411.00
65.2571 350.00
65.3223 342.00
65.3875 333.00
65.4527 343.00
65.5179 365.00
65.5831 421.00
65.6483 439.00
65.7135 612.00
65.7787 707.00
65.8439 764.00
65.9091 699.00
65.9743 727.00
66.0395 672.00
66.1047 596.00
66.1699 558.00
66.2351 475.00
66.3003 436.00
66.3655 482.00
66.4307 356.00
66.4959 371.00
66.561 312.00
66.6263 347.00
66.6915 355.00
66.7566 297.00
66.8218 327.00
66.887 336.00
66.9522 330.00
67.0174 332.00
67.0826 321.00
67.1478 367.00
67.213 381.00
67.2782 417.00
67.3434 416.00
67.4086 410.00
67.4738 487.00
67.539 439.00
67.6042 456.00
67.6694 440.00
67.7346 496.00
67.7998 536.00
67.865 633.00
67.9302 611.00
67.9954 728.00
68.0606 661.00
68.1258 690.00
68.191 742.00
68.2562 858.00
68.3214 996.00
68.3866 1165.00
68.4518 1306.00
68.517 1255.00
68.5822 1178.00
68.6474 956.00
68.7126 910.00
68.7778 791.00
68.843 764.00
68.9082 715.00
68.9734 696.00
69.0386 684.00
69.1038 622.00
69.169 647.00
69.2342 624.00
69.2994 586.00
69.3646 548.00
69.4298 489.00
69.495 484.00
69.5602 429.00
69.6254 407.00
69.6906 409.00
69.7558 413.00
69.821 384.00
69.8862 366.00
69.9514 340.00
70.0166 304.00
70.0818 341.00
70.147 351.00
70.2122 364.00
70.2774 410.00
70.3426 456.00
70.4078 496.00
70.473 433.00
70.5382 463.00
70.6034 430.00
70.6686 456.00
70.7338 430.00
70.799 375.00
70.8642 366.00
70.9294 335.00
70.9946 323.00
71.0598 300.00
71.125 304.00
71.1902 284.00
71.2554 296.00
71.3205 272.00
71.3858 290.00
71.451 277.00
71.5162 293.00
71.5813 304.00
71.6465 311.00
71.7117 322.00
71.7769 404.00
71.8421 339.00
71.9073 402.00
71.9725 376.00
72.0377 335.00
72.1029 333.00
72.1681 318.00
72.2333 376.00
72.2985 379.00
72.3637 388.00
72.4289 377.00
72.4941 396.00
72.5593 390.00
72.6245 383.00
72.6897 384.00
72.7549 391.00
72.8201 363.00
72.8853 330.00
72.9505 373.00
73.0157 328.00
73.0809 334.00
73.1461 327.00
73.2113 322.00
73.2765 309.00
73.3417 317.00
73.4069 328.00
73.4721 317.00
73.5373 366.00
73.6025 382.00
73.6677 441.00
73.7329 434.00
73.7981 428.00
73.8633 408.00
73.9285 408.00
73.9937 386.00
74.0589 368.00
74.1241 315.00
74.1893 321.00
74.2545 324.00
74.3197 303.00
74.3849 264.00
74.4501 265.00
74.5153 264.00
74.5805 246.00
74.6457 223.00
74.7109 262.00
74.7761 263.00
74.8413 221.00
74.9065 245.00
74.9717 245.00
75.0369 257.00
75.1021 267.00
75.1673 273.00
75.2325 249.00
75.2977 266.00
75.3629 316.00
75.4281 249.00
75.4933 257.00
75.5585 281.00
75.6237 311.00
75.6889 329.00
75.7541 399.00
75.8193 407.00
75.8845 405.00
75.9497 396.00
76.0149 363.00
76.0801 384.00
76.1452 457.00
76.2104 550.00
76.2756 497.00
76.3409 517.00
76.406 565.00
76.4712 506.00
76.5364 448.00
76.6016 399.00
76.6668 361.00
76.732 327.00
76.7972 345.00
76.8624 347.00
76.9276 292.00
76.9928 316.00
77.058 295.00
77.1232 308.00
77.1884 278.00
77.2536 304.00
77.3188 286.00
77.384 339.00
77.4492 376.00
77.5144 419.00
77.5796 412.00
77.6448 450.00
77.71 511.00
77.7752 504.00
77.8404 490.00
77.9056 453.00
77.9708 401.00
78.036 407.00
78.1012 416.00
78.1664 363.00
78.2316 387.00
78.2968 449.00
78.362 407.00
78.4272 393.00
78.4924 391.00
78.5576 409.00
78.6228 354.00
78.688 349.00
78.7532 297.00
78.8184 318.00
78.8836 322.00
78.9488 373.00
79.014 383.00
79.0792 404.00
79.1444 453.00
79.2096 425.00
79.2748 436.00
79.34 417.00
79.4052 448.00
79.4704 388.00
79.5356 385.00
79.6008 354.00
79.666 365.00
79.7312 288.00
79.7964 316.00
79.8616 354.00
79.9268 371.00
79.992 403.00
80.0572 447.00
80.1224 433.00
80.1876 392.00
80.2528 357.00
80.318 375.00
80.3832 367.00
80.4484 312.00
80.5136 343.00
80.5788 347.00
80.644 330.00
80.7092 311.00
80.7744 298.00
80.8396 303.00
80.9048 287.00
80.9699 289.00
81.0351 259.00
81.1003 279.00
81.1655 343.00
81.2307 311.00
81.2959 354.00
81.3611 424.00
81.4263 434.00
81.4915 384.00
81.5567 441.00
81.6219 442.00
81.6871 438.00
81.7523 413.00
81.8175 396.00
81.8827 408.00
81.9479 435.00
82.0131 421.00
82.0783 416.00
82.1435 384.00
82.2087 384.00
82.2739 343.00
82.3391 314.00
82.4043 293.00
82.4695 309.00
82.5347 275.00
82.5999 249.00
82.6651 249.00
82.7303 287.00
82.7955 271.00
82.8607 272.00
82.9259 270.00
82.9911 281.00
83.0563 263.00
83.1215 280.00
83.1867 269.00
83.2519 250.00
83.3171 285.00
83.3823 291.00
83.4475 338.00
83.5127 308.00
83.5779 295.00
83.6431 294.00
83.7083 294.00
83.7735 330.00
83.8387 313.00
83.9039 317.00
83.9691 301.00
84.0343 322.00
84.0995 285.00
84.1647 261.00
84.2299 309.00
84.2951 271.00
84.3603 277.00
84.4255 280.00
84.4907 283.00
84.5559 301.00
84.6211 355.00
84.6863 306.00
84.7515 303.00
84.8167 339.00
84.8819 346.00
84.9471 331.00
85.0123 265.00
85.0775 351.00
85.1427 316.00
85.2079 309.00
85.2731 289.00
85.3383 274.00
85.4035 291.00
85.4687 264.00
85.5339 307.00
85.5991 306.00
85.6643 297.00
85.7295 326.00
85.7946 328.00
85.8598 293.00
85.925 365.00
85.9903 389.00
86.0554 361.00
86.1206 460.00
86.1858 457.00
86.251 497.00
86.3162 475.00
86.3814 469.00
86.4466 455.00
86.5118 355.00
86.577 388.00
86.6422 321.00
86.7074 324.00
86.7726 267.00
86.8378 242.00
86.903 265.00
86.9682 238.00
87.0334 209.00
87.0986 246.00
87.1638 227.00
87.229 269.00
87.2942 275.00
87.3594 274.00
87.4246 343.00
87.4898 331.00
87.555 297.00
87.6202 288.00
87.6854 292.00
87.7506 269.00
87.8158 305.00
87.881 319.00
87.9462 290.00
88.0114 339.00
88.0766 340.00
88.1418 364.00
88.207 354.00
88.2722 356.00
88.3374 393.00
88.4026 302.00
88.4678 313.00
88.533 341.00
88.5982 366.00
88.6634 322.00
88.7286 330.00
88.7938 347.00
88.859 351.00
88.9242 328.00
88.9894 367.00
89.0546 350.00
89.1198 331.00
89.185 361.00
89.2502 327.00
89.3154 327.00
89.3806 355.00
89.4458 289.00
89.511 307.00
89.5762 286.00
89.6414 268.00
89.7066 324.00
89.7718 316.00
89.837 305.00
89.9022 304.00
89.9674 281.00
90.0326 272.00
90.0978 256.00
90.163 242.00
90.2282 258.00
90.2934 283.00
90.3586 245.00
90.4238 264.00
90.489 278.00
90.5542 297.00
90.6193 320.00
90.6845 314.00
90.7497 330.00
90.8149 306.00
90.8801 343.00
90.9453 363.00
91.0105 341.00
91.0757 324.00
91.1409 290.00
91.2061 281.00
91.2713 277.00
91.3365 304.00
91.4017 262.00
91.4669 256.00
91.5321 239.00
91.5973 264.00
91.6625 262.00
91.7277 240.00
91.7929 272.00
91.8581 296.00
91.9233 275.00
91.9885 273.00
92.0537 265.00
92.1189 282.00
92.1841 270.00
92.2493 285.00
92.3145 273.00
92.3797 245.00
92.4449 259.00
92.5101 236.00
92.5753 236.00
92.6405 235.00
92.7057 275.00
92.7709 288.00
92.8361 230.00
92.9013 267.00
92.9665 303.00
93.0317 282.00
93.0969 298.00
93.1621 313.00
93.2273 319.00
93.2925 302.00
93.3577 314.00
93.4229 314.00
93.4881 324.00
93.5533 312.00
93.6185 293.00
93.6837 284.00
93.7489 324.00
93.8141 322.00
93.8793 331.00
93.9445 340.00
94.0097 365.00
94.0749 297.00
94.1401 284.00
94.2053 293.00
94.2705 286.00
94.3357 268.00
94.4009 226.00
94.4661 260.00
94.5313 228.00
94.5965 308.00
94.6617 287.00
94.7269 265.00
94.7921 318.00
94.8573 342.00
94.9225 315.00
94.9877 303.00
95.0529 305.00
95.1181 307.00
95.1833 349.00
95.2485 316.00
95.3137 302.00
95.3789 283.00
95.444 274.00
95.5092 258.00
95.5744 275.00
95.6396 284.00
95.7048 213.00
95.77 276.00
95.8352 272.00
95.9004 275.00
95.9656 227.00
96.0308 305.00
96.096 248.00
96.1612 311.00
96.2264 286.00
96.2916 335.00
96.3568 320.00
96.422 335.00
96.4872 323.00
96.5524 304.00
96.6176 315.00
96.6828 322.00
96.748 311.00
96.8132 332.00
96.8784 264.00
96.9436 297.00
97.0088 285.00
97.074 299.00
97.1392 291.00
97.2044 245.00
97.2696 263.00
97.3348 279.00
97.4 268.00
97.4652 293.00
97.5304 260.00
97.5956 263.00
97.6608 249.00
97.726 295.00
97.7912 228.00
97.8564 246.00
97.9216 276.00
97.9868 269.00
98.052 230.00
98.1172 215.00
98.1824 238.00
98.2476 247.00
98.3128 231.00
98.378 257.00
98.4432 238.00
98.5084 276.00
98.5736 308.00
98.6388 288.00
98.704 330.00
98.7692 375.00
98.8344 401.00
98.8996 395.00
98.9648 414.00
99.03 339.00
99.0952 322.00
99.1604 381.00
99.2256 338.00
99.2908 321.00
99.356 314.00
99.4212 304.00
99.4864 279.00
99.5516 281.00
99.6168 283.00
99.682 294.00
99.7472 250.00
99.8124 279.00
99.8776 250.00
99.9428 292.00
100.008 322.00
100.073 358.00
100.095 357.00