File: data/xrd_creation/results/MINES_18.xy
9.903433 2735.00
9.968632 2807.00
10.0338 2826.00
10.099 2699.00
10.1642 2673.00
10.2294 2747.00
10.2946 2698.00
10.3598 2609.00
10.425 2672.00
10.4902 2569.00
10.5554 2542.00
10.6206 2600.00
10.6858 2470.00
10.751 2577.00
10.8162 2469.00
10.8814 2482.00
10.9466 2480.00
11.0118 2471.00
11.077 2387.00
11.1422 2459.00
11.2074 2441.00
11.2726 2366.00
11.3378 2464.00
11.403 2343.00
11.4682 2379.00
11.5334 2330.00
11.5986 2318.00
11.6638 2237.00
11.729 2359.00
11.7942 2229.00
11.8594 2338.00
11.9246 2196.00
11.9898 2176.00
12.055 2111.00
12.1202 2210.00
12.1854 2179.00
12.2506 2211.00
12.3158 2141.00
12.381 2185.00
12.4462 2226.00
12.5114 2177.00
12.5766 2085.00
12.6418 2014.00
12.707 2097.00
12.7722 1998.00
12.8374 1989.00
12.9026 2109.00
12.9678 1962.00
13.033 1994.00
13.0982 1989.00
13.1634 1967.00
13.2286 1946.00
13.2938 1972.00
13.359 1841.00
13.4242 1940.00
13.4894 1952.00
13.5546 1955.00
13.6198 2048.00
13.685 2159.00
13.7502 2140.00
13.8154 2302.00
13.8805 2429.00
13.9457 2754.00
14.0109 3140.00
14.0761 2789.00
14.1413 2030.00
14.2065 1906.00
14.2717 1893.00
14.3369 1898.00
14.4021 1838.00
14.4673 1804.00
14.5325 1803.00
14.5977 1800.00
14.6629 1781.00
14.7281 1825.00
14.7933 1805.00
14.8585 1715.00
14.9237 1667.00
14.9889 1727.00
15.0541 1653.00
15.1193 1695.00
15.1845 1815.00
15.2497 1771.00
15.3149 1680.00
15.3801 1740.00
15.4453 1736.00
15.5105 1754.00
15.5757 1642.00
15.6409 1748.00
15.7061 1646.00
15.7713 1640.00
15.8365 1651.00
15.9017 1683.00
15.9669 1650.00
16.0321 1655.00
16.0973 1659.00
16.1625 1674.00
16.2277 1634.00
16.2929 1638.00
16.3581 1656.00
16.4233 1657.00
16.4885 1791.00
16.5537 1846.00
16.6189 1903.00
16.6841 1970.00
16.7493 1737.00
16.8145 1648.00
16.8797 1593.00
16.9449 1622.00
17.0101 1690.00
17.0753 1818.00
17.1405 1890.00
17.2057 1904.00
17.2709 1750.00
17.3361 1586.00
17.4013 1616.00
17.4665 1506.00
17.5317 1539.00
17.5969 1518.00
17.6621 1495.00
17.7273 1519.00
17.7925 1584.00
17.8577 1527.00
17.9229 1444.00
17.9881 1516.00
18.0533 1459.00
18.1185 1451.00
18.1837 1396.00
18.2489 1443.00
18.3141 1406.00
18.3793 1404.00
18.4445 1389.00
18.5097 1354.00
18.5749 1394.00
18.6401 1365.00
18.7052 1467.00
18.7704 1351.00
18.8356 1472.00
18.9008 1336.00
18.966 1402.00
19.0312 1397.00
19.0964 1388.00
19.1616 1400.00
19.2268 1495.00
19.292 1435.00
19.3572 1492.00
19.4224 1704.00
19.4876 1732.00
19.5528 1934.00
19.618 2094.00
19.6832 2060.00
19.7484 2167.00
19.8136 2328.00
19.8788 2353.00
19.944 1987.00
20.0092 1654.00
20.0744 1432.00
20.1396 1425.00
20.2048 1387.00
20.27 1464.00
20.3352 1477.00
20.4004 1397.00
20.4656 1513.00
20.5308 1451.00
20.596 1327.00
20.6612 1308.00
20.7264 1449.00
20.7916 1584.00
20.8568 1695.00
20.922 1801.00
20.9872 2124.00
21.0524 2174.00
21.1176 2076.00
21.1828 1720.00
21.248 1444.00
21.3132 1382.00
21.3784 1431.00
21.4436 1471.00
21.5088 1554.00
21.574 1739.00
21.6392 2081.00
21.7044 2552.00
21.7696 3205.00
21.8348 2855.00
21.9 1854.00
21.9652 1417.00
22.0304 1242.00
22.0956 1253.00
22.1608 1214.00
22.226 1234.00
22.2912 1184.00
22.3564 1200.00
22.4216 1135.00
22.4868 1182.00
22.552 1210.00
22.6172 1229.00
22.6824 1172.00
22.7476 1196.00
22.8128 1165.00
22.878 1198.00
22.9432 1316.00
23.0084 1373.00
23.0736 1364.00
23.1388 1428.00
23.204 1443.00
23.2692 1439.00
23.3344 1347.00
23.3996 1313.00
23.4647 1132.00
23.5299 1164.00
23.5951 1203.00
23.6603 1190.00
23.7255 1300.00
23.7907 1503.00
23.8559 1618.00
23.9211 1959.00
23.9863 2662.00
24.0515 3575.00
24.1167 3338.00
24.1819 2086.00
24.2471 1354.00
24.3123 1322.00
24.3775 1481.00
24.4427 1631.00
24.5079 2016.00
24.5731 2569.00
24.6383 2784.00
24.7035 2104.00
24.7687 1555.00
24.8339 1754.00
24.8991 2027.00
24.9643 2605.00
25.0295 3717.00
25.0947 5232.00
25.1599 5756.00
25.2251 4064.00
25.2903 3021.00
25.3555 2318.00
25.4207 1909.00
25.4859 1949.00
25.5511 2063.00
25.6163 2483.00
25.6815 2661.00
25.7467 2941.00
25.8119 3213.00
25.8771 3115.00
25.9423 2796.00
26.0075 2381.00
26.0727 2152.00
26.1379 1860.00
26.2031 1670.00
26.2683 1458.00
26.3335 1514.00
26.3987 1480.00
26.4639 1601.00
26.5291 1898.00
26.5943 2372.00
26.6595 3244.00
26.7247 4405.00
26.7899 5697.00
26.8551 6495.00
26.9203 5677.00
26.9855 3348.00
27.0507 1699.00
27.1159 1251.00
27.1811 1184.00
27.2463 1102.00
27.3115 1015.00
27.3767 1031.00
27.4419 1031.00
27.5071 1008.00
27.5723 1024.00
27.6375 999.00
27.7027 966.00
27.7679 1029.00
27.8331 1005.00
27.8983 1028.00
27.9635 978.00
28.0287 948.00
28.0939 929.00
28.1591 992.00
28.2243 1026.00
28.2894 995.00
28.3546 974.00
28.4198 1111.00
28.485 1094.00
28.5502 1101.00
28.6154 1121.00
28.6806 1089.00
28.7458 1106.00
28.811 1082.00
28.8762 1133.00
28.9414 1199.00
29.0066 1266.00
29.0718 1389.00
29.137 1529.00
29.2022 1832.00
29.2674 1855.00
29.3326 1826.00
29.3978 1552.00
29.463 1423.00
29.5282 1196.00
29.5934 1280.00
29.6586 1391.00
29.7238 1453.00
29.789 1386.00
29.8542 1244.00
29.9194 1220.00
29.9846 1102.00
30.0498 1088.00
30.115 1125.00
30.1802 1077.00
30.2454 1217.00
30.3106 1202.00
30.3758 1380.00
30.441 1607.00
30.5062 1896.00
30.5714 2624.00
30.6366 4087.00
30.7018 6847.00
30.767 11786.00
30.8322 19527.00
30.8974 21373.00
30.9626 12699.00
31.0278 5665.00
31.093 3187.00
31.1582 2225.00
31.2234 1606.00
31.2886 1353.00
31.3538 1258.00
31.419 1321.00
31.4842 1251.00
31.5494 1160.00
31.6146 1092.00
31.6798 1019.00
31.745 956.00
31.8102 1069.00
31.8754 1057.00
31.9406 962.00
32.0058 981.00
32.071 905.00
32.1362 923.00
32.2014 946.00
32.2666 954.00
32.3318 881.00
32.397 904.00
32.4622 939.00
32.5274 880.00
32.5926 792.00
32.6578 811.00
32.723 839.00
32.7882 815.00
32.8534 793.00
32.9186 794.00
32.9838 796.00
33.0489 828.00
33.1141 821.00
33.1793 837.00
33.2445 914.00
33.3097 924.00
33.3749 1064.00
33.4401 1003.00
33.5053 899.00
33.5705 799.00
33.6357 833.00
33.7009 789.00
33.7661 799.00
33.8313 795.00
33.8965 782.00
33.9617 760.00
34.0269 726.00
34.0921 742.00
34.1573 755.00
34.2225 884.00
34.2877 959.00
34.3529 1013.00
34.4181 1200.00
34.4833 1412.00
34.5485 1369.00
34.6137 1242.00
34.6789 1006.00
34.7441 939.00
34.8093 846.00
34.8745 892.00
34.9397 925.00
35.0049 1112.00
35.0701 1285.00
35.1353 1685.00
35.2005 1826.00
35.2657 1651.00
35.3309 1394.00
35.3961 1281.00
35.4613 1353.00
35.5265 1861.00
35.5917 2724.00
35.6569 4800.00
35.7221 6857.00
35.7873 6165.00
35.8525 4016.00
35.9177 2020.00
35.9829 1379.00
36.0481 1147.00
36.1133 1079.00
36.1785 970.00
36.2437 996.00
36.3089 998.00
36.3741 957.00
36.4393 923.00
36.5045 967.00
36.5697 1054.00
36.6349 1221.00
36.7001 1257.00
36.7653 1280.00
36.8305 1189.00
36.8957 994.00
36.9609 909.00
37.0261 924.00
37.0913 851.00
37.1565 854.00
37.2217 876.00
37.2869 865.00
37.3521 886.00
37.4173 870.00
37.4825 912.00
37.5477 970.00
37.6129 1126.00
37.6781 1244.00
37.7433 1492.00
37.8085 1984.00
37.8736 2649.00
37.9388 3043.00
38.004 2535.00
38.0692 1683.00
38.1344 1217.00
38.1996 1144.00
38.2648 1036.00
38.33 1149.00
38.3952 1270.00
38.4604 1460.00
38.5256 1273.00
38.5908 1016.00
38.656 850.00
38.7212 752.00
38.7864 699.00
38.8516 665.00
38.9168 750.00
38.982 672.00
39.0472 724.00
39.1124 777.00
39.1776 740.00
39.2428 782.00
39.308 888.00
39.3732 941.00
39.4384 1055.00
39.5036 1163.00
39.5688 1269.00
39.634 1319.00
39.6992 1229.00
39.7644 1086.00
39.8296 1005.00
39.8948 944.00
39.96 897.00
40.0252 968.00
40.0904 1071.00
40.1556 1004.00
40.2208 809.00
40.286 802.00
40.3512 810.00
40.4164 758.00
40.4816 737.00
40.5468 737.00
40.612 652.00
40.6772 624.00
40.7424 608.00
40.8076 626.00
40.8728 640.00
40.938 631.00
41.0032 644.00
41.0684 611.00
41.1336 728.00
41.1988 762.00
41.264 793.00
41.3292 799.00
41.3944 749.00
41.4596 764.00
41.5248 767.00
41.59 886.00
41.6552 964.00
41.7204 941.00
41.7856 1007.00
41.8508 990.00
41.916 980.00
41.9812 1048.00
42.0464 1478.00
42.1116 1605.00
42.1768 1484.00
42.242 1279.00
42.3072 1032.00
42.3724 853.00
42.4376 943.00
42.5028 888.00
42.568 818.00
42.6332 852.00
42.6983 801.00
42.7635 719.00
42.8287 658.00
42.8939 639.00
42.9591 628.00
43.0243 622.00
43.0895 674.00
43.1547 676.00
43.2199 685.00
43.2851 680.00
43.3503 781.00
43.4155 704.00
43.4807 702.00
43.5459 655.00
43.6111 595.00
43.6763 599.00
43.7415 584.00
43.8067 624.00
43.8719 647.00
43.9371 701.00
44.0023 758.00
44.0675 829.00
44.1327 808.00
44.1979 831.00
44.2631 935.00
44.3283 793.00
44.3935 698.00
44.4587 619.00
44.5239 572.00
44.5891 553.00
44.6543 571.00
44.7195 575.00
44.7847 582.00
44.8499 670.00
44.9151 669.00
44.9803 604.00
45.0455 601.00
45.1107 596.00
45.1759 690.00
45.2411 756.00
45.3063 757.00
45.3715 686.00
45.4367 656.00
45.5019 774.00
45.5671 823.00
45.6323 922.00
45.6975 942.00
45.7627 1175.00
45.8279 1564.00
45.8931 2237.00
45.9583 2641.00
46.0235 2087.00
46.0887 1681.00
46.1539 1186.00
46.2191 995.00
46.2843 969.00
46.3495 1165.00
46.4147 1176.00
46.4799 923.00
46.5451 805.00
46.6103 647.00
46.6755 584.00
46.7407 546.00
46.8059 575.00
46.8711 559.00
46.9363 576.00
47.0015 607.00
47.0667 589.00
47.1319 601.00
47.1971 580.00
47.2623 573.00
47.3275 571.00
47.3927 539.00
47.4579 616.00
47.523 594.00
47.5882 599.00
47.6534 624.00
47.7186 579.00
47.7838 621.00
47.849 599.00
47.9142 604.00
47.9794 641.00
48.0446 690.00
48.1098 641.00
48.175 769.00
48.2402 727.00
48.3054 844.00
48.3706 835.00
48.4358 833.00
48.501 770.00
48.5662 685.00
48.6314 687.00
48.6966 714.00
48.7618 720.00
48.827 707.00
48.8922 685.00
48.9574 671.00
49.0226 630.00
49.0878 693.00
49.153 630.00
49.2182 595.00
49.2834 590.00
49.3486 695.00
49.4138 769.00
49.479 973.00
49.5442 1289.00
49.6094 1113.00
49.6746 999.00
49.7398 869.00
49.805 835.00
49.8702 805.00
49.9354 865.00
50.0006 901.00
50.0658 920.00
50.131 1035.00
50.1962 1087.00
50.2614 1143.00
50.3266 1160.00
50.3918 1038.00
50.457 850.00
50.5222 749.00
50.5874 639.00
50.6526 724.00
50.7178 745.00
50.783 968.00
50.8482 1115.00
50.9134 1032.00
50.9786 1166.00
51.0438 1563.00
51.109 2359.00
51.1742 4156.00
51.2394 6859.00
51.3046 7454.00
51.3698 5239.00
51.435 4314.00
51.5002 2307.00
51.5654 1448.00
51.6306 1078.00
51.6958 1026.00
51.761 773.00
51.8262 711.00
51.8914 633.00
51.9566 555.00
52.0218 528.00
52.087 501.00
52.1522 508.00
52.2174 490.00
52.2826 520.00
52.3477 526.00
52.4129 500.00
52.4781 527.00
52.5433 579.00
52.6085 566.00
52.6737 585.00
52.7389 614.00
52.8041 634.00
52.8693 792.00
52.9345 903.00
52.9997 961.00
53.0649 755.00
53.1301 704.00
53.1953 570.00
53.2605 573.00
53.3257 533.00
53.3909 602.00
53.4561 491.00
53.5213 549.00
53.5865 620.00
53.6517 600.00
53.7169 558.00
53.7821 567.00
53.8473 586.00
53.9125 646.00
53.9777 555.00
54.0429 517.00
54.1081 492.00
54.1733 458.00
54.2385 460.00
54.3037 480.00
54.3689 509.00
54.4341 518.00
54.4993 554.00
54.5645 642.00
54.6297 715.00
54.6949 753.00
54.7601 753.00
54.8253 738.00
54.8905 815.00
54.9557 744.00
55.0209 708.00
55.0861 698.00
55.1513 674.00
55.2165 694.00
55.2817 806.00
55.3469 797.00
55.4121 785.00
55.4773 777.00
55.5425 718.00
55.6077 707.00
55.6729 634.00
55.7381 614.00
55.8033 644.00
55.8685 709.00
55.9337 787.00
55.9989 887.00
56.0641 1018.00
56.1293 1268.00
56.1945 1546.00
56.2597 1584.00
56.3249 1245.00
56.3901 1146.00
56.4553 853.00
56.5205 698.00
56.5857 621.00
56.6509 556.00
56.7161 558.00
56.7813 496.00
56.8465 514.00
56.9117 517.00
56.9769 535.00
57.042 499.00
57.1073 536.00
57.1724 586.00
57.2376 565.00
57.3028 608.00
57.368 598.00
57.4332 553.00
57.4984 517.00
57.5636 508.00
57.6288 548.00
57.694 591.00
57.7592 628.00
57.8244 719.00
57.8896 613.00
57.9548 515.00
58.02 518.00
58.0852 514.00
58.1504 410.00
58.2156 450.00
58.2808 435.00
58.346 412.00
58.4112 463.00
58.4764 459.00
58.5416 466.00
58.6068 454.00
58.672 476.00
58.7372 494.00
58.8024 479.00
58.8676 514.00
58.9328 501.00
58.998 514.00
59.0632 562.00
59.1284 592.00
59.1936 708.00
59.2588 788.00
59.324 1114.00
59.3892 1278.00
59.4544 1066.00
59.5196 1040.00
59.5848 951.00
59.65 767.00
59.7152 646.00
59.7804 737.00
59.8456 712.00
59.9108 769.00
59.976 842.00
60.0412 886.00
60.1064 831.00
60.1716 876.00
60.2368 807.00
60.302 808.00
60.3672 756.00
60.4324 832.00
60.4976 912.00
60.5628 1117.00
60.628 1309.00
60.6932 1693.00
60.7584 2396.00
60.8236 3863.00
60.8888 5264.00
60.954 4578.00
61.0192 3533.00
61.0844 3164.00
61.1496 2020.00
61.2148 1250.00
61.28 1030.00
61.3452 905.00
61.4104 872.00
61.4756 778.00
61.5408 702.00
61.606 745.00
61.6712 585.00
61.7364 610.00
61.8016 586.00
61.8667 507.00
61.932 552.00
61.9971 532.00
62.0623 546.00
62.1275 632.00
62.1927 670.00
62.2579 827.00
62.3231 1005.00
62.3883 1399.00
62.4535 1337.00
62.5187 1020.00
62.5839 1045.00
62.6491 802.00
62.7143 577.00
62.7795 513.00
62.8447 477.00
62.9099 505.00
62.9751 475.00
63.0403 514.00
63.1055 481.00
63.1707 496.00
63.2359 591.00
63.3011 629.00
63.3663 624.00
63.4315 562.00
63.4967 577.00
63.5619 558.00
63.6271 621.00
63.6923 657.00
63.7575 963.00
63.8227 1155.00
63.8879 1407.00
63.9531 1397.00
64.0183 1055.00
64.0835 1105.00
64.1487 840.00
64.2139 668.00
64.2791 620.00
64.3443 603.00
64.4095 530.00
64.4747 551.00
64.5399 532.00
64.6051 525.00
64.6703 518.00
64.7355 549.00
64.8007 629.00
64.8659 634.00
64.9311 628.00
64.9963 636.00
65.0615 589.00
65.1267 596.00
65.1919 600.00
65.2571 670.00
65.3223 758.00
65.3875 848.00
65.4527 811.00
65.5179 797.00
65.5831 762.00
65.6483 684.00
65.7135 718.00
65.7787 752.00
65.8439 764.00
65.9091 718.00
65.9743 688.00
66.0395 617.00
66.1047 565.00
66.1699 519.00
66.2351 518.00
66.3003 503.00
66.3655 494.00
66.4307 512.00
66.4959 504.00
66.561 570.00
66.6263 618.00
66.6915 643.00
66.7566 769.00
66.8218 901.00
66.887 843.00
66.9522 886.00
67.0174 780.00
67.0826 765.00
67.1478 785.00
67.213 676.00
67.2782 720.00
67.3434 713.00
67.4086 662.00
67.4738 646.00
67.539 706.00
67.6042 742.00
67.6694 732.00
67.7346 794.00
67.7998 810.00
67.865 802.00
67.9302 840.00
67.9954 841.00
68.0606 879.00
68.1258 1040.00
68.191 1186.00
68.2562 1412.00
68.3214 1297.00
68.3866 1226.00
68.4518 1211.00
68.517 1103.00
68.5822 902.00
68.6474 784.00
68.7126 757.00
68.7778 616.00
68.843 566.00
68.9082 467.00
68.9734 497.00
69.0386 527.00
69.1038 575.00
69.169 659.00
69.2342 635.00
69.2994 558.00
69.3646 540.00
69.4298 560.00
69.495 514.00
69.5602 565.00
69.6254 652.00
69.6906 757.00
69.7558 592.00
69.821 567.00
69.8862 565.00
69.9514 472.00
70.0166 460.00
70.0818 402.00
70.147 403.00
70.2122 365.00
70.2774 406.00
70.3426 416.00
70.4078 402.00
70.473 381.00
70.5382 391.00
70.6034 439.00
70.6686 426.00
70.7338 364.00
70.799 400.00
70.8642 375.00
70.9294 428.00
70.9946 390.00
71.0598 415.00
71.125 393.00
71.1902 414.00
71.2554 368.00
71.3205 387.00
71.3858 433.00
71.451 439.00
71.5162 410.00
71.5813 367.00
71.6465 455.00
71.7117 392.00
71.7769 394.00
71.8421 431.00
71.9073 396.00
71.9725 421.00
72.0377 467.00
72.1029 391.00
72.1681 430.00
72.2333 439.00
72.2985 430.00
72.3637 410.00
72.4289 424.00
72.4941 439.00
72.5593 445.00
72.6245 407.00
72.6897 387.00
72.7549 462.00
72.8201 525.00
72.8853 439.00
72.9505 456.00
73.0157 468.00
73.0809 480.00
73.1461 492.00
73.2113 482.00
73.2765 537.00
73.3417 501.00
73.4069 502.00
73.4721 518.00
73.5373 536.00
73.6025 552.00
73.6677 535.00
73.7329 604.00
73.7981 688.00
73.8633 767.00
73.9285 713.00
73.9937 566.00
74.0589 586.00
74.1241 578.00
74.1893 460.00
74.2545 403.00
74.3197 400.00
74.3849 354.00
74.4501 361.00
74.5153 352.00
74.5805 351.00
74.6457 395.00
74.7109 377.00
74.7761 390.00
74.8413 404.00
74.9065 444.00
74.9717 455.00
75.0369 456.00
75.1021 551.00
75.1673 755.00
75.2325 901.00
75.2977 925.00
75.3629 719.00
75.4281 719.00
75.4933 741.00
75.5585 663.00
75.6237 561.00
75.6889 498.00
75.7541 465.00
75.8193 464.00
75.8845 471.00
75.9497 479.00
76.0149 492.00
76.0801 460.00
76.1452 516.00
76.2104 542.00
76.2756 559.00
76.3409 566.00
76.406 613.00
76.4712 757.00
76.5364 818.00
76.6016 943.00
76.6668 922.00
76.732 772.00
76.7972 682.00
76.8624 643.00
76.9276 582.00
76.9928 487.00
77.058 444.00
77.1232 386.00
77.1884 380.00
77.2536 405.00
77.3188 411.00
77.384 411.00
77.4492 444.00
77.5144 449.00
77.5796 449.00
77.6448 474.00
77.71 473.00
77.7752 544.00
77.8404 571.00
77.9056 691.00
77.9708 793.00
78.036 748.00
78.1012 667.00
78.1664 650.00
78.2316 681.00
78.2968 669.00
78.362 631.00
78.4272 566.00
78.4924 461.00
78.5576 452.00
78.6228 446.00
78.688 370.00
78.7532 318.00
78.8184 398.00
78.8836 388.00
78.9488 419.00
79.014 478.00
79.0792 484.00
79.1444 535.00
79.2096 570.00
79.2748 631.00
79.34 779.00
79.4052 691.00
79.4704 634.00
79.5356 586.00
79.6008 595.00
79.666 529.00
79.7312 487.00
79.7964 459.00
79.8616 440.00
79.9268 465.00
79.992 473.00
80.0572 495.00
80.1224 414.00
80.1876 416.00
80.2528 388.00
80.318 376.00
80.3832 378.00
80.4484 402.00
80.5136 443.00
80.5788 522.00
80.644 532.00
80.7092 514.00
80.7744 521.00
80.8396 508.00
80.9048 528.00
80.9699 498.00
81.0351 481.00
81.1003 478.00
81.1655 447.00
81.2307 502.00
81.2959 526.00
81.3611 482.00
81.4263 439.00
81.4915 458.00
81.5567 447.00
81.6219 435.00
81.6871 459.00
81.7523 443.00
81.8175 515.00
81.8827 590.00
81.9479 707.00
82.0131 822.00
82.0783 795.00
82.1435 656.00
82.2087 596.00
82.2739 580.00
82.3391 522.00
82.4043 413.00
82.4695 397.00
82.5347 339.00
82.5999 398.00
82.6651 369.00
82.7303 373.00
82.7955 400.00
82.8607 382.00
82.9259 395.00
82.9911 376.00
83.0563 452.00
83.1215 492.00
83.1867 661.00
83.2519 830.00
83.3171 1158.00
83.3823 1286.00
83.4475 1011.00
83.5127 866.00
83.5779 891.00
83.6431 856.00
83.7083 682.00
83.7735 521.00
83.8387 430.00
83.9039 384.00
83.9691 411.00
84.0343 390.00
84.0995 379.00
84.1647 356.00
84.2299 386.00
84.2951 385.00
84.3603 304.00
84.4255 333.00
84.4907 352.00
84.5559 339.00
84.6211 356.00
84.6863 354.00
84.7515 385.00
84.8167 346.00
84.8819 380.00
84.9471 384.00
85.0123 391.00
85.0775 378.00
85.1427 346.00
85.2079 360.00
85.2731 395.00
85.3383 378.00
85.4035 410.00
85.4687 389.00
85.5339 392.00
85.5991 454.00
85.6643 475.00
85.7295 508.00
85.7946 532.00
85.8598 603.00
85.925 804.00
85.9903 1032.00
86.0554 996.00
86.1206 814.00
86.1858 681.00
86.251 686.00
86.3162 701.00
86.3814 594.00
86.4466 466.00
86.5118 406.00
86.577 377.00
86.6422 380.00
86.7074 388.00
86.7726 365.00
86.8378 356.00
86.903 337.00
86.9682 354.00
87.0334 363.00
87.0986 374.00
87.1638 412.00
87.229 455.00
87.2942 497.00
87.3594 544.00
87.4246 517.00
87.4898 461.00
87.555 482.00
87.6202 494.00
87.6854 454.00
87.7506 438.00
87.8158 390.00
87.881 376.00
87.9462 373.00
88.0114 382.00
88.0766 396.00
88.1418 379.00
88.207 409.00
88.2722 439.00
88.3374 416.00
88.4026 394.00
88.4678 420.00
88.533 475.00
88.5982 491.00
88.6634 496.00
88.7286 529.00
88.7938 474.00
88.859 448.00
88.9242 449.00
88.9894 406.00
89.0546 386.00
89.1198 421.00
89.185 359.00
89.2502 390.00
89.3154 385.00
89.3806 381.00
89.4458 327.00
89.511 409.00
89.5762 379.00
89.6414 397.00
89.7066 446.00
89.7718 420.00
89.837 480.00
89.9022 514.00
89.9674 658.00
90.0326 629.00
90.0978 537.00
90.163 551.00
90.2282 550.00
90.2934 531.00
90.3586 443.00
90.4238 411.00
90.489 394.00
90.5542 369.00
90.6193 372.00
90.6845 347.00
90.7497 396.00
90.8149 352.00
90.8801 367.00
90.9453 361.00
91.0105 367.00
91.0757 377.00
91.1409 365.00
91.2061 414.00
91.2713 335.00
91.3365 377.00
91.4017 359.00
91.4669 331.00
91.5321 311.00
91.5973 317.00
91.6625 344.00
91.7277 333.00
91.7929 362.00
91.8581 361.00
91.9233 330.00
91.9885 361.00
92.0537 305.00
92.1189 344.00
92.1841 371.00
92.2493 350.00
92.3145 348.00
92.3797 396.00
92.4449 389.00
92.5101 453.00
92.5753 531.00
92.6405 594.00
92.7057 623.00
92.7709 507.00
92.8361 511.00
92.9013 492.00
92.9665 545.00
93.0317 514.00
93.0969 428.00
93.1621 409.00
93.2273 425.00
93.2925 413.00
93.3577 387.00
93.4229 369.00
93.4881 348.00
93.5533 372.00
93.6185 324.00
93.6837 333.00
93.7489 335.00
93.8141 372.00
93.8793 405.00
93.9445 331.00
94.0097 439.00
94.0749 343.00
94.1401 339.00
94.2053 322.00
94.2705 340.00
94.3357 352.00
94.4009 359.00
94.4661 352.00
94.5313 392.00
94.5965 362.00
94.6617 372.00
94.7269 373.00
94.7921 392.00
94.8573 377.00
94.9225 365.00
94.9877 399.00
95.0529 455.00
95.1181 470.00
95.1833 539.00
95.2485 580.00
95.3137 598.00
95.3789 672.00
95.444 522.00
95.5092 495.00
95.5744 523.00
95.6396 543.00
95.7048 478.00
95.77 400.00
95.8352 459.00
95.9004 437.00
95.9656 476.00
96.0308 491.00
96.096 474.00
96.1612 485.00
96.2264 442.00
96.2916 480.00
96.3568 498.00
96.422 565.00
96.4872 683.00
96.5524 804.00
96.6176 991.00
96.6828 926.00
96.748 799.00
96.8132 668.00
96.8784 630.00
96.9436 676.00
97.0088 631.00
97.074 561.00
97.1392 438.00
97.2044 382.00
97.2696 407.00
97.3348 368.00
97.4 385.00
97.4652 368.00
97.5304 379.00
97.5956 417.00
97.6608 389.00
97.726 385.00
97.7912 431.00
97.8564 537.00
97.9216 606.00
97.9868 684.00
98.052 624.00
98.1172 498.00
98.1824 498.00
98.2476 519.00
98.3128 513.00
98.378 511.00
98.4432 449.00
98.5084 403.00
98.5736 394.00
98.6388 360.00
98.704 426.00
98.7692 370.00
98.8344 426.00
98.8996 379.00
98.9648 428.00
99.03 384.00
99.0952 398.00
99.1604 410.00
99.2256 472.00
99.2908 519.00
99.356 504.00
99.4212 463.00
99.4864 439.00
99.5516 373.00
99.6168 441.00
99.682 463.00
99.7472 388.00
99.8124 386.00
99.8776 350.00
99.9428 340.00
100.008 350.00
100.073 386.00
100.095 356.00