File: data/xrd_creation/results/Na_-4.xy
9.903433 2797.00
9.968632 2799.00
10.0338 2711.00
10.099 2732.00
10.1642 2775.00
10.2294 2689.00
10.2946 2722.00
10.3598 2788.00
10.425 2678.00
10.4902 2737.00
10.5554 2622.00
10.6206 2646.00
10.6858 2594.00
10.751 2660.00
10.8162 2566.00
10.8814 2555.00
10.9466 2433.00
11.0118 2558.00
11.077 2384.00
11.1422 2484.00
11.2074 2343.00
11.2726 2363.00
11.3378 2411.00
11.403 2541.00
11.4682 2477.00
11.5334 2488.00
11.5986 2499.00
11.6638 2746.00
11.729 2712.00
11.7942 2456.00
11.8594 2246.00
11.9246 2250.00
11.9898 2215.00
12.055 2192.00
12.1202 2225.00
12.1854 2159.00
12.2506 2170.00
12.3158 2133.00
12.381 2189.00
12.4462 2165.00
12.5114 2075.00
12.5766 2220.00
12.6418 2110.00
12.707 2213.00
12.7722 2357.00
12.8374 2404.00
12.9026 2074.00
12.9678 2132.00
13.033 2057.00
13.0982 1922.00
13.1634 1971.00
13.2286 2000.00
13.2938 1971.00
13.359 1929.00
13.4242 2059.00
13.4894 1945.00
13.5546 1945.00
13.6198 1972.00
13.685 1829.00
13.7502 1939.00
13.8154 1872.00
13.8805 1863.00
13.9457 1962.00
14.0109 1952.00
14.0761 1859.00
14.1413 1891.00
14.2065 1869.00
14.2717 1823.00
14.3369 1892.00
14.4021 1896.00
14.4673 1818.00
14.5325 1939.00
14.5977 1910.00
14.6629 1862.00
14.7281 1842.00
14.7933 1757.00
14.8585 1690.00
14.9237 1793.00
14.9889 1812.00
15.0541 1763.00
15.1193 1696.00
15.1845 1773.00
15.2497 1700.00
15.3149 1762.00
15.3801 1666.00
15.4453 1594.00
15.5105 1624.00
15.5757 1698.00
15.6409 1754.00
15.7061 1732.00
15.7713 1675.00
15.8365 1638.00
15.9017 1622.00
15.9669 1660.00
16.0321 1671.00
16.0973 1752.00
16.1625 1751.00
16.2277 1704.00
16.2929 1689.00
16.3581 1691.00
16.4233 1674.00
16.4885 1631.00
16.5537 1640.00
16.6189 1663.00
16.6841 1562.00
16.7493 1580.00
16.8145 1674.00
16.8797 1621.00
16.9449 1591.00
17.0101 1611.00
17.0753 1531.00
17.1405 1581.00
17.2057 1549.00
17.2709 1633.00
17.3361 1646.00
17.4013 1650.00
17.4665 1634.00
17.5317 1824.00
17.5969 2055.00
17.6621 2475.00
17.7273 3044.00
17.7925 3525.00
17.8577 2496.00
17.9229 1687.00
17.9881 1535.00
18.0533 1503.00
18.1185 1450.00
18.1837 1544.00
18.2489 1517.00
18.3141 1620.00
18.3793 1530.00
18.4445 1542.00
18.5097 1473.00
18.5749 1638.00
18.6401 1749.00
18.7052 1694.00
18.7704 1520.00
18.8356 1523.00
18.9008 1537.00
18.966 1526.00
19.0312 1543.00
19.0964 1642.00
19.1616 1586.00
19.2268 1625.00
19.292 1585.00
19.3572 1558.00
19.4224 1433.00
19.4876 1355.00
19.5528 1395.00
19.618 1428.00
19.6832 1464.00
19.7484 1472.00
19.8136 1494.00
19.8788 1447.00
19.944 1492.00
20.0092 1575.00
20.0744 1940.00
20.1396 2264.00
20.2048 2706.00
20.27 3355.00
20.3352 3909.00
20.4004 3442.00
20.4656 2457.00
20.5308 1954.00
20.596 1858.00
20.6612 1702.00
20.7264 1699.00
20.7916 1519.00
20.8568 1333.00
20.922 1311.00
20.9872 1461.00
21.0524 1475.00
21.1176 1633.00
21.1828 1577.00
21.248 1445.00
21.3132 1416.00
21.3784 1505.00
21.4436 1466.00
21.5088 1665.00
21.574 1776.00
21.6392 1893.00
21.7044 1747.00
21.7696 1610.00
21.8348 1330.00
21.9 1236.00
21.9652 1223.00
22.0304 1235.00
22.0956 1333.00
22.1608 1336.00
22.226 1390.00
22.2912 1387.00
22.3564 1405.00
22.4216 1507.00
22.4868 1683.00
22.552 2454.00
22.6172 3425.00
22.6824 4234.00
22.7476 2978.00
22.8128 1692.00
22.878 1424.00
22.9432 1440.00
23.0084 1547.00
23.0736 1840.00
23.1388 2468.00
23.204 3348.00
23.2692 4027.00
23.3344 3278.00
23.3996 2760.00
23.4647 3024.00
23.5299 3149.00
23.5951 2469.00
23.6603 1947.00
23.7255 1905.00
23.7907 1534.00
23.8559 1298.00
23.9211 1152.00
23.9863 1078.00
24.0515 1133.00
24.1167 1181.00
24.1819 1133.00
24.2471 1215.00
24.3123 1246.00
24.3775 1140.00
24.4427 1172.00
24.5079 1179.00
24.5731 1176.00
24.6383 1260.00
24.7035 1193.00
24.7687 1163.00
24.8339 1127.00
24.8991 1067.00
24.9643 1065.00
25.0295 1083.00
25.0947 1142.00
25.1599 1085.00
25.2251 1186.00
25.2903 1481.00
25.3555 2134.00
25.4207 3184.00
25.4859 3741.00
25.5511 2767.00
25.6163 1779.00
25.6815 1786.00
25.7467 2453.00
25.8119 3079.00
25.8771 2387.00
25.9423 1474.00
26.0075 1228.00
26.0727 1298.00
26.1379 1319.00
26.2031 1249.00
26.2683 1128.00
26.3335 1166.00
26.3987 1218.00
26.4639 1215.00
26.5291 1170.00
26.5943 1345.00
26.6595 1548.00
26.7247 1735.00
26.7899 1645.00
26.8551 1597.00
26.9203 1697.00
26.9855 2161.00
27.0507 1944.00
27.1159 1229.00
27.1811 1035.00
27.2463 950.00
27.3115 951.00
27.3767 927.00
27.4419 898.00
27.5071 985.00
27.5723 987.00
27.6375 1021.00
27.7027 976.00
27.7679 975.00
27.8331 920.00
27.8983 858.00
27.9635 965.00
28.0287 1140.00
28.0939 1249.00
28.1591 1338.00
28.2243 1287.00
28.2894 1191.00
28.3546 1086.00
28.4198 1019.00
28.485 965.00
28.5502 1075.00
28.6154 1046.00
28.6806 954.00
28.7458 1003.00
28.811 967.00
28.8762 1035.00
28.9414 1129.00
29.0066 1351.00
29.0718 1807.00
29.137 2198.00
29.2022 2065.00
29.2674 1863.00
29.3326 1578.00
29.3978 1405.00
29.463 1326.00
29.5282 1792.00
29.5934 3137.00
29.6586 5464.00
29.7238 5831.00
29.789 4388.00
29.8542 2233.00
29.9194 1412.00
29.9846 1167.00
30.0498 1183.00
30.115 1122.00
30.1802 1098.00
30.2454 1178.00
30.3106 1099.00
30.3758 1009.00
30.441 852.00
30.5062 855.00
30.5714 872.00
30.6366 927.00
30.7018 929.00
30.767 945.00
30.8322 1022.00
30.8974 1183.00
30.9626 1571.00
31.0278 2185.00
31.093 2692.00
31.1582 2489.00
31.2234 1836.00
31.2886 1568.00
31.3538 1822.00
31.419 1792.00
31.4842 1706.00
31.5494 1431.00
31.6146 1342.00
31.6798 1645.00
31.745 2248.00
31.8102 3795.00
31.8754 6525.00
31.9406 6842.00
32.0058 4362.00
32.071 2310.00
32.1362 1772.00
32.2014 2028.00
32.2666 2735.00
32.3318 3316.00
32.397 3315.00
32.4622 3878.00
32.5274 5437.00
32.5926 6134.00
32.6578 4842.00
32.723 3174.00
32.7882 2173.00
32.8534 2093.00
32.9186 2495.00
32.9838 2713.00
33.0489 3052.00
33.1141 4343.00
33.1793 5884.00
33.2445 5483.00
33.3097 4444.00
33.3749 3594.00
33.4401 2838.00
33.5053 2168.00
33.5705 1608.00
33.6357 1680.00
33.7009 2047.00
33.7661 2187.00
33.8313 1928.00
33.8965 1685.00
33.9617 1395.00
34.0269 1334.00
34.0921 1253.00
34.1573 1462.00
34.2225 1848.00
34.2877 2781.00
34.3529 4452.00
34.4181 4650.00
34.4833 3017.00
34.5485 1720.00
34.6137 1268.00
34.6789 1247.00
34.7441 1169.00
34.8093 1183.00
34.8745 1221.00
34.9397 1291.00
35.0049 1376.00
35.0701 1279.00
35.1353 1187.00
35.2005 972.00
35.2657 847.00
35.3309 910.00
35.3961 971.00
35.4613 1115.00
35.5265 1163.00
35.5917 1083.00
35.6569 1170.00
35.7221 1191.00
35.7873 1143.00
35.8525 962.00
35.9177 936.00
35.9829 915.00
36.0481 926.00
36.1133 980.00
36.1785 1173.00
36.2437 1370.00
36.3089 1309.00
36.3741 1375.00
36.4393 1405.00
36.5045 1135.00
36.5697 948.00
36.6349 739.00
36.7001 771.00
36.7653 853.00
36.8305 966.00
36.8957 911.00
36.9609 887.00
37.0261 925.00
37.0913 971.00
37.1565 970.00
37.2217 841.00
37.2869 821.00
37.3521 899.00
37.4173 1108.00
37.4825 1331.00
37.5477 1513.00
37.6129 1190.00
37.6781 960.00
37.7433 796.00
37.8085 732.00
37.8736 661.00
37.9388 657.00
38.004 669.00
38.0692 654.00
38.1344 666.00
38.1996 652.00
38.2648 608.00
38.33 723.00
38.3952 718.00
38.4604 784.00
38.5256 863.00
38.5908 856.00
38.656 948.00
38.7212 979.00
38.7864 1034.00
38.8516 974.00
38.9168 958.00
38.982 894.00
39.0472 850.00
39.1124 799.00
39.1776 758.00
39.2428 785.00
39.308 844.00
39.3732 823.00
39.4384 883.00
39.5036 953.00
39.5688 1146.00
39.634 1377.00
39.6992 1571.00
39.7644 1129.00
39.8296 943.00
39.8948 761.00
39.96 749.00
40.0252 722.00
40.0904 824.00
40.1556 988.00
40.2208 1194.00
40.286 1170.00
40.3512 983.00
40.4164 882.00
40.4816 730.00
40.5468 724.00
40.612 707.00
40.6772 650.00
40.7424 612.00
40.8076 669.00
40.8728 778.00
40.938 978.00
41.0032 1111.00
41.0684 1401.00
41.1336 1566.00
41.1988 1334.00
41.264 1089.00
41.3292 847.00
41.3944 682.00
41.4596 703.00
41.5248 709.00
41.59 780.00
41.6552 898.00
41.7204 1083.00
41.7856 1279.00
41.8508 1313.00
41.916 1238.00
41.9812 1025.00
42.0464 927.00
42.1116 769.00
42.1768 714.00
42.242 820.00
42.3072 844.00
42.3724 987.00
42.4376 858.00
42.5028 819.00
42.568 687.00
42.6332 633.00
42.6983 676.00
42.7635 687.00
42.8287 621.00
42.8939 682.00
42.9591 750.00
43.0243 728.00
43.0895 712.00
43.1547 657.00
43.2199 709.00
43.2851 807.00
43.3503 1100.00
43.4155 1596.00
43.4807 1316.00
43.5459 1217.00
43.6111 1075.00
43.6763 1295.00
43.7415 1504.00
43.8067 1841.00
43.8719 2014.00
43.9371 1858.00
44.0023 1470.00
44.0675 1131.00
44.1327 892.00
44.1979 831.00
44.2631 813.00
44.3283 766.00
44.3935 779.00
44.4587 709.00
44.5239 655.00
44.5891 631.00
44.6543 602.00
44.7195 599.00
44.7847 674.00
44.8499 658.00
44.9151 638.00
44.9803 684.00
45.0455 635.00
45.1107 654.00
45.1759 658.00
45.2411 721.00
45.3063 633.00
45.3715 692.00
45.4367 738.00
45.5019 792.00
45.5671 781.00
45.6323 873.00
45.6975 807.00
45.7627 836.00
45.8279 958.00
45.8931 1382.00
45.9583 1746.00
46.0235 1498.00
46.0887 1310.00
46.1539 985.00
46.2191 758.00
46.2843 743.00
46.3495 684.00
46.4147 746.00
46.4799 729.00
46.5451 674.00
46.6103 634.00
46.6755 656.00
46.7407 650.00
46.8059 743.00
46.8711 833.00
46.9363 900.00
47.0015 1087.00
47.0667 1499.00
47.1319 2181.00
47.1971 2397.00
47.2623 2145.00
47.3275 1919.00
47.3927 1576.00
47.4579 1513.00
47.523 1622.00
47.5882 1722.00
47.6534 2074.00
47.7186 2901.00
47.7838 2863.00
47.849 2292.00
47.9142 1753.00
47.9794 1126.00
48.0446 829.00
48.1098 728.00
48.175 706.00
48.2402 692.00
48.3054 763.00
48.3706 775.00
48.4358 732.00
48.501 647.00
48.5662 613.00
48.6314 757.00
48.6966 1063.00
48.7618 1401.00
48.827 958.00
48.8922 955.00
48.9574 724.00
49.0226 590.00
49.0878 624.00
49.153 577.00
49.2182 579.00
49.2834 560.00
49.3486 520.00
49.4138 582.00
49.479 645.00
49.5442 590.00
49.6094 704.00
49.6746 727.00
49.7398 746.00
49.805 767.00
49.8702 708.00
49.9354 634.00
50.0006 596.00
50.0658 640.00
50.131 720.00
50.1962 685.00
50.2614 625.00
50.3266 651.00
50.3918 585.00
50.457 536.00
50.5222 497.00
50.5874 510.00
50.6526 546.00
50.7178 598.00
50.783 554.00
50.8482 602.00
50.9134 608.00
50.9786 642.00
51.0438 693.00
51.109 764.00
51.1742 609.00
51.2394 610.00
51.3046 561.00
51.3698 537.00
51.435 583.00
51.5002 632.00
51.5654 582.00
51.6306 568.00
51.6958 580.00
51.761 733.00
51.8262 816.00
51.8914 855.00
51.9566 847.00
52.0218 833.00
52.087 790.00
52.1522 849.00
52.2174 783.00
52.2826 745.00
52.3477 715.00
52.4129 749.00
52.4781 908.00
52.5433 977.00
52.6085 1275.00
52.6737 1687.00
52.7389 1517.00
52.8041 1360.00
52.8693 1077.00
52.9345 831.00
52.9997 703.00
53.0649 742.00
53.1301 767.00
53.1953 783.00
53.2605 925.00
53.3257 940.00
53.3909 1004.00
53.4561 947.00
53.5213 850.00
53.5865 871.00
53.6517 757.00
53.7169 806.00
53.7821 674.00
53.8473 740.00
53.9125 692.00
53.9777 651.00
54.0429 652.00
54.1081 626.00
54.1733 650.00
54.2385 609.00
54.3037 588.00
54.3689 702.00
54.4341 727.00
54.4993 818.00
54.5645 850.00
54.6297 868.00
54.6949 800.00
54.7601 826.00
54.8253 779.00
54.8905 696.00
54.9557 841.00
55.0209 903.00
55.0861 822.00
55.1513 763.00
55.2165 650.00
55.2817 525.00
55.3469 477.00
55.4121 462.00
55.4773 500.00
55.5425 448.00
55.6077 445.00
55.6729 451.00
55.7381 461.00
55.8033 510.00
55.8685 449.00
55.9337 512.00
55.9989 595.00
56.0641 582.00
56.1293 628.00
56.1945 628.00
56.2597 577.00
56.3249 638.00
56.3901 653.00
56.4553 701.00
56.5205 773.00
56.5857 830.00
56.6509 813.00
56.7161 859.00
56.7813 793.00
56.8465 772.00
56.9117 714.00
56.9769 738.00
57.042 829.00
57.1073 1025.00
57.1724 1224.00
57.2376 1143.00
57.3028 984.00
57.368 1085.00
57.4332 993.00
57.4984 987.00
57.5636 1021.00
57.6288 1055.00
57.694 969.00
57.7592 921.00
57.8244 1047.00
57.8896 859.00
57.9548 799.00
58.02 693.00
58.0852 653.00
58.1504 597.00
58.2156 586.00
58.2808 558.00
58.346 497.00
58.4112 534.00
58.4764 527.00
58.5416 543.00
58.6068 602.00
58.672 648.00
58.7372 745.00
58.8024 766.00
58.8676 738.00
58.9328 728.00
58.998 708.00
59.0632 662.00
59.1284 707.00
59.1936 755.00
59.2588 721.00
59.324 763.00
59.3892 732.00
59.4544 715.00
59.5196 691.00
59.5848 673.00
59.65 751.00
59.7152 822.00
59.7804 916.00
59.8456 995.00
59.9108 957.00
59.976 886.00
60.0412 807.00
60.1064 709.00
60.1716 696.00
60.2368 689.00
60.302 629.00
60.3672 547.00
60.4324 549.00
60.4976 486.00
60.5628 530.00
60.628 599.00
60.6932 765.00
60.7584 824.00
60.8236 905.00
60.8888 1023.00
60.954 860.00
61.0192 803.00
61.0844 734.00
61.1496 706.00
61.2148 654.00
61.28 619.00
61.3452 594.00
61.4104 600.00
61.4756 541.00
61.5408 505.00
61.606 550.00
61.6712 464.00
61.7364 517.00
61.8016 460.00
61.8667 484.00
61.932 495.00
61.9971 475.00
62.0623 464.00
62.1275 504.00
62.1927 479.00
62.2579 500.00
62.3231 521.00
62.3883 546.00
62.4535 530.00
62.5187 530.00
62.5839 525.00
62.6491 571.00
62.7143 576.00
62.7795 527.00
62.8447 538.00
62.9099 565.00
62.9751 522.00
63.0403 592.00
63.1055 614.00
63.1707 666.00
63.2359 678.00
63.3011 719.00
63.3663 598.00
63.4315 651.00
63.4967 677.00
63.5619 615.00
63.6271 683.00
63.6923 718.00
63.7575 636.00
63.8227 628.00
63.8879 648.00
63.9531 595.00
64.0183 568.00
64.0835 520.00
64.1487 589.00
64.2139 596.00
64.2791 695.00
64.3443 638.00
64.4095 519.00
64.4747 545.00
64.5399 551.00
64.6051 499.00
64.6703 515.00
64.7355 696.00
64.8007 668.00
64.8659 808.00
64.9311 816.00
64.9963 680.00
65.0615 663.00
65.1267 586.00
65.1919 567.00
65.2571 566.00
65.3223 498.00
65.3875 516.00
65.4527 531.00
65.5179 653.00
65.5831 660.00
65.6483 717.00
65.7135 774.00
65.7787 818.00
65.8439 768.00
65.9091 672.00
65.9743 612.00
66.0395 620.00
66.1047 564.00
66.1699 624.00
66.2351 710.00
66.3003 788.00
66.3655 743.00
66.4307 664.00
66.4959 602.00
66.561 557.00
66.6263 510.00
66.6915 524.00
66.7566 564.00
66.8218 541.00
66.887 536.00
66.9522 475.00
67.0174 456.00
67.0826 469.00
67.1478 477.00
67.213 468.00
67.2782 487.00
67.3434 475.00
67.4086 456.00
67.4738 415.00
67.539 487.00
67.6042 527.00
67.6694 626.00
67.7346 667.00
67.7998 590.00
67.865 655.00
67.9302 600.00
67.9954 592.00
68.0606 525.00
68.1258 500.00
68.191 410.00
68.2562 407.00
68.3214 396.00
68.3866 371.00
68.4518 365.00
68.517 372.00
68.5822 351.00
68.6474 384.00
68.7126 374.00
68.7778 338.00
68.843 364.00
68.9082 336.00
68.9734 429.00
69.0386 453.00
69.1038 483.00
69.169 555.00
69.2342 596.00
69.2994 693.00
69.3646 704.00
69.4298 716.00
69.495 665.00
69.5602 635.00
69.6254 617.00
69.6906 595.00
69.7558 525.00
69.821 526.00
69.8862 478.00
69.9514 484.00
70.0166 459.00
70.0818 429.00
70.147 514.00
70.2122 453.00
70.2774 494.00
70.3426 541.00
70.4078 601.00
70.473 638.00
70.5382 594.00
70.6034 550.00
70.6686 613.00
70.7338 548.00
70.799 547.00
70.8642 529.00
70.9294 551.00
70.9946 489.00
71.0598 473.00
71.125 439.00
71.1902 428.00
71.2554 382.00
71.3205 378.00
71.3858 425.00
71.451 355.00
71.5162 381.00
71.5813 438.00
71.6465 434.00
71.7117 500.00
71.7769 559.00
71.8421 623.00
71.9073 637.00
71.9725 688.00
72.0377 659.00
72.1029 628.00
72.1681 550.00
72.2333 520.00
72.2985 480.00
72.3637 422.00
72.4289 350.00
72.4941 410.00
72.5593 416.00
72.6245 447.00
72.6897 485.00
72.7549 479.00
72.8201 507.00
72.8853 588.00
72.9505 573.00
73.0157 560.00
73.0809 576.00
73.1461 555.00
73.2113 523.00
73.2765 447.00
73.3417 470.00
73.4069 414.00
73.4721 429.00
73.5373 387.00
73.6025 394.00
73.6677 387.00
73.7329 366.00
73.7981 406.00
73.8633 387.00
73.9285 386.00
73.9937 377.00
74.0589 424.00
74.1241 423.00
74.1893 368.00
74.2545 357.00
74.3197 397.00
74.3849 392.00
74.4501 430.00
74.5153 416.00
74.5805 402.00
74.6457 378.00
74.7109 410.00
74.7761 362.00
74.8413 402.00
74.9065 407.00
74.9717 358.00
75.0369 376.00
75.1021 377.00
75.1673 421.00
75.2325 422.00
75.2977 445.00
75.3629 469.00
75.4281 408.00
75.4933 426.00
75.5585 413.00
75.6237 424.00
75.6889 404.00
75.7541 414.00
75.8193 395.00
75.8845 384.00
75.9497 421.00
76.0149 402.00
76.0801 461.00
76.1452 467.00
76.2104 469.00
76.2756 484.00
76.3409 488.00
76.406 467.00
76.4712 483.00
76.5364 454.00
76.6016 420.00
76.6668 374.00
76.732 399.00
76.7972 383.00
76.8624 366.00
76.9276 412.00
76.9928 451.00
77.058 458.00
77.1232 470.00
77.1884 439.00
77.2536 407.00
77.3188 471.00
77.384 485.00
77.4492 412.00
77.5144 418.00
77.5796 438.00
77.6448 454.00
77.71 418.00
77.7752 476.00
77.8404 437.00
77.9056 454.00
77.9708 447.00
78.036 463.00
78.1012 499.00
78.1664 506.00
78.2316 430.00
78.2968 460.00
78.362 441.00
78.4272 410.00
78.4924 397.00
78.5576 406.00
78.6228 424.00
78.688 391.00
78.7532 401.00
78.8184 365.00
78.8836 384.00
78.9488 403.00
79.014 399.00
79.0792 372.00
79.1444 424.00
79.2096 408.00
79.2748 404.00
79.34 370.00
79.4052 419.00
79.4704 431.00
79.5356 435.00
79.6008 486.00
79.666 486.00
79.7312 427.00
79.7964 453.00
79.8616 413.00
79.9268 344.00
79.992 377.00
80.0572 395.00
80.1224 367.00
80.1876 421.00
80.2528 519.00
80.318 482.00
80.3832 502.00
80.4484 489.00
80.5136 469.00
80.5788 491.00
80.644 474.00
80.7092 459.00
80.7744 448.00
80.8396 485.00
80.9048 420.00
80.9699 444.00
81.0351 464.00
81.1003 488.00
81.1655 481.00
81.2307 548.00
81.2959 551.00
81.3611 565.00
81.4263 526.00
81.4915 514.00
81.5567 535.00
81.6219 491.00
81.6871 523.00
81.7523 493.00
81.8175 473.00
81.8827 406.00
81.9479 415.00
82.0131 418.00
82.0783 400.00
82.1435 362.00
82.2087 409.00
82.2739 373.00
82.3391 357.00
82.4043 379.00
82.4695 386.00
82.5347 365.00
82.5999 334.00
82.6651 345.00
82.7303 352.00
82.7955 321.00
82.8607 349.00
82.9259 308.00
82.9911 311.00
83.0563 336.00
83.1215 337.00
83.1867 327.00
83.2519 381.00
83.3171 405.00
83.3823 405.00
83.4475 456.00
83.5127 434.00
83.5779 469.00
83.6431 389.00
83.7083 403.00
83.7735 404.00
83.8387 415.00
83.9039 448.00
83.9691 517.00
84.0343 498.00
84.0995 450.00
84.1647 456.00
84.2299 450.00
84.2951 461.00
84.3603 416.00
84.4255 406.00
84.4907 406.00
84.5559 390.00
84.6211 420.00
84.6863 433.00
84.7515 405.00
84.8167 378.00
84.8819 438.00
84.9471 431.00
85.0123 466.00
85.0775 443.00
85.1427 484.00
85.2079 422.00
85.2731 405.00
85.3383 430.00
85.4035 383.00
85.4687 380.00
85.5339 352.00
85.5991 395.00
85.6643 392.00
85.7295 337.00
85.7946 398.00
85.8598 359.00
85.925 375.00
85.9903 383.00
86.0554 413.00
86.1206 362.00
86.1858 448.00
86.251 443.00
86.3162 404.00
86.3814 469.00
86.4466 366.00
86.5118 419.00
86.577 430.00
86.6422 432.00
86.7074 427.00
86.7726 437.00
86.8378 424.00
86.903 454.00
86.9682 383.00
87.0334 400.00
87.0986 386.00
87.1638 352.00
87.229 420.00
87.2942 400.00
87.3594 373.00
87.4246 375.00
87.4898 436.00
87.555 402.00
87.6202 392.00
87.6854 425.00
87.7506 435.00
87.8158 406.00
87.881 355.00
87.9462 375.00
88.0114 413.00
88.0766 367.00
88.1418 390.00
88.207 453.00
88.2722 411.00
88.3374 437.00
88.4026 454.00
88.4678 434.00
88.533 438.00
88.5982 397.00
88.6634 449.00
88.7286 396.00
88.7938 405.00
88.859 400.00
88.9242 406.00
88.9894 407.00
89.0546 371.00
89.1198 427.00
89.185 422.00
89.2502 370.00
89.3154 380.00
89.3806 343.00
89.4458 354.00
89.511 335.00
89.5762 331.00
89.6414 363.00
89.7066 367.00
89.7718 360.00
89.837 343.00
89.9022 344.00
89.9674 332.00
90.0326 337.00
90.0978 339.00
90.163 356.00
90.2282 378.00
90.2934 411.00
90.3586 393.00
90.4238 437.00
90.489 389.00
90.5542 402.00
90.6193 414.00
90.6845 418.00
90.7497 388.00
90.8149 367.00
90.8801 380.00
90.9453 340.00
91.0105 308.00
91.0757 332.00
91.1409 321.00
91.2061 325.00
91.2713 369.00
91.3365 332.00
91.4017 327.00
91.4669 353.00
91.5321 343.00
91.5973 358.00
91.6625 356.00
91.7277 378.00
91.7929 362.00
91.8581 333.00
91.9233 414.00
91.9885 411.00
92.0537 417.00
92.1189 364.00
92.1841 384.00
92.2493 391.00
92.3145 396.00
92.3797 357.00
92.4449 368.00
92.5101 396.00
92.5753 364.00
92.6405 373.00
92.7057 406.00
92.7709 389.00
92.8361 378.00
92.9013 354.00
92.9665 389.00
93.0317 392.00
93.0969 372.00
93.1621 371.00
93.2273 378.00
93.2925 346.00
93.3577 391.00
93.4229 368.00
93.4881 431.00
93.5533 385.00
93.6185 348.00
93.6837 346.00
93.7489 405.00
93.8141 365.00
93.8793 403.00
93.9445 409.00
94.0097 347.00
94.0749 383.00
94.1401 381.00
94.2053 358.00
94.2705 353.00
94.3357 336.00
94.4009 319.00
94.4661 323.00
94.5313 364.00
94.5965 329.00
94.6617 386.00
94.7269 429.00
94.7921 444.00
94.8573 472.00
94.9225 482.00
94.9877 452.00
95.0529 427.00
95.1181 498.00
95.1833 566.00
95.2485 480.00
95.3137 452.00
95.3789 472.00
95.444 519.00
95.5092 482.00
95.5744 475.00
95.6396 473.00
95.7048 453.00
95.77 439.00
95.8352 447.00
95.9004 392.00
95.9656 399.00
96.0308 381.00
96.096 395.00
96.1612 421.00
96.2264 472.00
96.2916 412.00
96.3568 418.00
96.422 403.00
96.4872 383.00
96.5524 368.00
96.6176 364.00
96.6828 364.00
96.748 340.00
96.8132 374.00
96.8784 335.00
96.9436 359.00
97.0088 309.00
97.074 363.00
97.1392 322.00
97.2044 341.00
97.2696 345.00
97.3348 342.00
97.4 385.00
97.4652 303.00
97.5304 325.00
97.5956 302.00
97.6608 306.00
97.726 327.00
97.7912 294.00
97.8564 333.00
97.9216 310.00
97.9868 358.00
98.052 369.00
98.1172 342.00
98.1824 357.00
98.2476 363.00
98.3128 338.00
98.378 330.00
98.4432 346.00
98.5084 347.00
98.5736 351.00
98.6388 352.00
98.704 323.00
98.7692 354.00
98.8344 348.00
98.8996 336.00
98.9648 357.00
99.03 329.00
99.0952 376.00
99.1604 354.00
99.2256 369.00
99.2908 392.00
99.356 373.00
99.4212 361.00
99.4864 328.00
99.5516 346.00
99.6168 350.00
99.682 373.00
99.7472 379.00
99.8124 376.00
99.8776 356.00
99.9428 327.00
100.008 388.00
100.073 332.00
100.095 390.00