File: data/xrd_creation/results/Na_-9.xy
9.903433 2679.00
9.968632 2664.00
10.0338 2532.00
10.099 2593.00
10.1642 2561.00
10.2294 2558.00
10.2946 2563.00
10.3598 2541.00
10.425 2419.00
10.4902 2413.00
10.5554 2399.00
10.6206 2509.00
10.6858 2367.00
10.751 2410.00
10.8162 2371.00
10.8814 2291.00
10.9466 2288.00
11.0118 2362.00
11.077 2211.00
11.1422 2229.00
11.2074 2109.00
11.2726 2261.00
11.3378 2111.00
11.403 2220.00
11.4682 2140.00
11.5334 2111.00
11.5986 2089.00
11.6638 2067.00
11.729 2088.00
11.7942 2032.00
11.8594 2156.00
11.9246 1984.00
11.9898 1915.00
12.055 1976.00
12.1202 1949.00
12.1854 1931.00
12.2506 1911.00
12.3158 1962.00
12.381 1914.00
12.4462 1882.00
12.5114 1875.00
12.5766 1869.00
12.6418 1781.00
12.707 1872.00
12.7722 1739.00
12.8374 1794.00
12.9026 1802.00
12.9678 1865.00
13.033 1717.00
13.0982 1784.00
13.1634 1745.00
13.2286 1700.00
13.2938 1684.00
13.359 1730.00
13.4242 1606.00
13.4894 1636.00
13.5546 1647.00
13.6198 1654.00
13.685 1615.00
13.7502 1551.00
13.8154 1568.00
13.8805 1622.00
13.9457 1517.00
14.0109 1642.00
14.0761 1560.00
14.1413 1592.00
14.2065 1594.00
14.2717 1539.00
14.3369 1543.00
14.4021 1483.00
14.4673 1483.00
14.5325 1523.00
14.5977 1488.00
14.6629 1502.00
14.7281 1415.00
14.7933 1540.00
14.8585 1504.00
14.9237 1465.00
14.9889 1498.00
15.0541 1461.00
15.1193 1424.00
15.1845 1448.00
15.2497 1409.00
15.3149 1517.00
15.3801 1378.00
15.4453 1443.00
15.5105 1413.00
15.5757 1391.00
15.6409 1463.00
15.7061 1393.00
15.7713 1411.00
15.8365 1397.00
15.9017 1339.00
15.9669 1312.00
16.0321 1403.00
16.0973 1345.00
16.1625 1325.00
16.2277 1394.00
16.2929 1394.00
16.3581 1339.00
16.4233 1349.00
16.4885 1290.00
16.5537 1312.00
16.6189 1337.00
16.6841 1332.00
16.7493 1311.00
16.8145 1267.00
16.8797 1375.00
16.9449 1273.00
17.0101 1291.00
17.0753 1365.00
17.1405 1259.00
17.2057 1248.00
17.2709 1276.00
17.3361 1231.00
17.4013 1216.00
17.4665 1219.00
17.5317 1283.00
17.5969 1214.00
17.6621 1174.00
17.7273 1188.00
17.7925 1215.00
17.8577 1146.00
17.9229 1239.00
17.9881 1142.00
18.0533 1226.00
18.1185 1199.00
18.1837 1166.00
18.2489 1227.00
18.3141 1105.00
18.3793 1214.00
18.4445 1237.00
18.5097 1216.00
18.5749 1152.00
18.6401 1191.00
18.7052 1165.00
18.7704 1142.00
18.8356 1084.00
18.9008 1121.00
18.966 1202.00
19.0312 1113.00
19.0964 1165.00
19.1616 1076.00
19.2268 1092.00
19.292 1061.00
19.3572 1085.00
19.4224 1100.00
19.4876 1060.00
19.5528 1104.00
19.618 1082.00
19.6832 1053.00
19.7484 1082.00
19.8136 1033.00
19.8788 1062.00
19.944 1156.00
20.0092 1064.00
20.0744 1011.00
20.1396 1024.00
20.2048 1100.00
20.27 1066.00
20.3352 1056.00
20.4004 1011.00
20.4656 1012.00
20.5308 1009.00
20.596 1002.00
20.6612 986.00
20.7264 988.00
20.7916 1002.00
20.8568 1048.00
20.922 1000.00
20.9872 998.00
21.0524 1046.00
21.1176 958.00
21.1828 959.00
21.248 954.00
21.3132 966.00
21.3784 1016.00
21.4436 937.00
21.5088 893.00
21.574 955.00
21.6392 912.00
21.7044 965.00
21.7696 975.00
21.8348 953.00
21.9 965.00
21.9652 972.00
22.0304 946.00
22.0956 941.00
22.1608 910.00
22.226 926.00
22.2912 925.00
22.3564 932.00
22.4216 967.00
22.4868 887.00
22.552 914.00
22.6172 961.00
22.6824 880.00
22.7476 946.00
22.8128 930.00
22.878 873.00
22.9432 885.00
23.0084 847.00
23.0736 929.00
23.1388 895.00
23.204 850.00
23.2692 912.00
23.3344 883.00
23.3996 919.00
23.4647 981.00
23.5299 871.00
23.5951 881.00
23.6603 896.00
23.7255 880.00
23.7907 856.00
23.8559 907.00
23.9211 875.00
23.9863 865.00
24.0515 878.00
24.1167 820.00
24.1819 906.00
24.2471 902.00
24.3123 848.00
24.3775 823.00
24.4427 829.00
24.5079 823.00
24.5731 801.00
24.6383 855.00
24.7035 885.00
24.7687 809.00
24.8339 749.00
24.8991 778.00
24.9643 812.00
25.0295 832.00
25.0947 804.00
25.1599 855.00
25.2251 819.00
25.2903 834.00
25.3555 846.00
25.4207 801.00
25.4859 833.00
25.5511 813.00
25.6163 797.00
25.6815 850.00
25.7467 834.00
25.8119 816.00
25.8771 811.00
25.9423 862.00
26.0075 826.00
26.0727 809.00
26.1379 816.00
26.2031 817.00
26.2683 898.00
26.3335 907.00
26.3987 1025.00
26.4639 1032.00
26.5291 919.00
26.5943 828.00
26.6595 822.00
26.7247 785.00
26.7899 738.00
26.8551 744.00
26.9203 748.00
26.9855 769.00
27.0507 755.00
27.1159 759.00
27.1811 748.00
27.2463 740.00
27.3115 704.00
27.3767 771.00
27.4419 699.00
27.5071 786.00
27.5723 754.00
27.6375 760.00
27.7027 731.00
27.7679 791.00
27.8331 819.00
27.8983 832.00
27.9635 883.00
28.0287 858.00
28.0939 878.00
28.1591 815.00
28.2243 690.00
28.2894 774.00
28.3546 762.00
28.4198 755.00
28.485 720.00
28.5502 719.00
28.6154 708.00
28.6806 688.00
28.7458 709.00
28.811 720.00
28.8762 789.00
28.9414 868.00
29.0066 838.00
29.0718 752.00
29.137 694.00
29.2022 734.00
29.2674 735.00
29.3326 707.00
29.3978 741.00
29.463 688.00
29.5282 756.00
29.5934 677.00
29.6586 676.00
29.7238 678.00
29.789 703.00
29.8542 705.00
29.9194 674.00
29.9846 725.00
30.0498 706.00
30.115 712.00
30.1802 705.00
30.2454 677.00
30.3106 748.00
30.3758 885.00
30.441 876.00
30.5062 789.00
30.5714 690.00
30.6366 715.00
30.7018 633.00
30.767 603.00
30.8322 681.00
30.8974 654.00
30.9626 620.00
31.0278 644.00
31.093 664.00
31.1582 671.00
31.2234 744.00
31.2886 773.00
31.3538 751.00
31.419 677.00
31.4842 593.00
31.5494 660.00
31.6146 617.00
31.6798 647.00
31.745 630.00
31.8102 593.00
31.8754 653.00
31.9406 644.00
32.0058 641.00
32.071 586.00
32.1362 636.00
32.2014 629.00
32.2666 592.00
32.3318 600.00
32.397 534.00
32.4622 620.00
32.5274 585.00
32.5926 626.00
32.6578 605.00
32.723 634.00
32.7882 627.00
32.8534 637.00
32.9186 607.00
32.9838 607.00
33.0489 610.00
33.1141 567.00
33.1793 515.00
33.2445 612.00
33.3097 566.00
33.3749 608.00
33.4401 564.00
33.5053 591.00
33.5705 650.00
33.6357 670.00
33.7009 784.00
33.7661 747.00
33.8313 743.00
33.8965 647.00
33.9617 548.00
34.0269 577.00
34.0921 564.00
34.1573 611.00
34.2225 513.00
34.2877 547.00
34.3529 569.00
34.4181 548.00
34.4833 528.00
34.5485 560.00
34.6137 548.00
34.6789 520.00
34.7441 541.00
34.8093 496.00
34.8745 517.00
34.9397 540.00
35.0049 542.00
35.0701 575.00
35.1353 502.00
35.2005 517.00
35.2657 583.00
35.3309 564.00
35.3961 524.00
35.4613 507.00
35.5265 526.00
35.5917 502.00
35.6569 505.00
35.7221 519.00
35.7873 476.00
35.8525 496.00
35.9177 514.00
35.9829 473.00
36.0481 475.00
36.1133 455.00
36.1785 503.00
36.2437 471.00
36.3089 465.00
36.3741 500.00
36.4393 510.00
36.5045 501.00
36.5697 520.00
36.6349 522.00
36.7001 498.00
36.7653 475.00
36.8305 512.00
36.8957 567.00
36.9609 501.00
37.0261 551.00
37.0913 519.00
37.1565 581.00
37.2217 499.00
37.2869 495.00
37.3521 495.00
37.4173 475.00
37.4825 533.00
37.5477 479.00
37.6129 466.00
37.6781 471.00
37.7433 507.00
37.8085 552.00
37.8736 460.00
37.9388 465.00
38.004 467.00
38.0692 490.00
38.1344 453.00
38.1996 472.00
38.2648 492.00
38.33 454.00
38.3952 464.00
38.4604 493.00
38.5256 457.00
38.5908 434.00
38.656 459.00
38.7212 461.00
38.7864 433.00
38.8516 468.00
38.9168 417.00
38.982 420.00
39.0472 421.00
39.1124 441.00
39.1776 418.00
39.2428 427.00
39.308 400.00
39.3732 435.00
39.4384 399.00
39.5036 418.00
39.5688 424.00
39.634 450.00
39.6992 427.00
39.7644 383.00
39.8296 407.00
39.8948 427.00
39.96 403.00
40.0252 389.00
40.0904 412.00
40.1556 416.00
40.2208 427.00
40.286 444.00
40.3512 399.00
40.4164 430.00
40.4816 429.00
40.5468 427.00
40.612 407.00
40.6772 417.00
40.7424 433.00
40.8076 432.00
40.8728 431.00
40.938 400.00
41.0032 413.00
41.0684 410.00
41.1336 431.00
41.1988 366.00
41.264 438.00
41.3292 390.00
41.3944 441.00
41.4596 414.00
41.5248 429.00
41.59 421.00
41.6552 424.00
41.7204 455.00
41.7856 402.00
41.8508 436.00
41.916 393.00
41.9812 406.00
42.0464 391.00
42.1116 390.00
42.1768 368.00
42.242 376.00
42.3072 433.00
42.3724 399.00
42.4376 391.00
42.5028 389.00
42.568 394.00
42.6332 385.00
42.6983 429.00
42.7635 451.00
42.8287 433.00
42.8939 470.00
42.9591 500.00
43.0243 607.00
43.0895 532.00
43.1547 549.00
43.2199 521.00
43.2851 467.00
43.3503 490.00
43.4155 442.00
43.4807 397.00
43.5459 392.00
43.6111 398.00
43.6763 369.00
43.7415 398.00
43.8067 332.00
43.8719 377.00
43.9371 369.00
44.0023 368.00
44.0675 365.00
44.1327 375.00
44.1979 347.00
44.2631 369.00
44.3283 331.00
44.3935 371.00
44.4587 365.00
44.5239 386.00
44.5891 346.00
44.6543 359.00
44.7195 382.00
44.7847 395.00
44.8499 386.00
44.9151 369.00
44.9803 390.00
45.0455 361.00
45.1107 382.00
45.1759 348.00
45.2411 368.00
45.3063 368.00
45.3715 363.00
45.4367 357.00
45.5019 427.00
45.5671 394.00
45.6323 398.00
45.6975 362.00
45.7627 373.00
45.8279 361.00
45.8931 359.00
45.9583 377.00
46.0235 343.00
46.0887 357.00
46.1539 351.00
46.2191 363.00
46.2843 363.00
46.3495 328.00
46.4147 388.00
46.4799 347.00
46.5451 354.00
46.6103 374.00
46.6755 310.00
46.7407 339.00
46.8059 338.00
46.8711 354.00
46.9363 355.00
47.0015 329.00
47.0667 363.00
47.1319 354.00
47.1971 356.00
47.2623 355.00
47.3275 349.00
47.3927 358.00
47.4579 355.00
47.523 360.00
47.5882 344.00
47.6534 313.00
47.7186 365.00
47.7838 344.00
47.849 334.00
47.9142 302.00
47.9794 362.00
48.0446 314.00
48.1098 356.00
48.175 337.00
48.2402 344.00
48.3054 383.00
48.3706 390.00
48.4358 360.00
48.501 384.00
48.5662 340.00
48.6314 346.00
48.6966 324.00
48.7618 354.00
48.827 329.00
48.8922 343.00
48.9574 331.00
49.0226 337.00
49.0878 378.00
49.153 365.00
49.2182 363.00
49.2834 379.00
49.3486 337.00
49.4138 346.00
49.479 311.00
49.5442 366.00
49.6094 321.00
49.6746 330.00
49.7398 322.00
49.805 327.00
49.8702 335.00
49.9354 371.00
50.0006 376.00
50.0658 320.00
50.131 344.00
50.1962 321.00
50.2614 356.00
50.3266 308.00
50.3918 345.00
50.457 369.00
50.5222 329.00
50.5874 300.00
50.6526 340.00
50.7178 329.00
50.783 347.00
50.8482 365.00
50.9134 342.00
50.9786 349.00
51.0438 363.00
51.109 293.00
51.1742 330.00
51.2394 335.00
51.3046 359.00
51.3698 339.00
51.435 397.00
51.5002 402.00
51.5654 454.00
51.6306 475.00
51.6958 431.00
51.761 461.00
51.8262 368.00
51.8914 336.00
51.9566 332.00
52.0218 293.00
52.087 323.00
52.1522 336.00
52.2174 312.00
52.2826 320.00
52.3477 294.00
52.4129 320.00
52.4781 336.00
52.5433 320.00
52.6085 310.00
52.6737 299.00
52.7389 294.00
52.8041 354.00
52.8693 321.00
52.9345 324.00
52.9997 310.00
53.0649 292.00
53.1301 298.00
53.1953 307.00
53.2605 303.00
53.3257 330.00
53.3909 350.00
53.4561 344.00
53.5213 301.00
53.5865 326.00
53.6517 305.00
53.7169 313.00
53.7821 325.00
53.8473 342.00
53.9125 304.00
53.9777 336.00
54.0429 317.00
54.1081 321.00
54.1733 296.00
54.2385 291.00
54.3037 327.00
54.3689 309.00
54.4341 307.00
54.4993 288.00
54.5645 338.00
54.6297 330.00
54.6949 300.00
54.7601 332.00
54.8253 320.00
54.8905 300.00
54.9557 354.00
55.0209 311.00
55.0861 292.00
55.1513 305.00
55.2165 297.00
55.2817 329.00
55.3469 323.00
55.4121 344.00
55.4773 333.00
55.5425 288.00
55.6077 304.00
55.6729 261.00
55.7381 299.00
55.8033 308.00
55.8685 306.00
55.9337 288.00
55.9989 335.00
56.0641 315.00
56.1293 268.00
56.1945 320.00
56.2597 281.00
56.3249 303.00
56.3901 286.00
56.4553 306.00
56.5205 289.00
56.5857 305.00
56.6509 301.00
56.7161 260.00
56.7813 274.00
56.8465 292.00
56.9117 279.00
56.9769 304.00
57.042 295.00
57.1073 313.00
57.1724 313.00
57.2376 281.00
57.3028 289.00
57.368 301.00
57.4332 361.00
57.4984 324.00
57.5636 363.00
57.6288 299.00
57.694 306.00
57.7592 281.00
57.8244 291.00
57.8896 277.00
57.9548 242.00
58.02 286.00
58.0852 240.00
58.1504 279.00
58.2156 270.00
58.2808 283.00
58.346 275.00
58.4112 220.00
58.4764 277.00
58.5416 271.00
58.6068 243.00
58.672 286.00
58.7372 257.00
58.8024 271.00
58.8676 262.00
58.9328 281.00
58.998 281.00
59.0632 273.00
59.1284 276.00
59.1936 246.00
59.2588 263.00
59.324 271.00
59.3892 265.00
59.4544 272.00
59.5196 269.00
59.5848 265.00
59.65 277.00
59.7152 286.00
59.7804 280.00
59.8456 276.00
59.9108 309.00
59.976 289.00
60.0412 242.00
60.1064 302.00
60.1716 245.00
60.2368 277.00
60.302 288.00
60.3672 287.00
60.4324 276.00
60.4976 274.00
60.5628 291.00
60.628 273.00
60.6932 267.00
60.7584 311.00
60.8236 267.00
60.8888 277.00
60.954 231.00
61.0192 247.00
61.0844 249.00
61.1496 226.00
61.2148 262.00
61.28 259.00
61.3452 265.00
61.4104 276.00
61.4756 237.00
61.5408 233.00
61.606 250.00
61.6712 230.00
61.7364 273.00
61.8016 286.00
61.8667 278.00
61.932 264.00
61.9971 280.00
62.0623 260.00
62.1275 265.00
62.1927 244.00
62.2579 283.00
62.3231 276.00
62.3883 267.00
62.4535 286.00
62.5187 312.00
62.5839 317.00
62.6491 309.00
62.7143 322.00
62.7795 309.00
62.8447 300.00
62.9099 284.00
62.9751 269.00
63.0403 256.00
63.1055 281.00
63.1707 297.00
63.2359 258.00
63.3011 250.00
63.3663 257.00
63.4315 271.00
63.4967 242.00
63.5619 262.00
63.6271 239.00
63.6923 270.00
63.7575 234.00
63.8227 224.00
63.8879 237.00
63.9531 250.00
64.0183 264.00
64.0835 239.00
64.1487 271.00
64.2139 285.00
64.2791 228.00
64.3443 242.00
64.4095 243.00
64.4747 263.00
64.5399 242.00
64.6051 264.00
64.6703 285.00
64.7355 269.00
64.8007 250.00
64.8659 234.00
64.9311 231.00
64.9963 264.00
65.0615 246.00
65.1267 248.00
65.1919 243.00
65.2571 248.00
65.3223 243.00
65.3875 265.00
65.4527 247.00
65.5179 262.00
65.5831 269.00
65.6483 273.00
65.7135 281.00
65.7787 267.00
65.8439 291.00
65.9091 262.00
65.9743 258.00
66.0395 267.00
66.1047 260.00
66.1699 271.00
66.2351 266.00
66.3003 231.00
66.3655 257.00
66.4307 249.00
66.4959 213.00
66.561 231.00
66.6263 259.00
66.6915 237.00
66.7566 262.00
66.8218 217.00
66.887 250.00
66.9522 236.00
67.0174 216.00
67.0826 261.00
67.1478 213.00
67.213 227.00
67.2782 239.00
67.3434 199.00
67.4086 239.00
67.4738 249.00
67.539 229.00
67.6042 271.00
67.6694 265.00
67.7346 258.00
67.7998 232.00
67.865 238.00
67.9302 216.00
67.9954 221.00
68.0606 224.00
68.1258 207.00
68.191 261.00
68.2562 204.00
68.3214 232.00
68.3866 242.00
68.4518 221.00
68.517 200.00
68.5822 242.00
68.6474 247.00
68.7126 214.00
68.7778 241.00
68.843 239.00
68.9082 247.00
68.9734 264.00
69.0386 212.00
69.1038 199.00
69.169 233.00
69.2342 245.00
69.2994 261.00
69.3646 234.00
69.4298 263.00
69.495 264.00
69.5602 264.00
69.6254 245.00
69.6906 247.00
69.7558 230.00
69.821 212.00
69.8862 234.00
69.9514 224.00
70.0166 232.00
70.0818 233.00
70.147 230.00
70.2122 216.00
70.2774 224.00
70.3426 226.00
70.4078 240.00
70.473 219.00
70.5382 256.00
70.6034 245.00
70.6686 225.00
70.7338 236.00
70.799 239.00
70.8642 214.00
70.9294 256.00
70.9946 260.00
71.0598 237.00
71.125 230.00
71.1902 256.00
71.2554 210.00
71.3205 243.00
71.3858 256.00
71.451 239.00
71.5162 220.00
71.5813 222.00
71.6465 211.00
71.7117 228.00
71.7769 211.00
71.8421 215.00
71.9073 230.00
71.9725 248.00
72.0377 237.00
72.1029 243.00
72.1681 249.00
72.2333 284.00
72.2985 233.00
72.3637 229.00
72.4289 283.00
72.4941 256.00
72.5593 249.00
72.6245 230.00
72.6897 245.00
72.7549 257.00
72.8201 248.00
72.8853 258.00
72.9505 248.00
73.0157 218.00
73.0809 208.00
73.1461 204.00
73.2113 271.00
73.2765 214.00
73.3417 263.00
73.4069 232.00
73.4721 222.00
73.5373 243.00
73.6025 225.00
73.6677 225.00
73.7329 246.00
73.7981 247.00
73.8633 230.00
73.9285 226.00
73.9937 229.00
74.0589 261.00
74.1241 256.00
74.1893 263.00
74.2545 232.00
74.3197 231.00
74.3849 264.00
74.4501 250.00
74.5153 250.00
74.5805 267.00
74.6457 233.00
74.7109 240.00
74.7761 269.00
74.8413 223.00
74.9065 301.00
74.9717 266.00
75.0369 240.00
75.1021 245.00
75.1673 259.00
75.2325 242.00
75.2977 271.00
75.3629 233.00
75.4281 232.00
75.4933 256.00
75.5585 242.00
75.6237 265.00
75.6889 216.00
75.7541 246.00
75.8193 273.00
75.8845 230.00
75.9497 269.00
76.0149 284.00
76.0801 241.00
76.1452 274.00
76.2104 263.00
76.2756 247.00
76.3409 243.00
76.406 218.00
76.4712 232.00
76.5364 239.00
76.6016 248.00
76.6668 227.00
76.732 270.00
76.7972 269.00
76.8624 234.00
76.9276 248.00
76.9928 211.00
77.058 268.00
77.1232 236.00
77.1884 256.00
77.2536 244.00
77.3188 264.00
77.384 229.00
77.4492 290.00
77.5144 235.00
77.5796 231.00
77.6448 270.00
77.71 240.00
77.7752 256.00
77.8404 271.00
77.9056 262.00
77.9708 243.00
78.036 238.00
78.1012 249.00
78.1664 235.00
78.2316 242.00
78.2968 264.00
78.362 270.00
78.4272 276.00
78.4924 274.00
78.5576 283.00
78.6228 240.00
78.688 301.00
78.7532 283.00
78.8184 283.00
78.8836 279.00
78.9488 263.00
79.014 279.00
79.0792 273.00
79.1444 243.00
79.2096 265.00
79.2748 275.00
79.34 271.00
79.4052 242.00
79.4704 259.00
79.5356 263.00
79.6008 289.00
79.666 280.00
79.7312 263.00
79.7964 277.00
79.8616 297.00
79.9268 283.00
79.992 266.00
80.0572 230.00
80.1224 232.00
80.1876 246.00
80.2528 272.00
80.318 235.00
80.3832 273.00
80.4484 282.00
80.5136 263.00
80.5788 291.00
80.644 292.00
80.7092 269.00
80.7744 298.00
80.8396 303.00
80.9048 273.00
80.9699 249.00
81.0351 249.00
81.1003 242.00
81.1655 241.00
81.2307 262.00
81.2959 307.00
81.3611 291.00
81.4263 279.00
81.4915 260.00
81.5567 251.00
81.6219 243.00
81.6871 242.00
81.7523 275.00
81.8175 244.00
81.8827 261.00
81.9479 277.00
82.0131 227.00
82.0783 298.00
82.1435 296.00
82.2087 266.00
82.2739 271.00
82.3391 285.00
82.4043 261.00
82.4695 286.00
82.5347 265.00
82.5999 267.00
82.6651 256.00
82.7303 310.00
82.7955 250.00
82.8607 278.00
82.9259 280.00
82.9911 264.00
83.0563 263.00
83.1215 259.00
83.1867 248.00
83.2519 246.00
83.3171 295.00
83.3823 245.00
83.4475 276.00
83.5127 283.00
83.5779 288.00
83.6431 237.00
83.7083 247.00
83.7735 278.00
83.8387 259.00
83.9039 280.00
83.9691 278.00
84.0343 273.00
84.0995 280.00
84.1647 280.00
84.2299 295.00
84.2951 271.00
84.3603 242.00
84.4255 268.00
84.4907 272.00
84.5559 238.00
84.6211 263.00
84.6863 268.00
84.7515 256.00
84.8167 285.00
84.8819 224.00
84.9471 262.00
85.0123 260.00
85.0775 243.00
85.1427 244.00
85.2079 265.00
85.2731 257.00
85.3383 245.00
85.4035 234.00
85.4687 237.00
85.5339 239.00
85.5991 209.00
85.6643 269.00
85.7295 248.00
85.7946 236.00
85.8598 219.00
85.925 267.00
85.9903 219.00
86.0554 208.00
86.1206 230.00
86.1858 233.00
86.251 228.00
86.3162 268.00
86.3814 257.00
86.4466 246.00
86.5118 238.00
86.577 231.00
86.6422 234.00
86.7074 227.00
86.7726 238.00
86.8378 261.00
86.903 262.00
86.9682 225.00
87.0334 217.00
87.0986 237.00
87.1638 238.00
87.229 233.00
87.2942 205.00
87.3594 229.00
87.4246 227.00
87.4898 239.00
87.555 225.00
87.6202 231.00
87.6854 239.00
87.7506 232.00
87.8158 234.00
87.881 246.00
87.9462 206.00
88.0114 216.00
88.0766 225.00
88.1418 222.00
88.207 228.00
88.2722 237.00
88.3374 220.00
88.4026 232.00
88.4678 229.00
88.533 233.00
88.5982 245.00
88.6634 234.00
88.7286 227.00
88.7938 229.00
88.859 240.00
88.9242 203.00
88.9894 227.00
89.0546 202.00
89.1198 212.00
89.185 220.00
89.2502 228.00
89.3154 249.00
89.3806 242.00
89.4458 242.00
89.511 242.00
89.5762 228.00
89.6414 220.00
89.7066 234.00
89.7718 264.00
89.837 217.00
89.9022 220.00
89.9674 225.00
90.0326 241.00
90.0978 224.00
90.163 217.00
90.2282 238.00
90.2934 228.00
90.3586 202.00
90.4238 218.00
90.489 223.00
90.5542 246.00
90.6193 228.00
90.6845 221.00
90.7497 243.00
90.8149 268.00
90.8801 211.00
90.9453 269.00
91.0105 234.00
91.0757 233.00
91.1409 219.00
91.2061 238.00
91.2713 220.00
91.3365 228.00
91.4017 229.00
91.4669 229.00
91.5321 243.00
91.5973 234.00
91.6625 228.00
91.7277 207.00
91.7929 234.00
91.8581 208.00
91.9233 223.00
91.9885 209.00
92.0537 239.00
92.1189 235.00
92.1841 197.00
92.2493 228.00
92.3145 235.00
92.3797 231.00
92.4449 229.00
92.5101 208.00
92.5753 230.00
92.6405 195.00
92.7057 218.00
92.7709 189.00
92.8361 222.00
92.9013 259.00
92.9665 202.00
93.0317 248.00
93.0969 199.00
93.1621 215.00
93.2273 199.00
93.2925 233.00
93.3577 237.00
93.4229 209.00
93.4881 231.00
93.5533 220.00
93.6185 246.00
93.6837 217.00
93.7489 218.00
93.8141 215.00
93.8793 225.00
93.9445 223.00
94.0097 209.00
94.0749 230.00
94.1401 207.00
94.2053 233.00
94.2705 200.00
94.3357 222.00
94.4009 208.00
94.4661 197.00
94.5313 214.00
94.5965 198.00
94.6617 225.00
94.7269 237.00
94.7921 206.00
94.8573 208.00
94.9225 216.00
94.9877 225.00
95.0529 219.00
95.1181 193.00
95.1833 191.00
95.2485 199.00
95.3137 240.00
95.3789 231.00
95.444 218.00
95.5092 227.00
95.5744 211.00
95.6396 238.00
95.7048 235.00
95.77 219.00
95.8352 235.00
95.9004 236.00
95.9656 223.00
96.0308 188.00
96.096 205.00
96.1612 211.00
96.2264 201.00
96.2916 216.00
96.3568 221.00
96.422 239.00
96.4872 237.00
96.5524 221.00
96.6176 207.00
96.6828 231.00
96.748 209.00
96.8132 236.00
96.8784 200.00
96.9436 206.00
97.0088 227.00
97.074 212.00
97.1392 244.00
97.2044 247.00
97.2696 201.00
97.3348 195.00
97.4 219.00
97.4652 258.00
97.5304 213.00
97.5956 213.00
97.6608 242.00
97.726 239.00
97.7912 225.00
97.8564 205.00
97.9216 216.00
97.9868 225.00
98.052 229.00
98.1172 232.00
98.1824 224.00
98.2476 245.00
98.3128 204.00
98.378 221.00
98.4432 205.00
98.5084 210.00
98.5736 222.00
98.6388 214.00
98.704 197.00
98.7692 248.00
98.8344 238.00
98.8996 228.00
98.9648 212.00
99.03 212.00
99.0952 232.00
99.1604 227.00
99.2256 207.00
99.2908 203.00
99.356 256.00
99.4212 243.00
99.4864 245.00
99.5516 217.00
99.6168 235.00
99.682 223.00
99.7472 244.00
99.8124 207.00
99.8776 227.00
99.9428 235.00
100.008 183.00
100.073 235.00
100.095 226.00