File: data/xrd_creation/results/Na_-1.xy
9.903433 2794.00
9.968632 2720.00
10.0338 2658.00
10.099 2625.00
10.1642 2780.00
10.2294 2602.00
10.2946 2557.00
10.3598 2576.00
10.425 2651.00
10.4902 2519.00
10.5554 2509.00
10.6206 2603.00
10.6858 2514.00
10.751 2591.00
10.8162 2492.00
10.8814 2562.00
10.9466 2406.00
11.0118 2384.00
11.077 2435.00
11.1422 2403.00
11.2074 2302.00
11.2726 2385.00
11.3378 2314.00
11.403 2321.00
11.4682 2332.00
11.5334 2301.00
11.5986 2338.00
11.6638 2396.00
11.729 2496.00
11.7942 2342.00
11.8594 2185.00
11.9246 2186.00
11.9898 2214.00
12.055 2057.00
12.1202 2065.00
12.1854 2086.00
12.2506 2117.00
12.3158 2025.00
12.381 2070.00
12.4462 2042.00
12.5114 2032.00
12.5766 2044.00
12.6418 2113.00
12.707 2104.00
12.7722 2072.00
12.8374 2064.00
12.9026 2027.00
12.9678 1910.00
13.033 1910.00
13.0982 1975.00
13.1634 1937.00
13.2286 1936.00
13.2938 1983.00
13.359 1865.00
13.4242 1885.00
13.4894 1801.00
13.5546 1840.00
13.6198 1791.00
13.685 1832.00
13.7502 1832.00
13.8154 1748.00
13.8805 1780.00
13.9457 1743.00
14.0109 1820.00
14.0761 1805.00
14.1413 1726.00
14.2065 1753.00
14.2717 1696.00
14.3369 1692.00
14.4021 1742.00
14.4673 1753.00
14.5325 1806.00
14.5977 1753.00
14.6629 1767.00
14.7281 1749.00
14.7933 1686.00
14.8585 1732.00
14.9237 1665.00
14.9889 1635.00
15.0541 1780.00
15.1193 1705.00
15.1845 1633.00
15.2497 1644.00
15.3149 1689.00
15.3801 1611.00
15.4453 1550.00
15.5105 1512.00
15.5757 1652.00
15.6409 1489.00
15.7061 1534.00
15.7713 1622.00
15.8365 1564.00
15.9017 1638.00
15.9669 1557.00
16.0321 1541.00
16.0973 1522.00
16.1625 1573.00
16.2277 1585.00
16.2929 1537.00
16.3581 1594.00
16.4233 1600.00
16.4885 1542.00
16.5537 1529.00
16.6189 1543.00
16.6841 1501.00
16.7493 1545.00
16.8145 1532.00
16.8797 1504.00
16.9449 1525.00
17.0101 1526.00
17.0753 1490.00
17.1405 1487.00
17.2057 1567.00
17.2709 1476.00
17.3361 1446.00
17.4013 1525.00
17.4665 1500.00
17.5317 1661.00
17.5969 1812.00
17.6621 2157.00
17.7273 2610.00
17.7925 2807.00
17.8577 1959.00
17.9229 1573.00
17.9881 1429.00
18.0533 1405.00
18.1185 1426.00
18.1837 1442.00
18.2489 1402.00
18.3141 1449.00
18.3793 1429.00
18.4445 1382.00
18.5097 1456.00
18.5749 1467.00
18.6401 1537.00
18.7052 1506.00
18.7704 1389.00
18.8356 1354.00
18.9008 1360.00
18.966 1372.00
19.0312 1507.00
19.0964 1523.00
19.1616 1457.00
19.2268 1579.00
19.292 1509.00
19.3572 1435.00
19.4224 1323.00
19.4876 1306.00
19.5528 1379.00
19.618 1324.00
19.6832 1435.00
19.7484 1493.00
19.8136 1513.00
19.8788 1477.00
19.944 1604.00
20.0092 1769.00
20.0744 2126.00
20.1396 2563.00
20.2048 3106.00
20.27 3691.00
20.3352 3989.00
20.4004 3732.00
20.4656 2731.00
20.5308 2159.00
20.596 2122.00
20.6612 1866.00
20.7264 1580.00
20.7916 1436.00
20.8568 1246.00
20.922 1340.00
20.9872 1315.00
21.0524 1318.00
21.1176 1368.00
21.1828 1355.00
21.248 1312.00
21.3132 1335.00
21.3784 1346.00
21.4436 1409.00
21.5088 1544.00
21.574 1697.00
21.6392 1745.00
21.7044 1775.00
21.7696 1618.00
21.8348 1409.00
21.9 1233.00
21.9652 1251.00
22.0304 1232.00
22.0956 1227.00
22.1608 1213.00
22.226 1218.00
22.2912 1227.00
22.3564 1320.00
22.4216 1484.00
22.4868 1611.00
22.552 2034.00
22.6172 2945.00
22.6824 3369.00
22.7476 2248.00
22.8128 1535.00
22.878 1412.00
22.9432 1471.00
23.0084 1556.00
23.0736 1845.00
23.1388 2344.00
23.204 3080.00
23.2692 3384.00
23.3344 3153.00
23.3996 2658.00
23.4647 2659.00
23.5299 2608.00
23.5951 1908.00
23.6603 1499.00
23.7255 1483.00
23.7907 1404.00
23.8559 1434.00
23.9211 1227.00
23.9863 1182.00
24.0515 1156.00
24.1167 1224.00
24.1819 1190.00
24.2471 1129.00
24.3123 1151.00
24.3775 1062.00
24.4427 1111.00
24.5079 1191.00
24.5731 1337.00
24.6383 1334.00
24.7035 1280.00
24.7687 1234.00
24.8339 1076.00
24.8991 1064.00
24.9643 1004.00
25.0295 1029.00
25.0947 1094.00
25.1599 1103.00
25.2251 1213.00
25.2903 1422.00
25.3555 1906.00
25.4207 2726.00
25.4859 2970.00
25.5511 2137.00
25.6163 1571.00
25.6815 1664.00
25.7467 2187.00
25.8119 2376.00
25.8771 1804.00
25.9423 1321.00
26.0075 1182.00
26.0727 1268.00
26.1379 1340.00
26.2031 1292.00
26.2683 1195.00
26.3335 1135.00
26.3987 1212.00
26.4639 1209.00
26.5291 1246.00
26.5943 1431.00
26.6595 1588.00
26.7247 1812.00
26.7899 1839.00
26.8551 1613.00
26.9203 1702.00
26.9855 1849.00
27.0507 1633.00
27.1159 1205.00
27.1811 1007.00
27.2463 857.00
27.3115 986.00
27.3767 876.00
27.4419 958.00
27.5071 847.00
27.5723 942.00
27.6375 954.00
27.7027 879.00
27.7679 878.00
27.8331 972.00
27.8983 901.00
27.9635 920.00
28.0287 1046.00
28.0939 1155.00
28.1591 1199.00
28.2243 1071.00
28.2894 973.00
28.3546 897.00
28.4198 893.00
28.485 930.00
28.5502 875.00
28.6154 873.00
28.6806 894.00
28.7458 914.00
28.811 978.00
28.8762 1093.00
28.9414 1164.00
29.0066 1272.00
29.0718 1486.00
29.137 1585.00
29.2022 1546.00
29.2674 1458.00
29.3326 1355.00
29.3978 1364.00
29.463 1663.00
29.5282 2346.00
29.5934 3761.00
29.6586 5967.00
29.7238 5625.00
29.789 3582.00
29.8542 1869.00
29.9194 1331.00
29.9846 1107.00
30.0498 1023.00
30.115 1055.00
30.1802 980.00
30.2454 962.00
30.3106 888.00
30.3758 850.00
30.441 811.00
30.5062 845.00
30.5714 835.00
30.6366 871.00
30.7018 808.00
30.767 883.00
30.8322 946.00
30.8974 1062.00
30.9626 1300.00
31.0278 1434.00
31.093 1623.00
31.1582 1616.00
31.2234 1521.00
31.2886 1598.00
31.3538 1718.00
31.419 1685.00
31.4842 1555.00
31.5494 1418.00
31.6146 1501.00
31.6798 1729.00
31.745 2387.00
31.8102 3792.00
31.8754 5487.00
31.9406 5381.00
32.0058 3484.00
32.071 2261.00
32.1362 2026.00
32.2014 2075.00
32.2666 2731.00
32.3318 3155.00
32.397 3156.00
32.4622 3677.00
32.5274 4375.00
32.5926 4651.00
32.6578 3906.00
32.723 2779.00
32.7882 2349.00
32.8534 2438.00
32.9186 2756.00
32.9838 3114.00
33.0489 3401.00
33.1141 4382.00
33.1793 5209.00
33.2445 4789.00
33.3097 4169.00
33.3749 3909.00
33.4401 3597.00
33.5053 2548.00
33.5705 1940.00
33.6357 1844.00
33.7009 1924.00
33.7661 2002.00
33.8313 1825.00
33.8965 1583.00
33.9617 1430.00
34.0269 1349.00
34.0921 1334.00
34.1573 1519.00
34.2225 1914.00
34.2877 2666.00
34.3529 3814.00
34.4181 3623.00
34.4833 2382.00
34.5485 1438.00
34.6137 1144.00
34.6789 1115.00
34.7441 1070.00
34.8093 1058.00
34.8745 1238.00
34.9397 1171.00
35.0049 1275.00
35.0701 1205.00
35.1353 1120.00
35.2005 983.00
35.2657 844.00
35.3309 892.00
35.3961 953.00
35.4613 1055.00
35.5265 1199.00
35.5917 1185.00
35.6569 1148.00
35.7221 1137.00
35.7873 1187.00
35.8525 1054.00
35.9177 978.00
35.9829 964.00
36.0481 996.00
36.1133 1060.00
36.1785 1319.00
36.2437 1438.00
36.3089 1423.00
36.3741 1316.00
36.4393 1175.00
36.5045 1025.00
36.5697 822.00
36.6349 774.00
36.7001 754.00
36.7653 823.00
36.8305 900.00
36.8957 1001.00
36.9609 978.00
37.0261 922.00
37.0913 904.00
37.1565 895.00
37.2217 822.00
37.2869 810.00
37.3521 881.00
37.4173 1083.00
37.4825 1192.00
37.5477 1291.00
37.6129 1071.00
37.6781 842.00
37.7433 780.00
37.8085 729.00
37.8736 680.00
37.9388 675.00
38.004 615.00
38.0692 594.00
38.1344 690.00
38.1996 706.00
38.2648 765.00
38.33 670.00
38.3952 749.00
38.4604 765.00
38.5256 780.00
38.5908 910.00
38.656 974.00
38.7212 1109.00
38.7864 1127.00
38.8516 1034.00
38.9168 991.00
38.982 908.00
39.0472 862.00
39.1124 809.00
39.1776 747.00
39.2428 813.00
39.308 868.00
39.3732 826.00
39.4384 903.00
39.5036 1050.00
39.5688 1161.00
39.634 1528.00
39.6992 1587.00
39.7644 1148.00
39.8296 859.00
39.8948 735.00
39.96 753.00
40.0252 793.00
40.0904 795.00
40.1556 850.00
40.2208 992.00
40.286 997.00
40.3512 848.00
40.4164 788.00
40.4816 698.00
40.5468 662.00
40.612 634.00
40.6772 624.00
40.7424 603.00
40.8076 683.00
40.8728 752.00
40.938 929.00
41.0032 1015.00
41.0684 1286.00
41.1336 1434.00
41.1988 1237.00
41.264 1078.00
41.3292 822.00
41.3944 738.00
41.4596 685.00
41.5248 745.00
41.59 838.00
41.6552 926.00
41.7204 1113.00
41.7856 1182.00
41.8508 1158.00
41.916 1089.00
41.9812 971.00
42.0464 804.00
42.1116 785.00
42.1768 785.00
42.242 813.00
42.3072 860.00
42.3724 931.00
42.4376 836.00
42.5028 715.00
42.568 701.00
42.6332 642.00
42.6983 610.00
42.7635 683.00
42.8287 660.00
42.8939 731.00
42.9591 675.00
43.0243 691.00
43.0895 722.00
43.1547 742.00
43.2199 719.00
43.2851 827.00
43.3503 1228.00
43.4155 1607.00
43.4807 1304.00
43.5459 1201.00
43.6111 1065.00
43.6763 1217.00
43.7415 1521.00
43.8067 1702.00
43.8719 1820.00
43.9371 1556.00
44.0023 1230.00
44.0675 946.00
44.1327 784.00
44.1979 714.00
44.2631 707.00
44.3283 688.00
44.3935 673.00
44.4587 725.00
44.5239 642.00
44.5891 605.00
44.6543 644.00
44.7195 665.00
44.7847 663.00
44.8499 694.00
44.9151 737.00
44.9803 710.00
45.0455 728.00
45.1107 713.00
45.1759 689.00
45.2411 778.00
45.3063 742.00
45.3715 744.00
45.4367 720.00
45.5019 751.00
45.5671 780.00
45.6323 828.00
45.6975 782.00
45.7627 811.00
45.8279 939.00
45.8931 1212.00
45.9583 1510.00
46.0235 1241.00
46.0887 1135.00
46.1539 841.00
46.2191 650.00
46.2843 628.00
46.3495 648.00
46.4147 686.00
46.4799 609.00
46.5451 579.00
46.6103 594.00
46.6755 621.00
46.7407 738.00
46.8059 764.00
46.8711 891.00
46.9363 1004.00
47.0015 1215.00
47.0667 1466.00
47.1319 1927.00
47.1971 2106.00
47.2623 1873.00
47.3275 1741.00
47.3927 1539.00
47.4579 1566.00
47.523 1754.00
47.5882 1802.00
47.6534 2193.00
47.7186 2876.00
47.7838 2681.00
47.849 1941.00
47.9142 1547.00
47.9794 961.00
48.0446 841.00
48.1098 712.00
48.175 713.00
48.2402 748.00
48.3054 760.00
48.3706 745.00
48.4358 741.00
48.501 750.00
48.5662 755.00
48.6314 902.00
48.6966 1210.00
48.7618 1461.00
48.827 1080.00
48.8922 1045.00
48.9574 685.00
49.0226 614.00
49.0878 619.00
49.153 592.00
49.2182 593.00
49.2834 551.00
49.3486 532.00
49.4138 519.00
49.479 595.00
49.5442 578.00
49.6094 603.00
49.6746 665.00
49.7398 697.00
49.805 664.00
49.8702 589.00
49.9354 615.00
50.0006 560.00
50.0658 647.00
50.131 666.00
50.1962 742.00
50.2614 608.00
50.3266 568.00
50.3918 555.00
50.457 554.00
50.5222 539.00
50.5874 510.00
50.6526 591.00
50.7178 587.00
50.783 535.00
50.8482 555.00
50.9134 623.00
50.9786 642.00
51.0438 694.00
51.109 755.00
51.1742 668.00
51.2394 609.00
51.3046 576.00
51.3698 538.00
51.435 584.00
51.5002 588.00
51.5654 570.00
51.6306 592.00
51.6958 636.00
51.761 692.00
51.8262 766.00
51.8914 819.00
51.9566 787.00
52.0218 727.00
52.087 685.00
52.1522 713.00
52.2174 727.00
52.2826 732.00
52.3477 698.00
52.4129 813.00
52.4781 916.00
52.5433 961.00
52.6085 1260.00
52.6737 1395.00
52.7389 1273.00
52.8041 1119.00
52.8693 888.00
52.9345 777.00
52.9997 660.00
53.0649 665.00
53.1301 765.00
53.1953 770.00
53.2605 801.00
53.3257 926.00
53.3909 823.00
53.4561 820.00
53.5213 761.00
53.5865 702.00
53.6517 726.00
53.7169 724.00
53.7821 679.00
53.8473 769.00
53.9125 703.00
53.9777 672.00
54.0429 592.00
54.1081 625.00
54.1733 596.00
54.2385 590.00
54.3037 608.00
54.3689 636.00
54.4341 771.00
54.4993 760.00
54.5645 768.00
54.6297 842.00
54.6949 788.00
54.7601 760.00
54.8253 756.00
54.8905 768.00
54.9557 834.00
55.0209 885.00
55.0861 729.00
55.1513 710.00
55.2165 611.00
55.2817 480.00
55.3469 506.00
55.4121 485.00
55.4773 455.00
55.5425 502.00
55.6077 465.00
55.6729 465.00
55.7381 478.00
55.8033 501.00
55.8685 523.00
55.9337 472.00
55.9989 563.00
56.0641 584.00
56.1293 579.00
56.1945 625.00
56.2597 621.00
56.3249 601.00
56.3901 682.00
56.4553 702.00
56.5205 755.00
56.5857 799.00
56.6509 766.00
56.7161 758.00
56.7813 783.00
56.8465 724.00
56.9117 705.00
56.9769 801.00
57.042 799.00
57.1073 961.00
57.1724 1071.00
57.2376 1063.00
57.3028 893.00
57.368 906.00
57.4332 921.00
57.4984 947.00
57.5636 939.00
57.6288 1106.00
57.694 967.00
57.7592 870.00
57.8244 935.00
57.8896 793.00
57.9548 687.00
58.02 653.00
58.0852 565.00
58.1504 509.00
58.2156 526.00
58.2808 521.00
58.346 508.00
58.4112 494.00
58.4764 497.00
58.5416 514.00
58.6068 522.00
58.672 602.00
58.7372 679.00
58.8024 707.00
58.8676 708.00
58.9328 722.00
58.998 734.00
59.0632 711.00
59.1284 700.00
59.1936 746.00
59.2588 740.00
59.324 762.00
59.3892 769.00
59.4544 777.00
59.5196 801.00
59.5848 803.00
59.65 700.00
59.7152 831.00
59.7804 930.00
59.8456 931.00
59.9108 960.00
59.976 807.00
60.0412 776.00
60.1064 735.00
60.1716 678.00
60.2368 613.00
60.302 623.00
60.3672 549.00
60.4324 526.00
60.4976 568.00
60.5628 611.00
60.628 653.00
60.6932 722.00
60.7584 811.00
60.8236 834.00
60.8888 959.00
60.954 883.00
61.0192 799.00
61.0844 821.00
61.1496 704.00
61.2148 751.00
61.28 671.00
61.3452 561.00
61.4104 530.00
61.4756 526.00
61.5408 532.00
61.606 557.00
61.6712 487.00
61.7364 535.00
61.8016 533.00
61.8667 450.00
61.932 469.00
61.9971 479.00
62.0623 451.00
62.1275 506.00
62.1927 528.00
62.2579 491.00
62.3231 537.00
62.3883 530.00
62.4535 566.00
62.5187 530.00
62.5839 570.00
62.6491 549.00
62.7143 514.00
62.7795 553.00
62.8447 565.00
62.9099 523.00
62.9751 557.00
63.0403 570.00
63.1055 600.00
63.1707 696.00
63.2359 673.00
63.3011 698.00
63.3663 708.00
63.4315 697.00
63.4967 635.00
63.5619 630.00
63.6271 664.00
63.6923 554.00
63.7575 593.00
63.8227 530.00
63.8879 563.00
63.9531 564.00
64.0183 529.00
64.0835 596.00
64.1487 577.00
64.2139 574.00
64.2791 633.00
64.3443 583.00
64.4095 531.00
64.4747 500.00
64.5399 536.00
64.6051 570.00
64.6703 587.00
64.7355 637.00
64.8007 708.00
64.8659 859.00
64.9311 782.00
64.9963 636.00
65.0615 662.00
65.1267 627.00
65.1919 540.00
65.2571 503.00
65.3223 567.00
65.3875 585.00
65.4527 632.00
65.5179 649.00
65.5831 693.00
65.6483 745.00
65.7135 802.00
65.7787 838.00
65.8439 850.00
65.9091 664.00
65.9743 709.00
66.0395 573.00
66.1047 575.00
66.1699 596.00
66.2351 635.00
66.3003 717.00
66.3655 631.00
66.4307 646.00
66.4959 625.00
66.561 511.00
66.6263 508.00
66.6915 513.00
66.7566 540.00
66.8218 510.00
66.887 488.00
66.9522 476.00
67.0174 497.00
67.0826 480.00
67.1478 438.00
67.213 486.00
67.2782 459.00
67.3434 470.00
67.4086 427.00
67.4738 458.00
67.539 499.00
67.6042 537.00
67.6694 615.00
67.7346 588.00
67.7998 566.00
67.865 571.00
67.9302 551.00
67.9954 544.00
68.0606 452.00
68.1258 424.00
68.191 374.00
68.2562 388.00
68.3214 401.00
68.3866 382.00
68.4518 317.00
68.517 357.00
68.5822 337.00
68.6474 316.00
68.7126 357.00
68.7778 348.00
68.843 344.00
68.9082 350.00
68.9734 374.00
69.0386 428.00
69.1038 468.00
69.169 530.00
69.2342 575.00
69.2994 615.00
69.3646 646.00
69.4298 674.00
69.495 607.00
69.5602 582.00
69.6254 611.00
69.6906 578.00
69.7558 516.00
69.821 557.00
69.8862 488.00
69.9514 476.00
70.0166 445.00
70.0818 422.00
70.147 494.00
70.2122 477.00
70.2774 578.00
70.3426 546.00
70.4078 581.00
70.473 573.00
70.5382 615.00
70.6034 596.00
70.6686 600.00
70.7338 506.00
70.799 471.00
70.8642 492.00
70.9294 491.00
70.9946 461.00
71.0598 404.00
71.125 392.00
71.1902 435.00
71.2554 388.00
71.3205 364.00
71.3858 423.00
71.451 390.00
71.5162 348.00
71.5813 402.00
71.6465 438.00
71.7117 480.00
71.7769 554.00
71.8421 586.00
71.9073 603.00
71.9725 624.00
72.0377 692.00
72.1029 585.00
72.1681 495.00
72.2333 483.00
72.2985 407.00
72.3637 420.00
72.4289 406.00
72.4941 407.00
72.5593 433.00
72.6245 445.00
72.6897 483.00
72.7549 468.00
72.8201 479.00
72.8853 564.00
72.9505 590.00
73.0157 586.00
73.0809 550.00
73.1461 551.00
73.2113 474.00
73.2765 488.00
73.3417 455.00
73.4069 395.00
73.4721 406.00
73.5373 359.00
73.6025 378.00
73.6677 381.00
73.7329 369.00
73.7981 394.00
73.8633 407.00
73.9285 399.00
73.9937 351.00
74.0589 404.00
74.1241 420.00
74.1893 385.00
74.2545 357.00
74.3197 377.00
74.3849 365.00
74.4501 354.00
74.5153 387.00
74.5805 423.00
74.6457 418.00
74.7109 394.00
74.7761 390.00
74.8413 401.00
74.9065 389.00
74.9717 378.00
75.0369 416.00
75.1021 387.00
75.1673 425.00
75.2325 436.00
75.2977 413.00
75.3629 416.00
75.4281 417.00
75.4933 434.00
75.5585 440.00
75.6237 477.00
75.6889 410.00
75.7541 425.00
75.8193 398.00
75.8845 386.00
75.9497 417.00
76.0149 466.00
76.0801 406.00
76.1452 462.00
76.2104 471.00
76.2756 486.00
76.3409 502.00
76.406 411.00
76.4712 507.00
76.5364 467.00
76.6016 429.00
76.6668 398.00
76.732 413.00
76.7972 393.00
76.8624 416.00
76.9276 403.00
76.9928 432.00
77.058 474.00
77.1232 496.00
77.1884 471.00
77.2536 450.00
77.3188 500.00
77.384 484.00
77.4492 451.00
77.5144 402.00
77.5796 462.00
77.6448 431.00
77.71 415.00
77.7752 430.00
77.8404 433.00
77.9056 439.00
77.9708 433.00
78.036 452.00
78.1012 429.00
78.1664 445.00
78.2316 395.00
78.2968 430.00
78.362 456.00
78.4272 415.00
78.4924 404.00
78.5576 396.00
78.6228 454.00
78.688 402.00
78.7532 358.00
78.8184 396.00
78.8836 365.00
78.9488 396.00
79.014 358.00
79.0792 445.00
79.1444 428.00
79.2096 445.00
79.2748 450.00
79.34 395.00
79.4052 423.00
79.4704 460.00
79.5356 458.00
79.6008 482.00
79.666 414.00
79.7312 425.00
79.7964 381.00
79.8616 440.00
79.9268 374.00
79.992 352.00
80.0572 339.00
80.1224 362.00
80.1876 394.00
80.2528 431.00
80.318 511.00
80.3832 518.00
80.4484 498.00
80.5136 448.00
80.5788 408.00
80.644 454.00
80.7092 415.00
80.7744 427.00
80.8396 458.00
80.9048 388.00
80.9699 429.00
81.0351 424.00
81.1003 433.00
81.1655 474.00
81.2307 502.00
81.2959 502.00
81.3611 526.00
81.4263 558.00
81.4915 481.00
81.5567 492.00
81.6219 475.00
81.6871 530.00
81.7523 527.00
81.8175 445.00
81.8827 386.00
81.9479 400.00
82.0131 395.00
82.0783 361.00
82.1435 379.00
82.2087 412.00
82.2739 362.00
82.3391 367.00
82.4043 357.00
82.4695 361.00
82.5347 353.00
82.5999 370.00
82.6651 342.00
82.7303 376.00
82.7955 374.00
82.8607 358.00
82.9259 310.00
82.9911 324.00
83.0563 326.00
83.1215 313.00
83.1867 383.00
83.2519 372.00
83.3171 401.00
83.3823 451.00
83.4475 448.00
83.5127 411.00
83.5779 443.00
83.6431 400.00
83.7083 407.00
83.7735 395.00
83.8387 429.00
83.9039 491.00
83.9691 576.00
84.0343 516.00
84.0995 480.00
84.1647 482.00
84.2299 498.00
84.2951 460.00
84.3603 433.00
84.4255 417.00
84.4907 395.00
84.5559 409.00
84.6211 386.00
84.6863 405.00
84.7515 403.00
84.8167 427.00
84.8819 446.00
84.9471 541.00
85.0123 477.00
85.0775 464.00
85.1427 429.00
85.2079 421.00
85.2731 455.00
85.3383 396.00
85.4035 403.00
85.4687 399.00
85.5339 392.00
85.5991 355.00
85.6643 365.00
85.7295 382.00
85.7946 397.00
85.8598 376.00
85.925 358.00
85.9903 351.00
86.0554 363.00
86.1206 378.00
86.1858 410.00
86.251 422.00
86.3162 416.00
86.3814 384.00
86.4466 390.00
86.5118 337.00
86.577 400.00
86.6422 447.00
86.7074 422.00
86.7726 386.00
86.8378 425.00
86.903 361.00
86.9682 370.00
87.0334 335.00
87.0986 370.00
87.1638 352.00
87.229 381.00
87.2942 363.00
87.3594 422.00
87.4246 386.00
87.4898 399.00
87.555 394.00
87.6202 398.00
87.6854 365.00
87.7506 376.00
87.8158 363.00
87.881 376.00
87.9462 400.00
88.0114 381.00
88.0766 396.00
88.1418 413.00
88.207 406.00
88.2722 423.00
88.3374 396.00
88.4026 401.00
88.4678 387.00
88.533 394.00
88.5982 401.00
88.6634 406.00
88.7286 388.00
88.7938 419.00
88.859 391.00
88.9242 382.00
88.9894 422.00
89.0546 392.00
89.1198 406.00
89.185 364.00
89.2502 364.00
89.3154 312.00
89.3806 396.00
89.4458 317.00
89.511 323.00
89.5762 330.00
89.6414 323.00
89.7066 353.00
89.7718 332.00
89.837 348.00
89.9022 296.00
89.9674 346.00
90.0326 363.00
90.0978 281.00
90.163 345.00
90.2282 349.00
90.2934 364.00
90.3586 400.00
90.4238 358.00
90.489 367.00
90.5542 364.00
90.6193 360.00
90.6845 381.00
90.7497 365.00
90.8149 379.00
90.8801 342.00
90.9453 304.00
91.0105 324.00
91.0757 330.00
91.1409 334.00
91.2061 339.00
91.2713 311.00
91.3365 298.00
91.4017 331.00
91.4669 325.00
91.5321 347.00
91.5973 389.00
91.6625 377.00
91.7277 341.00
91.7929 355.00
91.8581 373.00
91.9233 379.00
91.9885 390.00
92.0537 322.00
92.1189 391.00
92.1841 385.00
92.2493 368.00
92.3145 375.00
92.3797 389.00
92.4449 339.00
92.5101 382.00
92.5753 385.00
92.6405 388.00
92.7057 376.00
92.7709 363.00
92.8361 354.00
92.9013 381.00
92.9665 388.00
93.0317 381.00
93.0969 403.00
93.1621 376.00
93.2273 401.00
93.2925 375.00
93.3577 348.00
93.4229 338.00
93.4881 393.00
93.5533 377.00
93.6185 335.00
93.6837 349.00
93.7489 369.00
93.8141 373.00
93.8793 374.00
93.9445 356.00
94.0097 384.00
94.0749 365.00
94.1401 375.00
94.2053 382.00
94.2705 354.00
94.3357 370.00
94.4009 381.00
94.4661 337.00
94.5313 338.00
94.5965 368.00
94.6617 361.00
94.7269 397.00
94.7921 407.00
94.8573 473.00
94.9225 482.00
94.9877 449.00
95.0529 471.00
95.1181 513.00
95.1833 583.00
95.2485 503.00
95.3137 456.00
95.3789 463.00
95.444 465.00
95.5092 520.00
95.5744 412.00
95.6396 426.00
95.7048 465.00
95.77 405.00
95.8352 377.00
95.9004 378.00
95.9656 417.00
96.0308 409.00
96.096 378.00
96.1612 403.00
96.2264 406.00
96.2916 391.00
96.3568 382.00
96.422 361.00
96.4872 345.00
96.5524 356.00
96.6176 333.00
96.6828 353.00
96.748 329.00
96.8132 346.00
96.8784 339.00
96.9436 354.00
97.0088 334.00
97.074 299.00
97.1392 300.00
97.2044 370.00
97.2696 365.00
97.3348 324.00
97.4 354.00
97.4652 322.00
97.5304 298.00
97.5956 326.00
97.6608 324.00
97.726 304.00
97.7912 322.00
97.8564 359.00
97.9216 326.00
97.9868 367.00
98.052 330.00
98.1172 365.00
98.1824 358.00
98.2476 340.00
98.3128 378.00
98.378 345.00
98.4432 358.00
98.5084 314.00
98.5736 346.00
98.6388 352.00
98.704 373.00
98.7692 409.00
98.8344 396.00
98.8996 331.00
98.9648 343.00
99.03 342.00
99.0952 368.00
99.1604 391.00
99.2256 398.00
99.2908 445.00
99.356 365.00
99.4212 367.00
99.4864 345.00
99.5516 384.00
99.6168 360.00
99.682 373.00
99.7472 350.00
99.8124 367.00
99.8776 395.00
99.9428 360.00
100.008 381.00
100.073 356.00
100.095 373.00