File: data/xrd_creation/results/Na_-3.xy
9.903433 2804.00
9.968632 2739.00
10.0338 2744.00
10.099 2783.00
10.1642 2692.00
10.2294 2747.00
10.2946 2634.00
10.3598 2652.00
10.425 2635.00
10.4902 2686.00
10.5554 2501.00
10.6206 2619.00
10.6858 2577.00
10.751 2477.00
10.8162 2606.00
10.8814 2565.00
10.9466 2409.00
11.0118 2511.00
11.077 2428.00
11.1422 2471.00
11.2074 2436.00
11.2726 2420.00
11.3378 2320.00
11.403 2320.00
11.4682 2403.00
11.5334 2319.00
11.5986 2433.00
11.6638 2523.00
11.729 2605.00
11.7942 2278.00
11.8594 2146.00
11.9246 2249.00
11.9898 2237.00
12.055 2070.00
12.1202 2234.00
12.1854 2201.00
12.2506 2164.00
12.3158 2079.00
12.381 2019.00
12.4462 2075.00
12.5114 2117.00
12.5766 2154.00
12.6418 2193.00
12.707 2192.00
12.7722 2330.00
12.8374 2194.00
12.9026 2041.00
12.9678 2027.00
13.033 2029.00
13.0982 2064.00
13.1634 2056.00
13.2286 2089.00
13.2938 1857.00
13.359 1873.00
13.4242 1934.00
13.4894 1947.00
13.5546 1945.00
13.6198 1921.00
13.685 1907.00
13.7502 1873.00
13.8154 1921.00
13.8805 1891.00
13.9457 1926.00
14.0109 1848.00
14.0761 1771.00
14.1413 1855.00
14.2065 1807.00
14.2717 1789.00
14.3369 1904.00
14.4021 1860.00
14.4673 1890.00
14.5325 1863.00
14.5977 1959.00
14.6629 1845.00
14.7281 1775.00
14.7933 1810.00
14.8585 1740.00
14.9237 1703.00
14.9889 1731.00
15.0541 1726.00
15.1193 1825.00
15.1845 1765.00
15.2497 1717.00
15.3149 1716.00
15.3801 1589.00
15.4453 1653.00
15.5105 1660.00
15.5757 1630.00
15.6409 1573.00
15.7061 1706.00
15.7713 1583.00
15.8365 1635.00
15.9017 1631.00
15.9669 1619.00
16.0321 1533.00
16.0973 1652.00
16.1625 1642.00
16.2277 1680.00
16.2929 1628.00
16.3581 1546.00
16.4233 1690.00
16.4885 1634.00
16.5537 1615.00
16.6189 1588.00
16.6841 1586.00
16.7493 1545.00
16.8145 1516.00
16.8797 1567.00
16.9449 1539.00
17.0101 1556.00
17.0753 1536.00
17.1405 1583.00
17.2057 1604.00
17.2709 1534.00
17.3361 1585.00
17.4013 1592.00
17.4665 1590.00
17.5317 1795.00
17.5969 1795.00
17.6621 2161.00
17.7273 2614.00
17.7925 2879.00
17.8577 2175.00
17.9229 1648.00
17.9881 1503.00
18.0533 1494.00
18.1185 1449.00
18.1837 1422.00
18.2489 1449.00
18.3141 1546.00
18.3793 1492.00
18.4445 1393.00
18.5097 1496.00
18.5749 1552.00
18.6401 1728.00
18.7052 1608.00
18.7704 1568.00
18.8356 1426.00
18.9008 1469.00
18.966 1486.00
19.0312 1592.00
19.0964 1607.00
19.1616 1646.00
19.2268 1631.00
19.292 1576.00
19.3572 1504.00
19.4224 1457.00
19.4876 1436.00
19.5528 1379.00
19.618 1398.00
19.6832 1471.00
19.7484 1564.00
19.8136 1563.00
19.8788 1500.00
19.944 1522.00
20.0092 1888.00
20.0744 2231.00
20.1396 2637.00
20.2048 3199.00
20.27 3841.00
20.3352 4384.00
20.4004 4005.00
20.4656 3021.00
20.5308 2361.00
20.596 2195.00
20.6612 2032.00
20.7264 1726.00
20.7916 1545.00
20.8568 1405.00
20.922 1373.00
20.9872 1436.00
21.0524 1489.00
21.1176 1686.00
21.1828 1573.00
21.248 1478.00
21.3132 1485.00
21.3784 1381.00
21.4436 1457.00
21.5088 1635.00
21.574 1695.00
21.6392 1842.00
21.7044 1836.00
21.7696 1853.00
21.8348 1402.00
21.9 1384.00
21.9652 1326.00
22.0304 1226.00
22.0956 1279.00
22.1608 1287.00
22.226 1302.00
22.2912 1423.00
22.3564 1404.00
22.4216 1487.00
22.4868 1649.00
22.552 2095.00
22.6172 2964.00
22.6824 3535.00
22.7476 2465.00
22.8128 1586.00
22.878 1422.00
22.9432 1552.00
23.0084 1527.00
23.0736 1803.00
23.1388 2253.00
23.204 3049.00
23.2692 3883.00
23.3344 3270.00
23.3996 2858.00
23.4647 2840.00
23.5299 2867.00
23.5951 2154.00
23.6603 1887.00
23.7255 1965.00
23.7907 1798.00
23.8559 1562.00
23.9211 1241.00
23.9863 1199.00
24.0515 1209.00
24.1167 1230.00
24.1819 1235.00
24.2471 1216.00
24.3123 1215.00
24.3775 1174.00
24.4427 1222.00
24.5079 1175.00
24.5731 1205.00
24.6383 1359.00
24.7035 1305.00
24.7687 1213.00
24.8339 1101.00
24.8991 1074.00
24.9643 1063.00
25.0295 1027.00
25.0947 1022.00
25.1599 1070.00
25.2251 1210.00
25.2903 1357.00
25.3555 1819.00
25.4207 2770.00
25.4859 3141.00
25.5511 2314.00
25.6163 1597.00
25.6815 1730.00
25.7467 2215.00
25.8119 2527.00
25.8771 1927.00
25.9423 1353.00
26.0075 1176.00
26.0727 1249.00
26.1379 1347.00
26.2031 1289.00
26.2683 1277.00
26.3335 1129.00
26.3987 1227.00
26.4639 1268.00
26.5291 1289.00
26.5943 1425.00
26.6595 1776.00
26.7247 2042.00
26.7899 1769.00
26.8551 1653.00
26.9203 1777.00
26.9855 1846.00
27.0507 1724.00
27.1159 1258.00
27.1811 1052.00
27.2463 951.00
27.3115 950.00
27.3767 910.00
27.4419 953.00
27.5071 1011.00
27.5723 975.00
27.6375 955.00
27.7027 956.00
27.7679 939.00
27.8331 925.00
27.8983 984.00
27.9635 1007.00
28.0287 1104.00
28.0939 1264.00
28.1591 1309.00
28.2243 1192.00
28.2894 1048.00
28.3546 999.00
28.4198 1052.00
28.485 940.00
28.5502 1050.00
28.6154 934.00
28.6806 952.00
28.7458 989.00
28.811 1037.00
28.8762 1076.00
28.9414 1189.00
29.0066 1340.00
29.0718 1700.00
29.137 2135.00
29.2022 2237.00
29.2674 1937.00
29.3326 1731.00
29.3978 1526.00
29.463 1614.00
29.5282 2089.00
29.5934 3989.00
29.6586 6912.00
29.7238 6765.00
29.789 4280.00
29.8542 2074.00
29.9194 1367.00
29.9846 1212.00
30.0498 1324.00
30.115 1141.00
30.1802 1121.00
30.2454 1135.00
30.3106 1097.00
30.3758 942.00
30.441 931.00
30.5062 864.00
30.5714 968.00
30.6366 912.00
30.7018 935.00
30.767 954.00
30.8322 1127.00
30.8974 1321.00
30.9626 1639.00
31.0278 2128.00
31.093 2726.00
31.1582 2468.00
31.2234 2012.00
31.2886 1851.00
31.3538 1926.00
31.419 1815.00
31.4842 1570.00
31.5494 1369.00
31.6146 1370.00
31.6798 1556.00
31.745 2160.00
31.8102 3490.00
31.8754 5309.00
31.9406 5582.00
32.0058 3831.00
32.071 2216.00
32.1362 1859.00
32.2014 1987.00
32.2666 2575.00
32.3318 3007.00
32.397 3080.00
32.4622 3523.00
32.5274 4734.00
32.5926 5144.00
32.6578 4353.00
32.723 2970.00
32.7882 2277.00
32.8534 2370.00
32.9186 2649.00
32.9838 2904.00
33.0489 3275.00
33.1141 4169.00
33.1793 5061.00
33.2445 4974.00
33.3097 4250.00
33.3749 4039.00
33.4401 3610.00
33.5053 2658.00
33.5705 1806.00
33.6357 1797.00
33.7009 1876.00
33.7661 2046.00
33.8313 1816.00
33.8965 1603.00
33.9617 1425.00
34.0269 1416.00
34.0921 1357.00
34.1573 1516.00
34.2225 1942.00
34.2877 2654.00
34.3529 3920.00
34.4181 3950.00
34.4833 2582.00
34.5485 1511.00
34.6137 1223.00
34.6789 1223.00
34.7441 1199.00
34.8093 1119.00
34.8745 1240.00
34.9397 1243.00
35.0049 1361.00
35.0701 1341.00
35.1353 1096.00
35.2005 1019.00
35.2657 901.00
35.3309 939.00
35.3961 1021.00
35.4613 1246.00
35.5265 1281.00
35.5917 1234.00
35.6569 1202.00
35.7221 1262.00
35.7873 1159.00
35.8525 1117.00
35.9177 1046.00
35.9829 959.00
36.0481 960.00
36.1133 1072.00
36.1785 1342.00
36.2437 1704.00
36.3089 1421.00
36.3741 1418.00
36.4393 1236.00
36.5045 1046.00
36.5697 836.00
36.6349 726.00
36.7001 756.00
36.7653 851.00
36.8305 929.00
36.8957 921.00
36.9609 1018.00
37.0261 958.00
37.0913 977.00
37.1565 1010.00
37.2217 849.00
37.2869 890.00
37.3521 905.00
37.4173 1100.00
37.4825 1337.00
37.5477 1319.00
37.6129 1192.00
37.6781 948.00
37.7433 865.00
37.8085 775.00
37.8736 690.00
37.9388 680.00
38.004 641.00
38.0692 630.00
38.1344 664.00
38.1996 711.00
38.2648 723.00
38.33 764.00
38.3952 815.00
38.4604 825.00
38.5256 832.00
38.5908 864.00
38.656 1052.00
38.7212 1106.00
38.7864 1147.00
38.8516 1086.00
38.9168 1048.00
38.982 902.00
39.0472 853.00
39.1124 844.00
39.1776 791.00
39.2428 808.00
39.308 818.00
39.3732 880.00
39.4384 931.00
39.5036 1046.00
39.5688 1164.00
39.634 1608.00
39.6992 1877.00
39.7644 1342.00
39.8296 947.00
39.8948 778.00
39.96 768.00
40.0252 811.00
40.0904 812.00
40.1556 911.00
40.2208 1121.00
40.286 1051.00
40.3512 989.00
40.4164 910.00
40.4816 767.00
40.5468 786.00
40.612 666.00
40.6772 615.00
40.7424 670.00
40.8076 674.00
40.8728 733.00
40.938 877.00
41.0032 1072.00
41.0684 1252.00
41.1336 1379.00
41.1988 1278.00
41.264 1159.00
41.3292 873.00
41.3944 738.00
41.4596 730.00
41.5248 740.00
41.59 854.00
41.6552 898.00
41.7204 1121.00
41.7856 1180.00
41.8508 1195.00
41.916 1185.00
41.9812 926.00
42.0464 800.00
42.1116 784.00
42.1768 748.00
42.242 825.00
42.3072 893.00
42.3724 979.00
42.4376 897.00
42.5028 814.00
42.568 672.00
42.6332 656.00
42.6983 720.00
42.7635 681.00
42.8287 725.00
42.8939 789.00
42.9591 751.00
43.0243 781.00
43.0895 720.00
43.1547 773.00
43.2199 728.00
43.2851 836.00
43.3503 1229.00
43.4155 1730.00
43.4807 1407.00
43.5459 1280.00
43.6111 1043.00
43.6763 1164.00
43.7415 1458.00
43.8067 1709.00
43.8719 1853.00
43.9371 1651.00
44.0023 1300.00
44.0675 1040.00
44.1327 930.00
44.1979 895.00
44.2631 769.00
44.3283 815.00
44.3935 750.00
44.4587 700.00
44.5239 659.00
44.5891 626.00
44.6543 600.00
44.7195 661.00
44.7847 686.00
44.8499 719.00
44.9151 785.00
44.9803 726.00
45.0455 673.00
45.1107 677.00
45.1759 684.00
45.2411 737.00
45.3063 712.00
45.3715 708.00
45.4367 785.00
45.5019 721.00
45.5671 797.00
45.6323 832.00
45.6975 737.00
45.7627 792.00
45.8279 869.00
45.8931 1119.00
45.9583 1450.00
46.0235 1320.00
46.0887 1187.00
46.1539 857.00
46.2191 762.00
46.2843 660.00
46.3495 739.00
46.4147 712.00
46.4799 718.00
46.5451 665.00
46.6103 672.00
46.6755 726.00
46.7407 696.00
46.8059 760.00
46.8711 803.00
46.9363 920.00
47.0015 1057.00
47.0667 1401.00
47.1319 1953.00
47.1971 2202.00
47.2623 1932.00
47.3275 1836.00
47.3927 1611.00
47.4579 1596.00
47.523 1773.00
47.5882 1823.00
47.6534 2156.00
47.7186 2945.00
47.7838 2909.00
47.849 2169.00
47.9142 1640.00
47.9794 994.00
48.0446 810.00
48.1098 866.00
48.175 739.00
48.2402 792.00
48.3054 791.00
48.3706 803.00
48.4358 767.00
48.501 742.00
48.5662 703.00
48.6314 878.00
48.6966 1232.00
48.7618 1800.00
48.827 1183.00
48.8922 1190.00
48.9574 720.00
49.0226 633.00
49.0878 576.00
49.153 597.00
49.2182 574.00
49.2834 583.00
49.3486 531.00
49.4138 549.00
49.479 624.00
49.5442 612.00
49.6094 712.00
49.6746 765.00
49.7398 773.00
49.805 818.00
49.8702 747.00
49.9354 684.00
50.0006 663.00
50.0658 642.00
50.131 700.00
50.1962 684.00
50.2614 699.00
50.3266 615.00
50.3918 600.00
50.457 598.00
50.5222 573.00
50.5874 579.00
50.6526 568.00
50.7178 630.00
50.783 581.00
50.8482 619.00
50.9134 647.00
50.9786 689.00
51.0438 735.00
51.109 740.00
51.1742 692.00
51.2394 574.00
51.3046 585.00
51.3698 566.00
51.435 587.00
51.5002 595.00
51.5654 597.00
51.6306 557.00
51.6958 628.00
51.761 714.00
51.8262 783.00
51.8914 790.00
51.9566 808.00
52.0218 816.00
52.087 830.00
52.1522 809.00
52.2174 803.00
52.2826 837.00
52.3477 788.00
52.4129 792.00
52.4781 785.00
52.5433 961.00
52.6085 1199.00
52.6737 1460.00
52.7389 1236.00
52.8041 1143.00
52.8693 1009.00
52.9345 702.00
52.9997 672.00
53.0649 637.00
53.1301 684.00
53.1953 815.00
53.2605 812.00
53.3257 914.00
53.3909 881.00
53.4561 850.00
53.5213 809.00
53.5865 798.00
53.6517 749.00
53.7169 793.00
53.7821 696.00
53.8473 698.00
53.9125 703.00
53.9777 680.00
54.0429 658.00
54.1081 728.00
54.1733 634.00
54.2385 631.00
54.3037 595.00
54.3689 683.00
54.4341 744.00
54.4993 816.00
54.5645 768.00
54.6297 830.00
54.6949 846.00
54.7601 823.00
54.8253 724.00
54.8905 780.00
54.9557 763.00
55.0209 792.00
55.0861 790.00
55.1513 693.00
55.2165 647.00
55.2817 525.00
55.3469 515.00
55.4121 480.00
55.4773 536.00
55.5425 486.00
55.6077 497.00
55.6729 480.00
55.7381 428.00
55.8033 468.00
55.8685 498.00
55.9337 464.00
55.9989 538.00
56.0641 590.00
56.1293 644.00
56.1945 642.00
56.2597 591.00
56.3249 613.00
56.3901 625.00
56.4553 658.00
56.5205 782.00
56.5857 804.00
56.6509 819.00
56.7161 745.00
56.7813 823.00
56.8465 759.00
56.9117 670.00
56.9769 733.00
57.042 747.00
57.1073 884.00
57.1724 1022.00
57.2376 1043.00
57.3028 948.00
57.368 910.00
57.4332 894.00
57.4984 939.00
57.5636 1002.00
57.6288 1251.00
57.694 1052.00
57.7592 985.00
57.8244 993.00
57.8896 774.00
57.9548 759.00
58.02 720.00
58.0852 603.00
58.1504 586.00
58.2156 592.00
58.2808 605.00
58.346 582.00
58.4112 519.00
58.4764 555.00
58.5416 556.00
58.6068 653.00
58.672 690.00
58.7372 713.00
58.8024 834.00
58.8676 764.00
58.9328 739.00
58.998 749.00
59.0632 681.00
59.1284 740.00
59.1936 768.00
59.2588 761.00
59.324 785.00
59.3892 768.00
59.4544 777.00
59.5196 762.00
59.5848 721.00
59.65 765.00
59.7152 824.00
59.7804 905.00
59.8456 1021.00
59.9108 931.00
59.976 874.00
60.0412 820.00
60.1064 730.00
60.1716 677.00
60.2368 660.00
60.302 606.00
60.3672 567.00
60.4324 561.00
60.4976 512.00
60.5628 529.00
60.628 626.00
60.6932 686.00
60.7584 798.00
60.8236 906.00
60.8888 1059.00
60.954 900.00
61.0192 758.00
61.0844 736.00
61.1496 722.00
61.2148 721.00
61.28 629.00
61.3452 599.00
61.4104 595.00
61.4756 493.00
61.5408 559.00
61.606 589.00
61.6712 558.00
61.7364 550.00
61.8016 508.00
61.8667 490.00
61.932 498.00
61.9971 469.00
62.0623 535.00
62.1275 514.00
62.1927 506.00
62.2579 525.00
62.3231 549.00
62.3883 504.00
62.4535 570.00
62.5187 590.00
62.5839 591.00
62.6491 609.00
62.7143 543.00
62.7795 572.00
62.8447 567.00
62.9099 601.00
62.9751 584.00
63.0403 623.00
63.1055 654.00
63.1707 686.00
63.2359 714.00
63.3011 657.00
63.3663 682.00
63.4315 681.00
63.4967 666.00
63.5619 671.00
63.6271 706.00
63.6923 697.00
63.7575 658.00
63.8227 641.00
63.8879 620.00
63.9531 606.00
64.0183 555.00
64.0835 553.00
64.1487 570.00
64.2139 580.00
64.2791 581.00
64.3443 572.00
64.4095 611.00
64.4747 512.00
64.5399 490.00
64.6051 484.00
64.6703 564.00
64.7355 633.00
64.8007 650.00
64.8659 909.00
64.9311 893.00
64.9963 693.00
65.0615 707.00
65.1267 635.00
65.1919 595.00
65.2571 565.00
65.3223 583.00
65.3875 574.00
65.4527 636.00
65.5179 642.00
65.5831 680.00
65.6483 697.00
65.7135 732.00
65.7787 851.00
65.8439 814.00
65.9091 670.00
65.9743 662.00
66.0395 675.00
66.1047 539.00
66.1699 608.00
66.2351 697.00
66.3003 723.00
66.3655 690.00
66.4307 654.00
66.4959 610.00
66.561 567.00
66.6263 498.00
66.6915 502.00
66.7566 578.00
66.8218 524.00
66.887 512.00
66.9522 471.00
67.0174 502.00
67.0826 487.00
67.1478 480.00
67.213 466.00
67.2782 475.00
67.3434 528.00
67.4086 458.00
67.4738 513.00
67.539 499.00
67.6042 533.00
67.6694 657.00
67.7346 610.00
67.7998 639.00
67.865 617.00
67.9302 594.00
67.9954 565.00
68.0606 512.00
68.1258 474.00
68.191 384.00
68.2562 366.00
68.3214 416.00
68.3866 421.00
68.4518 366.00
68.517 401.00
68.5822 366.00
68.6474 350.00
68.7126 349.00
68.7778 334.00
68.843 353.00
68.9082 348.00
68.9734 382.00
69.0386 419.00
69.1038 453.00
69.169 561.00
69.2342 586.00
69.2994 620.00
69.3646 679.00
69.4298 698.00
69.495 606.00
69.5602 606.00
69.6254 623.00
69.6906 550.00
69.7558 541.00
69.821 537.00
69.8862 529.00
69.9514 480.00
70.0166 499.00
70.0818 458.00
70.147 446.00
70.2122 549.00
70.2774 528.00
70.3426 575.00
70.4078 655.00
70.473 624.00
70.5382 519.00
70.6034 579.00
70.6686 604.00
70.7338 518.00
70.799 519.00
70.8642 522.00
70.9294 499.00
70.9946 482.00
71.0598 451.00
71.125 430.00
71.1902 405.00
71.2554 428.00
71.3205 424.00
71.3858 427.00
71.451 391.00
71.5162 381.00
71.5813 424.00
71.6465 451.00
71.7117 528.00
71.7769 515.00
71.8421 586.00
71.9073 621.00
71.9725 665.00
72.0377 628.00
72.1029 655.00
72.1681 526.00
72.2333 502.00
72.2985 463.00
72.3637 404.00
72.4289 397.00
72.4941 383.00
72.5593 435.00
72.6245 428.00
72.6897 487.00
72.7549 500.00
72.8201 482.00
72.8853 530.00
72.9505 561.00
73.0157 625.00
73.0809 600.00
73.1461 625.00
73.2113 485.00
73.2765 493.00
73.3417 507.00
73.4069 421.00
73.4721 434.00
73.5373 399.00
73.6025 377.00
73.6677 385.00
73.7329 426.00
73.7981 400.00
73.8633 452.00
73.9285 445.00
73.9937 406.00
74.0589 406.00
74.1241 392.00
74.1893 350.00
74.2545 390.00
74.3197 376.00
74.3849 370.00
74.4501 417.00
74.5153 407.00
74.5805 412.00
74.6457 406.00
74.7109 375.00
74.7761 387.00
74.8413 394.00
74.9065 401.00
74.9717 398.00
75.0369 387.00
75.1021 350.00
75.1673 408.00
75.2325 447.00
75.2977 391.00
75.3629 455.00
75.4281 482.00
75.4933 478.00
75.5585 474.00
75.6237 428.00
75.6889 443.00
75.7541 439.00
75.8193 407.00
75.8845 407.00
75.9497 381.00
76.0149 413.00
76.0801 440.00
76.1452 469.00
76.2104 479.00
76.2756 487.00
76.3409 478.00
76.406 494.00
76.4712 471.00
76.5364 503.00
76.6016 435.00
76.6668 417.00
76.732 408.00
76.7972 412.00
76.8624 416.00
76.9276 437.00
76.9928 440.00
77.058 445.00
77.1232 487.00
77.1884 502.00
77.2536 515.00
77.3188 545.00
77.384 511.00
77.4492 436.00
77.5144 403.00
77.5796 432.00
77.6448 409.00
77.71 387.00
77.7752 405.00
77.8404 437.00
77.9056 455.00
77.9708 471.00
78.036 464.00
78.1012 409.00
78.1664 437.00
78.2316 446.00
78.2968 499.00
78.362 423.00
78.4272 425.00
78.4924 442.00
78.5576 411.00
78.6228 428.00
78.688 404.00
78.7532 384.00
78.8184 404.00
78.8836 401.00
78.9488 401.00
79.014 384.00
79.0792 430.00
79.1444 406.00
79.2096 417.00
79.2748 457.00
79.34 420.00
79.4052 461.00
79.4704 451.00
79.5356 464.00
79.6008 461.00
79.666 425.00
79.7312 413.00
79.7964 372.00
79.8616 393.00
79.9268 386.00
79.992 372.00
80.0572 344.00
80.1224 400.00
80.1876 423.00
80.2528 444.00
80.318 513.00
80.3832 487.00
80.4484 448.00
80.5136 462.00
80.5788 442.00
80.644 472.00
80.7092 450.00
80.7744 438.00
80.8396 417.00
80.9048 436.00
80.9699 427.00
81.0351 453.00
81.1003 463.00
81.1655 419.00
81.2307 481.00
81.2959 487.00
81.3611 517.00
81.4263 515.00
81.4915 496.00
81.5567 494.00
81.6219 482.00
81.6871 541.00
81.7523 517.00
81.8175 444.00
81.8827 415.00
81.9479 417.00
82.0131 411.00
82.0783 372.00
82.1435 405.00
82.2087 376.00
82.2739 403.00
82.3391 406.00
82.4043 371.00
82.4695 324.00
82.5347 395.00
82.5999 398.00
82.6651 377.00
82.7303 315.00
82.7955 357.00
82.8607 350.00
82.9259 321.00
82.9911 325.00
83.0563 348.00
83.1215 328.00
83.1867 368.00
83.2519 382.00
83.3171 396.00
83.3823 435.00
83.4475 438.00
83.5127 437.00
83.5779 418.00
83.6431 418.00
83.7083 429.00
83.7735 399.00
83.8387 415.00
83.9039 478.00
83.9691 559.00
84.0343 474.00
84.0995 455.00
84.1647 486.00
84.2299 489.00
84.2951 478.00
84.3603 446.00
84.4255 402.00
84.4907 439.00
84.5559 418.00
84.6211 441.00
84.6863 431.00
84.7515 434.00
84.8167 468.00
84.8819 418.00
84.9471 511.00
85.0123 533.00
85.0775 465.00
85.1427 458.00
85.2079 453.00
85.2731 454.00
85.3383 413.00
85.4035 397.00
85.4687 404.00
85.5339 404.00
85.5991 372.00
85.6643 358.00
85.7295 399.00
85.7946 387.00
85.8598 384.00
85.925 392.00
85.9903 396.00
86.0554 410.00
86.1206 429.00
86.1858 399.00
86.251 402.00
86.3162 392.00
86.3814 413.00
86.4466 408.00
86.5118 398.00
86.577 385.00
86.6422 423.00
86.7074 433.00
86.7726 404.00
86.8378 410.00
86.903 430.00
86.9682 441.00
87.0334 375.00
87.0986 376.00
87.1638 388.00
87.229 354.00
87.2942 389.00
87.3594 378.00
87.4246 381.00
87.4898 387.00
87.555 411.00
87.6202 397.00
87.6854 440.00
87.7506 423.00
87.8158 390.00
87.881 378.00
87.9462 407.00
88.0114 371.00
88.0766 376.00
88.1418 386.00
88.207 411.00
88.2722 426.00
88.3374 416.00
88.4026 420.00
88.4678 390.00
88.533 423.00
88.5982 419.00
88.6634 372.00
88.7286 452.00
88.7938 420.00
88.859 389.00
88.9242 428.00
88.9894 386.00
89.0546 406.00
89.1198 379.00
89.185 383.00
89.2502 386.00
89.3154 332.00
89.3806 389.00
89.4458 365.00
89.511 341.00
89.5762 385.00
89.6414 349.00
89.7066 350.00
89.7718 358.00
89.837 339.00
89.9022 319.00
89.9674 332.00
90.0326 318.00
90.0978 351.00
90.163 335.00
90.2282 365.00
90.2934 384.00
90.3586 361.00
90.4238 349.00
90.489 367.00
90.5542 364.00
90.6193 401.00
90.6845 342.00
90.7497 395.00
90.8149 371.00
90.8801 346.00
90.9453 357.00
91.0105 381.00
91.0757 375.00
91.1409 335.00
91.2061 318.00
91.2713 339.00
91.3365 329.00
91.4017 334.00
91.4669 336.00
91.5321 385.00
91.5973 401.00
91.6625 343.00
91.7277 383.00
91.7929 366.00
91.8581 413.00
91.9233 431.00
91.9885 418.00
92.0537 371.00
92.1189 363.00
92.1841 385.00
92.2493 406.00
92.3145 379.00
92.3797 356.00
92.4449 381.00
92.5101 349.00
92.5753 334.00
92.6405 345.00
92.7057 369.00
92.7709 386.00
92.8361 370.00
92.9013 385.00
92.9665 354.00
93.0317 411.00
93.0969 407.00
93.1621 406.00
93.2273 437.00
93.2925 423.00
93.3577 401.00
93.4229 396.00
93.4881 369.00
93.5533 380.00
93.6185 407.00
93.6837 370.00
93.7489 370.00
93.8141 410.00
93.8793 416.00
93.9445 366.00
94.0097 370.00
94.0749 363.00
94.1401 378.00
94.2053 384.00
94.2705 350.00
94.3357 356.00
94.4009 331.00
94.4661 340.00
94.5313 366.00
94.5965 343.00
94.6617 348.00
94.7269 407.00
94.7921 466.00
94.8573 503.00
94.9225 513.00
94.9877 479.00
95.0529 452.00
95.1181 493.00
95.1833 588.00
95.2485 482.00
95.3137 415.00
95.3789 503.00
95.444 523.00
95.5092 512.00
95.5744 457.00
95.6396 425.00
95.7048 395.00
95.77 441.00
95.8352 420.00
95.9004 402.00
95.9656 376.00
96.0308 372.00
96.096 395.00
96.1612 420.00
96.2264 404.00
96.2916 433.00
96.3568 432.00
96.422 417.00
96.4872 360.00
96.5524 377.00
96.6176 401.00
96.6828 386.00
96.748 351.00
96.8132 340.00
96.8784 341.00
96.9436 349.00
97.0088 349.00
97.074 377.00
97.1392 319.00
97.2044 356.00
97.2696 375.00
97.3348 313.00
97.4 348.00
97.4652 322.00
97.5304 342.00
97.5956 339.00
97.6608 336.00
97.726 313.00
97.7912 303.00
97.8564 343.00
97.9216 355.00
97.9868 345.00
98.052 369.00
98.1172 356.00
98.1824 318.00
98.2476 322.00
98.3128 357.00
98.378 352.00
98.4432 418.00
98.5084 375.00
98.5736 408.00
98.6388 344.00
98.704 390.00
98.7692 370.00
98.8344 389.00
98.8996 341.00
98.9648 334.00
99.03 367.00
99.0952 391.00
99.1604 389.00
99.2256 444.00
99.2908 456.00
99.356 425.00
99.4212 380.00
99.4864 337.00
99.5516 341.00
99.6168 369.00
99.682 383.00
99.7472 351.00
99.8124 389.00
99.8776 334.00
99.9428 384.00
100.008 363.00
100.073 322.00
100.095 353.00