File: data/xrd_creation/results/Na_-12.xy
9.903433 2699.00
9.968632 2520.00
10.0338 2602.00
10.099 2535.00
10.1642 2485.00
10.2294 2567.00
10.2946 2450.00
10.3598 2365.00
10.425 2400.00
10.4902 2303.00
10.5554 2381.00
10.6206 2314.00
10.6858 2310.00
10.751 2268.00
10.8162 2373.00
10.8814 2234.00
10.9466 2200.00
11.0118 2208.00
11.077 2211.00
11.1422 2248.00
11.2074 2152.00
11.2726 2120.00
11.3378 2052.00
11.403 2017.00
11.4682 2098.00
11.5334 2075.00
11.5986 1998.00
11.6638 2007.00
11.729 1955.00
11.7942 2032.00
11.8594 1962.00
11.9246 1918.00
11.9898 1972.00
12.055 1858.00
12.1202 1824.00
12.1854 1783.00
12.2506 1816.00
12.3158 1776.00
12.381 1766.00
12.4462 1712.00
12.5114 1772.00
12.5766 1690.00
12.6418 1711.00
12.707 1712.00
12.7722 1651.00
12.8374 1613.00
12.9026 1681.00
12.9678 1694.00
13.033 1612.00
13.0982 1641.00
13.1634 1557.00
13.2286 1614.00
13.2938 1569.00
13.359 1574.00
13.4242 1552.00
13.4894 1560.00
13.5546 1520.00
13.6198 1502.00
13.685 1497.00
13.7502 1585.00
13.8154 1440.00
13.8805 1486.00
13.9457 1454.00
14.0109 1510.00
14.0761 1484.00
14.1413 1511.00
14.2065 1448.00
14.2717 1434.00
14.3369 1393.00
14.4021 1360.00
14.4673 1467.00
14.5325 1402.00
14.5977 1423.00
14.6629 1309.00
14.7281 1355.00
14.7933 1413.00
14.8585 1399.00
14.9237 1333.00
14.9889 1384.00
15.0541 1302.00
15.1193 1285.00
15.1845 1338.00
15.2497 1323.00
15.3149 1357.00
15.3801 1312.00
15.4453 1326.00
15.5105 1336.00
15.5757 1306.00
15.6409 1224.00
15.7061 1223.00
15.7713 1315.00
15.8365 1262.00
15.9017 1293.00
15.9669 1285.00
16.0321 1181.00
16.0973 1245.00
16.1625 1197.00
16.2277 1197.00
16.2929 1263.00
16.3581 1256.00
16.4233 1108.00
16.4885 1258.00
16.5537 1242.00
16.6189 1169.00
16.6841 1140.00
16.7493 1212.00
16.8145 1152.00
16.8797 1115.00
16.9449 1143.00
17.0101 1164.00
17.0753 1232.00
17.1405 1174.00
17.2057 1177.00
17.2709 1174.00
17.3361 1143.00
17.4013 1186.00
17.4665 1139.00
17.5317 1168.00
17.5969 1136.00
17.6621 1084.00
17.7273 1095.00
17.7925 1073.00
17.8577 1057.00
17.9229 1069.00
17.9881 1088.00
18.0533 1049.00
18.1185 1038.00
18.1837 1043.00
18.2489 1090.00
18.3141 1060.00
18.3793 1068.00
18.4445 1082.00
18.5097 1036.00
18.5749 936.00
18.6401 1040.00
18.7052 1008.00
18.7704 1073.00
18.8356 969.00
18.9008 1037.00
18.966 984.00
19.0312 1030.00
19.0964 1024.00
19.1616 1009.00
19.2268 961.00
19.292 980.00
19.3572 960.00
19.4224 1023.00
19.4876 943.00
19.5528 945.00
19.618 977.00
19.6832 921.00
19.7484 959.00
19.8136 980.00
19.8788 954.00
19.944 1026.00
20.0092 941.00
20.0744 916.00
20.1396 853.00
20.2048 962.00
20.27 859.00
20.3352 932.00
20.4004 888.00
20.4656 927.00
20.5308 865.00
20.596 918.00
20.6612 877.00
20.7264 916.00
20.7916 858.00
20.8568 866.00
20.922 822.00
20.9872 913.00
21.0524 867.00
21.1176 870.00
21.1828 831.00
21.248 808.00
21.3132 847.00
21.3784 855.00
21.4436 841.00
21.5088 847.00
21.574 796.00
21.6392 856.00
21.7044 847.00
21.7696 842.00
21.8348 808.00
21.9 844.00
21.9652 828.00
22.0304 805.00
22.0956 812.00
22.1608 803.00
22.226 833.00
22.2912 845.00
22.3564 787.00
22.4216 779.00
22.4868 735.00
22.552 799.00
22.6172 766.00
22.6824 840.00
22.7476 800.00
22.8128 787.00
22.878 741.00
22.9432 772.00
23.0084 814.00
23.0736 796.00
23.1388 768.00
23.204 756.00
23.2692 726.00
23.3344 742.00
23.3996 800.00
23.4647 696.00
23.5299 719.00
23.5951 719.00
23.6603 784.00
23.7255 745.00
23.7907 706.00
23.8559 699.00
23.9211 722.00
23.9863 730.00
24.0515 708.00
24.1167 668.00
24.1819 725.00
24.2471 710.00
24.3123 712.00
24.3775 695.00
24.4427 665.00
24.5079 688.00
24.5731 661.00
24.6383 660.00
24.7035 670.00
24.7687 677.00
24.8339 695.00
24.8991 689.00
24.9643 684.00
25.0295 679.00
25.0947 657.00
25.1599 686.00
25.2251 684.00
25.2903 709.00
25.3555 663.00
25.4207 657.00
25.4859 663.00
25.5511 638.00
25.6163 696.00
25.6815 653.00
25.7467 667.00
25.8119 622.00
25.8771 636.00
25.9423 624.00
26.0075 605.00
26.0727 663.00
26.1379 656.00
26.2031 622.00
26.2683 635.00
26.3335 675.00
26.3987 661.00
26.4639 659.00
26.5291 666.00
26.5943 639.00
26.6595 593.00
26.7247 643.00
26.7899 642.00
26.8551 622.00
26.9203 609.00
26.9855 618.00
27.0507 636.00
27.1159 630.00
27.1811 579.00
27.2463 625.00
27.3115 629.00
27.3767 579.00
27.4419 594.00
27.5071 648.00
27.5723 594.00
27.6375 613.00
27.7027 565.00
27.7679 604.00
27.8331 568.00
27.8983 549.00
27.9635 611.00
28.0287 568.00
28.0939 602.00
28.1591 583.00
28.2243 607.00
28.2894 604.00
28.3546 571.00
28.4198 544.00
28.485 620.00
28.5502 550.00
28.6154 572.00
28.6806 564.00
28.7458 506.00
28.811 520.00
28.8762 584.00
28.9414 522.00
29.0066 573.00
29.0718 579.00
29.137 501.00
29.2022 568.00
29.2674 576.00
29.3326 546.00
29.3978 532.00
29.463 595.00
29.5282 599.00
29.5934 540.00
29.6586 517.00
29.7238 567.00
29.789 548.00
29.8542 522.00
29.9194 505.00
29.9846 524.00
30.0498 558.00
30.115 498.00
30.1802 514.00
30.2454 488.00
30.3106 511.00
30.3758 525.00
30.441 520.00
30.5062 527.00
30.5714 547.00
30.6366 523.00
30.7018 511.00
30.767 474.00
30.8322 489.00
30.8974 471.00
30.9626 478.00
31.0278 482.00
31.093 486.00
31.1582 465.00
31.2234 502.00
31.2886 474.00
31.3538 489.00
31.419 436.00
31.4842 534.00
31.5494 484.00
31.6146 448.00
31.6798 470.00
31.745 503.00
31.8102 476.00
31.8754 467.00
31.9406 447.00
32.0058 510.00
32.071 465.00
32.1362 468.00
32.2014 473.00
32.2666 500.00
32.3318 430.00
32.397 461.00
32.4622 462.00
32.5274 465.00
32.5926 481.00
32.6578 487.00
32.723 470.00
32.7882 487.00
32.8534 505.00
32.9186 413.00
32.9838 480.00
33.0489 470.00
33.1141 431.00
33.1793 445.00
33.2445 462.00
33.3097 459.00
33.3749 453.00
33.4401 427.00
33.5053 420.00
33.5705 463.00
33.6357 448.00
33.7009 462.00
33.7661 501.00
33.8313 432.00
33.8965 448.00
33.9617 453.00
34.0269 441.00
34.0921 459.00
34.1573 429.00
34.2225 357.00
34.2877 439.00
34.3529 475.00
34.4181 396.00
34.4833 407.00
34.5485 446.00
34.6137 422.00
34.6789 426.00
34.7441 415.00
34.8093 441.00
34.8745 435.00
34.9397 405.00
35.0049 400.00
35.0701 375.00
35.1353 365.00
35.2005 384.00
35.2657 397.00
35.3309 448.00
35.3961 364.00
35.4613 384.00
35.5265 389.00
35.5917 340.00
35.6569 382.00
35.7221 402.00
35.7873 417.00
35.8525 401.00
35.9177 415.00
35.9829 372.00
36.0481 391.00
36.1133 397.00
36.1785 395.00
36.2437 374.00
36.3089 412.00
36.3741 369.00
36.4393 406.00
36.5045 389.00
36.5697 345.00
36.6349 365.00
36.7001 367.00
36.7653 391.00
36.8305 370.00
36.8957 387.00
36.9609 398.00
37.0261 392.00
37.0913 376.00
37.1565 343.00
37.2217 362.00
37.2869 349.00
37.3521 394.00
37.4173 354.00
37.4825 363.00
37.5477 394.00
37.6129 343.00
37.6781 396.00
37.7433 342.00
37.8085 410.00
37.8736 324.00
37.9388 364.00
38.004 359.00
38.0692 362.00
38.1344 385.00
38.1996 362.00
38.2648 335.00
38.33 312.00
38.3952 327.00
38.4604 392.00
38.5256 349.00
38.5908 361.00
38.656 345.00
38.7212 355.00
38.7864 399.00
38.8516 319.00
38.9168 338.00
38.982 355.00
39.0472 337.00
39.1124 363.00
39.1776 349.00
39.2428 325.00
39.308 310.00
39.3732 347.00
39.4384 350.00
39.5036 311.00
39.5688 325.00
39.634 330.00
39.6992 318.00
39.7644 317.00
39.8296 370.00
39.8948 345.00
39.96 321.00
40.0252 321.00
40.0904 309.00
40.1556 344.00
40.2208 372.00
40.286 360.00
40.3512 307.00
40.4164 335.00
40.4816 334.00
40.5468 307.00
40.612 325.00
40.6772 318.00
40.7424 306.00
40.8076 310.00
40.8728 328.00
40.938 301.00
41.0032 322.00
41.0684 360.00
41.1336 315.00
41.1988 290.00
41.264 326.00
41.3292 322.00
41.3944 294.00
41.4596 310.00
41.5248 294.00
41.59 319.00
41.6552 299.00
41.7204 300.00
41.7856 308.00
41.8508 336.00
41.916 312.00
41.9812 276.00
42.0464 302.00
42.1116 313.00
42.1768 301.00
42.242 307.00
42.3072 299.00
42.3724 302.00
42.4376 309.00
42.5028 338.00
42.568 296.00
42.6332 334.00
42.6983 312.00
42.7635 312.00
42.8287 313.00
42.8939 349.00
42.9591 301.00
43.0243 300.00
43.0895 285.00
43.1547 315.00
43.2199 295.00
43.2851 288.00
43.3503 324.00
43.4155 324.00
43.4807 280.00
43.5459 306.00
43.6111 283.00
43.6763 294.00
43.7415 279.00
43.8067 323.00
43.8719 309.00
43.9371 283.00
44.0023 280.00
44.0675 289.00
44.1327 278.00
44.1979 283.00
44.2631 248.00
44.3283 278.00
44.3935 295.00
44.4587 286.00
44.5239 276.00
44.5891 234.00
44.6543 279.00
44.7195 268.00
44.7847 272.00
44.8499 259.00
44.9151 271.00
44.9803 242.00
45.0455 261.00
45.1107 303.00
45.1759 274.00
45.2411 305.00
45.3063 280.00
45.3715 247.00
45.4367 272.00
45.5019 232.00
45.5671 305.00
45.6323 256.00
45.6975 267.00
45.7627 302.00
45.8279 297.00
45.8931 281.00
45.9583 285.00
46.0235 243.00
46.0887 275.00
46.1539 225.00
46.2191 300.00
46.2843 261.00
46.3495 271.00
46.4147 265.00
46.4799 248.00
46.5451 263.00
46.6103 244.00
46.6755 262.00
46.7407 276.00
46.8059 271.00
46.8711 271.00
46.9363 272.00
47.0015 264.00
47.0667 275.00
47.1319 279.00
47.1971 279.00
47.2623 239.00
47.3275 256.00
47.3927 237.00
47.4579 248.00
47.523 261.00
47.5882 270.00
47.6534 292.00
47.7186 283.00
47.7838 269.00
47.849 275.00
47.9142 225.00
47.9794 246.00
48.0446 270.00
48.1098 249.00
48.175 248.00
48.2402 244.00
48.3054 285.00
48.3706 227.00
48.4358 286.00
48.501 238.00
48.5662 293.00
48.6314 264.00
48.6966 280.00
48.7618 243.00
48.827 244.00
48.8922 262.00
48.9574 262.00
49.0226 229.00
49.0878 242.00
49.153 257.00
49.2182 220.00
49.2834 262.00
49.3486 259.00
49.4138 249.00
49.479 227.00
49.5442 274.00
49.6094 256.00
49.6746 246.00
49.7398 259.00
49.805 221.00
49.8702 243.00
49.9354 228.00
50.0006 263.00
50.0658 242.00
50.131 293.00
50.1962 228.00
50.2614 257.00
50.3266 239.00
50.3918 218.00
50.457 277.00
50.5222 275.00
50.5874 256.00
50.6526 248.00
50.7178 256.00
50.783 287.00
50.8482 239.00
50.9134 272.00
50.9786 249.00
51.0438 240.00
51.109 222.00
51.1742 248.00
51.2394 243.00
51.3046 256.00
51.3698 243.00
51.435 238.00
51.5002 242.00
51.5654 276.00
51.6306 280.00
51.6958 234.00
51.761 271.00
51.8262 272.00
51.8914 248.00
51.9566 225.00
52.0218 240.00
52.087 197.00
52.1522 230.00
52.2174 205.00
52.2826 222.00
52.3477 236.00
52.4129 238.00
52.4781 235.00
52.5433 230.00
52.6085 230.00
52.6737 233.00
52.7389 234.00
52.8041 245.00
52.8693 241.00
52.9345 249.00
52.9997 249.00
53.0649 218.00
53.1301 217.00
53.1953 226.00
53.2605 238.00
53.3257 239.00
53.3909 239.00
53.4561 219.00
53.5213 235.00
53.5865 230.00
53.6517 205.00
53.7169 257.00
53.7821 236.00
53.8473 218.00
53.9125 208.00
53.9777 209.00
54.0429 217.00
54.1081 229.00
54.1733 248.00
54.2385 231.00
54.3037 236.00
54.3689 226.00
54.4341 229.00
54.4993 207.00
54.5645 239.00
54.6297 250.00
54.6949 256.00
54.7601 217.00
54.8253 208.00
54.8905 220.00
54.9557 212.00
55.0209 233.00
55.0861 225.00
55.1513 225.00
55.2165 241.00
55.2817 198.00
55.3469 221.00
55.4121 184.00
55.4773 201.00
55.5425 194.00
55.6077 204.00
55.6729 198.00
55.7381 225.00
55.8033 192.00
55.8685 226.00
55.9337 203.00
55.9989 245.00
56.0641 201.00
56.1293 191.00
56.1945 207.00
56.2597 214.00
56.3249 204.00
56.3901 212.00
56.4553 181.00
56.5205 193.00
56.5857 209.00
56.6509 191.00
56.7161 213.00
56.7813 186.00
56.8465 207.00
56.9117 205.00
56.9769 181.00
57.042 187.00
57.1073 198.00
57.1724 234.00
57.2376 206.00
57.3028 191.00
57.368 168.00
57.4332 206.00
57.4984 202.00
57.5636 197.00
57.6288 210.00
57.694 177.00
57.7592 189.00
57.8244 205.00
57.8896 198.00
57.9548 205.00
58.02 221.00
58.0852 173.00
58.1504 186.00
58.2156 203.00
58.2808 201.00
58.346 194.00
58.4112 183.00
58.4764 227.00
58.5416 202.00
58.6068 173.00
58.672 201.00
58.7372 209.00
58.8024 179.00
58.8676 190.00
58.9328 208.00
58.998 192.00
59.0632 191.00
59.1284 189.00
59.1936 192.00
59.2588 220.00
59.324 167.00
59.3892 198.00
59.4544 175.00
59.5196 207.00
59.5848 193.00
59.65 182.00
59.7152 188.00
59.7804 195.00
59.8456 203.00
59.9108 187.00
59.976 181.00
60.0412 198.00
60.1064 177.00
60.1716 188.00
60.2368 187.00
60.302 220.00
60.3672 204.00
60.4324 197.00
60.4976 188.00
60.5628 195.00
60.628 176.00
60.6932 171.00
60.7584 192.00
60.8236 195.00
60.8888 177.00
60.954 189.00
61.0192 191.00
61.0844 178.00
61.1496 185.00
61.2148 200.00
61.28 191.00
61.3452 202.00
61.4104 185.00
61.4756 207.00
61.5408 188.00
61.606 175.00
61.6712 200.00
61.7364 155.00
61.8016 195.00
61.8667 200.00
61.932 187.00
61.9971 213.00
62.0623 195.00
62.1275 185.00
62.1927 191.00
62.2579 208.00
62.3231 172.00
62.3883 196.00
62.4535 195.00
62.5187 171.00
62.5839 193.00
62.6491 176.00
62.7143 209.00
62.7795 164.00
62.8447 165.00
62.9099 185.00
62.9751 204.00
63.0403 184.00
63.1055 178.00
63.1707 168.00
63.2359 195.00
63.3011 204.00
63.3663 187.00
63.4315 182.00
63.4967 166.00
63.5619 194.00
63.6271 172.00
63.6923 181.00
63.7575 164.00
63.8227 162.00
63.8879 212.00
63.9531 221.00
64.0183 214.00
64.0835 193.00
64.1487 200.00
64.2139 196.00
64.2791 175.00
64.3443 173.00
64.4095 171.00
64.4747 165.00
64.5399 169.00
64.6051 197.00
64.6703 189.00
64.7355 163.00
64.8007 172.00
64.8659 179.00
64.9311 191.00
64.9963 177.00
65.0615 172.00
65.1267 183.00
65.1919 164.00
65.2571 204.00
65.3223 188.00
65.3875 167.00
65.4527 179.00
65.5179 179.00
65.5831 161.00
65.6483 166.00
65.7135 191.00
65.7787 188.00
65.8439 183.00
65.9091 198.00
65.9743 181.00
66.0395 170.00
66.1047 173.00
66.1699 180.00
66.2351 177.00
66.3003 197.00
66.3655 200.00
66.4307 168.00
66.4959 197.00
66.561 172.00
66.6263 166.00
66.6915 173.00
66.7566 187.00
66.8218 169.00
66.887 162.00
66.9522 175.00
67.0174 168.00
67.0826 178.00
67.1478 182.00
67.213 173.00
67.2782 189.00
67.3434 175.00
67.4086 169.00
67.4738 175.00
67.539 186.00
67.6042 153.00
67.6694 157.00
67.7346 188.00
67.7998 187.00
67.865 156.00
67.9302 166.00
67.9954 178.00
68.0606 192.00
68.1258 179.00
68.191 182.00
68.2562 169.00
68.3214 157.00
68.3866 181.00
68.4518 180.00
68.517 175.00
68.5822 196.00
68.6474 199.00
68.7126 176.00
68.7778 183.00
68.843 188.00
68.9082 175.00
68.9734 174.00
69.0386 174.00
69.1038 178.00
69.169 184.00
69.2342 199.00
69.2994 187.00
69.3646 165.00
69.4298 186.00
69.495 157.00
69.5602 202.00
69.6254 154.00
69.6906 174.00
69.7558 173.00
69.821 183.00
69.8862 195.00
69.9514 153.00
70.0166 187.00
70.0818 193.00
70.147 168.00
70.2122 184.00
70.2774 184.00
70.3426 197.00
70.4078 193.00
70.473 204.00
70.5382 178.00
70.6034 172.00
70.6686 162.00
70.7338 185.00
70.799 176.00
70.8642 163.00
70.9294 184.00
70.9946 177.00
71.0598 164.00
71.125 171.00
71.1902 183.00
71.2554 175.00
71.3205 190.00
71.3858 167.00
71.451 159.00
71.5162 181.00
71.5813 163.00
71.6465 185.00
71.7117 160.00
71.7769 179.00
71.8421 165.00
71.9073 198.00
71.9725 179.00
72.0377 169.00
72.1029 178.00
72.1681 192.00
72.2333 177.00
72.2985 189.00
72.3637 191.00
72.4289 191.00
72.4941 158.00
72.5593 201.00
72.6245 205.00
72.6897 161.00
72.7549 188.00
72.8201 204.00
72.8853 180.00
72.9505 179.00
73.0157 196.00
73.0809 192.00
73.1461 206.00
73.2113 158.00
73.2765 197.00
73.3417 203.00
73.4069 180.00
73.4721 189.00
73.5373 188.00
73.6025 195.00
73.6677 187.00
73.7329 201.00
73.7981 193.00
73.8633 194.00
73.9285 197.00
73.9937 197.00
74.0589 179.00
74.1241 182.00
74.1893 191.00
74.2545 194.00
74.3197 187.00
74.3849 179.00
74.4501 192.00
74.5153 186.00
74.5805 205.00
74.6457 200.00
74.7109 159.00
74.7761 222.00
74.8413 179.00
74.9065 192.00
74.9717 173.00
75.0369 160.00
75.1021 175.00
75.1673 214.00
75.2325 163.00
75.2977 179.00
75.3629 195.00
75.4281 173.00
75.4933 177.00
75.5585 178.00
75.6237 197.00
75.6889 164.00
75.7541 211.00
75.8193 201.00
75.8845 207.00
75.9497 194.00
76.0149 194.00
76.0801 205.00
76.1452 204.00
76.2104 194.00
76.2756 185.00
76.3409 238.00
76.406 213.00
76.4712 182.00
76.5364 195.00
76.6016 212.00
76.6668 184.00
76.732 193.00
76.7972 189.00
76.8624 200.00
76.9276 200.00
76.9928 206.00
77.058 193.00
77.1232 200.00
77.1884 210.00
77.2536 191.00
77.3188 207.00
77.384 188.00
77.4492 198.00
77.5144 191.00
77.5796 192.00
77.6448 204.00
77.71 180.00
77.7752 201.00
77.8404 205.00
77.9056 186.00
77.9708 210.00
78.036 203.00
78.1012 192.00
78.1664 211.00
78.2316 211.00
78.2968 199.00
78.362 230.00
78.4272 208.00
78.4924 193.00
78.5576 238.00
78.6228 193.00
78.688 187.00
78.7532 189.00
78.8184 199.00
78.8836 207.00
78.9488 183.00
79.014 226.00
79.0792 217.00
79.1444 192.00
79.2096 194.00
79.2748 200.00
79.34 196.00
79.4052 228.00
79.4704 235.00
79.5356 206.00
79.6008 208.00
79.666 184.00
79.7312 214.00
79.7964 202.00
79.8616 214.00
79.9268 235.00
79.992 201.00
80.0572 204.00
80.1224 217.00
80.1876 229.00
80.2528 225.00
80.318 193.00
80.3832 225.00
80.4484 207.00
80.5136 214.00
80.5788 256.00
80.644 203.00
80.7092 230.00
80.7744 191.00
80.8396 230.00
80.9048 243.00
80.9699 199.00
81.0351 223.00
81.1003 238.00
81.1655 194.00
81.2307 240.00
81.2959 219.00
81.3611 227.00
81.4263 211.00
81.4915 222.00
81.5567 201.00
81.6219 216.00
81.6871 223.00
81.7523 200.00
81.8175 201.00
81.8827 221.00
81.9479 205.00
82.0131 216.00
82.0783 214.00
82.1435 217.00
82.2087 214.00
82.2739 269.00
82.3391 201.00
82.4043 209.00
82.4695 198.00
82.5347 226.00
82.5999 218.00
82.6651 171.00
82.7303 227.00
82.7955 227.00
82.8607 229.00
82.9259 218.00
82.9911 208.00
83.0563 227.00
83.1215 232.00
83.1867 205.00
83.2519 225.00
83.3171 190.00
83.3823 199.00
83.4475 231.00
83.5127 189.00
83.5779 193.00
83.6431 259.00
83.7083 238.00
83.7735 214.00
83.8387 187.00
83.9039 213.00
83.9691 213.00
84.0343 207.00
84.0995 201.00
84.1647 191.00
84.2299 227.00
84.2951 193.00
84.3603 191.00
84.4255 202.00
84.4907 196.00
84.5559 205.00
84.6211 204.00
84.6863 202.00
84.7515 206.00
84.8167 218.00
84.8819 181.00
84.9471 179.00
85.0123 212.00
85.0775 170.00
85.1427 194.00
85.2079 207.00
85.2731 201.00
85.3383 176.00
85.4035 196.00
85.4687 213.00
85.5339 190.00
85.5991 198.00
85.6643 206.00
85.7295 187.00
85.7946 210.00
85.8598 178.00
85.925 196.00
85.9903 210.00
86.0554 180.00
86.1206 173.00
86.1858 207.00
86.251 189.00
86.3162 201.00
86.3814 194.00
86.4466 221.00
86.5118 204.00
86.577 182.00
86.6422 189.00
86.7074 187.00
86.7726 190.00
86.8378 213.00
86.903 190.00
86.9682 195.00
87.0334 209.00
87.0986 172.00
87.1638 184.00
87.229 209.00
87.2942 190.00
87.3594 199.00
87.4246 183.00
87.4898 176.00
87.555 195.00
87.6202 171.00
87.6854 176.00
87.7506 166.00
87.8158 189.00
87.881 206.00
87.9462 186.00
88.0114 168.00
88.0766 169.00
88.1418 180.00
88.207 189.00
88.2722 212.00
88.3374 167.00
88.4026 172.00
88.4678 177.00
88.533 160.00
88.5982 184.00
88.6634 178.00
88.7286 204.00
88.7938 181.00
88.859 201.00
88.9242 190.00
88.9894 182.00
89.0546 188.00
89.1198 180.00
89.185 187.00
89.2502 195.00
89.3154 176.00
89.3806 199.00
89.4458 198.00
89.511 150.00
89.5762 176.00
89.6414 164.00
89.7066 160.00
89.7718 175.00
89.837 179.00
89.9022 190.00
89.9674 201.00
90.0326 157.00
90.0978 183.00
90.163 202.00
90.2282 185.00
90.2934 171.00
90.3586 161.00
90.4238 187.00
90.489 184.00
90.5542 177.00
90.6193 171.00
90.6845 182.00
90.7497 193.00
90.8149 173.00
90.8801 176.00
90.9453 188.00
91.0105 156.00
91.0757 189.00
91.1409 160.00
91.2061 177.00
91.2713 167.00
91.3365 163.00
91.4017 177.00
91.4669 183.00
91.5321 189.00
91.5973 157.00
91.6625 177.00
91.7277 181.00
91.7929 166.00
91.8581 199.00
91.9233 184.00
91.9885 168.00
92.0537 170.00
92.1189 179.00
92.1841 186.00
92.2493 192.00
92.3145 164.00
92.3797 155.00
92.4449 175.00
92.5101 188.00
92.5753 162.00
92.6405 179.00
92.7057 197.00
92.7709 193.00
92.8361 183.00
92.9013 175.00
92.9665 178.00
93.0317 194.00
93.0969 171.00
93.1621 187.00
93.2273 168.00
93.2925 191.00
93.3577 190.00
93.4229 207.00
93.4881 184.00
93.5533 146.00
93.6185 159.00
93.6837 164.00
93.7489 150.00
93.8141 147.00
93.8793 176.00
93.9445 197.00
94.0097 178.00
94.0749 176.00
94.1401 176.00
94.2053 167.00
94.2705 176.00
94.3357 197.00
94.4009 164.00
94.4661 189.00
94.5313 160.00
94.5965 170.00
94.6617 181.00
94.7269 153.00
94.7921 176.00
94.8573 170.00
94.9225 166.00
94.9877 167.00
95.0529 192.00
95.1181 193.00
95.1833 155.00
95.2485 153.00
95.3137 159.00
95.3789 187.00
95.444 194.00
95.5092 184.00
95.5744 177.00
95.6396 178.00
95.7048 177.00
95.77 163.00
95.8352 180.00
95.9004 184.00
95.9656 178.00
96.0308 159.00
96.096 171.00
96.1612 165.00
96.2264 166.00
96.2916 169.00
96.3568 162.00
96.422 158.00
96.4872 166.00
96.5524 177.00
96.6176 169.00
96.6828 164.00
96.748 172.00
96.8132 186.00
96.8784 191.00
96.9436 188.00
97.0088 169.00
97.074 168.00
97.1392 172.00
97.2044 169.00
97.2696 158.00
97.3348 176.00
97.4 190.00
97.4652 161.00
97.5304 169.00
97.5956 169.00
97.6608 183.00
97.726 170.00
97.7912 160.00
97.8564 166.00
97.9216 171.00
97.9868 165.00
98.052 175.00
98.1172 162.00
98.1824 178.00
98.2476 186.00
98.3128 160.00
98.378 188.00
98.4432 190.00
98.5084 179.00
98.5736 154.00
98.6388 170.00
98.704 160.00
98.7692 176.00
98.8344 167.00
98.8996 168.00
98.9648 201.00
99.03 192.00
99.0952 145.00
99.1604 176.00
99.2256 179.00
99.2908 139.00
99.356 178.00
99.4212 184.00
99.4864 173.00
99.5516 185.00
99.6168 164.00
99.682 177.00
99.7472 189.00
99.8124 189.00
99.8776 160.00
99.9428 150.00
100.008 184.00
100.073 186.00
100.095 182.00