File: data/xrd_creation/results/Na_-2.xy
9.903433 2745.00
9.968632 2735.00
10.0338 2634.00
10.099 2768.00
10.1642 2715.00
10.2294 2644.00
10.2946 2679.00
10.3598 2613.00
10.425 2642.00
10.4902 2645.00
10.5554 2541.00
10.6206 2508.00
10.6858 2505.00
10.751 2439.00
10.8162 2510.00
10.8814 2504.00
10.9466 2408.00
11.0118 2307.00
11.077 2439.00
11.1422 2414.00
11.2074 2301.00
11.2726 2317.00
11.3378 2255.00
11.403 2441.00
11.4682 2391.00
11.5334 2366.00
11.5986 2362.00
11.6638 2461.00
11.729 2530.00
11.7942 2308.00
11.8594 2207.00
11.9246 2143.00
11.9898 2145.00
12.055 2116.00
12.1202 2173.00
12.1854 2065.00
12.2506 2030.00
12.3158 2083.00
12.381 2059.00
12.4462 2066.00
12.5114 2019.00
12.5766 2117.00
12.6418 2032.00
12.707 2175.00
12.7722 2143.00
12.8374 2134.00
12.9026 2071.00
12.9678 1925.00
13.033 2019.00
13.0982 1966.00
13.1634 1947.00
13.2286 1930.00
13.2938 1919.00
13.359 1919.00
13.4242 1891.00
13.4894 1898.00
13.5546 1892.00
13.6198 1858.00
13.685 1762.00
13.7502 1847.00
13.8154 1804.00
13.8805 1799.00
13.9457 1810.00
14.0109 1869.00
14.0761 1779.00
14.1413 1744.00
14.2065 1812.00
14.2717 1705.00
14.3369 1698.00
14.4021 1808.00
14.4673 1800.00
14.5325 1806.00
14.5977 1794.00
14.6629 1824.00
14.7281 1810.00
14.7933 1633.00
14.8585 1711.00
14.9237 1662.00
14.9889 1651.00
15.0541 1689.00
15.1193 1631.00
15.1845 1677.00
15.2497 1669.00
15.3149 1630.00
15.3801 1629.00
15.4453 1655.00
15.5105 1628.00
15.5757 1639.00
15.6409 1647.00
15.7061 1640.00
15.7713 1671.00
15.8365 1527.00
15.9017 1570.00
15.9669 1676.00
16.0321 1607.00
16.0973 1616.00
16.1625 1663.00
16.2277 1646.00
16.2929 1586.00
16.3581 1512.00
16.4233 1548.00
16.4885 1604.00
16.5537 1569.00
16.6189 1501.00
16.6841 1557.00
16.7493 1564.00
16.8145 1517.00
16.8797 1466.00
16.9449 1531.00
17.0101 1612.00
17.0753 1522.00
17.1405 1496.00
17.2057 1560.00
17.2709 1552.00
17.3361 1567.00
17.4013 1609.00
17.4665 1662.00
17.5317 1768.00
17.5969 1916.00
17.6621 2328.00
17.7273 2774.00
17.7925 2975.00
17.8577 2071.00
17.9229 1568.00
17.9881 1437.00
18.0533 1379.00
18.1185 1411.00
18.1837 1463.00
18.2489 1459.00
18.3141 1456.00
18.3793 1453.00
18.4445 1447.00
18.5097 1405.00
18.5749 1524.00
18.6401 1627.00
18.7052 1594.00
18.7704 1431.00
18.8356 1451.00
18.9008 1414.00
18.966 1454.00
19.0312 1459.00
19.0964 1627.00
19.1616 1592.00
19.2268 1608.00
19.292 1476.00
19.3572 1535.00
19.4224 1455.00
19.4876 1451.00
19.5528 1332.00
19.618 1345.00
19.6832 1440.00
19.7484 1411.00
19.8136 1380.00
19.8788 1444.00
19.944 1491.00
20.0092 1675.00
20.0744 2058.00
20.1396 2511.00
20.2048 3059.00
20.27 3782.00
20.3352 4225.00
20.4004 3573.00
20.4656 2673.00
20.5308 2309.00
20.596 2163.00
20.6612 1967.00
20.7264 1649.00
20.7916 1450.00
20.8568 1367.00
20.922 1343.00
20.9872 1395.00
21.0524 1369.00
21.1176 1495.00
21.1828 1556.00
21.248 1439.00
21.3132 1393.00
21.3784 1403.00
21.4436 1606.00
21.5088 1655.00
21.574 1901.00
21.6392 1999.00
21.7044 1871.00
21.7696 1749.00
21.8348 1491.00
21.9 1275.00
21.9652 1210.00
22.0304 1276.00
22.0956 1216.00
22.1608 1332.00
22.226 1353.00
22.2912 1408.00
22.3564 1429.00
22.4216 1580.00
22.4868 1746.00
22.552 2355.00
22.6172 3157.00
22.6824 3746.00
22.7476 2694.00
22.8128 1651.00
22.878 1393.00
22.9432 1472.00
23.0084 1553.00
23.0736 1839.00
23.1388 2398.00
23.204 3216.00
23.2692 3724.00
23.3344 3097.00
23.3996 2716.00
23.4647 2838.00
23.5299 2999.00
23.5951 2291.00
23.6603 1647.00
23.7255 1694.00
23.7907 1399.00
23.8559 1257.00
23.9211 1126.00
23.9863 1120.00
24.0515 1084.00
24.1167 1139.00
24.1819 1124.00
24.2471 1053.00
24.3123 1090.00
24.3775 1127.00
24.4427 1102.00
24.5079 1098.00
24.5731 1128.00
24.6383 1154.00
24.7035 1029.00
24.7687 1091.00
24.8339 1097.00
24.8991 1022.00
24.9643 1029.00
25.0295 1104.00
25.0947 1110.00
25.1599 1152.00
25.2251 1276.00
25.2903 1548.00
25.3555 2097.00
25.4207 2981.00
25.4859 3304.00
25.5511 2499.00
25.6163 1740.00
25.6815 1773.00
25.7467 2401.00
25.8119 2748.00
25.8771 2108.00
25.9423 1385.00
26.0075 1228.00
26.0727 1207.00
26.1379 1233.00
26.2031 1184.00
26.2683 1125.00
26.3335 1157.00
26.3987 1227.00
26.4639 1327.00
26.5291 1327.00
26.5943 1379.00
26.6595 1660.00
26.7247 1811.00
26.7899 1622.00
26.8551 1554.00
26.9203 1746.00
26.9855 2050.00
27.0507 1719.00
27.1159 1240.00
27.1811 1077.00
27.2463 951.00
27.3115 936.00
27.3767 963.00
27.4419 992.00
27.5071 997.00
27.5723 1011.00
27.6375 948.00
27.7027 956.00
27.7679 959.00
27.8331 954.00
27.8983 963.00
27.9635 1018.00
28.0287 1090.00
28.0939 1275.00
28.1591 1337.00
28.2243 1169.00
28.2894 1071.00
28.3546 1063.00
28.4198 1021.00
28.485 988.00
28.5502 947.00
28.6154 933.00
28.6806 976.00
28.7458 949.00
28.811 971.00
28.8762 1014.00
28.9414 1132.00
29.0066 1261.00
29.0718 1565.00
29.137 1778.00
29.2022 1892.00
29.2674 1550.00
29.3326 1462.00
29.3978 1289.00
29.463 1394.00
29.5282 1990.00
29.5934 3194.00
29.6586 5281.00
29.7238 5104.00
29.789 3665.00
29.8542 2077.00
29.9194 1406.00
29.9846 1239.00
30.0498 1231.00
30.115 1059.00
30.1802 1037.00
30.2454 1054.00
30.3106 1069.00
30.3758 948.00
30.441 873.00
30.5062 845.00
30.5714 898.00
30.6366 899.00
30.7018 946.00
30.767 940.00
30.8322 1046.00
30.8974 1163.00
30.9626 1395.00
31.0278 1860.00
31.093 2256.00
31.1582 2016.00
31.2234 1646.00
31.2886 1562.00
31.3538 1661.00
31.419 1820.00
31.4842 1579.00
31.5494 1478.00
31.6146 1469.00
31.6798 1688.00
31.745 2455.00
31.8102 3901.00
31.8754 5955.00
31.9406 5957.00
32.0058 3883.00
32.071 2179.00
32.1362 1889.00
32.2014 2026.00
32.2666 2605.00
32.3318 3242.00
32.397 3313.00
32.4622 3938.00
32.5274 5025.00
32.5926 5601.00
32.6578 4393.00
32.723 3095.00
32.7882 2392.00
32.8534 2519.00
32.9186 2770.00
32.9838 3087.00
33.0489 3376.00
33.1141 4656.00
33.1793 5650.00
33.2445 5297.00
33.3097 4707.00
33.3749 3926.00
33.4401 3217.00
33.5053 2436.00
33.5705 1851.00
33.6357 1776.00
33.7009 1912.00
33.7661 2211.00
33.8313 1900.00
33.8965 1669.00
33.9617 1494.00
34.0269 1406.00
34.0921 1314.00
34.1573 1487.00
34.2225 1996.00
34.2877 2760.00
34.3529 3991.00
34.4181 3956.00
34.4833 2698.00
34.5485 1561.00
34.6137 1269.00
34.6789 1172.00
34.7441 1187.00
34.8093 1136.00
34.8745 1219.00
34.9397 1191.00
35.0049 1230.00
35.0701 1202.00
35.1353 1123.00
35.2005 993.00
35.2657 923.00
35.3309 936.00
35.3961 952.00
35.4613 1034.00
35.5265 1089.00
35.5917 1145.00
35.6569 1184.00
35.7221 1221.00
35.7873 1143.00
35.8525 1102.00
35.9177 963.00
35.9829 927.00
36.0481 965.00
36.1133 988.00
36.1785 1161.00
36.2437 1420.00
36.3089 1193.00
36.3741 1273.00
36.4393 1321.00
36.5045 1026.00
36.5697 817.00
36.6349 741.00
36.7001 772.00
36.7653 826.00
36.8305 896.00
36.8957 870.00
36.9609 889.00
37.0261 920.00
37.0913 950.00
37.1565 902.00
37.2217 862.00
37.2869 828.00
37.3521 932.00
37.4173 1048.00
37.4825 1221.00
37.5477 1339.00
37.6129 1116.00
37.6781 929.00
37.7433 794.00
37.8085 713.00
37.8736 669.00
37.9388 684.00
38.004 629.00
38.0692 647.00
38.1344 689.00
38.1996 697.00
38.2648 706.00
38.33 741.00
38.3952 774.00
38.4604 778.00
38.5256 831.00
38.5908 892.00
38.656 1028.00
38.7212 1175.00
38.7864 1076.00
38.8516 1049.00
38.9168 978.00
38.982 982.00
39.0472 856.00
39.1124 842.00
39.1776 804.00
39.2428 863.00
39.308 767.00
39.3732 861.00
39.4384 945.00
39.5036 1043.00
39.5688 1135.00
39.634 1418.00
39.6992 1430.00
39.7644 1069.00
39.8296 842.00
39.8948 727.00
39.96 734.00
40.0252 714.00
40.0904 768.00
40.1556 978.00
40.2208 1085.00
40.286 1074.00
40.3512 972.00
40.4164 796.00
40.4816 731.00
40.5468 689.00
40.612 583.00
40.6772 646.00
40.7424 630.00
40.8076 660.00
40.8728 849.00
40.938 934.00
41.0032 1042.00
41.0684 1317.00
41.1336 1504.00
41.1988 1418.00
41.264 1130.00
41.3292 857.00
41.3944 734.00
41.4596 768.00
41.5248 753.00
41.59 832.00
41.6552 939.00
41.7204 1144.00
41.7856 1212.00
41.8508 1173.00
41.916 1218.00
41.9812 960.00
42.0464 873.00
42.1116 774.00
42.1768 732.00
42.242 841.00
42.3072 891.00
42.3724 943.00
42.4376 823.00
42.5028 741.00
42.568 641.00
42.6332 616.00
42.6983 684.00
42.7635 647.00
42.8287 687.00
42.8939 705.00
42.9591 726.00
43.0243 711.00
43.0895 680.00
43.1547 665.00
43.2199 734.00
43.2851 832.00
43.3503 1102.00
43.4155 1441.00
43.4807 1253.00
43.5459 1220.00
43.6111 1054.00
43.6763 1294.00
43.7415 1584.00
43.8067 1808.00
43.8719 1949.00
43.9371 1665.00
44.0023 1394.00
44.0675 1067.00
44.1327 861.00
44.1979 860.00
44.2631 796.00
44.3283 766.00
44.3935 682.00
44.4587 656.00
44.5239 652.00
44.5891 602.00
44.6543 601.00
44.7195 587.00
44.7847 608.00
44.8499 698.00
44.9151 700.00
44.9803 683.00
45.0455 632.00
45.1107 694.00
45.1759 735.00
45.2411 709.00
45.3063 761.00
45.3715 736.00
45.4367 784.00
45.5019 822.00
45.5671 810.00
45.6323 796.00
45.6975 758.00
45.7627 843.00
45.8279 976.00
45.8931 1410.00
45.9583 1693.00
46.0235 1494.00
46.0887 1216.00
46.1539 906.00
46.2191 725.00
46.2843 754.00
46.3495 695.00
46.4147 667.00
46.4799 692.00
46.5451 717.00
46.6103 608.00
46.6755 664.00
46.7407 720.00
46.8059 772.00
46.8711 837.00
46.9363 998.00
47.0015 1123.00
47.0667 1627.00
47.1319 2066.00
47.1971 2410.00
47.2623 2125.00
47.3275 1867.00
47.3927 1665.00
47.4579 1575.00
47.523 1703.00
47.5882 1872.00
47.6534 2146.00
47.7186 2811.00
47.7838 2662.00
47.849 2174.00
47.9142 1677.00
47.9794 981.00
48.0446 846.00
48.1098 736.00
48.175 685.00
48.2402 761.00
48.3054 775.00
48.3706 775.00
48.4358 741.00
48.501 700.00
48.5662 751.00
48.6314 834.00
48.6966 1162.00
48.7618 1283.00
48.827 941.00
48.8922 965.00
48.9574 738.00
49.0226 591.00
49.0878 572.00
49.153 588.00
49.2182 574.00
49.2834 516.00
49.3486 516.00
49.4138 557.00
49.479 578.00
49.5442 541.00
49.6094 647.00
49.6746 695.00
49.7398 695.00
49.805 649.00
49.8702 676.00
49.9354 627.00
50.0006 612.00
50.0658 655.00
50.131 633.00
50.1962 627.00
50.2614 640.00
50.3266 589.00
50.3918 576.00
50.457 547.00
50.5222 534.00
50.5874 533.00
50.6526 520.00
50.7178 534.00
50.783 542.00
50.8482 569.00
50.9134 606.00
50.9786 676.00
51.0438 735.00
51.109 725.00
51.1742 661.00
51.2394 588.00
51.3046 557.00
51.3698 516.00
51.435 596.00
51.5002 626.00
51.5654 619.00
51.6306 593.00
51.6958 620.00
51.761 715.00
51.8262 778.00
51.8914 881.00
51.9566 812.00
52.0218 812.00
52.087 808.00
52.1522 785.00
52.2174 731.00
52.2826 808.00
52.3477 724.00
52.4129 812.00
52.4781 825.00
52.5433 994.00
52.6085 1330.00
52.6737 1495.00
52.7389 1362.00
52.8041 1209.00
52.8693 956.00
52.9345 770.00
52.9997 682.00
53.0649 708.00
53.1301 736.00
53.1953 751.00
53.2605 882.00
53.3257 991.00
53.3909 937.00
53.4561 895.00
53.5213 857.00
53.5865 811.00
53.6517 758.00
53.7169 731.00
53.7821 713.00
53.8473 689.00
53.9125 660.00
53.9777 643.00
54.0429 630.00
54.1081 650.00
54.1733 610.00
54.2385 594.00
54.3037 583.00
54.3689 682.00
54.4341 719.00
54.4993 745.00
54.5645 756.00
54.6297 850.00
54.6949 874.00
54.7601 804.00
54.8253 799.00
54.8905 722.00
54.9557 842.00
55.0209 917.00
55.0861 820.00
55.1513 762.00
55.2165 624.00
55.2817 498.00
55.3469 426.00
55.4121 485.00
55.4773 449.00
55.5425 490.00
55.6077 460.00
55.6729 472.00
55.7381 510.00
55.8033 458.00
55.8685 511.00
55.9337 513.00
55.9989 508.00
56.0641 614.00
56.1293 638.00
56.1945 617.00
56.2597 601.00
56.3249 584.00
56.3901 641.00
56.4553 691.00
56.5205 797.00
56.5857 788.00
56.6509 872.00
56.7161 820.00
56.7813 831.00
56.8465 779.00
56.9117 693.00
56.9769 767.00
57.042 801.00
57.1073 932.00
57.1724 1142.00
57.2376 1097.00
57.3028 969.00
57.368 971.00
57.4332 1027.00
57.4984 974.00
57.5636 974.00
57.6288 1062.00
57.694 964.00
57.7592 896.00
57.8244 951.00
57.8896 760.00
57.9548 747.00
58.02 680.00
58.0852 647.00
58.1504 598.00
58.2156 578.00
58.2808 518.00
58.346 575.00
58.4112 544.00
58.4764 526.00
58.5416 549.00
58.6068 570.00
58.672 630.00
58.7372 666.00
58.8024 728.00
58.8676 683.00
58.9328 747.00
58.998 696.00
59.0632 728.00
59.1284 785.00
59.1936 707.00
59.2588 826.00
59.324 724.00
59.3892 756.00
59.4544 732.00
59.5196 724.00
59.5848 716.00
59.65 820.00
59.7152 833.00
59.7804 899.00
59.8456 957.00
59.9108 967.00
59.976 879.00
60.0412 798.00
60.1064 744.00
60.1716 682.00
60.2368 670.00
60.302 601.00
60.3672 586.00
60.4324 549.00
60.4976 544.00
60.5628 557.00
60.628 612.00
60.6932 744.00
60.7584 793.00
60.8236 863.00
60.8888 966.00
60.954 855.00
61.0192 731.00
61.0844 714.00
61.1496 687.00
61.2148 611.00
61.28 587.00
61.3452 537.00
61.4104 537.00
61.4756 463.00
61.5408 537.00
61.606 603.00
61.6712 492.00
61.7364 518.00
61.8016 487.00
61.8667 467.00
61.932 472.00
61.9971 481.00
62.0623 490.00
62.1275 450.00
62.1927 455.00
62.2579 480.00
62.3231 473.00
62.3883 509.00
62.4535 503.00
62.5187 525.00
62.5839 614.00
62.6491 566.00
62.7143 586.00
62.7795 591.00
62.8447 533.00
62.9099 574.00
62.9751 579.00
63.0403 561.00
63.1055 697.00
63.1707 723.00
63.2359 663.00
63.3011 671.00
63.3663 644.00
63.4315 605.00
63.4967 651.00
63.5619 695.00
63.6271 638.00
63.6923 631.00
63.7575 587.00
63.8227 572.00
63.8879 585.00
63.9531 611.00
64.0183 554.00
64.0835 564.00
64.1487 559.00
64.2139 623.00
64.2791 597.00
64.3443 583.00
64.4095 544.00
64.4747 554.00
64.5399 517.00
64.6051 536.00
64.6703 546.00
64.7355 626.00
64.8007 663.00
64.8659 776.00
64.9311 758.00
64.9963 681.00
65.0615 643.00
65.1267 629.00
65.1919 579.00
65.2571 621.00
65.3223 518.00
65.3875 580.00
65.4527 606.00
65.5179 624.00
65.5831 666.00
65.6483 714.00
65.7135 812.00
65.7787 833.00
65.8439 729.00
65.9091 656.00
65.9743 636.00
66.0395 631.00
66.1047 530.00
66.1699 593.00
66.2351 698.00
66.3003 751.00
66.3655 658.00
66.4307 649.00
66.4959 639.00
66.561 542.00
66.6263 533.00
66.6915 571.00
66.7566 525.00
66.8218 500.00
66.887 510.00
66.9522 521.00
67.0174 490.00
67.0826 469.00
67.1478 539.00
67.213 458.00
67.2782 470.00
67.3434 451.00
67.4086 455.00
67.4738 462.00
67.539 494.00
67.6042 558.00
67.6694 626.00
67.7346 657.00
67.7998 573.00
67.865 589.00
67.9302 604.00
67.9954 547.00
68.0606 500.00
68.1258 502.00
68.191 448.00
68.2562 423.00
68.3214 367.00
68.3866 404.00
68.4518 358.00
68.517 370.00
68.5822 368.00
68.6474 348.00
68.7126 367.00
68.7778 330.00
68.843 357.00
68.9082 386.00
68.9734 348.00
69.0386 444.00
69.1038 478.00
69.169 560.00
69.2342 621.00
69.2994 670.00
69.3646 628.00
69.4298 676.00
69.495 635.00
69.5602 594.00
69.6254 578.00
69.6906 548.00
69.7558 500.00
69.821 545.00
69.8862 476.00
69.9514 477.00
70.0166 491.00
70.0818 479.00
70.147 461.00
70.2122 453.00
70.2774 514.00
70.3426 553.00
70.4078 622.00
70.473 569.00
70.5382 525.00
70.6034 602.00
70.6686 564.00
70.7338 519.00
70.799 567.00
70.8642 539.00
70.9294 478.00
70.9946 464.00
71.0598 431.00
71.125 420.00
71.1902 416.00
71.2554 399.00
71.3205 387.00
71.3858 382.00
71.451 395.00
71.5162 404.00
71.5813 388.00
71.6465 440.00
71.7117 500.00
71.7769 574.00
71.8421 584.00
71.9073 618.00
71.9725 658.00
72.0377 619.00
72.1029 554.00
72.1681 531.00
72.2333 481.00
72.2985 427.00
72.3637 425.00
72.4289 397.00
72.4941 427.00
72.5593 438.00
72.6245 505.00
72.6897 469.00
72.7549 470.00
72.8201 519.00
72.8853 564.00
72.9505 597.00
73.0157 516.00
73.0809 544.00
73.1461 532.00
73.2113 495.00
73.2765 478.00
73.3417 406.00
73.4069 381.00
73.4721 396.00
73.5373 428.00
73.6025 365.00
73.6677 336.00
73.7329 361.00
73.7981 383.00
73.8633 416.00
73.9285 365.00
73.9937 376.00
74.0589 388.00
74.1241 392.00
74.1893 392.00
74.2545 335.00
74.3197 392.00
74.3849 374.00
74.4501 373.00
74.5153 413.00
74.5805 396.00
74.6457 365.00
74.7109 405.00
74.7761 367.00
74.8413 362.00
74.9065 346.00
74.9717 392.00
75.0369 372.00
75.1021 372.00
75.1673 422.00
75.2325 438.00
75.2977 449.00
75.3629 459.00
75.4281 432.00
75.4933 456.00
75.5585 448.00
75.6237 435.00
75.6889 407.00
75.7541 367.00
75.8193 394.00
75.8845 422.00
75.9497 397.00
76.0149 399.00
76.0801 434.00
76.1452 445.00
76.2104 459.00
76.2756 535.00
76.3409 498.00
76.406 480.00
76.4712 472.00
76.5364 473.00
76.6016 402.00
76.6668 418.00
76.732 377.00
76.7972 379.00
76.8624 368.00
76.9276 410.00
76.9928 409.00
77.058 429.00
77.1232 468.00
77.1884 415.00
77.2536 480.00
77.3188 498.00
77.384 483.00
77.4492 415.00
77.5144 398.00
77.5796 440.00
77.6448 419.00
77.71 465.00
77.7752 422.00
77.8404 446.00
77.9056 461.00
77.9708 446.00
78.036 429.00
78.1012 453.00
78.1664 471.00
78.2316 414.00
78.2968 413.00
78.362 427.00
78.4272 409.00
78.4924 392.00
78.5576 392.00
78.6228 410.00
78.688 358.00
78.7532 385.00
78.8184 383.00
78.8836 407.00
78.9488 413.00
79.014 366.00
79.0792 391.00
79.1444 423.00
79.2096 406.00
79.2748 432.00
79.34 397.00
79.4052 485.00
79.4704 415.00
79.5356 437.00
79.6008 535.00
79.666 440.00
79.7312 455.00
79.7964 412.00
79.8616 382.00
79.9268 431.00
79.992 419.00
80.0572 390.00
80.1224 426.00
80.1876 431.00
80.2528 424.00
80.318 498.00
80.3832 520.00
80.4484 495.00
80.5136 445.00
80.5788 432.00
80.644 485.00
80.7092 427.00
80.7744 451.00
80.8396 459.00
80.9048 435.00
80.9699 418.00
81.0351 450.00
81.1003 460.00
81.1655 471.00
81.2307 512.00
81.2959 530.00
81.3611 546.00
81.4263 515.00
81.4915 508.00
81.5567 503.00
81.6219 490.00
81.6871 463.00
81.7523 484.00
81.8175 418.00
81.8827 424.00
81.9479 408.00
82.0131 401.00
82.0783 398.00
82.1435 401.00
82.2087 386.00
82.2739 415.00
82.3391 386.00
82.4043 370.00
82.4695 357.00
82.5347 371.00
82.5999 360.00
82.6651 386.00
82.7303 378.00
82.7955 364.00
82.8607 338.00
82.9259 319.00
82.9911 317.00
83.0563 324.00
83.1215 338.00
83.1867 334.00
83.2519 401.00
83.3171 424.00
83.3823 393.00
83.4475 426.00
83.5127 417.00
83.5779 435.00
83.6431 442.00
83.7083 389.00
83.7735 401.00
83.8387 451.00
83.9039 472.00
83.9691 543.00
84.0343 477.00
84.0995 446.00
84.1647 426.00
84.2299 483.00
84.2951 404.00
84.3603 399.00
84.4255 392.00
84.4907 379.00
84.5559 393.00
84.6211 367.00
84.6863 378.00
84.7515 386.00
84.8167 451.00
84.8819 439.00
84.9471 415.00
85.0123 454.00
85.0775 429.00
85.1427 444.00
85.2079 428.00
85.2731 454.00
85.3383 415.00
85.4035 368.00
85.4687 398.00
85.5339 392.00
85.5991 347.00
85.6643 358.00
85.7295 387.00
85.7946 356.00
85.8598 381.00
85.925 396.00
85.9903 433.00
86.0554 377.00
86.1206 386.00
86.1858 432.00
86.251 393.00
86.3162 385.00
86.3814 412.00
86.4466 424.00
86.5118 401.00
86.577 410.00
86.6422 415.00
86.7074 393.00
86.7726 428.00
86.8378 401.00
86.903 403.00
86.9682 413.00
87.0334 396.00
87.0986 416.00
87.1638 369.00
87.229 410.00
87.2942 374.00
87.3594 411.00
87.4246 390.00
87.4898 396.00
87.555 398.00
87.6202 396.00
87.6854 445.00
87.7506 351.00
87.8158 383.00
87.881 370.00
87.9462 350.00
88.0114 380.00
88.0766 392.00
88.1418 416.00
88.207 398.00
88.2722 410.00
88.3374 429.00
88.4026 460.00
88.4678 428.00
88.533 410.00
88.5982 405.00
88.6634 403.00
88.7286 403.00
88.7938 393.00
88.859 365.00
88.9242 404.00
88.9894 378.00
89.0546 367.00
89.1198 355.00
89.185 397.00
89.2502 398.00
89.3154 393.00
89.3806 360.00
89.4458 321.00
89.511 326.00
89.5762 327.00
89.6414 350.00
89.7066 327.00
89.7718 369.00
89.837 338.00
89.9022 347.00
89.9674 337.00
90.0326 357.00
90.0978 364.00
90.163 328.00
90.2282 363.00
90.2934 357.00
90.3586 407.00
90.4238 425.00
90.489 354.00
90.5542 373.00
90.6193 373.00
90.6845 378.00
90.7497 394.00
90.8149 348.00
90.8801 385.00
90.9453 318.00
91.0105 318.00
91.0757 312.00
91.1409 350.00
91.2061 327.00
91.2713 350.00
91.3365 382.00
91.4017 306.00
91.4669 347.00
91.5321 332.00
91.5973 373.00
91.6625 368.00
91.7277 382.00
91.7929 398.00
91.8581 372.00
91.9233 384.00
91.9885 413.00
92.0537 367.00
92.1189 358.00
92.1841 374.00
92.2493 338.00
92.3145 368.00
92.3797 343.00
92.4449 382.00
92.5101 374.00
92.5753 377.00
92.6405 367.00
92.7057 389.00
92.7709 410.00
92.8361 407.00
92.9013 387.00
92.9665 395.00
93.0317 358.00
93.0969 345.00
93.1621 399.00
93.2273 418.00
93.2925 372.00
93.3577 415.00
93.4229 380.00
93.4881 388.00
93.5533 339.00
93.6185 392.00
93.6837 409.00
93.7489 359.00
93.8141 367.00
93.8793 389.00
93.9445 394.00
94.0097 408.00
94.0749 361.00
94.1401 331.00
94.2053 405.00
94.2705 364.00
94.3357 365.00
94.4009 332.00
94.4661 348.00
94.5313 360.00
94.5965 335.00
94.6617 382.00
94.7269 429.00
94.7921 430.00
94.8573 471.00
94.9225 455.00
94.9877 438.00
95.0529 498.00
95.1181 442.00
95.1833 568.00
95.2485 511.00
95.3137 448.00
95.3789 488.00
95.444 548.00
95.5092 494.00
95.5744 436.00
95.6396 471.00
95.7048 449.00
95.77 450.00
95.8352 408.00
95.9004 398.00
95.9656 419.00
96.0308 425.00
96.096 391.00
96.1612 445.00
96.2264 374.00
96.2916 423.00
96.3568 397.00
96.422 388.00
96.4872 331.00
96.5524 374.00
96.6176 361.00
96.6828 352.00
96.748 373.00
96.8132 331.00
96.8784 364.00
96.9436 317.00
97.0088 350.00
97.074 354.00
97.1392 343.00
97.2044 339.00
97.2696 338.00
97.3348 297.00
97.4 351.00
97.4652 323.00
97.5304 322.00
97.5956 324.00
97.6608 334.00
97.726 321.00
97.7912 325.00
97.8564 353.00
97.9216 343.00
97.9868 330.00
98.052 323.00
98.1172 350.00
98.1824 355.00
98.2476 371.00
98.3128 384.00
98.378 342.00
98.4432 354.00
98.5084 361.00
98.5736 338.00
98.6388 353.00
98.704 344.00
98.7692 346.00
98.8344 317.00
98.8996 356.00
98.9648 337.00
99.03 312.00
99.0952 372.00
99.1604 367.00
99.2256 359.00
99.2908 444.00
99.356 405.00
99.4212 364.00
99.4864 335.00
99.5516 348.00
99.6168 362.00
99.682 357.00
99.7472 362.00
99.8124 365.00
99.8776 344.00
99.9428 362.00
100.008 347.00
100.073 354.00
100.095 383.00