File: data/xrd_creation/results/Na_-6.xy
9.903433 2535.00
9.968632 2575.00
10.0338 2596.00
10.099 2585.00
10.1642 2553.00
10.2294 2477.00
10.2946 2412.00
10.3598 2446.00
10.425 2478.00
10.4902 2434.00
10.5554 2299.00
10.6206 2439.00
10.6858 2268.00
10.751 2369.00
10.8162 2247.00
10.8814 2235.00
10.9466 2282.00
11.0118 2188.00
11.077 2281.00
11.1422 2184.00
11.2074 2184.00
11.2726 2043.00
11.3378 2092.00
11.403 2081.00
11.4682 2149.00
11.5334 2079.00
11.5986 2067.00
11.6638 1983.00
11.729 1973.00
11.7942 2018.00
11.8594 2011.00
11.9246 1961.00
11.9898 1905.00
12.055 1904.00
12.1202 1802.00
12.1854 1840.00
12.2506 1834.00
12.3158 1878.00
12.381 1869.00
12.4462 1731.00
12.5114 1774.00
12.5766 1724.00
12.6418 1767.00
12.707 1824.00
12.7722 1709.00
12.8374 1640.00
12.9026 1740.00
12.9678 1715.00
13.033 1654.00
13.0982 1633.00
13.1634 1671.00
13.2286 1623.00
13.2938 1646.00
13.359 1572.00
13.4242 1573.00
13.4894 1586.00
13.5546 1545.00
13.6198 1531.00
13.685 1509.00
13.7502 1655.00
13.8154 1557.00
13.8805 1494.00
13.9457 1571.00
14.0109 1531.00
14.0761 1505.00
14.1413 1485.00
14.2065 1518.00
14.2717 1505.00
14.3369 1516.00
14.4021 1489.00
14.4673 1419.00
14.5325 1480.00
14.5977 1370.00
14.6629 1375.00
14.7281 1510.00
14.7933 1394.00
14.8585 1326.00
14.9237 1376.00
14.9889 1297.00
15.0541 1283.00
15.1193 1352.00
15.1845 1249.00
15.2497 1388.00
15.3149 1368.00
15.3801 1308.00
15.4453 1293.00
15.5105 1322.00
15.5757 1355.00
15.6409 1271.00
15.7061 1352.00
15.7713 1256.00
15.8365 1328.00
15.9017 1310.00
15.9669 1281.00
16.0321 1242.00
16.0973 1298.00
16.1625 1271.00
16.2277 1280.00
16.2929 1222.00
16.3581 1335.00
16.4233 1245.00
16.4885 1185.00
16.5537 1278.00
16.6189 1228.00
16.6841 1179.00
16.7493 1172.00
16.8145 1160.00
16.8797 1137.00
16.9449 1178.00
17.0101 1181.00
17.0753 1253.00
17.1405 1117.00
17.2057 1244.00
17.2709 1237.00
17.3361 1137.00
17.4013 1168.00
17.4665 1171.00
17.5317 1146.00
17.5969 1135.00
17.6621 1093.00
17.7273 1086.00
17.7925 1173.00
17.8577 1069.00
17.9229 1095.00
17.9881 1091.00
18.0533 1057.00
18.1185 1157.00
18.1837 1081.00
18.2489 1095.00
18.3141 1117.00
18.3793 1138.00
18.4445 1113.00
18.5097 1041.00
18.5749 1070.00
18.6401 1100.00
18.7052 1004.00
18.7704 1048.00
18.8356 1109.00
18.9008 996.00
18.966 976.00
19.0312 1077.00
19.0964 1050.00
19.1616 1027.00
19.2268 969.00
19.292 998.00
19.3572 1035.00
19.4224 957.00
19.4876 965.00
19.5528 985.00
19.618 967.00
19.6832 988.00
19.7484 1042.00
19.8136 944.00
19.8788 954.00
19.944 953.00
20.0092 943.00
20.0744 963.00
20.1396 927.00
20.2048 940.00
20.27 912.00
20.3352 911.00
20.4004 906.00
20.4656 1007.00
20.5308 891.00
20.596 860.00
20.6612 949.00
20.7264 919.00
20.7916 858.00
20.8568 915.00
20.922 939.00
20.9872 915.00
21.0524 926.00
21.1176 801.00
21.1828 925.00
21.248 887.00
21.3132 893.00
21.3784 838.00
21.4436 904.00
21.5088 851.00
21.574 811.00
21.6392 910.00
21.7044 832.00
21.7696 819.00
21.8348 827.00
21.9 865.00
21.9652 866.00
22.0304 839.00
22.0956 781.00
22.1608 835.00
22.226 836.00
22.2912 864.00
22.3564 838.00
22.4216 854.00
22.4868 788.00
22.552 830.00
22.6172 806.00
22.6824 841.00
22.7476 796.00
22.8128 804.00
22.878 757.00
22.9432 804.00
23.0084 807.00
23.0736 780.00
23.1388 750.00
23.204 796.00
23.2692 747.00
23.3344 731.00
23.3996 796.00
23.4647 745.00
23.5299 762.00
23.5951 740.00
23.6603 757.00
23.7255 822.00
23.7907 807.00
23.8559 736.00
23.9211 781.00
23.9863 747.00
24.0515 740.00
24.1167 726.00
24.1819 768.00
24.2471 710.00
24.3123 707.00
24.3775 746.00
24.4427 692.00
24.5079 796.00
24.5731 796.00
24.6383 702.00
24.7035 702.00
24.7687 708.00
24.8339 757.00
24.8991 682.00
24.9643 720.00
25.0295 732.00
25.0947 716.00
25.1599 680.00
25.2251 756.00
25.2903 688.00
25.3555 678.00
25.4207 718.00
25.4859 678.00
25.5511 679.00
25.6163 646.00
25.6815 736.00
25.7467 715.00
25.8119 647.00
25.8771 653.00
25.9423 658.00
26.0075 676.00
26.0727 688.00
26.1379 721.00
26.2031 687.00
26.2683 698.00
26.3335 792.00
26.3987 766.00
26.4639 738.00
26.5291 720.00
26.5943 702.00
26.6595 640.00
26.7247 672.00
26.7899 660.00
26.8551 652.00
26.9203 648.00
26.9855 700.00
27.0507 646.00
27.1159 595.00
27.1811 660.00
27.2463 637.00
27.3115 692.00
27.3767 640.00
27.4419 611.00
27.5071 632.00
27.5723 637.00
27.6375 614.00
27.7027 646.00
27.7679 639.00
27.8331 600.00
27.8983 643.00
27.9635 633.00
28.0287 634.00
28.0939 646.00
28.1591 614.00
28.2243 663.00
28.2894 626.00
28.3546 609.00
28.4198 591.00
28.485 619.00
28.5502 634.00
28.6154 600.00
28.6806 603.00
28.7458 596.00
28.811 614.00
28.8762 587.00
28.9414 654.00
29.0066 584.00
29.0718 611.00
29.137 627.00
29.2022 610.00
29.2674 629.00
29.3326 551.00
29.3978 548.00
29.463 586.00
29.5282 570.00
29.5934 564.00
29.6586 545.00
29.7238 561.00
29.789 584.00
29.8542 573.00
29.9194 563.00
29.9846 586.00
30.0498 555.00
30.115 589.00
30.1802 594.00
30.2454 579.00
30.3106 556.00
30.3758 576.00
30.441 556.00
30.5062 526.00
30.5714 565.00
30.6366 569.00
30.7018 534.00
30.767 525.00
30.8322 567.00
30.8974 572.00
30.9626 563.00
31.0278 537.00
31.093 528.00
31.1582 549.00
31.2234 534.00
31.2886 527.00
31.3538 528.00
31.419 576.00
31.4842 470.00
31.5494 558.00
31.6146 497.00
31.6798 515.00
31.745 497.00
31.8102 523.00
31.8754 537.00
31.9406 498.00
32.0058 525.00
32.071 516.00
32.1362 511.00
32.2014 495.00
32.2666 510.00
32.3318 502.00
32.397 502.00
32.4622 499.00
32.5274 505.00
32.5926 488.00
32.6578 547.00
32.723 489.00
32.7882 445.00
32.8534 488.00
32.9186 503.00
32.9838 472.00
33.0489 490.00
33.1141 455.00
33.1793 506.00
33.2445 495.00
33.3097 505.00
33.3749 476.00
33.4401 448.00
33.5053 519.00
33.5705 511.00
33.6357 559.00
33.7009 589.00
33.7661 532.00
33.8313 548.00
33.8965 489.00
33.9617 472.00
34.0269 458.00
34.0921 445.00
34.1573 433.00
34.2225 462.00
34.2877 445.00
34.3529 469.00
34.4181 452.00
34.4833 438.00
34.5485 433.00
34.6137 452.00
34.6789 455.00
34.7441 442.00
34.8093 438.00
34.8745 463.00
34.9397 453.00
35.0049 444.00
35.0701 433.00
35.1353 438.00
35.2005 424.00
35.2657 408.00
35.3309 421.00
35.3961 414.00
35.4613 415.00
35.5265 453.00
35.5917 411.00
35.6569 431.00
35.7221 407.00
35.7873 449.00
35.8525 432.00
35.9177 449.00
35.9829 435.00
36.0481 425.00
36.1133 427.00
36.1785 437.00
36.2437 383.00
36.3089 411.00
36.3741 428.00
36.4393 395.00
36.5045 431.00
36.5697 427.00
36.6349 400.00
36.7001 400.00
36.7653 422.00
36.8305 412.00
36.8957 420.00
36.9609 424.00
37.0261 394.00
37.0913 421.00
37.1565 411.00
37.2217 392.00
37.2869 361.00
37.3521 368.00
37.4173 406.00
37.4825 394.00
37.5477 383.00
37.6129 404.00
37.6781 401.00
37.7433 448.00
37.8085 392.00
37.8736 445.00
37.9388 462.00
38.004 375.00
38.0692 352.00
38.1344 367.00
38.1996 367.00
38.2648 399.00
38.33 364.00
38.3952 371.00
38.4604 397.00
38.5256 392.00
38.5908 360.00
38.656 411.00
38.7212 357.00
38.7864 360.00
38.8516 395.00
38.9168 379.00
38.982 367.00
39.0472 388.00
39.1124 382.00
39.1776 381.00
39.2428 392.00
39.308 394.00
39.3732 407.00
39.4384 397.00
39.5036 361.00
39.5688 374.00
39.634 339.00
39.6992 370.00
39.7644 333.00
39.8296 384.00
39.8948 355.00
39.96 354.00
40.0252 376.00
40.0904 332.00
40.1556 332.00
40.2208 354.00
40.286 347.00
40.3512 374.00
40.4164 364.00
40.4816 371.00
40.5468 349.00
40.612 343.00
40.6772 350.00
40.7424 323.00
40.8076 360.00
40.8728 352.00
40.938 355.00
41.0032 366.00
41.0684 304.00
41.1336 330.00
41.1988 324.00
41.264 330.00
41.3292 378.00
41.3944 337.00
41.4596 345.00
41.5248 352.00
41.59 374.00
41.6552 321.00
41.7204 329.00
41.7856 344.00
41.8508 308.00
41.916 295.00
41.9812 314.00
42.0464 355.00
42.1116 364.00
42.1768 335.00
42.242 331.00
42.3072 301.00
42.3724 278.00
42.4376 293.00
42.5028 338.00
42.568 350.00
42.6332 318.00
42.6983 356.00
42.7635 347.00
42.8287 333.00
42.8939 334.00
42.9591 331.00
43.0243 307.00
43.0895 371.00
43.1547 327.00
43.2199 326.00
43.2851 358.00
43.3503 353.00
43.4155 370.00
43.4807 323.00
43.5459 332.00
43.6111 320.00
43.6763 326.00
43.7415 328.00
43.8067 262.00
43.8719 331.00
43.9371 310.00
44.0023 287.00
44.0675 311.00
44.1327 323.00
44.1979 299.00
44.2631 294.00
44.3283 304.00
44.3935 337.00
44.4587 285.00
44.5239 283.00
44.5891 305.00
44.6543 283.00
44.7195 324.00
44.7847 286.00
44.8499 276.00
44.9151 312.00
44.9803 310.00
45.0455 309.00
45.1107 312.00
45.1759 286.00
45.2411 302.00
45.3063 322.00
45.3715 302.00
45.4367 291.00
45.5019 303.00
45.5671 306.00
45.6323 321.00
45.6975 277.00
45.7627 324.00
45.8279 283.00
45.8931 283.00
45.9583 313.00
46.0235 309.00
46.0887 273.00
46.1539 295.00
46.2191 319.00
46.2843 297.00
46.3495 322.00
46.4147 306.00
46.4799 292.00
46.5451 276.00
46.6103 278.00
46.6755 270.00
46.7407 260.00
46.8059 293.00
46.8711 299.00
46.9363 313.00
47.0015 266.00
47.0667 301.00
47.1319 243.00
47.1971 303.00
47.2623 309.00
47.3275 300.00
47.3927 283.00
47.4579 269.00
47.523 261.00
47.5882 311.00
47.6534 307.00
47.7186 291.00
47.7838 248.00
47.849 248.00
47.9142 282.00
47.9794 293.00
48.0446 286.00
48.1098 248.00
48.175 262.00
48.2402 277.00
48.3054 278.00
48.3706 292.00
48.4358 306.00
48.501 261.00
48.5662 270.00
48.6314 277.00
48.6966 297.00
48.7618 269.00
48.827 279.00
48.8922 270.00
48.9574 242.00
49.0226 271.00
49.0878 311.00
49.153 286.00
49.2182 248.00
49.2834 264.00
49.3486 280.00
49.4138 274.00
49.479 275.00
49.5442 289.00
49.6094 299.00
49.6746 277.00
49.7398 236.00
49.805 245.00
49.8702 248.00
49.9354 273.00
50.0006 275.00
50.0658 257.00
50.131 250.00
50.1962 241.00
50.2614 278.00
50.3266 277.00
50.3918 275.00
50.457 285.00
50.5222 245.00
50.5874 258.00
50.6526 262.00
50.7178 277.00
50.783 247.00
50.8482 244.00
50.9134 267.00
50.9786 233.00
51.0438 263.00
51.109 244.00
51.1742 283.00
51.2394 227.00
51.3046 272.00
51.3698 283.00
51.435 263.00
51.5002 279.00
51.5654 323.00
51.6306 331.00
51.6958 292.00
51.761 268.00
51.8262 313.00
51.8914 275.00
51.9566 239.00
52.0218 285.00
52.087 240.00
52.1522 247.00
52.2174 259.00
52.2826 248.00
52.3477 258.00
52.4129 264.00
52.4781 270.00
52.5433 245.00
52.6085 289.00
52.6737 287.00
52.7389 240.00
52.8041 217.00
52.8693 244.00
52.9345 238.00
52.9997 229.00
53.0649 241.00
53.1301 257.00
53.1953 272.00
53.2605 271.00
53.3257 249.00
53.3909 276.00
53.4561 233.00
53.5213 231.00
53.5865 230.00
53.6517 215.00
53.7169 257.00
53.7821 217.00
53.8473 215.00
53.9125 243.00
53.9777 237.00
54.0429 271.00
54.1081 217.00
54.1733 210.00
54.2385 272.00
54.3037 224.00
54.3689 266.00
54.4341 211.00
54.4993 228.00
54.5645 222.00
54.6297 278.00
54.6949 241.00
54.7601 266.00
54.8253 217.00
54.8905 218.00
54.9557 251.00
55.0209 234.00
55.0861 214.00
55.1513 260.00
55.2165 235.00
55.2817 260.00
55.3469 246.00
55.4121 238.00
55.4773 229.00
55.5425 243.00
55.6077 238.00
55.6729 219.00
55.7381 241.00
55.8033 257.00
55.8685 225.00
55.9337 246.00
55.9989 226.00
56.0641 208.00
56.1293 218.00
56.1945 268.00
56.2597 231.00
56.3249 222.00
56.3901 198.00
56.4553 221.00
56.5205 247.00
56.5857 235.00
56.6509 205.00
56.7161 244.00
56.7813 213.00
56.8465 238.00
56.9117 233.00
56.9769 218.00
57.042 238.00
57.1073 202.00
57.1724 215.00
57.2376 233.00
57.3028 210.00
57.368 205.00
57.4332 245.00
57.4984 219.00
57.5636 239.00
57.6288 272.00
57.694 205.00
57.7592 225.00
57.8244 225.00
57.8896 235.00
57.9548 217.00
58.02 245.00
58.0852 225.00
58.1504 243.00
58.2156 209.00
58.2808 215.00
58.346 211.00
58.4112 229.00
58.4764 211.00
58.5416 222.00
58.6068 204.00
58.672 199.00
58.7372 189.00
58.8024 231.00
58.8676 211.00
58.9328 219.00
58.998 228.00
59.0632 198.00
59.1284 206.00
59.1936 206.00
59.2588 196.00
59.324 222.00
59.3892 215.00
59.4544 230.00
59.5196 198.00
59.5848 195.00
59.65 205.00
59.7152 225.00
59.7804 192.00
59.8456 212.00
59.9108 196.00
59.976 189.00
60.0412 212.00
60.1064 208.00
60.1716 213.00
60.2368 166.00
60.302 203.00
60.3672 197.00
60.4324 207.00
60.4976 202.00
60.5628 236.00
60.628 183.00
60.6932 195.00
60.7584 209.00
60.8236 220.00
60.8888 202.00
60.954 227.00
61.0192 207.00
61.0844 201.00
61.1496 197.00
61.2148 172.00
61.28 171.00
61.3452 190.00
61.4104 210.00
61.4756 216.00
61.5408 207.00
61.606 215.00
61.6712 195.00
61.7364 180.00
61.8016 219.00
61.8667 218.00
61.932 190.00
61.9971 179.00
62.0623 188.00
62.1275 202.00
62.1927 183.00
62.2579 220.00
62.3231 197.00
62.3883 190.00
62.4535 221.00
62.5187 209.00
62.5839 231.00
62.6491 219.00
62.7143 176.00
62.7795 191.00
62.8447 199.00
62.9099 180.00
62.9751 199.00
63.0403 201.00
63.1055 188.00
63.1707 234.00
63.2359 214.00
63.3011 211.00
63.3663 220.00
63.4315 190.00
63.4967 184.00
63.5619 184.00
63.6271 188.00
63.6923 207.00
63.7575 173.00
63.8227 191.00
63.8879 201.00
63.9531 200.00
64.0183 180.00
64.0835 209.00
64.1487 194.00
64.2139 181.00
64.2791 179.00
64.3443 158.00
64.4095 202.00
64.4747 214.00
64.5399 186.00
64.6051 181.00
64.6703 201.00
64.7355 189.00
64.8007 202.00
64.8659 210.00
64.9311 200.00
64.9963 181.00
65.0615 193.00
65.1267 197.00
65.1919 192.00
65.2571 203.00
65.3223 157.00
65.3875 202.00
65.4527 211.00
65.5179 190.00
65.5831 203.00
65.6483 213.00
65.7135 165.00
65.7787 214.00
65.8439 187.00
65.9091 199.00
65.9743 179.00
66.0395 198.00
66.1047 206.00
66.1699 195.00
66.2351 216.00
66.3003 198.00
66.3655 191.00
66.4307 209.00
66.4959 203.00
66.561 227.00
66.6263 208.00
66.6915 198.00
66.7566 201.00
66.8218 187.00
66.887 221.00
66.9522 205.00
67.0174 194.00
67.0826 220.00
67.1478 211.00
67.213 203.00
67.2782 220.00
67.3434 205.00
67.4086 194.00
67.4738 197.00
67.539 188.00
67.6042 175.00
67.6694 211.00
67.7346 187.00
67.7998 184.00
67.865 193.00
67.9302 175.00
67.9954 198.00
68.0606 169.00
68.1258 204.00
68.191 202.00
68.2562 201.00
68.3214 184.00
68.3866 181.00
68.4518 217.00
68.517 176.00
68.5822 170.00
68.6474 189.00
68.7126 181.00
68.7778 176.00
68.843 185.00
68.9082 172.00
68.9734 188.00
69.0386 169.00
69.1038 178.00
69.169 207.00
69.2342 185.00
69.2994 201.00
69.3646 185.00
69.4298 194.00
69.495 171.00
69.5602 175.00
69.6254 196.00
69.6906 196.00
69.7558 226.00
69.821 188.00
69.8862 183.00
69.9514 202.00
70.0166 179.00
70.0818 184.00
70.147 187.00
70.2122 178.00
70.2774 210.00
70.3426 213.00
70.4078 177.00
70.473 193.00
70.5382 223.00
70.6034 192.00
70.6686 203.00
70.7338 190.00
70.799 182.00
70.8642 191.00
70.9294 202.00
70.9946 200.00
71.0598 206.00
71.125 174.00
71.1902 197.00
71.2554 214.00
71.3205 196.00
71.3858 208.00
71.451 208.00
71.5162 195.00
71.5813 191.00
71.6465 196.00
71.7117 210.00
71.7769 194.00
71.8421 184.00
71.9073 184.00
71.9725 191.00
72.0377 195.00
72.1029 189.00
72.1681 189.00
72.2333 183.00
72.2985 176.00
72.3637 179.00
72.4289 210.00
72.4941 178.00
72.5593 189.00
72.6245 210.00
72.6897 205.00
72.7549 189.00
72.8201 185.00
72.8853 204.00
72.9505 194.00
73.0157 240.00
73.0809 188.00
73.1461 205.00
73.2113 183.00
73.2765 211.00
73.3417 198.00
73.4069 198.00
73.4721 183.00
73.5373 230.00
73.6025 197.00
73.6677 187.00
73.7329 185.00
73.7981 196.00
73.8633 178.00
73.9285 224.00
73.9937 216.00
74.0589 219.00
74.1241 186.00
74.1893 204.00
74.2545 161.00
74.3197 181.00
74.3849 202.00
74.4501 211.00
74.5153 189.00
74.5805 201.00
74.6457 213.00
74.7109 204.00
74.7761 189.00
74.8413 208.00
74.9065 214.00
74.9717 223.00
75.0369 184.00
75.1021 193.00
75.1673 194.00
75.2325 227.00
75.2977 224.00
75.3629 205.00
75.4281 204.00
75.4933 218.00
75.5585 219.00
75.6237 204.00
75.6889 209.00
75.7541 209.00
75.8193 182.00
75.8845 210.00
75.9497 200.00
76.0149 204.00
76.0801 219.00
76.1452 219.00
76.2104 197.00
76.2756 204.00
76.3409 201.00
76.406 190.00
76.4712 192.00
76.5364 211.00
76.6016 195.00
76.6668 193.00
76.732 201.00
76.7972 201.00
76.8624 199.00
76.9276 221.00
76.9928 202.00
77.058 214.00
77.1232 218.00
77.1884 188.00
77.2536 199.00
77.3188 207.00
77.384 222.00
77.4492 214.00
77.5144 220.00
77.5796 231.00
77.6448 232.00
77.71 191.00
77.7752 203.00
77.8404 258.00
77.9056 201.00
77.9708 204.00
78.036 217.00
78.1012 216.00
78.1664 201.00
78.2316 223.00
78.2968 221.00
78.362 232.00
78.4272 229.00
78.4924 206.00
78.5576 209.00
78.6228 206.00
78.688 260.00
78.7532 216.00
78.8184 215.00
78.8836 203.00
78.9488 214.00
79.014 179.00
79.0792 180.00
79.1444 224.00
79.2096 197.00
79.2748 178.00
79.34 190.00
79.4052 229.00
79.4704 226.00
79.5356 240.00
79.6008 242.00
79.666 186.00
79.7312 234.00
79.7964 224.00
79.8616 259.00
79.9268 207.00
79.992 226.00
80.0572 222.00
80.1224 227.00
80.1876 209.00
80.2528 224.00
80.318 239.00
80.3832 220.00
80.4484 261.00
80.5136 231.00
80.5788 237.00
80.644 236.00
80.7092 233.00
80.7744 213.00
80.8396 210.00
80.9048 212.00
80.9699 211.00
81.0351 232.00
81.1003 232.00
81.1655 207.00
81.2307 232.00
81.2959 232.00
81.3611 216.00
81.4263 213.00
81.4915 220.00
81.5567 241.00
81.6219 206.00
81.6871 210.00
81.7523 240.00
81.8175 222.00
81.8827 208.00
81.9479 241.00
82.0131 269.00
82.0783 256.00
82.1435 208.00
82.2087 218.00
82.2739 216.00
82.3391 211.00
82.4043 201.00
82.4695 227.00
82.5347 250.00
82.5999 240.00
82.6651 233.00
82.7303 208.00
82.7955 229.00
82.8607 257.00
82.9259 238.00
82.9911 200.00
83.0563 206.00
83.1215 218.00
83.1867 208.00
83.2519 222.00
83.3171 219.00
83.3823 215.00
83.4475 186.00
83.5127 236.00
83.5779 229.00
83.6431 213.00
83.7083 226.00
83.7735 200.00
83.8387 230.00
83.9039 235.00
83.9691 221.00
84.0343 238.00
84.0995 250.00
84.1647 216.00
84.2299 235.00
84.2951 219.00
84.3603 214.00
84.4255 234.00
84.4907 211.00
84.5559 213.00
84.6211 201.00
84.6863 198.00
84.7515 210.00
84.8167 228.00
84.8819 210.00
84.9471 227.00
85.0123 232.00
85.0775 215.00
85.1427 229.00
85.2079 211.00
85.2731 195.00
85.3383 182.00
85.4035 221.00
85.4687 202.00
85.5339 201.00
85.5991 231.00
85.6643 234.00
85.7295 210.00
85.7946 213.00
85.8598 203.00
85.925 204.00
85.9903 217.00
86.0554 199.00
86.1206 191.00
86.1858 220.00
86.251 220.00
86.3162 181.00
86.3814 213.00
86.4466 231.00
86.5118 209.00
86.577 228.00
86.6422 197.00
86.7074 222.00
86.7726 214.00
86.8378 219.00
86.903 216.00
86.9682 209.00
87.0334 203.00
87.0986 213.00
87.1638 199.00
87.229 190.00
87.2942 199.00
87.3594 185.00
87.4246 189.00
87.4898 190.00
87.555 205.00
87.6202 195.00
87.6854 208.00
87.7506 206.00
87.8158 186.00
87.881 198.00
87.9462 186.00
88.0114 197.00
88.0766 189.00
88.1418 185.00
88.207 212.00
88.2722 202.00
88.3374 205.00
88.4026 213.00
88.4678 191.00
88.533 197.00
88.5982 209.00
88.6634 197.00
88.7286 174.00
88.7938 184.00
88.859 193.00
88.9242 212.00
88.9894 198.00
89.0546 188.00
89.1198 200.00
89.185 177.00
89.2502 191.00
89.3154 222.00
89.3806 214.00
89.4458 232.00
89.511 206.00
89.5762 196.00
89.6414 198.00
89.7066 201.00
89.7718 208.00
89.837 226.00
89.9022 208.00
89.9674 186.00
90.0326 190.00
90.0978 173.00
90.163 195.00
90.2282 179.00
90.2934 196.00
90.3586 194.00
90.4238 187.00
90.489 207.00
90.5542 179.00
90.6193 211.00
90.6845 201.00
90.7497 200.00
90.8149 197.00
90.8801 183.00
90.9453 204.00
91.0105 183.00
91.0757 171.00
91.1409 188.00
91.2061 184.00
91.2713 209.00
91.3365 214.00
91.4017 217.00
91.4669 188.00
91.5321 222.00
91.5973 173.00
91.6625 191.00
91.7277 181.00
91.7929 204.00
91.8581 191.00
91.9233 198.00
91.9885 198.00
92.0537 186.00
92.1189 191.00
92.1841 185.00
92.2493 171.00
92.3145 194.00
92.3797 175.00
92.4449 186.00
92.5101 203.00
92.5753 204.00
92.6405 171.00
92.7057 191.00
92.7709 214.00
92.8361 181.00
92.9013 173.00
92.9665 165.00
93.0317 196.00
93.0969 199.00
93.1621 177.00
93.2273 191.00
93.2925 200.00
93.3577 185.00
93.4229 186.00
93.4881 161.00
93.5533 186.00
93.6185 210.00
93.6837 193.00
93.7489 177.00
93.8141 185.00
93.8793 180.00
93.9445 206.00
94.0097 178.00
94.0749 198.00
94.1401 176.00
94.2053 184.00
94.2705 217.00
94.3357 188.00
94.4009 176.00
94.4661 200.00
94.5313 194.00
94.5965 187.00
94.6617 171.00
94.7269 193.00
94.7921 171.00
94.8573 200.00
94.9225 205.00
94.9877 202.00
95.0529 164.00
95.1181 184.00
95.1833 195.00
95.2485 206.00
95.3137 201.00
95.3789 186.00
95.444 191.00
95.5092 169.00
95.5744 186.00
95.6396 158.00
95.7048 195.00
95.77 179.00
95.8352 197.00
95.9004 194.00
95.9656 193.00
96.0308 171.00
96.096 200.00
96.1612 192.00
96.2264 193.00
96.2916 178.00
96.3568 187.00
96.422 169.00
96.4872 172.00
96.5524 186.00
96.6176 204.00
96.6828 183.00
96.748 166.00
96.8132 181.00
96.8784 175.00
96.9436 174.00
97.0088 178.00
97.074 171.00
97.1392 169.00
97.2044 179.00
97.2696 176.00
97.3348 204.00
97.4 193.00
97.4652 185.00
97.5304 195.00
97.5956 205.00
97.6608 179.00
97.726 150.00
97.7912 192.00
97.8564 187.00
97.9216 181.00
97.9868 187.00
98.052 179.00
98.1172 213.00
98.1824 179.00
98.2476 196.00
98.3128 195.00
98.378 178.00
98.4432 187.00
98.5084 194.00
98.5736 182.00
98.6388 173.00
98.704 161.00
98.7692 190.00
98.8344 180.00
98.8996 176.00
98.9648 169.00
99.03 194.00
99.0952 179.00
99.1604 178.00
99.2256 187.00
99.2908 192.00
99.356 182.00
99.4212 215.00
99.4864 176.00
99.5516 179.00
99.6168 197.00
99.682 171.00
99.7472 165.00
99.8124 175.00
99.8776 183.00
99.9428 179.00
100.008 163.00
100.073 173.00
100.095 175.00