File: data/xrd_creation/results/Na_-10.xy
9.903433 2718.00
9.968632 2659.00
10.0338 2572.00
10.099 2518.00
10.1642 2576.00
10.2294 2597.00
10.2946 2487.00
10.3598 2543.00
10.425 2386.00
10.4902 2406.00
10.5554 2367.00
10.6206 2379.00
10.6858 2416.00
10.751 2375.00
10.8162 2275.00
10.8814 2300.00
10.9466 2246.00
11.0118 2254.00
11.077 2227.00
11.1422 2198.00
11.2074 2181.00
11.2726 2104.00
11.3378 2206.00
11.403 2070.00
11.4682 2143.00
11.5334 2001.00
11.5986 2094.00
11.6638 2008.00
11.729 2017.00
11.7942 1980.00
11.8594 1986.00
11.9246 1928.00
11.9898 1953.00
12.055 1935.00
12.1202 1954.00
12.1854 1872.00
12.2506 1898.00
12.3158 1857.00
12.381 1824.00
12.4462 1786.00
12.5114 1845.00
12.5766 1800.00
12.6418 1743.00
12.707 1812.00
12.7722 1684.00
12.8374 1700.00
12.9026 1799.00
12.9678 1733.00
13.033 1685.00
13.0982 1705.00
13.1634 1643.00
13.2286 1675.00
13.2938 1676.00
13.359 1623.00
13.4242 1545.00
13.4894 1655.00
13.5546 1586.00
13.6198 1613.00
13.685 1619.00
13.7502 1539.00
13.8154 1494.00
13.8805 1593.00
13.9457 1563.00
14.0109 1512.00
14.0761 1563.00
14.1413 1533.00
14.2065 1523.00
14.2717 1520.00
14.3369 1527.00
14.4021 1510.00
14.4673 1467.00
14.5325 1462.00
14.5977 1522.00
14.6629 1480.00
14.7281 1422.00
14.7933 1448.00
14.8585 1489.00
14.9237 1405.00
14.9889 1438.00
15.0541 1481.00
15.1193 1405.00
15.1845 1424.00
15.2497 1402.00
15.3149 1363.00
15.3801 1377.00
15.4453 1422.00
15.5105 1355.00
15.5757 1341.00
15.6409 1348.00
15.7061 1377.00
15.7713 1371.00
15.8365 1336.00
15.9017 1326.00
15.9669 1397.00
16.0321 1314.00
16.0973 1375.00
16.1625 1336.00
16.2277 1322.00
16.2929 1344.00
16.3581 1241.00
16.4233 1280.00
16.4885 1237.00
16.5537 1281.00
16.6189 1247.00
16.6841 1226.00
16.7493 1273.00
16.8145 1249.00
16.8797 1223.00
16.9449 1213.00
17.0101 1250.00
17.0753 1247.00
17.1405 1191.00
17.2057 1237.00
17.2709 1258.00
17.3361 1239.00
17.4013 1239.00
17.4665 1187.00
17.5317 1149.00
17.5969 1147.00
17.6621 1191.00
17.7273 1220.00
17.7925 1210.00
17.8577 1192.00
17.9229 1159.00
17.9881 1116.00
18.0533 1106.00
18.1185 1132.00
18.1837 1078.00
18.2489 1102.00
18.3141 1101.00
18.3793 1156.00
18.4445 1132.00
18.5097 1108.00
18.5749 1159.00
18.6401 1101.00
18.7052 1072.00
18.7704 1150.00
18.8356 1126.00
18.9008 1073.00
18.966 1137.00
19.0312 1056.00
19.0964 1039.00
19.1616 1043.00
19.2268 1055.00
19.292 1027.00
19.3572 1006.00
19.4224 1051.00
19.4876 1023.00
19.5528 1004.00
19.618 1067.00
19.6832 1022.00
19.7484 1082.00
19.8136 1162.00
19.8788 1203.00
19.944 1314.00
20.0092 1319.00
20.0744 1097.00
20.1396 1035.00
20.2048 998.00
20.27 1008.00
20.3352 1025.00
20.4004 966.00
20.4656 975.00
20.5308 951.00
20.596 891.00
20.6612 978.00
20.7264 919.00
20.7916 902.00
20.8568 969.00
20.922 955.00
20.9872 951.00
21.0524 896.00
21.1176 918.00
21.1828 880.00
21.248 904.00
21.3132 895.00
21.3784 945.00
21.4436 933.00
21.5088 913.00
21.574 898.00
21.6392 902.00
21.7044 852.00
21.7696 877.00
21.8348 907.00
21.9 914.00
21.9652 875.00
22.0304 836.00
22.0956 872.00
22.1608 844.00
22.226 929.00
22.2912 792.00
22.3564 892.00
22.4216 876.00
22.4868 847.00
22.552 887.00
22.6172 866.00
22.6824 797.00
22.7476 865.00
22.8128 875.00
22.878 856.00
22.9432 899.00
23.0084 859.00
23.0736 798.00
23.1388 817.00
23.204 841.00
23.2692 844.00
23.3344 773.00
23.3996 823.00
23.4647 825.00
23.5299 768.00
23.5951 760.00
23.6603 828.00
23.7255 802.00
23.7907 832.00
23.8559 795.00
23.9211 783.00
23.9863 786.00
24.0515 773.00
24.1167 790.00
24.1819 793.00
24.2471 797.00
24.3123 774.00
24.3775 753.00
24.4427 760.00
24.5079 723.00
24.5731 746.00
24.6383 733.00
24.7035 787.00
24.7687 774.00
24.8339 754.00
24.8991 739.00
24.9643 719.00
25.0295 727.00
25.0947 718.00
25.1599 672.00
25.2251 738.00
25.2903 703.00
25.3555 753.00
25.4207 708.00
25.4859 717.00
25.5511 697.00
25.6163 745.00
25.6815 759.00
25.7467 769.00
25.8119 740.00
25.8771 781.00
25.9423 786.00
26.0075 781.00
26.0727 856.00
26.1379 967.00
26.2031 1076.00
26.2683 1529.00
26.3335 2060.00
26.3987 3172.00
26.4639 3815.00
26.5291 3017.00
26.5943 1733.00
26.6595 1126.00
26.7247 958.00
26.7899 899.00
26.8551 766.00
26.9203 734.00
26.9855 749.00
27.0507 682.00
27.1159 769.00
27.1811 727.00
27.2463 662.00
27.3115 704.00
27.3767 732.00
27.4419 685.00
27.5071 696.00
27.5723 755.00
27.6375 667.00
27.7027 641.00
27.7679 625.00
27.8331 674.00
27.8983 649.00
27.9635 673.00
28.0287 654.00
28.0939 682.00
28.1591 664.00
28.2243 687.00
28.2894 767.00
28.3546 686.00
28.4198 605.00
28.485 706.00
28.5502 621.00
28.6154 704.00
28.6806 701.00
28.7458 815.00
28.811 1005.00
28.8762 1079.00
28.9414 914.00
29.0066 770.00
29.0718 735.00
29.137 648.00
29.2022 659.00
29.2674 624.00
29.3326 616.00
29.3978 631.00
29.463 637.00
29.5282 618.00
29.5934 632.00
29.6586 642.00
29.7238 658.00
29.789 611.00
29.8542 674.00
29.9194 618.00
29.9846 639.00
30.0498 657.00
30.115 556.00
30.1802 608.00
30.2454 571.00
30.3106 613.00
30.3758 670.00
30.441 642.00
30.5062 665.00
30.5714 604.00
30.6366 605.00
30.7018 613.00
30.767 541.00
30.8322 582.00
30.8974 553.00
30.9626 568.00
31.0278 520.00
31.093 566.00
31.1582 568.00
31.2234 561.00
31.2886 537.00
31.3538 561.00
31.419 552.00
31.4842 554.00
31.5494 532.00
31.6146 582.00
31.6798 577.00
31.745 556.00
31.8102 561.00
31.8754 547.00
31.9406 544.00
32.0058 560.00
32.071 534.00
32.1362 576.00
32.2014 572.00
32.2666 581.00
32.3318 566.00
32.397 586.00
32.4622 663.00
32.5274 670.00
32.5926 787.00
32.6578 773.00
32.723 778.00
32.7882 717.00
32.8534 690.00
32.9186 658.00
32.9838 794.00
33.0489 973.00
33.1141 872.00
33.1793 803.00
33.2445 660.00
33.3097 726.00
33.3749 771.00
33.4401 865.00
33.5053 947.00
33.5705 1172.00
33.6357 1632.00
33.7009 2680.00
33.7661 3164.00
33.8313 2402.00
33.8965 1434.00
33.9617 942.00
34.0269 737.00
34.0921 629.00
34.1573 638.00
34.2225 568.00
34.2877 562.00
34.3529 530.00
34.4181 487.00
34.4833 489.00
34.5485 466.00
34.6137 495.00
34.6789 464.00
34.7441 495.00
34.8093 525.00
34.8745 510.00
34.9397 486.00
35.0049 474.00
35.0701 508.00
35.1353 502.00
35.2005 513.00
35.2657 496.00
35.3309 502.00
35.3961 454.00
35.4613 481.00
35.5265 490.00
35.5917 481.00
35.6569 471.00
35.7221 469.00
35.7873 456.00
35.8525 431.00
35.9177 432.00
35.9829 422.00
36.0481 431.00
36.1133 426.00
36.1785 425.00
36.2437 484.00
36.3089 463.00
36.3741 442.00
36.4393 441.00
36.5045 541.00
36.5697 487.00
36.6349 450.00
36.7001 480.00
36.7653 454.00
36.8305 426.00
36.8957 431.00
36.9609 422.00
37.0261 454.00
37.0913 477.00
37.1565 473.00
37.2217 475.00
37.2869 481.00
37.3521 435.00
37.4173 480.00
37.4825 491.00
37.5477 478.00
37.6129 536.00
37.6781 632.00
37.7433 847.00
37.8085 1051.00
37.8736 1027.00
37.9388 790.00
38.004 648.00
38.0692 502.00
38.1344 503.00
38.1996 466.00
38.2648 442.00
38.33 476.00
38.3952 503.00
38.4604 507.00
38.5256 472.00
38.5908 429.00
38.656 464.00
38.7212 474.00
38.7864 526.00
38.8516 544.00
38.9168 495.00
38.982 496.00
39.0472 439.00
39.1124 406.00
39.1776 420.00
39.2428 420.00
39.308 426.00
39.3732 373.00
39.4384 403.00
39.5036 402.00
39.5688 384.00
39.634 446.00
39.6992 396.00
39.7644 374.00
39.8296 405.00
39.8948 391.00
39.96 389.00
40.0252 376.00
40.0904 377.00
40.1556 362.00
40.2208 397.00
40.286 356.00
40.3512 373.00
40.4164 355.00
40.4816 363.00
40.5468 352.00
40.612 348.00
40.6772 341.00
40.7424 361.00
40.8076 368.00
40.8728 380.00
40.938 346.00
41.0032 348.00
41.0684 347.00
41.1336 359.00
41.1988 340.00
41.264 360.00
41.3292 371.00
41.3944 344.00
41.4596 340.00
41.5248 360.00
41.59 377.00
41.6552 374.00
41.7204 358.00
41.7856 380.00
41.8508 338.00
41.916 358.00
41.9812 340.00
42.0464 365.00
42.1116 320.00
42.1768 316.00
42.242 378.00
42.3072 347.00
42.3724 333.00
42.4376 370.00
42.5028 417.00
42.568 388.00
42.6332 376.00
42.6983 401.00
42.7635 370.00
42.8287 372.00
42.8939 392.00
42.9591 347.00
43.0243 368.00
43.0895 385.00
43.1547 360.00
43.2199 338.00
43.2851 372.00
43.3503 351.00
43.4155 365.00
43.4807 413.00
43.5459 413.00
43.6111 390.00
43.6763 390.00
43.7415 329.00
43.8067 345.00
43.8719 354.00
43.9371 354.00
44.0023 378.00
44.0675 331.00
44.1327 381.00
44.1979 298.00
44.2631 306.00
44.3283 333.00
44.3935 295.00
44.4587 291.00
44.5239 342.00
44.5891 351.00
44.6543 352.00
44.7195 321.00
44.7847 353.00
44.8499 302.00
44.9151 369.00
44.9803 320.00
45.0455 331.00
45.1107 311.00
45.1759 320.00
45.2411 329.00
45.3063 336.00
45.3715 325.00
45.4367 307.00
45.5019 325.00
45.5671 325.00
45.6323 323.00
45.6975 299.00
45.7627 285.00
45.8279 331.00
45.8931 309.00
45.9583 313.00
46.0235 309.00
46.0887 311.00
46.1539 301.00
46.2191 321.00
46.2843 346.00
46.3495 322.00
46.4147 333.00
46.4799 329.00
46.5451 318.00
46.6103 279.00
46.6755 334.00
46.7407 298.00
46.8059 319.00
46.8711 302.00
46.9363 325.00
47.0015 330.00
47.0667 360.00
47.1319 385.00
47.1971 370.00
47.2623 363.00
47.3275 363.00
47.3927 362.00
47.4579 326.00
47.523 329.00
47.5882 362.00
47.6534 324.00
47.7186 291.00
47.7838 298.00
47.849 335.00
47.9142 320.00
47.9794 326.00
48.0446 389.00
48.1098 386.00
48.175 389.00
48.2402 348.00
48.3054 347.00
48.3706 323.00
48.4358 329.00
48.501 305.00
48.5662 297.00
48.6314 348.00
48.6966 269.00
48.7618 276.00
48.827 313.00
48.8922 316.00
48.9574 300.00
49.0226 314.00
49.0878 334.00
49.153 261.00
49.2182 319.00
49.2834 308.00
49.3486 284.00
49.4138 289.00
49.479 291.00
49.5442 305.00
49.6094 305.00
49.6746 297.00
49.7398 268.00
49.805 287.00
49.8702 293.00
49.9354 248.00
50.0006 307.00
50.0658 306.00
50.131 290.00
50.1962 270.00
50.2614 311.00
50.3266 309.00
50.3918 284.00
50.457 278.00
50.5222 275.00
50.5874 293.00
50.6526 285.00
50.7178 329.00
50.783 299.00
50.8482 335.00
50.9134 338.00
50.9786 322.00
51.0438 322.00
51.109 306.00
51.1742 355.00
51.2394 394.00
51.3046 409.00
51.3698 418.00
51.435 588.00
51.5002 759.00
51.5654 1231.00
51.6306 2101.00
51.6958 1903.00
51.761 1582.00
51.8262 1281.00
51.8914 746.00
51.9566 514.00
52.0218 438.00
52.087 429.00
52.1522 373.00
52.2174 325.00
52.2826 303.00
52.3477 310.00
52.4129 311.00
52.4781 294.00
52.5433 277.00
52.6085 305.00
52.6737 287.00
52.7389 286.00
52.8041 306.00
52.8693 273.00
52.9345 281.00
52.9997 302.00
53.0649 283.00
53.1301 309.00
53.1953 240.00
53.2605 230.00
53.3257 257.00
53.3909 288.00
53.4561 278.00
53.5213 291.00
53.5865 274.00
53.6517 259.00
53.7169 265.00
53.7821 298.00
53.8473 246.00
53.9125 292.00
53.9777 292.00
54.0429 284.00
54.1081 288.00
54.1733 267.00
54.2385 272.00
54.3037 346.00
54.3689 293.00
54.4341 315.00
54.4993 389.00
54.5645 558.00
54.6297 726.00
54.6949 623.00
54.7601 536.00
54.8253 512.00
54.8905 321.00
54.9557 301.00
55.0209 273.00
55.0861 314.00
55.1513 308.00
55.2165 260.00
55.2817 269.00
55.3469 270.00
55.4121 291.00
55.4773 296.00
55.5425 272.00
55.6077 300.00
55.6729 287.00
55.7381 264.00
55.8033 249.00
55.8685 263.00
55.9337 279.00
55.9989 263.00
56.0641 247.00
56.1293 235.00
56.1945 274.00
56.2597 268.00
56.3249 233.00
56.3901 261.00
56.4553 258.00
56.5205 279.00
56.5857 212.00
56.6509 284.00
56.7161 289.00
56.7813 274.00
56.8465 267.00
56.9117 240.00
56.9769 282.00
57.042 282.00
57.1073 307.00
57.1724 320.00
57.2376 317.00
57.3028 318.00
57.368 294.00
57.4332 338.00
57.4984 317.00
57.5636 303.00
57.6288 395.00
57.694 418.00
57.7592 388.00
57.8244 395.00
57.8896 359.00
57.9548 275.00
58.02 266.00
58.0852 280.00
58.1504 259.00
58.2156 240.00
58.2808 225.00
58.346 234.00
58.4112 244.00
58.4764 274.00
58.5416 261.00
58.6068 247.00
58.672 249.00
58.7372 239.00
58.8024 266.00
58.8676 265.00
58.9328 265.00
58.998 292.00
59.0632 277.00
59.1284 258.00
59.1936 268.00
59.2588 256.00
59.324 273.00
59.3892 248.00
59.4544 238.00
59.5196 256.00
59.5848 261.00
59.65 260.00
59.7152 212.00
59.7804 232.00
59.8456 237.00
59.9108 250.00
59.976 220.00
60.0412 249.00
60.1064 247.00
60.1716 223.00
60.2368 233.00
60.302 234.00
60.3672 193.00
60.4324 222.00
60.4976 243.00
60.5628 236.00
60.628 191.00
60.6932 250.00
60.7584 194.00
60.8236 261.00
60.8888 207.00
60.954 203.00
61.0192 220.00
61.0844 207.00
61.1496 222.00
61.2148 237.00
61.28 238.00
61.3452 241.00
61.4104 227.00
61.4756 264.00
61.5408 285.00
61.606 312.00
61.6712 390.00
61.7364 535.00
61.8016 554.00
61.8667 488.00
61.932 453.00
61.9971 367.00
62.0623 313.00
62.1275 291.00
62.1927 242.00
62.2579 282.00
62.3231 238.00
62.3883 236.00
62.4535 262.00
62.5187 244.00
62.5839 247.00
62.6491 247.00
62.7143 256.00
62.7795 224.00
62.8447 192.00
62.9099 263.00
62.9751 259.00
63.0403 210.00
63.1055 217.00
63.1707 249.00
63.2359 207.00
63.3011 217.00
63.3663 219.00
63.4315 239.00
63.4967 221.00
63.5619 223.00
63.6271 248.00
63.6923 208.00
63.7575 203.00
63.8227 209.00
63.8879 230.00
63.9531 231.00
64.0183 231.00
64.0835 215.00
64.1487 219.00
64.2139 222.00
64.2791 236.00
64.3443 288.00
64.4095 289.00
64.4747 318.00
64.5399 449.00
64.6051 553.00
64.6703 561.00
64.7355 418.00
64.8007 455.00
64.8659 357.00
64.9311 304.00
64.9963 276.00
65.0615 271.00
65.1267 288.00
65.1919 297.00
65.2571 259.00
65.3223 259.00
65.3875 262.00
65.4527 260.00
65.5179 257.00
65.5831 275.00
65.6483 315.00
65.7135 341.00
65.7787 499.00
65.8439 689.00
65.9091 637.00
65.9743 470.00
66.0395 482.00
66.1047 431.00
66.1699 313.00
66.2351 292.00
66.3003 240.00
66.3655 206.00
66.4307 269.00
66.4959 241.00
66.561 212.00
66.6263 188.00
66.6915 243.00
66.7566 218.00
66.8218 209.00
66.887 208.00
66.9522 232.00
67.0174 245.00
67.0826 194.00
67.1478 207.00
67.213 182.00
67.2782 216.00
67.3434 241.00
67.4086 224.00
67.4738 207.00
67.539 203.00
67.6042 196.00
67.6694 230.00
67.7346 227.00
67.7998 171.00
67.865 180.00
67.9302 234.00
67.9954 210.00
68.0606 231.00
68.1258 197.00
68.191 184.00
68.2562 220.00
68.3214 209.00
68.3866 160.00
68.4518 199.00
68.517 235.00
68.5822 199.00
68.6474 201.00
68.7126 200.00
68.7778 200.00
68.843 192.00
68.9082 219.00
68.9734 232.00
69.0386 211.00
69.1038 226.00
69.169 195.00
69.2342 212.00
69.2994 209.00
69.3646 199.00
69.4298 218.00
69.495 241.00
69.5602 218.00
69.6254 209.00
69.6906 222.00
69.7558 190.00
69.821 219.00
69.8862 192.00
69.9514 219.00
70.0166 195.00
70.0818 235.00
70.147 182.00
70.2122 197.00
70.2774 200.00
70.3426 223.00
70.4078 201.00
70.473 195.00
70.5382 213.00
70.6034 227.00
70.6686 211.00
70.7338 187.00
70.799 210.00
70.8642 228.00
70.9294 245.00
70.9946 267.00
71.0598 297.00
71.125 346.00
71.1902 381.00
71.2554 333.00
71.3205 288.00
71.3858 311.00
71.451 256.00
71.5162 266.00
71.5813 233.00
71.6465 195.00
71.7117 226.00
71.7769 222.00
71.8421 226.00
71.9073 210.00
71.9725 247.00
72.0377 213.00
72.1029 212.00
72.1681 215.00
72.2333 198.00
72.2985 197.00
72.3637 201.00
72.4289 190.00
72.4941 186.00
72.5593 200.00
72.6245 208.00
72.6897 199.00
72.7549 198.00
72.8201 194.00
72.8853 219.00
72.9505 211.00
73.0157 222.00
73.0809 234.00
73.1461 210.00
73.2113 220.00
73.2765 209.00
73.3417 185.00
73.4069 215.00
73.4721 207.00
73.5373 222.00
73.6025 201.00
73.6677 194.00
73.7329 204.00
73.7981 188.00
73.8633 205.00
73.9285 196.00
73.9937 188.00
74.0589 183.00
74.1241 203.00
74.1893 181.00
74.2545 222.00
74.3197 200.00
74.3849 187.00
74.4501 196.00
74.5153 212.00
74.5805 212.00
74.6457 191.00
74.7109 200.00
74.7761 197.00
74.8413 221.00
74.9065 219.00
74.9717 228.00
75.0369 213.00
75.1021 217.00
75.1673 214.00
75.2325 214.00
75.2977 217.00
75.3629 216.00
75.4281 230.00
75.4933 218.00
75.5585 211.00
75.6237 184.00
75.6889 228.00
75.7541 240.00
75.8193 186.00
75.8845 216.00
75.9497 231.00
76.0149 212.00
76.0801 214.00
76.1452 215.00
76.2104 243.00
76.2756 237.00
76.3409 225.00
76.406 223.00
76.4712 206.00
76.5364 197.00
76.6016 210.00
76.6668 212.00
76.732 237.00
76.7972 220.00
76.8624 230.00
76.9276 210.00
76.9928 219.00
77.058 236.00
77.1232 237.00
77.1884 216.00
77.2536 239.00
77.3188 215.00
77.384 249.00
77.4492 218.00
77.5144 215.00
77.5796 246.00
77.6448 230.00
77.71 206.00
77.7752 230.00
77.8404 204.00
77.9056 237.00
77.9708 214.00
78.036 227.00
78.1012 234.00
78.1664 266.00
78.2316 239.00
78.2968 247.00
78.362 302.00
78.4272 305.00
78.4924 336.00
78.5576 475.00
78.6228 517.00
78.688 440.00
78.7532 374.00
78.8184 391.00
78.8836 378.00
78.9488 286.00
79.014 295.00
79.0792 270.00
79.1444 221.00
79.2096 276.00
79.2748 211.00
79.34 228.00
79.4052 239.00
79.4704 250.00
79.5356 242.00
79.6008 247.00
79.666 207.00
79.7312 241.00
79.7964 191.00
79.8616 223.00
79.9268 223.00
79.992 263.00
80.0572 215.00
80.1224 209.00
80.1876 226.00
80.2528 249.00
80.318 286.00
80.3832 230.00
80.4484 245.00
80.5136 273.00
80.5788 263.00
80.644 216.00
80.7092 234.00
80.7744 231.00
80.8396 231.00
80.9048 260.00
80.9699 293.00
81.0351 343.00
81.1003 316.00
81.1655 265.00
81.2307 275.00
81.2959 320.00
81.3611 276.00
81.4263 231.00
81.4915 258.00
81.5567 227.00
81.6219 258.00
81.6871 237.00
81.7523 243.00
81.8175 248.00
81.8827 228.00
81.9479 229.00
82.0131 203.00
82.0783 228.00
82.1435 240.00
82.2087 231.00
82.2739 239.00
82.3391 238.00
82.4043 231.00
82.4695 199.00
82.5347 220.00
82.5999 243.00
82.6651 267.00
82.7303 227.00
82.7955 216.00
82.8607 243.00
82.9259 221.00
82.9911 214.00
83.0563 230.00
83.1215 231.00
83.1867 241.00
83.2519 250.00
83.3171 246.00
83.3823 235.00
83.4475 267.00
83.5127 306.00
83.5779 383.00
83.6431 402.00
83.7083 340.00
83.7735 311.00
83.8387 348.00
83.9039 312.00
83.9691 284.00
84.0343 233.00
84.0995 233.00
84.1647 249.00
84.2299 243.00
84.2951 223.00
84.3603 222.00
84.4255 256.00
84.4907 216.00
84.5559 207.00
84.6211 207.00
84.6863 240.00
84.7515 223.00
84.8167 193.00
84.8819 228.00
84.9471 211.00
85.0123 222.00
85.0775 200.00
85.1427 213.00
85.2079 237.00
85.2731 196.00
85.3383 203.00
85.4035 173.00
85.4687 205.00
85.5339 210.00
85.5991 223.00
85.6643 198.00
85.7295 218.00
85.7946 235.00
85.8598 205.00
85.925 203.00
85.9903 218.00
86.0554 189.00
86.1206 226.00
86.1858 221.00
86.251 188.00
86.3162 188.00
86.3814 198.00
86.4466 198.00
86.5118 189.00
86.577 195.00
86.6422 225.00
86.7074 200.00
86.7726 215.00
86.8378 221.00
86.903 208.00
86.9682 232.00
87.0334 232.00
87.0986 280.00
87.1638 290.00
87.229 275.00
87.2942 250.00
87.3594 257.00
87.4246 218.00
87.4898 221.00
87.555 223.00
87.6202 201.00
87.6854 212.00
87.7506 206.00
87.8158 202.00
87.881 200.00
87.9462 218.00
88.0114 188.00
88.0766 213.00
88.1418 181.00
88.207 187.00
88.2722 190.00
88.3374 183.00
88.4026 181.00
88.4678 195.00
88.533 202.00
88.5982 208.00
88.6634 204.00
88.7286 210.00
88.7938 168.00
88.859 202.00
88.9242 196.00
88.9894 188.00
89.0546 228.00
89.1198 218.00
89.185 222.00
89.2502 241.00
89.3154 219.00
89.3806 221.00
89.4458 265.00
89.511 264.00
89.5762 300.00
89.6414 392.00
89.7066 422.00
89.7718 391.00
89.837 293.00
89.9022 314.00
89.9674 326.00
90.0326 294.00
90.0978 264.00
90.163 265.00
90.2282 211.00
90.2934 238.00
90.3586 213.00
90.4238 221.00
90.489 215.00
90.5542 259.00
90.6193 266.00
90.6845 272.00
90.7497 362.00
90.8149 410.00
90.8801 327.00
90.9453 317.00
91.0105 316.00
91.0757 314.00
91.1409 339.00
91.2061 244.00
91.2713 223.00
91.3365 226.00
91.4017 189.00
91.4669 178.00
91.5321 190.00
91.5973 190.00
91.6625 164.00
91.7277 224.00
91.7929 210.00
91.8581 206.00
91.9233 198.00
91.9885 200.00
92.0537 228.00
92.1189 210.00
92.1841 216.00
92.2493 194.00
92.3145 179.00
92.3797 203.00
92.4449 184.00
92.5101 197.00
92.5753 197.00
92.6405 219.00
92.7057 181.00
92.7709 194.00
92.8361 213.00
92.9013 215.00
92.9665 226.00
93.0317 193.00
93.0969 225.00
93.1621 286.00
93.2273 283.00
93.2925 260.00
93.3577 213.00
93.4229 237.00
93.4881 230.00
93.5533 257.00
93.6185 218.00
93.6837 215.00
93.7489 211.00
93.8141 213.00
93.8793 198.00
93.9445 189.00
94.0097 184.00
94.0749 177.00
94.1401 182.00
94.2053 166.00
94.2705 182.00
94.3357 205.00
94.4009 186.00
94.4661 204.00
94.5313 194.00
94.5965 178.00
94.6617 190.00
94.7269 163.00
94.7921 213.00
94.8573 213.00
94.9225 166.00
94.9877 201.00
95.0529 185.00
95.1181 182.00
95.1833 195.00
95.2485 169.00
95.3137 205.00
95.3789 191.00
95.444 169.00
95.5092 174.00
95.5744 190.00
95.6396 210.00
95.7048 216.00
95.77 240.00
95.8352 244.00
95.9004 246.00
95.9656 250.00
96.0308 233.00
96.096 237.00
96.1612 245.00
96.2264 227.00
96.2916 223.00
96.3568 205.00
96.422 229.00
96.4872 213.00
96.5524 171.00
96.6176 188.00
96.6828 218.00
96.748 205.00
96.8132 176.00
96.8784 220.00
96.9436 180.00
97.0088 181.00
97.074 189.00
97.1392 206.00
97.2044 169.00
97.2696 204.00
97.3348 203.00
97.4 182.00
97.4652 178.00
97.5304 194.00
97.5956 191.00
97.6608 174.00
97.726 205.00
97.7912 201.00
97.8564 158.00
97.9216 193.00
97.9868 200.00
98.052 187.00
98.1172 180.00
98.1824 223.00
98.2476 210.00
98.3128 214.00
98.378 180.00
98.4432 210.00
98.5084 189.00
98.5736 217.00
98.6388 193.00
98.704 179.00
98.7692 188.00
98.8344 195.00
98.8996 186.00
98.9648 161.00
99.03 195.00
99.0952 162.00
99.1604 172.00
99.2256 222.00
99.2908 153.00
99.356 202.00
99.4212 171.00
99.4864 217.00
99.5516 185.00
99.6168 178.00
99.682 183.00
99.7472 202.00
99.8124 174.00
99.8776 185.00
99.9428 180.00
100.008 186.00
100.073 156.00
100.095 205.00