File: data/xrd_creation/results/Na_-11.xy
9.903433 2444.00
9.968632 2488.00
10.0338 2548.00
10.099 2416.00
10.1642 2427.00
10.2294 2408.00
10.2946 2437.00
10.3598 2248.00
10.425 2373.00
10.4902 2428.00
10.5554 2321.00
10.6206 2284.00
10.6858 2260.00
10.751 2228.00
10.8162 2221.00
10.8814 2199.00
10.9466 2209.00
11.0118 2240.00
11.077 2128.00
11.1422 2148.00
11.2074 2100.00
11.2726 2120.00
11.3378 2146.00
11.403 2013.00
11.4682 2107.00
11.5334 1909.00
11.5986 2038.00
11.6638 2031.00
11.729 1944.00
11.7942 1958.00
11.8594 1968.00
11.9246 1903.00
11.9898 1811.00
12.055 1803.00
12.1202 1828.00
12.1854 1835.00
12.2506 1785.00
12.3158 1835.00
12.381 1797.00
12.4462 1705.00
12.5114 1748.00
12.5766 1731.00
12.6418 1706.00
12.707 1694.00
12.7722 1648.00
12.8374 1683.00
12.9026 1706.00
12.9678 1755.00
13.033 1679.00
13.0982 1675.00
13.1634 1636.00
13.2286 1639.00
13.2938 1609.00
13.359 1557.00
13.4242 1543.00
13.4894 1581.00
13.5546 1591.00
13.6198 1565.00
13.685 1516.00
13.7502 1524.00
13.8154 1563.00
13.8805 1483.00
13.9457 1561.00
14.0109 1507.00
14.0761 1495.00
14.1413 1516.00
14.2065 1406.00
14.2717 1442.00
14.3369 1359.00
14.4021 1384.00
14.4673 1437.00
14.5325 1399.00
14.5977 1442.00
14.6629 1400.00
14.7281 1394.00
14.7933 1339.00
14.8585 1338.00
14.9237 1345.00
14.9889 1363.00
15.0541 1292.00
15.1193 1268.00
15.1845 1315.00
15.2497 1411.00
15.3149 1299.00
15.3801 1353.00
15.4453 1245.00
15.5105 1288.00
15.5757 1286.00
15.6409 1275.00
15.7061 1311.00
15.7713 1289.00
15.8365 1288.00
15.9017 1197.00
15.9669 1263.00
16.0321 1242.00
16.0973 1214.00
16.1625 1276.00
16.2277 1234.00
16.2929 1250.00
16.3581 1281.00
16.4233 1224.00
16.4885 1280.00
16.5537 1221.00
16.6189 1199.00
16.6841 1206.00
16.7493 1147.00
16.8145 1220.00
16.8797 1198.00
16.9449 1187.00
17.0101 1225.00
17.0753 1159.00
17.1405 1169.00
17.2057 1199.00
17.2709 1161.00
17.3361 1163.00
17.4013 1133.00
17.4665 1180.00
17.5317 1124.00
17.5969 1146.00
17.6621 1071.00
17.7273 1105.00
17.7925 1039.00
17.8577 1110.00
17.9229 1128.00
17.9881 1119.00
18.0533 1101.00
18.1185 1025.00
18.1837 1076.00
18.2489 1052.00
18.3141 1082.00
18.3793 1025.00
18.4445 1116.00
18.5097 1166.00
18.5749 1093.00
18.6401 1033.00
18.7052 1035.00
18.7704 1051.00
18.8356 1004.00
18.9008 1048.00
18.966 989.00
19.0312 974.00
19.0964 924.00
19.1616 939.00
19.2268 959.00
19.292 1022.00
19.3572 967.00
19.4224 920.00
19.4876 966.00
19.5528 938.00
19.618 914.00
19.6832 896.00
19.7484 899.00
19.8136 926.00
19.8788 947.00
19.944 948.00
20.0092 939.00
20.0744 916.00
20.1396 870.00
20.2048 924.00
20.27 904.00
20.3352 928.00
20.4004 906.00
20.4656 922.00
20.5308 882.00
20.596 949.00
20.6612 835.00
20.7264 911.00
20.7916 889.00
20.8568 860.00
20.922 842.00
20.9872 827.00
21.0524 899.00
21.1176 849.00
21.1828 847.00
21.248 832.00
21.3132 829.00
21.3784 823.00
21.4436 796.00
21.5088 876.00
21.574 807.00
21.6392 834.00
21.7044 923.00
21.7696 787.00
21.8348 809.00
21.9 810.00
21.9652 823.00
22.0304 814.00
22.0956 844.00
22.1608 835.00
22.226 774.00
22.2912 798.00
22.3564 798.00
22.4216 760.00
22.4868 805.00
22.552 830.00
22.6172 817.00
22.6824 806.00
22.7476 726.00
22.8128 836.00
22.878 764.00
22.9432 797.00
23.0084 790.00
23.0736 772.00
23.1388 754.00
23.204 764.00
23.2692 731.00
23.3344 718.00
23.3996 712.00
23.4647 769.00
23.5299 745.00
23.5951 768.00
23.6603 693.00
23.7255 726.00
23.7907 721.00
23.8559 777.00
23.9211 740.00
23.9863 742.00
24.0515 681.00
24.1167 708.00
24.1819 694.00
24.2471 717.00
24.3123 727.00
24.3775 757.00
24.4427 678.00
24.5079 692.00
24.5731 717.00
24.6383 747.00
24.7035 738.00
24.7687 670.00
24.8339 655.00
24.8991 715.00
24.9643 723.00
25.0295 716.00
25.0947 665.00
25.1599 654.00
25.2251 634.00
25.2903 710.00
25.3555 618.00
25.4207 672.00
25.4859 657.00
25.5511 658.00
25.6163 717.00
25.6815 643.00
25.7467 658.00
25.8119 678.00
25.8771 671.00
25.9423 654.00
26.0075 627.00
26.0727 710.00
26.1379 672.00
26.2031 716.00
26.2683 675.00
26.3335 713.00
26.3987 720.00
26.4639 850.00
26.5291 779.00
26.5943 690.00
26.6595 660.00
26.7247 647.00
26.7899 652.00
26.8551 676.00
26.9203 590.00
26.9855 602.00
27.0507 618.00
27.1159 634.00
27.1811 629.00
27.2463 658.00
27.3115 604.00
27.3767 587.00
27.4419 599.00
27.5071 585.00
27.5723 624.00
27.6375 623.00
27.7027 588.00
27.7679 574.00
27.8331 565.00
27.8983 638.00
27.9635 593.00
28.0287 622.00
28.0939 595.00
28.1591 606.00
28.2243 608.00
28.2894 609.00
28.3546 602.00
28.4198 601.00
28.485 579.00
28.5502 572.00
28.6154 590.00
28.6806 553.00
28.7458 576.00
28.811 561.00
28.8762 538.00
28.9414 586.00
29.0066 584.00
29.0718 599.00
29.137 551.00
29.2022 553.00
29.2674 560.00
29.3326 534.00
29.3978 501.00
29.463 514.00
29.5282 535.00
29.5934 537.00
29.6586 559.00
29.7238 500.00
29.789 497.00
29.8542 526.00
29.9194 549.00
29.9846 519.00
30.0498 544.00
30.115 498.00
30.1802 525.00
30.2454 512.00
30.3106 536.00
30.3758 508.00
30.441 539.00
30.5062 523.00
30.5714 548.00
30.6366 542.00
30.7018 505.00
30.767 487.00
30.8322 526.00
30.8974 559.00
30.9626 530.00
31.0278 480.00
31.093 510.00
31.1582 513.00
31.2234 504.00
31.2886 498.00
31.3538 477.00
31.419 458.00
31.4842 477.00
31.5494 480.00
31.6146 548.00
31.6798 473.00
31.745 471.00
31.8102 478.00
31.8754 464.00
31.9406 515.00
32.0058 474.00
32.071 496.00
32.1362 472.00
32.2014 437.00
32.2666 490.00
32.3318 413.00
32.397 482.00
32.4622 478.00
32.5274 471.00
32.5926 493.00
32.6578 469.00
32.723 436.00
32.7882 473.00
32.8534 474.00
32.9186 432.00
32.9838 467.00
33.0489 488.00
33.1141 488.00
33.1793 450.00
33.2445 472.00
33.3097 451.00
33.3749 444.00
33.4401 469.00
33.5053 508.00
33.5705 510.00
33.6357 495.00
33.7009 605.00
33.7661 568.00
33.8313 533.00
33.8965 471.00
33.9617 447.00
34.0269 449.00
34.0921 445.00
34.1573 444.00
34.2225 441.00
34.2877 453.00
34.3529 437.00
34.4181 418.00
34.4833 434.00
34.5485 434.00
34.6137 428.00
34.6789 420.00
34.7441 426.00
34.8093 412.00
34.8745 424.00
34.9397 416.00
35.0049 451.00
35.0701 429.00
35.1353 439.00
35.2005 390.00
35.2657 409.00
35.3309 417.00
35.3961 416.00
35.4613 398.00
35.5265 388.00
35.5917 418.00
35.6569 406.00
35.7221 393.00
35.7873 397.00
35.8525 360.00
35.9177 387.00
35.9829 379.00
36.0481 375.00
36.1133 377.00
36.1785 361.00
36.2437 374.00
36.3089 375.00
36.3741 374.00
36.4393 427.00
36.5045 375.00
36.5697 398.00
36.6349 383.00
36.7001 362.00
36.7653 386.00
36.8305 438.00
36.8957 357.00
36.9609 374.00
37.0261 423.00
37.0913 374.00
37.1565 398.00
37.2217 385.00
37.2869 392.00
37.3521 368.00
37.4173 395.00
37.4825 380.00
37.5477 360.00
37.6129 345.00
37.6781 403.00
37.7433 395.00
37.8085 397.00
37.8736 445.00
37.9388 376.00
38.004 388.00
38.0692 348.00
38.1344 324.00
38.1996 388.00
38.2648 336.00
38.33 386.00
38.3952 329.00
38.4604 309.00
38.5256 337.00
38.5908 398.00
38.656 326.00
38.7212 367.00
38.7864 328.00
38.8516 393.00
38.9168 363.00
38.982 365.00
39.0472 348.00
39.1124 355.00
39.1776 319.00
39.2428 360.00
39.308 327.00
39.3732 354.00
39.4384 321.00
39.5036 350.00
39.5688 313.00
39.634 328.00
39.6992 356.00
39.7644 337.00
39.8296 326.00
39.8948 352.00
39.96 325.00
40.0252 320.00
40.0904 347.00
40.1556 351.00
40.2208 347.00
40.286 312.00
40.3512 330.00
40.4164 325.00
40.4816 344.00
40.5468 330.00
40.612 352.00
40.6772 326.00
40.7424 360.00
40.8076 325.00
40.8728 323.00
40.938 300.00
41.0032 338.00
41.0684 293.00
41.1336 335.00
41.1988 302.00
41.264 306.00
41.3292 302.00
41.3944 299.00
41.4596 304.00
41.5248 308.00
41.59 294.00
41.6552 315.00
41.7204 363.00
41.7856 307.00
41.8508 309.00
41.916 324.00
41.9812 301.00
42.0464 365.00
42.1116 287.00
42.1768 303.00
42.242 299.00
42.3072 323.00
42.3724 308.00
42.4376 297.00
42.5028 301.00
42.568 312.00
42.6332 281.00
42.6983 311.00
42.7635 335.00
42.8287 296.00
42.8939 299.00
42.9591 337.00
43.0243 295.00
43.0895 320.00
43.1547 320.00
43.2199 298.00
43.2851 296.00
43.3503 312.00
43.4155 277.00
43.4807 289.00
43.5459 298.00
43.6111 317.00
43.6763 313.00
43.7415 297.00
43.8067 269.00
43.8719 305.00
43.9371 292.00
44.0023 325.00
44.0675 281.00
44.1327 279.00
44.1979 281.00
44.2631 293.00
44.3283 327.00
44.3935 294.00
44.4587 295.00
44.5239 281.00
44.5891 312.00
44.6543 295.00
44.7195 292.00
44.7847 278.00
44.8499 271.00
44.9151 272.00
44.9803 292.00
45.0455 284.00
45.1107 293.00
45.1759 284.00
45.2411 315.00
45.3063 265.00
45.3715 266.00
45.4367 288.00
45.5019 288.00
45.5671 267.00
45.6323 305.00
45.6975 277.00
45.7627 322.00
45.8279 245.00
45.8931 245.00
45.9583 262.00
46.0235 266.00
46.0887 237.00
46.1539 267.00
46.2191 271.00
46.2843 267.00
46.3495 305.00
46.4147 245.00
46.4799 250.00
46.5451 225.00
46.6103 266.00
46.6755 248.00
46.7407 277.00
46.8059 261.00
46.8711 241.00
46.9363 267.00
47.0015 239.00
47.0667 270.00
47.1319 270.00
47.1971 247.00
47.2623 299.00
47.3275 302.00
47.3927 266.00
47.4579 240.00
47.523 274.00
47.5882 276.00
47.6534 274.00
47.7186 269.00
47.7838 265.00
47.849 272.00
47.9142 289.00
47.9794 227.00
48.0446 275.00
48.1098 275.00
48.175 235.00
48.2402 284.00
48.3054 256.00
48.3706 281.00
48.4358 231.00
48.501 218.00
48.5662 239.00
48.6314 260.00
48.6966 305.00
48.7618 282.00
48.827 275.00
48.8922 267.00
48.9574 277.00
49.0226 230.00
49.0878 281.00
49.153 264.00
49.2182 219.00
49.2834 238.00
49.3486 262.00
49.4138 262.00
49.479 271.00
49.5442 266.00
49.6094 278.00
49.6746 238.00
49.7398 260.00
49.805 265.00
49.8702 209.00
49.9354 241.00
50.0006 241.00
50.0658 287.00
50.131 278.00
50.1962 259.00
50.2614 288.00
50.3266 286.00
50.3918 243.00
50.457 237.00
50.5222 245.00
50.5874 246.00
50.6526 246.00
50.7178 258.00
50.783 260.00
50.8482 247.00
50.9134 258.00
50.9786 272.00
51.0438 288.00
51.109 268.00
51.1742 265.00
51.2394 237.00
51.3046 247.00
51.3698 264.00
51.435 272.00
51.5002 249.00
51.5654 317.00
51.6306 348.00
51.6958 331.00
51.761 325.00
51.8262 282.00
51.8914 236.00
51.9566 267.00
52.0218 217.00
52.087 206.00
52.1522 247.00
52.2174 276.00
52.2826 272.00
52.3477 223.00
52.4129 267.00
52.4781 240.00
52.5433 232.00
52.6085 236.00
52.6737 228.00
52.7389 234.00
52.8041 259.00
52.8693 220.00
52.9345 229.00
52.9997 247.00
53.0649 239.00
53.1301 220.00
53.1953 206.00
53.2605 242.00
53.3257 201.00
53.3909 263.00
53.4561 241.00
53.5213 245.00
53.5865 235.00
53.6517 233.00
53.7169 248.00
53.7821 204.00
53.8473 215.00
53.9125 248.00
53.9777 240.00
54.0429 240.00
54.1081 206.00
54.1733 233.00
54.2385 237.00
54.3037 243.00
54.3689 235.00
54.4341 205.00
54.4993 220.00
54.5645 259.00
54.6297 244.00
54.6949 232.00
54.7601 207.00
54.8253 229.00
54.8905 213.00
54.9557 230.00
55.0209 231.00
55.0861 208.00
55.1513 224.00
55.2165 199.00
55.2817 197.00
55.3469 247.00
55.4121 224.00
55.4773 229.00
55.5425 209.00
55.6077 203.00
55.6729 225.00
55.7381 212.00
55.8033 211.00
55.8685 229.00
55.9337 203.00
55.9989 206.00
56.0641 210.00
56.1293 234.00
56.1945 213.00
56.2597 203.00
56.3249 184.00
56.3901 185.00
56.4553 198.00
56.5205 207.00
56.5857 216.00
56.6509 263.00
56.7161 178.00
56.7813 233.00
56.8465 185.00
56.9117 212.00
56.9769 212.00
57.042 209.00
57.1073 199.00
57.1724 201.00
57.2376 179.00
57.3028 231.00
57.368 209.00
57.4332 206.00
57.4984 198.00
57.5636 187.00
57.6288 217.00
57.694 243.00
57.7592 211.00
57.8244 222.00
57.8896 230.00
57.9548 229.00
58.02 196.00
58.0852 176.00
58.1504 189.00
58.2156 205.00
58.2808 184.00
58.346 198.00
58.4112 209.00
58.4764 226.00
58.5416 211.00
58.6068 195.00
58.672 195.00
58.7372 196.00
58.8024 186.00
58.8676 216.00
58.9328 195.00
58.998 213.00
59.0632 191.00
59.1284 183.00
59.1936 214.00
59.2588 185.00
59.324 180.00
59.3892 178.00
59.4544 186.00
59.5196 211.00
59.5848 194.00
59.65 201.00
59.7152 201.00
59.7804 198.00
59.8456 199.00
59.9108 211.00
59.976 202.00
60.0412 200.00
60.1064 166.00
60.1716 211.00
60.2368 211.00
60.302 210.00
60.3672 194.00
60.4324 185.00
60.4976 189.00
60.5628 163.00
60.628 184.00
60.6932 188.00
60.7584 169.00
60.8236 212.00
60.8888 191.00
60.954 210.00
61.0192 207.00
61.0844 187.00
61.1496 172.00
61.2148 188.00
61.28 169.00
61.3452 182.00
61.4104 188.00
61.4756 192.00
61.5408 179.00
61.606 192.00
61.6712 206.00
61.7364 199.00
61.8016 220.00
61.8667 172.00
61.932 181.00
61.9971 196.00
62.0623 181.00
62.1275 200.00
62.1927 165.00
62.2579 196.00
62.3231 211.00
62.3883 210.00
62.4535 185.00
62.5187 194.00
62.5839 170.00
62.6491 194.00
62.7143 191.00
62.7795 181.00
62.8447 206.00
62.9099 205.00
62.9751 179.00
63.0403 170.00
63.1055 205.00
63.1707 170.00
63.2359 185.00
63.3011 184.00
63.3663 187.00
63.4315 176.00
63.4967 176.00
63.5619 182.00
63.6271 189.00
63.6923 219.00
63.7575 188.00
63.8227 168.00
63.8879 209.00
63.9531 171.00
64.0183 183.00
64.0835 195.00
64.1487 172.00
64.2139 172.00
64.2791 202.00
64.3443 167.00
64.4095 187.00
64.4747 189.00
64.5399 200.00
64.6051 193.00
64.6703 192.00
64.7355 181.00
64.8007 165.00
64.8659 189.00
64.9311 176.00
64.9963 210.00
65.0615 194.00
65.1267 162.00
65.1919 196.00
65.2571 205.00
65.3223 176.00
65.3875 193.00
65.4527 189.00
65.5179 189.00
65.5831 185.00
65.6483 184.00
65.7135 211.00
65.7787 197.00
65.8439 187.00
65.9091 186.00
65.9743 171.00
66.0395 192.00
66.1047 190.00
66.1699 190.00
66.2351 189.00
66.3003 167.00
66.3655 163.00
66.4307 189.00
66.4959 198.00
66.561 163.00
66.6263 182.00
66.6915 182.00
66.7566 181.00
66.8218 188.00
66.887 207.00
66.9522 157.00
67.0174 180.00
67.0826 160.00
67.1478 192.00
67.213 201.00
67.2782 194.00
67.3434 182.00
67.4086 202.00
67.4738 161.00
67.539 170.00
67.6042 170.00
67.6694 184.00
67.7346 162.00
67.7998 210.00
67.865 156.00
67.9302 205.00
67.9954 182.00
68.0606 170.00
68.1258 182.00
68.191 157.00
68.2562 175.00
68.3214 187.00
68.3866 182.00
68.4518 184.00
68.517 188.00
68.5822 170.00
68.6474 176.00
68.7126 196.00
68.7778 173.00
68.843 175.00
68.9082 154.00
68.9734 170.00
69.0386 182.00
69.1038 189.00
69.169 174.00
69.2342 179.00
69.2994 203.00
69.3646 199.00
69.4298 174.00
69.495 181.00
69.5602 166.00
69.6254 178.00
69.6906 182.00
69.7558 177.00
69.821 204.00
69.8862 164.00
69.9514 184.00
70.0166 192.00
70.0818 170.00
70.147 196.00
70.2122 218.00
70.2774 174.00
70.3426 166.00
70.4078 198.00
70.473 169.00
70.5382 199.00
70.6034 175.00
70.6686 202.00
70.7338 173.00
70.799 168.00
70.8642 198.00
70.9294 180.00
70.9946 167.00
71.0598 175.00
71.125 204.00
71.1902 214.00
71.2554 172.00
71.3205 179.00
71.3858 197.00
71.451 168.00
71.5162 168.00
71.5813 214.00
71.6465 190.00
71.7117 185.00
71.7769 204.00
71.8421 204.00
71.9073 147.00
71.9725 159.00
72.0377 188.00
72.1029 188.00
72.1681 195.00
72.2333 200.00
72.2985 193.00
72.3637 164.00
72.4289 208.00
72.4941 178.00
72.5593 172.00
72.6245 181.00
72.6897 193.00
72.7549 196.00
72.8201 178.00
72.8853 230.00
72.9505 185.00
73.0157 190.00
73.0809 179.00
73.1461 172.00
73.2113 204.00
73.2765 187.00
73.3417 166.00
73.4069 187.00
73.4721 185.00
73.5373 188.00
73.6025 185.00
73.6677 184.00
73.7329 178.00
73.7981 175.00
73.8633 192.00
73.9285 171.00
73.9937 169.00
74.0589 185.00
74.1241 182.00
74.1893 195.00
74.2545 178.00
74.3197 203.00
74.3849 184.00
74.4501 216.00
74.5153 201.00
74.5805 195.00
74.6457 194.00
74.7109 208.00
74.7761 182.00
74.8413 186.00
74.9065 155.00
74.9717 187.00
75.0369 199.00
75.1021 161.00
75.1673 187.00
75.2325 195.00
75.2977 175.00
75.3629 206.00
75.4281 208.00
75.4933 200.00
75.5585 201.00
75.6237 200.00
75.6889 211.00
75.7541 179.00
75.8193 184.00
75.8845 201.00
75.9497 187.00
76.0149 203.00
76.0801 189.00
76.1452 205.00
76.2104 192.00
76.2756 188.00
76.3409 205.00
76.406 196.00
76.4712 181.00
76.5364 202.00
76.6016 189.00
76.6668 224.00
76.732 189.00
76.7972 200.00
76.8624 181.00
76.9276 215.00
76.9928 202.00
77.058 216.00
77.1232 192.00
77.1884 169.00
77.2536 191.00
77.3188 176.00
77.384 192.00
77.4492 203.00
77.5144 214.00
77.5796 204.00
77.6448 177.00
77.71 199.00
77.7752 203.00
77.8404 208.00
77.9056 191.00
77.9708 198.00
78.036 239.00
78.1012 208.00
78.1664 202.00
78.2316 193.00
78.2968 196.00
78.362 192.00
78.4272 219.00
78.4924 186.00
78.5576 202.00
78.6228 209.00
78.688 184.00
78.7532 216.00
78.8184 217.00
78.8836 199.00
78.9488 196.00
79.014 195.00
79.0792 208.00
79.1444 199.00
79.2096 208.00
79.2748 212.00
79.34 211.00
79.4052 182.00
79.4704 208.00
79.5356 198.00
79.6008 193.00
79.666 215.00
79.7312 214.00
79.7964 219.00
79.8616 234.00
79.9268 232.00
79.992 230.00
80.0572 231.00
80.1224 201.00
80.1876 210.00
80.2528 196.00
80.318 211.00
80.3832 227.00
80.4484 181.00
80.5136 216.00
80.5788 221.00
80.644 206.00
80.7092 208.00
80.7744 243.00
80.8396 219.00
80.9048 238.00
80.9699 217.00
81.0351 228.00
81.1003 242.00
81.1655 204.00
81.2307 204.00
81.2959 225.00
81.3611 206.00
81.4263 201.00
81.4915 234.00
81.5567 227.00
81.6219 235.00
81.6871 217.00
81.7523 209.00
81.8175 228.00
81.8827 204.00
81.9479 232.00
82.0131 226.00
82.0783 258.00
82.1435 226.00
82.2087 234.00
82.2739 209.00
82.3391 170.00
82.4043 212.00
82.4695 203.00
82.5347 214.00
82.5999 233.00
82.6651 225.00
82.7303 242.00
82.7955 229.00
82.8607 204.00
82.9259 229.00
82.9911 193.00
83.0563 201.00
83.1215 233.00
83.1867 197.00
83.2519 223.00
83.3171 249.00
83.3823 218.00
83.4475 201.00
83.5127 178.00
83.5779 266.00
83.6431 214.00
83.7083 196.00
83.7735 243.00
83.8387 205.00
83.9039 217.00
83.9691 207.00
84.0343 223.00
84.0995 206.00
84.1647 195.00
84.2299 214.00
84.2951 203.00
84.3603 214.00
84.4255 203.00
84.4907 199.00
84.5559 220.00
84.6211 209.00
84.6863 221.00
84.7515 203.00
84.8167 206.00
84.8819 213.00
84.9471 180.00
85.0123 198.00
85.0775 196.00
85.1427 199.00
85.2079 202.00
85.2731 193.00
85.3383 205.00
85.4035 182.00
85.4687 186.00
85.5339 214.00
85.5991 168.00
85.6643 213.00
85.7295 195.00
85.7946 221.00
85.8598 175.00
85.925 211.00
85.9903 200.00
86.0554 196.00
86.1206 178.00
86.1858 197.00
86.251 187.00
86.3162 201.00
86.3814 181.00
86.4466 195.00
86.5118 181.00
86.577 164.00
86.6422 201.00
86.7074 171.00
86.7726 193.00
86.8378 182.00
86.903 194.00
86.9682 204.00
87.0334 192.00
87.0986 205.00
87.1638 181.00
87.229 190.00
87.2942 186.00
87.3594 177.00
87.4246 159.00
87.4898 179.00
87.555 198.00
87.6202 182.00
87.6854 163.00
87.7506 193.00
87.8158 212.00
87.881 202.00
87.9462 182.00
88.0114 186.00
88.0766 193.00
88.1418 176.00
88.207 206.00
88.2722 188.00
88.3374 168.00
88.4026 196.00
88.4678 192.00
88.533 190.00
88.5982 186.00
88.6634 187.00
88.7286 190.00
88.7938 171.00
88.859 171.00
88.9242 175.00
88.9894 177.00
89.0546 176.00
89.1198 198.00
89.185 172.00
89.2502 165.00
89.3154 196.00
89.3806 185.00
89.4458 181.00
89.511 162.00
89.5762 188.00
89.6414 196.00
89.7066 186.00
89.7718 184.00
89.837 208.00
89.9022 164.00
89.9674 194.00
90.0326 165.00
90.0978 166.00
90.163 179.00
90.2282 195.00
90.2934 171.00
90.3586 172.00
90.4238 189.00
90.489 187.00
90.5542 185.00
90.6193 185.00
90.6845 191.00
90.7497 169.00
90.8149 181.00
90.8801 196.00
90.9453 181.00
91.0105 191.00
91.0757 168.00
91.1409 181.00
91.2061 179.00
91.2713 177.00
91.3365 228.00
91.4017 179.00
91.4669 172.00
91.5321 172.00
91.5973 196.00
91.6625 187.00
91.7277 187.00
91.7929 178.00
91.8581 178.00
91.9233 197.00
91.9885 186.00
92.0537 181.00
92.1189 164.00
92.1841 172.00
92.2493 179.00
92.3145 192.00
92.3797 195.00
92.4449 211.00
92.5101 188.00
92.5753 192.00
92.6405 174.00
92.7057 175.00
92.7709 200.00
92.8361 182.00
92.9013 174.00
92.9665 174.00
93.0317 167.00
93.0969 186.00
93.1621 182.00
93.2273 164.00
93.2925 185.00
93.3577 197.00
93.4229 159.00
93.4881 189.00
93.5533 151.00
93.6185 169.00
93.6837 153.00
93.7489 189.00
93.8141 171.00
93.8793 164.00
93.9445 168.00
94.0097 175.00
94.0749 166.00
94.1401 172.00
94.2053 188.00
94.2705 177.00
94.3357 162.00
94.4009 184.00
94.4661 177.00
94.5313 192.00
94.5965 169.00
94.6617 198.00
94.7269 163.00
94.7921 169.00
94.8573 181.00
94.9225 189.00
94.9877 168.00
95.0529 173.00
95.1181 155.00
95.1833 176.00
95.2485 189.00
95.3137 173.00
95.3789 173.00
95.444 195.00
95.5092 178.00
95.5744 194.00
95.6396 176.00
95.7048 178.00
95.77 186.00
95.8352 180.00
95.9004 207.00
95.9656 190.00
96.0308 162.00
96.096 172.00
96.1612 186.00
96.2264 214.00
96.2916 168.00
96.3568 156.00
96.422 181.00
96.4872 178.00
96.5524 173.00
96.6176 172.00
96.6828 147.00
96.748 183.00
96.8132 179.00
96.8784 188.00
96.9436 193.00
97.0088 175.00
97.074 194.00
97.1392 169.00
97.2044 177.00
97.2696 189.00
97.3348 164.00
97.4 194.00
97.4652 211.00
97.5304 165.00
97.5956 166.00
97.6608 193.00
97.726 162.00
97.7912 191.00
97.8564 190.00
97.9216 186.00
97.9868 181.00
98.052 169.00
98.1172 195.00
98.1824 178.00
98.2476 165.00
98.3128 165.00
98.378 180.00
98.4432 173.00
98.5084 160.00
98.5736 183.00
98.6388 165.00
98.704 161.00
98.7692 168.00
98.8344 155.00
98.8996 186.00
98.9648 193.00
99.03 193.00
99.0952 185.00
99.1604 174.00
99.2256 167.00
99.2908 170.00
99.356 158.00
99.4212 147.00
99.4864 155.00
99.5516 164.00
99.6168 165.00
99.682 184.00
99.7472 169.00
99.8124 193.00
99.8776 169.00
99.9428 180.00
100.008 156.00
100.073 158.00
100.095 191.00