File: data/xrd_creation/results/Na_105.xy
9.903433 2590.00
9.968632 2564.00
10.0338 2493.00
10.099 2481.00
10.1642 2462.00
10.2294 2521.00
10.2946 2390.00
10.3598 2427.00
10.425 2377.00
10.4902 2443.00
10.5554 2347.00
10.6206 2310.00
10.6858 2295.00
10.751 2205.00
10.8162 2314.00
10.8814 2239.00
10.9466 2240.00
11.0118 2226.00
11.077 2212.00
11.1422 2165.00
11.2074 2142.00
11.2726 2104.00
11.3378 2011.00
11.403 2091.00
11.4682 2038.00
11.5334 2030.00
11.5986 2056.00
11.6638 1961.00
11.729 2006.00
11.7942 1929.00
11.8594 2074.00
11.9246 1914.00
11.9898 1910.00
12.055 1903.00
12.1202 1949.00
12.1854 1838.00
12.2506 1900.00
12.3158 1802.00
12.381 1833.00
12.4462 1783.00
12.5114 1896.00
12.5766 1676.00
12.6418 1791.00
12.707 1786.00
12.7722 1727.00
12.8374 1684.00
12.9026 1686.00
12.9678 1582.00
13.033 1616.00
13.0982 1624.00
13.1634 1613.00
13.2286 1668.00
13.2938 1640.00
13.359 1640.00
13.4242 1528.00
13.4894 1599.00
13.5546 1504.00
13.6198 1516.00
13.685 1570.00
13.7502 1605.00
13.8154 1553.00
13.8805 1472.00
13.9457 1469.00
14.0109 1468.00
14.0761 1427.00
14.1413 1475.00
14.2065 1461.00
14.2717 1506.00
14.3369 1422.00
14.4021 1478.00
14.4673 1487.00
14.5325 1388.00
14.5977 1404.00
14.6629 1404.00
14.7281 1400.00
14.7933 1416.00
14.8585 1478.00
14.9237 1561.00
14.9889 1519.00
15.0541 1563.00
15.1193 1527.00
15.1845 1430.00
15.2497 1353.00
15.3149 1343.00
15.3801 1371.00
15.4453 1355.00
15.5105 1299.00
15.5757 1348.00
15.6409 1334.00
15.7061 1368.00
15.7713 1296.00
15.8365 1334.00
15.9017 1473.00
15.9669 1485.00
16.0321 1736.00
16.0973 1572.00
16.1625 1332.00
16.2277 1301.00
16.2929 1334.00
16.3581 1260.00
16.4233 1278.00
16.4885 1261.00
16.5537 1205.00
16.6189 1212.00
16.6841 1181.00
16.7493 1237.00
16.8145 1261.00
16.8797 1240.00
16.9449 1209.00
17.0101 1238.00
17.0753 1143.00
17.1405 1207.00
17.2057 1156.00
17.2709 1162.00
17.3361 1138.00
17.4013 1160.00
17.4665 1149.00
17.5317 1202.00
17.5969 1088.00
17.6621 1064.00
17.7273 1108.00
17.7925 1088.00
17.8577 1129.00
17.9229 1113.00
17.9881 1112.00
18.0533 1079.00
18.1185 1156.00
18.1837 1128.00
18.2489 1151.00
18.3141 1138.00
18.3793 1133.00
18.4445 1021.00
18.5097 1073.00
18.5749 1146.00
18.6401 1109.00
18.7052 1233.00
18.7704 1197.00
18.8356 1162.00
18.9008 1035.00
18.966 1073.00
19.0312 1038.00
19.0964 1066.00
19.1616 953.00
19.2268 986.00
19.292 1017.00
19.3572 1011.00
19.4224 983.00
19.4876 974.00
19.5528 974.00
19.618 1039.00
19.6832 969.00
19.7484 924.00
19.8136 983.00
19.8788 974.00
19.944 970.00
20.0092 1013.00
20.0744 913.00
20.1396 934.00
20.2048 1000.00
20.27 962.00
20.3352 1059.00
20.4004 1021.00
20.4656 1031.00
20.5308 1001.00
20.596 980.00
20.6612 969.00
20.7264 931.00
20.7916 887.00
20.8568 938.00
20.922 892.00
20.9872 876.00
21.0524 843.00
21.1176 879.00
21.1828 855.00
21.248 919.00
21.3132 901.00
21.3784 893.00
21.4436 962.00
21.5088 957.00
21.574 945.00
21.6392 867.00
21.7044 844.00
21.7696 890.00
21.8348 882.00
21.9 838.00
21.9652 862.00
22.0304 882.00
22.0956 839.00
22.1608 865.00
22.226 929.00
22.2912 979.00
22.3564 942.00
22.4216 954.00
22.4868 954.00
22.552 874.00
22.6172 886.00
22.6824 889.00
22.7476 871.00
22.8128 856.00
22.878 829.00
22.9432 888.00
23.0084 871.00
23.0736 981.00
23.1388 961.00
23.204 869.00
23.2692 897.00
23.3344 878.00
23.3996 834.00
23.4647 779.00
23.5299 810.00
23.5951 780.00
23.6603 781.00
23.7255 757.00
23.7907 739.00
23.8559 798.00
23.9211 733.00
23.9863 738.00
24.0515 748.00
24.1167 748.00
24.1819 734.00
24.2471 716.00
24.3123 696.00
24.3775 762.00
24.4427 733.00
24.5079 772.00
24.5731 779.00
24.6383 833.00
24.7035 799.00
24.7687 807.00
24.8339 808.00
24.8991 719.00
24.9643 725.00
25.0295 748.00
25.0947 788.00
25.1599 807.00
25.2251 746.00
25.2903 832.00
25.3555 787.00
25.4207 704.00
25.4859 739.00
25.5511 668.00
25.6163 684.00
25.6815 684.00
25.7467 648.00
25.8119 661.00
25.8771 714.00
25.9423 725.00
26.0075 735.00
26.0727 711.00
26.1379 775.00
26.2031 761.00
26.2683 797.00
26.3335 905.00
26.3987 1087.00
26.4639 1483.00
26.5291 1666.00
26.5943 1492.00
26.6595 1219.00
26.7247 937.00
26.7899 794.00
26.8551 749.00
26.9203 690.00
26.9855 688.00
27.0507 672.00
27.1159 657.00
27.1811 676.00
27.2463 690.00
27.3115 634.00
27.3767 671.00
27.4419 678.00
27.5071 715.00
27.5723 765.00
27.6375 789.00
27.7027 871.00
27.7679 790.00
27.8331 720.00
27.8983 709.00
27.9635 693.00
28.0287 683.00
28.0939 711.00
28.1591 676.00
28.2243 705.00
28.2894 689.00
28.3546 670.00
28.4198 646.00
28.485 643.00
28.5502 611.00
28.6154 600.00
28.6806 677.00
28.7458 623.00
28.811 603.00
28.8762 688.00
28.9414 687.00
29.0066 732.00
29.0718 810.00
29.137 866.00
29.2022 890.00
29.2674 839.00
29.3326 746.00
29.3978 708.00
29.463 648.00
29.5282 625.00
29.5934 607.00
29.6586 608.00
29.7238 566.00
29.789 556.00
29.8542 579.00
29.9194 583.00
29.9846 569.00
30.0498 534.00
30.115 537.00
30.1802 528.00
30.2454 549.00
30.3106 599.00
30.3758 532.00
30.441 547.00
30.5062 500.00
30.5714 531.00
30.6366 553.00
30.7018 507.00
30.767 545.00
30.8322 506.00
30.8974 547.00
30.9626 517.00
31.0278 554.00
31.093 571.00
31.1582 595.00
31.2234 593.00
31.2886 588.00
31.3538 578.00
31.419 567.00
31.4842 566.00
31.5494 536.00
31.6146 609.00
31.6798 545.00
31.745 537.00
31.8102 599.00
31.8754 477.00
31.9406 512.00
32.0058 500.00
32.071 512.00
32.1362 478.00
32.2014 479.00
32.2666 480.00
32.3318 495.00
32.397 541.00
32.4622 485.00
32.5274 487.00
32.5926 516.00
32.6578 534.00
32.723 462.00
32.7882 458.00
32.8534 483.00
32.9186 464.00
32.9838 486.00
33.0489 510.00
33.1141 507.00
33.1793 528.00
33.2445 521.00
33.3097 548.00
33.3749 520.00
33.4401 600.00
33.5053 562.00
33.5705 615.00
33.6357 760.00
33.7009 901.00
33.7661 1236.00
33.8313 1363.00
33.8965 1197.00
33.9617 1021.00
34.0269 841.00
34.0921 691.00
34.1573 610.00
34.2225 538.00
34.2877 513.00
34.3529 477.00
34.4181 520.00
34.4833 478.00
34.5485 480.00
34.6137 514.00
34.6789 519.00
34.7441 450.00
34.8093 488.00
34.8745 428.00
34.9397 461.00
35.0049 419.00
35.0701 415.00
35.1353 479.00
35.2005 516.00
35.2657 487.00
35.3309 506.00
35.3961 513.00
35.4613 492.00
35.5265 520.00
35.5917 443.00
35.6569 468.00
35.7221 442.00
35.7873 464.00
35.8525 459.00
35.9177 417.00
35.9829 436.00
36.0481 444.00
36.1133 432.00
36.1785 408.00
36.2437 436.00
36.3089 438.00
36.3741 529.00
36.4393 489.00
36.5045 473.00
36.5697 488.00
36.6349 447.00
36.7001 395.00
36.7653 387.00
36.8305 419.00
36.8957 421.00
36.9609 443.00
37.0261 400.00
37.0913 415.00
37.1565 381.00
37.2217 386.00
37.2869 398.00
37.3521 430.00
37.4173 393.00
37.4825 439.00
37.5477 373.00
37.6129 373.00
37.6781 419.00
37.7433 452.00
37.8085 505.00
37.8736 521.00
37.9388 566.00
38.004 560.00
38.0692 472.00
38.1344 486.00
38.1996 439.00
38.2648 383.00
38.33 419.00
38.3952 446.00
38.4604 384.00
38.5256 379.00
38.5908 415.00
38.656 391.00
38.7212 381.00
38.7864 389.00
38.8516 408.00
38.9168 400.00
38.982 397.00
39.0472 409.00
39.1124 423.00
39.1776 355.00
39.2428 381.00
39.308 369.00
39.3732 390.00
39.4384 453.00
39.5036 435.00
39.5688 432.00
39.634 428.00
39.6992 427.00
39.7644 408.00
39.8296 347.00
39.8948 371.00
39.96 359.00
40.0252 359.00
40.0904 401.00
40.1556 339.00
40.2208 303.00
40.286 346.00
40.3512 329.00
40.4164 361.00
40.4816 381.00
40.5468 350.00
40.612 342.00
40.6772 374.00
40.7424 348.00
40.8076 344.00
40.8728 377.00
40.938 335.00
41.0032 330.00
41.0684 347.00
41.1336 354.00
41.1988 354.00
41.264 352.00
41.3292 327.00
41.3944 328.00
41.4596 352.00
41.5248 352.00
41.59 330.00
41.6552 338.00
41.7204 314.00
41.7856 334.00
41.8508 297.00
41.916 352.00
41.9812 326.00
42.0464 338.00
42.1116 320.00
42.1768 320.00
42.242 300.00
42.3072 302.00
42.3724 321.00
42.4376 310.00
42.5028 340.00
42.568 322.00
42.6332 331.00
42.6983 333.00
42.7635 356.00
42.8287 366.00
42.8939 351.00
42.9591 384.00
43.0243 371.00
43.0895 361.00
43.1547 345.00
43.2199 329.00
43.2851 318.00
43.3503 343.00
43.4155 366.00
43.4807 376.00
43.5459 390.00
43.6111 369.00
43.6763 375.00
43.7415 333.00
43.8067 374.00
43.8719 395.00
43.9371 358.00
44.0023 365.00
44.0675 356.00
44.1327 349.00
44.1979 338.00
44.2631 350.00
44.3283 347.00
44.3935 343.00
44.4587 363.00
44.5239 395.00
44.5891 334.00
44.6543 306.00
44.7195 346.00
44.7847 335.00
44.8499 282.00
44.9151 305.00
44.9803 284.00
45.0455 304.00
45.1107 318.00
45.1759 315.00
45.2411 297.00
45.3063 302.00
45.3715 303.00
45.4367 289.00
45.5019 320.00
45.5671 303.00
45.6323 283.00
45.6975 316.00
45.7627 286.00
45.8279 295.00
45.8931 291.00
45.9583 298.00
46.0235 291.00
46.0887 282.00
46.1539 281.00
46.2191 286.00
46.2843 272.00
46.3495 298.00
46.4147 265.00
46.4799 280.00
46.5451 301.00
46.6103 266.00
46.6755 310.00
46.7407 269.00
46.8059 309.00
46.8711 292.00
46.9363 301.00
47.0015 274.00
47.0667 322.00
47.1319 283.00
47.1971 284.00
47.2623 273.00
47.3275 305.00
47.3927 322.00
47.4579 296.00
47.523 294.00
47.5882 281.00
47.6534 296.00
47.7186 273.00
47.7838 261.00
47.849 241.00
47.9142 307.00
47.9794 298.00
48.0446 281.00
48.1098 270.00
48.175 312.00
48.2402 262.00
48.3054 298.00
48.3706 297.00
48.4358 304.00
48.501 300.00
48.5662 300.00
48.6314 356.00
48.6966 304.00
48.7618 322.00
48.827 304.00
48.8922 275.00
48.9574 279.00
49.0226 274.00
49.0878 325.00
49.153 303.00
49.2182 298.00
49.2834 248.00
49.3486 285.00
49.4138 246.00
49.479 258.00
49.5442 303.00
49.6094 288.00
49.6746 288.00
49.7398 250.00
49.805 262.00
49.8702 275.00
49.9354 278.00
50.0006 268.00
50.0658 258.00
50.131 261.00
50.1962 260.00
50.2614 287.00
50.3266 274.00
50.3918 274.00
50.457 234.00
50.5222 278.00
50.5874 266.00
50.6526 284.00
50.7178 285.00
50.783 281.00
50.8482 324.00
50.9134 302.00
50.9786 321.00
51.0438 290.00
51.109 297.00
51.1742 297.00
51.2394 307.00
51.3046 324.00
51.3698 293.00
51.435 322.00
51.5002 343.00
51.5654 436.00
51.6306 501.00
51.6958 632.00
51.761 721.00
51.8262 752.00
51.8914 550.00
51.9566 512.00
52.0218 411.00
52.087 331.00
52.1522 317.00
52.2174 295.00
52.2826 274.00
52.3477 263.00
52.4129 272.00
52.4781 278.00
52.5433 280.00
52.6085 282.00
52.6737 278.00
52.7389 265.00
52.8041 234.00
52.8693 293.00
52.9345 249.00
52.9997 282.00
53.0649 269.00
53.1301 262.00
53.1953 276.00
53.2605 269.00
53.3257 231.00
53.3909 235.00
53.4561 258.00
53.5213 235.00
53.5865 270.00
53.6517 272.00
53.7169 233.00
53.7821 282.00
53.8473 256.00
53.9125 268.00
53.9777 256.00
54.0429 293.00
54.1081 278.00
54.1733 260.00
54.2385 246.00
54.3037 269.00
54.3689 289.00
54.4341 269.00
54.4993 305.00
54.5645 250.00
54.6297 347.00
54.6949 309.00
54.7601 370.00
54.8253 334.00
54.8905 279.00
54.9557 292.00
55.0209 301.00
55.0861 228.00
55.1513 271.00
55.2165 286.00
55.2817 268.00
55.3469 283.00
55.4121 242.00
55.4773 268.00
55.5425 258.00
55.6077 250.00
55.6729 248.00
55.7381 231.00
55.8033 240.00
55.8685 273.00
55.9337 250.00
55.9989 269.00
56.0641 211.00
56.1293 236.00
56.1945 209.00
56.2597 248.00
56.3249 242.00
56.3901 265.00
56.4553 216.00
56.5205 259.00
56.5857 248.00
56.6509 271.00
56.7161 240.00
56.7813 257.00
56.8465 258.00
56.9117 205.00
56.9769 259.00
57.042 288.00
57.1073 236.00
57.1724 247.00
57.2376 258.00
57.3028 271.00
57.368 257.00
57.4332 277.00
57.4984 237.00
57.5636 265.00
57.6288 260.00
57.694 275.00
57.7592 310.00
57.8244 316.00
57.8896 300.00
57.9548 300.00
58.02 315.00
58.0852 265.00
58.1504 278.00
58.2156 269.00
58.2808 257.00
58.346 264.00
58.4112 222.00
58.4764 215.00
58.5416 198.00
58.6068 218.00
58.672 235.00
58.7372 231.00
58.8024 214.00
58.8676 237.00
58.9328 221.00
58.998 188.00
59.0632 211.00
59.1284 235.00
59.1936 227.00
59.2588 196.00
59.324 209.00
59.3892 228.00
59.4544 203.00
59.5196 215.00
59.5848 212.00
59.65 190.00
59.7152 221.00
59.7804 211.00
59.8456 201.00
59.9108 197.00
59.976 224.00
60.0412 210.00
60.1064 201.00
60.1716 204.00
60.2368 216.00
60.302 231.00
60.3672 248.00
60.4324 228.00
60.4976 244.00
60.5628 234.00
60.628 191.00
60.6932 215.00
60.7584 239.00
60.8236 260.00
60.8888 231.00
60.954 217.00
61.0192 225.00
61.0844 267.00
61.1496 230.00
61.2148 250.00
61.28 214.00
61.3452 261.00
61.4104 196.00
61.4756 224.00
61.5408 212.00
61.606 212.00
61.6712 238.00
61.7364 236.00
61.8016 274.00
61.8667 281.00
61.932 282.00
61.9971 266.00
62.0623 283.00
62.1275 242.00
62.1927 258.00
62.2579 219.00
62.3231 233.00
62.3883 241.00
62.4535 224.00
62.5187 233.00
62.5839 217.00
62.6491 241.00
62.7143 208.00
62.7795 225.00
62.8447 202.00
62.9099 220.00
62.9751 217.00
63.0403 184.00
63.1055 203.00
63.1707 224.00
63.2359 219.00
63.3011 228.00
63.3663 209.00
63.4315 250.00
63.4967 235.00
63.5619 235.00
63.6271 210.00
63.6923 205.00
63.7575 228.00
63.8227 204.00
63.8879 218.00
63.9531 222.00
64.0183 214.00
64.0835 212.00
64.1487 234.00
64.2139 203.00
64.2791 221.00
64.3443 231.00
64.4095 248.00
64.4747 223.00
64.5399 217.00
64.6051 283.00
64.6703 307.00
64.7355 299.00
64.8007 290.00
64.8659 274.00
64.9311 268.00
64.9963 244.00
65.0615 247.00
65.1267 196.00
65.1919 230.00
65.2571 198.00
65.3223 215.00
65.3875 194.00
65.4527 248.00
65.5179 211.00
65.5831 229.00
65.6483 243.00
65.7135 220.00
65.7787 219.00
65.8439 264.00
65.9091 271.00
65.9743 299.00
66.0395 302.00
66.1047 257.00
66.1699 250.00
66.2351 260.00
66.3003 217.00
66.3655 229.00
66.4307 204.00
66.4959 212.00
66.561 203.00
66.6263 199.00
66.6915 198.00
66.7566 179.00
66.8218 194.00
66.887 217.00
66.9522 221.00
67.0174 213.00
67.0826 209.00
67.1478 222.00
67.213 232.00
67.2782 233.00
67.3434 199.00
67.4086 194.00
67.4738 187.00
67.539 220.00
67.6042 201.00
67.6694 215.00
67.7346 194.00
67.7998 197.00
67.865 209.00
67.9302 199.00
67.9954 205.00
68.0606 226.00
68.1258 194.00
68.191 185.00
68.2562 198.00
68.3214 198.00
68.3866 206.00
68.4518 191.00
68.517 187.00
68.5822 168.00
68.6474 168.00
68.7126 176.00
68.7778 192.00
68.843 216.00
68.9082 199.00
68.9734 199.00
69.0386 204.00
69.1038 209.00
69.169 208.00
69.2342 183.00
69.2994 203.00
69.3646 198.00
69.4298 203.00
69.495 199.00
69.5602 214.00
69.6254 202.00
69.6906 213.00
69.7558 190.00
69.821 175.00
69.8862 213.00
69.9514 206.00
70.0166 191.00
70.0818 185.00
70.147 207.00
70.2122 182.00
70.2774 215.00
70.3426 203.00
70.4078 216.00
70.473 171.00
70.5382 200.00
70.6034 192.00
70.6686 184.00
70.7338 217.00
70.799 199.00
70.8642 201.00
70.9294 214.00
70.9946 201.00
71.0598 185.00
71.125 230.00
71.1902 242.00
71.2554 236.00
71.3205 236.00
71.3858 246.00
71.451 237.00
71.5162 216.00
71.5813 230.00
71.6465 192.00
71.7117 191.00
71.7769 179.00
71.8421 203.00
71.9073 197.00
71.9725 217.00
72.0377 195.00
72.1029 192.00
72.1681 217.00
72.2333 202.00
72.2985 206.00
72.3637 207.00
72.4289 224.00
72.4941 188.00
72.5593 217.00
72.6245 219.00
72.6897 202.00
72.7549 229.00
72.8201 223.00
72.8853 193.00
72.9505 209.00
73.0157 235.00
73.0809 194.00
73.1461 221.00
73.2113 177.00
73.2765 220.00
73.3417 217.00
73.4069 190.00
73.4721 199.00
73.5373 208.00
73.6025 178.00
73.6677 170.00
73.7329 214.00
73.7981 216.00
73.8633 218.00
73.9285 214.00
73.9937 201.00
74.0589 213.00
74.1241 208.00
74.1893 185.00
74.2545 243.00
74.3197 233.00
74.3849 196.00
74.4501 225.00
74.5153 214.00
74.5805 218.00
74.6457 184.00
74.7109 203.00
74.7761 200.00
74.8413 228.00
74.9065 201.00
74.9717 187.00
75.0369 208.00
75.1021 230.00
75.1673 197.00
75.2325 184.00
75.2977 235.00
75.3629 223.00
75.4281 169.00
75.4933 186.00
75.5585 199.00
75.6237 214.00
75.6889 198.00
75.7541 202.00
75.8193 226.00
75.8845 210.00
75.9497 216.00
76.0149 223.00
76.0801 207.00
76.1452 193.00
76.2104 209.00
76.2756 207.00
76.3409 195.00
76.406 197.00
76.4712 199.00
76.5364 201.00
76.6016 195.00
76.6668 219.00
76.732 198.00
76.7972 218.00
76.8624 194.00
76.9276 212.00
76.9928 227.00
77.058 190.00
77.1232 201.00
77.1884 200.00
77.2536 223.00
77.3188 239.00
77.384 189.00
77.4492 210.00
77.5144 218.00
77.5796 233.00
77.6448 180.00
77.71 222.00
77.7752 201.00
77.8404 260.00
77.9056 209.00
77.9708 194.00
78.036 222.00
78.1012 226.00
78.1664 210.00
78.2316 232.00
78.2968 217.00
78.362 221.00
78.4272 216.00
78.4924 222.00
78.5576 229.00
78.6228 277.00
78.688 299.00
78.7532 243.00
78.8184 287.00
78.8836 247.00
78.9488 279.00
79.014 289.00
79.0792 259.00
79.1444 203.00
79.2096 222.00
79.2748 262.00
79.34 231.00
79.4052 197.00
79.4704 225.00
79.5356 222.00
79.6008 219.00
79.666 193.00
79.7312 232.00
79.7964 218.00
79.8616 239.00
79.9268 268.00
79.992 224.00
80.0572 239.00
80.1224 236.00
80.1876 204.00
80.2528 224.00
80.318 202.00
80.3832 238.00
80.4484 221.00
80.5136 217.00
80.5788 243.00
80.644 232.00
80.7092 242.00
80.7744 217.00
80.8396 233.00
80.9048 230.00
80.9699 216.00
81.0351 232.00
81.1003 257.00
81.1655 263.00
81.2307 231.00
81.2959 279.00
81.3611 242.00
81.4263 233.00
81.4915 225.00
81.5567 224.00
81.6219 256.00
81.6871 256.00
81.7523 224.00
81.8175 212.00
81.8827 246.00
81.9479 247.00
82.0131 227.00
82.0783 238.00
82.1435 238.00
82.2087 228.00
82.2739 263.00
82.3391 237.00
82.4043 266.00
82.4695 225.00
82.5347 239.00
82.5999 220.00
82.6651 242.00
82.7303 248.00
82.7955 224.00
82.8607 216.00
82.9259 216.00
82.9911 233.00
83.0563 210.00
83.1215 221.00
83.1867 237.00
83.2519 228.00
83.3171 226.00
83.3823 210.00
83.4475 234.00
83.5127 223.00
83.5779 247.00
83.6431 220.00
83.7083 263.00
83.7735 283.00
83.8387 223.00
83.9039 244.00
83.9691 241.00
84.0343 237.00
84.0995 256.00
84.1647 218.00
84.2299 214.00
84.2951 200.00
84.3603 232.00
84.4255 212.00
84.4907 235.00
84.5559 220.00
84.6211 176.00
84.6863 202.00
84.7515 209.00
84.8167 195.00
84.8819 211.00
84.9471 225.00
85.0123 231.00
85.0775 198.00
85.1427 215.00
85.2079 213.00
85.2731 221.00
85.3383 234.00
85.4035 202.00
85.4687 224.00
85.5339 209.00
85.5991 216.00
85.6643 231.00
85.7295 222.00
85.7946 222.00
85.8598 188.00
85.925 215.00
85.9903 221.00
86.0554 191.00
86.1206 207.00
86.1858 186.00
86.251 189.00
86.3162 222.00
86.3814 182.00
86.4466 222.00
86.5118 230.00
86.577 181.00
86.6422 210.00
86.7074 216.00
86.7726 222.00
86.8378 223.00
86.903 210.00
86.9682 213.00
87.0334 188.00
87.0986 198.00
87.1638 227.00
87.229 210.00
87.2942 220.00
87.3594 198.00
87.4246 208.00
87.4898 195.00
87.555 195.00
87.6202 243.00
87.6854 191.00
87.7506 222.00
87.8158 206.00
87.881 183.00
87.9462 176.00
88.0114 224.00
88.0766 197.00
88.1418 175.00
88.207 214.00
88.2722 209.00
88.3374 199.00
88.4026 205.00
88.4678 221.00
88.533 204.00
88.5982 212.00
88.6634 228.00
88.7286 193.00
88.7938 195.00
88.859 177.00
88.9242 210.00
88.9894 172.00
89.0546 196.00
89.1198 203.00
89.185 219.00
89.2502 178.00
89.3154 193.00
89.3806 220.00
89.4458 231.00
89.511 207.00
89.5762 185.00
89.6414 256.00
89.7066 231.00
89.7718 243.00
89.837 249.00
89.9022 229.00
89.9674 220.00
90.0326 207.00
90.0978 228.00
90.163 223.00
90.2282 212.00
90.2934 205.00
90.3586 211.00
90.4238 189.00
90.489 201.00
90.5542 204.00
90.6193 180.00
90.6845 182.00
90.7497 227.00
90.8149 236.00
90.8801 219.00
90.9453 197.00
91.0105 227.00
91.0757 236.00
91.1409 220.00
91.2061 239.00
91.2713 212.00
91.3365 214.00
91.4017 236.00
91.4669 184.00
91.5321 191.00
91.5973 164.00
91.6625 178.00
91.7277 203.00
91.7929 202.00
91.8581 190.00
91.9233 186.00
91.9885 171.00
92.0537 197.00
92.1189 199.00
92.1841 196.00
92.2493 207.00
92.3145 160.00
92.3797 176.00
92.4449 216.00
92.5101 200.00
92.5753 199.00
92.6405 219.00
92.7057 184.00
92.7709 188.00
92.8361 193.00
92.9013 189.00
92.9665 169.00
93.0317 191.00
93.0969 197.00
93.1621 213.00
93.2273 179.00
93.2925 207.00
93.3577 231.00
93.4229 202.00
93.4881 225.00
93.5533 200.00
93.6185 195.00
93.6837 168.00
93.7489 203.00
93.8141 174.00
93.8793 170.00
93.9445 221.00
94.0097 174.00
94.0749 176.00
94.1401 162.00
94.2053 173.00
94.2705 200.00
94.3357 199.00
94.4009 178.00
94.4661 193.00
94.5313 196.00
94.5965 169.00
94.6617 200.00
94.7269 193.00
94.7921 189.00
94.8573 181.00
94.9225 193.00
94.9877 176.00
95.0529 214.00
95.1181 206.00
95.1833 185.00
95.2485 203.00
95.3137 183.00
95.3789 207.00
95.444 214.00
95.5092 187.00
95.5744 202.00
95.6396 184.00
95.7048 214.00
95.77 183.00
95.8352 237.00
95.9004 203.00
95.9656 216.00
96.0308 188.00
96.096 188.00
96.1612 203.00
96.2264 158.00
96.2916 223.00
96.3568 197.00
96.422 196.00
96.4872 185.00
96.5524 214.00
96.6176 176.00
96.6828 196.00
96.748 216.00
96.8132 161.00
96.8784 195.00
96.9436 163.00
97.0088 225.00
97.074 211.00
97.1392 171.00
97.2044 160.00
97.2696 192.00
97.3348 208.00
97.4 158.00
97.4652 178.00
97.5304 177.00
97.5956 185.00
97.6608 200.00
97.726 174.00
97.7912 175.00
97.8564 197.00
97.9216 180.00
97.9868 181.00
98.052 191.00
98.1172 174.00
98.1824 181.00
98.2476 198.00
98.3128 203.00
98.378 202.00
98.4432 199.00
98.5084 201.00
98.5736 210.00
98.6388 212.00
98.704 197.00
98.7692 168.00
98.8344 184.00
98.8996 221.00
98.9648 183.00
99.03 156.00
99.0952 169.00
99.1604 204.00
99.2256 195.00
99.2908 200.00
99.356 166.00
99.4212 206.00
99.4864 189.00
99.5516 198.00
99.6168 171.00
99.682 185.00
99.7472 191.00
99.8124 193.00
99.8776 202.00
99.9428 201.00
100.008 212.00
100.073 184.00
100.095 187.00