File: data/xrd_creation/results/Na_189.xy
9.903433 2799.00
9.968632 2809.00
10.0338 2750.00
10.099 2791.00
10.1642 2798.00
10.2294 2718.00
10.2946 2739.00
10.3598 2663.00
10.425 2613.00
10.4902 2609.00
10.5554 2542.00
10.6206 2669.00
10.6858 2692.00
10.751 2535.00
10.8162 2496.00
10.8814 2512.00
10.9466 2517.00
11.0118 2546.00
11.077 2540.00
11.1422 2698.00
11.2074 2854.00
11.2726 2898.00
11.3378 3250.00
11.403 3664.00
11.4682 4134.00
11.5334 4971.00
11.5986 6151.00
11.6638 8130.00
11.729 10476.00
11.7942 8137.00
11.8594 6896.00
11.9246 4771.00
11.9898 3087.00
12.055 3123.00
12.1202 3190.00
12.1854 3191.00
12.2506 2526.00
12.3158 2225.00
12.381 2275.00
12.4462 2270.00
12.5114 2266.00
12.5766 2328.00
12.6418 2283.00
12.707 2119.00
12.7722 2144.00
12.8374 2156.00
12.9026 2160.00
12.9678 2114.00
13.033 2099.00
13.0982 2006.00
13.1634 2117.00
13.2286 2026.00
13.2938 1998.00
13.359 2037.00
13.4242 2084.00
13.4894 2028.00
13.5546 1988.00
13.6198 1986.00
13.685 2022.00
13.7502 2044.00
13.8154 1901.00
13.8805 2001.00
13.9457 2019.00
14.0109 2058.00
14.0761 1970.00
14.1413 1971.00
14.2065 1813.00
14.2717 1921.00
14.3369 1880.00
14.4021 1927.00
14.4673 1890.00
14.5325 1883.00
14.5977 1955.00
14.6629 2009.00
14.7281 1980.00
14.7933 2070.00
14.8585 2128.00
14.9237 2330.00
14.9889 2096.00
15.0541 1940.00
15.1193 1868.00
15.1845 1822.00
15.2497 1834.00
15.3149 1839.00
15.3801 1740.00
15.4453 1830.00
15.5105 1725.00
15.5757 1803.00
15.6409 1832.00
15.7061 1799.00
15.7713 1900.00
15.8365 1877.00
15.9017 1803.00
15.9669 1830.00
16.0321 1849.00
16.0973 1949.00
16.1625 2177.00
16.2277 2337.00
16.2929 2502.00
16.3581 2835.00
16.4233 3485.00
16.4885 4440.00
16.5537 6184.00
16.6189 5339.00
16.6841 2606.00
16.7493 2029.00
16.8145 1789.00
16.8797 1831.00
16.9449 1821.00
17.0101 1780.00
17.0753 1701.00
17.1405 1766.00
17.2057 1710.00
17.2709 1770.00
17.3361 1740.00
17.4013 1650.00
17.4665 1666.00
17.5317 1735.00
17.5969 1683.00
17.6621 1731.00
17.7273 1855.00
17.7925 1940.00
17.8577 2108.00
17.9229 2248.00
17.9881 2599.00
18.0533 3087.00
18.1185 3192.00
18.1837 2882.00
18.2489 2170.00
18.3141 1820.00
18.3793 1707.00
18.4445 1701.00
18.5097 1695.00
18.5749 1655.00
18.6401 1668.00
18.7052 1614.00
18.7704 1659.00
18.8356 1496.00
18.9008 1652.00
18.966 1581.00
19.0312 1525.00
19.0964 1563.00
19.1616 1583.00
19.2268 1610.00
19.292 1639.00
19.3572 1624.00
19.4224 1637.00
19.4876 1737.00
19.5528 1719.00
19.618 2057.00
19.6832 2098.00
19.7484 1906.00
19.8136 1844.00
19.8788 1675.00
19.944 1687.00
20.0092 1753.00
20.0744 1632.00
20.1396 1435.00
20.2048 1528.00
20.27 1603.00
20.3352 1466.00
20.4004 1498.00
20.4656 1422.00
20.5308 1427.00
20.596 1566.00
20.6612 1544.00
20.7264 1586.00
20.7916 1631.00
20.8568 1699.00
20.922 1721.00
20.9872 1862.00
21.0524 1819.00
21.1176 1683.00
21.1828 1564.00
21.248 1558.00
21.3132 1491.00
21.3784 1486.00
21.4436 1467.00
21.5088 1458.00
21.574 1526.00
21.6392 1507.00
21.7044 1425.00
21.7696 1382.00
21.8348 1380.00
21.9 1423.00
21.9652 1467.00
22.0304 1435.00
22.0956 1407.00
22.1608 1413.00
22.226 1458.00
22.2912 1361.00
22.3564 1472.00
22.4216 1446.00
22.4868 1382.00
22.552 1386.00
22.6172 1417.00
22.6824 1419.00
22.7476 1396.00
22.8128 1409.00
22.878 1586.00
22.9432 1683.00
23.0084 2030.00
23.0736 2191.00
23.1388 2168.00
23.204 2062.00
23.2692 1808.00
23.3344 1500.00
23.3996 1651.00
23.4647 1579.00
23.5299 1673.00
23.5951 1567.00
23.6603 1439.00
23.7255 1394.00
23.7907 1399.00
23.8559 1435.00
23.9211 1382.00
23.9863 1423.00
24.0515 1557.00
24.1167 1661.00
24.1819 1687.00
24.2471 1890.00
24.3123 1931.00
24.3775 2150.00
24.4427 2531.00
24.5079 2673.00
24.5731 2399.00
24.6383 2518.00
24.7035 2794.00
24.7687 2289.00
24.8339 1878.00
24.8991 1591.00
24.9643 1601.00
25.0295 1529.00
25.0947 1449.00
25.1599 1468.00
25.2251 1379.00
25.2903 1374.00
25.3555 1375.00
25.4207 1494.00
25.4859 1525.00
25.5511 1580.00
25.6163 1651.00
25.6815 1561.00
25.7467 1638.00
25.8119 1858.00
25.8771 2400.00
25.9423 3288.00
26.0075 4976.00
26.0727 6128.00
26.1379 5917.00
26.2031 6622.00
26.2683 6827.00
26.3335 3966.00
26.3987 2173.00
26.4639 1691.00
26.5291 1529.00
26.5943 1500.00
26.6595 1781.00
26.7247 1914.00
26.7899 2469.00
26.8551 3122.00
26.9203 3317.00
26.9855 2577.00
27.0507 1825.00
27.1159 1611.00
27.1811 1682.00
27.2463 1656.00
27.3115 1924.00
27.3767 2177.00
27.4419 2394.00
27.5071 3017.00
27.5723 4506.00
27.6375 6493.00
27.7027 7282.00
27.7679 6017.00
27.8331 4782.00
27.8983 4077.00
27.9635 3097.00
28.0287 2237.00
28.0939 1730.00
28.1591 1661.00
28.2243 1558.00
28.2894 1574.00
28.3546 1739.00
28.4198 1898.00
28.485 1948.00
28.5502 2001.00
28.6154 2158.00
28.6806 2110.00
28.7458 1922.00
28.811 1620.00
28.8762 1451.00
28.9414 1353.00
29.0066 1369.00
29.0718 1335.00
29.137 1281.00
29.2022 1231.00
29.2674 1250.00
29.3326 1204.00
29.3978 1229.00
29.463 1265.00
29.5282 1281.00
29.5934 1322.00
29.6586 1285.00
29.7238 1253.00
29.789 1366.00
29.8542 1473.00
29.9194 1990.00
29.9846 2218.00
30.0498 2397.00
30.115 2196.00
30.1802 2253.00
30.2454 2408.00
30.3106 2215.00
30.3758 2085.00
30.441 1771.00
30.5062 1491.00
30.5714 1392.00
30.6366 1343.00
30.7018 1425.00
30.767 1357.00
30.8322 1285.00
30.8974 1255.00
30.9626 1340.00
31.0278 1455.00
31.093 1572.00
31.1582 1908.00
31.2234 2148.00
31.2886 2654.00
31.3538 2916.00
31.419 2835.00
31.4842 2582.00
31.5494 2568.00
31.6146 2939.00
31.6798 2809.00
31.745 2536.00
31.8102 2276.00
31.8754 2394.00
31.9406 2581.00
32.0058 2555.00
32.071 2173.00
32.1362 1729.00
32.2014 1467.00
32.2666 1365.00
32.3318 1267.00
32.397 1245.00
32.4622 1283.00
32.5274 1285.00
32.5926 1320.00
32.6578 1236.00
32.723 1310.00
32.7882 1288.00
32.8534 1528.00
32.9186 1859.00
32.9838 2602.00
33.0489 4292.00
33.1141 7302.00
33.1793 8435.00
33.2445 5846.00
33.3097 3063.00
33.3749 1836.00
33.4401 1546.00
33.5053 1364.00
33.5705 1401.00
33.6357 1374.00
33.7009 1356.00
33.7661 1459.00
33.8313 1452.00
33.8965 1722.00
33.9617 2177.00
34.0269 2911.00
34.0921 4141.00
34.1573 6258.00
34.2225 7776.00
34.2877 10359.00
34.3529 11094.00
34.4181 8826.00
34.4833 5898.00
34.5485 3838.00
34.6137 3380.00
34.6789 3523.00
34.7441 3787.00
34.8093 3276.00
34.8745 2762.00
34.9397 2167.00
35.0049 1741.00
35.0701 1437.00
35.1353 1296.00
35.2005 1238.00
35.2657 1116.00
35.3309 1248.00
35.3961 1348.00
35.4613 1183.00
35.5265 1213.00
35.5917 1139.00
35.6569 1182.00
35.7221 1208.00
35.7873 1272.00
35.8525 1289.00
35.9177 1247.00
35.9829 1252.00
36.0481 1153.00
36.1133 1173.00
36.1785 1330.00
36.2437 1475.00
36.3089 1497.00
36.3741 1519.00
36.4393 1521.00
36.5045 1364.00
36.5697 1259.00
36.6349 1210.00
36.7001 1266.00
36.7653 1250.00
36.8305 1122.00
36.8957 1191.00
36.9609 1300.00
37.0261 1183.00
37.0913 1144.00
37.1565 1169.00
37.2217 1204.00
37.2869 1373.00
37.3521 1417.00
37.4173 1270.00
37.4825 1201.00
37.5477 1124.00
37.6129 1173.00
37.6781 1234.00
37.7433 1253.00
37.8085 1192.00
37.8736 1238.00
37.9388 1164.00
38.004 1176.00
38.0692 1191.00
38.1344 1234.00
38.1996 1356.00
38.2648 1476.00
38.33 1231.00
38.3952 1165.00
38.4604 1093.00
38.5256 1037.00
38.5908 1040.00
38.656 971.00
38.7212 979.00
38.7864 1051.00
38.8516 1028.00
38.9168 1035.00
38.982 1119.00
39.0472 1226.00
39.1124 1287.00
39.1776 1329.00
39.2428 1195.00
39.308 1175.00
39.3732 1029.00
39.4384 1055.00
39.5036 1149.00
39.5688 1043.00
39.634 1123.00
39.6992 1103.00
39.7644 1039.00
39.8296 1037.00
39.8948 999.00
39.96 1052.00
40.0252 1062.00
40.0904 1071.00
40.1556 1124.00
40.2208 1135.00
40.286 1063.00
40.3512 1033.00
40.4164 1065.00
40.4816 998.00
40.5468 1028.00
40.612 991.00
40.6772 968.00
40.7424 955.00
40.8076 955.00
40.8728 1013.00
40.938 1063.00
41.0032 1132.00
41.0684 1255.00
41.1336 1236.00
41.1988 1199.00
41.264 1226.00
41.3292 1209.00
41.3944 1297.00
41.4596 1326.00
41.5248 1369.00
41.59 1386.00
41.6552 1581.00
41.7204 1753.00
41.7856 1656.00
41.8508 1584.00
41.916 1534.00
41.9812 1597.00
42.0464 1897.00
42.1116 1799.00
42.1768 1650.00
42.242 1411.00
42.3072 1356.00
42.3724 1442.00
42.4376 1591.00
42.5028 1585.00
42.568 1606.00
42.6332 1688.00
42.6983 1549.00
42.7635 1426.00
42.8287 1151.00
42.8939 1044.00
42.9591 1025.00
43.0243 1014.00
43.0895 1024.00
43.1547 1024.00
43.2199 1034.00
43.2851 1124.00
43.3503 1276.00
43.4155 1356.00
43.4807 1419.00
43.5459 1313.00
43.6111 1159.00
43.6763 1114.00
43.7415 1055.00
43.8067 1128.00
43.8719 1255.00
43.9371 1155.00
44.0023 1154.00
44.0675 1004.00
44.1327 950.00
44.1979 1001.00
44.2631 937.00
44.3283 987.00
44.3935 925.00
44.4587 969.00
44.5239 985.00
44.5891 995.00
44.6543 996.00
44.7195 1003.00
44.7847 972.00
44.8499 1005.00
44.9151 1054.00
44.9803 1212.00
45.0455 1279.00
45.1107 1518.00
45.1759 1502.00
45.2411 1536.00
45.3063 1298.00
45.3715 1176.00
45.4367 1083.00
45.5019 1028.00
45.5671 1051.00
45.6323 991.00
45.6975 1074.00
45.7627 1023.00
45.8279 902.00
45.8931 989.00
45.9583 1076.00
46.0235 1151.00
46.0887 1123.00
46.1539 1186.00
46.2191 1230.00
46.2843 1180.00
46.3495 1138.00
46.4147 1143.00
46.4799 1085.00
46.5451 1064.00
46.6103 1066.00
46.6755 1194.00
46.7407 1296.00
46.8059 1472.00
46.8711 1442.00
46.9363 1394.00
47.0015 1540.00
47.0667 1713.00
47.1319 1742.00
47.1971 1652.00
47.2623 1630.00
47.3275 1692.00
47.3927 1722.00
47.4579 1662.00
47.523 1674.00
47.5882 1702.00
47.6534 2276.00
47.7186 2996.00
47.7838 2921.00
47.849 2323.00
47.9142 1831.00
47.9794 1382.00
48.0446 1206.00
48.1098 1122.00
48.175 1103.00
48.2402 1044.00
48.3054 1039.00
48.3706 1056.00
48.4358 1127.00
48.501 1086.00
48.5662 1200.00
48.6314 1187.00
48.6966 1243.00
48.7618 1132.00
48.827 1077.00
48.8922 1099.00
48.9574 1048.00
49.0226 1110.00
49.0878 1233.00
49.153 1414.00
49.2182 1620.00
49.2834 1697.00
49.3486 1552.00
49.4138 1492.00
49.479 1343.00
49.5442 1371.00
49.6094 1757.00
49.6746 1845.00
49.7398 1997.00
49.805 2162.00
49.8702 2028.00
49.9354 2056.00
50.0006 1872.00
50.0658 1806.00
50.131 1623.00
50.1962 1693.00
50.2614 1768.00
50.3266 1723.00
50.3918 1679.00
50.457 1742.00
50.5222 1645.00
50.5874 1571.00
50.6526 1467.00
50.7178 1407.00
50.783 1377.00
50.8482 1315.00
50.9134 1313.00
50.9786 1418.00
51.0438 1636.00
51.109 2043.00
51.1742 2123.00
51.2394 2168.00
51.3046 1956.00
51.3698 1728.00
51.435 1378.00
51.5002 1303.00
51.5654 1129.00
51.6306 1076.00
51.6958 1066.00
51.761 1092.00
51.8262 1210.00
51.8914 1299.00
51.9566 1620.00
52.0218 2051.00
52.087 1990.00
52.1522 1905.00
52.2174 1637.00
52.2826 1432.00
52.3477 1306.00
52.4129 1227.00
52.4781 1227.00
52.5433 1226.00
52.6085 1273.00
52.6737 1204.00
52.7389 1161.00
52.8041 1119.00
52.8693 1069.00
52.9345 1082.00
52.9997 1144.00
53.0649 1231.00
53.1301 1282.00
53.1953 1256.00
53.2605 1249.00
53.3257 1246.00
53.3909 1108.00
53.4561 1142.00
53.5213 1066.00
53.5865 1075.00
53.6517 1175.00
53.7169 1040.00
53.7821 1136.00
53.8473 1197.00
53.9125 1204.00
53.9777 1200.00
54.0429 1224.00
54.1081 1187.00
54.1733 1150.00
54.2385 1174.00
54.3037 1085.00
54.3689 1158.00
54.4341 1160.00
54.4993 1076.00
54.5645 1055.00
54.6297 1037.00
54.6949 1098.00
54.7601 1157.00
54.8253 1145.00
54.8905 1039.00
54.9557 1189.00
55.0209 1207.00
55.0861 1188.00
55.1513 1130.00
55.2165 1117.00
55.2817 1160.00
55.3469 1167.00
55.4121 1184.00
55.4773 1276.00
55.5425 1326.00
55.6077 1368.00
55.6729 1372.00
55.7381 1386.00
55.8033 1272.00
55.8685 1222.00
55.9337 1072.00
55.9989 1104.00
56.0641 1208.00
56.1293 1263.00
56.1945 1266.00
56.2597 1297.00
56.3249 1229.00
56.3901 1172.00
56.4553 1151.00
56.5205 1247.00
56.5857 1190.00
56.6509 1265.00
56.7161 1260.00
56.7813 1315.00
56.8465 1479.00
56.9117 1451.00
56.9769 1315.00
57.042 1371.00
57.1073 1290.00
57.1724 1337.00
57.2376 1342.00
57.3028 1313.00
57.368 1254.00
57.4332 1169.00
57.4984 1153.00
57.5636 1151.00
57.6288 1177.00
57.694 1145.00
57.7592 1186.00
57.8244 1206.00
57.8896 1352.00
57.9548 1517.00
58.02 1564.00
58.0852 1677.00
58.1504 1668.00
58.2156 1655.00
58.2808 1658.00
58.346 1650.00
58.4112 1768.00
58.4764 1802.00
58.5416 1687.00
58.6068 1678.00
58.672 1475.00
58.7372 1375.00
58.8024 1232.00
58.8676 1203.00
58.9328 1259.00
58.998 1241.00
59.0632 1333.00
59.1284 1244.00
59.1936 1284.00
59.2588 1401.00
59.324 1566.00
59.3892 1546.00
59.4544 1727.00
59.5196 1844.00
59.5848 2162.00
59.65 2479.00
59.7152 2402.00
59.7804 2226.00
59.8456 2030.00
59.9108 1695.00
59.976 1499.00
60.0412 1446.00
60.1064 1541.00
60.1716 1767.00
60.2368 1778.00
60.302 1787.00
60.3672 1663.00
60.4324 1501.00
60.4976 1357.00
60.5628 1257.00
60.628 1271.00
60.6932 1238.00
60.7584 1293.00
60.8236 1355.00
60.8888 1273.00
60.954 1218.00
61.0192 1110.00
61.0844 1075.00
61.1496 1091.00
61.2148 1046.00
61.28 1069.00
61.3452 1039.00
61.4104 952.00
61.4756 977.00
61.5408 988.00
61.606 984.00
61.6712 1020.00
61.7364 1153.00
61.8016 1228.00
61.8667 1456.00
61.932 1607.00
61.9971 1628.00
62.0623 1604.00
62.1275 1609.00
62.1927 1419.00
62.2579 1402.00
62.3231 1400.00
62.3883 1358.00
62.4535 1329.00
62.5187 1324.00
62.5839 1286.00
62.6491 1220.00
62.7143 1159.00
62.7795 1053.00
62.8447 1074.00
62.9099 1111.00
62.9751 1082.00
63.0403 1000.00
63.1055 1026.00
63.1707 1019.00
63.2359 1089.00
63.3011 998.00
63.3663 1069.00
63.4315 1002.00
63.4967 971.00
63.5619 977.00
63.6271 912.00
63.6923 946.00
63.7575 922.00
63.8227 886.00
63.8879 983.00
63.9531 1027.00
64.0183 1062.00
64.0835 1060.00
64.1487 1074.00
64.2139 1012.00
64.2791 1053.00
64.3443 1062.00
64.4095 1164.00
64.4747 1065.00
64.5399 1137.00
64.6051 1051.00
64.6703 1043.00
64.7355 1068.00
64.8007 1011.00
64.8659 1071.00
64.9311 1056.00
64.9963 1217.00
65.0615 1162.00
65.1267 1092.00
65.1919 1013.00
65.2571 973.00
65.3223 953.00
65.3875 939.00
65.4527 906.00
65.5179 895.00
65.5831 900.00
65.6483 964.00
65.7135 1137.00
65.7787 1104.00
65.8439 1124.00
65.9091 1172.00
65.9743 1248.00
66.0395 1250.00
66.1047 1383.00
66.1699 1381.00
66.2351 1304.00
66.3003 1367.00
66.3655 1382.00
66.4307 1243.00
66.4959 1149.00
66.561 1097.00
66.6263 1061.00
66.6915 1042.00
66.7566 1052.00
66.8218 963.00
66.887 1067.00
66.9522 982.00
67.0174 1016.00
67.0826 957.00
67.1478 931.00
67.213 912.00
67.2782 896.00
67.3434 886.00
67.4086 859.00
67.4738 948.00
67.539 1046.00
67.6042 963.00
67.6694 944.00
67.7346 967.00
67.7998 898.00
67.865 1029.00
67.9302 912.00
67.9954 963.00
68.0606 1045.00
68.1258 1108.00
68.191 1027.00
68.2562 1005.00
68.3214 1005.00
68.3866 982.00
68.4518 956.00
68.517 928.00
68.5822 924.00
68.6474 906.00
68.7126 932.00
68.7778 878.00
68.843 874.00
68.9082 849.00
68.9734 884.00
69.0386 934.00
69.1038 983.00
69.169 1042.00
69.2342 963.00
69.2994 909.00
69.3646 941.00
69.4298 884.00
69.495 895.00
69.5602 881.00
69.6254 830.00
69.6906 880.00
69.7558 853.00
69.821 830.00
69.8862 759.00
69.9514 805.00
70.0166 785.00
70.0818 804.00
70.147 782.00
70.2122 820.00
70.2774 796.00
70.3426 795.00
70.4078 697.00
70.473 758.00
70.5382 685.00
70.6034 738.00
70.6686 734.00
70.7338 728.00
70.799 723.00
70.8642 796.00
70.9294 855.00
70.9946 763.00
71.0598 823.00
71.125 806.00
71.1902 821.00
71.2554 837.00
71.3205 824.00
71.3858 899.00
71.451 896.00
71.5162 975.00
71.5813 951.00
71.6465 992.00
71.7117 1087.00
71.7769 1115.00
71.8421 1233.00
71.9073 1235.00
71.9725 1191.00
72.0377 1160.00
72.1029 1089.00
72.1681 1036.00
72.2333 889.00
72.2985 894.00
72.3637 811.00
72.4289 822.00
72.4941 782.00
72.5593 774.00
72.6245 793.00
72.6897 790.00
72.7549 829.00
72.8201 898.00
72.8853 1004.00
72.9505 1026.00
73.0157 970.00
73.0809 997.00
73.1461 921.00
73.2113 941.00
73.2765 956.00
73.3417 858.00
73.4069 830.00
73.4721 824.00
73.5373 800.00
73.6025 740.00
73.6677 756.00
73.7329 779.00
73.7981 794.00
73.8633 751.00
73.9285 820.00
73.9937 792.00
74.0589 807.00
74.1241 823.00
74.1893 792.00
74.2545 820.00
74.3197 776.00
74.3849 821.00
74.4501 845.00
74.5153 788.00
74.5805 799.00
74.6457 778.00
74.7109 847.00
74.7761 775.00
74.8413 826.00
74.9065 808.00
74.9717 827.00
75.0369 812.00
75.1021 786.00
75.1673 748.00
75.2325 820.00
75.2977 788.00
75.3629 776.00
75.4281 862.00
75.4933 820.00
75.5585 863.00
75.6237 872.00
75.6889 903.00
75.7541 912.00
75.8193 956.00
75.8845 923.00
75.9497 918.00
76.0149 839.00
76.0801 838.00
76.1452 784.00
76.2104 852.00
76.2756 843.00
76.3409 838.00
76.406 860.00
76.4712 812.00
76.5364 879.00
76.6016 838.00
76.6668 790.00
76.732 836.00
76.7972 853.00
76.8624 853.00
76.9276 855.00
76.9928 841.00
77.058 855.00
77.1232 873.00
77.1884 937.00
77.2536 851.00
77.3188 913.00
77.384 898.00
77.4492 837.00
77.5144 926.00
77.5796 843.00
77.6448 873.00
77.71 841.00
77.7752 876.00
77.8404 791.00
77.9056 791.00
77.9708 738.00
78.036 751.00
78.1012 801.00
78.1664 818.00
78.2316 855.00
78.2968 744.00
78.362 770.00
78.4272 767.00
78.4924 709.00
78.5576 789.00
78.6228 764.00
78.688 809.00
78.7532 889.00
78.8184 890.00
78.8836 939.00
78.9488 976.00
79.014 1013.00
79.0792 1018.00
79.1444 1052.00
79.2096 982.00
79.2748 900.00
79.34 902.00
79.4052 928.00
79.4704 930.00
79.5356 881.00
79.6008 931.00
79.666 904.00
79.7312 825.00
79.7964 887.00
79.8616 834.00
79.9268 810.00
79.992 842.00
80.0572 936.00
80.1224 944.00
80.1876 910.00
80.2528 900.00
80.318 1010.00
80.3832 888.00
80.4484 929.00
80.5136 910.00
80.5788 879.00
80.644 965.00
80.7092 860.00
80.7744 825.00
80.8396 841.00
80.9048 890.00
80.9699 859.00
81.0351 841.00
81.1003 803.00
81.1655 765.00
81.2307 839.00
81.2959 806.00
81.3611 817.00
81.4263 863.00
81.4915 916.00
81.5567 862.00
81.6219 936.00
81.6871 939.00
81.7523 924.00
81.8175 843.00
81.8827 816.00
81.9479 876.00
82.0131 842.00
82.0783 855.00
82.1435 870.00
82.2087 827.00
82.2739 819.00
82.3391 862.00
82.4043 770.00
82.4695 750.00
82.5347 786.00
82.5999 763.00
82.6651 763.00
82.7303 823.00
82.7955 819.00
82.8607 811.00
82.9259 803.00
82.9911 781.00
83.0563 780.00
83.1215 841.00
83.1867 769.00
83.2519 824.00
83.3171 823.00
83.3823 729.00
83.4475 775.00
83.5127 761.00
83.5779 763.00
83.6431 817.00
83.7083 831.00
83.7735 732.00
83.8387 809.00
83.9039 869.00
83.9691 858.00
84.0343 828.00
84.0995 815.00
84.1647 822.00
84.2299 841.00
84.2951 803.00
84.3603 772.00
84.4255 859.00
84.4907 827.00
84.5559 800.00
84.6211 825.00
84.6863 902.00
84.7515 930.00
84.8167 1014.00
84.8819 982.00
84.9471 986.00
85.0123 1130.00
85.0775 1036.00
85.1427 1021.00
85.2079 1003.00
85.2731 988.00
85.3383 949.00
85.4035 965.00
85.4687 1029.00
85.5339 944.00
85.5991 903.00
85.6643 939.00
85.7295 855.00
85.7946 808.00
85.8598 850.00
85.925 903.00
85.9903 886.00
86.0554 816.00
86.1206 853.00
86.1858 853.00
86.251 850.00
86.3162 781.00
86.3814 811.00
86.4466 781.00
86.5118 812.00
86.577 856.00
86.6422 836.00
86.7074 763.00
86.7726 835.00
86.8378 757.00
86.903 813.00
86.9682 812.00
87.0334 849.00
87.0986 799.00
87.1638 785.00
87.229 807.00
87.2942 850.00
87.3594 767.00
87.4246 818.00
87.4898 734.00
87.555 761.00
87.6202 768.00
87.6854 778.00
87.7506 740.00
87.8158 775.00
87.881 725.00
87.9462 833.00
88.0114 805.00
88.0766 777.00
88.1418 763.00
88.207 819.00
88.2722 802.00
88.3374 776.00
88.4026 872.00
88.4678 863.00
88.533 859.00
88.5982 873.00
88.6634 846.00
88.7286 877.00
88.7938 829.00
88.859 824.00
88.9242 721.00
88.9894 823.00
89.0546 814.00
89.1198 760.00
89.185 833.00
89.2502 779.00
89.3154 823.00
89.3806 797.00
89.4458 876.00
89.511 875.00
89.5762 884.00
89.6414 943.00
89.7066 914.00
89.7718 1024.00
89.837 929.00
89.9022 918.00
89.9674 986.00
90.0326 971.00
90.0978 973.00
90.163 992.00
90.2282 909.00
90.2934 917.00
90.3586 928.00
90.4238 928.00
90.489 892.00
90.5542 894.00
90.6193 910.00
90.6845 920.00
90.7497 952.00
90.8149 887.00
90.8801 919.00
90.9453 916.00
91.0105 920.00
91.0757 894.00
91.1409 930.00
91.2061 938.00
91.2713 929.00
91.3365 906.00
91.4017 827.00
91.4669 877.00
91.5321 876.00
91.5973 848.00
91.6625 806.00
91.7277 838.00
91.7929 815.00
91.8581 834.00
91.9233 814.00
91.9885 845.00
92.0537 825.00
92.1189 785.00
92.1841 780.00
92.2493 751.00
92.3145 791.00
92.3797 792.00
92.4449 761.00
92.5101 833.00
92.5753 780.00
92.6405 845.00
92.7057 828.00
92.7709 756.00
92.8361 789.00
92.9013 748.00
92.9665 787.00
93.0317 793.00
93.0969 824.00
93.1621 723.00
93.2273 778.00
93.2925 693.00
93.3577 719.00
93.4229 811.00
93.4881 743.00
93.5533 734.00
93.6185 717.00
93.6837 779.00
93.7489 738.00
93.8141 764.00
93.8793 703.00
93.9445 721.00
94.0097 702.00
94.0749 705.00
94.1401 744.00
94.2053 682.00
94.2705 756.00
94.3357 730.00
94.4009 726.00
94.4661 784.00
94.5313 751.00
94.5965 770.00
94.6617 782.00
94.7269 796.00
94.7921 786.00
94.8573 829.00
94.9225 749.00
94.9877 736.00
95.0529 720.00
95.1181 763.00
95.1833 742.00
95.2485 755.00
95.3137 760.00
95.3789 778.00
95.444 801.00
95.5092 802.00
95.5744 784.00
95.6396 749.00
95.7048 801.00
95.77 806.00
95.8352 795.00
95.9004 821.00
95.9656 832.00
96.0308 861.00
96.096 854.00
96.1612 862.00
96.2264 870.00
96.2916 846.00
96.3568 842.00
96.422 824.00
96.4872 926.00
96.5524 878.00
96.6176 872.00
96.6828 813.00
96.748 854.00
96.8132 859.00
96.8784 805.00
96.9436 837.00
97.0088 869.00
97.074 839.00
97.1392 857.00
97.2044 871.00
97.2696 865.00
97.3348 928.00
97.4 867.00
97.4652 872.00
97.5304 884.00
97.5956 956.00
97.6608 886.00
97.726 908.00
97.7912 892.00
97.8564 927.00
97.9216 866.00
97.9868 882.00
98.052 833.00
98.1172 819.00
98.1824 807.00
98.2476 802.00
98.3128 830.00
98.378 816.00
98.4432 786.00
98.5084 855.00
98.5736 785.00
98.6388 776.00
98.704 782.00
98.7692 804.00
98.8344 802.00
98.8996 771.00
98.9648 820.00
99.03 766.00
99.0952 834.00
99.1604 810.00
99.2256 800.00
99.2908 856.00
99.356 862.00
99.4212 901.00
99.4864 869.00
99.5516 882.00
99.6168 870.00
99.682 870.00
99.7472 912.00
99.8124 975.00
99.8776 974.00
99.9428 905.00
100.008 924.00
100.073 938.00
100.095 863.00