File: data/xrd_creation/results/Na_18.xy
9.903433 3033.00
9.968632 2987.00
10.0338 2865.00
10.099 2877.00
10.1642 2950.00
10.2294 2862.00
10.2946 2884.00
10.3598 2872.00
10.425 2748.00
10.4902 2643.00
10.5554 2758.00
10.6206 2779.00
10.6858 2804.00
10.751 2724.00
10.8162 2703.00
10.8814 2797.00
10.9466 2583.00
11.0118 2561.00
11.077 2521.00
11.1422 2673.00
11.2074 2615.00
11.2726 2524.00
11.3378 2563.00
11.403 2515.00
11.4682 2511.00
11.5334 2545.00
11.5986 2584.00
11.6638 2365.00
11.729 2505.00
11.7942 2348.00
11.8594 2436.00
11.9246 2349.00
11.9898 2341.00
12.055 2443.00
12.1202 2351.00
12.1854 2313.00
12.2506 2344.00
12.3158 2397.00
12.381 2252.00
12.4462 2289.00
12.5114 2318.00
12.5766 2306.00
12.6418 2241.00
12.707 2257.00
12.7722 2266.00
12.8374 2232.00
12.9026 2126.00
12.9678 2207.00
13.033 2209.00
13.0982 2077.00
13.1634 2161.00
13.2286 2111.00
13.2938 2149.00
13.359 2151.00
13.4242 2105.00
13.4894 2038.00
13.5546 2120.00
13.6198 2049.00
13.685 2053.00
13.7502 2103.00
13.8154 2083.00
13.8805 1989.00
13.9457 2071.00
14.0109 2076.00
14.0761 2019.00
14.1413 2074.00
14.2065 1996.00
14.2717 1966.00
14.3369 1887.00
14.4021 1892.00
14.4673 2008.00
14.5325 2042.00
14.5977 2013.00
14.6629 1906.00
14.7281 1912.00
14.7933 2074.00
14.8585 1923.00
14.9237 1819.00
14.9889 1876.00
15.0541 1978.00
15.1193 1886.00
15.1845 1822.00
15.2497 1855.00
15.3149 1815.00
15.3801 1829.00
15.4453 1852.00
15.5105 1830.00
15.5757 1890.00
15.6409 1915.00
15.7061 1818.00
15.7713 1845.00
15.8365 1775.00
15.9017 1890.00
15.9669 1903.00
16.0321 1798.00
16.0973 1795.00
16.1625 1858.00
16.2277 1842.00
16.2929 1800.00
16.3581 1699.00
16.4233 1797.00
16.4885 1769.00
16.5537 1802.00
16.6189 1718.00
16.6841 1769.00
16.7493 1780.00
16.8145 1763.00
16.8797 1777.00
16.9449 1755.00
17.0101 1782.00
17.0753 1786.00
17.1405 1761.00
17.2057 1727.00
17.2709 1677.00
17.3361 1672.00
17.4013 1702.00
17.4665 1650.00
17.5317 1746.00
17.5969 1751.00
17.6621 1688.00
17.7273 1641.00
17.7925 1655.00
17.8577 1630.00
17.9229 1615.00
17.9881 1780.00
18.0533 1689.00
18.1185 1688.00
18.1837 1585.00
18.2489 1658.00
18.3141 1524.00
18.3793 1622.00
18.4445 1665.00
18.5097 1642.00
18.5749 1627.00
18.6401 1539.00
18.7052 1630.00
18.7704 1555.00
18.8356 1580.00
18.9008 1633.00
18.966 1627.00
19.0312 1595.00
19.0964 1567.00
19.1616 1640.00
19.2268 1501.00
19.292 1527.00
19.3572 1635.00
19.4224 1622.00
19.4876 1615.00
19.5528 1580.00
19.618 1644.00
19.6832 1551.00
19.7484 1597.00
19.8136 1529.00
19.8788 1579.00
19.944 1733.00
20.0092 1616.00
20.0744 1611.00
20.1396 1563.00
20.2048 1500.00
20.27 1591.00
20.3352 1519.00
20.4004 1492.00
20.4656 1574.00
20.5308 1490.00
20.596 1525.00
20.6612 1510.00
20.7264 1632.00
20.7916 1554.00
20.8568 1607.00
20.922 1503.00
20.9872 1493.00
21.0524 1460.00
21.1176 1521.00
21.1828 1507.00
21.248 1537.00
21.3132 1429.00
21.3784 1467.00
21.4436 1551.00
21.5088 1534.00
21.574 1551.00
21.6392 1487.00
21.7044 1569.00
21.7696 1567.00
21.8348 1550.00
21.9 1540.00
21.9652 1514.00
22.0304 1553.00
22.0956 1570.00
22.1608 1634.00
22.226 1579.00
22.2912 1553.00
22.3564 1590.00
22.4216 1559.00
22.4868 1624.00
22.552 1654.00
22.6172 1628.00
22.6824 1677.00
22.7476 1732.00
22.8128 1780.00
22.878 1809.00
22.9432 1891.00
23.0084 1898.00
23.0736 1933.00
23.1388 1915.00
23.204 1723.00
23.2692 1732.00
23.3344 1728.00
23.3996 1728.00
23.4647 1784.00
23.5299 1933.00
23.5951 1946.00
23.6603 2106.00
23.7255 2215.00
23.7907 2388.00
23.8559 2429.00
23.9211 2293.00
23.9863 2075.00
24.0515 2056.00
24.1167 2011.00
24.1819 1964.00
24.2471 2075.00
24.3123 2110.00
24.3775 2167.00
24.4427 2161.00
24.5079 2235.00
24.5731 2216.00
24.6383 2280.00
24.7035 2296.00
24.7687 2446.00
24.8339 2467.00
24.8991 2448.00
24.9643 2680.00
25.0295 2558.00
25.0947 2815.00
25.1599 2889.00
25.2251 2924.00
25.2903 3109.00
25.3555 3239.00
25.4207 3173.00
25.4859 3356.00
25.5511 3367.00
25.6163 3469.00
25.6815 3695.00
25.7467 3621.00
25.8119 3764.00
25.8771 3909.00
25.9423 3984.00
26.0075 4259.00
26.0727 4423.00
26.1379 4522.00
26.2031 4788.00
26.2683 4888.00
26.3335 4616.00
26.3987 4131.00
26.4639 3546.00
26.5291 3071.00
26.5943 2894.00
26.6595 2753.00
26.7247 2675.00
26.7899 2462.00
26.8551 2466.00
26.9203 2298.00
26.9855 2193.00
27.0507 2156.00
27.1159 2038.00
27.1811 2041.00
27.2463 2038.00
27.3115 1960.00
27.3767 2022.00
27.4419 2060.00
27.5071 2183.00
27.5723 2604.00
27.6375 2729.00
27.7027 2885.00
27.7679 3136.00
27.8331 3375.00
27.8983 3290.00
27.9635 2840.00
28.0287 2041.00
28.0939 1663.00
28.1591 1499.00
28.2243 1439.00
28.2894 1315.00
28.3546 1299.00
28.4198 1357.00
28.485 1270.00
28.5502 1256.00
28.6154 1279.00
28.6806 1266.00
28.7458 1264.00
28.811 1259.00
28.8762 1244.00
28.9414 1312.00
29.0066 1255.00
29.0718 1244.00
29.137 1308.00
29.2022 1355.00
29.2674 1364.00
29.3326 1453.00
29.3978 1430.00
29.463 1429.00
29.5282 1351.00
29.5934 1307.00
29.6586 1375.00
29.7238 1424.00
29.789 1462.00
29.8542 1624.00
29.9194 2116.00
29.9846 2921.00
30.0498 4205.00
30.115 5537.00
30.1802 6744.00
30.2454 8330.00
30.3106 9602.00
30.3758 10204.00
30.441 9142.00
30.5062 5975.00
30.5714 3379.00
30.6366 2338.00
30.7018 2086.00
30.767 1901.00
30.8322 1639.00
30.8974 1559.00
30.9626 1411.00
31.0278 1421.00
31.093 1335.00
31.1582 1380.00
31.2234 1323.00
31.2886 1339.00
31.3538 1324.00
31.419 1230.00
31.4842 1298.00
31.5494 1397.00
31.6146 1489.00
31.6798 1558.00
31.745 1799.00
31.8102 1892.00
31.8754 2027.00
31.9406 2004.00
32.0058 1917.00
32.071 1571.00
32.1362 1291.00
32.2014 1085.00
32.2666 1158.00
32.3318 1139.00
32.397 1090.00
32.4622 1007.00
32.5274 1132.00
32.5926 1150.00
32.6578 1159.00
32.723 1114.00
32.7882 1198.00
32.8534 1386.00
32.9186 1706.00
32.9838 1964.00
33.0489 2399.00
33.1141 2718.00
33.1793 3071.00
33.2445 3459.00
33.3097 3250.00
33.3749 2836.00
33.4401 2079.00
33.5053 1496.00
33.5705 1338.00
33.6357 1235.00
33.7009 1252.00
33.7661 1352.00
33.8313 1312.00
33.8965 1383.00
33.9617 1551.00
34.0269 1890.00
34.0921 2424.00
34.1573 2921.00
34.2225 3522.00
34.2877 4279.00
34.3529 5499.00
34.4181 6312.00
34.4833 6895.00
34.5485 6378.00
34.6137 5653.00
34.6789 5897.00
34.7441 5987.00
34.8093 5343.00
34.8745 4016.00
34.9397 3078.00
35.0049 2450.00
35.0701 2688.00
35.1353 3547.00
35.2005 4447.00
35.2657 5473.00
35.3309 6740.00
35.3961 7653.00
35.4613 8513.00
35.5265 8206.00
35.5917 5509.00
35.6569 3196.00
35.7221 1985.00
35.7873 1503.00
35.8525 1278.00
35.9177 1227.00
35.9829 1185.00
36.0481 1226.00
36.1133 1096.00
36.1785 1139.00
36.2437 1125.00
36.3089 1057.00
36.3741 1085.00
36.4393 1084.00
36.5045 1071.00
36.5697 1062.00
36.6349 1179.00
36.7001 1104.00
36.7653 1225.00
36.8305 1281.00
36.8957 1278.00
36.9609 1367.00
37.0261 1263.00
37.0913 1318.00
37.1565 1260.00
37.2217 1222.00
37.2869 1211.00
37.3521 1210.00
37.4173 1308.00
37.4825 1422.00
37.5477 1534.00
37.6129 1788.00
37.6781 2054.00
37.7433 2306.00
37.8085 3004.00
37.8736 4035.00
37.9388 5314.00
38.004 6697.00
38.0692 8144.00
38.1344 9726.00
38.1996 11101.00
38.2648 11024.00
38.33 9201.00
38.3952 6195.00
38.4604 3835.00
38.5256 2608.00
38.5908 2115.00
38.656 1938.00
38.7212 1723.00
38.7864 1845.00
38.8516 1697.00
38.9168 1504.00
38.982 1328.00
39.0472 1237.00
39.1124 1146.00
39.1776 1172.00
39.2428 1156.00
39.308 1153.00
39.3732 1209.00
39.4384 1166.00
39.5036 1209.00
39.5688 1266.00
39.634 1349.00
39.6992 1530.00
39.7644 1720.00
39.8296 2329.00
39.8948 3155.00
39.96 3883.00
40.0252 4523.00
40.0904 5068.00
40.1556 5506.00
40.2208 5705.00
40.286 4637.00
40.3512 3069.00
40.4164 2003.00
40.4816 1519.00
40.5468 1206.00
40.612 1155.00
40.6772 1094.00
40.7424 1141.00
40.8076 1130.00
40.8728 1222.00
40.938 1560.00
41.0032 1950.00
41.0684 2510.00
41.1336 2966.00
41.1988 3526.00
41.264 4303.00
41.3292 4989.00
41.3944 5589.00
41.4596 5307.00
41.5248 5273.00
41.59 5378.00
41.6552 5497.00
41.7204 5441.00
41.7856 4615.00
41.8508 3289.00
41.916 2209.00
41.9812 1501.00
42.0464 1356.00
42.1116 1293.00
42.1768 1219.00
42.242 1238.00
42.3072 1377.00
42.3724 1339.00
42.4376 1435.00
42.5028 1560.00
42.568 1695.00
42.6332 1747.00
42.6983 1746.00
42.7635 1702.00
42.8287 1578.00
42.8939 1636.00
42.9591 1584.00
43.0243 1440.00
43.0895 1422.00
43.1547 1314.00
43.2199 1316.00
43.2851 1326.00
43.3503 1219.00
43.4155 1284.00
43.4807 1227.00
43.5459 1212.00
43.6111 1187.00
43.6763 1178.00
43.7415 1117.00
43.8067 1159.00
43.8719 1103.00
43.9371 1148.00
44.0023 1148.00
44.0675 1186.00
44.1327 1229.00
44.1979 1222.00
44.2631 1173.00
44.3283 1355.00
44.3935 1480.00
44.4587 1665.00
44.5239 1805.00
44.5891 1978.00
44.6543 2214.00
44.7195 2232.00
44.7847 2149.00
44.8499 1876.00
44.9151 1548.00
44.9803 1304.00
45.0455 1099.00
45.1107 1134.00
45.1759 1113.00
45.2411 1066.00
45.3063 1215.00
45.3715 1205.00
45.4367 1276.00
45.5019 1360.00
45.5671 1336.00
45.6323 1535.00
45.6975 1383.00
45.7627 1362.00
45.8279 1110.00
45.8931 1047.00
45.9583 1085.00
46.0235 1019.00
46.0887 1047.00
46.1539 1076.00
46.2191 1186.00
46.2843 1437.00
46.3495 1832.00
46.4147 2309.00
46.4799 2875.00
46.5451 3299.00
46.6103 3484.00
46.6755 3608.00
46.7407 3716.00
46.8059 3350.00
46.8711 2623.00
46.9363 2067.00
47.0015 1609.00
47.0667 1418.00
47.1319 1510.00
47.1971 1486.00
47.2623 1582.00
47.3275 1463.00
47.3927 1251.00
47.4579 1106.00
47.523 1047.00
47.5882 988.00
47.6534 939.00
47.7186 901.00
47.7838 955.00
47.849 919.00
47.9142 988.00
47.9794 1118.00
48.0446 1297.00
48.1098 1592.00
48.175 2157.00
48.2402 2557.00
48.3054 3112.00
48.3706 3465.00
48.4358 3914.00
48.501 3953.00
48.5662 3305.00
48.6314 2504.00
48.6966 1872.00
48.7618 1310.00
48.827 1093.00
48.8922 952.00
48.9574 872.00
49.0226 861.00
49.0878 887.00
49.153 902.00
49.2182 906.00
49.2834 960.00
49.3486 1092.00
49.4138 1066.00
49.479 1028.00
49.5442 1000.00
49.6094 938.00
49.6746 884.00
49.7398 838.00
49.805 849.00
49.8702 806.00
49.9354 792.00
50.0006 815.00
50.0658 796.00
50.131 789.00
50.1962 817.00
50.2614 774.00
50.3266 730.00
50.3918 804.00
50.457 754.00
50.5222 753.00
50.5874 777.00
50.6526 841.00
50.7178 933.00
50.783 931.00
50.8482 1054.00
50.9134 1128.00
50.9786 1187.00
51.0438 1166.00
51.109 1181.00
51.1742 1001.00
51.2394 1037.00
51.3046 933.00
51.3698 908.00
51.435 815.00
51.5002 785.00
51.5654 735.00
51.6306 771.00
51.6958 747.00
51.761 783.00
51.8262 696.00
51.8914 740.00
51.9566 776.00
52.0218 685.00
52.087 756.00
52.1522 725.00
52.2174 753.00
52.2826 782.00
52.3477 716.00
52.4129 766.00
52.4781 846.00
52.5433 848.00
52.6085 860.00
52.6737 866.00
52.7389 895.00
52.8041 840.00
52.8693 900.00
52.9345 933.00
52.9997 830.00
53.0649 880.00
53.1301 869.00
53.1953 944.00
53.2605 972.00
53.3257 1155.00
53.3909 1333.00
53.4561 1544.00
53.5213 1829.00
53.5865 2015.00
53.6517 2143.00
53.7169 2302.00
53.7821 2221.00
53.8473 2192.00
53.9125 1823.00
53.9777 1423.00
54.0429 1222.00
54.1081 1042.00
54.1733 974.00
54.2385 922.00
54.3037 959.00
54.3689 1065.00
54.4341 1173.00
54.4993 1316.00
54.5645 1513.00
54.6297 1741.00
54.6949 1845.00
54.7601 1934.00
54.8253 1950.00
54.8905 1755.00
54.9557 1588.00
55.0209 1243.00
55.0861 1047.00
55.1513 899.00
55.2165 842.00
55.2817 841.00
55.3469 890.00
55.4121 978.00
55.4773 1022.00
55.5425 1125.00
55.6077 1134.00
55.6729 1056.00
55.7381 986.00
55.8033 913.00
55.8685 854.00
55.9337 805.00
55.9989 847.00
56.0641 869.00
56.1293 946.00
56.1945 1017.00
56.2597 1109.00
56.3249 1251.00
56.3901 1359.00
56.4553 1546.00
56.5205 1614.00
56.5857 1523.00
56.6509 1313.00
56.7161 1172.00
56.7813 1037.00
56.8465 977.00
56.9117 929.00
56.9769 917.00
57.042 962.00
57.1073 1105.00
57.1724 1173.00
57.2376 1156.00
57.3028 1158.00
57.368 1022.00
57.4332 942.00
57.4984 825.00
57.5636 724.00
57.6288 738.00
57.694 723.00
57.7592 714.00
57.8244 729.00
57.8896 715.00
57.9548 691.00
58.02 760.00
58.0852 750.00
58.1504 743.00
58.2156 834.00
58.2808 905.00
58.346 966.00
58.4112 1159.00
58.4764 1268.00
58.5416 1328.00
58.6068 1410.00
58.672 1438.00
58.7372 1506.00
58.8024 1324.00
58.8676 1219.00
58.9328 1319.00
58.998 1296.00
59.0632 1448.00
59.1284 1445.00
59.1936 1495.00
59.2588 1505.00
59.324 1267.00
59.3892 1124.00
59.4544 971.00
59.5196 778.00
59.5848 733.00
59.65 745.00
59.7152 788.00
59.7804 707.00
59.8456 674.00
59.9108 642.00
59.976 647.00
60.0412 615.00
60.1064 654.00
60.1716 636.00
60.2368 661.00
60.302 702.00
60.3672 739.00
60.4324 792.00
60.4976 890.00
60.5628 969.00
60.628 1004.00
60.6932 1196.00
60.7584 1232.00
60.8236 1156.00
60.8888 1094.00
60.954 1076.00
61.0192 941.00
61.0844 828.00
61.1496 739.00
61.2148 698.00
61.28 629.00
61.3452 585.00
61.4104 592.00
61.4756 522.00
61.5408 570.00
61.606 571.00
61.6712 601.00
61.7364 651.00
61.8016 742.00
61.8667 794.00
61.932 978.00
61.9971 1103.00
62.0623 1201.00
62.1275 1198.00
62.1927 1218.00
62.2579 1096.00
62.3231 1037.00
62.3883 944.00
62.4535 923.00
62.5187 1039.00
62.5839 1181.00
62.6491 1298.00
62.7143 1422.00
62.7795 1598.00
62.8447 1571.00
62.9099 1477.00
62.9751 1273.00
63.0403 1069.00
63.1055 955.00
63.1707 763.00
63.2359 722.00
63.3011 660.00
63.3663 625.00
63.4315 658.00
63.4967 660.00
63.5619 665.00
63.6271 654.00
63.6923 774.00
63.7575 887.00
63.8227 967.00
63.8879 1018.00
63.9531 1127.00
64.0183 1207.00
64.0835 1209.00
64.1487 1265.00
64.2139 934.00
64.2791 972.00
64.3443 798.00
64.4095 655.00
64.4747 662.00
64.5399 582.00
64.6051 587.00
64.6703 534.00
64.7355 584.00
64.8007 627.00
64.8659 558.00
64.9311 607.00
64.9963 578.00
65.0615 525.00
65.1267 525.00
65.1919 573.00
65.2571 484.00
65.3223 529.00
65.3875 481.00
65.4527 545.00
65.5179 557.00
65.5831 512.00
65.6483 532.00
65.7135 561.00
65.7787 599.00
65.8439 599.00
65.9091 612.00
65.9743 553.00
66.0395 563.00
66.1047 557.00
66.1699 623.00
66.2351 591.00
66.3003 521.00
66.3655 538.00
66.4307 509.00
66.4959 452.00
66.561 490.00
66.6263 502.00
66.6915 536.00
66.7566 461.00
66.8218 513.00
66.887 481.00
66.9522 445.00
67.0174 499.00
67.0826 489.00
67.1478 490.00
67.213 562.00
67.2782 629.00
67.3434 695.00
67.4086 783.00
67.4738 845.00
67.539 973.00
67.6042 1019.00
67.6694 914.00
67.7346 757.00
67.7998 714.00
67.865 667.00
67.9302 569.00
67.9954 515.00
68.0606 504.00
68.1258 511.00
68.191 518.00
68.2562 474.00
68.3214 505.00
68.3866 470.00
68.4518 489.00
68.517 463.00
68.5822 512.00
68.6474 468.00
68.7126 496.00
68.7778 481.00
68.843 484.00
68.9082 486.00
68.9734 492.00
69.0386 472.00
69.1038 463.00
69.169 471.00
69.2342 480.00
69.2994 497.00
69.3646 511.00
69.4298 565.00
69.495 504.00
69.5602 522.00
69.6254 577.00
69.6906 540.00
69.7558 552.00
69.821 530.00
69.8862 548.00
69.9514 563.00
70.0166 605.00
70.0818 585.00
70.147 611.00
70.2122 649.00
70.2774 591.00
70.3426 511.00
70.4078 539.00
70.473 505.00
70.5382 448.00
70.6034 437.00
70.6686 485.00
70.7338 453.00
70.799 413.00
70.8642 464.00
70.9294 407.00
70.9946 414.00
71.0598 437.00
71.125 424.00
71.1902 416.00
71.2554 423.00
71.3205 427.00
71.3858 409.00
71.451 454.00
71.5162 473.00
71.5813 456.00
71.6465 527.00
71.7117 560.00
71.7769 566.00
71.8421 609.00
71.9073 615.00
71.9725 673.00
72.0377 636.00
72.1029 645.00
72.1681 695.00
72.2333 728.00
72.2985 783.00
72.3637 757.00
72.4289 762.00
72.4941 822.00
72.5593 682.00
72.6245 627.00
72.6897 619.00
72.7549 561.00
72.8201 492.00
72.8853 521.00
72.9505 464.00
73.0157 441.00
73.0809 494.00
73.1461 567.00
73.2113 534.00
73.2765 593.00
73.3417 634.00
73.4069 634.00
73.4721 661.00
73.5373 710.00
73.6025 661.00
73.6677 600.00
73.7329 586.00
73.7981 573.00
73.8633 530.00
73.9285 484.00
73.9937 488.00
74.0589 467.00
74.1241 414.00
74.1893 423.00
74.2545 450.00
74.3197 547.00
74.3849 583.00
74.4501 658.00
74.5153 682.00
74.5805 825.00
74.6457 788.00
74.7109 982.00
74.7761 792.00
74.8413 684.00
74.9065 638.00
74.9717 603.00
75.0369 531.00
75.1021 514.00
75.1673 497.00
75.2325 507.00
75.2977 523.00
75.3629 534.00
75.4281 502.00
75.4933 591.00
75.5585 543.00
75.6237 494.00
75.6889 493.00
75.7541 498.00
75.8193 459.00
75.8845 475.00
75.9497 452.00
76.0149 544.00
76.0801 491.00
76.1452 528.00
76.2104 541.00
76.2756 571.00
76.3409 558.00
76.406 581.00
76.4712 505.00
76.5364 478.00
76.6016 515.00
76.6668 503.00
76.732 476.00
76.7972 458.00
76.8624 496.00
76.9276 457.00
76.9928 438.00
77.058 448.00
77.1232 497.00
77.1884 467.00
77.2536 448.00
77.3188 515.00
77.384 478.00
77.4492 490.00
77.5144 505.00
77.5796 517.00
77.6448 542.00
77.71 519.00
77.7752 526.00
77.8404 574.00
77.9056 584.00
77.9708 607.00
78.036 595.00
78.1012 570.00
78.1664 527.00
78.2316 520.00
78.2968 566.00
78.362 534.00
78.4272 519.00
78.4924 501.00
78.5576 531.00
78.6228 558.00
78.688 516.00
78.7532 518.00
78.8184 580.00
78.8836 514.00
78.9488 557.00
79.014 586.00
79.0792 567.00
79.1444 519.00
79.2096 625.00
79.2748 644.00
79.34 680.00
79.4052 682.00
79.4704 714.00
79.5356 729.00
79.6008 708.00
79.666 686.00
79.7312 692.00
79.7964 748.00
79.8616 735.00
79.9268 696.00
79.992 773.00
80.0572 773.00
80.1224 798.00
80.1876 859.00
80.2528 917.00
80.318 974.00
80.3832 1016.00
80.4484 1033.00
80.5136 1020.00
80.5788 1023.00
80.644 891.00
80.7092 796.00
80.7744 707.00
80.8396 635.00
80.9048 562.00
80.9699 520.00
81.0351 521.00
81.1003 471.00
81.1655 525.00
81.2307 506.00
81.2959 493.00
81.3611 577.00
81.4263 483.00
81.4915 511.00
81.5567 509.00
81.6219 552.00
81.6871 540.00
81.7523 507.00
81.8175 576.00
81.8827 474.00
81.9479 527.00
82.0131 504.00
82.0783 537.00
82.1435 510.00
82.2087 472.00
82.2739 486.00
82.3391 529.00
82.4043 523.00
82.4695 552.00
82.5347 539.00
82.5999 502.00
82.6651 543.00
82.7303 518.00
82.7955 527.00
82.8607 527.00
82.9259 530.00
82.9911 475.00
83.0563 504.00
83.1215 488.00
83.1867 515.00
83.2519 499.00
83.3171 531.00
83.3823 553.00
83.4475 567.00
83.5127 606.00
83.5779 574.00
83.6431 629.00
83.7083 594.00
83.7735 523.00
83.8387 507.00
83.9039 551.00
83.9691 583.00
84.0343 565.00
84.0995 595.00
84.1647 538.00
84.2299 624.00
84.2951 564.00
84.3603 597.00
84.4255 614.00
84.4907 546.00
84.5559 555.00
84.6211 559.00
84.6863 508.00
84.7515 539.00
84.8167 538.00
84.8819 501.00
84.9471 532.00
85.0123 499.00
85.0775 519.00
85.1427 516.00
85.2079 516.00
85.2731 530.00
85.3383 487.00
85.4035 497.00
85.4687 536.00
85.5339 491.00
85.5991 535.00
85.6643 551.00
85.7295 555.00
85.7946 569.00
85.8598 529.00
85.925 551.00
85.9903 521.00
86.0554 519.00
86.1206 480.00
86.1858 493.00
86.251 500.00
86.3162 496.00
86.3814 452.00
86.4466 437.00
86.5118 489.00
86.577 452.00
86.6422 456.00
86.7074 469.00
86.7726 447.00
86.8378 436.00
86.903 404.00
86.9682 464.00
87.0334 404.00
87.0986 450.00
87.1638 438.00
87.229 450.00
87.2942 452.00
87.3594 489.00
87.4246 486.00
87.4898 475.00
87.555 489.00
87.6202 541.00
87.6854 512.00
87.7506 489.00
87.8158 537.00
87.881 524.00
87.9462 512.00
88.0114 507.00
88.0766 519.00
88.1418 484.00
88.207 500.00
88.2722 418.00
88.3374 416.00
88.4026 461.00
88.4678 450.00
88.533 425.00
88.5982 439.00
88.6634 441.00
88.7286 421.00
88.7938 399.00
88.859 452.00
88.9242 419.00
88.9894 434.00
89.0546 435.00
89.1198 494.00
89.185 483.00
89.2502 476.00
89.3154 533.00
89.3806 502.00
89.4458 569.00
89.511 523.00
89.5762 549.00
89.6414 540.00
89.7066 534.00
89.7718 563.00
89.837 552.00
89.9022 561.00
89.9674 524.00
90.0326 537.00
90.0978 527.00
90.163 555.00
90.2282 569.00
90.2934 542.00
90.3586 582.00
90.4238 534.00
90.489 497.00
90.5542 524.00
90.6193 466.00
90.6845 512.00
90.7497 435.00
90.8149 448.00
90.8801 444.00
90.9453 471.00
91.0105 451.00
91.0757 450.00
91.1409 468.00
91.2061 470.00
91.2713 539.00
91.3365 565.00
91.4017 469.00
91.4669 517.00
91.5321 492.00
91.5973 467.00
91.6625 457.00
91.7277 436.00
91.7929 478.00
91.8581 447.00
91.9233 438.00
91.9885 446.00
92.0537 453.00
92.1189 482.00
92.1841 420.00
92.2493 398.00
92.3145 411.00
92.3797 388.00
92.4449 430.00
92.5101 445.00
92.5753 422.00
92.6405 411.00
92.7057 426.00
92.7709 441.00
92.8361 427.00
92.9013 406.00
92.9665 453.00
93.0317 419.00
93.0969 456.00
93.1621 523.00
93.2273 599.00
93.2925 611.00
93.3577 687.00
93.4229 731.00
93.4881 740.00
93.5533 677.00
93.6185 651.00
93.6837 658.00
93.7489 630.00
93.8141 614.00
93.8793 651.00
93.9445 591.00
94.0097 542.00
94.0749 535.00
94.1401 520.00
94.2053 500.00
94.2705 460.00
94.3357 489.00
94.4009 442.00
94.4661 449.00
94.5313 425.00
94.5965 401.00
94.6617 436.00
94.7269 402.00
94.7921 430.00
94.8573 415.00
94.9225 418.00
94.9877 421.00
95.0529 431.00
95.1181 425.00
95.1833 416.00
95.2485 448.00
95.3137 408.00
95.3789 476.00
95.444 458.00
95.5092 447.00
95.5744 501.00
95.6396 498.00
95.7048 455.00
95.77 444.00
95.8352 451.00
95.9004 458.00
95.9656 414.00
96.0308 423.00
96.096 458.00
96.1612 440.00
96.2264 461.00
96.2916 441.00
96.3568 395.00
96.422 440.00
96.4872 487.00
96.5524 453.00
96.6176 422.00
96.6828 400.00
96.748 410.00
96.8132 449.00
96.8784 447.00
96.9436 418.00
97.0088 400.00
97.074 404.00
97.1392 372.00
97.2044 382.00
97.2696 405.00
97.3348 380.00
97.4 396.00
97.4652 401.00
97.5304 382.00
97.5956 446.00
97.6608 421.00
97.726 395.00
97.7912 436.00
97.8564 426.00
97.9216 443.00
97.9868 471.00
98.052 429.00
98.1172 435.00
98.1824 466.00
98.2476 458.00
98.3128 459.00
98.378 459.00
98.4432 460.00
98.5084 478.00
98.5736 504.00
98.6388 469.00
98.704 499.00
98.7692 465.00
98.8344 495.00
98.8996 465.00
98.9648 484.00
99.03 459.00
99.0952 564.00
99.1604 571.00
99.2256 625.00
99.2908 647.00
99.356 619.00
99.4212 629.00
99.4864 527.00
99.5516 508.00
99.6168 540.00
99.682 524.00
99.7472 471.00
99.8124 424.00
99.8776 477.00
99.9428 421.00
100.008 425.00
100.073 473.00
100.095 448.00