File: data/xrd_creation/results/Na_15.xy
9.903433 2648.00
9.968632 2592.00
10.0338 2600.00
10.099 2670.00
10.1642 2677.00
10.2294 2739.00
10.2946 2509.00
10.3598 2593.00
10.425 2623.00
10.4902 2516.00
10.5554 2452.00
10.6206 2586.00
10.6858 2644.00
10.751 2457.00
10.8162 2468.00
10.8814 2464.00
10.9466 2425.00
11.0118 2395.00
11.077 2435.00
11.1422 2365.00
11.2074 2380.00
11.2726 2299.00
11.3378 2375.00
11.403 2283.00
11.4682 2196.00
11.5334 2270.00
11.5986 2202.00
11.6638 2177.00
11.729 2179.00
11.7942 2285.00
11.8594 2131.00
11.9246 2172.00
11.9898 2182.00
12.055 2184.00
12.1202 2115.00
12.1854 2169.00
12.2506 2133.00
12.3158 2043.00
12.381 2117.00
12.4462 2041.00
12.5114 2121.00
12.5766 1961.00
12.6418 2007.00
12.707 2046.00
12.7722 2006.00
12.8374 1975.00
12.9026 1950.00
12.9678 1998.00
13.033 1972.00
13.0982 1977.00
13.1634 2002.00
13.2286 1907.00
13.2938 1896.00
13.359 1886.00
13.4242 1931.00
13.4894 1895.00
13.5546 1964.00
13.6198 1835.00
13.685 1801.00
13.7502 1861.00
13.8154 1841.00
13.8805 1869.00
13.9457 1903.00
14.0109 1787.00
14.0761 1804.00
14.1413 1782.00
14.2065 1887.00
14.2717 1734.00
14.3369 1823.00
14.4021 1732.00
14.4673 1888.00
14.5325 1776.00
14.5977 1803.00
14.6629 1722.00
14.7281 1768.00
14.7933 1702.00
14.8585 1849.00
14.9237 1747.00
14.9889 1865.00
15.0541 1663.00
15.1193 1746.00
15.1845 1792.00
15.2497 1764.00
15.3149 1680.00
15.3801 1614.00
15.4453 1733.00
15.5105 1731.00
15.5757 1753.00
15.6409 1764.00
15.7061 1737.00
15.7713 1651.00
15.8365 1758.00
15.9017 1690.00
15.9669 1675.00
16.0321 1662.00
16.0973 1705.00
16.1625 1674.00
16.2277 1714.00
16.2929 1658.00
16.3581 1608.00
16.4233 1639.00
16.4885 1672.00
16.5537 1590.00
16.6189 1643.00
16.6841 1607.00
16.7493 1619.00
16.8145 1622.00
16.8797 1630.00
16.9449 1598.00
17.0101 1566.00
17.0753 1642.00
17.1405 1656.00
17.2057 1625.00
17.2709 1490.00
17.3361 1551.00
17.4013 1561.00
17.4665 1607.00
17.5317 1597.00
17.5969 1533.00
17.6621 1531.00
17.7273 1562.00
17.7925 1631.00
17.8577 1590.00
17.9229 1568.00
17.9881 1525.00
18.0533 1456.00
18.1185 1534.00
18.1837 1498.00
18.2489 1495.00
18.3141 1499.00
18.3793 1449.00
18.4445 1468.00
18.5097 1459.00
18.5749 1455.00
18.6401 1535.00
18.7052 1406.00
18.7704 1430.00
18.8356 1518.00
18.9008 1412.00
18.966 1477.00
19.0312 1468.00
19.0964 1524.00
19.1616 1427.00
19.2268 1428.00
19.292 1431.00
19.3572 1417.00
19.4224 1428.00
19.4876 1423.00
19.5528 1446.00
19.618 1309.00
19.6832 1384.00
19.7484 1411.00
19.8136 1377.00
19.8788 1278.00
19.944 1307.00
20.0092 1298.00
20.0744 1327.00
20.1396 1340.00
20.2048 1337.00
20.27 1258.00
20.3352 1333.00
20.4004 1330.00
20.4656 1322.00
20.5308 1309.00
20.596 1334.00
20.6612 1336.00
20.7264 1265.00
20.7916 1355.00
20.8568 1301.00
20.922 1282.00
20.9872 1286.00
21.0524 1344.00
21.1176 1334.00
21.1828 1325.00
21.248 1350.00
21.3132 1344.00
21.3784 1314.00
21.4436 1466.00
21.5088 1595.00
21.574 1732.00
21.6392 2274.00
21.7044 3459.00
21.7696 5098.00
21.8348 5385.00
21.9 2920.00
21.9652 1675.00
22.0304 1407.00
22.0956 1351.00
22.1608 1371.00
22.226 1287.00
22.2912 1245.00
22.3564 1228.00
22.4216 1264.00
22.4868 1144.00
22.552 1215.00
22.6172 1255.00
22.6824 1319.00
22.7476 1227.00
22.8128 1178.00
22.878 1150.00
22.9432 1207.00
23.0084 1209.00
23.0736 1130.00
23.1388 1158.00
23.204 1115.00
23.2692 1156.00
23.3344 1126.00
23.3996 1185.00
23.4647 1149.00
23.5299 1226.00
23.5951 1122.00
23.6603 1208.00
23.7255 1137.00
23.7907 1135.00
23.8559 1174.00
23.9211 1102.00
23.9863 1151.00
24.0515 1097.00
24.1167 1116.00
24.1819 1098.00
24.2471 1067.00
24.3123 1090.00
24.3775 1165.00
24.4427 1089.00
24.5079 1051.00
24.5731 1189.00
24.6383 1060.00
24.7035 1062.00
24.7687 1087.00
24.8339 1141.00
24.8991 1045.00
24.9643 1064.00
25.0295 1007.00
25.0947 1052.00
25.1599 1111.00
25.2251 1033.00
25.2903 1053.00
25.3555 1044.00
25.4207 1101.00
25.4859 1010.00
25.5511 1043.00
25.6163 1050.00
25.6815 1010.00
25.7467 1033.00
25.8119 1008.00
25.8771 999.00
25.9423 950.00
26.0075 1004.00
26.0727 1033.00
26.1379 990.00
26.2031 1070.00
26.2683 968.00
26.3335 1012.00
26.3987 951.00
26.4639 961.00
26.5291 1029.00
26.5943 920.00
26.6595 929.00
26.7247 1022.00
26.7899 975.00
26.8551 1007.00
26.9203 1012.00
26.9855 972.00
27.0507 953.00
27.1159 949.00
27.1811 938.00
27.2463 899.00
27.3115 960.00
27.3767 1003.00
27.4419 1002.00
27.5071 1055.00
27.5723 1115.00
27.6375 1329.00
27.7027 1374.00
27.7679 1114.00
27.8331 1070.00
27.8983 1104.00
27.9635 944.00
28.0287 959.00
28.0939 946.00
28.1591 904.00
28.2243 909.00
28.2894 920.00
28.3546 897.00
28.4198 905.00
28.485 957.00
28.5502 903.00
28.6154 949.00
28.6806 885.00
28.7458 892.00
28.811 874.00
28.8762 935.00
28.9414 906.00
29.0066 875.00
29.0718 860.00
29.137 890.00
29.2022 934.00
29.2674 975.00
29.3326 945.00
29.3978 960.00
29.463 922.00
29.5282 1016.00
29.5934 909.00
29.6586 924.00
29.7238 1020.00
29.789 1054.00
29.8542 1125.00
29.9194 1133.00
29.9846 1099.00
30.0498 1206.00
30.115 1230.00
30.1802 1149.00
30.2454 1350.00
30.3106 1478.00
30.3758 1669.00
30.441 1852.00
30.5062 2045.00
30.5714 2603.00
30.6366 3795.00
30.7018 6865.00
30.767 14795.00
30.8322 33207.00
30.8974 48077.00
30.9626 29246.00
31.0278 10529.00
31.093 4319.00
31.1582 2986.00
31.2234 2368.00
31.2886 1895.00
31.3538 1577.00
31.419 1346.00
31.4842 1354.00
31.5494 1246.00
31.6146 1168.00
31.6798 1195.00
31.745 1129.00
31.8102 1238.00
31.8754 1753.00
31.9406 3289.00
32.0058 5682.00
32.071 3781.00
32.1362 2059.00
32.2014 1184.00
32.2666 1010.00
32.3318 967.00
32.397 1002.00
32.4622 964.00
32.5274 911.00
32.5926 949.00
32.6578 976.00
32.723 930.00
32.7882 929.00
32.8534 869.00
32.9186 906.00
32.9838 845.00
33.0489 903.00
33.1141 867.00
33.1793 884.00
33.2445 963.00
33.3097 1104.00
33.3749 1413.00
33.4401 1320.00
33.5053 1151.00
33.5705 954.00
33.6357 846.00
33.7009 873.00
33.7661 794.00
33.8313 839.00
33.8965 841.00
33.9617 834.00
34.0269 861.00
34.0921 816.00
34.1573 806.00
34.2225 800.00
34.2877 776.00
34.3529 799.00
34.4181 823.00
34.4833 859.00
34.5485 831.00
34.6137 837.00
34.6789 805.00
34.7441 834.00
34.8093 861.00
34.8745 835.00
34.9397 898.00
35.0049 861.00
35.0701 875.00
35.1353 875.00
35.2005 964.00
35.2657 1035.00
35.3309 1051.00
35.3961 1148.00
35.4613 1342.00
35.5265 1750.00
35.5917 2809.00
35.6569 5686.00
35.7221 12129.00
35.7873 13268.00
35.8525 8574.00
35.9177 3355.00
35.9829 1789.00
36.0481 1353.00
36.1133 1170.00
36.1785 1093.00
36.2437 929.00
36.3089 847.00
36.3741 869.00
36.4393 785.00
36.5045 789.00
36.5697 776.00
36.6349 823.00
36.7001 744.00
36.7653 784.00
36.8305 741.00
36.8957 777.00
36.9609 733.00
37.0261 732.00
37.0913 748.00
37.1565 705.00
37.2217 773.00
37.2869 681.00
37.3521 763.00
37.4173 755.00
37.4825 748.00
37.5477 746.00
37.6129 786.00
37.6781 784.00
37.7433 917.00
37.8085 997.00
37.8736 1512.00
37.9388 2421.00
38.004 3055.00
38.0692 2189.00
38.1344 1370.00
38.1996 1002.00
38.2648 779.00
38.33 725.00
38.3952 781.00
38.4604 732.00
38.5256 697.00
38.5908 695.00
38.656 718.00
38.7212 664.00
38.7864 718.00
38.8516 676.00
38.9168 727.00
38.982 634.00
39.0472 639.00
39.1124 627.00
39.1776 689.00
39.2428 666.00
39.308 702.00
39.3732 617.00
39.4384 659.00
39.5036 635.00
39.5688 663.00
39.634 630.00
39.6992 700.00
39.7644 652.00
39.8296 687.00
39.8948 742.00
39.96 747.00
40.0252 900.00
40.0904 1188.00
40.1556 1142.00
40.2208 910.00
40.286 752.00
40.3512 651.00
40.4164 623.00
40.4816 644.00
40.5468 592.00
40.612 622.00
40.6772 648.00
40.7424 607.00
40.8076 565.00
40.8728 587.00
40.938 592.00
41.0032 622.00
41.0684 651.00
41.1336 649.00
41.1988 626.00
41.264 614.00
41.3292 641.00
41.3944 631.00
41.4596 663.00
41.5248 671.00
41.59 646.00
41.6552 622.00
41.7204 650.00
41.7856 678.00
41.8508 703.00
41.916 781.00
41.9812 926.00
42.0464 1408.00
42.1116 2646.00
42.1768 2247.00
42.242 1908.00
42.3072 1018.00
42.3724 754.00
42.4376 667.00
42.5028 736.00
42.568 552.00
42.6332 633.00
42.6983 584.00
42.7635 598.00
42.8287 604.00
42.8939 569.00
42.9591 595.00
43.0243 590.00
43.0895 606.00
43.1547 597.00
43.2199 569.00
43.2851 607.00
43.3503 612.00
43.4155 589.00
43.4807 562.00
43.5459 534.00
43.6111 554.00
43.6763 581.00
43.7415 609.00
43.8067 599.00
43.8719 629.00
43.9371 630.00
44.0023 747.00
44.0675 993.00
44.1327 893.00
44.1979 836.00
44.2631 714.00
44.3283 595.00
44.3935 603.00
44.4587 596.00
44.5239 594.00
44.5891 582.00
44.6543 582.00
44.7195 583.00
44.7847 584.00
44.8499 597.00
44.9151 576.00
44.9803 544.00
45.0455 575.00
45.1107 589.00
45.1759 578.00
45.2411 592.00
45.3063 609.00
45.3715 651.00
45.4367 682.00
45.5019 759.00
45.5671 879.00
45.6323 1351.00
45.6975 2732.00
45.7627 3093.00
45.8279 2639.00
45.8931 3098.00
45.9583 4716.00
46.0235 3377.00
46.0887 2853.00
46.1539 1523.00
46.2191 907.00
46.2843 819.00
46.3495 696.00
46.4147 631.00
46.4799 653.00
46.5451 598.00
46.6103 575.00
46.6755 576.00
46.7407 552.00
46.8059 589.00
46.8711 516.00
46.9363 539.00
47.0015 569.00
47.0667 549.00
47.1319 553.00
47.1971 580.00
47.2623 552.00
47.3275 551.00
47.3927 579.00
47.4579 542.00
47.523 550.00
47.5882 522.00
47.6534 556.00
47.7186 572.00
47.7838 483.00
47.849 533.00
47.9142 560.00
47.9794 571.00
48.0446 547.00
48.1098 534.00
48.175 507.00
48.2402 524.00
48.3054 523.00
48.3706 514.00
48.4358 501.00
48.501 555.00
48.5662 592.00
48.6314 574.00
48.6966 510.00
48.7618 544.00
48.827 513.00
48.8922 562.00
48.9574 515.00
49.0226 545.00
49.0878 507.00
49.153 546.00
49.2182 583.00
49.2834 609.00
49.3486 649.00
49.4138 702.00
49.479 971.00
49.5442 1582.00
49.6094 1436.00
49.6746 1296.00
49.7398 1011.00
49.805 721.00
49.8702 637.00
49.9354 623.00
50.0006 607.00
50.0658 596.00
50.131 639.00
50.1962 573.00
50.2614 609.00
50.3266 559.00
50.3918 652.00
50.457 615.00
50.5222 683.00
50.5874 671.00
50.6526 736.00
50.7178 810.00
50.783 895.00
50.8482 953.00
50.9134 1039.00
50.9786 1184.00
51.0438 1522.00
51.109 2092.00
51.1742 3875.00
51.2394 10209.00
51.3046 17279.00
51.3698 9589.00
51.435 9783.00
51.5002 4321.00
51.5654 2057.00
51.6306 1406.00
51.6958 1128.00
51.761 983.00
51.8262 783.00
51.8914 723.00
51.9566 699.00
52.0218 664.00
52.087 638.00
52.1522 621.00
52.2174 585.00
52.2826 615.00
52.3477 605.00
52.4129 572.00
52.4781 572.00
52.5433 545.00
52.6085 579.00
52.6737 562.00
52.7389 598.00
52.8041 657.00
52.8693 752.00
52.9345 1158.00
52.9997 1518.00
53.0649 1069.00
53.1301 1110.00
53.1953 737.00
53.2605 581.00
53.3257 557.00
53.3909 574.00
53.4561 516.00
53.5213 526.00
53.5865 531.00
53.6517 538.00
53.7169 542.00
53.7821 543.00
53.8473 515.00
53.9125 525.00
53.9777 560.00
54.0429 544.00
54.1081 615.00
54.1733 606.00
54.2385 602.00
54.3037 579.00
54.3689 499.00
54.4341 536.00
54.4993 536.00
54.5645 637.00
54.6297 719.00
54.6949 616.00
54.7601 565.00
54.8253 594.00
54.8905 505.00
54.9557 523.00
55.0209 475.00
55.0861 513.00
55.1513 472.00
55.2165 489.00
55.2817 570.00
55.3469 508.00
55.4121 497.00
55.4773 524.00
55.5425 520.00
55.6077 528.00
55.6729 553.00
55.7381 533.00
55.8033 543.00
55.8685 553.00
55.9337 585.00
55.9989 638.00
56.0641 695.00
56.1293 1068.00
56.1945 1798.00
56.2597 2612.00
56.3249 1554.00
56.3901 1702.00
56.4553 1138.00
56.5205 753.00
56.5857 716.00
56.6509 792.00
56.7161 1159.00
56.7813 1004.00
56.8465 810.00
56.9117 911.00
56.9769 590.00
57.042 534.00
57.1073 518.00
57.1724 519.00
57.2376 505.00
57.3028 500.00
57.368 532.00
57.4332 528.00
57.4984 534.00
57.5636 523.00
57.6288 536.00
57.694 573.00
57.7592 685.00
57.8244 1043.00
57.8896 723.00
57.9548 831.00
58.02 703.00
58.0852 566.00
58.1504 512.00
58.2156 503.00
58.2808 538.00
58.346 477.00
58.4112 463.00
58.4764 506.00
58.5416 466.00
58.6068 525.00
58.672 528.00
58.7372 520.00
58.8024 521.00
58.8676 531.00
58.9328 572.00
58.998 554.00
59.0632 538.00
59.1284 662.00
59.1936 624.00
59.2588 777.00
59.324 1427.00
59.3892 2270.00
59.4544 1502.00
59.5196 1427.00
59.5848 1277.00
59.65 791.00
59.7152 672.00
59.7804 597.00
59.8456 624.00
59.9108 575.00
59.976 594.00
60.0412 567.00
60.1064 538.00
60.1716 579.00
60.2368 622.00
60.302 673.00
60.3672 682.00
60.4324 769.00
60.4976 831.00
60.5628 1023.00
60.628 1192.00
60.6932 1333.00
60.7584 1993.00
60.8236 3801.00
60.8888 9200.00
60.954 10197.00
61.0192 5536.00
61.0844 6941.00
61.1496 3791.00
61.2148 1779.00
61.28 1217.00
61.3452 922.00
61.4104 868.00
61.4756 737.00
61.5408 679.00
61.606 645.00
61.6712 610.00
61.7364 579.00
61.8016 558.00
61.8667 566.00
61.932 601.00
61.9971 604.00
62.0623 585.00
62.1275 663.00
62.1927 695.00
62.2579 811.00
62.3231 1049.00
62.3883 2149.00
62.4535 2782.00
62.5187 1559.00
62.5839 1699.00
62.6491 1361.00
62.7143 761.00
62.7795 677.00
62.8447 596.00
62.9099 560.00
62.9751 504.00
63.0403 515.00
63.1055 507.00
63.1707 503.00
63.2359 519.00
63.3011 529.00
63.3663 493.00
63.4315 520.00
63.4967 492.00
63.5619 558.00
63.6271 601.00
63.6923 623.00
63.7575 689.00
63.8227 1075.00
63.8879 2114.00
63.9531 2381.00
64.0183 1358.00
64.0835 1659.00
64.1487 1260.00
64.2139 731.00
64.2791 575.00
64.3443 566.00
64.4095 528.00
64.4747 510.00
64.5399 481.00
64.6051 498.00
64.6703 492.00
64.7355 473.00
64.8007 492.00
64.8659 474.00
64.9311 532.00
64.9963 539.00
65.0615 507.00
65.1267 516.00
65.1919 522.00
65.2571 640.00
65.3223 866.00
65.3875 1361.00
65.4527 964.00
65.5179 839.00
65.5831 901.00
65.6483 635.00
65.7135 557.00
65.7787 522.00
65.8439 467.00
65.9091 469.00
65.9743 485.00
66.0395 465.00
66.1047 468.00
66.1699 475.00
66.2351 502.00
66.3003 488.00
66.3655 528.00
66.4307 646.00
66.4959 779.00
66.561 585.00
66.6263 618.00
66.6915 624.00
66.7566 647.00
66.8218 884.00
66.887 880.00
66.9522 659.00
67.0174 719.00
67.0826 634.00
67.1478 494.00
67.213 487.00
67.2782 425.00
67.3434 459.00
67.4086 435.00
67.4738 453.00
67.539 437.00
67.6042 458.00
67.6694 477.00
67.7346 462.00
67.7998 485.00
67.865 480.00
67.9302 544.00
67.9954 472.00
68.0606 511.00
68.1258 621.00
68.191 782.00
68.2562 1432.00
68.3214 1380.00
68.3866 891.00
68.4518 1029.00
68.517 955.00
68.5822 610.00
68.6474 522.00
68.7126 439.00
68.7778 452.00
68.843 429.00
68.9082 468.00
68.9734 456.00
69.0386 379.00
69.1038 420.00
69.169 439.00
69.2342 441.00
69.2994 434.00
69.3646 429.00
69.4298 425.00
69.495 508.00
69.5602 523.00
69.6254 672.00
69.6906 932.00
69.7558 864.00
69.821 675.00
69.8862 777.00
69.9514 653.00
70.0166 513.00
70.0818 474.00
70.147 487.00
70.2122 458.00
70.2774 439.00
70.3426 411.00
70.4078 426.00
70.473 405.00
70.5382 424.00
70.6034 445.00
70.6686 421.00
70.7338 412.00
70.799 406.00
70.8642 402.00
70.9294 412.00
70.9946 398.00
71.0598 405.00
71.125 408.00
71.1902 418.00
71.2554 401.00
71.3205 413.00
71.3858 426.00
71.451 405.00
71.5162 413.00
71.5813 429.00
71.6465 408.00
71.7117 410.00
71.7769 414.00
71.8421 425.00
71.9073 435.00
71.9725 389.00
72.0377 409.00
72.1029 378.00
72.1681 429.00
72.2333 382.00
72.2985 409.00
72.3637 417.00
72.4289 382.00
72.4941 430.00
72.5593 421.00
72.6245 461.00
72.6897 402.00
72.7549 411.00
72.8201 409.00
72.8853 415.00
72.9505 415.00
73.0157 409.00
73.0809 398.00
73.1461 408.00
73.2113 441.00
73.2765 466.00
73.3417 425.00
73.4069 457.00
73.4721 425.00
73.5373 418.00
73.6025 461.00
73.6677 508.00
73.7329 498.00
73.7981 664.00
73.8633 1056.00
73.9285 1120.00
73.9937 781.00
74.0589 748.00
74.1241 856.00
74.1893 619.00
74.2545 532.00
74.3197 477.00
74.3849 450.00
74.4501 394.00
74.5153 446.00
74.5805 458.00
74.6457 451.00
74.7109 425.00
74.7761 433.00
74.8413 506.00
74.9065 472.00
74.9717 521.00
75.0369 544.00
75.1021 629.00
75.1673 819.00
75.2325 1362.00
75.2977 1752.00
75.3629 1076.00
75.4281 1174.00
75.4933 1624.00
75.5585 1351.00
75.6237 853.00
75.6889 759.00
75.7541 840.00
75.8193 623.00
75.8845 519.00
75.9497 526.00
76.0149 496.00
76.0801 470.00
76.1452 495.00
76.2104 488.00
76.2756 529.00
76.3409 517.00
76.406 563.00
76.4712 619.00
76.5364 806.00
76.6016 1386.00
76.6668 1626.00
76.732 961.00
76.7972 878.00
76.8624 1056.00
76.9276 840.00
76.9928 587.00
77.058 511.00
77.1232 471.00
77.1884 442.00
77.2536 463.00
77.3188 454.00
77.384 427.00
77.4492 465.00
77.5144 441.00
77.5796 413.00
77.6448 457.00
77.71 453.00
77.7752 500.00
77.8404 524.00
77.9056 616.00
77.9708 1007.00
78.036 1071.00
78.1012 719.00
78.1664 690.00
78.2316 774.00
78.2968 611.00
78.362 486.00
78.4272 419.00
78.4924 458.00
78.5576 400.00
78.6228 428.00
78.688 459.00
78.7532 438.00
78.8184 434.00
78.8836 441.00
78.9488 440.00
79.014 448.00
79.0792 469.00
79.1444 513.00
79.2096 554.00
79.2748 742.00
79.34 1136.00
79.4052 935.00
79.4704 693.00
79.5356 714.00
79.6008 814.00
79.666 656.00
79.7312 484.00
79.7964 485.00
79.8616 431.00
79.9268 438.00
79.992 420.00
80.0572 386.00
80.1224 396.00
80.1876 407.00
80.2528 375.00
80.318 394.00
80.3832 416.00
80.4484 456.00
80.5136 489.00
80.5788 545.00
80.644 671.00
80.7092 867.00
80.7744 722.00
80.8396 584.00
80.9048 612.00
80.9699 653.00
81.0351 533.00
81.1003 537.00
81.1655 418.00
81.2307 431.00
81.2959 421.00
81.3611 463.00
81.4263 427.00
81.4915 454.00
81.5567 447.00
81.6219 472.00
81.6871 451.00
81.7523 508.00
81.8175 546.00
81.8827 554.00
81.9479 820.00
82.0131 1367.00
82.0783 1415.00
82.1435 853.00
82.2087 809.00
82.2739 1010.00
82.3391 863.00
82.4043 655.00
82.4695 508.00
82.5347 503.00
82.5999 472.00
82.6651 485.00
82.7303 414.00
82.7955 449.00
82.8607 499.00
82.9259 515.00
82.9911 515.00
83.0563 564.00
83.1215 617.00
83.1867 733.00
83.2519 956.00
83.3171 1692.00
83.3823 2799.00
83.4475 1834.00
83.5127 1146.00
83.5779 1366.00
83.6431 1693.00
83.7083 1066.00
83.7735 753.00
83.8387 637.00
83.9039 584.00
83.9691 497.00
84.0343 496.00
84.0995 565.00
84.1647 759.00
84.2299 773.00
84.2951 563.00
84.3603 534.00
84.4255 603.00
84.4907 615.00
84.5559 471.00
84.6211 456.00
84.6863 429.00
84.7515 485.00
84.8167 416.00
84.8819 429.00
84.9471 440.00
85.0123 416.00
85.0775 430.00
85.1427 431.00
85.2079 428.00
85.2731 433.00
85.3383 405.00
85.4035 426.00
85.4687 431.00
85.5339 467.00
85.5991 486.00
85.6643 463.00
85.7295 521.00
85.7946 563.00
85.8598 651.00
85.925 878.00
85.9903 1477.00
86.0554 2086.00
86.1206 1333.00
86.1858 921.00
86.251 1081.00
86.3162 1408.00
86.3814 933.00
86.4466 641.00
86.5118 533.00
86.577 482.00
86.6422 458.00
86.7074 441.00
86.7726 405.00
86.8378 432.00
86.903 413.00
86.9682 434.00
87.0334 417.00
87.0986 437.00
87.1638 425.00
87.229 499.00
87.2942 564.00
87.3594 640.00
87.4246 619.00
87.4898 520.00
87.555 497.00
87.6202 552.00
87.6854 518.00
87.7506 440.00
87.8158 441.00
87.881 404.00
87.9462 436.00
88.0114 437.00
88.0766 406.00
88.1418 382.00
88.207 447.00
88.2722 417.00
88.3374 396.00
88.4026 395.00
88.4678 425.00
88.533 501.00
88.5982 520.00
88.6634 694.00
88.7286 700.00
88.7938 589.00
88.859 461.00
88.9242 520.00
88.9894 566.00
89.0546 496.00
89.1198 437.00
89.185 411.00
89.2502 414.00
89.3154 446.00
89.3806 421.00
89.4458 411.00
89.511 370.00
89.5762 384.00
89.6414 450.00
89.7066 452.00
89.7718 486.00
89.837 501.00
89.9022 605.00
89.9674 875.00
90.0326 1254.00
90.0978 821.00
90.163 572.00
90.2282 654.00
90.2934 826.00
90.3586 708.00
90.4238 545.00
90.489 489.00
90.5542 466.00
90.6193 448.00
90.6845 454.00
90.7497 439.00
90.8149 367.00
90.8801 436.00
90.9453 425.00
91.0105 422.00
91.0757 407.00
91.1409 429.00
91.2061 386.00
91.2713 409.00
91.3365 463.00
91.4017 412.00
91.4669 409.00
91.5321 402.00
91.5973 412.00
91.6625 453.00
91.7277 417.00
91.7929 372.00
91.8581 388.00
91.9233 407.00
91.9885 406.00
92.0537 397.00
92.1189 431.00
92.1841 409.00
92.2493 411.00
92.3145 429.00
92.3797 451.00
92.4449 451.00
92.5101 521.00
92.5753 656.00
92.6405 962.00
92.7057 1100.00
92.7709 683.00
92.8361 620.00
92.9013 685.00
92.9665 727.00
93.0317 659.00
93.0969 490.00
93.1621 480.00
93.2273 437.00
93.2925 434.00
93.3577 429.00
93.4229 415.00
93.4881 402.00
93.5533 385.00
93.6185 385.00
93.6837 404.00
93.7489 397.00
93.8141 423.00
93.8793 355.00
93.9445 403.00
94.0097 361.00
94.0749 404.00
94.1401 397.00
94.2053 387.00
94.2705 373.00
94.3357 400.00
94.4009 393.00
94.4661 377.00
94.5313 413.00
94.5965 405.00
94.6617 416.00
94.7269 406.00
94.7921 365.00
94.8573 450.00
94.9225 442.00
94.9877 442.00
95.0529 427.00
95.1181 476.00
95.1833 533.00
95.2485 725.00
95.3137 1016.00
95.3789 1039.00
95.444 653.00
95.5092 602.00
95.5744 630.00
95.6396 775.00
95.7048 647.00
95.77 566.00
95.8352 512.00
95.9004 478.00
95.9656 460.00
96.0308 436.00
96.096 475.00
96.1612 470.00
96.2264 467.00
96.2916 496.00
96.3568 499.00
96.422 572.00
96.4872 622.00
96.5524 826.00
96.6176 1428.00
96.6828 1731.00
96.748 1197.00
96.8132 850.00
96.8784 814.00
96.9436 987.00
97.0088 1107.00
97.074 689.00
97.1392 582.00
97.2044 489.00
97.2696 455.00
97.3348 448.00
97.4 458.00
97.4652 431.00
97.5304 454.00
97.5956 442.00
97.6608 463.00
97.726 503.00
97.7912 516.00
97.8564 611.00
97.9216 847.00
97.9868 1043.00
98.052 1004.00
98.1172 693.00
98.1824 610.00
98.2476 636.00
98.3128 746.00
98.378 684.00
98.4432 536.00
98.5084 447.00
98.5736 452.00
98.6388 436.00
98.704 444.00
98.7692 415.00
98.8344 460.00
98.8996 412.00
98.9648 454.00
99.03 405.00
99.0952 413.00
99.1604 499.00
99.2256 525.00
99.2908 742.00
99.356 908.00
99.4212 720.00
99.4864 588.00
99.5516 530.00
99.6168 596.00
99.682 651.00
99.7472 572.00
99.8124 473.00
99.8776 417.00
99.9428 433.00
100.008 416.00
100.073 403.00
100.095 419.00