File: data/xrd_creation/results/Na_190.xy
9.903433 3211.00
9.968632 3200.00
10.0338 3158.00
10.099 3164.00
10.1642 3271.00
10.2294 3197.00
10.2946 3187.00
10.3598 3253.00
10.425 3391.00
10.4902 3347.00
10.5554 3348.00
10.6206 3309.00
10.6858 3317.00
10.751 3146.00
10.8162 3126.00
10.8814 3119.00
10.9466 3052.00
11.0118 3016.00
11.077 3047.00
11.1422 3010.00
11.2074 2881.00
11.2726 2963.00
11.3378 2979.00
11.403 2978.00
11.4682 2958.00
11.5334 3041.00
11.5986 3047.00
11.6638 3273.00
11.729 3458.00
11.7942 3555.00
11.8594 3317.00
11.9246 3045.00
11.9898 2805.00
12.055 2780.00
12.1202 2662.00
12.1854 2539.00
12.2506 2554.00
12.3158 2578.00
12.381 2661.00
12.4462 2564.00
12.5114 2569.00
12.5766 2473.00
12.6418 2567.00
12.707 2431.00
12.7722 2406.00
12.8374 2377.00
12.9026 2408.00
12.9678 2444.00
13.033 2396.00
13.0982 2237.00
13.1634 2405.00
13.2286 2298.00
13.2938 2332.00
13.359 2332.00
13.4242 2277.00
13.4894 2365.00
13.5546 2337.00
13.6198 2393.00
13.685 2337.00
13.7502 2289.00
13.8154 2258.00
13.8805 2242.00
13.9457 2328.00
14.0109 2220.00
14.0761 2285.00
14.1413 2152.00
14.2065 2153.00
14.2717 2227.00
14.3369 2122.00
14.4021 2143.00
14.4673 2152.00
14.5325 2190.00
14.5977 2048.00
14.6629 2104.00
14.7281 2080.00
14.7933 2107.00
14.8585 2146.00
14.9237 2120.00
14.9889 2218.00
15.0541 2134.00
15.1193 2006.00
15.1845 2119.00
15.2497 2018.00
15.3149 2220.00
15.3801 2081.00
15.4453 2168.00
15.5105 2082.00
15.5757 2115.00
15.6409 2085.00
15.7061 2000.00
15.7713 2121.00
15.8365 2103.00
15.9017 1977.00
15.9669 2058.00
16.0321 2127.00
16.0973 2066.00
16.1625 2080.00
16.2277 2062.00
16.2929 2078.00
16.3581 2100.00
16.4233 2098.00
16.4885 2288.00
16.5537 2366.00
16.6189 2435.00
16.6841 2255.00
16.7493 2080.00
16.8145 2030.00
16.8797 2020.00
16.9449 2033.00
17.0101 1908.00
17.0753 1973.00
17.1405 1960.00
17.2057 1886.00
17.2709 1929.00
17.3361 1989.00
17.4013 1911.00
17.4665 2000.00
17.5317 1921.00
17.5969 1965.00
17.6621 1882.00
17.7273 1982.00
17.7925 2003.00
17.8577 2028.00
17.9229 2015.00
17.9881 1905.00
18.0533 1992.00
18.1185 2037.00
18.1837 2036.00
18.2489 2095.00
18.3141 1920.00
18.3793 1940.00
18.4445 1879.00
18.5097 1918.00
18.5749 1868.00
18.6401 1831.00
18.7052 1828.00
18.7704 1825.00
18.8356 1754.00
18.9008 1859.00
18.966 1866.00
19.0312 1755.00
19.0964 1807.00
19.1616 1835.00
19.2268 1838.00
19.292 1899.00
19.3572 1780.00
19.4224 1837.00
19.4876 1846.00
19.5528 1841.00
19.618 1773.00
19.6832 1797.00
19.7484 1856.00
19.8136 1889.00
19.8788 1861.00
19.944 1807.00
20.0092 1855.00
20.0744 1928.00
20.1396 1881.00
20.2048 1770.00
20.27 1839.00
20.3352 1742.00
20.4004 1839.00
20.4656 1818.00
20.5308 1835.00
20.596 1832.00
20.6612 1966.00
20.7264 2065.00
20.7916 2212.00
20.8568 2641.00
20.922 3392.00
20.9872 4352.00
21.0524 4218.00
21.1176 2582.00
21.1828 1930.00
21.248 1837.00
21.3132 1784.00
21.3784 1748.00
21.4436 1735.00
21.5088 1744.00
21.574 1702.00
21.6392 1706.00
21.7044 1699.00
21.7696 1716.00
21.8348 1628.00
21.9 1645.00
21.9652 1729.00
22.0304 1722.00
22.0956 1643.00
22.1608 1601.00
22.226 1629.00
22.2912 1666.00
22.3564 1581.00
22.4216 1622.00
22.4868 1596.00
22.552 1646.00
22.6172 1624.00
22.6824 1601.00
22.7476 1562.00
22.8128 1590.00
22.878 1602.00
22.9432 1658.00
23.0084 1533.00
23.0736 1606.00
23.1388 1604.00
23.204 1596.00
23.2692 1602.00
23.3344 1567.00
23.3996 1631.00
23.4647 1694.00
23.5299 1636.00
23.5951 1606.00
23.6603 1743.00
23.7255 1652.00
23.7907 1679.00
23.8559 1739.00
23.9211 1824.00
23.9863 1991.00
24.0515 2473.00
24.1167 3235.00
24.1819 4702.00
24.2471 5881.00
24.3123 4751.00
24.3775 2796.00
24.4427 2362.00
24.5079 2343.00
24.5731 2090.00
24.6383 1890.00
24.7035 1817.00
24.7687 1865.00
24.8339 2026.00
24.8991 2111.00
24.9643 1996.00
25.0295 1800.00
25.0947 1627.00
25.1599 1585.00
25.2251 1681.00
25.2903 1641.00
25.3555 1596.00
25.4207 1597.00
25.4859 1618.00
25.5511 1650.00
25.6163 1565.00
25.6815 1616.00
25.7467 1629.00
25.8119 1698.00
25.8771 1692.00
25.9423 1742.00
26.0075 1797.00
26.0727 2019.00
26.1379 2131.00
26.2031 2178.00
26.2683 2381.00
26.3335 2390.00
26.3987 2266.00
26.4639 2047.00
26.5291 2028.00
26.5943 2300.00
26.6595 2766.00
26.7247 3776.00
26.7899 6101.00
26.8551 9747.00
26.9203 11739.00
26.9855 8961.00
27.0507 5128.00
27.1159 3206.00
27.1811 2424.00
27.2463 2173.00
27.3115 2031.00
27.3767 1968.00
27.4419 2047.00
27.5071 2315.00
27.5723 3137.00
27.6375 4240.00
27.7027 3870.00
27.7679 2927.00
27.8331 2373.00
27.8983 2191.00
27.9635 1971.00
28.0287 1905.00
28.0939 1736.00
28.1591 1767.00
28.2243 1616.00
28.2894 1771.00
28.3546 1788.00
28.4198 1893.00
28.485 2189.00
28.5502 3018.00
28.6154 3930.00
28.6806 4419.00
28.7458 3398.00
28.811 2523.00
28.8762 2057.00
28.9414 1693.00
29.0066 1670.00
29.0718 1607.00
29.137 1552.00
29.2022 1566.00
29.2674 1528.00
29.3326 1616.00
29.3978 1528.00
29.463 1553.00
29.5282 1453.00
29.5934 1458.00
29.6586 1483.00
29.7238 1489.00
29.789 1557.00
29.8542 1422.00
29.9194 1515.00
29.9846 1493.00
30.0498 1596.00
30.115 1615.00
30.1802 1587.00
30.2454 1594.00
30.3106 1576.00
30.3758 1590.00
30.441 1559.00
30.5062 1482.00
30.5714 1624.00
30.6366 1562.00
30.7018 1518.00
30.767 1606.00
30.8322 1523.00
30.8974 1546.00
30.9626 1600.00
31.0278 1542.00
31.093 1560.00
31.1582 1568.00
31.2234 1662.00
31.2886 1595.00
31.3538 1575.00
31.419 1645.00
31.4842 1669.00
31.5494 1731.00
31.6146 1713.00
31.6798 1832.00
31.745 1961.00
31.8102 2311.00
31.8754 2861.00
31.9406 3513.00
32.0058 3533.00
32.071 2846.00
32.1362 2155.00
32.2014 1762.00
32.2666 1678.00
32.3318 1542.00
32.397 1521.00
32.4622 1424.00
32.5274 1533.00
32.5926 1442.00
32.6578 1412.00
32.723 1390.00
32.7882 1399.00
32.8534 1386.00
32.9186 1418.00
32.9838 1382.00
33.0489 1470.00
33.1141 1590.00
33.1793 1961.00
33.2445 1988.00
33.3097 1956.00
33.3749 1863.00
33.4401 1678.00
33.5053 1629.00
33.5705 1600.00
33.6357 1637.00
33.7009 1565.00
33.7661 1680.00
33.8313 1814.00
33.8965 2075.00
33.9617 2604.00
34.0269 3568.00
34.0921 5700.00
34.1573 8833.00
34.2225 10653.00
34.2877 11300.00
34.3529 14177.00
34.4181 17958.00
34.4833 12955.00
34.5485 7988.00
34.6137 4344.00
34.6789 3270.00
34.7441 2746.00
34.8093 2435.00
34.8745 2432.00
34.9397 2220.00
35.0049 1994.00
35.0701 1740.00
35.1353 1530.00
35.2005 1503.00
35.2657 1393.00
35.3309 1379.00
35.3961 1383.00
35.4613 1374.00
35.5265 1298.00
35.5917 1357.00
35.6569 1401.00
35.7221 1576.00
35.7873 1859.00
35.8525 1921.00
35.9177 1897.00
35.9829 1707.00
36.0481 1793.00
36.1133 2133.00
36.1785 2166.00
36.2437 2016.00
36.3089 1729.00
36.3741 1603.00
36.4393 1494.00
36.5045 1320.00
36.5697 1243.00
36.6349 1148.00
36.7001 1126.00
36.7653 1227.00
36.8305 1221.00
36.8957 1194.00
36.9609 1196.00
37.0261 1128.00
37.0913 1192.00
37.1565 1151.00
37.2217 1214.00
37.2869 1181.00
37.3521 1179.00
37.4173 1211.00
37.4825 1173.00
37.5477 1194.00
37.6129 1223.00
37.6781 1229.00
37.7433 1225.00
37.8085 1221.00
37.8736 1231.00
37.9388 1282.00
38.004 1476.00
38.0692 1563.00
38.1344 1999.00
38.1996 2595.00
38.2648 3034.00
38.33 2751.00
38.3952 2266.00
38.4604 1792.00
38.5256 1485.00
38.5908 1364.00
38.656 1271.00
38.7212 1182.00
38.7864 1179.00
38.8516 1193.00
38.9168 1146.00
38.982 1284.00
39.0472 1392.00
39.1124 1386.00
39.1776 1454.00
39.2428 1623.00
39.308 1692.00
39.3732 1632.00
39.4384 1451.00
39.5036 1283.00
39.5688 1226.00
39.634 1173.00
39.6992 1103.00
39.7644 1102.00
39.8296 1156.00
39.8948 1147.00
39.96 1128.00
40.0252 1117.00
40.0904 1102.00
40.1556 1094.00
40.2208 1148.00
40.286 1145.00
40.3512 1146.00
40.4164 1190.00
40.4816 1226.00
40.5468 1175.00
40.612 1168.00
40.6772 1127.00
40.7424 1127.00
40.8076 1115.00
40.8728 1111.00
40.938 1134.00
41.0032 1078.00
41.0684 1169.00
41.1336 1312.00
41.1988 1509.00
41.264 1718.00
41.3292 1708.00
41.3944 1575.00
41.4596 1346.00
41.5248 1335.00
41.59 1258.00
41.6552 1232.00
41.7204 1276.00
41.7856 1274.00
41.8508 1244.00
41.916 1300.00
41.9812 1254.00
42.0464 1114.00
42.1116 1127.00
42.1768 1143.00
42.242 1089.00
42.3072 1106.00
42.3724 1151.00
42.4376 1199.00
42.5028 1155.00
42.568 1156.00
42.6332 1096.00
42.6983 1100.00
42.7635 1142.00
42.8287 1216.00
42.8939 1148.00
42.9591 1164.00
43.0243 1183.00
43.0895 1141.00
43.1547 1092.00
43.2199 1076.00
43.2851 1050.00
43.3503 993.00
43.4155 1040.00
43.4807 1037.00
43.5459 1084.00
43.6111 1052.00
43.6763 1052.00
43.7415 1099.00
43.8067 1041.00
43.8719 1106.00
43.9371 1050.00
44.0023 1016.00
44.0675 1109.00
44.1327 1122.00
44.1979 1080.00
44.2631 1168.00
44.3283 1056.00
44.3935 1025.00
44.4587 1022.00
44.5239 1093.00
44.5891 1051.00
44.6543 1001.00
44.7195 1028.00
44.7847 1008.00
44.8499 1044.00
44.9151 1059.00
44.9803 1029.00
45.0455 1080.00
45.1107 1082.00
45.1759 1095.00
45.2411 1117.00
45.3063 1125.00
45.3715 1185.00
45.4367 1053.00
45.5019 1073.00
45.5671 1149.00
45.6323 1076.00
45.6975 1091.00
45.7627 1067.00
45.8279 1030.00
45.8931 1032.00
45.9583 1090.00
46.0235 1180.00
46.0887 1234.00
46.1539 1233.00
46.2191 1146.00
46.2843 1110.00
46.3495 979.00
46.4147 1051.00
46.4799 1017.00
46.5451 1061.00
46.6103 1017.00
46.6755 1056.00
46.7407 1020.00
46.8059 1050.00
46.8711 1072.00
46.9363 1064.00
47.0015 1059.00
47.0667 1047.00
47.1319 1119.00
47.1971 1073.00
47.2623 1063.00
47.3275 1068.00
47.3927 1100.00
47.4579 1094.00
47.523 1088.00
47.5882 1117.00
47.6534 1096.00
47.7186 1144.00
47.7838 1170.00
47.849 1146.00
47.9142 1149.00
47.9794 1096.00
48.0446 1185.00
48.1098 1101.00
48.175 1045.00
48.2402 1016.00
48.3054 1107.00
48.3706 1053.00
48.4358 1061.00
48.501 1076.00
48.5662 1070.00
48.6314 1027.00
48.6966 1138.00
48.7618 1104.00
48.827 1124.00
48.8922 1160.00
48.9574 1250.00
49.0226 1245.00
49.0878 1423.00
49.153 1728.00
49.2182 2376.00
49.2834 3134.00
49.3486 3087.00
49.4138 2574.00
49.479 2064.00
49.5442 1594.00
49.6094 1349.00
49.6746 1350.00
49.7398 1416.00
49.805 1620.00
49.8702 1628.00
49.9354 1473.00
50.0006 1396.00
50.0658 1274.00
50.131 1143.00
50.1962 1159.00
50.2614 1091.00
50.3266 1161.00
50.3918 1088.00
50.457 1117.00
50.5222 1152.00
50.5874 1156.00
50.6526 1435.00
50.7178 1731.00
50.783 1598.00
50.8482 1518.00
50.9134 1383.00
50.9786 1281.00
51.0438 1233.00
51.109 1305.00
51.1742 1370.00
51.2394 1334.00
51.3046 1266.00
51.3698 1272.00
51.435 1231.00
51.5002 1195.00
51.5654 1242.00
51.6306 1257.00
51.6958 1377.00
51.761 1492.00
51.8262 1647.00
51.8914 2102.00
51.9566 3153.00
52.0218 5143.00
52.087 5877.00
52.1522 5238.00
52.2174 4656.00
52.2826 3371.00
52.3477 2449.00
52.4129 1904.00
52.4781 1600.00
52.5433 1410.00
52.6085 1261.00
52.6737 1203.00
52.7389 1120.00
52.8041 1104.00
52.8693 1088.00
52.9345 1015.00
52.9997 1040.00
53.0649 1062.00
53.1301 1019.00
53.1953 1046.00
53.2605 1065.00
53.3257 1047.00
53.3909 1002.00
53.4561 1034.00
53.5213 1014.00
53.5865 1056.00
53.6517 1046.00
53.7169 1069.00
53.7821 1044.00
53.8473 978.00
53.9125 1080.00
53.9777 1151.00
54.0429 1186.00
54.1081 1258.00
54.1733 1397.00
54.2385 1686.00
54.3037 1838.00
54.3689 1846.00
54.4341 1797.00
54.4993 1646.00
54.5645 1413.00
54.6297 1410.00
54.6949 1487.00
54.7601 1429.00
54.8253 1338.00
54.8905 1487.00
54.9557 1709.00
55.0209 2175.00
55.0861 2181.00
55.1513 1995.00
55.2165 1907.00
55.2817 1527.00
55.3469 1332.00
55.4121 1249.00
55.4773 1175.00
55.5425 1242.00
55.6077 1172.00
55.6729 1091.00
55.7381 1149.00
55.8033 1143.00
55.8685 1224.00
55.9337 1233.00
55.9989 1270.00
56.0641 1302.00
56.1293 1289.00
56.1945 1223.00
56.2597 1136.00
56.3249 1119.00
56.3901 1136.00
56.4553 1156.00
56.5205 1247.00
56.5857 1248.00
56.6509 1319.00
56.7161 1351.00
56.7813 1278.00
56.8465 1129.00
56.9117 1149.00
56.9769 1076.00
57.042 1053.00
57.1073 898.00
57.1724 880.00
57.2376 933.00
57.3028 879.00
57.368 940.00
57.4332 1015.00
57.4984 1012.00
57.5636 1004.00
57.6288 997.00
57.694 1000.00
57.7592 1072.00
57.8244 1205.00
57.8896 1174.00
57.9548 1179.00
58.02 1250.00
58.0852 1351.00
58.1504 1453.00
58.2156 1368.00
58.2808 1331.00
58.346 1204.00
58.4112 1144.00
58.4764 1161.00
58.5416 1212.00
58.6068 1226.00
58.672 1142.00
58.7372 1114.00
58.8024 1080.00
58.8676 1087.00
58.9328 1038.00
58.998 1055.00
59.0632 1072.00
59.1284 1024.00
59.1936 927.00
59.2588 968.00
59.324 947.00
59.3892 890.00
59.4544 910.00
59.5196 911.00
59.5848 904.00
59.65 972.00
59.7152 909.00
59.7804 944.00
59.8456 984.00
59.9108 934.00
59.976 1029.00
60.0412 959.00
60.1064 956.00
60.1716 967.00
60.2368 964.00
60.302 1016.00
60.3672 1080.00
60.4324 1129.00
60.4976 1149.00
60.5628 1189.00
60.628 1192.00
60.6932 1195.00
60.7584 1160.00
60.8236 1101.00
60.8888 1026.00
60.954 1036.00
61.0192 1116.00
61.0844 1145.00
61.1496 1315.00
61.2148 1588.00
61.28 2199.00
61.3452 2594.00
61.4104 2142.00
61.4756 1936.00
61.5408 1660.00
61.606 1315.00
61.6712 1057.00
61.7364 1059.00
61.8016 1032.00
61.8667 1063.00
61.932 1151.00
61.9971 1340.00
62.0623 1581.00
62.1275 1865.00
62.1927 1861.00
62.2579 1768.00
62.3231 1699.00
62.3883 1460.00
62.4535 1427.00
62.5187 1346.00
62.5839 1293.00
62.6491 1251.00
62.7143 1182.00
62.7795 1116.00
62.8447 1060.00
62.9099 955.00
62.9751 904.00
63.0403 880.00
63.1055 871.00
63.1707 876.00
63.2359 850.00
63.3011 832.00
63.3663 953.00
63.4315 1008.00
63.4967 1067.00
63.5619 1133.00
63.6271 973.00
63.6923 1017.00
63.7575 970.00
63.8227 928.00
63.8879 940.00
63.9531 931.00
64.0183 921.00
64.0835 906.00
64.1487 1009.00
64.2139 978.00
64.2791 927.00
64.3443 971.00
64.4095 939.00
64.4747 880.00
64.5399 935.00
64.6051 929.00
64.6703 931.00
64.7355 955.00
64.8007 1039.00
64.8659 1159.00
64.9311 1502.00
64.9963 1721.00
65.0615 1745.00
65.1267 1664.00
65.1919 1578.00
65.2571 1467.00
65.3223 1294.00
65.3875 1145.00
65.4527 1064.00
65.5179 1042.00
65.5831 972.00
65.6483 975.00
65.7135 979.00
65.7787 951.00
65.8439 984.00
65.9091 1009.00
65.9743 1125.00
66.0395 1195.00
66.1047 1456.00
66.1699 1816.00
66.2351 2016.00
66.3003 1928.00
66.3655 1919.00
66.4307 1765.00
66.4959 1605.00
66.561 1405.00
66.6263 1227.00
66.6915 1143.00
66.7566 1031.00
66.8218 899.00
66.887 880.00
66.9522 896.00
67.0174 881.00
67.0826 872.00
67.1478 792.00
67.213 814.00
67.2782 743.00
67.3434 828.00
67.4086 808.00
67.4738 774.00
67.539 794.00
67.6042 755.00
67.6694 781.00
67.7346 810.00
67.7998 767.00
67.865 754.00
67.9302 774.00
67.9954 774.00
68.0606 794.00
68.1258 779.00
68.191 747.00
68.2562 743.00
68.3214 775.00
68.3866 763.00
68.4518 802.00
68.517 783.00
68.5822 805.00
68.6474 776.00
68.7126 831.00
68.7778 890.00
68.843 933.00
68.9082 928.00
68.9734 955.00
69.0386 958.00
69.1038 887.00
69.169 918.00
69.2342 871.00
69.2994 871.00
69.3646 797.00
69.4298 816.00
69.495 868.00
69.5602 951.00
69.6254 960.00
69.6906 887.00
69.7558 853.00
69.821 804.00
69.8862 831.00
69.9514 814.00
70.0166 724.00
70.0818 760.00
70.147 723.00
70.2122 708.00
70.2774 749.00
70.3426 740.00
70.4078 702.00
70.473 729.00
70.5382 715.00
70.6034 681.00
70.6686 691.00
70.7338 706.00
70.799 684.00
70.8642 751.00
70.9294 707.00
70.9946 713.00
71.0598 711.00
71.125 730.00
71.1902 762.00
71.2554 735.00
71.3205 791.00
71.3858 851.00
71.451 952.00
71.5162 1137.00
71.5813 1155.00
71.6465 1106.00
71.7117 1131.00
71.7769 1175.00
71.8421 1151.00
71.9073 1117.00
71.9725 1153.00
72.0377 1234.00
72.1029 1286.00
72.1681 1279.00
72.2333 1017.00
72.2985 1038.00
72.3637 980.00
72.4289 847.00
72.4941 747.00
72.5593 765.00
72.6245 770.00
72.6897 782.00
72.7549 742.00
72.8201 759.00
72.8853 816.00
72.9505 770.00
73.0157 780.00
73.0809 734.00
73.1461 705.00
73.2113 689.00
73.2765 769.00
73.3417 766.00
73.4069 763.00
73.4721 776.00
73.5373 700.00
73.6025 648.00
73.6677 716.00
73.7329 704.00
73.7981 647.00
73.8633 704.00
73.9285 647.00
73.9937 644.00
74.0589 655.00
74.1241 657.00
74.1893 636.00
74.2545 631.00
74.3197 676.00
74.3849 675.00
74.4501 683.00
74.5153 705.00
74.5805 670.00
74.6457 714.00
74.7109 723.00
74.7761 643.00
74.8413 659.00
74.9065 680.00
74.9717 605.00
75.0369 671.00
75.1021 701.00
75.1673 659.00
75.2325 653.00
75.2977 670.00
75.3629 751.00
75.4281 726.00
75.4933 716.00
75.5585 703.00
75.6237 725.00
75.6889 721.00
75.7541 760.00
75.8193 780.00
75.8845 855.00
75.9497 774.00
76.0149 767.00
76.0801 731.00
76.1452 731.00
76.2104 732.00
76.2756 699.00
76.3409 717.00
76.406 677.00
76.4712 672.00
76.5364 696.00
76.6016 671.00
76.6668 631.00
76.732 691.00
76.7972 648.00
76.8624 692.00
76.9276 688.00
76.9928 720.00
77.058 717.00
77.1232 769.00
77.1884 750.00
77.2536 751.00
77.3188 777.00
77.384 741.00
77.4492 767.00
77.5144 745.00
77.5796 706.00
77.6448 674.00
77.71 692.00
77.7752 677.00
77.8404 649.00
77.9056 659.00
77.9708 665.00
78.036 702.00
78.1012 691.00
78.1664 710.00
78.2316 706.00
78.2968 708.00
78.362 689.00
78.4272 755.00
78.4924 703.00
78.5576 695.00
78.6228 703.00
78.688 763.00
78.7532 849.00
78.8184 949.00
78.8836 1108.00
78.9488 1295.00
79.014 1224.00
79.0792 1166.00
79.1444 1175.00
79.2096 1163.00
79.2748 1080.00
79.34 872.00
79.4052 915.00
79.4704 903.00
79.5356 840.00
79.6008 751.00
79.666 787.00
79.7312 756.00
79.7964 756.00
79.8616 757.00
79.9268 724.00
79.992 685.00
80.0572 709.00
80.1224 707.00
80.1876 681.00
80.2528 691.00
80.318 647.00
80.3832 618.00
80.4484 667.00
80.5136 728.00
80.5788 682.00
80.644 671.00
80.7092 668.00
80.7744 702.00
80.8396 699.00
80.9048 662.00
80.9699 688.00
81.0351 676.00
81.1003 706.00
81.1655 708.00
81.2307 761.00
81.2959 748.00
81.3611 884.00
81.4263 786.00
81.4915 840.00
81.5567 807.00
81.6219 824.00
81.6871 763.00
81.7523 782.00
81.8175 769.00
81.8827 771.00
81.9479 822.00
82.0131 836.00
82.0783 809.00
82.1435 955.00
82.2087 1105.00
82.2739 973.00
82.3391 971.00
82.4043 914.00
82.4695 853.00
82.5347 890.00
82.5999 806.00
82.6651 812.00
82.7303 701.00
82.7955 658.00
82.8607 682.00
82.9259 648.00
82.9911 699.00
83.0563 702.00
83.1215 654.00
83.1867 719.00
83.2519 718.00
83.3171 704.00
83.3823 703.00
83.4475 688.00
83.5127 749.00
83.5779 716.00
83.6431 777.00
83.7083 818.00
83.7735 842.00
83.8387 959.00
83.9039 1123.00
83.9691 1149.00
84.0343 1150.00
84.0995 986.00
84.1647 1078.00
84.2299 1102.00
84.2951 990.00
84.3603 886.00
84.4255 851.00
84.4907 809.00
84.5559 815.00
84.6211 798.00
84.6863 786.00
84.7515 761.00
84.8167 805.00
84.8819 766.00
84.9471 787.00
85.0123 770.00
85.0775 745.00
85.1427 781.00
85.2079 711.00
85.2731 733.00
85.3383 770.00
85.4035 703.00
85.4687 708.00
85.5339 679.00
85.5991 737.00
85.6643 734.00
85.7295 743.00
85.7946 702.00
85.8598 764.00
85.925 664.00
85.9903 718.00
86.0554 725.00
86.1206 682.00
86.1858 657.00
86.251 669.00
86.3162 628.00
86.3814 639.00
86.4466 653.00
86.5118 718.00
86.577 628.00
86.6422 662.00
86.7074 636.00
86.7726 684.00
86.8378 704.00
86.903 722.00
86.9682 647.00
87.0334 676.00
87.0986 734.00
87.1638 725.00
87.229 761.00
87.2942 767.00
87.3594 799.00
87.4246 842.00
87.4898 879.00
87.555 845.00
87.6202 855.00
87.6854 857.00
87.7506 819.00
87.8158 786.00
87.881 727.00
87.9462 732.00
88.0114 711.00
88.0766 693.00
88.1418 651.00
88.207 746.00
88.2722 696.00
88.3374 697.00
88.4026 762.00
88.4678 708.00
88.533 757.00
88.5982 720.00
88.6634 633.00
88.7286 700.00
88.7938 694.00
88.859 696.00
88.9242 684.00
88.9894 795.00
89.0546 768.00
89.1198 737.00
89.185 750.00
89.2502 782.00
89.3154 805.00
89.3806 797.00
89.4458 786.00
89.511 776.00
89.5762 770.00
89.6414 785.00
89.7066 806.00
89.7718 857.00
89.837 860.00
89.9022 1025.00
89.9674 1081.00
90.0326 1071.00
90.0978 1070.00
90.163 1056.00
90.2282 1012.00
90.2934 1101.00
90.3586 991.00
90.4238 974.00
90.489 894.00
90.5542 891.00
90.6193 856.00
90.6845 925.00
90.7497 885.00
90.8149 868.00
90.8801 895.00
90.9453 901.00
91.0105 977.00
91.0757 1161.00
91.1409 1190.00
91.2061 1149.00
91.2713 1067.00
91.3365 1071.00
91.4017 1045.00
91.4669 932.00
91.5321 919.00
91.5973 872.00
91.6625 824.00
91.7277 775.00
91.7929 773.00
91.8581 738.00
91.9233 794.00
91.9885 746.00
92.0537 765.00
92.1189 739.00
92.1841 772.00
92.2493 755.00
92.3145 741.00
92.3797 719.00
92.4449 688.00
92.5101 665.00
92.5753 680.00
92.6405 688.00
92.7057 689.00
92.7709 642.00
92.8361 686.00
92.9013 677.00
92.9665 696.00
93.0317 706.00
93.0969 664.00
93.1621 715.00
93.2273 673.00
93.2925 687.00
93.3577 772.00
93.4229 842.00
93.4881 871.00
93.5533 864.00
93.6185 824.00
93.6837 844.00
93.7489 820.00
93.8141 830.00
93.8793 771.00
93.9445 763.00
94.0097 732.00
94.0749 687.00
94.1401 682.00
94.2053 656.00
94.2705 688.00
94.3357 647.00
94.4009 648.00
94.4661 682.00
94.5313 682.00
94.5965 683.00
94.6617 684.00
94.7269 679.00
94.7921 704.00
94.8573 683.00
94.9225 679.00
94.9877 703.00
95.0529 702.00
95.1181 761.00
95.1833 699.00
95.2485 733.00
95.3137 678.00
95.3789 736.00
95.444 674.00
95.5092 704.00
95.5744 721.00
95.6396 729.00
95.7048 729.00
95.77 712.00
95.8352 686.00
95.9004 722.00
95.9656 723.00
96.0308 796.00
96.096 781.00
96.1612 840.00
96.2264 914.00
96.2916 864.00
96.3568 786.00
96.422 852.00
96.4872 758.00
96.5524 767.00
96.6176 779.00
96.6828 790.00
96.748 750.00
96.8132 724.00
96.8784 767.00
96.9436 757.00
97.0088 782.00
97.074 743.00
97.1392 767.00
97.2044 736.00
97.2696 772.00
97.3348 750.00
97.4 747.00
97.4652 734.00
97.5304 774.00
97.5956 722.00
97.6608 743.00
97.726 750.00
97.7912 775.00
97.8564 790.00
97.9216 731.00
97.9868 770.00
98.052 747.00
98.1172 683.00
98.1824 692.00
98.2476 713.00
98.3128 708.00
98.378 624.00
98.4432 645.00
98.5084 649.00
98.5736 640.00
98.6388 646.00
98.704 668.00
98.7692 671.00
98.8344 661.00
98.8996 661.00
98.9648 654.00
99.03 657.00
99.0952 688.00
99.1604 662.00
99.2256 687.00
99.2908 633.00
99.356 677.00
99.4212 628.00
99.4864 716.00
99.5516 671.00
99.6168 712.00
99.682 666.00
99.7472 704.00
99.8124 706.00
99.8776 688.00
99.9428 661.00
100.008 658.00
100.073 676.00
100.095 687.00