File: data/xrd_creation/results/Na_118.xy
9.903433 2851.00
9.968632 2869.00
10.0338 2788.00
10.099 2765.00
10.1642 2789.00
10.2294 2652.00
10.2946 2740.00
10.3598 2571.00
10.425 2691.00
10.4902 2651.00
10.5554 2667.00
10.6206 2657.00
10.6858 2567.00
10.751 2636.00
10.8162 2672.00
10.8814 2626.00
10.9466 2689.00
11.0118 2667.00
11.077 2847.00
11.1422 3065.00
11.2074 3148.00
11.2726 3692.00
11.3378 4690.00
11.403 5991.00
11.4682 8628.00
11.5334 9178.00
11.5986 9377.00
11.6638 7125.00
11.729 5150.00
11.7942 3623.00
11.8594 2848.00
11.9246 2505.00
11.9898 2363.00
12.055 2416.00
12.1202 2297.00
12.1854 2241.00
12.2506 2279.00
12.3158 2253.00
12.381 2294.00
12.4462 2322.00
12.5114 2202.00
12.5766 2135.00
12.6418 2133.00
12.707 2143.00
12.7722 2202.00
12.8374 2161.00
12.9026 2191.00
12.9678 2047.00
13.033 2066.00
13.0982 2061.00
13.1634 2023.00
13.2286 2106.00
13.2938 2011.00
13.359 1990.00
13.4242 2040.00
13.4894 2001.00
13.5546 1987.00
13.6198 1967.00
13.685 1946.00
13.7502 1900.00
13.8154 1921.00
13.8805 1936.00
13.9457 1865.00
14.0109 1945.00
14.0761 1907.00
14.1413 1870.00
14.2065 1821.00
14.2717 1825.00
14.3369 1965.00
14.4021 1944.00
14.4673 1840.00
14.5325 1901.00
14.5977 1909.00
14.6629 2026.00
14.7281 2090.00
14.7933 2114.00
14.8585 2067.00
14.9237 1901.00
14.9889 1761.00
15.0541 1785.00
15.1193 1811.00
15.1845 1819.00
15.2497 1805.00
15.3149 1790.00
15.3801 1728.00
15.4453 1890.00
15.5105 1807.00
15.5757 1840.00
15.6409 1825.00
15.7061 1887.00
15.7713 1851.00
15.8365 1944.00
15.9017 1911.00
15.9669 2119.00
16.0321 2176.00
16.0973 2471.00
16.1625 3116.00
16.2277 4078.00
16.2929 5419.00
16.3581 5445.00
16.4233 4232.00
16.4885 3327.00
16.5537 2358.00
16.6189 2063.00
16.6841 1789.00
16.7493 1808.00
16.8145 1745.00
16.8797 1712.00
16.9449 1734.00
17.0101 1771.00
17.0753 1660.00
17.1405 1743.00
17.2057 1729.00
17.2709 1778.00
17.3361 1743.00
17.4013 1655.00
17.4665 1664.00
17.5317 1738.00
17.5969 1642.00
17.6621 1666.00
17.7273 1748.00
17.7925 1960.00
17.8577 2241.00
17.9229 2439.00
17.9881 2532.00
18.0533 2457.00
18.1185 2109.00
18.1837 2010.00
18.2489 1731.00
18.3141 1718.00
18.3793 1617.00
18.4445 1586.00
18.5097 1638.00
18.5749 1531.00
18.6401 1512.00
18.7052 1506.00
18.7704 1398.00
18.8356 1475.00
18.9008 1436.00
18.966 1416.00
19.0312 1439.00
19.0964 1457.00
19.1616 1469.00
19.2268 1493.00
19.292 1400.00
19.3572 1440.00
19.4224 1417.00
19.4876 1448.00
19.5528 1532.00
19.618 1414.00
19.6832 1373.00
19.7484 1447.00
19.8136 1386.00
19.8788 1405.00
19.944 1406.00
20.0092 1378.00
20.0744 1392.00
20.1396 1307.00
20.2048 1361.00
20.27 1327.00
20.3352 1299.00
20.4004 1337.00
20.4656 1334.00
20.5308 1345.00
20.596 1408.00
20.6612 1420.00
20.7264 1409.00
20.7916 1512.00
20.8568 1541.00
20.922 1560.00
20.9872 1587.00
21.0524 1442.00
21.1176 1378.00
21.1828 1349.00
21.248 1292.00
21.3132 1289.00
21.3784 1332.00
21.4436 1263.00
21.5088 1295.00
21.574 1285.00
21.6392 1223.00
21.7044 1336.00
21.7696 1245.00
21.8348 1208.00
21.9 1168.00
21.9652 1218.00
22.0304 1249.00
22.0956 1241.00
22.1608 1177.00
22.226 1205.00
22.2912 1216.00
22.3564 1242.00
22.4216 1216.00
22.4868 1191.00
22.552 1270.00
22.6172 1226.00
22.6824 1157.00
22.7476 1202.00
22.8128 1213.00
22.878 1266.00
22.9432 1222.00
23.0084 1251.00
23.0736 1225.00
23.1388 1281.00
23.204 1228.00
23.2692 1329.00
23.3344 1224.00
23.3996 1188.00
23.4647 1146.00
23.5299 1200.00
23.5951 1174.00
23.6603 1188.00
23.7255 1167.00
23.7907 1221.00
23.8559 1273.00
23.9211 1269.00
23.9863 1262.00
24.0515 1292.00
24.1167 1389.00
24.1819 1556.00
24.2471 1741.00
24.3123 1898.00
24.3775 1908.00
24.4427 2085.00
24.5079 2144.00
24.5731 1956.00
24.6383 1710.00
24.7035 1413.00
24.7687 1252.00
24.8339 1259.00
24.8991 1270.00
24.9643 1196.00
25.0295 1207.00
25.0947 1238.00
25.1599 1280.00
25.2251 1395.00
25.2903 1458.00
25.3555 1426.00
25.4207 1433.00
25.4859 1443.00
25.5511 1541.00
25.6163 1878.00
25.6815 2698.00
25.7467 4168.00
25.8119 5538.00
25.8771 6161.00
25.9423 6392.00
26.0075 5454.00
26.0727 3820.00
26.1379 2681.00
26.2031 1914.00
26.2683 1618.00
26.3335 1582.00
26.3987 1654.00
26.4639 2167.00
26.5291 3242.00
26.5943 5881.00
26.6595 10725.00
26.7247 10079.00
26.7899 7143.00
26.8551 4500.00
26.9203 2535.00
26.9855 1773.00
27.0507 1620.00
27.1159 1528.00
27.1811 1477.00
27.2463 1411.00
27.3115 1305.00
27.3767 1318.00
27.4419 1477.00
27.5071 1715.00
27.5723 2536.00
27.6375 3970.00
27.7027 5598.00
27.7679 5741.00
27.8331 5016.00
27.8983 4359.00
27.9635 3473.00
28.0287 2556.00
28.0939 1970.00
28.1591 1498.00
28.2243 1298.00
28.2894 1218.00
28.3546 1191.00
28.4198 1061.00
28.485 1031.00
28.5502 1069.00
28.6154 989.00
28.6806 987.00
28.7458 1020.00
28.811 980.00
28.8762 1031.00
28.9414 997.00
29.0066 947.00
29.0718 973.00
29.137 972.00
29.2022 919.00
29.2674 960.00
29.3326 945.00
29.3978 969.00
29.463 1013.00
29.5282 1056.00
29.5934 984.00
29.6586 1019.00
29.7238 1004.00
29.789 1052.00
29.8542 1240.00
29.9194 1530.00
29.9846 1915.00
30.0498 2011.00
30.115 1730.00
30.1802 1719.00
30.2454 1896.00
30.3106 1741.00
30.3758 1421.00
30.441 1201.00
30.5062 1044.00
30.5714 937.00
30.6366 960.00
30.7018 953.00
30.767 950.00
30.8322 897.00
30.8974 876.00
30.9626 907.00
31.0278 992.00
31.093 1015.00
31.1582 1065.00
31.2234 1308.00
31.2886 1669.00
31.3538 1618.00
31.419 1532.00
31.4842 1329.00
31.5494 1245.00
31.6146 1258.00
31.6798 1491.00
31.745 1631.00
31.8102 1607.00
31.8754 1437.00
31.9406 1204.00
32.0058 1001.00
32.071 929.00
32.1362 900.00
32.2014 909.00
32.2666 916.00
32.3318 1007.00
32.397 986.00
32.4622 1028.00
32.5274 1050.00
32.5926 1071.00
32.6578 1404.00
32.723 2023.00
32.7882 3857.00
32.8534 6554.00
32.9186 5788.00
32.9838 4688.00
33.0489 2745.00
33.1141 1685.00
33.1793 1243.00
33.2445 1037.00
33.3097 1032.00
33.3749 986.00
33.4401 1034.00
33.5053 1035.00
33.5705 1054.00
33.6357 1262.00
33.7009 1423.00
33.7661 1757.00
33.8313 2968.00
33.8965 5994.00
33.9617 9766.00
34.0269 8372.00
34.0921 6452.00
34.1573 4804.00
34.2225 5446.00
34.2877 7198.00
34.3529 7248.00
34.4181 5687.00
34.4833 3709.00
34.5485 2654.00
34.6137 2350.00
34.6789 2599.00
34.7441 2843.00
34.8093 2305.00
34.8745 1738.00
34.9397 1371.00
35.0049 1187.00
35.0701 1195.00
35.1353 1123.00
35.2005 1034.00
35.2657 838.00
35.3309 833.00
35.3961 769.00
35.4613 749.00
35.5265 754.00
35.5917 801.00
35.6569 734.00
35.7221 784.00
35.7873 705.00
35.8525 738.00
35.9177 822.00
35.9829 894.00
36.0481 921.00
36.1133 951.00
36.1785 1064.00
36.2437 1135.00
36.3089 1084.00
36.3741 1138.00
36.4393 1105.00
36.5045 1023.00
36.5697 1054.00
36.6349 1113.00
36.7001 1341.00
36.7653 1177.00
36.8305 1034.00
36.8957 1000.00
36.9609 1100.00
37.0261 1145.00
37.0913 1071.00
37.1565 997.00
37.2217 823.00
37.2869 828.00
37.3521 735.00
37.4173 698.00
37.4825 770.00
37.5477 849.00
37.6129 901.00
37.6781 1036.00
37.7433 996.00
37.8085 1012.00
37.8736 1075.00
37.9388 1545.00
38.004 2600.00
38.0692 2747.00
38.1344 2491.00
38.1996 1660.00
38.2648 1143.00
38.33 924.00
38.3952 752.00
38.4604 740.00
38.5256 706.00
38.5908 649.00
38.656 679.00
38.7212 641.00
38.7864 687.00
38.8516 733.00
38.9168 862.00
38.982 1021.00
39.0472 1299.00
39.1124 1166.00
39.1776 978.00
39.2428 834.00
39.308 749.00
39.3732 754.00
39.4384 729.00
39.5036 690.00
39.5688 703.00
39.634 722.00
39.6992 695.00
39.7644 629.00
39.8296 627.00
39.8948 574.00
39.96 595.00
40.0252 617.00
40.0904 608.00
40.1556 675.00
40.2208 649.00
40.286 702.00
40.3512 688.00
40.4164 706.00
40.4816 706.00
40.5468 712.00
40.612 628.00
40.6772 629.00
40.7424 636.00
40.8076 730.00
40.8728 777.00
40.938 771.00
41.0032 704.00
41.0684 681.00
41.1336 696.00
41.1988 706.00
41.264 708.00
41.3292 673.00
41.3944 691.00
41.4596 796.00
41.5248 894.00
41.59 1150.00
41.6552 1256.00
41.7204 1186.00
41.7856 1026.00
41.8508 962.00
41.916 1114.00
41.9812 1375.00
42.0464 1406.00
42.1116 1520.00
42.1768 1466.00
42.242 1340.00
42.3072 1455.00
42.3724 1315.00
42.4376 1159.00
42.5028 910.00
42.568 730.00
42.6332 743.00
42.6983 817.00
42.7635 759.00
42.8287 729.00
42.8939 645.00
42.9591 603.00
43.0243 578.00
43.0895 621.00
43.1547 668.00
43.2199 683.00
43.2851 876.00
43.3503 1066.00
43.4155 1027.00
43.4807 937.00
43.5459 909.00
43.6111 810.00
43.6763 815.00
43.7415 737.00
43.8067 658.00
43.8719 654.00
43.9371 650.00
44.0023 695.00
44.0675 651.00
44.1327 624.00
44.1979 567.00
44.2631 590.00
44.3283 644.00
44.3935 552.00
44.4587 612.00
44.5239 597.00
44.5891 581.00
44.6543 526.00
44.7195 598.00
44.7847 604.00
44.8499 721.00
44.9151 921.00
44.9803 912.00
45.0455 950.00
45.1107 887.00
45.1759 805.00
45.2411 877.00
45.3063 847.00
45.3715 768.00
45.4367 742.00
45.5019 755.00
45.5671 746.00
45.6323 706.00
45.6975 640.00
45.7627 626.00
45.8279 613.00
45.8931 586.00
45.9583 622.00
46.0235 679.00
46.0887 617.00
46.1539 634.00
46.2191 623.00
46.2843 606.00
46.3495 575.00
46.4147 591.00
46.4799 608.00
46.5451 683.00
46.6103 744.00
46.6755 711.00
46.7407 819.00
46.8059 907.00
46.8711 1011.00
46.9363 1003.00
47.0015 986.00
47.0667 1100.00
47.1319 1213.00
47.1971 1277.00
47.2623 1518.00
47.3275 2072.00
47.3927 2244.00
47.4579 1882.00
47.523 1532.00
47.5882 1056.00
47.6534 845.00
47.7186 694.00
47.7838 665.00
47.849 608.00
47.9142 552.00
47.9794 603.00
48.0446 585.00
48.1098 660.00
48.175 608.00
48.2402 609.00
48.3054 682.00
48.3706 740.00
48.4358 767.00
48.501 775.00
48.5662 816.00
48.6314 725.00
48.6966 721.00
48.7618 752.00
48.827 848.00
48.8922 1005.00
48.9574 983.00
49.0226 1008.00
49.0878 906.00
49.153 832.00
49.2182 765.00
49.2834 715.00
49.3486 690.00
49.4138 793.00
49.479 1072.00
49.5442 1386.00
49.6094 1332.00
49.6746 1366.00
49.7398 1189.00
49.805 1213.00
49.8702 1354.00
49.9354 1246.00
50.0006 1265.00
50.0658 1315.00
50.131 1457.00
50.1962 1346.00
50.2614 1215.00
50.3266 994.00
50.3918 840.00
50.457 733.00
50.5222 687.00
50.5874 638.00
50.6526 605.00
50.7178 616.00
50.783 568.00
50.8482 603.00
50.9134 574.00
50.9786 598.00
51.0438 626.00
51.109 712.00
51.1742 674.00
51.2394 689.00
51.3046 643.00
51.3698 688.00
51.435 740.00
51.5002 1031.00
51.5654 1580.00
51.6306 1804.00
51.6958 2131.00
51.761 3417.00
51.8262 6861.00
51.8914 6162.00
51.9566 5742.00
52.0218 4095.00
52.087 2266.00
52.1522 1445.00
52.2174 923.00
52.2826 751.00
52.3477 672.00
52.4129 601.00
52.4781 611.00
52.5433 505.00
52.6085 559.00
52.6737 528.00
52.7389 532.00
52.8041 603.00
52.8693 873.00
52.9345 935.00
52.9997 1017.00
53.0649 1005.00
53.1301 913.00
53.1953 887.00
53.2605 805.00
53.3257 791.00
53.3909 754.00
53.4561 742.00
53.5213 680.00
53.5865 640.00
53.6517 658.00
53.7169 736.00
53.7821 673.00
53.8473 678.00
53.9125 735.00
53.9777 618.00
54.0429 669.00
54.1081 644.00
54.1733 639.00
54.2385 711.00
54.3037 675.00
54.3689 670.00
54.4341 675.00
54.4993 670.00
54.5645 757.00
54.6297 820.00
54.6949 907.00
54.7601 1337.00
54.8253 2194.00
54.8905 1672.00
54.9557 1744.00
55.0209 1251.00
55.0861 933.00
55.1513 774.00
55.2165 804.00
55.2817 857.00
55.3469 978.00
55.4121 1096.00
55.4773 967.00
55.5425 887.00
55.6077 729.00
55.6729 656.00
55.7381 569.00
55.8033 610.00
55.8685 544.00
55.9337 619.00
55.9989 679.00
56.0641 788.00
56.1293 838.00
56.1945 757.00
56.2597 781.00
56.3249 763.00
56.3901 675.00
56.4553 616.00
56.5205 623.00
56.5857 689.00
56.6509 797.00
56.7161 838.00
56.7813 834.00
56.8465 841.00
56.9117 839.00
56.9769 784.00
57.042 786.00
57.1073 857.00
57.1724 937.00
57.2376 912.00
57.3028 818.00
57.368 760.00
57.4332 685.00
57.4984 653.00
57.5636 702.00
57.6288 688.00
57.694 706.00
57.7592 730.00
57.8244 1003.00
57.8896 1425.00
57.9548 1137.00
58.02 1226.00
58.0852 1051.00
58.1504 1013.00
58.2156 1150.00
58.2808 1346.00
58.346 1380.00
58.4112 1352.00
58.4764 1152.00
58.5416 961.00
58.6068 893.00
58.672 923.00
58.7372 827.00
58.8024 903.00
58.8676 930.00
58.9328 880.00
58.998 879.00
59.0632 911.00
59.1284 913.00
59.1936 1031.00
59.2588 1248.00
59.324 1341.00
59.3892 1628.00
59.4544 1750.00
59.5196 1767.00
59.5848 1668.00
59.65 1418.00
59.7152 1243.00
59.7804 1172.00
59.8456 1068.00
59.9108 1029.00
59.976 1218.00
60.0412 1324.00
60.1064 1181.00
60.1716 1118.00
60.2368 997.00
60.302 799.00
60.3672 726.00
60.4324 632.00
60.4976 584.00
60.5628 629.00
60.628 623.00
60.6932 653.00
60.7584 605.00
60.8236 612.00
60.8888 603.00
60.954 599.00
61.0192 539.00
61.0844 546.00
61.1496 511.00
61.2148 502.00
61.28 533.00
61.3452 541.00
61.4104 584.00
61.4756 709.00
61.5408 716.00
61.606 673.00
61.6712 679.00
61.7364 738.00
61.8016 818.00
61.8667 1010.00
61.932 1804.00
61.9971 1522.00
62.0623 1444.00
62.1275 1552.00
62.1927 1334.00
62.2579 1062.00
62.3231 920.00
62.3883 796.00
62.4535 660.00
62.5187 541.00
62.5839 591.00
62.6491 608.00
62.7143 803.00
62.7795 928.00
62.8447 925.00
62.9099 912.00
62.9751 770.00
63.0403 703.00
63.1055 570.00
63.1707 532.00
63.2359 519.00
63.3011 480.00
63.3663 499.00
63.4315 559.00
63.4967 556.00
63.5619 594.00
63.6271 604.00
63.6923 559.00
63.7575 547.00
63.8227 634.00
63.8879 638.00
63.9531 601.00
64.0183 624.00
64.0835 628.00
64.1487 666.00
64.2139 637.00
64.2791 633.00
64.3443 653.00
64.4095 602.00
64.4747 605.00
64.5399 600.00
64.6051 665.00
64.6703 916.00
64.7355 1391.00
64.8007 2178.00
64.8659 1598.00
64.9311 1421.00
64.9963 1447.00
65.0615 1027.00
65.1267 771.00
65.1919 711.00
65.2571 708.00
65.3223 700.00
65.3875 690.00
65.4527 713.00
65.5179 675.00
65.5831 747.00
65.6483 766.00
65.7135 857.00
65.7787 852.00
65.8439 901.00
65.9091 1126.00
65.9743 1742.00
66.0395 2319.00
66.1047 1801.00
66.1699 1661.00
66.2351 1455.00
66.3003 1079.00
66.3655 856.00
66.4307 684.00
66.4959 570.00
66.561 618.00
66.6263 621.00
66.6915 618.00
66.7566 566.00
66.8218 557.00
66.887 574.00
66.9522 559.00
67.0174 547.00
67.0826 562.00
67.1478 540.00
67.213 585.00
67.2782 538.00
67.3434 547.00
67.4086 543.00
67.4738 502.00
67.539 472.00
67.6042 475.00
67.6694 453.00
67.7346 536.00
67.7998 569.00
67.865 623.00
67.9302 559.00
67.9954 571.00
68.0606 548.00
68.1258 508.00
68.191 457.00
68.2562 510.00
68.3214 497.00
68.3866 551.00
68.4518 612.00
68.517 598.00
68.5822 606.00
68.6474 625.00
68.7126 658.00
68.7778 690.00
68.843 597.00
68.9082 520.00
68.9734 550.00
69.0386 509.00
69.1038 542.00
69.169 509.00
69.2342 491.00
69.2994 443.00
69.3646 402.00
69.4298 470.00
69.495 452.00
69.5602 496.00
69.6254 435.00
69.6906 497.00
69.7558 412.00
69.821 454.00
69.8862 402.00
69.9514 416.00
70.0166 408.00
70.0818 412.00
70.147 425.00
70.2122 402.00
70.2774 423.00
70.3426 388.00
70.4078 425.00
70.473 362.00
70.5382 366.00
70.6034 442.00
70.6686 446.00
70.7338 417.00
70.799 455.00
70.8642 458.00
70.9294 432.00
70.9946 453.00
71.0598 444.00
71.125 456.00
71.1902 493.00
71.2554 630.00
71.3205 1066.00
71.3858 941.00
71.451 720.00
71.5162 860.00
71.5813 756.00
71.6465 533.00
71.7117 484.00
71.7769 459.00
71.8421 480.00
71.9073 506.00
71.9725 559.00
72.0377 580.00
72.1029 634.00
72.1681 685.00
72.2333 635.00
72.2985 581.00
72.3637 567.00
72.4289 492.00
72.4941 470.00
72.5593 428.00
72.6245 397.00
72.6897 393.00
72.7549 382.00
72.8201 376.00
72.8853 389.00
72.9505 396.00
73.0157 478.00
73.0809 531.00
73.1461 607.00
73.2113 631.00
73.2765 632.00
73.3417 582.00
73.4069 543.00
73.4721 517.00
73.5373 486.00
73.6025 414.00
73.6677 466.00
73.7329 415.00
73.7981 378.00
73.8633 390.00
73.9285 397.00
73.9937 439.00
74.0589 460.00
74.1241 411.00
74.1893 453.00
74.2545 508.00
74.3197 525.00
74.3849 527.00
74.4501 491.00
74.5153 514.00
74.5805 506.00
74.6457 435.00
74.7109 430.00
74.7761 393.00
74.8413 395.00
74.9065 438.00
74.9717 432.00
75.0369 448.00
75.1021 436.00
75.1673 461.00
75.2325 534.00
75.2977 443.00
75.3629 460.00
75.4281 407.00
75.4933 370.00
75.5585 402.00
75.6237 370.00
75.6889 378.00
75.7541 377.00
75.8193 406.00
75.8845 416.00
75.9497 448.00
76.0149 483.00
76.0801 445.00
76.1452 453.00
76.2104 461.00
76.2756 434.00
76.3409 418.00
76.406 444.00
76.4712 431.00
76.5364 392.00
76.6016 451.00
76.6668 459.00
76.732 470.00
76.7972 457.00
76.8624 424.00
76.9276 512.00
76.9928 558.00
77.058 516.00
77.1232 527.00
77.1884 504.00
77.2536 576.00
77.3188 494.00
77.384 473.00
77.4492 430.00
77.5144 400.00
77.5796 403.00
77.6448 384.00
77.71 383.00
77.7752 420.00
77.8404 425.00
77.9056 454.00
77.9708 433.00
78.036 445.00
78.1012 423.00
78.1664 413.00
78.2316 366.00
78.2968 422.00
78.362 413.00
78.4272 488.00
78.4924 498.00
78.5576 582.00
78.6228 678.00
78.688 1088.00
78.7532 1666.00
78.8184 1393.00
78.8836 1072.00
78.9488 1036.00
79.014 1132.00
79.0792 797.00
79.1444 665.00
79.2096 542.00
79.2748 529.00
79.34 464.00
79.4052 473.00
79.4704 402.00
79.5356 439.00
79.6008 423.00
79.666 382.00
79.7312 373.00
79.7964 419.00
79.8616 422.00
79.9268 446.00
79.992 503.00
80.0572 489.00
80.1224 464.00
80.1876 467.00
80.2528 451.00
80.318 462.00
80.3832 497.00
80.4484 446.00
80.5136 413.00
80.5788 410.00
80.644 457.00
80.7092 451.00
80.7744 445.00
80.8396 446.00
80.9048 479.00
80.9699 473.00
81.0351 462.00
81.1003 545.00
81.1655 636.00
81.2307 660.00
81.2959 549.00
81.3611 578.00
81.4263 609.00
81.4915 596.00
81.5567 521.00
81.6219 486.00
81.6871 441.00
81.7523 416.00
81.8175 449.00
81.8827 420.00
81.9479 366.00
82.0131 400.00
82.0783 345.00
82.1435 361.00
82.2087 380.00
82.2739 367.00
82.3391 373.00
82.4043 402.00
82.4695 446.00
82.5347 469.00
82.5999 484.00
82.6651 477.00
82.7303 398.00
82.7955 430.00
82.8607 420.00
82.9259 403.00
82.9911 379.00
83.0563 407.00
83.1215 378.00
83.1867 410.00
83.2519 440.00
83.3171 458.00
83.3823 436.00
83.4475 453.00
83.5127 516.00
83.5779 525.00
83.6431 570.00
83.7083 868.00
83.7735 1226.00
83.8387 945.00
83.9039 704.00
83.9691 746.00
84.0343 794.00
84.0995 591.00
84.1647 506.00
84.2299 443.00
84.2951 448.00
84.3603 404.00
84.4255 459.00
84.4907 477.00
84.5559 465.00
84.6211 472.00
84.6863 468.00
84.7515 462.00
84.8167 478.00
84.8819 458.00
84.9471 478.00
85.0123 521.00
85.0775 493.00
85.1427 425.00
85.2079 428.00
85.2731 469.00
85.3383 407.00
85.4035 408.00
85.4687 416.00
85.5339 401.00
85.5991 435.00
85.6643 472.00
85.7295 417.00
85.7946 434.00
85.8598 450.00
85.925 511.00
85.9903 538.00
86.0554 492.00
86.1206 421.00
86.1858 494.00
86.251 505.00
86.3162 478.00
86.3814 465.00
86.4466 483.00
86.5118 466.00
86.577 411.00
86.6422 438.00
86.7074 441.00
86.7726 471.00
86.8378 461.00
86.903 505.00
86.9682 484.00
87.0334 509.00
87.0986 498.00
87.1638 514.00
87.229 633.00
87.2942 770.00
87.3594 650.00
87.4246 550.00
87.4898 527.00
87.555 627.00
87.6202 524.00
87.6854 445.00
87.7506 442.00
87.8158 380.00
87.881 387.00
87.9462 380.00
88.0114 397.00
88.0766 407.00
88.1418 384.00
88.207 423.00
88.2722 462.00
88.3374 448.00
88.4026 465.00
88.4678 488.00
88.533 501.00
88.5982 505.00
88.6634 445.00
88.7286 473.00
88.7938 444.00
88.859 383.00
88.9242 393.00
88.9894 498.00
89.0546 438.00
89.1198 438.00
89.185 473.00
89.2502 490.00
89.3154 461.00
89.3806 514.00
89.4458 498.00
89.511 492.00
89.5762 478.00
89.6414 538.00
89.7066 630.00
89.7718 857.00
89.837 1326.00
89.9022 954.00
89.9674 761.00
90.0326 686.00
90.0978 888.00
90.163 772.00
90.2282 682.00
90.2934 611.00
90.3586 560.00
90.4238 525.00
90.489 485.00
90.5542 479.00
90.6193 500.00
90.6845 501.00
90.7497 503.00
90.8149 568.00
90.8801 847.00
90.9453 1191.00
91.0105 1070.00
91.0757 769.00
91.1409 688.00
91.2061 859.00
91.2713 813.00
91.3365 652.00
91.4017 533.00
91.4669 550.00
91.5321 543.00
91.5973 516.00
91.6625 461.00
91.7277 503.00
91.7929 476.00
91.8581 482.00
91.9233 491.00
91.9885 475.00
92.0537 461.00
92.1189 431.00
92.1841 437.00
92.2493 458.00
92.3145 444.00
92.3797 421.00
92.4449 450.00
92.5101 442.00
92.5753 450.00
92.6405 462.00
92.7057 421.00
92.7709 452.00
92.8361 412.00
92.9013 443.00
92.9665 401.00
93.0317 408.00
93.0969 374.00
93.1621 429.00
93.2273 510.00
93.2925 662.00
93.3577 816.00
93.4229 622.00
93.4881 578.00
93.5533 516.00
93.6185 557.00
93.6837 556.00
93.7489 450.00
93.8141 385.00
93.8793 392.00
93.9445 365.00
94.0097 362.00
94.0749 427.00
94.1401 409.00
94.2053 372.00
94.2705 377.00
94.3357 417.00
94.4009 367.00
94.4661 353.00
94.5313 375.00
94.5965 381.00
94.6617 373.00
94.7269 327.00
94.7921 368.00
94.8573 352.00
94.9225 341.00
94.9877 367.00
95.0529 350.00
95.1181 393.00
95.1833 381.00
95.2485 385.00
95.3137 417.00
95.3789 400.00
95.444 398.00
95.5092 408.00
95.5744 428.00
95.6396 477.00
95.7048 446.00
95.77 484.00
95.8352 483.00
95.9004 504.00
95.9656 566.00
96.0308 808.00
96.096 818.00
96.1612 580.00
96.2264 553.00
96.2916 511.00
96.3568 591.00
96.422 527.00
96.4872 488.00
96.5524 465.00
96.6176 414.00
96.6828 453.00
96.748 493.00
96.8132 440.00
96.8784 522.00
96.9436 503.00
97.0088 516.00
97.074 492.00
97.1392 527.00
97.2044 518.00
97.2696 515.00
97.3348 566.00
97.4 500.00
97.4652 452.00
97.5304 449.00
97.5956 440.00
97.6608 436.00
97.726 473.00
97.7912 433.00
97.8564 426.00
97.9216 427.00
97.9868 365.00
98.052 422.00
98.1172 413.00
98.1824 419.00
98.2476 382.00
98.3128 415.00
98.378 409.00
98.4432 394.00
98.5084 431.00
98.5736 390.00
98.6388 431.00
98.704 403.00
98.7692 374.00
98.8344 384.00
98.8996 376.00
98.9648 366.00
99.03 365.00
99.0952 389.00
99.1604 394.00
99.2256 399.00
99.2908 439.00
99.356 471.00
99.4212 449.00
99.4864 458.00
99.5516 461.00
99.6168 498.00
99.682 529.00
99.7472 490.00
99.8124 454.00
99.8776 452.00
99.9428 462.00
100.008 407.00
100.073 440.00
100.095 419.00