File: data/xrd_creation/results/Na_140.xy
9.903433 2694.00
9.968632 2656.00
10.0338 2699.00
10.099 2461.00
10.1642 2544.00
10.2294 2534.00
10.2946 2582.00
10.3598 2560.00
10.425 2517.00
10.4902 2517.00
10.5554 2480.00
10.6206 2511.00
10.6858 2472.00
10.751 2383.00
10.8162 2305.00
10.8814 2346.00
10.9466 2408.00
11.0118 2298.00
11.077 2265.00
11.1422 2296.00
11.2074 2337.00
11.2726 2199.00
11.3378 2254.00
11.403 2256.00
11.4682 2271.00
11.5334 2245.00
11.5986 2154.00
11.6638 2148.00
11.729 2145.00
11.7942 2136.00
11.8594 2060.00
11.9246 2120.00
11.9898 2024.00
12.055 1997.00
12.1202 2008.00
12.1854 2042.00
12.2506 2024.00
12.3158 1991.00
12.381 1904.00
12.4462 1978.00
12.5114 1966.00
12.5766 1966.00
12.6418 1892.00
12.707 1954.00
12.7722 1866.00
12.8374 1849.00
12.9026 1918.00
12.9678 1824.00
13.033 1890.00
13.0982 1864.00
13.1634 1805.00
13.2286 1848.00
13.2938 1782.00
13.359 1778.00
13.4242 1744.00
13.4894 1737.00
13.5546 1753.00
13.6198 1781.00
13.685 1706.00
13.7502 1714.00
13.8154 1747.00
13.8805 1711.00
13.9457 1795.00
14.0109 1722.00
14.0761 1799.00
14.1413 1698.00
14.2065 1672.00
14.2717 1709.00
14.3369 1776.00
14.4021 1764.00
14.4673 1754.00
14.5325 1648.00
14.5977 1674.00
14.6629 1661.00
14.7281 1683.00
14.7933 1708.00
14.8585 1644.00
14.9237 1720.00
14.9889 1561.00
15.0541 1640.00
15.1193 1583.00
15.1845 1671.00
15.2497 1595.00
15.3149 1655.00
15.3801 1614.00
15.4453 1690.00
15.5105 1640.00
15.5757 1643.00
15.6409 1592.00
15.7061 1689.00
15.7713 1582.00
15.8365 1644.00
15.9017 1539.00
15.9669 1635.00
16.0321 1576.00
16.0973 1533.00
16.1625 1565.00
16.2277 1563.00
16.2929 1617.00
16.3581 1577.00
16.4233 1453.00
16.4885 1547.00
16.5537 1499.00
16.6189 1536.00
16.6841 1471.00
16.7493 1485.00
16.8145 1446.00
16.8797 1455.00
16.9449 1485.00
17.0101 1517.00
17.0753 1502.00
17.1405 1489.00
17.2057 1448.00
17.2709 1480.00
17.3361 1445.00
17.4013 1468.00
17.4665 1507.00
17.5317 1410.00
17.5969 1471.00
17.6621 1487.00
17.7273 1465.00
17.7925 1449.00
17.8577 1432.00
17.9229 1467.00
17.9881 1455.00
18.0533 1394.00
18.1185 1350.00
18.1837 1464.00
18.2489 1390.00
18.3141 1386.00
18.3793 1396.00
18.4445 1384.00
18.5097 1397.00
18.5749 1328.00
18.6401 1404.00
18.7052 1445.00
18.7704 1433.00
18.8356 1373.00
18.9008 1434.00
18.966 1421.00
19.0312 1412.00
19.0964 1420.00
19.1616 1313.00
19.2268 1438.00
19.292 1388.00
19.3572 1426.00
19.4224 1376.00
19.4876 1423.00
19.5528 1370.00
19.618 1392.00
19.6832 1336.00
19.7484 1333.00
19.8136 1352.00
19.8788 1341.00
19.944 1309.00
20.0092 1262.00
20.0744 1280.00
20.1396 1281.00
20.2048 1270.00
20.27 1279.00
20.3352 1294.00
20.4004 1226.00
20.4656 1228.00
20.5308 1289.00
20.596 1229.00
20.6612 1187.00
20.7264 1251.00
20.7916 1258.00
20.8568 1191.00
20.922 1298.00
20.9872 1227.00
21.0524 1189.00
21.1176 1178.00
21.1828 1192.00
21.248 1224.00
21.3132 1138.00
21.3784 1157.00
21.4436 1154.00
21.5088 1117.00
21.574 1128.00
21.6392 1188.00
21.7044 1243.00
21.7696 1232.00
21.8348 1199.00
21.9 1180.00
21.9652 1201.00
22.0304 1245.00
22.0956 1278.00
22.1608 1266.00
22.226 1244.00
22.2912 1358.00
22.3564 1331.00
22.4216 1332.00
22.4868 1371.00
22.552 1333.00
22.6172 1407.00
22.6824 1369.00
22.7476 1314.00
22.8128 1344.00
22.878 1287.00
22.9432 1254.00
23.0084 1248.00
23.0736 1140.00
23.1388 1154.00
23.204 1236.00
23.2692 1177.00
23.3344 1137.00
23.3996 1086.00
23.4647 1074.00
23.5299 1102.00
23.5951 1107.00
23.6603 1033.00
23.7255 1049.00
23.7907 1071.00
23.8559 1130.00
23.9211 1083.00
23.9863 1017.00
24.0515 1040.00
24.1167 1057.00
24.1819 1056.00
24.2471 1069.00
24.3123 1045.00
24.3775 1054.00
24.4427 1074.00
24.5079 1100.00
24.5731 977.00
24.6383 1050.00
24.7035 1074.00
24.7687 1000.00
24.8339 992.00
24.8991 1044.00
24.9643 1087.00
25.0295 999.00
25.0947 1085.00
25.1599 1016.00
25.2251 1048.00
25.2903 1066.00
25.3555 1062.00
25.4207 1029.00
25.4859 973.00
25.5511 1017.00
25.6163 974.00
25.6815 1047.00
25.7467 984.00
25.8119 1055.00
25.8771 1071.00
25.9423 1064.00
26.0075 1041.00
26.0727 1039.00
26.1379 1158.00
26.2031 1094.00
26.2683 1113.00
26.3335 1160.00
26.3987 1252.00
26.4639 1403.00
26.5291 1589.00
26.5943 1985.00
26.6595 2519.00
26.7247 3818.00
26.7899 5978.00
26.8551 8595.00
26.9203 10153.00
26.9855 7129.00
27.0507 3978.00
27.1159 2387.00
27.1811 1669.00
27.2463 1416.00
27.3115 1264.00
27.3767 1172.00
27.4419 1067.00
27.5071 1020.00
27.5723 996.00
27.6375 1035.00
27.7027 990.00
27.7679 968.00
27.8331 919.00
27.8983 960.00
27.9635 943.00
28.0287 975.00
28.0939 912.00
28.1591 951.00
28.2243 944.00
28.2894 900.00
28.3546 906.00
28.4198 896.00
28.485 915.00
28.5502 916.00
28.6154 881.00
28.6806 880.00
28.7458 871.00
28.811 901.00
28.8762 823.00
28.9414 900.00
29.0066 901.00
29.0718 849.00
29.137 801.00
29.2022 805.00
29.2674 834.00
29.3326 869.00
29.3978 802.00
29.463 849.00
29.5282 820.00
29.5934 835.00
29.6586 864.00
29.7238 808.00
29.789 839.00
29.8542 844.00
29.9194 771.00
29.9846 780.00
30.0498 769.00
30.115 769.00
30.1802 795.00
30.2454 731.00
30.3106 780.00
30.3758 738.00
30.441 769.00
30.5062 840.00
30.5714 790.00
30.6366 790.00
30.7018 779.00
30.767 759.00
30.8322 819.00
30.8974 771.00
30.9626 804.00
31.0278 755.00
31.093 708.00
31.1582 784.00
31.2234 765.00
31.2886 779.00
31.3538 743.00
31.419 732.00
31.4842 765.00
31.5494 799.00
31.6146 747.00
31.6798 793.00
31.745 780.00
31.8102 812.00
31.8754 796.00
31.9406 814.00
32.0058 778.00
32.071 792.00
32.1362 798.00
32.2014 788.00
32.2666 782.00
32.3318 800.00
32.397 741.00
32.4622 711.00
32.5274 756.00
32.5926 744.00
32.6578 735.00
32.723 710.00
32.7882 728.00
32.8534 736.00
32.9186 756.00
32.9838 810.00
33.0489 770.00
33.1141 784.00
33.1793 831.00
33.2445 834.00
33.3097 781.00
33.3749 818.00
33.4401 803.00
33.5053 868.00
33.5705 911.00
33.6357 895.00
33.7009 960.00
33.7661 1054.00
33.8313 1263.00
33.8965 1610.00
33.9617 2145.00
34.0269 3485.00
34.0921 5781.00
34.1573 8508.00
34.2225 8352.00
34.2877 5677.00
34.3529 3254.00
34.4181 1917.00
34.4833 1456.00
34.5485 1131.00
34.6137 961.00
34.6789 869.00
34.7441 805.00
34.8093 758.00
34.8745 795.00
34.9397 783.00
35.0049 730.00
35.0701 690.00
35.1353 704.00
35.2005 715.00
35.2657 702.00
35.3309 657.00
35.3961 656.00
35.4613 666.00
35.5265 719.00
35.5917 660.00
35.6569 658.00
35.7221 635.00
35.7873 668.00
35.8525 588.00
35.9177 636.00
35.9829 653.00
36.0481 660.00
36.1133 656.00
36.1785 679.00
36.2437 617.00
36.3089 614.00
36.3741 628.00
36.4393 588.00
36.5045 638.00
36.5697 652.00
36.6349 631.00
36.7001 653.00
36.7653 627.00
36.8305 693.00
36.8957 591.00
36.9609 676.00
37.0261 650.00
37.0913 678.00
37.1565 677.00
37.2217 720.00
37.2869 694.00
37.3521 699.00
37.4173 718.00
37.4825 741.00
37.5477 750.00
37.6129 762.00
37.6781 727.00
37.7433 783.00
37.8085 789.00
37.8736 855.00
37.9388 911.00
38.004 955.00
38.0692 1244.00
38.1344 1705.00
38.1996 2430.00
38.2648 3034.00
38.33 2515.00
38.3952 1876.00
38.4604 1189.00
38.5256 929.00
38.5908 778.00
38.656 739.00
38.7212 678.00
38.7864 670.00
38.8516 649.00
38.9168 662.00
38.982 628.00
39.0472 683.00
39.1124 676.00
39.1776 815.00
39.2428 970.00
39.308 1075.00
39.3732 928.00
39.4384 742.00
39.5036 658.00
39.5688 586.00
39.634 622.00
39.6992 582.00
39.7644 559.00
39.8296 531.00
39.8948 548.00
39.96 554.00
40.0252 570.00
40.0904 585.00
40.1556 570.00
40.2208 582.00
40.286 507.00
40.3512 565.00
40.4164 553.00
40.4816 536.00
40.5468 516.00
40.612 533.00
40.6772 554.00
40.7424 513.00
40.8076 524.00
40.8728 534.00
40.938 517.00
41.0032 510.00
41.0684 494.00
41.1336 469.00
41.1988 522.00
41.264 548.00
41.3292 542.00
41.3944 499.00
41.4596 488.00
41.5248 490.00
41.59 542.00
41.6552 503.00
41.7204 510.00
41.7856 524.00
41.8508 502.00
41.916 478.00
41.9812 498.00
42.0464 506.00
42.1116 486.00
42.1768 493.00
42.242 480.00
42.3072 511.00
42.3724 539.00
42.4376 489.00
42.5028 542.00
42.568 513.00
42.6332 485.00
42.6983 532.00
42.7635 536.00
42.8287 572.00
42.8939 580.00
42.9591 611.00
43.0243 582.00
43.0895 544.00
43.1547 551.00
43.2199 516.00
43.2851 526.00
43.3503 451.00
43.4155 500.00
43.4807 484.00
43.5459 482.00
43.6111 476.00
43.6763 434.00
43.7415 451.00
43.8067 455.00
43.8719 434.00
43.9371 436.00
44.0023 469.00
44.0675 474.00
44.1327 472.00
44.1979 476.00
44.2631 508.00
44.3283 445.00
44.3935 441.00
44.4587 446.00
44.5239 461.00
44.5891 472.00
44.6543 439.00
44.7195 472.00
44.7847 472.00
44.8499 442.00
44.9151 463.00
44.9803 441.00
45.0455 461.00
45.1107 468.00
45.1759 492.00
45.2411 491.00
45.3063 469.00
45.3715 469.00
45.4367 507.00
45.5019 458.00
45.5671 429.00
45.6323 467.00
45.6975 454.00
45.7627 485.00
45.8279 488.00
45.8931 519.00
45.9583 429.00
46.0235 450.00
46.0887 425.00
46.1539 405.00
46.2191 429.00
46.2843 457.00
46.3495 430.00
46.4147 470.00
46.4799 454.00
46.5451 428.00
46.6103 457.00
46.6755 442.00
46.7407 491.00
46.8059 496.00
46.8711 466.00
46.9363 526.00
47.0015 474.00
47.0667 435.00
47.1319 471.00
47.1971 419.00
47.2623 446.00
47.3275 467.00
47.3927 445.00
47.4579 395.00
47.523 471.00
47.5882 404.00
47.6534 443.00
47.7186 442.00
47.7838 433.00
47.849 465.00
47.9142 401.00
47.9794 452.00
48.0446 419.00
48.1098 445.00
48.175 457.00
48.2402 481.00
48.3054 406.00
48.3706 366.00
48.4358 400.00
48.501 418.00
48.5662 402.00
48.6314 434.00
48.6966 455.00
48.7618 418.00
48.827 414.00
48.8922 458.00
48.9574 458.00
49.0226 430.00
49.0878 441.00
49.153 410.00
49.2182 417.00
49.2834 411.00
49.3486 460.00
49.4138 440.00
49.479 418.00
49.5442 441.00
49.6094 493.00
49.6746 466.00
49.7398 474.00
49.805 446.00
49.8702 445.00
49.9354 445.00
50.0006 501.00
50.0658 459.00
50.131 471.00
50.1962 530.00
50.2614 469.00
50.3266 528.00
50.3918 464.00
50.457 465.00
50.5222 490.00
50.5874 458.00
50.6526 480.00
50.7178 529.00
50.783 500.00
50.8482 491.00
50.9134 512.00
50.9786 511.00
51.0438 547.00
51.109 507.00
51.1742 523.00
51.2394 550.00
51.3046 571.00
51.3698 590.00
51.435 627.00
51.5002 689.00
51.5654 769.00
51.6306 795.00
51.6958 935.00
51.761 1088.00
51.8262 1537.00
51.8914 2328.00
51.9566 4232.00
52.0218 6921.00
52.087 7532.00
52.1522 6227.00
52.2174 4928.00
52.2826 2865.00
52.3477 1753.00
52.4129 1161.00
52.4781 963.00
52.5433 769.00
52.6085 646.00
52.6737 589.00
52.7389 555.00
52.8041 548.00
52.8693 520.00
52.9345 505.00
52.9997 513.00
53.0649 509.00
53.1301 511.00
53.1953 459.00
53.2605 424.00
53.3257 483.00
53.3909 454.00
53.4561 459.00
53.5213 433.00
53.5865 472.00
53.6517 436.00
53.7169 421.00
53.7821 440.00
53.8473 460.00
53.9125 409.00
53.9777 405.00
54.0429 444.00
54.1081 437.00
54.1733 461.00
54.2385 440.00
54.3037 459.00
54.3689 490.00
54.4341 480.00
54.4993 523.00
54.5645 517.00
54.6297 484.00
54.6949 581.00
54.7601 638.00
54.8253 690.00
54.8905 1013.00
54.9557 1467.00
55.0209 2107.00
55.0861 2011.00
55.1513 1619.00
55.2165 1390.00
55.2817 924.00
55.3469 719.00
55.4121 614.00
55.4773 511.00
55.5425 484.00
55.6077 485.00
55.6729 487.00
55.7381 418.00
55.8033 421.00
55.8685 414.00
55.9337 435.00
55.9989 435.00
56.0641 428.00
56.1293 422.00
56.1945 411.00
56.2597 429.00
56.3249 431.00
56.3901 425.00
56.4553 431.00
56.5205 444.00
56.5857 407.00
56.6509 446.00
56.7161 463.00
56.7813 460.00
56.8465 424.00
56.9117 451.00
56.9769 455.00
57.042 430.00
57.1073 412.00
57.1724 449.00
57.2376 404.00
57.3028 426.00
57.368 432.00
57.4332 430.00
57.4984 462.00
57.5636 450.00
57.6288 418.00
57.694 455.00
57.7592 488.00
57.8244 492.00
57.8896 608.00
57.9548 736.00
58.02 935.00
58.0852 1159.00
58.1504 1119.00
58.2156 978.00
58.2808 863.00
58.346 616.00
58.4112 572.00
58.4764 496.00
58.5416 462.00
58.6068 434.00
58.672 430.00
58.7372 394.00
58.8024 409.00
58.8676 391.00
58.9328 435.00
58.998 419.00
59.0632 446.00
59.1284 422.00
59.1936 431.00
59.2588 392.00
59.324 374.00
59.3892 371.00
59.4544 383.00
59.5196 418.00
59.5848 444.00
59.65 418.00
59.7152 423.00
59.7804 405.00
59.8456 425.00
59.9108 425.00
59.976 434.00
60.0412 482.00
60.1064 388.00
60.1716 387.00
60.2368 406.00
60.302 382.00
60.3672 481.00
60.4324 435.00
60.4976 425.00
60.5628 408.00
60.628 443.00
60.6932 406.00
60.7584 456.00
60.8236 451.00
60.8888 406.00
60.954 408.00
61.0192 456.00
61.0844 406.00
61.1496 409.00
61.2148 433.00
61.28 417.00
61.3452 433.00
61.4104 420.00
61.4756 399.00
61.5408 414.00
61.606 448.00
61.6712 466.00
61.7364 439.00
61.8016 503.00
61.8667 553.00
61.932 661.00
61.9971 928.00
62.0623 1333.00
62.1275 1790.00
62.1927 1751.00
62.2579 1493.00
62.3231 1368.00
62.3883 1078.00
62.4535 808.00
62.5187 602.00
62.5839 515.00
62.6491 500.00
62.7143 452.00
62.7795 437.00
62.8447 449.00
62.9099 426.00
62.9751 408.00
63.0403 412.00
63.1055 420.00
63.1707 400.00
63.2359 428.00
63.3011 369.00
63.3663 396.00
63.4315 427.00
63.4967 380.00
63.5619 372.00
63.6271 395.00
63.6923 409.00
63.7575 345.00
63.8227 400.00
63.8879 394.00
63.9531 417.00
64.0183 400.00
64.0835 421.00
64.1487 379.00
64.2139 443.00
64.2791 430.00
64.3443 429.00
64.4095 429.00
64.4747 459.00
64.5399 451.00
64.6051 496.00
64.6703 547.00
64.7355 633.00
64.8007 818.00
64.8659 1074.00
64.9311 1529.00
64.9963 1885.00
65.0615 1732.00
65.1267 1432.00
65.1919 1313.00
65.2571 985.00
65.3223 751.00
65.3875 637.00
65.4527 538.00
65.5179 477.00
65.5831 504.00
65.6483 466.00
65.7135 513.00
65.7787 519.00
65.8439 506.00
65.9091 618.00
65.9743 733.00
66.0395 894.00
66.1047 1271.00
66.1699 1941.00
66.2351 2239.00
66.3003 1977.00
66.3655 1770.00
66.4307 1493.00
66.4959 1073.00
66.561 826.00
66.6263 660.00
66.6915 549.00
66.7566 483.00
66.8218 466.00
66.887 434.00
66.9522 460.00
67.0174 379.00
67.0826 395.00
67.1478 362.00
67.213 380.00
67.2782 341.00
67.3434 342.00
67.4086 373.00
67.4738 352.00
67.539 388.00
67.6042 360.00
67.6694 364.00
67.7346 360.00
67.7998 359.00
67.865 333.00
67.9302 355.00
67.9954 348.00
68.0606 350.00
68.1258 346.00
68.191 308.00
68.2562 347.00
68.3214 338.00
68.3866 323.00
68.4518 339.00
68.517 346.00
68.5822 378.00
68.6474 358.00
68.7126 330.00
68.7778 361.00
68.843 359.00
68.9082 380.00
68.9734 332.00
69.0386 361.00
69.1038 350.00
69.169 384.00
69.2342 366.00
69.2994 351.00
69.3646 369.00
69.4298 357.00
69.495 387.00
69.5602 389.00
69.6254 345.00
69.6906 358.00
69.7558 361.00
69.821 340.00
69.8862 379.00
69.9514 338.00
70.0166 343.00
70.0818 385.00
70.147 337.00
70.2122 371.00
70.2774 370.00
70.3426 351.00
70.4078 351.00
70.473 365.00
70.5382 364.00
70.6034 325.00
70.6686 357.00
70.7338 370.00
70.799 349.00
70.8642 368.00
70.9294 362.00
70.9946 367.00
71.0598 412.00
71.125 352.00
71.1902 418.00
71.2554 456.00
71.3205 494.00
71.3858 683.00
71.451 880.00
71.5162 1172.00
71.5813 1061.00
71.6465 916.00
71.7117 856.00
71.7769 755.00
71.8421 584.00
71.9073 464.00
71.9725 432.00
72.0377 387.00
72.1029 384.00
72.1681 395.00
72.2333 354.00
72.2985 349.00
72.3637 314.00
72.4289 314.00
72.4941 319.00
72.5593 336.00
72.6245 332.00
72.6897 346.00
72.7549 358.00
72.8201 326.00
72.8853 284.00
72.9505 311.00
73.0157 327.00
73.0809 318.00
73.1461 343.00
73.2113 317.00
73.2765 319.00
73.3417 353.00
73.4069 354.00
73.4721 333.00
73.5373 305.00
73.6025 317.00
73.6677 328.00
73.7329 305.00
73.7981 308.00
73.8633 294.00
73.9285 300.00
73.9937 322.00
74.0589 323.00
74.1241 327.00
74.1893 321.00
74.2545 327.00
74.3197 367.00
74.3849 307.00
74.4501 310.00
74.5153 296.00
74.5805 351.00
74.6457 364.00
74.7109 322.00
74.7761 340.00
74.8413 322.00
74.9065 309.00
74.9717 328.00
75.0369 344.00
75.1021 316.00
75.1673 309.00
75.2325 322.00
75.2977 330.00
75.3629 339.00
75.4281 286.00
75.4933 310.00
75.5585 342.00
75.6237 287.00
75.6889 302.00
75.7541 311.00
75.8193 323.00
75.8845 301.00
75.9497 342.00
76.0149 334.00
76.0801 314.00
76.1452 317.00
76.2104 341.00
76.2756 302.00
76.3409 314.00
76.406 311.00
76.4712 292.00
76.5364 322.00
76.6016 315.00
76.6668 312.00
76.732 304.00
76.7972 303.00
76.8624 283.00
76.9276 347.00
76.9928 303.00
77.058 317.00
77.1232 329.00
77.1884 306.00
77.2536 323.00
77.3188 334.00
77.384 317.00
77.4492 311.00
77.5144 320.00
77.5796 331.00
77.6448 327.00
77.71 295.00
77.7752 361.00
77.8404 326.00
77.9056 336.00
77.9708 322.00
78.036 354.00
78.1012 296.00
78.1664 366.00
78.2316 318.00
78.2968 354.00
78.362 334.00
78.4272 363.00
78.4924 331.00
78.5576 426.00
78.6228 442.00
78.688 493.00
78.7532 601.00
78.8184 839.00
78.8836 1223.00
78.9488 1597.00
79.014 1388.00
79.0792 1071.00
79.1444 1161.00
79.2096 1082.00
79.2748 796.00
79.34 604.00
79.4052 523.00
79.4704 430.00
79.5356 425.00
79.6008 376.00
79.666 357.00
79.7312 332.00
79.7964 335.00
79.8616 330.00
79.9268 345.00
79.992 346.00
80.0572 316.00
80.1224 328.00
80.1876 307.00
80.2528 356.00
80.318 350.00
80.3832 322.00
80.4484 306.00
80.5136 314.00
80.5788 334.00
80.644 330.00
80.7092 318.00
80.7744 336.00
80.8396 329.00
80.9048 378.00
80.9699 349.00
81.0351 345.00
81.1003 363.00
81.1655 452.00
81.2307 451.00
81.2959 533.00
81.3611 644.00
81.4263 584.00
81.4915 603.00
81.5567 532.00
81.6219 548.00
81.6871 446.00
81.7523 415.00
81.8175 425.00
81.8827 331.00
81.9479 370.00
82.0131 347.00
82.0783 295.00
82.1435 315.00
82.2087 340.00
82.2739 295.00
82.3391 291.00
82.4043 299.00
82.4695 268.00
82.5347 322.00
82.5999 307.00
82.6651 301.00
82.7303 282.00
82.7955 257.00
82.8607 319.00
82.9259 323.00
82.9911 316.00
83.0563 313.00
83.1215 354.00
83.1867 305.00
83.2519 353.00
83.3171 289.00
83.3823 332.00
83.4475 334.00
83.5127 358.00
83.5779 386.00
83.6431 390.00
83.7083 462.00
83.7735 599.00
83.8387 761.00
83.9039 1128.00
83.9691 1116.00
84.0343 933.00
84.0995 870.00
84.1647 861.00
84.2299 797.00
84.2951 663.00
84.3603 479.00
84.4255 415.00
84.4907 339.00
84.5559 371.00
84.6211 344.00
84.6863 337.00
84.7515 332.00
84.8167 315.00
84.8819 318.00
84.9471 322.00
85.0123 323.00
85.0775 310.00
85.1427 315.00
85.2079 314.00
85.2731 313.00
85.3383 313.00
85.4035 299.00
85.4687 299.00
85.5339 297.00
85.5991 288.00
85.6643 286.00
85.7295 303.00
85.7946 292.00
85.8598 285.00
85.925 288.00
85.9903 318.00
86.0554 261.00
86.1206 245.00
86.1858 327.00
86.251 351.00
86.3162 287.00
86.3814 245.00
86.4466 314.00
86.5118 305.00
86.577 313.00
86.6422 328.00
86.7074 315.00
86.7726 314.00
86.8378 342.00
86.903 323.00
86.9682 345.00
87.0334 340.00
87.0986 344.00
87.1638 369.00
87.229 387.00
87.2942 423.00
87.3594 607.00
87.4246 679.00
87.4898 705.00
87.555 579.00
87.6202 570.00
87.6854 578.00
87.7506 569.00
87.8158 493.00
87.881 465.00
87.9462 363.00
88.0114 373.00
88.0766 333.00
88.1418 313.00
88.207 356.00
88.2722 316.00
88.3374 325.00
88.4026 315.00
88.4678 335.00
88.533 345.00
88.5982 325.00
88.6634 337.00
88.7286 337.00
88.7938 331.00
88.859 328.00
88.9242 340.00
88.9894 333.00
89.0546 315.00
89.1198 331.00
89.185 380.00
89.2502 323.00
89.3154 366.00
89.3806 361.00
89.4458 388.00
89.511 404.00
89.5762 419.00
89.6414 441.00
89.7066 445.00
89.7718 560.00
89.837 677.00
89.9022 969.00
89.9674 1277.00
90.0326 1273.00
90.0978 1107.00
90.163 907.00
90.2282 946.00
90.2934 881.00
90.3586 802.00
90.4238 666.00
90.489 552.00
90.5542 476.00
90.6193 515.00
90.6845 472.00
90.7497 449.00
90.8149 513.00
90.8801 598.00
90.9453 715.00
91.0105 893.00
91.0757 1161.00
91.1409 1299.00
91.2061 1139.00
91.2713 1053.00
91.3365 1010.00
91.4017 981.00
91.4669 890.00
91.5321 642.00
91.5973 521.00
91.6625 494.00
91.7277 431.00
91.7929 386.00
91.8581 365.00
91.9233 386.00
91.9885 338.00
92.0537 341.00
92.1189 347.00
92.1841 284.00
92.2493 310.00
92.3145 354.00
92.3797 297.00
92.4449 346.00
92.5101 337.00
92.5753 319.00
92.6405 341.00
92.7057 340.00
92.7709 332.00
92.8361 341.00
92.9013 337.00
92.9665 349.00
93.0317 345.00
93.0969 333.00
93.1621 397.00
93.2273 403.00
93.2925 484.00
93.3577 531.00
93.4229 644.00
93.4881 781.00
93.5533 780.00
93.6185 634.00
93.6837 586.00
93.7489 590.00
93.8141 621.00
93.8793 538.00
93.9445 484.00
94.0097 391.00
94.0749 352.00
94.1401 320.00
94.2053 338.00
94.2705 341.00
94.3357 309.00
94.4009 351.00
94.4661 296.00
94.5313 311.00
94.5965 303.00
94.6617 311.00
94.7269 297.00
94.7921 303.00
94.8573 313.00
94.9225 320.00
94.9877 298.00
95.0529 331.00
95.1181 291.00
95.1833 310.00
95.2485 308.00
95.3137 358.00
95.3789 282.00
95.444 322.00
95.5092 322.00
95.5744 321.00
95.6396 337.00
95.7048 340.00
95.77 375.00
95.8352 356.00
95.9004 369.00
95.9656 411.00
96.0308 492.00
96.096 581.00
96.1612 694.00
96.2264 773.00
96.2916 650.00
96.3568 523.00
96.422 540.00
96.4872 550.00
96.5524 592.00
96.6176 482.00
96.6828 457.00
96.748 352.00
96.8132 372.00
96.8784 365.00
96.9436 311.00
97.0088 317.00
97.074 318.00
97.1392 271.00
97.2044 321.00
97.2696 331.00
97.3348 297.00
97.4 303.00
97.4652 324.00
97.5304 288.00
97.5956 297.00
97.6608 304.00
97.726 300.00
97.7912 297.00
97.8564 286.00
97.9216 304.00
97.9868 281.00
98.052 315.00
98.1172 324.00
98.1824 281.00
98.2476 302.00
98.3128 270.00
98.378 285.00
98.4432 291.00
98.5084 311.00
98.5736 277.00
98.6388 290.00
98.704 307.00
98.7692 272.00
98.8344 267.00
98.8996 270.00
98.9648 302.00
99.03 300.00
99.0952 297.00
99.1604 319.00
99.2256 284.00
99.2908 304.00
99.356 304.00
99.4212 320.00
99.4864 275.00
99.5516 289.00
99.6168 277.00
99.682 296.00
99.7472 294.00
99.8124 268.00
99.8776 303.00
99.9428 288.00
100.008 300.00
100.073 295.00
100.095 299.00