File: data/xrd_creation/results/Na_186.xy
9.903433 2799.00
9.968632 2746.00
10.0338 2810.00
10.099 2806.00
10.1642 2762.00
10.2294 2847.00
10.2946 2721.00
10.3598 2763.00
10.425 2744.00
10.4902 2739.00
10.5554 2876.00
10.6206 3104.00
10.6858 2958.00
10.751 2581.00
10.8162 2524.00
10.8814 2583.00
10.9466 2642.00
11.0118 2527.00
11.077 2620.00
11.1422 2735.00
11.2074 2808.00
11.2726 2878.00
11.3378 3084.00
11.403 3312.00
11.4682 3867.00
11.5334 4516.00
11.5986 5477.00
11.6638 7739.00
11.729 8632.00
11.7942 6263.00
11.8594 5381.00
11.9246 3342.00
11.9898 2978.00
12.055 3043.00
12.1202 3420.00
12.1854 3763.00
12.2506 3095.00
12.3158 2516.00
12.381 2436.00
12.4462 2396.00
12.5114 2355.00
12.5766 2358.00
12.6418 2310.00
12.707 2241.00
12.7722 2236.00
12.8374 2214.00
12.9026 2150.00
12.9678 2321.00
13.033 2182.00
13.0982 2314.00
13.1634 2145.00
13.2286 2090.00
13.2938 2175.00
13.359 2122.00
13.4242 2080.00
13.4894 2182.00
13.5546 2083.00
13.6198 2066.00
13.685 2059.00
13.7502 2063.00
13.8154 2066.00
13.8805 2087.00
13.9457 2141.00
14.0109 2189.00
14.0761 2238.00
14.1413 2271.00
14.2065 2216.00
14.2717 2065.00
14.3369 2023.00
14.4021 1922.00
14.4673 2025.00
14.5325 2008.00
14.5977 2087.00
14.6629 2042.00
14.7281 2089.00
14.7933 2108.00
14.8585 2209.00
14.9237 2267.00
14.9889 2012.00
15.0541 1865.00
15.1193 1936.00
15.1845 1921.00
15.2497 1959.00
15.3149 1966.00
15.3801 1932.00
15.4453 1935.00
15.5105 1906.00
15.5757 1894.00
15.6409 1921.00
15.7061 1952.00
15.7713 2050.00
15.8365 2018.00
15.9017 2019.00
15.9669 2020.00
16.0321 2064.00
16.0973 2060.00
16.1625 2262.00
16.2277 2314.00
16.2929 2625.00
16.3581 2999.00
16.4233 3765.00
16.4885 4886.00
16.5537 4933.00
16.6189 2963.00
16.6841 2108.00
16.7493 2011.00
16.8145 1907.00
16.8797 1894.00
16.9449 1919.00
17.0101 1916.00
17.0753 1814.00
17.1405 1804.00
17.2057 1868.00
17.2709 1886.00
17.3361 1836.00
17.4013 1867.00
17.4665 1734.00
17.5317 1829.00
17.5969 1850.00
17.6621 1893.00
17.7273 1929.00
17.7925 2067.00
17.8577 2215.00
17.9229 2272.00
17.9881 2669.00
18.0533 2789.00
18.1185 2545.00
18.1837 2127.00
18.2489 1931.00
18.3141 1855.00
18.3793 1815.00
18.4445 1870.00
18.5097 1820.00
18.5749 1773.00
18.6401 1713.00
18.7052 1658.00
18.7704 1701.00
18.8356 1691.00
18.9008 1634.00
18.966 1661.00
19.0312 1719.00
19.0964 1649.00
19.1616 1669.00
19.2268 1636.00
19.292 1692.00
19.3572 1700.00
19.4224 1744.00
19.4876 1734.00
19.5528 1766.00
19.618 1864.00
19.6832 2042.00
19.7484 1942.00
19.8136 1909.00
19.8788 2033.00
19.944 2259.00
20.0092 2284.00
20.0744 2239.00
20.1396 1860.00
20.2048 1667.00
20.27 1596.00
20.3352 1654.00
20.4004 1632.00
20.4656 1720.00
20.5308 1630.00
20.596 1728.00
20.6612 1695.00
20.7264 1814.00
20.7916 1963.00
20.8568 2150.00
20.922 2056.00
20.9872 1869.00
21.0524 1895.00
21.1176 1774.00
21.1828 1710.00
21.248 1546.00
21.3132 1559.00
21.3784 1455.00
21.4436 1483.00
21.5088 1569.00
21.574 1564.00
21.6392 1532.00
21.7044 1499.00
21.7696 1518.00
21.8348 1563.00
21.9 1513.00
21.9652 1576.00
22.0304 1525.00
22.0956 1512.00
22.1608 1534.00
22.226 1575.00
22.2912 1513.00
22.3564 1495.00
22.4216 1479.00
22.4868 1497.00
22.552 1502.00
22.6172 1542.00
22.6824 1535.00
22.7476 1508.00
22.8128 1664.00
22.878 1653.00
22.9432 1727.00
23.0084 1902.00
23.0736 2254.00
23.1388 2395.00
23.204 2675.00
23.2692 2778.00
23.3344 2241.00
23.3996 1902.00
23.4647 1869.00
23.5299 1997.00
23.5951 1988.00
23.6603 1782.00
23.7255 1678.00
23.7907 1582.00
23.8559 1668.00
23.9211 1800.00
23.9863 1974.00
24.0515 2166.00
24.1167 2373.00
24.1819 2292.00
24.2471 2240.00
24.3123 2196.00
24.3775 2388.00
24.4427 2544.00
24.5079 2406.00
24.5731 2467.00
24.6383 2332.00
24.7035 2032.00
24.7687 1816.00
24.8339 1841.00
24.8991 1714.00
24.9643 1671.00
25.0295 1557.00
25.0947 1501.00
25.1599 1535.00
25.2251 1560.00
25.2903 1568.00
25.3555 1609.00
25.4207 1698.00
25.4859 1757.00
25.5511 1715.00
25.6163 1670.00
25.6815 1783.00
25.7467 1969.00
25.8119 2385.00
25.8771 3195.00
25.9423 4812.00
26.0075 5328.00
26.0727 5105.00
26.1379 5658.00
26.2031 4821.00
26.2683 2993.00
26.3335 2006.00
26.3987 1846.00
26.4639 1817.00
26.5291 1842.00
26.5943 2044.00
26.6595 2439.00
26.7247 3109.00
26.7899 4679.00
26.8551 7147.00
26.9203 8417.00
26.9855 5841.00
27.0507 3367.00
27.1159 2485.00
27.1811 2232.00
27.2463 2331.00
27.3115 2465.00
27.3767 2856.00
27.4419 3762.00
27.5071 4786.00
27.5723 5185.00
27.6375 4940.00
27.7027 4751.00
27.7679 3941.00
27.8331 3045.00
27.8983 2408.00
27.9635 2046.00
28.0287 1841.00
28.0939 1737.00
28.1591 1686.00
28.2243 1711.00
28.2894 1742.00
28.3546 1642.00
28.4198 1815.00
28.485 1939.00
28.5502 1831.00
28.6154 1633.00
28.6806 1482.00
28.7458 1392.00
28.811 1434.00
28.8762 1417.00
28.9414 1406.00
29.0066 1304.00
29.0718 1375.00
29.137 1395.00
29.2022 1321.00
29.2674 1331.00
29.3326 1385.00
29.3978 1370.00
29.463 1388.00
29.5282 1338.00
29.5934 1401.00
29.6586 1469.00
29.7238 1659.00
29.789 1787.00
29.8542 2056.00
29.9194 2009.00
29.9846 2074.00
30.0498 2169.00
30.115 2126.00
30.1802 1977.00
30.2454 1930.00
30.3106 1948.00
30.3758 1909.00
30.441 1763.00
30.5062 1584.00
30.5714 1437.00
30.6366 1565.00
30.7018 1631.00
30.767 1672.00
30.8322 1494.00
30.8974 1426.00
30.9626 1364.00
31.0278 1512.00
31.093 1633.00
31.1582 1962.00
31.2234 2246.00
31.2886 2352.00
31.3538 2338.00
31.419 2363.00
31.4842 2500.00
31.5494 2884.00
31.6146 3486.00
31.6798 4293.00
31.745 4221.00
31.8102 3314.00
31.8754 2575.00
31.9406 2196.00
32.0058 1778.00
32.071 1567.00
32.1362 1560.00
32.2014 1402.00
32.2666 1445.00
32.3318 1448.00
32.397 1422.00
32.4622 1369.00
32.5274 1352.00
32.5926 1322.00
32.6578 1340.00
32.723 1476.00
32.7882 1539.00
32.8534 2103.00
32.9186 3025.00
32.9838 4947.00
33.0489 6911.00
33.1141 5410.00
33.1793 3332.00
33.2445 1995.00
33.3097 1593.00
33.3749 1497.00
33.4401 1485.00
33.5053 1446.00
33.5705 1517.00
33.6357 1573.00
33.7009 1673.00
33.7661 1973.00
33.8313 2224.00
33.8965 2769.00
33.9617 3865.00
34.0269 5795.00
34.0921 9915.00
34.1573 14512.00
34.2225 14433.00
34.2877 11348.00
34.3529 8029.00
34.4181 5915.00
34.4833 4507.00
34.5485 3657.00
34.6137 3133.00
34.6789 2721.00
34.7441 2473.00
34.8093 2103.00
34.8745 1742.00
34.9397 1537.00
35.0049 1353.00
35.0701 1298.00
35.1353 1322.00
35.2005 1347.00
35.2657 1346.00
35.3309 1388.00
35.3961 1308.00
35.4613 1223.00
35.5265 1255.00
35.5917 1263.00
35.6569 1348.00
35.7221 1290.00
35.7873 1190.00
35.8525 1249.00
35.9177 1194.00
35.9829 1218.00
36.0481 1316.00
36.1133 1424.00
36.1785 1406.00
36.2437 1460.00
36.3089 1447.00
36.3741 1332.00
36.4393 1334.00
36.5045 1339.00
36.5697 1388.00
36.6349 1339.00
36.7001 1355.00
36.7653 1366.00
36.8305 1329.00
36.8957 1386.00
36.9609 1333.00
37.0261 1330.00
37.0913 1301.00
37.1565 1438.00
37.2217 1489.00
37.2869 1416.00
37.3521 1386.00
37.4173 1292.00
37.4825 1310.00
37.5477 1249.00
37.6129 1306.00
37.6781 1320.00
37.7433 1264.00
37.8085 1300.00
37.8736 1268.00
37.9388 1291.00
38.004 1374.00
38.0692 1485.00
38.1344 1750.00
38.1996 2238.00
38.2648 2514.00
38.33 2246.00
38.3952 1724.00
38.4604 1491.00
38.5256 1251.00
38.5908 1282.00
38.656 1182.00
38.7212 1134.00
38.7864 1201.00
38.8516 1175.00
38.9168 1302.00
38.982 1337.00
39.0472 1304.00
39.1124 1236.00
39.1776 1314.00
39.2428 1395.00
39.308 1362.00
39.3732 1278.00
39.4384 1207.00
39.5036 1218.00
39.5688 1251.00
39.634 1144.00
39.6992 1178.00
39.7644 1162.00
39.8296 1166.00
39.8948 1102.00
39.96 1108.00
40.0252 1169.00
40.0904 1089.00
40.1556 1134.00
40.2208 1142.00
40.286 1104.00
40.3512 1149.00
40.4164 1129.00
40.4816 1071.00
40.5468 1174.00
40.612 1128.00
40.6772 1104.00
40.7424 1063.00
40.8076 1159.00
40.8728 1191.00
40.938 1226.00
41.0032 1235.00
41.0684 1235.00
41.1336 1216.00
41.1988 1103.00
41.264 1122.00
41.3292 1218.00
41.3944 1226.00
41.4596 1487.00
41.5248 1594.00
41.59 1663.00
41.6552 1676.00
41.7204 1657.00
41.7856 1538.00
41.8508 1660.00
41.916 1720.00
41.9812 1623.00
42.0464 1567.00
42.1116 1532.00
42.1768 1454.00
42.242 1506.00
42.3072 1546.00
42.3724 1597.00
42.4376 1613.00
42.5028 1663.00
42.568 1550.00
42.6332 1384.00
42.6983 1185.00
42.7635 1093.00
42.8287 1105.00
42.8939 1101.00
42.9591 1161.00
43.0243 1196.00
43.0895 1265.00
43.1547 1259.00
43.2199 1357.00
43.2851 1354.00
43.3503 1453.00
43.4155 1397.00
43.4807 1334.00
43.5459 1207.00
43.6111 1226.00
43.6763 1194.00
43.7415 1246.00
43.8067 1156.00
43.8719 1179.00
43.9371 1108.00
44.0023 1076.00
44.0675 983.00
44.1327 938.00
44.1979 1016.00
44.2631 1026.00
44.3283 1032.00
44.3935 1070.00
44.4587 1043.00
44.5239 998.00
44.5891 1096.00
44.6543 1114.00
44.7195 1124.00
44.7847 1191.00
44.8499 1330.00
44.9151 1421.00
44.9803 1409.00
45.0455 1433.00
45.1107 1343.00
45.1759 1275.00
45.2411 1213.00
45.3063 1178.00
45.3715 1115.00
45.4367 1028.00
45.5019 1078.00
45.5671 1082.00
45.6323 1072.00
45.6975 1034.00
45.7627 1147.00
45.8279 1157.00
45.8931 1108.00
45.9583 1164.00
46.0235 1071.00
46.0887 1122.00
46.1539 1091.00
46.2191 1083.00
46.2843 1155.00
46.3495 1146.00
46.4147 1231.00
46.4799 1274.00
46.5451 1258.00
46.6103 1301.00
46.6755 1201.00
46.7407 1353.00
46.8059 1284.00
46.8711 1386.00
46.9363 1579.00
47.0015 1750.00
47.0667 2007.00
47.1319 2179.00
47.1971 2374.00
47.2623 2214.00
47.3275 1924.00
47.3927 1863.00
47.4579 2039.00
47.523 2441.00
47.5882 2509.00
47.6534 2086.00
47.7186 1728.00
47.7838 1319.00
47.849 1275.00
47.9142 1169.00
47.9794 1200.00
48.0446 1088.00
48.1098 998.00
48.175 1107.00
48.2402 1084.00
48.3054 1056.00
48.3706 1218.00
48.4358 1177.00
48.501 1238.00
48.5662 1263.00
48.6314 1174.00
48.6966 1099.00
48.7618 1190.00
48.827 1245.00
48.8922 1298.00
48.9574 1511.00
49.0226 1725.00
49.0878 1804.00
49.153 1729.00
49.2182 1628.00
49.2834 1420.00
49.3486 1461.00
49.4138 1562.00
49.479 1646.00
49.5442 1861.00
49.6094 1887.00
49.6746 1865.00
49.7398 1782.00
49.805 1624.00
49.8702 1644.00
49.9354 1643.00
50.0006 1579.00
50.0658 1489.00
50.131 1465.00
50.1962 1411.00
50.2614 1498.00
50.3266 1601.00
50.3918 1487.00
50.457 1497.00
50.5222 1393.00
50.5874 1408.00
50.6526 1255.00
50.7178 1430.00
50.783 1518.00
50.8482 1589.00
50.9134 1802.00
50.9786 1716.00
51.0438 1567.00
51.109 1473.00
51.1742 1408.00
51.2394 1397.00
51.3046 1346.00
51.3698 1267.00
51.435 1241.00
51.5002 1146.00
51.5654 1203.00
51.6306 1189.00
51.6958 1289.00
51.761 1395.00
51.8262 1647.00
51.8914 2025.00
51.9566 3079.00
52.0218 4694.00
52.087 4968.00
52.1522 4053.00
52.2174 3547.00
52.2826 2483.00
52.3477 1880.00
52.4129 1563.00
52.4781 1340.00
52.5433 1294.00
52.6085 1245.00
52.6737 1190.00
52.7389 1148.00
52.8041 1144.00
52.8693 1152.00
52.9345 1149.00
52.9997 1256.00
53.0649 1339.00
53.1301 1305.00
53.1953 1313.00
53.2605 1254.00
53.3257 1241.00
53.3909 1338.00
53.4561 1242.00
53.5213 1168.00
53.5865 1217.00
53.6517 1271.00
53.7169 1260.00
53.7821 1341.00
53.8473 1268.00
53.9125 1292.00
53.9777 1216.00
54.0429 1118.00
54.1081 1151.00
54.1733 1169.00
54.2385 1112.00
54.3037 1207.00
54.3689 1133.00
54.4341 1067.00
54.4993 1033.00
54.5645 1058.00
54.6297 1068.00
54.6949 1066.00
54.7601 1091.00
54.8253 1208.00
54.8905 1285.00
54.9557 1551.00
55.0209 1903.00
55.0861 1854.00
55.1513 1843.00
55.2165 1713.00
55.2817 1479.00
55.3469 1473.00
55.4121 1434.00
55.4773 1399.00
55.5425 1297.00
55.6077 1290.00
55.6729 1241.00
55.7381 1196.00
55.8033 1185.00
55.8685 1194.00
55.9337 1232.00
55.9989 1259.00
56.0641 1220.00
56.1293 1164.00
56.1945 1216.00
56.2597 1185.00
56.3249 1168.00
56.3901 1202.00
56.4553 1173.00
56.5205 1175.00
56.5857 1227.00
56.6509 1334.00
56.7161 1354.00
56.7813 1260.00
56.8465 1278.00
56.9117 1266.00
56.9769 1216.00
57.042 1204.00
57.1073 1213.00
57.1724 1161.00
57.2376 1105.00
57.3028 1105.00
57.368 1170.00
57.4332 1160.00
57.4984 1131.00
57.5636 1217.00
57.6288 1374.00
57.694 1280.00
57.7592 1290.00
57.8244 1361.00
57.8896 1454.00
57.9548 1586.00
58.02 1687.00
58.0852 1836.00
58.1504 1874.00
58.2156 1815.00
58.2808 1692.00
58.346 1631.00
58.4112 1455.00
58.4764 1338.00
58.5416 1314.00
58.6068 1208.00
58.672 1166.00
58.7372 1163.00
58.8024 1115.00
58.8676 1110.00
58.9328 1091.00
58.998 1113.00
59.0632 1175.00
59.1284 1352.00
59.1936 1593.00
59.2588 1798.00
59.324 2027.00
59.3892 2323.00
59.4544 2275.00
59.5196 2211.00
59.5848 1955.00
59.65 1787.00
59.7152 1557.00
59.7804 1445.00
59.8456 1515.00
59.9108 1569.00
59.976 1520.00
60.0412 1558.00
60.1064 1461.00
60.1716 1443.00
60.2368 1303.00
60.302 1287.00
60.3672 1120.00
60.4324 1144.00
60.4976 1141.00
60.5628 1230.00
60.628 1119.00
60.6932 1155.00
60.7584 1158.00
60.8236 1269.00
60.8888 1309.00
60.954 1247.00
61.0192 1220.00
61.0844 1202.00
61.1496 1150.00
61.2148 1148.00
61.28 988.00
61.3452 1048.00
61.4104 1182.00
61.4756 1300.00
61.5408 1279.00
61.606 1365.00
61.6712 1356.00
61.7364 1267.00
61.8016 1274.00
61.8667 1350.00
61.932 1417.00
61.9971 1502.00
62.0623 1727.00
62.1275 2041.00
62.1927 1983.00
62.2579 1832.00
62.3231 1724.00
62.3883 1471.00
62.4535 1396.00
62.5187 1291.00
62.5839 1098.00
62.6491 1135.00
62.7143 1068.00
62.7795 1074.00
62.8447 1080.00
62.9099 1024.00
62.9751 1040.00
63.0403 996.00
63.1055 1035.00
63.1707 1041.00
63.2359 978.00
63.3011 952.00
63.3663 954.00
63.4315 955.00
63.4967 1010.00
63.5619 985.00
63.6271 1046.00
63.6923 954.00
63.7575 1041.00
63.8227 1006.00
63.8879 1068.00
63.9531 1005.00
64.0183 1024.00
64.0835 1105.00
64.1487 1137.00
64.2139 1103.00
64.2791 1087.00
64.3443 1028.00
64.4095 1056.00
64.4747 1043.00
64.5399 1051.00
64.6051 1078.00
64.6703 1083.00
64.7355 1117.00
64.8007 1282.00
64.8659 1311.00
64.9311 1526.00
64.9963 1700.00
65.0615 1585.00
65.1267 1481.00
65.1919 1349.00
65.2571 1213.00
65.3223 1100.00
65.3875 1108.00
65.4527 1122.00
65.5179 1136.00
65.5831 1149.00
65.6483 1128.00
65.7135 1127.00
65.7787 1122.00
65.8439 1193.00
65.9091 1219.00
65.9743 1299.00
66.0395 1358.00
66.1047 1477.00
66.1699 1688.00
66.2351 1897.00
66.3003 1734.00
66.3655 1651.00
66.4307 1502.00
66.4959 1329.00
66.561 1194.00
66.6263 1133.00
66.6915 1118.00
66.7566 1042.00
66.8218 1052.00
66.887 962.00
66.9522 920.00
67.0174 930.00
67.0826 988.00
67.1478 953.00
67.213 883.00
67.2782 991.00
67.3434 978.00
67.4086 971.00
67.4738 1013.00
67.539 942.00
67.6042 903.00
67.6694 984.00
67.7346 1058.00
67.7998 1045.00
67.865 1056.00
67.9302 984.00
67.9954 1003.00
68.0606 1012.00
68.1258 989.00
68.191 947.00
68.2562 919.00
68.3214 971.00
68.3866 915.00
68.4518 897.00
68.517 836.00
68.5822 861.00
68.6474 885.00
68.7126 906.00
68.7778 895.00
68.843 958.00
68.9082 928.00
68.9734 907.00
69.0386 906.00
69.1038 872.00
69.169 823.00
69.2342 859.00
69.2994 785.00
69.3646 879.00
69.4298 801.00
69.495 896.00
69.5602 857.00
69.6254 837.00
69.6906 856.00
69.7558 864.00
69.821 874.00
69.8862 785.00
69.9514 787.00
70.0166 829.00
70.0818 832.00
70.147 810.00
70.2122 754.00
70.2774 799.00
70.3426 811.00
70.4078 786.00
70.473 821.00
70.5382 756.00
70.6034 738.00
70.6686 798.00
70.7338 788.00
70.799 816.00
70.8642 827.00
70.9294 860.00
70.9946 847.00
71.0598 827.00
71.125 828.00
71.1902 863.00
71.2554 902.00
71.3205 1009.00
71.3858 1159.00
71.451 1276.00
71.5162 1462.00
71.5813 1350.00
71.6465 1330.00
71.7117 1319.00
71.7769 1182.00
71.8421 1067.00
71.9073 1028.00
71.9725 965.00
72.0377 911.00
72.1029 926.00
72.1681 917.00
72.2333 841.00
72.2985 862.00
72.3637 881.00
72.4289 875.00
72.4941 881.00
72.5593 869.00
72.6245 914.00
72.6897 965.00
72.7549 891.00
72.8201 917.00
72.8853 881.00
72.9505 931.00
73.0157 885.00
73.0809 876.00
73.1461 820.00
73.2113 786.00
73.2765 839.00
73.3417 808.00
73.4069 781.00
73.4721 794.00
73.5373 775.00
73.6025 729.00
73.6677 825.00
73.7329 816.00
73.7981 793.00
73.8633 799.00
73.9285 855.00
73.9937 783.00
74.0589 822.00
74.1241 826.00
74.1893 862.00
74.2545 850.00
74.3197 774.00
74.3849 777.00
74.4501 845.00
74.5153 817.00
74.5805 822.00
74.6457 747.00
74.7109 806.00
74.7761 796.00
74.8413 808.00
74.9065 771.00
74.9717 843.00
75.0369 848.00
75.1021 801.00
75.1673 795.00
75.2325 853.00
75.2977 892.00
75.3629 899.00
75.4281 850.00
75.4933 855.00
75.5585 938.00
75.6237 847.00
75.6889 833.00
75.7541 916.00
75.8193 791.00
75.8845 841.00
75.9497 753.00
76.0149 867.00
76.0801 833.00
76.1452 823.00
76.2104 820.00
76.2756 863.00
76.3409 811.00
76.406 888.00
76.4712 822.00
76.5364 803.00
76.6016 874.00
76.6668 830.00
76.732 821.00
76.7972 824.00
76.8624 836.00
76.9276 870.00
76.9928 850.00
77.058 910.00
77.1232 891.00
77.1884 836.00
77.2536 905.00
77.3188 821.00
77.384 860.00
77.4492 788.00
77.5144 745.00
77.5796 844.00
77.6448 815.00
77.71 812.00
77.7752 762.00
77.8404 833.00
77.9056 750.00
77.9708 766.00
78.036 821.00
78.1012 797.00
78.1664 750.00
78.2316 783.00
78.2968 783.00
78.362 767.00
78.4272 786.00
78.4924 830.00
78.5576 848.00
78.6228 880.00
78.688 859.00
78.7532 1072.00
78.8184 1135.00
78.8836 1340.00
78.9488 1486.00
79.014 1257.00
79.0792 1303.00
79.1444 1253.00
79.2096 1206.00
79.2748 1053.00
79.34 983.00
79.4052 963.00
79.4704 904.00
79.5356 855.00
79.6008 883.00
79.666 834.00
79.7312 844.00
79.7964 845.00
79.8616 850.00
79.9268 888.00
79.992 904.00
80.0572 902.00
80.1224 937.00
80.1876 898.00
80.2528 909.00
80.318 914.00
80.3832 883.00
80.4484 879.00
80.5136 901.00
80.5788 869.00
80.644 841.00
80.7092 851.00
80.7744 840.00
80.8396 771.00
80.9048 847.00
80.9699 857.00
81.0351 831.00
81.1003 962.00
81.1655 875.00
81.2307 962.00
81.2959 941.00
81.3611 963.00
81.4263 957.00
81.4915 897.00
81.5567 878.00
81.6219 842.00
81.6871 936.00
81.7523 922.00
81.8175 838.00
81.8827 845.00
81.9479 841.00
82.0131 805.00
82.0783 873.00
82.1435 785.00
82.2087 818.00
82.2739 769.00
82.3391 790.00
82.4043 793.00
82.4695 805.00
82.5347 815.00
82.5999 858.00
82.6651 838.00
82.7303 782.00
82.7955 785.00
82.8607 815.00
82.9259 767.00
82.9911 810.00
83.0563 781.00
83.1215 755.00
83.1867 843.00
83.2519 776.00
83.3171 775.00
83.3823 772.00
83.4475 758.00
83.5127 752.00
83.5779 800.00
83.6431 825.00
83.7083 831.00
83.7735 825.00
83.8387 1061.00
83.9039 1151.00
83.9691 1090.00
84.0343 997.00
84.0995 1040.00
84.1647 1087.00
84.2299 1055.00
84.2951 988.00
84.3603 1048.00
84.4255 1021.00
84.4907 1011.00
84.5559 919.00
84.6211 947.00
84.6863 923.00
84.7515 927.00
84.8167 941.00
84.8819 929.00
84.9471 933.00
85.0123 862.00
85.0775 895.00
85.1427 902.00
85.2079 900.00
85.2731 840.00
85.3383 855.00
85.4035 850.00
85.4687 811.00
85.5339 799.00
85.5991 769.00
85.6643 802.00
85.7295 782.00
85.7946 693.00
85.8598 737.00
85.925 776.00
85.9903 732.00
86.0554 760.00
86.1206 742.00
86.1858 758.00
86.251 847.00
86.3162 827.00
86.3814 809.00
86.4466 819.00
86.5118 819.00
86.577 788.00
86.6422 799.00
86.7074 771.00
86.7726 770.00
86.8378 803.00
86.903 722.00
86.9682 802.00
87.0334 785.00
87.0986 766.00
87.1638 756.00
87.229 805.00
87.2942 818.00
87.3594 807.00
87.4246 899.00
87.4898 908.00
87.555 862.00
87.6202 888.00
87.6854 884.00
87.7506 863.00
87.8158 770.00
87.881 863.00
87.9462 828.00
88.0114 742.00
88.0766 832.00
88.1418 879.00
88.207 923.00
88.2722 813.00
88.3374 809.00
88.4026 862.00
88.4678 757.00
88.533 861.00
88.5982 829.00
88.6634 746.00
88.7286 792.00
88.7938 792.00
88.859 771.00
88.9242 814.00
88.9894 805.00
89.0546 834.00
89.1198 851.00
89.185 809.00
89.2502 840.00
89.3154 831.00
89.3806 915.00
89.4458 899.00
89.511 843.00
89.5762 816.00
89.6414 950.00
89.7066 928.00
89.7718 922.00
89.837 1050.00
89.9022 1125.00
89.9674 1202.00
90.0326 1194.00
90.0978 1137.00
90.163 1148.00
90.2282 1106.00
90.2934 1109.00
90.3586 967.00
90.4238 905.00
90.489 913.00
90.5542 942.00
90.6193 824.00
90.6845 884.00
90.7497 915.00
90.8149 854.00
90.8801 952.00
90.9453 1026.00
91.0105 1032.00
91.0757 1176.00
91.1409 1171.00
91.2061 1080.00
91.2713 1037.00
91.3365 1055.00
91.4017 1135.00
91.4669 924.00
91.5321 932.00
91.5973 895.00
91.6625 813.00
91.7277 811.00
91.7929 812.00
91.8581 850.00
91.9233 793.00
91.9885 796.00
92.0537 812.00
92.1189 784.00
92.1841 781.00
92.2493 778.00
92.3145 811.00
92.3797 825.00
92.4449 761.00
92.5101 782.00
92.5753 801.00
92.6405 791.00
92.7057 747.00
92.7709 764.00
92.8361 774.00
92.9013 784.00
92.9665 768.00
93.0317 663.00
93.0969 740.00
93.1621 722.00
93.2273 795.00
93.2925 811.00
93.3577 817.00
93.4229 841.00
93.4881 870.00
93.5533 900.00
93.6185 794.00
93.6837 868.00
93.7489 837.00
93.8141 845.00
93.8793 785.00
93.9445 760.00
94.0097 797.00
94.0749 766.00
94.1401 770.00
94.2053 832.00
94.2705 744.00
94.3357 778.00
94.4009 729.00
94.4661 764.00
94.5313 787.00
94.5965 754.00
94.6617 748.00
94.7269 763.00
94.7921 691.00
94.8573 782.00
94.9225 752.00
94.9877 812.00
95.0529 764.00
95.1181 858.00
95.1833 816.00
95.2485 768.00
95.3137 804.00
95.3789 805.00
95.444 723.00
95.5092 740.00
95.5744 864.00
95.6396 869.00
95.7048 786.00
95.77 832.00
95.8352 790.00
95.9004 868.00
95.9656 878.00
96.0308 854.00
96.096 927.00
96.1612 967.00
96.2264 908.00
96.2916 914.00
96.3568 842.00
96.422 839.00
96.4872 895.00
96.5524 849.00
96.6176 857.00
96.6828 834.00
96.748 790.00
96.8132 820.00
96.8784 847.00
96.9436 893.00
97.0088 888.00
97.074 891.00
97.1392 877.00
97.2044 874.00
97.2696 804.00
97.3348 852.00
97.4 777.00
97.4652 804.00
97.5304 821.00
97.5956 790.00
97.6608 780.00
97.726 760.00
97.7912 802.00
97.8564 766.00
97.9216 736.00
97.9868 780.00
98.052 795.00
98.1172 760.00
98.1824 752.00
98.2476 738.00
98.3128 797.00
98.378 733.00
98.4432 754.00
98.5084 767.00
98.5736 755.00
98.6388 770.00
98.704 745.00
98.7692 739.00
98.8344 762.00
98.8996 788.00
98.9648 785.00
99.03 809.00
99.0952 802.00
99.1604 872.00
99.2256 839.00
99.2908 840.00
99.356 784.00
99.4212 845.00
99.4864 850.00
99.5516 848.00
99.6168 859.00
99.682 887.00
99.7472 809.00
99.8124 808.00
99.8776 829.00
99.9428 797.00
100.008 750.00
100.073 810.00
100.095 788.00