File: data/xrd_creation/results/Na_137.xy
9.903433 2663.00
9.968632 2647.00
10.0338 2642.00
10.099 2564.00
10.1642 2687.00
10.2294 2616.00
10.2946 2450.00
10.3598 2523.00
10.425 2639.00
10.4902 2443.00
10.5554 2487.00
10.6206 2477.00
10.6858 2353.00
10.751 2401.00
10.8162 2363.00
10.8814 2388.00
10.9466 2417.00
11.0118 2424.00
11.077 2320.00
11.1422 2296.00
11.2074 2266.00
11.2726 2252.00
11.3378 2259.00
11.403 2270.00
11.4682 2154.00
11.5334 2213.00
11.5986 2127.00
11.6638 2259.00
11.729 2131.00
11.7942 2114.00
11.8594 2120.00
11.9246 2053.00
11.9898 2038.00
12.055 2117.00
12.1202 2003.00
12.1854 2025.00
12.2506 2061.00
12.3158 1995.00
12.381 2019.00
12.4462 1969.00
12.5114 1981.00
12.5766 1941.00
12.6418 1929.00
12.707 1887.00
12.7722 1817.00
12.8374 1913.00
12.9026 1864.00
12.9678 1848.00
13.033 1826.00
13.0982 1907.00
13.1634 1889.00
13.2286 1799.00
13.2938 1788.00
13.359 1800.00
13.4242 1813.00
13.4894 1836.00
13.5546 1786.00
13.6198 1822.00
13.685 1724.00
13.7502 1738.00
13.8154 1746.00
13.8805 1744.00
13.9457 1754.00
14.0109 1715.00
14.0761 1707.00
14.1413 1869.00
14.2065 1841.00
14.2717 1749.00
14.3369 1714.00
14.4021 1610.00
14.4673 1705.00
14.5325 1794.00
14.5977 1663.00
14.6629 1636.00
14.7281 1685.00
14.7933 1610.00
14.8585 1638.00
14.9237 1550.00
14.9889 1597.00
15.0541 1603.00
15.1193 1575.00
15.1845 1508.00
15.2497 1586.00
15.3149 1631.00
15.3801 1671.00
15.4453 1563.00
15.5105 1556.00
15.5757 1590.00
15.6409 1502.00
15.7061 1565.00
15.7713 1556.00
15.8365 1517.00
15.9017 1592.00
15.9669 1496.00
16.0321 1596.00
16.0973 1539.00
16.1625 1590.00
16.2277 1526.00
16.2929 1520.00
16.3581 1574.00
16.4233 1566.00
16.4885 1501.00
16.5537 1511.00
16.6189 1486.00
16.6841 1492.00
16.7493 1465.00
16.8145 1455.00
16.8797 1464.00
16.9449 1397.00
17.0101 1427.00
17.0753 1412.00
17.1405 1437.00
17.2057 1358.00
17.2709 1376.00
17.3361 1455.00
17.4013 1480.00
17.4665 1394.00
17.5317 1368.00
17.5969 1465.00
17.6621 1412.00
17.7273 1421.00
17.7925 1420.00
17.8577 1441.00
17.9229 1388.00
17.9881 1399.00
18.0533 1419.00
18.1185 1314.00
18.1837 1303.00
18.2489 1352.00
18.3141 1371.00
18.3793 1357.00
18.4445 1311.00
18.5097 1333.00
18.5749 1323.00
18.6401 1292.00
18.7052 1329.00
18.7704 1297.00
18.8356 1422.00
18.9008 1407.00
18.966 1395.00
19.0312 1393.00
19.0964 1378.00
19.1616 1370.00
19.2268 1282.00
19.292 1376.00
19.3572 1437.00
19.4224 1395.00
19.4876 1342.00
19.5528 1267.00
19.618 1354.00
19.6832 1309.00
19.7484 1368.00
19.8136 1338.00
19.8788 1230.00
19.944 1359.00
20.0092 1268.00
20.0744 1365.00
20.1396 1318.00
20.2048 1473.00
20.27 1521.00
20.3352 1517.00
20.4004 1481.00
20.4656 1384.00
20.5308 1324.00
20.596 1355.00
20.6612 1367.00
20.7264 1426.00
20.7916 1460.00
20.8568 1485.00
20.922 1486.00
20.9872 1480.00
21.0524 1480.00
21.1176 1384.00
21.1828 1380.00
21.248 1456.00
21.3132 1438.00
21.3784 1550.00
21.4436 1624.00
21.5088 1790.00
21.574 1883.00
21.6392 1855.00
21.7044 1713.00
21.7696 1586.00
21.8348 1530.00
21.9 1552.00
21.9652 1592.00
22.0304 1568.00
22.0956 1595.00
22.1608 1383.00
22.226 1266.00
22.2912 1240.00
22.3564 1190.00
22.4216 1289.00
22.4868 1310.00
22.552 1297.00
22.6172 1480.00
22.6824 1682.00
22.7476 2030.00
22.8128 2218.00
22.878 1935.00
22.9432 1452.00
23.0084 1137.00
23.0736 1247.00
23.1388 1152.00
23.204 1102.00
23.2692 1180.00
23.3344 1179.00
23.3996 1204.00
23.4647 1381.00
23.5299 1451.00
23.5951 1416.00
23.6603 1423.00
23.7255 1525.00
23.7907 1449.00
23.8559 1565.00
23.9211 1801.00
23.9863 1984.00
24.0515 1959.00
24.1167 1703.00
24.1819 1561.00
24.2471 1621.00
24.3123 1833.00
24.3775 1848.00
24.4427 1825.00
24.5079 1601.00
24.5731 1348.00
24.6383 1182.00
24.7035 1151.00
24.7687 1234.00
24.8339 1182.00
24.8991 1097.00
24.9643 1115.00
25.0295 1137.00
25.0947 1175.00
25.1599 1185.00
25.2251 1152.00
25.2903 1181.00
25.3555 1202.00
25.4207 1098.00
25.4859 1159.00
25.5511 1125.00
25.6163 1123.00
25.6815 1172.00
25.7467 1196.00
25.8119 1286.00
25.8771 1378.00
25.9423 1537.00
26.0075 1466.00
26.0727 1548.00
26.1379 1759.00
26.2031 2113.00
26.2683 2790.00
26.3335 3497.00
26.3987 3721.00
26.4639 3259.00
26.5291 2867.00
26.5943 2541.00
26.6595 2297.00
26.7247 2048.00
26.7899 2060.00
26.8551 2158.00
26.9203 2082.00
26.9855 1973.00
27.0507 1761.00
27.1159 1837.00
27.1811 1820.00
27.2463 2027.00
27.3115 2237.00
27.3767 2641.00
27.4419 3273.00
27.5071 3614.00
27.5723 3618.00
27.6375 2870.00
27.7027 2177.00
27.7679 1893.00
27.8331 1926.00
27.8983 1761.00
27.9635 1572.00
28.0287 1452.00
28.0939 1272.00
28.1591 1179.00
28.2243 1162.00
28.2894 1182.00
28.3546 1140.00
28.4198 1122.00
28.485 1170.00
28.5502 1168.00
28.6154 1135.00
28.6806 1147.00
28.7458 1090.00
28.811 1187.00
28.8762 1186.00
28.9414 1294.00
29.0066 1348.00
29.0718 1494.00
29.137 1547.00
29.2022 1584.00
29.2674 1401.00
29.3326 1192.00
29.3978 1045.00
29.463 994.00
29.5282 1127.00
29.5934 1106.00
29.6586 1041.00
29.7238 1036.00
29.789 1074.00
29.8542 1108.00
29.9194 1049.00
29.9846 1050.00
30.0498 1029.00
30.115 1040.00
30.1802 1040.00
30.2454 1096.00
30.3106 1109.00
30.3758 1218.00
30.441 1271.00
30.5062 1294.00
30.5714 1334.00
30.6366 1489.00
30.7018 1579.00
30.767 1628.00
30.8322 1748.00
30.8974 1996.00
30.9626 1960.00
31.0278 1610.00
31.093 1473.00
31.1582 1258.00
31.2234 1125.00
31.2886 1087.00
31.3538 1148.00
31.419 1156.00
31.4842 1216.00
31.5494 1194.00
31.6146 1208.00
31.6798 1154.00
31.745 1099.00
31.8102 958.00
31.8754 944.00
31.9406 942.00
32.0058 988.00
32.071 1040.00
32.1362 1012.00
32.2014 1288.00
32.2666 1622.00
32.3318 1934.00
32.397 1479.00
32.4622 1052.00
32.5274 944.00
32.5926 956.00
32.6578 959.00
32.723 982.00
32.7882 1038.00
32.8534 970.00
32.9186 975.00
32.9838 973.00
33.0489 930.00
33.1141 945.00
33.1793 1010.00
33.2445 1004.00
33.3097 1009.00
33.3749 1051.00
33.4401 1157.00
33.5053 1224.00
33.5705 1229.00
33.6357 1267.00
33.7009 1297.00
33.7661 1266.00
33.8313 1164.00
33.8965 1213.00
33.9617 1310.00
34.0269 1386.00
34.0921 1514.00
34.1573 1668.00
34.2225 1489.00
34.2877 1388.00
34.3529 1205.00
34.4181 1093.00
34.4833 1118.00
34.5485 1060.00
34.6137 1028.00
34.6789 1085.00
34.7441 1156.00
34.8093 1045.00
34.8745 1109.00
34.9397 1037.00
35.0049 1003.00
35.0701 924.00
35.1353 982.00
35.2005 873.00
35.2657 940.00
35.3309 879.00
35.3961 902.00
35.4613 977.00
35.5265 914.00
35.5917 876.00
35.6569 797.00
35.7221 774.00
35.7873 775.00
35.8525 860.00
35.9177 855.00
35.9829 801.00
36.0481 793.00
36.1133 800.00
36.1785 859.00
36.2437 891.00
36.3089 907.00
36.3741 1029.00
36.4393 1043.00
36.5045 1119.00
36.5697 981.00
36.6349 931.00
36.7001 937.00
36.7653 901.00
36.8305 1003.00
36.8957 1018.00
36.9609 1028.00
37.0261 942.00
37.0913 861.00
37.1565 879.00
37.2217 824.00
37.2869 933.00
37.3521 1103.00
37.4173 1189.00
37.4825 1252.00
37.5477 1116.00
37.6129 1039.00
37.6781 990.00
37.7433 911.00
37.8085 927.00
37.8736 911.00
37.9388 1087.00
38.004 1239.00
38.0692 1400.00
38.1344 1458.00
38.1996 1392.00
38.2648 1219.00
38.33 1153.00
38.3952 1099.00
38.4604 1117.00
38.5256 1155.00
38.5908 1135.00
38.656 1261.00
38.7212 1151.00
38.7864 954.00
38.8516 943.00
38.9168 832.00
38.982 844.00
39.0472 845.00
39.1124 841.00
39.1776 848.00
39.2428 801.00
39.308 833.00
39.3732 889.00
39.4384 941.00
39.5036 1014.00
39.5688 1123.00
39.634 1074.00
39.6992 1057.00
39.7644 1044.00
39.8296 1084.00
39.8948 977.00
39.96 918.00
40.0252 827.00
40.0904 855.00
40.1556 877.00
40.2208 839.00
40.286 812.00
40.3512 828.00
40.4164 756.00
40.4816 870.00
40.5468 866.00
40.612 801.00
40.6772 792.00
40.7424 803.00
40.8076 924.00
40.8728 850.00
40.938 952.00
41.0032 872.00
41.0684 822.00
41.1336 771.00
41.1988 801.00
41.264 727.00
41.3292 792.00
41.3944 802.00
41.4596 806.00
41.5248 780.00
41.59 795.00
41.6552 763.00
41.7204 746.00
41.7856 659.00
41.8508 662.00
41.916 598.00
41.9812 664.00
42.0464 692.00
42.1116 691.00
42.1768 689.00
42.242 651.00
42.3072 661.00
42.3724 615.00
42.4376 725.00
42.5028 730.00
42.568 634.00
42.6332 720.00
42.6983 675.00
42.7635 740.00
42.8287 691.00
42.8939 769.00
42.9591 728.00
43.0243 699.00
43.0895 771.00
43.1547 746.00
43.2199 817.00
43.2851 826.00
43.3503 870.00
43.4155 859.00
43.4807 778.00
43.5459 859.00
43.6111 846.00
43.6763 784.00
43.7415 832.00
43.8067 758.00
43.8719 782.00
43.9371 848.00
44.0023 900.00
44.0675 979.00
44.1327 1376.00
44.1979 1242.00
44.2631 1081.00
44.3283 943.00
44.3935 828.00
44.4587 743.00
44.5239 813.00
44.5891 881.00
44.6543 830.00
44.7195 898.00
44.7847 905.00
44.8499 873.00
44.9151 854.00
44.9803 894.00
45.0455 1050.00
45.1107 1178.00
45.1759 1601.00
45.2411 1204.00
45.3063 1209.00
45.3715 839.00
45.4367 719.00
45.5019 696.00
45.5671 692.00
45.6323 664.00
45.6975 746.00
45.7627 801.00
45.8279 858.00
45.8931 865.00
45.9583 885.00
46.0235 863.00
46.0887 917.00
46.1539 862.00
46.2191 919.00
46.2843 858.00
46.3495 777.00
46.4147 738.00
46.4799 686.00
46.5451 647.00
46.6103 721.00
46.6755 665.00
46.7407 748.00
46.8059 761.00
46.8711 855.00
46.9363 944.00
47.0015 905.00
47.0667 947.00
47.1319 881.00
47.1971 844.00
47.2623 819.00
47.3275 786.00
47.3927 760.00
47.4579 825.00
47.523 773.00
47.5882 693.00
47.6534 659.00
47.7186 656.00
47.7838 633.00
47.849 610.00
47.9142 605.00
47.9794 654.00
48.0446 601.00
48.1098 667.00
48.175 631.00
48.2402 710.00
48.3054 665.00
48.3706 634.00
48.4358 663.00
48.501 693.00
48.5662 724.00
48.6314 821.00
48.6966 749.00
48.7618 811.00
48.827 857.00
48.8922 849.00
48.9574 789.00
49.0226 825.00
49.0878 830.00
49.153 883.00
49.2182 901.00
49.2834 894.00
49.3486 891.00
49.4138 798.00
49.479 774.00
49.5442 796.00
49.6094 792.00
49.6746 772.00
49.7398 745.00
49.805 702.00
49.8702 630.00
49.9354 663.00
50.0006 612.00
50.0658 656.00
50.131 667.00
50.1962 641.00
50.2614 672.00
50.3266 654.00
50.3918 655.00
50.457 690.00
50.5222 695.00
50.5874 714.00
50.6526 641.00
50.7178 652.00
50.783 665.00
50.8482 699.00
50.9134 731.00
50.9786 704.00
51.0438 747.00
51.109 722.00
51.1742 859.00
51.2394 779.00
51.3046 770.00
51.3698 771.00
51.435 839.00
51.5002 821.00
51.5654 936.00
51.6306 908.00
51.6958 968.00
51.761 1013.00
51.8262 1082.00
51.8914 1182.00
51.9566 1190.00
52.0218 1480.00
52.087 1316.00
52.1522 1232.00
52.2174 1211.00
52.2826 1083.00
52.3477 1115.00
52.4129 945.00
52.4781 981.00
52.5433 904.00
52.6085 853.00
52.6737 829.00
52.7389 845.00
52.8041 783.00
52.8693 807.00
52.9345 728.00
52.9997 726.00
53.0649 776.00
53.1301 779.00
53.1953 767.00
53.2605 844.00
53.3257 856.00
53.3909 795.00
53.4561 719.00
53.5213 785.00
53.5865 741.00
53.6517 709.00
53.7169 715.00
53.7821 736.00
53.8473 785.00
53.9125 787.00
53.9777 746.00
54.0429 707.00
54.1081 740.00
54.1733 752.00
54.2385 707.00
54.3037 720.00
54.3689 683.00
54.4341 709.00
54.4993 704.00
54.5645 717.00
54.6297 680.00
54.6949 751.00
54.7601 742.00
54.8253 804.00
54.8905 825.00
54.9557 810.00
55.0209 838.00
55.0861 783.00
55.1513 747.00
55.2165 750.00
55.2817 698.00
55.3469 757.00
55.4121 728.00
55.4773 694.00
55.5425 734.00
55.6077 948.00
55.6729 775.00
55.7381 729.00
55.8033 659.00
55.8685 613.00
55.9337 620.00
55.9989 628.00
56.0641 620.00
56.1293 633.00
56.1945 636.00
56.2597 604.00
56.3249 661.00
56.3901 653.00
56.4553 679.00
56.5205 657.00
56.5857 672.00
56.6509 650.00
56.7161 706.00
56.7813 632.00
56.8465 700.00
56.9117 684.00
56.9769 708.00
57.042 726.00
57.1073 655.00
57.1724 659.00
57.2376 691.00
57.3028 764.00
57.368 754.00
57.4332 719.00
57.4984 751.00
57.5636 815.00
57.6288 725.00
57.694 726.00
57.7592 695.00
57.8244 697.00
57.8896 748.00
57.9548 759.00
58.02 866.00
58.0852 764.00
58.1504 812.00
58.2156 774.00
58.2808 780.00
58.346 746.00
58.4112 760.00
58.4764 796.00
58.5416 778.00
58.6068 759.00
58.672 745.00
58.7372 748.00
58.8024 715.00
58.8676 712.00
58.9328 621.00
58.998 626.00
59.0632 680.00
59.1284 594.00
59.1936 628.00
59.2588 661.00
59.324 636.00
59.3892 602.00
59.4544 637.00
59.5196 663.00
59.5848 706.00
59.65 657.00
59.7152 652.00
59.7804 677.00
59.8456 612.00
59.9108 635.00
59.976 639.00
60.0412 645.00
60.1064 683.00
60.1716 607.00
60.2368 596.00
60.302 617.00
60.3672 593.00
60.4324 589.00
60.4976 544.00
60.5628 544.00
60.628 618.00
60.6932 511.00
60.7584 551.00
60.8236 573.00
60.8888 690.00
60.954 681.00
61.0192 694.00
61.0844 773.00
61.1496 757.00
61.2148 704.00
61.28 730.00
61.3452 643.00
61.4104 675.00
61.4756 605.00
61.5408 713.00
61.606 627.00
61.6712 653.00
61.7364 681.00
61.8016 701.00
61.8667 681.00
61.932 701.00
61.9971 656.00
62.0623 651.00
62.1275 837.00
62.1927 778.00
62.2579 779.00
62.3231 867.00
62.3883 790.00
62.4535 719.00
62.5187 737.00
62.5839 697.00
62.6491 770.00
62.7143 762.00
62.7795 938.00
62.8447 749.00
62.9099 767.00
62.9751 825.00
63.0403 702.00
63.1055 664.00
63.1707 651.00
63.2359 669.00
63.3011 650.00
63.3663 630.00
63.4315 657.00
63.4967 688.00
63.5619 637.00
63.6271 616.00
63.6923 678.00
63.7575 648.00
63.8227 620.00
63.8879 579.00
63.9531 598.00
64.0183 681.00
64.0835 700.00
64.1487 623.00
64.2139 658.00
64.2791 646.00
64.3443 665.00
64.4095 689.00
64.4747 688.00
64.5399 606.00
64.6051 650.00
64.6703 662.00
64.7355 666.00
64.8007 898.00
64.8659 954.00
64.9311 799.00
64.9963 901.00
65.0615 827.00
65.1267 745.00
65.1919 740.00
65.2571 734.00
65.3223 681.00
65.3875 669.00
65.4527 712.00
65.5179 626.00
65.5831 647.00
65.6483 639.00
65.7135 630.00
65.7787 621.00
65.8439 624.00
65.9091 656.00
65.9743 634.00
66.0395 659.00
66.1047 718.00
66.1699 720.00
66.2351 706.00
66.3003 654.00
66.3655 720.00
66.4307 643.00
66.4959 589.00
66.561 655.00
66.6263 586.00
66.6915 636.00
66.7566 593.00
66.8218 622.00
66.887 591.00
66.9522 538.00
67.0174 594.00
67.0826 546.00
67.1478 549.00
67.213 494.00
67.2782 560.00
67.3434 555.00
67.4086 546.00
67.4738 572.00
67.539 580.00
67.6042 528.00
67.6694 568.00
67.7346 554.00
67.7998 556.00
67.865 614.00
67.9302 601.00
67.9954 538.00
68.0606 533.00
68.1258 524.00
68.191 535.00
68.2562 534.00
68.3214 554.00
68.3866 533.00
68.4518 489.00
68.517 483.00
68.5822 546.00
68.6474 522.00
68.7126 467.00
68.7778 525.00
68.843 505.00
68.9082 506.00
68.9734 508.00
69.0386 560.00
69.1038 481.00
69.169 498.00
69.2342 506.00
69.2994 479.00
69.3646 511.00
69.4298 540.00
69.495 555.00
69.5602 460.00
69.6254 494.00
69.6906 467.00
69.7558 481.00
69.821 512.00
69.8862 489.00
69.9514 492.00
70.0166 472.00
70.0818 511.00
70.147 469.00
70.2122 446.00
70.2774 438.00
70.3426 500.00
70.4078 486.00
70.473 451.00
70.5382 514.00
70.6034 499.00
70.6686 484.00
70.7338 497.00
70.799 461.00
70.8642 537.00
70.9294 524.00
70.9946 534.00
71.0598 539.00
71.125 493.00
71.1902 585.00
71.2554 530.00
71.3205 569.00
71.3858 619.00
71.451 567.00
71.5162 635.00
71.5813 594.00
71.6465 577.00
71.7117 585.00
71.7769 633.00
71.8421 586.00
71.9073 541.00
71.9725 514.00
72.0377 545.00
72.1029 522.00
72.1681 546.00
72.2333 500.00
72.2985 499.00
72.3637 496.00
72.4289 475.00
72.4941 558.00
72.5593 554.00
72.6245 654.00
72.6897 648.00
72.7549 574.00
72.8201 583.00
72.8853 589.00
72.9505 587.00
73.0157 538.00
73.0809 510.00
73.1461 586.00
73.2113 546.00
73.2765 555.00
73.3417 563.00
73.4069 632.00
73.4721 551.00
73.5373 521.00
73.6025 530.00
73.6677 484.00
73.7329 459.00
73.7981 419.00
73.8633 479.00
73.9285 438.00
73.9937 476.00
74.0589 458.00
74.1241 426.00
74.1893 401.00
74.2545 415.00
74.3197 447.00
74.3849 504.00
74.4501 479.00
74.5153 459.00
74.5805 443.00
74.6457 442.00
74.7109 425.00
74.7761 429.00
74.8413 423.00
74.9065 420.00
74.9717 448.00
75.0369 466.00
75.1021 486.00
75.1673 425.00
75.2325 460.00
75.2977 500.00
75.3629 470.00
75.4281 496.00
75.4933 493.00
75.5585 470.00
75.6237 469.00
75.6889 504.00
75.7541 520.00
75.8193 491.00
75.8845 484.00
75.9497 537.00
76.0149 437.00
76.0801 441.00
76.1452 460.00
76.2104 456.00
76.2756 477.00
76.3409 489.00
76.406 471.00
76.4712 488.00
76.5364 485.00
76.6016 425.00
76.6668 446.00
76.732 428.00
76.7972 413.00
76.8624 404.00
76.9276 466.00
76.9928 411.00
77.058 401.00
77.1232 439.00
77.1884 428.00
77.2536 433.00
77.3188 400.00
77.384 407.00
77.4492 460.00
77.5144 435.00
77.5796 439.00
77.6448 429.00
77.71 440.00
77.7752 451.00
77.8404 462.00
77.9056 472.00
77.9708 443.00
78.036 474.00
78.1012 453.00
78.1664 458.00
78.2316 487.00
78.2968 521.00
78.362 488.00
78.4272 464.00
78.4924 498.00
78.5576 489.00
78.6228 537.00
78.688 513.00
78.7532 531.00
78.8184 589.00
78.8836 554.00
78.9488 637.00
79.014 611.00
79.0792 529.00
79.1444 572.00
79.2096 576.00
79.2748 531.00
79.34 487.00
79.4052 542.00
79.4704 526.00
79.5356 484.00
79.6008 516.00
79.666 551.00
79.7312 649.00
79.7964 568.00
79.8616 499.00
79.9268 603.00
79.992 588.00
80.0572 510.00
80.1224 475.00
80.1876 466.00
80.2528 479.00
80.318 478.00
80.3832 483.00
80.4484 477.00
80.5136 470.00
80.5788 466.00
80.644 529.00
80.7092 475.00
80.7744 512.00
80.8396 519.00
80.9048 527.00
80.9699 495.00
81.0351 486.00
81.1003 496.00
81.1655 504.00
81.2307 506.00
81.2959 528.00
81.3611 479.00
81.4263 469.00
81.4915 490.00
81.5567 453.00
81.6219 468.00
81.6871 505.00
81.7523 473.00
81.8175 441.00
81.8827 475.00
81.9479 470.00
82.0131 431.00
82.0783 462.00
82.1435 448.00
82.2087 424.00
82.2739 467.00
82.3391 485.00
82.4043 464.00
82.4695 492.00
82.5347 422.00
82.5999 488.00
82.6651 483.00
82.7303 433.00
82.7955 439.00
82.8607 453.00
82.9259 443.00
82.9911 449.00
83.0563 465.00
83.1215 422.00
83.1867 468.00
83.2519 463.00
83.3171 461.00
83.3823 445.00
83.4475 478.00
83.5127 479.00
83.5779 465.00
83.6431 518.00
83.7083 469.00
83.7735 504.00
83.8387 518.00
83.9039 505.00
83.9691 507.00
84.0343 538.00
84.0995 478.00
84.1647 489.00
84.2299 504.00
84.2951 479.00
84.3603 448.00
84.4255 473.00
84.4907 432.00
84.5559 453.00
84.6211 454.00
84.6863 429.00
84.7515 430.00
84.8167 428.00
84.8819 442.00
84.9471 449.00
85.0123 439.00
85.0775 468.00
85.1427 420.00
85.2079 486.00
85.2731 441.00
85.3383 430.00
85.4035 449.00
85.4687 493.00
85.5339 424.00
85.5991 466.00
85.6643 463.00
85.7295 459.00
85.7946 467.00
85.8598 459.00
85.925 447.00
85.9903 469.00
86.0554 451.00
86.1206 436.00
86.1858 444.00
86.251 438.00
86.3162 458.00
86.3814 441.00
86.4466 437.00
86.5118 453.00
86.577 429.00
86.6422 464.00
86.7074 454.00
86.7726 445.00
86.8378 440.00
86.903 428.00
86.9682 421.00
87.0334 429.00
87.0986 441.00
87.1638 411.00
87.229 412.00
87.2942 445.00
87.3594 486.00
87.4246 498.00
87.4898 478.00
87.555 452.00
87.6202 466.00
87.6854 448.00
87.7506 465.00
87.8158 436.00
87.881 494.00
87.9462 459.00
88.0114 519.00
88.0766 481.00
88.1418 505.00
88.207 513.00
88.2722 491.00
88.3374 511.00
88.4026 497.00
88.4678 462.00
88.533 455.00
88.5982 401.00
88.6634 462.00
88.7286 480.00
88.7938 466.00
88.859 443.00
88.9242 440.00
88.9894 475.00
89.0546 448.00
89.1198 475.00
89.185 527.00
89.2502 455.00
89.3154 525.00
89.3806 468.00
89.4458 481.00
89.511 487.00
89.5762 571.00
89.6414 567.00
89.7066 510.00
89.7718 568.00
89.837 522.00
89.9022 580.00
89.9674 555.00
90.0326 517.00
90.0978 530.00
90.163 562.00
90.2282 544.00
90.2934 532.00
90.3586 504.00
90.4238 493.00
90.489 529.00
90.5542 511.00
90.6193 500.00
90.6845 489.00
90.7497 498.00
90.8149 485.00
90.8801 498.00
90.9453 479.00
91.0105 492.00
91.0757 522.00
91.1409 545.00
91.2061 509.00
91.2713 565.00
91.3365 484.00
91.4017 498.00
91.4669 503.00
91.5321 490.00
91.5973 480.00
91.6625 441.00
91.7277 426.00
91.7929 433.00
91.8581 470.00
91.9233 441.00
91.9885 441.00
92.0537 422.00
92.1189 455.00
92.1841 385.00
92.2493 462.00
92.3145 422.00
92.3797 426.00
92.4449 442.00
92.5101 408.00
92.5753 462.00
92.6405 439.00
92.7057 413.00
92.7709 486.00
92.8361 480.00
92.9013 419.00
92.9665 425.00
93.0317 425.00
93.0969 437.00
93.1621 464.00
93.2273 453.00
93.2925 431.00
93.3577 440.00
93.4229 471.00
93.4881 447.00
93.5533 434.00
93.6185 471.00
93.6837 453.00
93.7489 395.00
93.8141 423.00
93.8793 402.00
93.9445 408.00
94.0097 413.00
94.0749 460.00
94.1401 377.00
94.2053 458.00
94.2705 447.00
94.3357 444.00
94.4009 461.00
94.4661 437.00
94.5313 470.00
94.5965 440.00
94.6617 441.00
94.7269 458.00
94.7921 449.00
94.8573 420.00
94.9225 419.00
94.9877 458.00
95.0529 400.00
95.1181 412.00
95.1833 471.00
95.2485 441.00
95.3137 482.00
95.3789 460.00
95.444 451.00
95.5092 466.00
95.5744 482.00
95.6396 483.00
95.7048 540.00
95.77 468.00
95.8352 459.00
95.9004 499.00
95.9656 448.00
96.0308 472.00
96.096 482.00
96.1612 503.00
96.2264 515.00
96.2916 497.00
96.3568 460.00
96.422 433.00
96.4872 498.00
96.5524 477.00
96.6176 487.00
96.6828 425.00
96.748 468.00
96.8132 470.00
96.8784 503.00
96.9436 468.00
97.0088 444.00
97.074 391.00
97.1392 409.00
97.2044 405.00
97.2696 436.00
97.3348 410.00
97.4 463.00
97.4652 413.00
97.5304 470.00
97.5956 498.00
97.6608 488.00
97.726 446.00
97.7912 486.00
97.8564 451.00
97.9216 476.00
97.9868 458.00
98.052 443.00
98.1172 435.00
98.1824 428.00
98.2476 400.00
98.3128 440.00
98.378 431.00
98.4432 451.00
98.5084 459.00
98.5736 445.00
98.6388 418.00
98.704 437.00
98.7692 396.00
98.8344 421.00
98.8996 418.00
98.9648 394.00
99.03 388.00
99.0952 435.00
99.1604 421.00
99.2256 393.00
99.2908 416.00
99.356 402.00
99.4212 443.00
99.4864 421.00
99.5516 419.00
99.6168 413.00
99.682 418.00
99.7472 415.00
99.8124 423.00
99.8776 380.00
99.9428 412.00
100.008 394.00
100.073 394.00
100.095 384.00