File: data/xrd_creation/results/Na_185.xy
9.903433 2730.00
9.968632 2799.00
10.0338 2742.00
10.099 2750.00
10.1642 2732.00
10.2294 2695.00
10.2946 2753.00
10.3598 2730.00
10.425 2633.00
10.4902 2630.00
10.5554 2532.00
10.6206 2629.00
10.6858 2591.00
10.751 2467.00
10.8162 2533.00
10.8814 2556.00
10.9466 2600.00
11.0118 2536.00
11.077 2560.00
11.1422 2588.00
11.2074 2679.00
11.2726 2838.00
11.3378 3114.00
11.403 3264.00
11.4682 3757.00
11.5334 4404.00
11.5986 5467.00
11.6638 7120.00
11.729 9713.00
11.7942 11218.00
11.8594 7967.00
11.9246 5878.00
11.9898 3258.00
12.055 2636.00
12.1202 2460.00
12.1854 2355.00
12.2506 2303.00
12.3158 2285.00
12.381 2284.00
12.4462 2288.00
12.5114 2213.00
12.5766 2288.00
12.6418 2235.00
12.707 2198.00
12.7722 2143.00
12.8374 2142.00
12.9026 2074.00
12.9678 2100.00
13.033 2116.00
13.0982 2072.00
13.1634 2012.00
13.2286 2037.00
13.2938 2068.00
13.359 1971.00
13.4242 2105.00
13.4894 1976.00
13.5546 1969.00
13.6198 2079.00
13.685 2004.00
13.7502 1969.00
13.8154 1997.00
13.8805 1984.00
13.9457 1923.00
14.0109 1935.00
14.0761 1971.00
14.1413 1886.00
14.2065 1871.00
14.2717 1851.00
14.3369 1939.00
14.4021 1940.00
14.4673 1886.00
14.5325 1854.00
14.5977 1890.00
14.6629 1947.00
14.7281 1965.00
14.7933 1988.00
14.8585 2123.00
14.9237 2207.00
14.9889 2278.00
15.0541 2470.00
15.1193 2118.00
15.1845 1957.00
15.2497 1832.00
15.3149 1810.00
15.3801 1777.00
15.4453 1721.00
15.5105 1772.00
15.5757 1772.00
15.6409 1769.00
15.7061 1813.00
15.7713 1746.00
15.8365 1904.00
15.9017 1867.00
15.9669 1727.00
16.0321 1879.00
16.0973 1796.00
16.1625 1971.00
16.2277 1924.00
16.2929 2110.00
16.3581 2440.00
16.4233 2761.00
16.4885 3595.00
16.5537 4414.00
16.6189 5674.00
16.6841 4037.00
16.7493 2268.00
16.8145 1937.00
16.8797 1846.00
16.9449 1744.00
17.0101 1641.00
17.0753 1788.00
17.1405 1682.00
17.2057 1763.00
17.2709 1688.00
17.3361 1723.00
17.4013 1772.00
17.4665 1733.00
17.5317 1631.00
17.5969 1713.00
17.6621 1611.00
17.7273 1660.00
17.7925 1723.00
17.8577 1743.00
17.9229 1877.00
17.9881 1923.00
18.0533 2128.00
18.1185 2671.00
18.1837 3299.00
18.2489 3882.00
18.3141 3357.00
18.3793 2753.00
18.4445 1947.00
18.5097 1706.00
18.5749 1676.00
18.6401 1573.00
18.7052 1566.00
18.7704 1567.00
18.8356 1542.00
18.9008 1519.00
18.966 1567.00
19.0312 1490.00
19.0964 1507.00
19.1616 1440.00
19.2268 1490.00
19.292 1437.00
19.3572 1481.00
19.4224 1510.00
19.4876 1361.00
19.5528 1489.00
19.618 1490.00
19.6832 1386.00
19.7484 1433.00
19.8136 1451.00
19.8788 1358.00
19.944 1429.00
20.0092 1435.00
20.0744 1446.00
20.1396 1316.00
20.2048 1376.00
20.27 1375.00
20.3352 1454.00
20.4004 1497.00
20.4656 1396.00
20.5308 1422.00
20.596 1357.00
20.6612 1328.00
20.7264 1371.00
20.7916 1406.00
20.8568 1393.00
20.922 1563.00
20.9872 1623.00
21.0524 1741.00
21.1176 1700.00
21.1828 1491.00
21.248 1399.00
21.3132 1393.00
21.3784 1358.00
21.4436 1361.00
21.5088 1345.00
21.574 1346.00
21.6392 1282.00
21.7044 1303.00
21.7696 1300.00
21.8348 1299.00
21.9 1332.00
21.9652 1212.00
22.0304 1189.00
22.0956 1276.00
22.1608 1260.00
22.226 1254.00
22.2912 1222.00
22.3564 1167.00
22.4216 1283.00
22.4868 1232.00
22.552 1190.00
22.6172 1226.00
22.6824 1182.00
22.7476 1155.00
22.8128 1244.00
22.878 1224.00
22.9432 1175.00
23.0084 1281.00
23.0736 1281.00
23.1388 1221.00
23.204 1258.00
23.2692 1190.00
23.3344 1247.00
23.3996 1321.00
23.4647 1223.00
23.5299 1257.00
23.5951 1355.00
23.6603 1257.00
23.7255 1247.00
23.7907 1272.00
23.8559 1226.00
23.9211 1179.00
23.9863 1232.00
24.0515 1218.00
24.1167 1198.00
24.1819 1320.00
24.2471 1377.00
24.3123 1444.00
24.3775 1382.00
24.4427 1622.00
24.5079 1961.00
24.5731 2459.00
24.6383 2518.00
24.7035 2075.00
24.7687 2193.00
24.8339 2785.00
24.8991 2779.00
24.9643 1858.00
25.0295 1405.00
25.0947 1331.00
25.1599 1336.00
25.2251 1330.00
25.2903 1187.00
25.3555 1269.00
25.4207 1298.00
25.4859 1305.00
25.5511 1365.00
25.6163 1379.00
25.6815 1395.00
25.7467 1329.00
25.8119 1390.00
25.8771 1450.00
25.9423 1828.00
26.0075 2510.00
26.0727 3852.00
26.1379 5820.00
26.2031 6357.00
26.2683 6842.00
26.3335 6587.00
26.3987 4141.00
26.4639 2128.00
26.5291 1582.00
26.5943 1502.00
26.6595 1554.00
26.7247 1789.00
26.7899 2472.00
26.8551 3231.00
26.9203 3677.00
26.9855 2967.00
27.0507 2021.00
27.1159 1590.00
27.1811 1478.00
27.2463 1323.00
27.3115 1366.00
27.3767 1442.00
27.4419 1493.00
27.5071 1483.00
27.5723 1435.00
27.6375 1312.00
27.7027 1413.00
27.7679 1573.00
27.8331 2041.00
27.8983 3010.00
27.9635 4897.00
28.0287 6677.00
28.0939 6992.00
28.1591 4497.00
28.2243 3375.00
28.2894 3556.00
28.3546 2596.00
28.4198 1707.00
28.485 1455.00
28.5502 1381.00
28.6154 1254.00
28.6806 1179.00
28.7458 1147.00
28.811 1115.00
28.8762 1018.00
28.9414 1029.00
29.0066 1030.00
29.0718 1157.00
29.137 1052.00
29.2022 997.00
29.2674 1034.00
29.3326 954.00
29.3978 973.00
29.463 989.00
29.5282 1048.00
29.5934 936.00
29.6586 999.00
29.7238 978.00
29.789 975.00
29.8542 943.00
29.9194 985.00
29.9846 1037.00
30.0498 984.00
30.115 1089.00
30.1802 1188.00
30.2454 1531.00
30.3106 1904.00
30.3758 1721.00
30.441 1381.00
30.5062 1397.00
30.5714 1587.00
30.6366 1652.00
30.7018 1373.00
30.767 1123.00
30.8322 959.00
30.8974 970.00
30.9626 962.00
31.0278 943.00
31.093 989.00
31.1582 1002.00
31.2234 972.00
31.2886 996.00
31.3538 1049.00
31.419 979.00
31.4842 1171.00
31.5494 1427.00
31.6146 1832.00
31.6798 2210.00
31.745 1876.00
31.8102 1562.00
31.8754 1421.00
31.9406 1511.00
32.0058 1699.00
32.071 2189.00
32.1362 2300.00
32.2014 1816.00
32.2666 1366.00
32.3318 1073.00
32.397 993.00
32.4622 1016.00
32.5274 952.00
32.5926 1009.00
32.6578 1047.00
32.723 1099.00
32.7882 1194.00
32.8534 1113.00
32.9186 1204.00
32.9838 1247.00
33.0489 1740.00
33.1141 2834.00
33.1793 5214.00
33.2445 8464.00
33.3097 7988.00
33.3749 5019.00
33.4401 2496.00
33.5053 1486.00
33.5705 1203.00
33.6357 1075.00
33.7009 1109.00
33.7661 1040.00
33.8313 1150.00
33.8965 1141.00
33.9617 1402.00
34.0269 1760.00
34.0921 2565.00
34.1573 3151.00
34.2225 3094.00
34.2877 2635.00
34.3529 2217.00
34.4181 2452.00
34.4833 3323.00
34.5485 5404.00
34.6137 8233.00
34.6789 10275.00
34.7441 8318.00
34.8093 4945.00
34.8745 2466.00
34.9397 1969.00
35.0049 2408.00
35.0701 3180.00
35.1353 3683.00
35.2005 2653.00
35.2657 1729.00
35.3309 1165.00
35.3961 971.00
35.4613 982.00
35.5265 868.00
35.5917 916.00
35.6569 881.00
35.7221 861.00
35.7873 838.00
35.8525 778.00
35.9177 820.00
35.9829 761.00
36.0481 816.00
36.1133 817.00
36.1785 825.00
36.2437 764.00
36.3089 892.00
36.3741 926.00
36.4393 947.00
36.5045 884.00
36.5697 925.00
36.6349 831.00
36.7001 871.00
36.7653 922.00
36.8305 839.00
36.8957 854.00
36.9609 897.00
37.0261 912.00
37.0913 1017.00
37.1565 966.00
37.2217 858.00
37.2869 873.00
37.3521 972.00
37.4173 1018.00
37.4825 1027.00
37.5477 857.00
37.6129 810.00
37.6781 681.00
37.7433 830.00
37.8085 763.00
37.8736 849.00
37.9388 929.00
38.004 1001.00
38.0692 1183.00
38.1344 1285.00
38.1996 1303.00
38.2648 1179.00
38.33 1132.00
38.3952 999.00
38.4604 927.00
38.5256 854.00
38.5908 838.00
38.656 851.00
38.7212 726.00
38.7864 735.00
38.8516 729.00
38.9168 748.00
38.982 709.00
39.0472 751.00
39.1124 723.00
39.1776 791.00
39.2428 954.00
39.308 951.00
39.3732 1056.00
39.4384 1051.00
39.5036 965.00
39.5688 812.00
39.634 739.00
39.6992 767.00
39.7644 771.00
39.8296 797.00
39.8948 801.00
39.96 867.00
40.0252 764.00
40.0904 755.00
40.1556 750.00
40.2208 669.00
40.286 661.00
40.3512 648.00
40.4164 647.00
40.4816 722.00
40.5468 691.00
40.612 754.00
40.6772 747.00
40.7424 784.00
40.8076 769.00
40.8728 720.00
40.938 706.00
41.0032 680.00
41.0684 707.00
41.1336 711.00
41.1988 790.00
41.264 795.00
41.3292 865.00
41.3944 845.00
41.4596 775.00
41.5248 824.00
41.59 786.00
41.6552 810.00
41.7204 815.00
41.7856 797.00
41.8508 818.00
41.916 917.00
41.9812 1107.00
42.0464 1195.00
42.1116 1092.00
42.1768 946.00
42.242 875.00
42.3072 957.00
42.3724 1179.00
42.4376 1426.00
42.5028 1459.00
42.568 1470.00
42.6332 1362.00
42.6983 1265.00
42.7635 1413.00
42.8287 1250.00
42.8939 1042.00
42.9591 909.00
43.0243 803.00
43.0895 788.00
43.1547 699.00
43.2199 681.00
43.2851 681.00
43.3503 687.00
43.4155 632.00
43.4807 632.00
43.5459 640.00
43.6111 665.00
43.6763 752.00
43.7415 886.00
43.8067 940.00
43.8719 953.00
43.9371 889.00
44.0023 932.00
44.0675 849.00
44.1327 785.00
44.1979 725.00
44.2631 707.00
44.3283 723.00
44.3935 724.00
44.4587 811.00
44.5239 753.00
44.5891 728.00
44.6543 636.00
44.7195 644.00
44.7847 672.00
44.8499 680.00
44.9151 654.00
44.9803 634.00
45.0455 656.00
45.1107 655.00
45.1759 666.00
45.2411 738.00
45.3063 721.00
45.3715 699.00
45.4367 767.00
45.5019 721.00
45.5671 852.00
45.6323 867.00
45.6975 1065.00
45.7627 965.00
45.8279 929.00
45.8931 849.00
45.9583 744.00
46.0235 645.00
46.0887 656.00
46.1539 650.00
46.2191 615.00
46.2843 667.00
46.3495 625.00
46.4147 690.00
46.4799 783.00
46.5451 777.00
46.6103 667.00
46.6755 612.00
46.7407 696.00
46.8059 658.00
46.8711 633.00
46.9363 650.00
47.0015 715.00
47.0667 797.00
47.1319 867.00
47.1971 921.00
47.2623 1011.00
47.3275 1278.00
47.3927 1223.00
47.4579 1226.00
47.523 1408.00
47.5882 1430.00
47.6534 1530.00
47.7186 1760.00
47.7838 2107.00
47.849 2679.00
47.9142 2468.00
47.9794 1864.00
48.0446 1491.00
48.1098 1005.00
48.175 833.00
48.2402 784.00
48.3054 768.00
48.3706 797.00
48.4358 730.00
48.501 696.00
48.5662 635.00
48.6314 700.00
48.6966 624.00
48.7618 791.00
48.827 799.00
48.8922 878.00
48.9574 883.00
49.0226 821.00
49.0878 787.00
49.153 738.00
49.2182 772.00
49.2834 837.00
49.3486 1021.00
49.4138 1143.00
49.479 1146.00
49.5442 1096.00
49.6094 1061.00
49.6746 920.00
49.7398 816.00
49.805 802.00
49.8702 948.00
49.9354 1256.00
50.0006 1551.00
50.0658 1357.00
50.131 1282.00
50.1962 1171.00
50.2614 1127.00
50.3266 1301.00
50.3918 1319.00
50.457 1262.00
50.5222 1312.00
50.5874 1417.00
50.6526 1517.00
50.7178 1308.00
50.783 1179.00
50.8482 953.00
50.9134 821.00
50.9786 764.00
51.0438 689.00
51.109 711.00
51.1742 597.00
51.2394 665.00
51.3046 635.00
51.3698 642.00
51.435 697.00
51.5002 713.00
51.5654 774.00
51.6306 754.00
51.6958 786.00
51.761 847.00
51.8262 963.00
51.8914 1462.00
51.9566 2323.00
52.0218 3133.00
52.087 2798.00
52.1522 2451.00
52.2174 1853.00
52.2826 1282.00
52.3477 1033.00
52.4129 897.00
52.4781 860.00
52.5433 780.00
52.6085 700.00
52.6737 720.00
52.7389 627.00
52.8041 572.00
52.8693 551.00
52.9345 521.00
52.9997 548.00
53.0649 542.00
53.1301 521.00
53.1953 604.00
53.2605 700.00
53.3257 848.00
53.3909 974.00
53.4561 1016.00
53.5213 872.00
53.5865 847.00
53.6517 736.00
53.7169 707.00
53.7821 675.00
53.8473 721.00
53.9125 748.00
53.9777 659.00
54.0429 692.00
54.1081 713.00
54.1733 680.00
54.2385 679.00
54.3037 715.00
54.3689 690.00
54.4341 628.00
54.4993 713.00
54.5645 778.00
54.6297 756.00
54.6949 717.00
54.7601 662.00
54.8253 642.00
54.8905 659.00
54.9557 770.00
55.0209 910.00
55.0861 966.00
55.1513 912.00
55.2165 866.00
55.2817 741.00
55.3469 689.00
55.4121 681.00
55.4773 573.00
55.5425 605.00
55.6077 649.00
55.6729 696.00
55.7381 788.00
55.8033 890.00
55.8685 950.00
55.9337 1077.00
55.9989 885.00
56.0641 783.00
56.1293 655.00
56.1945 584.00
56.2597 582.00
56.3249 601.00
56.3901 649.00
56.4553 649.00
56.5205 746.00
56.5857 760.00
56.6509 793.00
56.7161 744.00
56.7813 793.00
56.8465 710.00
56.9117 723.00
56.9769 699.00
57.042 699.00
57.1073 830.00
57.1724 891.00
57.2376 943.00
57.3028 972.00
57.368 929.00
57.4332 850.00
57.4984 806.00
57.5636 839.00
57.6288 793.00
57.694 795.00
57.7592 783.00
57.8244 799.00
57.8896 738.00
57.9548 733.00
58.02 853.00
58.0852 900.00
58.1504 801.00
58.2156 796.00
58.2808 801.00
58.346 784.00
58.4112 753.00
58.4764 739.00
58.5416 745.00
58.6068 917.00
58.672 1130.00
58.7372 1445.00
58.8024 1472.00
58.8676 1401.00
58.9328 1253.00
58.998 1044.00
59.0632 989.00
59.1284 1028.00
59.1936 995.00
59.2588 947.00
59.324 1002.00
59.3892 956.00
59.4544 959.00
59.5196 926.00
59.5848 1000.00
59.65 1116.00
59.7152 1269.00
59.7804 1520.00
59.8456 1733.00
59.9108 2025.00
59.976 2092.00
60.0412 2034.00
60.1064 1900.00
60.1716 1617.00
60.2368 1407.00
60.302 1234.00
60.3672 1147.00
60.4324 1125.00
60.4976 1231.00
60.5628 1354.00
60.628 1442.00
60.6932 1252.00
60.7584 1154.00
60.8236 1024.00
60.8888 864.00
60.954 735.00
61.0192 666.00
61.0844 691.00
61.1496 703.00
61.2148 685.00
61.28 648.00
61.3452 659.00
61.4104 636.00
61.4756 610.00
61.5408 596.00
61.606 575.00
61.6712 530.00
61.7364 558.00
61.8016 560.00
61.8667 644.00
61.932 648.00
61.9971 719.00
62.0623 827.00
62.1275 873.00
62.1927 881.00
62.2579 792.00
62.3231 762.00
62.3883 686.00
62.4535 688.00
62.5187 775.00
62.5839 928.00
62.6491 1182.00
62.7143 1029.00
62.7795 817.00
62.8447 872.00
62.9099 637.00
62.9751 619.00
63.0403 561.00
63.1055 602.00
63.1707 664.00
63.2359 934.00
63.3011 1037.00
63.3663 1006.00
63.4315 1012.00
63.4967 829.00
63.5619 713.00
63.6271 654.00
63.6923 550.00
63.7575 494.00
63.8227 528.00
63.8879 598.00
63.9531 533.00
64.0183 526.00
64.0835 597.00
64.1487 610.00
64.2139 523.00
64.2791 555.00
64.3443 584.00
64.4095 597.00
64.4747 571.00
64.5399 626.00
64.6051 700.00
64.6703 657.00
64.7355 764.00
64.8007 735.00
64.8659 766.00
64.9311 838.00
64.9963 851.00
65.0615 785.00
65.1267 843.00
65.1919 856.00
65.2571 790.00
65.3223 728.00
65.3875 749.00
65.4527 615.00
65.5179 633.00
65.5831 592.00
65.6483 581.00
65.7135 597.00
65.7787 606.00
65.8439 681.00
65.9091 632.00
65.9743 750.00
66.0395 750.00
66.1047 829.00
66.1699 959.00
66.2351 933.00
66.3003 933.00
66.3655 858.00
66.4307 841.00
66.4959 832.00
66.561 732.00
66.6263 737.00
66.6915 654.00
66.7566 597.00
66.8218 535.00
66.887 556.00
66.9522 600.00
67.0174 522.00
67.0826 494.00
67.1478 550.00
67.213 536.00
67.2782 581.00
67.3434 575.00
67.4086 599.00
67.4738 597.00
67.539 581.00
67.6042 563.00
67.6694 554.00
67.7346 608.00
67.7998 603.00
67.865 604.00
67.9302 623.00
67.9954 568.00
68.0606 626.00
68.1258 558.00
68.191 494.00
68.2562 525.00
68.3214 592.00
68.3866 603.00
68.4518 622.00
68.517 543.00
68.5822 548.00
68.6474 517.00
68.7126 524.00
68.7778 523.00
68.843 533.00
68.9082 563.00
68.9734 564.00
69.0386 586.00
69.1038 605.00
69.169 631.00
69.2342 628.00
69.2994 599.00
69.3646 659.00
69.4298 657.00
69.495 626.00
69.5602 645.00
69.6254 587.00
69.6906 578.00
69.7558 527.00
69.821 497.00
69.8862 483.00
69.9514 462.00
70.0166 467.00
70.0818 495.00
70.147 473.00
70.2122 437.00
70.2774 444.00
70.3426 446.00
70.4078 398.00
70.473 383.00
70.5382 483.00
70.6034 455.00
70.6686 477.00
70.7338 484.00
70.799 463.00
70.8642 413.00
70.9294 414.00
70.9946 454.00
71.0598 430.00
71.125 431.00
71.1902 441.00
71.2554 460.00
71.3205 493.00
71.3858 520.00
71.451 504.00
71.5162 555.00
71.5813 487.00
71.6465 527.00
71.7117 466.00
71.7769 456.00
71.8421 470.00
71.9073 447.00
71.9725 428.00
72.0377 443.00
72.1029 392.00
72.1681 459.00
72.2333 451.00
72.2985 493.00
72.3637 497.00
72.4289 571.00
72.4941 650.00
72.5593 714.00
72.6245 767.00
72.6897 787.00
72.7549 770.00
72.8201 686.00
72.8853 631.00
72.9505 593.00
73.0157 490.00
73.0809 469.00
73.1461 404.00
73.2113 427.00
73.2765 443.00
73.3417 414.00
73.4069 435.00
73.4721 435.00
73.5373 437.00
73.6025 514.00
73.6677 584.00
73.7329 648.00
73.7981 665.00
73.8633 619.00
73.9285 607.00
73.9937 537.00
74.0589 481.00
74.1241 497.00
74.1893 439.00
74.2545 418.00
74.3197 358.00
74.3849 387.00
74.4501 405.00
74.5153 368.00
74.5805 472.00
74.6457 406.00
74.7109 444.00
74.7761 499.00
74.8413 501.00
74.9065 530.00
74.9717 495.00
75.0369 423.00
75.1021 457.00
75.1673 474.00
75.2325 441.00
75.2977 395.00
75.3629 375.00
75.4281 393.00
75.4933 380.00
75.5585 418.00
75.6237 426.00
75.6889 412.00
75.7541 460.00
75.8193 467.00
75.8845 486.00
75.9497 507.00
76.0149 476.00
76.0801 446.00
76.1452 426.00
76.2104 436.00
76.2756 441.00
76.3409 412.00
76.406 451.00
76.4712 464.00
76.5364 492.00
76.6016 505.00
76.6668 516.00
76.732 500.00
76.7972 479.00
76.8624 502.00
76.9276 476.00
76.9928 434.00
77.058 412.00
77.1232 466.00
77.1884 420.00
77.2536 447.00
77.3188 455.00
77.384 470.00
77.4492 457.00
77.5144 472.00
77.5796 501.00
77.6448 491.00
77.71 563.00
77.7752 569.00
77.8404 516.00
77.9056 541.00
77.9708 537.00
78.036 504.00
78.1012 451.00
78.1664 478.00
78.2316 393.00
78.2968 413.00
78.362 440.00
78.4272 410.00
78.4924 431.00
78.5576 463.00
78.6228 465.00
78.688 468.00
78.7532 489.00
78.8184 511.00
78.8836 566.00
78.9488 608.00
79.014 555.00
79.0792 554.00
79.1444 566.00
79.2096 597.00
79.2748 650.00
79.34 727.00
79.4052 695.00
79.4704 651.00
79.5356 619.00
79.6008 644.00
79.666 574.00
79.7312 589.00
79.7964 594.00
79.8616 539.00
79.9268 522.00
79.992 478.00
80.0572 478.00
80.1224 453.00
80.1876 459.00
80.2528 418.00
80.318 412.00
80.3832 438.00
80.4484 438.00
80.5136 421.00
80.5788 459.00
80.644 512.00
80.7092 552.00
80.7744 564.00
80.8396 530.00
80.9048 521.00
80.9699 568.00
81.0351 554.00
81.1003 528.00
81.1655 530.00
81.2307 526.00
81.2959 511.00
81.3611 525.00
81.4263 492.00
81.4915 514.00
81.5567 454.00
81.6219 504.00
81.6871 438.00
81.7523 503.00
81.8175 443.00
81.8827 448.00
81.9479 483.00
82.0131 464.00
82.0783 468.00
82.1435 480.00
82.2087 470.00
82.2739 469.00
82.3391 433.00
82.4043 442.00
82.4695 458.00
82.5347 432.00
82.5999 475.00
82.6651 392.00
82.7303 379.00
82.7955 379.00
82.8607 398.00
82.9259 401.00
82.9911 401.00
83.0563 410.00
83.1215 407.00
83.1867 422.00
83.2519 401.00
83.3171 429.00
83.3823 446.00
83.4475 425.00
83.5127 362.00
83.5779 414.00
83.6431 398.00
83.7083 417.00
83.7735 419.00
83.8387 478.00
83.9039 490.00
83.9691 513.00
84.0343 498.00
84.0995 561.00
84.1647 535.00
84.2299 483.00
84.2951 513.00
84.3603 465.00
84.4255 467.00
84.4907 425.00
84.5559 403.00
84.6211 396.00
84.6863 392.00
84.7515 359.00
84.8167 389.00
84.8819 413.00
84.9471 427.00
85.0123 407.00
85.0775 410.00
85.1427 443.00
85.2079 432.00
85.2731 404.00
85.3383 457.00
85.4035 498.00
85.4687 450.00
85.5339 471.00
85.5991 451.00
85.6643 479.00
85.7295 494.00
85.7946 465.00
85.8598 493.00
85.925 496.00
85.9903 457.00
86.0554 450.00
86.1206 481.00
86.1858 522.00
86.251 531.00
86.3162 497.00
86.3814 475.00
86.4466 503.00
86.5118 598.00
86.577 616.00
86.6422 561.00
86.7074 468.00
86.7726 495.00
86.8378 512.00
86.903 473.00
86.9682 467.00
87.0334 524.00
87.0986 477.00
87.1638 503.00
87.229 470.00
87.2942 489.00
87.3594 489.00
87.4246 539.00
87.4898 537.00
87.555 501.00
87.6202 508.00
87.6854 446.00
87.7506 531.00
87.8158 515.00
87.881 459.00
87.9462 427.00
88.0114 420.00
88.0766 379.00
88.1418 427.00
88.207 408.00
88.2722 391.00
88.3374 385.00
88.4026 373.00
88.4678 347.00
88.533 401.00
88.5982 404.00
88.6634 388.00
88.7286 389.00
88.7938 423.00
88.859 410.00
88.9242 435.00
88.9894 470.00
89.0546 479.00
89.1198 468.00
89.185 498.00
89.2502 499.00
89.3154 462.00
89.3806 470.00
89.4458 471.00
89.511 489.00
89.5762 469.00
89.6414 474.00
89.7066 481.00
89.7718 483.00
89.837 510.00
89.9022 555.00
89.9674 520.00
90.0326 539.00
90.0978 559.00
90.163 565.00
90.2282 550.00
90.2934 536.00
90.3586 509.00
90.4238 472.00
90.489 444.00
90.5542 513.00
90.6193 462.00
90.6845 440.00
90.7497 440.00
90.8149 439.00
90.8801 492.00
90.9453 534.00
91.0105 565.00
91.0757 571.00
91.1409 568.00
91.2061 516.00
91.2713 486.00
91.3365 506.00
91.4017 484.00
91.4669 503.00
91.5321 454.00
91.5973 454.00
91.6625 421.00
91.7277 412.00
91.7929 452.00
91.8581 461.00
91.9233 415.00
91.9885 463.00
92.0537 438.00
92.1189 503.00
92.1841 491.00
92.2493 553.00
92.3145 519.00
92.3797 508.00
92.4449 485.00
92.5101 484.00
92.5753 490.00
92.6405 484.00
92.7057 435.00
92.7709 437.00
92.8361 446.00
92.9013 459.00
92.9665 413.00
93.0317 454.00
93.0969 452.00
93.1621 457.00
93.2273 479.00
93.2925 469.00
93.3577 471.00
93.4229 463.00
93.4881 457.00
93.5533 487.00
93.6185 438.00
93.6837 438.00
93.7489 423.00
93.8141 428.00
93.8793 403.00
93.9445 420.00
94.0097 392.00
94.0749 378.00
94.1401 405.00
94.2053 393.00
94.2705 367.00
94.3357 407.00
94.4009 352.00
94.4661 392.00
94.5313 354.00
94.5965 372.00
94.6617 376.00
94.7269 360.00
94.7921 374.00
94.8573 400.00
94.9225 391.00
94.9877 398.00
95.0529 354.00
95.1181 393.00
95.1833 384.00
95.2485 392.00
95.3137 398.00
95.3789 385.00
95.444 343.00
95.5092 350.00
95.5744 383.00
95.6396 353.00
95.7048 352.00
95.77 347.00
95.8352 379.00
95.9004 413.00
95.9656 423.00
96.0308 417.00
96.096 431.00
96.1612 435.00
96.2264 464.00
96.2916 472.00
96.3568 449.00
96.422 457.00
96.4872 455.00
96.5524 474.00
96.6176 473.00
96.6828 488.00
96.748 440.00
96.8132 475.00
96.8784 422.00
96.9436 444.00
97.0088 449.00
97.074 407.00
97.1392 459.00
97.2044 382.00
97.2696 366.00
97.3348 392.00
97.4 414.00
97.4652 479.00
97.5304 485.00
97.5956 499.00
97.6608 537.00
97.726 501.00
97.7912 580.00
97.8564 560.00
97.9216 548.00
97.9868 569.00
98.052 530.00
98.1172 561.00
98.1824 573.00
98.2476 543.00
98.3128 468.00
98.378 537.00
98.4432 452.00
98.5084 474.00
98.5736 450.00
98.6388 448.00
98.704 441.00
98.7692 442.00
98.8344 463.00
98.8996 419.00
98.9648 411.00
99.03 399.00
99.0952 412.00
99.1604 436.00
99.2256 415.00
99.2908 412.00
99.356 432.00
99.4212 400.00
99.4864 416.00
99.5516 417.00
99.6168 420.00
99.682 414.00
99.7472 381.00
99.8124 376.00
99.8776 407.00
99.9428 424.00
100.008 444.00
100.073 447.00
100.095 432.00