File: data/xrd_creation/results/Na_124.xy
9.903433 2697.00
9.968632 2753.00
10.0338 2654.00
10.099 2671.00
10.1642 2623.00
10.2294 2641.00
10.2946 2536.00
10.3598 2515.00
10.425 2413.00
10.4902 2464.00
10.5554 2464.00
10.6206 2482.00
10.6858 2448.00
10.751 2337.00
10.8162 2287.00
10.8814 2375.00
10.9466 2374.00
11.0118 2348.00
11.077 2255.00
11.1422 2304.00
11.2074 2290.00
11.2726 2283.00
11.3378 2247.00
11.403 2205.00
11.4682 2194.00
11.5334 2204.00
11.5986 2178.00
11.6638 2195.00
11.729 2063.00
11.7942 2148.00
11.8594 2106.00
11.9246 2088.00
11.9898 2015.00
12.055 2026.00
12.1202 2055.00
12.1854 2046.00
12.2506 2018.00
12.3158 1986.00
12.381 1989.00
12.4462 1972.00
12.5114 2026.00
12.5766 1941.00
12.6418 1863.00
12.707 1960.00
12.7722 1951.00
12.8374 1995.00
12.9026 1890.00
12.9678 1909.00
13.033 1961.00
13.0982 1941.00
13.1634 1992.00
13.2286 1943.00
13.2938 1838.00
13.359 1762.00
13.4242 1784.00
13.4894 1781.00
13.5546 1809.00
13.6198 1807.00
13.685 1760.00
13.7502 1724.00
13.8154 1802.00
13.8805 1702.00
13.9457 1708.00
14.0109 1653.00
14.0761 1842.00
14.1413 1681.00
14.2065 1728.00
14.2717 1821.00
14.3369 1746.00
14.4021 1692.00
14.4673 1814.00
14.5325 1729.00
14.5977 1711.00
14.6629 1653.00
14.7281 1803.00
14.7933 1790.00
14.8585 1647.00
14.9237 1699.00
14.9889 1623.00
15.0541 1697.00
15.1193 1678.00
15.1845 1609.00
15.2497 1707.00
15.3149 1726.00
15.3801 1708.00
15.4453 1662.00
15.5105 1609.00
15.5757 1670.00
15.6409 1693.00
15.7061 1641.00
15.7713 1593.00
15.8365 1652.00
15.9017 1555.00
15.9669 1614.00
16.0321 1486.00
16.0973 1582.00
16.1625 1595.00
16.2277 1550.00
16.2929 1599.00
16.3581 1484.00
16.4233 1594.00
16.4885 1547.00
16.5537 1527.00
16.6189 1517.00
16.6841 1624.00
16.7493 1491.00
16.8145 1508.00
16.8797 1481.00
16.9449 1445.00
17.0101 1438.00
17.0753 1445.00
17.1405 1493.00
17.2057 1481.00
17.2709 1474.00
17.3361 1515.00
17.4013 1493.00
17.4665 1497.00
17.5317 1465.00
17.5969 1478.00
17.6621 1438.00
17.7273 1475.00
17.7925 1465.00
17.8577 1488.00
17.9229 1479.00
17.9881 1424.00
18.0533 1406.00
18.1185 1419.00
18.1837 1379.00
18.2489 1412.00
18.3141 1438.00
18.3793 1422.00
18.4445 1363.00
18.5097 1412.00
18.5749 1410.00
18.6401 1399.00
18.7052 1374.00
18.7704 1345.00
18.8356 1464.00
18.9008 1425.00
18.966 1482.00
19.0312 1372.00
19.0964 1361.00
19.1616 1457.00
19.2268 1388.00
19.292 1446.00
19.3572 1430.00
19.4224 1535.00
19.4876 1518.00
19.5528 1541.00
19.618 1651.00
19.6832 1664.00
19.7484 1570.00
19.8136 1628.00
19.8788 1674.00
19.944 1679.00
20.0092 1630.00
20.0744 1441.00
20.1396 1384.00
20.2048 1331.00
20.27 1306.00
20.3352 1277.00
20.4004 1321.00
20.4656 1284.00
20.5308 1254.00
20.596 1247.00
20.6612 1224.00
20.7264 1293.00
20.7916 1264.00
20.8568 1248.00
20.922 1300.00
20.9872 1250.00
21.0524 1212.00
21.1176 1235.00
21.1828 1241.00
21.248 1356.00
21.3132 1362.00
21.3784 1571.00
21.4436 1761.00
21.5088 1959.00
21.574 2109.00
21.6392 1942.00
21.7044 1513.00
21.7696 1361.00
21.8348 1318.00
21.9 1265.00
21.9652 1195.00
22.0304 1266.00
22.0956 1190.00
22.1608 1226.00
22.226 1221.00
22.2912 1373.00
22.3564 1389.00
22.4216 1497.00
22.4868 1557.00
22.552 1708.00
22.6172 1847.00
22.6824 1828.00
22.7476 1516.00
22.8128 1334.00
22.878 1263.00
22.9432 1261.00
23.0084 1169.00
23.0736 1220.00
23.1388 1218.00
23.204 1180.00
23.2692 1166.00
23.3344 1136.00
23.3996 1168.00
23.4647 1128.00
23.5299 1153.00
23.5951 1086.00
23.6603 1137.00
23.7255 1120.00
23.7907 1091.00
23.8559 1064.00
23.9211 1067.00
23.9863 1099.00
24.0515 1132.00
24.1167 1101.00
24.1819 1146.00
24.2471 1141.00
24.3123 1225.00
24.3775 1255.00
24.4427 1388.00
24.5079 1537.00
24.5731 1381.00
24.6383 1341.00
24.7035 1184.00
24.7687 1098.00
24.8339 1068.00
24.8991 1123.00
24.9643 1100.00
25.0295 1046.00
25.0947 1067.00
25.1599 1068.00
25.2251 1060.00
25.2903 1161.00
25.3555 1086.00
25.4207 1100.00
25.4859 997.00
25.5511 1084.00
25.6163 966.00
25.6815 1026.00
25.7467 940.00
25.8119 1001.00
25.8771 1034.00
25.9423 1016.00
26.0075 1036.00
26.0727 1042.00
26.1379 1067.00
26.2031 1004.00
26.2683 1044.00
26.3335 1004.00
26.3987 1095.00
26.4639 1107.00
26.5291 1243.00
26.5943 1331.00
26.6595 1747.00
26.7247 2453.00
26.7899 4043.00
26.8551 6213.00
26.9203 7051.00
26.9855 4896.00
27.0507 2586.00
27.1159 1719.00
27.1811 1330.00
27.2463 1259.00
27.3115 1108.00
27.3767 1061.00
27.4419 1068.00
27.5071 1039.00
27.5723 970.00
27.6375 1085.00
27.7027 960.00
27.7679 1003.00
27.8331 1001.00
27.8983 946.00
27.9635 967.00
28.0287 985.00
28.0939 935.00
28.1591 934.00
28.2243 969.00
28.2894 889.00
28.3546 898.00
28.4198 856.00
28.485 853.00
28.5502 876.00
28.6154 902.00
28.6806 906.00
28.7458 858.00
28.811 881.00
28.8762 879.00
28.9414 868.00
29.0066 942.00
29.0718 838.00
29.137 874.00
29.2022 964.00
29.2674 963.00
29.3326 1086.00
29.3978 1203.00
29.463 1112.00
29.5282 1025.00
29.5934 903.00
29.6586 884.00
29.7238 829.00
29.789 834.00
29.8542 853.00
29.9194 856.00
29.9846 823.00
30.0498 859.00
30.115 868.00
30.1802 843.00
30.2454 820.00
30.3106 766.00
30.3758 832.00
30.441 774.00
30.5062 754.00
30.5714 827.00
30.6366 796.00
30.7018 782.00
30.767 812.00
30.8322 795.00
30.8974 776.00
30.9626 802.00
31.0278 834.00
31.093 760.00
31.1582 785.00
31.2234 800.00
31.2886 806.00
31.3538 775.00
31.419 782.00
31.4842 863.00
31.5494 922.00
31.6146 1042.00
31.6798 1209.00
31.745 1455.00
31.8102 1635.00
31.8754 1766.00
31.9406 1588.00
32.0058 1384.00
32.071 1156.00
32.1362 1152.00
32.2014 935.00
32.2666 925.00
32.3318 885.00
32.397 837.00
32.4622 817.00
32.5274 765.00
32.5926 784.00
32.6578 728.00
32.723 793.00
32.7882 739.00
32.8534 700.00
32.9186 758.00
32.9838 756.00
33.0489 729.00
33.1141 783.00
33.1793 821.00
33.2445 865.00
33.3097 836.00
33.3749 870.00
33.4401 799.00
33.5053 881.00
33.5705 863.00
33.6357 861.00
33.7009 982.00
33.7661 883.00
33.8313 1012.00
33.8965 1204.00
33.9617 1534.00
34.0269 2434.00
34.0921 4192.00
34.1573 5851.00
34.2225 5541.00
34.2877 3896.00
34.3529 2220.00
34.4181 1347.00
34.4833 1104.00
34.5485 954.00
34.6137 812.00
34.6789 788.00
34.7441 767.00
34.8093 701.00
34.8745 789.00
34.9397 673.00
35.0049 743.00
35.0701 737.00
35.1353 681.00
35.2005 696.00
35.2657 643.00
35.3309 611.00
35.3961 701.00
35.4613 702.00
35.5265 680.00
35.5917 636.00
35.6569 649.00
35.7221 675.00
35.7873 660.00
35.8525 660.00
35.9177 600.00
35.9829 655.00
36.0481 672.00
36.1133 631.00
36.1785 669.00
36.2437 657.00
36.3089 641.00
36.3741 697.00
36.4393 666.00
36.5045 733.00
36.5697 743.00
36.6349 788.00
36.7001 727.00
36.7653 692.00
36.8305 688.00
36.8957 669.00
36.9609 663.00
37.0261 721.00
37.0913 708.00
37.1565 711.00
37.2217 720.00
37.2869 787.00
37.3521 821.00
37.4173 913.00
37.4825 992.00
37.5477 1132.00
37.6129 1175.00
37.6781 1106.00
37.7433 1158.00
37.8085 1135.00
37.8736 954.00
37.9388 944.00
38.004 971.00
38.0692 1065.00
38.1344 1367.00
38.1996 1727.00
38.2648 2020.00
38.33 1750.00
38.3952 1473.00
38.4604 1047.00
38.5256 878.00
38.5908 710.00
38.656 676.00
38.7212 659.00
38.7864 644.00
38.8516 639.00
38.9168 648.00
38.982 627.00
39.0472 620.00
39.1124 685.00
39.1776 742.00
39.2428 919.00
39.308 937.00
39.3732 897.00
39.4384 824.00
39.5036 766.00
39.5688 738.00
39.634 602.00
39.6992 552.00
39.7644 649.00
39.8296 562.00
39.8948 585.00
39.96 581.00
40.0252 559.00
40.0904 554.00
40.1556 603.00
40.2208 551.00
40.286 598.00
40.3512 531.00
40.4164 558.00
40.4816 551.00
40.5468 547.00
40.612 500.00
40.6772 547.00
40.7424 548.00
40.8076 531.00
40.8728 541.00
40.938 556.00
41.0032 530.00
41.0684 556.00
41.1336 587.00
41.1988 540.00
41.264 553.00
41.3292 585.00
41.3944 565.00
41.4596 575.00
41.5248 551.00
41.59 551.00
41.6552 564.00
41.7204 567.00
41.7856 561.00
41.8508 509.00
41.916 514.00
41.9812 488.00
42.0464 530.00
42.1116 483.00
42.1768 544.00
42.242 489.00
42.3072 535.00
42.3724 494.00
42.4376 513.00
42.5028 513.00
42.568 465.00
42.6332 526.00
42.6983 517.00
42.7635 527.00
42.8287 567.00
42.8939 590.00
42.9591 649.00
43.0243 611.00
43.0895 617.00
43.1547 600.00
43.2199 568.00
43.2851 560.00
43.3503 554.00
43.4155 613.00
43.4807 575.00
43.5459 553.00
43.6111 623.00
43.6763 665.00
43.7415 572.00
43.8067 553.00
43.8719 523.00
43.9371 525.00
44.0023 500.00
44.0675 506.00
44.1327 478.00
44.1979 473.00
44.2631 518.00
44.3283 541.00
44.3935 537.00
44.4587 606.00
44.5239 673.00
44.5891 619.00
44.6543 670.00
44.7195 619.00
44.7847 574.00
44.8499 607.00
44.9151 534.00
44.9803 552.00
45.0455 478.00
45.1107 492.00
45.1759 538.00
45.2411 538.00
45.3063 527.00
45.3715 543.00
45.4367 541.00
45.5019 506.00
45.5671 499.00
45.6323 496.00
45.6975 553.00
45.7627 571.00
45.8279 601.00
45.8931 597.00
45.9583 601.00
46.0235 569.00
46.0887 541.00
46.1539 529.00
46.2191 547.00
46.2843 516.00
46.3495 491.00
46.4147 498.00
46.4799 503.00
46.5451 505.00
46.6103 508.00
46.6755 507.00
46.7407 552.00
46.8059 539.00
46.8711 558.00
46.9363 546.00
47.0015 548.00
47.0667 488.00
47.1319 487.00
47.1971 479.00
47.2623 492.00
47.3275 515.00
47.3927 505.00
47.4579 468.00
47.523 448.00
47.5882 470.00
47.6534 450.00
47.7186 541.00
47.7838 471.00
47.849 499.00
47.9142 464.00
47.9794 508.00
48.0446 425.00
48.1098 494.00
48.175 537.00
48.2402 557.00
48.3054 509.00
48.3706 535.00
48.4358 500.00
48.501 546.00
48.5662 539.00
48.6314 498.00
48.6966 458.00
48.7618 436.00
48.827 436.00
48.8922 453.00
48.9574 501.00
49.0226 470.00
49.0878 466.00
49.153 450.00
49.2182 424.00
49.2834 509.00
49.3486 497.00
49.4138 434.00
49.479 496.00
49.5442 510.00
49.6094 567.00
49.6746 565.00
49.7398 597.00
49.805 713.00
49.8702 716.00
49.9354 794.00
50.0006 762.00
50.0658 752.00
50.131 639.00
50.1962 640.00
50.2614 624.00
50.3266 561.00
50.3918 592.00
50.457 563.00
50.5222 585.00
50.5874 519.00
50.6526 494.00
50.7178 557.00
50.783 467.00
50.8482 507.00
50.9134 513.00
50.9786 516.00
51.0438 534.00
51.109 548.00
51.1742 538.00
51.2394 546.00
51.3046 548.00
51.3698 598.00
51.435 629.00
51.5002 707.00
51.5654 752.00
51.6306 872.00
51.6958 896.00
51.761 995.00
51.8262 1234.00
51.8914 1911.00
51.9566 3107.00
52.0218 4884.00
52.087 4964.00
52.1522 4300.00
52.2174 3278.00
52.2826 2089.00
52.3477 1295.00
52.4129 1006.00
52.4781 785.00
52.5433 707.00
52.6085 672.00
52.6737 590.00
52.7389 545.00
52.8041 539.00
52.8693 475.00
52.9345 517.00
52.9997 527.00
53.0649 489.00
53.1301 508.00
53.1953 492.00
53.2605 537.00
53.3257 493.00
53.3909 467.00
53.4561 428.00
53.5213 460.00
53.5865 487.00
53.6517 501.00
53.7169 480.00
53.7821 448.00
53.8473 452.00
53.9125 460.00
53.9777 448.00
54.0429 448.00
54.1081 442.00
54.1733 457.00
54.2385 424.00
54.3037 456.00
54.3689 442.00
54.4341 476.00
54.4993 461.00
54.5645 455.00
54.6297 485.00
54.6949 500.00
54.7601 526.00
54.8253 598.00
54.8905 797.00
54.9557 1063.00
55.0209 1465.00
55.0861 1500.00
55.1513 1237.00
55.2165 1099.00
55.2817 793.00
55.3469 665.00
55.4121 526.00
55.4773 487.00
55.5425 473.00
55.6077 510.00
55.6729 462.00
55.7381 464.00
55.8033 485.00
55.8685 505.00
55.9337 524.00
55.9989 498.00
56.0641 499.00
56.1293 538.00
56.1945 479.00
56.2597 481.00
56.3249 479.00
56.3901 481.00
56.4553 465.00
56.5205 480.00
56.5857 467.00
56.6509 475.00
56.7161 462.00
56.7813 556.00
56.8465 543.00
56.9117 470.00
56.9769 503.00
57.042 527.00
57.1073 524.00
57.1724 513.00
57.2376 485.00
57.3028 485.00
57.368 486.00
57.4332 459.00
57.4984 505.00
57.5636 498.00
57.6288 489.00
57.694 493.00
57.7592 523.00
57.8244 545.00
57.8896 622.00
57.9548 676.00
58.02 888.00
58.0852 1051.00
58.1504 920.00
58.2156 909.00
58.2808 762.00
58.346 660.00
58.4112 562.00
58.4764 554.00
58.5416 542.00
58.6068 606.00
58.672 603.00
58.7372 653.00
58.8024 612.00
58.8676 555.00
58.9328 498.00
58.998 510.00
59.0632 461.00
59.1284 449.00
59.1936 424.00
59.2588 520.00
59.324 455.00
59.3892 413.00
59.4544 439.00
59.5196 446.00
59.5848 472.00
59.65 424.00
59.7152 442.00
59.7804 415.00
59.8456 441.00
59.9108 466.00
59.976 454.00
60.0412 481.00
60.1064 475.00
60.1716 436.00
60.2368 468.00
60.302 471.00
60.3672 475.00
60.4324 504.00
60.4976 511.00
60.5628 556.00
60.628 586.00
60.6932 570.00
60.7584 546.00
60.8236 539.00
60.8888 574.00
60.954 551.00
61.0192 490.00
61.0844 488.00
61.1496 518.00
61.2148 508.00
61.28 527.00
61.3452 537.00
61.4104 547.00
61.4756 541.00
61.5408 533.00
61.606 543.00
61.6712 531.00
61.7364 609.00
61.8016 642.00
61.8667 668.00
61.932 696.00
61.9971 860.00
62.0623 999.00
62.1275 1279.00
62.1927 1279.00
62.2579 1169.00
62.3231 1096.00
62.3883 881.00
62.4535 685.00
62.5187 576.00
62.5839 504.00
62.6491 508.00
62.7143 509.00
62.7795 436.00
62.8447 432.00
62.9099 461.00
62.9751 429.00
63.0403 413.00
63.1055 410.00
63.1707 406.00
63.2359 398.00
63.3011 390.00
63.3663 462.00
63.4315 437.00
63.4967 411.00
63.5619 441.00
63.6271 475.00
63.6923 507.00
63.7575 511.00
63.8227 544.00
63.8879 566.00
63.9531 572.00
64.0183 608.00
64.0835 544.00
64.1487 533.00
64.2139 531.00
64.2791 486.00
64.3443 455.00
64.4095 484.00
64.4747 479.00
64.5399 490.00
64.6051 493.00
64.6703 536.00
64.7355 570.00
64.8007 690.00
64.8659 865.00
64.9311 1221.00
64.9963 1320.00
65.0615 1305.00
65.1267 1142.00
65.1919 1030.00
65.2571 819.00
65.3223 619.00
65.3875 553.00
65.4527 492.00
65.5179 485.00
65.5831 482.00
65.6483 498.00
65.7135 532.00
65.7787 543.00
65.8439 555.00
65.9091 609.00
65.9743 716.00
66.0395 845.00
66.1047 1077.00
66.1699 1397.00
66.2351 1553.00
66.3003 1478.00
66.3655 1321.00
66.4307 1183.00
66.4959 986.00
66.561 835.00
66.6263 675.00
66.6915 567.00
66.7566 536.00
66.8218 532.00
66.887 502.00
66.9522 466.00
67.0174 416.00
67.0826 454.00
67.1478 401.00
67.213 462.00
67.2782 408.00
67.3434 426.00
67.4086 436.00
67.4738 421.00
67.539 448.00
67.6042 442.00
67.6694 431.00
67.7346 411.00
67.7998 392.00
67.865 388.00
67.9302 387.00
67.9954 393.00
68.0606 382.00
68.1258 373.00
68.191 395.00
68.2562 368.00
68.3214 393.00
68.3866 363.00
68.4518 383.00
68.517 435.00
68.5822 402.00
68.6474 387.00
68.7126 374.00
68.7778 349.00
68.843 356.00
68.9082 366.00
68.9734 335.00
69.0386 347.00
69.1038 354.00
69.169 338.00
69.2342 372.00
69.2994 349.00
69.3646 383.00
69.4298 398.00
69.495 415.00
69.5602 358.00
69.6254 377.00
69.6906 391.00
69.7558 416.00
69.821 392.00
69.8862 413.00
69.9514 434.00
70.0166 390.00
70.0818 458.00
70.147 435.00
70.2122 421.00
70.2774 416.00
70.3426 401.00
70.4078 429.00
70.473 416.00
70.5382 392.00
70.6034 383.00
70.6686 381.00
70.7338 400.00
70.799 384.00
70.8642 398.00
70.9294 423.00
70.9946 394.00
71.0598 418.00
71.125 470.00
71.1902 451.00
71.2554 477.00
71.3205 521.00
71.3858 611.00
71.451 776.00
71.5162 867.00
71.5813 848.00
71.6465 724.00
71.7117 654.00
71.7769 635.00
71.8421 524.00
71.9073 486.00
71.9725 406.00
72.0377 396.00
72.1029 406.00
72.1681 404.00
72.2333 373.00
72.2985 448.00
72.3637 372.00
72.4289 358.00
72.4941 362.00
72.5593 376.00
72.6245 357.00
72.6897 392.00
72.7549 389.00
72.8201 367.00
72.8853 388.00
72.9505 363.00
73.0157 364.00
73.0809 336.00
73.1461 382.00
73.2113 329.00
73.2765 375.00
73.3417 390.00
73.4069 368.00
73.4721 352.00
73.5373 330.00
73.6025 356.00
73.6677 359.00
73.7329 397.00
73.7981 360.00
73.8633 338.00
73.9285 367.00
73.9937 346.00
74.0589 371.00
74.1241 369.00
74.1893 386.00
74.2545 380.00
74.3197 399.00
74.3849 384.00
74.4501 410.00
74.5153 404.00
74.5805 404.00
74.6457 427.00
74.7109 394.00
74.7761 394.00
74.8413 401.00
74.9065 423.00
74.9717 418.00
75.0369 364.00
75.1021 399.00
75.1673 416.00
75.2325 374.00
75.2977 394.00
75.3629 354.00
75.4281 355.00
75.4933 370.00
75.5585 337.00
75.6237 355.00
75.6889 360.00
75.7541 371.00
75.8193 343.00
75.8845 364.00
75.9497 362.00
76.0149 360.00
76.0801 403.00
76.1452 365.00
76.2104 349.00
76.2756 330.00
76.3409 325.00
76.406 361.00
76.4712 362.00
76.5364 338.00
76.6016 361.00
76.6668 326.00
76.732 342.00
76.7972 355.00
76.8624 302.00
76.9276 341.00
76.9928 320.00
77.058 304.00
77.1232 353.00
77.1884 341.00
77.2536 363.00
77.3188 312.00
77.384 331.00
77.4492 326.00
77.5144 331.00
77.5796 344.00
77.6448 380.00
77.71 327.00
77.7752 309.00
77.8404 385.00
77.9056 338.00
77.9708 358.00
78.036 341.00
78.1012 362.00
78.1664 335.00
78.2316 382.00
78.2968 405.00
78.362 412.00
78.4272 432.00
78.4924 425.00
78.5576 419.00
78.6228 464.00
78.688 480.00
78.7532 536.00
78.8184 735.00
78.8836 957.00
78.9488 1016.00
79.014 1029.00
79.0792 929.00
79.1444 877.00
79.2096 851.00
79.2748 725.00
79.34 569.00
79.4052 521.00
79.4704 479.00
79.5356 423.00
79.6008 426.00
79.666 426.00
79.7312 415.00
79.7964 422.00
79.8616 405.00
79.9268 356.00
79.992 415.00
80.0572 403.00
80.1224 363.00
80.1876 352.00
80.2528 333.00
80.318 375.00
80.3832 352.00
80.4484 365.00
80.5136 366.00
80.5788 327.00
80.644 367.00
80.7092 357.00
80.7744 349.00
80.8396 312.00
80.9048 359.00
80.9699 413.00
81.0351 373.00
81.1003 393.00
81.1655 408.00
81.2307 442.00
81.2959 514.00
81.3611 453.00
81.4263 512.00
81.4915 493.00
81.5567 490.00
81.6219 429.00
81.6871 436.00
81.7523 464.00
81.8175 411.00
81.8827 344.00
81.9479 353.00
82.0131 407.00
82.0783 385.00
82.1435 377.00
82.2087 375.00
82.2739 346.00
82.3391 401.00
82.4043 369.00
82.4695 431.00
82.5347 416.00
82.5999 383.00
82.6651 375.00
82.7303 360.00
82.7955 370.00
82.8607 346.00
82.9259 362.00
82.9911 349.00
83.0563 341.00
83.1215 375.00
83.1867 355.00
83.2519 396.00
83.3171 381.00
83.3823 372.00
83.4475 358.00
83.5127 387.00
83.5779 376.00
83.6431 481.00
83.7083 465.00
83.7735 525.00
83.8387 680.00
83.9039 803.00
83.9691 859.00
84.0343 762.00
84.0995 778.00
84.1647 700.00
84.2299 640.00
84.2951 599.00
84.3603 491.00
84.4255 451.00
84.4907 406.00
84.5559 388.00
84.6211 425.00
84.6863 393.00
84.7515 373.00
84.8167 342.00
84.8819 361.00
84.9471 373.00
85.0123 328.00
85.0775 370.00
85.1427 356.00
85.2079 348.00
85.2731 365.00
85.3383 353.00
85.4035 385.00
85.4687 355.00
85.5339 335.00
85.5991 314.00
85.6643 348.00
85.7295 317.00
85.7946 342.00
85.8598 354.00
85.925 330.00
85.9903 321.00
86.0554 368.00
86.1206 340.00
86.1858 349.00
86.251 334.00
86.3162 364.00
86.3814 366.00
86.4466 315.00
86.5118 332.00
86.577 324.00
86.6422 328.00
86.7074 353.00
86.7726 302.00
86.8378 328.00
86.903 353.00
86.9682 343.00
87.0334 348.00
87.0986 363.00
87.1638 343.00
87.229 402.00
87.2942 415.00
87.3594 471.00
87.4246 547.00
87.4898 565.00
87.555 557.00
87.6202 531.00
87.6854 566.00
87.7506 529.00
87.8158 481.00
87.881 428.00
87.9462 407.00
88.0114 419.00
88.0766 423.00
88.1418 429.00
88.207 425.00
88.2722 424.00
88.3374 398.00
88.4026 410.00
88.4678 418.00
88.533 394.00
88.5982 399.00
88.6634 408.00
88.7286 420.00
88.7938 430.00
88.859 416.00
88.9242 408.00
88.9894 402.00
89.0546 397.00
89.1198 392.00
89.185 411.00
89.2502 408.00
89.3154 405.00
89.3806 436.00
89.4458 403.00
89.511 404.00
89.5762 392.00
89.6414 415.00
89.7066 491.00
89.7718 530.00
89.837 619.00
89.9022 771.00
89.9674 866.00
90.0326 885.00
90.0978 857.00
90.163 844.00
90.2282 763.00
90.2934 783.00
90.3586 713.00
90.4238 619.00
90.489 552.00
90.5542 552.00
90.6193 515.00
90.6845 518.00
90.7497 507.00
90.8149 534.00
90.8801 596.00
90.9453 600.00
91.0105 768.00
91.0757 873.00
91.1409 854.00
91.2061 851.00
91.2713 822.00
91.3365 772.00
91.4017 734.00
91.4669 681.00
91.5321 593.00
91.5973 519.00
91.6625 503.00
91.7277 429.00
91.7929 406.00
91.8581 407.00
91.9233 394.00
91.9885 420.00
92.0537 380.00
92.1189 378.00
92.1841 357.00
92.2493 344.00
92.3145 370.00
92.3797 397.00
92.4449 344.00
92.5101 350.00
92.5753 381.00
92.6405 369.00
92.7057 395.00
92.7709 390.00
92.8361 380.00
92.9013 384.00
92.9665 404.00
93.0317 369.00
93.0969 362.00
93.1621 414.00
93.2273 419.00
93.2925 442.00
93.3577 521.00
93.4229 491.00
93.4881 617.00
93.5533 586.00
93.6185 621.00
93.6837 577.00
93.7489 589.00
93.8141 556.00
93.8793 555.00
93.9445 509.00
94.0097 482.00
94.0749 435.00
94.1401 407.00
94.2053 446.00
94.2705 391.00
94.3357 391.00
94.4009 364.00
94.4661 379.00
94.5313 380.00
94.5965 340.00
94.6617 324.00
94.7269 364.00
94.7921 364.00
94.8573 335.00
94.9225 339.00
94.9877 359.00
95.0529 334.00
95.1181 350.00
95.1833 355.00
95.2485 342.00
95.3137 369.00
95.3789 324.00
95.444 381.00
95.5092 330.00
95.5744 348.00
95.6396 366.00
95.7048 356.00
95.77 373.00
95.8352 395.00
95.9004 433.00
95.9656 482.00
96.0308 449.00
96.096 487.00
96.1612 575.00
96.2264 590.00
96.2916 563.00
96.3568 524.00
96.422 515.00
96.4872 476.00
96.5524 530.00
96.6176 482.00
96.6828 408.00
96.748 420.00
96.8132 394.00
96.8784 372.00
96.9436 372.00
97.0088 422.00
97.074 397.00
97.1392 365.00
97.2044 346.00
97.2696 348.00
97.3348 382.00
97.4 363.00
97.4652 329.00
97.5304 379.00
97.5956 393.00
97.6608 327.00
97.726 356.00
97.7912 376.00
97.8564 343.00
97.9216 336.00
97.9868 400.00
98.052 394.00
98.1172 372.00
98.1824 382.00
98.2476 380.00
98.3128 361.00
98.378 356.00
98.4432 373.00
98.5084 373.00
98.5736 341.00
98.6388 355.00
98.704 408.00
98.7692 336.00
98.8344 319.00
98.8996 344.00
98.9648 345.00
99.03 352.00
99.0952 392.00
99.1604 364.00
99.2256 332.00
99.2908 351.00
99.356 364.00
99.4212 352.00
99.4864 330.00
99.5516 312.00
99.6168 334.00
99.682 336.00
99.7472 354.00
99.8124 338.00
99.8776 387.00
99.9428 347.00
100.008 394.00
100.073 373.00
100.095 367.00