File: data/xrd_creation/results/Na_114.xy
9.903433 2799.00
9.968632 2673.00
10.0338 2770.00
10.099 2686.00
10.1642 2614.00
10.2294 2593.00
10.2946 2620.00
10.3598 2590.00
10.425 2609.00
10.4902 2606.00
10.5554 2588.00
10.6206 2550.00
10.6858 2542.00
10.751 2513.00
10.8162 2482.00
10.8814 2568.00
10.9466 2485.00
11.0118 2631.00
11.077 2718.00
11.1422 2889.00
11.2074 2997.00
11.2726 3466.00
11.3378 4097.00
11.403 4768.00
11.4682 6334.00
11.5334 8101.00
11.5986 9342.00
11.6638 8136.00
11.729 6145.00
11.7942 3986.00
11.8594 2650.00
11.9246 2487.00
11.9898 2394.00
12.055 2309.00
12.1202 2214.00
12.1854 2107.00
12.2506 2192.00
12.3158 2152.00
12.381 2195.00
12.4462 2179.00
12.5114 2172.00
12.5766 2125.00
12.6418 2088.00
12.707 1996.00
12.7722 2041.00
12.8374 1950.00
12.9026 2029.00
12.9678 2015.00
13.033 1883.00
13.0982 1941.00
13.1634 1972.00
13.2286 1921.00
13.2938 1955.00
13.359 1985.00
13.4242 1969.00
13.4894 1843.00
13.5546 1864.00
13.6198 1880.00
13.685 1843.00
13.7502 1914.00
13.8154 1857.00
13.8805 1925.00
13.9457 1759.00
14.0109 1754.00
14.0761 1842.00
14.1413 1844.00
14.2065 1812.00
14.2717 1797.00
14.3369 1784.00
14.4021 1808.00
14.4673 1857.00
14.5325 1850.00
14.5977 1916.00
14.6629 1909.00
14.7281 2016.00
14.7933 2058.00
14.8585 2023.00
14.9237 1937.00
14.9889 1750.00
15.0541 1670.00
15.1193 1672.00
15.1845 1704.00
15.2497 1865.00
15.3149 1879.00
15.3801 1974.00
15.4453 1994.00
15.5105 1933.00
15.5757 1704.00
15.6409 1803.00
15.7061 1722.00
15.7713 1663.00
15.8365 1719.00
15.9017 1838.00
15.9669 1841.00
16.0321 1925.00
16.0973 2130.00
16.1625 2333.00
16.2277 3144.00
16.2929 4268.00
16.3581 5208.00
16.4233 5659.00
16.4885 4072.00
16.5537 2260.00
16.6189 1815.00
16.6841 1660.00
16.7493 1673.00
16.8145 1685.00
16.8797 1553.00
16.9449 1634.00
17.0101 1567.00
17.0753 1560.00
17.1405 1636.00
17.2057 1580.00
17.2709 1597.00
17.3361 1504.00
17.4013 1538.00
17.4665 1573.00
17.5317 1521.00
17.5969 1540.00
17.6621 1561.00
17.7273 1601.00
17.7925 1637.00
17.8577 1725.00
17.9229 1922.00
17.9881 2148.00
18.0533 2188.00
18.1185 2119.00
18.1837 1842.00
18.2489 1649.00
18.3141 1637.00
18.3793 1655.00
18.4445 1494.00
18.5097 1415.00
18.5749 1440.00
18.6401 1506.00
18.7052 1376.00
18.7704 1408.00
18.8356 1420.00
18.9008 1439.00
18.966 1479.00
19.0312 1454.00
19.0964 1447.00
19.1616 1426.00
19.2268 1349.00
19.292 1368.00
19.3572 1327.00
19.4224 1342.00
19.4876 1302.00
19.5528 1366.00
19.618 1365.00
19.6832 1342.00
19.7484 1388.00
19.8136 1387.00
19.8788 1388.00
19.944 1378.00
20.0092 1447.00
20.0744 1524.00
20.1396 1667.00
20.2048 1809.00
20.27 1965.00
20.3352 1818.00
20.4004 1516.00
20.4656 1343.00
20.5308 1372.00
20.596 1383.00
20.6612 1342.00
20.7264 1499.00
20.7916 1569.00
20.8568 1657.00
20.922 1854.00
20.9872 1843.00
21.0524 1664.00
21.1176 1476.00
21.1828 1273.00
21.248 1278.00
21.3132 1223.00
21.3784 1281.00
21.4436 1224.00
21.5088 1250.00
21.574 1251.00
21.6392 1185.00
21.7044 1307.00
21.7696 1269.00
21.8348 1284.00
21.9 1355.00
21.9652 1474.00
22.0304 1431.00
22.0956 1298.00
22.1608 1251.00
22.226 1232.00
22.2912 1239.00
22.3564 1329.00
22.4216 1140.00
22.4868 1273.00
22.552 1179.00
22.6172 1235.00
22.6824 1173.00
22.7476 1217.00
22.8128 1132.00
22.878 1211.00
22.9432 1132.00
23.0084 1154.00
23.0736 1292.00
23.1388 1246.00
23.204 1209.00
23.2692 1262.00
23.3344 1249.00
23.3996 1252.00
23.4647 1257.00
23.5299 1241.00
23.5951 1123.00
23.6603 1162.00
23.7255 1101.00
23.7907 1112.00
23.8559 1151.00
23.9211 1165.00
23.9863 1255.00
24.0515 1139.00
24.1167 1206.00
24.1819 1323.00
24.2471 1468.00
24.3123 1672.00
24.3775 1794.00
24.4427 1753.00
24.5079 1731.00
24.5731 1882.00
24.6383 1898.00
24.7035 1549.00
24.7687 1165.00
24.8339 1099.00
24.8991 1154.00
24.9643 1164.00
25.0295 1150.00
25.0947 1101.00
25.1599 1176.00
25.2251 1217.00
25.2903 1276.00
25.3555 1324.00
25.4207 1350.00
25.4859 1349.00
25.5511 1295.00
25.6163 1399.00
25.6815 1977.00
25.7467 2677.00
25.8119 4089.00
25.8771 5867.00
25.9423 6800.00
26.0075 6952.00
26.0727 6131.00
26.1379 4002.00
26.2031 2045.00
26.2683 1452.00
26.3335 1367.00
26.3987 1413.00
26.4639 1427.00
26.5291 1655.00
26.5943 2176.00
26.6595 2883.00
26.7247 3707.00
26.7899 4215.00
26.8551 3327.00
26.9203 2161.00
26.9855 1599.00
27.0507 1363.00
27.1159 1369.00
27.1811 1488.00
27.2463 1369.00
27.3115 1211.00
27.3767 1195.00
27.4419 1232.00
27.5071 1423.00
27.5723 1794.00
27.6375 2390.00
27.7027 3673.00
27.7679 4776.00
27.8331 5150.00
27.8983 4309.00
27.9635 3334.00
28.0287 3083.00
28.0939 2723.00
28.1591 2123.00
28.2243 1750.00
28.2894 1460.00
28.3546 1223.00
28.4198 1119.00
28.485 1097.00
28.5502 1060.00
28.6154 1011.00
28.6806 956.00
28.7458 1000.00
28.811 948.00
28.8762 974.00
28.9414 948.00
29.0066 1002.00
29.0718 956.00
29.137 977.00
29.2022 997.00
29.2674 918.00
29.3326 971.00
29.3978 958.00
29.463 973.00
29.5282 888.00
29.5934 978.00
29.6586 937.00
29.7238 999.00
29.789 1038.00
29.8542 1058.00
29.9194 1240.00
29.9846 1545.00
30.0498 2012.00
30.115 2165.00
30.1802 1817.00
30.2454 1759.00
30.3106 1805.00
30.3758 1766.00
30.441 1417.00
30.5062 1150.00
30.5714 949.00
30.6366 912.00
30.7018 923.00
30.767 915.00
30.8322 909.00
30.8974 887.00
30.9626 990.00
31.0278 919.00
31.093 951.00
31.1582 1030.00
31.2234 1136.00
31.2886 1313.00
31.3538 1681.00
31.419 1807.00
31.4842 1505.00
31.5494 1350.00
31.6146 1298.00
31.6798 1373.00
31.745 1622.00
31.8102 1945.00
31.8754 1907.00
31.9406 1601.00
32.0058 1303.00
32.071 1026.00
32.1362 961.00
32.2014 941.00
32.2666 1010.00
32.3318 1055.00
32.397 1040.00
32.4622 1103.00
32.5274 1038.00
32.5926 1069.00
32.6578 1135.00
32.723 1460.00
32.7882 2480.00
32.8534 4341.00
32.9186 6758.00
32.9838 7582.00
33.0489 5253.00
33.1141 2717.00
33.1793 1577.00
33.2445 1395.00
33.3097 1504.00
33.3749 1557.00
33.4401 1421.00
33.5053 1192.00
33.5705 1057.00
33.6357 1006.00
33.7009 1139.00
33.7661 1219.00
33.8313 1380.00
33.8965 1812.00
33.9617 2699.00
34.0269 3388.00
34.0921 3802.00
34.1573 3367.00
34.2225 3448.00
34.2877 4580.00
34.3529 6472.00
34.4181 7046.00
34.4833 5473.00
34.5485 3298.00
34.6137 2042.00
34.6789 2042.00
34.7441 2593.00
34.8093 2756.00
34.8745 2385.00
34.9397 1724.00
35.0049 1258.00
35.0701 1049.00
35.1353 1150.00
35.2005 1091.00
35.2657 1053.00
35.3309 945.00
35.3961 811.00
35.4613 786.00
35.5265 805.00
35.5917 794.00
35.6569 786.00
35.7221 796.00
35.7873 693.00
35.8525 720.00
35.9177 808.00
35.9829 829.00
36.0481 866.00
36.1133 953.00
36.1785 1014.00
36.2437 1126.00
36.3089 1207.00
36.3741 1119.00
36.4393 1081.00
36.5045 1049.00
36.5697 1073.00
36.6349 1023.00
36.7001 1123.00
36.7653 1318.00
36.8305 1374.00
36.8957 1159.00
36.9609 1046.00
37.0261 1222.00
37.0913 1312.00
37.1565 1369.00
37.2217 1105.00
37.2869 899.00
37.3521 779.00
37.4173 775.00
37.4825 774.00
37.5477 816.00
37.6129 837.00
37.6781 817.00
37.7433 924.00
37.8085 997.00
37.8736 941.00
37.9388 938.00
38.004 1046.00
38.0692 1175.00
38.1344 1291.00
38.1996 1262.00
38.2648 1085.00
38.33 851.00
38.3952 799.00
38.4604 755.00
38.5256 800.00
38.5908 749.00
38.656 856.00
38.7212 818.00
38.7864 741.00
38.8516 722.00
38.9168 747.00
38.982 825.00
39.0472 1004.00
39.1124 973.00
39.1776 920.00
39.2428 911.00
39.308 804.00
39.3732 760.00
39.4384 669.00
39.5036 776.00
39.5688 748.00
39.634 755.00
39.6992 743.00
39.7644 721.00
39.8296 724.00
39.8948 660.00
39.96 668.00
40.0252 590.00
40.0904 625.00
40.1556 701.00
40.2208 648.00
40.286 731.00
40.3512 778.00
40.4164 786.00
40.4816 787.00
40.5468 779.00
40.612 730.00
40.6772 681.00
40.7424 685.00
40.8076 663.00
40.8728 771.00
40.938 794.00
41.0032 792.00
41.0684 755.00
41.1336 678.00
41.1988 739.00
41.264 822.00
41.3292 695.00
41.3944 714.00
41.4596 729.00
41.5248 786.00
41.59 952.00
41.6552 1132.00
41.7204 1238.00
41.7856 1159.00
41.8508 966.00
41.916 838.00
41.9812 967.00
42.0464 1206.00
42.1116 1563.00
42.1768 1588.00
42.242 1658.00
42.3072 1542.00
42.3724 1543.00
42.4376 1436.00
42.5028 1328.00
42.568 957.00
42.6332 804.00
42.6983 742.00
42.7635 713.00
42.8287 771.00
42.8939 759.00
42.9591 701.00
43.0243 617.00
43.0895 636.00
43.1547 616.00
43.2199 751.00
43.2851 743.00
43.3503 858.00
43.4155 1032.00
43.4807 1125.00
43.5459 1089.00
43.6111 947.00
43.6763 904.00
43.7415 912.00
43.8067 863.00
43.8719 762.00
43.9371 702.00
44.0023 622.00
44.0675 729.00
44.1327 673.00
44.1979 716.00
44.2631 639.00
44.3283 607.00
44.3935 670.00
44.4587 605.00
44.5239 615.00
44.5891 650.00
44.6543 673.00
44.7195 706.00
44.7847 680.00
44.8499 763.00
44.9151 846.00
44.9803 905.00
45.0455 1063.00
45.1107 1046.00
45.1759 959.00
45.2411 950.00
45.3063 815.00
45.3715 870.00
45.4367 802.00
45.5019 843.00
45.5671 773.00
45.6323 724.00
45.6975 706.00
45.7627 665.00
45.8279 615.00
45.8931 556.00
45.9583 620.00
46.0235 675.00
46.0887 718.00
46.1539 743.00
46.2191 667.00
46.2843 657.00
46.3495 641.00
46.4147 617.00
46.4799 660.00
46.5451 591.00
46.6103 656.00
46.6755 765.00
46.7407 847.00
46.8059 800.00
46.8711 936.00
46.9363 1071.00
47.0015 1112.00
47.0667 1114.00
47.1319 1208.00
47.1971 1277.00
47.2623 1423.00
47.3275 1596.00
47.3927 2135.00
47.4579 2674.00
47.523 2561.00
47.5882 1852.00
47.6534 1277.00
47.7186 872.00
47.7838 670.00
47.849 661.00
47.9142 666.00
47.9794 653.00
48.0446 646.00
48.1098 628.00
48.175 625.00
48.2402 647.00
48.3054 613.00
48.3706 680.00
48.4358 733.00
48.501 815.00
48.5662 865.00
48.6314 792.00
48.6966 738.00
48.7618 703.00
48.827 758.00
48.8922 941.00
48.9574 1135.00
49.0226 1154.00
49.0878 1006.00
49.153 992.00
49.2182 817.00
49.2834 791.00
49.3486 742.00
49.4138 780.00
49.479 808.00
49.5442 1065.00
49.6094 1407.00
49.6746 1565.00
49.7398 1410.00
49.805 1273.00
49.8702 1207.00
49.9354 1254.00
50.0006 1339.00
50.0658 1272.00
50.131 1275.00
50.1962 1530.00
50.2614 1548.00
50.3266 1361.00
50.3918 1019.00
50.457 827.00
50.5222 687.00
50.5874 622.00
50.6526 624.00
50.7178 645.00
50.783 615.00
50.8482 607.00
50.9134 571.00
50.9786 625.00
51.0438 580.00
51.109 656.00
51.1742 709.00
51.2394 754.00
51.3046 698.00
51.3698 672.00
51.435 625.00
51.5002 688.00
51.5654 806.00
51.6306 1272.00
51.6958 1555.00
51.761 1688.00
51.8262 1889.00
51.8914 2291.00
51.9566 2607.00
52.0218 2319.00
52.087 1949.00
52.1522 1614.00
52.2174 1140.00
52.2826 933.00
52.3477 816.00
52.4129 722.00
52.4781 677.00
52.5433 602.00
52.6085 626.00
52.6737 621.00
52.7389 575.00
52.8041 555.00
52.8693 676.00
52.9345 852.00
52.9997 1065.00
53.0649 1053.00
53.1301 1099.00
53.1953 991.00
53.2605 928.00
53.3257 882.00
53.3909 790.00
53.4561 750.00
53.5213 772.00
53.5865 708.00
53.6517 692.00
53.7169 710.00
53.7821 718.00
53.8473 733.00
53.9125 731.00
53.9777 749.00
54.0429 690.00
54.1081 670.00
54.1733 704.00
54.2385 707.00
54.3037 680.00
54.3689 727.00
54.4341 668.00
54.4993 670.00
54.5645 661.00
54.6297 691.00
54.6949 771.00
54.7601 879.00
54.8253 962.00
54.8905 1010.00
54.9557 1052.00
55.0209 875.00
55.0861 887.00
55.1513 704.00
55.2165 762.00
55.2817 766.00
55.3469 909.00
55.4121 999.00
55.4773 1132.00
55.5425 1152.00
55.6077 946.00
55.6729 844.00
55.7381 691.00
55.8033 545.00
55.8685 576.00
55.9337 643.00
55.9989 692.00
56.0641 752.00
56.1293 857.00
56.1945 863.00
56.2597 822.00
56.3249 815.00
56.3901 779.00
56.4553 672.00
56.5205 638.00
56.5857 671.00
56.6509 674.00
56.7161 850.00
56.7813 950.00
56.8465 945.00
56.9117 890.00
56.9769 867.00
57.042 826.00
57.1073 829.00
57.1724 884.00
57.2376 975.00
57.3028 914.00
57.368 817.00
57.4332 751.00
57.4984 657.00
57.5636 651.00
57.6288 668.00
57.694 675.00
57.7592 667.00
57.8244 720.00
57.8896 762.00
57.9548 815.00
58.02 919.00
58.0852 857.00
58.1504 821.00
58.2156 924.00
58.2808 1112.00
58.346 1423.00
58.4112 1495.00
58.4764 1448.00
58.5416 1162.00
58.6068 1053.00
58.672 900.00
58.7372 914.00
58.8024 935.00
58.8676 877.00
58.9328 931.00
58.998 1003.00
59.0632 875.00
59.1284 945.00
59.1936 972.00
59.2588 1115.00
59.324 1420.00
59.3892 1503.00
59.4544 1657.00
59.5196 1898.00
59.5848 1849.00
59.65 1740.00
59.7152 1545.00
59.7804 1295.00
59.8456 1178.00
59.9108 1036.00
59.976 1115.00
60.0412 1164.00
60.1064 1448.00
60.1716 1372.00
60.2368 1201.00
60.302 1086.00
60.3672 877.00
60.4324 782.00
60.4976 673.00
60.5628 626.00
60.628 619.00
60.6932 670.00
60.7584 767.00
60.8236 646.00
60.8888 620.00
60.954 681.00
61.0192 636.00
61.0844 579.00
61.1496 588.00
61.2148 518.00
61.28 482.00
61.3452 584.00
61.4104 577.00
61.4756 667.00
61.5408 689.00
61.606 771.00
61.6712 774.00
61.7364 726.00
61.8016 700.00
61.8667 743.00
61.932 715.00
61.9971 827.00
62.0623 881.00
62.1275 833.00
62.1927 911.00
62.2579 1038.00
62.3231 975.00
62.3883 794.00
62.4535 827.00
62.5187 666.00
62.5839 616.00
62.6491 559.00
62.7143 586.00
62.7795 738.00
62.8447 915.00
62.9099 980.00
62.9751 882.00
63.0403 868.00
63.1055 786.00
63.1707 646.00
63.2359 553.00
63.3011 556.00
63.3663 515.00
63.4315 525.00
63.4967 570.00
63.5619 593.00
63.6271 557.00
63.6923 622.00
63.7575 576.00
63.8227 617.00
63.8879 602.00
63.9531 654.00
64.0183 603.00
64.0835 701.00
64.1487 698.00
64.2139 693.00
64.2791 682.00
64.3443 636.00
64.4095 638.00
64.4747 599.00
64.5399 581.00
64.6051 635.00
64.6703 650.00
64.7355 720.00
64.8007 868.00
64.8659 1044.00
64.9311 1034.00
64.9963 935.00
65.0615 905.00
65.1267 755.00
65.1919 718.00
65.2571 694.00
65.3223 727.00
65.3875 800.00
65.4527 787.00
65.5179 758.00
65.5831 779.00
65.6483 807.00
65.7135 794.00
65.7787 849.00
65.8439 853.00
65.9091 943.00
65.9743 993.00
66.0395 1044.00
66.1047 1105.00
66.1699 1080.00
66.2351 956.00
66.3003 901.00
66.3655 843.00
66.4307 732.00
66.4959 637.00
66.561 579.00
66.6263 581.00
66.6915 686.00
66.7566 678.00
66.8218 631.00
66.887 585.00
66.9522 633.00
67.0174 628.00
67.0826 587.00
67.1478 570.00
67.213 572.00
67.2782 620.00
67.3434 651.00
67.4086 621.00
67.4738 564.00
67.539 555.00
67.6042 547.00
67.6694 505.00
67.7346 484.00
67.7998 515.00
67.865 584.00
67.9302 609.00
67.9954 609.00
68.0606 556.00
68.1258 556.00
68.191 550.00
68.2562 499.00
68.3214 492.00
68.3866 493.00
68.4518 516.00
68.517 621.00
68.5822 593.00
68.6474 622.00
68.7126 630.00
68.7778 660.00
68.843 636.00
68.9082 613.00
68.9734 584.00
69.0386 582.00
69.1038 602.00
69.169 536.00
69.2342 524.00
69.2994 484.00
69.3646 493.00
69.4298 440.00
69.495 451.00
69.5602 492.00
69.6254 465.00
69.6906 504.00
69.7558 512.00
69.821 465.00
69.8862 500.00
69.9514 450.00
70.0166 439.00
70.0818 456.00
70.147 469.00
70.2122 436.00
70.2774 443.00
70.3426 441.00
70.4078 441.00
70.473 419.00
70.5382 425.00
70.6034 450.00
70.6686 469.00
70.7338 463.00
70.799 480.00
70.8642 474.00
70.9294 417.00
70.9946 483.00
71.0598 485.00
71.125 438.00
71.1902 398.00
71.2554 467.00
71.3205 514.00
71.3858 535.00
71.451 616.00
71.5162 583.00
71.5813 544.00
71.6465 494.00
71.7117 493.00
71.7769 431.00
71.8421 440.00
71.9073 472.00
71.9725 442.00
72.0377 576.00
72.1029 689.00
72.1681 643.00
72.2333 640.00
72.2985 713.00
72.3637 661.00
72.4289 457.00
72.4941 505.00
72.5593 489.00
72.6245 435.00
72.6897 450.00
72.7549 370.00
72.8201 407.00
72.8853 407.00
72.9505 404.00
73.0157 419.00
73.0809 469.00
73.1461 560.00
73.2113 635.00
73.2765 711.00
73.3417 647.00
73.4069 597.00
73.4721 595.00
73.5373 551.00
73.6025 513.00
73.6677 452.00
73.7329 417.00
73.7981 409.00
73.8633 391.00
73.9285 422.00
73.9937 428.00
74.0589 442.00
74.1241 454.00
74.1893 468.00
74.2545 492.00
74.3197 563.00
74.3849 640.00
74.4501 581.00
74.5153 543.00
74.5805 481.00
74.6457 449.00
74.7109 472.00
74.7761 454.00
74.8413 433.00
74.9065 446.00
74.9717 433.00
75.0369 425.00
75.1021 488.00
75.1673 515.00
75.2325 565.00
75.2977 596.00
75.3629 503.00
75.4281 511.00
75.4933 454.00
75.5585 467.00
75.6237 419.00
75.6889 424.00
75.7541 396.00
75.8193 404.00
75.8845 407.00
75.9497 402.00
76.0149 502.00
76.0801 472.00
76.1452 475.00
76.2104 470.00
76.2756 506.00
76.3409 429.00
76.406 464.00
76.4712 483.00
76.5364 466.00
76.6016 451.00
76.6668 453.00
76.732 559.00
76.7972 555.00
76.8624 490.00
76.9276 477.00
76.9928 520.00
77.058 558.00
77.1232 573.00
77.1884 530.00
77.2536 540.00
77.3188 557.00
77.384 596.00
77.4492 533.00
77.5144 465.00
77.5796 461.00
77.6448 478.00
77.71 415.00
77.7752 413.00
77.8404 452.00
77.9056 431.00
77.9708 472.00
78.036 461.00
78.1012 458.00
78.1664 425.00
78.2316 424.00
78.2968 397.00
78.362 408.00
78.4272 443.00
78.4924 430.00
78.5576 498.00
78.6228 501.00
78.688 658.00
78.7532 747.00
78.8184 852.00
78.8836 812.00
78.9488 786.00
79.014 746.00
79.0792 713.00
79.1444 697.00
79.2096 598.00
79.2748 642.00
79.34 559.00
79.4052 523.00
79.4704 510.00
79.5356 502.00
79.6008 427.00
79.666 405.00
79.7312 356.00
79.7964 402.00
79.8616 417.00
79.9268 449.00
79.992 501.00
80.0572 479.00
80.1224 538.00
80.1876 542.00
80.2528 510.00
80.318 514.00
80.3832 481.00
80.4484 472.00
80.5136 484.00
80.5788 427.00
80.644 483.00
80.7092 469.00
80.7744 482.00
80.8396 463.00
80.9048 427.00
80.9699 450.00
81.0351 443.00
81.1003 475.00
81.1655 498.00
81.2307 512.00
81.2959 523.00
81.3611 518.00
81.4263 447.00
81.4915 493.00
81.5567 535.00
81.6219 444.00
81.6871 427.00
81.7523 454.00
81.8175 456.00
81.8827 441.00
81.9479 407.00
82.0131 407.00
82.0783 440.00
82.1435 385.00
82.2087 412.00
82.2739 373.00
82.3391 387.00
82.4043 407.00
82.4695 438.00
82.5347 488.00
82.5999 437.00
82.6651 450.00
82.7303 467.00
82.7955 483.00
82.8607 429.00
82.9259 453.00
82.9911 429.00
83.0563 383.00
83.1215 369.00
83.1867 387.00
83.2519 395.00
83.3171 454.00
83.3823 439.00
83.4475 427.00
83.5127 452.00
83.5779 480.00
83.6431 530.00
83.7083 533.00
83.7735 557.00
83.8387 591.00
83.9039 627.00
83.9691 595.00
84.0343 577.00
84.0995 543.00
84.1647 525.00
84.2299 444.00
84.2951 461.00
84.3603 465.00
84.4255 408.00
84.4907 436.00
84.5559 507.00
84.6211 501.00
84.6863 484.00
84.7515 502.00
84.8167 548.00
84.8819 473.00
84.9471 499.00
85.0123 538.00
85.0775 550.00
85.1427 552.00
85.2079 518.00
85.2731 434.00
85.3383 487.00
85.4035 486.00
85.4687 475.00
85.5339 420.00
85.5991 365.00
85.6643 424.00
85.7295 465.00
85.7946 438.00
85.8598 417.00
85.925 456.00
85.9903 487.00
86.0554 578.00
86.1206 523.00
86.1858 423.00
86.251 477.00
86.3162 543.00
86.3814 466.00
86.4466 505.00
86.5118 495.00
86.577 513.00
86.6422 475.00
86.7074 458.00
86.7726 488.00
86.8378 508.00
86.903 481.00
86.9682 517.00
87.0334 515.00
87.0986 526.00
87.1638 519.00
87.229 493.00
87.2942 488.00
87.3594 486.00
87.4246 506.00
87.4898 482.00
87.555 434.00
87.6202 450.00
87.6854 450.00
87.7506 401.00
87.8158 414.00
87.881 366.00
87.9462 395.00
88.0114 406.00
88.0766 421.00
88.1418 391.00
88.207 429.00
88.2722 454.00
88.3374 529.00
88.4026 517.00
88.4678 511.00
88.533 508.00
88.5982 503.00
88.6634 514.00
88.7286 456.00
88.7938 472.00
88.859 511.00
88.9242 467.00
88.9894 503.00
89.0546 450.00
89.1198 488.00
89.185 438.00
89.2502 481.00
89.3154 469.00
89.3806 477.00
89.4458 514.00
89.511 517.00
89.5762 499.00
89.6414 438.00
89.7066 498.00
89.7718 519.00
89.837 549.00
89.9022 569.00
89.9674 568.00
90.0326 601.00
90.0978 528.00
90.163 595.00
90.2282 566.00
90.2934 651.00
90.3586 632.00
90.4238 584.00
90.489 547.00
90.5542 519.00
90.6193 508.00
90.6845 475.00
90.7497 476.00
90.8149 504.00
90.8801 506.00
90.9453 544.00
91.0105 536.00
91.0757 599.00
91.1409 574.00
91.2061 526.00
91.2713 544.00
91.3365 549.00
91.4017 539.00
91.4669 533.00
91.5321 589.00
91.5973 535.00
91.6625 492.00
91.7277 525.00
91.7929 496.00
91.8581 482.00
91.9233 522.00
91.9885 503.00
92.0537 468.00
92.1189 462.00
92.1841 473.00
92.2493 460.00
92.3145 492.00
92.3797 453.00
92.4449 491.00
92.5101 441.00
92.5753 440.00
92.6405 494.00
92.7057 503.00
92.7709 483.00
92.8361 458.00
92.9013 438.00
92.9665 434.00
93.0317 412.00
93.0969 455.00
93.1621 418.00
93.2273 405.00
93.2925 405.00
93.3577 466.00
93.4229 465.00
93.4881 465.00
93.5533 492.00
93.6185 470.00
93.6837 470.00
93.7489 463.00
93.8141 414.00
93.8793 392.00
93.9445 402.00
94.0097 424.00
94.0749 425.00
94.1401 431.00
94.2053 417.00
94.2705 418.00
94.3357 431.00
94.4009 400.00
94.4661 406.00
94.5313 458.00
94.5965 415.00
94.6617 363.00
94.7269 395.00
94.7921 405.00
94.8573 383.00
94.9225 371.00
94.9877 437.00
95.0529 416.00
95.1181 379.00
95.1833 410.00
95.2485 381.00
95.3137 431.00
95.3789 414.00
95.444 437.00
95.5092 435.00
95.5744 428.00
95.6396 458.00
95.7048 502.00
95.77 462.00
95.8352 519.00
95.9004 477.00
95.9656 500.00
96.0308 438.00
96.096 518.00
96.1612 535.00
96.2264 526.00
96.2916 496.00
96.3568 489.00
96.422 477.00
96.4872 444.00
96.5524 434.00
96.6176 459.00
96.6828 469.00
96.748 499.00
96.8132 488.00
96.8784 476.00
96.9436 566.00
97.0088 582.00
97.074 534.00
97.1392 568.00
97.2044 561.00
97.2696 539.00
97.3348 544.00
97.4 573.00
97.4652 588.00
97.5304 476.00
97.5956 430.00
97.6608 483.00
97.726 431.00
97.7912 474.00
97.8564 422.00
97.9216 463.00
97.9868 426.00
98.052 493.00
98.1172 434.00
98.1824 463.00
98.2476 440.00
98.3128 445.00
98.378 442.00
98.4432 406.00
98.5084 424.00
98.5736 399.00
98.6388 436.00
98.704 488.00
98.7692 427.00
98.8344 404.00
98.8996 399.00
98.9648 385.00
99.03 396.00
99.0952 424.00
99.1604 403.00
99.2256 411.00
99.2908 460.00
99.356 435.00
99.4212 482.00
99.4864 474.00
99.5516 482.00
99.6168 543.00
99.682 567.00
99.7472 584.00
99.8124 530.00
99.8776 477.00
99.9428 480.00
100.008 477.00
100.073 466.00
100.095 485.00