File: data/xrd_creation/results/Na_113.xy
9.903433 2946.00
9.968632 2890.00
10.0338 2853.00
10.099 2898.00
10.1642 2811.00
10.2294 2925.00
10.2946 2805.00
10.3598 2875.00
10.425 2766.00
10.4902 2724.00
10.5554 2802.00
10.6206 2717.00
10.6858 2676.00
10.751 2678.00
10.8162 2723.00
10.8814 2829.00
10.9466 2893.00
11.0118 2913.00
11.077 3039.00
11.1422 3619.00
11.2074 3979.00
11.2726 4838.00
11.3378 6294.00
11.403 8850.00
11.4682 13587.00
11.5334 18319.00
11.5986 14965.00
11.6638 11724.00
11.729 5547.00
11.7942 3503.00
11.8594 2909.00
11.9246 2613.00
11.9898 2605.00
12.055 2430.00
12.1202 2494.00
12.1854 2426.00
12.2506 2513.00
12.3158 2370.00
12.381 2480.00
12.4462 2446.00
12.5114 2470.00
12.5766 2348.00
12.6418 2390.00
12.707 2304.00
12.7722 2279.00
12.8374 2266.00
12.9026 2217.00
12.9678 2208.00
13.033 2239.00
13.0982 2180.00
13.1634 2136.00
13.2286 2147.00
13.2938 2106.00
13.359 2218.00
13.4242 2104.00
13.4894 2091.00
13.5546 2091.00
13.6198 2065.00
13.685 1966.00
13.7502 2115.00
13.8154 2021.00
13.8805 2020.00
13.9457 2185.00
14.0109 2042.00
14.0761 1970.00
14.1413 2027.00
14.2065 2044.00
14.2717 2059.00
14.3369 2007.00
14.4021 1951.00
14.4673 2006.00
14.5325 1994.00
14.5977 2066.00
14.6629 2183.00
14.7281 2192.00
14.7933 2404.00
14.8585 2123.00
14.9237 2051.00
14.9889 1872.00
15.0541 1905.00
15.1193 1876.00
15.1845 1837.00
15.2497 1936.00
15.3149 1822.00
15.3801 1877.00
15.4453 1956.00
15.5105 1982.00
15.5757 1949.00
15.6409 1884.00
15.7061 1890.00
15.7713 2058.00
15.8365 2025.00
15.9017 2119.00
15.9669 2163.00
16.0321 2481.00
16.0973 2829.00
16.1625 3801.00
16.2277 5584.00
16.2929 8567.00
16.3581 10841.00
16.4233 6114.00
16.4885 2983.00
16.5537 2170.00
16.6189 1950.00
16.6841 1947.00
16.7493 1881.00
16.8145 1796.00
16.8797 1782.00
16.9449 1820.00
17.0101 1784.00
17.0753 1849.00
17.1405 1763.00
17.2057 1786.00
17.2709 1809.00
17.3361 1789.00
17.4013 1753.00
17.4665 1756.00
17.5317 1779.00
17.5969 1815.00
17.6621 1805.00
17.7273 1872.00
17.7925 2066.00
17.8577 2364.00
17.9229 2668.00
17.9881 2997.00
18.0533 2784.00
18.1185 2299.00
18.1837 1940.00
18.2489 1857.00
18.3141 1835.00
18.3793 1828.00
18.4445 1659.00
18.5097 1640.00
18.5749 1544.00
18.6401 1613.00
18.7052 1621.00
18.7704 1517.00
18.8356 1569.00
18.9008 1564.00
18.966 1545.00
19.0312 1512.00
19.0964 1608.00
19.1616 1456.00
19.2268 1531.00
19.292 1529.00
19.3572 1524.00
19.4224 1541.00
19.4876 1506.00
19.5528 1479.00
19.618 1499.00
19.6832 1467.00
19.7484 1415.00
19.8136 1439.00
19.8788 1475.00
19.944 1435.00
20.0092 1471.00
20.0744 1467.00
20.1396 1633.00
20.2048 1704.00
20.27 1650.00
20.3352 1515.00
20.4004 1522.00
20.4656 1456.00
20.5308 1431.00
20.596 1434.00
20.6612 1500.00
20.7264 1489.00
20.7916 1621.00
20.8568 1775.00
20.922 1977.00
20.9872 1760.00
21.0524 1628.00
21.1176 1430.00
21.1828 1402.00
21.248 1415.00
21.3132 1401.00
21.3784 1344.00
21.4436 1358.00
21.5088 1359.00
21.574 1345.00
21.6392 1410.00
21.7044 1274.00
21.7696 1350.00
21.8348 1324.00
21.9 1328.00
21.9652 1267.00
22.0304 1337.00
22.0956 1393.00
22.1608 1288.00
22.226 1301.00
22.2912 1357.00
22.3564 1244.00
22.4216 1360.00
22.4868 1333.00
22.552 1258.00
22.6172 1231.00
22.6824 1337.00
22.7476 1315.00
22.8128 1284.00
22.878 1296.00
22.9432 1330.00
23.0084 1446.00
23.0736 1357.00
23.1388 1363.00
23.204 1363.00
23.2692 1438.00
23.3344 1381.00
23.3996 1355.00
23.4647 1251.00
23.5299 1254.00
23.5951 1209.00
23.6603 1190.00
23.7255 1265.00
23.7907 1281.00
23.8559 1227.00
23.9211 1303.00
23.9863 1368.00
24.0515 1398.00
24.1167 1474.00
24.1819 1620.00
24.2471 2061.00
24.3123 2351.00
24.3775 1968.00
24.4427 2029.00
24.5079 2676.00
24.5731 2558.00
24.6383 1843.00
24.7035 1378.00
24.7687 1313.00
24.8339 1349.00
24.8991 1344.00
24.9643 1186.00
25.0295 1246.00
25.0947 1252.00
25.1599 1394.00
25.2251 1444.00
25.2903 1614.00
25.3555 1675.00
25.4207 1495.00
25.4859 1441.00
25.5511 1566.00
25.6163 1906.00
25.6815 2799.00
25.7467 5070.00
25.8119 8668.00
25.8771 9634.00
25.9423 10895.00
26.0075 10219.00
26.0727 5402.00
26.1379 2224.00
26.2031 1606.00
26.2683 1460.00
26.3335 1446.00
26.3987 1364.00
26.4639 1614.00
26.5291 2081.00
26.5943 3069.00
26.6595 5196.00
26.7247 6272.00
26.7899 4764.00
26.8551 2720.00
26.9203 1847.00
26.9855 1659.00
27.0507 1604.00
27.1159 1838.00
27.1811 1655.00
27.2463 1416.00
27.3115 1376.00
27.3767 1334.00
27.4419 1432.00
27.5071 1629.00
27.5723 2364.00
27.6375 3977.00
27.7027 6121.00
27.7679 7489.00
27.8331 5484.00
27.8983 3947.00
27.9635 3951.00
28.0287 3071.00
28.0939 1949.00
28.1591 1610.00
28.2243 1376.00
28.2894 1259.00
28.3546 1207.00
28.4198 1194.00
28.485 1141.00
28.5502 1059.00
28.6154 1078.00
28.6806 1102.00
28.7458 1069.00
28.811 1060.00
28.8762 1121.00
28.9414 1046.00
29.0066 1034.00
29.0718 967.00
29.137 1041.00
29.2022 1001.00
29.2674 1051.00
29.3326 1008.00
29.3978 1052.00
29.463 1029.00
29.5282 954.00
29.5934 1021.00
29.6586 1007.00
29.7238 991.00
29.789 1053.00
29.8542 1236.00
29.9194 1567.00
29.9846 2404.00
30.0498 2374.00
30.115 1899.00
30.1802 1503.00
30.2454 2133.00
30.3106 2135.00
30.3758 1673.00
30.441 1210.00
30.5062 986.00
30.5714 933.00
30.6366 1037.00
30.7018 974.00
30.767 944.00
30.8322 947.00
30.8974 1001.00
30.9626 979.00
31.0278 1012.00
31.093 1002.00
31.1582 1072.00
31.2234 1396.00
31.2886 1908.00
31.3538 2125.00
31.419 1758.00
31.4842 1397.00
31.5494 1365.00
31.6146 1354.00
31.6798 1705.00
31.745 2282.00
31.8102 2174.00
31.8754 1693.00
31.9406 1175.00
32.0058 1044.00
32.071 1028.00
32.1362 985.00
32.2014 982.00
32.2666 1034.00
32.3318 1071.00
32.397 1145.00
32.4622 1232.00
32.5274 1138.00
32.5926 1150.00
32.6578 1354.00
32.723 2153.00
32.7882 4321.00
32.8534 9085.00
32.9186 10996.00
32.9838 6852.00
33.0489 2864.00
33.1141 1516.00
33.1793 1256.00
33.2445 1249.00
33.3097 1218.00
33.3749 1072.00
33.4401 1047.00
33.5053 1069.00
33.5705 1081.00
33.6357 1110.00
33.7009 1318.00
33.7661 1551.00
33.8313 1950.00
33.8965 2842.00
33.9617 4522.00
34.0269 4792.00
34.0921 4106.00
34.1573 3633.00
34.2225 5057.00
34.2877 8159.00
34.3529 9931.00
34.4181 6920.00
34.4833 3603.00
34.5485 2141.00
34.6137 2193.00
34.6789 2855.00
34.7441 3843.00
34.8093 3221.00
34.8745 2023.00
34.9397 1274.00
35.0049 1205.00
35.0701 1281.00
35.1353 1318.00
35.2005 1119.00
35.2657 973.00
35.3309 904.00
35.3961 875.00
35.4613 867.00
35.5265 777.00
35.5917 743.00
35.6569 806.00
35.7221 834.00
35.7873 779.00
35.8525 741.00
35.9177 778.00
35.9829 897.00
36.0481 971.00
36.1133 1036.00
36.1785 1278.00
36.2437 1418.00
36.3089 1253.00
36.3741 1083.00
36.4393 1200.00
36.5045 1187.00
36.5697 1212.00
36.6349 1159.00
36.7001 1609.00
36.7653 1564.00
36.8305 1254.00
36.8957 1123.00
36.9609 1272.00
37.0261 1681.00
37.0913 1505.00
37.1565 1257.00
37.2217 893.00
37.2869 805.00
37.3521 748.00
37.4173 749.00
37.4825 858.00
37.5477 867.00
37.6129 942.00
37.6781 1073.00
37.7433 1100.00
37.8085 1013.00
37.8736 1051.00
37.9388 1068.00
38.004 1267.00
38.0692 1562.00
38.1344 1386.00
38.1996 1303.00
38.2648 918.00
38.33 883.00
38.3952 752.00
38.4604 770.00
38.5256 742.00
38.5908 711.00
38.656 763.00
38.7212 692.00
38.7864 692.00
38.8516 643.00
38.9168 832.00
38.982 985.00
39.0472 1087.00
39.1124 1099.00
39.1776 943.00
39.2428 816.00
39.308 777.00
39.3732 718.00
39.4384 784.00
39.5036 779.00
39.5688 819.00
39.634 757.00
39.6992 730.00
39.7644 689.00
39.8296 649.00
39.8948 638.00
39.96 655.00
40.0252 636.00
40.0904 616.00
40.1556 674.00
40.2208 620.00
40.286 726.00
40.3512 799.00
40.4164 762.00
40.4816 692.00
40.5468 732.00
40.612 687.00
40.6772 704.00
40.7424 701.00
40.8076 819.00
40.8728 952.00
40.938 830.00
41.0032 850.00
41.0684 748.00
41.1336 749.00
41.1988 802.00
41.264 797.00
41.3292 801.00
41.3944 771.00
41.4596 791.00
41.5248 986.00
41.59 1367.00
41.6552 1626.00
41.7204 1314.00
41.7856 1013.00
41.8508 866.00
41.916 971.00
41.9812 1443.00
42.0464 1922.00
42.1116 1847.00
42.1768 2091.00
42.242 1653.00
42.3072 1915.00
42.3724 1841.00
42.4376 1365.00
42.5028 1128.00
42.568 804.00
42.6332 676.00
42.6983 736.00
42.7635 668.00
42.8287 642.00
42.8939 643.00
42.9591 654.00
43.0243 623.00
43.0895 656.00
43.1547 686.00
43.2199 742.00
43.2851 855.00
43.3503 1163.00
43.4155 1271.00
43.4807 1134.00
43.5459 1021.00
43.6111 1006.00
43.6763 941.00
43.7415 805.00
43.8067 715.00
43.8719 650.00
43.9371 659.00
44.0023 700.00
44.0675 744.00
44.1327 682.00
44.1979 631.00
44.2631 635.00
44.3283 647.00
44.3935 632.00
44.4587 651.00
44.5239 666.00
44.5891 632.00
44.6543 630.00
44.7195 651.00
44.7847 617.00
44.8499 736.00
44.9151 992.00
44.9803 1088.00
45.0455 1103.00
45.1107 1047.00
45.1759 907.00
45.2411 845.00
45.3063 931.00
45.3715 846.00
45.4367 920.00
45.5019 802.00
45.5671 881.00
45.6323 760.00
45.6975 731.00
45.7627 644.00
45.8279 583.00
45.8931 644.00
45.9583 613.00
46.0235 737.00
46.0887 746.00
46.1539 749.00
46.2191 701.00
46.2843 642.00
46.3495 618.00
46.4147 580.00
46.4799 642.00
46.5451 639.00
46.6103 810.00
46.6755 884.00
46.7407 890.00
46.8059 1012.00
46.8711 1327.00
46.9363 1281.00
47.0015 1272.00
47.0667 1245.00
47.1319 1658.00
47.1971 1562.00
47.2623 1840.00
47.3275 2651.00
47.3927 3636.00
47.4579 2703.00
47.523 2232.00
47.5882 1317.00
47.6534 850.00
47.7186 787.00
47.7838 726.00
47.849 725.00
47.9142 690.00
47.9794 619.00
48.0446 602.00
48.1098 640.00
48.175 655.00
48.2402 655.00
48.3054 721.00
48.3706 818.00
48.4358 959.00
48.501 979.00
48.5662 913.00
48.6314 814.00
48.6966 788.00
48.7618 873.00
48.827 1059.00
48.8922 1474.00
48.9574 1414.00
49.0226 1251.00
49.0878 1060.00
49.153 911.00
49.2182 821.00
49.2834 858.00
49.3486 783.00
49.4138 818.00
49.479 1219.00
49.5442 1905.00
49.6094 1813.00
49.6746 1618.00
49.7398 1336.00
49.805 1260.00
49.8702 1552.00
49.9354 1529.00
50.0006 1434.00
50.0658 1473.00
50.131 1920.00
50.1962 1933.00
50.2614 1574.00
50.3266 1288.00
50.3918 867.00
50.457 756.00
50.5222 741.00
50.5874 725.00
50.6526 631.00
50.7178 622.00
50.783 603.00
50.8482 573.00
50.9134 615.00
50.9786 633.00
51.0438 667.00
51.109 760.00
51.1742 657.00
51.2394 679.00
51.3046 668.00
51.3698 614.00
51.435 656.00
51.5002 793.00
51.5654 1331.00
51.6306 1918.00
51.6958 1681.00
51.761 2174.00
51.8262 2785.00
51.8914 3237.00
51.9566 2797.00
52.0218 2381.00
52.087 1702.00
52.1522 1262.00
52.2174 1008.00
52.2826 802.00
52.3477 698.00
52.4129 620.00
52.4781 574.00
52.5433 536.00
52.6085 536.00
52.6737 571.00
52.7389 589.00
52.8041 664.00
52.8693 892.00
52.9345 1036.00
52.9997 1042.00
53.0649 1213.00
53.1301 948.00
53.1953 950.00
53.2605 934.00
53.3257 790.00
53.3909 787.00
53.4561 848.00
53.5213 714.00
53.5865 668.00
53.6517 710.00
53.7169 825.00
53.7821 787.00
53.8473 714.00
53.9125 795.00
53.9777 662.00
54.0429 676.00
54.1081 732.00
54.1733 740.00
54.2385 704.00
54.3037 788.00
54.3689 691.00
54.4341 701.00
54.4993 615.00
54.5645 712.00
54.6297 821.00
54.6949 913.00
54.7601 932.00
54.8253 1135.00
54.8905 1100.00
54.9557 1020.00
55.0209 932.00
55.0861 852.00
55.1513 791.00
55.2165 898.00
55.2817 984.00
55.3469 1077.00
55.4121 1501.00
55.4773 1232.00
55.5425 1020.00
55.6077 874.00
55.6729 700.00
55.7381 600.00
55.8033 613.00
55.8685 647.00
55.9337 674.00
55.9989 759.00
56.0641 973.00
56.1293 957.00
56.1945 941.00
56.2597 922.00
56.3249 793.00
56.3901 763.00
56.4553 715.00
56.5205 695.00
56.5857 739.00
56.6509 861.00
56.7161 1076.00
56.7813 1013.00
56.8465 1007.00
56.9117 933.00
56.9769 858.00
57.042 779.00
57.1073 927.00
57.1724 1138.00
57.2376 960.00
57.3028 901.00
57.368 822.00
57.4332 750.00
57.4984 647.00
57.5636 725.00
57.6288 754.00
57.694 716.00
57.7592 720.00
57.8244 760.00
57.8896 890.00
57.9548 1040.00
58.02 950.00
58.0852 910.00
58.1504 835.00
58.2156 1182.00
58.2808 1639.00
58.346 1637.00
58.4112 1564.00
58.4764 1386.00
58.5416 1098.00
58.6068 931.00
58.672 1071.00
58.7372 942.00
58.8024 865.00
58.8676 988.00
58.9328 1026.00
58.998 1029.00
59.0632 904.00
59.1284 1008.00
59.1936 1154.00
59.2588 1446.00
59.324 1650.00
59.3892 1913.00
59.4544 2317.00
59.5196 1882.00
59.5848 2152.00
59.65 1753.00
59.7152 1383.00
59.7804 1328.00
59.8456 1202.00
59.9108 1097.00
59.976 1410.00
60.0412 1775.00
60.1064 1668.00
60.1716 1293.00
60.2368 1223.00
60.302 984.00
60.3672 750.00
60.4324 731.00
60.4976 631.00
60.5628 628.00
60.628 701.00
60.6932 769.00
60.7584 649.00
60.8236 695.00
60.8888 673.00
60.954 618.00
61.0192 566.00
61.0844 520.00
61.1496 507.00
61.2148 511.00
61.28 562.00
61.3452 628.00
61.4104 699.00
61.4756 742.00
61.5408 883.00
61.606 876.00
61.6712 741.00
61.7364 783.00
61.8016 802.00
61.8667 832.00
61.932 888.00
61.9971 977.00
62.0623 975.00
62.1275 1109.00
62.1927 1275.00
62.2579 1132.00
62.3231 843.00
62.3883 852.00
62.4535 684.00
62.5187 543.00
62.5839 569.00
62.6491 599.00
62.7143 737.00
62.7795 1067.00
62.8447 1137.00
62.9099 870.00
62.9751 886.00
63.0403 745.00
63.1055 636.00
63.1707 552.00
63.2359 474.00
63.3011 495.00
63.3663 494.00
63.4315 554.00
63.4967 552.00
63.5619 617.00
63.6271 603.00
63.6923 612.00
63.7575 591.00
63.8227 646.00
63.8879 687.00
63.9531 648.00
64.0183 618.00
64.0835 691.00
64.1487 767.00
64.2139 683.00
64.2791 724.00
64.3443 727.00
64.4095 661.00
64.4747 663.00
64.5399 629.00
64.6051 713.00
64.6703 777.00
64.7355 983.00
64.8007 1174.00
64.8659 1203.00
64.9311 1038.00
64.9963 971.00
65.0615 954.00
65.1267 799.00
65.1919 775.00
65.2571 760.00
65.3223 823.00
65.3875 821.00
65.4527 759.00
65.5179 794.00
65.5831 835.00
65.6483 886.00
65.7135 891.00
65.7787 932.00
65.8439 1001.00
65.9091 1050.00
65.9743 1151.00
66.0395 1210.00
66.1047 1146.00
66.1699 1118.00
66.2351 922.00
66.3003 884.00
66.3655 794.00
66.4307 728.00
66.4959 659.00
66.561 645.00
66.6263 695.00
66.6915 730.00
66.7566 692.00
66.8218 642.00
66.887 658.00
66.9522 646.00
67.0174 602.00
67.0826 573.00
67.1478 611.00
67.213 644.00
67.2782 753.00
67.3434 648.00
67.4086 606.00
67.4738 509.00
67.539 498.00
67.6042 515.00
67.6694 529.00
67.7346 537.00
67.7998 590.00
67.865 751.00
67.9302 693.00
67.9954 587.00
68.0606 604.00
68.1258 565.00
68.191 526.00
68.2562 474.00
68.3214 523.00
68.3866 588.00
68.4518 659.00
68.517 655.00
68.5822 684.00
68.6474 683.00
68.7126 649.00
68.7778 734.00
68.843 684.00
68.9082 626.00
68.9734 637.00
69.0386 621.00
69.1038 526.00
69.169 552.00
69.2342 517.00
69.2994 490.00
69.3646 436.00
69.4298 479.00
69.495 479.00
69.5602 509.00
69.6254 505.00
69.6906 509.00
69.7558 466.00
69.821 469.00
69.8862 469.00
69.9514 448.00
70.0166 458.00
70.0818 429.00
70.147 471.00
70.2122 432.00
70.2774 425.00
70.3426 397.00
70.4078 431.00
70.473 472.00
70.5382 474.00
70.6034 451.00
70.6686 511.00
70.7338 528.00
70.799 447.00
70.8642 445.00
70.9294 447.00
70.9946 440.00
71.0598 467.00
71.125 445.00
71.1902 457.00
71.2554 530.00
71.3205 574.00
71.3858 627.00
71.451 584.00
71.5162 600.00
71.5813 555.00
71.6465 482.00
71.7117 468.00
71.7769 500.00
71.8421 480.00
71.9073 537.00
71.9725 589.00
72.0377 738.00
72.1029 659.00
72.1681 781.00
72.2333 766.00
72.2985 685.00
72.3637 554.00
72.4289 513.00
72.4941 421.00
72.5593 424.00
72.6245 389.00
72.6897 401.00
72.7549 388.00
72.8201 419.00
72.8853 407.00
72.9505 422.00
73.0157 479.00
73.0809 589.00
73.1461 730.00
73.2113 780.00
73.2765 751.00
73.3417 662.00
73.4069 677.00
73.4721 507.00
73.5373 510.00
73.6025 475.00
73.6677 424.00
73.7329 461.00
73.7981 412.00
73.8633 406.00
73.9285 463.00
73.9937 432.00
74.0589 498.00
74.1241 516.00
74.1893 552.00
74.2545 561.00
74.3197 627.00
74.3849 646.00
74.4501 532.00
74.5153 509.00
74.5805 522.00
74.6457 449.00
74.7109 455.00
74.7761 419.00
74.8413 429.00
74.9065 444.00
74.9717 459.00
75.0369 478.00
75.1021 501.00
75.1673 620.00
75.2325 603.00
75.2977 554.00
75.3629 470.00
75.4281 491.00
75.4933 489.00
75.5585 440.00
75.6237 376.00
75.6889 403.00
75.7541 452.00
75.8193 408.00
75.8845 455.00
75.9497 492.00
76.0149 527.00
76.0801 475.00
76.1452 482.00
76.2104 474.00
76.2756 431.00
76.3409 419.00
76.406 472.00
76.4712 482.00
76.5364 514.00
76.6016 514.00
76.6668 512.00
76.732 583.00
76.7972 544.00
76.8624 503.00
76.9276 564.00
76.9928 585.00
77.058 636.00
77.1232 635.00
77.1884 575.00
77.2536 602.00
77.3188 641.00
77.384 579.00
77.4492 479.00
77.5144 532.00
77.5796 456.00
77.6448 451.00
77.71 402.00
77.7752 431.00
77.8404 457.00
77.9056 492.00
77.9708 466.00
78.036 436.00
78.1012 408.00
78.1664 455.00
78.2316 454.00
78.2968 422.00
78.362 460.00
78.4272 467.00
78.4924 469.00
78.5576 617.00
78.6228 667.00
78.688 831.00
78.7532 1012.00
78.8184 911.00
78.8836 858.00
78.9488 852.00
79.014 783.00
79.0792 743.00
79.1444 722.00
79.2096 685.00
79.2748 598.00
79.34 517.00
79.4052 508.00
79.4704 459.00
79.5356 405.00
79.6008 402.00
79.666 402.00
79.7312 418.00
79.7964 429.00
79.8616 472.00
79.9268 454.00
79.992 578.00
80.0572 586.00
80.1224 552.00
80.1876 558.00
80.2528 553.00
80.318 587.00
80.3832 548.00
80.4484 472.00
80.5136 472.00
80.5788 492.00
80.644 488.00
80.7092 467.00
80.7744 524.00
80.8396 473.00
80.9048 443.00
80.9699 461.00
81.0351 519.00
81.1003 529.00
81.1655 519.00
81.2307 525.00
81.2959 535.00
81.3611 517.00
81.4263 599.00
81.4915 590.00
81.5567 483.00
81.6219 463.00
81.6871 476.00
81.7523 498.00
81.8175 462.00
81.8827 438.00
81.9479 424.00
82.0131 409.00
82.0783 415.00
82.1435 388.00
82.2087 398.00
82.2739 390.00
82.3391 407.00
82.4043 457.00
82.4695 447.00
82.5347 492.00
82.5999 475.00
82.6651 469.00
82.7303 475.00
82.7955 460.00
82.8607 465.00
82.9259 444.00
82.9911 386.00
83.0563 362.00
83.1215 365.00
83.1867 389.00
83.2519 438.00
83.3171 458.00
83.3823 457.00
83.4475 475.00
83.5127 530.00
83.5779 581.00
83.6431 597.00
83.7083 660.00
83.7735 694.00
83.8387 677.00
83.9039 653.00
83.9691 614.00
84.0343 515.00
84.0995 576.00
84.1647 461.00
84.2299 486.00
84.2951 440.00
84.3603 462.00
84.4255 437.00
84.4907 533.00
84.5559 499.00
84.6211 523.00
84.6863 580.00
84.7515 527.00
84.8167 495.00
84.8819 499.00
84.9471 548.00
85.0123 574.00
85.0775 525.00
85.1427 516.00
85.2079 484.00
85.2731 481.00
85.3383 531.00
85.4035 494.00
85.4687 410.00
85.5339 446.00
85.5991 427.00
85.6643 481.00
85.7295 491.00
85.7946 415.00
85.8598 459.00
85.925 503.00
85.9903 603.00
86.0554 526.00
86.1206 471.00
86.1858 495.00
86.251 519.00
86.3162 520.00
86.3814 539.00
86.4466 497.00
86.5118 514.00
86.577 501.00
86.6422 479.00
86.7074 467.00
86.7726 522.00
86.8378 516.00
86.903 514.00
86.9682 546.00
87.0334 556.00
87.0986 580.00
87.1638 541.00
87.229 510.00
87.2942 561.00
87.3594 488.00
87.4246 456.00
87.4898 458.00
87.555 450.00
87.6202 475.00
87.6854 471.00
87.7506 427.00
87.8158 387.00
87.881 397.00
87.9462 415.00
88.0114 373.00
88.0766 359.00
88.1418 420.00
88.207 474.00
88.2722 522.00
88.3374 510.00
88.4026 561.00
88.4678 574.00
88.533 573.00
88.5982 532.00
88.6634 542.00
88.7286 528.00
88.7938 512.00
88.859 547.00
88.9242 505.00
88.9894 467.00
89.0546 495.00
89.1198 485.00
89.185 511.00
89.2502 483.00
89.3154 544.00
89.3806 533.00
89.4458 575.00
89.511 500.00
89.5762 520.00
89.6414 568.00
89.7066 546.00
89.7718 607.00
89.837 659.00
89.9022 631.00
89.9674 559.00
90.0326 601.00
90.0978 572.00
90.163 592.00
90.2282 686.00
90.2934 619.00
90.3586 666.00
90.4238 624.00
90.489 579.00
90.5542 486.00
90.6193 528.00
90.6845 560.00
90.7497 508.00
90.8149 525.00
90.8801 561.00
90.9453 576.00
91.0105 642.00
91.0757 616.00
91.1409 600.00
91.2061 626.00
91.2713 639.00
91.3365 581.00
91.4017 601.00
91.4669 501.00
91.5321 572.00
91.5973 592.00
91.6625 532.00
91.7277 510.00
91.7929 523.00
91.8581 567.00
91.9233 496.00
91.9885 507.00
92.0537 440.00
92.1189 480.00
92.1841 481.00
92.2493 452.00
92.3145 460.00
92.3797 500.00
92.4449 466.00
92.5101 492.00
92.5753 555.00
92.6405 473.00
92.7057 531.00
92.7709 491.00
92.8361 467.00
92.9013 481.00
92.9665 441.00
93.0317 422.00
93.0969 419.00
93.1621 403.00
93.2273 436.00
93.2925 471.00
93.3577 534.00
93.4229 490.00
93.4881 489.00
93.5533 505.00
93.6185 496.00
93.6837 461.00
93.7489 447.00
93.8141 428.00
93.8793 393.00
93.9445 417.00
94.0097 417.00
94.0749 439.00
94.1401 429.00
94.2053 470.00
94.2705 471.00
94.3357 436.00
94.4009 418.00
94.4661 421.00
94.5313 399.00
94.5965 373.00
94.6617 377.00
94.7269 388.00
94.7921 389.00
94.8573 414.00
94.9225 387.00
94.9877 354.00
95.0529 422.00
95.1181 419.00
95.1833 421.00
95.2485 407.00
95.3137 417.00
95.3789 435.00
95.444 445.00
95.5092 419.00
95.5744 437.00
95.6396 459.00
95.7048 504.00
95.77 504.00
95.8352 495.00
95.9004 495.00
95.9656 545.00
96.0308 542.00
96.096 553.00
96.1612 591.00
96.2264 529.00
96.2916 540.00
96.3568 519.00
96.422 483.00
96.4872 454.00
96.5524 437.00
96.6176 505.00
96.6828 504.00
96.748 496.00
96.8132 516.00
96.8784 571.00
96.9436 591.00
97.0088 657.00
97.074 599.00
97.1392 610.00
97.2044 534.00
97.2696 583.00
97.3348 647.00
97.4 609.00
97.4652 548.00
97.5304 496.00
97.5956 478.00
97.6608 487.00
97.726 467.00
97.7912 475.00
97.8564 487.00
97.9216 439.00
97.9868 480.00
98.052 444.00
98.1172 510.00
98.1824 501.00
98.2476 466.00
98.3128 455.00
98.378 423.00
98.4432 424.00
98.5084 471.00
98.5736 463.00
98.6388 414.00
98.704 405.00
98.7692 442.00
98.8344 360.00
98.8996 434.00
98.9648 392.00
99.03 393.00
99.0952 400.00
99.1604 443.00
99.2256 422.00
99.2908 492.00
99.356 492.00
99.4212 482.00
99.4864 516.00
99.5516 584.00
99.6168 625.00
99.682 624.00
99.7472 559.00
99.8124 521.00
99.8776 519.00
99.9428 514.00
100.008 512.00
100.073 441.00
100.095 458.00