File: data/xrd_creation/results/Na_16.xy
9.903433 2660.00
9.968632 2634.00
10.0338 2565.00
10.099 2700.00
10.1642 2541.00
10.2294 2479.00
10.2946 2560.00
10.3598 2515.00
10.425 2531.00
10.4902 2488.00
10.5554 2492.00
10.6206 2466.00
10.6858 2409.00
10.751 2490.00
10.8162 2272.00
10.8814 2355.00
10.9466 2323.00
11.0118 2334.00
11.077 2417.00
11.1422 2303.00
11.2074 2246.00
11.2726 2285.00
11.3378 2225.00
11.403 2317.00
11.4682 2269.00
11.5334 2183.00
11.5986 2168.00
11.6638 2147.00
11.729 2181.00
11.7942 2052.00
11.8594 2062.00
11.9246 2092.00
11.9898 2047.00
12.055 2096.00
12.1202 2096.00
12.1854 2032.00
12.2506 1934.00
12.3158 1980.00
12.381 1924.00
12.4462 2014.00
12.5114 1975.00
12.5766 1954.00
12.6418 1985.00
12.707 1977.00
12.7722 1924.00
12.8374 1930.00
12.9026 1919.00
12.9678 1899.00
13.033 1858.00
13.0982 1937.00
13.1634 1873.00
13.2286 1848.00
13.2938 1812.00
13.359 1800.00
13.4242 1854.00
13.4894 1885.00
13.5546 1730.00
13.6198 1780.00
13.685 1764.00
13.7502 1715.00
13.8154 1690.00
13.8805 1748.00
13.9457 1773.00
14.0109 1735.00
14.0761 1732.00
14.1413 1720.00
14.2065 1693.00
14.2717 1655.00
14.3369 1721.00
14.4021 1743.00
14.4673 1761.00
14.5325 1694.00
14.5977 1629.00
14.6629 1715.00
14.7281 1669.00
14.7933 1662.00
14.8585 1614.00
14.9237 1678.00
14.9889 1709.00
15.0541 1669.00
15.1193 1694.00
15.1845 1636.00
15.2497 1558.00
15.3149 1677.00
15.3801 1639.00
15.4453 1577.00
15.5105 1565.00
15.5757 1607.00
15.6409 1580.00
15.7061 1608.00
15.7713 1488.00
15.8365 1598.00
15.9017 1587.00
15.9669 1596.00
16.0321 1538.00
16.0973 1549.00
16.1625 1594.00
16.2277 1617.00
16.2929 1539.00
16.3581 1486.00
16.4233 1494.00
16.4885 1426.00
16.5537 1465.00
16.6189 1407.00
16.6841 1609.00
16.7493 1519.00
16.8145 1569.00
16.8797 1498.00
16.9449 1547.00
17.0101 1502.00
17.0753 1495.00
17.1405 1443.00
17.2057 1448.00
17.2709 1504.00
17.3361 1520.00
17.4013 1435.00
17.4665 1513.00
17.5317 1479.00
17.5969 1432.00
17.6621 1472.00
17.7273 1430.00
17.7925 1419.00
17.8577 1421.00
17.9229 1408.00
17.9881 1440.00
18.0533 1454.00
18.1185 1390.00
18.1837 1370.00
18.2489 1418.00
18.3141 1375.00
18.3793 1384.00
18.4445 1379.00
18.5097 1419.00
18.5749 1311.00
18.6401 1330.00
18.7052 1338.00
18.7704 1328.00
18.8356 1377.00
18.9008 1353.00
18.966 1258.00
19.0312 1376.00
19.0964 1366.00
19.1616 1276.00
19.2268 1284.00
19.292 1291.00
19.3572 1305.00
19.4224 1297.00
19.4876 1304.00
19.5528 1292.00
19.618 1227.00
19.6832 1323.00
19.7484 1292.00
19.8136 1297.00
19.8788 1242.00
19.944 1233.00
20.0092 1247.00
20.0744 1207.00
20.1396 1208.00
20.2048 1265.00
20.27 1248.00
20.3352 1184.00
20.4004 1293.00
20.4656 1243.00
20.5308 1182.00
20.596 1167.00
20.6612 1167.00
20.7264 1241.00
20.7916 1184.00
20.8568 1261.00
20.922 1230.00
20.9872 1164.00
21.0524 1266.00
21.1176 1232.00
21.1828 1277.00
21.248 1255.00
21.3132 1337.00
21.3784 1540.00
21.4436 1683.00
21.5088 1829.00
21.574 1921.00
21.6392 1951.00
21.7044 2174.00
21.7696 2372.00
21.8348 1969.00
21.9 1405.00
21.9652 1193.00
22.0304 1225.00
22.0956 1099.00
22.1608 1194.00
22.226 1145.00
22.2912 1155.00
22.3564 1082.00
22.4216 1049.00
22.4868 1125.00
22.552 1130.00
22.6172 1070.00
22.6824 1149.00
22.7476 1112.00
22.8128 1094.00
22.878 1081.00
22.9432 1050.00
23.0084 1068.00
23.0736 1116.00
23.1388 1090.00
23.204 1028.00
23.2692 1061.00
23.3344 1047.00
23.3996 1031.00
23.4647 997.00
23.5299 1088.00
23.5951 1030.00
23.6603 1062.00
23.7255 997.00
23.7907 1039.00
23.8559 1011.00
23.9211 987.00
23.9863 969.00
24.0515 1013.00
24.1167 980.00
24.1819 1021.00
24.2471 1020.00
24.3123 934.00
24.3775 954.00
24.4427 953.00
24.5079 974.00
24.5731 980.00
24.6383 967.00
24.7035 976.00
24.7687 1023.00
24.8339 935.00
24.8991 961.00
24.9643 1018.00
25.0295 944.00
25.0947 961.00
25.1599 971.00
25.2251 969.00
25.2903 907.00
25.3555 874.00
25.4207 925.00
25.4859 971.00
25.5511 906.00
25.6163 912.00
25.6815 957.00
25.7467 914.00
25.8119 958.00
25.8771 922.00
25.9423 878.00
26.0075 912.00
26.0727 957.00
26.1379 897.00
26.2031 861.00
26.2683 910.00
26.3335 883.00
26.3987 891.00
26.4639 848.00
26.5291 876.00
26.5943 918.00
26.6595 877.00
26.7247 878.00
26.7899 848.00
26.8551 886.00
26.9203 868.00
26.9855 851.00
27.0507 912.00
27.1159 883.00
27.1811 863.00
27.2463 851.00
27.3115 938.00
27.3767 965.00
27.4419 924.00
27.5071 899.00
27.5723 975.00
27.6375 1028.00
27.7027 895.00
27.7679 871.00
27.8331 871.00
27.8983 909.00
27.9635 850.00
28.0287 847.00
28.0939 806.00
28.1591 856.00
28.2243 852.00
28.2894 856.00
28.3546 829.00
28.4198 830.00
28.485 818.00
28.5502 810.00
28.6154 821.00
28.6806 872.00
28.7458 794.00
28.811 854.00
28.8762 859.00
28.9414 795.00
29.0066 786.00
29.0718 831.00
29.137 750.00
29.2022 835.00
29.2674 811.00
29.3326 842.00
29.3978 846.00
29.463 884.00
29.5282 802.00
29.5934 806.00
29.6586 843.00
29.7238 896.00
29.789 896.00
29.8542 942.00
29.9194 888.00
29.9846 952.00
30.0498 987.00
30.115 1020.00
30.1802 1135.00
30.2454 1190.00
30.3106 1394.00
30.3758 1715.00
30.441 2467.00
30.5062 3675.00
30.5714 5484.00
30.6366 7368.00
30.7018 9058.00
30.767 11375.00
30.8322 14529.00
30.8974 13333.00
30.9626 7350.00
31.0278 2998.00
31.093 1848.00
31.1582 1471.00
31.2234 1229.00
31.2886 1077.00
31.3538 969.00
31.419 927.00
31.4842 987.00
31.5494 942.00
31.6146 1092.00
31.6798 1355.00
31.745 1411.00
31.8102 1648.00
31.8754 1902.00
31.9406 2239.00
32.0058 2270.00
32.071 1636.00
32.1362 1071.00
32.2014 887.00
32.2666 772.00
32.3318 747.00
32.397 817.00
32.4622 739.00
32.5274 749.00
32.5926 700.00
32.6578 753.00
32.723 735.00
32.7882 737.00
32.8534 738.00
32.9186 712.00
32.9838 781.00
33.0489 816.00
33.1141 763.00
33.1793 809.00
33.2445 837.00
33.3097 910.00
33.3749 895.00
33.4401 866.00
33.5053 767.00
33.5705 750.00
33.6357 722.00
33.7009 732.00
33.7661 746.00
33.8313 694.00
33.8965 707.00
33.9617 674.00
34.0269 692.00
34.0921 683.00
34.1573 695.00
34.2225 678.00
34.2877 703.00
34.3529 696.00
34.4181 685.00
34.4833 634.00
34.5485 661.00
34.6137 711.00
34.6789 717.00
34.7441 710.00
34.8093 745.00
34.8745 737.00
34.9397 749.00
35.0049 756.00
35.0701 728.00
35.1353 792.00
35.2005 839.00
35.2657 980.00
35.3309 1160.00
35.3961 1532.00
35.4613 2119.00
35.5265 2672.00
35.5917 3268.00
35.6569 4225.00
35.7221 5207.00
35.7873 4045.00
35.8525 2520.00
35.9177 1334.00
35.9829 981.00
36.0481 789.00
36.1133 859.00
36.1785 773.00
36.2437 664.00
36.3089 660.00
36.3741 655.00
36.4393 679.00
36.5045 642.00
36.5697 634.00
36.6349 667.00
36.7001 585.00
36.7653 587.00
36.8305 624.00
36.8957 576.00
36.9609 595.00
37.0261 608.00
37.0913 624.00
37.1565 586.00
37.2217 606.00
37.2869 594.00
37.3521 618.00
37.4173 575.00
37.4825 635.00
37.5477 712.00
37.6129 744.00
37.6781 811.00
37.7433 925.00
37.8085 1080.00
37.8736 1189.00
37.9388 1373.00
38.004 1293.00
38.0692 971.00
38.1344 705.00
38.1996 637.00
38.2648 575.00
38.33 596.00
38.3952 549.00
38.4604 556.00
38.5256 575.00
38.5908 585.00
38.656 587.00
38.7212 552.00
38.7864 521.00
38.8516 571.00
38.9168 576.00
38.982 552.00
39.0472 594.00
39.1124 548.00
39.1776 551.00
39.2428 576.00
39.308 597.00
39.3732 564.00
39.4384 538.00
39.5036 571.00
39.5688 587.00
39.634 591.00
39.6992 555.00
39.7644 597.00
39.8296 556.00
39.8948 644.00
39.96 750.00
40.0252 737.00
40.0904 763.00
40.1556 662.00
40.2208 590.00
40.286 542.00
40.3512 552.00
40.4164 522.00
40.4816 506.00
40.5468 581.00
40.612 510.00
40.6772 500.00
40.7424 504.00
40.8076 549.00
40.8728 519.00
40.938 522.00
41.0032 553.00
41.0684 534.00
41.1336 467.00
41.1988 524.00
41.264 470.00
41.3292 536.00
41.3944 562.00
41.4596 527.00
41.5248 566.00
41.59 524.00
41.6552 584.00
41.7204 571.00
41.7856 652.00
41.8508 740.00
41.916 951.00
41.9812 1025.00
42.0464 1168.00
42.1116 1292.00
42.1768 1035.00
42.242 822.00
42.3072 645.00
42.3724 576.00
42.4376 539.00
42.5028 501.00
42.568 471.00
42.6332 524.00
42.6983 521.00
42.7635 498.00
42.8287 537.00
42.8939 525.00
42.9591 490.00
43.0243 491.00
43.0895 479.00
43.1547 489.00
43.2199 480.00
43.2851 512.00
43.3503 515.00
43.4155 489.00
43.4807 513.00
43.5459 508.00
43.6111 489.00
43.6763 486.00
43.7415 512.00
43.8067 516.00
43.8719 556.00
43.9371 577.00
44.0023 614.00
44.0675 700.00
44.1327 548.00
44.1979 565.00
44.2631 468.00
44.3283 480.00
44.3935 424.00
44.4587 538.00
44.5239 490.00
44.5891 484.00
44.6543 482.00
44.7195 476.00
44.7847 490.00
44.8499 516.00
44.9151 494.00
44.9803 522.00
45.0455 502.00
45.1107 493.00
45.1759 524.00
45.2411 519.00
45.3063 591.00
45.3715 680.00
45.4367 817.00
45.5019 971.00
45.5671 1150.00
45.6323 1525.00
45.6975 1973.00
45.7627 1958.00
45.8279 1948.00
45.8931 1997.00
45.9583 1966.00
46.0235 1430.00
46.0887 1190.00
46.1539 758.00
46.2191 614.00
46.2843 562.00
46.3495 546.00
46.4147 498.00
46.4799 495.00
46.5451 520.00
46.6103 464.00
46.6755 490.00
46.7407 491.00
46.8059 476.00
46.8711 475.00
46.9363 477.00
47.0015 439.00
47.0667 494.00
47.1319 458.00
47.1971 505.00
47.2623 465.00
47.3275 437.00
47.3927 431.00
47.4579 454.00
47.523 476.00
47.5882 445.00
47.6534 435.00
47.7186 474.00
47.7838 458.00
47.849 458.00
47.9142 437.00
47.9794 445.00
48.0446 438.00
48.1098 445.00
48.175 491.00
48.2402 481.00
48.3054 440.00
48.3706 495.00
48.4358 438.00
48.501 460.00
48.5662 466.00
48.6314 449.00
48.6966 481.00
48.7618 452.00
48.827 479.00
48.8922 462.00
48.9574 414.00
49.0226 462.00
49.0878 507.00
49.153 516.00
49.2182 566.00
49.2834 536.00
49.3486 645.00
49.4138 702.00
49.479 849.00
49.5442 945.00
49.6094 821.00
49.6746 669.00
49.7398 567.00
49.805 516.00
49.8702 548.00
49.9354 468.00
50.0006 501.00
50.0658 435.00
50.131 513.00
50.1962 503.00
50.2614 488.00
50.3266 525.00
50.3918 514.00
50.457 503.00
50.5222 551.00
50.5874 559.00
50.6526 588.00
50.7178 701.00
50.783 793.00
50.8482 949.00
50.9134 1172.00
50.9786 1801.00
51.0438 2675.00
51.109 3397.00
51.1742 4735.00
51.2394 6738.00
51.3046 6048.00
51.3698 4156.00
51.435 3121.00
51.5002 1481.00
51.5654 966.00
51.6306 824.00
51.6958 688.00
51.761 613.00
51.8262 584.00
51.8914 555.00
51.9566 475.00
52.0218 518.00
52.087 486.00
52.1522 494.00
52.2174 453.00
52.2826 475.00
52.3477 463.00
52.4129 401.00
52.4781 449.00
52.5433 436.00
52.6085 504.00
52.6737 490.00
52.7389 609.00
52.8041 611.00
52.8693 713.00
52.9345 835.00
52.9997 743.00
53.0649 662.00
53.1301 589.00
53.1953 465.00
53.2605 443.00
53.3257 487.00
53.3909 462.00
53.4561 434.00
53.5213 424.00
53.5865 456.00
53.6517 427.00
53.7169 408.00
53.7821 422.00
53.8473 437.00
53.9125 444.00
53.9777 455.00
54.0429 420.00
54.1081 440.00
54.1733 403.00
54.2385 468.00
54.3037 448.00
54.3689 449.00
54.4341 499.00
54.4993 491.00
54.5645 455.00
54.6297 523.00
54.6949 482.00
54.7601 456.00
54.8253 427.00
54.8905 400.00
54.9557 386.00
55.0209 403.00
55.0861 460.00
55.1513 411.00
55.2165 370.00
55.2817 408.00
55.3469 464.00
55.4121 380.00
55.4773 409.00
55.5425 434.00
55.6077 428.00
55.6729 443.00
55.7381 430.00
55.8033 512.00
55.8685 519.00
55.9337 620.00
55.9989 714.00
56.0641 858.00
56.1293 1027.00
56.1945 1207.00
56.2597 1148.00
56.3249 888.00
56.3901 857.00
56.4553 643.00
56.5205 600.00
56.5857 651.00
56.6509 627.00
56.7161 680.00
56.7813 655.00
56.8465 567.00
56.9117 519.00
56.9769 437.00
57.042 441.00
57.1073 452.00
57.1724 436.00
57.2376 430.00
57.3028 424.00
57.368 435.00
57.4332 443.00
57.4984 435.00
57.5636 449.00
57.6288 491.00
57.694 542.00
57.7592 566.00
57.8244 663.00
57.8896 550.00
57.9548 518.00
58.02 495.00
58.0852 466.00
58.1504 425.00
58.2156 406.00
58.2808 364.00
58.346 439.00
58.4112 398.00
58.4764 389.00
58.5416 451.00
58.6068 382.00
58.672 422.00
58.7372 397.00
58.8024 457.00
58.8676 450.00
58.9328 486.00
58.998 483.00
59.0632 567.00
59.1284 607.00
59.1936 771.00
59.2588 895.00
59.324 1054.00
59.3892 1167.00
59.4544 862.00
59.5196 794.00
59.5848 631.00
59.65 483.00
59.7152 492.00
59.7804 423.00
59.8456 498.00
59.9108 414.00
59.976 426.00
60.0412 463.00
60.1064 489.00
60.1716 472.00
60.2368 498.00
60.302 565.00
60.3672 591.00
60.4324 683.00
60.4976 806.00
60.5628 1107.00
60.628 1558.00
60.6932 2201.00
60.7584 2780.00
60.8236 3981.00
60.8888 5142.00
60.954 3790.00
61.0192 2877.00
61.0844 2622.00
61.1496 1362.00
61.2148 872.00
61.28 709.00
61.3452 566.00
61.4104 588.00
61.4756 515.00
61.5408 467.00
61.606 495.00
61.6712 465.00
61.7364 481.00
61.8016 454.00
61.8667 434.00
61.932 466.00
61.9971 515.00
62.0623 585.00
62.1275 629.00
62.1927 752.00
62.2579 907.00
62.3231 1077.00
62.3883 1356.00
62.4535 1209.00
62.5187 937.00
62.5839 863.00
62.6491 647.00
62.7143 506.00
62.7795 484.00
62.8447 458.00
62.9099 440.00
62.9751 453.00
63.0403 420.00
63.1055 399.00
63.1707 426.00
63.2359 426.00
63.3011 426.00
63.3663 410.00
63.4315 426.00
63.4967 507.00
63.5619 487.00
63.6271 610.00
63.6923 705.00
63.7575 814.00
63.8227 1105.00
63.8879 1280.00
63.9531 1069.00
64.0183 856.00
64.0835 868.00
64.1487 598.00
64.2139 473.00
64.2791 471.00
64.3443 388.00
64.4095 395.00
64.4747 468.00
64.5399 424.00
64.6051 412.00
64.6703 399.00
64.7355 392.00
64.8007 424.00
64.8659 367.00
64.9311 377.00
64.9963 430.00
65.0615 412.00
65.1267 497.00
65.1919 481.00
65.2571 574.00
65.3223 700.00
65.3875 715.00
65.4527 561.00
65.5179 562.00
65.5831 488.00
65.6483 444.00
65.7135 430.00
65.7787 372.00
65.8439 360.00
65.9091 380.00
65.9743 387.00
66.0395 377.00
66.1047 408.00
66.1699 409.00
66.2351 408.00
66.3003 409.00
66.3655 522.00
66.4307 497.00
66.4959 490.00
66.561 532.00
66.6263 496.00
66.6915 552.00
66.7566 608.00
66.8218 615.00
66.887 523.00
66.9522 510.00
67.0174 462.00
67.0826 429.00
67.1478 441.00
67.213 388.00
67.2782 359.00
67.3434 408.00
67.4086 395.00
67.4738 344.00
67.539 334.00
67.6042 373.00
67.6694 405.00
67.7346 399.00
67.7998 395.00
67.865 392.00
67.9302 438.00
67.9954 490.00
68.0606 566.00
68.1258 662.00
68.191 803.00
68.2562 804.00
68.3214 737.00
68.3866 652.00
68.4518 564.00
68.517 506.00
68.5822 401.00
68.6474 401.00
68.7126 389.00
68.7778 362.00
68.843 359.00
68.9082 348.00
68.9734 385.00
69.0386 378.00
69.1038 399.00
69.169 353.00
69.2342 406.00
69.2994 392.00
69.3646 402.00
69.4298 413.00
69.495 456.00
69.5602 534.00
69.6254 585.00
69.6906 709.00
69.7558 542.00
69.821 486.00
69.8862 512.00
69.9514 423.00
70.0166 409.00
70.0818 424.00
70.147 363.00
70.2122 327.00
70.2774 375.00
70.3426 348.00
70.4078 378.00
70.473 359.00
70.5382 342.00
70.6034 314.00
70.6686 409.00
70.7338 359.00
70.799 364.00
70.8642 329.00
70.9294 326.00
70.9946 332.00
71.0598 327.00
71.125 318.00
71.1902 318.00
71.2554 357.00
71.3205 323.00
71.3858 325.00
71.451 352.00
71.5162 357.00
71.5813 352.00
71.6465 341.00
71.7117 349.00
71.7769 334.00
71.8421 349.00
71.9073 360.00
71.9725 331.00
72.0377 388.00
72.1029 323.00
72.1681 357.00
72.2333 322.00
72.2985 344.00
72.3637 358.00
72.4289 340.00
72.4941 342.00
72.5593 309.00
72.6245 312.00
72.6897 314.00
72.7549 365.00
72.8201 362.00
72.8853 339.00
72.9505 391.00
73.0157 364.00
73.0809 388.00
73.1461 372.00
73.2113 326.00
73.2765 376.00
73.3417 337.00
73.4069 379.00
73.4721 395.00
73.5373 415.00
73.6025 427.00
73.6677 466.00
73.7329 531.00
73.7981 611.00
73.8633 756.00
73.9285 618.00
73.9937 561.00
74.0589 561.00
74.1241 517.00
74.1893 395.00
74.2545 380.00
74.3197 386.00
74.3849 363.00
74.4501 365.00
74.5153 415.00
74.5805 365.00
74.6457 372.00
74.7109 414.00
74.7761 367.00
74.8413 415.00
74.9065 428.00
74.9717 452.00
75.0369 578.00
75.1021 659.00
75.1673 813.00
75.2325 1055.00
75.2977 896.00
75.3629 849.00
75.4281 918.00
75.4933 850.00
75.5585 724.00
75.6237 610.00
75.6889 533.00
75.7541 489.00
75.8193 418.00
75.8845 410.00
75.9497 415.00
76.0149 366.00
76.0801 383.00
76.1452 412.00
76.2104 382.00
76.2756 439.00
76.3409 469.00
76.406 529.00
76.4712 692.00
76.5364 777.00
76.6016 900.00
76.6668 855.00
76.732 658.00
76.7972 703.00
76.8624 646.00
76.9276 475.00
76.9928 425.00
77.058 358.00
77.1232 371.00
77.1884 375.00
77.2536 402.00
77.3188 395.00
77.384 390.00
77.4492 350.00
77.5144 375.00
77.5796 397.00
77.6448 382.00
77.71 444.00
77.7752 452.00
77.8404 530.00
77.9056 632.00
77.9708 683.00
78.036 661.00
78.1012 531.00
78.1664 476.00
78.2316 485.00
78.2968 452.00
78.362 347.00
78.4272 356.00
78.4924 352.00
78.5576 368.00
78.6228 351.00
78.688 324.00
78.7532 352.00
78.8184 357.00
78.8836 370.00
78.9488 365.00
79.014 405.00
79.0792 438.00
79.1444 481.00
79.2096 574.00
79.2748 633.00
79.34 681.00
79.4052 585.00
79.4704 520.00
79.5356 554.00
79.6008 487.00
79.666 399.00
79.7312 383.00
79.7964 385.00
79.8616 383.00
79.9268 377.00
79.992 342.00
80.0572 344.00
80.1224 342.00
80.1876 321.00
80.2528 336.00
80.318 343.00
80.3832 384.00
80.4484 450.00
80.5136 456.00
80.5788 513.00
80.644 529.00
80.7092 506.00
80.7744 490.00
80.8396 485.00
80.9048 433.00
80.9699 424.00
81.0351 380.00
81.1003 364.00
81.1655 366.00
81.2307 359.00
81.2959 372.00
81.3611 323.00
81.4263 390.00
81.4915 346.00
81.5567 401.00
81.6219 379.00
81.6871 419.00
81.7523 478.00
81.8175 489.00
81.8827 618.00
81.9479 751.00
82.0131 807.00
82.0783 724.00
82.1435 607.00
82.2087 606.00
82.2739 655.00
82.3391 495.00
82.4043 389.00
82.4695 432.00
82.5347 394.00
82.5999 378.00
82.6651 350.00
82.7303 391.00
82.7955 399.00
82.8607 406.00
82.9259 456.00
82.9911 463.00
83.0563 507.00
83.1215 703.00
83.1867 878.00
83.2519 1121.00
83.3171 1307.00
83.3823 1404.00
83.4475 1035.00
83.5127 821.00
83.5779 996.00
83.6431 863.00
83.7083 595.00
83.7735 537.00
83.8387 456.00
83.9039 443.00
83.9691 489.00
84.0343 457.00
84.0995 515.00
84.1647 488.00
84.2299 500.00
84.2951 459.00
84.3603 483.00
84.4255 396.00
84.4907 415.00
84.5559 431.00
84.6211 436.00
84.6863 416.00
84.7515 327.00
84.8167 358.00
84.8819 335.00
84.9471 370.00
85.0123 345.00
85.0775 335.00
85.1427 354.00
85.2079 384.00
85.2731 367.00
85.3383 374.00
85.4035 362.00
85.4687 341.00
85.5339 368.00
85.5991 399.00
85.6643 411.00
85.7295 518.00
85.7946 567.00
85.8598 744.00
85.925 941.00
85.9903 1140.00
86.0554 1077.00
86.1206 855.00
86.1858 761.00
86.251 743.00
86.3162 694.00
86.3814 501.00
86.4466 407.00
86.5118 403.00
86.577 380.00
86.6422 356.00
86.7074 338.00
86.7726 343.00
86.8378 331.00
86.903 359.00
86.9682 338.00
87.0334 364.00
87.0986 396.00
87.1638 396.00
87.229 443.00
87.2942 456.00
87.3594 465.00
87.4246 458.00
87.4898 368.00
87.555 420.00
87.6202 429.00
87.6854 340.00
87.7506 320.00
87.8158 351.00
87.881 331.00
87.9462 355.00
88.0114 344.00
88.0766 363.00
88.1418 331.00
88.207 342.00
88.2722 318.00
88.3374 383.00
88.4026 370.00
88.4678 364.00
88.533 406.00
88.5982 479.00
88.6634 523.00
88.7286 456.00
88.7938 400.00
88.859 419.00
88.9242 409.00
88.9894 427.00
89.0546 374.00
89.1198 363.00
89.185 344.00
89.2502 312.00
89.3154 346.00
89.3806 317.00
89.4458 337.00
89.511 312.00
89.5762 321.00
89.6414 384.00
89.7066 371.00
89.7718 434.00
89.837 505.00
89.9022 604.00
89.9674 682.00
90.0326 661.00
90.0978 545.00
90.163 493.00
90.2282 528.00
90.2934 562.00
90.3586 474.00
90.4238 368.00
90.489 387.00
90.5542 393.00
90.6193 329.00
90.6845 322.00
90.7497 301.00
90.8149 324.00
90.8801 372.00
90.9453 344.00
91.0105 353.00
91.0757 348.00
91.1409 345.00
91.2061 370.00
91.2713 367.00
91.3365 375.00
91.4017 357.00
91.4669 315.00
91.5321 374.00
91.5973 322.00
91.6625 315.00
91.7277 298.00
91.7929 349.00
91.8581 355.00
91.9233 304.00
91.9885 320.00
92.0537 351.00
92.1189 347.00
92.1841 359.00
92.2493 391.00
92.3145 377.00
92.3797 372.00
92.4449 460.00
92.5101 546.00
92.5753 649.00
92.6405 673.00
92.7057 628.00
92.7709 529.00
92.8361 505.00
92.9013 517.00
92.9665 529.00
93.0317 433.00
93.0969 399.00
93.1621 396.00
93.2273 356.00
93.2925 345.00
93.3577 326.00
93.4229 341.00
93.4881 292.00
93.5533 305.00
93.6185 310.00
93.6837 323.00
93.7489 308.00
93.8141 287.00
93.8793 339.00
93.9445 308.00
94.0097 308.00
94.0749 307.00
94.1401 349.00
94.2053 310.00
94.2705 320.00
94.3357 335.00
94.4009 338.00
94.4661 336.00
94.5313 340.00
94.5965 317.00
94.6617 358.00
94.7269 348.00
94.7921 309.00
94.8573 343.00
94.9225 349.00
94.9877 398.00
95.0529 435.00
95.1181 456.00
95.1833 561.00
95.2485 652.00
95.3137 731.00
95.3789 568.00
95.444 525.00
95.5092 516.00
95.5744 525.00
95.6396 514.00
95.7048 439.00
95.77 421.00
95.8352 344.00
95.9004 379.00
95.9656 428.00
96.0308 379.00
96.096 329.00
96.1612 384.00
96.2264 386.00
96.2916 429.00
96.3568 476.00
96.422 547.00
96.4872 706.00
96.5524 873.00
96.6176 997.00
96.6828 895.00
96.748 727.00
96.8132 632.00
96.8784 700.00
96.9436 724.00
97.0088 585.00
97.074 489.00
97.1392 437.00
97.2044 407.00
97.2696 414.00
97.3348 381.00
97.4 398.00
97.4652 364.00
97.5304 398.00
97.5956 368.00
97.6608 424.00
97.726 434.00
97.7912 518.00
97.8564 578.00
97.9216 683.00
97.9868 670.00
98.052 566.00
98.1172 500.00
98.1824 526.00
98.2476 557.00
98.3128 523.00
98.378 424.00
98.4432 421.00
98.5084 380.00
98.5736 387.00
98.6388 343.00
98.704 345.00
98.7692 372.00
98.8344 344.00
98.8996 376.00
98.9648 367.00
99.03 410.00
99.0952 420.00
99.1604 417.00
99.2256 539.00
99.2908 594.00
99.356 544.00
99.4212 439.00
99.4864 458.00
99.5516 458.00
99.6168 518.00
99.682 454.00
99.7472 396.00
99.8124 347.00
99.8776 332.00
99.9428 352.00
100.008 308.00
100.073 301.00
100.095 348.00