File: data/xrd_creation/results/Na_192.xy
9.903433 2850.00
9.968632 2814.00
10.0338 2829.00
10.099 2789.00
10.1642 2842.00
10.2294 2660.00
10.2946 2783.00
10.3598 2703.00
10.425 2662.00
10.4902 2680.00
10.5554 2763.00
10.6206 2639.00
10.6858 2672.00
10.751 2643.00
10.8162 2662.00
10.8814 2476.00
10.9466 2689.00
11.0118 2600.00
11.077 2603.00
11.1422 2584.00
11.2074 2744.00
11.2726 2887.00
11.3378 2993.00
11.403 3420.00
11.4682 3752.00
11.5334 4426.00
11.5986 5400.00
11.6638 7705.00
11.729 10823.00
11.7942 11064.00
11.8594 7791.00
11.9246 6266.00
11.9898 3461.00
12.055 2896.00
12.1202 2859.00
12.1854 3110.00
12.2506 2654.00
12.3158 2377.00
12.381 2377.00
12.4462 2299.00
12.5114 2337.00
12.5766 2340.00
12.6418 2372.00
12.707 2327.00
12.7722 2312.00
12.8374 2224.00
12.9026 2273.00
12.9678 2277.00
13.033 2229.00
13.0982 2195.00
13.1634 2089.00
13.2286 2219.00
13.2938 2196.00
13.359 2207.00
13.4242 2068.00
13.4894 2251.00
13.5546 2168.00
13.6198 2095.00
13.685 2096.00
13.7502 2018.00
13.8154 2033.00
13.8805 2166.00
13.9457 2106.00
14.0109 2066.00
14.0761 2082.00
14.1413 1986.00
14.2065 2134.00
14.2717 2094.00
14.3369 2028.00
14.4021 2058.00
14.4673 2069.00
14.5325 1961.00
14.5977 2016.00
14.6629 2093.00
14.7281 2133.00
14.7933 2135.00
14.8585 2353.00
14.9237 2436.00
14.9889 2734.00
15.0541 2370.00
15.1193 2078.00
15.1845 2096.00
15.2497 1970.00
15.3149 2004.00
15.3801 1920.00
15.4453 2039.00
15.5105 2095.00
15.5757 2049.00
15.6409 2067.00
15.7061 1942.00
15.7713 2017.00
15.8365 1950.00
15.9017 2010.00
15.9669 2006.00
16.0321 1959.00
16.0973 2063.00
16.1625 2039.00
16.2277 2166.00
16.2929 2220.00
16.3581 2590.00
16.4233 3152.00
16.4885 4055.00
16.5537 5666.00
16.6189 6617.00
16.6841 3798.00
16.7493 2382.00
16.8145 2123.00
16.8797 2035.00
16.9449 1863.00
17.0101 2005.00
17.0753 1916.00
17.1405 1864.00
17.2057 1963.00
17.2709 2001.00
17.3361 2010.00
17.4013 1903.00
17.4665 1915.00
17.5317 1792.00
17.5969 1831.00
17.6621 1899.00
17.7273 1896.00
17.7925 2006.00
17.8577 2030.00
17.9229 2245.00
17.9881 2571.00
18.0533 3093.00
18.1185 3974.00
18.1837 4068.00
18.2489 3487.00
18.3141 2464.00
18.3793 2012.00
18.4445 1890.00
18.5097 1887.00
18.5749 1876.00
18.6401 1964.00
18.7052 1784.00
18.7704 1732.00
18.8356 1768.00
18.9008 1727.00
18.966 1732.00
19.0312 1703.00
19.0964 1734.00
19.1616 1678.00
19.2268 1713.00
19.292 1575.00
19.3572 1754.00
19.4224 1675.00
19.4876 1623.00
19.5528 1668.00
19.618 1755.00
19.6832 1811.00
19.7484 1728.00
19.8136 1596.00
19.8788 1707.00
19.944 1748.00
20.0092 1746.00
20.0744 1875.00
20.1396 1787.00
20.2048 1751.00
20.27 1586.00
20.3352 1583.00
20.4004 1574.00
20.4656 1586.00
20.5308 1643.00
20.596 1648.00
20.6612 1568.00
20.7264 1671.00
20.7916 1746.00
20.8568 1693.00
20.922 1913.00
20.9872 2052.00
21.0524 2058.00
21.1176 1879.00
21.1828 1858.00
21.248 1685.00
21.3132 1683.00
21.3784 1606.00
21.4436 1550.00
21.5088 1494.00
21.574 1544.00
21.6392 1603.00
21.7044 1562.00
21.7696 1549.00
21.8348 1543.00
21.9 1469.00
21.9652 1519.00
22.0304 1462.00
22.0956 1560.00
22.1608 1445.00
22.226 1521.00
22.2912 1486.00
22.3564 1507.00
22.4216 1465.00
22.4868 1495.00
22.552 1484.00
22.6172 1554.00
22.6824 1494.00
22.7476 1492.00
22.8128 1437.00
22.878 1519.00
22.9432 1589.00
23.0084 1659.00
23.0736 1611.00
23.1388 1943.00
23.204 2005.00
23.2692 1965.00
23.3344 1844.00
23.3996 1566.00
23.4647 1650.00
23.5299 1622.00
23.5951 1811.00
23.6603 1617.00
23.7255 1558.00
23.7907 1528.00
23.8559 1524.00
23.9211 1529.00
23.9863 1557.00
24.0515 1580.00
24.1167 1716.00
24.1819 1723.00
24.2471 1877.00
24.3123 1869.00
24.3775 2060.00
24.4427 2334.00
24.5079 3037.00
24.5731 3066.00
24.6383 2824.00
24.7035 3233.00
24.7687 3470.00
24.8339 2608.00
24.8991 1909.00
24.9643 1653.00
25.0295 1636.00
25.0947 1731.00
25.1599 1626.00
25.2251 1556.00
25.2903 1516.00
25.3555 1552.00
25.4207 1545.00
25.4859 1560.00
25.5511 1673.00
25.6163 1719.00
25.6815 1707.00
25.7467 1689.00
25.8119 1725.00
25.8771 1923.00
25.9423 2564.00
26.0075 3857.00
26.0727 6073.00
26.1379 6646.00
26.2031 7023.00
26.2683 8592.00
26.3335 6504.00
26.3987 3295.00
26.4639 2023.00
26.5291 1768.00
26.5943 1607.00
26.6595 1774.00
26.7247 1812.00
26.7899 2410.00
26.8551 3240.00
26.9203 3934.00
26.9855 3135.00
27.0507 2338.00
27.1159 1822.00
27.1811 1689.00
27.2463 1694.00
27.3115 1813.00
27.3767 2015.00
27.4419 2045.00
27.5071 2017.00
27.5723 2187.00
27.6375 3080.00
27.7027 4810.00
27.7679 7186.00
27.8331 8100.00
27.8983 6325.00
27.9635 4679.00
28.0287 4161.00
28.0939 3242.00
28.1591 2212.00
28.2243 1705.00
28.2894 1624.00
28.3546 1609.00
28.4198 1774.00
28.485 1902.00
28.5502 1873.00
28.6154 1599.00
28.6806 1522.00
28.7458 1411.00
28.811 1496.00
28.8762 1471.00
28.9414 1432.00
29.0066 1416.00
29.0718 1372.00
29.137 1309.00
29.2022 1342.00
29.2674 1276.00
29.3326 1356.00
29.3978 1247.00
29.463 1367.00
29.5282 1387.00
29.5934 1405.00
29.6586 1327.00
29.7238 1236.00
29.789 1344.00
29.8542 1353.00
29.9194 1422.00
29.9846 1569.00
30.0498 1948.00
30.115 2272.00
30.1802 2147.00
30.2454 1996.00
30.3106 2134.00
30.3758 2341.00
30.441 1965.00
30.5062 1645.00
30.5714 1395.00
30.6366 1394.00
30.7018 1407.00
30.767 1433.00
30.8322 1419.00
30.8974 1385.00
30.9626 1377.00
31.0278 1374.00
31.093 1453.00
31.1582 1478.00
31.2234 1507.00
31.2886 1575.00
31.3538 1799.00
31.419 2183.00
31.4842 2762.00
31.5494 2718.00
31.6146 2643.00
31.6798 2729.00
31.745 3180.00
31.8102 3066.00
31.8754 2609.00
31.9406 2233.00
32.0058 2297.00
32.071 2254.00
32.1362 1876.00
32.2014 1657.00
32.2666 1413.00
32.3318 1341.00
32.397 1387.00
32.4622 1345.00
32.5274 1484.00
32.5926 1373.00
32.6578 1415.00
32.723 1386.00
32.7882 1369.00
32.8534 1392.00
32.9186 1505.00
32.9838 1914.00
33.0489 3100.00
33.1141 5692.00
33.1793 9964.00
33.2445 9497.00
33.3097 5971.00
33.3749 2860.00
33.4401 1889.00
33.5053 1561.00
33.5705 1460.00
33.6357 1400.00
33.7009 1445.00
33.7661 1365.00
33.8313 1506.00
33.8965 1609.00
33.9617 1903.00
34.0269 2350.00
34.0921 3270.00
34.1573 4346.00
34.2225 4838.00
34.2877 5287.00
34.3529 7256.00
34.4181 11797.00
34.4833 12158.00
34.5485 8574.00
34.6137 4802.00
34.6789 3018.00
34.7441 2851.00
34.8093 3525.00
34.8745 4229.00
34.9397 3626.00
35.0049 2699.00
35.0701 1798.00
35.1353 1515.00
35.2005 1341.00
35.2657 1280.00
35.3309 1288.00
35.3961 1236.00
35.4613 1194.00
35.5265 1279.00
35.5917 1209.00
35.6569 1142.00
35.7221 1160.00
35.7873 1200.00
35.8525 1118.00
35.9177 1156.00
35.9829 1184.00
36.0481 1192.00
36.1133 1226.00
36.1785 1244.00
36.2437 1200.00
36.3089 1323.00
36.3741 1338.00
36.4393 1265.00
36.5045 1230.00
36.5697 1246.00
36.6349 1254.00
36.7001 1176.00
36.7653 1144.00
36.8305 1206.00
36.8957 1206.00
36.9609 1228.00
37.0261 1312.00
37.0913 1246.00
37.1565 1261.00
37.2217 1219.00
37.2869 1269.00
37.3521 1353.00
37.4173 1429.00
37.4825 1256.00
37.5477 1220.00
37.6129 1133.00
37.6781 1196.00
37.7433 1338.00
37.8085 1318.00
37.8736 1395.00
37.9388 1359.00
38.004 1280.00
38.0692 1233.00
38.1344 1278.00
38.1996 1445.00
38.2648 1528.00
38.33 1432.00
38.3952 1430.00
38.4604 1169.00
38.5256 1115.00
38.5908 1086.00
38.656 1102.00
38.7212 1049.00
38.7864 1040.00
38.8516 1062.00
38.9168 1125.00
38.982 1137.00
39.0472 1189.00
39.1124 1203.00
39.1776 1339.00
39.2428 1452.00
39.308 1400.00
39.3732 1332.00
39.4384 1133.00
39.5036 1093.00
39.5688 1036.00
39.634 1105.00
39.6992 1142.00
39.7644 1158.00
39.8296 1150.00
39.8948 1136.00
39.96 1141.00
40.0252 1109.00
40.0904 1148.00
40.1556 1086.00
40.2208 1106.00
40.286 1103.00
40.3512 1135.00
40.4164 1187.00
40.4816 1103.00
40.5468 1101.00
40.612 1156.00
40.6772 976.00
40.7424 1017.00
40.8076 986.00
40.8728 965.00
40.938 1027.00
41.0032 1033.00
41.0684 1095.00
41.1336 1172.00
41.1988 1305.00
41.264 1182.00
41.3292 1098.00
41.3944 1111.00
41.4596 1179.00
41.5248 1137.00
41.59 1250.00
41.6552 1198.00
41.7204 1340.00
41.7856 1492.00
41.8508 1679.00
41.916 1511.00
41.9812 1402.00
42.0464 1390.00
42.1116 1580.00
42.1768 1920.00
42.242 1774.00
42.3072 1580.00
42.3724 1409.00
42.4376 1408.00
42.5028 1598.00
42.568 1615.00
42.6332 1699.00
42.6983 1826.00
42.7635 1572.00
42.8287 1429.00
42.8939 1122.00
42.9591 1058.00
43.0243 1058.00
43.0895 1071.00
43.1547 1051.00
43.2199 1005.00
43.2851 1051.00
43.3503 1059.00
43.4155 1083.00
43.4807 1204.00
43.5459 1355.00
43.6111 1346.00
43.6763 1353.00
43.7415 1124.00
43.8067 1134.00
43.8719 1173.00
43.9371 1244.00
44.0023 1274.00
44.0675 1263.00
44.1327 1166.00
44.1979 1103.00
44.2631 1060.00
44.3283 983.00
44.3935 997.00
44.4587 1003.00
44.5239 919.00
44.5891 1012.00
44.6543 975.00
44.7195 1031.00
44.7847 968.00
44.8499 959.00
44.9151 999.00
44.9803 1016.00
45.0455 1098.00
45.1107 1114.00
45.1759 1253.00
45.2411 1388.00
45.3063 1491.00
45.3715 1400.00
45.4367 1330.00
45.5019 1272.00
45.5671 1115.00
45.6323 1102.00
45.6975 1101.00
45.7627 1038.00
45.8279 1045.00
45.8931 970.00
45.9583 1092.00
46.0235 981.00
46.0887 1046.00
46.1539 1192.00
46.2191 1109.00
46.2843 1128.00
46.3495 1144.00
46.4147 1050.00
46.4799 1026.00
46.5451 1047.00
46.6103 1079.00
46.6755 994.00
46.7407 1087.00
46.8059 1258.00
46.8711 1319.00
46.9363 1263.00
47.0015 1351.00
47.0667 1436.00
47.1319 1675.00
47.1971 1825.00
47.2623 1720.00
47.3275 1706.00
47.3927 1806.00
47.4579 1877.00
47.523 1839.00
47.5882 1719.00
47.6534 1915.00
47.7186 2792.00
47.7838 3615.00
47.849 2938.00
47.9142 2431.00
47.9794 1709.00
48.0446 1293.00
48.1098 1210.00
48.175 1188.00
48.2402 1197.00
48.3054 1154.00
48.3706 1103.00
48.4358 1149.00
48.501 1084.00
48.5662 1176.00
48.6314 1238.00
48.6966 1296.00
48.7618 1279.00
48.827 1201.00
48.8922 1166.00
48.9574 1068.00
49.0226 1085.00
49.0878 1118.00
49.153 1198.00
49.2182 1340.00
49.2834 1616.00
49.3486 1728.00
49.4138 1577.00
49.479 1443.00
49.5442 1328.00
49.6094 1314.00
49.6746 1431.00
49.7398 1712.00
49.805 1921.00
49.8702 1989.00
49.9354 1837.00
50.0006 1881.00
50.0658 1836.00
50.131 1791.00
50.1962 1688.00
50.2614 1744.00
50.3266 1647.00
50.3918 1782.00
50.457 1799.00
50.5222 1895.00
50.5874 1735.00
50.6526 1575.00
50.7178 1298.00
50.783 1095.00
50.8482 1100.00
50.9134 1124.00
50.9786 1064.00
51.0438 1048.00
51.109 1074.00
51.1742 1172.00
51.2394 1303.00
51.3046 1565.00
51.3698 1986.00
51.435 2208.00
51.5002 2240.00
51.5654 2010.00
51.6306 1698.00
51.6958 1416.00
51.761 1248.00
51.8262 1116.00
51.8914 1271.00
51.9566 1487.00
52.0218 1985.00
52.087 2101.00
52.1522 1881.00
52.2174 1797.00
52.2826 1513.00
52.3477 1344.00
52.4129 1310.00
52.4781 1149.00
52.5433 1024.00
52.6085 1085.00
52.6737 1042.00
52.7389 1091.00
52.8041 1168.00
52.8693 1198.00
52.9345 1217.00
52.9997 1226.00
53.0649 1136.00
53.1301 1182.00
53.1953 1212.00
53.2605 1152.00
53.3257 1084.00
53.3909 1090.00
53.4561 1042.00
53.5213 1028.00
53.5865 1075.00
53.6517 1181.00
53.7169 1100.00
53.7821 1080.00
53.8473 1023.00
53.9125 1128.00
53.9777 1181.00
54.0429 1209.00
54.1081 1119.00
54.1733 1191.00
54.2385 1185.00
54.3037 1264.00
54.3689 1200.00
54.4341 1113.00
54.4993 1125.00
54.5645 1115.00
54.6297 1053.00
54.6949 1047.00
54.7601 1043.00
54.8253 962.00
54.8905 997.00
54.9557 1135.00
55.0209 1208.00
55.0861 1130.00
55.1513 1097.00
55.2165 1071.00
55.2817 997.00
55.3469 976.00
55.4121 1099.00
55.4773 1114.00
55.5425 1172.00
55.6077 1312.00
55.6729 1372.00
55.7381 1406.00
55.8033 1304.00
55.8685 1190.00
55.9337 1117.00
55.9989 1003.00
56.0641 963.00
56.1293 932.00
56.1945 1003.00
56.2597 1116.00
56.3249 1216.00
56.3901 1192.00
56.4553 1230.00
56.5205 1225.00
56.5857 1187.00
56.6509 1142.00
56.7161 1121.00
56.7813 1147.00
56.8465 1101.00
56.9117 1339.00
56.9769 1468.00
57.042 1433.00
57.1073 1379.00
57.1724 1327.00
57.2376 1205.00
57.3028 1215.00
57.368 1276.00
57.4332 1300.00
57.4984 1312.00
57.5636 1225.00
57.6288 1164.00
57.694 1103.00
57.7592 1070.00
57.8244 1099.00
57.8896 1031.00
57.9548 1131.00
58.02 1120.00
58.0852 1278.00
58.1504 1480.00
58.2156 1651.00
58.2808 1671.00
58.346 1661.00
58.4112 1616.00
58.4764 1615.00
58.5416 1805.00
58.6068 1822.00
58.672 1688.00
58.7372 1732.00
58.8024 1586.00
58.8676 1470.00
58.9328 1374.00
58.998 1277.00
59.0632 1105.00
59.1284 1099.00
59.1936 1091.00
59.2588 1240.00
59.324 1193.00
59.3892 1344.00
59.4544 1531.00
59.5196 1746.00
59.5848 1762.00
59.65 2075.00
59.7152 2457.00
59.7804 2846.00
59.8456 2567.00
59.9108 2408.00
59.976 2016.00
60.0412 1703.00
60.1064 1479.00
60.1716 1511.00
60.2368 1628.00
60.302 1830.00
60.3672 1860.00
60.4324 1718.00
60.4976 1634.00
60.5628 1420.00
60.628 1267.00
60.6932 1120.00
60.7584 1151.00
60.8236 1201.00
60.8888 1173.00
60.954 1144.00
61.0192 1161.00
61.0844 1065.00
61.1496 1066.00
61.2148 951.00
61.28 950.00
61.3452 990.00
61.4104 930.00
61.4756 993.00
61.5408 999.00
61.606 967.00
61.6712 996.00
61.7364 1036.00
61.8016 1015.00
61.8667 1109.00
61.932 1147.00
61.9971 1329.00
62.0623 1446.00
62.1275 1591.00
62.1927 1653.00
62.2579 1647.00
62.3231 1489.00
62.3883 1288.00
62.4535 1137.00
62.5187 1057.00
62.5839 1140.00
62.6491 1275.00
62.7143 1315.00
62.7795 1335.00
62.8447 1294.00
62.9099 1195.00
62.9751 1175.00
63.0403 1062.00
63.1055 986.00
63.1707 1065.00
63.2359 928.00
63.3011 936.00
63.3663 973.00
63.4315 967.00
63.4967 961.00
63.5619 940.00
63.6271 927.00
63.6923 923.00
63.7575 914.00
63.8227 894.00
63.8879 876.00
63.9531 889.00
64.0183 900.00
64.0835 930.00
64.1487 1041.00
64.2139 986.00
64.2791 1046.00
64.3443 1146.00
64.4095 1128.00
64.4747 1124.00
64.5399 1086.00
64.6051 1080.00
64.6703 1126.00
64.7355 1084.00
64.8007 1052.00
64.8659 1102.00
64.9311 1133.00
64.9963 1170.00
65.0615 1095.00
65.1267 1129.00
65.1919 1092.00
65.2571 971.00
65.3223 995.00
65.3875 939.00
65.4527 934.00
65.5179 940.00
65.5831 947.00
65.6483 981.00
65.7135 1036.00
65.7787 1156.00
65.8439 1100.00
65.9091 1086.00
65.9743 1164.00
66.0395 1165.00
66.1047 1142.00
66.1699 1210.00
66.2351 1321.00
66.3003 1319.00
66.3655 1268.00
66.4307 1189.00
66.4959 1129.00
66.561 1067.00
66.6263 1043.00
66.6915 1009.00
66.7566 936.00
66.8218 895.00
66.887 1028.00
66.9522 958.00
67.0174 1027.00
67.0826 1030.00
67.1478 973.00
67.213 1003.00
67.2782 973.00
67.3434 906.00
67.4086 891.00
67.4738 872.00
67.539 966.00
67.6042 895.00
67.6694 1033.00
67.7346 976.00
67.7998 964.00
67.865 947.00
67.9302 939.00
67.9954 969.00
68.0606 977.00
68.1258 998.00
68.191 970.00
68.2562 918.00
68.3214 936.00
68.3866 940.00
68.4518 959.00
68.517 957.00
68.5822 1017.00
68.6474 981.00
68.7126 913.00
68.7778 882.00
68.843 925.00
68.9082 877.00
68.9734 828.00
69.0386 914.00
69.1038 915.00
69.169 1023.00
69.2342 1025.00
69.2994 1015.00
69.3646 964.00
69.4298 946.00
69.495 926.00
69.5602 894.00
69.6254 854.00
69.6906 860.00
69.7558 791.00
69.821 854.00
69.8862 818.00
69.9514 886.00
70.0166 782.00
70.0818 869.00
70.147 794.00
70.2122 801.00
70.2774 840.00
70.3426 778.00
70.4078 761.00
70.473 797.00
70.5382 800.00
70.6034 747.00
70.6686 733.00
70.7338 760.00
70.799 748.00
70.8642 710.00
70.9294 741.00
70.9946 815.00
71.0598 827.00
71.125 872.00
71.1902 851.00
71.2554 874.00
71.3205 809.00
71.3858 793.00
71.451 832.00
71.5162 913.00
71.5813 891.00
71.6465 855.00
71.7117 840.00
71.7769 854.00
71.8421 779.00
71.9073 857.00
71.9725 973.00
72.0377 1108.00
72.1029 1210.00
72.1681 1268.00
72.2333 1165.00
72.2985 1141.00
72.3637 1042.00
72.4289 909.00
72.4941 929.00
72.5593 839.00
72.6245 763.00
72.6897 775.00
72.7549 708.00
72.8201 761.00
72.8853 797.00
72.9505 742.00
73.0157 892.00
73.0809 894.00
73.1461 907.00
73.2113 974.00
73.2765 1066.00
73.3417 927.00
73.4069 929.00
73.4721 858.00
73.5373 818.00
73.6025 824.00
73.6677 812.00
73.7329 741.00
73.7981 788.00
73.8633 800.00
73.9285 756.00
73.9937 722.00
74.0589 762.00
74.1241 741.00
74.1893 752.00
74.2545 807.00
74.3197 821.00
74.3849 850.00
74.4501 869.00
74.5153 829.00
74.5805 842.00
74.6457 811.00
74.7109 781.00
74.7761 836.00
74.8413 759.00
74.9065 795.00
74.9717 770.00
75.0369 745.00
75.1021 795.00
75.1673 771.00
75.2325 758.00
75.2977 723.00
75.3629 840.00
75.4281 767.00
75.4933 825.00
75.5585 779.00
75.6237 820.00
75.6889 834.00
75.7541 902.00
75.8193 774.00
75.8845 846.00
75.9497 845.00
76.0149 874.00
76.0801 836.00
76.1452 821.00
76.2104 840.00
76.2756 835.00
76.3409 852.00
76.406 734.00
76.4712 832.00
76.5364 805.00
76.6016 798.00
76.6668 792.00
76.732 903.00
76.7972 778.00
76.8624 835.00
76.9276 829.00
76.9928 790.00
77.058 801.00
77.1232 801.00
77.1884 817.00
77.2536 864.00
77.3188 911.00
77.384 968.00
77.4492 933.00
77.5144 881.00
77.5796 934.00
77.6448 868.00
77.71 911.00
77.7752 782.00
77.8404 772.00
77.9056 779.00
77.9708 778.00
78.036 785.00
78.1012 745.00
78.1664 805.00
78.2316 743.00
78.2968 819.00
78.362 795.00
78.4272 854.00
78.4924 805.00
78.5576 794.00
78.6228 789.00
78.688 853.00
78.7532 774.00
78.8184 763.00
78.8836 907.00
78.9488 914.00
79.014 946.00
79.0792 968.00
79.1444 1007.00
79.2096 1059.00
79.2748 1049.00
79.34 1050.00
79.4052 1000.00
79.4704 981.00
79.5356 903.00
79.6008 911.00
79.666 888.00
79.7312 892.00
79.7964 856.00
79.8616 876.00
79.9268 748.00
79.992 785.00
80.0572 777.00
80.1224 785.00
80.1876 920.00
80.2528 878.00
80.318 857.00
80.3832 888.00
80.4484 926.00
80.5136 938.00
80.5788 825.00
80.644 876.00
80.7092 845.00
80.7744 837.00
80.8396 823.00
80.9048 873.00
80.9699 804.00
81.0351 854.00
81.1003 875.00
81.1655 829.00
81.2307 826.00
81.2959 873.00
81.3611 818.00
81.4263 808.00
81.4915 788.00
81.5567 849.00
81.6219 804.00
81.6871 904.00
81.7523 897.00
81.8175 796.00
81.8827 833.00
81.9479 820.00
82.0131 744.00
82.0783 787.00
82.1435 794.00
82.2087 804.00
82.2739 769.00
82.3391 842.00
82.4043 734.00
82.4695 768.00
82.5347 807.00
82.5999 844.00
82.6651 751.00
82.7303 749.00
82.7955 723.00
82.8607 733.00
82.9259 782.00
82.9911 759.00
83.0563 746.00
83.1215 719.00
83.1867 774.00
83.2519 729.00
83.3171 731.00
83.3823 767.00
83.4475 729.00
83.5127 757.00
83.5779 805.00
83.6431 782.00
83.7083 783.00
83.7735 759.00
83.8387 830.00
83.9039 808.00
83.9691 821.00
84.0343 791.00
84.0995 772.00
84.1647 744.00
84.2299 800.00
84.2951 786.00
84.3603 782.00
84.4255 729.00
84.4907 789.00
84.5559 769.00
84.6211 742.00
84.6863 702.00
84.7515 787.00
84.8167 796.00
84.8819 862.00
84.9471 885.00
85.0123 878.00
85.0775 903.00
85.1427 884.00
85.2079 907.00
85.2731 884.00
85.3383 968.00
85.4035 962.00
85.4687 972.00
85.5339 981.00
85.5991 939.00
85.6643 1011.00
85.7295 945.00
85.7946 978.00
85.8598 946.00
85.925 942.00
85.9903 919.00
86.0554 811.00
86.1206 804.00
86.1858 777.00
86.251 803.00
86.3162 822.00
86.3814 798.00
86.4466 819.00
86.5118 838.00
86.577 791.00
86.6422 799.00
86.7074 779.00
86.7726 748.00
86.8378 804.00
86.903 797.00
86.9682 770.00
87.0334 770.00
87.0986 775.00
87.1638 847.00
87.229 839.00
87.2942 763.00
87.3594 774.00
87.4246 836.00
87.4898 814.00
87.555 754.00
87.6202 747.00
87.6854 740.00
87.7506 756.00
87.8158 712.00
87.881 697.00
87.9462 735.00
88.0114 746.00
88.0766 735.00
88.1418 748.00
88.207 777.00
88.2722 769.00
88.3374 759.00
88.4026 747.00
88.4678 786.00
88.533 803.00
88.5982 819.00
88.6634 854.00
88.7286 843.00
88.7938 818.00
88.859 813.00
88.9242 843.00
88.9894 834.00
89.0546 764.00
89.1198 747.00
89.185 802.00
89.2502 752.00
89.3154 745.00
89.3806 740.00
89.4458 786.00
89.511 764.00
89.5762 801.00
89.6414 841.00
89.7066 796.00
89.7718 876.00
89.837 893.00
89.9022 910.00
89.9674 944.00
90.0326 899.00
90.0978 949.00
90.163 897.00
90.2282 833.00
90.2934 886.00
90.3586 861.00
90.4238 836.00
90.489 841.00
90.5542 864.00
90.6193 846.00
90.6845 845.00
90.7497 870.00
90.8149 879.00
90.8801 855.00
90.9453 825.00
91.0105 887.00
91.0757 899.00
91.1409 982.00
91.2061 963.00
91.2713 887.00
91.3365 915.00
91.4017 898.00
91.4669 883.00
91.5321 858.00
91.5973 874.00
91.6625 807.00
91.7277 796.00
91.7929 803.00
91.8581 782.00
91.9233 847.00
91.9885 807.00
92.0537 813.00
92.1189 841.00
92.1841 804.00
92.2493 800.00
92.3145 804.00
92.3797 810.00
92.4449 760.00
92.5101 766.00
92.5753 762.00
92.6405 760.00
92.7057 756.00
92.7709 804.00
92.8361 771.00
92.9013 720.00
92.9665 748.00
93.0317 755.00
93.0969 763.00
93.1621 751.00
93.2273 749.00
93.2925 769.00
93.3577 734.00
93.4229 782.00
93.4881 762.00
93.5533 766.00
93.6185 708.00
93.6837 763.00
93.7489 771.00
93.8141 720.00
93.8793 713.00
93.9445 731.00
94.0097 743.00
94.0749 694.00
94.1401 779.00
94.2053 683.00
94.2705 718.00
94.3357 694.00
94.4009 687.00
94.4661 675.00
94.5313 724.00
94.5965 699.00
94.6617 783.00
94.7269 741.00
94.7921 749.00
94.8573 704.00
94.9225 714.00
94.9877 703.00
95.0529 709.00
95.1181 722.00
95.1833 717.00
95.2485 754.00
95.3137 697.00
95.3789 722.00
95.444 712.00
95.5092 741.00
95.5744 772.00
95.6396 749.00
95.7048 759.00
95.77 744.00
95.8352 751.00
95.9004 793.00
95.9656 769.00
96.0308 745.00
96.096 796.00
96.1612 773.00
96.2264 763.00
96.2916 782.00
96.3568 808.00
96.422 800.00
96.4872 817.00
96.5524 823.00
96.6176 821.00
96.6828 778.00
96.748 785.00
96.8132 776.00
96.8784 807.00
96.9436 777.00
97.0088 793.00
97.074 790.00
97.1392 773.00
97.2044 808.00
97.2696 815.00
97.3348 844.00
97.4 922.00
97.4652 849.00
97.5304 780.00
97.5956 817.00
97.6608 871.00
97.726 924.00
97.7912 872.00
97.8564 924.00
97.9216 859.00
97.9868 874.00
98.052 829.00
98.1172 838.00
98.1824 840.00
98.2476 748.00
98.3128 713.00
98.378 817.00
98.4432 736.00
98.5084 739.00
98.5736 765.00
98.6388 777.00
98.704 793.00
98.7692 729.00
98.8344 778.00
98.8996 802.00
98.9648 788.00
99.03 778.00
99.0952 662.00
99.1604 779.00
99.2256 814.00
99.2908 747.00
99.356 769.00
99.4212 797.00
99.4864 752.00
99.5516 811.00
99.6168 815.00
99.682 805.00
99.7472 838.00
99.8124 900.00
99.8776 846.00
99.9428 864.00
100.008 876.00
100.073 864.00
100.095 852.00