File: data/xrd_creation/results/Na_191.xy
9.903433 2828.00
9.968632 2897.00
10.0338 2896.00
10.099 2902.00
10.1642 2766.00
10.2294 2872.00
10.2946 2917.00
10.3598 2983.00
10.425 2897.00
10.4902 3087.00
10.5554 3276.00
10.6206 3539.00
10.6858 3524.00
10.751 3002.00
10.8162 2778.00
10.8814 2740.00
10.9466 2767.00
11.0118 2727.00
11.077 2762.00
11.1422 2913.00
11.2074 2879.00
11.2726 3024.00
11.3378 3256.00
11.403 3465.00
11.4682 3741.00
11.5334 4293.00
11.5986 5230.00
11.6638 6466.00
11.729 6377.00
11.7942 5636.00
11.8594 5129.00
11.9246 4057.00
11.9898 4336.00
12.055 5069.00
12.1202 6360.00
12.1854 6829.00
12.2506 3796.00
12.3158 2761.00
12.381 2572.00
12.4462 2492.00
12.5114 2484.00
12.5766 2363.00
12.6418 2355.00
12.707 2402.00
12.7722 2256.00
12.8374 2217.00
12.9026 2428.00
12.9678 2335.00
13.033 2414.00
13.0982 2331.00
13.1634 2382.00
13.2286 2258.00
13.2938 2143.00
13.359 2209.00
13.4242 2145.00
13.4894 2174.00
13.5546 2094.00
13.6198 2191.00
13.685 2231.00
13.7502 2245.00
13.8154 2425.00
13.8805 2416.00
13.9457 2561.00
14.0109 2660.00
14.0761 2758.00
14.1413 2594.00
14.2065 2324.00
14.2717 2256.00
14.3369 2099.00
14.4021 2030.00
14.4673 2081.00
14.5325 2019.00
14.5977 2070.00
14.6629 2142.00
14.7281 2037.00
14.7933 2106.00
14.8585 2016.00
14.9237 2085.00
14.9889 1994.00
15.0541 1986.00
15.1193 1956.00
15.1845 1931.00
15.2497 2004.00
15.3149 1944.00
15.3801 1964.00
15.4453 1958.00
15.5105 1874.00
15.5757 1938.00
15.6409 1945.00
15.7061 1982.00
15.7713 1917.00
15.8365 1972.00
15.9017 1982.00
15.9669 2004.00
16.0321 2053.00
16.0973 1938.00
16.1625 2098.00
16.2277 2190.00
16.2929 2543.00
16.3581 2691.00
16.4233 3321.00
16.4885 4031.00
16.5537 3929.00
16.6189 2605.00
16.6841 2176.00
16.7493 1996.00
16.8145 1920.00
16.8797 1943.00
16.9449 1935.00
17.0101 1923.00
17.0753 1925.00
17.1405 1803.00
17.2057 1854.00
17.2709 1781.00
17.3361 1881.00
17.4013 1816.00
17.4665 1841.00
17.5317 1873.00
17.5969 1887.00
17.6621 1909.00
17.7273 1921.00
17.7925 1998.00
17.8577 2130.00
17.9229 2326.00
17.9881 2327.00
18.0533 2181.00
18.1185 1974.00
18.1837 1776.00
18.2489 1775.00
18.3141 1741.00
18.3793 1764.00
18.4445 1817.00
18.5097 1764.00
18.5749 1761.00
18.6401 1723.00
18.7052 1673.00
18.7704 1693.00
18.8356 1670.00
18.9008 1740.00
18.966 1622.00
19.0312 1691.00
19.0964 1725.00
19.1616 1705.00
19.2268 1756.00
19.292 1707.00
19.3572 1793.00
19.4224 1944.00
19.4876 2098.00
19.5528 2553.00
19.618 3193.00
19.6832 3814.00
19.7484 3212.00
19.8136 2842.00
19.8788 2983.00
19.944 3453.00
20.0092 3572.00
20.0744 2923.00
20.1396 2010.00
20.2048 1728.00
20.27 1727.00
20.3352 1680.00
20.4004 1604.00
20.4656 1664.00
20.5308 1660.00
20.596 1632.00
20.6612 1708.00
20.7264 1764.00
20.7916 2051.00
20.8568 2156.00
20.922 2199.00
20.9872 2113.00
21.0524 1856.00
21.1176 1802.00
21.1828 1670.00
21.248 1620.00
21.3132 1585.00
21.3784 1638.00
21.4436 1543.00
21.5088 1523.00
21.574 1598.00
21.6392 1519.00
21.7044 1570.00
21.7696 1568.00
21.8348 1537.00
21.9 1558.00
21.9652 1517.00
22.0304 1461.00
22.0956 1538.00
22.1608 1511.00
22.226 1521.00
22.2912 1610.00
22.3564 1567.00
22.4216 1531.00
22.4868 1587.00
22.552 1562.00
22.6172 1554.00
22.6824 1620.00
22.7476 1806.00
22.8128 1878.00
22.878 2150.00
22.9432 2536.00
23.0084 3559.00
23.0736 4514.00
23.1388 4613.00
23.204 4232.00
23.2692 3351.00
23.3344 2581.00
23.3996 2411.00
23.4647 2752.00
23.5299 2694.00
23.5951 2197.00
23.6603 1845.00
23.7255 1560.00
23.7907 1597.00
23.8559 1783.00
23.9211 1835.00
23.9863 2129.00
24.0515 2424.00
24.1167 2940.00
24.1819 3168.00
24.2471 2821.00
24.3123 2435.00
24.3775 2405.00
24.4427 2357.00
24.5079 2389.00
24.5731 2381.00
24.6383 2129.00
24.7035 1950.00
24.7687 1997.00
24.8339 1891.00
24.8991 1790.00
24.9643 1811.00
25.0295 1639.00
25.0947 1485.00
25.1599 1528.00
25.2251 1557.00
25.2903 1534.00
25.3555 1589.00
25.4207 1691.00
25.4859 1759.00
25.5511 1589.00
25.6163 1648.00
25.6815 1641.00
25.7467 1809.00
25.8119 2119.00
25.8771 2791.00
25.9423 3634.00
26.0075 3822.00
26.0727 3682.00
26.1379 4002.00
26.2031 3543.00
26.2683 2551.00
26.3335 2235.00
26.3987 1972.00
26.4639 1994.00
26.5291 2033.00
26.5943 2099.00
26.6595 2684.00
26.7247 3371.00
26.7899 5155.00
26.8551 7966.00
26.9203 8375.00
26.9855 5819.00
27.0507 3414.00
27.1159 2521.00
27.1811 2428.00
27.2463 2576.00
27.3115 2909.00
27.3767 3744.00
27.4419 4506.00
27.5071 4185.00
27.5723 3499.00
27.6375 2948.00
27.7027 2513.00
27.7679 2189.00
27.8331 2058.00
27.8983 2084.00
27.9635 2035.00
28.0287 2198.00
28.0939 2050.00
28.1591 1800.00
28.2243 1740.00
28.2894 1802.00
28.3546 1876.00
28.4198 2197.00
28.485 2674.00
28.5502 3041.00
28.6154 3566.00
28.6806 3562.00
28.7458 2836.00
28.811 2182.00
28.8762 1757.00
28.9414 1650.00
29.0066 1558.00
29.0718 1562.00
29.137 1404.00
29.2022 1476.00
29.2674 1421.00
29.3326 1409.00
29.3978 1517.00
29.463 1446.00
29.5282 1480.00
29.5934 1443.00
29.6586 1705.00
29.7238 1868.00
29.789 2039.00
29.8542 2009.00
29.9194 1934.00
29.9846 2017.00
30.0498 1958.00
30.115 1850.00
30.1802 1949.00
30.2454 2289.00
30.3106 3061.00
30.3758 3351.00
30.441 2805.00
30.5062 2177.00
30.5714 2099.00
30.6366 2233.00
30.7018 2444.00
30.767 2050.00
30.8322 1868.00
30.8974 1781.00
30.9626 1837.00
31.0278 1951.00
31.093 2466.00
31.1582 3015.00
31.2234 3659.00
31.2886 3754.00
31.3538 3500.00
31.419 3289.00
31.4842 3712.00
31.5494 4987.00
31.6146 6243.00
31.6798 5999.00
31.745 4455.00
31.8102 3462.00
31.8754 3450.00
31.9406 3472.00
32.0058 3106.00
32.071 2472.00
32.1362 1971.00
32.2014 1773.00
32.2666 1607.00
32.3318 1479.00
32.397 1487.00
32.4622 1397.00
32.5274 1349.00
32.5926 1390.00
32.6578 1376.00
32.723 1493.00
32.7882 1445.00
32.8534 1757.00
32.9186 2289.00
32.9838 3456.00
33.0489 4604.00
33.1141 3639.00
33.1793 2401.00
33.2445 1635.00
33.3097 1459.00
33.3749 1418.00
33.4401 1373.00
33.5053 1460.00
33.5705 1584.00
33.6357 1608.00
33.7009 1732.00
33.7661 1924.00
33.8313 2312.00
33.8965 2897.00
33.9617 4289.00
34.0269 7295.00
34.0921 12784.00
34.1573 17674.00
34.2225 14690.00
34.2877 9894.00
34.3529 6887.00
34.4181 5977.00
34.4833 5225.00
34.5485 4011.00
34.6137 3114.00
34.6789 2479.00
34.7441 2192.00
34.8093 2078.00
34.8745 1983.00
34.9397 1856.00
35.0049 1747.00
35.0701 1539.00
35.1353 1496.00
35.2005 1390.00
35.2657 1441.00
35.3309 1398.00
35.3961 1440.00
35.4613 1394.00
35.5265 1258.00
35.5917 1401.00
35.6569 1490.00
35.7221 1616.00
35.7873 1728.00
35.8525 1773.00
35.9177 1709.00
35.9829 1643.00
36.0481 1550.00
36.1133 1526.00
36.1785 1577.00
36.2437 1567.00
36.3089 1680.00
36.3741 1779.00
36.4393 1722.00
36.5045 1690.00
36.5697 1606.00
36.6349 1532.00
36.7001 1377.00
36.7653 1362.00
36.8305 1385.00
36.8957 1380.00
36.9609 1357.00
37.0261 1258.00
37.0913 1294.00
37.1565 1303.00
37.2217 1357.00
37.2869 1357.00
37.3521 1372.00
37.4173 1242.00
37.4825 1262.00
37.5477 1235.00
37.6129 1228.00
37.6781 1235.00
37.7433 1249.00
37.8085 1230.00
37.8736 1242.00
37.9388 1275.00
38.004 1291.00
38.0692 1472.00
38.1344 1802.00
38.1996 2370.00
38.2648 2667.00
38.33 2278.00
38.3952 1807.00
38.4604 1399.00
38.5256 1302.00
38.5908 1217.00
38.656 1159.00
38.7212 1197.00
38.7864 1231.00
38.8516 1259.00
38.9168 1306.00
38.982 1424.00
39.0472 1340.00
39.1124 1406.00
39.1776 1371.00
39.2428 1459.00
39.308 1493.00
39.3732 1393.00
39.4384 1201.00
39.5036 1300.00
39.5688 1243.00
39.634 1250.00
39.6992 1185.00
39.7644 1124.00
39.8296 1210.00
39.8948 1116.00
39.96 1132.00
40.0252 1151.00
40.0904 1099.00
40.1556 1100.00
40.2208 1178.00
40.286 1221.00
40.3512 1241.00
40.4164 1181.00
40.4816 1121.00
40.5468 1107.00
40.612 1167.00
40.6772 1118.00
40.7424 1092.00
40.8076 1188.00
40.8728 1242.00
40.938 1221.00
41.0032 1295.00
41.0684 1283.00
41.1336 1290.00
41.1988 1359.00
41.264 1553.00
41.3292 1518.00
41.3944 1664.00
41.4596 1975.00
41.5248 2145.00
41.59 2079.00
41.6552 1776.00
41.7204 1626.00
41.7856 1701.00
41.8508 1659.00
41.916 1593.00
41.9812 1599.00
42.0464 1580.00
42.1116 1673.00
42.1768 1595.00
42.242 1649.00
42.3072 1498.00
42.3724 1568.00
42.4376 1658.00
42.5028 1626.00
42.568 1503.00
42.6332 1367.00
42.6983 1215.00
42.7635 1179.00
42.8287 1157.00
42.8939 1184.00
42.9591 1203.00
43.0243 1289.00
43.0895 1312.00
43.1547 1343.00
43.2199 1405.00
43.2851 1345.00
43.3503 1337.00
43.4155 1278.00
43.4807 1329.00
43.5459 1214.00
43.6111 1274.00
43.6763 1264.00
43.7415 1208.00
43.8067 1140.00
43.8719 1120.00
43.9371 1086.00
44.0023 1092.00
44.0675 1030.00
44.1327 1051.00
44.1979 1159.00
44.2631 1114.00
44.3283 1147.00
44.3935 1078.00
44.4587 1171.00
44.5239 1288.00
44.5891 1300.00
44.6543 1348.00
44.7195 1402.00
44.7847 1364.00
44.8499 1386.00
44.9151 1352.00
44.9803 1284.00
45.0455 1307.00
45.1107 1244.00
45.1759 1198.00
45.2411 1233.00
45.3063 1180.00
45.3715 1289.00
45.4367 1131.00
45.5019 1118.00
45.5671 1138.00
45.6323 1118.00
45.6975 1151.00
45.7627 1138.00
45.8279 1212.00
45.8931 1246.00
45.9583 1206.00
46.0235 1183.00
46.0887 1360.00
46.1539 1536.00
46.2191 1609.00
46.2843 1592.00
46.3495 1645.00
46.4147 1768.00
46.4799 1600.00
46.5451 1603.00
46.6103 1446.00
46.6755 1536.00
46.7407 1731.00
46.8059 1869.00
46.8711 2044.00
46.9363 2263.00
47.0015 2555.00
47.0667 3008.00
47.1319 2935.00
47.1971 2549.00
47.2623 2093.00
47.3275 1645.00
47.3927 1595.00
47.4579 1610.00
47.523 1778.00
47.5882 2051.00
47.6534 1891.00
47.7186 1686.00
47.7838 1417.00
47.849 1256.00
47.9142 1280.00
47.9794 1211.00
48.0446 1250.00
48.1098 1132.00
48.175 1128.00
48.2402 1164.00
48.3054 1190.00
48.3706 1121.00
48.4358 1134.00
48.501 1151.00
48.5662 1169.00
48.6314 1159.00
48.6966 1124.00
48.7618 1166.00
48.827 1240.00
48.8922 1336.00
48.9574 1519.00
49.0226 1780.00
49.0878 1866.00
49.153 1920.00
49.2182 1917.00
49.2834 1726.00
49.3486 1679.00
49.4138 1767.00
49.479 1715.00
49.5442 1853.00
49.6094 1708.00
49.6746 1688.00
49.7398 1722.00
49.805 1726.00
49.8702 1802.00
49.9354 1802.00
50.0006 1668.00
50.0658 1460.00
50.131 1375.00
50.1962 1508.00
50.2614 1566.00
50.3266 1613.00
50.3918 1625.00
50.457 1848.00
50.5222 1844.00
50.5874 1965.00
50.6526 2165.00
50.7178 2322.00
50.783 2115.00
50.8482 2108.00
50.9134 1818.00
50.9786 1618.00
51.0438 1652.00
51.109 1607.00
51.1742 1557.00
51.2394 1473.00
51.3046 1450.00
51.3698 1413.00
51.435 1367.00
51.5002 1297.00
51.5654 1358.00
51.6306 1332.00
51.6958 1468.00
51.761 1595.00
51.8262 1944.00
51.8914 2394.00
51.9566 3560.00
52.0218 5408.00
52.087 5306.00
52.1522 4340.00
52.2174 3602.00
52.2826 2369.00
52.3477 1809.00
52.4129 1555.00
52.4781 1391.00
52.5433 1175.00
52.6085 1238.00
52.6737 1176.00
52.7389 1138.00
52.8041 1049.00
52.8693 1197.00
52.9345 1355.00
52.9997 1576.00
53.0649 1805.00
53.1301 1916.00
53.1953 1866.00
53.2605 1792.00
53.3257 1590.00
53.3909 1448.00
53.4561 1394.00
53.5213 1361.00
53.5865 1313.00
53.6517 1361.00
53.7169 1277.00
53.7821 1354.00
53.8473 1316.00
53.9125 1205.00
53.9777 1154.00
54.0429 1152.00
54.1081 1206.00
54.1733 1121.00
54.2385 1176.00
54.3037 1125.00
54.3689 1201.00
54.4341 1195.00
54.4993 1235.00
54.5645 1291.00
54.6297 1399.00
54.6949 1570.00
54.7601 1565.00
54.8253 1631.00
54.8905 1675.00
54.9557 1888.00
55.0209 2300.00
55.0861 1984.00
55.1513 1918.00
55.2165 1775.00
55.2817 1599.00
55.3469 1575.00
55.4121 1445.00
55.4773 1334.00
55.5425 1344.00
55.6077 1383.00
55.6729 1353.00
55.7381 1260.00
55.8033 1414.00
55.8685 1417.00
55.9337 1543.00
55.9989 1477.00
56.0641 1469.00
56.1293 1464.00
56.1945 1442.00
56.2597 1375.00
56.3249 1311.00
56.3901 1370.00
56.4553 1282.00
56.5205 1352.00
56.5857 1408.00
56.6509 1369.00
56.7161 1406.00
56.7813 1340.00
56.8465 1272.00
56.9117 1216.00
56.9769 1169.00
57.042 1115.00
57.1073 1166.00
57.1724 1090.00
57.2376 1094.00
57.3028 1186.00
57.368 1246.00
57.4332 1255.00
57.4984 1327.00
57.5636 1291.00
57.6288 1385.00
57.694 1354.00
57.7592 1412.00
57.8244 1449.00
57.8896 1408.00
57.9548 1595.00
58.02 1631.00
58.0852 1719.00
58.1504 1617.00
58.2156 1599.00
58.2808 1441.00
58.346 1351.00
58.4112 1335.00
58.4764 1391.00
58.5416 1359.00
58.6068 1316.00
58.672 1235.00
58.7372 1303.00
58.8024 1249.00
58.8676 1256.00
58.9328 1394.00
58.998 1506.00
59.0632 1709.00
59.1284 1878.00
59.1936 2143.00
59.2588 2377.00
59.324 2297.00
59.3892 2198.00
59.4544 2029.00
59.5196 1761.00
59.5848 1562.00
59.65 1443.00
59.7152 1332.00
59.7804 1404.00
59.8456 1422.00
59.9108 1466.00
59.976 1451.00
60.0412 1393.00
60.1064 1314.00
60.1716 1246.00
60.2368 1216.00
60.302 1286.00
60.3672 1243.00
60.4324 1262.00
60.4976 1447.00
60.5628 1378.00
60.628 1462.00
60.6932 1459.00
60.7584 1576.00
60.8236 1793.00
60.8888 1756.00
60.954 1717.00
61.0192 1732.00
61.0844 1629.00
61.1496 1375.00
61.2148 1331.00
61.28 1386.00
61.3452 1342.00
61.4104 1416.00
61.4756 1369.00
61.5408 1494.00
61.606 1430.00
61.6712 1422.00
61.7364 1428.00
61.8016 1348.00
61.8667 1506.00
61.932 1679.00
61.9971 1791.00
62.0623 1991.00
62.1275 2268.00
62.1927 2069.00
62.2579 1997.00
62.3231 1827.00
62.3883 1678.00
62.4535 1528.00
62.5187 1462.00
62.5839 1410.00
62.6491 1392.00
62.7143 1236.00
62.7795 1247.00
62.8447 1143.00
62.9099 1196.00
62.9751 1148.00
63.0403 1086.00
63.1055 1139.00
63.1707 1176.00
63.2359 1047.00
63.3011 1147.00
63.3663 1132.00
63.4315 1195.00
63.4967 1187.00
63.5619 1252.00
63.6271 1195.00
63.6923 1164.00
63.7575 1091.00
63.8227 1034.00
63.8879 1067.00
63.9531 1061.00
64.0183 1075.00
64.0835 1091.00
64.1487 1088.00
64.2139 1088.00
64.2791 1074.00
64.3443 1082.00
64.4095 1061.00
64.4747 1120.00
64.5399 1141.00
64.6051 1121.00
64.6703 1215.00
64.7355 1169.00
64.8007 1382.00
64.8659 1422.00
64.9311 1646.00
64.9963 1880.00
65.0615 1558.00
65.1267 1661.00
65.1919 1603.00
65.2571 1352.00
65.3223 1159.00
65.3875 1128.00
65.4527 1173.00
65.5179 1140.00
65.5831 1140.00
65.6483 1185.00
65.7135 1229.00
65.7787 1283.00
65.8439 1328.00
65.9091 1380.00
65.9743 1439.00
66.0395 1567.00
66.1047 1713.00
66.1699 1953.00
66.2351 2225.00
66.3003 2035.00
66.3655 1974.00
66.4307 1859.00
66.4959 1624.00
66.561 1495.00
66.6263 1367.00
66.6915 1275.00
66.7566 1196.00
66.8218 1149.00
66.887 1103.00
66.9522 1104.00
67.0174 1024.00
67.0826 1042.00
67.1478 994.00
67.213 935.00
67.2782 1022.00
67.3434 1028.00
67.4086 1019.00
67.4738 983.00
67.539 1070.00
67.6042 1111.00
67.6694 1119.00
67.7346 1121.00
67.7998 1110.00
67.865 1098.00
67.9302 1036.00
67.9954 1020.00
68.0606 1034.00
68.1258 1065.00
68.191 1054.00
68.2562 1039.00
68.3214 990.00
68.3866 935.00
68.4518 894.00
68.517 921.00
68.5822 846.00
68.6474 862.00
68.7126 887.00
68.7778 899.00
68.843 995.00
68.9082 954.00
68.9734 897.00
69.0386 908.00
69.1038 961.00
69.169 930.00
69.2342 912.00
69.2994 922.00
69.3646 961.00
69.4298 1020.00
69.495 990.00
69.5602 1058.00
69.6254 1090.00
69.6906 1130.00
69.7558 1001.00
69.821 990.00
69.8862 954.00
69.9514 914.00
70.0166 924.00
70.0818 896.00
70.147 888.00
70.2122 953.00
70.2774 916.00
70.3426 882.00
70.4078 880.00
70.473 867.00
70.5382 835.00
70.6034 881.00
70.6686 850.00
70.7338 925.00
70.799 915.00
70.8642 925.00
70.9294 919.00
70.9946 876.00
71.0598 972.00
71.125 958.00
71.1902 1015.00
71.2554 1061.00
71.3205 1170.00
71.3858 1342.00
71.451 1523.00
71.5162 1740.00
71.5813 1526.00
71.6465 1390.00
71.7117 1389.00
71.7769 1267.00
71.8421 1175.00
71.9073 1073.00
71.9725 1021.00
72.0377 1087.00
72.1029 1068.00
72.1681 1023.00
72.2333 1020.00
72.2985 994.00
72.3637 972.00
72.4289 925.00
72.4941 936.00
72.5593 966.00
72.6245 961.00
72.6897 906.00
72.7549 1003.00
72.8201 1025.00
72.8853 1022.00
72.9505 984.00
73.0157 970.00
73.0809 990.00
73.1461 939.00
73.2113 1016.00
73.2765 901.00
73.3417 1044.00
73.4069 918.00
73.4721 911.00
73.5373 928.00
73.6025 949.00
73.6677 886.00
73.7329 861.00
73.7981 883.00
73.8633 885.00
73.9285 875.00
73.9937 858.00
74.0589 841.00
74.1241 833.00
74.1893 881.00
74.2545 924.00
74.3197 974.00
74.3849 923.00
74.4501 907.00
74.5153 870.00
74.5805 908.00
74.6457 922.00
74.7109 920.00
74.7761 879.00
74.8413 971.00
74.9065 945.00
74.9717 975.00
75.0369 934.00
75.1021 953.00
75.1673 887.00
75.2325 973.00
75.2977 949.00
75.3629 968.00
75.4281 1023.00
75.4933 987.00
75.5585 925.00
75.6237 958.00
75.6889 980.00
75.7541 922.00
75.8193 948.00
75.8845 933.00
75.9497 960.00
76.0149 965.00
76.0801 974.00
76.1452 1010.00
76.2104 942.00
76.2756 898.00
76.3409 976.00
76.406 893.00
76.4712 959.00
76.5364 927.00
76.6016 939.00
76.6668 923.00
76.732 923.00
76.7972 951.00
76.8624 943.00
76.9276 891.00
76.9928 997.00
77.058 929.00
77.1232 932.00
77.1884 1002.00
77.2536 993.00
77.3188 948.00
77.384 902.00
77.4492 919.00
77.5144 901.00
77.5796 946.00
77.6448 900.00
77.71 850.00
77.7752 829.00
77.8404 835.00
77.9056 857.00
77.9708 797.00
78.036 896.00
78.1012 926.00
78.1664 875.00
78.2316 845.00
78.2968 881.00
78.362 895.00
78.4272 879.00
78.4924 953.00
78.5576 892.00
78.6228 892.00
78.688 913.00
78.7532 1058.00
78.8184 1111.00
78.8836 1313.00
78.9488 1528.00
79.014 1313.00
79.0792 1225.00
79.1444 1253.00
79.2096 1221.00
79.2748 1122.00
79.34 1088.00
79.4052 1058.00
79.4704 987.00
79.5356 961.00
79.6008 918.00
79.666 943.00
79.7312 1036.00
79.7964 1033.00
79.8616 1050.00
79.9268 1045.00
79.992 1078.00
80.0572 1204.00
80.1224 1188.00
80.1876 1091.00
80.2528 1067.00
80.318 990.00
80.3832 992.00
80.4484 970.00
80.5136 904.00
80.5788 927.00
80.644 917.00
80.7092 928.00
80.7744 892.00
80.8396 892.00
80.9048 914.00
80.9699 938.00
81.0351 938.00
81.1003 958.00
81.1655 922.00
81.2307 943.00
81.2959 933.00
81.3611 1075.00
81.4263 1023.00
81.4915 1078.00
81.5567 1045.00
81.6219 1085.00
81.6871 963.00
81.7523 1023.00
81.8175 996.00
81.8827 976.00
81.9479 989.00
82.0131 974.00
82.0783 948.00
82.1435 978.00
82.2087 918.00
82.2739 875.00
82.3391 969.00
82.4043 994.00
82.4695 969.00
82.5347 960.00
82.5999 969.00
82.6651 934.00
82.7303 898.00
82.7955 896.00
82.8607 949.00
82.9259 920.00
82.9911 884.00
83.0563 899.00
83.1215 842.00
83.1867 865.00
83.2519 906.00
83.3171 873.00
83.3823 883.00
83.4475 884.00
83.5127 924.00
83.5779 938.00
83.6431 901.00
83.7083 954.00
83.7735 1084.00
83.8387 1136.00
83.9039 1236.00
83.9691 1270.00
84.0343 1200.00
84.0995 1179.00
84.1647 1191.00
84.2299 1214.00
84.2951 1080.00
84.3603 998.00
84.4255 1031.00
84.4907 988.00
84.5559 1025.00
84.6211 1021.00
84.6863 1075.00
84.7515 949.00
84.8167 1010.00
84.8819 973.00
84.9471 927.00
85.0123 997.00
85.0775 880.00
85.1427 925.00
85.2079 918.00
85.2731 960.00
85.3383 945.00
85.4035 899.00
85.4687 893.00
85.5339 860.00
85.5991 930.00
85.6643 875.00
85.7295 922.00
85.7946 918.00
85.8598 943.00
85.925 1024.00
85.9903 892.00
86.0554 913.00
86.1206 907.00
86.1858 894.00
86.251 924.00
86.3162 892.00
86.3814 926.00
86.4466 896.00
86.5118 969.00
86.577 975.00
86.6422 985.00
86.7074 920.00
86.7726 955.00
86.8378 913.00
86.903 905.00
86.9682 954.00
87.0334 936.00
87.0986 906.00
87.1638 961.00
87.229 899.00
87.2942 890.00
87.3594 985.00
87.4246 1087.00
87.4898 1084.00
87.555 949.00
87.6202 980.00
87.6854 1029.00
87.7506 908.00
87.8158 964.00
87.881 891.00
87.9462 889.00
88.0114 870.00
88.0766 956.00
88.1418 884.00
88.207 903.00
88.2722 888.00
88.3374 982.00
88.4026 926.00
88.4678 954.00
88.533 901.00
88.5982 911.00
88.6634 917.00
88.7286 865.00
88.7938 918.00
88.859 929.00
88.9242 906.00
88.9894 925.00
89.0546 872.00
89.1198 904.00
89.185 938.00
89.2502 923.00
89.3154 962.00
89.3806 988.00
89.4458 967.00
89.511 1013.00
89.5762 981.00
89.6414 1112.00
89.7066 1139.00
89.7718 1229.00
89.837 1134.00
89.9022 1333.00
89.9674 1456.00
90.0326 1428.00
90.0978 1285.00
90.163 1218.00
90.2282 1184.00
90.2934 1252.00
90.3586 1146.00
90.4238 1057.00
90.489 1019.00
90.5542 1024.00
90.6193 988.00
90.6845 982.00
90.7497 1029.00
90.8149 1094.00
90.8801 1045.00
90.9453 1094.00
91.0105 1232.00
91.0757 1296.00
91.1409 1345.00
91.2061 1159.00
91.2713 1214.00
91.3365 1147.00
91.4017 1170.00
91.4669 1049.00
91.5321 995.00
91.5973 950.00
91.6625 983.00
91.7277 949.00
91.7929 904.00
91.8581 898.00
91.9233 905.00
91.9885 951.00
92.0537 851.00
92.1189 935.00
92.1841 943.00
92.2493 968.00
92.3145 890.00
92.3797 890.00
92.4449 853.00
92.5101 889.00
92.5753 867.00
92.6405 938.00
92.7057 806.00
92.7709 881.00
92.8361 886.00
92.9013 865.00
92.9665 849.00
93.0317 857.00
93.0969 846.00
93.1621 869.00
93.2273 869.00
93.2925 833.00
93.3577 885.00
93.4229 1025.00
93.4881 1010.00
93.5533 1011.00
93.6185 949.00
93.6837 908.00
93.7489 973.00
93.8141 983.00
93.8793 839.00
93.9445 921.00
94.0097 896.00
94.0749 906.00
94.1401 894.00
94.2053 870.00
94.2705 829.00
94.3357 856.00
94.4009 885.00
94.4661 874.00
94.5313 844.00
94.5965 872.00
94.6617 913.00
94.7269 866.00
94.7921 920.00
94.8573 865.00
94.9225 934.00
94.9877 867.00
95.0529 836.00
95.1181 933.00
95.1833 823.00
95.2485 871.00
95.3137 881.00
95.3789 848.00
95.444 878.00
95.5092 939.00
95.5744 927.00
95.6396 897.00
95.7048 957.00
95.77 940.00
95.8352 924.00
95.9004 896.00
95.9656 947.00
96.0308 1047.00
96.096 1104.00
96.1612 1095.00
96.2264 1073.00
96.2916 1012.00
96.3568 1035.00
96.422 990.00
96.4872 1042.00
96.5524 972.00
96.6176 904.00
96.6828 1001.00
96.748 935.00
96.8132 926.00
96.8784 928.00
96.9436 934.00
97.0088 1018.00
97.074 917.00
97.1392 964.00
97.2044 880.00
97.2696 908.00
97.3348 912.00
97.4 915.00
97.4652 914.00
97.5304 889.00
97.5956 852.00
97.6608 943.00
97.726 954.00
97.7912 908.00
97.8564 962.00
97.9216 898.00
97.9868 947.00
98.052 893.00
98.1172 878.00
98.1824 844.00
98.2476 856.00
98.3128 885.00
98.378 858.00
98.4432 859.00
98.5084 841.00
98.5736 875.00
98.6388 913.00
98.704 844.00
98.7692 846.00
98.8344 897.00
98.8996 853.00
98.9648 946.00
99.03 938.00
99.0952 974.00
99.1604 921.00
99.2256 918.00
99.2908 930.00
99.356 946.00
99.4212 972.00
99.4864 1019.00
99.5516 1033.00
99.6168 1058.00
99.682 995.00
99.7472 1010.00
99.8124 1009.00
99.8776 982.00
99.9428 916.00
100.008 916.00
100.073 973.00
100.095 907.00