File: data/xrd_creation/results/Na_127.xy
9.903433 2652.00
9.968632 2660.00
10.0338 2486.00
10.099 2507.00
10.1642 2525.00
10.2294 2558.00
10.2946 2480.00
10.3598 2552.00
10.425 2521.00
10.4902 2410.00
10.5554 2499.00
10.6206 2442.00
10.6858 2405.00
10.751 2401.00
10.8162 2368.00
10.8814 2370.00
10.9466 2382.00
11.0118 2268.00
11.077 2284.00
11.1422 2202.00
11.2074 2282.00
11.2726 2274.00
11.3378 2297.00
11.403 2153.00
11.4682 2199.00
11.5334 2257.00
11.5986 2212.00
11.6638 2073.00
11.729 2137.00
11.7942 2124.00
11.8594 2049.00
11.9246 2131.00
11.9898 2096.00
12.055 2079.00
12.1202 2000.00
12.1854 1986.00
12.2506 2025.00
12.3158 1990.00
12.381 2017.00
12.4462 1924.00
12.5114 2016.00
12.5766 1926.00
12.6418 1923.00
12.707 1959.00
12.7722 1881.00
12.8374 1918.00
12.9026 1850.00
12.9678 1800.00
13.033 1812.00
13.0982 1837.00
13.1634 1809.00
13.2286 1872.00
13.2938 1807.00
13.359 1711.00
13.4242 1811.00
13.4894 1771.00
13.5546 1720.00
13.6198 1742.00
13.685 1680.00
13.7502 1682.00
13.8154 1604.00
13.8805 1725.00
13.9457 1776.00
14.0109 1714.00
14.0761 1740.00
14.1413 1704.00
14.2065 1722.00
14.2717 1790.00
14.3369 1710.00
14.4021 1676.00
14.4673 1748.00
14.5325 1713.00
14.5977 1770.00
14.6629 1768.00
14.7281 1736.00
14.7933 1766.00
14.8585 1735.00
14.9237 1692.00
14.9889 1602.00
15.0541 1705.00
15.1193 1678.00
15.1845 1632.00
15.2497 1605.00
15.3149 1606.00
15.3801 1598.00
15.4453 1554.00
15.5105 1575.00
15.5757 1561.00
15.6409 1533.00
15.7061 1558.00
15.7713 1565.00
15.8365 1536.00
15.9017 1558.00
15.9669 1517.00
16.0321 1564.00
16.0973 1547.00
16.1625 1508.00
16.2277 1502.00
16.2929 1515.00
16.3581 1474.00
16.4233 1511.00
16.4885 1540.00
16.5537 1511.00
16.6189 1478.00
16.6841 1433.00
16.7493 1515.00
16.8145 1427.00
16.8797 1485.00
16.9449 1447.00
17.0101 1449.00
17.0753 1476.00
17.1405 1501.00
17.2057 1467.00
17.2709 1462.00
17.3361 1412.00
17.4013 1407.00
17.4665 1410.00
17.5317 1438.00
17.5969 1450.00
17.6621 1442.00
17.7273 1410.00
17.7925 1376.00
17.8577 1467.00
17.9229 1390.00
17.9881 1406.00
18.0533 1412.00
18.1185 1392.00
18.1837 1368.00
18.2489 1408.00
18.3141 1365.00
18.3793 1359.00
18.4445 1288.00
18.5097 1322.00
18.5749 1298.00
18.6401 1375.00
18.7052 1350.00
18.7704 1251.00
18.8356 1343.00
18.9008 1309.00
18.966 1304.00
19.0312 1319.00
19.0964 1289.00
19.1616 1283.00
19.2268 1278.00
19.292 1340.00
19.3572 1343.00
19.4224 1443.00
19.4876 1491.00
19.5528 1609.00
19.618 1572.00
19.6832 1659.00
19.7484 1576.00
19.8136 1534.00
19.8788 1363.00
19.944 1388.00
20.0092 1273.00
20.0744 1216.00
20.1396 1254.00
20.2048 1236.00
20.27 1239.00
20.3352 1176.00
20.4004 1167.00
20.4656 1273.00
20.5308 1156.00
20.596 1217.00
20.6612 1218.00
20.7264 1159.00
20.7916 1236.00
20.8568 1155.00
20.922 1194.00
20.9872 1182.00
21.0524 1225.00
21.1176 1204.00
21.1828 1146.00
21.248 1247.00
21.3132 1303.00
21.3784 1241.00
21.4436 1353.00
21.5088 1538.00
21.574 1476.00
21.6392 1524.00
21.7044 1397.00
21.7696 1266.00
21.8348 1201.00
21.9 1173.00
21.9652 1182.00
22.0304 1164.00
22.0956 1122.00
22.1608 1197.00
22.226 1143.00
22.2912 1160.00
22.3564 1125.00
22.4216 1169.00
22.4868 1242.00
22.552 1241.00
22.6172 1402.00
22.6824 1413.00
22.7476 1488.00
22.8128 1334.00
22.878 1278.00
22.9432 1247.00
23.0084 1102.00
23.0736 1080.00
23.1388 1105.00
23.204 1098.00
23.2692 1077.00
23.3344 1073.00
23.3996 1105.00
23.4647 1066.00
23.5299 1054.00
23.5951 1013.00
23.6603 1049.00
23.7255 1037.00
23.7907 1065.00
23.8559 1030.00
23.9211 980.00
23.9863 1094.00
24.0515 1104.00
24.1167 1055.00
24.1819 1036.00
24.2471 1090.00
24.3123 1202.00
24.3775 1271.00
24.4427 1221.00
24.5079 1166.00
24.5731 1095.00
24.6383 1028.00
24.7035 975.00
24.7687 996.00
24.8339 963.00
24.8991 938.00
24.9643 995.00
25.0295 964.00
25.0947 999.00
25.1599 916.00
25.2251 923.00
25.2903 1020.00
25.3555 992.00
25.4207 1005.00
25.4859 967.00
25.5511 1024.00
25.6163 956.00
25.6815 895.00
25.7467 909.00
25.8119 979.00
25.8771 976.00
25.9423 933.00
26.0075 949.00
26.0727 1049.00
26.1379 990.00
26.2031 947.00
26.2683 958.00
26.3335 945.00
26.3987 1000.00
26.4639 1025.00
26.5291 1116.00
26.5943 1168.00
26.6595 1259.00
26.7247 1678.00
26.7899 2202.00
26.8551 3278.00
26.9203 4790.00
26.9855 5670.00
27.0507 4278.00
27.1159 2525.00
27.1811 1623.00
27.2463 1227.00
27.3115 1117.00
27.3767 1110.00
27.4419 1006.00
27.5071 967.00
27.5723 923.00
27.6375 951.00
27.7027 933.00
27.7679 899.00
27.8331 969.00
27.8983 882.00
27.9635 864.00
28.0287 901.00
28.0939 871.00
28.1591 842.00
28.2243 827.00
28.2894 865.00
28.3546 873.00
28.4198 864.00
28.485 830.00
28.5502 874.00
28.6154 807.00
28.6806 869.00
28.7458 845.00
28.811 871.00
28.8762 884.00
28.9414 899.00
29.0066 899.00
29.0718 917.00
29.137 1064.00
29.2022 1053.00
29.2674 1025.00
29.3326 966.00
29.3978 948.00
29.463 868.00
29.5282 811.00
29.5934 800.00
29.6586 808.00
29.7238 798.00
29.789 779.00
29.8542 755.00
29.9194 829.00
29.9846 764.00
30.0498 765.00
30.115 801.00
30.1802 756.00
30.2454 762.00
30.3106 785.00
30.3758 789.00
30.441 732.00
30.5062 727.00
30.5714 744.00
30.6366 763.00
30.7018 739.00
30.767 758.00
30.8322 721.00
30.8974 794.00
30.9626 817.00
31.0278 841.00
31.093 806.00
31.1582 892.00
31.2234 927.00
31.2886 1031.00
31.3538 1143.00
31.419 1280.00
31.4842 1235.00
31.5494 1089.00
31.6146 970.00
31.6798 866.00
31.745 868.00
31.8102 796.00
31.8754 768.00
31.9406 844.00
32.0058 776.00
32.071 804.00
32.1362 832.00
32.2014 783.00
32.2666 742.00
32.3318 774.00
32.397 759.00
32.4622 733.00
32.5274 692.00
32.5926 668.00
32.6578 666.00
32.723 694.00
32.7882 734.00
32.8534 726.00
32.9186 716.00
32.9838 647.00
33.0489 730.00
33.1141 743.00
33.1793 723.00
33.2445 780.00
33.3097 748.00
33.3749 710.00
33.4401 678.00
33.5053 705.00
33.5705 689.00
33.6357 766.00
33.7009 780.00
33.7661 798.00
33.8313 859.00
33.8965 983.00
33.9617 1085.00
34.0269 1451.00
34.0921 2053.00
34.1573 3460.00
34.2225 4635.00
34.2877 4693.00
34.3529 3312.00
34.4181 2047.00
34.4833 1313.00
34.5485 1013.00
34.6137 888.00
34.6789 783.00
34.7441 720.00
34.8093 715.00
34.8745 733.00
34.9397 683.00
35.0049 697.00
35.0701 709.00
35.1353 662.00
35.2005 629.00
35.2657 616.00
35.3309 665.00
35.3961 590.00
35.4613 624.00
35.5265 615.00
35.5917 648.00
35.6569 573.00
35.7221 548.00
35.7873 582.00
35.8525 604.00
35.9177 623.00
35.9829 661.00
36.0481 600.00
36.1133 562.00
36.1785 575.00
36.2437 615.00
36.3089 644.00
36.3741 673.00
36.4393 689.00
36.5045 635.00
36.5697 657.00
36.6349 658.00
36.7001 616.00
36.7653 620.00
36.8305 612.00
36.8957 588.00
36.9609 599.00
37.0261 624.00
37.0913 554.00
37.1565 567.00
37.2217 626.00
37.2869 654.00
37.3521 681.00
37.4173 691.00
37.4825 753.00
37.5477 856.00
37.6129 826.00
37.6781 805.00
37.7433 846.00
37.8085 828.00
37.8736 828.00
37.9388 744.00
38.004 844.00
38.0692 857.00
38.1344 943.00
38.1996 1276.00
38.2648 1552.00
38.33 1754.00
38.3952 1602.00
38.4604 1280.00
38.5256 953.00
38.5908 761.00
38.656 696.00
38.7212 668.00
38.7864 586.00
38.8516 586.00
38.9168 541.00
38.982 587.00
39.0472 569.00
39.1124 572.00
39.1776 636.00
39.2428 715.00
39.308 755.00
39.3732 845.00
39.4384 804.00
39.5036 685.00
39.5688 656.00
39.634 614.00
39.6992 566.00
39.7644 553.00
39.8296 549.00
39.8948 598.00
39.96 510.00
40.0252 548.00
40.0904 537.00
40.1556 544.00
40.2208 542.00
40.286 571.00
40.3512 554.00
40.4164 485.00
40.4816 501.00
40.5468 529.00
40.612 515.00
40.6772 509.00
40.7424 539.00
40.8076 523.00
40.8728 526.00
40.938 537.00
41.0032 525.00
41.0684 490.00
41.1336 509.00
41.1988 520.00
41.264 490.00
41.3292 500.00
41.3944 487.00
41.4596 506.00
41.5248 501.00
41.59 502.00
41.6552 437.00
41.7204 498.00
41.7856 479.00
41.8508 496.00
41.916 502.00
41.9812 498.00
42.0464 465.00
42.1116 491.00
42.1768 480.00
42.242 487.00
42.3072 511.00
42.3724 482.00
42.4376 493.00
42.5028 489.00
42.568 503.00
42.6332 500.00
42.6983 502.00
42.7635 486.00
42.8287 488.00
42.8939 529.00
42.9591 515.00
43.0243 578.00
43.0895 494.00
43.1547 518.00
43.2199 514.00
43.2851 489.00
43.3503 500.00
43.4155 532.00
43.4807 484.00
43.5459 548.00
43.6111 544.00
43.6763 521.00
43.7415 511.00
43.8067 514.00
43.8719 463.00
43.9371 549.00
44.0023 501.00
44.0675 539.00
44.1327 545.00
44.1979 563.00
44.2631 543.00
44.3283 550.00
44.3935 551.00
44.4587 449.00
44.5239 533.00
44.5891 505.00
44.6543 549.00
44.7195 422.00
44.7847 491.00
44.8499 510.00
44.9151 427.00
44.9803 442.00
45.0455 489.00
45.1107 477.00
45.1759 453.00
45.2411 533.00
45.3063 499.00
45.3715 497.00
45.4367 501.00
45.5019 468.00
45.5671 481.00
45.6323 492.00
45.6975 501.00
45.7627 507.00
45.8279 552.00
45.8931 554.00
45.9583 624.00
46.0235 646.00
46.0887 541.00
46.1539 560.00
46.2191 551.00
46.2843 504.00
46.3495 464.00
46.4147 440.00
46.4799 438.00
46.5451 470.00
46.6103 490.00
46.6755 431.00
46.7407 461.00
46.8059 433.00
46.8711 447.00
46.9363 464.00
47.0015 474.00
47.0667 408.00
47.1319 458.00
47.1971 415.00
47.2623 447.00
47.3275 430.00
47.3927 471.00
47.4579 448.00
47.523 452.00
47.5882 445.00
47.6534 467.00
47.7186 422.00
47.7838 409.00
47.849 448.00
47.9142 481.00
47.9794 505.00
48.0446 563.00
48.1098 500.00
48.175 479.00
48.2402 516.00
48.3054 448.00
48.3706 513.00
48.4358 436.00
48.501 436.00
48.5662 404.00
48.6314 467.00
48.6966 468.00
48.7618 417.00
48.827 430.00
48.8922 438.00
48.9574 465.00
49.0226 448.00
49.0878 443.00
49.153 442.00
49.2182 439.00
49.2834 514.00
49.3486 500.00
49.4138 545.00
49.479 556.00
49.5442 576.00
49.6094 582.00
49.6746 593.00
49.7398 539.00
49.805 513.00
49.8702 504.00
49.9354 464.00
50.0006 455.00
50.0658 476.00
50.131 499.00
50.1962 467.00
50.2614 476.00
50.3266 530.00
50.3918 497.00
50.457 515.00
50.5222 487.00
50.5874 485.00
50.6526 486.00
50.7178 459.00
50.783 504.00
50.8482 487.00
50.9134 530.00
50.9786 495.00
51.0438 608.00
51.109 636.00
51.1742 642.00
51.2394 703.00
51.3046 680.00
51.3698 674.00
51.435 643.00
51.5002 624.00
51.5654 639.00
51.6306 658.00
51.6958 718.00
51.761 758.00
51.8262 822.00
51.8914 1141.00
51.9566 1643.00
52.0218 2648.00
52.087 4056.00
52.1522 4479.00
52.2174 3763.00
52.2826 2908.00
52.3477 1934.00
52.4129 1268.00
52.4781 849.00
52.5433 703.00
52.6085 570.00
52.6737 569.00
52.7389 510.00
52.8041 470.00
52.8693 487.00
52.9345 470.00
52.9997 471.00
53.0649 492.00
53.1301 420.00
53.1953 479.00
53.2605 487.00
53.3257 476.00
53.3909 456.00
53.4561 441.00
53.5213 430.00
53.5865 434.00
53.6517 433.00
53.7169 397.00
53.7821 416.00
53.8473 412.00
53.9125 426.00
53.9777 401.00
54.0429 458.00
54.1081 423.00
54.1733 431.00
54.2385 410.00
54.3037 402.00
54.3689 424.00
54.4341 417.00
54.4993 449.00
54.5645 443.00
54.6297 465.00
54.6949 477.00
54.7601 461.00
54.8253 540.00
54.8905 611.00
54.9557 690.00
55.0209 1026.00
55.0861 1349.00
55.1513 1402.00
55.2165 1250.00
55.2817 1064.00
55.3469 750.00
55.4121 602.00
55.4773 458.00
55.5425 484.00
55.6077 461.00
55.6729 441.00
55.7381 440.00
55.8033 411.00
55.8685 448.00
55.9337 408.00
55.9989 438.00
56.0641 434.00
56.1293 440.00
56.1945 412.00
56.2597 417.00
56.3249 432.00
56.3901 430.00
56.4553 406.00
56.5205 428.00
56.5857 446.00
56.6509 414.00
56.7161 385.00
56.7813 435.00
56.8465 435.00
56.9117 451.00
56.9769 459.00
57.042 466.00
57.1073 441.00
57.1724 450.00
57.2376 472.00
57.3028 438.00
57.368 393.00
57.4332 365.00
57.4984 406.00
57.5636 415.00
57.6288 438.00
57.694 440.00
57.7592 463.00
57.8244 519.00
57.8896 531.00
57.9548 582.00
58.02 681.00
58.0852 762.00
58.1504 895.00
58.2156 855.00
58.2808 720.00
58.346 735.00
58.4112 608.00
58.4764 532.00
58.5416 537.00
58.6068 508.00
58.672 517.00
58.7372 499.00
58.8024 530.00
58.8676 483.00
58.9328 438.00
58.998 459.00
59.0632 433.00
59.1284 412.00
59.1936 411.00
59.2588 411.00
59.324 434.00
59.3892 412.00
59.4544 433.00
59.5196 404.00
59.5848 418.00
59.65 395.00
59.7152 388.00
59.7804 390.00
59.8456 460.00
59.9108 387.00
59.976 443.00
60.0412 415.00
60.1064 421.00
60.1716 430.00
60.2368 487.00
60.302 431.00
60.3672 457.00
60.4324 531.00
60.4976 561.00
60.5628 620.00
60.628 613.00
60.6932 650.00
60.7584 623.00
60.8236 606.00
60.8888 534.00
60.954 487.00
61.0192 520.00
61.0844 508.00
61.1496 436.00
61.2148 466.00
61.28 418.00
61.3452 399.00
61.4104 370.00
61.4756 406.00
61.5408 441.00
61.606 453.00
61.6712 458.00
61.7364 409.00
61.8016 473.00
61.8667 453.00
61.932 522.00
61.9971 572.00
62.0623 699.00
62.1275 928.00
62.1927 1064.00
62.2579 1159.00
62.3231 1089.00
62.3883 916.00
62.4535 804.00
62.5187 662.00
62.5839 611.00
62.6491 510.00
62.7143 480.00
62.7795 363.00
62.8447 434.00
62.9099 459.00
62.9751 428.00
63.0403 433.00
63.1055 418.00
63.1707 429.00
63.2359 422.00
63.3011 445.00
63.3663 427.00
63.4315 383.00
63.4967 457.00
63.5619 485.00
63.6271 463.00
63.6923 471.00
63.7575 488.00
63.8227 473.00
63.8879 452.00
63.9531 400.00
64.0183 432.00
64.0835 399.00
64.1487 435.00
64.2139 444.00
64.2791 419.00
64.3443 390.00
64.4095 448.00
64.4747 420.00
64.5399 446.00
64.6051 437.00
64.6703 509.00
64.7355 526.00
64.8007 553.00
64.8659 648.00
64.9311 884.00
64.9963 1194.00
65.0615 1334.00
65.1267 1219.00
65.1919 1063.00
65.2571 958.00
65.3223 789.00
65.3875 630.00
65.4527 537.00
65.5179 452.00
65.5831 436.00
65.6483 436.00
65.7135 423.00
65.7787 412.00
65.8439 472.00
65.9091 459.00
65.9743 540.00
66.0395 621.00
66.1047 753.00
66.1699 920.00
66.2351 1258.00
66.3003 1354.00
66.3655 1359.00
66.4307 1099.00
66.4959 1026.00
66.561 838.00
66.6263 746.00
66.6915 633.00
66.7566 528.00
66.8218 463.00
66.887 471.00
66.9522 444.00
67.0174 396.00
67.0826 416.00
67.1478 375.00
67.213 387.00
67.2782 420.00
67.3434 433.00
67.4086 420.00
67.4738 425.00
67.539 407.00
67.6042 387.00
67.6694 406.00
67.7346 408.00
67.7998 346.00
67.865 364.00
67.9302 396.00
67.9954 366.00
68.0606 352.00
68.1258 354.00
68.191 348.00
68.2562 361.00
68.3214 392.00
68.3866 398.00
68.4518 390.00
68.517 375.00
68.5822 381.00
68.6474 375.00
68.7126 352.00
68.7778 344.00
68.843 392.00
68.9082 379.00
68.9734 350.00
69.0386 365.00
69.1038 412.00
69.169 396.00
69.2342 392.00
69.2994 390.00
69.3646 393.00
69.4298 393.00
69.495 365.00
69.5602 386.00
69.6254 392.00
69.6906 375.00
69.7558 352.00
69.821 358.00
69.8862 374.00
69.9514 365.00
70.0166 354.00
70.0818 422.00
70.147 335.00
70.2122 382.00
70.2774 358.00
70.3426 384.00
70.4078 372.00
70.473 369.00
70.5382 349.00
70.6034 375.00
70.6686 345.00
70.7338 356.00
70.799 343.00
70.8642 387.00
70.9294 387.00
70.9946 390.00
71.0598 373.00
71.125 405.00
71.1902 403.00
71.2554 417.00
71.3205 463.00
71.3858 465.00
71.451 621.00
71.5162 780.00
71.5813 769.00
71.6465 779.00
71.7117 749.00
71.7769 683.00
71.8421 610.00
71.9073 543.00
71.9725 450.00
72.0377 413.00
72.1029 416.00
72.1681 373.00
72.2333 390.00
72.2985 376.00
72.3637 367.00
72.4289 393.00
72.4941 404.00
72.5593 441.00
72.6245 358.00
72.6897 404.00
72.7549 360.00
72.8201 356.00
72.8853 350.00
72.9505 366.00
73.0157 378.00
73.0809 365.00
73.1461 352.00
73.2113 313.00
73.2765 328.00
73.3417 325.00
73.4069 352.00
73.4721 351.00
73.5373 326.00
73.6025 352.00
73.6677 323.00
73.7329 336.00
73.7981 303.00
73.8633 344.00
73.9285 340.00
73.9937 332.00
74.0589 332.00
74.1241 361.00
74.1893 309.00
74.2545 352.00
74.3197 344.00
74.3849 354.00
74.4501 365.00
74.5153 337.00
74.5805 348.00
74.6457 358.00
74.7109 394.00
74.7761 357.00
74.8413 373.00
74.9065 412.00
74.9717 349.00
75.0369 355.00
75.1021 389.00
75.1673 352.00
75.2325 359.00
75.2977 327.00
75.3629 366.00
75.4281 329.00
75.4933 331.00
75.5585 331.00
75.6237 302.00
75.6889 327.00
75.7541 363.00
75.8193 303.00
75.8845 288.00
75.9497 352.00
76.0149 324.00
76.0801 345.00
76.1452 345.00
76.2104 305.00
76.2756 292.00
76.3409 348.00
76.406 314.00
76.4712 309.00
76.5364 333.00
76.6016 334.00
76.6668 325.00
76.732 306.00
76.7972 355.00
76.8624 300.00
76.9276 327.00
76.9928 317.00
77.058 320.00
77.1232 308.00
77.1884 336.00
77.2536 310.00
77.3188 326.00
77.384 343.00
77.4492 321.00
77.5144 384.00
77.5796 390.00
77.6448 359.00
77.71 328.00
77.7752 312.00
77.8404 349.00
77.9056 302.00
77.9708 335.00
78.036 348.00
78.1012 336.00
78.1664 335.00
78.2316 341.00
78.2968 340.00
78.362 370.00
78.4272 349.00
78.4924 357.00
78.5576 356.00
78.6228 375.00
78.688 399.00
78.7532 433.00
78.8184 520.00
78.8836 711.00
78.9488 958.00
79.014 994.00
79.0792 1007.00
79.1444 924.00
79.2096 879.00
79.2748 780.00
79.34 658.00
79.4052 571.00
79.4704 476.00
79.5356 411.00
79.6008 436.00
79.666 385.00
79.7312 375.00
79.7964 371.00
79.8616 353.00
79.9268 380.00
79.992 380.00
80.0572 361.00
80.1224 340.00
80.1876 318.00
80.2528 322.00
80.318 326.00
80.3832 351.00
80.4484 347.00
80.5136 372.00
80.5788 322.00
80.644 346.00
80.7092 374.00
80.7744 362.00
80.8396 345.00
80.9048 393.00
80.9699 403.00
81.0351 396.00
81.1003 415.00
81.1655 416.00
81.2307 422.00
81.2959 468.00
81.3611 515.00
81.4263 567.00
81.4915 485.00
81.5567 495.00
81.6219 478.00
81.6871 465.00
81.7523 443.00
81.8175 422.00
81.8827 362.00
81.9479 422.00
82.0131 330.00
82.0783 356.00
82.1435 370.00
82.2087 333.00
82.2739 344.00
82.3391 330.00
82.4043 352.00
82.4695 336.00
82.5347 348.00
82.5999 325.00
82.6651 324.00
82.7303 301.00
82.7955 358.00
82.8607 355.00
82.9259 364.00
82.9911 356.00
83.0563 309.00
83.1215 308.00
83.1867 319.00
83.2519 325.00
83.3171 330.00
83.3823 369.00
83.4475 365.00
83.5127 354.00
83.5779 388.00
83.6431 393.00
83.7083 368.00
83.7735 500.00
83.8387 549.00
83.9039 693.00
83.9691 829.00
84.0343 868.00
84.0995 729.00
84.1647 740.00
84.2299 662.00
84.2951 591.00
84.3603 492.00
84.4255 468.00
84.4907 417.00
84.5559 377.00
84.6211 368.00
84.6863 363.00
84.7515 313.00
84.8167 340.00
84.8819 344.00
84.9471 343.00
85.0123 335.00
85.0775 346.00
85.1427 343.00
85.2079 364.00
85.2731 358.00
85.3383 334.00
85.4035 348.00
85.4687 329.00
85.5339 321.00
85.5991 349.00
85.6643 350.00
85.7295 329.00
85.7946 333.00
85.8598 316.00
85.925 312.00
85.9903 319.00
86.0554 355.00
86.1206 319.00
86.1858 320.00
86.251 308.00
86.3162 330.00
86.3814 335.00
86.4466 322.00
86.5118 324.00
86.577 305.00
86.6422 320.00
86.7074 320.00
86.7726 339.00
86.8378 335.00
86.903 335.00
86.9682 346.00
87.0334 337.00
87.0986 313.00
87.1638 355.00
87.229 374.00
87.2942 383.00
87.3594 394.00
87.4246 518.00
87.4898 549.00
87.555 584.00
87.6202 565.00
87.6854 511.00
87.7506 563.00
87.8158 515.00
87.881 491.00
87.9462 458.00
88.0114 406.00
88.0766 423.00
88.1418 357.00
88.207 395.00
88.2722 396.00
88.3374 400.00
88.4026 355.00
88.4678 367.00
88.533 354.00
88.5982 381.00
88.6634 347.00
88.7286 322.00
88.7938 346.00
88.859 345.00
88.9242 350.00
88.9894 333.00
89.0546 399.00
89.1198 368.00
89.185 371.00
89.2502 369.00
89.3154 366.00
89.3806 387.00
89.4458 334.00
89.511 358.00
89.5762 377.00
89.6414 374.00
89.7066 450.00
89.7718 446.00
89.837 526.00
89.9022 641.00
89.9674 796.00
90.0326 894.00
90.0978 904.00
90.163 823.00
90.2282 791.00
90.2934 732.00
90.3586 716.00
90.4238 659.00
90.489 554.00
90.5542 508.00
90.6193 464.00
90.6845 472.00
90.7497 468.00
90.8149 431.00
90.8801 519.00
90.9453 564.00
91.0105 641.00
91.0757 697.00
91.1409 818.00
91.2061 819.00
91.2713 827.00
91.3365 830.00
91.4017 742.00
91.4669 754.00
91.5321 659.00
91.5973 603.00
91.6625 490.00
91.7277 458.00
91.7929 432.00
91.8581 386.00
91.9233 383.00
91.9885 387.00
92.0537 350.00
92.1189 373.00
92.1841 383.00
92.2493 360.00
92.3145 353.00
92.3797 322.00
92.4449 335.00
92.5101 359.00
92.5753 391.00
92.6405 365.00
92.7057 388.00
92.7709 333.00
92.8361 375.00
92.9013 360.00
92.9665 384.00
93.0317 375.00
93.0969 382.00
93.1621 368.00
93.2273 376.00
93.2925 442.00
93.3577 430.00
93.4229 506.00
93.4881 527.00
93.5533 618.00
93.6185 603.00
93.6837 538.00
93.7489 552.00
93.8141 572.00
93.8793 530.00
93.9445 458.00
94.0097 412.00
94.0749 422.00
94.1401 372.00
94.2053 348.00
94.2705 356.00
94.3357 352.00
94.4009 373.00
94.4661 375.00
94.5313 329.00
94.5965 359.00
94.6617 345.00
94.7269 327.00
94.7921 347.00
94.8573 330.00
94.9225 358.00
94.9877 330.00
95.0529 400.00
95.1181 318.00
95.1833 306.00
95.2485 336.00
95.3137 315.00
95.3789 333.00
95.444 343.00
95.5092 362.00
95.5744 359.00
95.6396 327.00
95.7048 344.00
95.77 350.00
95.8352 357.00
95.9004 379.00
95.9656 408.00
96.0308 414.00
96.096 470.00
96.1612 531.00
96.2264 632.00
96.2916 570.00
96.3568 555.00
96.422 527.00
96.4872 546.00
96.5524 530.00
96.6176 528.00
96.6828 474.00
96.748 458.00
96.8132 386.00
96.8784 414.00
96.9436 403.00
97.0088 364.00
97.074 345.00
97.1392 379.00
97.2044 354.00
97.2696 342.00
97.3348 342.00
97.4 331.00
97.4652 336.00
97.5304 324.00
97.5956 341.00
97.6608 323.00
97.726 327.00
97.7912 347.00
97.8564 368.00
97.9216 328.00
97.9868 380.00
98.052 327.00
98.1172 359.00
98.1824 339.00
98.2476 382.00
98.3128 294.00
98.378 365.00
98.4432 331.00
98.5084 363.00
98.5736 321.00
98.6388 316.00
98.704 356.00
98.7692 335.00
98.8344 335.00
98.8996 331.00
98.9648 358.00
99.03 364.00
99.0952 346.00
99.1604 329.00
99.2256 339.00
99.2908 360.00
99.356 326.00
99.4212 316.00
99.4864 306.00
99.5516 348.00
99.6168 303.00
99.682 319.00
99.7472 342.00
99.8124 339.00
99.8776 362.00
99.9428 356.00
100.008 341.00
100.073 359.00
100.095 368.00