File: data/xrd_creation/results/Na_141.xy
9.903433 2710.00
9.968632 2677.00
10.0338 2699.00
10.099 2532.00
10.1642 2582.00
10.2294 2603.00
10.2946 2612.00
10.3598 2575.00
10.425 2496.00
10.4902 2489.00
10.5554 2462.00
10.6206 2470.00
10.6858 2410.00
10.751 2408.00
10.8162 2432.00
10.8814 2277.00
10.9466 2363.00
11.0118 2395.00
11.077 2371.00
11.1422 2328.00
11.2074 2404.00
11.2726 2359.00
11.3378 2279.00
11.403 2226.00
11.4682 2182.00
11.5334 2273.00
11.5986 2204.00
11.6638 2141.00
11.729 2151.00
11.7942 2073.00
11.8594 2114.00
11.9246 1973.00
11.9898 2082.00
12.055 2158.00
12.1202 2047.00
12.1854 2130.00
12.2506 2072.00
12.3158 2090.00
12.381 1990.00
12.4462 2039.00
12.5114 1955.00
12.5766 1943.00
12.6418 2017.00
12.707 1840.00
12.7722 1904.00
12.8374 1964.00
12.9026 1857.00
12.9678 1835.00
13.033 1868.00
13.0982 1821.00
13.1634 1922.00
13.2286 1854.00
13.2938 1778.00
13.359 1856.00
13.4242 1778.00
13.4894 1779.00
13.5546 1804.00
13.6198 1810.00
13.685 1793.00
13.7502 1865.00
13.8154 1793.00
13.8805 1770.00
13.9457 1812.00
14.0109 1814.00
14.0761 1707.00
14.1413 1698.00
14.2065 1682.00
14.2717 1809.00
14.3369 1727.00
14.4021 1786.00
14.4673 1750.00
14.5325 1725.00
14.5977 1603.00
14.6629 1725.00
14.7281 1700.00
14.7933 1649.00
14.8585 1671.00
14.9237 1636.00
14.9889 1590.00
15.0541 1691.00
15.1193 1672.00
15.1845 1671.00
15.2497 1645.00
15.3149 1635.00
15.3801 1685.00
15.4453 1666.00
15.5105 1653.00
15.5757 1623.00
15.6409 1678.00
15.7061 1631.00
15.7713 1684.00
15.8365 1606.00
15.9017 1579.00
15.9669 1606.00
16.0321 1635.00
16.0973 1577.00
16.1625 1614.00
16.2277 1617.00
16.2929 1588.00
16.3581 1612.00
16.4233 1568.00
16.4885 1554.00
16.5537 1522.00
16.6189 1614.00
16.6841 1547.00
16.7493 1611.00
16.8145 1594.00
16.8797 1530.00
16.9449 1560.00
17.0101 1534.00
17.0753 1547.00
17.1405 1566.00
17.2057 1574.00
17.2709 1608.00
17.3361 1558.00
17.4013 1538.00
17.4665 1566.00
17.5317 1582.00
17.5969 1557.00
17.6621 1521.00
17.7273 1468.00
17.7925 1539.00
17.8577 1548.00
17.9229 1492.00
17.9881 1556.00
18.0533 1542.00
18.1185 1506.00
18.1837 1460.00
18.2489 1470.00
18.3141 1562.00
18.3793 1432.00
18.4445 1517.00
18.5097 1454.00
18.5749 1542.00
18.6401 1521.00
18.7052 1477.00
18.7704 1444.00
18.8356 1450.00
18.9008 1550.00
18.966 1598.00
19.0312 1539.00
19.0964 1508.00
19.1616 1588.00
19.2268 1588.00
19.292 1654.00
19.3572 1850.00
19.4224 1939.00
19.4876 2242.00
19.5528 2595.00
19.618 2821.00
19.6832 2885.00
19.7484 2307.00
19.8136 1917.00
19.8788 1571.00
19.944 1523.00
20.0092 1465.00
20.0744 1505.00
20.1396 1472.00
20.2048 1489.00
20.27 1422.00
20.3352 1483.00
20.4004 1494.00
20.4656 1462.00
20.5308 1485.00
20.596 1532.00
20.6612 1470.00
20.7264 1581.00
20.7916 1476.00
20.8568 1493.00
20.922 1464.00
20.9872 1464.00
21.0524 1473.00
21.1176 1399.00
21.1828 1446.00
21.248 1462.00
21.3132 1479.00
21.3784 1432.00
21.4436 1409.00
21.5088 1439.00
21.574 1459.00
21.6392 1434.00
21.7044 1422.00
21.7696 1448.00
21.8348 1465.00
21.9 1478.00
21.9652 1532.00
22.0304 1523.00
22.0956 1541.00
22.1608 1576.00
22.226 1762.00
22.2912 1976.00
22.3564 2059.00
22.4216 2288.00
22.4868 2867.00
22.552 3533.00
22.6172 4642.00
22.6824 5142.00
22.7476 4170.00
22.8128 2752.00
22.878 1875.00
22.9432 1661.00
23.0084 1633.00
23.0736 1561.00
23.1388 1496.00
23.204 1549.00
23.2692 1472.00
23.3344 1530.00
23.3996 1548.00
23.4647 1469.00
23.5299 1485.00
23.5951 1406.00
23.6603 1515.00
23.7255 1512.00
23.7907 1483.00
23.8559 1518.00
23.9211 1498.00
23.9863 1465.00
24.0515 1476.00
24.1167 1505.00
24.1819 1486.00
24.2471 1481.00
24.3123 1511.00
24.3775 1547.00
24.4427 1518.00
24.5079 1508.00
24.5731 1482.00
24.6383 1423.00
24.7035 1380.00
24.7687 1414.00
24.8339 1504.00
24.8991 1492.00
24.9643 1479.00
25.0295 1518.00
25.0947 1631.00
25.1599 1665.00
25.2251 1898.00
25.2903 2137.00
25.3555 2203.00
25.4207 2143.00
25.4859 1674.00
25.5511 1527.00
25.6163 1487.00
25.6815 1380.00
25.7467 1376.00
25.8119 1373.00
25.8771 1355.00
25.9423 1375.00
26.0075 1455.00
26.0727 1367.00
26.1379 1266.00
26.2031 1400.00
26.2683 1421.00
26.3335 1352.00
26.3987 1359.00
26.4639 1369.00
26.5291 1294.00
26.5943 1348.00
26.6595 1275.00
26.7247 1381.00
26.7899 1280.00
26.8551 1262.00
26.9203 1261.00
26.9855 1270.00
27.0507 1260.00
27.1159 1372.00
27.1811 1366.00
27.2463 1387.00
27.3115 1313.00
27.3767 1330.00
27.4419 1341.00
27.5071 1412.00
27.5723 1521.00
27.6375 1688.00
27.7027 1921.00
27.7679 2014.00
27.8331 2072.00
27.8983 1751.00
27.9635 1432.00
28.0287 1312.00
28.0939 1295.00
28.1591 1232.00
28.2243 1231.00
28.2894 1195.00
28.3546 1184.00
28.4198 1194.00
28.485 1190.00
28.5502 1202.00
28.6154 1185.00
28.6806 1187.00
28.7458 1270.00
28.811 1155.00
28.8762 1251.00
28.9414 1188.00
29.0066 1181.00
29.0718 1124.00
29.137 1178.00
29.2022 1162.00
29.2674 1168.00
29.3326 1147.00
29.3978 1129.00
29.463 1155.00
29.5282 1146.00
29.5934 1178.00
29.6586 1157.00
29.7238 1149.00
29.789 1214.00
29.8542 1138.00
29.9194 1124.00
29.9846 1163.00
30.0498 1219.00
30.115 1218.00
30.1802 1118.00
30.2454 1084.00
30.3106 1085.00
30.3758 1081.00
30.441 1120.00
30.5062 1007.00
30.5714 1058.00
30.6366 1104.00
30.7018 1067.00
30.767 1058.00
30.8322 1005.00
30.8974 1083.00
30.9626 1014.00
31.0278 1094.00
31.093 1078.00
31.1582 1060.00
31.2234 1058.00
31.2886 1042.00
31.3538 1017.00
31.419 1058.00
31.4842 1072.00
31.5494 1146.00
31.6146 1082.00
31.6798 1070.00
31.745 1118.00
31.8102 1132.00
31.8754 1215.00
31.9406 1378.00
32.0058 1722.00
32.071 2103.00
32.1362 2406.00
32.2014 2177.00
32.2666 1859.00
32.3318 1334.00
32.397 1107.00
32.4622 1092.00
32.5274 993.00
32.5926 1023.00
32.6578 1030.00
32.723 993.00
32.7882 1011.00
32.8534 1042.00
32.9186 1002.00
32.9838 962.00
33.0489 991.00
33.1141 1014.00
33.1793 938.00
33.2445 892.00
33.3097 970.00
33.3749 923.00
33.4401 892.00
33.5053 985.00
33.5705 988.00
33.6357 901.00
33.7009 939.00
33.7661 927.00
33.8313 966.00
33.8965 919.00
33.9617 951.00
34.0269 998.00
34.0921 999.00
34.1573 955.00
34.2225 930.00
34.2877 947.00
34.3529 977.00
34.4181 985.00
34.4833 944.00
34.5485 971.00
34.6137 934.00
34.6789 974.00
34.7441 872.00
34.8093 870.00
34.8745 894.00
34.9397 899.00
35.0049 924.00
35.0701 921.00
35.1353 917.00
35.2005 870.00
35.2657 872.00
35.3309 916.00
35.3961 830.00
35.4613 851.00
35.5265 865.00
35.5917 843.00
35.6569 873.00
35.7221 851.00
35.7873 888.00
35.8525 882.00
35.9177 891.00
35.9829 779.00
36.0481 826.00
36.1133 844.00
36.1785 838.00
36.2437 853.00
36.3089 840.00
36.3741 863.00
36.4393 923.00
36.5045 907.00
36.5697 859.00
36.6349 864.00
36.7001 814.00
36.7653 832.00
36.8305 835.00
36.8957 834.00
36.9609 853.00
37.0261 875.00
37.0913 800.00
37.1565 838.00
37.2217 847.00
37.2869 899.00
37.3521 838.00
37.4173 899.00
37.4825 1019.00
37.5477 1046.00
37.6129 1312.00
37.6781 1713.00
37.7433 2247.00
37.8085 2877.00
37.8736 2773.00
37.9388 2263.00
38.004 1521.00
38.0692 1191.00
38.1344 997.00
38.1996 880.00
38.2648 805.00
38.33 860.00
38.3952 838.00
38.4604 806.00
38.5256 799.00
38.5908 777.00
38.656 793.00
38.7212 817.00
38.7864 817.00
38.8516 746.00
38.9168 806.00
38.982 816.00
39.0472 805.00
39.1124 782.00
39.1776 787.00
39.2428 847.00
39.308 827.00
39.3732 956.00
39.4384 1056.00
39.5036 1243.00
39.5688 1335.00
39.634 1190.00
39.6992 1056.00
39.7644 976.00
39.8296 856.00
39.8948 862.00
39.96 755.00
40.0252 789.00
40.0904 735.00
40.1556 775.00
40.2208 707.00
40.286 779.00
40.3512 749.00
40.4164 712.00
40.4816 777.00
40.5468 789.00
40.612 726.00
40.6772 694.00
40.7424 722.00
40.8076 758.00
40.8728 734.00
40.938 759.00
41.0032 736.00
41.0684 792.00
41.1336 798.00
41.1988 822.00
41.264 833.00
41.3292 817.00
41.3944 797.00
41.4596 749.00
41.5248 738.00
41.59 707.00
41.6552 748.00
41.7204 657.00
41.7856 710.00
41.8508 787.00
41.916 752.00
41.9812 679.00
42.0464 750.00
42.1116 750.00
42.1768 736.00
42.242 738.00
42.3072 722.00
42.3724 707.00
42.4376 784.00
42.5028 730.00
42.568 758.00
42.6332 732.00
42.6983 773.00
42.7635 727.00
42.8287 742.00
42.8939 738.00
42.9591 723.00
43.0243 773.00
43.0895 712.00
43.1547 766.00
43.2199 774.00
43.2851 759.00
43.3503 788.00
43.4155 761.00
43.4807 797.00
43.5459 722.00
43.6111 778.00
43.6763 813.00
43.7415 763.00
43.8067 785.00
43.8719 789.00
43.9371 757.00
44.0023 726.00
44.0675 790.00
44.1327 740.00
44.1979 683.00
44.2631 700.00
44.3283 714.00
44.3935 687.00
44.4587 696.00
44.5239 664.00
44.5891 721.00
44.6543 672.00
44.7195 696.00
44.7847 693.00
44.8499 706.00
44.9151 677.00
44.9803 667.00
45.0455 687.00
45.1107 707.00
45.1759 736.00
45.2411 660.00
45.3063 679.00
45.3715 720.00
45.4367 748.00
45.5019 659.00
45.5671 710.00
45.6323 800.00
45.6975 764.00
45.7627 778.00
45.8279 773.00
45.8931 860.00
45.9583 849.00
46.0235 873.00
46.0887 815.00
46.1539 745.00
46.2191 754.00
46.2843 726.00
46.3495 683.00
46.4147 722.00
46.4799 755.00
46.5451 653.00
46.6103 741.00
46.6755 703.00
46.7407 688.00
46.8059 706.00
46.8711 650.00
46.9363 728.00
47.0015 719.00
47.0667 708.00
47.1319 739.00
47.1971 650.00
47.2623 669.00
47.3275 752.00
47.3927 760.00
47.4579 779.00
47.523 742.00
47.5882 742.00
47.6534 710.00
47.7186 741.00
47.7838 705.00
47.849 705.00
47.9142 679.00
47.9794 706.00
48.0446 651.00
48.1098 625.00
48.175 712.00
48.2402 680.00
48.3054 681.00
48.3706 676.00
48.4358 670.00
48.501 696.00
48.5662 713.00
48.6314 691.00
48.6966 718.00
48.7618 709.00
48.827 702.00
48.8922 727.00
48.9574 707.00
49.0226 677.00
49.0878 709.00
49.153 708.00
49.2182 708.00
49.2834 662.00
49.3486 683.00
49.4138 678.00
49.479 677.00
49.5442 672.00
49.6094 677.00
49.6746 686.00
49.7398 679.00
49.805 745.00
49.8702 705.00
49.9354 716.00
50.0006 734.00
50.0658 785.00
50.131 855.00
50.1962 1022.00
50.2614 1136.00
50.3266 1233.00
50.3918 1258.00
50.457 1144.00
50.5222 918.00
50.5874 857.00
50.6526 767.00
50.7178 732.00
50.783 683.00
50.8482 714.00
50.9134 657.00
50.9786 647.00
51.0438 726.00
51.109 729.00
51.1742 713.00
51.2394 732.00
51.3046 759.00
51.3698 795.00
51.435 861.00
51.5002 989.00
51.5654 1109.00
51.6306 1229.00
51.6958 1418.00
51.761 1358.00
51.8262 1210.00
51.8914 1132.00
51.9566 974.00
52.0218 780.00
52.087 713.00
52.1522 652.00
52.2174 709.00
52.2826 689.00
52.3477 692.00
52.4129 646.00
52.4781 628.00
52.5433 652.00
52.6085 604.00
52.6737 586.00
52.7389 618.00
52.8041 651.00
52.8693 633.00
52.9345 688.00
52.9997 658.00
53.0649 680.00
53.1301 651.00
53.1953 677.00
53.2605 638.00
53.3257 633.00
53.3909 628.00
53.4561 635.00
53.5213 638.00
53.5865 612.00
53.6517 629.00
53.7169 641.00
53.7821 641.00
53.8473 642.00
53.9125 623.00
53.9777 647.00
54.0429 679.00
54.1081 660.00
54.1733 587.00
54.2385 633.00
54.3037 682.00
54.3689 658.00
54.4341 648.00
54.4993 665.00
54.5645 625.00
54.6297 640.00
54.6949 594.00
54.7601 647.00
54.8253 666.00
54.8905 719.00
54.9557 693.00
55.0209 627.00
55.0861 719.00
55.1513 700.00
55.2165 633.00
55.2817 688.00
55.3469 679.00
55.4121 642.00
55.4773 641.00
55.5425 611.00
55.6077 657.00
55.6729 645.00
55.7381 612.00
55.8033 582.00
55.8685 645.00
55.9337 609.00
55.9989 633.00
56.0641 639.00
56.1293 600.00
56.1945 654.00
56.2597 612.00
56.3249 605.00
56.3901 618.00
56.4553 623.00
56.5205 664.00
56.5857 650.00
56.6509 701.00
56.7161 767.00
56.7813 743.00
56.8465 846.00
56.9117 985.00
56.9769 1175.00
57.042 1191.00
57.1073 1124.00
57.1724 1011.00
57.2376 983.00
57.3028 830.00
57.368 731.00
57.4332 702.00
57.4984 671.00
57.5636 651.00
57.6288 586.00
57.694 574.00
57.7592 593.00
57.8244 613.00
57.8896 628.00
57.9548 604.00
58.02 557.00
58.0852 525.00
58.1504 640.00
58.2156 635.00
58.2808 621.00
58.346 561.00
58.4112 596.00
58.4764 582.00
58.5416 570.00
58.6068 580.00
58.672 589.00
58.7372 559.00
58.8024 605.00
58.8676 569.00
58.9328 590.00
58.998 637.00
59.0632 593.00
59.1284 590.00
59.1936 522.00
59.2588 622.00
59.324 592.00
59.3892 586.00
59.4544 572.00
59.5196 567.00
59.5848 539.00
59.65 553.00
59.7152 593.00
59.7804 544.00
59.8456 587.00
59.9108 578.00
59.976 581.00
60.0412 566.00
60.1064 579.00
60.1716 620.00
60.2368 602.00
60.302 615.00
60.3672 649.00
60.4324 669.00
60.4976 736.00
60.5628 752.00
60.628 926.00
60.6932 1159.00
60.7584 1245.00
60.8236 1335.00
60.8888 1316.00
60.954 1196.00
61.0192 1025.00
61.0844 932.00
61.1496 824.00
61.2148 668.00
61.28 631.00
61.3452 620.00
61.4104 589.00
61.4756 602.00
61.5408 605.00
61.606 560.00
61.6712 562.00
61.7364 588.00
61.8016 602.00
61.8667 565.00
61.932 653.00
61.9971 587.00
62.0623 596.00
62.1275 550.00
62.1927 564.00
62.2579 556.00
62.3231 592.00
62.3883 584.00
62.4535 571.00
62.5187 539.00
62.5839 529.00
62.6491 559.00
62.7143 564.00
62.7795 600.00
62.8447 528.00
62.9099 553.00
62.9751 533.00
63.0403 547.00
63.1055 519.00
63.1707 550.00
63.2359 532.00
63.3011 574.00
63.3663 573.00
63.4315 567.00
63.4967 554.00
63.5619 575.00
63.6271 540.00
63.6923 526.00
63.7575 514.00
63.8227 526.00
63.8879 535.00
63.9531 551.00
64.0183 537.00
64.0835 508.00
64.1487 528.00
64.2139 506.00
64.2791 534.00
64.3443 513.00
64.4095 602.00
64.4747 551.00
64.5399 537.00
64.6051 572.00
64.6703 537.00
64.7355 520.00
64.8007 525.00
64.8659 556.00
64.9311 469.00
64.9963 519.00
65.0615 503.00
65.1267 540.00
65.1919 549.00
65.2571 547.00
65.3223 556.00
65.3875 507.00
65.4527 480.00
65.5179 512.00
65.5831 533.00
65.6483 528.00
65.7135 503.00
65.7787 524.00
65.8439 479.00
65.9091 500.00
65.9743 527.00
66.0395 487.00
66.1047 465.00
66.1699 468.00
66.2351 531.00
66.3003 535.00
66.3655 550.00
66.4307 543.00
66.4959 556.00
66.561 565.00
66.6263 589.00
66.6915 575.00
66.7566 636.00
66.8218 693.00
66.887 737.00
66.9522 714.00
67.0174 726.00
67.0826 675.00
67.1478 562.00
67.213 603.00
67.2782 551.00
67.3434 565.00
67.4086 532.00
67.4738 543.00
67.539 564.00
67.6042 551.00
67.6694 514.00
67.7346 544.00
67.7998 553.00
67.865 485.00
67.9302 525.00
67.9954 544.00
68.0606 548.00
68.1258 508.00
68.191 489.00
68.2562 538.00
68.3214 541.00
68.3866 502.00
68.4518 539.00
68.517 560.00
68.5822 536.00
68.6474 507.00
68.7126 482.00
68.7778 474.00
68.843 484.00
68.9082 500.00
68.9734 517.00
69.0386 514.00
69.1038 520.00
69.169 501.00
69.2342 507.00
69.2994 481.00
69.3646 530.00
69.4298 450.00
69.495 497.00
69.5602 488.00
69.6254 550.00
69.6906 498.00
69.7558 475.00
69.821 504.00
69.8862 522.00
69.9514 506.00
70.0166 558.00
70.0818 604.00
70.147 632.00
70.2122 655.00
70.2774 747.00
70.3426 763.00
70.4078 657.00
70.473 644.00
70.5382 617.00
70.6034 555.00
70.6686 565.00
70.7338 537.00
70.799 533.00
70.8642 533.00
70.9294 518.00
70.9946 536.00
71.0598 512.00
71.125 539.00
71.1902 559.00
71.2554 563.00
71.3205 622.00
71.3858 683.00
71.451 679.00
71.5162 678.00
71.5813 644.00
71.6465 592.00
71.7117 648.00
71.7769 563.00
71.8421 517.00
71.9073 494.00
71.9725 504.00
72.0377 492.00
72.1029 495.00
72.1681 520.00
72.2333 449.00
72.2985 507.00
72.3637 464.00
72.4289 491.00
72.4941 495.00
72.5593 466.00
72.6245 496.00
72.6897 510.00
72.7549 518.00
72.8201 487.00
72.8853 481.00
72.9505 454.00
73.0157 469.00
73.0809 449.00
73.1461 498.00
73.2113 491.00
73.2765 440.00
73.3417 516.00
73.4069 444.00
73.4721 468.00
73.5373 503.00
73.6025 505.00
73.6677 499.00
73.7329 548.00
73.7981 567.00
73.8633 480.00
73.9285 480.00
73.9937 488.00
74.0589 474.00
74.1241 486.00
74.1893 488.00
74.2545 426.00
74.3197 476.00
74.3849 487.00
74.4501 460.00
74.5153 485.00
74.5805 475.00
74.6457 512.00
74.7109 512.00
74.7761 504.00
74.8413 462.00
74.9065 485.00
74.9717 455.00
75.0369 446.00
75.1021 447.00
75.1673 476.00
75.2325 488.00
75.2977 476.00
75.3629 458.00
75.4281 448.00
75.4933 461.00
75.5585 463.00
75.6237 470.00
75.6889 451.00
75.7541 489.00
75.8193 550.00
75.8845 544.00
75.9497 543.00
76.0149 548.00
76.0801 507.00
76.1452 534.00
76.2104 473.00
76.2756 483.00
76.3409 460.00
76.406 466.00
76.4712 436.00
76.5364 448.00
76.6016 465.00
76.6668 411.00
76.732 469.00
76.7972 462.00
76.8624 483.00
76.9276 456.00
76.9928 458.00
77.058 466.00
77.1232 467.00
77.1884 463.00
77.2536 432.00
77.3188 438.00
77.384 427.00
77.4492 472.00
77.5144 428.00
77.5796 428.00
77.6448 450.00
77.71 450.00
77.7752 400.00
77.8404 470.00
77.9056 447.00
77.9708 427.00
78.036 436.00
78.1012 451.00
78.1664 434.00
78.2316 435.00
78.2968 405.00
78.362 401.00
78.4272 438.00
78.4924 439.00
78.5576 442.00
78.6228 458.00
78.688 449.00
78.7532 440.00
78.8184 438.00
78.8836 408.00
78.9488 492.00
79.014 449.00
79.0792 493.00
79.1444 510.00
79.2096 519.00
79.2748 524.00
79.34 528.00
79.4052 518.00
79.4704 503.00
79.5356 463.00
79.6008 482.00
79.666 440.00
79.7312 524.00
79.7964 468.00
79.8616 465.00
79.9268 470.00
79.992 486.00
80.0572 501.00
80.1224 457.00
80.1876 524.00
80.2528 479.00
80.318 524.00
80.3832 511.00
80.4484 479.00
80.5136 515.00
80.5788 497.00
80.644 485.00
80.7092 466.00
80.7744 455.00
80.8396 465.00
80.9048 402.00
80.9699 451.00
81.0351 442.00
81.1003 427.00
81.1655 474.00
81.2307 350.00
81.2959 423.00
81.3611 452.00
81.4263 434.00
81.4915 417.00
81.5567 436.00
81.6219 440.00
81.6871 432.00
81.7523 450.00
81.8175 394.00
81.8827 436.00
81.9479 430.00
82.0131 439.00
82.0783 415.00
82.1435 404.00
82.2087 440.00
82.2739 400.00
82.3391 427.00
82.4043 423.00
82.4695 409.00
82.5347 422.00
82.5999 454.00
82.6651 426.00
82.7303 441.00
82.7955 420.00
82.8607 436.00
82.9259 440.00
82.9911 414.00
83.0563 436.00
83.1215 388.00
83.1867 451.00
83.2519 429.00
83.3171 434.00
83.3823 399.00
83.4475 459.00
83.5127 437.00
83.5779 412.00
83.6431 385.00
83.7083 416.00
83.7735 439.00
83.8387 387.00
83.9039 423.00
83.9691 361.00
84.0343 442.00
84.0995 445.00
84.1647 414.00
84.2299 420.00
84.2951 442.00
84.3603 405.00
84.4255 482.00
84.4907 443.00
84.5559 457.00
84.6211 412.00
84.6863 436.00
84.7515 382.00
84.8167 421.00
84.8819 428.00
84.9471 468.00
85.0123 425.00
85.0775 416.00
85.1427 447.00
85.2079 444.00
85.2731 442.00
85.3383 444.00
85.4035 411.00
85.4687 436.00
85.5339 416.00
85.5991 421.00
85.6643 450.00
85.7295 454.00
85.7946 438.00
85.8598 427.00
85.925 430.00
85.9903 440.00
86.0554 422.00
86.1206 439.00
86.1858 404.00
86.251 401.00
86.3162 415.00
86.3814 441.00
86.4466 415.00
86.5118 457.00
86.577 445.00
86.6422 469.00
86.7074 420.00
86.7726 411.00
86.8378 438.00
86.903 409.00
86.9682 391.00
87.0334 395.00
87.0986 416.00
87.1638 393.00
87.229 422.00
87.2942 431.00
87.3594 472.00
87.4246 431.00
87.4898 451.00
87.555 444.00
87.6202 414.00
87.6854 433.00
87.7506 463.00
87.8158 446.00
87.881 489.00
87.9462 531.00
88.0114 484.00
88.0766 522.00
88.1418 514.00
88.207 507.00
88.2722 529.00
88.3374 491.00
88.4026 466.00
88.4678 481.00
88.533 507.00
88.5982 475.00
88.6634 499.00
88.7286 502.00
88.7938 490.00
88.859 522.00
88.9242 516.00
88.9894 523.00
89.0546 518.00
89.1198 495.00
89.185 485.00
89.2502 502.00
89.3154 477.00
89.3806 494.00
89.4458 498.00
89.511 470.00
89.5762 448.00
89.6414 425.00
89.7066 460.00
89.7718 414.00
89.837 357.00
89.9022 421.00
89.9674 444.00
90.0326 398.00
90.0978 420.00
90.163 425.00
90.2282 443.00
90.2934 445.00
90.3586 450.00
90.4238 397.00
90.489 420.00
90.5542 443.00
90.6193 399.00
90.6845 421.00
90.7497 414.00
90.8149 409.00
90.8801 444.00
90.9453 438.00
91.0105 478.00
91.0757 432.00
91.1409 423.00
91.2061 467.00
91.2713 470.00
91.3365 457.00
91.4017 451.00
91.4669 418.00
91.5321 441.00
91.5973 452.00
91.6625 455.00
91.7277 470.00
91.7929 467.00
91.8581 400.00
91.9233 480.00
91.9885 409.00
92.0537 431.00
92.1189 429.00
92.1841 426.00
92.2493 423.00
92.3145 383.00
92.3797 453.00
92.4449 445.00
92.5101 417.00
92.5753 438.00
92.6405 389.00
92.7057 470.00
92.7709 451.00
92.8361 401.00
92.9013 440.00
92.9665 462.00
93.0317 476.00
93.0969 491.00
93.1621 502.00
93.2273 518.00
93.2925 467.00
93.3577 511.00
93.4229 561.00
93.4881 496.00
93.5533 512.00
93.6185 464.00
93.6837 448.00
93.7489 488.00
93.8141 455.00
93.8793 471.00
93.9445 480.00
94.0097 450.00
94.0749 402.00
94.1401 441.00
94.2053 428.00
94.2705 402.00
94.3357 448.00
94.4009 428.00
94.4661 438.00
94.5313 390.00
94.5965 374.00
94.6617 418.00
94.7269 423.00
94.7921 415.00
94.8573 406.00
94.9225 445.00
94.9877 413.00
95.0529 399.00
95.1181 458.00
95.1833 415.00
95.2485 445.00
95.3137 392.00
95.3789 437.00
95.444 429.00
95.5092 410.00
95.5744 424.00
95.6396 414.00
95.7048 443.00
95.77 424.00
95.8352 426.00
95.9004 416.00
95.9656 376.00
96.0308 451.00
96.096 456.00
96.1612 509.00
96.2264 488.00
96.2916 466.00
96.3568 481.00
96.422 487.00
96.4872 528.00
96.5524 516.00
96.6176 515.00
96.6828 563.00
96.748 516.00
96.8132 574.00
96.8784 525.00
96.9436 513.00
97.0088 507.00
97.074 493.00
97.1392 478.00
97.2044 510.00
97.2696 492.00
97.3348 439.00
97.4 437.00
97.4652 448.00
97.5304 406.00
97.5956 436.00
97.6608 439.00
97.726 441.00
97.7912 424.00
97.8564 447.00
97.9216 435.00
97.9868 477.00
98.052 405.00
98.1172 457.00
98.1824 425.00
98.2476 393.00
98.3128 428.00
98.378 405.00
98.4432 435.00
98.5084 430.00
98.5736 412.00
98.6388 402.00
98.704 430.00
98.7692 413.00
98.8344 393.00
98.8996 432.00
98.9648 375.00
99.03 438.00
99.0952 443.00
99.1604 392.00
99.2256 443.00
99.2908 396.00
99.356 420.00
99.4212 410.00
99.4864 426.00
99.5516 393.00
99.6168 386.00
99.682 408.00
99.7472 425.00
99.8124 382.00
99.8776 416.00
99.9428 439.00
100.008 422.00
100.073 427.00
100.095 405.00