File: data/xrd_creation/results/Na_106.xy
9.903433 2816.00
9.968632 2807.00
10.0338 2796.00
10.099 2722.00
10.1642 2749.00
10.2294 2739.00
10.2946 2764.00
10.3598 2667.00
10.425 2698.00
10.4902 2671.00
10.5554 2581.00
10.6206 2480.00
10.6858 2707.00
10.751 2660.00
10.8162 2468.00
10.8814 2548.00
10.9466 2507.00
11.0118 2390.00
11.077 2491.00
11.1422 2437.00
11.2074 2308.00
11.2726 2415.00
11.3378 2441.00
11.403 2413.00
11.4682 2342.00
11.5334 2374.00
11.5986 2290.00
11.6638 2328.00
11.729 2290.00
11.7942 2271.00
11.8594 2328.00
11.9246 2315.00
11.9898 2230.00
12.055 2238.00
12.1202 2189.00
12.1854 2268.00
12.2506 2131.00
12.3158 2150.00
12.381 2151.00
12.4462 2192.00
12.5114 2143.00
12.5766 2146.00
12.6418 2069.00
12.707 2082.00
12.7722 2000.00
12.8374 1944.00
12.9026 2128.00
12.9678 2004.00
13.033 2130.00
13.0982 1925.00
13.1634 1946.00
13.2286 1911.00
13.2938 1920.00
13.359 2035.00
13.4242 1949.00
13.4894 2027.00
13.5546 1851.00
13.6198 1928.00
13.685 1965.00
13.7502 1936.00
13.8154 1950.00
13.8805 1886.00
13.9457 1911.00
14.0109 1966.00
14.0761 1875.00
14.1413 1922.00
14.2065 1897.00
14.2717 1994.00
14.3369 1878.00
14.4021 1789.00
14.4673 1894.00
14.5325 1815.00
14.5977 1906.00
14.6629 1892.00
14.7281 1972.00
14.7933 1881.00
14.8585 1920.00
14.9237 1892.00
14.9889 1944.00
15.0541 1995.00
15.1193 2143.00
15.1845 2360.00
15.2497 2760.00
15.3149 3533.00
15.3801 4432.00
15.4453 5145.00
15.5105 3800.00
15.5757 2473.00
15.6409 1957.00
15.7061 1916.00
15.7713 1729.00
15.8365 1842.00
15.9017 1866.00
15.9669 1987.00
16.0321 2137.00
16.0973 2062.00
16.1625 2321.00
16.2277 2869.00
16.2929 3654.00
16.3581 4783.00
16.4233 6434.00
16.4885 6336.00
16.5537 3600.00
16.6189 2368.00
16.6841 1977.00
16.7493 1888.00
16.8145 1890.00
16.8797 1728.00
16.9449 1777.00
17.0101 1840.00
17.0753 1902.00
17.1405 1958.00
17.2057 2237.00
17.2709 2224.00
17.3361 1856.00
17.4013 1565.00
17.4665 1632.00
17.5317 1637.00
17.5969 1631.00
17.6621 1619.00
17.7273 1635.00
17.7925 1512.00
17.8577 1556.00
17.9229 1537.00
17.9881 1566.00
18.0533 1507.00
18.1185 1513.00
18.1837 1514.00
18.2489 1523.00
18.3141 1582.00
18.3793 1558.00
18.4445 1584.00
18.5097 1582.00
18.5749 1544.00
18.6401 1567.00
18.7052 1591.00
18.7704 1683.00
18.8356 1655.00
18.9008 1672.00
18.966 2015.00
19.0312 2266.00
19.0964 2936.00
19.1616 3695.00
19.2268 3508.00
19.292 2269.00
19.3572 1769.00
19.4224 1651.00
19.4876 1659.00
19.5528 1655.00
19.618 1553.00
19.6832 1494.00
19.7484 1598.00
19.8136 1700.00
19.8788 1609.00
19.944 1386.00
20.0092 1488.00
20.0744 1349.00
20.1396 1500.00
20.2048 1553.00
20.27 1557.00
20.3352 1440.00
20.4004 1408.00
20.4656 1520.00
20.5308 1452.00
20.596 1572.00
20.6612 1570.00
20.7264 1765.00
20.7916 2120.00
20.8568 2489.00
20.922 2308.00
20.9872 1835.00
21.0524 1580.00
21.1176 1385.00
21.1828 1372.00
21.248 1315.00
21.3132 1382.00
21.3784 1425.00
21.4436 1337.00
21.5088 1353.00
21.574 1370.00
21.6392 1467.00
21.7044 1634.00
21.7696 1912.00
21.8348 2405.00
21.9 2403.00
21.9652 1943.00
22.0304 1612.00
22.0956 1398.00
22.1608 1365.00
22.226 1267.00
22.2912 1389.00
22.3564 1433.00
22.4216 1598.00
22.4868 2012.00
22.552 2813.00
22.6172 3803.00
22.6824 3698.00
22.7476 2531.00
22.8128 2350.00
22.878 2576.00
22.9432 2447.00
23.0084 2515.00
23.0736 2435.00
23.1388 1886.00
23.204 1646.00
23.2692 1778.00
23.3344 2176.00
23.3996 3077.00
23.4647 4162.00
23.5299 3727.00
23.5951 2620.00
23.6603 2215.00
23.7255 2427.00
23.7907 2741.00
23.8559 2525.00
23.9211 1775.00
23.9863 1437.00
24.0515 1370.00
24.1167 1273.00
24.1819 1341.00
24.2471 1294.00
24.3123 1243.00
24.3775 1347.00
24.4427 1347.00
24.5079 1381.00
24.5731 1308.00
24.6383 1298.00
24.7035 1401.00
24.7687 1441.00
24.8339 1502.00
24.8991 1804.00
24.9643 2076.00
25.0295 2556.00
25.0947 2782.00
25.1599 2286.00
25.2251 1697.00
25.2903 1590.00
25.3555 1751.00
25.4207 2036.00
25.4859 2701.00
25.5511 3199.00
25.6163 2916.00
25.6815 2343.00
25.7467 2031.00
25.8119 1743.00
25.8771 1564.00
25.9423 1550.00
26.0075 1486.00
26.0727 1711.00
26.1379 1684.00
26.2031 1896.00
26.2683 2017.00
26.3335 2293.00
26.3987 2541.00
26.4639 2689.00
26.5291 2682.00
26.5943 2799.00
26.6595 3129.00
26.7247 3377.00
26.7899 3695.00
26.8551 4222.00
26.9203 4410.00
26.9855 4057.00
27.0507 3497.00
27.1159 3196.00
27.1811 2783.00
27.2463 2734.00
27.3115 2451.00
27.3767 2210.00
27.4419 2154.00
27.5071 1951.00
27.5723 1802.00
27.6375 1750.00
27.7027 1715.00
27.7679 1827.00
27.8331 2002.00
27.8983 2604.00
27.9635 3626.00
28.0287 4126.00
28.0939 3685.00
28.1591 2455.00
28.2243 1732.00
28.2894 1442.00
28.3546 1323.00
28.4198 1318.00
28.485 1485.00
28.5502 1608.00
28.6154 1634.00
28.6806 1521.00
28.7458 1187.00
28.811 1232.00
28.8762 1155.00
28.9414 1184.00
29.0066 1238.00
29.0718 1500.00
29.137 1610.00
29.2022 1479.00
29.2674 1506.00
29.3326 1772.00
29.3978 2482.00
29.463 3705.00
29.5282 4965.00
29.5934 4972.00
29.6586 4538.00
29.7238 3817.00
29.789 2662.00
29.8542 1826.00
29.9194 1410.00
29.9846 1273.00
30.0498 1238.00
30.115 1321.00
30.1802 1326.00
30.2454 1352.00
30.3106 1298.00
30.3758 1226.00
30.441 1108.00
30.5062 1051.00
30.5714 1092.00
30.6366 992.00
30.7018 1010.00
30.767 1043.00
30.8322 966.00
30.8974 1015.00
30.9626 970.00
31.0278 955.00
31.093 900.00
31.1582 962.00
31.2234 976.00
31.2886 1044.00
31.3538 1067.00
31.419 1147.00
31.4842 1465.00
31.5494 1991.00
31.6146 2627.00
31.6798 2586.00
31.745 1976.00
31.8102 1505.00
31.8754 1418.00
31.9406 1448.00
32.0058 1684.00
32.071 1809.00
32.1362 1762.00
32.2014 1705.00
32.2666 1323.00
32.3318 1145.00
32.397 1026.00
32.4622 1016.00
32.5274 975.00
32.5926 979.00
32.6578 1004.00
32.723 1046.00
32.7882 988.00
32.8534 1034.00
32.9186 1049.00
32.9838 1057.00
33.0489 1148.00
33.1141 1140.00
33.1793 1165.00
33.2445 1205.00
33.3097 1200.00
33.3749 1282.00
33.4401 1348.00
33.5053 1495.00
33.5705 1793.00
33.6357 2196.00
33.7009 2466.00
33.7661 2439.00
33.8313 2446.00
33.8965 2677.00
33.9617 3268.00
34.0269 4122.00
34.0921 4757.00
34.1573 5694.00
34.2225 5704.00
34.2877 5086.00
34.3529 4712.00
34.4181 4510.00
34.4833 4221.00
34.5485 3535.00
34.6137 2688.00
34.6789 2172.00
34.7441 1854.00
34.8093 1692.00
34.8745 1590.00
34.9397 1848.00
35.0049 2006.00
35.0701 1704.00
35.1353 1386.00
35.2005 1187.00
35.2657 1126.00
35.3309 1078.00
35.3961 1132.00
35.4613 1166.00
35.5265 1482.00
35.5917 1982.00
35.6569 2527.00
35.7221 2668.00
35.7873 2377.00
35.8525 1918.00
35.9177 1698.00
35.9829 1457.00
36.0481 1473.00
36.1133 1365.00
36.1785 1330.00
36.2437 1310.00
36.3089 1198.00
36.3741 1109.00
36.4393 1060.00
36.5045 1023.00
36.5697 1079.00
36.6349 1445.00
36.7001 1844.00
36.7653 2128.00
36.8305 1773.00
36.8957 1503.00
36.9609 1096.00
37.0261 875.00
37.0913 824.00
37.1565 853.00
37.2217 803.00
37.2869 805.00
37.3521 775.00
37.4173 815.00
37.4825 872.00
37.5477 877.00
37.6129 843.00
37.6781 908.00
37.7433 961.00
37.8085 982.00
37.8736 1043.00
37.9388 1112.00
38.004 1190.00
38.0692 1146.00
38.1344 1254.00
38.1996 1413.00
38.2648 1492.00
38.33 1350.00
38.3952 1451.00
38.4604 1454.00
38.5256 1515.00
38.5908 1619.00
38.656 1575.00
38.7212 1567.00
38.7864 1384.00
38.8516 1260.00
38.9168 1143.00
38.982 989.00
39.0472 905.00
39.1124 896.00
39.1776 1004.00
39.2428 1058.00
39.308 1037.00
39.3732 999.00
39.4384 941.00
39.5036 906.00
39.5688 966.00
39.634 918.00
39.6992 1083.00
39.7644 1210.00
39.8296 1883.00
39.8948 2352.00
39.96 2613.00
40.0252 2500.00
40.0904 1963.00
40.1556 1431.00
40.2208 1041.00
40.286 898.00
40.3512 827.00
40.4164 756.00
40.4816 803.00
40.5468 828.00
40.612 831.00
40.6772 781.00
40.7424 779.00
40.8076 773.00
40.8728 767.00
40.938 818.00
41.0032 867.00
41.0684 967.00
41.1336 976.00
41.1988 1001.00
41.264 814.00
41.3292 741.00
41.3944 681.00
41.4596 684.00
41.5248 699.00
41.59 713.00
41.6552 837.00
41.7204 800.00
41.7856 778.00
41.8508 695.00
41.916 588.00
41.9812 624.00
42.0464 604.00
42.1116 582.00
42.1768 610.00
42.242 618.00
42.3072 619.00
42.3724 570.00
42.4376 609.00
42.5028 627.00
42.568 742.00
42.6332 632.00
42.6983 686.00
42.7635 642.00
42.8287 651.00
42.8939 664.00
42.9591 685.00
43.0243 644.00
43.0895 718.00
43.1547 777.00
43.2199 975.00
43.2851 1301.00
43.3503 1286.00
43.4155 1180.00
43.4807 1085.00
43.5459 813.00
43.6111 868.00
43.6763 782.00
43.7415 737.00
43.8067 685.00
43.8719 620.00
43.9371 651.00
44.0023 763.00
44.0675 968.00
44.1327 1383.00
44.1979 1782.00
44.2631 1677.00
44.3283 1365.00
44.3935 1103.00
44.4587 903.00
44.5239 907.00
44.5891 963.00
44.6543 1251.00
44.7195 1799.00
44.7847 1996.00
44.8499 1683.00
44.9151 1548.00
44.9803 1092.00
45.0455 835.00
45.1107 753.00
45.1759 716.00
45.2411 624.00
45.3063 566.00
45.3715 623.00
45.4367 582.00
45.5019 533.00
45.5671 536.00
45.6323 649.00
45.6975 686.00
45.7627 704.00
45.8279 711.00
45.8931 708.00
45.9583 673.00
46.0235 564.00
46.0887 528.00
46.1539 565.00
46.2191 508.00
46.2843 529.00
46.3495 537.00
46.4147 511.00
46.4799 512.00
46.5451 527.00
46.6103 507.00
46.6755 485.00
46.7407 528.00
46.8059 587.00
46.8711 604.00
46.9363 564.00
47.0015 554.00
47.0667 573.00
47.1319 474.00
47.1971 522.00
47.2623 564.00
47.3275 545.00
47.3927 639.00
47.4579 630.00
47.523 553.00
47.5882 555.00
47.6534 625.00
47.7186 671.00
47.7838 674.00
47.849 699.00
47.9142 666.00
47.9794 652.00
48.0446 597.00
48.1098 586.00
48.175 618.00
48.2402 707.00
48.3054 821.00
48.3706 865.00
48.4358 804.00
48.501 709.00
48.5662 719.00
48.6314 786.00
48.6966 912.00
48.7618 1027.00
48.827 1198.00
48.8922 1128.00
48.9574 1152.00
49.0226 1094.00
49.0878 1045.00
49.153 1085.00
49.2182 914.00
49.2834 910.00
49.3486 851.00
49.4138 773.00
49.479 672.00
49.5442 639.00
49.6094 623.00
49.6746 661.00
49.7398 649.00
49.805 642.00
49.8702 676.00
49.9354 660.00
50.0006 608.00
50.0658 583.00
50.131 573.00
50.1962 580.00
50.2614 563.00
50.3266 553.00
50.3918 559.00
50.457 593.00
50.5222 656.00
50.5874 626.00
50.6526 684.00
50.7178 651.00
50.783 791.00
50.8482 870.00
50.9134 1025.00
50.9786 1061.00
51.0438 1126.00
51.109 1290.00
51.1742 1327.00
51.2394 1332.00
51.3046 1525.00
51.3698 1652.00
51.435 1839.00
51.5002 1695.00
51.5654 1829.00
51.6306 1752.00
51.6958 1774.00
51.761 1946.00
51.8262 1954.00
51.8914 2296.00
51.9566 2538.00
52.0218 2907.00
52.087 2955.00
52.1522 2966.00
52.2174 2912.00
52.2826 2708.00
52.3477 2319.00
52.4129 2156.00
52.4781 2012.00
52.5433 1734.00
52.6085 1585.00
52.6737 1528.00
52.7389 1221.00
52.8041 1115.00
52.8693 984.00
52.9345 897.00
52.9997 818.00
53.0649 824.00
53.1301 775.00
53.1953 751.00
53.2605 732.00
53.3257 730.00
53.3909 691.00
53.4561 780.00
53.5213 720.00
53.5865 761.00
53.6517 731.00
53.7169 754.00
53.7821 778.00
53.8473 793.00
53.9125 863.00
53.9777 842.00
54.0429 881.00
54.1081 978.00
54.1733 925.00
54.2385 903.00
54.3037 874.00
54.3689 811.00
54.4341 746.00
54.4993 746.00
54.5645 792.00
54.6297 767.00
54.6949 946.00
54.7601 1026.00
54.8253 1203.00
54.8905 1221.00
54.9557 1231.00
55.0209 1258.00
55.0861 1078.00
55.1513 1044.00
55.2165 913.00
55.2817 903.00
55.3469 890.00
55.4121 911.00
55.4773 1027.00
55.5425 1036.00
55.6077 969.00
55.6729 892.00
55.7381 799.00
55.8033 683.00
55.8685 645.00
55.9337 662.00
55.9989 617.00
56.0641 770.00
56.1293 850.00
56.1945 812.00
56.2597 746.00
56.3249 688.00
56.3901 595.00
56.4553 617.00
56.5205 564.00
56.5857 556.00
56.6509 608.00
56.7161 610.00
56.7813 670.00
56.8465 724.00
56.9117 870.00
56.9769 988.00
57.042 1119.00
57.1073 1139.00
57.1724 1115.00
57.2376 1060.00
57.3028 925.00
57.368 834.00
57.4332 762.00
57.4984 807.00
57.5636 806.00
57.6288 883.00
57.694 953.00
57.7592 960.00
57.8244 955.00
57.8896 891.00
57.9548 877.00
58.02 819.00
58.0852 830.00
58.1504 790.00
58.2156 861.00
58.2808 1027.00
58.346 1214.00
58.4112 1218.00
58.4764 1333.00
58.5416 1235.00
58.6068 997.00
58.672 864.00
58.7372 813.00
58.8024 754.00
58.8676 743.00
58.9328 711.00
58.998 739.00
59.0632 739.00
59.1284 848.00
59.1936 937.00
59.2588 917.00
59.324 852.00
59.3892 742.00
59.4544 679.00
59.5196 637.00
59.5848 639.00
59.65 563.00
59.7152 581.00
59.7804 585.00
59.8456 581.00
59.9108 608.00
59.976 600.00
60.0412 582.00
60.1064 574.00
60.1716 554.00
60.2368 564.00
60.302 543.00
60.3672 538.00
60.4324 560.00
60.4976 564.00
60.5628 553.00
60.628 572.00
60.6932 660.00
60.7584 677.00
60.8236 784.00
60.8888 725.00
60.954 750.00
61.0192 735.00
61.0844 651.00
61.1496 731.00
61.2148 908.00
61.28 1106.00
61.3452 1159.00
61.4104 1024.00
61.4756 980.00
61.5408 949.00
61.606 937.00
61.6712 917.00
61.7364 895.00
61.8016 872.00
61.8667 960.00
61.932 919.00
61.9971 955.00
62.0623 920.00
62.1275 959.00
62.1927 1029.00
62.2579 993.00
62.3231 1055.00
62.3883 1090.00
62.4535 1014.00
62.5187 994.00
62.5839 883.00
62.6491 996.00
62.7143 921.00
62.7795 848.00
62.8447 896.00
62.9099 927.00
62.9751 941.00
63.0403 845.00
63.1055 792.00
63.1707 733.00
63.2359 646.00
63.3011 670.00
63.3663 585.00
63.4315 621.00
63.4967 636.00
63.5619 685.00
63.6271 692.00
63.6923 787.00
63.7575 899.00
63.8227 970.00
63.8879 928.00
63.9531 932.00
64.0183 935.00
64.0835 825.00
64.1487 723.00
64.2139 737.00
64.2791 748.00
64.3443 776.00
64.4095 946.00
64.4747 934.00
64.5399 931.00
64.6051 966.00
64.6703 995.00
64.7355 1033.00
64.8007 1018.00
64.8659 1102.00
64.9311 1142.00
64.9963 1211.00
65.0615 1123.00
65.1267 1229.00
65.1919 1367.00
65.2571 1414.00
65.3223 1308.00
65.3875 1247.00
65.4527 1200.00
65.5179 1015.00
65.5831 1014.00
65.6483 1047.00
65.7135 1017.00
65.7787 1024.00
65.8439 1073.00
65.9091 984.00
65.9743 1056.00
66.0395 1130.00
66.1047 1151.00
66.1699 1197.00
66.2351 1291.00
66.3003 1170.00
66.3655 1138.00
66.4307 1045.00
66.4959 980.00
66.561 925.00
66.6263 909.00
66.6915 810.00
66.7566 788.00
66.8218 785.00
66.887 776.00
66.9522 686.00
67.0174 700.00
67.0826 653.00
67.1478 620.00
67.213 583.00
67.2782 555.00
67.3434 522.00
67.4086 565.00
67.4738 541.00
67.539 551.00
67.6042 511.00
67.6694 561.00
67.7346 652.00
67.7998 570.00
67.865 582.00
67.9302 527.00
67.9954 500.00
68.0606 527.00
68.1258 507.00
68.191 450.00
68.2562 423.00
68.3214 457.00
68.3866 522.00
68.4518 500.00
68.517 548.00
68.5822 565.00
68.6474 566.00
68.7126 542.00
68.7778 506.00
68.843 509.00
68.9082 474.00
68.9734 495.00
69.0386 512.00
69.1038 503.00
69.169 501.00
69.2342 517.00
69.2994 601.00
69.3646 523.00
69.4298 485.00
69.495 523.00
69.5602 495.00
69.6254 476.00
69.6906 492.00
69.7558 503.00
69.821 440.00
69.8862 495.00
69.9514 532.00
70.0166 518.00
70.0818 534.00
70.147 516.00
70.2122 594.00
70.2774 560.00
70.3426 590.00
70.4078 586.00
70.473 579.00
70.5382 563.00
70.6034 602.00
70.6686 606.00
70.7338 644.00
70.799 634.00
70.8642 642.00
70.9294 613.00
70.9946 579.00
71.0598 553.00
71.125 575.00
71.1902 606.00
71.2554 620.00
71.3205 629.00
71.3858 635.00
71.451 644.00
71.5162 670.00
71.5813 643.00
71.6465 614.00
71.7117 594.00
71.7769 590.00
71.8421 568.00
71.9073 554.00
71.9725 530.00
72.0377 515.00
72.1029 483.00
72.1681 445.00
72.2333 519.00
72.2985 488.00
72.3637 466.00
72.4289 483.00
72.4941 464.00
72.5593 456.00
72.6245 418.00
72.6897 437.00
72.7549 450.00
72.8201 492.00
72.8853 513.00
72.9505 569.00
73.0157 543.00
73.0809 524.00
73.1461 492.00
73.2113 476.00
73.2765 511.00
73.3417 543.00
73.4069 590.00
73.4721 556.00
73.5373 667.00
73.6025 564.00
73.6677 556.00
73.7329 480.00
73.7981 473.00
73.8633 423.00
73.9285 447.00
73.9937 464.00
74.0589 493.00
74.1241 467.00
74.1893 525.00
74.2545 503.00
74.3197 544.00
74.3849 488.00
74.4501 549.00
74.5153 524.00
74.5805 502.00
74.6457 559.00
74.7109 483.00
74.7761 466.00
74.8413 528.00
74.9065 527.00
74.9717 571.00
75.0369 507.00
75.1021 544.00
75.1673 477.00
75.2325 584.00
75.2977 560.00
75.3629 558.00
75.4281 519.00
75.4933 507.00
75.5585 463.00
75.6237 515.00
75.6889 472.00
75.7541 440.00
75.8193 457.00
75.8845 457.00
75.9497 473.00
76.0149 468.00
76.0801 504.00
76.1452 525.00
76.2104 524.00
76.2756 526.00
76.3409 561.00
76.406 531.00
76.4712 552.00
76.5364 497.00
76.6016 498.00
76.6668 440.00
76.732 430.00
76.7972 456.00
76.8624 440.00
76.9276 422.00
76.9928 446.00
77.058 386.00
77.1232 439.00
77.1884 414.00
77.2536 455.00
77.3188 447.00
77.384 428.00
77.4492 451.00
77.5144 446.00
77.5796 406.00
77.6448 497.00
77.71 446.00
77.7752 431.00
77.8404 450.00
77.9056 422.00
77.9708 430.00
78.036 442.00
78.1012 430.00
78.1664 453.00
78.2316 459.00
78.2968 466.00
78.362 472.00
78.4272 507.00
78.4924 607.00
78.5576 545.00
78.6228 595.00
78.688 595.00
78.7532 622.00
78.8184 589.00
78.8836 708.00
78.9488 709.00
79.014 684.00
79.0792 646.00
79.1444 614.00
79.2096 649.00
79.2748 640.00
79.34 574.00
79.4052 601.00
79.4704 477.00
79.5356 551.00
79.6008 515.00
79.666 495.00
79.7312 486.00
79.7964 511.00
79.8616 540.00
79.9268 541.00
79.992 512.00
80.0572 547.00
80.1224 512.00
80.1876 518.00
80.2528 540.00
80.318 544.00
80.3832 530.00
80.4484 492.00
80.5136 533.00
80.5788 500.00
80.644 531.00
80.7092 582.00
80.7744 594.00
80.8396 568.00
80.9048 615.00
80.9699 541.00
81.0351 558.00
81.1003 602.00
81.1655 599.00
81.2307 622.00
81.2959 601.00
81.3611 552.00
81.4263 550.00
81.4915 521.00
81.5567 473.00
81.6219 457.00
81.6871 539.00
81.7523 503.00
81.8175 477.00
81.8827 482.00
81.9479 498.00
82.0131 524.00
82.0783 519.00
82.1435 546.00
82.2087 562.00
82.2739 545.00
82.3391 539.00
82.4043 530.00
82.4695 488.00
82.5347 501.00
82.5999 536.00
82.6651 473.00
82.7303 463.00
82.7955 469.00
82.8607 516.00
82.9259 441.00
82.9911 434.00
83.0563 469.00
83.1215 438.00
83.1867 410.00
83.2519 433.00
83.3171 434.00
83.3823 470.00
83.4475 455.00
83.5127 464.00
83.5779 498.00
83.6431 484.00
83.7083 553.00
83.7735 574.00
83.8387 550.00
83.9039 629.00
83.9691 586.00
84.0343 578.00
84.0995 636.00
84.1647 648.00
84.2299 619.00
84.2951 603.00
84.3603 543.00
84.4255 511.00
84.4907 463.00
84.5559 477.00
84.6211 460.00
84.6863 440.00
84.7515 430.00
84.8167 409.00
84.8819 441.00
84.9471 447.00
85.0123 430.00
85.0775 475.00
85.1427 460.00
85.2079 433.00
85.2731 516.00
85.3383 452.00
85.4035 473.00
85.4687 506.00
85.5339 495.00
85.5991 460.00
85.6643 473.00
85.7295 520.00
85.7946 521.00
85.8598 502.00
85.925 567.00
85.9903 503.00
86.0554 477.00
86.1206 489.00
86.1858 481.00
86.251 470.00
86.3162 422.00
86.3814 418.00
86.4466 433.00
86.5118 451.00
86.577 386.00
86.6422 431.00
86.7074 411.00
86.7726 445.00
86.8378 388.00
86.903 416.00
86.9682 419.00
87.0334 418.00
87.0986 413.00
87.1638 407.00
87.229 425.00
87.2942 436.00
87.3594 457.00
87.4246 458.00
87.4898 467.00
87.555 450.00
87.6202 433.00
87.6854 489.00
87.7506 483.00
87.8158 442.00
87.881 453.00
87.9462 417.00
88.0114 418.00
88.0766 441.00
88.1418 376.00
88.207 396.00
88.2722 388.00
88.3374 378.00
88.4026 431.00
88.4678 413.00
88.533 398.00
88.5982 396.00
88.6634 400.00
88.7286 413.00
88.7938 453.00
88.859 467.00
88.9242 491.00
88.9894 419.00
89.0546 445.00
89.1198 453.00
89.185 466.00
89.2502 476.00
89.3154 501.00
89.3806 462.00
89.4458 564.00
89.511 585.00
89.5762 542.00
89.6414 588.00
89.7066 602.00
89.7718 611.00
89.837 600.00
89.9022 575.00
89.9674 641.00
90.0326 636.00
90.0978 624.00
90.163 595.00
90.2282 656.00
90.2934 654.00
90.3586 655.00
90.4238 666.00
90.489 677.00
90.5542 644.00
90.6193 681.00
90.6845 641.00
90.7497 620.00
90.8149 673.00
90.8801 674.00
90.9453 680.00
91.0105 639.00
91.0757 671.00
91.1409 714.00
91.2061 692.00
91.2713 698.00
91.3365 694.00
91.4017 680.00
91.4669 660.00
91.5321 602.00
91.5973 589.00
91.6625 582.00
91.7277 549.00
91.7929 568.00
91.8581 480.00
91.9233 500.00
91.9885 532.00
92.0537 491.00
92.1189 502.00
92.1841 529.00
92.2493 531.00
92.3145 542.00
92.3797 522.00
92.4449 607.00
92.5101 549.00
92.5753 613.00
92.6405 545.00
92.7057 553.00
92.7709 535.00
92.8361 602.00
92.9013 550.00
92.9665 581.00
93.0317 549.00
93.0969 543.00
93.1621 550.00
93.2273 536.00
93.2925 563.00
93.3577 470.00
93.4229 539.00
93.4881 562.00
93.5533 559.00
93.6185 498.00
93.6837 512.00
93.7489 440.00
93.8141 461.00
93.8793 470.00
93.9445 419.00
94.0097 442.00
94.0749 456.00
94.1401 425.00
94.2053 418.00
94.2705 412.00
94.3357 433.00
94.4009 420.00
94.4661 407.00
94.5313 390.00
94.5965 422.00
94.6617 435.00
94.7269 409.00
94.7921 385.00
94.8573 401.00
94.9225 422.00
94.9877 423.00
95.0529 373.00
95.1181 391.00
95.1833 409.00
95.2485 416.00
95.3137 406.00
95.3789 433.00
95.444 423.00
95.5092 467.00
95.5744 504.00
95.6396 486.00
95.7048 490.00
95.77 513.00
95.8352 478.00
95.9004 503.00
95.9656 458.00
96.0308 463.00
96.096 500.00
96.1612 534.00
96.2264 510.00
96.2916 468.00
96.3568 481.00
96.422 432.00
96.4872 491.00
96.5524 434.00
96.6176 430.00
96.6828 427.00
96.748 454.00
96.8132 471.00
96.8784 454.00
96.9436 429.00
97.0088 453.00
97.074 479.00
97.1392 443.00
97.2044 471.00
97.2696 401.00
97.3348 381.00
97.4 414.00
97.4652 417.00
97.5304 374.00
97.5956 389.00
97.6608 399.00
97.726 355.00
97.7912 368.00
97.8564 352.00
97.9216 375.00
97.9868 373.00
98.052 348.00
98.1172 352.00
98.1824 369.00
98.2476 367.00
98.3128 360.00
98.378 415.00
98.4432 409.00
98.5084 420.00
98.5736 447.00
98.6388 420.00
98.704 445.00
98.7692 417.00
98.8344 433.00
98.8996 444.00
98.9648 412.00
99.03 408.00
99.0952 394.00
99.1604 388.00
99.2256 365.00
99.2908 382.00
99.356 385.00
99.4212 371.00
99.4864 399.00
99.5516 384.00
99.6168 381.00
99.682 420.00
99.7472 428.00
99.8124 451.00
99.8776 434.00
99.9428 440.00
100.008 402.00
100.073 472.00
100.095 516.00