File: data/xrd_creation/results/Na_142.xy
9.903433 2762.00
9.968632 2678.00
10.0338 2659.00
10.099 2543.00
10.1642 2545.00
10.2294 2627.00
10.2946 2589.00
10.3598 2517.00
10.425 2524.00
10.4902 2450.00
10.5554 2592.00
10.6206 2552.00
10.6858 2492.00
10.751 2383.00
10.8162 2553.00
10.8814 2319.00
10.9466 2487.00
11.0118 2314.00
11.077 2413.00
11.1422 2302.00
11.2074 2302.00
11.2726 2354.00
11.3378 2337.00
11.403 2314.00
11.4682 2220.00
11.5334 2262.00
11.5986 2134.00
11.6638 2304.00
11.729 2205.00
11.7942 2200.00
11.8594 2069.00
11.9246 2204.00
11.9898 2110.00
12.055 2058.00
12.1202 2159.00
12.1854 2115.00
12.2506 1998.00
12.3158 2064.00
12.381 1983.00
12.4462 2013.00
12.5114 1997.00
12.5766 2016.00
12.6418 2046.00
12.707 1906.00
12.7722 1994.00
12.8374 1980.00
12.9026 1938.00
12.9678 1939.00
13.033 1832.00
13.0982 1903.00
13.1634 1849.00
13.2286 1782.00
13.2938 1792.00
13.359 1871.00
13.4242 1886.00
13.4894 1859.00
13.5546 1853.00
13.6198 1807.00
13.685 1751.00
13.7502 1827.00
13.8154 1840.00
13.8805 1723.00
13.9457 1784.00
14.0109 1742.00
14.0761 1797.00
14.1413 1667.00
14.2065 1726.00
14.2717 1710.00
14.3369 1776.00
14.4021 1723.00
14.4673 1770.00
14.5325 1705.00
14.5977 1689.00
14.6629 1652.00
14.7281 1751.00
14.7933 1675.00
14.8585 1688.00
14.9237 1698.00
14.9889 1719.00
15.0541 1717.00
15.1193 1726.00
15.1845 1626.00
15.2497 1712.00
15.3149 1640.00
15.3801 1630.00
15.4453 1587.00
15.5105 1596.00
15.5757 1642.00
15.6409 1632.00
15.7061 1663.00
15.7713 1623.00
15.8365 1658.00
15.9017 1641.00
15.9669 1528.00
16.0321 1578.00
16.0973 1536.00
16.1625 1579.00
16.2277 1556.00
16.2929 1521.00
16.3581 1598.00
16.4233 1609.00
16.4885 1578.00
16.5537 1573.00
16.6189 1612.00
16.6841 1551.00
16.7493 1554.00
16.8145 1558.00
16.8797 1588.00
16.9449 1551.00
17.0101 1526.00
17.0753 1558.00
17.1405 1593.00
17.2057 1537.00
17.2709 1547.00
17.3361 1517.00
17.4013 1446.00
17.4665 1505.00
17.5317 1449.00
17.5969 1483.00
17.6621 1464.00
17.7273 1590.00
17.7925 1438.00
17.8577 1495.00
17.9229 1491.00
17.9881 1442.00
18.0533 1464.00
18.1185 1386.00
18.1837 1461.00
18.2489 1469.00
18.3141 1425.00
18.3793 1376.00
18.4445 1483.00
18.5097 1481.00
18.5749 1433.00
18.6401 1456.00
18.7052 1474.00
18.7704 1439.00
18.8356 1512.00
18.9008 1518.00
18.966 1517.00
19.0312 1579.00
19.0964 1557.00
19.1616 1572.00
19.2268 1774.00
19.292 1850.00
19.3572 2142.00
19.4224 2611.00
19.4876 3253.00
19.5528 4099.00
19.618 4864.00
19.6832 4891.00
19.7484 3629.00
19.8136 2516.00
19.8788 2001.00
19.944 1693.00
20.0092 1534.00
20.0744 1505.00
20.1396 1460.00
20.2048 1420.00
20.27 1381.00
20.3352 1387.00
20.4004 1362.00
20.4656 1349.00
20.5308 1297.00
20.596 1353.00
20.6612 1365.00
20.7264 1303.00
20.7916 1345.00
20.8568 1288.00
20.922 1266.00
20.9872 1316.00
21.0524 1223.00
21.1176 1302.00
21.1828 1286.00
21.248 1240.00
21.3132 1261.00
21.3784 1274.00
21.4436 1255.00
21.5088 1248.00
21.574 1292.00
21.6392 1267.00
21.7044 1269.00
21.7696 1301.00
21.8348 1344.00
21.9 1379.00
21.9652 1366.00
22.0304 1447.00
22.0956 1451.00
22.1608 1556.00
22.226 1710.00
22.2912 1986.00
22.3564 2235.00
22.4216 3053.00
22.4868 4220.00
22.552 6139.00
22.6172 8568.00
22.6824 9599.00
22.7476 7698.00
22.8128 4679.00
22.878 2923.00
22.9432 2101.00
23.0084 1679.00
23.0736 1556.00
23.1388 1496.00
23.204 1386.00
23.2692 1332.00
23.3344 1312.00
23.3996 1259.00
23.4647 1277.00
23.5299 1200.00
23.5951 1210.00
23.6603 1194.00
23.7255 1184.00
23.7907 1136.00
23.8559 1213.00
23.9211 1160.00
23.9863 1189.00
24.0515 1207.00
24.1167 1121.00
24.1819 1179.00
24.2471 1147.00
24.3123 1220.00
24.3775 1149.00
24.4427 1103.00
24.5079 1124.00
24.5731 1107.00
24.6383 1187.00
24.7035 1076.00
24.7687 1164.00
24.8339 1210.00
24.8991 1212.00
24.9643 1241.00
25.0295 1294.00
25.0947 1521.00
25.1599 1772.00
25.2251 2190.00
25.2903 2739.00
25.3555 3004.00
25.4207 2639.00
25.4859 2021.00
25.5511 1555.00
25.6163 1295.00
25.6815 1188.00
25.7467 1137.00
25.8119 1053.00
25.8771 1066.00
25.9423 1103.00
26.0075 1050.00
26.0727 1077.00
26.1379 1053.00
26.2031 1095.00
26.2683 1030.00
26.3335 951.00
26.3987 1023.00
26.4639 1040.00
26.5291 1033.00
26.5943 1147.00
26.6595 1162.00
26.7247 1351.00
26.7899 1621.00
26.8551 2324.00
26.9203 2868.00
26.9855 2389.00
27.0507 1691.00
27.1159 1281.00
27.1811 1087.00
27.2463 1142.00
27.3115 1171.00
27.3767 1126.00
27.4419 1188.00
27.5071 1362.00
27.5723 1533.00
27.6375 1862.00
27.7027 2250.00
27.7679 2612.00
27.8331 2500.00
27.8983 2116.00
27.9635 1564.00
28.0287 1275.00
28.0939 1212.00
28.1591 1097.00
28.2243 1004.00
28.2894 972.00
28.3546 1062.00
28.4198 1013.00
28.485 943.00
28.5502 997.00
28.6154 988.00
28.6806 976.00
28.7458 1066.00
28.811 1032.00
28.8762 978.00
28.9414 968.00
29.0066 993.00
29.0718 978.00
29.137 891.00
29.2022 923.00
29.2674 863.00
29.3326 885.00
29.3978 905.00
29.463 909.00
29.5282 888.00
29.5934 958.00
29.6586 869.00
29.7238 906.00
29.789 879.00
29.8542 917.00
29.9194 884.00
29.9846 898.00
30.0498 863.00
30.115 861.00
30.1802 832.00
30.2454 823.00
30.3106 813.00
30.3758 829.00
30.441 814.00
30.5062 813.00
30.5714 883.00
30.6366 842.00
30.7018 789.00
30.767 863.00
30.8322 797.00
30.8974 783.00
30.9626 821.00
31.0278 858.00
31.093 917.00
31.1582 806.00
31.2234 937.00
31.2886 879.00
31.3538 970.00
31.419 918.00
31.4842 965.00
31.5494 1023.00
31.6146 1024.00
31.6798 1058.00
31.745 1082.00
31.8102 1223.00
31.8754 1429.00
31.9406 1812.00
32.0058 2601.00
32.071 3335.00
32.1362 3992.00
32.2014 3597.00
32.2666 2623.00
32.3318 1836.00
32.397 1363.00
32.4622 1144.00
32.5274 1065.00
32.5926 984.00
32.6578 863.00
32.723 898.00
32.7882 876.00
32.8534 785.00
32.9186 837.00
32.9838 789.00
33.0489 804.00
33.1141 791.00
33.1793 809.00
33.2445 764.00
33.3097 811.00
33.3749 776.00
33.4401 768.00
33.5053 759.00
33.5705 788.00
33.6357 792.00
33.7009 849.00
33.7661 875.00
33.8313 919.00
33.8965 972.00
33.9617 1022.00
34.0269 1185.00
34.0921 1599.00
34.1573 2290.00
34.2225 2386.00
34.2877 1917.00
34.3529 1406.00
34.4181 1057.00
34.4833 957.00
34.5485 894.00
34.6137 867.00
34.6789 840.00
34.7441 823.00
34.8093 763.00
34.8745 721.00
34.9397 793.00
35.0049 752.00
35.0701 717.00
35.1353 717.00
35.2005 708.00
35.2657 682.00
35.3309 742.00
35.3961 717.00
35.4613 717.00
35.5265 730.00
35.5917 732.00
35.6569 684.00
35.7221 741.00
35.7873 803.00
35.8525 698.00
35.9177 719.00
35.9829 723.00
36.0481 761.00
36.1133 750.00
36.1785 677.00
36.2437 660.00
36.3089 709.00
36.3741 653.00
36.4393 710.00
36.5045 717.00
36.5697 688.00
36.6349 716.00
36.7001 663.00
36.7653 698.00
36.8305 701.00
36.8957 720.00
36.9609 740.00
37.0261 694.00
37.0913 791.00
37.1565 855.00
37.2217 805.00
37.2869 864.00
37.3521 948.00
37.4173 1045.00
37.4825 1231.00
37.5477 1562.00
37.6129 2112.00
37.6781 3154.00
37.7433 4381.00
37.8085 4994.00
37.8736 4855.00
37.9388 3642.00
38.004 2497.00
38.0692 1771.00
38.1344 1361.00
38.1996 1324.00
38.2648 1383.00
38.33 1272.00
38.3952 1046.00
38.4604 884.00
38.5256 809.00
38.5908 745.00
38.656 746.00
38.7212 691.00
38.7864 685.00
38.8516 731.00
38.9168 721.00
38.982 759.00
39.0472 702.00
39.1124 722.00
39.1776 765.00
39.2428 941.00
39.308 1069.00
39.3732 1185.00
39.4384 1447.00
39.5036 1691.00
39.5688 1662.00
39.634 1549.00
39.6992 1309.00
39.7644 1081.00
39.8296 873.00
39.8948 869.00
39.96 719.00
40.0252 715.00
40.0904 657.00
40.1556 646.00
40.2208 697.00
40.286 642.00
40.3512 624.00
40.4164 630.00
40.4816 653.00
40.5468 692.00
40.612 576.00
40.6772 616.00
40.7424 617.00
40.8076 604.00
40.8728 601.00
40.938 684.00
41.0032 678.00
41.0684 659.00
41.1336 766.00
41.1988 798.00
41.264 759.00
41.3292 757.00
41.3944 691.00
41.4596 683.00
41.5248 629.00
41.59 582.00
41.6552 596.00
41.7204 533.00
41.7856 572.00
41.8508 595.00
41.916 562.00
41.9812 570.00
42.0464 597.00
42.1116 590.00
42.1768 607.00
42.242 622.00
42.3072 600.00
42.3724 553.00
42.4376 553.00
42.5028 606.00
42.568 607.00
42.6332 587.00
42.6983 583.00
42.7635 615.00
42.8287 616.00
42.8939 627.00
42.9591 615.00
43.0243 628.00
43.0895 607.00
43.1547 571.00
43.2199 587.00
43.2851 583.00
43.3503 617.00
43.4155 690.00
43.4807 662.00
43.5459 631.00
43.6111 725.00
43.6763 753.00
43.7415 691.00
43.8067 730.00
43.8719 593.00
43.9371 703.00
44.0023 624.00
44.0675 629.00
44.1327 622.00
44.1979 569.00
44.2631 584.00
44.3283 552.00
44.3935 561.00
44.4587 560.00
44.5239 555.00
44.5891 586.00
44.6543 524.00
44.7195 523.00
44.7847 584.00
44.8499 544.00
44.9151 530.00
44.9803 578.00
45.0455 639.00
45.1107 612.00
45.1759 580.00
45.2411 572.00
45.3063 571.00
45.3715 563.00
45.4367 514.00
45.5019 570.00
45.5671 533.00
45.6323 544.00
45.6975 675.00
45.7627 721.00
45.8279 800.00
45.8931 879.00
45.9583 948.00
46.0235 801.00
46.0887 735.00
46.1539 673.00
46.2191 617.00
46.2843 581.00
46.3495 567.00
46.4147 554.00
46.4799 563.00
46.5451 538.00
46.6103 530.00
46.6755 563.00
46.7407 572.00
46.8059 586.00
46.8711 556.00
46.9363 597.00
47.0015 540.00
47.0667 575.00
47.1319 580.00
47.1971 570.00
47.2623 646.00
47.3275 645.00
47.3927 695.00
47.4579 633.00
47.523 674.00
47.5882 629.00
47.6534 660.00
47.7186 577.00
47.7838 531.00
47.849 591.00
47.9142 599.00
47.9794 562.00
48.0446 507.00
48.1098 524.00
48.175 528.00
48.2402 510.00
48.3054 501.00
48.3706 524.00
48.4358 524.00
48.501 554.00
48.5662 545.00
48.6314 571.00
48.6966 586.00
48.7618 604.00
48.827 593.00
48.8922 651.00
48.9574 636.00
49.0226 587.00
49.0878 608.00
49.153 521.00
49.2182 603.00
49.2834 610.00
49.3486 529.00
49.4138 533.00
49.479 539.00
49.5442 612.00
49.6094 599.00
49.6746 540.00
49.7398 556.00
49.805 667.00
49.8702 636.00
49.9354 768.00
50.0006 893.00
50.0658 1018.00
50.131 1268.00
50.1962 1558.00
50.2614 1792.00
50.3266 1781.00
50.3918 1606.00
50.457 1437.00
50.5222 1142.00
50.5874 910.00
50.6526 760.00
50.7178 701.00
50.783 661.00
50.8482 646.00
50.9134 670.00
50.9786 650.00
51.0438 583.00
51.109 652.00
51.1742 696.00
51.2394 764.00
51.3046 817.00
51.3698 947.00
51.435 1147.00
51.5002 1517.00
51.5654 1791.00
51.6306 2190.00
51.6958 2304.00
51.761 2135.00
51.8262 1849.00
51.8914 1549.00
51.9566 1443.00
52.0218 1775.00
52.087 2123.00
52.1522 1779.00
52.2174 1417.00
52.2826 1111.00
52.3477 843.00
52.4129 688.00
52.4781 661.00
52.5433 528.00
52.6085 553.00
52.6737 591.00
52.7389 593.00
52.8041 572.00
52.8693 560.00
52.9345 603.00
52.9997 615.00
53.0649 610.00
53.1301 558.00
53.1953 579.00
53.2605 550.00
53.3257 555.00
53.3909 500.00
53.4561 549.00
53.5213 546.00
53.5865 542.00
53.6517 547.00
53.7169 510.00
53.7821 545.00
53.8473 515.00
53.9125 598.00
53.9777 554.00
54.0429 546.00
54.1081 573.00
54.1733 568.00
54.2385 544.00
54.3037 665.00
54.3689 597.00
54.4341 562.00
54.4993 634.00
54.5645 608.00
54.6297 636.00
54.6949 596.00
54.7601 664.00
54.8253 683.00
54.8905 721.00
54.9557 770.00
55.0209 949.00
55.0861 946.00
55.1513 892.00
55.2165 818.00
55.2817 764.00
55.3469 613.00
55.4121 611.00
55.4773 602.00
55.5425 582.00
55.6077 550.00
55.6729 506.00
55.7381 573.00
55.8033 535.00
55.8685 556.00
55.9337 533.00
55.9989 535.00
56.0641 564.00
56.1293 521.00
56.1945 583.00
56.2597 565.00
56.3249 581.00
56.3901 627.00
56.4553 619.00
56.5205 658.00
56.5857 780.00
56.6509 802.00
56.7161 924.00
56.7813 1081.00
56.8465 1374.00
56.9117 1501.00
56.9769 1800.00
57.042 1781.00
57.1073 1517.00
57.1724 1308.00
57.2376 1058.00
57.3028 859.00
57.368 681.00
57.4332 646.00
57.4984 616.00
57.5636 563.00
57.6288 502.00
57.694 569.00
57.7592 524.00
57.8244 524.00
57.8896 504.00
57.9548 470.00
58.02 541.00
58.0852 679.00
58.1504 542.00
58.2156 603.00
58.2808 598.00
58.346 572.00
58.4112 510.00
58.4764 469.00
58.5416 508.00
58.6068 493.00
58.672 481.00
58.7372 466.00
58.8024 437.00
58.8676 523.00
58.9328 471.00
58.998 485.00
59.0632 470.00
59.1284 506.00
59.1936 450.00
59.2588 490.00
59.324 528.00
59.3892 462.00
59.4544 501.00
59.5196 480.00
59.5848 479.00
59.65 461.00
59.7152 476.00
59.7804 523.00
59.8456 538.00
59.9108 551.00
59.976 525.00
60.0412 564.00
60.1064 568.00
60.1716 581.00
60.2368 625.00
60.302 738.00
60.3672 712.00
60.4324 859.00
60.4976 969.00
60.5628 1314.00
60.628 1591.00
60.6932 1946.00
60.7584 2204.00
60.8236 2214.00
60.8888 1996.00
60.954 1754.00
61.0192 1405.00
61.0844 1093.00
61.1496 970.00
61.2148 759.00
61.28 705.00
61.3452 657.00
61.4104 605.00
61.4756 587.00
61.5408 590.00
61.606 598.00
61.6712 613.00
61.7364 593.00
61.8016 597.00
61.8667 596.00
61.932 573.00
61.9971 611.00
62.0623 643.00
62.1275 774.00
62.1927 747.00
62.2579 718.00
62.3231 659.00
62.3883 653.00
62.4535 564.00
62.5187 568.00
62.5839 511.00
62.6491 545.00
62.7143 510.00
62.7795 524.00
62.8447 506.00
62.9099 497.00
62.9751 534.00
63.0403 487.00
63.1055 505.00
63.1707 527.00
63.2359 557.00
63.3011 548.00
63.3663 505.00
63.4315 462.00
63.4967 500.00
63.5619 442.00
63.6271 459.00
63.6923 484.00
63.7575 488.00
63.8227 451.00
63.8879 470.00
63.9531 443.00
64.0183 443.00
64.0835 455.00
64.1487 477.00
64.2139 523.00
64.2791 497.00
64.3443 493.00
64.4095 464.00
64.4747 520.00
64.5399 501.00
64.6051 518.00
64.6703 471.00
64.7355 502.00
64.8007 435.00
64.8659 491.00
64.9311 607.00
64.9963 750.00
65.0615 681.00
65.1267 631.00
65.1919 610.00
65.2571 588.00
65.3223 494.00
65.3875 440.00
65.4527 459.00
65.5179 454.00
65.5831 407.00
65.6483 433.00
65.7135 478.00
65.7787 472.00
65.8439 464.00
65.9091 439.00
65.9743 475.00
66.0395 511.00
66.1047 571.00
66.1699 720.00
66.2351 792.00
66.3003 786.00
66.3655 782.00
66.4307 805.00
66.4959 752.00
66.561 757.00
66.6263 752.00
66.6915 834.00
66.7566 909.00
66.8218 934.00
66.887 929.00
66.9522 852.00
67.0174 726.00
67.0826 645.00
67.1478 576.00
67.213 528.00
67.2782 544.00
67.3434 505.00
67.4086 505.00
67.4738 500.00
67.539 491.00
67.6042 538.00
67.6694 475.00
67.7346 478.00
67.7998 569.00
67.865 498.00
67.9302 561.00
67.9954 516.00
68.0606 533.00
68.1258 523.00
68.191 540.00
68.2562 529.00
68.3214 516.00
68.3866 560.00
68.4518 513.00
68.517 508.00
68.5822 523.00
68.6474 513.00
68.7126 457.00
68.7778 444.00
68.843 455.00
68.9082 428.00
68.9734 459.00
69.0386 502.00
69.1038 436.00
69.169 473.00
69.2342 460.00
69.2994 494.00
69.3646 490.00
69.4298 473.00
69.495 515.00
69.5602 493.00
69.6254 483.00
69.6906 474.00
69.7558 502.00
69.821 508.00
69.8862 564.00
69.9514 551.00
70.0166 638.00
70.0818 696.00
70.147 863.00
70.2122 879.00
70.2774 898.00
70.3426 912.00
70.4078 844.00
70.473 795.00
70.5382 743.00
70.6034 618.00
70.6686 561.00
70.7338 536.00
70.799 518.00
70.8642 513.00
70.9294 513.00
70.9946 591.00
71.0598 593.00
71.125 648.00
71.1902 714.00
71.2554 715.00
71.3205 866.00
71.3858 882.00
71.451 916.00
71.5162 939.00
71.5813 913.00
71.6465 782.00
71.7117 778.00
71.7769 681.00
71.8421 611.00
71.9073 531.00
71.9725 488.00
72.0377 457.00
72.1029 505.00
72.1681 458.00
72.2333 458.00
72.2985 447.00
72.3637 426.00
72.4289 466.00
72.4941 462.00
72.5593 464.00
72.6245 463.00
72.6897 474.00
72.7549 444.00
72.8201 413.00
72.8853 454.00
72.9505 440.00
73.0157 421.00
73.0809 436.00
73.1461 436.00
73.2113 418.00
73.2765 435.00
73.3417 450.00
73.4069 479.00
73.4721 464.00
73.5373 504.00
73.6025 521.00
73.6677 512.00
73.7329 498.00
73.7981 481.00
73.8633 489.00
73.9285 444.00
73.9937 430.00
74.0589 456.00
74.1241 448.00
74.1893 456.00
74.2545 401.00
74.3197 436.00
74.3849 402.00
74.4501 466.00
74.5153 406.00
74.5805 458.00
74.6457 438.00
74.7109 441.00
74.7761 437.00
74.8413 461.00
74.9065 441.00
74.9717 428.00
75.0369 411.00
75.1021 435.00
75.1673 449.00
75.2325 429.00
75.2977 402.00
75.3629 447.00
75.4281 452.00
75.4933 481.00
75.5585 501.00
75.6237 484.00
75.6889 515.00
75.7541 549.00
75.8193 580.00
75.8845 554.00
75.9497 570.00
76.0149 615.00
76.0801 553.00
76.1452 505.00
76.2104 499.00
76.2756 439.00
76.3409 422.00
76.406 377.00
76.4712 378.00
76.5364 421.00
76.6016 385.00
76.6668 431.00
76.732 399.00
76.7972 398.00
76.8624 404.00
76.9276 370.00
76.9928 389.00
77.058 440.00
77.1232 461.00
77.1884 472.00
77.2536 463.00
77.3188 394.00
77.384 476.00
77.4492 419.00
77.5144 416.00
77.5796 460.00
77.6448 400.00
77.71 428.00
77.7752 435.00
77.8404 414.00
77.9056 431.00
77.9708 407.00
78.036 395.00
78.1012 387.00
78.1664 391.00
78.2316 382.00
78.2968 425.00
78.362 401.00
78.4272 402.00
78.4924 416.00
78.5576 415.00
78.6228 404.00
78.688 416.00
78.7532 489.00
78.8184 477.00
78.8836 553.00
78.9488 744.00
79.014 725.00
79.0792 727.00
79.1444 688.00
79.2096 702.00
79.2748 651.00
79.34 615.00
79.4052 569.00
79.4704 542.00
79.5356 532.00
79.6008 466.00
79.666 473.00
79.7312 507.00
79.7964 449.00
79.8616 519.00
79.9268 470.00
79.992 495.00
80.0572 567.00
80.1224 537.00
80.1876 584.00
80.2528 565.00
80.318 597.00
80.3832 596.00
80.4484 545.00
80.5136 564.00
80.5788 482.00
80.644 468.00
80.7092 453.00
80.7744 445.00
80.8396 405.00
80.9048 399.00
80.9699 391.00
81.0351 400.00
81.1003 389.00
81.1655 415.00
81.2307 438.00
81.2959 440.00
81.3611 411.00
81.4263 505.00
81.4915 416.00
81.5567 402.00
81.6219 399.00
81.6871 392.00
81.7523 420.00
81.8175 397.00
81.8827 381.00
81.9479 332.00
82.0131 344.00
82.0783 373.00
82.1435 336.00
82.2087 368.00
82.2739 372.00
82.3391 384.00
82.4043 343.00
82.4695 409.00
82.5347 375.00
82.5999 387.00
82.6651 396.00
82.7303 367.00
82.7955 401.00
82.8607 377.00
82.9259 380.00
82.9911 387.00
83.0563 345.00
83.1215 340.00
83.1867 386.00
83.2519 380.00
83.3171 359.00
83.3823 363.00
83.4475 413.00
83.5127 403.00
83.5779 361.00
83.6431 360.00
83.7083 378.00
83.7735 401.00
83.8387 457.00
83.9039 458.00
83.9691 533.00
84.0343 452.00
84.0995 452.00
84.1647 460.00
84.2299 458.00
84.2951 412.00
84.3603 360.00
84.4255 382.00
84.4907 376.00
84.5559 384.00
84.6211 360.00
84.6863 402.00
84.7515 366.00
84.8167 383.00
84.8819 345.00
84.9471 355.00
85.0123 394.00
85.0775 380.00
85.1427 358.00
85.2079 363.00
85.2731 371.00
85.3383 415.00
85.4035 424.00
85.4687 399.00
85.5339 396.00
85.5991 431.00
85.6643 415.00
85.7295 464.00
85.7946 405.00
85.8598 395.00
85.925 391.00
85.9903 368.00
86.0554 376.00
86.1206 387.00
86.1858 409.00
86.251 424.00
86.3162 389.00
86.3814 392.00
86.4466 391.00
86.5118 372.00
86.577 410.00
86.6422 405.00
86.7074 335.00
86.7726 364.00
86.8378 341.00
86.903 392.00
86.9682 381.00
87.0334 372.00
87.0986 387.00
87.1638 423.00
87.229 408.00
87.2942 427.00
87.3594 464.00
87.4246 494.00
87.4898 531.00
87.555 506.00
87.6202 519.00
87.6854 537.00
87.7506 579.00
87.8158 569.00
87.881 557.00
87.9462 581.00
88.0114 556.00
88.0766 548.00
88.1418 535.00
88.207 493.00
88.2722 520.00
88.3374 490.00
88.4026 482.00
88.4678 514.00
88.533 560.00
88.5982 536.00
88.6634 512.00
88.7286 563.00
88.7938 608.00
88.859 574.00
88.9242 630.00
88.9894 578.00
89.0546 613.00
89.1198 574.00
89.185 576.00
89.2502 507.00
89.3154 510.00
89.3806 468.00
89.4458 452.00
89.511 448.00
89.5762 430.00
89.6414 426.00
89.7066 394.00
89.7718 410.00
89.837 479.00
89.9022 453.00
89.9674 557.00
90.0326 512.00
90.0978 539.00
90.163 489.00
90.2282 461.00
90.2934 514.00
90.3586 509.00
90.4238 434.00
90.489 422.00
90.5542 431.00
90.6193 413.00
90.6845 424.00
90.7497 396.00
90.8149 419.00
90.8801 467.00
90.9453 452.00
91.0105 481.00
91.0757 531.00
91.1409 583.00
91.2061 561.00
91.2713 621.00
91.3365 547.00
91.4017 547.00
91.4669 541.00
91.5321 558.00
91.5973 492.00
91.6625 457.00
91.7277 483.00
91.7929 443.00
91.8581 423.00
91.9233 436.00
91.9885 457.00
92.0537 386.00
92.1189 421.00
92.1841 407.00
92.2493 425.00
92.3145 374.00
92.3797 385.00
92.4449 390.00
92.5101 396.00
92.5753 460.00
92.6405 454.00
92.7057 438.00
92.7709 481.00
92.8361 503.00
92.9013 481.00
92.9665 542.00
93.0317 599.00
93.0969 550.00
93.1621 610.00
93.2273 591.00
93.2925 622.00
93.3577 631.00
93.4229 585.00
93.4881 637.00
93.5533 569.00
93.6185 551.00
93.6837 533.00
93.7489 509.00
93.8141 498.00
93.8793 459.00
93.9445 450.00
94.0097 433.00
94.0749 421.00
94.1401 421.00
94.2053 368.00
94.2705 392.00
94.3357 412.00
94.4009 401.00
94.4661 371.00
94.5313 368.00
94.5965 383.00
94.6617 372.00
94.7269 425.00
94.7921 367.00
94.8573 381.00
94.9225 408.00
94.9877 392.00
95.0529 419.00
95.1181 418.00
95.1833 390.00
95.2485 423.00
95.3137 401.00
95.3789 414.00
95.444 409.00
95.5092 413.00
95.5744 427.00
95.6396 422.00
95.7048 438.00
95.77 471.00
95.8352 445.00
95.9004 461.00
95.9656 470.00
96.0308 495.00
96.096 564.00
96.1612 616.00
96.2264 706.00
96.2916 677.00
96.3568 703.00
96.422 639.00
96.4872 669.00
96.5524 710.00
96.6176 735.00
96.6828 744.00
96.748 678.00
96.8132 583.00
96.8784 558.00
96.9436 588.00
97.0088 518.00
97.074 454.00
97.1392 504.00
97.2044 504.00
97.2696 461.00
97.3348 423.00
97.4 489.00
97.4652 439.00
97.5304 444.00
97.5956 420.00
97.6608 416.00
97.726 431.00
97.7912 424.00
97.8564 450.00
97.9216 426.00
97.9868 456.00
98.052 401.00
98.1172 448.00
98.1824 441.00
98.2476 417.00
98.3128 419.00
98.378 411.00
98.4432 434.00
98.5084 372.00
98.5736 403.00
98.6388 444.00
98.704 378.00
98.7692 354.00
98.8344 392.00
98.8996 370.00
98.9648 379.00
99.03 412.00
99.0952 389.00
99.1604 404.00
99.2256 357.00
99.2908 353.00
99.356 348.00
99.4212 329.00
99.4864 357.00
99.5516 377.00
99.6168 392.00
99.682 357.00
99.7472 415.00
99.8124 411.00
99.8776 358.00
99.9428 409.00
100.008 391.00
100.073 410.00
100.095 401.00