File: data/xrd_creation/results/Na_115.xy
9.903433 2726.00
9.968632 2616.00
10.0338 2748.00
10.099 2714.00
10.1642 2544.00
10.2294 2555.00
10.2946 2519.00
10.3598 2547.00
10.425 2516.00
10.4902 2497.00
10.5554 2570.00
10.6206 2464.00
10.6858 2502.00
10.751 2471.00
10.8162 2445.00
10.8814 2436.00
10.9466 2347.00
11.0118 2343.00
11.077 2321.00
11.1422 2383.00
11.2074 2401.00
11.2726 2412.00
11.3378 2457.00
11.403 2611.00
11.4682 2858.00
11.5334 3173.00
11.5986 3792.00
11.6638 4448.00
11.729 4818.00
11.7942 5268.00
11.8594 5192.00
11.9246 4167.00
11.9898 3519.00
12.055 2792.00
12.1202 2332.00
12.1854 2172.00
12.2506 2159.00
12.3158 2021.00
12.381 2144.00
12.4462 1987.00
12.5114 2091.00
12.5766 2056.00
12.6418 2084.00
12.707 2027.00
12.7722 2012.00
12.8374 2046.00
12.9026 2018.00
12.9678 1943.00
13.033 1888.00
13.0982 1907.00
13.1634 1980.00
13.2286 1852.00
13.2938 1907.00
13.359 1873.00
13.4242 1931.00
13.4894 1911.00
13.5546 1888.00
13.6198 1780.00
13.685 1919.00
13.7502 1826.00
13.8154 1850.00
13.8805 1822.00
13.9457 1949.00
14.0109 1760.00
14.0761 1841.00
14.1413 1812.00
14.2065 1860.00
14.2717 1793.00
14.3369 1825.00
14.4021 1800.00
14.4673 1712.00
14.5325 1778.00
14.5977 1731.00
14.6629 1752.00
14.7281 1699.00
14.7933 1749.00
14.8585 1816.00
14.9237 1718.00
14.9889 1842.00
15.0541 1875.00
15.1193 1812.00
15.1845 1770.00
15.2497 1641.00
15.3149 1809.00
15.3801 1778.00
15.4453 1782.00
15.5105 1708.00
15.5757 1713.00
15.6409 1689.00
15.7061 1732.00
15.7713 1704.00
15.8365 1757.00
15.9017 1700.00
15.9669 1707.00
16.0321 1669.00
16.0973 1714.00
16.1625 1758.00
16.2277 1872.00
16.2929 1972.00
16.3581 2418.00
16.4233 2810.00
16.4885 3213.00
16.5537 3307.00
16.6189 3200.00
16.6841 2997.00
16.7493 2271.00
16.8145 1724.00
16.8797 1591.00
16.9449 1625.00
17.0101 1606.00
17.0753 1562.00
17.1405 1611.00
17.2057 1433.00
17.2709 1494.00
17.3361 1578.00
17.4013 1523.00
17.4665 1589.00
17.5317 1571.00
17.5969 1485.00
17.6621 1507.00
17.7273 1563.00
17.7925 1415.00
17.8577 1482.00
17.9229 1563.00
17.9881 1679.00
18.0533 1742.00
18.1185 1846.00
18.1837 1912.00
18.2489 1966.00
18.3141 1807.00
18.3793 1673.00
18.4445 1634.00
18.5097 1557.00
18.5749 1516.00
18.6401 1470.00
18.7052 1451.00
18.7704 1370.00
18.8356 1447.00
18.9008 1393.00
18.966 1487.00
19.0312 1392.00
19.0964 1444.00
19.1616 1337.00
19.2268 1379.00
19.292 1371.00
19.3572 1393.00
19.4224 1432.00
19.4876 1329.00
19.5528 1394.00
19.618 1296.00
19.6832 1440.00
19.7484 1314.00
19.8136 1328.00
19.8788 1376.00
19.944 1358.00
20.0092 1262.00
20.0744 1305.00
20.1396 1369.00
20.2048 1386.00
20.27 1412.00
20.3352 1539.00
20.4004 1527.00
20.4656 1509.00
20.5308 1443.00
20.596 1312.00
20.6612 1342.00
20.7264 1298.00
20.7916 1331.00
20.8568 1340.00
20.922 1341.00
20.9872 1359.00
21.0524 1364.00
21.1176 1396.00
21.1828 1333.00
21.248 1361.00
21.3132 1269.00
21.3784 1294.00
21.4436 1226.00
21.5088 1259.00
21.574 1226.00
21.6392 1216.00
21.7044 1177.00
21.7696 1210.00
21.8348 1208.00
21.9 1176.00
21.9652 1158.00
22.0304 1219.00
22.0956 1251.00
22.1608 1209.00
22.226 1204.00
22.2912 1162.00
22.3564 1142.00
22.4216 1126.00
22.4868 1213.00
22.552 1166.00
22.6172 1129.00
22.6824 1232.00
22.7476 1133.00
22.8128 1123.00
22.878 1069.00
22.9432 1132.00
23.0084 1188.00
23.0736 1153.00
23.1388 1142.00
23.204 1179.00
23.2692 1273.00
23.3344 1155.00
23.3996 1149.00
23.4647 1190.00
23.5299 1201.00
23.5951 1197.00
23.6603 1167.00
23.7255 1217.00
23.7907 1101.00
23.8559 1106.00
23.9211 1091.00
23.9863 1093.00
24.0515 1094.00
24.1167 1130.00
24.1819 1070.00
24.2471 1171.00
24.3123 1266.00
24.3775 1268.00
24.4427 1461.00
24.5079 1525.00
24.5731 1590.00
24.6383 1544.00
24.7035 1571.00
24.7687 1496.00
24.8339 1412.00
24.8991 1312.00
24.9643 1115.00
25.0295 1054.00
25.0947 1018.00
25.1599 1080.00
25.2251 1086.00
25.2903 1085.00
25.3555 1171.00
25.4207 1235.00
25.4859 1171.00
25.5511 1229.00
25.6163 1169.00
25.6815 1170.00
25.7467 1393.00
25.8119 1539.00
25.8771 2076.00
25.9423 2860.00
26.0075 3637.00
26.0727 4265.00
26.1379 4605.00
26.2031 4066.00
26.2683 3252.00
26.3335 2511.00
26.3987 1690.00
26.4639 1306.00
26.5291 1196.00
26.5943 1190.00
26.6595 1413.00
26.7247 1570.00
26.7899 1849.00
26.8551 2200.00
26.9203 2332.00
26.9855 2096.00
27.0507 1911.00
27.1159 1566.00
27.1811 1310.00
27.2463 1206.00
27.3115 1206.00
27.3767 1169.00
27.4419 1173.00
27.5071 1168.00
27.5723 1204.00
27.6375 1261.00
27.7027 1558.00
27.7679 2138.00
27.8331 2786.00
27.8983 3415.00
27.9635 3811.00
28.0287 3680.00
28.0939 3390.00
28.1591 2681.00
28.2243 2236.00
28.2894 1823.00
28.3546 1546.00
28.4198 1243.00
28.485 1049.00
28.5502 1052.00
28.6154 956.00
28.6806 928.00
28.7458 920.00
28.811 883.00
28.8762 881.00
28.9414 887.00
29.0066 900.00
29.0718 808.00
29.137 894.00
29.2022 872.00
29.2674 887.00
29.3326 888.00
29.3978 888.00
29.463 833.00
29.5282 868.00
29.5934 882.00
29.6586 898.00
29.7238 901.00
29.789 841.00
29.8542 880.00
29.9194 923.00
29.9846 940.00
30.0498 1054.00
30.115 1342.00
30.1802 1448.00
30.2454 1513.00
30.3106 1563.00
30.3758 1684.00
30.441 1538.00
30.5062 1396.00
30.5714 1372.00
30.6366 1138.00
30.7018 969.00
30.767 869.00
30.8322 864.00
30.8974 892.00
30.9626 876.00
31.0278 881.00
31.093 883.00
31.1582 855.00
31.2234 834.00
31.2886 854.00
31.3538 1029.00
31.419 1212.00
31.4842 1266.00
31.5494 1358.00
31.6146 1363.00
31.6798 1288.00
31.745 1197.00
31.8102 1173.00
31.8754 1340.00
31.9406 1404.00
32.0058 1396.00
32.071 1355.00
32.1362 1140.00
32.2014 1007.00
32.2666 863.00
32.3318 910.00
32.397 876.00
32.4622 888.00
32.5274 894.00
32.5926 956.00
32.6578 925.00
32.723 990.00
32.7882 1027.00
32.8534 1464.00
32.9186 2217.00
32.9838 3353.00
33.0489 4155.00
33.1141 4339.00
33.1793 4108.00
33.2445 3060.00
33.3097 1958.00
33.3749 1399.00
33.4401 1188.00
33.5053 1133.00
33.5705 1017.00
33.6357 1012.00
33.7009 945.00
33.7661 931.00
33.8313 971.00
33.8965 1019.00
33.9617 1194.00
34.0269 1406.00
34.0921 1756.00
34.1573 2021.00
34.2225 2210.00
34.2877 2567.00
34.3529 3107.00
34.4181 4082.00
34.4833 4772.00
34.5485 4961.00
34.6137 4598.00
34.6789 3630.00
34.7441 2507.00
34.8093 2100.00
34.8745 2035.00
34.9397 2132.00
35.0049 1998.00
35.0701 1656.00
35.1353 1294.00
35.2005 1070.00
35.2657 978.00
35.3309 963.00
35.3961 854.00
35.4613 773.00
35.5265 776.00
35.5917 719.00
35.6569 729.00
35.7221 658.00
35.7873 704.00
35.8525 704.00
35.9177 728.00
35.9829 681.00
36.0481 702.00
36.1133 742.00
36.1785 802.00
36.2437 854.00
36.3089 933.00
36.3741 987.00
36.4393 1027.00
36.5045 953.00
36.5697 1027.00
36.6349 904.00
36.7001 937.00
36.7653 990.00
36.8305 1032.00
36.8957 1120.00
36.9609 1051.00
37.0261 1084.00
37.0913 1033.00
37.1565 1061.00
37.2217 1039.00
37.2869 1017.00
37.3521 928.00
37.4173 895.00
37.4825 734.00
37.5477 742.00
37.6129 698.00
37.6781 796.00
37.7433 710.00
37.8085 751.00
37.8736 789.00
37.9388 863.00
38.004 832.00
38.0692 810.00
38.1344 851.00
38.1996 890.00
38.2648 933.00
38.33 889.00
38.3952 840.00
38.4604 766.00
38.5256 723.00
38.5908 705.00
38.656 667.00
38.7212 690.00
38.7864 688.00
38.8516 646.00
38.9168 669.00
38.982 637.00
39.0472 672.00
39.1124 745.00
39.1776 750.00
39.2428 881.00
39.308 817.00
39.3732 741.00
39.4384 756.00
39.5036 620.00
39.5688 667.00
39.634 635.00
39.6992 652.00
39.7644 657.00
39.8296 648.00
39.8948 698.00
39.96 613.00
40.0252 567.00
40.0904 569.00
40.1556 569.00
40.2208 592.00
40.286 600.00
40.3512 592.00
40.4164 640.00
40.4816 619.00
40.5468 639.00
40.612 694.00
40.6772 662.00
40.7424 615.00
40.8076 579.00
40.8728 651.00
40.938 641.00
41.0032 686.00
41.0684 712.00
41.1336 751.00
41.1988 665.00
41.264 632.00
41.3292 639.00
41.3944 721.00
41.4596 677.00
41.5248 696.00
41.59 729.00
41.6552 710.00
41.7204 884.00
41.7856 974.00
41.8508 1007.00
41.916 978.00
41.9812 866.00
42.0464 878.00
42.1116 991.00
42.1768 1086.00
42.242 1207.00
42.3072 1389.00
42.3724 1373.00
42.4376 1258.00
42.5028 1289.00
42.568 1165.00
42.6332 1055.00
42.6983 917.00
42.7635 753.00
42.8287 693.00
42.8939 593.00
42.9591 615.00
43.0243 628.00
43.0895 592.00
43.1547 577.00
43.2199 588.00
43.2851 604.00
43.3503 631.00
43.4155 689.00
43.4807 840.00
43.5459 866.00
43.6111 961.00
43.6763 890.00
43.7415 850.00
43.8067 778.00
43.8719 755.00
43.9371 726.00
44.0023 670.00
44.0675 712.00
44.1327 645.00
44.1979 601.00
44.2631 620.00
44.3283 588.00
44.3935 613.00
44.4587 597.00
44.5239 623.00
44.5891 561.00
44.6543 561.00
44.7195 573.00
44.7847 597.00
44.8499 604.00
44.9151 596.00
44.9803 647.00
45.0455 740.00
45.1107 832.00
45.1759 866.00
45.2411 864.00
45.3063 863.00
45.3715 826.00
45.4367 773.00
45.5019 738.00
45.5671 727.00
45.6323 657.00
45.6975 685.00
45.7627 674.00
45.8279 668.00
45.8931 614.00
45.9583 599.00
46.0235 557.00
46.0887 552.00
46.1539 586.00
46.2191 622.00
46.2843 617.00
46.3495 615.00
46.4147 559.00
46.4799 584.00
46.5451 524.00
46.6103 604.00
46.6755 595.00
46.7407 620.00
46.8059 681.00
46.8711 718.00
46.9363 796.00
47.0015 856.00
47.0667 919.00
47.1319 968.00
47.1971 977.00
47.2623 1081.00
47.3275 1120.00
47.3927 1227.00
47.4579 1423.00
47.523 1570.00
47.5882 1875.00
47.6534 1712.00
47.7186 1535.00
47.7838 1113.00
47.849 859.00
47.9142 690.00
47.9794 641.00
48.0446 604.00
48.1098 588.00
48.175 555.00
48.2402 581.00
48.3054 543.00
48.3706 633.00
48.4358 617.00
48.501 677.00
48.5662 710.00
48.6314 717.00
48.6966 716.00
48.7618 688.00
48.827 699.00
48.8922 752.00
48.9574 761.00
49.0226 869.00
49.0878 888.00
49.153 973.00
49.2182 973.00
49.2834 825.00
49.3486 802.00
49.4138 728.00
49.479 704.00
49.5442 766.00
49.6094 824.00
49.6746 1092.00
49.7398 1286.00
49.805 1321.00
49.8702 1318.00
49.9354 1146.00
50.0006 1238.00
50.0658 1193.00
50.131 1102.00
50.1962 1252.00
50.2614 1248.00
50.3266 1303.00
50.3918 1292.00
50.457 1146.00
50.5222 1011.00
50.5874 828.00
50.6526 663.00
50.7178 624.00
50.783 575.00
50.8482 590.00
50.9134 572.00
50.9786 554.00
51.0438 519.00
51.109 523.00
51.1742 580.00
51.2394 595.00
51.3046 612.00
51.3698 590.00
51.435 644.00
51.5002 594.00
51.5654 659.00
51.6306 669.00
51.6958 905.00
51.761 1161.00
51.8262 1371.00
51.8914 1491.00
51.9566 1540.00
52.0218 1625.00
52.087 1550.00
52.1522 1496.00
52.2174 1323.00
52.2826 1085.00
52.3477 950.00
52.4129 736.00
52.4781 699.00
52.5433 643.00
52.6085 590.00
52.6737 505.00
52.7389 518.00
52.8041 520.00
52.8693 518.00
52.9345 541.00
52.9997 697.00
53.0649 748.00
53.1301 829.00
53.1953 968.00
53.2605 840.00
53.3257 814.00
53.3909 845.00
53.4561 783.00
53.5213 732.00
53.5865 680.00
53.6517 629.00
53.7169 581.00
53.7821 689.00
53.8473 617.00
53.9125 690.00
53.9777 635.00
54.0429 628.00
54.1081 645.00
54.1733 626.00
54.2385 597.00
54.3037 598.00
54.3689 654.00
54.4341 669.00
54.4993 684.00
54.5645 577.00
54.6297 616.00
54.6949 599.00
54.7601 629.00
54.8253 707.00
54.8905 762.00
54.9557 827.00
55.0209 810.00
55.0861 820.00
55.1513 683.00
55.2165 660.00
55.2817 653.00
55.3469 690.00
55.4121 764.00
55.4773 885.00
55.5425 902.00
55.6077 975.00
55.6729 919.00
55.7381 870.00
55.8033 738.00
55.8685 635.00
55.9337 559.00
55.9989 554.00
56.0641 597.00
56.1293 616.00
56.1945 667.00
56.2597 667.00
56.3249 734.00
56.3901 797.00
56.4553 734.00
56.5205 653.00
56.5857 653.00
56.6509 613.00
56.7161 600.00
56.7813 703.00
56.8465 815.00
56.9117 789.00
56.9769 811.00
57.042 824.00
57.1073 814.00
57.1724 761.00
57.2376 835.00
57.3028 826.00
57.368 778.00
57.4332 777.00
57.4984 735.00
57.5636 731.00
57.6288 653.00
57.694 613.00
57.7592 611.00
57.8244 625.00
57.8896 653.00
57.9548 659.00
58.02 666.00
58.0852 715.00
58.1504 751.00
58.2156 758.00
58.2808 826.00
58.346 1004.00
58.4112 1094.00
58.4764 1272.00
58.5416 1277.00
58.6068 1245.00
58.672 1081.00
58.7372 954.00
58.8024 876.00
58.8676 844.00
58.9328 885.00
58.998 867.00
59.0632 919.00
59.1284 893.00
59.1936 910.00
59.2588 877.00
59.324 996.00
59.3892 1136.00
59.4544 1316.00
59.5196 1408.00
59.5848 1574.00
59.65 1740.00
59.7152 1582.00
59.7804 1419.00
59.8456 1362.00
59.9108 1199.00
59.976 1065.00
60.0412 1056.00
60.1064 1061.00
60.1716 1166.00
60.2368 1121.00
60.302 1185.00
60.3672 1042.00
60.4324 879.00
60.4976 809.00
60.5628 654.00
60.628 588.00
60.6932 552.00
60.7584 631.00
60.8236 581.00
60.8888 621.00
60.954 626.00
61.0192 629.00
61.0844 556.00
61.1496 537.00
61.2148 527.00
61.28 500.00
61.3452 515.00
61.4104 507.00
61.4756 580.00
61.5408 567.00
61.606 600.00
61.6712 667.00
61.7364 654.00
61.8016 653.00
61.8667 686.00
61.932 646.00
61.9971 603.00
62.0623 661.00
62.1275 658.00
62.1927 730.00
62.2579 829.00
62.3231 909.00
62.3883 899.00
62.4535 829.00
62.5187 792.00
62.5839 643.00
62.6491 604.00
62.7143 556.00
62.7795 544.00
62.8447 618.00
62.9099 809.00
62.9751 883.00
63.0403 980.00
63.1055 891.00
63.1707 785.00
63.2359 681.00
63.3011 588.00
63.3663 501.00
63.4315 524.00
63.4967 499.00
63.5619 512.00
63.6271 480.00
63.6923 566.00
63.7575 558.00
63.8227 539.00
63.8879 580.00
63.9531 546.00
64.0183 556.00
64.0835 623.00
64.1487 612.00
64.2139 629.00
64.2791 579.00
64.3443 624.00
64.4095 625.00
64.4747 615.00
64.5399 587.00
64.6051 606.00
64.6703 610.00
64.7355 590.00
64.8007 664.00
64.8659 717.00
64.9311 807.00
64.9963 870.00
65.0615 798.00
65.1267 748.00
65.1919 714.00
65.2571 668.00
65.3223 631.00
65.3875 689.00
65.4527 717.00
65.5179 697.00
65.5831 686.00
65.6483 694.00
65.7135 701.00
65.7787 759.00
65.8439 790.00
65.9091 808.00
65.9743 797.00
66.0395 830.00
66.1047 856.00
66.1699 870.00
66.2351 854.00
66.3003 822.00
66.3655 766.00
66.4307 711.00
66.4959 654.00
66.561 629.00
66.6263 552.00
66.6915 576.00
66.7566 570.00
66.8218 562.00
66.887 611.00
66.9522 551.00
67.0174 591.00
67.0826 558.00
67.1478 568.00
67.213 560.00
67.2782 598.00
67.3434 570.00
67.4086 618.00
67.4738 583.00
67.539 571.00
67.6042 558.00
67.6694 542.00
67.7346 497.00
67.7998 449.00
67.865 478.00
67.9302 503.00
67.9954 595.00
68.0606 573.00
68.1258 561.00
68.191 568.00
68.2562 485.00
68.3214 457.00
68.3866 471.00
68.4518 457.00
68.517 512.00
68.5822 548.00
68.6474 601.00
68.7126 594.00
68.7778 577.00
68.843 625.00
68.9082 616.00
68.9734 599.00
69.0386 570.00
69.1038 531.00
69.169 520.00
69.2342 517.00
69.2994 476.00
69.3646 490.00
69.4298 475.00
69.495 437.00
69.5602 427.00
69.6254 433.00
69.6906 445.00
69.7558 476.00
69.821 476.00
69.8862 436.00
69.9514 444.00
70.0166 493.00
70.0818 427.00
70.147 424.00
70.2122 438.00
70.2774 450.00
70.3426 435.00
70.4078 422.00
70.473 416.00
70.5382 423.00
70.6034 406.00
70.6686 421.00
70.7338 445.00
70.799 527.00
70.8642 475.00
70.9294 434.00
70.9946 463.00
71.0598 424.00
71.125 447.00
71.1902 444.00
71.2554 422.00
71.3205 394.00
71.3858 458.00
71.451 462.00
71.5162 454.00
71.5813 451.00
71.6465 508.00
71.7117 452.00
71.7769 470.00
71.8421 425.00
71.9073 398.00
71.9725 450.00
72.0377 469.00
72.1029 548.00
72.1681 602.00
72.2333 656.00
72.2985 681.00
72.3637 691.00
72.4289 585.00
72.4941 619.00
72.5593 506.00
72.6245 501.00
72.6897 470.00
72.7549 397.00
72.8201 379.00
72.8853 363.00
72.9505 388.00
73.0157 422.00
73.0809 391.00
73.1461 429.00
73.2113 480.00
73.2765 569.00
73.3417 652.00
73.4069 712.00
73.4721 623.00
73.5373 581.00
73.6025 548.00
73.6677 504.00
73.7329 499.00
73.7981 427.00
73.8633 368.00
73.9285 386.00
73.9937 399.00
74.0589 442.00
74.1241 400.00
74.1893 433.00
74.2545 495.00
74.3197 478.00
74.3849 498.00
74.4501 495.00
74.5153 526.00
74.5805 518.00
74.6457 496.00
74.7109 501.00
74.7761 450.00
74.8413 402.00
74.9065 430.00
74.9717 392.00
75.0369 404.00
75.1021 431.00
75.1673 414.00
75.2325 418.00
75.2977 510.00
75.3629 520.00
75.4281 563.00
75.4933 494.00
75.5585 478.00
75.6237 410.00
75.6889 444.00
75.7541 407.00
75.8193 393.00
75.8845 388.00
75.9497 402.00
76.0149 448.00
76.0801 436.00
76.1452 464.00
76.2104 441.00
76.2756 474.00
76.3409 427.00
76.406 455.00
76.4712 447.00
76.5364 459.00
76.6016 407.00
76.6668 407.00
76.732 451.00
76.7972 462.00
76.8624 505.00
76.9276 490.00
76.9928 517.00
77.058 477.00
77.1232 511.00
77.1884 535.00
77.2536 493.00
77.3188 563.00
77.384 525.00
77.4492 530.00
77.5144 516.00
77.5796 486.00
77.6448 475.00
77.71 434.00
77.7752 390.00
77.8404 400.00
77.9056 404.00
77.9708 429.00
78.036 402.00
78.1012 474.00
78.1664 477.00
78.2316 441.00
78.2968 438.00
78.362 399.00
78.4272 398.00
78.4924 396.00
78.5576 447.00
78.6228 455.00
78.688 476.00
78.7532 569.00
78.8184 679.00
78.8836 674.00
78.9488 698.00
79.014 646.00
79.0792 649.00
79.1444 631.00
79.2096 585.00
79.2748 605.00
79.34 522.00
79.4052 470.00
79.4704 481.00
79.5356 474.00
79.6008 448.00
79.666 417.00
79.7312 369.00
79.7964 388.00
79.8616 410.00
79.9268 399.00
79.992 442.00
80.0572 457.00
80.1224 454.00
80.1876 497.00
80.2528 488.00
80.318 516.00
80.3832 511.00
80.4484 503.00
80.5136 495.00
80.5788 458.00
80.644 451.00
80.7092 453.00
80.7744 448.00
80.8396 466.00
80.9048 425.00
80.9699 462.00
81.0351 439.00
81.1003 450.00
81.1655 470.00
81.2307 441.00
81.2959 449.00
81.3611 466.00
81.4263 476.00
81.4915 478.00
81.5567 458.00
81.6219 464.00
81.6871 491.00
81.7523 483.00
81.8175 428.00
81.8827 406.00
81.9479 443.00
82.0131 415.00
82.0783 377.00
82.1435 381.00
82.2087 414.00
82.2739 365.00
82.3391 398.00
82.4043 383.00
82.4695 425.00
82.5347 450.00
82.5999 464.00
82.6651 446.00
82.7303 496.00
82.7955 460.00
82.8607 443.00
82.9259 453.00
82.9911 417.00
83.0563 405.00
83.1215 375.00
83.1867 370.00
83.2519 393.00
83.3171 400.00
83.3823 474.00
83.4475 433.00
83.5127 434.00
83.5779 415.00
83.6431 454.00
83.7083 472.00
83.7735 561.00
83.8387 491.00
83.9039 533.00
83.9691 551.00
84.0343 530.00
84.0995 488.00
84.1647 505.00
84.2299 450.00
84.2951 423.00
84.3603 448.00
84.4255 412.00
84.4907 408.00
84.5559 453.00
84.6211 454.00
84.6863 502.00
84.7515 537.00
84.8167 548.00
84.8819 456.00
84.9471 528.00
85.0123 527.00
85.0775 495.00
85.1427 476.00
85.2079 498.00
85.2731 469.00
85.3383 422.00
85.4035 467.00
85.4687 445.00
85.5339 433.00
85.5991 446.00
85.6643 411.00
85.7295 404.00
85.7946 455.00
85.8598 475.00
85.925 480.00
85.9903 455.00
86.0554 526.00
86.1206 546.00
86.1858 557.00
86.251 467.00
86.3162 461.00
86.3814 482.00
86.4466 445.00
86.5118 494.00
86.577 508.00
86.6422 491.00
86.7074 461.00
86.7726 448.00
86.8378 470.00
86.903 489.00
86.9682 463.00
87.0334 474.00
87.0986 480.00
87.1638 513.00
87.229 491.00
87.2942 499.00
87.3594 458.00
87.4246 484.00
87.4898 455.00
87.555 471.00
87.6202 444.00
87.6854 488.00
87.7506 386.00
87.8158 413.00
87.881 383.00
87.9462 413.00
88.0114 406.00
88.0766 386.00
88.1418 399.00
88.207 377.00
88.2722 399.00
88.3374 429.00
88.4026 493.00
88.4678 500.00
88.533 531.00
88.5982 477.00
88.6634 501.00
88.7286 511.00
88.7938 483.00
88.859 543.00
88.9242 477.00
88.9894 475.00
89.0546 430.00
89.1198 454.00
89.185 433.00
89.2502 435.00
89.3154 451.00
89.3806 488.00
89.4458 456.00
89.511 463.00
89.5762 469.00
89.6414 477.00
89.7066 444.00
89.7718 464.00
89.837 472.00
89.9022 478.00
89.9674 492.00
90.0326 546.00
90.0978 456.00
90.163 496.00
90.2282 472.00
90.2934 576.00
90.3586 533.00
90.4238 552.00
90.489 590.00
90.5542 532.00
90.6193 545.00
90.6845 470.00
90.7497 485.00
90.8149 466.00
90.8801 512.00
90.9453 461.00
91.0105 483.00
91.0757 498.00
91.1409 510.00
91.2061 476.00
91.2713 542.00
91.3365 485.00
91.4017 521.00
91.4669 513.00
91.5321 506.00
91.5973 462.00
91.6625 522.00
91.7277 486.00
91.7929 494.00
91.8581 488.00
91.9233 524.00
91.9885 529.00
92.0537 475.00
92.1189 462.00
92.1841 443.00
92.2493 471.00
92.3145 485.00
92.3797 420.00
92.4449 419.00
92.5101 442.00
92.5753 463.00
92.6405 494.00
92.7057 476.00
92.7709 500.00
92.8361 453.00
92.9013 447.00
92.9665 470.00
93.0317 464.00
93.0969 429.00
93.1621 460.00
93.2273 412.00
93.2925 385.00
93.3577 399.00
93.4229 432.00
93.4881 432.00
93.5533 438.00
93.6185 402.00
93.6837 439.00
93.7489 405.00
93.8141 473.00
93.8793 418.00
93.9445 397.00
94.0097 399.00
94.0749 391.00
94.1401 386.00
94.2053 387.00
94.2705 407.00
94.3357 393.00
94.4009 387.00
94.4661 410.00
94.5313 409.00
94.5965 382.00
94.6617 380.00
94.7269 390.00
94.7921 370.00
94.8573 346.00
94.9225 371.00
94.9877 362.00
95.0529 399.00
95.1181 382.00
95.1833 347.00
95.2485 401.00
95.3137 412.00
95.3789 389.00
95.444 449.00
95.5092 440.00
95.5744 465.00
95.6396 474.00
95.7048 450.00
95.77 477.00
95.8352 466.00
95.9004 536.00
95.9656 498.00
96.0308 518.00
96.096 451.00
96.1612 498.00
96.2264 478.00
96.2916 486.00
96.3568 488.00
96.422 478.00
96.4872 417.00
96.5524 404.00
96.6176 472.00
96.6828 473.00
96.748 467.00
96.8132 465.00
96.8784 495.00
96.9436 479.00
97.0088 515.00
97.074 550.00
97.1392 544.00
97.2044 519.00
97.2696 547.00
97.3348 551.00
97.4 554.00
97.4652 556.00
97.5304 507.00
97.5956 544.00
97.6608 450.00
97.726 444.00
97.7912 426.00
97.8564 476.00
97.9216 453.00
97.9868 441.00
98.052 457.00
98.1172 457.00
98.1824 428.00
98.2476 426.00
98.3128 490.00
98.378 435.00
98.4432 442.00
98.5084 437.00
98.5736 379.00
98.6388 436.00
98.704 479.00
98.7692 419.00
98.8344 418.00
98.8996 394.00
98.9648 416.00
99.03 388.00
99.0952 416.00
99.1604 376.00
99.2256 425.00
99.2908 425.00
99.356 471.00
99.4212 436.00
99.4864 439.00
99.5516 450.00
99.6168 488.00
99.682 520.00
99.7472 577.00
99.8124 637.00
99.8776 515.00
99.9428 492.00
100.008 438.00
100.073 475.00
100.095 452.00