File: data/xrd_creation/results/Na_101.xy
9.903433 2669.00
9.968632 2709.00
10.0338 2568.00
10.099 2639.00
10.1642 2640.00
10.2294 2691.00
10.2946 2484.00
10.3598 2558.00
10.425 2596.00
10.4902 2525.00
10.5554 2556.00
10.6206 2520.00
10.6858 2434.00
10.751 2473.00
10.8162 2457.00
10.8814 2439.00
10.9466 2385.00
11.0118 2452.00
11.077 2332.00
11.1422 2507.00
11.2074 2311.00
11.2726 2297.00
11.3378 2284.00
11.403 2278.00
11.4682 2211.00
11.5334 2239.00
11.5986 2178.00
11.6638 2247.00
11.729 2230.00
11.7942 2180.00
11.8594 2215.00
11.9246 2115.00
11.9898 2099.00
12.055 2210.00
12.1202 2166.00
12.1854 2177.00
12.2506 2086.00
12.3158 2066.00
12.381 2128.00
12.4462 2051.00
12.5114 2067.00
12.5766 1958.00
12.6418 1946.00
12.707 1982.00
12.7722 2005.00
12.8374 1942.00
12.9026 1920.00
12.9678 1941.00
13.033 1951.00
13.0982 1905.00
13.1634 1892.00
13.2286 1800.00
13.2938 1943.00
13.359 1823.00
13.4242 1879.00
13.4894 1835.00
13.5546 1906.00
13.6198 1791.00
13.685 1852.00
13.7502 1824.00
13.8154 1908.00
13.8805 1952.00
13.9457 1866.00
14.0109 1857.00
14.0761 1786.00
14.1413 1789.00
14.2065 1853.00
14.2717 1805.00
14.3369 1814.00
14.4021 1784.00
14.4673 1761.00
14.5325 1748.00
14.5977 1657.00
14.6629 1719.00
14.7281 1749.00
14.7933 1737.00
14.8585 1692.00
14.9237 1682.00
14.9889 1758.00
15.0541 1739.00
15.1193 1668.00
15.1845 1636.00
15.2497 1679.00
15.3149 1771.00
15.3801 1685.00
15.4453 1611.00
15.5105 1618.00
15.5757 1718.00
15.6409 1625.00
15.7061 1614.00
15.7713 1589.00
15.8365 1656.00
15.9017 1655.00
15.9669 1592.00
16.0321 1640.00
16.0973 1730.00
16.1625 1672.00
16.2277 1559.00
16.2929 1567.00
16.3581 1532.00
16.4233 1631.00
16.4885 1599.00
16.5537 1591.00
16.6189 1588.00
16.6841 1571.00
16.7493 1571.00
16.8145 1533.00
16.8797 1597.00
16.9449 1535.00
17.0101 1506.00
17.0753 1543.00
17.1405 1533.00
17.2057 1602.00
17.2709 1582.00
17.3361 1675.00
17.4013 1529.00
17.4665 1477.00
17.5317 1503.00
17.5969 1565.00
17.6621 1495.00
17.7273 1460.00
17.7925 1417.00
17.8577 1425.00
17.9229 1468.00
17.9881 1449.00
18.0533 1406.00
18.1185 1441.00
18.1837 1427.00
18.2489 1431.00
18.3141 1467.00
18.3793 1454.00
18.4445 1451.00
18.5097 1461.00
18.5749 1399.00
18.6401 1410.00
18.7052 1366.00
18.7704 1461.00
18.8356 1469.00
18.9008 1481.00
18.966 1480.00
19.0312 1517.00
19.0964 1478.00
19.1616 1431.00
19.2268 1549.00
19.292 1444.00
19.3572 1485.00
19.4224 1444.00
19.4876 1563.00
19.5528 1534.00
19.618 1516.00
19.6832 1471.00
19.7484 1434.00
19.8136 1380.00
19.8788 1374.00
19.944 1370.00
20.0092 1384.00
20.0744 1389.00
20.1396 1344.00
20.2048 1357.00
20.27 1391.00
20.3352 1300.00
20.4004 1319.00
20.4656 1412.00
20.5308 1319.00
20.596 1232.00
20.6612 1282.00
20.7264 1209.00
20.7916 1185.00
20.8568 1232.00
20.922 1191.00
20.9872 1257.00
21.0524 1228.00
21.1176 1169.00
21.1828 1161.00
21.248 1234.00
21.3132 1213.00
21.3784 1210.00
21.4436 1254.00
21.5088 1265.00
21.574 1207.00
21.6392 1264.00
21.7044 1258.00
21.7696 1256.00
21.8348 1173.00
21.9 1226.00
21.9652 1227.00
22.0304 1296.00
22.0956 1371.00
22.1608 1336.00
22.226 1304.00
22.2912 1327.00
22.3564 1270.00
22.4216 1427.00
22.4868 1591.00
22.552 1713.00
22.6172 1693.00
22.6824 1553.00
22.7476 1398.00
22.8128 1322.00
22.878 1316.00
22.9432 1207.00
23.0084 1211.00
23.0736 1096.00
23.1388 1138.00
23.204 1087.00
23.2692 1104.00
23.3344 1139.00
23.3996 1104.00
23.4647 1147.00
23.5299 1120.00
23.5951 1067.00
23.6603 1147.00
23.7255 1052.00
23.7907 1089.00
23.8559 1083.00
23.9211 1041.00
23.9863 1072.00
24.0515 1017.00
24.1167 1070.00
24.1819 1080.00
24.2471 1078.00
24.3123 1120.00
24.3775 1040.00
24.4427 1059.00
24.5079 1069.00
24.5731 1005.00
24.6383 1072.00
24.7035 1025.00
24.7687 1094.00
24.8339 1050.00
24.8991 1057.00
24.9643 1073.00
25.0295 1016.00
25.0947 1088.00
25.1599 1130.00
25.2251 1125.00
25.2903 1089.00
25.3555 1115.00
25.4207 1168.00
25.4859 1118.00
25.5511 1122.00
25.6163 1033.00
25.6815 1110.00
25.7467 1000.00
25.8119 1025.00
25.8771 1085.00
25.9423 1177.00
26.0075 1210.00
26.0727 1321.00
26.1379 1289.00
26.2031 1221.00
26.2683 1289.00
26.3335 1225.00
26.3987 1336.00
26.4639 1470.00
26.5291 1683.00
26.5943 2057.00
26.6595 2700.00
26.7247 4190.00
26.7899 6830.00
26.8551 11312.00
26.9203 14058.00
26.9855 10627.00
27.0507 5776.00
27.1159 3366.00
27.1811 2462.00
27.2463 2064.00
27.3115 1676.00
27.3767 1398.00
27.4419 1332.00
27.5071 1213.00
27.5723 1260.00
27.6375 1230.00
27.7027 1240.00
27.7679 1289.00
27.8331 1365.00
27.8983 1468.00
27.9635 1731.00
28.0287 1622.00
28.0939 1460.00
28.1591 1313.00
28.2243 1191.00
28.2894 1058.00
28.3546 1071.00
28.4198 1006.00
28.485 990.00
28.5502 977.00
28.6154 958.00
28.6806 979.00
28.7458 983.00
28.811 1008.00
28.8762 1060.00
28.9414 1114.00
29.0066 1236.00
29.0718 1393.00
29.137 1662.00
29.2022 1704.00
29.2674 1601.00
29.3326 1395.00
29.3978 1391.00
29.463 1374.00
29.5282 1328.00
29.5934 1311.00
29.6586 1351.00
29.7238 1457.00
29.789 1718.00
29.8542 2015.00
29.9194 1997.00
29.9846 1592.00
30.0498 1315.00
30.115 1233.00
30.1802 1200.00
30.2454 1236.00
30.3106 1242.00
30.3758 1242.00
30.441 1235.00
30.5062 1091.00
30.5714 1052.00
30.6366 1073.00
30.7018 1130.00
30.767 1282.00
30.8322 1498.00
30.8974 1552.00
30.9626 1610.00
31.0278 1453.00
31.093 1405.00
31.1582 1338.00
31.2234 1379.00
31.2886 1539.00
31.3538 1421.00
31.419 1156.00
31.4842 954.00
31.5494 898.00
31.6146 840.00
31.6798 861.00
31.745 971.00
31.8102 948.00
31.8754 1054.00
31.9406 1027.00
32.0058 1179.00
32.071 1224.00
32.1362 1266.00
32.2014 1310.00
32.2666 1215.00
32.3318 1175.00
32.397 1170.00
32.4622 1173.00
32.5274 1127.00
32.5926 1081.00
32.6578 1120.00
32.723 1223.00
32.7882 1281.00
32.8534 1221.00
32.9186 1162.00
32.9838 1044.00
33.0489 896.00
33.1141 902.00
33.1793 924.00
33.2445 996.00
33.3097 917.00
33.3749 912.00
33.4401 1011.00
33.5053 1034.00
33.5705 1157.00
33.6357 1239.00
33.7009 1286.00
33.7661 1353.00
33.8313 1400.00
33.8965 1651.00
33.9617 2309.00
34.0269 3736.00
34.0921 6472.00
34.1573 10183.00
34.2225 10460.00
34.2877 7392.00
34.3529 4091.00
34.4181 2534.00
34.4833 1741.00
34.5485 1587.00
34.6137 1541.00
34.6789 1414.00
34.7441 1138.00
34.8093 993.00
34.8745 877.00
34.9397 855.00
35.0049 898.00
35.0701 836.00
35.1353 839.00
35.2005 799.00
35.2657 791.00
35.3309 803.00
35.3961 834.00
35.4613 871.00
35.5265 911.00
35.5917 927.00
35.6569 820.00
35.7221 798.00
35.7873 782.00
35.8525 753.00
35.9177 701.00
35.9829 714.00
36.0481 730.00
36.1133 639.00
36.1785 711.00
36.2437 682.00
36.3089 677.00
36.3741 709.00
36.4393 640.00
36.5045 647.00
36.5697 662.00
36.6349 670.00
36.7001 678.00
36.7653 672.00
36.8305 603.00
36.8957 648.00
36.9609 703.00
37.0261 624.00
37.0913 657.00
37.1565 716.00
37.2217 710.00
37.2869 645.00
37.3521 762.00
37.4173 826.00
37.4825 858.00
37.5477 969.00
37.6129 1007.00
37.6781 1056.00
37.7433 1097.00
37.8085 992.00
37.8736 992.00
37.9388 968.00
38.004 1043.00
38.0692 1231.00
38.1344 1715.00
38.1996 2663.00
38.2648 3462.00
38.33 3065.00
38.3952 2370.00
38.4604 1534.00
38.5256 1184.00
38.5908 961.00
38.656 881.00
38.7212 799.00
38.7864 852.00
38.8516 846.00
38.9168 782.00
38.982 717.00
39.0472 791.00
39.1124 798.00
39.1776 886.00
39.2428 1113.00
39.308 1178.00
39.3732 1117.00
39.4384 928.00
39.5036 815.00
39.5688 640.00
39.634 630.00
39.6992 624.00
39.7644 641.00
39.8296 657.00
39.8948 711.00
39.96 719.00
40.0252 772.00
40.0904 754.00
40.1556 757.00
40.2208 685.00
40.286 641.00
40.3512 709.00
40.4164 753.00
40.4816 692.00
40.5468 718.00
40.612 737.00
40.6772 705.00
40.7424 688.00
40.8076 793.00
40.8728 786.00
40.938 719.00
41.0032 714.00
41.0684 633.00
41.1336 680.00
41.1988 678.00
41.264 651.00
41.3292 621.00
41.3944 608.00
41.4596 627.00
41.5248 551.00
41.59 526.00
41.6552 525.00
41.7204 550.00
41.7856 524.00
41.8508 583.00
41.916 611.00
41.9812 623.00
42.0464 609.00
42.1116 638.00
42.1768 594.00
42.242 603.00
42.3072 688.00
42.3724 620.00
42.4376 611.00
42.5028 636.00
42.568 596.00
42.6332 562.00
42.6983 647.00
42.7635 649.00
42.8287 706.00
42.8939 751.00
42.9591 785.00
43.0243 803.00
43.0895 733.00
43.1547 691.00
43.2199 644.00
43.2851 653.00
43.3503 722.00
43.4155 727.00
43.4807 737.00
43.5459 674.00
43.6111 731.00
43.6763 747.00
43.7415 650.00
43.8067 641.00
43.8719 587.00
43.9371 545.00
44.0023 552.00
44.0675 524.00
44.1327 527.00
44.1979 514.00
44.2631 512.00
44.3283 525.00
44.3935 510.00
44.4587 507.00
44.5239 551.00
44.5891 556.00
44.6543 593.00
44.7195 555.00
44.7847 625.00
44.8499 598.00
44.9151 605.00
44.9803 564.00
45.0455 552.00
45.1107 592.00
45.1759 559.00
45.2411 530.00
45.3063 545.00
45.3715 571.00
45.4367 550.00
45.5019 635.00
45.5671 668.00
45.6323 681.00
45.6975 730.00
45.7627 722.00
45.8279 663.00
45.8931 587.00
45.9583 560.00
46.0235 547.00
46.0887 507.00
46.1539 533.00
46.2191 536.00
46.2843 567.00
46.3495 524.00
46.4147 535.00
46.4799 522.00
46.5451 567.00
46.6103 631.00
46.6755 668.00
46.7407 653.00
46.8059 700.00
46.8711 656.00
46.9363 682.00
47.0015 643.00
47.0667 620.00
47.1319 595.00
47.1971 653.00
47.2623 648.00
47.3275 615.00
47.3927 551.00
47.4579 464.00
47.523 475.00
47.5882 480.00
47.6534 504.00
47.7186 443.00
47.7838 454.00
47.849 469.00
47.9142 431.00
47.9794 443.00
48.0446 454.00
48.1098 480.00
48.175 546.00
48.2402 559.00
48.3054 525.00
48.3706 534.00
48.4358 512.00
48.501 556.00
48.5662 506.00
48.6314 596.00
48.6966 623.00
48.7618 613.00
48.827 570.00
48.8922 537.00
48.9574 515.00
49.0226 507.00
49.0878 559.00
49.153 563.00
49.2182 618.00
49.2834 602.00
49.3486 634.00
49.4138 612.00
49.479 648.00
49.5442 585.00
49.6094 534.00
49.6746 547.00
49.7398 566.00
49.805 561.00
49.8702 644.00
49.9354 602.00
50.0006 669.00
50.0658 650.00
50.131 677.00
50.1962 560.00
50.2614 627.00
50.3266 558.00
50.3918 531.00
50.457 591.00
50.5222 586.00
50.5874 607.00
50.6526 588.00
50.7178 649.00
50.783 592.00
50.8482 638.00
50.9134 585.00
50.9786 556.00
51.0438 581.00
51.109 554.00
51.1742 599.00
51.2394 575.00
51.3046 615.00
51.3698 614.00
51.435 720.00
51.5002 757.00
51.5654 837.00
51.6306 942.00
51.6958 1086.00
51.761 1310.00
51.8262 1638.00
51.8914 2360.00
51.9566 3962.00
52.0218 6795.00
52.087 8168.00
52.1522 7146.00
52.2174 5756.00
52.2826 3696.00
52.3477 2116.00
52.4129 1424.00
52.4781 1022.00
52.5433 881.00
52.6085 702.00
52.6737 708.00
52.7389 650.00
52.8041 640.00
52.8693 586.00
52.9345 594.00
52.9997 647.00
53.0649 682.00
53.1301 658.00
53.1953 657.00
53.2605 689.00
53.3257 671.00
53.3909 529.00
53.4561 533.00
53.5213 567.00
53.5865 572.00
53.6517 513.00
53.7169 522.00
53.7821 520.00
53.8473 542.00
53.9125 481.00
53.9777 479.00
54.0429 480.00
54.1081 488.00
54.1733 503.00
54.2385 466.00
54.3037 520.00
54.3689 471.00
54.4341 550.00
54.4993 503.00
54.5645 575.00
54.6297 609.00
54.6949 652.00
54.7601 753.00
54.8253 765.00
54.8905 941.00
54.9557 1325.00
55.0209 2054.00
55.0861 2195.00
55.1513 1873.00
55.2165 1647.00
55.2817 1166.00
55.3469 919.00
55.4121 652.00
55.4773 605.00
55.5425 574.00
55.6077 512.00
55.6729 538.00
55.7381 518.00
55.8033 461.00
55.8685 500.00
55.9337 470.00
55.9989 427.00
56.0641 432.00
56.1293 419.00
56.1945 427.00
56.2597 445.00
56.3249 518.00
56.3901 496.00
56.4553 480.00
56.5205 512.00
56.5857 513.00
56.6509 518.00
56.7161 564.00
56.7813 566.00
56.8465 561.00
56.9117 562.00
56.9769 562.00
57.042 590.00
57.1073 591.00
57.1724 562.00
57.2376 571.00
57.3028 510.00
57.368 523.00
57.4332 508.00
57.4984 522.00
57.5636 492.00
57.6288 513.00
57.694 581.00
57.7592 526.00
57.8244 521.00
57.8896 577.00
57.9548 684.00
58.02 939.00
58.0852 1266.00
58.1504 1278.00
58.2156 1132.00
58.2808 968.00
58.346 753.00
58.4112 709.00
58.4764 575.00
58.5416 552.00
58.6068 498.00
58.672 517.00
58.7372 497.00
58.8024 469.00
58.8676 504.00
58.9328 457.00
58.998 488.00
59.0632 478.00
59.1284 493.00
59.1936 494.00
59.2588 502.00
59.324 457.00
59.3892 455.00
59.4544 443.00
59.5196 450.00
59.5848 427.00
59.65 432.00
59.7152 475.00
59.7804 450.00
59.8456 480.00
59.9108 470.00
59.976 460.00
60.0412 433.00
60.1064 467.00
60.1716 498.00
60.2368 442.00
60.302 471.00
60.3672 517.00
60.4324 554.00
60.4976 546.00
60.5628 495.00
60.628 522.00
60.6932 517.00
60.7584 490.00
60.8236 508.00
60.8888 481.00
60.954 479.00
61.0192 489.00
61.0844 505.00
61.1496 430.00
61.2148 464.00
61.28 452.00
61.3452 434.00
61.4104 384.00
61.4756 446.00
61.5408 450.00
61.606 447.00
61.6712 475.00
61.7364 537.00
61.8016 578.00
61.8667 618.00
61.932 726.00
61.9971 910.00
62.0623 1202.00
62.1275 1699.00
62.1927 1791.00
62.2579 1649.00
62.3231 1559.00
62.3883 1232.00
62.4535 1026.00
62.5187 677.00
62.5839 627.00
62.6491 543.00
62.7143 453.00
62.7795 520.00
62.8447 467.00
62.9099 411.00
62.9751 465.00
63.0403 418.00
63.1055 386.00
63.1707 426.00
63.2359 422.00
63.3011 420.00
63.3663 414.00
63.4315 417.00
63.4967 415.00
63.5619 463.00
63.6271 456.00
63.6923 440.00
63.7575 473.00
63.8227 453.00
63.8879 464.00
63.9531 423.00
64.0183 447.00
64.0835 425.00
64.1487 473.00
64.2139 437.00
64.2791 459.00
64.3443 434.00
64.4095 466.00
64.4747 476.00
64.5399 474.00
64.6051 522.00
64.6703 526.00
64.7355 594.00
64.8007 657.00
64.8659 957.00
64.9311 1459.00
64.9963 1844.00
65.0615 1687.00
65.1267 1496.00
65.1919 1339.00
65.2571 1035.00
65.3223 858.00
65.3875 641.00
65.4527 578.00
65.5179 549.00
65.5831 502.00
65.6483 518.00
65.7135 504.00
65.7787 512.00
65.8439 541.00
65.9091 584.00
65.9743 717.00
66.0395 879.00
66.1047 1147.00
66.1699 1624.00
66.2351 2053.00
66.3003 1862.00
66.3655 1815.00
66.4307 1614.00
66.4959 1233.00
66.561 929.00
66.6263 777.00
66.6915 597.00
66.7566 544.00
66.8218 475.00
66.887 489.00
66.9522 430.00
67.0174 389.00
67.0826 407.00
67.1478 403.00
67.213 381.00
67.2782 328.00
67.3434 376.00
67.4086 400.00
67.4738 383.00
67.539 398.00
67.6042 364.00
67.6694 355.00
67.7346 367.00
67.7998 378.00
67.865 392.00
67.9302 361.00
67.9954 358.00
68.0606 345.00
68.1258 362.00
68.191 362.00
68.2562 345.00
68.3214 331.00
68.3866 375.00
68.4518 322.00
68.517 347.00
68.5822 346.00
68.6474 372.00
68.7126 378.00
68.7778 351.00
68.843 400.00
68.9082 343.00
68.9734 365.00
69.0386 375.00
69.1038 353.00
69.169 386.00
69.2342 360.00
69.2994 341.00
69.3646 343.00
69.4298 341.00
69.495 377.00
69.5602 361.00
69.6254 348.00
69.6906 374.00
69.7558 387.00
69.821 373.00
69.8862 400.00
69.9514 381.00
70.0166 352.00
70.0818 401.00
70.147 362.00
70.2122 390.00
70.2774 386.00
70.3426 365.00
70.4078 368.00
70.473 357.00
70.5382 358.00
70.6034 358.00
70.6686 363.00
70.7338 356.00
70.799 417.00
70.8642 430.00
70.9294 366.00
70.9946 418.00
71.0598 449.00
71.125 406.00
71.1902 456.00
71.2554 499.00
71.3205 514.00
71.3858 642.00
71.451 782.00
71.5162 989.00
71.5813 1009.00
71.6465 879.00
71.7117 858.00
71.7769 815.00
71.8421 690.00
71.9073 505.00
71.9725 495.00
72.0377 426.00
72.1029 404.00
72.1681 385.00
72.2333 357.00
72.2985 372.00
72.3637 415.00
72.4289 394.00
72.4941 383.00
72.5593 415.00
72.6245 409.00
72.6897 414.00
72.7549 433.00
72.8201 397.00
72.8853 363.00
72.9505 339.00
73.0157 354.00
73.0809 357.00
73.1461 342.00
73.2113 307.00
73.2765 324.00
73.3417 352.00
73.4069 339.00
73.4721 278.00
73.5373 332.00
73.6025 333.00
73.6677 328.00
73.7329 336.00
73.7981 359.00
73.8633 312.00
73.9285 334.00
73.9937 302.00
74.0589 322.00
74.1241 308.00
74.1893 337.00
74.2545 337.00
74.3197 308.00
74.3849 343.00
74.4501 300.00
74.5153 324.00
74.5805 296.00
74.6457 322.00
74.7109 338.00
74.7761 344.00
74.8413 337.00
74.9065 339.00
74.9717 357.00
75.0369 338.00
75.1021 325.00
75.1673 371.00
75.2325 356.00
75.2977 331.00
75.3629 338.00
75.4281 375.00
75.4933 338.00
75.5585 321.00
75.6237 341.00
75.6889 328.00
75.7541 312.00
75.8193 290.00
75.8845 333.00
75.9497 315.00
76.0149 305.00
76.0801 312.00
76.1452 318.00
76.2104 312.00
76.2756 318.00
76.3409 346.00
76.406 358.00
76.4712 334.00
76.5364 306.00
76.6016 356.00
76.6668 313.00
76.732 306.00
76.7972 303.00
76.8624 311.00
76.9276 290.00
76.9928 312.00
77.058 322.00
77.1232 338.00
77.1884 287.00
77.2536 327.00
77.3188 333.00
77.384 304.00
77.4492 296.00
77.5144 335.00
77.5796 290.00
77.6448 330.00
77.71 362.00
77.7752 338.00
77.8404 335.00
77.9056 317.00
77.9708 347.00
78.036 353.00
78.1012 349.00
78.1664 325.00
78.2316 330.00
78.2968 382.00
78.362 345.00
78.4272 387.00
78.4924 392.00
78.5576 440.00
78.6228 441.00
78.688 464.00
78.7532 552.00
78.8184 748.00
78.8836 950.00
78.9488 1296.00
79.014 1362.00
79.0792 1060.00
79.1444 1055.00
79.2096 1032.00
79.2748 866.00
79.34 674.00
79.4052 497.00
79.4704 446.00
79.5356 407.00
79.6008 412.00
79.666 391.00
79.7312 387.00
79.7964 360.00
79.8616 368.00
79.9268 326.00
79.992 353.00
80.0572 356.00
80.1224 351.00
80.1876 322.00
80.2528 313.00
80.318 311.00
80.3832 356.00
80.4484 323.00
80.5136 296.00
80.5788 299.00
80.644 289.00
80.7092 303.00
80.7744 325.00
80.8396 329.00
80.9048 329.00
80.9699 347.00
81.0351 345.00
81.1003 391.00
81.1655 379.00
81.2307 445.00
81.2959 528.00
81.3611 586.00
81.4263 549.00
81.4915 587.00
81.5567 526.00
81.6219 538.00
81.6871 487.00
81.7523 462.00
81.8175 403.00
81.8827 358.00
81.9479 318.00
82.0131 317.00
82.0783 345.00
82.1435 310.00
82.2087 302.00
82.2739 318.00
82.3391 307.00
82.4043 300.00
82.4695 337.00
82.5347 345.00
82.5999 317.00
82.6651 300.00
82.7303 317.00
82.7955 342.00
82.8607 349.00
82.9259 329.00
82.9911 289.00
83.0563 301.00
83.1215 353.00
83.1867 307.00
83.2519 303.00
83.3171 327.00
83.3823 298.00
83.4475 313.00
83.5127 355.00
83.5779 327.00
83.6431 367.00
83.7083 400.00
83.7735 485.00
83.8387 644.00
83.9039 917.00
83.9691 985.00
84.0343 877.00
84.0995 794.00
84.1647 788.00
84.2299 785.00
84.2951 605.00
84.3603 555.00
84.4255 448.00
84.4907 433.00
84.5559 350.00
84.6211 333.00
84.6863 374.00
84.7515 342.00
84.8167 338.00
84.8819 296.00
84.9471 308.00
85.0123 332.00
85.0775 343.00
85.1427 308.00
85.2079 333.00
85.2731 297.00
85.3383 351.00
85.4035 315.00
85.4687 266.00
85.5339 291.00
85.5991 280.00
85.6643 308.00
85.7295 295.00
85.7946 291.00
85.8598 294.00
85.925 301.00
85.9903 296.00
86.0554 301.00
86.1206 338.00
86.1858 297.00
86.251 285.00
86.3162 307.00
86.3814 317.00
86.4466 339.00
86.5118 331.00
86.577 351.00
86.6422 343.00
86.7074 309.00
86.7726 352.00
86.8378 352.00
86.903 354.00
86.9682 312.00
87.0334 347.00
87.0986 353.00
87.1638 333.00
87.229 411.00
87.2942 431.00
87.3594 451.00
87.4246 543.00
87.4898 652.00
87.555 624.00
87.6202 572.00
87.6854 535.00
87.7506 524.00
87.8158 517.00
87.881 414.00
87.9462 414.00
88.0114 361.00
88.0766 356.00
88.1418 353.00
88.207 338.00
88.2722 327.00
88.3374 335.00
88.4026 333.00
88.4678 333.00
88.533 391.00
88.5982 308.00
88.6634 321.00
88.7286 355.00
88.7938 362.00
88.859 342.00
88.9242 336.00
88.9894 326.00
89.0546 326.00
89.1198 329.00
89.185 346.00
89.2502 357.00
89.3154 322.00
89.3806 366.00
89.4458 389.00
89.511 377.00
89.5762 401.00
89.6414 433.00
89.7066 442.00
89.7718 528.00
89.837 591.00
89.9022 773.00
89.9674 963.00
90.0326 1050.00
90.0978 1020.00
90.163 935.00
90.2282 927.00
90.2934 895.00
90.3586 709.00
90.4238 639.00
90.489 557.00
90.5542 551.00
90.6193 522.00
90.6845 479.00
90.7497 468.00
90.8149 558.00
90.8801 636.00
90.9453 698.00
91.0105 838.00
91.0757 1041.00
91.1409 1137.00
91.2061 1032.00
91.2713 949.00
91.3365 887.00
91.4017 896.00
91.4669 802.00
91.5321 698.00
91.5973 595.00
91.6625 529.00
91.7277 444.00
91.7929 419.00
91.8581 381.00
91.9233 413.00
91.9885 356.00
92.0537 368.00
92.1189 326.00
92.1841 360.00
92.2493 339.00
92.3145 352.00
92.3797 352.00
92.4449 314.00
92.5101 324.00
92.5753 343.00
92.6405 342.00
92.7057 310.00
92.7709 276.00
92.8361 316.00
92.9013 335.00
92.9665 301.00
93.0317 342.00
93.0969 367.00
93.1621 337.00
93.2273 364.00
93.2925 394.00
93.3577 438.00
93.4229 527.00
93.4881 672.00
93.5533 647.00
93.6185 648.00
93.6837 573.00
93.7489 546.00
93.8141 536.00
93.8793 567.00
93.9445 453.00
94.0097 446.00
94.0749 383.00
94.1401 346.00
94.2053 337.00
94.2705 342.00
94.3357 306.00
94.4009 335.00
94.4661 336.00
94.5313 307.00
94.5965 294.00
94.6617 308.00
94.7269 322.00
94.7921 319.00
94.8573 281.00
94.9225 299.00
94.9877 302.00
95.0529 276.00
95.1181 259.00
95.1833 306.00
95.2485 314.00
95.3137 298.00
95.3789 299.00
95.444 313.00
95.5092 312.00
95.5744 335.00
95.6396 333.00
95.7048 320.00
95.77 352.00
95.8352 337.00
95.9004 361.00
95.9656 361.00
96.0308 432.00
96.096 505.00
96.1612 556.00
96.2264 593.00
96.2916 596.00
96.3568 551.00
96.422 514.00
96.4872 519.00
96.5524 504.00
96.6176 448.00
96.6828 431.00
96.748 382.00
96.8132 371.00
96.8784 341.00
96.9436 349.00
97.0088 327.00
97.074 286.00
97.1392 303.00
97.2044 317.00
97.2696 283.00
97.3348 278.00
97.4 301.00
97.4652 261.00
97.5304 290.00
97.5956 280.00
97.6608 271.00
97.726 280.00
97.7912 300.00
97.8564 291.00
97.9216 283.00
97.9868 245.00
98.052 290.00
98.1172 261.00
98.1824 276.00
98.2476 272.00
98.3128 288.00
98.378 303.00
98.4432 269.00
98.5084 242.00
98.5736 270.00
98.6388 221.00
98.704 308.00
98.7692 247.00
98.8344 279.00
98.8996 265.00
98.9648 318.00
99.03 261.00
99.0952 301.00
99.1604 301.00
99.2256 311.00
99.2908 299.00
99.356 287.00
99.4212 263.00
99.4864 282.00
99.5516 290.00
99.6168 270.00
99.682 292.00
99.7472 267.00
99.8124 274.00
99.8776 232.00
99.9428 268.00
100.008 234.00
100.073 266.00
100.095 258.00