File: data/xrd_creation/results/Na_126.xy
9.903433 2660.00
9.968632 2669.00
10.0338 2693.00
10.099 2681.00
10.1642 2668.00
10.2294 2566.00
10.2946 2610.00
10.3598 2516.00
10.425 2554.00
10.4902 2493.00
10.5554 2520.00
10.6206 2573.00
10.6858 2523.00
10.751 2398.00
10.8162 2459.00
10.8814 2430.00
10.9466 2416.00
11.0118 2410.00
11.077 2402.00
11.1422 2346.00
11.2074 2357.00
11.2726 2261.00
11.3378 2261.00
11.403 2274.00
11.4682 2258.00
11.5334 2244.00
11.5986 2290.00
11.6638 2235.00
11.729 2254.00
11.7942 2198.00
11.8594 2163.00
11.9246 2142.00
11.9898 2185.00
12.055 2151.00
12.1202 2134.00
12.1854 2164.00
12.2506 2076.00
12.3158 2077.00
12.381 2102.00
12.4462 2007.00
12.5114 2023.00
12.5766 2009.00
12.6418 1975.00
12.707 2021.00
12.7722 1991.00
12.8374 1959.00
12.9026 1964.00
12.9678 1933.00
13.033 1905.00
13.0982 1932.00
13.1634 1924.00
13.2286 1952.00
13.2938 1908.00
13.359 1785.00
13.4242 1858.00
13.4894 1835.00
13.5546 1893.00
13.6198 1869.00
13.685 1827.00
13.7502 1758.00
13.8154 1918.00
13.8805 1781.00
13.9457 1811.00
14.0109 1825.00
14.0761 1809.00
14.1413 1805.00
14.2065 1737.00
14.2717 1761.00
14.3369 1769.00
14.4021 1784.00
14.4673 1783.00
14.5325 1698.00
14.5977 1735.00
14.6629 1817.00
14.7281 1656.00
14.7933 1682.00
14.8585 1719.00
14.9237 1671.00
14.9889 1680.00
15.0541 1694.00
15.1193 1636.00
15.1845 1671.00
15.2497 1788.00
15.3149 1727.00
15.3801 1696.00
15.4453 1681.00
15.5105 1675.00
15.5757 1637.00
15.6409 1619.00
15.7061 1634.00
15.7713 1696.00
15.8365 1709.00
15.9017 1606.00
15.9669 1629.00
16.0321 1665.00
16.0973 1678.00
16.1625 1614.00
16.2277 1578.00
16.2929 1587.00
16.3581 1627.00
16.4233 1634.00
16.4885 1643.00
16.5537 1621.00
16.6189 1561.00
16.6841 1565.00
16.7493 1586.00
16.8145 1572.00
16.8797 1651.00
16.9449 1583.00
17.0101 1554.00
17.0753 1640.00
17.1405 1595.00
17.2057 1524.00
17.2709 1568.00
17.3361 1569.00
17.4013 1542.00
17.4665 1545.00
17.5317 1561.00
17.5969 1515.00
17.6621 1554.00
17.7273 1490.00
17.7925 1581.00
17.8577 1599.00
17.9229 1554.00
17.9881 1508.00
18.0533 1519.00
18.1185 1487.00
18.1837 1506.00
18.2489 1534.00
18.3141 1535.00
18.3793 1497.00
18.4445 1459.00
18.5097 1478.00
18.5749 1421.00
18.6401 1462.00
18.7052 1463.00
18.7704 1532.00
18.8356 1525.00
18.9008 1533.00
18.966 1540.00
19.0312 1550.00
19.0964 1681.00
19.1616 1819.00
19.2268 1955.00
19.292 2010.00
19.3572 2316.00
19.4224 2824.00
19.4876 3407.00
19.5528 4181.00
19.618 4454.00
19.6832 4148.00
19.7484 3027.00
19.8136 2340.00
19.8788 1972.00
19.944 1760.00
20.0092 1561.00
20.0744 1482.00
20.1396 1418.00
20.2048 1445.00
20.27 1415.00
20.3352 1455.00
20.4004 1432.00
20.4656 1410.00
20.5308 1459.00
20.596 1515.00
20.6612 1353.00
20.7264 1308.00
20.7916 1351.00
20.8568 1377.00
20.922 1341.00
20.9872 1367.00
21.0524 1344.00
21.1176 1356.00
21.1828 1308.00
21.248 1314.00
21.3132 1270.00
21.3784 1320.00
21.4436 1316.00
21.5088 1371.00
21.574 1362.00
21.6392 1294.00
21.7044 1356.00
21.7696 1306.00
21.8348 1353.00
21.9 1453.00
21.9652 1511.00
22.0304 1501.00
22.0956 1578.00
22.1608 1728.00
22.226 1942.00
22.2912 2239.00
22.3564 2807.00
22.4216 3669.00
22.4868 4969.00
22.552 6763.00
22.6172 8454.00
22.6824 8480.00
22.7476 6266.00
22.8128 3993.00
22.878 2731.00
22.9432 2112.00
23.0084 1886.00
23.0736 1677.00
23.1388 1610.00
23.204 1486.00
23.2692 1444.00
23.3344 1417.00
23.3996 1374.00
23.4647 1328.00
23.5299 1266.00
23.5951 1261.00
23.6603 1264.00
23.7255 1249.00
23.7907 1259.00
23.8559 1213.00
23.9211 1206.00
23.9863 1242.00
24.0515 1235.00
24.1167 1183.00
24.1819 1192.00
24.2471 1175.00
24.3123 1186.00
24.3775 1228.00
24.4427 1185.00
24.5079 1161.00
24.5731 1182.00
24.6383 1172.00
24.7035 1177.00
24.7687 1239.00
24.8339 1284.00
24.8991 1360.00
24.9643 1361.00
25.0295 1503.00
25.0947 1666.00
25.1599 1957.00
25.2251 2277.00
25.2903 2731.00
25.3555 2704.00
25.4207 2356.00
25.4859 1817.00
25.5511 1511.00
25.6163 1294.00
25.6815 1178.00
25.7467 1197.00
25.8119 1132.00
25.8771 1073.00
25.9423 1149.00
26.0075 1105.00
26.0727 1090.00
26.1379 1112.00
26.2031 1068.00
26.2683 1138.00
26.3335 1065.00
26.3987 1122.00
26.4639 1117.00
26.5291 1127.00
26.5943 1187.00
26.6595 1295.00
26.7247 1723.00
26.7899 2332.00
26.8551 3231.00
26.9203 3557.00
26.9855 2369.00
27.0507 1424.00
27.1159 1222.00
27.1811 1212.00
27.2463 1173.00
27.3115 1206.00
27.3767 1210.00
27.4419 1320.00
27.5071 1520.00
27.5723 1657.00
27.6375 1954.00
27.7027 2195.00
27.7679 2399.00
27.8331 2246.00
27.8983 1860.00
27.9635 1479.00
28.0287 1408.00
28.0939 1232.00
28.1591 1194.00
28.2243 1143.00
28.2894 1039.00
28.3546 1032.00
28.4198 1013.00
28.485 1039.00
28.5502 1031.00
28.6154 1062.00
28.6806 969.00
28.7458 1025.00
28.811 988.00
28.8762 1069.00
28.9414 992.00
29.0066 961.00
29.0718 945.00
29.137 973.00
29.2022 964.00
29.2674 874.00
29.3326 885.00
29.3978 960.00
29.463 996.00
29.5282 893.00
29.5934 905.00
29.6586 965.00
29.7238 927.00
29.789 1004.00
29.8542 910.00
29.9194 951.00
29.9846 951.00
30.0498 895.00
30.115 908.00
30.1802 943.00
30.2454 904.00
30.3106 900.00
30.3758 841.00
30.441 867.00
30.5062 852.00
30.5714 860.00
30.6366 913.00
30.7018 869.00
30.767 875.00
30.8322 915.00
30.8974 875.00
30.9626 859.00
31.0278 950.00
31.093 871.00
31.1582 929.00
31.2234 917.00
31.2886 968.00
31.3538 994.00
31.419 1020.00
31.4842 992.00
31.5494 1020.00
31.6146 1038.00
31.6798 1079.00
31.745 1156.00
31.8102 1270.00
31.8754 1554.00
31.9406 2058.00
32.0058 2619.00
32.071 3192.00
32.1362 3427.00
32.2014 2988.00
32.2666 2264.00
32.3318 1638.00
32.397 1331.00
32.4622 1156.00
32.5274 1026.00
32.5926 981.00
32.6578 968.00
32.723 894.00
32.7882 870.00
32.8534 867.00
32.9186 840.00
32.9838 840.00
33.0489 823.00
33.1141 902.00
33.1793 843.00
33.2445 834.00
33.3097 837.00
33.3749 783.00
33.4401 801.00
33.5053 834.00
33.5705 818.00
33.6357 829.00
33.7009 819.00
33.7661 916.00
33.8313 963.00
33.8965 989.00
33.9617 1147.00
34.0269 1459.00
34.0921 2136.00
34.1573 3046.00
34.2225 2666.00
34.2877 1876.00
34.3529 1095.00
34.4181 1027.00
34.4833 964.00
34.5485 940.00
34.6137 925.00
34.6789 845.00
34.7441 756.00
34.8093 810.00
34.8745 788.00
34.9397 793.00
35.0049 788.00
35.0701 747.00
35.1353 763.00
35.2005 762.00
35.2657 791.00
35.3309 698.00
35.3961 710.00
35.4613 724.00
35.5265 740.00
35.5917 799.00
35.6569 762.00
35.7221 712.00
35.7873 759.00
35.8525 735.00
35.9177 737.00
35.9829 767.00
36.0481 750.00
36.1133 723.00
36.1785 788.00
36.2437 718.00
36.3089 754.00
36.3741 665.00
36.4393 727.00
36.5045 698.00
36.5697 678.00
36.6349 730.00
36.7001 751.00
36.7653 723.00
36.8305 722.00
36.8957 760.00
36.9609 803.00
37.0261 820.00
37.0913 873.00
37.1565 878.00
37.2217 955.00
37.2869 990.00
37.3521 1052.00
37.4173 1160.00
37.4825 1469.00
37.5477 1780.00
37.6129 2468.00
37.6781 3274.00
37.7433 4055.00
37.8085 4420.00
37.8736 3956.00
37.9388 3039.00
38.004 2211.00
38.0692 1736.00
38.1344 1494.00
38.1996 1581.00
38.2648 1543.00
38.33 1350.00
38.3952 1134.00
38.4604 976.00
38.5256 822.00
38.5908 790.00
38.656 761.00
38.7212 734.00
38.7864 724.00
38.8516 683.00
38.9168 770.00
38.982 734.00
39.0472 834.00
39.1124 814.00
39.1776 888.00
39.2428 970.00
39.308 1165.00
39.3732 1204.00
39.4384 1383.00
39.5036 1587.00
39.5688 1534.00
39.634 1334.00
39.6992 1168.00
39.7644 1047.00
39.8296 888.00
39.8948 763.00
39.96 771.00
40.0252 739.00
40.0904 702.00
40.1556 733.00
40.2208 754.00
40.286 706.00
40.3512 643.00
40.4164 644.00
40.4816 660.00
40.5468 648.00
40.612 613.00
40.6772 597.00
40.7424 657.00
40.8076 662.00
40.8728 678.00
40.938 711.00
41.0032 699.00
41.0684 707.00
41.1336 770.00
41.1988 798.00
41.264 766.00
41.3292 706.00
41.3944 690.00
41.4596 676.00
41.5248 627.00
41.59 592.00
41.6552 591.00
41.7204 606.00
41.7856 587.00
41.8508 578.00
41.916 572.00
41.9812 572.00
42.0464 590.00
42.1116 601.00
42.1768 612.00
42.242 574.00
42.3072 623.00
42.3724 597.00
42.4376 578.00
42.5028 588.00
42.568 574.00
42.6332 573.00
42.6983 616.00
42.7635 582.00
42.8287 642.00
42.8939 615.00
42.9591 617.00
43.0243 594.00
43.0895 610.00
43.1547 588.00
43.2199 618.00
43.2851 599.00
43.3503 682.00
43.4155 658.00
43.4807 641.00
43.5459 695.00
43.6111 629.00
43.6763 707.00
43.7415 706.00
43.8067 724.00
43.8719 674.00
43.9371 643.00
44.0023 709.00
44.0675 666.00
44.1327 590.00
44.1979 590.00
44.2631 577.00
44.3283 572.00
44.3935 566.00
44.4587 568.00
44.5239 582.00
44.5891 532.00
44.6543 523.00
44.7195 579.00
44.7847 601.00
44.8499 579.00
44.9151 586.00
44.9803 576.00
45.0455 594.00
45.1107 630.00
45.1759 568.00
45.2411 573.00
45.3063 597.00
45.3715 599.00
45.4367 572.00
45.5019 597.00
45.5671 610.00
45.6323 609.00
45.6975 664.00
45.7627 706.00
45.8279 821.00
45.8931 865.00
45.9583 840.00
46.0235 785.00
46.0887 752.00
46.1539 673.00
46.2191 621.00
46.2843 592.00
46.3495 560.00
46.4147 558.00
46.4799 586.00
46.5451 538.00
46.6103 555.00
46.6755 549.00
46.7407 588.00
46.8059 589.00
46.8711 574.00
46.9363 559.00
47.0015 580.00
47.0667 586.00
47.1319 556.00
47.1971 616.00
47.2623 649.00
47.3275 702.00
47.3927 666.00
47.4579 665.00
47.523 640.00
47.5882 625.00
47.6534 700.00
47.7186 564.00
47.7838 608.00
47.849 586.00
47.9142 565.00
47.9794 569.00
48.0446 555.00
48.1098 542.00
48.175 561.00
48.2402 531.00
48.3054 558.00
48.3706 490.00
48.4358 549.00
48.501 573.00
48.5662 582.00
48.6314 579.00
48.6966 578.00
48.7618 630.00
48.827 602.00
48.8922 621.00
48.9574 594.00
49.0226 607.00
49.0878 541.00
49.153 591.00
49.2182 587.00
49.2834 590.00
49.3486 560.00
49.4138 601.00
49.479 610.00
49.5442 591.00
49.6094 626.00
49.6746 592.00
49.7398 626.00
49.805 684.00
49.8702 686.00
49.9354 814.00
50.0006 895.00
50.0658 1081.00
50.131 1271.00
50.1962 1483.00
50.2614 1664.00
50.3266 1580.00
50.3918 1405.00
50.457 1137.00
50.5222 1073.00
50.5874 899.00
50.6526 798.00
50.7178 710.00
50.783 687.00
50.8482 670.00
50.9134 710.00
50.9786 673.00
51.0438 701.00
51.109 768.00
51.1742 812.00
51.2394 791.00
51.3046 891.00
51.3698 1032.00
51.435 1202.00
51.5002 1516.00
51.5654 1774.00
51.6306 2014.00
51.6958 2043.00
51.761 1856.00
51.8262 1686.00
51.8914 1492.00
51.9566 1775.00
52.0218 2575.00
52.087 2474.00
52.1522 1929.00
52.2174 1604.00
52.2826 929.00
52.3477 706.00
52.4129 682.00
52.4781 633.00
52.5433 584.00
52.6085 569.00
52.6737 569.00
52.7389 584.00
52.8041 569.00
52.8693 573.00
52.9345 562.00
52.9997 601.00
53.0649 640.00
53.1301 605.00
53.1953 550.00
53.2605 594.00
53.3257 538.00
53.3909 560.00
53.4561 581.00
53.5213 551.00
53.5865 560.00
53.6517 586.00
53.7169 514.00
53.7821 561.00
53.8473 570.00
53.9125 546.00
53.9777 614.00
54.0429 512.00
54.1081 575.00
54.1733 538.00
54.2385 505.00
54.3037 571.00
54.3689 565.00
54.4341 617.00
54.4993 568.00
54.5645 593.00
54.6297 614.00
54.6949 618.00
54.7601 630.00
54.8253 704.00
54.8905 724.00
54.9557 822.00
55.0209 1025.00
55.0861 990.00
55.1513 891.00
55.2165 819.00
55.2817 690.00
55.3469 643.00
55.4121 579.00
55.4773 617.00
55.5425 595.00
55.6077 542.00
55.6729 504.00
55.7381 583.00
55.8033 532.00
55.8685 536.00
55.9337 498.00
55.9989 546.00
56.0641 555.00
56.1293 541.00
56.1945 549.00
56.2597 564.00
56.3249 581.00
56.3901 653.00
56.4553 679.00
56.5205 712.00
56.5857 726.00
56.6509 828.00
56.7161 917.00
56.7813 1080.00
56.8465 1336.00
56.9117 1402.00
56.9769 1567.00
57.042 1422.00
57.1073 1359.00
57.1724 1207.00
57.2376 977.00
57.3028 863.00
57.368 713.00
57.4332 680.00
57.4984 606.00
57.5636 589.00
57.6288 540.00
57.694 569.00
57.7592 579.00
57.8244 546.00
57.8896 539.00
57.9548 559.00
58.02 600.00
58.0852 724.00
58.1504 656.00
58.2156 590.00
58.2808 559.00
58.346 517.00
58.4112 498.00
58.4764 519.00
58.5416 516.00
58.6068 477.00
58.672 472.00
58.7372 484.00
58.8024 485.00
58.8676 517.00
58.9328 475.00
58.998 499.00
59.0632 453.00
59.1284 442.00
59.1936 488.00
59.2588 485.00
59.324 479.00
59.3892 480.00
59.4544 512.00
59.5196 466.00
59.5848 475.00
59.65 512.00
59.7152 544.00
59.7804 491.00
59.8456 531.00
59.9108 510.00
59.976 512.00
60.0412 601.00
60.1064 633.00
60.1716 574.00
60.2368 596.00
60.302 687.00
60.3672 756.00
60.4324 956.00
60.4976 1036.00
60.5628 1300.00
60.628 1557.00
60.6932 1800.00
60.7584 1975.00
60.8236 1838.00
60.8888 1618.00
60.954 1462.00
61.0192 1198.00
61.0844 1001.00
61.1496 889.00
61.2148 744.00
61.28 642.00
61.3452 595.00
61.4104 607.00
61.4756 600.00
61.5408 640.00
61.606 584.00
61.6712 538.00
61.7364 599.00
61.8016 607.00
61.8667 588.00
61.932 600.00
61.9971 614.00
62.0623 707.00
62.1275 924.00
62.1927 836.00
62.2579 748.00
62.3231 670.00
62.3883 596.00
62.4535 530.00
62.5187 511.00
62.5839 505.00
62.6491 526.00
62.7143 523.00
62.7795 486.00
62.8447 493.00
62.9099 532.00
62.9751 490.00
63.0403 524.00
63.1055 521.00
63.1707 549.00
63.2359 520.00
63.3011 529.00
63.3663 514.00
63.4315 526.00
63.4967 517.00
63.5619 468.00
63.6271 485.00
63.6923 452.00
63.7575 468.00
63.8227 442.00
63.8879 467.00
63.9531 470.00
64.0183 482.00
64.0835 472.00
64.1487 468.00
64.2139 451.00
64.2791 480.00
64.3443 486.00
64.4095 516.00
64.4747 511.00
64.5399 499.00
64.6051 513.00
64.6703 479.00
64.7355 512.00
64.8007 480.00
64.8659 551.00
64.9311 759.00
64.9963 834.00
65.0615 717.00
65.1267 645.00
65.1919 683.00
65.2571 528.00
65.3223 455.00
65.3875 479.00
65.4527 426.00
65.5179 472.00
65.5831 470.00
65.6483 442.00
65.7135 435.00
65.7787 459.00
65.8439 495.00
65.9091 447.00
65.9743 470.00
66.0395 510.00
66.1047 603.00
66.1699 785.00
66.2351 939.00
66.3003 806.00
66.3655 788.00
66.4307 806.00
66.4959 717.00
66.561 650.00
66.6263 704.00
66.6915 779.00
66.7566 846.00
66.8218 850.00
66.887 793.00
66.9522 715.00
67.0174 675.00
67.0826 622.00
67.1478 575.00
67.213 520.00
67.2782 525.00
67.3434 487.00
67.4086 492.00
67.4738 475.00
67.539 521.00
67.6042 520.00
67.6694 509.00
67.7346 561.00
67.7998 540.00
67.865 528.00
67.9302 537.00
67.9954 490.00
68.0606 540.00
68.1258 536.00
68.191 522.00
68.2562 493.00
68.3214 494.00
68.3866 502.00
68.4518 491.00
68.517 478.00
68.5822 494.00
68.6474 469.00
68.7126 470.00
68.7778 475.00
68.843 479.00
68.9082 479.00
68.9734 461.00
69.0386 479.00
69.1038 427.00
69.169 471.00
69.2342 498.00
69.2994 511.00
69.3646 454.00
69.4298 490.00
69.495 487.00
69.5602 456.00
69.6254 501.00
69.6906 511.00
69.7558 510.00
69.821 547.00
69.8862 548.00
69.9514 615.00
70.0166 640.00
70.0818 750.00
70.147 834.00
70.2122 804.00
70.2774 804.00
70.3426 812.00
70.4078 809.00
70.473 747.00
70.5382 636.00
70.6034 648.00
70.6686 543.00
70.7338 502.00
70.799 522.00
70.8642 524.00
70.9294 494.00
70.9946 553.00
71.0598 578.00
71.125 690.00
71.1902 650.00
71.2554 709.00
71.3205 742.00
71.3858 811.00
71.451 962.00
71.5162 933.00
71.5813 830.00
71.6465 768.00
71.7117 754.00
71.7769 624.00
71.8421 601.00
71.9073 509.00
71.9725 490.00
72.0377 448.00
72.1029 442.00
72.1681 417.00
72.2333 458.00
72.2985 412.00
72.3637 488.00
72.4289 472.00
72.4941 452.00
72.5593 428.00
72.6245 404.00
72.6897 400.00
72.7549 422.00
72.8201 425.00
72.8853 415.00
72.9505 435.00
73.0157 408.00
73.0809 397.00
73.1461 458.00
73.2113 398.00
73.2765 423.00
73.3417 471.00
73.4069 486.00
73.4721 414.00
73.5373 431.00
73.6025 497.00
73.6677 519.00
73.7329 470.00
73.7981 467.00
73.8633 489.00
73.9285 467.00
73.9937 436.00
74.0589 424.00
74.1241 464.00
74.1893 437.00
74.2545 434.00
74.3197 443.00
74.3849 419.00
74.4501 466.00
74.5153 424.00
74.5805 427.00
74.6457 456.00
74.7109 422.00
74.7761 416.00
74.8413 410.00
74.9065 425.00
74.9717 391.00
75.0369 378.00
75.1021 407.00
75.1673 445.00
75.2325 418.00
75.2977 407.00
75.3629 435.00
75.4281 465.00
75.4933 419.00
75.5585 463.00
75.6237 494.00
75.6889 504.00
75.7541 552.00
75.8193 570.00
75.8845 567.00
75.9497 535.00
76.0149 504.00
76.0801 502.00
76.1452 485.00
76.2104 452.00
76.2756 444.00
76.3409 430.00
76.406 411.00
76.4712 409.00
76.5364 379.00
76.6016 391.00
76.6668 402.00
76.732 392.00
76.7972 417.00
76.8624 421.00
76.9276 424.00
76.9928 408.00
77.058 412.00
77.1232 445.00
77.1884 419.00
77.2536 441.00
77.3188 425.00
77.384 450.00
77.4492 458.00
77.5144 424.00
77.5796 391.00
77.6448 385.00
77.71 444.00
77.7752 386.00
77.8404 400.00
77.9056 393.00
77.9708 415.00
78.036 385.00
78.1012 370.00
78.1664 435.00
78.2316 408.00
78.2968 380.00
78.362 363.00
78.4272 397.00
78.4924 360.00
78.5576 396.00
78.6228 419.00
78.688 461.00
78.7532 450.00
78.8184 502.00
78.8836 659.00
78.9488 810.00
79.014 722.00
79.0792 652.00
79.1444 682.00
79.2096 741.00
79.2748 605.00
79.34 579.00
79.4052 535.00
79.4704 515.00
79.5356 511.00
79.6008 500.00
79.666 461.00
79.7312 477.00
79.7964 443.00
79.8616 443.00
79.9268 456.00
79.992 489.00
80.0572 507.00
80.1224 501.00
80.1876 509.00
80.2528 600.00
80.318 542.00
80.3832 515.00
80.4484 546.00
80.5136 536.00
80.5788 479.00
80.644 460.00
80.7092 419.00
80.7744 455.00
80.8396 474.00
80.9048 418.00
80.9699 416.00
81.0351 378.00
81.1003 427.00
81.1655 426.00
81.2307 403.00
81.2959 479.00
81.3611 504.00
81.4263 471.00
81.4915 429.00
81.5567 450.00
81.6219 464.00
81.6871 358.00
81.7523 390.00
81.8175 353.00
81.8827 368.00
81.9479 360.00
82.0131 363.00
82.0783 384.00
82.1435 364.00
82.2087 372.00
82.2739 364.00
82.3391 405.00
82.4043 414.00
82.4695 372.00
82.5347 383.00
82.5999 372.00
82.6651 364.00
82.7303 355.00
82.7955 368.00
82.8607 383.00
82.9259 364.00
82.9911 404.00
83.0563 390.00
83.1215 340.00
83.1867 368.00
83.2519 406.00
83.3171 378.00
83.3823 350.00
83.4475 360.00
83.5127 380.00
83.5779 374.00
83.6431 362.00
83.7083 399.00
83.7735 378.00
83.8387 413.00
83.9039 559.00
83.9691 565.00
84.0343 503.00
84.0995 474.00
84.1647 461.00
84.2299 484.00
84.2951 433.00
84.3603 381.00
84.4255 360.00
84.4907 364.00
84.5559 339.00
84.6211 376.00
84.6863 361.00
84.7515 353.00
84.8167 352.00
84.8819 347.00
84.9471 390.00
85.0123 349.00
85.0775 392.00
85.1427 355.00
85.2079 392.00
85.2731 371.00
85.3383 352.00
85.4035 381.00
85.4687 413.00
85.5339 398.00
85.5991 387.00
85.6643 372.00
85.7295 371.00
85.7946 413.00
85.8598 373.00
85.925 392.00
85.9903 394.00
86.0554 360.00
86.1206 365.00
86.1858 393.00
86.251 331.00
86.3162 409.00
86.3814 380.00
86.4466 391.00
86.5118 366.00
86.577 379.00
86.6422 408.00
86.7074 403.00
86.7726 422.00
86.8378 388.00
86.903 383.00
86.9682 396.00
87.0334 393.00
87.0986 387.00
87.1638 408.00
87.229 414.00
87.2942 432.00
87.3594 444.00
87.4246 509.00
87.4898 511.00
87.555 512.00
87.6202 519.00
87.6854 474.00
87.7506 520.00
87.8158 537.00
87.881 532.00
87.9462 497.00
88.0114 475.00
88.0766 516.00
88.1418 495.00
88.207 469.00
88.2722 459.00
88.3374 451.00
88.4026 495.00
88.4678 527.00
88.533 460.00
88.5982 501.00
88.6634 523.00
88.7286 546.00
88.7938 552.00
88.859 559.00
88.9242 608.00
88.9894 580.00
89.0546 572.00
89.1198 523.00
89.185 574.00
89.2502 479.00
89.3154 483.00
89.3806 474.00
89.4458 479.00
89.511 450.00
89.5762 430.00
89.6414 403.00
89.7066 396.00
89.7718 398.00
89.837 457.00
89.9022 497.00
89.9674 612.00
90.0326 615.00
90.0978 515.00
90.163 476.00
90.2282 510.00
90.2934 525.00
90.3586 473.00
90.4238 434.00
90.489 410.00
90.5542 445.00
90.6193 408.00
90.6845 389.00
90.7497 412.00
90.8149 384.00
90.8801 448.00
90.9453 484.00
91.0105 491.00
91.0757 644.00
91.1409 623.00
91.2061 556.00
91.2713 529.00
91.3365 535.00
91.4017 574.00
91.4669 560.00
91.5321 474.00
91.5973 452.00
91.6625 397.00
91.7277 430.00
91.7929 393.00
91.8581 431.00
91.9233 428.00
91.9885 388.00
92.0537 375.00
92.1189 412.00
92.1841 404.00
92.2493 398.00
92.3145 430.00
92.3797 408.00
92.4449 374.00
92.5101 413.00
92.5753 444.00
92.6405 418.00
92.7057 428.00
92.7709 432.00
92.8361 439.00
92.9013 451.00
92.9665 511.00
93.0317 528.00
93.0969 555.00
93.1621 567.00
93.2273 530.00
93.2925 599.00
93.3577 609.00
93.4229 576.00
93.4881 605.00
93.5533 574.00
93.6185 559.00
93.6837 494.00
93.7489 485.00
93.8141 434.00
93.8793 422.00
93.9445 414.00
94.0097 420.00
94.0749 402.00
94.1401 380.00
94.2053 402.00
94.2705 379.00
94.3357 393.00
94.4009 341.00
94.4661 396.00
94.5313 384.00
94.5965 422.00
94.6617 403.00
94.7269 414.00
94.7921 375.00
94.8573 372.00
94.9225 372.00
94.9877 382.00
95.0529 389.00
95.1181 388.00
95.1833 372.00
95.2485 398.00
95.3137 391.00
95.3789 414.00
95.444 427.00
95.5092 418.00
95.5744 414.00
95.6396 402.00
95.7048 403.00
95.77 435.00
95.8352 418.00
95.9004 401.00
95.9656 428.00
96.0308 475.00
96.096 547.00
96.1612 601.00
96.2264 613.00
96.2916 606.00
96.3568 589.00
96.422 680.00
96.4872 688.00
96.5524 654.00
96.6176 635.00
96.6828 599.00
96.748 539.00
96.8132 514.00
96.8784 508.00
96.9436 522.00
97.0088 477.00
97.074 460.00
97.1392 443.00
97.2044 445.00
97.2696 430.00
97.3348 455.00
97.4 419.00
97.4652 429.00
97.5304 429.00
97.5956 446.00
97.6608 437.00
97.726 363.00
97.7912 453.00
97.8564 377.00
97.9216 393.00
97.9868 364.00
98.052 392.00
98.1172 386.00
98.1824 387.00
98.2476 371.00
98.3128 385.00
98.378 381.00
98.4432 366.00
98.5084 369.00
98.5736 399.00
98.6388 424.00
98.704 405.00
98.7692 375.00
98.8344 370.00
98.8996 357.00
98.9648 351.00
99.03 396.00
99.0952 336.00
99.1604 349.00
99.2256 381.00
99.2908 365.00
99.356 368.00
99.4212 411.00
99.4864 377.00
99.5516 358.00
99.6168 367.00
99.682 390.00
99.7472 377.00
99.8124 393.00
99.8776 370.00
99.9428 346.00
100.008 361.00
100.073 411.00
100.095 377.00