File: data/xrd_creation/results/Na_128.xy
9.903433 2573.00
9.968632 2594.00
10.0338 2620.00
10.099 2595.00
10.1642 2495.00
10.2294 2513.00
10.2946 2605.00
10.3598 2420.00
10.425 2476.00
10.4902 2441.00
10.5554 2546.00
10.6206 2447.00
10.6858 2314.00
10.751 2458.00
10.8162 2402.00
10.8814 2375.00
10.9466 2319.00
11.0118 2226.00
11.077 2297.00
11.1422 2318.00
11.2074 2257.00
11.2726 2264.00
11.3378 2272.00
11.403 2282.00
11.4682 2152.00
11.5334 2102.00
11.5986 2113.00
11.6638 2162.00
11.729 2192.00
11.7942 2071.00
11.8594 2104.00
11.9246 2123.00
11.9898 2030.00
12.055 2006.00
12.1202 1993.00
12.1854 2019.00
12.2506 1975.00
12.3158 2037.00
12.381 1894.00
12.4462 1989.00
12.5114 1921.00
12.5766 2016.00
12.6418 1855.00
12.707 1897.00
12.7722 1975.00
12.8374 1889.00
12.9026 1846.00
12.9678 1803.00
13.033 1790.00
13.0982 1827.00
13.1634 1815.00
13.2286 1811.00
13.2938 1790.00
13.359 1840.00
13.4242 1732.00
13.4894 1812.00
13.5546 1769.00
13.6198 1802.00
13.685 1757.00
13.7502 1783.00
13.8154 1689.00
13.8805 1784.00
13.9457 1710.00
14.0109 1650.00
14.0761 1694.00
14.1413 1678.00
14.2065 1679.00
14.2717 1754.00
14.3369 1719.00
14.4021 1664.00
14.4673 1700.00
14.5325 1707.00
14.5977 1703.00
14.6629 1653.00
14.7281 1738.00
14.7933 1696.00
14.8585 1659.00
14.9237 1647.00
14.9889 1594.00
15.0541 1614.00
15.1193 1659.00
15.1845 1565.00
15.2497 1666.00
15.3149 1585.00
15.3801 1597.00
15.4453 1615.00
15.5105 1582.00
15.5757 1519.00
15.6409 1615.00
15.7061 1597.00
15.7713 1558.00
15.8365 1535.00
15.9017 1524.00
15.9669 1548.00
16.0321 1463.00
16.0973 1523.00
16.1625 1509.00
16.2277 1445.00
16.2929 1505.00
16.3581 1553.00
16.4233 1551.00
16.4885 1510.00
16.5537 1502.00
16.6189 1521.00
16.6841 1498.00
16.7493 1473.00
16.8145 1499.00
16.8797 1527.00
16.9449 1402.00
17.0101 1436.00
17.0753 1475.00
17.1405 1435.00
17.2057 1443.00
17.2709 1436.00
17.3361 1466.00
17.4013 1436.00
17.4665 1430.00
17.5317 1475.00
17.5969 1524.00
17.6621 1426.00
17.7273 1404.00
17.7925 1472.00
17.8577 1479.00
17.9229 1386.00
17.9881 1341.00
18.0533 1340.00
18.1185 1367.00
18.1837 1391.00
18.2489 1353.00
18.3141 1347.00
18.3793 1286.00
18.4445 1413.00
18.5097 1358.00
18.5749 1351.00
18.6401 1271.00
18.7052 1339.00
18.7704 1345.00
18.8356 1310.00
18.9008 1381.00
18.966 1403.00
19.0312 1288.00
19.0964 1373.00
19.1616 1339.00
19.2268 1372.00
19.292 1342.00
19.3572 1418.00
19.4224 1429.00
19.4876 1440.00
19.5528 1511.00
19.618 1547.00
19.6832 1617.00
19.7484 1526.00
19.8136 1557.00
19.8788 1354.00
19.944 1318.00
20.0092 1293.00
20.0744 1293.00
20.1396 1160.00
20.2048 1223.00
20.27 1286.00
20.3352 1261.00
20.4004 1185.00
20.4656 1221.00
20.5308 1231.00
20.596 1145.00
20.6612 1086.00
20.7264 1230.00
20.7916 1155.00
20.8568 1160.00
20.922 1212.00
20.9872 1143.00
21.0524 1193.00
21.1176 1141.00
21.1828 1178.00
21.248 1153.00
21.3132 1164.00
21.3784 1244.00
21.4436 1353.00
21.5088 1404.00
21.574 1505.00
21.6392 1514.00
21.7044 1369.00
21.7696 1251.00
21.8348 1210.00
21.9 1212.00
21.9652 1140.00
22.0304 1180.00
22.0956 1159.00
22.1608 1137.00
22.226 1230.00
22.2912 1188.00
22.3564 1230.00
22.4216 1242.00
22.4868 1261.00
22.552 1311.00
22.6172 1359.00
22.6824 1494.00
22.7476 1446.00
22.8128 1310.00
22.878 1214.00
22.9432 1279.00
23.0084 1233.00
23.0736 1162.00
23.1388 1143.00
23.204 1137.00
23.2692 1155.00
23.3344 1072.00
23.3996 1086.00
23.4647 1043.00
23.5299 1064.00
23.5951 1040.00
23.6603 1063.00
23.7255 1052.00
23.7907 1035.00
23.8559 1105.00
23.9211 1012.00
23.9863 1055.00
24.0515 1101.00
24.1167 1082.00
24.1819 1195.00
24.2471 1101.00
24.3123 1187.00
24.3775 1282.00
24.4427 1259.00
24.5079 1159.00
24.5731 1078.00
24.6383 1090.00
24.7035 1072.00
24.7687 1078.00
24.8339 971.00
24.8991 948.00
24.9643 1039.00
25.0295 1073.00
25.0947 1022.00
25.1599 956.00
25.2251 989.00
25.2903 1006.00
25.3555 1026.00
25.4207 991.00
25.4859 978.00
25.5511 992.00
25.6163 1024.00
25.6815 963.00
25.7467 941.00
25.8119 974.00
25.8771 928.00
25.9423 980.00
26.0075 967.00
26.0727 979.00
26.1379 997.00
26.2031 1038.00
26.2683 1040.00
26.3335 1000.00
26.3987 1084.00
26.4639 1074.00
26.5291 1124.00
26.5943 1193.00
26.6595 1421.00
26.7247 1764.00
26.7899 2420.00
26.8551 3536.00
26.9203 5164.00
26.9855 6511.00
27.0507 5148.00
27.1159 2936.00
27.1811 1830.00
27.2463 1425.00
27.3115 1251.00
27.3767 1090.00
27.4419 1018.00
27.5071 997.00
27.5723 951.00
27.6375 981.00
27.7027 993.00
27.7679 952.00
27.8331 986.00
27.8983 964.00
27.9635 943.00
28.0287 923.00
28.0939 867.00
28.1591 909.00
28.2243 889.00
28.2894 856.00
28.3546 877.00
28.4198 842.00
28.485 897.00
28.5502 901.00
28.6154 887.00
28.6806 835.00
28.7458 831.00
28.811 897.00
28.8762 881.00
28.9414 883.00
29.0066 924.00
29.0718 932.00
29.137 987.00
29.2022 1081.00
29.2674 1012.00
29.3326 974.00
29.3978 923.00
29.463 869.00
29.5282 886.00
29.5934 830.00
29.6586 869.00
29.7238 744.00
29.789 798.00
29.8542 818.00
29.9194 798.00
29.9846 851.00
30.0498 835.00
30.115 896.00
30.1802 800.00
30.2454 781.00
30.3106 860.00
30.3758 751.00
30.441 783.00
30.5062 807.00
30.5714 783.00
30.6366 773.00
30.7018 789.00
30.767 815.00
30.8322 790.00
30.8974 877.00
30.9626 786.00
31.0278 825.00
31.093 856.00
31.1582 886.00
31.2234 858.00
31.2886 1031.00
31.3538 1199.00
31.419 1262.00
31.4842 1151.00
31.5494 1126.00
31.6146 923.00
31.6798 911.00
31.745 872.00
31.8102 783.00
31.8754 771.00
31.9406 772.00
32.0058 818.00
32.071 837.00
32.1362 810.00
32.2014 877.00
32.2666 818.00
32.3318 805.00
32.397 774.00
32.4622 799.00
32.5274 722.00
32.5926 809.00
32.6578 720.00
32.723 716.00
32.7882 717.00
32.8534 721.00
32.9186 728.00
32.9838 735.00
33.0489 803.00
33.1141 744.00
33.1793 743.00
33.2445 783.00
33.3097 791.00
33.3749 761.00
33.4401 792.00
33.5053 765.00
33.5705 808.00
33.6357 824.00
33.7009 757.00
33.7661 881.00
33.8313 913.00
33.8965 1018.00
33.9617 1079.00
34.0269 1539.00
34.0921 2214.00
34.1573 3684.00
34.2225 5316.00
34.2877 5409.00
34.3529 4102.00
34.4181 2527.00
34.4833 1533.00
34.5485 1193.00
34.6137 981.00
34.6789 873.00
34.7441 835.00
34.8093 791.00
34.8745 740.00
34.9397 675.00
35.0049 707.00
35.0701 709.00
35.1353 624.00
35.2005 631.00
35.2657 617.00
35.3309 674.00
35.3961 577.00
35.4613 702.00
35.5265 716.00
35.5917 666.00
35.6569 665.00
35.7221 645.00
35.7873 615.00
35.8525 618.00
35.9177 613.00
35.9829 664.00
36.0481 643.00
36.1133 627.00
36.1785 629.00
36.2437 625.00
36.3089 694.00
36.3741 676.00
36.4393 731.00
36.5045 682.00
36.5697 735.00
36.6349 709.00
36.7001 651.00
36.7653 674.00
36.8305 653.00
36.8957 592.00
36.9609 639.00
37.0261 624.00
37.0913 646.00
37.1565 625.00
37.2217 653.00
37.2869 707.00
37.3521 691.00
37.4173 732.00
37.4825 791.00
37.5477 757.00
37.6129 892.00
37.6781 822.00
37.7433 786.00
37.8085 848.00
37.8736 809.00
37.9388 826.00
38.004 828.00
38.0692 891.00
38.1344 925.00
38.1996 1249.00
38.2648 1615.00
38.33 1850.00
38.3952 1779.00
38.4604 1514.00
38.5256 1057.00
38.5908 834.00
38.656 723.00
38.7212 621.00
38.7864 645.00
38.8516 612.00
38.9168 650.00
38.982 547.00
39.0472 606.00
39.1124 617.00
39.1776 634.00
39.2428 685.00
39.308 839.00
39.3732 907.00
39.4384 826.00
39.5036 760.00
39.5688 696.00
39.634 658.00
39.6992 640.00
39.7644 584.00
39.8296 539.00
39.8948 539.00
39.96 518.00
40.0252 542.00
40.0904 538.00
40.1556 564.00
40.2208 588.00
40.286 561.00
40.3512 574.00
40.4164 525.00
40.4816 580.00
40.5468 565.00
40.612 573.00
40.6772 550.00
40.7424 567.00
40.8076 527.00
40.8728 520.00
40.938 513.00
41.0032 551.00
41.0684 521.00
41.1336 519.00
41.1988 548.00
41.264 509.00
41.3292 539.00
41.3944 535.00
41.4596 496.00
41.5248 491.00
41.59 481.00
41.6552 521.00
41.7204 499.00
41.7856 518.00
41.8508 496.00
41.916 464.00
41.9812 494.00
42.0464 490.00
42.1116 492.00
42.1768 492.00
42.242 532.00
42.3072 509.00
42.3724 487.00
42.4376 499.00
42.5028 466.00
42.568 538.00
42.6332 459.00
42.6983 481.00
42.7635 528.00
42.8287 493.00
42.8939 538.00
42.9591 590.00
43.0243 628.00
43.0895 576.00
43.1547 537.00
43.2199 535.00
43.2851 528.00
43.3503 549.00
43.4155 521.00
43.4807 538.00
43.5459 537.00
43.6111 543.00
43.6763 538.00
43.7415 487.00
43.8067 538.00
43.8719 509.00
43.9371 518.00
44.0023 528.00
44.0675 531.00
44.1327 538.00
44.1979 584.00
44.2631 594.00
44.3283 571.00
44.3935 580.00
44.4587 486.00
44.5239 504.00
44.5891 511.00
44.6543 485.00
44.7195 481.00
44.7847 442.00
44.8499 445.00
44.9151 513.00
44.9803 478.00
45.0455 498.00
45.1107 477.00
45.1759 499.00
45.2411 493.00
45.3063 551.00
45.3715 473.00
45.4367 504.00
45.5019 508.00
45.5671 486.00
45.6323 460.00
45.6975 503.00
45.7627 465.00
45.8279 557.00
45.8931 490.00
45.9583 613.00
46.0235 559.00
46.0887 592.00
46.1539 568.00
46.2191 528.00
46.2843 532.00
46.3495 536.00
46.4147 488.00
46.4799 506.00
46.5451 516.00
46.6103 491.00
46.6755 527.00
46.7407 472.00
46.8059 482.00
46.8711 487.00
46.9363 488.00
47.0015 481.00
47.0667 471.00
47.1319 449.00
47.1971 461.00
47.2623 498.00
47.3275 450.00
47.3927 460.00
47.4579 465.00
47.523 473.00
47.5882 444.00
47.6534 473.00
47.7186 470.00
47.7838 472.00
47.849 508.00
47.9142 474.00
47.9794 504.00
48.0446 495.00
48.1098 483.00
48.175 500.00
48.2402 502.00
48.3054 512.00
48.3706 487.00
48.4358 489.00
48.501 414.00
48.5662 459.00
48.6314 491.00
48.6966 436.00
48.7618 435.00
48.827 491.00
48.8922 456.00
48.9574 488.00
49.0226 472.00
49.0878 454.00
49.153 485.00
49.2182 501.00
49.2834 464.00
49.3486 477.00
49.4138 576.00
49.479 549.00
49.5442 593.00
49.6094 626.00
49.6746 586.00
49.7398 526.00
49.805 509.00
49.8702 503.00
49.9354 509.00
50.0006 507.00
50.0658 444.00
50.131 463.00
50.1962 484.00
50.2614 514.00
50.3266 488.00
50.3918 511.00
50.457 472.00
50.5222 468.00
50.5874 506.00
50.6526 508.00
50.7178 501.00
50.783 518.00
50.8482 478.00
50.9134 496.00
50.9786 550.00
51.0438 584.00
51.109 685.00
51.1742 759.00
51.2394 671.00
51.3046 735.00
51.3698 670.00
51.435 693.00
51.5002 662.00
51.5654 625.00
51.6306 684.00
51.6958 756.00
51.761 761.00
51.8262 871.00
51.8914 1074.00
51.9566 1594.00
52.0218 2754.00
52.087 4207.00
52.1522 4933.00
52.2174 4398.00
52.2826 3498.00
52.3477 2394.00
52.4129 1509.00
52.4781 1082.00
52.5433 795.00
52.6085 705.00
52.6737 622.00
52.7389 568.00
52.8041 507.00
52.8693 521.00
52.9345 477.00
52.9997 491.00
53.0649 496.00
53.1301 491.00
53.1953 500.00
53.2605 471.00
53.3257 516.00
53.3909 470.00
53.4561 453.00
53.5213 439.00
53.5865 479.00
53.6517 421.00
53.7169 442.00
53.7821 485.00
53.8473 486.00
53.9125 448.00
53.9777 468.00
54.0429 430.00
54.1081 418.00
54.1733 438.00
54.2385 425.00
54.3037 454.00
54.3689 442.00
54.4341 466.00
54.4993 489.00
54.5645 470.00
54.6297 469.00
54.6949 496.00
54.7601 488.00
54.8253 540.00
54.8905 591.00
54.9557 715.00
55.0209 1006.00
55.0861 1323.00
55.1513 1475.00
55.2165 1362.00
55.2817 1153.00
55.3469 864.00
55.4121 700.00
55.4773 573.00
55.5425 522.00
55.6077 548.00
55.6729 430.00
55.7381 460.00
55.8033 473.00
55.8685 452.00
55.9337 469.00
55.9989 451.00
56.0641 419.00
56.1293 455.00
56.1945 432.00
56.2597 486.00
56.3249 442.00
56.3901 418.00
56.4553 400.00
56.5205 465.00
56.5857 442.00
56.6509 423.00
56.7161 468.00
56.7813 456.00
56.8465 432.00
56.9117 485.00
56.9769 494.00
57.042 456.00
57.1073 513.00
57.1724 477.00
57.2376 392.00
57.3028 422.00
57.368 431.00
57.4332 434.00
57.4984 407.00
57.5636 400.00
57.6288 445.00
57.694 505.00
57.7592 446.00
57.8244 501.00
57.8896 533.00
57.9548 582.00
58.02 662.00
58.0852 789.00
58.1504 942.00
58.2156 900.00
58.2808 839.00
58.346 788.00
58.4112 617.00
58.4764 621.00
58.5416 591.00
58.6068 547.00
58.672 514.00
58.7372 515.00
58.8024 555.00
58.8676 479.00
58.9328 498.00
58.998 465.00
59.0632 462.00
59.1284 431.00
59.1936 498.00
59.2588 397.00
59.324 418.00
59.3892 413.00
59.4544 433.00
59.5196 446.00
59.5848 417.00
59.65 433.00
59.7152 399.00
59.7804 432.00
59.8456 431.00
59.9108 432.00
59.976 439.00
60.0412 415.00
60.1064 443.00
60.1716 457.00
60.2368 474.00
60.302 474.00
60.3672 474.00
60.4324 550.00
60.4976 581.00
60.5628 582.00
60.628 591.00
60.6932 627.00
60.7584 601.00
60.8236 580.00
60.8888 586.00
60.954 476.00
61.0192 491.00
61.0844 485.00
61.1496 474.00
61.2148 437.00
61.28 432.00
61.3452 403.00
61.4104 420.00
61.4756 394.00
61.5408 452.00
61.606 440.00
61.6712 441.00
61.7364 475.00
61.8016 448.00
61.8667 503.00
61.932 497.00
61.9971 607.00
62.0623 702.00
62.1275 887.00
62.1927 1231.00
62.2579 1286.00
62.3231 1193.00
62.3883 1100.00
62.4535 910.00
62.5187 773.00
62.5839 613.00
62.6491 568.00
62.7143 502.00
62.7795 463.00
62.8447 484.00
62.9099 430.00
62.9751 405.00
63.0403 429.00
63.1055 404.00
63.1707 475.00
63.2359 453.00
63.3011 451.00
63.3663 491.00
63.4315 479.00
63.4967 436.00
63.5619 511.00
63.6271 492.00
63.6923 498.00
63.7575 473.00
63.8227 470.00
63.8879 436.00
63.9531 454.00
64.0183 419.00
64.0835 422.00
64.1487 427.00
64.2139 420.00
64.2791 437.00
64.3443 478.00
64.4095 419.00
64.4747 448.00
64.5399 490.00
64.6051 410.00
64.6703 483.00
64.7355 504.00
64.8007 563.00
64.8659 697.00
64.9311 857.00
64.9963 1146.00
65.0615 1448.00
65.1267 1350.00
65.1919 1195.00
65.2571 1061.00
65.3223 900.00
65.3875 653.00
65.4527 563.00
65.5179 486.00
65.5831 493.00
65.6483 444.00
65.7135 470.00
65.7787 446.00
65.8439 505.00
65.9091 463.00
65.9743 549.00
66.0395 591.00
66.1047 803.00
66.1699 951.00
66.2351 1265.00
66.3003 1483.00
66.3655 1458.00
66.4307 1325.00
66.4959 1154.00
66.561 957.00
66.6263 723.00
66.6915 694.00
66.7566 588.00
66.8218 535.00
66.887 481.00
66.9522 420.00
67.0174 448.00
67.0826 472.00
67.1478 449.00
67.213 397.00
67.2782 382.00
67.3434 440.00
67.4086 427.00
67.4738 396.00
67.539 413.00
67.6042 391.00
67.6694 393.00
67.7346 413.00
67.7998 362.00
67.865 386.00
67.9302 340.00
67.9954 338.00
68.0606 385.00
68.1258 360.00
68.191 348.00
68.2562 402.00
68.3214 386.00
68.3866 387.00
68.4518 364.00
68.517 387.00
68.5822 358.00
68.6474 390.00
68.7126 372.00
68.7778 369.00
68.843 367.00
68.9082 387.00
68.9734 339.00
69.0386 421.00
69.1038 415.00
69.169 378.00
69.2342 384.00
69.2994 365.00
69.3646 382.00
69.4298 427.00
69.495 390.00
69.5602 375.00
69.6254 391.00
69.6906 394.00
69.7558 403.00
69.821 338.00
69.8862 406.00
69.9514 395.00
70.0166 359.00
70.0818 380.00
70.147 405.00
70.2122 380.00
70.2774 362.00
70.3426 401.00
70.4078 425.00
70.473 381.00
70.5382 393.00
70.6034 368.00
70.6686 347.00
70.7338 369.00
70.799 377.00
70.8642 386.00
70.9294 392.00
70.9946 408.00
71.0598 405.00
71.125 423.00
71.1902 399.00
71.2554 428.00
71.3205 475.00
71.3858 474.00
71.451 590.00
71.5162 704.00
71.5813 906.00
71.6465 864.00
71.7117 742.00
71.7769 710.00
71.8421 624.00
71.9073 545.00
71.9725 491.00
72.0377 457.00
72.1029 424.00
72.1681 416.00
72.2333 418.00
72.2985 381.00
72.3637 376.00
72.4289 377.00
72.4941 400.00
72.5593 399.00
72.6245 406.00
72.6897 359.00
72.7549 389.00
72.8201 362.00
72.8853 397.00
72.9505 333.00
73.0157 354.00
73.0809 359.00
73.1461 388.00
73.2113 366.00
73.2765 362.00
73.3417 372.00
73.4069 297.00
73.4721 357.00
73.5373 357.00
73.6025 327.00
73.6677 333.00
73.7329 343.00
73.7981 322.00
73.8633 298.00
73.9285 371.00
73.9937 373.00
74.0589 348.00
74.1241 363.00
74.1893 352.00
74.2545 321.00
74.3197 318.00
74.3849 347.00
74.4501 315.00
74.5153 322.00
74.5805 340.00
74.6457 329.00
74.7109 356.00
74.7761 385.00
74.8413 369.00
74.9065 418.00
74.9717 391.00
75.0369 344.00
75.1021 403.00
75.1673 405.00
75.2325 376.00
75.2977 313.00
75.3629 385.00
75.4281 306.00
75.4933 331.00
75.5585 369.00
75.6237 317.00
75.6889 338.00
75.7541 305.00
75.8193 361.00
75.8845 316.00
75.9497 365.00
76.0149 360.00
76.0801 329.00
76.1452 331.00
76.2104 309.00
76.2756 357.00
76.3409 314.00
76.406 349.00
76.4712 322.00
76.5364 319.00
76.6016 314.00
76.6668 328.00
76.732 296.00
76.7972 321.00
76.8624 355.00
76.9276 346.00
76.9928 332.00
77.058 358.00
77.1232 328.00
77.1884 359.00
77.2536 360.00
77.3188 351.00
77.384 376.00
77.4492 357.00
77.5144 365.00
77.5796 342.00
77.6448 337.00
77.71 331.00
77.7752 340.00
77.8404 384.00
77.9056 369.00
77.9708 342.00
78.036 377.00
78.1012 362.00
78.1664 346.00
78.2316 358.00
78.2968 365.00
78.362 355.00
78.4272 354.00
78.4924 386.00
78.5576 380.00
78.6228 394.00
78.688 427.00
78.7532 433.00
78.8184 531.00
78.8836 714.00
78.9488 921.00
79.014 1073.00
79.0792 1060.00
79.1444 962.00
79.2096 920.00
79.2748 838.00
79.34 757.00
79.4052 614.00
79.4704 491.00
79.5356 438.00
79.6008 422.00
79.666 396.00
79.7312 353.00
79.7964 367.00
79.8616 391.00
79.9268 333.00
79.992 364.00
80.0572 340.00
80.1224 340.00
80.1876 362.00
80.2528 367.00
80.318 360.00
80.3832 361.00
80.4484 361.00
80.5136 325.00
80.5788 369.00
80.644 311.00
80.7092 349.00
80.7744 366.00
80.8396 371.00
80.9048 349.00
80.9699 362.00
81.0351 377.00
81.1003 393.00
81.1655 393.00
81.2307 449.00
81.2959 487.00
81.3611 481.00
81.4263 512.00
81.4915 573.00
81.5567 530.00
81.6219 506.00
81.6871 503.00
81.7523 470.00
81.8175 422.00
81.8827 423.00
81.9479 362.00
82.0131 361.00
82.0783 371.00
82.1435 351.00
82.2087 303.00
82.2739 375.00
82.3391 372.00
82.4043 357.00
82.4695 329.00
82.5347 368.00
82.5999 382.00
82.6651 330.00
82.7303 326.00
82.7955 355.00
82.8607 308.00
82.9259 360.00
82.9911 331.00
83.0563 346.00
83.1215 357.00
83.1867 325.00
83.2519 352.00
83.3171 336.00
83.3823 354.00
83.4475 366.00
83.5127 341.00
83.5779 364.00
83.6431 406.00
83.7083 398.00
83.7735 449.00
83.8387 540.00
83.9039 687.00
83.9691 795.00
84.0343 851.00
84.0995 770.00
84.1647 721.00
84.2299 724.00
84.2951 660.00
84.3603 549.00
84.4255 490.00
84.4907 453.00
84.5559 407.00
84.6211 408.00
84.6863 373.00
84.7515 346.00
84.8167 327.00
84.8819 321.00
84.9471 382.00
85.0123 357.00
85.0775 306.00
85.1427 333.00
85.2079 342.00
85.2731 366.00
85.3383 397.00
85.4035 347.00
85.4687 331.00
85.5339 368.00
85.5991 340.00
85.6643 310.00
85.7295 328.00
85.7946 308.00
85.8598 324.00
85.925 349.00
85.9903 330.00
86.0554 327.00
86.1206 306.00
86.1858 344.00
86.251 321.00
86.3162 352.00
86.3814 310.00
86.4466 312.00
86.5118 304.00
86.577 317.00
86.6422 303.00
86.7074 333.00
86.7726 337.00
86.8378 309.00
86.903 352.00
86.9682 352.00
87.0334 345.00
87.0986 338.00
87.1638 347.00
87.229 385.00
87.2942 380.00
87.3594 463.00
87.4246 470.00
87.4898 526.00
87.555 595.00
87.6202 582.00
87.6854 555.00
87.7506 528.00
87.8158 533.00
87.881 500.00
87.9462 501.00
88.0114 406.00
88.0766 428.00
88.1418 389.00
88.207 407.00
88.2722 373.00
88.3374 366.00
88.4026 348.00
88.4678 394.00
88.533 393.00
88.5982 376.00
88.6634 382.00
88.7286 380.00
88.7938 373.00
88.859 338.00
88.9242 370.00
88.9894 358.00
89.0546 352.00
89.1198 341.00
89.185 361.00
89.2502 360.00
89.3154 319.00
89.3806 352.00
89.4458 370.00
89.511 389.00
89.5762 381.00
89.6414 396.00
89.7066 398.00
89.7718 512.00
89.837 509.00
89.9022 585.00
89.9674 776.00
90.0326 915.00
90.0978 878.00
90.163 826.00
90.2282 839.00
90.2934 778.00
90.3586 774.00
90.4238 655.00
90.489 608.00
90.5542 581.00
90.6193 472.00
90.6845 466.00
90.7497 486.00
90.8149 445.00
90.8801 573.00
90.9453 537.00
91.0105 602.00
91.0757 737.00
91.1409 855.00
91.2061 863.00
91.2713 907.00
91.3365 805.00
91.4017 775.00
91.4669 752.00
91.5321 702.00
91.5973 587.00
91.6625 521.00
91.7277 475.00
91.7929 463.00
91.8581 384.00
91.9233 353.00
91.9885 410.00
92.0537 345.00
92.1189 364.00
92.1841 381.00
92.2493 369.00
92.3145 364.00
92.3797 355.00
92.4449 389.00
92.5101 340.00
92.5753 373.00
92.6405 380.00
92.7057 354.00
92.7709 354.00
92.8361 398.00
92.9013 383.00
92.9665 355.00
93.0317 378.00
93.0969 408.00
93.1621 410.00
93.2273 402.00
93.2925 459.00
93.3577 473.00
93.4229 482.00
93.4881 526.00
93.5533 611.00
93.6185 633.00
93.6837 606.00
93.7489 544.00
93.8141 524.00
93.8793 502.00
93.9445 497.00
94.0097 473.00
94.0749 388.00
94.1401 415.00
94.2053 353.00
94.2705 398.00
94.3357 348.00
94.4009 338.00
94.4661 352.00
94.5313 355.00
94.5965 348.00
94.6617 320.00
94.7269 356.00
94.7921 344.00
94.8573 309.00
94.9225 312.00
94.9877 356.00
95.0529 307.00
95.1181 347.00
95.1833 342.00
95.2485 371.00
95.3137 361.00
95.3789 365.00
95.444 365.00
95.5092 326.00
95.5744 375.00
95.6396 340.00
95.7048 353.00
95.77 356.00
95.8352 380.00
95.9004 370.00
95.9656 456.00
96.0308 407.00
96.096 457.00
96.1612 537.00
96.2264 591.00
96.2916 608.00
96.3568 609.00
96.422 614.00
96.4872 592.00
96.5524 505.00
96.6176 527.00
96.6828 486.00
96.748 444.00
96.8132 460.00
96.8784 395.00
96.9436 413.00
97.0088 386.00
97.074 365.00
97.1392 342.00
97.2044 378.00
97.2696 330.00
97.3348 309.00
97.4 283.00
97.4652 326.00
97.5304 388.00
97.5956 325.00
97.6608 327.00
97.726 335.00
97.7912 337.00
97.8564 352.00
97.9216 349.00
97.9868 314.00
98.052 361.00
98.1172 334.00
98.1824 330.00
98.2476 331.00
98.3128 320.00
98.378 340.00
98.4432 340.00
98.5084 348.00
98.5736 313.00
98.6388 336.00
98.704 343.00
98.7692 319.00
98.8344 374.00
98.8996 347.00
98.9648 315.00
99.03 331.00
99.0952 340.00
99.1604 310.00
99.2256 336.00
99.2908 299.00
99.356 365.00
99.4212 354.00
99.4864 361.00
99.5516 370.00
99.6168 323.00
99.682 352.00
99.7472 363.00
99.8124 353.00
99.8776 332.00
99.9428 369.00
100.008 373.00
100.073 321.00
100.095 322.00