File: data/xrd_creation/results/Na_138.xy
9.903433 2750.00
9.968632 2629.00
10.0338 2648.00
10.099 2592.00
10.1642 2629.00
10.2294 2637.00
10.2946 2496.00
10.3598 2429.00
10.425 2453.00
10.4902 2513.00
10.5554 2335.00
10.6206 2538.00
10.6858 2472.00
10.751 2443.00
10.8162 2295.00
10.8814 2426.00
10.9466 2344.00
11.0118 2436.00
11.077 2475.00
11.1422 2411.00
11.2074 2300.00
11.2726 2329.00
11.3378 2196.00
11.403 2314.00
11.4682 2312.00
11.5334 2177.00
11.5986 2218.00
11.6638 2086.00
11.729 2105.00
11.7942 2174.00
11.8594 2170.00
11.9246 2160.00
11.9898 2048.00
12.055 2079.00
12.1202 2096.00
12.1854 2026.00
12.2506 1993.00
12.3158 2056.00
12.381 1965.00
12.4462 2035.00
12.5114 1919.00
12.5766 1847.00
12.6418 1982.00
12.707 1890.00
12.7722 1883.00
12.8374 1835.00
12.9026 1900.00
12.9678 1868.00
13.033 1971.00
13.0982 1875.00
13.1634 1879.00
13.2286 1892.00
13.2938 1851.00
13.359 1804.00
13.4242 1768.00
13.4894 1781.00
13.5546 1796.00
13.6198 1725.00
13.685 1775.00
13.7502 1723.00
13.8154 1704.00
13.8805 1680.00
13.9457 1848.00
14.0109 1759.00
14.0761 1787.00
14.1413 1744.00
14.2065 1869.00
14.2717 1817.00
14.3369 1729.00
14.4021 1744.00
14.4673 1694.00
14.5325 1565.00
14.5977 1651.00
14.6629 1705.00
14.7281 1651.00
14.7933 1633.00
14.8585 1664.00
14.9237 1637.00
14.9889 1554.00
15.0541 1581.00
15.1193 1597.00
15.1845 1549.00
15.2497 1642.00
15.3149 1594.00
15.3801 1594.00
15.4453 1604.00
15.5105 1597.00
15.5757 1595.00
15.6409 1587.00
15.7061 1543.00
15.7713 1606.00
15.8365 1504.00
15.9017 1534.00
15.9669 1523.00
16.0321 1495.00
16.0973 1573.00
16.1625 1611.00
16.2277 1526.00
16.2929 1501.00
16.3581 1529.00
16.4233 1490.00
16.4885 1460.00
16.5537 1478.00
16.6189 1492.00
16.6841 1530.00
16.7493 1532.00
16.8145 1454.00
16.8797 1518.00
16.9449 1418.00
17.0101 1476.00
17.0753 1504.00
17.1405 1517.00
17.2057 1439.00
17.2709 1438.00
17.3361 1414.00
17.4013 1473.00
17.4665 1368.00
17.5317 1434.00
17.5969 1418.00
17.6621 1400.00
17.7273 1351.00
17.7925 1358.00
17.8577 1430.00
17.9229 1416.00
17.9881 1386.00
18.0533 1344.00
18.1185 1412.00
18.1837 1422.00
18.2489 1297.00
18.3141 1375.00
18.3793 1433.00
18.4445 1392.00
18.5097 1357.00
18.5749 1410.00
18.6401 1344.00
18.7052 1336.00
18.7704 1384.00
18.8356 1341.00
18.9008 1381.00
18.966 1377.00
19.0312 1380.00
19.0964 1456.00
19.1616 1317.00
19.2268 1407.00
19.292 1439.00
19.3572 1360.00
19.4224 1395.00
19.4876 1403.00
19.5528 1371.00
19.618 1315.00
19.6832 1291.00
19.7484 1323.00
19.8136 1283.00
19.8788 1378.00
19.944 1282.00
20.0092 1320.00
20.0744 1353.00
20.1396 1452.00
20.2048 1441.00
20.27 1554.00
20.3352 1520.00
20.4004 1398.00
20.4656 1357.00
20.5308 1384.00
20.596 1313.00
20.6612 1395.00
20.7264 1411.00
20.7916 1442.00
20.8568 1491.00
20.922 1469.00
20.9872 1404.00
21.0524 1403.00
21.1176 1395.00
21.1828 1398.00
21.248 1458.00
21.3132 1478.00
21.3784 1613.00
21.4436 1666.00
21.5088 1772.00
21.574 1867.00
21.6392 1896.00
21.7044 1649.00
21.7696 1553.00
21.8348 1391.00
21.9 1521.00
21.9652 1597.00
22.0304 1669.00
22.0956 1484.00
22.1608 1320.00
22.226 1275.00
22.2912 1220.00
22.3564 1232.00
22.4216 1244.00
22.4868 1186.00
22.552 1306.00
22.6172 1437.00
22.6824 1821.00
22.7476 2154.00
22.8128 2202.00
22.878 1902.00
22.9432 1384.00
23.0084 1192.00
23.0736 1169.00
23.1388 1162.00
23.204 1142.00
23.2692 1190.00
23.3344 1247.00
23.3996 1304.00
23.4647 1441.00
23.5299 1385.00
23.5951 1559.00
23.6603 1523.00
23.7255 1477.00
23.7907 1487.00
23.8559 1594.00
23.9211 1857.00
23.9863 1922.00
24.0515 1912.00
24.1167 1724.00
24.1819 1577.00
24.2471 1596.00
24.3123 1809.00
24.3775 2027.00
24.4427 1889.00
24.5079 1521.00
24.5731 1351.00
24.6383 1250.00
24.7035 1144.00
24.7687 1177.00
24.8339 1136.00
24.8991 1159.00
24.9643 1137.00
25.0295 1135.00
25.0947 1200.00
25.1599 1157.00
25.2251 1145.00
25.2903 1145.00
25.3555 1108.00
25.4207 1100.00
25.4859 1111.00
25.5511 1099.00
25.6163 1171.00
25.6815 1191.00
25.7467 1192.00
25.8119 1226.00
25.8771 1311.00
25.9423 1506.00
26.0075 1482.00
26.0727 1616.00
26.1379 1672.00
26.2031 2155.00
26.2683 2861.00
26.3335 3655.00
26.3987 3835.00
26.4639 3467.00
26.5291 2931.00
26.5943 2516.00
26.6595 2026.00
26.7247 1866.00
26.7899 1978.00
26.8551 2057.00
26.9203 2057.00
26.9855 1773.00
27.0507 1712.00
27.1159 1787.00
27.1811 1784.00
27.2463 1841.00
27.3115 2231.00
27.3767 2544.00
27.4419 2948.00
27.5071 3620.00
27.5723 3565.00
27.6375 2814.00
27.7027 2089.00
27.7679 1878.00
27.8331 1843.00
27.8983 1645.00
27.9635 1484.00
28.0287 1347.00
28.0939 1251.00
28.1591 1142.00
28.2243 1093.00
28.2894 1209.00
28.3546 1118.00
28.4198 1117.00
28.485 1093.00
28.5502 1083.00
28.6154 1071.00
28.6806 1054.00
28.7458 1150.00
28.811 1158.00
28.8762 1146.00
28.9414 1294.00
29.0066 1542.00
29.0718 1594.00
29.137 1636.00
29.2022 1560.00
29.2674 1369.00
29.3326 1126.00
29.3978 1001.00
29.463 1077.00
29.5282 1017.00
29.5934 998.00
29.6586 1055.00
29.7238 1038.00
29.789 1045.00
29.8542 1029.00
29.9194 1006.00
29.9846 1067.00
30.0498 962.00
30.115 1014.00
30.1802 1018.00
30.2454 1041.00
30.3106 1102.00
30.3758 1085.00
30.441 1230.00
30.5062 1198.00
30.5714 1299.00
30.6366 1391.00
30.7018 1557.00
30.767 1627.00
30.8322 1722.00
30.8974 1947.00
30.9626 1885.00
31.0278 1495.00
31.093 1210.00
31.1582 1135.00
31.2234 1032.00
31.2886 1056.00
31.3538 1028.00
31.419 1028.00
31.4842 1138.00
31.5494 1169.00
31.6146 1164.00
31.6798 1186.00
31.745 1037.00
31.8102 972.00
31.8754 952.00
31.9406 912.00
32.0058 1010.00
32.071 948.00
32.1362 1050.00
32.2014 1111.00
32.2666 1501.00
32.3318 1737.00
32.397 1238.00
32.4622 966.00
32.5274 922.00
32.5926 901.00
32.6578 905.00
32.723 912.00
32.7882 898.00
32.8534 874.00
32.9186 968.00
32.9838 895.00
33.0489 948.00
33.1141 891.00
33.1793 879.00
33.2445 906.00
33.3097 964.00
33.3749 972.00
33.4401 1078.00
33.5053 1232.00
33.5705 1187.00
33.6357 1219.00
33.7009 1178.00
33.7661 1164.00
33.8313 1142.00
33.8965 1201.00
33.9617 1173.00
34.0269 1330.00
34.0921 1329.00
34.1573 1474.00
34.2225 1416.00
34.2877 1262.00
34.3529 1127.00
34.4181 1069.00
34.4833 1047.00
34.5485 1063.00
34.6137 971.00
34.6789 1022.00
34.7441 959.00
34.8093 986.00
34.8745 976.00
34.9397 902.00
35.0049 920.00
35.0701 864.00
35.1353 866.00
35.2005 864.00
35.2657 885.00
35.3309 884.00
35.3961 945.00
35.4613 971.00
35.5265 905.00
35.5917 883.00
35.6569 842.00
35.7221 843.00
35.7873 840.00
35.8525 860.00
35.9177 864.00
35.9829 772.00
36.0481 824.00
36.1133 751.00
36.1785 841.00
36.2437 838.00
36.3089 920.00
36.3741 1011.00
36.4393 1028.00
36.5045 1060.00
36.5697 1012.00
36.6349 892.00
36.7001 806.00
36.7653 855.00
36.8305 909.00
36.8957 957.00
36.9609 977.00
37.0261 912.00
37.0913 869.00
37.1565 792.00
37.2217 835.00
37.2869 912.00
37.3521 1055.00
37.4173 1148.00
37.4825 1211.00
37.5477 1074.00
37.6129 979.00
37.6781 961.00
37.7433 934.00
37.8085 972.00
37.8736 981.00
37.9388 1011.00
38.004 1201.00
38.0692 1353.00
38.1344 1326.00
38.1996 1349.00
38.2648 1209.00
38.33 1040.00
38.3952 1014.00
38.4604 1038.00
38.5256 1086.00
38.5908 1219.00
38.656 1102.00
38.7212 1023.00
38.7864 994.00
38.8516 851.00
38.9168 793.00
38.982 780.00
39.0472 817.00
39.1124 804.00
39.1776 809.00
39.2428 766.00
39.308 683.00
39.3732 879.00
39.4384 913.00
39.5036 1020.00
39.5688 1120.00
39.634 1089.00
39.6992 1073.00
39.7644 1117.00
39.8296 1019.00
39.8948 990.00
39.96 889.00
40.0252 888.00
40.0904 767.00
40.1556 769.00
40.2208 800.00
40.286 827.00
40.3512 792.00
40.4164 794.00
40.4816 841.00
40.5468 791.00
40.612 795.00
40.6772 739.00
40.7424 749.00
40.8076 780.00
40.8728 870.00
40.938 955.00
41.0032 879.00
41.0684 790.00
41.1336 727.00
41.1988 719.00
41.264 735.00
41.3292 767.00
41.3944 778.00
41.4596 730.00
41.5248 771.00
41.59 726.00
41.6552 721.00
41.7204 696.00
41.7856 670.00
41.8508 607.00
41.916 636.00
41.9812 644.00
42.0464 640.00
42.1116 597.00
42.1768 683.00
42.242 723.00
42.3072 598.00
42.3724 585.00
42.4376 638.00
42.5028 690.00
42.568 647.00
42.6332 689.00
42.6983 674.00
42.7635 655.00
42.8287 688.00
42.8939 697.00
42.9591 756.00
43.0243 706.00
43.0895 669.00
43.1547 711.00
43.2199 744.00
43.2851 781.00
43.3503 728.00
43.4155 834.00
43.4807 764.00
43.5459 821.00
43.6111 792.00
43.6763 824.00
43.7415 754.00
43.8067 808.00
43.8719 763.00
43.9371 831.00
44.0023 796.00
44.0675 996.00
44.1327 1244.00
44.1979 1151.00
44.2631 1087.00
44.3283 866.00
44.3935 795.00
44.4587 785.00
44.5239 813.00
44.5891 838.00
44.6543 827.00
44.7195 852.00
44.7847 903.00
44.8499 854.00
44.9151 873.00
44.9803 853.00
45.0455 948.00
45.1107 1124.00
45.1759 1511.00
45.2411 1144.00
45.3063 1069.00
45.3715 836.00
45.4367 749.00
45.5019 719.00
45.5671 670.00
45.6323 649.00
45.6975 764.00
45.7627 801.00
45.8279 827.00
45.8931 833.00
45.9583 860.00
46.0235 910.00
46.0887 916.00
46.1539 858.00
46.2191 855.00
46.2843 849.00
46.3495 808.00
46.4147 788.00
46.4799 680.00
46.5451 722.00
46.6103 722.00
46.6755 700.00
46.7407 664.00
46.8059 718.00
46.8711 844.00
46.9363 909.00
47.0015 973.00
47.0667 924.00
47.1319 890.00
47.1971 802.00
47.2623 817.00
47.3275 748.00
47.3927 726.00
47.4579 761.00
47.523 735.00
47.5882 645.00
47.6534 670.00
47.7186 613.00
47.7838 616.00
47.849 631.00
47.9142 589.00
47.9794 571.00
48.0446 622.00
48.1098 589.00
48.175 610.00
48.2402 620.00
48.3054 650.00
48.3706 662.00
48.4358 646.00
48.501 694.00
48.5662 701.00
48.6314 714.00
48.6966 783.00
48.7618 868.00
48.827 798.00
48.8922 804.00
48.9574 824.00
49.0226 808.00
49.0878 859.00
49.153 873.00
49.2182 886.00
49.2834 846.00
49.3486 827.00
49.4138 773.00
49.479 781.00
49.5442 746.00
49.6094 780.00
49.6746 725.00
49.7398 719.00
49.805 710.00
49.8702 644.00
49.9354 637.00
50.0006 653.00
50.0658 604.00
50.131 653.00
50.1962 596.00
50.2614 630.00
50.3266 624.00
50.3918 648.00
50.457 660.00
50.5222 641.00
50.5874 602.00
50.6526 663.00
50.7178 641.00
50.783 618.00
50.8482 640.00
50.9134 657.00
50.9786 705.00
51.0438 687.00
51.109 683.00
51.1742 713.00
51.2394 744.00
51.3046 785.00
51.3698 783.00
51.435 807.00
51.5002 790.00
51.5654 840.00
51.6306 849.00
51.6958 865.00
51.761 951.00
51.8262 952.00
51.8914 955.00
51.9566 1050.00
52.0218 1210.00
52.087 1137.00
52.1522 1094.00
52.2174 1093.00
52.2826 932.00
52.3477 939.00
52.4129 890.00
52.4781 880.00
52.5433 893.00
52.6085 864.00
52.6737 789.00
52.7389 780.00
52.8041 787.00
52.8693 739.00
52.9345 716.00
52.9997 698.00
53.0649 738.00
53.1301 786.00
53.1953 788.00
53.2605 742.00
53.3257 833.00
53.3909 775.00
53.4561 710.00
53.5213 676.00
53.5865 647.00
53.6517 647.00
53.7169 656.00
53.7821 734.00
53.8473 657.00
53.9125 716.00
53.9777 739.00
54.0429 733.00
54.1081 708.00
54.1733 715.00
54.2385 680.00
54.3037 720.00
54.3689 632.00
54.4341 684.00
54.4993 637.00
54.5645 674.00
54.6297 623.00
54.6949 689.00
54.7601 723.00
54.8253 731.00
54.8905 743.00
54.9557 696.00
55.0209 748.00
55.0861 763.00
55.1513 730.00
55.2165 763.00
55.2817 722.00
55.3469 679.00
55.4121 713.00
55.4773 658.00
55.5425 749.00
55.6077 848.00
55.6729 707.00
55.7381 649.00
55.8033 656.00
55.8685 584.00
55.9337 565.00
55.9989 659.00
56.0641 632.00
56.1293 591.00
56.1945 634.00
56.2597 605.00
56.3249 617.00
56.3901 601.00
56.4553 670.00
56.5205 699.00
56.5857 673.00
56.6509 595.00
56.7161 635.00
56.7813 656.00
56.8465 662.00
56.9117 646.00
56.9769 642.00
57.042 602.00
57.1073 643.00
57.1724 645.00
57.2376 677.00
57.3028 655.00
57.368 705.00
57.4332 696.00
57.4984 688.00
57.5636 734.00
57.6288 692.00
57.694 704.00
57.7592 615.00
57.8244 692.00
57.8896 709.00
57.9548 733.00
58.02 819.00
58.0852 793.00
58.1504 740.00
58.2156 750.00
58.2808 742.00
58.346 689.00
58.4112 722.00
58.4764 750.00
58.5416 678.00
58.6068 662.00
58.672 719.00
58.7372 712.00
58.8024 650.00
58.8676 670.00
58.9328 627.00
58.998 621.00
59.0632 634.00
59.1284 574.00
59.1936 573.00
59.2588 569.00
59.324 653.00
59.3892 624.00
59.4544 647.00
59.5196 608.00
59.5848 614.00
59.65 631.00
59.7152 586.00
59.7804 622.00
59.8456 690.00
59.9108 682.00
59.976 609.00
60.0412 592.00
60.1064 643.00
60.1716 596.00
60.2368 591.00
60.302 610.00
60.3672 556.00
60.4324 563.00
60.4976 502.00
60.5628 513.00
60.628 551.00
60.6932 573.00
60.7584 571.00
60.8236 604.00
60.8888 630.00
60.954 691.00
61.0192 615.00
61.0844 693.00
61.1496 683.00
61.2148 767.00
61.28 668.00
61.3452 655.00
61.4104 647.00
61.4756 645.00
61.5408 626.00
61.606 621.00
61.6712 600.00
61.7364 642.00
61.8016 637.00
61.8667 636.00
61.932 665.00
61.9971 704.00
62.0623 600.00
62.1275 748.00
62.1927 756.00
62.2579 727.00
62.3231 712.00
62.3883 716.00
62.4535 719.00
62.5187 737.00
62.5839 683.00
62.6491 685.00
62.7143 771.00
62.7795 910.00
62.8447 692.00
62.9099 806.00
62.9751 731.00
63.0403 691.00
63.1055 668.00
63.1707 656.00
63.2359 635.00
63.3011 612.00
63.3663 669.00
63.4315 658.00
63.4967 628.00
63.5619 622.00
63.6271 600.00
63.6923 614.00
63.7575 599.00
63.8227 593.00
63.8879 552.00
63.9531 600.00
64.0183 648.00
64.0835 626.00
64.1487 595.00
64.2139 669.00
64.2791 660.00
64.3443 639.00
64.4095 592.00
64.4747 658.00
64.5399 581.00
64.6051 638.00
64.6703 664.00
64.7355 654.00
64.8007 822.00
64.8659 816.00
64.9311 707.00
64.9963 861.00
65.0615 663.00
65.1267 695.00
65.1919 697.00
65.2571 693.00
65.3223 665.00
65.3875 616.00
65.4527 576.00
65.5179 620.00
65.5831 645.00
65.6483 650.00
65.7135 590.00
65.7787 609.00
65.8439 565.00
65.9091 596.00
65.9743 609.00
66.0395 658.00
66.1047 598.00
66.1699 647.00
66.2351 652.00
66.3003 568.00
66.3655 614.00
66.4307 657.00
66.4959 550.00
66.561 557.00
66.6263 573.00
66.6915 601.00
66.7566 574.00
66.8218 574.00
66.887 598.00
66.9522 536.00
67.0174 523.00
67.0826 533.00
67.1478 524.00
67.213 513.00
67.2782 538.00
67.3434 531.00
67.4086 506.00
67.4738 553.00
67.539 567.00
67.6042 533.00
67.6694 604.00
67.7346 569.00
67.7998 561.00
67.865 537.00
67.9302 557.00
67.9954 524.00
68.0606 547.00
68.1258 539.00
68.191 518.00
68.2562 517.00
68.3214 501.00
68.3866 542.00
68.4518 525.00
68.517 438.00
68.5822 506.00
68.6474 484.00
68.7126 522.00
68.7778 490.00
68.843 475.00
68.9082 496.00
68.9734 505.00
69.0386 468.00
69.1038 475.00
69.169 551.00
69.2342 505.00
69.2994 500.00
69.3646 501.00
69.4298 485.00
69.495 526.00
69.5602 485.00
69.6254 475.00
69.6906 491.00
69.7558 467.00
69.821 485.00
69.8862 539.00
69.9514 488.00
70.0166 449.00
70.0818 496.00
70.147 492.00
70.2122 458.00
70.2774 478.00
70.3426 498.00
70.4078 476.00
70.473 498.00
70.5382 445.00
70.6034 487.00
70.6686 487.00
70.7338 449.00
70.799 505.00
70.8642 500.00
70.9294 522.00
70.9946 536.00
71.0598 545.00
71.125 542.00
71.1902 540.00
71.2554 539.00
71.3205 527.00
71.3858 577.00
71.451 586.00
71.5162 611.00
71.5813 562.00
71.6465 539.00
71.7117 554.00
71.7769 545.00
71.8421 496.00
71.9073 521.00
71.9725 504.00
72.0377 485.00
72.1029 532.00
72.1681 512.00
72.2333 503.00
72.2985 480.00
72.3637 465.00
72.4289 475.00
72.4941 519.00
72.5593 517.00
72.6245 632.00
72.6897 639.00
72.7549 575.00
72.8201 595.00
72.8853 632.00
72.9505 544.00
73.0157 509.00
73.0809 502.00
73.1461 507.00
73.2113 531.00
73.2765 505.00
73.3417 565.00
73.4069 648.00
73.4721 520.00
73.5373 518.00
73.6025 551.00
73.6677 490.00
73.7329 475.00
73.7981 442.00
73.8633 429.00
73.9285 414.00
73.9937 428.00
74.0589 398.00
74.1241 397.00
74.1893 460.00
74.2545 423.00
74.3197 434.00
74.3849 441.00
74.4501 450.00
74.5153 402.00
74.5805 458.00
74.6457 420.00
74.7109 436.00
74.7761 435.00
74.8413 427.00
74.9065 445.00
74.9717 426.00
75.0369 431.00
75.1021 443.00
75.1673 451.00
75.2325 442.00
75.2977 471.00
75.3629 479.00
75.4281 478.00
75.4933 483.00
75.5585 447.00
75.6237 425.00
75.6889 450.00
75.7541 450.00
75.8193 464.00
75.8845 482.00
75.9497 436.00
76.0149 467.00
76.0801 458.00
76.1452 476.00
76.2104 401.00
76.2756 459.00
76.3409 460.00
76.406 457.00
76.4712 450.00
76.5364 484.00
76.6016 411.00
76.6668 435.00
76.732 418.00
76.7972 405.00
76.8624 388.00
76.9276 391.00
76.9928 412.00
77.058 400.00
77.1232 415.00
77.1884 419.00
77.2536 405.00
77.3188 426.00
77.384 405.00
77.4492 442.00
77.5144 385.00
77.5796 437.00
77.6448 422.00
77.71 433.00
77.7752 429.00
77.8404 415.00
77.9056 425.00
77.9708 425.00
78.036 455.00
78.1012 443.00
78.1664 444.00
78.2316 494.00
78.2968 432.00
78.362 482.00
78.4272 439.00
78.4924 508.00
78.5576 541.00
78.6228 488.00
78.688 483.00
78.7532 482.00
78.8184 480.00
78.8836 502.00
78.9488 550.00
79.014 538.00
79.0792 516.00
79.1444 549.00
79.2096 519.00
79.2748 468.00
79.34 487.00
79.4052 464.00
79.4704 473.00
79.5356 500.00
79.6008 476.00
79.666 619.00
79.7312 719.00
79.7964 527.00
79.8616 503.00
79.9268 564.00
79.992 523.00
80.0572 452.00
80.1224 482.00
80.1876 449.00
80.2528 479.00
80.318 429.00
80.3832 430.00
80.4484 477.00
80.5136 466.00
80.5788 473.00
80.644 458.00
80.7092 484.00
80.7744 491.00
80.8396 497.00
80.9048 453.00
80.9699 472.00
81.0351 448.00
81.1003 477.00
81.1655 505.00
81.2307 481.00
81.2959 472.00
81.3611 483.00
81.4263 497.00
81.4915 487.00
81.5567 470.00
81.6219 460.00
81.6871 461.00
81.7523 460.00
81.8175 479.00
81.8827 467.00
81.9479 418.00
82.0131 464.00
82.0783 466.00
82.1435 431.00
82.2087 508.00
82.2739 460.00
82.3391 466.00
82.4043 436.00
82.4695 472.00
82.5347 401.00
82.5999 461.00
82.6651 435.00
82.7303 478.00
82.7955 404.00
82.8607 424.00
82.9259 420.00
82.9911 446.00
83.0563 435.00
83.1215 464.00
83.1867 440.00
83.2519 449.00
83.3171 419.00
83.3823 478.00
83.4475 447.00
83.5127 484.00
83.5779 494.00
83.6431 438.00
83.7083 486.00
83.7735 507.00
83.8387 491.00
83.9039 554.00
83.9691 486.00
84.0343 485.00
84.0995 438.00
84.1647 466.00
84.2299 501.00
84.2951 478.00
84.3603 474.00
84.4255 430.00
84.4907 464.00
84.5559 434.00
84.6211 422.00
84.6863 450.00
84.7515 455.00
84.8167 455.00
84.8819 438.00
84.9471 452.00
85.0123 405.00
85.0775 486.00
85.1427 412.00
85.2079 437.00
85.2731 442.00
85.3383 432.00
85.4035 448.00
85.4687 423.00
85.5339 442.00
85.5991 442.00
85.6643 440.00
85.7295 443.00
85.7946 472.00
85.8598 423.00
85.925 479.00
85.9903 409.00
86.0554 392.00
86.1206 447.00
86.1858 465.00
86.251 443.00
86.3162 421.00
86.3814 383.00
86.4466 443.00
86.5118 420.00
86.577 355.00
86.6422 428.00
86.7074 409.00
86.7726 385.00
86.8378 411.00
86.903 393.00
86.9682 393.00
87.0334 441.00
87.0986 410.00
87.1638 409.00
87.229 404.00
87.2942 427.00
87.3594 470.00
87.4246 458.00
87.4898 431.00
87.555 464.00
87.6202 451.00
87.6854 439.00
87.7506 466.00
87.8158 489.00
87.881 420.00
87.9462 431.00
88.0114 440.00
88.0766 466.00
88.1418 445.00
88.207 470.00
88.2722 478.00
88.3374 496.00
88.4026 480.00
88.4678 468.00
88.533 470.00
88.5982 459.00
88.6634 476.00
88.7286 454.00
88.7938 468.00
88.859 461.00
88.9242 451.00
88.9894 446.00
89.0546 452.00
89.1198 444.00
89.185 403.00
89.2502 443.00
89.3154 441.00
89.3806 513.00
89.4458 462.00
89.511 497.00
89.5762 610.00
89.6414 617.00
89.7066 535.00
89.7718 494.00
89.837 560.00
89.9022 497.00
89.9674 549.00
90.0326 494.00
90.0978 545.00
90.163 531.00
90.2282 507.00
90.2934 495.00
90.3586 482.00
90.4238 484.00
90.489 484.00
90.5542 476.00
90.6193 485.00
90.6845 464.00
90.7497 464.00
90.8149 496.00
90.8801 479.00
90.9453 515.00
91.0105 512.00
91.0757 499.00
91.1409 491.00
91.2061 497.00
91.2713 485.00
91.3365 475.00
91.4017 509.00
91.4669 486.00
91.5321 453.00
91.5973 446.00
91.6625 442.00
91.7277 447.00
91.7929 448.00
91.8581 422.00
91.9233 462.00
91.9885 430.00
92.0537 463.00
92.1189 437.00
92.1841 421.00
92.2493 409.00
92.3145 417.00
92.3797 453.00
92.4449 390.00
92.5101 419.00
92.5753 444.00
92.6405 413.00
92.7057 441.00
92.7709 465.00
92.8361 405.00
92.9013 449.00
92.9665 433.00
93.0317 435.00
93.0969 460.00
93.1621 451.00
93.2273 461.00
93.2925 455.00
93.3577 417.00
93.4229 388.00
93.4881 473.00
93.5533 403.00
93.6185 403.00
93.6837 413.00
93.7489 449.00
93.8141 413.00
93.8793 388.00
93.9445 366.00
94.0097 460.00
94.0749 427.00
94.1401 433.00
94.2053 444.00
94.2705 406.00
94.3357 433.00
94.4009 379.00
94.4661 411.00
94.5313 392.00
94.5965 440.00
94.6617 406.00
94.7269 444.00
94.7921 443.00
94.8573 417.00
94.9225 419.00
94.9877 449.00
95.0529 467.00
95.1181 434.00
95.1833 475.00
95.2485 447.00
95.3137 453.00
95.3789 488.00
95.444 459.00
95.5092 419.00
95.5744 427.00
95.6396 463.00
95.7048 547.00
95.77 515.00
95.8352 457.00
95.9004 462.00
95.9656 471.00
96.0308 471.00
96.096 458.00
96.1612 473.00
96.2264 486.00
96.2916 441.00
96.3568 486.00
96.422 490.00
96.4872 446.00
96.5524 435.00
96.6176 481.00
96.6828 425.00
96.748 466.00
96.8132 471.00
96.8784 482.00
96.9436 487.00
97.0088 439.00
97.074 392.00
97.1392 465.00
97.2044 486.00
97.2696 418.00
97.3348 444.00
97.4 383.00
97.4652 412.00
97.5304 445.00
97.5956 486.00
97.6608 438.00
97.726 450.00
97.7912 424.00
97.8564 427.00
97.9216 448.00
97.9868 430.00
98.052 449.00
98.1172 409.00
98.1824 412.00
98.2476 390.00
98.3128 420.00
98.378 407.00
98.4432 415.00
98.5084 381.00
98.5736 381.00
98.6388 422.00
98.704 426.00
98.7692 397.00
98.8344 417.00
98.8996 399.00
98.9648 430.00
99.03 376.00
99.0952 412.00
99.1604 396.00
99.2256 393.00
99.2908 403.00
99.356 441.00
99.4212 392.00
99.4864 362.00
99.5516 390.00
99.6168 406.00
99.682 430.00
99.7472 394.00
99.8124 422.00
99.8776 393.00
99.9428 400.00
100.008 362.00
100.073 404.00
100.095 405.00