File: data/xrd_creation/results/Na_120.xy
9.903433 2656.00
9.968632 2592.00
10.0338 2719.00
10.099 2664.00
10.1642 2635.00
10.2294 2565.00
10.2946 2683.00
10.3598 2625.00
10.425 2486.00
10.4902 2530.00
10.5554 2520.00
10.6206 2460.00
10.6858 2574.00
10.751 2396.00
10.8162 2515.00
10.8814 2415.00
10.9466 2435.00
11.0118 2390.00
11.077 2419.00
11.1422 2411.00
11.2074 2354.00
11.2726 2390.00
11.3378 2322.00
11.403 2361.00
11.4682 2393.00
11.5334 2303.00
11.5986 2232.00
11.6638 2234.00
11.729 2343.00
11.7942 2222.00
11.8594 2200.00
11.9246 2293.00
11.9898 2187.00
12.055 2165.00
12.1202 2191.00
12.1854 2177.00
12.2506 2158.00
12.3158 2083.00
12.381 2103.00
12.4462 2093.00
12.5114 2037.00
12.5766 2090.00
12.6418 2055.00
12.707 2100.00
12.7722 2058.00
12.8374 2028.00
12.9026 2011.00
12.9678 2023.00
13.033 2015.00
13.0982 2101.00
13.1634 1992.00
13.2286 1967.00
13.2938 1947.00
13.359 1989.00
13.4242 2048.00
13.4894 1981.00
13.5546 1982.00
13.6198 1925.00
13.685 1916.00
13.7502 1928.00
13.8154 1918.00
13.8805 1877.00
13.9457 1895.00
14.0109 1891.00
14.0761 1857.00
14.1413 1774.00
14.2065 1793.00
14.2717 1846.00
14.3369 1878.00
14.4021 1755.00
14.4673 1876.00
14.5325 1856.00
14.5977 1943.00
14.6629 1835.00
14.7281 1797.00
14.7933 1863.00
14.8585 1820.00
14.9237 1814.00
14.9889 1930.00
15.0541 1837.00
15.1193 1788.00
15.1845 1896.00
15.2497 1889.00
15.3149 1835.00
15.3801 1845.00
15.4453 1866.00
15.5105 1852.00
15.5757 1797.00
15.6409 1807.00
15.7061 1839.00
15.7713 1826.00
15.8365 2019.00
15.9017 2080.00
15.9669 2144.00
16.0321 2286.00
16.0973 2553.00
16.1625 3090.00
16.2277 3879.00
16.2929 5182.00
16.3581 7135.00
16.4233 9592.00
16.4885 11726.00
16.5537 10804.00
16.6189 7383.00
16.6841 4548.00
16.7493 3189.00
16.8145 2661.00
16.8797 2336.00
16.9449 2257.00
17.0101 2095.00
17.0753 1931.00
17.1405 2051.00
17.2057 1884.00
17.2709 1863.00
17.3361 1701.00
17.4013 1908.00
17.4665 1839.00
17.5317 1757.00
17.5969 1759.00
17.6621 1799.00
17.7273 1761.00
17.7925 1791.00
17.8577 1729.00
17.9229 1714.00
17.9881 1757.00
18.0533 1757.00
18.1185 1711.00
18.1837 1760.00
18.2489 1740.00
18.3141 1847.00
18.3793 1879.00
18.4445 1842.00
18.5097 1933.00
18.5749 2092.00
18.6401 2303.00
18.7052 2726.00
18.7704 2999.00
18.8356 3241.00
18.9008 3377.00
18.966 3218.00
19.0312 3000.00
19.0964 2892.00
19.1616 2781.00
19.2268 2745.00
19.292 2635.00
19.3572 2545.00
19.4224 2479.00
19.4876 2507.00
19.5528 2474.00
19.618 2365.00
19.6832 2329.00
19.7484 2258.00
19.8136 2254.00
19.8788 2196.00
19.944 2177.00
20.0092 2258.00
20.0744 2149.00
20.1396 2080.00
20.2048 2033.00
20.27 2126.00
20.3352 2025.00
20.4004 1985.00
20.4656 2013.00
20.5308 1992.00
20.596 1941.00
20.6612 1919.00
20.7264 1946.00
20.7916 1852.00
20.8568 1871.00
20.922 1887.00
20.9872 1808.00
21.0524 1812.00
21.1176 1881.00
21.1828 1847.00
21.248 1851.00
21.3132 1794.00
21.3784 1823.00
21.4436 1800.00
21.5088 1811.00
21.574 1755.00
21.6392 1730.00
21.7044 1760.00
21.7696 1622.00
21.8348 1746.00
21.9 1745.00
21.9652 1713.00
22.0304 1725.00
22.0956 1739.00
22.1608 1626.00
22.226 1578.00
22.2912 1662.00
22.3564 1660.00
22.4216 1604.00
22.4868 1697.00
22.552 1596.00
22.6172 1636.00
22.6824 1583.00
22.7476 1528.00
22.8128 1493.00
22.878 1587.00
22.9432 1535.00
23.0084 1496.00
23.0736 1510.00
23.1388 1481.00
23.204 1525.00
23.2692 1438.00
23.3344 1522.00
23.3996 1505.00
23.4647 1399.00
23.5299 1443.00
23.5951 1411.00
23.6603 1449.00
23.7255 1487.00
23.7907 1442.00
23.8559 1459.00
23.9211 1450.00
23.9863 1439.00
24.0515 1431.00
24.1167 1356.00
24.1819 1427.00
24.2471 1389.00
24.3123 1323.00
24.3775 1327.00
24.4427 1375.00
24.5079 1316.00
24.5731 1336.00
24.6383 1372.00
24.7035 1313.00
24.7687 1319.00
24.8339 1308.00
24.8991 1312.00
24.9643 1253.00
25.0295 1327.00
25.0947 1312.00
25.1599 1260.00
25.2251 1261.00
25.2903 1255.00
25.3555 1260.00
25.4207 1251.00
25.4859 1277.00
25.5511 1264.00
25.6163 1272.00
25.6815 1263.00
25.7467 1214.00
25.8119 1234.00
25.8771 1313.00
25.9423 1252.00
26.0075 1272.00
26.0727 1273.00
26.1379 1154.00
26.2031 1232.00
26.2683 1259.00
26.3335 1327.00
26.3987 1265.00
26.4639 1303.00
26.5291 1285.00
26.5943 1358.00
26.6595 1321.00
26.7247 1389.00
26.7899 1591.00
26.8551 1964.00
26.9203 2070.00
26.9855 1677.00
27.0507 1487.00
27.1159 1371.00
27.1811 1326.00
27.2463 1228.00
27.3115 1214.00
27.3767 1191.00
27.4419 1110.00
27.5071 1177.00
27.5723 1091.00
27.6375 1133.00
27.7027 1115.00
27.7679 1177.00
27.8331 1067.00
27.8983 1244.00
27.9635 1297.00
28.0287 1143.00
28.0939 1054.00
28.1591 1144.00
28.2243 1113.00
28.2894 1056.00
28.3546 1049.00
28.4198 1071.00
28.485 1033.00
28.5502 1069.00
28.6154 1093.00
28.6806 1027.00
28.7458 1025.00
28.811 1030.00
28.8762 1060.00
28.9414 1028.00
29.0066 1098.00
29.0718 1017.00
29.137 1083.00
29.2022 1023.00
29.2674 1012.00
29.3326 1005.00
29.3978 1028.00
29.463 993.00
29.5282 903.00
29.5934 951.00
29.6586 950.00
29.7238 1025.00
29.789 997.00
29.8542 912.00
29.9194 968.00
29.9846 999.00
30.0498 1054.00
30.115 1003.00
30.1802 1085.00
30.2454 1102.00
30.3106 1362.00
30.3758 1753.00
30.441 1972.00
30.5062 1600.00
30.5714 1223.00
30.6366 1104.00
30.7018 940.00
30.767 972.00
30.8322 1012.00
30.8974 916.00
30.9626 995.00
31.0278 908.00
31.093 933.00
31.1582 903.00
31.2234 889.00
31.2886 963.00
31.3538 913.00
31.419 929.00
31.4842 907.00
31.5494 910.00
31.6146 972.00
31.6798 889.00
31.745 931.00
31.8102 918.00
31.8754 933.00
31.9406 914.00
32.0058 969.00
32.071 979.00
32.1362 973.00
32.2014 1059.00
32.2666 1016.00
32.3318 1050.00
32.397 1076.00
32.4622 1183.00
32.5274 1206.00
32.5926 1279.00
32.6578 1322.00
32.723 1519.00
32.7882 1932.00
32.8534 2587.00
32.9186 3626.00
32.9838 5513.00
33.0489 7450.00
33.1141 8180.00
33.1793 6783.00
33.2445 4801.00
33.3097 3368.00
33.3749 2385.00
33.4401 1845.00
33.5053 1575.00
33.5705 1366.00
33.6357 1365.00
33.7009 1301.00
33.7661 1218.00
33.8313 1244.00
33.8965 1389.00
33.9617 1358.00
34.0269 1567.00
34.0921 1980.00
34.1573 2488.00
34.2225 2805.00
34.2877 3459.00
34.3529 4510.00
34.4181 6659.00
34.4833 8162.00
34.5485 7460.00
34.6137 5467.00
34.6789 3600.00
34.7441 2646.00
34.8093 2210.00
34.8745 1754.00
34.9397 1515.00
35.0049 1288.00
35.0701 1131.00
35.1353 1096.00
35.2005 1065.00
35.2657 1061.00
35.3309 1131.00
35.3961 1219.00
35.4613 1415.00
35.5265 1685.00
35.5917 1576.00
35.6569 1286.00
35.7221 1042.00
35.7873 965.00
35.8525 873.00
35.9177 843.00
35.9829 906.00
36.0481 841.00
36.1133 853.00
36.1785 927.00
36.2437 798.00
36.3089 818.00
36.3741 865.00
36.4393 822.00
36.5045 826.00
36.5697 800.00
36.6349 776.00
36.7001 803.00
36.7653 807.00
36.8305 752.00
36.8957 804.00
36.9609 841.00
37.0261 858.00
37.0913 816.00
37.1565 835.00
37.2217 832.00
37.2869 880.00
37.3521 851.00
37.4173 799.00
37.4825 835.00
37.5477 840.00
37.6129 855.00
37.6781 948.00
37.7433 1007.00
37.8085 1032.00
37.8736 1178.00
37.9388 1097.00
38.004 1189.00
38.0692 1231.00
38.1344 1425.00
38.1996 1683.00
38.2648 2003.00
38.33 2043.00
38.3952 1769.00
38.4604 1446.00
38.5256 1196.00
38.5908 1252.00
38.656 1115.00
38.7212 1162.00
38.7864 1235.00
38.8516 1339.00
38.9168 1323.00
38.982 1366.00
39.0472 1538.00
39.1124 1788.00
39.1776 2237.00
39.2428 2830.00
39.308 3970.00
39.3732 5383.00
39.4384 7752.00
39.5036 10870.00
39.5688 12616.00
39.634 11981.00
39.6992 9349.00
39.7644 6455.00
39.8296 4291.00
39.8948 3082.00
39.96 2388.00
40.0252 1937.00
40.0904 1672.00
40.1556 1593.00
40.2208 1672.00
40.286 1590.00
40.3512 1384.00
40.4164 1113.00
40.4816 1104.00
40.5468 911.00
40.612 893.00
40.6772 893.00
40.7424 885.00
40.8076 909.00
40.8728 786.00
40.938 859.00
41.0032 872.00
41.0684 843.00
41.1336 916.00
41.1988 864.00
41.264 906.00
41.3292 965.00
41.3944 1135.00
41.4596 1100.00
41.5248 1040.00
41.59 1083.00
41.6552 1003.00
41.7204 1197.00
41.7856 1326.00
41.8508 1158.00
41.916 1036.00
41.9812 834.00
42.0464 832.00
42.1116 780.00
42.1768 788.00
42.242 744.00
42.3072 808.00
42.3724 828.00
42.4376 780.00
42.5028 793.00
42.568 876.00
42.6332 914.00
42.6983 959.00
42.7635 1043.00
42.8287 1082.00
42.8939 1465.00
42.9591 1678.00
43.0243 1909.00
43.0895 1909.00
43.1547 1714.00
43.2199 1419.00
43.2851 1192.00
43.3503 1006.00
43.4155 836.00
43.4807 819.00
43.5459 776.00
43.6111 714.00
43.6763 743.00
43.7415 761.00
43.8067 699.00
43.8719 642.00
43.9371 666.00
44.0023 716.00
44.0675 698.00
44.1327 645.00
44.1979 693.00
44.2631 629.00
44.3283 675.00
44.3935 632.00
44.4587 692.00
44.5239 662.00
44.5891 648.00
44.6543 702.00
44.7195 719.00
44.7847 763.00
44.8499 702.00
44.9151 707.00
44.9803 649.00
45.0455 627.00
45.1107 650.00
45.1759 635.00
45.2411 623.00
45.3063 634.00
45.3715 627.00
45.4367 666.00
45.5019 615.00
45.5671 639.00
45.6323 651.00
45.6975 605.00
45.7627 654.00
45.8279 606.00
45.8931 617.00
45.9583 598.00
46.0235 635.00
46.0887 595.00
46.1539 613.00
46.2191 609.00
46.2843 632.00
46.3495 598.00
46.4147 609.00
46.4799 600.00
46.5451 676.00
46.6103 710.00
46.6755 735.00
46.7407 873.00
46.8059 953.00
46.8711 780.00
46.9363 777.00
47.0015 644.00
47.0667 611.00
47.1319 661.00
47.1971 590.00
47.2623 633.00
47.3275 642.00
47.3927 650.00
47.4579 570.00
47.523 563.00
47.5882 565.00
47.6534 567.00
47.7186 586.00
47.7838 544.00
47.849 557.00
47.9142 598.00
47.9794 572.00
48.0446 567.00
48.1098 596.00
48.175 617.00
48.2402 605.00
48.3054 627.00
48.3706 662.00
48.4358 760.00
48.501 897.00
48.5662 881.00
48.6314 796.00
48.6966 732.00
48.7618 644.00
48.827 661.00
48.8922 591.00
48.9574 554.00
49.0226 545.00
49.0878 561.00
49.153 576.00
49.2182 577.00
49.2834 609.00
49.3486 570.00
49.4138 567.00
49.479 572.00
49.5442 612.00
49.6094 580.00
49.6746 611.00
49.7398 648.00
49.805 578.00
49.8702 580.00
49.9354 634.00
50.0006 631.00
50.0658 638.00
50.131 652.00
50.1962 673.00
50.2614 758.00
50.3266 852.00
50.3918 823.00
50.457 860.00
50.5222 880.00
50.5874 941.00
50.6526 990.00
50.7178 1054.00
50.783 1166.00
50.8482 1050.00
50.9134 1130.00
50.9786 1143.00
51.0438 1196.00
51.109 1306.00
51.1742 1497.00
51.2394 1773.00
51.3046 2024.00
51.3698 2271.00
51.435 2164.00
51.5002 1878.00
51.5654 1572.00
51.6306 1355.00
51.6958 1130.00
51.761 1122.00
51.8262 923.00
51.8914 1015.00
51.9566 1053.00
52.0218 1242.00
52.087 1285.00
52.1522 1143.00
52.2174 1078.00
52.2826 950.00
52.3477 903.00
52.4129 838.00
52.4781 753.00
52.5433 791.00
52.6085 749.00
52.6737 694.00
52.7389 712.00
52.8041 717.00
52.8693 668.00
52.9345 658.00
52.9997 650.00
53.0649 682.00
53.1301 656.00
53.1953 670.00
53.2605 652.00
53.3257 715.00
53.3909 666.00
53.4561 666.00
53.5213 648.00
53.5865 645.00
53.6517 673.00
53.7169 723.00
53.7821 769.00
53.8473 806.00
53.9125 770.00
53.9777 684.00
54.0429 706.00
54.1081 698.00
54.1733 674.00
54.2385 670.00
54.3037 711.00
54.3689 689.00
54.4341 600.00
54.4993 632.00
54.5645 667.00
54.6297 690.00
54.6949 651.00
54.7601 731.00
54.8253 757.00
54.8905 777.00
54.9557 868.00
55.0209 881.00
55.0861 790.00
55.1513 800.00
55.2165 771.00
55.2817 760.00
55.3469 802.00
55.4121 765.00
55.4773 822.00
55.5425 828.00
55.6077 982.00
55.6729 968.00
55.7381 1181.00
55.8033 1458.00
55.8685 1782.00
55.9337 2201.00
55.9989 2837.00
56.0641 3223.00
56.1293 3206.00
56.1945 3027.00
56.2597 2448.00
56.3249 2027.00
56.3901 1584.00
56.4553 1389.00
56.5205 1165.00
56.5857 1016.00
56.6509 984.00
56.7161 852.00
56.7813 832.00
56.8465 732.00
56.9117 794.00
56.9769 707.00
57.042 679.00
57.1073 719.00
57.1724 736.00
57.2376 715.00
57.3028 810.00
57.368 844.00
57.4332 861.00
57.4984 882.00
57.5636 971.00
57.6288 1094.00
57.694 1334.00
57.7592 1655.00
57.8244 2196.00
57.8896 2968.00
57.9548 3501.00
58.02 3675.00
58.0852 3242.00
58.1504 2701.00
58.2156 2026.00
58.2808 1537.00
58.346 1259.00
58.4112 1004.00
58.4764 892.00
58.5416 798.00
58.6068 747.00
58.672 743.00
58.7372 733.00
58.8024 730.00
58.8676 677.00
58.9328 663.00
58.998 631.00
59.0632 652.00
59.1284 650.00
59.1936 672.00
59.2588 683.00
59.324 693.00
59.3892 616.00
59.4544 607.00
59.5196 643.00
59.5848 583.00
59.65 580.00
59.7152 628.00
59.7804 556.00
59.8456 574.00
59.9108 610.00
59.976 612.00
60.0412 613.00
60.1064 647.00
60.1716 644.00
60.2368 734.00
60.302 876.00
60.3672 926.00
60.4324 1151.00
60.4976 1427.00
60.5628 1637.00
60.628 1872.00
60.6932 1828.00
60.7584 1726.00
60.8236 1422.00
60.8888 1220.00
60.954 1052.00
61.0192 862.00
61.0844 749.00
61.1496 664.00
61.2148 594.00
61.28 564.00
61.3452 582.00
61.4104 558.00
61.4756 569.00
61.5408 533.00
61.606 507.00
61.6712 497.00
61.7364 553.00
61.8016 491.00
61.8667 557.00
61.932 493.00
61.9971 562.00
62.0623 582.00
62.1275 650.00
62.1927 609.00
62.2579 569.00
62.3231 623.00
62.3883 538.00
62.4535 572.00
62.5187 514.00
62.5839 494.00
62.6491 492.00
62.7143 485.00
62.7795 530.00
62.8447 568.00
62.9099 606.00
62.9751 584.00
63.0403 529.00
63.1055 474.00
63.1707 471.00
63.2359 454.00
63.3011 511.00
63.3663 469.00
63.4315 453.00
63.4967 451.00
63.5619 456.00
63.6271 432.00
63.6923 431.00
63.7575 443.00
63.8227 489.00
63.8879 465.00
63.9531 517.00
64.0183 458.00
64.0835 517.00
64.1487 496.00
64.2139 492.00
64.2791 464.00
64.3443 472.00
64.4095 469.00
64.4747 517.00
64.5399 454.00
64.6051 491.00
64.6703 488.00
64.7355 478.00
64.8007 487.00
64.8659 473.00
64.9311 487.00
64.9963 560.00
65.0615 519.00
65.1267 508.00
65.1919 546.00
65.2571 509.00
65.3223 498.00
65.3875 448.00
65.4527 521.00
65.5179 460.00
65.5831 490.00
65.6483 461.00
65.7135 505.00
65.7787 493.00
65.8439 486.00
65.9091 515.00
65.9743 580.00
66.0395 588.00
66.1047 674.00
66.1699 690.00
66.2351 870.00
66.3003 849.00
66.3655 1020.00
66.4307 1073.00
66.4959 1215.00
66.561 1106.00
66.6263 1123.00
66.6915 946.00
66.7566 856.00
66.8218 778.00
66.887 709.00
66.9522 663.00
67.0174 604.00
67.0826 558.00
67.1478 554.00
67.213 548.00
67.2782 539.00
67.3434 565.00
67.4086 567.00
67.4738 578.00
67.539 600.00
67.6042 659.00
67.6694 688.00
67.7346 745.00
67.7998 803.00
67.865 859.00
67.9302 975.00
67.9954 1149.00
68.0606 1392.00
68.1258 1694.00
68.191 1946.00
68.2562 2091.00
68.3214 1982.00
68.3866 1800.00
68.4518 1496.00
68.517 1345.00
68.5822 1141.00
68.6474 1047.00
68.7126 1024.00
68.7778 995.00
68.843 1216.00
68.9082 1320.00
68.9734 1451.00
69.0386 1480.00
69.1038 1373.00
69.169 1292.00
69.2342 1113.00
69.2994 934.00
69.3646 839.00
69.4298 735.00
69.495 654.00
69.5602 607.00
69.6254 566.00
69.6906 536.00
69.7558 508.00
69.821 488.00
69.8862 491.00
69.9514 490.00
70.0166 469.00
70.0818 467.00
70.147 481.00
70.2122 476.00
70.2774 456.00
70.3426 440.00
70.4078 468.00
70.473 459.00
70.5382 471.00
70.6034 456.00
70.6686 444.00
70.7338 450.00
70.799 504.00
70.8642 439.00
70.9294 504.00
70.9946 508.00
71.0598 468.00
71.125 571.00
71.1902 595.00
71.2554 666.00
71.3205 619.00
71.3858 630.00
71.451 680.00
71.5162 653.00
71.5813 649.00
71.6465 696.00
71.7117 759.00
71.7769 788.00
71.8421 899.00
71.9073 954.00
71.9725 1021.00
72.0377 1155.00
72.1029 1418.00
72.1681 1587.00
72.2333 1792.00
72.2985 1873.00
72.3637 1769.00
72.4289 1626.00
72.4941 1442.00
72.5593 1201.00
72.6245 1073.00
72.6897 869.00
72.7549 749.00
72.8201 711.00
72.8853 626.00
72.9505 608.00
73.0157 535.00
73.0809 535.00
73.1461 467.00
73.2113 513.00
73.2765 529.00
73.3417 494.00
73.4069 488.00
73.4721 456.00
73.5373 451.00
73.6025 508.00
73.6677 455.00
73.7329 437.00
73.7981 480.00
73.8633 471.00
73.9285 450.00
73.9937 421.00
74.0589 413.00
74.1241 439.00
74.1893 447.00
74.2545 423.00
74.3197 446.00
74.3849 488.00
74.4501 483.00
74.5153 588.00
74.5805 601.00
74.6457 579.00
74.7109 667.00
74.7761 571.00
74.8413 593.00
74.9065 543.00
74.9717 533.00
75.0369 515.00
75.1021 493.00
75.1673 431.00
75.2325 431.00
75.2977 428.00
75.3629 408.00
75.4281 390.00
75.4933 397.00
75.5585 347.00
75.6237 411.00
75.6889 393.00
75.7541 385.00
75.8193 422.00
75.8845 373.00
75.9497 375.00
76.0149 407.00
76.0801 390.00
76.1452 427.00
76.2104 388.00
76.2756 398.00
76.3409 358.00
76.406 408.00
76.4712 382.00
76.5364 400.00
76.6016 418.00
76.6668 379.00
76.732 361.00
76.7972 381.00
76.8624 355.00
76.9276 392.00
76.9928 390.00
77.058 370.00
77.1232 382.00
77.1884 376.00
77.2536 387.00
77.3188 361.00
77.384 379.00
77.4492 375.00
77.5144 393.00
77.5796 384.00
77.6448 332.00
77.71 329.00
77.7752 379.00
77.8404 346.00
77.9056 385.00
77.9708 389.00
78.036 338.00
78.1012 354.00
78.1664 368.00
78.2316 364.00
78.2968 389.00
78.362 346.00
78.4272 382.00
78.4924 392.00
78.5576 356.00
78.6228 399.00
78.688 370.00
78.7532 371.00
78.8184 388.00
78.8836 427.00
78.9488 495.00
79.014 460.00
79.0792 418.00
79.1444 429.00
79.2096 413.00
79.2748 378.00
79.34 444.00
79.4052 382.00
79.4704 425.00
79.5356 414.00
79.6008 454.00
79.666 467.00
79.7312 488.00
79.7964 538.00
79.8616 501.00
79.9268 559.00
79.992 627.00
80.0572 629.00
80.1224 623.00
80.1876 635.00
80.2528 621.00
80.318 609.00
80.3832 609.00
80.4484 588.00
80.5136 612.00
80.5788 585.00
80.644 602.00
80.7092 677.00
80.7744 683.00
80.8396 672.00
80.9048 650.00
80.9699 591.00
81.0351 588.00
81.1003 601.00
81.1655 588.00
81.2307 547.00
81.2959 454.00
81.3611 475.00
81.4263 435.00
81.4915 431.00
81.5567 445.00
81.6219 408.00
81.6871 461.00
81.7523 423.00
81.8175 375.00
81.8827 390.00
81.9479 356.00
82.0131 401.00
82.0783 378.00
82.1435 365.00
82.2087 373.00
82.2739 358.00
82.3391 383.00
82.4043 358.00
82.4695 376.00
82.5347 384.00
82.5999 369.00
82.6651 363.00
82.7303 371.00
82.7955 356.00
82.8607 371.00
82.9259 393.00
82.9911 332.00
83.0563 382.00
83.1215 355.00
83.1867 344.00
83.2519 383.00
83.3171 362.00
83.3823 359.00
83.4475 366.00
83.5127 365.00
83.5779 381.00
83.6431 389.00
83.7083 435.00
83.7735 417.00
83.8387 396.00
83.9039 453.00
83.9691 420.00
84.0343 494.00
84.0995 485.00
84.1647 484.00
84.2299 551.00
84.2951 487.00
84.3603 577.00
84.4255 597.00
84.4907 660.00
84.5559 713.00
84.6211 750.00
84.6863 846.00
84.7515 855.00
84.8167 771.00
84.8819 761.00
84.9471 724.00
85.0123 640.00
85.0775 565.00
85.1427 560.00
85.2079 504.00
85.2731 446.00
85.3383 457.00
85.4035 430.00
85.4687 414.00
85.5339 399.00
85.5991 383.00
85.6643 401.00
85.7295 322.00
85.7946 409.00
85.8598 381.00
85.925 356.00
85.9903 364.00
86.0554 364.00
86.1206 368.00
86.1858 344.00
86.251 341.00
86.3162 359.00
86.3814 363.00
86.4466 326.00
86.5118 355.00
86.577 338.00
86.6422 312.00
86.7074 325.00
86.7726 310.00
86.8378 335.00
86.903 356.00
86.9682 318.00
87.0334 336.00
87.0986 356.00
87.1638 331.00
87.229 311.00
87.2942 337.00
87.3594 346.00
87.4246 378.00
87.4898 347.00
87.555 348.00
87.6202 346.00
87.6854 340.00
87.7506 339.00
87.8158 385.00
87.881 326.00
87.9462 348.00
88.0114 343.00
88.0766 353.00
88.1418 372.00
88.207 328.00
88.2722 333.00
88.3374 341.00
88.4026 304.00
88.4678 353.00
88.533 368.00
88.5982 357.00
88.6634 313.00
88.7286 328.00
88.7938 360.00
88.859 357.00
88.9242 363.00
88.9894 360.00
89.0546 374.00
89.1198 370.00
89.185 366.00
89.2502 367.00
89.3154 383.00
89.3806 379.00
89.4458 432.00
89.511 389.00
89.5762 412.00
89.6414 422.00
89.7066 449.00
89.7718 448.00
89.837 454.00
89.9022 485.00
89.9674 533.00
90.0326 471.00
90.0978 474.00
90.163 448.00
90.2282 455.00
90.2934 448.00
90.3586 453.00
90.4238 439.00
90.489 394.00
90.5542 408.00
90.6193 368.00
90.6845 402.00
90.7497 398.00
90.8149 406.00
90.8801 428.00
90.9453 435.00
91.0105 445.00
91.0757 488.00
91.1409 510.00
91.2061 522.00
91.2713 545.00
91.3365 605.00
91.4017 618.00
91.4669 620.00
91.5321 560.00
91.5973 551.00
91.6625 569.00
91.7277 495.00
91.7929 533.00
91.8581 501.00
91.9233 407.00
91.9885 444.00
92.0537 406.00
92.1189 406.00
92.1841 374.00
92.2493 388.00
92.3145 401.00
92.3797 367.00
92.4449 395.00
92.5101 372.00
92.5753 392.00
92.6405 366.00
92.7057 360.00
92.7709 376.00
92.8361 379.00
92.9013 352.00
92.9665 374.00
93.0317 359.00
93.0969 393.00
93.1621 369.00
93.2273 439.00
93.2925 434.00
93.3577 469.00
93.4229 550.00
93.4881 523.00
93.5533 504.00
93.6185 567.00
93.6837 516.00
93.7489 627.00
93.8141 551.00
93.8793 581.00
93.9445 551.00
94.0097 525.00
94.0749 559.00
94.1401 530.00
94.2053 528.00
94.2705 518.00
94.3357 421.00
94.4009 502.00
94.4661 468.00
94.5313 468.00
94.5965 399.00
94.6617 463.00
94.7269 458.00
94.7921 439.00
94.8573 414.00
94.9225 485.00
94.9877 496.00
95.0529 556.00
95.1181 544.00
95.1833 591.00
95.2485 590.00
95.3137 632.00
95.3789 690.00
95.444 770.00
95.5092 772.00
95.5744 798.00
95.6396 818.00
95.7048 805.00
95.77 910.00
95.8352 910.00
95.9004 1004.00
95.9656 1044.00
96.0308 1156.00
96.096 1262.00
96.1612 1261.00
96.2264 1270.00
96.2916 1168.00
96.3568 1107.00
96.422 1009.00
96.4872 963.00
96.5524 913.00
96.6176 792.00
96.6828 728.00
96.748 661.00
96.8132 609.00
96.8784 620.00
96.9436 542.00
97.0088 489.00
97.074 475.00
97.1392 438.00
97.2044 429.00
97.2696 409.00
97.3348 429.00
97.4 427.00
97.4652 434.00
97.5304 408.00
97.5956 410.00
97.6608 397.00
97.726 418.00
97.7912 441.00
97.8564 414.00
97.9216 400.00
97.9868 382.00
98.052 396.00
98.1172 410.00
98.1824 395.00
98.2476 402.00
98.3128 402.00
98.378 419.00
98.4432 418.00
98.5084 451.00
98.5736 497.00
98.6388 547.00
98.704 544.00
98.7692 568.00
98.8344 629.00
98.8996 664.00
98.9648 701.00
99.03 819.00
99.0952 841.00
99.1604 974.00
99.2256 979.00
99.2908 1009.00
99.356 959.00
99.4212 956.00
99.4864 880.00
99.5516 836.00
99.6168 850.00
99.682 726.00
99.7472 664.00
99.8124 592.00
99.8776 592.00
99.9428 505.00
100.008 506.00
100.073 481.00
100.095 484.00