File: data/xrd_creation/results/Na_117.xy
9.903433 2781.00
9.968632 2720.00
10.0338 2763.00
10.099 2669.00
10.1642 2778.00
10.2294 2800.00
10.2946 2664.00
10.3598 2612.00
10.425 2674.00
10.4902 2650.00
10.5554 2529.00
10.6206 2580.00
10.6858 2631.00
10.751 2629.00
10.8162 2616.00
10.8814 2637.00
10.9466 2570.00
11.0118 2643.00
11.077 2786.00
11.1422 3004.00
11.2074 3241.00
11.2726 3751.00
11.3378 4586.00
11.403 6082.00
11.4682 8100.00
11.5334 8522.00
11.5986 6796.00
11.6638 4941.00
11.729 2986.00
11.7942 2567.00
11.8594 2366.00
11.9246 2403.00
11.9898 2337.00
12.055 2236.00
12.1202 2241.00
12.1854 2128.00
12.2506 2214.00
12.3158 2247.00
12.381 2134.00
12.4462 2056.00
12.5114 2104.00
12.5766 2085.00
12.6418 2060.00
12.707 2063.00
12.7722 1981.00
12.8374 2069.00
12.9026 1970.00
12.9678 1969.00
13.033 2009.00
13.0982 1945.00
13.1634 1940.00
13.2286 1887.00
13.2938 1930.00
13.359 1903.00
13.4242 1904.00
13.4894 1853.00
13.5546 1949.00
13.6198 1882.00
13.685 1897.00
13.7502 1808.00
13.8154 1815.00
13.8805 1896.00
13.9457 1776.00
14.0109 1791.00
14.0761 1769.00
14.1413 1799.00
14.2065 1780.00
14.2717 1748.00
14.3369 1784.00
14.4021 1760.00
14.4673 1827.00
14.5325 1825.00
14.5977 1801.00
14.6629 1965.00
14.7281 1974.00
14.7933 1987.00
14.8585 1837.00
14.9237 1758.00
14.9889 1697.00
15.0541 1733.00
15.1193 1732.00
15.1845 1712.00
15.2497 1665.00
15.3149 1729.00
15.3801 1700.00
15.4453 1707.00
15.5105 1765.00
15.5757 1791.00
15.6409 1687.00
15.7061 1755.00
15.7713 1736.00
15.8365 1798.00
15.9017 1859.00
15.9669 1916.00
16.0321 2101.00
16.0973 2465.00
16.1625 3117.00
16.2277 3949.00
16.2929 4716.00
16.3581 4492.00
16.4233 3012.00
16.4885 2116.00
16.5537 1860.00
16.6189 1697.00
16.6841 1693.00
16.7493 1716.00
16.8145 1673.00
16.8797 1597.00
16.9449 1581.00
17.0101 1625.00
17.0753 1591.00
17.1405 1568.00
17.2057 1616.00
17.2709 1506.00
17.3361 1552.00
17.4013 1615.00
17.4665 1545.00
17.5317 1514.00
17.5969 1613.00
17.6621 1566.00
17.7273 1676.00
17.7925 1800.00
17.8577 2073.00
17.9229 2240.00
17.9881 2333.00
18.0533 2024.00
18.1185 1841.00
18.1837 1627.00
18.2489 1609.00
18.3141 1462.00
18.3793 1540.00
18.4445 1441.00
18.5097 1515.00
18.5749 1376.00
18.6401 1404.00
18.7052 1411.00
18.7704 1389.00
18.8356 1358.00
18.9008 1403.00
18.966 1437.00
19.0312 1324.00
19.0964 1342.00
19.1616 1350.00
19.2268 1383.00
19.292 1384.00
19.3572 1369.00
19.4224 1315.00
19.4876 1381.00
19.5528 1308.00
19.618 1307.00
19.6832 1320.00
19.7484 1334.00
19.8136 1273.00
19.8788 1241.00
19.944 1206.00
20.0092 1325.00
20.0744 1391.00
20.1396 1269.00
20.2048 1343.00
20.27 1224.00
20.3352 1316.00
20.4004 1293.00
20.4656 1351.00
20.5308 1209.00
20.596 1308.00
20.6612 1321.00
20.7264 1385.00
20.7916 1359.00
20.8568 1415.00
20.922 1358.00
20.9872 1382.00
21.0524 1293.00
21.1176 1234.00
21.1828 1283.00
21.248 1199.00
21.3132 1178.00
21.3784 1167.00
21.4436 1283.00
21.5088 1160.00
21.574 1245.00
21.6392 1215.00
21.7044 1180.00
21.7696 1184.00
21.8348 1189.00
21.9 1148.00
21.9652 1169.00
22.0304 1167.00
22.0956 1192.00
22.1608 1195.00
22.226 1213.00
22.2912 1192.00
22.3564 1204.00
22.4216 1112.00
22.4868 1198.00
22.552 1200.00
22.6172 1107.00
22.6824 1201.00
22.7476 1113.00
22.8128 1177.00
22.878 1219.00
22.9432 1242.00
23.0084 1231.00
23.0736 1206.00
23.1388 1258.00
23.204 1218.00
23.2692 1206.00
23.3344 1211.00
23.3996 1104.00
23.4647 1130.00
23.5299 1158.00
23.5951 1129.00
23.6603 1175.00
23.7255 1079.00
23.7907 1201.00
23.8559 1153.00
23.9211 1176.00
23.9863 1205.00
24.0515 1256.00
24.1167 1385.00
24.1819 1518.00
24.2471 1783.00
24.3123 1789.00
24.3775 1866.00
24.4427 1879.00
24.5079 2101.00
24.5731 1756.00
24.6383 1340.00
24.7035 1195.00
24.7687 1143.00
24.8339 1218.00
24.8991 1194.00
24.9643 1156.00
25.0295 1207.00
25.0947 1201.00
25.1599 1312.00
25.2251 1345.00
25.2903 1393.00
25.3555 1334.00
25.4207 1364.00
25.4859 1373.00
25.5511 1618.00
25.6163 2053.00
25.6815 3037.00
25.7467 4642.00
25.8119 5819.00
25.8771 5917.00
25.9423 5632.00
26.0075 4561.00
26.0727 2992.00
26.1379 2016.00
26.2031 1660.00
26.2683 1569.00
26.3335 1575.00
26.3987 1874.00
26.4639 2582.00
26.5291 4577.00
26.5943 7794.00
26.6595 11633.00
26.7247 10757.00
26.7899 5864.00
26.8551 2466.00
26.9203 1646.00
26.9855 1543.00
27.0507 1544.00
27.1159 1516.00
27.1811 1389.00
27.2463 1301.00
27.3115 1228.00
27.3767 1390.00
27.4419 1531.00
27.5071 1931.00
27.5723 2969.00
27.6375 4473.00
27.7027 5750.00
27.7679 5986.00
27.8331 4478.00
27.8983 3330.00
27.9635 2864.00
28.0287 2147.00
28.0939 1636.00
28.1591 1279.00
28.2243 1195.00
28.2894 1244.00
28.3546 1080.00
28.4198 1087.00
28.485 991.00
28.5502 962.00
28.6154 973.00
28.6806 952.00
28.7458 957.00
28.811 949.00
28.8762 955.00
28.9414 1041.00
29.0066 924.00
29.0718 997.00
29.137 941.00
29.2022 907.00
29.2674 968.00
29.3326 892.00
29.3978 981.00
29.463 921.00
29.5282 948.00
29.5934 944.00
29.6586 953.00
29.7238 999.00
29.789 1156.00
29.8542 1374.00
29.9194 1717.00
29.9846 1988.00
30.0498 1892.00
30.115 1634.00
30.1802 1576.00
30.2454 1806.00
30.3106 1728.00
30.3758 1397.00
30.441 1113.00
30.5062 980.00
30.5714 932.00
30.6366 869.00
30.7018 928.00
30.767 825.00
30.8322 897.00
30.8974 931.00
30.9626 872.00
31.0278 988.00
31.093 998.00
31.1582 1148.00
31.2234 1404.00
31.2886 1680.00
31.3538 1612.00
31.419 1393.00
31.4842 1210.00
31.5494 1157.00
31.6146 1269.00
31.6798 1460.00
31.745 1642.00
31.8102 1594.00
31.8754 1294.00
31.9406 1017.00
32.0058 920.00
32.071 891.00
32.1362 911.00
32.2014 871.00
32.2666 912.00
32.3318 950.00
32.397 1003.00
32.4622 985.00
32.5274 1058.00
32.5926 1223.00
32.6578 1596.00
32.723 2513.00
32.7882 4438.00
32.8534 6553.00
32.9186 6091.00
32.9838 3659.00
33.0489 1888.00
33.1141 1215.00
33.1793 1100.00
33.2445 973.00
33.3097 997.00
33.3749 995.00
33.4401 1020.00
33.5053 1095.00
33.5705 1190.00
33.6357 1378.00
33.7009 1587.00
33.7661 2350.00
33.8313 4127.00
33.8965 7323.00
33.9617 10741.00
34.0269 9070.00
34.0921 5838.00
34.1573 4220.00
34.2225 5506.00
34.2877 7283.00
34.3529 7387.00
34.4181 4956.00
34.4833 2801.00
34.5485 2188.00
34.6137 2352.00
34.6789 2827.00
34.7441 2820.00
34.8093 2161.00
34.8745 1470.00
34.9397 1092.00
35.0049 1118.00
35.0701 1146.00
35.1353 1083.00
35.2005 950.00
35.2657 841.00
35.3309 815.00
35.3961 774.00
35.4613 715.00
35.5265 808.00
35.5917 756.00
35.6569 752.00
35.7221 767.00
35.7873 783.00
35.8525 795.00
35.9177 827.00
35.9829 851.00
36.0481 899.00
36.1133 995.00
36.1785 1130.00
36.2437 1126.00
36.3089 1112.00
36.3741 1022.00
36.4393 1139.00
36.5045 1048.00
36.5697 1035.00
36.6349 1182.00
36.7001 1230.00
36.7653 1185.00
36.8305 1115.00
36.8957 1037.00
36.9609 1042.00
37.0261 1124.00
37.0913 1010.00
37.1565 929.00
37.2217 757.00
37.2869 700.00
37.3521 773.00
37.4173 788.00
37.4825 770.00
37.5477 773.00
37.6129 957.00
37.6781 1012.00
37.7433 1068.00
37.8085 1151.00
37.8736 1220.00
37.9388 1878.00
38.004 2950.00
38.0692 3341.00
38.1344 2346.00
38.1996 1477.00
38.2648 952.00
38.33 753.00
38.3952 742.00
38.4604 690.00
38.5256 691.00
38.5908 682.00
38.656 608.00
38.7212 683.00
38.7864 684.00
38.8516 768.00
38.9168 932.00
38.982 1038.00
39.0472 1314.00
39.1124 1219.00
39.1776 999.00
39.2428 817.00
39.308 749.00
39.3732 685.00
39.4384 694.00
39.5036 697.00
39.5688 662.00
39.634 707.00
39.6992 627.00
39.7644 670.00
39.8296 653.00
39.8948 615.00
39.96 650.00
40.0252 612.00
40.0904 583.00
40.1556 634.00
40.2208 643.00
40.286 720.00
40.3512 674.00
40.4164 738.00
40.4816 686.00
40.5468 647.00
40.612 623.00
40.6772 630.00
40.7424 692.00
40.8076 760.00
40.8728 767.00
40.938 738.00
41.0032 749.00
41.0684 675.00
41.1336 629.00
41.1988 727.00
41.264 726.00
41.3292 680.00
41.3944 686.00
41.4596 770.00
41.5248 955.00
41.59 1109.00
41.6552 1213.00
41.7204 1090.00
41.7856 978.00
41.8508 965.00
41.916 1134.00
41.9812 1319.00
42.0464 1607.00
42.1116 1499.00
42.1768 1476.00
42.242 1411.00
42.3072 1356.00
42.3724 1269.00
42.4376 1054.00
42.5028 888.00
42.568 718.00
42.6332 750.00
42.6983 808.00
42.7635 757.00
42.8287 718.00
42.8939 615.00
42.9591 594.00
43.0243 583.00
43.0895 632.00
43.1547 627.00
43.2199 696.00
43.2851 860.00
43.3503 1051.00
43.4155 1005.00
43.4807 875.00
43.5459 886.00
43.6111 815.00
43.6763 733.00
43.7415 701.00
43.8067 613.00
43.8719 611.00
43.9371 670.00
44.0023 603.00
44.0675 645.00
44.1327 658.00
44.1979 594.00
44.2631 573.00
44.3283 620.00
44.3935 580.00
44.4587 589.00
44.5239 577.00
44.5891 618.00
44.6543 602.00
44.7195 576.00
44.7847 625.00
44.8499 760.00
44.9151 881.00
44.9803 914.00
45.0455 916.00
45.1107 869.00
45.1759 744.00
45.2411 848.00
45.3063 826.00
45.3715 768.00
45.4367 770.00
45.5019 752.00
45.5671 745.00
45.6323 701.00
45.6975 649.00
45.7627 575.00
45.8279 572.00
45.8931 578.00
45.9583 613.00
46.0235 697.00
46.0887 723.00
46.1539 592.00
46.2191 585.00
46.2843 604.00
46.3495 592.00
46.4147 588.00
46.4799 609.00
46.5451 643.00
46.6103 747.00
46.6755 750.00
46.7407 841.00
46.8059 960.00
46.8711 1114.00
46.9363 1019.00
47.0015 992.00
47.0667 1128.00
47.1319 1123.00
47.1971 1197.00
47.2623 1511.00
47.3275 1954.00
47.3927 2339.00
47.4579 1755.00
47.523 1418.00
47.5882 945.00
47.6534 667.00
47.7186 610.00
47.7838 583.00
47.849 602.00
47.9142 614.00
47.9794 606.00
48.0446 571.00
48.1098 560.00
48.175 606.00
48.2402 614.00
48.3054 653.00
48.3706 786.00
48.4358 836.00
48.501 777.00
48.5662 758.00
48.6314 711.00
48.6966 699.00
48.7618 706.00
48.827 874.00
48.8922 1013.00
48.9574 953.00
49.0226 977.00
49.0878 843.00
49.153 749.00
49.2182 732.00
49.2834 735.00
49.3486 722.00
49.4138 842.00
49.479 1115.00
49.5442 1446.00
49.6094 1404.00
49.6746 1261.00
49.7398 1166.00
49.805 1246.00
49.8702 1317.00
49.9354 1242.00
50.0006 1272.00
50.0658 1361.00
50.131 1468.00
50.1962 1388.00
50.2614 1148.00
50.3266 913.00
50.3918 786.00
50.457 708.00
50.5222 659.00
50.5874 632.00
50.6526 598.00
50.7178 548.00
50.783 614.00
50.8482 564.00
50.9134 594.00
50.9786 589.00
51.0438 679.00
51.109 722.00
51.1742 664.00
51.2394 731.00
51.3046 664.00
51.3698 683.00
51.435 858.00
51.5002 1084.00
51.5654 1665.00
51.6306 2004.00
51.6958 2338.00
51.761 4160.00
51.8262 7268.00
51.8914 7707.00
51.9566 5038.00
52.0218 4273.00
52.087 1965.00
52.1522 1128.00
52.2174 896.00
52.2826 738.00
52.3477 657.00
52.4129 595.00
52.4781 619.00
52.5433 597.00
52.6085 540.00
52.6737 508.00
52.7389 609.00
52.8041 640.00
52.8693 825.00
52.9345 1040.00
52.9997 961.00
53.0649 988.00
53.1301 886.00
53.1953 816.00
53.2605 776.00
53.3257 695.00
53.3909 714.00
53.4561 700.00
53.5213 647.00
53.5865 622.00
53.6517 677.00
53.7169 695.00
53.7821 706.00
53.8473 640.00
53.9125 734.00
53.9777 675.00
54.0429 665.00
54.1081 669.00
54.1733 655.00
54.2385 719.00
54.3037 680.00
54.3689 663.00
54.4341 634.00
54.4993 690.00
54.5645 702.00
54.6297 907.00
54.6949 1073.00
54.7601 1534.00
54.8253 2397.00
54.8905 1894.00
54.9557 1539.00
55.0209 1365.00
55.0861 803.00
55.1513 739.00
55.2165 780.00
55.2817 908.00
55.3469 1035.00
55.4121 1116.00
55.4773 875.00
55.5425 888.00
55.6077 707.00
55.6729 604.00
55.7381 556.00
55.8033 543.00
55.8685 583.00
55.9337 701.00
55.9989 701.00
56.0641 721.00
56.1293 760.00
56.1945 755.00
56.2597 745.00
56.3249 712.00
56.3901 681.00
56.4553 658.00
56.5205 651.00
56.5857 732.00
56.6509 795.00
56.7161 844.00
56.7813 858.00
56.8465 816.00
56.9117 811.00
56.9769 726.00
57.042 800.00
57.1073 872.00
57.1724 923.00
57.2376 840.00
57.3028 916.00
57.368 664.00
57.4332 629.00
57.4984 685.00
57.5636 730.00
57.6288 686.00
57.694 724.00
57.7592 808.00
57.8244 1038.00
57.8896 1579.00
57.9548 1300.00
58.02 1102.00
58.0852 1101.00
58.1504 955.00
58.2156 1107.00
58.2808 1411.00
58.346 1353.00
58.4112 1285.00
58.4764 1083.00
58.5416 929.00
58.6068 945.00
58.672 949.00
58.7372 900.00
58.8024 827.00
58.8676 900.00
58.9328 950.00
58.998 875.00
59.0632 836.00
59.1284 897.00
59.1936 1012.00
59.2588 1248.00
59.324 1363.00
59.3892 1558.00
59.4544 1708.00
59.5196 1636.00
59.5848 1652.00
59.65 1393.00
59.7152 1214.00
59.7804 1093.00
59.8456 1017.00
59.9108 1041.00
59.976 1232.00
60.0412 1352.00
60.1064 1182.00
60.1716 1056.00
60.2368 1010.00
60.302 792.00
60.3672 648.00
60.4324 636.00
60.4976 606.00
60.5628 595.00
60.628 627.00
60.6932 621.00
60.7584 547.00
60.8236 615.00
60.8888 549.00
60.954 572.00
61.0192 561.00
61.0844 476.00
61.1496 480.00
61.2148 495.00
61.28 520.00
61.3452 526.00
61.4104 627.00
61.4756 718.00
61.5408 709.00
61.606 707.00
61.6712 695.00
61.7364 702.00
61.8016 781.00
61.8667 1182.00
61.932 1830.00
61.9971 1897.00
62.0623 1400.00
62.1275 1583.00
62.1927 1347.00
62.2579 988.00
62.3231 892.00
62.3883 777.00
62.4535 618.00
62.5187 543.00
62.5839 564.00
62.6491 623.00
62.7143 821.00
62.7795 901.00
62.8447 898.00
62.9099 783.00
62.9751 748.00
63.0403 664.00
63.1055 525.00
63.1707 478.00
63.2359 520.00
63.3011 468.00
63.3663 501.00
63.4315 525.00
63.4967 544.00
63.5619 548.00
63.6271 566.00
63.6923 560.00
63.7575 564.00
63.8227 572.00
63.8879 616.00
63.9531 549.00
64.0183 609.00
64.0835 633.00
64.1487 636.00
64.2139 600.00
64.2791 631.00
64.3443 664.00
64.4095 667.00
64.4747 606.00
64.5399 643.00
64.6051 694.00
64.6703 967.00
64.7355 1557.00
64.8007 2277.00
64.8659 1868.00
64.9311 1336.00
64.9963 1493.00
65.0615 1044.00
65.1267 726.00
65.1919 636.00
65.2571 669.00
65.3223 722.00
65.3875 658.00
65.4527 675.00
65.5179 710.00
65.5831 790.00
65.6483 784.00
65.7135 796.00
65.7787 887.00
65.8439 962.00
65.9091 1279.00
65.9743 1841.00
66.0395 2511.00
66.1047 1951.00
66.1699 1555.00
66.2351 1611.00
66.3003 1098.00
66.3655 734.00
66.4307 637.00
66.4959 599.00
66.561 564.00
66.6263 613.00
66.6915 635.00
66.7566 568.00
66.8218 573.00
66.887 591.00
66.9522 578.00
67.0174 538.00
67.0826 541.00
67.1478 541.00
67.213 541.00
67.2782 615.00
67.3434 596.00
67.4086 487.00
67.4738 468.00
67.539 530.00
67.6042 494.00
67.6694 431.00
67.7346 529.00
67.7998 554.00
67.865 652.00
67.9302 588.00
67.9954 559.00
68.0606 498.00
68.1258 497.00
68.191 474.00
68.2562 440.00
68.3214 493.00
68.3866 534.00
68.4518 602.00
68.517 583.00
68.5822 637.00
68.6474 641.00
68.7126 581.00
68.7778 600.00
68.843 560.00
68.9082 572.00
68.9734 562.00
69.0386 557.00
69.1038 505.00
69.169 443.00
69.2342 505.00
69.2994 483.00
69.3646 439.00
69.4298 455.00
69.495 415.00
69.5602 467.00
69.6254 446.00
69.6906 451.00
69.7558 392.00
69.821 431.00
69.8862 415.00
69.9514 404.00
70.0166 409.00
70.0818 417.00
70.147 442.00
70.2122 430.00
70.2774 415.00
70.3426 411.00
70.4078 405.00
70.473 427.00
70.5382 433.00
70.6034 405.00
70.6686 480.00
70.7338 433.00
70.799 444.00
70.8642 468.00
70.9294 437.00
70.9946 420.00
71.0598 413.00
71.125 439.00
71.1902 519.00
71.2554 700.00
71.3205 1080.00
71.3858 1042.00
71.451 725.00
71.5162 808.00
71.5813 795.00
71.6465 583.00
71.7117 458.00
71.7769 445.00
71.8421 419.00
71.9073 459.00
71.9725 598.00
72.0377 603.00
72.1029 615.00
72.1681 693.00
72.2333 641.00
72.2985 578.00
72.3637 504.00
72.4289 494.00
72.4941 420.00
72.5593 365.00
72.6245 383.00
72.6897 362.00
72.7549 372.00
72.8201 384.00
72.8853 383.00
72.9505 417.00
73.0157 466.00
73.0809 563.00
73.1461 652.00
73.2113 656.00
73.2765 607.00
73.3417 553.00
73.4069 535.00
73.4721 516.00
73.5373 451.00
73.6025 379.00
73.6677 399.00
73.7329 401.00
73.7981 342.00
73.8633 372.00
73.9285 431.00
73.9937 433.00
74.0589 467.00
74.1241 449.00
74.1893 484.00
74.2545 496.00
74.3197 555.00
74.3849 535.00
74.4501 493.00
74.5153 473.00
74.5805 506.00
74.6457 477.00
74.7109 423.00
74.7761 414.00
74.8413 386.00
74.9065 407.00
74.9717 439.00
75.0369 396.00
75.1021 448.00
75.1673 473.00
75.2325 532.00
75.2977 422.00
75.3629 458.00
75.4281 456.00
75.4933 446.00
75.5585 391.00
75.6237 343.00
75.6889 375.00
75.7541 372.00
75.8193 402.00
75.8845 406.00
75.9497 423.00
76.0149 456.00
76.0801 432.00
76.1452 443.00
76.2104 409.00
76.2756 388.00
76.3409 394.00
76.406 454.00
76.4712 395.00
76.5364 402.00
76.6016 459.00
76.6668 456.00
76.732 489.00
76.7972 483.00
76.8624 450.00
76.9276 498.00
76.9928 509.00
77.058 549.00
77.1232 513.00
77.1884 507.00
77.2536 541.00
77.3188 576.00
77.384 436.00
77.4492 409.00
77.5144 465.00
77.5796 405.00
77.6448 344.00
77.71 395.00
77.7752 410.00
77.8404 439.00
77.9056 465.00
77.9708 437.00
78.036 426.00
78.1012 387.00
78.1664 415.00
78.2316 406.00
78.2968 415.00
78.362 437.00
78.4272 426.00
78.4924 485.00
78.5576 570.00
78.6228 761.00
78.688 1101.00
78.7532 1764.00
78.8184 1559.00
78.8836 1020.00
78.9488 1036.00
79.014 1148.00
79.0792 890.00
79.1444 643.00
79.2096 547.00
79.2748 525.00
79.34 497.00
79.4052 446.00
79.4704 407.00
79.5356 411.00
79.6008 388.00
79.666 381.00
79.7312 381.00
79.7964 413.00
79.8616 426.00
79.9268 476.00
79.992 474.00
80.0572 513.00
80.1224 469.00
80.1876 433.00
80.2528 481.00
80.318 494.00
80.3832 484.00
80.4484 421.00
80.5136 457.00
80.5788 435.00
80.644 409.00
80.7092 486.00
80.7744 472.00
80.8396 478.00
80.9048 448.00
80.9699 488.00
81.0351 499.00
81.1003 562.00
81.1655 746.00
81.2307 750.00
81.2959 550.00
81.3611 624.00
81.4263 628.00
81.4915 597.00
81.5567 466.00
81.6219 466.00
81.6871 409.00
81.7523 424.00
81.8175 429.00
81.8827 409.00
81.9479 371.00
82.0131 407.00
82.0783 352.00
82.1435 383.00
82.2087 350.00
82.2739 428.00
82.3391 405.00
82.4043 453.00
82.4695 444.00
82.5347 413.00
82.5999 406.00
82.6651 488.00
82.7303 449.00
82.7955 426.00
82.8607 404.00
82.9259 410.00
82.9911 384.00
83.0563 393.00
83.1215 396.00
83.1867 399.00
83.2519 445.00
83.3171 444.00
83.3823 435.00
83.4475 474.00
83.5127 518.00
83.5779 560.00
83.6431 610.00
83.7083 925.00
83.7735 1292.00
83.8387 1022.00
83.9039 701.00
83.9691 740.00
84.0343 858.00
84.0995 621.00
84.1647 477.00
84.2299 421.00
84.2951 467.00
84.3603 436.00
84.4255 424.00
84.4907 490.00
84.5559 484.00
84.6211 480.00
84.6863 442.00
84.7515 510.00
84.8167 468.00
84.8819 434.00
84.9471 503.00
85.0123 512.00
85.0775 464.00
85.1427 447.00
85.2079 409.00
85.2731 447.00
85.3383 420.00
85.4035 407.00
85.4687 455.00
85.5339 388.00
85.5991 457.00
85.6643 496.00
85.7295 441.00
85.7946 438.00
85.8598 472.00
85.925 542.00
85.9903 544.00
86.0554 485.00
86.1206 404.00
86.1858 451.00
86.251 426.00
86.3162 504.00
86.3814 504.00
86.4466 491.00
86.5118 454.00
86.577 435.00
86.6422 465.00
86.7074 467.00
86.7726 466.00
86.8378 476.00
86.903 513.00
86.9682 525.00
87.0334 472.00
87.0986 447.00
87.1638 558.00
87.229 630.00
87.2942 774.00
87.3594 690.00
87.4246 490.00
87.4898 536.00
87.555 591.00
87.6202 525.00
87.6854 442.00
87.7506 380.00
87.8158 406.00
87.881 436.00
87.9462 356.00
88.0114 349.00
88.0766 358.00
88.1418 387.00
88.207 430.00
88.2722 472.00
88.3374 485.00
88.4026 484.00
88.4678 455.00
88.533 486.00
88.5982 448.00
88.6634 508.00
88.7286 449.00
88.7938 457.00
88.859 400.00
88.9242 439.00
88.9894 438.00
89.0546 449.00
89.1198 460.00
89.185 442.00
89.2502 461.00
89.3154 509.00
89.3806 486.00
89.4458 479.00
89.511 511.00
89.5762 502.00
89.6414 529.00
89.7066 613.00
89.7718 923.00
89.837 1293.00
89.9022 1049.00
89.9674 729.00
90.0326 699.00
90.0978 910.00
90.163 882.00
90.2282 716.00
90.2934 599.00
90.3586 566.00
90.4238 507.00
90.489 542.00
90.5542 504.00
90.6193 479.00
90.6845 530.00
90.7497 538.00
90.8149 639.00
90.8801 856.00
90.9453 1343.00
91.0105 1056.00
91.0757 756.00
91.1409 705.00
91.2061 862.00
91.2713 896.00
91.3365 694.00
91.4017 582.00
91.4669 555.00
91.5321 583.00
91.5973 482.00
91.6625 542.00
91.7277 476.00
91.7929 495.00
91.8581 515.00
91.9233 469.00
91.9885 480.00
92.0537 443.00
92.1189 448.00
92.1841 414.00
92.2493 389.00
92.3145 433.00
92.3797 434.00
92.4449 404.00
92.5101 431.00
92.5753 487.00
92.6405 468.00
92.7057 426.00
92.7709 400.00
92.8361 443.00
92.9013 469.00
92.9665 425.00
93.0317 429.00
93.0969 388.00
93.1621 413.00
93.2273 499.00
93.2925 626.00
93.3577 838.00
93.4229 611.00
93.4881 559.00
93.5533 528.00
93.6185 596.00
93.6837 579.00
93.7489 470.00
93.8141 414.00
93.8793 400.00
93.9445 384.00
94.0097 406.00
94.0749 384.00
94.1401 364.00
94.2053 366.00
94.2705 357.00
94.3357 362.00
94.4009 357.00
94.4661 350.00
94.5313 367.00
94.5965 366.00
94.6617 357.00
94.7269 350.00
94.7921 350.00
94.8573 349.00
94.9225 374.00
94.9877 371.00
95.0529 401.00
95.1181 358.00
95.1833 352.00
95.2485 371.00
95.3137 417.00
95.3789 390.00
95.444 355.00
95.5092 452.00
95.5744 392.00
95.6396 424.00
95.7048 473.00
95.77 469.00
95.8352 502.00
95.9004 503.00
95.9656 548.00
96.0308 788.00
96.096 842.00
96.1612 550.00
96.2264 558.00
96.2916 573.00
96.3568 597.00
96.422 569.00
96.4872 517.00
96.5524 450.00
96.6176 426.00
96.6828 443.00
96.748 433.00
96.8132 509.00
96.8784 494.00
96.9436 486.00
97.0088 603.00
97.074 526.00
97.1392 519.00
97.2044 489.00
97.2696 485.00
97.3348 472.00
97.4 485.00
97.4652 483.00
97.5304 447.00
97.5956 450.00
97.6608 455.00
97.726 462.00
97.7912 451.00
97.8564 418.00
97.9216 389.00
97.9868 447.00
98.052 450.00
98.1172 440.00
98.1824 431.00
98.2476 407.00
98.3128 383.00
98.378 365.00
98.4432 434.00
98.5084 423.00
98.5736 365.00
98.6388 354.00
98.704 347.00
98.7692 362.00
98.8344 357.00
98.8996 389.00
98.9648 349.00
99.03 419.00
99.0952 350.00
99.1604 390.00
99.2256 417.00
99.2908 374.00
99.356 446.00
99.4212 447.00
99.4864 494.00
99.5516 482.00
99.6168 538.00
99.682 506.00
99.7472 478.00
99.8124 469.00
99.8776 417.00
99.9428 430.00
100.008 432.00
100.073 444.00
100.095 426.00