File: data/xrd_creation/results/Na_125.xy
9.903433 2825.00
9.968632 2851.00
10.0338 2785.00
10.099 2812.00
10.1642 2776.00
10.2294 2672.00
10.2946 2712.00
10.3598 2619.00
10.425 2715.00
10.4902 2708.00
10.5554 2651.00
10.6206 2591.00
10.6858 2627.00
10.751 2526.00
10.8162 2513.00
10.8814 2505.00
10.9466 2514.00
11.0118 2423.00
11.077 2525.00
11.1422 2535.00
11.2074 2480.00
11.2726 2485.00
11.3378 2325.00
11.403 2417.00
11.4682 2333.00
11.5334 2364.00
11.5986 2337.00
11.6638 2308.00
11.729 2226.00
11.7942 2220.00
11.8594 2207.00
11.9246 2196.00
11.9898 2207.00
12.055 2184.00
12.1202 2106.00
12.1854 2274.00
12.2506 2196.00
12.3158 2113.00
12.381 2135.00
12.4462 2153.00
12.5114 2031.00
12.5766 2092.00
12.6418 2069.00
12.707 2093.00
12.7722 2060.00
12.8374 1959.00
12.9026 2015.00
12.9678 1985.00
13.033 2079.00
13.0982 2028.00
13.1634 1989.00
13.2286 2048.00
13.2938 1983.00
13.359 1965.00
13.4242 1902.00
13.4894 1852.00
13.5546 1839.00
13.6198 1916.00
13.685 1942.00
13.7502 1926.00
13.8154 1912.00
13.8805 1969.00
13.9457 1770.00
14.0109 1793.00
14.0761 1905.00
14.1413 1823.00
14.2065 1824.00
14.2717 1927.00
14.3369 1837.00
14.4021 1825.00
14.4673 1837.00
14.5325 1830.00
14.5977 1864.00
14.6629 1774.00
14.7281 1775.00
14.7933 1839.00
14.8585 1813.00
14.9237 1777.00
14.9889 1811.00
15.0541 1694.00
15.1193 1779.00
15.1845 1665.00
15.2497 1789.00
15.3149 1655.00
15.3801 1757.00
15.4453 1777.00
15.5105 1744.00
15.5757 1733.00
15.6409 1761.00
15.7061 1663.00
15.7713 1686.00
15.8365 1699.00
15.9017 1737.00
15.9669 1663.00
16.0321 1714.00
16.0973 1694.00
16.1625 1659.00
16.2277 1673.00
16.2929 1670.00
16.3581 1671.00
16.4233 1638.00
16.4885 1602.00
16.5537 1680.00
16.6189 1653.00
16.6841 1625.00
16.7493 1710.00
16.8145 1662.00
16.8797 1583.00
16.9449 1648.00
17.0101 1592.00
17.0753 1634.00
17.1405 1607.00
17.2057 1564.00
17.2709 1582.00
17.3361 1601.00
17.4013 1591.00
17.4665 1632.00
17.5317 1614.00
17.5969 1555.00
17.6621 1511.00
17.7273 1458.00
17.7925 1560.00
17.8577 1516.00
17.9229 1524.00
17.9881 1607.00
18.0533 1581.00
18.1185 1568.00
18.1837 1488.00
18.2489 1552.00
18.3141 1515.00
18.3793 1517.00
18.4445 1540.00
18.5097 1542.00
18.5749 1517.00
18.6401 1505.00
18.7052 1535.00
18.7704 1551.00
18.8356 1530.00
18.9008 1568.00
18.966 1572.00
19.0312 1538.00
19.0964 1654.00
19.1616 1719.00
19.2268 1865.00
19.292 1920.00
19.3572 2156.00
19.4224 2667.00
19.4876 3094.00
19.5528 3921.00
19.618 4271.00
19.6832 4199.00
19.7484 3277.00
19.8136 2625.00
19.8788 2161.00
19.944 1850.00
20.0092 1733.00
20.0744 1668.00
20.1396 1512.00
20.2048 1477.00
20.27 1467.00
20.3352 1437.00
20.4004 1487.00
20.4656 1377.00
20.5308 1446.00
20.596 1428.00
20.6612 1385.00
20.7264 1326.00
20.7916 1361.00
20.8568 1389.00
20.922 1389.00
20.9872 1371.00
21.0524 1321.00
21.1176 1353.00
21.1828 1399.00
21.248 1342.00
21.3132 1323.00
21.3784 1426.00
21.4436 1384.00
21.5088 1348.00
21.574 1362.00
21.6392 1311.00
21.7044 1367.00
21.7696 1425.00
21.8348 1414.00
21.9 1390.00
21.9652 1544.00
22.0304 1543.00
22.0956 1575.00
22.1608 1661.00
22.226 1860.00
22.2912 2070.00
22.3564 2530.00
22.4216 3215.00
22.4868 4274.00
22.552 6001.00
22.6172 7618.00
22.6824 7879.00
22.7476 6428.00
22.8128 4430.00
22.878 2958.00
22.9432 2318.00
23.0084 2030.00
23.0736 1782.00
23.1388 1613.00
23.204 1548.00
23.2692 1478.00
23.3344 1379.00
23.3996 1331.00
23.4647 1387.00
23.5299 1280.00
23.5951 1313.00
23.6603 1290.00
23.7255 1278.00
23.7907 1243.00
23.8559 1215.00
23.9211 1274.00
23.9863 1270.00
24.0515 1202.00
24.1167 1168.00
24.1819 1205.00
24.2471 1229.00
24.3123 1219.00
24.3775 1265.00
24.4427 1169.00
24.5079 1182.00
24.5731 1229.00
24.6383 1177.00
24.7035 1213.00
24.7687 1217.00
24.8339 1208.00
24.8991 1375.00
24.9643 1283.00
25.0295 1518.00
25.0947 1573.00
25.1599 1863.00
25.2251 2145.00
25.2903 2476.00
25.3555 2528.00
25.4207 2327.00
25.4859 1998.00
25.5511 1548.00
25.6163 1381.00
25.6815 1252.00
25.7467 1233.00
25.8119 1191.00
25.8771 1178.00
25.9423 1061.00
26.0075 1110.00
26.0727 1102.00
26.1379 1111.00
26.2031 1076.00
26.2683 1119.00
26.3335 1090.00
26.3987 1047.00
26.4639 1167.00
26.5291 1094.00
26.5943 1219.00
26.6595 1282.00
26.7247 1493.00
26.7899 2162.00
26.8551 3253.00
26.9203 3954.00
26.9855 2788.00
27.0507 1723.00
27.1159 1345.00
27.1811 1167.00
27.2463 1232.00
27.3115 1212.00
27.3767 1279.00
27.4419 1255.00
27.5071 1426.00
27.5723 1529.00
27.6375 1857.00
27.7027 2079.00
27.7679 2242.00
27.8331 2142.00
27.8983 1784.00
27.9635 1555.00
28.0287 1442.00
28.0939 1276.00
28.1591 1171.00
28.2243 1092.00
28.2894 1076.00
28.3546 1088.00
28.4198 1010.00
28.485 1019.00
28.5502 1020.00
28.6154 997.00
28.6806 1029.00
28.7458 1043.00
28.811 1047.00
28.8762 1010.00
28.9414 1066.00
29.0066 983.00
29.0718 912.00
29.137 947.00
29.2022 973.00
29.2674 935.00
29.3326 882.00
29.3978 937.00
29.463 953.00
29.5282 910.00
29.5934 959.00
29.6586 905.00
29.7238 880.00
29.789 1010.00
29.8542 911.00
29.9194 931.00
29.9846 986.00
30.0498 912.00
30.115 877.00
30.1802 922.00
30.2454 925.00
30.3106 864.00
30.3758 866.00
30.441 913.00
30.5062 823.00
30.5714 901.00
30.6366 851.00
30.7018 809.00
30.767 879.00
30.8322 895.00
30.8974 818.00
30.9626 896.00
31.0278 861.00
31.093 902.00
31.1582 878.00
31.2234 890.00
31.2886 969.00
31.3538 935.00
31.419 969.00
31.4842 978.00
31.5494 992.00
31.6146 1105.00
31.6798 1052.00
31.745 1154.00
31.8102 1249.00
31.8754 1423.00
31.9406 1782.00
32.0058 2295.00
32.071 2847.00
32.1362 2966.00
32.2014 2751.00
32.2666 2121.00
32.3318 1741.00
32.397 1397.00
32.4622 1188.00
32.5274 1050.00
32.5926 917.00
32.6578 933.00
32.723 900.00
32.7882 844.00
32.8534 870.00
32.9186 888.00
32.9838 884.00
33.0489 813.00
33.1141 811.00
33.1793 765.00
33.2445 853.00
33.3097 784.00
33.3749 886.00
33.4401 835.00
33.5053 781.00
33.5705 843.00
33.6357 855.00
33.7009 876.00
33.7661 893.00
33.8313 889.00
33.8965 978.00
33.9617 1129.00
34.0269 1337.00
34.0921 2029.00
34.1573 2968.00
34.2225 2959.00
34.2877 2146.00
34.3529 1230.00
34.4181 1055.00
34.4833 952.00
34.5485 888.00
34.6137 960.00
34.6789 824.00
34.7441 801.00
34.8093 780.00
34.8745 828.00
34.9397 756.00
35.0049 813.00
35.0701 765.00
35.1353 742.00
35.2005 754.00
35.2657 728.00
35.3309 743.00
35.3961 712.00
35.4613 735.00
35.5265 733.00
35.5917 720.00
35.6569 736.00
35.7221 781.00
35.7873 736.00
35.8525 726.00
35.9177 776.00
35.9829 724.00
36.0481 699.00
36.1133 653.00
36.1785 741.00
36.2437 762.00
36.3089 717.00
36.3741 688.00
36.4393 690.00
36.5045 737.00
36.5697 755.00
36.6349 721.00
36.7001 747.00
36.7653 760.00
36.8305 778.00
36.8957 830.00
36.9609 815.00
37.0261 849.00
37.0913 841.00
37.1565 875.00
37.2217 933.00
37.2869 953.00
37.3521 1109.00
37.4173 1192.00
37.4825 1344.00
37.5477 1681.00
37.6129 2075.00
37.6781 2767.00
37.7433 3480.00
37.8085 3734.00
37.8736 3471.00
37.9388 2730.00
38.004 2069.00
38.0692 1641.00
38.1344 1493.00
38.1996 1546.00
38.2648 1663.00
38.33 1432.00
38.3952 1126.00
38.4604 906.00
38.5256 896.00
38.5908 813.00
38.656 755.00
38.7212 741.00
38.7864 749.00
38.8516 701.00
38.9168 742.00
38.982 818.00
39.0472 746.00
39.1124 731.00
39.1776 865.00
39.2428 1015.00
39.308 1082.00
39.3732 1134.00
39.4384 1247.00
39.5036 1333.00
39.5688 1432.00
39.634 1234.00
39.6992 1135.00
39.7644 940.00
39.8296 891.00
39.8948 838.00
39.96 768.00
40.0252 737.00
40.0904 720.00
40.1556 661.00
40.2208 636.00
40.286 674.00
40.3512 655.00
40.4164 630.00
40.4816 623.00
40.5468 660.00
40.612 639.00
40.6772 616.00
40.7424 672.00
40.8076 592.00
40.8728 616.00
40.938 624.00
41.0032 588.00
41.0684 663.00
41.1336 692.00
41.1988 759.00
41.264 757.00
41.3292 734.00
41.3944 650.00
41.4596 615.00
41.5248 629.00
41.59 584.00
41.6552 565.00
41.7204 577.00
41.7856 623.00
41.8508 654.00
41.916 606.00
41.9812 596.00
42.0464 595.00
42.1116 555.00
42.1768 589.00
42.242 564.00
42.3072 596.00
42.3724 563.00
42.4376 590.00
42.5028 609.00
42.568 591.00
42.6332 578.00
42.6983 602.00
42.7635 658.00
42.8287 602.00
42.8939 640.00
42.9591 606.00
43.0243 640.00
43.0895 614.00
43.1547 639.00
43.2199 627.00
43.2851 609.00
43.3503 622.00
43.4155 626.00
43.4807 604.00
43.5459 655.00
43.6111 666.00
43.6763 700.00
43.7415 670.00
43.8067 684.00
43.8719 677.00
43.9371 628.00
44.0023 633.00
44.0675 625.00
44.1327 621.00
44.1979 572.00
44.2631 550.00
44.3283 531.00
44.3935 526.00
44.4587 616.00
44.5239 531.00
44.5891 505.00
44.6543 560.00
44.7195 571.00
44.7847 520.00
44.8499 543.00
44.9151 572.00
44.9803 570.00
45.0455 555.00
45.1107 603.00
45.1759 570.00
45.2411 580.00
45.3063 573.00
45.3715 583.00
45.4367 592.00
45.5019 613.00
45.5671 581.00
45.6323 574.00
45.6975 674.00
45.7627 704.00
45.8279 718.00
45.8931 772.00
45.9583 799.00
46.0235 722.00
46.0887 673.00
46.1539 643.00
46.2191 593.00
46.2843 589.00
46.3495 569.00
46.4147 568.00
46.4799 559.00
46.5451 547.00
46.6103 506.00
46.6755 510.00
46.7407 556.00
46.8059 554.00
46.8711 543.00
46.9363 546.00
47.0015 527.00
47.0667 555.00
47.1319 587.00
47.1971 562.00
47.2623 636.00
47.3275 620.00
47.3927 664.00
47.4579 664.00
47.523 646.00
47.5882 563.00
47.6534 568.00
47.7186 569.00
47.7838 584.00
47.849 614.00
47.9142 545.00
47.9794 530.00
48.0446 559.00
48.1098 491.00
48.175 539.00
48.2402 551.00
48.3054 527.00
48.3706 478.00
48.4358 565.00
48.501 553.00
48.5662 579.00
48.6314 573.00
48.6966 560.00
48.7618 546.00
48.827 609.00
48.8922 613.00
48.9574 611.00
49.0226 548.00
49.0878 594.00
49.153 583.00
49.2182 591.00
49.2834 567.00
49.3486 559.00
49.4138 571.00
49.479 617.00
49.5442 599.00
49.6094 620.00
49.6746 640.00
49.7398 664.00
49.805 689.00
49.8702 714.00
49.9354 768.00
50.0006 840.00
50.0658 941.00
50.131 1123.00
50.1962 1278.00
50.2614 1401.00
50.3266 1381.00
50.3918 1255.00
50.457 1143.00
50.5222 978.00
50.5874 842.00
50.6526 773.00
50.7178 786.00
50.783 752.00
50.8482 640.00
50.9134 661.00
50.9786 692.00
51.0438 692.00
51.109 709.00
51.1742 749.00
51.2394 814.00
51.3046 895.00
51.3698 932.00
51.435 1173.00
51.5002 1231.00
51.5654 1556.00
51.6306 1814.00
51.6958 1819.00
51.761 1748.00
51.8262 1615.00
51.8914 1522.00
51.9566 1694.00
52.0218 2507.00
52.087 2683.00
52.1522 1979.00
52.2174 1776.00
52.2826 1083.00
52.3477 781.00
52.4129 704.00
52.4781 645.00
52.5433 608.00
52.6085 556.00
52.6737 554.00
52.7389 590.00
52.8041 537.00
52.8693 584.00
52.9345 602.00
52.9997 611.00
53.0649 581.00
53.1301 572.00
53.1953 553.00
53.2605 541.00
53.3257 551.00
53.3909 494.00
53.4561 511.00
53.5213 498.00
53.5865 530.00
53.6517 520.00
53.7169 550.00
53.7821 559.00
53.8473 504.00
53.9125 554.00
53.9777 568.00
54.0429 535.00
54.1081 577.00
54.1733 509.00
54.2385 580.00
54.3037 532.00
54.3689 603.00
54.4341 602.00
54.4993 546.00
54.5645 586.00
54.6297 614.00
54.6949 604.00
54.7601 612.00
54.8253 687.00
54.8905 714.00
54.9557 902.00
55.0209 1111.00
55.0861 1035.00
55.1513 887.00
55.2165 799.00
55.2817 701.00
55.3469 641.00
55.4121 618.00
55.4773 592.00
55.5425 570.00
55.6077 586.00
55.6729 558.00
55.7381 531.00
55.8033 563.00
55.8685 495.00
55.9337 476.00
55.9989 533.00
56.0641 520.00
56.1293 532.00
56.1945 567.00
56.2597 600.00
56.3249 578.00
56.3901 613.00
56.4553 626.00
56.5205 699.00
56.5857 708.00
56.6509 781.00
56.7161 884.00
56.7813 1001.00
56.8465 1154.00
56.9117 1289.00
56.9769 1347.00
57.042 1371.00
57.1073 1182.00
57.1724 1072.00
57.2376 905.00
57.3028 853.00
57.368 647.00
57.4332 624.00
57.4984 567.00
57.5636 577.00
57.6288 507.00
57.694 569.00
57.7592 504.00
57.8244 558.00
57.8896 573.00
57.9548 535.00
58.02 598.00
58.0852 706.00
58.1504 696.00
58.2156 642.00
58.2808 602.00
58.346 560.00
58.4112 517.00
58.4764 506.00
58.5416 485.00
58.6068 498.00
58.672 471.00
58.7372 479.00
58.8024 487.00
58.8676 472.00
58.9328 450.00
58.998 442.00
59.0632 468.00
59.1284 474.00
59.1936 429.00
59.2588 495.00
59.324 448.00
59.3892 460.00
59.4544 489.00
59.5196 524.00
59.5848 537.00
59.65 486.00
59.7152 507.00
59.7804 473.00
59.8456 499.00
59.9108 537.00
59.976 567.00
60.0412 590.00
60.1064 620.00
60.1716 559.00
60.2368 626.00
60.302 676.00
60.3672 789.00
60.4324 816.00
60.4976 1005.00
60.5628 1186.00
60.628 1348.00
60.6932 1527.00
60.7584 1671.00
60.8236 1636.00
60.8888 1493.00
60.954 1294.00
61.0192 1190.00
61.0844 997.00
61.1496 897.00
61.2148 736.00
61.28 676.00
61.3452 613.00
61.4104 621.00
61.4756 562.00
61.5408 615.00
61.606 647.00
61.6712 573.00
61.7364 567.00
61.8016 534.00
61.8667 628.00
61.932 619.00
61.9971 554.00
62.0623 774.00
62.1275 897.00
62.1927 898.00
62.2579 719.00
62.3231 702.00
62.3883 589.00
62.4535 548.00
62.5187 524.00
62.5839 498.00
62.6491 489.00
62.7143 507.00
62.7795 464.00
62.8447 529.00
62.9099 470.00
62.9751 487.00
63.0403 500.00
63.1055 503.00
63.1707 547.00
63.2359 500.00
63.3011 517.00
63.3663 494.00
63.4315 479.00
63.4967 495.00
63.5619 482.00
63.6271 439.00
63.6923 446.00
63.7575 475.00
63.8227 458.00
63.8879 458.00
63.9531 471.00
64.0183 464.00
64.0835 442.00
64.1487 494.00
64.2139 472.00
64.2791 471.00
64.3443 460.00
64.4095 499.00
64.4747 521.00
64.5399 458.00
64.6051 508.00
64.6703 457.00
64.7355 507.00
64.8007 537.00
64.8659 584.00
64.9311 767.00
64.9963 905.00
65.0615 756.00
65.1267 630.00
65.1919 696.00
65.2571 570.00
65.3223 477.00
65.3875 449.00
65.4527 451.00
65.5179 434.00
65.5831 472.00
65.6483 438.00
65.7135 445.00
65.7787 466.00
65.8439 462.00
65.9091 469.00
65.9743 485.00
66.0395 516.00
66.1047 634.00
66.1699 773.00
66.2351 930.00
66.3003 856.00
66.3655 795.00
66.4307 831.00
66.4959 728.00
66.561 709.00
66.6263 739.00
66.6915 762.00
66.7566 810.00
66.8218 771.00
66.887 793.00
66.9522 749.00
67.0174 642.00
67.0826 600.00
67.1478 539.00
67.213 565.00
67.2782 547.00
67.3434 492.00
67.4086 517.00
67.4738 550.00
67.539 505.00
67.6042 502.00
67.6694 461.00
67.7346 482.00
67.7998 491.00
67.865 491.00
67.9302 464.00
67.9954 541.00
68.0606 495.00
68.1258 508.00
68.191 479.00
68.2562 498.00
68.3214 503.00
68.3866 518.00
68.4518 508.00
68.517 488.00
68.5822 484.00
68.6474 421.00
68.7126 506.00
68.7778 471.00
68.843 473.00
68.9082 486.00
68.9734 470.00
69.0386 451.00
69.1038 440.00
69.169 453.00
69.2342 449.00
69.2994 470.00
69.3646 447.00
69.4298 480.00
69.495 498.00
69.5602 435.00
69.6254 479.00
69.6906 497.00
69.7558 487.00
69.821 520.00
69.8862 564.00
69.9514 554.00
70.0166 636.00
70.0818 723.00
70.147 687.00
70.2122 773.00
70.2774 815.00
70.3426 789.00
70.4078 725.00
70.473 669.00
70.5382 624.00
70.6034 580.00
70.6686 596.00
70.7338 572.00
70.799 502.00
70.8642 507.00
70.9294 533.00
70.9946 565.00
71.0598 595.00
71.125 600.00
71.1902 648.00
71.2554 640.00
71.3205 719.00
71.3858 792.00
71.451 827.00
71.5162 885.00
71.5813 844.00
71.6465 757.00
71.7117 660.00
71.7769 635.00
71.8421 572.00
71.9073 526.00
71.9725 481.00
72.0377 503.00
72.1029 432.00
72.1681 467.00
72.2333 445.00
72.2985 458.00
72.3637 442.00
72.4289 461.00
72.4941 400.00
72.5593 445.00
72.6245 450.00
72.6897 431.00
72.7549 391.00
72.8201 421.00
72.8853 403.00
72.9505 405.00
73.0157 401.00
73.0809 427.00
73.1461 420.00
73.2113 403.00
73.2765 441.00
73.3417 469.00
73.4069 418.00
73.4721 438.00
73.5373 415.00
73.6025 461.00
73.6677 494.00
73.7329 445.00
73.7981 464.00
73.8633 479.00
73.9285 432.00
73.9937 404.00
74.0589 405.00
74.1241 404.00
74.1893 419.00
74.2545 441.00
74.3197 416.00
74.3849 430.00
74.4501 428.00
74.5153 426.00
74.5805 406.00
74.6457 424.00
74.7109 412.00
74.7761 408.00
74.8413 418.00
74.9065 404.00
74.9717 424.00
75.0369 409.00
75.1021 368.00
75.1673 445.00
75.2325 399.00
75.2977 427.00
75.3629 448.00
75.4281 447.00
75.4933 447.00
75.5585 486.00
75.6237 446.00
75.6889 461.00
75.7541 450.00
75.8193 472.00
75.8845 571.00
75.9497 524.00
76.0149 466.00
76.0801 468.00
76.1452 486.00
76.2104 413.00
76.2756 477.00
76.3409 417.00
76.406 421.00
76.4712 384.00
76.5364 374.00
76.6016 368.00
76.6668 382.00
76.732 375.00
76.7972 385.00
76.8624 404.00
76.9276 408.00
76.9928 441.00
77.058 415.00
77.1232 401.00
77.1884 378.00
77.2536 438.00
77.3188 384.00
77.384 430.00
77.4492 427.00
77.5144 436.00
77.5796 394.00
77.6448 402.00
77.71 397.00
77.7752 385.00
77.8404 398.00
77.9056 382.00
77.9708 394.00
78.036 367.00
78.1012 431.00
78.1664 379.00
78.2316 363.00
78.2968 443.00
78.362 385.00
78.4272 383.00
78.4924 428.00
78.5576 409.00
78.6228 408.00
78.688 412.00
78.7532 501.00
78.8184 523.00
78.8836 696.00
78.9488 811.00
79.014 717.00
79.0792 689.00
79.1444 654.00
79.2096 712.00
79.2748 609.00
79.34 587.00
79.4052 529.00
79.4704 504.00
79.5356 447.00
79.6008 475.00
79.666 459.00
79.7312 437.00
79.7964 452.00
79.8616 476.00
79.9268 479.00
79.992 448.00
80.0572 484.00
80.1224 501.00
80.1876 483.00
80.2528 520.00
80.318 509.00
80.3832 549.00
80.4484 500.00
80.5136 503.00
80.5788 487.00
80.644 455.00
80.7092 424.00
80.7744 399.00
80.8396 402.00
80.9048 435.00
80.9699 351.00
81.0351 415.00
81.1003 416.00
81.1655 438.00
81.2307 421.00
81.2959 451.00
81.3611 468.00
81.4263 485.00
81.4915 425.00
81.5567 420.00
81.6219 386.00
81.6871 377.00
81.7523 382.00
81.8175 374.00
81.8827 415.00
81.9479 364.00
82.0131 358.00
82.0783 358.00
82.1435 374.00
82.2087 375.00
82.2739 369.00
82.3391 354.00
82.4043 363.00
82.4695 405.00
82.5347 368.00
82.5999 352.00
82.6651 331.00
82.7303 379.00
82.7955 374.00
82.8607 347.00
82.9259 377.00
82.9911 374.00
83.0563 339.00
83.1215 352.00
83.1867 377.00
83.2519 377.00
83.3171 353.00
83.3823 364.00
83.4475 402.00
83.5127 409.00
83.5779 378.00
83.6431 355.00
83.7083 358.00
83.7735 384.00
83.8387 470.00
83.9039 530.00
83.9691 581.00
84.0343 466.00
84.0995 454.00
84.1647 485.00
84.2299 461.00
84.2951 416.00
84.3603 380.00
84.4255 435.00
84.4907 358.00
84.5559 394.00
84.6211 278.00
84.6863 358.00
84.7515 381.00
84.8167 396.00
84.8819 414.00
84.9471 334.00
85.0123 358.00
85.0775 373.00
85.1427 381.00
85.2079 394.00
85.2731 346.00
85.3383 337.00
85.4035 364.00
85.4687 391.00
85.5339 370.00
85.5991 390.00
85.6643 397.00
85.7295 399.00
85.7946 363.00
85.8598 381.00
85.925 347.00
85.9903 377.00
86.0554 376.00
86.1206 357.00
86.1858 423.00
86.251 375.00
86.3162 339.00
86.3814 366.00
86.4466 351.00
86.5118 355.00
86.577 387.00
86.6422 376.00
86.7074 364.00
86.7726 385.00
86.8378 400.00
86.903 362.00
86.9682 382.00
87.0334 386.00
87.0986 386.00
87.1638 374.00
87.229 400.00
87.2942 465.00
87.3594 437.00
87.4246 485.00
87.4898 546.00
87.555 479.00
87.6202 467.00
87.6854 524.00
87.7506 571.00
87.8158 507.00
87.881 500.00
87.9462 506.00
88.0114 486.00
88.0766 464.00
88.1418 453.00
88.207 474.00
88.2722 457.00
88.3374 506.00
88.4026 513.00
88.4678 430.00
88.533 482.00
88.5982 457.00
88.6634 503.00
88.7286 528.00
88.7938 541.00
88.859 526.00
88.9242 590.00
88.9894 512.00
89.0546 547.00
89.1198 535.00
89.185 486.00
89.2502 468.00
89.3154 504.00
89.3806 444.00
89.4458 450.00
89.511 427.00
89.5762 405.00
89.6414 410.00
89.7066 408.00
89.7718 445.00
89.837 428.00
89.9022 547.00
89.9674 625.00
90.0326 654.00
90.0978 534.00
90.163 501.00
90.2282 514.00
90.2934 546.00
90.3586 453.00
90.4238 426.00
90.489 443.00
90.5542 408.00
90.6193 416.00
90.6845 429.00
90.7497 436.00
90.8149 410.00
90.8801 404.00
90.9453 504.00
91.0105 606.00
91.0757 627.00
91.1409 720.00
91.2061 609.00
91.2713 556.00
91.3365 531.00
91.4017 593.00
91.4669 570.00
91.5321 461.00
91.5973 483.00
91.6625 426.00
91.7277 441.00
91.7929 434.00
91.8581 417.00
91.9233 433.00
91.9885 383.00
92.0537 396.00
92.1189 389.00
92.1841 383.00
92.2493 412.00
92.3145 414.00
92.3797 380.00
92.4449 421.00
92.5101 360.00
92.5753 410.00
92.6405 408.00
92.7057 412.00
92.7709 447.00
92.8361 444.00
92.9013 468.00
92.9665 474.00
93.0317 514.00
93.0969 502.00
93.1621 546.00
93.2273 504.00
93.2925 571.00
93.3577 582.00
93.4229 579.00
93.4881 629.00
93.5533 593.00
93.6185 515.00
93.6837 478.00
93.7489 448.00
93.8141 498.00
93.8793 454.00
93.9445 425.00
94.0097 398.00
94.0749 391.00
94.1401 390.00
94.2053 403.00
94.2705 391.00
94.3357 361.00
94.4009 403.00
94.4661 398.00
94.5313 370.00
94.5965 375.00
94.6617 381.00
94.7269 383.00
94.7921 420.00
94.8573 392.00
94.9225 398.00
94.9877 411.00
95.0529 375.00
95.1181 389.00
95.1833 412.00
95.2485 386.00
95.3137 415.00
95.3789 416.00
95.444 416.00
95.5092 452.00
95.5744 420.00
95.6396 393.00
95.7048 438.00
95.77 414.00
95.8352 412.00
95.9004 437.00
95.9656 460.00
96.0308 502.00
96.096 544.00
96.1612 553.00
96.2264 634.00
96.2916 652.00
96.3568 643.00
96.422 620.00
96.4872 694.00
96.5524 672.00
96.6176 630.00
96.6828 524.00
96.748 590.00
96.8132 571.00
96.8784 504.00
96.9436 496.00
97.0088 461.00
97.074 462.00
97.1392 448.00
97.2044 482.00
97.2696 432.00
97.3348 438.00
97.4 467.00
97.4652 417.00
97.5304 434.00
97.5956 381.00
97.6608 445.00
97.726 419.00
97.7912 402.00
97.8564 404.00
97.9216 378.00
97.9868 403.00
98.052 403.00
98.1172 390.00
98.1824 414.00
98.2476 401.00
98.3128 384.00
98.378 376.00
98.4432 371.00
98.5084 432.00
98.5736 399.00
98.6388 364.00
98.704 363.00
98.7692 388.00
98.8344 373.00
98.8996 358.00
98.9648 322.00
99.03 352.00
99.0952 406.00
99.1604 375.00
99.2256 382.00
99.2908 381.00
99.356 356.00
99.4212 402.00
99.4864 362.00
99.5516 389.00
99.6168 373.00
99.682 338.00
99.7472 347.00
99.8124 375.00
99.8776 339.00
99.9428 375.00
100.008 373.00
100.073 406.00
100.095 392.00