File: data/xrd_creation/results/Na_187.xy
9.903433 2876.00
9.968632 2878.00
10.0338 2841.00
10.099 2733.00
10.1642 2743.00
10.2294 2812.00
10.2946 2788.00
10.3598 2952.00
10.425 2994.00
10.4902 3208.00
10.5554 3384.00
10.6206 3650.00
10.6858 3717.00
10.751 2904.00
10.8162 2697.00
10.8814 2626.00
10.9466 2702.00
11.0118 2701.00
11.077 2645.00
11.1422 2911.00
11.2074 2944.00
11.2726 3264.00
11.3378 3351.00
11.403 3556.00
11.4682 3767.00
11.5334 4428.00
11.5986 5665.00
11.6638 7536.00
11.729 8780.00
11.7942 6952.00
11.8594 6210.00
11.9246 4305.00
11.9898 3791.00
12.055 4478.00
12.1202 5380.00
12.1854 5439.00
12.2506 3189.00
12.3158 2639.00
12.381 2370.00
12.4462 2452.00
12.5114 2441.00
12.5766 2414.00
12.6418 2278.00
12.707 2323.00
12.7722 2300.00
12.8374 2326.00
12.9026 2423.00
12.9678 2434.00
13.033 2544.00
13.0982 2476.00
13.1634 2321.00
13.2286 2297.00
13.2938 2226.00
13.359 2142.00
13.4242 2066.00
13.4894 2086.00
13.5546 2006.00
13.6198 1971.00
13.685 2055.00
13.7502 2094.00
13.8154 2185.00
13.8805 2190.00
13.9457 2373.00
14.0109 2595.00
14.0761 2394.00
14.1413 2307.00
14.2065 2299.00
14.2717 2166.00
14.3369 2016.00
14.4021 1917.00
14.4673 1986.00
14.5325 1946.00
14.5977 1917.00
14.6629 1873.00
14.7281 1876.00
14.7933 2003.00
14.8585 2013.00
14.9237 2099.00
14.9889 1939.00
15.0541 1896.00
15.1193 1820.00
15.1845 1894.00
15.2497 1829.00
15.3149 1763.00
15.3801 1799.00
15.4453 1896.00
15.5105 1880.00
15.5757 1787.00
15.6409 1859.00
15.7061 1886.00
15.7713 1949.00
15.8365 1840.00
15.9017 1904.00
15.9669 1983.00
16.0321 1936.00
16.0973 1864.00
16.1625 2007.00
16.2277 2173.00
16.2929 2345.00
16.3581 2860.00
16.4233 3740.00
16.4885 4812.00
16.5537 5210.00
16.6189 3384.00
16.6841 2321.00
16.7493 1955.00
16.8145 1927.00
16.8797 1842.00
16.9449 1785.00
17.0101 1717.00
17.0753 1779.00
17.1405 1762.00
17.2057 1772.00
17.2709 1780.00
17.3361 1688.00
17.4013 1770.00
17.4665 1681.00
17.5317 1644.00
17.5969 1711.00
17.6621 1699.00
17.7273 1787.00
17.7925 1830.00
17.8577 1949.00
17.9229 2054.00
17.9881 2173.00
18.0533 2333.00
18.1185 2114.00
18.1837 1940.00
18.2489 1696.00
18.3141 1650.00
18.3793 1648.00
18.4445 1648.00
18.5097 1604.00
18.5749 1576.00
18.6401 1566.00
18.7052 1651.00
18.7704 1595.00
18.8356 1552.00
18.9008 1549.00
18.966 1511.00
19.0312 1577.00
19.0964 1508.00
19.1616 1587.00
19.2268 1666.00
19.292 1562.00
19.3572 1689.00
19.4224 1829.00
19.4876 1995.00
19.5528 2359.00
19.618 3106.00
19.6832 3968.00
19.7484 3834.00
19.8136 3442.00
19.8788 2994.00
19.944 2901.00
20.0092 2524.00
20.0744 1981.00
20.1396 1660.00
20.2048 1557.00
20.27 1501.00
20.3352 1532.00
20.4004 1467.00
20.4656 1530.00
20.5308 1536.00
20.596 1588.00
20.6612 1574.00
20.7264 1570.00
20.7916 1778.00
20.8568 1828.00
20.922 1749.00
20.9872 1627.00
21.0524 1672.00
21.1176 1547.00
21.1828 1517.00
21.248 1425.00
21.3132 1498.00
21.3784 1487.00
21.4436 1477.00
21.5088 1448.00
21.574 1482.00
21.6392 1398.00
21.7044 1421.00
21.7696 1440.00
21.8348 1442.00
21.9 1382.00
21.9652 1386.00
22.0304 1394.00
22.0956 1562.00
22.1608 1524.00
22.226 1467.00
22.2912 1505.00
22.3564 1547.00
22.4216 1431.00
22.4868 1484.00
22.552 1368.00
22.6172 1509.00
22.6824 1521.00
22.7476 1622.00
22.8128 1723.00
22.878 1799.00
22.9432 2318.00
23.0084 3127.00
23.0736 4286.00
23.1388 4419.00
23.204 3610.00
23.2692 2748.00
23.3344 1903.00
23.3996 1713.00
23.4647 1666.00
23.5299 1548.00
23.5951 1472.00
23.6603 1445.00
23.7255 1498.00
23.7907 1588.00
23.8559 1648.00
23.9211 1833.00
23.9863 2146.00
24.0515 2700.00
24.1167 3134.00
24.1819 2993.00
24.2471 2404.00
24.3123 2180.00
24.3775 2148.00
24.4427 2231.00
24.5079 2365.00
24.5731 2209.00
24.6383 2170.00
24.7035 1824.00
24.7687 1668.00
24.8339 1655.00
24.8991 1639.00
24.9643 1668.00
25.0295 1666.00
25.0947 1489.00
25.1599 1463.00
25.2251 1552.00
25.2903 1453.00
25.3555 1552.00
25.4207 1558.00
25.4859 1626.00
25.5511 1523.00
25.6163 1571.00
25.6815 1522.00
25.7467 1749.00
25.8119 1926.00
25.8771 2531.00
25.9423 3859.00
26.0075 4885.00
26.0727 4642.00
26.1379 4897.00
26.2031 4875.00
26.2683 3354.00
26.3335 2339.00
26.3987 2050.00
26.4639 1808.00
26.5291 1811.00
26.5943 2011.00
26.6595 2281.00
26.7247 3309.00
26.7899 5150.00
26.8551 7924.00
26.9203 8979.00
26.9855 5989.00
27.0507 3356.00
27.1159 2518.00
27.1811 2212.00
27.2463 2250.00
27.3115 2222.00
27.3767 2384.00
27.4419 2838.00
27.5071 3899.00
27.5723 4464.00
27.6375 4420.00
27.7027 4325.00
27.7679 4148.00
27.8331 3525.00
27.8983 3265.00
27.9635 2632.00
28.0287 1923.00
28.0939 1665.00
28.1591 1439.00
28.2243 1459.00
28.2894 1495.00
28.3546 1500.00
28.4198 1508.00
28.485 1709.00
28.5502 2051.00
28.6154 2534.00
28.6806 2650.00
28.7458 2247.00
28.811 1905.00
28.8762 1572.00
28.9414 1467.00
29.0066 1385.00
29.0718 1380.00
29.137 1233.00
29.2022 1293.00
29.2674 1244.00
29.3326 1296.00
29.3978 1214.00
29.463 1301.00
29.5282 1302.00
29.5934 1382.00
29.6586 1365.00
29.7238 1567.00
29.789 1682.00
29.8542 2028.00
29.9194 2151.00
29.9846 2292.00
30.0498 2370.00
30.115 2286.00
30.1802 2181.00
30.2454 2297.00
30.3106 2801.00
30.3758 3302.00
30.441 3067.00
30.5062 2645.00
30.5714 1910.00
30.6366 1587.00
30.7018 1428.00
30.767 1358.00
30.8322 1451.00
30.8974 1394.00
30.9626 1456.00
31.0278 1607.00
31.093 1960.00
31.1582 2517.00
31.2234 3832.00
31.2886 5515.00
31.3538 5518.00
31.419 3992.00
31.4842 2843.00
31.5494 2472.00
31.6146 2315.00
31.6798 2105.00
31.745 1951.00
31.8102 2090.00
31.8754 2412.00
31.9406 2870.00
32.0058 2546.00
32.071 2101.00
32.1362 1745.00
32.2014 1491.00
32.2666 1444.00
32.3318 1398.00
32.397 1365.00
32.4622 1310.00
32.5274 1258.00
32.5926 1242.00
32.6578 1205.00
32.723 1275.00
32.7882 1366.00
32.8534 1588.00
32.9186 2001.00
32.9838 3187.00
33.0489 5171.00
33.1141 4858.00
33.1793 3349.00
33.2445 1857.00
33.3097 1502.00
33.3749 1400.00
33.4401 1354.00
33.5053 1318.00
33.5705 1326.00
33.6357 1438.00
33.7009 1581.00
33.7661 1810.00
33.8313 1970.00
33.8965 2545.00
33.9617 3523.00
34.0269 5685.00
34.0921 9793.00
34.1573 15586.00
34.2225 15623.00
34.2877 12320.00
34.3529 8774.00
34.4181 6640.00
34.4833 4991.00
34.5485 3884.00
34.6137 3319.00
34.6789 2937.00
34.7441 2443.00
34.8093 2240.00
34.8745 2053.00
34.9397 1777.00
35.0049 1517.00
35.0701 1410.00
35.1353 1328.00
35.2005 1331.00
35.2657 1259.00
35.3309 1350.00
35.3961 1270.00
35.4613 1302.00
35.5265 1193.00
35.5917 1169.00
35.6569 1318.00
35.7221 1423.00
35.7873 1594.00
35.8525 1620.00
35.9177 1430.00
35.9829 1318.00
36.0481 1293.00
36.1133 1459.00
36.1785 1638.00
36.2437 1768.00
36.3089 1852.00
36.3741 2073.00
36.4393 1913.00
36.5045 1737.00
36.5697 1450.00
36.6349 1348.00
36.7001 1342.00
36.7653 1266.00
36.8305 1237.00
36.8957 1343.00
36.9609 1215.00
37.0261 1225.00
37.0913 1153.00
37.1565 1217.00
37.2217 1407.00
37.2869 1297.00
37.3521 1205.00
37.4173 1216.00
37.4825 1135.00
37.5477 1144.00
37.6129 1066.00
37.6781 1100.00
37.7433 1157.00
37.8085 1147.00
37.8736 1180.00
37.9388 1154.00
38.004 1210.00
38.0692 1333.00
38.1344 1685.00
38.1996 2221.00
38.2648 2580.00
38.33 2135.00
38.3952 1679.00
38.4604 1262.00
38.5256 1115.00
38.5908 1095.00
38.656 1023.00
38.7212 996.00
38.7864 989.00
38.8516 957.00
38.9168 1078.00
38.982 1137.00
39.0472 1272.00
39.1124 1201.00
39.1776 1296.00
39.2428 1338.00
39.308 1352.00
39.3732 1241.00
39.4384 1118.00
39.5036 997.00
39.5688 1122.00
39.634 1102.00
39.6992 1094.00
39.7644 1082.00
39.8296 1056.00
39.8948 1058.00
39.96 1055.00
40.0252 1011.00
40.0904 1035.00
40.1556 1048.00
40.2208 1076.00
40.286 1073.00
40.3512 1085.00
40.4164 1063.00
40.4816 1026.00
40.5468 1040.00
40.612 1018.00
40.6772 1026.00
40.7424 950.00
40.8076 1055.00
40.8728 1002.00
40.938 1050.00
41.0032 1124.00
41.0684 1174.00
41.1336 1138.00
41.1988 1161.00
41.264 1257.00
41.3292 1237.00
41.3944 1285.00
41.4596 1563.00
41.5248 1717.00
41.59 1793.00
41.6552 1762.00
41.7204 1657.00
41.7856 1582.00
41.8508 1647.00
41.916 1635.00
41.9812 1640.00
42.0464 1542.00
42.1116 1525.00
42.1768 1496.00
42.242 1513.00
42.3072 1558.00
42.3724 1573.00
42.4376 1644.00
42.5028 1631.00
42.568 1597.00
42.6332 1355.00
42.6983 1141.00
42.7635 990.00
42.8287 931.00
42.8939 1046.00
42.9591 1085.00
43.0243 1105.00
43.0895 1015.00
43.1547 1095.00
43.2199 1107.00
43.2851 1280.00
43.3503 1355.00
43.4155 1406.00
43.4807 1342.00
43.5459 1272.00
43.6111 1190.00
43.6763 1163.00
43.7415 1178.00
43.8067 1168.00
43.8719 1053.00
43.9371 960.00
44.0023 995.00
44.0675 989.00
44.1327 925.00
44.1979 952.00
44.2631 946.00
44.3283 920.00
44.3935 979.00
44.4587 1047.00
44.5239 1151.00
44.5891 1078.00
44.6543 1136.00
44.7195 1145.00
44.7847 1110.00
44.8499 1201.00
44.9151 1177.00
44.9803 1359.00
45.0455 1310.00
45.1107 1311.00
45.1759 1131.00
45.2411 1188.00
45.3063 1091.00
45.3715 1041.00
45.4367 1109.00
45.5019 1107.00
45.5671 1028.00
45.6323 1026.00
45.6975 999.00
45.7627 1055.00
45.8279 1087.00
45.8931 1068.00
45.9583 1128.00
46.0235 1102.00
46.0887 1180.00
46.1539 1263.00
46.2191 1510.00
46.2843 1633.00
46.3495 1420.00
46.4147 1276.00
46.4799 1188.00
46.5451 1163.00
46.6103 1265.00
46.6755 1462.00
46.7407 1602.00
46.8059 2023.00
46.8711 2535.00
46.9363 2293.00
47.0015 2285.00
47.0667 1954.00
47.1319 1692.00
47.1971 1655.00
47.2623 1483.00
47.3275 1397.00
47.3927 1335.00
47.4579 1426.00
47.523 1669.00
47.5882 2024.00
47.6534 1826.00
47.7186 1582.00
47.7838 1299.00
47.849 1002.00
47.9142 1058.00
47.9794 1020.00
48.0446 980.00
48.1098 1031.00
48.175 993.00
48.2402 1033.00
48.3054 998.00
48.3706 1083.00
48.4358 1108.00
48.501 1092.00
48.5662 1103.00
48.6314 1185.00
48.6966 1093.00
48.7618 1129.00
48.827 1201.00
48.8922 1267.00
48.9574 1501.00
49.0226 1731.00
49.0878 1928.00
49.153 1908.00
49.2182 1771.00
49.2834 1617.00
49.3486 1416.00
49.4138 1455.00
49.479 1476.00
49.5442 1647.00
49.6094 1597.00
49.6746 1734.00
49.7398 1709.00
49.805 1769.00
49.8702 1707.00
49.9354 1689.00
50.0006 1542.00
50.0658 1486.00
50.131 1469.00
50.1962 1386.00
50.2614 1370.00
50.3266 1329.00
50.3918 1353.00
50.457 1342.00
50.5222 1443.00
50.5874 1604.00
50.6526 1749.00
50.7178 1748.00
50.783 1810.00
50.8482 1793.00
50.9134 1701.00
50.9786 1631.00
51.0438 1515.00
51.109 1536.00
51.1742 1472.00
51.2394 1463.00
51.3046 1619.00
51.3698 1744.00
51.435 1458.00
51.5002 1340.00
51.5654 1249.00
51.6306 1237.00
51.6958 1268.00
51.761 1302.00
51.8262 1511.00
51.8914 2035.00
51.9566 3087.00
52.0218 4972.00
52.087 5227.00
52.1522 4260.00
52.2174 3583.00
52.2826 2402.00
52.3477 1782.00
52.4129 1562.00
52.4781 1292.00
52.5433 1200.00
52.6085 1156.00
52.6737 1083.00
52.7389 1151.00
52.8041 1079.00
52.8693 1087.00
52.9345 1188.00
52.9997 1298.00
53.0649 1458.00
53.1301 1897.00
53.1953 1729.00
53.2605 1666.00
53.3257 1522.00
53.3909 1347.00
53.4561 1205.00
53.5213 1209.00
53.5865 1180.00
53.6517 1252.00
53.7169 1305.00
53.7821 1241.00
53.8473 1283.00
53.9125 1251.00
53.9777 1237.00
54.0429 1083.00
54.1081 1132.00
54.1733 1104.00
54.2385 1049.00
54.3037 1028.00
54.3689 1057.00
54.4341 1040.00
54.4993 1026.00
54.5645 1184.00
54.6297 1141.00
54.6949 1385.00
54.7601 1393.00
54.8253 1367.00
54.8905 1626.00
54.9557 1852.00
55.0209 2190.00
55.0861 2060.00
55.1513 1947.00
55.2165 1807.00
55.2817 1458.00
55.3469 1358.00
55.4121 1345.00
55.4773 1396.00
55.5425 1250.00
55.6077 1171.00
55.6729 1070.00
55.7381 1009.00
55.8033 1025.00
55.8685 1081.00
55.9337 1199.00
55.9989 1191.00
56.0641 1255.00
56.1293 1292.00
56.1945 1268.00
56.2597 1236.00
56.3249 1175.00
56.3901 1178.00
56.4553 1153.00
56.5205 1189.00
56.5857 1200.00
56.6509 1237.00
56.7161 1319.00
56.7813 1277.00
56.8465 1226.00
56.9117 1138.00
56.9769 1195.00
57.042 1130.00
57.1073 1091.00
57.1724 1114.00
57.2376 1010.00
57.3028 1040.00
57.368 1030.00
57.4332 970.00
57.4984 977.00
57.5636 991.00
57.6288 1139.00
57.694 1160.00
57.7592 1194.00
57.8244 1278.00
57.8896 1324.00
57.9548 1408.00
58.02 1562.00
58.0852 1844.00
58.1504 1697.00
58.2156 1675.00
58.2808 1641.00
58.346 1503.00
58.4112 1411.00
58.4764 1336.00
58.5416 1366.00
58.6068 1329.00
58.672 1207.00
58.7372 1205.00
58.8024 1164.00
58.8676 1184.00
58.9328 1174.00
58.998 1279.00
59.0632 1685.00
59.1284 1870.00
59.1936 1798.00
59.2588 1848.00
59.324 1799.00
59.3892 1713.00
59.4544 1807.00
59.5196 1874.00
59.5848 1750.00
59.65 1523.00
59.7152 1414.00
59.7804 1231.00
59.8456 1228.00
59.9108 1293.00
59.976 1326.00
60.0412 1393.00
60.1064 1313.00
60.1716 1360.00
60.2368 1257.00
60.302 1092.00
60.3672 1131.00
60.4324 1270.00
60.4976 1216.00
60.5628 1253.00
60.628 1297.00
60.6932 1322.00
60.7584 1408.00
60.8236 1538.00
60.8888 1707.00
60.954 1551.00
61.0192 1493.00
61.0844 1407.00
61.1496 1234.00
61.2148 1264.00
61.28 1205.00
61.3452 1158.00
61.4104 1189.00
61.4756 1269.00
61.5408 1283.00
61.606 1231.00
61.6712 1241.00
61.7364 1312.00
61.8016 1302.00
61.8667 1219.00
61.932 1335.00
61.9971 1519.00
62.0623 1637.00
62.1275 1959.00
62.1927 1993.00
62.2579 1778.00
62.3231 1743.00
62.3883 1527.00
62.4535 1332.00
62.5187 1405.00
62.5839 1326.00
62.6491 1237.00
62.7143 1158.00
62.7795 1152.00
62.8447 1133.00
62.9099 1029.00
62.9751 1063.00
63.0403 1034.00
63.1055 1002.00
63.1707 998.00
63.2359 1013.00
63.3011 904.00
63.3663 903.00
63.4315 928.00
63.4967 923.00
63.5619 953.00
63.6271 953.00
63.6923 973.00
63.7575 972.00
63.8227 915.00
63.8879 938.00
63.9531 908.00
64.0183 950.00
64.0835 984.00
64.1487 1015.00
64.2139 972.00
64.2791 986.00
64.3443 1041.00
64.4095 969.00
64.4747 1009.00
64.5399 1047.00
64.6051 1123.00
64.6703 1069.00
64.7355 1065.00
64.8007 1161.00
64.8659 1341.00
64.9311 1582.00
64.9963 1812.00
65.0615 1677.00
65.1267 1694.00
65.1919 1532.00
65.2571 1254.00
65.3223 1072.00
65.3875 1107.00
65.4527 1035.00
65.5179 1022.00
65.5831 1075.00
65.6483 1015.00
65.7135 993.00
65.7787 1089.00
65.8439 1190.00
65.9091 1270.00
65.9743 1346.00
66.0395 1509.00
66.1047 1825.00
66.1699 1972.00
66.2351 2166.00
66.3003 1989.00
66.3655 1820.00
66.4307 1727.00
66.4959 1508.00
66.561 1486.00
66.6263 1247.00
66.6915 1219.00
66.7566 1092.00
66.8218 1038.00
66.887 976.00
66.9522 900.00
67.0174 952.00
67.0826 897.00
67.1478 845.00
67.213 852.00
67.2782 878.00
67.3434 875.00
67.4086 923.00
67.4738 851.00
67.539 879.00
67.6042 943.00
67.6694 909.00
67.7346 903.00
67.7998 923.00
67.865 958.00
67.9302 942.00
67.9954 1019.00
68.0606 938.00
68.1258 1024.00
68.191 961.00
68.2562 978.00
68.3214 944.00
68.3866 935.00
68.4518 845.00
68.517 825.00
68.5822 850.00
68.6474 852.00
68.7126 833.00
68.7778 852.00
68.843 835.00
68.9082 874.00
68.9734 882.00
69.0386 867.00
69.1038 903.00
69.169 778.00
69.2342 825.00
69.2994 856.00
69.3646 875.00
69.4298 860.00
69.495 936.00
69.5602 919.00
69.6254 873.00
69.6906 918.00
69.7558 822.00
69.821 847.00
69.8862 834.00
69.9514 815.00
70.0166 723.00
70.0818 730.00
70.147 747.00
70.2122 830.00
70.2774 700.00
70.3426 722.00
70.4078 748.00
70.473 762.00
70.5382 701.00
70.6034 691.00
70.6686 746.00
70.7338 760.00
70.799 755.00
70.8642 772.00
70.9294 711.00
70.9946 799.00
71.0598 788.00
71.125 834.00
71.1902 857.00
71.2554 867.00
71.3205 958.00
71.3858 1044.00
71.451 1237.00
71.5162 1536.00
71.5813 1428.00
71.6465 1315.00
71.7117 1314.00
71.7769 1320.00
71.8421 1094.00
71.9073 1014.00
71.9725 1020.00
72.0377 973.00
72.1029 902.00
72.1681 932.00
72.2333 925.00
72.2985 870.00
72.3637 807.00
72.4289 824.00
72.4941 868.00
72.5593 846.00
72.6245 874.00
72.6897 820.00
72.7549 886.00
72.8201 927.00
72.8853 889.00
72.9505 876.00
73.0157 821.00
73.0809 918.00
73.1461 840.00
73.2113 855.00
73.2765 806.00
73.3417 803.00
73.4069 846.00
73.4721 868.00
73.5373 838.00
73.6025 892.00
73.6677 828.00
73.7329 799.00
73.7981 807.00
73.8633 749.00
73.9285 759.00
73.9937 777.00
74.0589 822.00
74.1241 775.00
74.1893 765.00
74.2545 819.00
74.3197 776.00
74.3849 745.00
74.4501 753.00
74.5153 748.00
74.5805 759.00
74.6457 737.00
74.7109 762.00
74.7761 730.00
74.8413 789.00
74.9065 830.00
74.9717 788.00
75.0369 790.00
75.1021 826.00
75.1673 731.00
75.2325 780.00
75.2977 818.00
75.3629 853.00
75.4281 820.00
75.4933 847.00
75.5585 870.00
75.6237 848.00
75.6889 752.00
75.7541 823.00
75.8193 853.00
75.8845 783.00
75.9497 828.00
76.0149 813.00
76.0801 739.00
76.1452 828.00
76.2104 844.00
76.2756 838.00
76.3409 786.00
76.406 793.00
76.4712 831.00
76.5364 782.00
76.6016 878.00
76.6668 848.00
76.732 876.00
76.7972 903.00
76.8624 900.00
76.9276 924.00
76.9928 892.00
77.058 830.00
77.1232 837.00
77.1884 790.00
77.2536 818.00
77.3188 849.00
77.384 857.00
77.4492 843.00
77.5144 792.00
77.5796 737.00
77.6448 749.00
77.71 748.00
77.7752 696.00
77.8404 708.00
77.9056 788.00
77.9708 756.00
78.036 748.00
78.1012 764.00
78.1664 728.00
78.2316 733.00
78.2968 726.00
78.362 726.00
78.4272 721.00
78.4924 755.00
78.5576 738.00
78.6228 814.00
78.688 822.00
78.7532 908.00
78.8184 1031.00
78.8836 1329.00
78.9488 1413.00
79.014 1284.00
79.0792 1141.00
79.1444 1151.00
79.2096 1127.00
79.2748 1003.00
79.34 955.00
79.4052 862.00
79.4704 848.00
79.5356 855.00
79.6008 798.00
79.666 803.00
79.7312 861.00
79.7964 824.00
79.8616 900.00
79.9268 953.00
79.992 1028.00
80.0572 1031.00
80.1224 915.00
80.1876 916.00
80.2528 930.00
80.318 900.00
80.3832 820.00
80.4484 856.00
80.5136 764.00
80.5788 778.00
80.644 768.00
80.7092 768.00
80.7744 743.00
80.8396 761.00
80.9048 751.00
80.9699 747.00
81.0351 803.00
81.1003 766.00
81.1655 852.00
81.2307 862.00
81.2959 938.00
81.3611 940.00
81.4263 926.00
81.4915 970.00
81.5567 874.00
81.6219 896.00
81.6871 941.00
81.7523 901.00
81.8175 892.00
81.8827 894.00
81.9479 880.00
82.0131 879.00
82.0783 845.00
82.1435 817.00
82.2087 878.00
82.2739 793.00
82.3391 831.00
82.4043 811.00
82.4695 757.00
82.5347 789.00
82.5999 750.00
82.6651 742.00
82.7303 781.00
82.7955 845.00
82.8607 788.00
82.9259 785.00
82.9911 752.00
83.0563 797.00
83.1215 870.00
83.1867 757.00
83.2519 775.00
83.3171 755.00
83.3823 734.00
83.4475 819.00
83.5127 727.00
83.5779 807.00
83.6431 754.00
83.7083 737.00
83.7735 874.00
83.8387 878.00
83.9039 1088.00
83.9691 1176.00
84.0343 1011.00
84.0995 980.00
84.1647 1035.00
84.2299 1073.00
84.2951 990.00
84.3603 923.00
84.4255 932.00
84.4907 854.00
84.5559 904.00
84.6211 831.00
84.6863 840.00
84.7515 890.00
84.8167 861.00
84.8819 876.00
84.9471 923.00
85.0123 906.00
85.0775 900.00
85.1427 911.00
85.2079 925.00
85.2731 917.00
85.3383 868.00
85.4035 867.00
85.4687 842.00
85.5339 793.00
85.5991 791.00
85.6643 775.00
85.7295 774.00
85.7946 809.00
85.8598 773.00
85.925 780.00
85.9903 798.00
86.0554 934.00
86.1206 833.00
86.1858 813.00
86.251 820.00
86.3162 841.00
86.3814 803.00
86.4466 886.00
86.5118 920.00
86.577 887.00
86.6422 889.00
86.7074 860.00
86.7726 852.00
86.8378 820.00
86.903 820.00
86.9682 819.00
87.0334 783.00
87.0986 744.00
87.1638 750.00
87.229 736.00
87.2942 815.00
87.3594 895.00
87.4246 883.00
87.4898 923.00
87.555 893.00
87.6202 875.00
87.6854 831.00
87.7506 864.00
87.8158 821.00
87.881 787.00
87.9462 766.00
88.0114 799.00
88.0766 815.00
88.1418 759.00
88.207 806.00
88.2722 824.00
88.3374 785.00
88.4026 804.00
88.4678 799.00
88.533 797.00
88.5982 768.00
88.6634 809.00
88.7286 823.00
88.7938 792.00
88.859 821.00
88.9242 794.00
88.9894 790.00
89.0546 790.00
89.1198 840.00
89.185 866.00
89.2502 834.00
89.3154 873.00
89.3806 929.00
89.4458 910.00
89.511 911.00
89.5762 903.00
89.6414 931.00
89.7066 929.00
89.7718 983.00
89.837 1037.00
89.9022 1100.00
89.9674 1288.00
90.0326 1299.00
90.0978 1168.00
90.163 1104.00
90.2282 1147.00
90.2934 1083.00
90.3586 1023.00
90.4238 1011.00
90.489 925.00
90.5542 904.00
90.6193 829.00
90.6845 873.00
90.7497 846.00
90.8149 855.00
90.8801 911.00
90.9453 967.00
91.0105 1066.00
91.0757 1229.00
91.1409 1226.00
91.2061 1145.00
91.2713 1123.00
91.3365 1054.00
91.4017 1074.00
91.4669 988.00
91.5321 935.00
91.5973 920.00
91.6625 835.00
91.7277 845.00
91.7929 778.00
91.8581 802.00
91.9233 800.00
91.9885 788.00
92.0537 797.00
92.1189 791.00
92.1841 781.00
92.2493 792.00
92.3145 802.00
92.3797 784.00
92.4449 790.00
92.5101 786.00
92.5753 813.00
92.6405 807.00
92.7057 804.00
92.7709 786.00
92.8361 746.00
92.9013 772.00
92.9665 768.00
93.0317 779.00
93.0969 774.00
93.1621 766.00
93.2273 760.00
93.2925 801.00
93.3577 794.00
93.4229 884.00
93.4881 917.00
93.5533 897.00
93.6185 873.00
93.6837 774.00
93.7489 742.00
93.8141 840.00
93.8793 806.00
93.9445 764.00
94.0097 734.00
94.0749 782.00
94.1401 746.00
94.2053 712.00
94.2705 735.00
94.3357 762.00
94.4009 751.00
94.4661 772.00
94.5313 777.00
94.5965 724.00
94.6617 766.00
94.7269 831.00
94.7921 780.00
94.8573 762.00
94.9225 749.00
94.9877 767.00
95.0529 739.00
95.1181 776.00
95.1833 808.00
95.2485 803.00
95.3137 781.00
95.3789 742.00
95.444 810.00
95.5092 774.00
95.5744 771.00
95.6396 760.00
95.7048 796.00
95.77 801.00
95.8352 866.00
95.9004 831.00
95.9656 868.00
96.0308 899.00
96.096 878.00
96.1612 1027.00
96.2264 994.00
96.2916 922.00
96.3568 891.00
96.422 919.00
96.4872 898.00
96.5524 880.00
96.6176 810.00
96.6828 797.00
96.748 845.00
96.8132 812.00
96.8784 788.00
96.9436 860.00
97.0088 820.00
97.074 793.00
97.1392 842.00
97.2044 864.00
97.2696 809.00
97.3348 813.00
97.4 794.00
97.4652 826.00
97.5304 823.00
97.5956 800.00
97.6608 793.00
97.726 809.00
97.7912 799.00
97.8564 731.00
97.9216 804.00
97.9868 793.00
98.052 781.00
98.1172 756.00
98.1824 762.00
98.2476 807.00
98.3128 762.00
98.378 764.00
98.4432 723.00
98.5084 728.00
98.5736 723.00
98.6388 707.00
98.704 749.00
98.7692 717.00
98.8344 790.00
98.8996 745.00
98.9648 788.00
99.03 765.00
99.0952 770.00
99.1604 813.00
99.2256 803.00
99.2908 832.00
99.356 858.00
99.4212 893.00
99.4864 920.00
99.5516 940.00
99.6168 886.00
99.682 881.00
99.7472 848.00
99.8124 955.00
99.8776 841.00
99.9428 798.00
100.008 786.00
100.073 840.00
100.095 794.00