File: data/xrd_creation/results/Na_108.xy
9.903433 2703.00
9.968632 2697.00
10.0338 2657.00
10.099 2674.00
10.1642 2558.00
10.2294 2519.00
10.2946 2425.00
10.3598 2568.00
10.425 2512.00
10.4902 2420.00
10.5554 2472.00
10.6206 2339.00
10.6858 2352.00
10.751 2398.00
10.8162 2380.00
10.8814 2354.00
10.9466 2252.00
11.0118 2246.00
11.077 2166.00
11.1422 2266.00
11.2074 2162.00
11.2726 2196.00
11.3378 2174.00
11.403 2113.00
11.4682 2214.00
11.5334 2164.00
11.5986 1984.00
11.6638 2061.00
11.729 2125.00
11.7942 2086.00
11.8594 1958.00
11.9246 1954.00
11.9898 1940.00
12.055 1938.00
12.1202 1874.00
12.1854 2019.00
12.2506 1853.00
12.3158 1900.00
12.381 1893.00
12.4462 1755.00
12.5114 1927.00
12.5766 1780.00
12.6418 1881.00
12.707 1855.00
12.7722 1824.00
12.8374 1759.00
12.9026 1741.00
12.9678 1682.00
13.033 1872.00
13.0982 1643.00
13.1634 1701.00
13.2286 1778.00
13.2938 1719.00
13.359 1738.00
13.4242 1771.00
13.4894 1695.00
13.5546 1628.00
13.6198 1665.00
13.685 1633.00
13.7502 1559.00
13.8154 1510.00
13.8805 1564.00
13.9457 1560.00
14.0109 1531.00
14.0761 1541.00
14.1413 1533.00
14.2065 1481.00
14.2717 1472.00
14.3369 1457.00
14.4021 1530.00
14.4673 1517.00
14.5325 1519.00
14.5977 1483.00
14.6629 1485.00
14.7281 1481.00
14.7933 1460.00
14.8585 1503.00
14.9237 1449.00
14.9889 1476.00
15.0541 1510.00
15.1193 1479.00
15.1845 1439.00
15.2497 1491.00
15.3149 1409.00
15.3801 1433.00
15.4453 1432.00
15.5105 1500.00
15.5757 1616.00
15.6409 1728.00
15.7061 1829.00
15.7713 1700.00
15.8365 1573.00
15.9017 1361.00
15.9669 1385.00
16.0321 1379.00
16.0973 1315.00
16.1625 1250.00
16.2277 1313.00
16.2929 1314.00
16.3581 1283.00
16.4233 1277.00
16.4885 1296.00
16.5537 1275.00
16.6189 1240.00
16.6841 1250.00
16.7493 1281.00
16.8145 1304.00
16.8797 1271.00
16.9449 1214.00
17.0101 1244.00
17.0753 1280.00
17.1405 1278.00
17.2057 1312.00
17.2709 1180.00
17.3361 1251.00
17.4013 1260.00
17.4665 1174.00
17.5317 1295.00
17.5969 1185.00
17.6621 1184.00
17.7273 1174.00
17.7925 1173.00
17.8577 1151.00
17.9229 1214.00
17.9881 1137.00
18.0533 1132.00
18.1185 1178.00
18.1837 1152.00
18.2489 1123.00
18.3141 1162.00
18.3793 1135.00
18.4445 1093.00
18.5097 1129.00
18.5749 1123.00
18.6401 1072.00
18.7052 1203.00
18.7704 1107.00
18.8356 1088.00
18.9008 1109.00
18.966 1145.00
19.0312 1020.00
19.0964 1127.00
19.1616 1101.00
19.2268 1035.00
19.292 1075.00
19.3572 1062.00
19.4224 1015.00
19.4876 1062.00
19.5528 987.00
19.618 1095.00
19.6832 1006.00
19.7484 1013.00
19.8136 1096.00
19.8788 1007.00
19.944 939.00
20.0092 974.00
20.0744 1002.00
20.1396 1023.00
20.2048 1023.00
20.27 924.00
20.3352 1026.00
20.4004 1020.00
20.4656 929.00
20.5308 1038.00
20.596 991.00
20.6612 1071.00
20.7264 1035.00
20.7916 1075.00
20.8568 1020.00
20.922 988.00
20.9872 934.00
21.0524 947.00
21.1176 980.00
21.1828 966.00
21.248 1051.00
21.3132 985.00
21.3784 982.00
21.4436 943.00
21.5088 952.00
21.574 959.00
21.6392 952.00
21.7044 919.00
21.7696 892.00
21.8348 970.00
21.9 965.00
21.9652 890.00
22.0304 894.00
22.0956 890.00
22.1608 933.00
22.226 891.00
22.2912 876.00
22.3564 914.00
22.4216 904.00
22.4868 930.00
22.552 883.00
22.6172 920.00
22.6824 894.00
22.7476 915.00
22.8128 875.00
22.878 840.00
22.9432 880.00
23.0084 818.00
23.0736 817.00
23.1388 906.00
23.204 851.00
23.2692 870.00
23.3344 828.00
23.3996 832.00
23.4647 903.00
23.5299 853.00
23.5951 811.00
23.6603 881.00
23.7255 844.00
23.7907 860.00
23.8559 869.00
23.9211 793.00
23.9863 826.00
24.0515 850.00
24.1167 832.00
24.1819 856.00
24.2471 825.00
24.3123 804.00
24.3775 867.00
24.4427 877.00
24.5079 857.00
24.5731 839.00
24.6383 729.00
24.7035 811.00
24.7687 836.00
24.8339 779.00
24.8991 757.00
24.9643 813.00
25.0295 876.00
25.0947 775.00
25.1599 837.00
25.2251 915.00
25.2903 863.00
25.3555 759.00
25.4207 831.00
25.4859 798.00
25.5511 796.00
25.6163 834.00
25.6815 901.00
25.7467 851.00
25.8119 832.00
25.8771 809.00
25.9423 827.00
26.0075 763.00
26.0727 841.00
26.1379 836.00
26.2031 864.00
26.2683 815.00
26.3335 919.00
26.3987 944.00
26.4639 1084.00
26.5291 972.00
26.5943 883.00
26.6595 816.00
26.7247 799.00
26.7899 814.00
26.8551 758.00
26.9203 759.00
26.9855 761.00
27.0507 791.00
27.1159 740.00
27.1811 755.00
27.2463 690.00
27.3115 731.00
27.3767 704.00
27.4419 760.00
27.5071 740.00
27.5723 782.00
27.6375 720.00
27.7027 748.00
27.7679 732.00
27.8331 745.00
27.8983 805.00
27.9635 805.00
28.0287 882.00
28.0939 847.00
28.1591 851.00
28.2243 943.00
28.2894 982.00
28.3546 954.00
28.4198 823.00
28.485 753.00
28.5502 762.00
28.6154 706.00
28.6806 704.00
28.7458 760.00
28.811 707.00
28.8762 741.00
28.9414 690.00
29.0066 737.00
29.0718 732.00
29.137 680.00
29.2022 730.00
29.2674 724.00
29.3326 671.00
29.3978 673.00
29.463 686.00
29.5282 697.00
29.5934 693.00
29.6586 687.00
29.7238 665.00
29.789 679.00
29.8542 694.00
29.9194 687.00
29.9846 676.00
30.0498 676.00
30.115 682.00
30.1802 670.00
30.2454 668.00
30.3106 584.00
30.3758 626.00
30.441 600.00
30.5062 652.00
30.5714 662.00
30.6366 670.00
30.7018 630.00
30.767 648.00
30.8322 660.00
30.8974 658.00
30.9626 625.00
31.0278 656.00
31.093 618.00
31.1582 643.00
31.2234 654.00
31.2886 714.00
31.3538 715.00
31.419 895.00
31.4842 880.00
31.5494 918.00
31.6146 860.00
31.6798 841.00
31.745 866.00
31.8102 887.00
31.8754 929.00
31.9406 906.00
32.0058 771.00
32.071 686.00
32.1362 612.00
32.2014 582.00
32.2666 589.00
32.3318 544.00
32.397 601.00
32.4622 526.00
32.5274 566.00
32.5926 568.00
32.6578 543.00
32.723 568.00
32.7882 606.00
32.8534 565.00
32.9186 571.00
32.9838 561.00
33.0489 572.00
33.1141 557.00
33.1793 555.00
33.2445 601.00
33.3097 684.00
33.3749 655.00
33.4401 573.00
33.5053 560.00
33.5705 604.00
33.6357 650.00
33.7009 629.00
33.7661 641.00
33.8313 677.00
33.8965 593.00
33.9617 570.00
34.0269 592.00
34.0921 548.00
34.1573 605.00
34.2225 581.00
34.2877 564.00
34.3529 544.00
34.4181 499.00
34.4833 531.00
34.5485 519.00
34.6137 520.00
34.6789 520.00
34.7441 569.00
34.8093 575.00
34.8745 602.00
34.9397 530.00
35.0049 529.00
35.0701 480.00
35.1353 458.00
35.2005 494.00
35.2657 504.00
35.3309 501.00
35.3961 515.00
35.4613 479.00
35.5265 427.00
35.5917 442.00
35.6569 499.00
35.7221 527.00
35.7873 476.00
35.8525 465.00
35.9177 498.00
35.9829 474.00
36.0481 512.00
36.1133 510.00
36.1785 515.00
36.2437 529.00
36.3089 441.00
36.3741 454.00
36.4393 473.00
36.5045 440.00
36.5697 443.00
36.6349 470.00
36.7001 447.00
36.7653 452.00
36.8305 416.00
36.8957 423.00
36.9609 430.00
37.0261 445.00
37.0913 432.00
37.1565 449.00
37.2217 444.00
37.2869 438.00
37.3521 446.00
37.4173 471.00
37.4825 432.00
37.5477 484.00
37.6129 462.00
37.6781 456.00
37.7433 477.00
37.8085 471.00
37.8736 477.00
37.9388 480.00
38.004 477.00
38.0692 420.00
38.1344 429.00
38.1996 444.00
38.2648 418.00
38.33 420.00
38.3952 448.00
38.4604 418.00
38.5256 388.00
38.5908 417.00
38.656 429.00
38.7212 436.00
38.7864 425.00
38.8516 433.00
38.9168 418.00
38.982 408.00
39.0472 406.00
39.1124 471.00
39.1776 421.00
39.2428 443.00
39.308 388.00
39.3732 416.00
39.4384 412.00
39.5036 390.00
39.5688 422.00
39.634 410.00
39.6992 427.00
39.7644 438.00
39.8296 401.00
39.8948 396.00
39.96 406.00
40.0252 394.00
40.0904 377.00
40.1556 394.00
40.2208 399.00
40.286 398.00
40.3512 405.00
40.4164 415.00
40.4816 449.00
40.5468 435.00
40.612 354.00
40.6772 415.00
40.7424 430.00
40.8076 408.00
40.8728 377.00
40.938 407.00
41.0032 390.00
41.0684 422.00
41.1336 398.00
41.1988 397.00
41.264 388.00
41.3292 407.00
41.3944 366.00
41.4596 369.00
41.5248 370.00
41.59 362.00
41.6552 362.00
41.7204 398.00
41.7856 387.00
41.8508 406.00
41.916 369.00
41.9812 374.00
42.0464 404.00
42.1116 343.00
42.1768 394.00
42.242 379.00
42.3072 408.00
42.3724 341.00
42.4376 341.00
42.5028 365.00
42.568 351.00
42.6332 377.00
42.6983 384.00
42.7635 362.00
42.8287 405.00
42.8939 381.00
42.9591 379.00
43.0243 328.00
43.0895 364.00
43.1547 360.00
43.2199 377.00
43.2851 363.00
43.3503 350.00
43.4155 392.00
43.4807 349.00
43.5459 400.00
43.6111 340.00
43.6763 332.00
43.7415 346.00
43.8067 372.00
43.8719 336.00
43.9371 360.00
44.0023 349.00
44.0675 345.00
44.1327 339.00
44.1979 385.00
44.2631 368.00
44.3283 434.00
44.3935 431.00
44.4587 344.00
44.5239 392.00
44.5891 380.00
44.6543 338.00
44.7195 323.00
44.7847 375.00
44.8499 373.00
44.9151 335.00
44.9803 325.00
45.0455 365.00
45.1107 347.00
45.1759 342.00
45.2411 330.00
45.3063 373.00
45.3715 320.00
45.4367 329.00
45.5019 368.00
45.5671 320.00
45.6323 336.00
45.6975 366.00
45.7627 338.00
45.8279 323.00
45.8931 338.00
45.9583 349.00
46.0235 317.00
46.0887 337.00
46.1539 313.00
46.2191 310.00
46.2843 313.00
46.3495 320.00
46.4147 334.00
46.4799 343.00
46.5451 328.00
46.6103 324.00
46.6755 321.00
46.7407 333.00
46.8059 324.00
46.8711 326.00
46.9363 305.00
47.0015 296.00
47.0667 303.00
47.1319 313.00
47.1971 339.00
47.2623 331.00
47.3275 331.00
47.3927 315.00
47.4579 311.00
47.523 332.00
47.5882 323.00
47.6534 295.00
47.7186 266.00
47.7838 291.00
47.849 299.00
47.9142 290.00
47.9794 319.00
48.0446 314.00
48.1098 335.00
48.175 317.00
48.2402 295.00
48.3054 279.00
48.3706 321.00
48.4358 319.00
48.501 286.00
48.5662 340.00
48.6314 350.00
48.6966 320.00
48.7618 314.00
48.827 306.00
48.8922 297.00
48.9574 326.00
49.0226 322.00
49.0878 302.00
49.153 333.00
49.2182 323.00
49.2834 338.00
49.3486 324.00
49.4138 316.00
49.479 336.00
49.5442 321.00
49.6094 283.00
49.6746 281.00
49.7398 310.00
49.805 315.00
49.8702 309.00
49.9354 338.00
50.0006 318.00
50.0658 328.00
50.131 316.00
50.1962 320.00
50.2614 278.00
50.3266 317.00
50.3918 328.00
50.457 326.00
50.5222 347.00
50.5874 312.00
50.6526 350.00
50.7178 328.00
50.783 369.00
50.8482 304.00
50.9134 338.00
50.9786 359.00
51.0438 301.00
51.109 334.00
51.1742 332.00
51.2394 330.00
51.3046 304.00
51.3698 305.00
51.435 294.00
51.5002 317.00
51.5654 346.00
51.6306 383.00
51.6958 393.00
51.761 370.00
51.8262 347.00
51.8914 360.00
51.9566 370.00
52.0218 410.00
52.087 406.00
52.1522 380.00
52.2174 369.00
52.2826 302.00
52.3477 272.00
52.4129 313.00
52.4781 319.00
52.5433 287.00
52.6085 310.00
52.6737 296.00
52.7389 352.00
52.8041 345.00
52.8693 311.00
52.9345 283.00
52.9997 282.00
53.0649 295.00
53.1301 287.00
53.1953 260.00
53.2605 279.00
53.3257 307.00
53.3909 272.00
53.4561 302.00
53.5213 284.00
53.5865 294.00
53.6517 311.00
53.7169 279.00
53.7821 260.00
53.8473 279.00
53.9125 269.00
53.9777 294.00
54.0429 279.00
54.1081 285.00
54.1733 312.00
54.2385 305.00
54.3037 245.00
54.3689 295.00
54.4341 289.00
54.4993 298.00
54.5645 331.00
54.6297 303.00
54.6949 329.00
54.7601 278.00
54.8253 289.00
54.8905 273.00
54.9557 265.00
55.0209 244.00
55.0861 243.00
55.1513 327.00
55.2165 283.00
55.2817 298.00
55.3469 299.00
55.4121 257.00
55.4773 299.00
55.5425 300.00
55.6077 271.00
55.6729 261.00
55.7381 278.00
55.8033 302.00
55.8685 298.00
55.9337 278.00
55.9989 246.00
56.0641 294.00
56.1293 241.00
56.1945 263.00
56.2597 265.00
56.3249 272.00
56.3901 272.00
56.4553 246.00
56.5205 247.00
56.5857 279.00
56.6509 247.00
56.7161 240.00
56.7813 259.00
56.8465 256.00
56.9117 286.00
56.9769 277.00
57.042 287.00
57.1073 240.00
57.1724 277.00
57.2376 250.00
57.3028 251.00
57.368 242.00
57.4332 269.00
57.4984 248.00
57.5636 225.00
57.6288 237.00
57.694 264.00
57.7592 247.00
57.8244 270.00
57.8896 282.00
57.9548 266.00
58.02 259.00
58.0852 246.00
58.1504 286.00
58.2156 242.00
58.2808 261.00
58.346 258.00
58.4112 272.00
58.4764 266.00
58.5416 281.00
58.6068 334.00
58.672 311.00
58.7372 296.00
58.8024 270.00
58.8676 274.00
58.9328 294.00
58.998 265.00
59.0632 267.00
59.1284 247.00
59.1936 244.00
59.2588 223.00
59.324 236.00
59.3892 245.00
59.4544 242.00
59.5196 216.00
59.5848 259.00
59.65 246.00
59.7152 229.00
59.7804 227.00
59.8456 239.00
59.9108 218.00
59.976 222.00
60.0412 216.00
60.1064 237.00
60.1716 227.00
60.2368 229.00
60.302 244.00
60.3672 244.00
60.4324 224.00
60.4976 223.00
60.5628 256.00
60.628 266.00
60.6932 227.00
60.7584 262.00
60.8236 247.00
60.8888 244.00
60.954 223.00
61.0192 233.00
61.0844 218.00
61.1496 215.00
61.2148 237.00
61.28 256.00
61.3452 202.00
61.4104 262.00
61.4756 250.00
61.5408 231.00
61.606 261.00
61.6712 232.00
61.7364 225.00
61.8016 263.00
61.8667 258.00
61.932 247.00
61.9971 248.00
62.0623 272.00
62.1275 221.00
62.1927 250.00
62.2579 229.00
62.3231 229.00
62.3883 213.00
62.4535 187.00
62.5187 234.00
62.5839 228.00
62.6491 244.00
62.7143 206.00
62.7795 259.00
62.8447 214.00
62.9099 243.00
62.9751 215.00
63.0403 199.00
63.1055 226.00
63.1707 220.00
63.2359 224.00
63.3011 220.00
63.3663 210.00
63.4315 209.00
63.4967 229.00
63.5619 202.00
63.6271 223.00
63.6923 236.00
63.7575 224.00
63.8227 226.00
63.8879 220.00
63.9531 214.00
64.0183 222.00
64.0835 207.00
64.1487 199.00
64.2139 220.00
64.2791 211.00
64.3443 236.00
64.4095 210.00
64.4747 234.00
64.5399 223.00
64.6051 286.00
64.6703 222.00
64.7355 227.00
64.8007 260.00
64.8659 225.00
64.9311 207.00
64.9963 216.00
65.0615 200.00
65.1267 190.00
65.1919 220.00
65.2571 223.00
65.3223 208.00
65.3875 224.00
65.4527 238.00
65.5179 206.00
65.5831 227.00
65.6483 228.00
65.7135 250.00
65.7787 286.00
65.8439 256.00
65.9091 278.00
65.9743 242.00
66.0395 237.00
66.1047 231.00
66.1699 222.00
66.2351 236.00
66.3003 270.00
66.3655 227.00
66.4307 198.00
66.4959 211.00
66.561 198.00
66.6263 220.00
66.6915 180.00
66.7566 232.00
66.8218 207.00
66.887 203.00
66.9522 193.00
67.0174 205.00
67.0826 197.00
67.1478 221.00
67.213 210.00
67.2782 231.00
67.3434 211.00
67.4086 224.00
67.4738 239.00
67.539 232.00
67.6042 218.00
67.6694 214.00
67.7346 230.00
67.7998 203.00
67.865 204.00
67.9302 257.00
67.9954 222.00
68.0606 237.00
68.1258 229.00
68.191 202.00
68.2562 228.00
68.3214 190.00
68.3866 193.00
68.4518 201.00
68.517 211.00
68.5822 210.00
68.6474 202.00
68.7126 217.00
68.7778 225.00
68.843 231.00
68.9082 207.00
68.9734 214.00
69.0386 202.00
69.1038 196.00
69.169 215.00
69.2342 226.00
69.2994 184.00
69.3646 226.00
69.4298 203.00
69.495 200.00
69.5602 188.00
69.6254 211.00
69.6906 190.00
69.7558 192.00
69.821 208.00
69.8862 192.00
69.9514 193.00
70.0166 201.00
70.0818 235.00
70.147 209.00
70.2122 202.00
70.2774 186.00
70.3426 181.00
70.4078 201.00
70.473 192.00
70.5382 201.00
70.6034 215.00
70.6686 208.00
70.7338 189.00
70.799 174.00
70.8642 179.00
70.9294 212.00
70.9946 220.00
71.0598 203.00
71.125 235.00
71.1902 227.00
71.2554 208.00
71.3205 196.00
71.3858 195.00
71.451 195.00
71.5162 209.00
71.5813 240.00
71.6465 210.00
71.7117 210.00
71.7769 208.00
71.8421 203.00
71.9073 211.00
71.9725 200.00
72.0377 200.00
72.1029 206.00
72.1681 197.00
72.2333 224.00
72.2985 223.00
72.3637 213.00
72.4289 216.00
72.4941 200.00
72.5593 211.00
72.6245 214.00
72.6897 202.00
72.7549 216.00
72.8201 211.00
72.8853 221.00
72.9505 217.00
73.0157 197.00
73.0809 191.00
73.1461 211.00
73.2113 213.00
73.2765 180.00
73.3417 205.00
73.4069 226.00
73.4721 205.00
73.5373 186.00
73.6025 209.00
73.6677 225.00
73.7329 199.00
73.7981 178.00
73.8633 230.00
73.9285 204.00
73.9937 234.00
74.0589 208.00
74.1241 225.00
74.1893 209.00
74.2545 226.00
74.3197 216.00
74.3849 223.00
74.4501 218.00
74.5153 214.00
74.5805 215.00
74.6457 223.00
74.7109 215.00
74.7761 223.00
74.8413 211.00
74.9065 214.00
74.9717 190.00
75.0369 217.00
75.1021 211.00
75.1673 228.00
75.2325 191.00
75.2977 224.00
75.3629 186.00
75.4281 213.00
75.4933 225.00
75.5585 214.00
75.6237 221.00
75.6889 196.00
75.7541 219.00
75.8193 221.00
75.8845 208.00
75.9497 211.00
76.0149 201.00
76.0801 222.00
76.1452 209.00
76.2104 268.00
76.2756 211.00
76.3409 235.00
76.406 226.00
76.4712 235.00
76.5364 222.00
76.6016 198.00
76.6668 217.00
76.732 233.00
76.7972 201.00
76.8624 218.00
76.9276 206.00
76.9928 227.00
77.058 219.00
77.1232 201.00
77.1884 201.00
77.2536 243.00
77.3188 231.00
77.384 237.00
77.4492 207.00
77.5144 218.00
77.5796 241.00
77.6448 218.00
77.71 230.00
77.7752 231.00
77.8404 233.00
77.9056 221.00
77.9708 207.00
78.036 198.00
78.1012 178.00
78.1664 204.00
78.2316 217.00
78.2968 213.00
78.362 222.00
78.4272 228.00
78.4924 234.00
78.5576 210.00
78.6228 233.00
78.688 223.00
78.7532 217.00
78.8184 220.00
78.8836 244.00
78.9488 267.00
79.014 226.00
79.0792 233.00
79.1444 225.00
79.2096 222.00
79.2748 215.00
79.34 227.00
79.4052 215.00
79.4704 227.00
79.5356 237.00
79.6008 216.00
79.666 214.00
79.7312 237.00
79.7964 214.00
79.8616 204.00
79.9268 210.00
79.992 211.00
80.0572 214.00
80.1224 221.00
80.1876 258.00
80.2528 231.00
80.318 243.00
80.3832 210.00
80.4484 226.00
80.5136 246.00
80.5788 215.00
80.644 229.00
80.7092 265.00
80.7744 247.00
80.8396 242.00
80.9048 237.00
80.9699 257.00
81.0351 233.00
81.1003 272.00
81.1655 232.00
81.2307 259.00
81.2959 223.00
81.3611 259.00
81.4263 238.00
81.4915 260.00
81.5567 226.00
81.6219 221.00
81.6871 232.00
81.7523 249.00
81.8175 224.00
81.8827 219.00
81.9479 244.00
82.0131 269.00
82.0783 248.00
82.1435 262.00
82.2087 237.00
82.2739 237.00
82.3391 241.00
82.4043 247.00
82.4695 274.00
82.5347 245.00
82.5999 249.00
82.6651 243.00
82.7303 241.00
82.7955 222.00
82.8607 230.00
82.9259 246.00
82.9911 268.00
83.0563 256.00
83.1215 262.00
83.1867 258.00
83.2519 240.00
83.3171 245.00
83.3823 231.00
83.4475 232.00
83.5127 250.00
83.5779 237.00
83.6431 249.00
83.7083 263.00
83.7735 272.00
83.8387 250.00
83.9039 236.00
83.9691 234.00
84.0343 240.00
84.0995 267.00
84.1647 237.00
84.2299 243.00
84.2951 256.00
84.3603 243.00
84.4255 226.00
84.4907 249.00
84.5559 228.00
84.6211 261.00
84.6863 245.00
84.7515 235.00
84.8167 242.00
84.8819 212.00
84.9471 233.00
85.0123 213.00
85.0775 214.00
85.1427 213.00
85.2079 242.00
85.2731 210.00
85.3383 244.00
85.4035 236.00
85.4687 278.00
85.5339 247.00
85.5991 236.00
85.6643 227.00
85.7295 233.00
85.7946 219.00
85.8598 249.00
85.925 231.00
85.9903 238.00
86.0554 229.00
86.1206 227.00
86.1858 219.00
86.251 221.00
86.3162 229.00
86.3814 237.00
86.4466 220.00
86.5118 229.00
86.577 236.00
86.6422 230.00
86.7074 199.00
86.7726 211.00
86.8378 221.00
86.903 220.00
86.9682 240.00
87.0334 227.00
87.0986 237.00
87.1638 273.00
87.229 236.00
87.2942 235.00
87.3594 206.00
87.4246 233.00
87.4898 222.00
87.555 228.00
87.6202 229.00
87.6854 222.00
87.7506 200.00
87.8158 217.00
87.881 234.00
87.9462 223.00
88.0114 238.00
88.0766 207.00
88.1418 227.00
88.207 236.00
88.2722 233.00
88.3374 214.00
88.4026 216.00
88.4678 234.00
88.533 234.00
88.5982 236.00
88.6634 226.00
88.7286 223.00
88.7938 202.00
88.859 218.00
88.9242 216.00
88.9894 206.00
89.0546 205.00
89.1198 231.00
89.185 205.00
89.2502 209.00
89.3154 233.00
89.3806 232.00
89.4458 200.00
89.511 208.00
89.5762 236.00
89.6414 193.00
89.7066 202.00
89.7718 223.00
89.837 220.00
89.9022 219.00
89.9674 228.00
90.0326 241.00
90.0978 227.00
90.163 256.00
90.2282 217.00
90.2934 205.00
90.3586 222.00
90.4238 230.00
90.489 213.00
90.5542 225.00
90.6193 188.00
90.6845 225.00
90.7497 227.00
90.8149 206.00
90.8801 199.00
90.9453 221.00
91.0105 210.00
91.0757 205.00
91.1409 213.00
91.2061 220.00
91.2713 225.00
91.3365 201.00
91.4017 228.00
91.4669 202.00
91.5321 217.00
91.5973 202.00
91.6625 212.00
91.7277 202.00
91.7929 208.00
91.8581 228.00
91.9233 219.00
91.9885 219.00
92.0537 227.00
92.1189 189.00
92.1841 208.00
92.2493 230.00
92.3145 227.00
92.3797 234.00
92.4449 204.00
92.5101 204.00
92.5753 186.00
92.6405 213.00
92.7057 220.00
92.7709 202.00
92.8361 219.00
92.9013 233.00
92.9665 196.00
93.0317 187.00
93.0969 183.00
93.1621 203.00
93.2273 206.00
93.2925 234.00
93.3577 188.00
93.4229 222.00
93.4881 219.00
93.5533 198.00
93.6185 234.00
93.6837 205.00
93.7489 212.00
93.8141 215.00
93.8793 185.00
93.9445 215.00
94.0097 181.00
94.0749 230.00
94.1401 207.00
94.2053 208.00
94.2705 207.00
94.3357 187.00
94.4009 213.00
94.4661 213.00
94.5313 204.00
94.5965 216.00
94.6617 182.00
94.7269 212.00
94.7921 176.00
94.8573 220.00
94.9225 197.00
94.9877 203.00
95.0529 200.00
95.1181 205.00
95.1833 184.00
95.2485 206.00
95.3137 212.00
95.3789 202.00
95.444 211.00
95.5092 203.00
95.5744 211.00
95.6396 203.00
95.7048 211.00
95.77 221.00
95.8352 191.00
95.9004 230.00
95.9656 225.00
96.0308 218.00
96.096 208.00
96.1612 220.00
96.2264 194.00
96.2916 197.00
96.3568 178.00
96.422 201.00
96.4872 212.00
96.5524 194.00
96.6176 196.00
96.6828 188.00
96.748 201.00
96.8132 192.00
96.8784 173.00
96.9436 197.00
97.0088 212.00
97.074 192.00
97.1392 189.00
97.2044 198.00
97.2696 213.00
97.3348 183.00
97.4 194.00
97.4652 190.00
97.5304 213.00
97.5956 204.00
97.6608 197.00
97.726 208.00
97.7912 238.00
97.8564 170.00
97.9216 200.00
97.9868 171.00
98.052 189.00
98.1172 189.00
98.1824 189.00
98.2476 192.00
98.3128 180.00
98.378 186.00
98.4432 183.00
98.5084 194.00
98.5736 179.00
98.6388 203.00
98.704 195.00
98.7692 204.00
98.8344 201.00
98.8996 190.00
98.9648 220.00
99.03 192.00
99.0952 168.00
99.1604 211.00
99.2256 207.00
99.2908 199.00
99.356 168.00
99.4212 182.00
99.4864 207.00
99.5516 182.00
99.6168 192.00
99.682 190.00
99.7472 189.00
99.8124 190.00
99.8776 191.00
99.9428 166.00
100.008 178.00
100.073 193.00
100.095 184.00