File: data/xrd_creation/results/Na_17.xy
9.903433 2680.00
9.968632 2652.00
10.0338 2683.00
10.099 2648.00
10.1642 2567.00
10.2294 2533.00
10.2946 2515.00
10.3598 2550.00
10.425 2407.00
10.4902 2488.00
10.5554 2414.00
10.6206 2439.00
10.6858 2452.00
10.751 2366.00
10.8162 2422.00
10.8814 2294.00
10.9466 2360.00
11.0118 2332.00
11.077 2387.00
11.1422 2351.00
11.2074 2239.00
11.2726 2333.00
11.3378 2265.00
11.403 2281.00
11.4682 2276.00
11.5334 2286.00
11.5986 2209.00
11.6638 2242.00
11.729 2429.00
11.7942 2443.00
11.8594 2614.00
11.9246 2991.00
11.9898 3507.00
12.055 4361.00
12.1202 5946.00
12.1854 8641.00
12.2506 11729.00
12.3158 11154.00
12.381 5474.00
12.4462 2971.00
12.5114 2420.00
12.5766 2292.00
12.6418 2163.00
12.707 2032.00
12.7722 2001.00
12.8374 1955.00
12.9026 1917.00
12.9678 1973.00
13.033 1909.00
13.0982 1874.00
13.1634 1852.00
13.2286 1892.00
13.2938 1809.00
13.359 1782.00
13.4242 1785.00
13.4894 1861.00
13.5546 1838.00
13.6198 1816.00
13.685 1797.00
13.7502 1807.00
13.8154 1668.00
13.8805 1818.00
13.9457 1838.00
14.0109 1695.00
14.0761 1771.00
14.1413 1742.00
14.2065 1661.00
14.2717 1660.00
14.3369 1724.00
14.4021 1778.00
14.4673 1721.00
14.5325 1671.00
14.5977 1700.00
14.6629 1718.00
14.7281 1624.00
14.7933 1678.00
14.8585 1644.00
14.9237 1648.00
14.9889 1615.00
15.0541 1668.00
15.1193 1670.00
15.1845 1638.00
15.2497 1523.00
15.3149 1552.00
15.3801 1697.00
15.4453 1553.00
15.5105 1626.00
15.5757 1553.00
15.6409 1578.00
15.7061 1583.00
15.7713 1567.00
15.8365 1569.00
15.9017 1488.00
15.9669 1579.00
16.0321 1565.00
16.0973 1577.00
16.1625 1605.00
16.2277 1526.00
16.2929 1492.00
16.3581 1499.00
16.4233 1511.00
16.4885 1461.00
16.5537 1523.00
16.6189 1523.00
16.6841 1474.00
16.7493 1463.00
16.8145 1450.00
16.8797 1443.00
16.9449 1593.00
17.0101 1435.00
17.0753 1410.00
17.1405 1425.00
17.2057 1496.00
17.2709 1466.00
17.3361 1422.00
17.4013 1473.00
17.4665 1431.00
17.5317 1446.00
17.5969 1420.00
17.6621 1379.00
17.7273 1376.00
17.7925 1439.00
17.8577 1414.00
17.9229 1414.00
17.9881 1366.00
18.0533 1390.00
18.1185 1437.00
18.1837 1445.00
18.2489 1346.00
18.3141 1329.00
18.3793 1338.00
18.4445 1344.00
18.5097 1295.00
18.5749 1329.00
18.6401 1294.00
18.7052 1351.00
18.7704 1354.00
18.8356 1362.00
18.9008 1285.00
18.966 1305.00
19.0312 1337.00
19.0964 1302.00
19.1616 1261.00
19.2268 1327.00
19.292 1284.00
19.3572 1347.00
19.4224 1262.00
19.4876 1305.00
19.5528 1166.00
19.618 1270.00
19.6832 1285.00
19.7484 1248.00
19.8136 1253.00
19.8788 1300.00
19.944 1267.00
20.0092 1156.00
20.0744 1218.00
20.1396 1168.00
20.2048 1224.00
20.27 1189.00
20.3352 1144.00
20.4004 1184.00
20.4656 1226.00
20.5308 1208.00
20.596 1251.00
20.6612 1142.00
20.7264 1180.00
20.7916 1173.00
20.8568 1206.00
20.922 1185.00
20.9872 1170.00
21.0524 1194.00
21.1176 1167.00
21.1828 1175.00
21.248 1163.00
21.3132 1181.00
21.3784 1140.00
21.4436 1230.00
21.5088 1144.00
21.574 1154.00
21.6392 1149.00
21.7044 1087.00
21.7696 1176.00
21.8348 1109.00
21.9 1106.00
21.9652 1066.00
22.0304 1124.00
22.0956 1129.00
22.1608 1094.00
22.226 1140.00
22.2912 1115.00
22.3564 1095.00
22.4216 1104.00
22.4868 1057.00
22.552 1108.00
22.6172 1047.00
22.6824 1176.00
22.7476 1045.00
22.8128 1057.00
22.878 1110.00
22.9432 1051.00
23.0084 1075.00
23.0736 1054.00
23.1388 1080.00
23.204 1069.00
23.2692 1116.00
23.3344 1105.00
23.3996 966.00
23.4647 1091.00
23.5299 1098.00
23.5951 1197.00
23.6603 1089.00
23.7255 1049.00
23.7907 1089.00
23.8559 1154.00
23.9211 1147.00
23.9863 1082.00
24.0515 1130.00
24.1167 1295.00
24.1819 1566.00
24.2471 2143.00
24.3123 3600.00
24.3775 6089.00
24.4427 6143.00
24.5079 3063.00
24.5731 1560.00
24.6383 1219.00
24.7035 1120.00
24.7687 1044.00
24.8339 1056.00
24.8991 1033.00
24.9643 987.00
25.0295 1022.00
25.0947 1056.00
25.1599 1117.00
25.2251 1096.00
25.2903 986.00
25.3555 1122.00
25.4207 1163.00
25.4859 1151.00
25.5511 1148.00
25.6163 1159.00
25.6815 1300.00
25.7467 1430.00
25.8119 1521.00
25.8771 2165.00
25.9423 3547.00
26.0075 7299.00
26.0727 13626.00
26.1379 15961.00
26.2031 8843.00
26.2683 3112.00
26.3335 1679.00
26.3987 1412.00
26.4639 1345.00
26.5291 1256.00
26.5943 1175.00
26.6595 1156.00
26.7247 1009.00
26.7899 1076.00
26.8551 1034.00
26.9203 1089.00
26.9855 995.00
27.0507 1078.00
27.1159 979.00
27.1811 1083.00
27.2463 1003.00
27.3115 1059.00
27.3767 1036.00
27.4419 1201.00
27.5071 1468.00
27.5723 2106.00
27.6375 2090.00
27.7027 1444.00
27.7679 1071.00
27.8331 962.00
27.8983 992.00
27.9635 1005.00
28.0287 954.00
28.0939 907.00
28.1591 881.00
28.2243 923.00
28.2894 914.00
28.3546 911.00
28.4198 924.00
28.485 965.00
28.5502 865.00
28.6154 924.00
28.6806 947.00
28.7458 900.00
28.811 957.00
28.8762 886.00
28.9414 871.00
29.0066 865.00
29.0718 912.00
29.137 888.00
29.2022 865.00
29.2674 869.00
29.3326 819.00
29.3978 857.00
29.463 894.00
29.5282 911.00
29.5934 919.00
29.6586 849.00
29.7238 846.00
29.789 913.00
29.8542 863.00
29.9194 852.00
29.9846 878.00
30.0498 918.00
30.115 883.00
30.1802 888.00
30.2454 963.00
30.3106 1043.00
30.3758 1204.00
30.441 1155.00
30.5062 986.00
30.5714 911.00
30.6366 909.00
30.7018 921.00
30.767 938.00
30.8322 967.00
30.8974 975.00
30.9626 939.00
31.0278 887.00
31.093 947.00
31.1582 926.00
31.2234 968.00
31.2886 1005.00
31.3538 938.00
31.419 1020.00
31.4842 1040.00
31.5494 1029.00
31.6146 1163.00
31.6798 1421.00
31.745 1946.00
31.8102 4084.00
31.8754 9024.00
31.9406 14043.00
32.0058 9288.00
32.071 3870.00
32.1362 1513.00
32.2014 1186.00
32.2666 1160.00
32.3318 1166.00
32.397 1205.00
32.4622 1239.00
32.5274 1555.00
32.5926 2502.00
32.6578 5151.00
32.723 9620.00
32.7882 9953.00
32.8534 5855.00
32.9186 2256.00
32.9838 1396.00
33.0489 1229.00
33.1141 1257.00
33.1793 1183.00
33.2445 1267.00
33.3097 1352.00
33.3749 1476.00
33.4401 1851.00
33.5053 2717.00
33.5705 5035.00
33.6357 10865.00
33.7009 17944.00
33.7661 13670.00
33.8313 7225.00
33.8965 2598.00
33.9617 1501.00
34.0269 1311.00
34.0921 1142.00
34.1573 958.00
34.2225 945.00
34.2877 920.00
34.3529 925.00
34.4181 912.00
34.4833 881.00
34.5485 912.00
34.6137 826.00
34.6789 935.00
34.7441 964.00
34.8093 991.00
34.8745 1072.00
34.9397 1454.00
35.0049 1881.00
35.0701 1627.00
35.1353 1172.00
35.2005 910.00
35.2657 807.00
35.3309 815.00
35.3961 882.00
35.4613 903.00
35.5265 906.00
35.5917 775.00
35.6569 767.00
35.7221 781.00
35.7873 783.00
35.8525 690.00
35.9177 765.00
35.9829 753.00
36.0481 737.00
36.1133 693.00
36.1785 748.00
36.2437 759.00
36.3089 766.00
36.3741 768.00
36.4393 784.00
36.5045 817.00
36.5697 909.00
36.6349 1110.00
36.7001 1819.00
36.7653 3657.00
36.8305 5013.00
36.8957 3330.00
36.9609 1872.00
37.0261 1004.00
37.0913 831.00
37.1565 751.00
37.2217 715.00
37.2869 641.00
37.3521 701.00
37.4173 700.00
37.4825 700.00
37.5477 638.00
37.6129 653.00
37.6781 714.00
37.7433 635.00
37.8085 659.00
37.8736 654.00
37.9388 653.00
38.004 686.00
38.0692 722.00
38.1344 739.00
38.1996 836.00
38.2648 826.00
38.33 731.00
38.3952 695.00
38.4604 676.00
38.5256 605.00
38.5908 661.00
38.656 608.00
38.7212 607.00
38.7864 663.00
38.8516 669.00
38.9168 600.00
38.982 655.00
39.0472 624.00
39.1124 585.00
39.1776 595.00
39.2428 643.00
39.308 555.00
39.3732 616.00
39.4384 590.00
39.5036 584.00
39.5688 670.00
39.634 578.00
39.6992 637.00
39.7644 649.00
39.8296 586.00
39.8948 577.00
39.96 606.00
40.0252 597.00
40.0904 667.00
40.1556 760.00
40.2208 742.00
40.286 726.00
40.3512 648.00
40.4164 649.00
40.4816 640.00
40.5468 587.00
40.612 685.00
40.6772 697.00
40.7424 717.00
40.8076 744.00
40.8728 868.00
40.938 1017.00
41.0032 1613.00
41.0684 3190.00
41.1336 4756.00
41.1988 3486.00
41.264 2388.00
41.3292 1269.00
41.3944 968.00
41.4596 796.00
41.5248 661.00
41.59 714.00
41.6552 685.00
41.7204 721.00
41.7856 695.00
41.8508 703.00
41.916 580.00
41.9812 566.00
42.0464 593.00
42.1116 552.00
42.1768 591.00
42.242 555.00
42.3072 557.00
42.3724 560.00
42.4376 621.00
42.5028 627.00
42.568 607.00
42.6332 619.00
42.6983 596.00
42.7635 572.00
42.8287 567.00
42.8939 552.00
42.9591 586.00
43.0243 503.00
43.0895 564.00
43.1547 534.00
43.2199 553.00
43.2851 558.00
43.3503 537.00
43.4155 564.00
43.4807 535.00
43.5459 570.00
43.6111 548.00
43.6763 624.00
43.7415 624.00
43.8067 637.00
43.8719 585.00
43.9371 591.00
44.0023 545.00
44.0675 600.00
44.1327 550.00
44.1979 583.00
44.2631 618.00
44.3283 556.00
44.3935 595.00
44.4587 566.00
44.5239 549.00
44.5891 556.00
44.6543 565.00
44.7195 579.00
44.7847 581.00
44.8499 609.00
44.9151 583.00
44.9803 573.00
45.0455 647.00
45.1107 636.00
45.1759 668.00
45.2411 721.00
45.3063 773.00
45.3715 888.00
45.4367 1000.00
45.5019 1511.00
45.5671 3141.00
45.6323 6645.00
45.6975 6444.00
45.7627 4443.00
45.8279 2733.00
45.8931 1087.00
45.9583 804.00
46.0235 685.00
46.0887 625.00
46.1539 636.00
46.2191 636.00
46.2843 601.00
46.3495 680.00
46.4147 694.00
46.4799 707.00
46.5451 734.00
46.6103 825.00
46.6755 1052.00
46.7407 1694.00
46.8059 3298.00
46.8711 4784.00
46.9363 3378.00
47.0015 2691.00
47.0667 1351.00
47.1319 887.00
47.1971 694.00
47.2623 653.00
47.3275 642.00
47.3927 589.00
47.4579 580.00
47.523 610.00
47.5882 553.00
47.6534 551.00
47.7186 568.00
47.7838 566.00
47.849 604.00
47.9142 566.00
47.9794 534.00
48.0446 598.00
48.1098 541.00
48.175 562.00
48.2402 626.00
48.3054 678.00
48.3706 732.00
48.4358 906.00
48.501 1264.00
48.5662 1629.00
48.6314 1278.00
48.6966 1111.00
48.7618 753.00
48.827 628.00
48.8922 610.00
48.9574 553.00
49.0226 558.00
49.0878 550.00
49.153 537.00
49.2182 609.00
49.2834 621.00
49.3486 601.00
49.4138 666.00
49.479 665.00
49.5442 770.00
49.6094 1020.00
49.6746 1502.00
49.7398 1450.00
49.805 1761.00
49.8702 2896.00
49.9354 4148.00
50.0006 3257.00
50.0658 2635.00
50.131 1679.00
50.1962 884.00
50.2614 666.00
50.3266 721.00
50.3918 564.00
50.457 533.00
50.5222 575.00
50.5874 505.00
50.6526 579.00
50.7178 485.00
50.783 524.00
50.8482 535.00
50.9134 557.00
50.9786 522.00
51.0438 555.00
51.109 489.00
51.1742 546.00
51.2394 572.00
51.3046 524.00
51.3698 558.00
51.435 532.00
51.5002 527.00
51.5654 531.00
51.6306 487.00
51.6958 513.00
51.761 512.00
51.8262 538.00
51.8914 543.00
51.9566 542.00
52.0218 500.00
52.087 519.00
52.1522 512.00
52.2174 496.00
52.2826 587.00
52.3477 485.00
52.4129 519.00
52.4781 550.00
52.5433 519.00
52.6085 483.00
52.6737 545.00
52.7389 523.00
52.8041 589.00
52.8693 572.00
52.9345 572.00
52.9997 509.00
53.0649 592.00
53.1301 533.00
53.1953 650.00
53.2605 727.00
53.3257 972.00
53.3909 1363.00
53.4561 1283.00
53.5213 1054.00
53.5865 908.00
53.6517 698.00
53.7169 658.00
53.7821 626.00
53.8473 625.00
53.9125 699.00
53.9777 735.00
54.0429 1026.00
54.1081 1132.00
54.1733 1380.00
54.2385 2345.00
54.3037 4133.00
54.3689 3141.00
54.4341 2575.00
54.4993 1964.00
54.5645 1031.00
54.6297 795.00
54.6949 715.00
54.7601 710.00
54.8253 709.00
54.8905 706.00
54.9557 708.00
55.0209 854.00
55.0861 979.00
55.1513 1069.00
55.2165 1629.00
55.2817 2930.00
55.3469 4443.00
55.4121 3185.00
55.4773 2634.00
55.5425 2045.00
55.6077 1050.00
55.6729 805.00
55.7381 710.00
55.8033 652.00
55.8685 593.00
55.9337 584.00
55.9989 559.00
56.0641 543.00
56.1293 602.00
56.1945 562.00
56.2597 548.00
56.3249 583.00
56.3901 616.00
56.4553 666.00
56.5205 897.00
56.5857 1408.00
56.6509 2360.00
56.7161 1876.00
56.7813 1489.00
56.8465 1380.00
56.9117 826.00
56.9769 661.00
57.042 609.00
57.1073 569.00
57.1724 553.00
57.2376 632.00
57.3028 583.00
57.368 559.00
57.4332 542.00
57.4984 534.00
57.5636 539.00
57.6288 514.00
57.694 496.00
57.7592 524.00
57.8244 514.00
57.8896 578.00
57.9548 521.00
58.02 493.00
58.0852 528.00
58.1504 524.00
58.2156 547.00
58.2808 566.00
58.346 591.00
58.4112 638.00
58.4764 724.00
58.5416 877.00
58.6068 962.00
58.672 1515.00
58.7372 2625.00
58.8024 4629.00
58.8676 4508.00
58.9328 2993.00
58.998 2892.00
59.0632 1592.00
59.1284 927.00
59.1936 735.00
59.2588 643.00
59.324 591.00
59.3892 515.00
59.4544 499.00
59.5196 497.00
59.5848 473.00
59.65 505.00
59.7152 503.00
59.7804 485.00
59.8456 495.00
59.9108 502.00
59.976 477.00
60.0412 496.00
60.1064 535.00
60.1716 524.00
60.2368 528.00
60.302 544.00
60.3672 615.00
60.4324 684.00
60.4976 766.00
60.5628 1021.00
60.628 1431.00
60.6932 1281.00
60.7584 1314.00
60.8236 1753.00
60.8888 1928.00
60.954 1296.00
61.0192 1166.00
61.0844 955.00
61.1496 658.00
61.2148 546.00
61.28 504.00
61.3452 516.00
61.4104 466.00
61.4756 477.00
61.5408 474.00
61.606 447.00
61.6712 471.00
61.7364 407.00
61.8016 460.00
61.8667 484.00
61.932 441.00
61.9971 476.00
62.0623 510.00
62.1275 476.00
62.1927 497.00
62.2579 495.00
62.3231 465.00
62.3883 473.00
62.4535 473.00
62.5187 435.00
62.5839 448.00
62.6491 417.00
62.7143 525.00
62.7795 480.00
62.8447 515.00
62.9099 523.00
62.9751 469.00
63.0403 524.00
63.1055 569.00
63.1707 671.00
63.2359 861.00
63.3011 875.00
63.3663 660.00
63.4315 725.00
63.4967 563.00
63.5619 496.00
63.6271 472.00
63.6923 436.00
63.7575 456.00
63.8227 473.00
63.8879 464.00
63.9531 441.00
64.0183 463.00
64.0835 444.00
64.1487 462.00
64.2139 468.00
64.2791 409.00
64.3443 451.00
64.4095 415.00
64.4747 458.00
64.5399 445.00
64.6051 447.00
64.6703 419.00
64.7355 458.00
64.8007 409.00
64.8659 476.00
64.9311 418.00
64.9963 427.00
65.0615 474.00
65.1267 408.00
65.1919 433.00
65.2571 437.00
65.3223 429.00
65.3875 435.00
65.4527 436.00
65.5179 402.00
65.5831 397.00
65.6483 472.00
65.7135 402.00
65.7787 436.00
65.8439 483.00
65.9091 482.00
65.9743 464.00
66.0395 470.00
66.1047 477.00
66.1699 498.00
66.2351 523.00
66.3003 596.00
66.3655 952.00
66.4307 1115.00
66.4959 719.00
66.561 773.00
66.6263 767.00
66.6915 529.00
66.7566 475.00
66.8218 422.00
66.887 414.00
66.9522 478.00
67.0174 449.00
67.0826 459.00
67.1478 419.00
67.213 421.00
67.2782 424.00
67.3434 487.00
67.4086 456.00
67.4738 433.00
67.539 414.00
67.6042 466.00
67.6694 456.00
67.7346 469.00
67.7998 503.00
67.865 510.00
67.9302 561.00
67.9954 671.00
68.0606 909.00
68.1258 1257.00
68.191 1743.00
68.2562 1866.00
68.3214 1766.00
68.3866 1344.00
68.4518 1158.00
68.517 921.00
68.5822 641.00
68.6474 529.00
68.7126 526.00
68.7778 441.00
68.843 458.00
68.9082 446.00
68.9734 464.00
69.0386 436.00
69.1038 444.00
69.169 453.00
69.2342 443.00
69.2994 418.00
69.3646 430.00
69.4298 482.00
69.495 475.00
69.5602 532.00
69.6254 686.00
69.6906 571.00
69.7558 526.00
69.821 548.00
69.8862 467.00
69.9514 475.00
70.0166 493.00
70.0818 423.00
70.147 441.00
70.2122 465.00
70.2774 479.00
70.3426 485.00
70.4078 536.00
70.473 611.00
70.5382 660.00
70.6034 605.00
70.6686 591.00
70.7338 563.00
70.799 490.00
70.8642 463.00
70.9294 437.00
70.9946 428.00
71.0598 427.00
71.125 403.00
71.1902 426.00
71.2554 395.00
71.3205 417.00
71.3858 458.00
71.451 439.00
71.5162 394.00
71.5813 438.00
71.6465 402.00
71.7117 407.00
71.7769 381.00
71.8421 448.00
71.9073 437.00
71.9725 440.00
72.0377 385.00
72.1029 416.00
72.1681 452.00
72.2333 395.00
72.2985 432.00
72.3637 424.00
72.4289 408.00
72.4941 432.00
72.5593 450.00
72.6245 451.00
72.6897 472.00
72.7549 531.00
72.8201 624.00
72.8853 775.00
72.9505 837.00
73.0157 682.00
73.0809 614.00
73.1461 678.00
73.2113 675.00
73.2765 589.00
73.3417 530.00
73.4069 552.00
73.4721 600.00
73.5373 648.00
73.6025 734.00
73.6677 602.00
73.7329 599.00
73.7981 611.00
73.8633 596.00
73.9285 483.00
73.9937 496.00
74.0589 483.00
74.1241 513.00
74.1893 605.00
74.2545 718.00
74.3197 972.00
74.3849 965.00
74.4501 723.00
74.5153 762.00
74.5805 786.00
74.6457 608.00
74.7109 589.00
74.7761 600.00
74.8413 634.00
74.9065 616.00
74.9717 802.00
75.0369 912.00
75.1021 1304.00
75.1673 2030.00
75.2325 2390.00
75.2977 1723.00
75.3629 2008.00
75.4281 2947.00
75.4933 2361.00
75.5585 1277.00
75.6237 1213.00
75.6889 1347.00
75.7541 850.00
75.8193 643.00
75.8845 572.00
75.9497 530.00
76.0149 485.00
76.0801 455.00
76.1452 471.00
76.2104 447.00
76.2756 449.00
76.3409 478.00
76.406 510.00
76.4712 476.00
76.5364 481.00
76.6016 409.00
76.6668 483.00
76.732 456.00
76.7972 446.00
76.8624 423.00
76.9276 433.00
76.9928 470.00
77.058 466.00
77.1232 483.00
77.1884 502.00
77.2536 439.00
77.3188 492.00
77.384 574.00
77.4492 544.00
77.5144 736.00
77.5796 967.00
77.6448 1384.00
77.71 1513.00
77.7752 1220.00
77.8404 1386.00
77.9056 1826.00
77.9708 1340.00
78.036 1029.00
78.1012 1135.00
78.1664 1365.00
78.2316 1299.00
78.2968 906.00
78.362 849.00
78.4272 836.00
78.4924 665.00
78.5576 544.00
78.6228 528.00
78.688 496.00
78.7532 515.00
78.8184 475.00
78.8836 560.00
78.9488 615.00
79.014 557.00
79.0792 505.00
79.1444 537.00
79.2096 541.00
79.2748 457.00
79.34 481.00
79.4052 427.00
79.4704 447.00
79.5356 447.00
79.6008 465.00
79.666 425.00
79.7312 476.00
79.7964 510.00
79.8616 580.00
79.9268 630.00
79.992 862.00
80.0572 910.00
80.1224 680.00
80.1876 652.00
80.2528 668.00
80.318 592.00
80.3832 519.00
80.4484 493.00
80.5136 454.00
80.5788 434.00
80.644 422.00
80.7092 452.00
80.7744 467.00
80.8396 445.00
80.9048 442.00
80.9699 426.00
81.0351 392.00
81.1003 452.00
81.1655 428.00
81.2307 443.00
81.2959 425.00
81.3611 425.00
81.4263 401.00
81.4915 433.00
81.5567 429.00
81.6219 418.00
81.6871 459.00
81.7523 443.00
81.8175 456.00
81.8827 522.00
81.9479 532.00
82.0131 559.00
82.0783 635.00
82.1435 784.00
82.2087 710.00
82.2739 582.00
82.3391 605.00
82.4043 676.00
82.4695 566.00
82.5347 526.00
82.5999 617.00
82.6651 730.00
82.7303 844.00
82.7955 909.00
82.8607 675.00
82.9259 634.00
82.9911 701.00
83.0563 603.00
83.1215 581.00
83.1867 484.00
83.2519 456.00
83.3171 446.00
83.3823 455.00
83.4475 416.00
83.5127 472.00
83.5779 434.00
83.6431 500.00
83.7083 495.00
83.7735 484.00
83.8387 519.00
83.9039 563.00
83.9691 675.00
84.0343 783.00
84.0995 1331.00
84.1647 1380.00
84.2299 881.00
84.2951 750.00
84.3603 921.00
84.4255 916.00
84.4907 589.00
84.5559 578.00
84.6211 486.00
84.6863 452.00
84.7515 420.00
84.8167 441.00
84.8819 410.00
84.9471 400.00
85.0123 408.00
85.0775 410.00
85.1427 423.00
85.2079 410.00
85.2731 446.00
85.3383 476.00
85.4035 402.00
85.4687 462.00
85.5339 467.00
85.5991 440.00
85.6643 417.00
85.7295 441.00
85.7946 476.00
85.8598 414.00
85.925 403.00
85.9903 426.00
86.0554 464.00
86.1206 462.00
86.1858 489.00
86.251 492.00
86.3162 489.00
86.3814 528.00
86.4466 587.00
86.5118 620.00
86.577 853.00
86.6422 1052.00
86.7074 914.00
86.7726 877.00
86.8378 1087.00
86.903 1428.00
86.9682 1620.00
87.0334 1088.00
87.0986 837.00
87.1638 912.00
87.229 933.00
87.2942 700.00
87.3594 614.00
87.4246 494.00
87.4898 478.00
87.555 467.00
87.6202 469.00
87.6854 449.00
87.7506 412.00
87.8158 429.00
87.881 413.00
87.9462 413.00
88.0114 409.00
88.0766 391.00
88.1418 458.00
88.207 443.00
88.2722 440.00
88.3374 439.00
88.4026 435.00
88.4678 433.00
88.533 454.00
88.5982 529.00
88.6634 509.00
88.7286 566.00
88.7938 670.00
88.859 734.00
88.9242 871.00
88.9894 1048.00
89.0546 1273.00
89.1198 933.00
89.185 832.00
89.2502 802.00
89.3154 857.00
89.3806 643.00
89.4458 579.00
89.511 496.00
89.5762 452.00
89.6414 456.00
89.7066 412.00
89.7718 408.00
89.837 399.00
89.9022 395.00
89.9674 418.00
90.0326 421.00
90.0978 435.00
90.163 396.00
90.2282 428.00
90.2934 396.00
90.3586 412.00
90.4238 450.00
90.489 461.00
90.5542 490.00
90.6193 460.00
90.6845 428.00
90.7497 423.00
90.8149 468.00
90.8801 458.00
90.9453 415.00
91.0105 406.00
91.0757 408.00
91.1409 432.00
91.2061 404.00
91.2713 418.00
91.3365 407.00
91.4017 441.00
91.4669 425.00
91.5321 395.00
91.5973 436.00
91.6625 418.00
91.7277 411.00
91.7929 382.00
91.8581 412.00
91.9233 435.00
91.9885 408.00
92.0537 437.00
92.1189 455.00
92.1841 494.00
92.2493 522.00
92.3145 569.00
92.3797 646.00
92.4449 857.00
92.5101 933.00
92.5753 742.00
92.6405 570.00
92.7057 679.00
92.7709 666.00
92.8361 611.00
92.9013 590.00
92.9665 504.00
93.0317 500.00
93.0969 533.00
93.1621 550.00
93.2273 682.00
93.2925 813.00
93.3577 798.00
93.4229 638.00
93.4881 566.00
93.5533 658.00
93.6185 634.00
93.6837 599.00
93.7489 495.00
93.8141 477.00
93.8793 476.00
93.9445 433.00
94.0097 403.00
94.0749 428.00
94.1401 421.00
94.2053 460.00
94.2705 448.00
94.3357 391.00
94.4009 388.00
94.4661 426.00
94.5313 412.00
94.5965 408.00
94.6617 436.00
94.7269 402.00
94.7921 441.00
94.8573 411.00
94.9225 458.00
94.9877 416.00
95.0529 445.00
95.1181 432.00
95.1833 440.00
95.2485 436.00
95.3137 475.00
95.3789 465.00
95.444 455.00
95.5092 469.00
95.5744 550.00
95.6396 504.00
95.7048 580.00
95.77 774.00
95.8352 903.00
95.9004 1181.00
95.9656 1195.00
96.0308 910.00
96.096 1010.00
96.1612 1211.00
96.2264 1574.00
96.2916 1427.00
96.3568 952.00
96.422 776.00
96.4872 777.00
96.5524 840.00
96.6176 770.00
96.6828 625.00
96.748 494.00
96.8132 501.00
96.8784 489.00
96.9436 436.00
97.0088 423.00
97.074 440.00
97.1392 472.00
97.2044 466.00
97.2696 422.00
97.3348 454.00
97.4 430.00
97.4652 411.00
97.5304 385.00
97.5956 495.00
97.6608 503.00
97.726 597.00
97.7912 666.00
97.8564 644.00
97.9216 568.00
97.9868 509.00
98.052 539.00
98.1172 566.00
98.1824 545.00
98.2476 512.00
98.3128 475.00
98.378 505.00
98.4432 489.00
98.5084 528.00
98.5736 584.00
98.6388 639.00
98.704 841.00
98.7692 927.00
98.8344 812.00
98.8996 609.00
98.9648 628.00
99.03 630.00
99.0952 714.00
99.1604 663.00
99.2256 548.00
99.2908 466.00
99.356 472.00
99.4212 458.00
99.4864 433.00
99.5516 416.00
99.6168 445.00
99.682 437.00
99.7472 360.00
99.8124 447.00
99.8776 449.00
99.9428 424.00
100.008 498.00
100.073 537.00
100.095 520.00