File: data/xrd_creation/results/Na_103.xy
9.903433 2838.00
9.968632 2723.00
10.0338 2700.00
10.099 2759.00
10.1642 2700.00
10.2294 2581.00
10.2946 2521.00
10.3598 2577.00
10.425 2619.00
10.4902 2586.00
10.5554 2529.00
10.6206 2516.00
10.6858 2584.00
10.751 2517.00
10.8162 2495.00
10.8814 2401.00
10.9466 2441.00
11.0118 2483.00
11.077 2360.00
11.1422 2325.00
11.2074 2509.00
11.2726 2399.00
11.3378 2295.00
11.403 2269.00
11.4682 2281.00
11.5334 2207.00
11.5986 2321.00
11.6638 2234.00
11.729 2225.00
11.7942 2222.00
11.8594 2213.00
11.9246 2193.00
11.9898 2227.00
12.055 2192.00
12.1202 2167.00
12.1854 2120.00
12.2506 2151.00
12.3158 2128.00
12.381 2130.00
12.4462 2026.00
12.5114 2143.00
12.5766 1996.00
12.6418 1997.00
12.707 1998.00
12.7722 1956.00
12.8374 1961.00
12.9026 1997.00
12.9678 1926.00
13.033 1963.00
13.0982 2031.00
13.1634 1856.00
13.2286 1932.00
13.2938 1947.00
13.359 1943.00
13.4242 1878.00
13.4894 1758.00
13.5546 1931.00
13.6198 1852.00
13.685 1909.00
13.7502 1849.00
13.8154 1949.00
13.8805 1862.00
13.9457 1777.00
14.0109 1798.00
14.0761 1798.00
14.1413 1786.00
14.2065 1799.00
14.2717 1717.00
14.3369 1824.00
14.4021 1859.00
14.4673 1809.00
14.5325 1705.00
14.5977 1767.00
14.6629 1776.00
14.7281 1775.00
14.7933 1708.00
14.8585 1682.00
14.9237 1665.00
14.9889 1761.00
15.0541 1680.00
15.1193 1653.00
15.1845 1704.00
15.2497 1661.00
15.3149 1657.00
15.3801 1728.00
15.4453 1619.00
15.5105 1678.00
15.5757 1708.00
15.6409 1672.00
15.7061 1628.00
15.7713 1658.00
15.8365 1606.00
15.9017 1612.00
15.9669 1633.00
16.0321 1596.00
16.0973 1658.00
16.1625 1597.00
16.2277 1558.00
16.2929 1660.00
16.3581 1660.00
16.4233 1585.00
16.4885 1610.00
16.5537 1559.00
16.6189 1598.00
16.6841 1629.00
16.7493 1543.00
16.8145 1563.00
16.8797 1587.00
16.9449 1565.00
17.0101 1548.00
17.0753 1542.00
17.1405 1561.00
17.2057 1533.00
17.2709 1502.00
17.3361 1564.00
17.4013 1562.00
17.4665 1594.00
17.5317 1587.00
17.5969 1565.00
17.6621 1551.00
17.7273 1535.00
17.7925 1564.00
17.8577 1531.00
17.9229 1506.00
17.9881 1525.00
18.0533 1482.00
18.1185 1548.00
18.1837 1492.00
18.2489 1489.00
18.3141 1454.00
18.3793 1443.00
18.4445 1483.00
18.5097 1407.00
18.5749 1405.00
18.6401 1439.00
18.7052 1448.00
18.7704 1471.00
18.8356 1389.00
18.9008 1431.00
18.966 1414.00
19.0312 1514.00
19.0964 1355.00
19.1616 1403.00
19.2268 1436.00
19.292 1484.00
19.3572 1445.00
19.4224 1562.00
19.4876 1558.00
19.5528 1620.00
19.618 1534.00
19.6832 1463.00
19.7484 1395.00
19.8136 1391.00
19.8788 1315.00
19.944 1331.00
20.0092 1350.00
20.0744 1366.00
20.1396 1290.00
20.2048 1362.00
20.27 1337.00
20.3352 1352.00
20.4004 1281.00
20.4656 1302.00
20.5308 1404.00
20.596 1384.00
20.6612 1321.00
20.7264 1354.00
20.7916 1295.00
20.8568 1324.00
20.922 1310.00
20.9872 1368.00
21.0524 1322.00
21.1176 1312.00
21.1828 1293.00
21.248 1362.00
21.3132 1330.00
21.3784 1359.00
21.4436 1385.00
21.5088 1550.00
21.574 1566.00
21.6392 1732.00
21.7044 1875.00
21.7696 1817.00
21.8348 1658.00
21.9 1484.00
21.9652 1407.00
22.0304 1316.00
22.0956 1380.00
22.1608 1295.00
22.226 1328.00
22.2912 1330.00
22.3564 1386.00
22.4216 1550.00
22.4868 1603.00
22.552 1674.00
22.6172 1729.00
22.6824 1514.00
22.7476 1377.00
22.8128 1235.00
22.878 1187.00
22.9432 1257.00
23.0084 1171.00
23.0736 1199.00
23.1388 1183.00
23.204 1190.00
23.2692 1191.00
23.3344 1147.00
23.3996 1185.00
23.4647 1129.00
23.5299 1176.00
23.5951 1209.00
23.6603 1159.00
23.7255 1152.00
23.7907 1148.00
23.8559 1175.00
23.9211 1169.00
23.9863 1137.00
24.0515 1214.00
24.1167 1203.00
24.1819 1220.00
24.2471 1160.00
24.3123 1119.00
24.3775 1153.00
24.4427 1172.00
24.5079 1085.00
24.5731 1145.00
24.6383 1054.00
24.7035 1100.00
24.7687 1055.00
24.8339 1142.00
24.8991 1085.00
24.9643 1142.00
25.0295 1094.00
25.0947 1165.00
25.1599 1066.00
25.2251 1204.00
25.2903 1177.00
25.3555 1171.00
25.4207 1123.00
25.4859 1125.00
25.5511 1159.00
25.6163 1095.00
25.6815 1191.00
25.7467 1120.00
25.8119 1127.00
25.8771 1205.00
25.9423 1223.00
26.0075 1222.00
26.0727 1286.00
26.1379 1355.00
26.2031 1397.00
26.2683 1374.00
26.3335 1516.00
26.3987 1776.00
26.4639 2108.00
26.5291 2585.00
26.5943 3519.00
26.6595 4932.00
26.7247 7314.00
26.7899 11641.00
26.8551 17422.00
26.9203 18111.00
26.9855 10810.00
27.0507 5060.00
27.1159 3029.00
27.1811 2245.00
27.2463 1887.00
27.3115 1669.00
27.3767 1355.00
27.4419 1266.00
27.5071 1330.00
27.5723 1366.00
27.6375 1232.00
27.7027 1258.00
27.7679 1187.00
27.8331 1127.00
27.8983 1141.00
27.9635 1132.00
28.0287 1114.00
28.0939 1126.00
28.1591 1125.00
28.2243 1163.00
28.2894 1264.00
28.3546 1273.00
28.4198 1224.00
28.485 1198.00
28.5502 1125.00
28.6154 1071.00
28.6806 1034.00
28.7458 1009.00
28.811 1021.00
28.8762 1008.00
28.9414 966.00
29.0066 995.00
29.0718 1042.00
29.137 1062.00
29.2022 1072.00
29.2674 1059.00
29.3326 1120.00
29.3978 1099.00
29.463 1172.00
29.5282 1277.00
29.5934 1475.00
29.6586 1561.00
29.7238 1909.00
29.789 2545.00
29.8542 3286.00
29.9194 4725.00
29.9846 5546.00
30.0498 4945.00
30.115 3672.00
30.1802 2647.00
30.2454 2295.00
30.3106 2267.00
30.3758 2414.00
30.441 2642.00
30.5062 2362.00
30.5714 2141.00
30.6366 1809.00
30.7018 1609.00
30.767 1416.00
30.8322 1333.00
30.8974 1259.00
30.9626 1189.00
31.0278 1047.00
31.093 1051.00
31.1582 1079.00
31.2234 1001.00
31.2886 987.00
31.3538 987.00
31.419 953.00
31.4842 939.00
31.5494 951.00
31.6146 931.00
31.6798 1009.00
31.745 961.00
31.8102 1004.00
31.8754 1078.00
31.9406 1022.00
32.0058 1021.00
32.071 975.00
32.1362 988.00
32.2014 865.00
32.2666 873.00
32.3318 850.00
32.397 890.00
32.4622 940.00
32.5274 812.00
32.5926 795.00
32.6578 821.00
32.723 853.00
32.7882 846.00
32.8534 826.00
32.9186 904.00
32.9838 847.00
33.0489 924.00
33.1141 920.00
33.1793 898.00
33.2445 910.00
33.3097 934.00
33.3749 991.00
33.4401 1039.00
33.5053 1032.00
33.5705 1084.00
33.6357 1207.00
33.7009 1371.00
33.7661 1669.00
33.8313 2071.00
33.8965 2830.00
33.9617 4017.00
34.0269 6805.00
34.0921 11107.00
34.1573 16112.00
34.2225 13724.00
34.2877 8533.00
34.3529 4182.00
34.4181 2615.00
34.4833 1972.00
34.5485 1588.00
34.6137 1244.00
34.6789 1093.00
34.7441 1035.00
34.8093 969.00
34.8745 941.00
34.9397 929.00
35.0049 881.00
35.0701 823.00
35.1353 826.00
35.2005 806.00
35.2657 872.00
35.3309 819.00
35.3961 823.00
35.4613 883.00
35.5265 850.00
35.5917 955.00
35.6569 970.00
35.7221 964.00
35.7873 1046.00
35.8525 1127.00
35.9177 1076.00
35.9829 1073.00
36.0481 978.00
36.1133 925.00
36.1785 868.00
36.2437 766.00
36.3089 766.00
36.3741 714.00
36.4393 787.00
36.5045 691.00
36.5697 713.00
36.6349 770.00
36.7001 702.00
36.7653 749.00
36.8305 654.00
36.8957 714.00
36.9609 704.00
37.0261 729.00
37.0913 723.00
37.1565 722.00
37.2217 741.00
37.2869 781.00
37.3521 828.00
37.4173 893.00
37.4825 990.00
37.5477 1043.00
37.6129 1066.00
37.6781 1183.00
37.7433 1086.00
37.8085 1028.00
37.8736 1088.00
37.9388 1179.00
38.004 1404.00
38.0692 1804.00
38.1344 2776.00
38.1996 4310.00
38.2648 4862.00
38.33 3754.00
38.3952 2355.00
38.4604 1498.00
38.5256 1076.00
38.5908 893.00
38.656 842.00
38.7212 767.00
38.7864 706.00
38.8516 726.00
38.9168 735.00
38.982 737.00
39.0472 786.00
39.1124 868.00
39.1776 1131.00
39.2428 1515.00
39.308 1454.00
39.3732 1200.00
39.4384 861.00
39.5036 807.00
39.5688 698.00
39.634 695.00
39.6992 666.00
39.7644 618.00
39.8296 642.00
39.8948 564.00
39.96 648.00
40.0252 602.00
40.0904 604.00
40.1556 570.00
40.2208 590.00
40.286 569.00
40.3512 558.00
40.4164 554.00
40.4816 520.00
40.5468 571.00
40.612 573.00
40.6772 604.00
40.7424 550.00
40.8076 558.00
40.8728 626.00
40.938 588.00
41.0032 591.00
41.0684 583.00
41.1336 550.00
41.1988 581.00
41.264 567.00
41.3292 545.00
41.3944 578.00
41.4596 519.00
41.5248 568.00
41.59 573.00
41.6552 574.00
41.7204 540.00
41.7856 539.00
41.8508 556.00
41.916 595.00
41.9812 571.00
42.0464 577.00
42.1116 581.00
42.1768 558.00
42.242 627.00
42.3072 625.00
42.3724 580.00
42.4376 577.00
42.5028 611.00
42.568 576.00
42.6332 605.00
42.6983 589.00
42.7635 616.00
42.8287 713.00
42.8939 789.00
42.9591 900.00
43.0243 828.00
43.0895 770.00
43.1547 794.00
43.2199 835.00
43.2851 947.00
43.3503 1053.00
43.4155 978.00
43.4807 884.00
43.5459 794.00
43.6111 742.00
43.6763 658.00
43.7415 704.00
43.8067 700.00
43.8719 710.00
43.9371 739.00
44.0023 769.00
44.0675 772.00
44.1327 722.00
44.1979 704.00
44.2631 692.00
44.3283 701.00
44.3935 730.00
44.4587 729.00
44.5239 660.00
44.5891 625.00
44.6543 666.00
44.7195 609.00
44.7847 640.00
44.8499 610.00
44.9151 551.00
44.9803 596.00
45.0455 551.00
45.1107 573.00
45.1759 555.00
45.2411 653.00
45.3063 643.00
45.3715 633.00
45.4367 551.00
45.5019 557.00
45.5671 528.00
45.6323 547.00
45.6975 518.00
45.7627 505.00
45.8279 478.00
45.8931 500.00
45.9583 539.00
46.0235 456.00
46.0887 525.00
46.1539 499.00
46.2191 501.00
46.2843 486.00
46.3495 500.00
46.4147 499.00
46.4799 500.00
46.5451 479.00
46.6103 472.00
46.6755 446.00
46.7407 501.00
46.8059 502.00
46.8711 512.00
46.9363 437.00
47.0015 450.00
47.0667 467.00
47.1319 459.00
47.1971 476.00
47.2623 496.00
47.3275 477.00
47.3927 433.00
47.4579 472.00
47.523 476.00
47.5882 503.00
47.6534 436.00
47.7186 429.00
47.7838 454.00
47.849 448.00
47.9142 505.00
47.9794 497.00
48.0446 514.00
48.1098 456.00
48.175 475.00
48.2402 445.00
48.3054 469.00
48.3706 485.00
48.4358 497.00
48.501 460.00
48.5662 513.00
48.6314 515.00
48.6966 558.00
48.7618 627.00
48.827 647.00
48.8922 663.00
48.9574 677.00
49.0226 696.00
49.0878 657.00
49.153 592.00
49.2182 621.00
49.2834 611.00
49.3486 685.00
49.4138 672.00
49.479 772.00
49.5442 773.00
49.6094 646.00
49.6746 646.00
49.7398 595.00
49.805 616.00
49.8702 608.00
49.9354 609.00
50.0006 592.00
50.0658 618.00
50.131 587.00
50.1962 571.00
50.2614 556.00
50.3266 577.00
50.3918 520.00
50.457 583.00
50.5222 571.00
50.5874 523.00
50.6526 565.00
50.7178 542.00
50.783 547.00
50.8482 526.00
50.9134 503.00
50.9786 547.00
51.0438 574.00
51.109 598.00
51.1742 622.00
51.2394 590.00
51.3046 684.00
51.3698 664.00
51.435 771.00
51.5002 812.00
51.5654 966.00
51.6306 1065.00
51.6958 1417.00
51.761 1753.00
51.8262 2578.00
51.8914 4069.00
51.9566 7261.00
52.0218 11932.00
52.087 11392.00
52.1522 8922.00
52.2174 6656.00
52.2826 3535.00
52.3477 2013.00
52.4129 1499.00
52.4781 1085.00
52.5433 905.00
52.6085 754.00
52.6737 749.00
52.7389 681.00
52.8041 609.00
52.8693 659.00
52.9345 600.00
52.9997 587.00
53.0649 563.00
53.1301 543.00
53.1953 568.00
53.2605 505.00
53.3257 563.00
53.3909 552.00
53.4561 536.00
53.5213 558.00
53.5865 525.00
53.6517 557.00
53.7169 522.00
53.7821 611.00
53.8473 633.00
53.9125 617.00
53.9777 608.00
54.0429 649.00
54.1081 685.00
54.1733 720.00
54.2385 781.00
54.3037 757.00
54.3689 748.00
54.4341 771.00
54.4993 685.00
54.5645 714.00
54.6297 754.00
54.6949 858.00
54.7601 879.00
54.8253 1206.00
54.8905 1567.00
54.9557 2297.00
55.0209 3282.00
55.0861 2897.00
55.1513 2420.00
55.2165 1750.00
55.2817 1102.00
55.3469 816.00
55.4121 728.00
55.4773 604.00
55.5425 569.00
55.6077 537.00
55.6729 494.00
55.7381 496.00
55.8033 499.00
55.8685 438.00
55.9337 478.00
55.9989 482.00
56.0641 488.00
56.1293 456.00
56.1945 475.00
56.2597 480.00
56.3249 499.00
56.3901 510.00
56.4553 499.00
56.5205 526.00
56.5857 511.00
56.6509 547.00
56.7161 580.00
56.7813 594.00
56.8465 673.00
56.9117 603.00
56.9769 617.00
57.042 648.00
57.1073 659.00
57.1724 608.00
57.2376 665.00
57.3028 636.00
57.368 611.00
57.4332 619.00
57.4984 638.00
57.5636 647.00
57.6288 590.00
57.694 681.00
57.7592 674.00
57.8244 714.00
57.8896 824.00
57.9548 1033.00
58.02 1361.00
58.0852 1748.00
58.1504 1422.00
58.2156 1319.00
58.2808 1213.00
58.346 916.00
58.4112 791.00
58.4764 644.00
58.5416 710.00
58.6068 737.00
58.672 723.00
58.7372 856.00
58.8024 909.00
58.8676 933.00
58.9328 778.00
58.998 682.00
59.0632 608.00
59.1284 561.00
59.1936 538.00
59.2588 487.00
59.324 467.00
59.3892 428.00
59.4544 480.00
59.5196 439.00
59.5848 469.00
59.65 441.00
59.7152 427.00
59.7804 426.00
59.8456 455.00
59.9108 472.00
59.976 432.00
60.0412 427.00
60.1064 447.00
60.1716 440.00
60.2368 473.00
60.302 494.00
60.3672 507.00
60.4324 506.00
60.4976 482.00
60.5628 515.00
60.628 511.00
60.6932 551.00
60.7584 504.00
60.8236 475.00
60.8888 487.00
60.954 448.00
61.0192 478.00
61.0844 492.00
61.1496 474.00
61.2148 496.00
61.28 488.00
61.3452 470.00
61.4104 535.00
61.4756 459.00
61.5408 515.00
61.606 534.00
61.6712 563.00
61.7364 585.00
61.8016 717.00
61.8667 804.00
61.932 978.00
61.9971 1248.00
62.0623 2042.00
62.1275 2710.00
62.1927 2483.00
62.2579 2036.00
62.3231 1779.00
62.3883 1214.00
62.4535 930.00
62.5187 717.00
62.5839 580.00
62.6491 555.00
62.7143 561.00
62.7795 499.00
62.8447 530.00
62.9099 547.00
62.9751 572.00
63.0403 528.00
63.1055 534.00
63.1707 566.00
63.2359 560.00
63.3011 576.00
63.3663 538.00
63.4315 591.00
63.4967 595.00
63.5619 577.00
63.6271 576.00
63.6923 597.00
63.7575 562.00
63.8227 528.00
63.8879 512.00
63.9531 593.00
64.0183 533.00
64.0835 535.00
64.1487 477.00
64.2139 529.00
64.2791 551.00
64.3443 564.00
64.4095 519.00
64.4747 551.00
64.5399 586.00
64.6051 631.00
64.6703 679.00
64.7355 811.00
64.8007 1041.00
64.8659 1544.00
64.9311 2181.00
64.9963 2801.00
65.0615 2227.00
65.1267 1955.00
65.1919 1769.00
65.2571 1160.00
65.3223 846.00
65.3875 673.00
65.4527 638.00
65.5179 527.00
65.5831 557.00
65.6483 536.00
65.7135 568.00
65.7787 670.00
65.8439 627.00
65.9091 746.00
65.9743 1001.00
66.0395 1301.00
66.1047 1877.00
66.1699 2807.00
66.2351 3298.00
66.3003 2569.00
66.3655 2198.00
66.4307 1981.00
66.4959 1340.00
66.561 937.00
66.6263 757.00
66.6915 619.00
66.7566 566.00
66.8218 464.00
66.887 464.00
66.9522 456.00
67.0174 440.00
67.0826 365.00
67.1478 408.00
67.213 440.00
67.2782 449.00
67.3434 471.00
67.4086 444.00
67.4738 449.00
67.539 441.00
67.6042 434.00
67.6694 436.00
67.7346 402.00
67.7998 441.00
67.865 477.00
67.9302 454.00
67.9954 514.00
68.0606 494.00
68.1258 529.00
68.191 505.00
68.2562 470.00
68.3214 463.00
68.3866 440.00
68.4518 414.00
68.517 373.00
68.5822 394.00
68.6474 341.00
68.7126 362.00
68.7778 386.00
68.843 392.00
68.9082 379.00
68.9734 408.00
69.0386 369.00
69.1038 396.00
69.169 379.00
69.2342 409.00
69.2994 383.00
69.3646 395.00
69.4298 402.00
69.495 399.00
69.5602 427.00
69.6254 380.00
69.6906 373.00
69.7558 428.00
69.821 379.00
69.8862 389.00
69.9514 406.00
70.0166 371.00
70.0818 371.00
70.147 407.00
70.2122 376.00
70.2774 401.00
70.3426 443.00
70.4078 431.00
70.473 425.00
70.5382 459.00
70.6034 452.00
70.6686 473.00
70.7338 474.00
70.799 512.00
70.8642 486.00
70.9294 524.00
70.9946 536.00
71.0598 550.00
71.125 623.00
71.1902 656.00
71.2554 712.00
71.3205 846.00
71.3858 1101.00
71.451 1469.00
71.5162 1699.00
71.5813 1526.00
71.6465 1219.00
71.7117 1225.00
71.7769 983.00
71.8421 686.00
71.9073 595.00
71.9725 515.00
72.0377 453.00
72.1029 437.00
72.1681 418.00
72.2333 406.00
72.2985 368.00
72.3637 394.00
72.4289 443.00
72.4941 378.00
72.5593 383.00
72.6245 392.00
72.6897 428.00
72.7549 365.00
72.8201 435.00
72.8853 364.00
72.9505 319.00
73.0157 362.00
73.0809 329.00
73.1461 357.00
73.2113 312.00
73.2765 293.00
73.3417 356.00
73.4069 314.00
73.4721 362.00
73.5373 301.00
73.6025 330.00
73.6677 343.00
73.7329 316.00
73.7981 310.00
73.8633 307.00
73.9285 316.00
73.9937 333.00
74.0589 332.00
74.1241 342.00
74.1893 329.00
74.2545 344.00
74.3197 325.00
74.3849 314.00
74.4501 389.00
74.5153 291.00
74.5805 361.00
74.6457 344.00
74.7109 342.00
74.7761 333.00
74.8413 350.00
74.9065 346.00
74.9717 387.00
75.0369 353.00
75.1021 354.00
75.1673 309.00
75.2325 325.00
75.2977 316.00
75.3629 313.00
75.4281 330.00
75.4933 333.00
75.5585 377.00
75.6237 318.00
75.6889 352.00
75.7541 361.00
75.8193 328.00
75.8845 391.00
75.9497 412.00
76.0149 433.00
76.0801 406.00
76.1452 419.00
76.2104 413.00
76.2756 410.00
76.3409 441.00
76.406 392.00
76.4712 406.00
76.5364 396.00
76.6016 364.00
76.6668 329.00
76.732 354.00
76.7972 352.00
76.8624 341.00
76.9276 338.00
76.9928 332.00
77.058 329.00
77.1232 331.00
77.1884 328.00
77.2536 311.00
77.3188 359.00
77.384 359.00
77.4492 341.00
77.5144 354.00
77.5796 361.00
77.6448 347.00
77.71 321.00
77.7752 305.00
77.8404 308.00
77.9056 343.00
77.9708 332.00
78.036 293.00
78.1012 346.00
78.1664 348.00
78.2316 354.00
78.2968 361.00
78.362 390.00
78.4272 400.00
78.4924 438.00
78.5576 482.00
78.6228 480.00
78.688 671.00
78.7532 826.00
78.8184 1144.00
78.8836 1777.00
78.9488 2178.00
79.014 1730.00
79.0792 1492.00
79.1444 1405.00
79.2096 1259.00
79.2748 926.00
79.34 694.00
79.4052 537.00
79.4704 509.00
79.5356 503.00
79.6008 437.00
79.666 409.00
79.7312 382.00
79.7964 360.00
79.8616 348.00
79.9268 374.00
79.992 366.00
80.0572 377.00
80.1224 373.00
80.1876 349.00
80.2528 319.00
80.318 349.00
80.3832 319.00
80.4484 349.00
80.5136 323.00
80.5788 337.00
80.644 369.00
80.7092 344.00
80.7744 379.00
80.8396 374.00
80.9048 385.00
80.9699 390.00
81.0351 379.00
81.1003 432.00
81.1655 477.00
81.2307 541.00
81.2959 677.00
81.3611 794.00
81.4263 694.00
81.4915 687.00
81.5567 647.00
81.6219 597.00
81.6871 495.00
81.7523 403.00
81.8175 394.00
81.8827 358.00
81.9479 352.00
82.0131 334.00
82.0783 326.00
82.1435 318.00
82.2087 336.00
82.2739 302.00
82.3391 322.00
82.4043 327.00
82.4695 316.00
82.5347 328.00
82.5999 308.00
82.6651 303.00
82.7303 323.00
82.7955 322.00
82.8607 308.00
82.9259 341.00
82.9911 297.00
83.0563 366.00
83.1215 350.00
83.1867 351.00
83.2519 353.00
83.3171 358.00
83.3823 378.00
83.4475 333.00
83.5127 392.00
83.5779 451.00
83.6431 474.00
83.7083 591.00
83.7735 793.00
83.8387 1054.00
83.9039 1459.00
83.9691 1431.00
84.0343 1064.00
84.0995 982.00
84.1647 1035.00
84.2299 925.00
84.2951 708.00
84.3603 506.00
84.4255 450.00
84.4907 400.00
84.5559 377.00
84.6211 373.00
84.6863 342.00
84.7515 299.00
84.8167 324.00
84.8819 314.00
84.9471 295.00
85.0123 341.00
85.0775 311.00
85.1427 307.00
85.2079 326.00
85.2731 336.00
85.3383 293.00
85.4035 327.00
85.4687 327.00
85.5339 330.00
85.5991 279.00
85.6643 312.00
85.7295 342.00
85.7946 343.00
85.8598 318.00
85.925 353.00
85.9903 320.00
86.0554 370.00
86.1206 333.00
86.1858 309.00
86.251 318.00
86.3162 348.00
86.3814 333.00
86.4466 332.00
86.5118 309.00
86.577 314.00
86.6422 324.00
86.7074 281.00
86.7726 305.00
86.8378 315.00
86.903 350.00
86.9682 338.00
87.0334 349.00
87.0986 364.00
87.1638 421.00
87.229 402.00
87.2942 461.00
87.3594 646.00
87.4246 851.00
87.4898 808.00
87.555 684.00
87.6202 614.00
87.6854 626.00
87.7506 628.00
87.8158 546.00
87.881 445.00
87.9462 384.00
88.0114 365.00
88.0766 375.00
88.1418 335.00
88.207 300.00
88.2722 342.00
88.3374 315.00
88.4026 355.00
88.4678 347.00
88.533 337.00
88.5982 317.00
88.6634 311.00
88.7286 344.00
88.7938 313.00
88.859 278.00
88.9242 303.00
88.9894 333.00
89.0546 286.00
89.1198 310.00
89.185 324.00
89.2502 336.00
89.3154 358.00
89.3806 370.00
89.4458 390.00
89.511 379.00
89.5762 434.00
89.6414 422.00
89.7066 527.00
89.7718 700.00
89.837 952.00
89.9022 1204.00
89.9674 1603.00
90.0326 1438.00
90.0978 1221.00
90.163 1114.00
90.2282 1123.00
90.2934 1008.00
90.3586 835.00
90.4238 709.00
90.489 536.00
90.5542 580.00
90.6193 523.00
90.6845 509.00
90.7497 546.00
90.8149 626.00
90.8801 719.00
90.9453 872.00
91.0105 1184.00
91.0757 1558.00
91.1409 1527.00
91.2061 1358.00
91.2713 1126.00
91.3365 1089.00
91.4017 1170.00
91.4669 945.00
91.5321 699.00
91.5973 586.00
91.6625 493.00
91.7277 466.00
91.7929 381.00
91.8581 367.00
91.9233 363.00
91.9885 356.00
92.0537 356.00
92.1189 335.00
92.1841 341.00
92.2493 299.00
92.3145 318.00
92.3797 325.00
92.4449 304.00
92.5101 304.00
92.5753 328.00
92.6405 362.00
92.7057 310.00
92.7709 373.00
92.8361 322.00
92.9013 346.00
92.9665 341.00
93.0317 369.00
93.0969 395.00
93.1621 363.00
93.2273 462.00
93.2925 496.00
93.3577 597.00
93.4229 751.00
93.4881 847.00
93.5533 862.00
93.6185 716.00
93.6837 652.00
93.7489 645.00
93.8141 678.00
93.8793 557.00
93.9445 497.00
94.0097 431.00
94.0749 383.00
94.1401 355.00
94.2053 344.00
94.2705 349.00
94.3357 367.00
94.4009 361.00
94.4661 314.00
94.5313 390.00
94.5965 385.00
94.6617 337.00
94.7269 379.00
94.7921 362.00
94.8573 353.00
94.9225 384.00
94.9877 388.00
95.0529 382.00
95.1181 361.00
95.1833 389.00
95.2485 353.00
95.3137 347.00
95.3789 401.00
95.444 355.00
95.5092 358.00
95.5744 343.00
95.6396 367.00
95.7048 375.00
95.77 380.00
95.8352 397.00
95.9004 379.00
95.9656 453.00
96.0308 533.00
96.096 654.00
96.1612 784.00
96.2264 790.00
96.2916 694.00
96.3568 613.00
96.422 592.00
96.4872 593.00
96.5524 520.00
96.6176 507.00
96.6828 389.00
96.748 370.00
96.8132 381.00
96.8784 316.00
96.9436 341.00
97.0088 287.00
97.074 349.00
97.1392 326.00
97.2044 292.00
97.2696 292.00
97.3348 312.00
97.4 282.00
97.4652 311.00
97.5304 288.00
97.5956 296.00
97.6608 291.00
97.726 310.00
97.7912 308.00
97.8564 289.00
97.9216 302.00
97.9868 285.00
98.052 267.00
98.1172 279.00
98.1824 290.00
98.2476 270.00
98.3128 290.00
98.378 291.00
98.4432 268.00
98.5084 275.00
98.5736 301.00
98.6388 260.00
98.704 271.00
98.7692 300.00
98.8344 270.00
98.8996 305.00
98.9648 317.00
99.03 302.00
99.0952 289.00
99.1604 287.00
99.2256 294.00
99.2908 300.00
99.356 332.00
99.4212 304.00
99.4864 336.00
99.5516 306.00
99.6168 299.00
99.682 304.00
99.7472 350.00
99.8124 330.00
99.8776 318.00
99.9428 299.00
100.008 346.00
100.073 324.00
100.095 297.00