File: data/xrd_creation/results/Na_122.xy
9.903433 2746.00
9.968632 2684.00
10.0338 2711.00
10.099 2765.00
10.1642 2642.00
10.2294 2728.00
10.2946 2642.00
10.3598 2611.00
10.425 2666.00
10.4902 2573.00
10.5554 2714.00
10.6206 2601.00
10.6858 2590.00
10.751 2533.00
10.8162 2482.00
10.8814 2488.00
10.9466 2421.00
11.0118 2406.00
11.077 2354.00
11.1422 2404.00
11.2074 2313.00
11.2726 2265.00
11.3378 2298.00
11.403 2297.00
11.4682 2253.00
11.5334 2326.00
11.5986 2241.00
11.6638 2320.00
11.729 2252.00
11.7942 2301.00
11.8594 2286.00
11.9246 2137.00
11.9898 2188.00
12.055 2133.00
12.1202 2116.00
12.1854 2137.00
12.2506 2061.00
12.3158 2119.00
12.381 2095.00
12.4462 2091.00
12.5114 2088.00
12.5766 2050.00
12.6418 1955.00
12.707 1992.00
12.7722 1989.00
12.8374 1904.00
12.9026 1963.00
12.9678 1959.00
13.033 1956.00
13.0982 1860.00
13.1634 1863.00
13.2286 1951.00
13.2938 1921.00
13.359 1916.00
13.4242 1806.00
13.4894 1795.00
13.5546 1916.00
13.6198 1903.00
13.685 1906.00
13.7502 1810.00
13.8154 1860.00
13.8805 1875.00
13.9457 1840.00
14.0109 1837.00
14.0761 1866.00
14.1413 1810.00
14.2065 1731.00
14.2717 1812.00
14.3369 1766.00
14.4021 1737.00
14.4673 1808.00
14.5325 1817.00
14.5977 1789.00
14.6629 1741.00
14.7281 1791.00
14.7933 1753.00
14.8585 1728.00
14.9237 1741.00
14.9889 1673.00
15.0541 1739.00
15.1193 1804.00
15.1845 1736.00
15.2497 1749.00
15.3149 1808.00
15.3801 1723.00
15.4453 1762.00
15.5105 1683.00
15.5757 1763.00
15.6409 1632.00
15.7061 1725.00
15.7713 1631.00
15.8365 1659.00
15.9017 1636.00
15.9669 1638.00
16.0321 1606.00
16.0973 1571.00
16.1625 1696.00
16.2277 1586.00
16.2929 1634.00
16.3581 1611.00
16.4233 1552.00
16.4885 1742.00
16.5537 1557.00
16.6189 1677.00
16.6841 1617.00
16.7493 1638.00
16.8145 1622.00
16.8797 1626.00
16.9449 1619.00
17.0101 1634.00
17.0753 1551.00
17.1405 1597.00
17.2057 1627.00
17.2709 1525.00
17.3361 1503.00
17.4013 1555.00
17.4665 1551.00
17.5317 1531.00
17.5969 1512.00
17.6621 1580.00
17.7273 1524.00
17.7925 1448.00
17.8577 1440.00
17.9229 1414.00
17.9881 1516.00
18.0533 1566.00
18.1185 1490.00
18.1837 1518.00
18.2489 1469.00
18.3141 1546.00
18.3793 1447.00
18.4445 1543.00
18.5097 1486.00
18.5749 1456.00
18.6401 1503.00
18.7052 1507.00
18.7704 1518.00
18.8356 1463.00
18.9008 1571.00
18.966 1562.00
19.0312 1599.00
19.0964 1642.00
19.1616 1690.00
19.2268 1789.00
19.292 1970.00
19.3572 2272.00
19.4224 2852.00
19.4876 3516.00
19.5528 4177.00
19.618 4748.00
19.6832 4445.00
19.7484 3382.00
19.8136 2545.00
19.8788 1887.00
19.944 1754.00
20.0092 1537.00
20.0744 1498.00
20.1396 1517.00
20.2048 1372.00
20.27 1393.00
20.3352 1343.00
20.4004 1333.00
20.4656 1373.00
20.5308 1334.00
20.596 1300.00
20.6612 1297.00
20.7264 1281.00
20.7916 1292.00
20.8568 1282.00
20.922 1282.00
20.9872 1340.00
21.0524 1324.00
21.1176 1329.00
21.1828 1329.00
21.248 1281.00
21.3132 1309.00
21.3784 1299.00
21.4436 1318.00
21.5088 1308.00
21.574 1255.00
21.6392 1288.00
21.7044 1407.00
21.7696 1403.00
21.8348 1341.00
21.9 1446.00
21.9652 1484.00
22.0304 1528.00
22.0956 1567.00
22.1608 1711.00
22.226 1829.00
22.2912 2152.00
22.3564 2554.00
22.4216 3384.00
22.4868 4717.00
22.552 6632.00
22.6172 8829.00
22.6824 8698.00
22.7476 6597.00
22.8128 4313.00
22.878 2758.00
22.9432 2122.00
23.0084 1733.00
23.0736 1699.00
23.1388 1463.00
23.204 1405.00
23.2692 1329.00
23.3344 1368.00
23.3996 1335.00
23.4647 1273.00
23.5299 1264.00
23.5951 1208.00
23.6603 1250.00
23.7255 1197.00
23.7907 1171.00
23.8559 1187.00
23.9211 1171.00
23.9863 1191.00
24.0515 1177.00
24.1167 1209.00
24.1819 1147.00
24.2471 1095.00
24.3123 1175.00
24.3775 1116.00
24.4427 1074.00
24.5079 1145.00
24.5731 1147.00
24.6383 1181.00
24.7035 1185.00
24.7687 1143.00
24.8339 1243.00
24.8991 1284.00
24.9643 1313.00
25.0295 1427.00
25.0947 1571.00
25.1599 1877.00
25.2251 2349.00
25.2903 2623.00
25.3555 2639.00
25.4207 2349.00
25.4859 1896.00
25.5511 1422.00
25.6163 1320.00
25.6815 1228.00
25.7467 1152.00
25.8119 1050.00
25.8771 1054.00
25.9423 1104.00
26.0075 1029.00
26.0727 1083.00
26.1379 1065.00
26.2031 1059.00
26.2683 996.00
26.3335 1032.00
26.3987 1065.00
26.4639 1108.00
26.5291 1135.00
26.5943 1115.00
26.6595 1154.00
26.7247 1498.00
26.7899 2074.00
26.8551 3017.00
26.9203 3687.00
26.9855 2928.00
27.0507 1859.00
27.1159 1292.00
27.1811 1264.00
27.2463 1229.00
27.3115 1218.00
27.3767 1250.00
27.4419 1261.00
27.5071 1446.00
27.5723 1640.00
27.6375 1962.00
27.7027 2201.00
27.7679 2316.00
27.8331 2293.00
27.8983 1775.00
27.9635 1478.00
28.0287 1242.00
28.0939 1181.00
28.1591 1165.00
28.2243 1118.00
28.2894 981.00
28.3546 1070.00
28.4198 1092.00
28.485 1004.00
28.5502 1047.00
28.6154 1046.00
28.6806 944.00
28.7458 1046.00
28.811 1080.00
28.8762 947.00
28.9414 962.00
29.0066 892.00
29.0718 906.00
29.137 893.00
29.2022 890.00
29.2674 934.00
29.3326 848.00
29.3978 884.00
29.463 910.00
29.5282 860.00
29.5934 885.00
29.6586 915.00
29.7238 931.00
29.789 958.00
29.8542 901.00
29.9194 903.00
29.9846 930.00
30.0498 934.00
30.115 874.00
30.1802 862.00
30.2454 818.00
30.3106 848.00
30.3758 861.00
30.441 817.00
30.5062 865.00
30.5714 860.00
30.6366 827.00
30.7018 864.00
30.767 807.00
30.8322 812.00
30.8974 895.00
30.9626 808.00
31.0278 892.00
31.093 868.00
31.1582 840.00
31.2234 956.00
31.2886 854.00
31.3538 930.00
31.419 911.00
31.4842 1075.00
31.5494 1020.00
31.6146 993.00
31.6798 1085.00
31.745 1198.00
31.8102 1325.00
31.8754 1650.00
31.9406 2057.00
32.0058 2705.00
32.071 3369.00
32.1362 3601.00
32.2014 3055.00
32.2666 2284.00
32.3318 1695.00
32.397 1288.00
32.4622 1152.00
32.5274 1007.00
32.5926 890.00
32.6578 884.00
32.723 879.00
32.7882 841.00
32.8534 827.00
32.9186 836.00
32.9838 809.00
33.0489 866.00
33.1141 775.00
33.1793 777.00
33.2445 810.00
33.3097 809.00
33.3749 784.00
33.4401 796.00
33.5053 822.00
33.5705 810.00
33.6357 784.00
33.7009 823.00
33.7661 903.00
33.8313 906.00
33.8965 930.00
33.9617 1124.00
34.0269 1423.00
34.0921 2030.00
34.1573 2787.00
34.2225 3045.00
34.2877 2290.00
34.3529 1459.00
34.4181 1146.00
34.4833 962.00
34.5485 951.00
34.6137 865.00
34.6789 799.00
34.7441 812.00
34.8093 795.00
34.8745 786.00
34.9397 738.00
35.0049 725.00
35.0701 777.00
35.1353 718.00
35.2005 741.00
35.2657 750.00
35.3309 744.00
35.3961 741.00
35.4613 733.00
35.5265 709.00
35.5917 666.00
35.6569 737.00
35.7221 742.00
35.7873 727.00
35.8525 720.00
35.9177 698.00
35.9829 734.00
36.0481 709.00
36.1133 718.00
36.1785 714.00
36.2437 719.00
36.3089 734.00
36.3741 655.00
36.4393 698.00
36.5045 716.00
36.5697 715.00
36.6349 722.00
36.7001 692.00
36.7653 771.00
36.8305 770.00
36.8957 763.00
36.9609 729.00
37.0261 816.00
37.0913 792.00
37.1565 861.00
37.2217 865.00
37.2869 1000.00
37.3521 1113.00
37.4173 1209.00
37.4825 1482.00
37.5477 1843.00
37.6129 2544.00
37.6781 3320.00
37.7433 4074.00
37.8085 4406.00
37.8736 3946.00
37.9388 3120.00
38.004 2232.00
38.0692 1680.00
38.1344 1399.00
38.1996 1402.00
38.2648 1506.00
38.33 1444.00
38.3952 1155.00
38.4604 1018.00
38.5256 822.00
38.5908 831.00
38.656 727.00
38.7212 728.00
38.7864 728.00
38.8516 713.00
38.9168 663.00
38.982 755.00
39.0472 817.00
39.1124 775.00
39.1776 837.00
39.2428 1022.00
39.308 1089.00
39.3732 1287.00
39.4384 1459.00
39.5036 1622.00
39.5688 1537.00
39.634 1366.00
39.6992 1137.00
39.7644 951.00
39.8296 908.00
39.8948 757.00
39.96 800.00
40.0252 693.00
40.0904 669.00
40.1556 689.00
40.2208 682.00
40.286 661.00
40.3512 655.00
40.4164 612.00
40.4816 640.00
40.5468 603.00
40.612 630.00
40.6772 594.00
40.7424 589.00
40.8076 628.00
40.8728 633.00
40.938 628.00
41.0032 742.00
41.0684 695.00
41.1336 751.00
41.1988 740.00
41.264 740.00
41.3292 689.00
41.3944 719.00
41.4596 640.00
41.5248 619.00
41.59 635.00
41.6552 553.00
41.7204 566.00
41.7856 593.00
41.8508 583.00
41.916 586.00
41.9812 647.00
42.0464 549.00
42.1116 617.00
42.1768 584.00
42.242 535.00
42.3072 588.00
42.3724 558.00
42.4376 612.00
42.5028 567.00
42.568 574.00
42.6332 593.00
42.6983 630.00
42.7635 636.00
42.8287 616.00
42.8939 666.00
42.9591 627.00
43.0243 644.00
43.0895 601.00
43.1547 593.00
43.2199 555.00
43.2851 611.00
43.3503 636.00
43.4155 666.00
43.4807 655.00
43.5459 667.00
43.6111 645.00
43.6763 688.00
43.7415 647.00
43.8067 638.00
43.8719 664.00
43.9371 643.00
44.0023 585.00
44.0675 596.00
44.1327 638.00
44.1979 593.00
44.2631 575.00
44.3283 614.00
44.3935 547.00
44.4587 564.00
44.5239 540.00
44.5891 515.00
44.6543 565.00
44.7195 568.00
44.7847 528.00
44.8499 557.00
44.9151 634.00
44.9803 571.00
45.0455 589.00
45.1107 562.00
45.1759 567.00
45.2411 631.00
45.3063 556.00
45.3715 539.00
45.4367 552.00
45.5019 552.00
45.5671 529.00
45.6323 561.00
45.6975 641.00
45.7627 714.00
45.8279 750.00
45.8931 816.00
45.9583 840.00
46.0235 822.00
46.0887 685.00
46.1539 604.00
46.2191 634.00
46.2843 614.00
46.3495 558.00
46.4147 553.00
46.4799 561.00
46.5451 509.00
46.6103 528.00
46.6755 568.00
46.7407 549.00
46.8059 543.00
46.8711 539.00
46.9363 564.00
47.0015 522.00
47.0667 573.00
47.1319 570.00
47.1971 589.00
47.2623 604.00
47.3275 632.00
47.3927 658.00
47.4579 663.00
47.523 658.00
47.5882 603.00
47.6534 582.00
47.7186 534.00
47.7838 551.00
47.849 578.00
47.9142 563.00
47.9794 558.00
48.0446 536.00
48.1098 538.00
48.175 563.00
48.2402 563.00
48.3054 563.00
48.3706 541.00
48.4358 544.00
48.501 544.00
48.5662 544.00
48.6314 528.00
48.6966 581.00
48.7618 641.00
48.827 614.00
48.8922 620.00
48.9574 628.00
49.0226 573.00
49.0878 565.00
49.153 556.00
49.2182 616.00
49.2834 586.00
49.3486 569.00
49.4138 534.00
49.479 560.00
49.5442 608.00
49.6094 563.00
49.6746 562.00
49.7398 655.00
49.805 674.00
49.8702 699.00
49.9354 834.00
50.0006 947.00
50.0658 1085.00
50.131 1290.00
50.1962 1526.00
50.2614 1553.00
50.3266 1622.00
50.3918 1445.00
50.457 1235.00
50.5222 1016.00
50.5874 827.00
50.6526 768.00
50.7178 736.00
50.783 736.00
50.8482 727.00
50.9134 682.00
50.9786 628.00
51.0438 676.00
51.109 668.00
51.1742 732.00
51.2394 841.00
51.3046 961.00
51.3698 1085.00
51.435 1293.00
51.5002 1604.00
51.5654 1830.00
51.6306 2130.00
51.6958 2165.00
51.761 1989.00
51.8262 1671.00
51.8914 1568.00
51.9566 1602.00
52.0218 2164.00
52.087 2445.00
52.1522 2219.00
52.2174 1818.00
52.2826 1349.00
52.3477 982.00
52.4129 812.00
52.4781 651.00
52.5433 636.00
52.6085 597.00
52.6737 610.00
52.7389 551.00
52.8041 615.00
52.8693 604.00
52.9345 552.00
52.9997 576.00
53.0649 659.00
53.1301 564.00
53.1953 583.00
53.2605 534.00
53.3257 568.00
53.3909 574.00
53.4561 528.00
53.5213 558.00
53.5865 509.00
53.6517 518.00
53.7169 533.00
53.7821 524.00
53.8473 535.00
53.9125 489.00
53.9777 552.00
54.0429 550.00
54.1081 571.00
54.1733 564.00
54.2385 583.00
54.3037 553.00
54.3689 558.00
54.4341 535.00
54.4993 585.00
54.5645 560.00
54.6297 604.00
54.6949 613.00
54.7601 651.00
54.8253 611.00
54.8905 754.00
54.9557 845.00
55.0209 959.00
55.0861 1090.00
55.1513 955.00
55.2165 893.00
55.2817 809.00
55.3469 661.00
55.4121 636.00
55.4773 593.00
55.5425 612.00
55.6077 538.00
55.6729 546.00
55.7381 524.00
55.8033 508.00
55.8685 553.00
55.9337 527.00
55.9989 526.00
56.0641 516.00
56.1293 546.00
56.1945 533.00
56.2597 610.00
56.3249 616.00
56.3901 619.00
56.4553 621.00
56.5205 716.00
56.5857 729.00
56.6509 874.00
56.7161 988.00
56.7813 1209.00
56.8465 1382.00
56.9117 1508.00
56.9769 1499.00
57.042 1484.00
57.1073 1301.00
57.1724 1108.00
57.2376 1035.00
57.3028 863.00
57.368 712.00
57.4332 683.00
57.4984 593.00
57.5636 517.00
57.6288 527.00
57.694 516.00
57.7592 556.00
57.8244 526.00
57.8896 505.00
57.9548 550.00
58.02 640.00
58.0852 644.00
58.1504 713.00
58.2156 636.00
58.2808 581.00
58.346 543.00
58.4112 525.00
58.4764 519.00
58.5416 466.00
58.6068 517.00
58.672 494.00
58.7372 498.00
58.8024 467.00
58.8676 486.00
58.9328 478.00
58.998 467.00
59.0632 507.00
59.1284 488.00
59.1936 460.00
59.2588 473.00
59.324 475.00
59.3892 503.00
59.4544 539.00
59.5196 469.00
59.5848 485.00
59.65 531.00
59.7152 506.00
59.7804 484.00
59.8456 547.00
59.9108 574.00
59.976 532.00
60.0412 545.00
60.1064 577.00
60.1716 679.00
60.2368 662.00
60.302 689.00
60.3672 795.00
60.4324 892.00
60.4976 1092.00
60.5628 1401.00
60.628 1625.00
60.6932 1811.00
60.7584 1954.00
60.8236 1898.00
60.8888 1671.00
60.954 1342.00
61.0192 1165.00
61.0844 958.00
61.1496 884.00
61.2148 785.00
61.28 640.00
61.3452 613.00
61.4104 598.00
61.4756 631.00
61.5408 588.00
61.606 628.00
61.6712 654.00
61.7364 579.00
61.8016 626.00
61.8667 583.00
61.932 616.00
61.9971 648.00
62.0623 723.00
62.1275 756.00
62.1927 801.00
62.2579 795.00
62.3231 803.00
62.3883 744.00
62.4535 607.00
62.5187 535.00
62.5839 512.00
62.6491 502.00
62.7143 507.00
62.7795 500.00
62.8447 511.00
62.9099 503.00
62.9751 507.00
63.0403 553.00
63.1055 535.00
63.1707 558.00
63.2359 544.00
63.3011 523.00
63.3663 539.00
63.4315 495.00
63.4967 467.00
63.5619 459.00
63.6271 501.00
63.6923 447.00
63.7575 485.00
63.8227 432.00
63.8879 469.00
63.9531 454.00
64.0183 481.00
64.0835 491.00
64.1487 513.00
64.2139 497.00
64.2791 521.00
64.3443 527.00
64.4095 492.00
64.4747 496.00
64.5399 491.00
64.6051 488.00
64.6703 518.00
64.7355 502.00
64.8007 535.00
64.8659 592.00
64.9311 678.00
64.9963 849.00
65.0615 821.00
65.1267 717.00
65.1919 681.00
65.2571 622.00
65.3223 562.00
65.3875 496.00
65.4527 457.00
65.5179 465.00
65.5831 412.00
65.6483 413.00
65.7135 459.00
65.7787 477.00
65.8439 449.00
65.9091 504.00
65.9743 525.00
66.0395 518.00
66.1047 630.00
66.1699 746.00
66.2351 870.00
66.3003 890.00
66.3655 924.00
66.4307 847.00
66.4959 905.00
66.561 880.00
66.6263 812.00
66.6915 827.00
66.7566 943.00
66.8218 879.00
66.887 815.00
66.9522 797.00
67.0174 699.00
67.0826 621.00
67.1478 601.00
67.213 499.00
67.2782 525.00
67.3434 500.00
67.4086 488.00
67.4738 470.00
67.539 535.00
67.6042 524.00
67.6694 532.00
67.7346 525.00
67.7998 478.00
67.865 549.00
67.9302 500.00
67.9954 507.00
68.0606 491.00
68.1258 497.00
68.191 548.00
68.2562 485.00
68.3214 540.00
68.3866 542.00
68.4518 483.00
68.517 506.00
68.5822 484.00
68.6474 476.00
68.7126 472.00
68.7778 492.00
68.843 464.00
68.9082 483.00
68.9734 454.00
69.0386 464.00
69.1038 475.00
69.169 463.00
69.2342 481.00
69.2994 491.00
69.3646 490.00
69.4298 531.00
69.495 480.00
69.5602 418.00
69.6254 475.00
69.6906 510.00
69.7558 527.00
69.821 536.00
69.8862 581.00
69.9514 564.00
70.0166 687.00
70.0818 747.00
70.147 811.00
70.2122 857.00
70.2774 851.00
70.3426 840.00
70.4078 776.00
70.473 702.00
70.5382 692.00
70.6034 618.00
70.6686 560.00
70.7338 574.00
70.799 493.00
70.8642 586.00
70.9294 571.00
70.9946 558.00
71.0598 569.00
71.125 643.00
71.1902 737.00
71.2554 759.00
71.3205 878.00
71.3858 842.00
71.451 907.00
71.5162 914.00
71.5813 909.00
71.6465 777.00
71.7117 711.00
71.7769 654.00
71.8421 592.00
71.9073 507.00
71.9725 531.00
72.0377 490.00
72.1029 475.00
72.1681 458.00
72.2333 450.00
72.2985 486.00
72.3637 456.00
72.4289 455.00
72.4941 471.00
72.5593 475.00
72.6245 451.00
72.6897 458.00
72.7549 465.00
72.8201 422.00
72.8853 437.00
72.9505 398.00
73.0157 430.00
73.0809 431.00
73.1461 401.00
73.2113 428.00
73.2765 442.00
73.3417 493.00
73.4069 448.00
73.4721 450.00
73.5373 457.00
73.6025 428.00
73.6677 492.00
73.7329 496.00
73.7981 520.00
73.8633 513.00
73.9285 448.00
73.9937 450.00
74.0589 438.00
74.1241 418.00
74.1893 447.00
74.2545 421.00
74.3197 426.00
74.3849 428.00
74.4501 452.00
74.5153 436.00
74.5805 476.00
74.6457 488.00
74.7109 408.00
74.7761 430.00
74.8413 419.00
74.9065 399.00
74.9717 368.00
75.0369 446.00
75.1021 448.00
75.1673 417.00
75.2325 418.00
75.2977 467.00
75.3629 415.00
75.4281 470.00
75.4933 440.00
75.5585 476.00
75.6237 516.00
75.6889 551.00
75.7541 555.00
75.8193 538.00
75.8845 560.00
75.9497 557.00
76.0149 567.00
76.0801 484.00
76.1452 491.00
76.2104 408.00
76.2756 428.00
76.3409 401.00
76.406 416.00
76.4712 412.00
76.5364 395.00
76.6016 380.00
76.6668 431.00
76.732 431.00
76.7972 406.00
76.8624 406.00
76.9276 418.00
76.9928 418.00
77.058 411.00
77.1232 432.00
77.1884 419.00
77.2536 443.00
77.3188 421.00
77.384 416.00
77.4492 432.00
77.5144 407.00
77.5796 409.00
77.6448 451.00
77.71 410.00
77.7752 405.00
77.8404 417.00
77.9056 416.00
77.9708 416.00
78.036 388.00
78.1012 407.00
78.1664 382.00
78.2316 385.00
78.2968 379.00
78.362 380.00
78.4272 414.00
78.4924 416.00
78.5576 397.00
78.6228 422.00
78.688 463.00
78.7532 476.00
78.8184 472.00
78.8836 627.00
78.9488 709.00
79.014 821.00
79.0792 772.00
79.1444 822.00
79.2096 770.00
79.2748 735.00
79.34 662.00
79.4052 632.00
79.4704 593.00
79.5356 529.00
79.6008 512.00
79.666 499.00
79.7312 536.00
79.7964 489.00
79.8616 511.00
79.9268 462.00
79.992 480.00
80.0572 569.00
80.1224 530.00
80.1876 520.00
80.2528 546.00
80.318 541.00
80.3832 519.00
80.4484 543.00
80.5136 506.00
80.5788 479.00
80.644 495.00
80.7092 481.00
80.7744 451.00
80.8396 424.00
80.9048 432.00
80.9699 390.00
81.0351 441.00
81.1003 415.00
81.1655 452.00
81.2307 449.00
81.2959 443.00
81.3611 496.00
81.4263 509.00
81.4915 434.00
81.5567 461.00
81.6219 447.00
81.6871 449.00
81.7523 437.00
81.8175 421.00
81.8827 378.00
81.9479 374.00
82.0131 392.00
82.0783 348.00
82.1435 379.00
82.2087 364.00
82.2739 362.00
82.3391 366.00
82.4043 419.00
82.4695 366.00
82.5347 375.00
82.5999 384.00
82.6651 393.00
82.7303 392.00
82.7955 386.00
82.8607 362.00
82.9259 387.00
82.9911 380.00
83.0563 423.00
83.1215 360.00
83.1867 361.00
83.2519 403.00
83.3171 369.00
83.3823 349.00
83.4475 410.00
83.5127 349.00
83.5779 352.00
83.6431 381.00
83.7083 391.00
83.7735 447.00
83.8387 439.00
83.9039 474.00
83.9691 540.00
84.0343 536.00
84.0995 509.00
84.1647 523.00
84.2299 508.00
84.2951 459.00
84.3603 470.00
84.4255 405.00
84.4907 433.00
84.5559 420.00
84.6211 354.00
84.6863 399.00
84.7515 397.00
84.8167 376.00
84.8819 348.00
84.9471 377.00
85.0123 364.00
85.0775 384.00
85.1427 400.00
85.2079 371.00
85.2731 435.00
85.3383 401.00
85.4035 416.00
85.4687 398.00
85.5339 401.00
85.5991 407.00
85.6643 413.00
85.7295 408.00
85.7946 399.00
85.8598 401.00
85.925 416.00
85.9903 379.00
86.0554 378.00
86.1206 356.00
86.1858 409.00
86.251 379.00
86.3162 377.00
86.3814 398.00
86.4466 383.00
86.5118 335.00
86.577 365.00
86.6422 378.00
86.7074 377.00
86.7726 402.00
86.8378 424.00
86.903 409.00
86.9682 409.00
87.0334 381.00
87.0986 366.00
87.1638 410.00
87.229 416.00
87.2942 419.00
87.3594 456.00
87.4246 460.00
87.4898 510.00
87.555 562.00
87.6202 544.00
87.6854 552.00
87.7506 579.00
87.8158 585.00
87.881 586.00
87.9462 593.00
88.0114 544.00
88.0766 576.00
88.1418 464.00
88.207 523.00
88.2722 518.00
88.3374 537.00
88.4026 470.00
88.4678 496.00
88.533 499.00
88.5982 519.00
88.6634 527.00
88.7286 586.00
88.7938 580.00
88.859 576.00
88.9242 608.00
88.9894 598.00
89.0546 596.00
89.1198 567.00
89.185 547.00
89.2502 516.00
89.3154 495.00
89.3806 449.00
89.4458 469.00
89.511 436.00
89.5762 442.00
89.6414 414.00
89.7066 450.00
89.7718 435.00
89.837 446.00
89.9022 487.00
89.9674 557.00
90.0326 600.00
90.0978 599.00
90.163 547.00
90.2282 559.00
90.2934 554.00
90.3586 496.00
90.4238 505.00
90.489 475.00
90.5542 420.00
90.6193 471.00
90.6845 434.00
90.7497 452.00
90.8149 494.00
90.8801 456.00
90.9453 450.00
91.0105 560.00
91.0757 546.00
91.1409 622.00
91.2061 686.00
91.2713 596.00
91.3365 591.00
91.4017 608.00
91.4669 579.00
91.5321 553.00
91.5973 503.00
91.6625 519.00
91.7277 499.00
91.7929 435.00
91.8581 486.00
91.9233 434.00
91.9885 429.00
92.0537 425.00
92.1189 423.00
92.1841 417.00
92.2493 422.00
92.3145 413.00
92.3797 389.00
92.4449 441.00
92.5101 454.00
92.5753 464.00
92.6405 423.00
92.7057 511.00
92.7709 492.00
92.8361 499.00
92.9013 477.00
92.9665 537.00
93.0317 525.00
93.0969 580.00
93.1621 573.00
93.2273 609.00
93.2925 608.00
93.3577 621.00
93.4229 594.00
93.4881 571.00
93.5533 540.00
93.6185 569.00
93.6837 545.00
93.7489 508.00
93.8141 497.00
93.8793 503.00
93.9445 457.00
94.0097 466.00
94.0749 442.00
94.1401 411.00
94.2053 418.00
94.2705 427.00
94.3357 426.00
94.4009 366.00
94.4661 375.00
94.5313 371.00
94.5965 400.00
94.6617 378.00
94.7269 389.00
94.7921 417.00
94.8573 371.00
94.9225 405.00
94.9877 399.00
95.0529 409.00
95.1181 425.00
95.1833 419.00
95.2485 390.00
95.3137 375.00
95.3789 407.00
95.444 432.00
95.5092 394.00
95.5744 402.00
95.6396 413.00
95.7048 408.00
95.77 454.00
95.8352 449.00
95.9004 499.00
95.9656 521.00
96.0308 561.00
96.096 605.00
96.1612 631.00
96.2264 655.00
96.2916 736.00
96.3568 726.00
96.422 697.00
96.4872 717.00
96.5524 708.00
96.6176 639.00
96.6828 658.00
96.748 606.00
96.8132 579.00
96.8784 555.00
96.9436 541.00
97.0088 525.00
97.074 522.00
97.1392 511.00
97.2044 491.00
97.2696 442.00
97.3348 470.00
97.4 443.00
97.4652 457.00
97.5304 449.00
97.5956 411.00
97.6608 462.00
97.726 418.00
97.7912 441.00
97.8564 391.00
97.9216 440.00
97.9868 458.00
98.052 411.00
98.1172 432.00
98.1824 436.00
98.2476 425.00
98.3128 418.00
98.378 433.00
98.4432 392.00
98.5084 403.00
98.5736 399.00
98.6388 411.00
98.704 432.00
98.7692 409.00
98.8344 432.00
98.8996 403.00
98.9648 395.00
99.03 416.00
99.0952 341.00
99.1604 381.00
99.2256 414.00
99.2908 397.00
99.356 372.00
99.4212 368.00
99.4864 395.00
99.5516 380.00
99.6168 394.00
99.682 353.00
99.7472 367.00
99.8124 391.00
99.8776 409.00
99.9428 354.00
100.008 401.00
100.073 402.00
100.095 420.00