File: data/xrd_creation/results/Na_19.xy
9.903433 2744.00
9.968632 2658.00
10.0338 2794.00
10.099 2680.00
10.1642 2673.00
10.2294 2612.00
10.2946 2560.00
10.3598 2591.00
10.425 2497.00
10.4902 2566.00
10.5554 2498.00
10.6206 2487.00
10.6858 2470.00
10.751 2413.00
10.8162 2360.00
10.8814 2328.00
10.9466 2369.00
11.0118 2366.00
11.077 2273.00
11.1422 2197.00
11.2074 2228.00
11.2726 2263.00
11.3378 2245.00
11.403 2198.00
11.4682 2229.00
11.5334 2141.00
11.5986 2168.00
11.6638 2068.00
11.729 2127.00
11.7942 2118.00
11.8594 2017.00
11.9246 2104.00
11.9898 2086.00
12.055 2053.00
12.1202 1937.00
12.1854 2033.00
12.2506 2025.00
12.3158 1957.00
12.381 1918.00
12.4462 1935.00
12.5114 1948.00
12.5766 1847.00
12.6418 1837.00
12.707 1889.00
12.7722 1950.00
12.8374 1844.00
12.9026 1880.00
12.9678 1818.00
13.033 1837.00
13.0982 1836.00
13.1634 1790.00
13.2286 1758.00
13.2938 1728.00
13.359 1766.00
13.4242 1717.00
13.4894 1729.00
13.5546 1648.00
13.6198 1635.00
13.685 1650.00
13.7502 1738.00
13.8154 1672.00
13.8805 1636.00
13.9457 1598.00
14.0109 1690.00
14.0761 1630.00
14.1413 1633.00
14.2065 1550.00
14.2717 1609.00
14.3369 1652.00
14.4021 1630.00
14.4673 1580.00
14.5325 1557.00
14.5977 1602.00
14.6629 1583.00
14.7281 1557.00
14.7933 1480.00
14.8585 1487.00
14.9237 1536.00
14.9889 1450.00
15.0541 1491.00
15.1193 1553.00
15.1845 1518.00
15.2497 1410.00
15.3149 1491.00
15.3801 1392.00
15.4453 1460.00
15.5105 1487.00
15.5757 1416.00
15.6409 1422.00
15.7061 1451.00
15.7713 1454.00
15.8365 1429.00
15.9017 1470.00
15.9669 1326.00
16.0321 1400.00
16.0973 1361.00
16.1625 1424.00
16.2277 1340.00
16.2929 1351.00
16.3581 1394.00
16.4233 1371.00
16.4885 1398.00
16.5537 1366.00
16.6189 1377.00
16.6841 1316.00
16.7493 1372.00
16.8145 1334.00
16.8797 1361.00
16.9449 1436.00
17.0101 1340.00
17.0753 1328.00
17.1405 1368.00
17.2057 1326.00
17.2709 1265.00
17.3361 1278.00
17.4013 1313.00
17.4665 1267.00
17.5317 1313.00
17.5969 1249.00
17.6621 1241.00
17.7273 1366.00
17.7925 1200.00
17.8577 1293.00
17.9229 1249.00
17.9881 1281.00
18.0533 1333.00
18.1185 1155.00
18.1837 1277.00
18.2489 1276.00
18.3141 1297.00
18.3793 1187.00
18.4445 1251.00
18.5097 1196.00
18.5749 1248.00
18.6401 1221.00
18.7052 1231.00
18.7704 1192.00
18.8356 1175.00
18.9008 1129.00
18.966 1151.00
19.0312 1150.00
19.0964 1133.00
19.1616 1194.00
19.2268 1199.00
19.292 1197.00
19.3572 1100.00
19.4224 1088.00
19.4876 1127.00
19.5528 1149.00
19.618 1094.00
19.6832 1174.00
19.7484 1108.00
19.8136 1142.00
19.8788 1117.00
19.944 1078.00
20.0092 1096.00
20.0744 1104.00
20.1396 1110.00
20.2048 1113.00
20.27 1120.00
20.3352 1123.00
20.4004 1096.00
20.4656 1138.00
20.5308 1100.00
20.596 1098.00
20.6612 1019.00
20.7264 1073.00
20.7916 1074.00
20.8568 1064.00
20.922 1081.00
20.9872 1051.00
21.0524 1045.00
21.1176 986.00
21.1828 1038.00
21.248 1049.00
21.3132 1102.00
21.3784 1086.00
21.4436 1075.00
21.5088 1072.00
21.574 1035.00
21.6392 1046.00
21.7044 1074.00
21.7696 1068.00
21.8348 990.00
21.9 1088.00
21.9652 1086.00
22.0304 1111.00
22.0956 1068.00
22.1608 1148.00
22.226 1088.00
22.2912 1084.00
22.3564 1044.00
22.4216 1041.00
22.4868 1096.00
22.552 1096.00
22.6172 1132.00
22.6824 1105.00
22.7476 1106.00
22.8128 1043.00
22.878 1010.00
22.9432 1044.00
23.0084 1042.00
23.0736 1060.00
23.1388 1030.00
23.204 1012.00
23.2692 1037.00
23.3344 1070.00
23.3996 1148.00
23.4647 1153.00
23.5299 1155.00
23.5951 1125.00
23.6603 1162.00
23.7255 1053.00
23.7907 1137.00
23.8559 1200.00
23.9211 1184.00
23.9863 1164.00
24.0515 1141.00
24.1167 1161.00
24.1819 1123.00
24.2471 1116.00
24.3123 1167.00
24.3775 1202.00
24.4427 1221.00
24.5079 1197.00
24.5731 1215.00
24.6383 1225.00
24.7035 1259.00
24.7687 1311.00
24.8339 1250.00
24.8991 1349.00
24.9643 1330.00
25.0295 1236.00
25.0947 1455.00
25.1599 1385.00
25.2251 1408.00
25.2903 1325.00
25.3555 1404.00
25.4207 1484.00
25.4859 1456.00
25.5511 1390.00
25.6163 1491.00
25.6815 1506.00
25.7467 1455.00
25.8119 1533.00
25.8771 1585.00
25.9423 1574.00
26.0075 1558.00
26.0727 1507.00
26.1379 1400.00
26.2031 1263.00
26.2683 1309.00
26.3335 1286.00
26.3987 1282.00
26.4639 1234.00
26.5291 1152.00
26.5943 1043.00
26.6595 1120.00
26.7247 1089.00
26.7899 1040.00
26.8551 977.00
26.9203 1047.00
26.9855 993.00
27.0507 977.00
27.1159 926.00
27.1811 1001.00
27.2463 929.00
27.3115 940.00
27.3767 978.00
27.4419 1004.00
27.5071 1118.00
27.5723 1140.00
27.6375 1085.00
27.7027 980.00
27.7679 929.00
27.8331 942.00
27.8983 970.00
27.9635 987.00
28.0287 950.00
28.0939 947.00
28.1591 887.00
28.2243 895.00
28.2894 830.00
28.3546 892.00
28.4198 857.00
28.485 798.00
28.5502 845.00
28.6154 715.00
28.6806 801.00
28.7458 806.00
28.811 800.00
28.8762 740.00
28.9414 838.00
29.0066 876.00
29.0718 872.00
29.137 826.00
29.2022 765.00
29.2674 748.00
29.3326 785.00
29.3978 764.00
29.463 755.00
29.5282 753.00
29.5934 774.00
29.6586 808.00
29.7238 771.00
29.789 829.00
29.8542 977.00
29.9194 1285.00
29.9846 1954.00
30.0498 2354.00
30.115 2053.00
30.1802 1532.00
30.2454 1130.00
30.3106 1007.00
30.3758 994.00
30.441 964.00
30.5062 876.00
30.5714 781.00
30.6366 802.00
30.7018 751.00
30.767 634.00
30.8322 694.00
30.8974 718.00
30.9626 714.00
31.0278 675.00
31.093 660.00
31.1582 712.00
31.2234 767.00
31.2886 864.00
31.3538 794.00
31.419 752.00
31.4842 686.00
31.5494 703.00
31.6146 717.00
31.6798 670.00
31.745 633.00
31.8102 676.00
31.8754 694.00
31.9406 697.00
32.0058 659.00
32.071 651.00
32.1362 671.00
32.2014 625.00
32.2666 644.00
32.3318 630.00
32.397 612.00
32.4622 647.00
32.5274 639.00
32.5926 662.00
32.6578 664.00
32.723 612.00
32.7882 735.00
32.8534 765.00
32.9186 905.00
32.9838 941.00
33.0489 852.00
33.1141 740.00
33.1793 686.00
33.2445 627.00
33.3097 610.00
33.3749 628.00
33.4401 627.00
33.5053 632.00
33.5705 644.00
33.6357 628.00
33.7009 682.00
33.7661 686.00
33.8313 656.00
33.8965 682.00
33.9617 733.00
34.0269 857.00
34.0921 1082.00
34.1573 1184.00
34.2225 1050.00
34.2877 999.00
34.3529 1104.00
34.4181 1169.00
34.4833 1225.00
34.5485 973.00
34.6137 833.00
34.6789 711.00
34.7441 650.00
34.8093 620.00
34.8745 644.00
34.9397 616.00
35.0049 818.00
35.0701 1049.00
35.1353 1459.00
35.2005 1510.00
35.2657 1294.00
35.3309 953.00
35.3961 766.00
35.4613 575.00
35.5265 573.00
35.5917 583.00
35.6569 573.00
35.7221 564.00
35.7873 536.00
35.8525 562.00
35.9177 534.00
35.9829 581.00
36.0481 530.00
36.1133 516.00
36.1785 541.00
36.2437 557.00
36.3089 510.00
36.3741 509.00
36.4393 478.00
36.5045 525.00
36.5697 565.00
36.6349 519.00
36.7001 546.00
36.7653 596.00
36.8305 595.00
36.8957 530.00
36.9609 543.00
37.0261 567.00
37.0913 595.00
37.1565 559.00
37.2217 588.00
37.2869 573.00
37.3521 577.00
37.4173 615.00
37.4825 567.00
37.5477 593.00
37.6129 607.00
37.6781 634.00
37.7433 742.00
37.8085 1025.00
37.8736 1497.00
37.9388 1707.00
38.004 1625.00
38.0692 1258.00
38.1344 975.00
38.1996 712.00
38.2648 625.00
38.33 630.00
38.3952 550.00
38.4604 606.00
38.5256 585.00
38.5908 568.00
38.656 524.00
38.7212 488.00
38.7864 522.00
38.8516 497.00
38.9168 497.00
38.982 522.00
39.0472 495.00
39.1124 491.00
39.1776 473.00
39.2428 446.00
39.308 468.00
39.3732 477.00
39.4384 487.00
39.5036 468.00
39.5688 475.00
39.634 544.00
39.6992 632.00
39.7644 775.00
39.8296 968.00
39.8948 1051.00
39.96 1019.00
40.0252 854.00
40.0904 652.00
40.1556 534.00
40.2208 494.00
40.286 492.00
40.3512 445.00
40.4164 467.00
40.4816 446.00
40.5468 499.00
40.612 488.00
40.6772 490.00
40.7424 484.00
40.8076 471.00
40.8728 535.00
40.938 627.00
41.0032 742.00
41.0684 806.00
41.1336 825.00
41.1988 765.00
41.264 774.00
41.3292 843.00
41.3944 982.00
41.4596 977.00
41.5248 831.00
41.59 635.00
41.6552 545.00
41.7204 538.00
41.7856 513.00
41.8508 553.00
41.916 499.00
41.9812 505.00
42.0464 464.00
42.1116 455.00
42.1768 509.00
42.242 556.00
42.3072 528.00
42.3724 563.00
42.4376 541.00
42.5028 522.00
42.568 568.00
42.6332 540.00
42.6983 574.00
42.7635 550.00
42.8287 512.00
42.8939 588.00
42.9591 581.00
43.0243 573.00
43.0895 591.00
43.1547 610.00
43.2199 610.00
43.2851 609.00
43.3503 550.00
43.4155 516.00
43.4807 526.00
43.5459 493.00
43.6111 512.00
43.6763 473.00
43.7415 452.00
43.8067 450.00
43.8719 495.00
43.9371 471.00
44.0023 495.00
44.0675 453.00
44.1327 514.00
44.1979 477.00
44.2631 494.00
44.3283 509.00
44.3935 558.00
44.4587 559.00
44.5239 558.00
44.5891 496.00
44.6543 508.00
44.7195 466.00
44.7847 412.00
44.8499 452.00
44.9151 468.00
44.9803 417.00
45.0455 453.00
45.1107 409.00
45.1759 410.00
45.2411 431.00
45.3063 432.00
45.3715 454.00
45.4367 449.00
45.5019 421.00
45.5671 439.00
45.6323 405.00
45.6975 452.00
45.7627 465.00
45.8279 430.00
45.8931 458.00
45.9583 443.00
46.0235 427.00
46.0887 448.00
46.1539 465.00
46.2191 520.00
46.2843 519.00
46.3495 587.00
46.4147 796.00
46.4799 745.00
46.5451 703.00
46.6103 576.00
46.6755 471.00
46.7407 458.00
46.8059 447.00
46.8711 454.00
46.9363 450.00
47.0015 515.00
47.0667 474.00
47.1319 421.00
47.1971 452.00
47.2623 446.00
47.3275 374.00
47.3927 418.00
47.4579 412.00
47.523 367.00
47.5882 413.00
47.6534 392.00
47.7186 392.00
47.7838 395.00
47.849 431.00
47.9142 392.00
47.9794 438.00
48.0446 527.00
48.1098 612.00
48.175 727.00
48.2402 721.00
48.3054 660.00
48.3706 592.00
48.4358 527.00
48.501 467.00
48.5662 446.00
48.6314 389.00
48.6966 398.00
48.7618 373.00
48.827 391.00
48.8922 400.00
48.9574 371.00
49.0226 429.00
49.0878 477.00
49.153 471.00
49.2182 418.00
49.2834 438.00
49.3486 400.00
49.4138 374.00
49.479 390.00
49.5442 347.00
49.6094 336.00
49.6746 366.00
49.7398 384.00
49.805 338.00
49.8702 422.00
49.9354 355.00
50.0006 402.00
50.0658 364.00
50.131 385.00
50.1962 394.00
50.2614 356.00
50.3266 373.00
50.3918 387.00
50.457 358.00
50.5222 392.00
50.5874 414.00
50.6526 412.00
50.7178 389.00
50.783 421.00
50.8482 409.00
50.9134 420.00
50.9786 404.00
51.0438 417.00
51.109 400.00
51.1742 382.00
51.2394 340.00
51.3046 355.00
51.3698 335.00
51.435 359.00
51.5002 392.00
51.5654 417.00
51.6306 372.00
51.6958 380.00
51.761 386.00
51.8262 378.00
51.8914 373.00
51.9566 322.00
52.0218 365.00
52.087 339.00
52.1522 323.00
52.2174 352.00
52.2826 372.00
52.3477 357.00
52.4129 347.00
52.4781 344.00
52.5433 376.00
52.6085 390.00
52.6737 370.00
52.7389 378.00
52.8041 362.00
52.8693 389.00
52.9345 337.00
52.9997 412.00
53.0649 358.00
53.1301 422.00
53.1953 392.00
53.2605 384.00
53.3257 441.00
53.3909 487.00
53.4561 520.00
53.5213 492.00
53.5865 529.00
53.6517 451.00
53.7169 419.00
53.7821 389.00
53.8473 361.00
53.9125 364.00
53.9777 363.00
54.0429 341.00
54.1081 364.00
54.1733 360.00
54.2385 391.00
54.3037 393.00
54.3689 385.00
54.4341 415.00
54.4993 412.00
54.5645 435.00
54.6297 440.00
54.6949 434.00
54.7601 417.00
54.8253 370.00
54.8905 345.00
54.9557 356.00
55.0209 375.00
55.0861 344.00
55.1513 315.00
55.2165 392.00
55.2817 358.00
55.3469 336.00
55.4121 367.00
55.4773 409.00
55.5425 342.00
55.6077 346.00
55.6729 335.00
55.7381 330.00
55.8033 345.00
55.8685 364.00
55.9337 318.00
55.9989 332.00
56.0641 325.00
56.1293 365.00
56.1945 399.00
56.2597 388.00
56.3249 425.00
56.3901 371.00
56.4553 366.00
56.5205 351.00
56.5857 351.00
56.6509 310.00
56.7161 332.00
56.7813 298.00
56.8465 310.00
56.9117 334.00
56.9769 392.00
57.042 385.00
57.1073 368.00
57.1724 328.00
57.2376 334.00
57.3028 347.00
57.368 313.00
57.4332 313.00
57.4984 299.00
57.5636 315.00
57.6288 329.00
57.694 275.00
57.7592 328.00
57.8244 339.00
57.8896 291.00
57.9548 302.00
58.02 302.00
58.0852 345.00
58.1504 319.00
58.2156 329.00
58.2808 340.00
58.346 330.00
58.4112 375.00
58.4764 357.00
58.5416 321.00
58.6068 351.00
58.672 357.00
58.7372 341.00
58.8024 325.00
58.8676 384.00
58.9328 359.00
58.998 384.00
59.0632 351.00
59.1284 344.00
59.1936 324.00
59.2588 296.00
59.324 319.00
59.3892 307.00
59.4544 310.00
59.5196 334.00
59.5848 312.00
59.65 312.00
59.7152 294.00
59.7804 296.00
59.8456 322.00
59.9108 275.00
59.976 327.00
60.0412 311.00
60.1064 296.00
60.1716 276.00
60.2368 305.00
60.302 325.00
60.3672 317.00
60.4324 346.00
60.4976 344.00
60.5628 339.00
60.628 346.00
60.6932 322.00
60.7584 305.00
60.8236 305.00
60.8888 293.00
60.954 291.00
61.0192 273.00
61.0844 270.00
61.1496 274.00
61.2148 286.00
61.28 265.00
61.3452 267.00
61.4104 284.00
61.4756 285.00
61.5408 274.00
61.606 304.00
61.6712 272.00
61.7364 315.00
61.8016 330.00
61.8667 326.00
61.932 348.00
61.9971 349.00
62.0623 327.00
62.1275 296.00
62.1927 292.00
62.2579 284.00
62.3231 303.00
62.3883 315.00
62.4535 340.00
62.5187 404.00
62.5839 400.00
62.6491 389.00
62.7143 369.00
62.7795 341.00
62.8447 345.00
62.9099 292.00
62.9751 329.00
63.0403 301.00
63.1055 303.00
63.1707 323.00
63.2359 250.00
63.3011 313.00
63.3663 296.00
63.4315 301.00
63.4967 300.00
63.5619 285.00
63.6271 305.00
63.6923 280.00
63.7575 324.00
63.8227 326.00
63.8879 317.00
63.9531 323.00
64.0183 282.00
64.0835 320.00
64.1487 294.00
64.2139 276.00
64.2791 275.00
64.3443 271.00
64.4095 271.00
64.4747 290.00
64.5399 264.00
64.6051 284.00
64.6703 280.00
64.7355 272.00
64.8007 263.00
64.8659 273.00
64.9311 282.00
64.9963 241.00
65.0615 278.00
65.1267 271.00
65.1919 293.00
65.2571 231.00
65.3223 227.00
65.3875 261.00
65.4527 232.00
65.5179 234.00
65.5831 278.00
65.6483 251.00
65.7135 283.00
65.7787 270.00
65.8439 276.00
65.9091 235.00
65.9743 236.00
66.0395 291.00
66.1047 246.00
66.1699 237.00
66.2351 238.00
66.3003 282.00
66.3655 264.00
66.4307 262.00
66.4959 229.00
66.561 262.00
66.6263 229.00
66.6915 246.00
66.7566 266.00
66.8218 248.00
66.887 250.00
66.9522 249.00
67.0174 258.00
67.0826 238.00
67.1478 262.00
67.213 267.00
67.2782 314.00
67.3434 325.00
67.4086 314.00
67.4738 315.00
67.539 288.00
67.6042 261.00
67.6694 250.00
67.7346 265.00
67.7998 220.00
67.865 258.00
67.9302 289.00
67.9954 268.00
68.0606 286.00
68.1258 301.00
68.191 285.00
68.2562 281.00
68.3214 242.00
68.3866 237.00
68.4518 263.00
68.517 276.00
68.5822 270.00
68.6474 292.00
68.7126 224.00
68.7778 273.00
68.843 246.00
68.9082 294.00
68.9734 284.00
69.0386 256.00
69.1038 280.00
69.169 264.00
69.2342 264.00
69.2994 269.00
69.3646 262.00
69.4298 236.00
69.495 263.00
69.5602 266.00
69.6254 250.00
69.6906 275.00
69.7558 257.00
69.821 225.00
69.8862 263.00
69.9514 264.00
70.0166 245.00
70.0818 274.00
70.147 228.00
70.2122 246.00
70.2774 277.00
70.3426 228.00
70.4078 199.00
70.473 263.00
70.5382 261.00
70.6034 243.00
70.6686 245.00
70.7338 245.00
70.799 265.00
70.8642 269.00
70.9294 274.00
70.9946 267.00
71.0598 266.00
71.125 249.00
71.1902 220.00
71.2554 239.00
71.3205 247.00
71.3858 249.00
71.451 222.00
71.5162 246.00
71.5813 296.00
71.6465 244.00
71.7117 264.00
71.7769 258.00
71.8421 284.00
71.9073 236.00
71.9725 241.00
72.0377 240.00
72.1029 242.00
72.1681 290.00
72.2333 296.00
72.2985 277.00
72.3637 237.00
72.4289 273.00
72.4941 263.00
72.5593 281.00
72.6245 238.00
72.6897 232.00
72.7549 229.00
72.8201 226.00
72.8853 273.00
72.9505 242.00
73.0157 282.00
73.0809 284.00
73.1461 235.00
73.2113 270.00
73.2765 285.00
73.3417 291.00
73.4069 278.00
73.4721 265.00
73.5373 265.00
73.6025 275.00
73.6677 257.00
73.7329 266.00
73.7981 271.00
73.8633 278.00
73.9285 275.00
73.9937 248.00
74.0589 222.00
74.1241 261.00
74.1893 264.00
74.2545 264.00
74.3197 246.00
74.3849 281.00
74.4501 308.00
74.5153 259.00
74.5805 270.00
74.6457 266.00
74.7109 279.00
74.7761 283.00
74.8413 228.00
74.9065 249.00
74.9717 263.00
75.0369 269.00
75.1021 262.00
75.1673 275.00
75.2325 217.00
75.2977 271.00
75.3629 246.00
75.4281 267.00
75.4933 273.00
75.5585 275.00
75.6237 270.00
75.6889 294.00
75.7541 258.00
75.8193 261.00
75.8845 238.00
75.9497 280.00
76.0149 276.00
76.0801 269.00
76.1452 274.00
76.2104 256.00
76.2756 266.00
76.3409 279.00
76.406 220.00
76.4712 261.00
76.5364 248.00
76.6016 270.00
76.6668 248.00
76.732 270.00
76.7972 248.00
76.8624 281.00
76.9276 287.00
76.9928 302.00
77.058 249.00
77.1232 279.00
77.1884 258.00
77.2536 273.00
77.3188 288.00
77.384 270.00
77.4492 245.00
77.5144 262.00
77.5796 285.00
77.6448 269.00
77.71 272.00
77.7752 284.00
77.8404 278.00
77.9056 272.00
77.9708 302.00
78.036 269.00
78.1012 286.00
78.1664 306.00
78.2316 307.00
78.2968 285.00
78.362 288.00
78.4272 299.00
78.4924 298.00
78.5576 274.00
78.6228 312.00
78.688 272.00
78.7532 278.00
78.8184 313.00
78.8836 272.00
78.9488 291.00
79.014 277.00
79.0792 274.00
79.1444 310.00
79.2096 319.00
79.2748 295.00
79.34 286.00
79.4052 309.00
79.4704 281.00
79.5356 333.00
79.6008 330.00
79.666 302.00
79.7312 295.00
79.7964 290.00
79.8616 263.00
79.9268 285.00
79.992 306.00
80.0572 315.00
80.1224 316.00
80.1876 307.00
80.2528 357.00
80.318 351.00
80.3832 309.00
80.4484 312.00
80.5136 313.00
80.5788 288.00
80.644 315.00
80.7092 278.00
80.7744 266.00
80.8396 325.00
80.9048 270.00
80.9699 285.00
81.0351 287.00
81.1003 277.00
81.1655 270.00
81.2307 291.00
81.2959 294.00
81.3611 274.00
81.4263 282.00
81.4915 285.00
81.5567 324.00
81.6219 316.00
81.6871 285.00
81.7523 300.00
81.8175 285.00
81.8827 276.00
81.9479 290.00
82.0131 322.00
82.0783 291.00
82.1435 278.00
82.2087 265.00
82.2739 306.00
82.3391 244.00
82.4043 310.00
82.4695 294.00
82.5347 306.00
82.5999 264.00
82.6651 284.00
82.7303 267.00
82.7955 256.00
82.8607 257.00
82.9259 293.00
82.9911 307.00
83.0563 297.00
83.1215 283.00
83.1867 319.00
83.2519 248.00
83.3171 306.00
83.3823 281.00
83.4475 299.00
83.5127 249.00
83.5779 258.00
83.6431 266.00
83.7083 259.00
83.7735 285.00
83.8387 308.00
83.9039 277.00
83.9691 271.00
84.0343 281.00
84.0995 247.00
84.1647 269.00
84.2299 276.00
84.2951 281.00
84.3603 249.00
84.4255 264.00
84.4907 262.00
84.5559 268.00
84.6211 290.00
84.6863 261.00
84.7515 274.00
84.8167 280.00
84.8819 304.00
84.9471 304.00
85.0123 245.00
85.0775 277.00
85.1427 245.00
85.2079 266.00
85.2731 260.00
85.3383 274.00
85.4035 282.00
85.4687 263.00
85.5339 268.00
85.5991 289.00
85.6643 283.00
85.7295 264.00
85.7946 268.00
85.8598 281.00
85.925 228.00
85.9903 224.00
86.0554 215.00
86.1206 274.00
86.1858 239.00
86.251 268.00
86.3162 279.00
86.3814 241.00
86.4466 271.00
86.5118 239.00
86.577 241.00
86.6422 236.00
86.7074 237.00
86.7726 256.00
86.8378 242.00
86.903 286.00
86.9682 231.00
87.0334 216.00
87.0986 248.00
87.1638 238.00
87.229 240.00
87.2942 258.00
87.3594 259.00
87.4246 272.00
87.4898 268.00
87.555 261.00
87.6202 239.00
87.6854 257.00
87.7506 264.00
87.8158 271.00
87.881 239.00
87.9462 259.00
88.0114 240.00
88.0766 271.00
88.1418 278.00
88.207 246.00
88.2722 232.00
88.3374 267.00
88.4026 221.00
88.4678 229.00
88.533 222.00
88.5982 229.00
88.6634 243.00
88.7286 267.00
88.7938 256.00
88.859 244.00
88.9242 239.00
88.9894 240.00
89.0546 230.00
89.1198 246.00
89.185 241.00
89.2502 227.00
89.3154 215.00
89.3806 228.00
89.4458 272.00
89.511 265.00
89.5762 256.00
89.6414 280.00
89.7066 259.00
89.7718 219.00
89.837 270.00
89.9022 256.00
89.9674 232.00
90.0326 267.00
90.0978 235.00
90.163 241.00
90.2282 222.00
90.2934 227.00
90.3586 260.00
90.4238 237.00
90.489 239.00
90.5542 230.00
90.6193 232.00
90.6845 199.00
90.7497 242.00
90.8149 243.00
90.8801 245.00
90.9453 222.00
91.0105 229.00
91.0757 237.00
91.1409 245.00
91.2061 228.00
91.2713 239.00
91.3365 221.00
91.4017 219.00
91.4669 276.00
91.5321 198.00
91.5973 243.00
91.6625 244.00
91.7277 195.00
91.7929 247.00
91.8581 226.00
91.9233 218.00
91.9885 205.00
92.0537 238.00
92.1189 235.00
92.1841 239.00
92.2493 244.00
92.3145 233.00
92.3797 245.00
92.4449 228.00
92.5101 206.00
92.5753 228.00
92.6405 258.00
92.7057 217.00
92.7709 231.00
92.8361 233.00
92.9013 227.00
92.9665 258.00
93.0317 251.00
93.0969 227.00
93.1621 249.00
93.2273 219.00
93.2925 232.00
93.3577 243.00
93.4229 244.00
93.4881 256.00
93.5533 245.00
93.6185 221.00
93.6837 219.00
93.7489 271.00
93.8141 217.00
93.8793 244.00
93.9445 223.00
94.0097 236.00
94.0749 227.00
94.1401 230.00
94.2053 220.00
94.2705 208.00
94.3357 228.00
94.4009 234.00
94.4661 261.00
94.5313 228.00
94.5965 216.00
94.6617 207.00
94.7269 262.00
94.7921 239.00
94.8573 235.00
94.9225 257.00
94.9877 233.00
95.0529 247.00
95.1181 250.00
95.1833 257.00
95.2485 251.00
95.3137 264.00
95.3789 246.00
95.444 243.00
95.5092 259.00
95.5744 226.00
95.6396 236.00
95.7048 268.00
95.77 241.00
95.8352 232.00
95.9004 229.00
95.9656 266.00
96.0308 234.00
96.096 247.00
96.1612 263.00
96.2264 265.00
96.2916 233.00
96.3568 222.00
96.422 240.00
96.4872 212.00
96.5524 221.00
96.6176 280.00
96.6828 247.00
96.748 234.00
96.8132 226.00
96.8784 202.00
96.9436 247.00
97.0088 217.00
97.074 201.00
97.1392 242.00
97.2044 225.00
97.2696 221.00
97.3348 260.00
97.4 222.00
97.4652 210.00
97.5304 224.00
97.5956 231.00
97.6608 223.00
97.726 228.00
97.7912 204.00
97.8564 210.00
97.9216 241.00
97.9868 232.00
98.052 271.00
98.1172 235.00
98.1824 227.00
98.2476 208.00
98.3128 215.00
98.378 229.00
98.4432 204.00
98.5084 233.00
98.5736 238.00
98.6388 212.00
98.704 237.00
98.7692 238.00
98.8344 239.00
98.8996 220.00
98.9648 235.00
99.03 215.00
99.0952 218.00
99.1604 232.00
99.2256 230.00
99.2908 222.00
99.356 225.00
99.4212 214.00
99.4864 243.00
99.5516 225.00
99.6168 223.00
99.682 231.00
99.7472 226.00
99.8124 210.00
99.8776 227.00
99.9428 212.00
100.008 188.00
100.073 258.00
100.095 207.00