File: data/xrd_creation/results/Na_104.xy
9.903433 3040.00
9.968632 2888.00
10.0338 2823.00
10.099 2818.00
10.1642 2848.00
10.2294 2726.00
10.2946 2748.00
10.3598 2835.00
10.425 2807.00
10.4902 2679.00
10.5554 2789.00
10.6206 2687.00
10.6858 2635.00
10.751 2643.00
10.8162 2706.00
10.8814 2619.00
10.9466 2600.00
11.0118 2543.00
11.077 2665.00
11.1422 2628.00
11.2074 2471.00
11.2726 2433.00
11.3378 2509.00
11.403 2460.00
11.4682 2472.00
11.5334 2476.00
11.5986 2478.00
11.6638 2495.00
11.729 2387.00
11.7942 2385.00
11.8594 2392.00
11.9246 2356.00
11.9898 2494.00
12.055 2419.00
12.1202 2335.00
12.1854 2473.00
12.2506 2306.00
12.3158 2285.00
12.381 2298.00
12.4462 2312.00
12.5114 2155.00
12.5766 2315.00
12.6418 2262.00
12.707 2242.00
12.7722 2194.00
12.8374 2239.00
12.9026 2162.00
12.9678 2196.00
13.033 2148.00
13.0982 2172.00
13.1634 2257.00
13.2286 2118.00
13.2938 2020.00
13.359 2068.00
13.4242 2093.00
13.4894 2049.00
13.5546 2071.00
13.6198 2067.00
13.685 1998.00
13.7502 2041.00
13.8154 1910.00
13.8805 1957.00
13.9457 1991.00
14.0109 1962.00
14.0761 2005.00
14.1413 1970.00
14.2065 1957.00
14.2717 1969.00
14.3369 2079.00
14.4021 2007.00
14.4673 1908.00
14.5325 2065.00
14.5977 2150.00
14.6629 2212.00
14.7281 2290.00
14.7933 2160.00
14.8585 2020.00
14.9237 2006.00
14.9889 1935.00
15.0541 1944.00
15.1193 1882.00
15.1845 1946.00
15.2497 1889.00
15.3149 1770.00
15.3801 1867.00
15.4453 1801.00
15.5105 1832.00
15.5757 1848.00
15.6409 1829.00
15.7061 1814.00
15.7713 1851.00
15.8365 1846.00
15.9017 1745.00
15.9669 1910.00
16.0321 1861.00
16.0973 1936.00
16.1625 1914.00
16.2277 1931.00
16.2929 1857.00
16.3581 1785.00
16.4233 1858.00
16.4885 1763.00
16.5537 1710.00
16.6189 1766.00
16.6841 1773.00
16.7493 1704.00
16.8145 1769.00
16.8797 1726.00
16.9449 1753.00
17.0101 1664.00
17.0753 1686.00
17.1405 1712.00
17.2057 1676.00
17.2709 1761.00
17.3361 1713.00
17.4013 1652.00
17.4665 1714.00
17.5317 1672.00
17.5969 1761.00
17.6621 1731.00
17.7273 1652.00
17.7925 1627.00
17.8577 1623.00
17.9229 1615.00
17.9881 1711.00
18.0533 1642.00
18.1185 1600.00
18.1837 1631.00
18.2489 1651.00
18.3141 1680.00
18.3793 1594.00
18.4445 1650.00
18.5097 1669.00
18.5749 1580.00
18.6401 1550.00
18.7052 1570.00
18.7704 1529.00
18.8356 1563.00
18.9008 1568.00
18.966 1596.00
19.0312 1567.00
19.0964 1569.00
19.1616 1549.00
19.2268 1632.00
19.292 1689.00
19.3572 1754.00
19.4224 1946.00
19.4876 2036.00
19.5528 2299.00
19.618 2383.00
19.6832 2176.00
19.7484 1953.00
19.8136 1805.00
19.8788 1896.00
19.944 1958.00
20.0092 2000.00
20.0744 1994.00
20.1396 2046.00
20.2048 2050.00
20.27 2087.00
20.3352 2148.00
20.4004 2280.00
20.4656 2476.00
20.5308 2472.00
20.596 2586.00
20.6612 2556.00
20.7264 2311.00
20.7916 2202.00
20.8568 2183.00
20.922 2288.00
20.9872 2251.00
21.0524 2281.00
21.1176 2417.00
21.1828 2426.00
21.248 2531.00
21.3132 2491.00
21.3784 2647.00
21.4436 2732.00
21.5088 2651.00
21.574 2714.00
21.6392 2473.00
21.7044 2312.00
21.7696 2503.00
21.8348 2370.00
21.9 2191.00
21.9652 2172.00
22.0304 2140.00
22.0956 1996.00
22.1608 1890.00
22.226 1683.00
22.2912 1686.00
22.3564 1762.00
22.4216 1972.00
22.4868 2191.00
22.552 2569.00
22.6172 2911.00
22.6824 2725.00
22.7476 2041.00
22.8128 1780.00
22.878 1614.00
22.9432 1503.00
23.0084 1481.00
23.0736 1603.00
23.1388 1659.00
23.204 1780.00
23.2692 2198.00
23.3344 2410.00
23.3996 2632.00
23.4647 2081.00
23.5299 1803.00
23.5951 1561.00
23.6603 1535.00
23.7255 1598.00
23.7907 1574.00
23.8559 1535.00
23.9211 1506.00
23.9863 1519.00
24.0515 1544.00
24.1167 1562.00
24.1819 1645.00
24.2471 1787.00
24.3123 1930.00
24.3775 2060.00
24.4427 2487.00
24.5079 2567.00
24.5731 2697.00
24.6383 2575.00
24.7035 2303.00
24.7687 2073.00
24.8339 1948.00
24.8991 1701.00
24.9643 1601.00
25.0295 1564.00
25.0947 1688.00
25.1599 1626.00
25.2251 1749.00
25.2903 1767.00
25.3555 1667.00
25.4207 1573.00
25.4859 1521.00
25.5511 1445.00
25.6163 1547.00
25.6815 1560.00
25.7467 1605.00
25.8119 1655.00
25.8771 1768.00
25.9423 1847.00
26.0075 2176.00
26.0727 2485.00
26.1379 3041.00
26.2031 2927.00
26.2683 2458.00
26.3335 2251.00
26.3987 2202.00
26.4639 2247.00
26.5291 2430.00
26.5943 2596.00
26.6595 3007.00
26.7247 3297.00
26.7899 4294.00
26.8551 5719.00
26.9203 5551.00
26.9855 4231.00
27.0507 3189.00
27.1159 2912.00
27.1811 2619.00
27.2463 2433.00
27.3115 2353.00
27.3767 2336.00
27.4419 2150.00
27.5071 2256.00
27.5723 2088.00
27.6375 2080.00
27.7027 2116.00
27.7679 1980.00
27.8331 1935.00
27.8983 1786.00
27.9635 1676.00
28.0287 1635.00
28.0939 1622.00
28.1591 1588.00
28.2243 1649.00
28.2894 1604.00
28.3546 1521.00
28.4198 1464.00
28.485 1497.00
28.5502 1350.00
28.6154 1356.00
28.6806 1343.00
28.7458 1277.00
28.811 1256.00
28.8762 1270.00
28.9414 1361.00
29.0066 1306.00
29.0718 1277.00
29.137 1313.00
29.2022 1455.00
29.2674 1499.00
29.3326 1706.00
29.3978 1944.00
29.463 2113.00
29.5282 2116.00
29.5934 1990.00
29.6586 2038.00
29.7238 1994.00
29.789 2151.00
29.8542 2805.00
29.9194 3646.00
29.9846 4421.00
30.0498 4270.00
30.115 3730.00
30.1802 3282.00
30.2454 2998.00
30.3106 2651.00
30.3758 2628.00
30.441 2526.00
30.5062 2323.00
30.5714 1985.00
30.6366 1819.00
30.7018 1657.00
30.767 1514.00
30.8322 1474.00
30.8974 1442.00
30.9626 1280.00
31.0278 1360.00
31.093 1284.00
31.1582 1218.00
31.2234 1215.00
31.2886 1259.00
31.3538 1163.00
31.419 1309.00
31.4842 1348.00
31.5494 1365.00
31.6146 1392.00
31.6798 1538.00
31.745 1630.00
31.8102 1827.00
31.8754 1933.00
31.9406 2044.00
32.0058 2007.00
32.071 2018.00
32.1362 1902.00
32.2014 1781.00
32.2666 1715.00
32.3318 1755.00
32.397 1813.00
32.4622 1645.00
32.5274 1641.00
32.5926 1544.00
32.6578 1536.00
32.723 1409.00
32.7882 1367.00
32.8534 1282.00
32.9186 1365.00
32.9838 1354.00
33.0489 1244.00
33.1141 1308.00
33.1793 1341.00
33.2445 1417.00
33.3097 1327.00
33.3749 1319.00
33.4401 1329.00
33.5053 1412.00
33.5705 1461.00
33.6357 1538.00
33.7009 1650.00
33.7661 1781.00
33.8313 1894.00
33.8965 2186.00
33.9617 2377.00
34.0269 2968.00
34.0921 3726.00
34.1573 4656.00
34.2225 4132.00
34.2877 3356.00
34.3529 2658.00
34.4181 2416.00
34.4833 2268.00
34.5485 2193.00
34.6137 1979.00
34.6789 1809.00
34.7441 1664.00
34.8093 1604.00
34.8745 1485.00
34.9397 1318.00
35.0049 1329.00
35.0701 1299.00
35.1353 1200.00
35.2005 1094.00
35.2657 1148.00
35.3309 1046.00
35.3961 1013.00
35.4613 1151.00
35.5265 1162.00
35.5917 1250.00
35.6569 1345.00
35.7221 1462.00
35.7873 1425.00
35.8525 1399.00
35.9177 1389.00
35.9829 1462.00
36.0481 1482.00
36.1133 1554.00
36.1785 1678.00
36.2437 1631.00
36.3089 1474.00
36.3741 1449.00
36.4393 1462.00
36.5045 1487.00
36.5697 1496.00
36.6349 1444.00
36.7001 1391.00
36.7653 1368.00
36.8305 1354.00
36.8957 1260.00
36.9609 1300.00
37.0261 1200.00
37.0913 1256.00
37.1565 1215.00
37.2217 1225.00
37.2869 1354.00
37.3521 1416.00
37.4173 1607.00
37.4825 1811.00
37.5477 1867.00
37.6129 1877.00
37.6781 1822.00
37.7433 1827.00
37.8085 1760.00
37.8736 1591.00
37.9388 1383.00
38.004 1330.00
38.0692 1411.00
38.1344 1559.00
38.1996 1812.00
38.2648 1869.00
38.33 1716.00
38.3952 1417.00
38.4604 1227.00
38.5256 1160.00
38.5908 1126.00
38.656 1035.00
38.7212 967.00
38.7864 873.00
38.8516 990.00
38.9168 998.00
38.982 947.00
39.0472 1041.00
39.1124 1098.00
39.1776 966.00
39.2428 1027.00
39.308 1072.00
39.3732 1070.00
39.4384 1042.00
39.5036 1102.00
39.5688 1009.00
39.634 947.00
39.6992 911.00
39.7644 812.00
39.8296 892.00
39.8948 828.00
39.96 836.00
40.0252 786.00
40.0904 744.00
40.1556 809.00
40.2208 726.00
40.286 704.00
40.3512 735.00
40.4164 713.00
40.4816 821.00
40.5468 781.00
40.612 729.00
40.6772 724.00
40.7424 772.00
40.8076 783.00
40.8728 772.00
40.938 728.00
41.0032 759.00
41.0684 788.00
41.1336 737.00
41.1988 769.00
41.264 770.00
41.3292 720.00
41.3944 748.00
41.4596 765.00
41.5248 730.00
41.59 751.00
41.6552 757.00
41.7204 738.00
41.7856 679.00
41.8508 692.00
41.916 686.00
41.9812 659.00
42.0464 714.00
42.1116 661.00
42.1768 732.00
42.242 729.00
42.3072 741.00
42.3724 802.00
42.4376 770.00
42.5028 823.00
42.568 867.00
42.6332 870.00
42.6983 992.00
42.7635 1100.00
42.8287 1147.00
42.8939 1164.00
42.9591 1048.00
43.0243 1062.00
43.0895 1079.00
43.1547 1112.00
43.2199 1131.00
43.2851 1142.00
43.3503 1116.00
43.4155 1117.00
43.4807 971.00
43.5459 927.00
43.6111 899.00
43.6763 841.00
43.7415 780.00
43.8067 818.00
43.8719 825.00
43.9371 825.00
44.0023 969.00
44.0675 930.00
44.1327 895.00
44.1979 893.00
44.2631 877.00
44.3283 877.00
44.3935 867.00
44.4587 950.00
44.5239 900.00
44.5891 1027.00
44.6543 1026.00
44.7195 968.00
44.7847 921.00
44.8499 802.00
44.9151 768.00
44.9803 790.00
45.0455 696.00
45.1107 672.00
45.1759 691.00
45.2411 703.00
45.3063 706.00
45.3715 666.00
45.4367 689.00
45.5019 678.00
45.5671 669.00
45.6323 667.00
45.6975 647.00
45.7627 737.00
45.8279 744.00
45.8931 778.00
45.9583 766.00
46.0235 722.00
46.0887 718.00
46.1539 691.00
46.2191 679.00
46.2843 683.00
46.3495 690.00
46.4147 714.00
46.4799 719.00
46.5451 705.00
46.6103 728.00
46.6755 690.00
46.7407 741.00
46.8059 747.00
46.8711 705.00
46.9363 697.00
47.0015 670.00
47.0667 718.00
47.1319 711.00
47.1971 693.00
47.2623 668.00
47.3275 774.00
47.3927 752.00
47.4579 779.00
47.523 767.00
47.5882 732.00
47.6534 743.00
47.7186 721.00
47.7838 774.00
47.849 707.00
47.9142 752.00
47.9794 730.00
48.0446 757.00
48.1098 727.00
48.175 695.00
48.2402 738.00
48.3054 679.00
48.3706 725.00
48.4358 703.00
48.501 688.00
48.5662 648.00
48.6314 631.00
48.6966 704.00
48.7618 699.00
48.827 710.00
48.8922 712.00
48.9574 799.00
49.0226 705.00
49.0878 712.00
49.153 780.00
49.2182 749.00
49.2834 752.00
49.3486 752.00
49.4138 843.00
49.479 826.00
49.5442 760.00
49.6094 878.00
49.6746 885.00
49.7398 949.00
49.805 934.00
49.8702 984.00
49.9354 1016.00
50.0006 1097.00
50.0658 1131.00
50.131 1078.00
50.1962 1036.00
50.2614 982.00
50.3266 1001.00
50.3918 885.00
50.457 857.00
50.5222 829.00
50.5874 801.00
50.6526 813.00
50.7178 793.00
50.783 760.00
50.8482 743.00
50.9134 721.00
50.9786 755.00
51.0438 817.00
51.109 801.00
51.1742 911.00
51.2394 891.00
51.3046 983.00
51.3698 1026.00
51.435 1136.00
51.5002 1195.00
51.5654 1410.00
51.6306 1494.00
51.6958 1566.00
51.761 1741.00
51.8262 1868.00
51.8914 2204.00
51.9566 2800.00
52.0218 3551.00
52.087 3244.00
52.1522 2820.00
52.2174 2626.00
52.2826 2139.00
52.3477 1935.00
52.4129 1748.00
52.4781 1612.00
52.5433 1494.00
52.6085 1377.00
52.6737 1332.00
52.7389 1286.00
52.8041 1136.00
52.8693 1053.00
52.9345 1057.00
52.9997 1076.00
53.0649 1056.00
53.1301 1009.00
53.1953 1023.00
53.2605 1009.00
53.3257 1012.00
53.3909 1035.00
53.4561 1063.00
53.5213 1160.00
53.5865 1033.00
53.6517 1019.00
53.7169 933.00
53.7821 990.00
53.8473 905.00
53.9125 923.00
53.9777 855.00
54.0429 838.00
54.1081 797.00
54.1733 853.00
54.2385 925.00
54.3037 916.00
54.3689 929.00
54.4341 962.00
54.4993 996.00
54.5645 959.00
54.6297 979.00
54.6949 958.00
54.7601 904.00
54.8253 960.00
54.8905 984.00
54.9557 1127.00
55.0209 1263.00
55.0861 1152.00
55.1513 1044.00
55.2165 996.00
55.2817 873.00
55.3469 778.00
55.4121 776.00
55.4773 756.00
55.5425 727.00
55.6077 654.00
55.6729 707.00
55.7381 649.00
55.8033 709.00
55.8685 608.00
55.9337 619.00
55.9989 635.00
56.0641 619.00
56.1293 690.00
56.1945 727.00
56.2597 767.00
56.3249 763.00
56.3901 729.00
56.4553 776.00
56.5205 753.00
56.5857 746.00
56.6509 712.00
56.7161 796.00
56.7813 815.00
56.8465 799.00
56.9117 797.00
56.9769 768.00
57.042 873.00
57.1073 811.00
57.1724 832.00
57.2376 834.00
57.3028 831.00
57.368 810.00
57.4332 826.00
57.4984 896.00
57.5636 862.00
57.6288 943.00
57.694 819.00
57.7592 855.00
57.8244 875.00
57.8896 867.00
57.9548 935.00
58.02 992.00
58.0852 1036.00
58.1504 954.00
58.2156 926.00
58.2808 909.00
58.346 881.00
58.4112 872.00
58.4764 852.00
58.5416 830.00
58.6068 878.00
58.672 922.00
58.7372 934.00
58.8024 996.00
58.8676 938.00
58.9328 929.00
58.998 878.00
59.0632 848.00
59.1284 858.00
59.1936 763.00
59.2588 802.00
59.324 819.00
59.3892 827.00
59.4544 788.00
59.5196 684.00
59.5848 670.00
59.65 633.00
59.7152 638.00
59.7804 661.00
59.8456 615.00
59.9108 628.00
59.976 582.00
60.0412 617.00
60.1064 645.00
60.1716 693.00
60.2368 701.00
60.302 713.00
60.3672 741.00
60.4324 787.00
60.4976 825.00
60.5628 839.00
60.628 832.00
60.6932 853.00
60.7584 844.00
60.8236 776.00
60.8888 736.00
60.954 737.00
61.0192 755.00
61.0844 705.00
61.1496 708.00
61.2148 676.00
61.28 729.00
61.3452 658.00
61.4104 741.00
61.4756 771.00
61.5408 771.00
61.606 848.00
61.6712 792.00
61.7364 782.00
61.8016 877.00
61.8667 880.00
61.932 914.00
61.9971 961.00
62.0623 1013.00
62.1275 1252.00
62.1927 1124.00
62.2579 1090.00
62.3231 1100.00
62.3883 940.00
62.4535 937.00
62.5187 960.00
62.5839 917.00
62.6491 899.00
62.7143 913.00
62.7795 849.00
62.8447 785.00
62.9099 840.00
62.9751 774.00
63.0403 796.00
63.1055 747.00
63.1707 795.00
63.2359 758.00
63.3011 783.00
63.3663 799.00
63.4315 796.00
63.4967 832.00
63.5619 866.00
63.6271 817.00
63.6923 933.00
63.7575 911.00
63.8227 894.00
63.8879 963.00
63.9531 950.00
64.0183 944.00
64.0835 867.00
64.1487 922.00
64.2139 837.00
64.2791 826.00
64.3443 799.00
64.4095 811.00
64.4747 826.00
64.5399 798.00
64.6051 765.00
64.6703 816.00
64.7355 847.00
64.8007 918.00
64.8659 902.00
64.9311 1020.00
64.9963 1192.00
65.0615 1040.00
65.1267 1005.00
65.1919 1008.00
65.2571 950.00
65.3223 869.00
65.3875 808.00
65.4527 829.00
65.5179 773.00
65.5831 785.00
65.6483 814.00
65.7135 845.00
65.7787 770.00
65.8439 811.00
65.9091 828.00
65.9743 819.00
66.0395 900.00
66.1047 1066.00
66.1699 1130.00
66.2351 1160.00
66.3003 1059.00
66.3655 1064.00
66.4307 1012.00
66.4959 874.00
66.561 924.00
66.6263 868.00
66.6915 796.00
66.7566 735.00
66.8218 783.00
66.887 726.00
66.9522 661.00
67.0174 645.00
67.0826 595.00
67.1478 648.00
67.213 602.00
67.2782 627.00
67.3434 597.00
67.4086 583.00
67.4738 550.00
67.539 607.00
67.6042 577.00
67.6694 571.00
67.7346 545.00
67.7998 546.00
67.865 530.00
67.9302 573.00
67.9954 566.00
68.0606 579.00
68.1258 601.00
68.191 603.00
68.2562 630.00
68.3214 608.00
68.3866 580.00
68.4518 562.00
68.517 592.00
68.5822 574.00
68.6474 513.00
68.7126 534.00
68.7778 488.00
68.843 523.00
68.9082 515.00
68.9734 462.00
69.0386 523.00
69.1038 509.00
69.169 480.00
69.2342 525.00
69.2994 487.00
69.3646 460.00
69.4298 481.00
69.495 463.00
69.5602 466.00
69.6254 469.00
69.6906 514.00
69.7558 509.00
69.821 543.00
69.8862 562.00
69.9514 595.00
70.0166 531.00
70.0818 583.00
70.147 610.00
70.2122 544.00
70.2774 577.00
70.3426 598.00
70.4078 548.00
70.473 490.00
70.5382 504.00
70.6034 556.00
70.6686 541.00
70.7338 527.00
70.799 538.00
70.8642 569.00
70.9294 544.00
70.9946 572.00
71.0598 596.00
71.125 648.00
71.1902 664.00
71.2554 700.00
71.3205 687.00
71.3858 780.00
71.451 783.00
71.5162 877.00
71.5813 700.00
71.6465 706.00
71.7117 727.00
71.7769 718.00
71.8421 634.00
71.9073 585.00
71.9725 549.00
72.0377 567.00
72.1029 532.00
72.1681 505.00
72.2333 524.00
72.2985 495.00
72.3637 523.00
72.4289 474.00
72.4941 506.00
72.5593 518.00
72.6245 436.00
72.6897 460.00
72.7549 469.00
72.8201 397.00
72.8853 457.00
72.9505 491.00
73.0157 447.00
73.0809 423.00
73.1461 440.00
73.2113 413.00
73.2765 418.00
73.3417 427.00
73.4069 387.00
73.4721 424.00
73.5373 413.00
73.6025 438.00
73.6677 414.00
73.7329 412.00
73.7981 424.00
73.8633 427.00
73.9285 420.00
73.9937 412.00
74.0589 388.00
74.1241 422.00
74.1893 422.00
74.2545 415.00
74.3197 452.00
74.3849 460.00
74.4501 467.00
74.5153 452.00
74.5805 445.00
74.6457 429.00
74.7109 463.00
74.7761 440.00
74.8413 408.00
74.9065 422.00
74.9717 462.00
75.0369 465.00
75.1021 405.00
75.1673 451.00
75.2325 425.00
75.2977 452.00
75.3629 446.00
75.4281 406.00
75.4933 429.00
75.5585 412.00
75.6237 446.00
75.6889 431.00
75.7541 458.00
75.8193 485.00
75.8845 459.00
75.9497 479.00
76.0149 480.00
76.0801 489.00
76.1452 487.00
76.2104 471.00
76.2756 476.00
76.3409 486.00
76.406 499.00
76.4712 447.00
76.5364 446.00
76.6016 409.00
76.6668 443.00
76.732 391.00
76.7972 434.00
76.8624 414.00
76.9276 410.00
76.9928 436.00
77.058 418.00
77.1232 408.00
77.1884 386.00
77.2536 355.00
77.3188 455.00
77.384 403.00
77.4492 388.00
77.5144 406.00
77.5796 452.00
77.6448 427.00
77.71 409.00
77.7752 464.00
77.8404 427.00
77.9056 400.00
77.9708 428.00
78.036 398.00
78.1012 449.00
78.1664 509.00
78.2316 450.00
78.2968 511.00
78.362 517.00
78.4272 477.00
78.4924 532.00
78.5576 536.00
78.6228 507.00
78.688 555.00
78.7532 609.00
78.8184 671.00
78.8836 790.00
78.9488 811.00
79.014 789.00
79.0792 700.00
79.1444 761.00
79.2096 678.00
79.2748 669.00
79.34 563.00
79.4052 582.00
79.4704 559.00
79.5356 524.00
79.6008 491.00
79.666 523.00
79.7312 484.00
79.7964 489.00
79.8616 460.00
79.9268 459.00
79.992 446.00
80.0572 445.00
80.1224 439.00
80.1876 452.00
80.2528 433.00
80.318 438.00
80.3832 431.00
80.4484 420.00
80.5136 454.00
80.5788 431.00
80.644 419.00
80.7092 445.00
80.7744 450.00
80.8396 457.00
80.9048 461.00
80.9699 471.00
81.0351 467.00
81.1003 453.00
81.1655 487.00
81.2307 490.00
81.2959 518.00
81.3611 526.00
81.4263 511.00
81.4915 523.00
81.5567 484.00
81.6219 493.00
81.6871 494.00
81.7523 471.00
81.8175 472.00
81.8827 455.00
81.9479 484.00
82.0131 441.00
82.0783 450.00
82.1435 446.00
82.2087 428.00
82.2739 425.00
82.3391 427.00
82.4043 454.00
82.4695 382.00
82.5347 416.00
82.5999 451.00
82.6651 472.00
82.7303 430.00
82.7955 467.00
82.8607 428.00
82.9259 405.00
82.9911 449.00
83.0563 412.00
83.1215 420.00
83.1867 414.00
83.2519 452.00
83.3171 454.00
83.3823 434.00
83.4475 440.00
83.5127 487.00
83.5779 501.00
83.6431 473.00
83.7083 544.00
83.7735 508.00
83.8387 634.00
83.9039 619.00
83.9691 647.00
84.0343 561.00
84.0995 578.00
84.1647 603.00
84.2299 536.00
84.2951 525.00
84.3603 481.00
84.4255 500.00
84.4907 463.00
84.5559 477.00
84.6211 462.00
84.6863 471.00
84.7515 439.00
84.8167 443.00
84.8819 489.00
84.9471 414.00
85.0123 476.00
85.0775 459.00
85.1427 416.00
85.2079 400.00
85.2731 380.00
85.3383 421.00
85.4035 407.00
85.4687 423.00
85.5339 387.00
85.5991 380.00
85.6643 372.00
85.7295 375.00
85.7946 371.00
85.8598 425.00
85.925 431.00
85.9903 410.00
86.0554 443.00
86.1206 448.00
86.1858 389.00
86.251 407.00
86.3162 418.00
86.3814 406.00
86.4466 411.00
86.5118 389.00
86.577 406.00
86.6422 385.00
86.7074 407.00
86.7726 385.00
86.8378 381.00
86.903 414.00
86.9682 441.00
87.0334 388.00
87.0986 421.00
87.1638 451.00
87.229 438.00
87.2942 507.00
87.3594 513.00
87.4246 530.00
87.4898 524.00
87.555 497.00
87.6202 532.00
87.6854 495.00
87.7506 509.00
87.8158 466.00
87.881 494.00
87.9462 433.00
88.0114 462.00
88.0766 464.00
88.1418 473.00
88.207 469.00
88.2722 460.00
88.3374 490.00
88.4026 450.00
88.4678 439.00
88.533 468.00
88.5982 478.00
88.6634 496.00
88.7286 487.00
88.7938 486.00
88.859 523.00
88.9242 475.00
88.9894 483.00
89.0546 483.00
89.1198 517.00
89.185 500.00
89.2502 502.00
89.3154 493.00
89.3806 508.00
89.4458 481.00
89.511 517.00
89.5762 543.00
89.6414 505.00
89.7066 490.00
89.7718 534.00
89.837 547.00
89.9022 626.00
89.9674 708.00
90.0326 691.00
90.0978 625.00
90.163 613.00
90.2282 622.00
90.2934 626.00
90.3586 593.00
90.4238 548.00
90.489 553.00
90.5542 604.00
90.6193 511.00
90.6845 570.00
90.7497 571.00
90.8149 564.00
90.8801 583.00
90.9453 602.00
91.0105 570.00
91.0757 697.00
91.1409 751.00
91.2061 607.00
91.2713 589.00
91.3365 644.00
91.4017 612.00
91.4669 542.00
91.5321 574.00
91.5973 601.00
91.6625 540.00
91.7277 542.00
91.7929 542.00
91.8581 506.00
91.9233 461.00
91.9885 533.00
92.0537 475.00
92.1189 481.00
92.1841 449.00
92.2493 466.00
92.3145 451.00
92.3797 450.00
92.4449 442.00
92.5101 474.00
92.5753 426.00
92.6405 458.00
92.7057 435.00
92.7709 459.00
92.8361 446.00
92.9013 478.00
92.9665 454.00
93.0317 462.00
93.0969 442.00
93.1621 462.00
93.2273 495.00
93.2925 508.00
93.3577 486.00
93.4229 476.00
93.4881 515.00
93.5533 559.00
93.6185 519.00
93.6837 501.00
93.7489 502.00
93.8141 536.00
93.8793 472.00
93.9445 429.00
94.0097 436.00
94.0749 373.00
94.1401 415.00
94.2053 458.00
94.2705 462.00
94.3357 404.00
94.4009 455.00
94.4661 480.00
94.5313 447.00
94.5965 451.00
94.6617 440.00
94.7269 426.00
94.7921 444.00
94.8573 476.00
94.9225 444.00
94.9877 457.00
95.0529 461.00
95.1181 443.00
95.1833 464.00
95.2485 448.00
95.3137 465.00
95.3789 431.00
95.444 442.00
95.5092 432.00
95.5744 426.00
95.6396 407.00
95.7048 439.00
95.77 441.00
95.8352 402.00
95.9004 449.00
95.9656 458.00
96.0308 441.00
96.096 471.00
96.1612 509.00
96.2264 509.00
96.2916 493.00
96.3568 479.00
96.422 508.00
96.4872 444.00
96.5524 446.00
96.6176 438.00
96.6828 440.00
96.748 439.00
96.8132 429.00
96.8784 410.00
96.9436 384.00
97.0088 387.00
97.074 374.00
97.1392 366.00
97.2044 360.00
97.2696 361.00
97.3348 391.00
97.4 346.00
97.4652 361.00
97.5304 367.00
97.5956 395.00
97.6608 378.00
97.726 384.00
97.7912 367.00
97.8564 418.00
97.9216 374.00
97.9868 367.00
98.052 398.00
98.1172 331.00
98.1824 357.00
98.2476 382.00
98.3128 389.00
98.378 397.00
98.4432 393.00
98.5084 403.00
98.5736 374.00
98.6388 406.00
98.704 349.00
98.7692 356.00
98.8344 354.00
98.8996 368.00
98.9648 361.00
99.03 349.00
99.0952 388.00
99.1604 422.00
99.2256 382.00
99.2908 358.00
99.356 367.00
99.4212 398.00
99.4864 333.00
99.5516 353.00
99.6168 406.00
99.682 388.00
99.7472 404.00
99.8124 371.00
99.8776 369.00
99.9428 371.00
100.008 401.00
100.073 399.00
100.095 398.00