File: data/xrd_creation/results/Na_107.xy
9.903433 2745.00
9.968632 2537.00
10.0338 2596.00
10.099 2525.00
10.1642 2499.00
10.2294 2493.00
10.2946 2509.00
10.3598 2430.00
10.425 2354.00
10.4902 2496.00
10.5554 2368.00
10.6206 2310.00
10.6858 2338.00
10.751 2224.00
10.8162 2281.00
10.8814 2226.00
10.9466 2228.00
11.0118 2222.00
11.077 2140.00
11.1422 2115.00
11.2074 2112.00
11.2726 2124.00
11.3378 2107.00
11.403 2072.00
11.4682 1982.00
11.5334 2070.00
11.5986 2085.00
11.6638 1968.00
11.729 1924.00
11.7942 2002.00
11.8594 1913.00
11.9246 1863.00
11.9898 1884.00
12.055 1861.00
12.1202 1860.00
12.1854 1863.00
12.2506 1833.00
12.3158 1844.00
12.381 1822.00
12.4462 1754.00
12.5114 1773.00
12.5766 1690.00
12.6418 1739.00
12.707 1708.00
12.7722 1722.00
12.8374 1648.00
12.9026 1724.00
12.9678 1634.00
13.033 1632.00
13.0982 1620.00
13.1634 1652.00
13.2286 1624.00
13.2938 1580.00
13.359 1645.00
13.4242 1580.00
13.4894 1481.00
13.5546 1605.00
13.6198 1551.00
13.685 1557.00
13.7502 1452.00
13.8154 1523.00
13.8805 1505.00
13.9457 1458.00
14.0109 1452.00
14.0761 1455.00
14.1413 1457.00
14.2065 1414.00
14.2717 1473.00
14.3369 1426.00
14.4021 1466.00
14.4673 1361.00
14.5325 1408.00
14.5977 1370.00
14.6629 1421.00
14.7281 1402.00
14.7933 1413.00
14.8585 1338.00
14.9237 1392.00
14.9889 1327.00
15.0541 1285.00
15.1193 1345.00
15.1845 1263.00
15.2497 1240.00
15.3149 1299.00
15.3801 1343.00
15.4453 1312.00
15.5105 1286.00
15.5757 1250.00
15.6409 1236.00
15.7061 1220.00
15.7713 1225.00
15.8365 1303.00
15.9017 1255.00
15.9669 1321.00
16.0321 1242.00
16.0973 1252.00
16.1625 1252.00
16.2277 1230.00
16.2929 1271.00
16.3581 1275.00
16.4233 1253.00
16.4885 1261.00
16.5537 1250.00
16.6189 1207.00
16.6841 1178.00
16.7493 1161.00
16.8145 1216.00
16.8797 1204.00
16.9449 1237.00
17.0101 1173.00
17.0753 1165.00
17.1405 1178.00
17.2057 1121.00
17.2709 1098.00
17.3361 1167.00
17.4013 1105.00
17.4665 1189.00
17.5317 1156.00
17.5969 1156.00
17.6621 1082.00
17.7273 1101.00
17.7925 1114.00
17.8577 1067.00
17.9229 1033.00
17.9881 1008.00
18.0533 1041.00
18.1185 1069.00
18.1837 1016.00
18.2489 1082.00
18.3141 1050.00
18.3793 1065.00
18.4445 1028.00
18.5097 1075.00
18.5749 1069.00
18.6401 1025.00
18.7052 1038.00
18.7704 991.00
18.8356 982.00
18.9008 991.00
18.966 1067.00
19.0312 978.00
19.0964 958.00
19.1616 1027.00
19.2268 955.00
19.292 991.00
19.3572 961.00
19.4224 1003.00
19.4876 968.00
19.5528 859.00
19.618 924.00
19.6832 919.00
19.7484 954.00
19.8136 922.00
19.8788 936.00
19.944 914.00
20.0092 920.00
20.0744 869.00
20.1396 865.00
20.2048 908.00
20.27 872.00
20.3352 874.00
20.4004 888.00
20.4656 875.00
20.5308 879.00
20.596 959.00
20.6612 932.00
20.7264 880.00
20.7916 920.00
20.8568 899.00
20.922 822.00
20.9872 871.00
21.0524 872.00
21.1176 848.00
21.1828 860.00
21.248 900.00
21.3132 800.00
21.3784 883.00
21.4436 847.00
21.5088 850.00
21.574 923.00
21.6392 791.00
21.7044 798.00
21.7696 811.00
21.8348 807.00
21.9 798.00
21.9652 808.00
22.0304 885.00
22.0956 784.00
22.1608 799.00
22.226 818.00
22.2912 765.00
22.3564 775.00
22.4216 748.00
22.4868 849.00
22.552 772.00
22.6172 801.00
22.6824 793.00
22.7476 788.00
22.8128 764.00
22.878 739.00
22.9432 737.00
23.0084 735.00
23.0736 777.00
23.1388 756.00
23.204 846.00
23.2692 707.00
23.3344 756.00
23.3996 744.00
23.4647 760.00
23.5299 718.00
23.5951 724.00
23.6603 745.00
23.7255 727.00
23.7907 729.00
23.8559 692.00
23.9211 751.00
23.9863 707.00
24.0515 742.00
24.1167 691.00
24.1819 669.00
24.2471 721.00
24.3123 686.00
24.3775 683.00
24.4427 741.00
24.5079 708.00
24.5731 639.00
24.6383 668.00
24.7035 688.00
24.7687 657.00
24.8339 660.00
24.8991 723.00
24.9643 649.00
25.0295 689.00
25.0947 699.00
25.1599 689.00
25.2251 664.00
25.2903 695.00
25.3555 628.00
25.4207 675.00
25.4859 675.00
25.5511 657.00
25.6163 631.00
25.6815 691.00
25.7467 646.00
25.8119 672.00
25.8771 643.00
25.9423 628.00
26.0075 673.00
26.0727 683.00
26.1379 644.00
26.2031 616.00
26.2683 637.00
26.3335 600.00
26.3987 612.00
26.4639 656.00
26.5291 640.00
26.5943 606.00
26.6595 602.00
26.7247 644.00
26.7899 617.00
26.8551 628.00
26.9203 568.00
26.9855 608.00
27.0507 613.00
27.1159 587.00
27.1811 594.00
27.2463 608.00
27.3115 644.00
27.3767 544.00
27.4419 611.00
27.5071 630.00
27.5723 581.00
27.6375 636.00
27.7027 616.00
27.7679 571.00
27.8331 582.00
27.8983 610.00
27.9635 615.00
28.0287 592.00
28.0939 599.00
28.1591 581.00
28.2243 590.00
28.2894 600.00
28.3546 591.00
28.4198 585.00
28.485 594.00
28.5502 560.00
28.6154 593.00
28.6806 593.00
28.7458 590.00
28.811 581.00
28.8762 577.00
28.9414 570.00
29.0066 547.00
29.0718 547.00
29.137 584.00
29.2022 536.00
29.2674 568.00
29.3326 577.00
29.3978 522.00
29.463 561.00
29.5282 541.00
29.5934 525.00
29.6586 508.00
29.7238 547.00
29.789 549.00
29.8542 610.00
29.9194 563.00
29.9846 504.00
30.0498 589.00
30.115 527.00
30.1802 552.00
30.2454 559.00
30.3106 522.00
30.3758 585.00
30.441 509.00
30.5062 528.00
30.5714 525.00
30.6366 528.00
30.7018 493.00
30.767 505.00
30.8322 528.00
30.8974 485.00
30.9626 519.00
31.0278 523.00
31.093 495.00
31.1582 495.00
31.2234 515.00
31.2886 457.00
31.3538 483.00
31.419 475.00
31.4842 472.00
31.5494 484.00
31.6146 463.00
31.6798 518.00
31.745 487.00
31.8102 498.00
31.8754 488.00
31.9406 493.00
32.0058 481.00
32.071 436.00
32.1362 491.00
32.2014 515.00
32.2666 494.00
32.3318 479.00
32.397 499.00
32.4622 474.00
32.5274 501.00
32.5926 513.00
32.6578 487.00
32.723 504.00
32.7882 504.00
32.8534 482.00
32.9186 452.00
32.9838 478.00
33.0489 452.00
33.1141 469.00
33.1793 486.00
33.2445 475.00
33.3097 443.00
33.3749 448.00
33.4401 443.00
33.5053 464.00
33.5705 453.00
33.6357 456.00
33.7009 445.00
33.7661 442.00
33.8313 456.00
33.8965 412.00
33.9617 428.00
34.0269 462.00
34.0921 434.00
34.1573 430.00
34.2225 441.00
34.2877 439.00
34.3529 436.00
34.4181 460.00
34.4833 445.00
34.5485 413.00
34.6137 435.00
34.6789 467.00
34.7441 425.00
34.8093 394.00
34.8745 401.00
34.9397 393.00
35.0049 405.00
35.0701 437.00
35.1353 404.00
35.2005 436.00
35.2657 425.00
35.3309 424.00
35.3961 405.00
35.4613 393.00
35.5265 444.00
35.5917 380.00
35.6569 427.00
35.7221 428.00
35.7873 402.00
35.8525 398.00
35.9177 387.00
35.9829 415.00
36.0481 396.00
36.1133 389.00
36.1785 362.00
36.2437 373.00
36.3089 388.00
36.3741 424.00
36.4393 380.00
36.5045 407.00
36.5697 388.00
36.6349 355.00
36.7001 387.00
36.7653 387.00
36.8305 412.00
36.8957 410.00
36.9609 381.00
37.0261 402.00
37.0913 406.00
37.1565 371.00
37.2217 394.00
37.2869 405.00
37.3521 376.00
37.4173 398.00
37.4825 412.00
37.5477 350.00
37.6129 382.00
37.6781 354.00
37.7433 397.00
37.8085 343.00
37.8736 399.00
37.9388 412.00
38.004 445.00
38.0692 404.00
38.1344 350.00
38.1996 333.00
38.2648 340.00
38.33 344.00
38.3952 337.00
38.4604 362.00
38.5256 372.00
38.5908 349.00
38.656 336.00
38.7212 337.00
38.7864 372.00
38.8516 330.00
38.9168 327.00
38.982 366.00
39.0472 340.00
39.1124 360.00
39.1776 332.00
39.2428 351.00
39.308 336.00
39.3732 374.00
39.4384 366.00
39.5036 320.00
39.5688 371.00
39.634 333.00
39.6992 334.00
39.7644 361.00
39.8296 364.00
39.8948 326.00
39.96 295.00
40.0252 355.00
40.0904 325.00
40.1556 352.00
40.2208 329.00
40.286 361.00
40.3512 317.00
40.4164 319.00
40.4816 316.00
40.5468 316.00
40.612 311.00
40.6772 331.00
40.7424 313.00
40.8076 324.00
40.8728 317.00
40.938 331.00
41.0032 322.00
41.0684 322.00
41.1336 299.00
41.1988 306.00
41.264 311.00
41.3292 335.00
41.3944 302.00
41.4596 321.00
41.5248 354.00
41.59 320.00
41.6552 281.00
41.7204 325.00
41.7856 314.00
41.8508 323.00
41.916 303.00
41.9812 318.00
42.0464 311.00
42.1116 257.00
42.1768 293.00
42.242 300.00
42.3072 272.00
42.3724 301.00
42.4376 327.00
42.5028 300.00
42.568 279.00
42.6332 321.00
42.6983 328.00
42.7635 317.00
42.8287 304.00
42.8939 285.00
42.9591 290.00
43.0243 304.00
43.0895 309.00
43.1547 318.00
43.2199 287.00
43.2851 313.00
43.3503 336.00
43.4155 293.00
43.4807 315.00
43.5459 287.00
43.6111 328.00
43.6763 282.00
43.7415 297.00
43.8067 316.00
43.8719 282.00
43.9371 294.00
44.0023 302.00
44.0675 316.00
44.1327 318.00
44.1979 339.00
44.2631 269.00
44.3283 315.00
44.3935 299.00
44.4587 336.00
44.5239 313.00
44.5891 329.00
44.6543 312.00
44.7195 291.00
44.7847 259.00
44.8499 275.00
44.9151 296.00
44.9803 297.00
45.0455 317.00
45.1107 278.00
45.1759 292.00
45.2411 280.00
45.3063 263.00
45.3715 282.00
45.4367 308.00
45.5019 276.00
45.5671 276.00
45.6323 274.00
45.6975 265.00
45.7627 299.00
45.8279 301.00
45.8931 270.00
45.9583 279.00
46.0235 287.00
46.0887 249.00
46.1539 258.00
46.2191 292.00
46.2843 281.00
46.3495 272.00
46.4147 238.00
46.4799 308.00
46.5451 305.00
46.6103 300.00
46.6755 268.00
46.7407 268.00
46.8059 277.00
46.8711 273.00
46.9363 271.00
47.0015 288.00
47.0667 266.00
47.1319 294.00
47.1971 267.00
47.2623 264.00
47.3275 289.00
47.3927 260.00
47.4579 269.00
47.523 267.00
47.5882 279.00
47.6534 235.00
47.7186 258.00
47.7838 284.00
47.849 290.00
47.9142 259.00
47.9794 263.00
48.0446 225.00
48.1098 270.00
48.175 274.00
48.2402 284.00
48.3054 269.00
48.3706 280.00
48.4358 265.00
48.501 234.00
48.5662 290.00
48.6314 257.00
48.6966 281.00
48.7618 231.00
48.827 284.00
48.8922 258.00
48.9574 248.00
49.0226 258.00
49.0878 270.00
49.153 263.00
49.2182 266.00
49.2834 275.00
49.3486 275.00
49.4138 270.00
49.479 264.00
49.5442 264.00
49.6094 259.00
49.6746 257.00
49.7398 237.00
49.805 268.00
49.8702 258.00
49.9354 264.00
50.0006 267.00
50.0658 270.00
50.131 230.00
50.1962 235.00
50.2614 267.00
50.3266 246.00
50.3918 284.00
50.457 264.00
50.5222 207.00
50.5874 299.00
50.6526 228.00
50.7178 239.00
50.783 250.00
50.8482 267.00
50.9134 286.00
50.9786 233.00
51.0438 244.00
51.109 247.00
51.1742 256.00
51.2394 284.00
51.3046 267.00
51.3698 264.00
51.435 264.00
51.5002 241.00
51.5654 231.00
51.6306 257.00
51.6958 243.00
51.761 264.00
51.8262 237.00
51.8914 235.00
51.9566 263.00
52.0218 221.00
52.087 211.00
52.1522 248.00
52.2174 274.00
52.2826 256.00
52.3477 245.00
52.4129 243.00
52.4781 249.00
52.5433 258.00
52.6085 231.00
52.6737 206.00
52.7389 271.00
52.8041 222.00
52.8693 221.00
52.9345 223.00
52.9997 233.00
53.0649 241.00
53.1301 233.00
53.1953 227.00
53.2605 289.00
53.3257 238.00
53.3909 246.00
53.4561 226.00
53.5213 234.00
53.5865 257.00
53.6517 224.00
53.7169 223.00
53.7821 216.00
53.8473 245.00
53.9125 247.00
53.9777 236.00
54.0429 210.00
54.1081 211.00
54.1733 237.00
54.2385 240.00
54.3037 228.00
54.3689 220.00
54.4341 237.00
54.4993 235.00
54.5645 240.00
54.6297 220.00
54.6949 230.00
54.7601 218.00
54.8253 242.00
54.8905 223.00
54.9557 207.00
55.0209 269.00
55.0861 226.00
55.1513 221.00
55.2165 221.00
55.2817 239.00
55.3469 214.00
55.4121 220.00
55.4773 256.00
55.5425 219.00
55.6077 215.00
55.6729 224.00
55.7381 211.00
55.8033 211.00
55.8685 203.00
55.9337 209.00
55.9989 270.00
56.0641 211.00
56.1293 250.00
56.1945 216.00
56.2597 200.00
56.3249 210.00
56.3901 215.00
56.4553 219.00
56.5205 217.00
56.5857 223.00
56.6509 226.00
56.7161 196.00
56.7813 195.00
56.8465 201.00
56.9117 223.00
56.9769 205.00
57.042 179.00
57.1073 197.00
57.1724 233.00
57.2376 222.00
57.3028 225.00
57.368 204.00
57.4332 218.00
57.4984 216.00
57.5636 218.00
57.6288 203.00
57.694 189.00
57.7592 225.00
57.8244 210.00
57.8896 235.00
57.9548 179.00
58.02 224.00
58.0852 216.00
58.1504 222.00
58.2156 202.00
58.2808 202.00
58.346 174.00
58.4112 197.00
58.4764 224.00
58.5416 208.00
58.6068 209.00
58.672 213.00
58.7372 215.00
58.8024 214.00
58.8676 202.00
58.9328 197.00
58.998 217.00
59.0632 209.00
59.1284 174.00
59.1936 200.00
59.2588 183.00
59.324 203.00
59.3892 198.00
59.4544 216.00
59.5196 204.00
59.5848 187.00
59.65 180.00
59.7152 170.00
59.7804 190.00
59.8456 208.00
59.9108 187.00
59.976 216.00
60.0412 216.00
60.1064 182.00
60.1716 166.00
60.2368 182.00
60.302 183.00
60.3672 182.00
60.4324 237.00
60.4976 197.00
60.5628 178.00
60.628 177.00
60.6932 212.00
60.7584 200.00
60.8236 177.00
60.8888 174.00
60.954 199.00
61.0192 196.00
61.0844 205.00
61.1496 194.00
61.2148 192.00
61.28 188.00
61.3452 206.00
61.4104 192.00
61.4756 188.00
61.5408 177.00
61.606 198.00
61.6712 187.00
61.7364 195.00
61.8016 195.00
61.8667 201.00
61.932 176.00
61.9971 183.00
62.0623 181.00
62.1275 187.00
62.1927 192.00
62.2579 171.00
62.3231 196.00
62.3883 195.00
62.4535 194.00
62.5187 193.00
62.5839 182.00
62.6491 188.00
62.7143 164.00
62.7795 176.00
62.8447 208.00
62.9099 184.00
62.9751 191.00
63.0403 180.00
63.1055 195.00
63.1707 170.00
63.2359 158.00
63.3011 183.00
63.3663 201.00
63.4315 214.00
63.4967 168.00
63.5619 180.00
63.6271 197.00
63.6923 201.00
63.7575 190.00
63.8227 184.00
63.8879 185.00
63.9531 193.00
64.0183 170.00
64.0835 162.00
64.1487 189.00
64.2139 191.00
64.2791 184.00
64.3443 195.00
64.4095 204.00
64.4747 207.00
64.5399 163.00
64.6051 173.00
64.6703 174.00
64.7355 185.00
64.8007 184.00
64.8659 175.00
64.9311 178.00
64.9963 189.00
65.0615 201.00
65.1267 176.00
65.1919 174.00
65.2571 200.00
65.3223 193.00
65.3875 183.00
65.4527 162.00
65.5179 188.00
65.5831 212.00
65.6483 201.00
65.7135 160.00
65.7787 182.00
65.8439 192.00
65.9091 175.00
65.9743 159.00
66.0395 189.00
66.1047 166.00
66.1699 179.00
66.2351 165.00
66.3003 171.00
66.3655 205.00
66.4307 190.00
66.4959 162.00
66.561 183.00
66.6263 181.00
66.6915 170.00
66.7566 181.00
66.8218 190.00
66.887 164.00
66.9522 187.00
67.0174 182.00
67.0826 170.00
67.1478 173.00
67.213 188.00
67.2782 198.00
67.3434 171.00
67.4086 179.00
67.4738 210.00
67.539 163.00
67.6042 192.00
67.6694 179.00
67.7346 193.00
67.7998 196.00
67.865 185.00
67.9302 189.00
67.9954 182.00
68.0606 188.00
68.1258 162.00
68.191 162.00
68.2562 186.00
68.3214 195.00
68.3866 189.00
68.4518 169.00
68.517 178.00
68.5822 180.00
68.6474 218.00
68.7126 179.00
68.7778 188.00
68.843 163.00
68.9082 216.00
68.9734 178.00
69.0386 193.00
69.1038 206.00
69.169 188.00
69.2342 178.00
69.2994 193.00
69.3646 177.00
69.4298 173.00
69.495 179.00
69.5602 150.00
69.6254 171.00
69.6906 159.00
69.7558 214.00
69.821 192.00
69.8862 189.00
69.9514 200.00
70.0166 203.00
70.0818 182.00
70.147 205.00
70.2122 200.00
70.2774 178.00
70.3426 191.00
70.4078 177.00
70.473 173.00
70.5382 176.00
70.6034 165.00
70.6686 191.00
70.7338 215.00
70.799 198.00
70.8642 192.00
70.9294 172.00
70.9946 170.00
71.0598 186.00
71.125 170.00
71.1902 174.00
71.2554 162.00
71.3205 204.00
71.3858 183.00
71.451 171.00
71.5162 182.00
71.5813 192.00
71.6465 203.00
71.7117 171.00
71.7769 184.00
71.8421 186.00
71.9073 191.00
71.9725 194.00
72.0377 192.00
72.1029 196.00
72.1681 182.00
72.2333 183.00
72.2985 175.00
72.3637 169.00
72.4289 172.00
72.4941 201.00
72.5593 193.00
72.6245 204.00
72.6897 181.00
72.7549 161.00
72.8201 192.00
72.8853 205.00
72.9505 190.00
73.0157 195.00
73.0809 186.00
73.1461 178.00
73.2113 190.00
73.2765 183.00
73.3417 195.00
73.4069 193.00
73.4721 195.00
73.5373 180.00
73.6025 182.00
73.6677 187.00
73.7329 171.00
73.7981 211.00
73.8633 195.00
73.9285 191.00
73.9937 187.00
74.0589 170.00
74.1241 193.00
74.1893 191.00
74.2545 202.00
74.3197 173.00
74.3849 197.00
74.4501 177.00
74.5153 179.00
74.5805 185.00
74.6457 190.00
74.7109 195.00
74.7761 217.00
74.8413 224.00
74.9065 201.00
74.9717 169.00
75.0369 201.00
75.1021 170.00
75.1673 205.00
75.2325 209.00
75.2977 201.00
75.3629 184.00
75.4281 209.00
75.4933 195.00
75.5585 170.00
75.6237 167.00
75.6889 180.00
75.7541 207.00
75.8193 189.00
75.8845 197.00
75.9497 184.00
76.0149 193.00
76.0801 207.00
76.1452 238.00
76.2104 213.00
76.2756 197.00
76.3409 187.00
76.406 218.00
76.4712 212.00
76.5364 205.00
76.6016 190.00
76.6668 171.00
76.732 188.00
76.7972 180.00
76.8624 218.00
76.9276 215.00
76.9928 220.00
77.058 211.00
77.1232 202.00
77.1884 181.00
77.2536 208.00
77.3188 183.00
77.384 211.00
77.4492 208.00
77.5144 211.00
77.5796 216.00
77.6448 196.00
77.71 206.00
77.7752 234.00
77.8404 207.00
77.9056 226.00
77.9708 205.00
78.036 211.00
78.1012 193.00
78.1664 197.00
78.2316 205.00
78.2968 199.00
78.362 196.00
78.4272 195.00
78.4924 182.00
78.5576 223.00
78.6228 202.00
78.688 213.00
78.7532 215.00
78.8184 227.00
78.8836 187.00
78.9488 212.00
79.014 220.00
79.0792 205.00
79.1444 204.00
79.2096 200.00
79.2748 197.00
79.34 198.00
79.4052 214.00
79.4704 244.00
79.5356 217.00
79.6008 215.00
79.666 217.00
79.7312 224.00
79.7964 225.00
79.8616 259.00
79.9268 197.00
79.992 209.00
80.0572 214.00
80.1224 208.00
80.1876 232.00
80.2528 212.00
80.318 230.00
80.3832 183.00
80.4484 209.00
80.5136 263.00
80.5788 203.00
80.644 225.00
80.7092 199.00
80.7744 231.00
80.8396 220.00
80.9048 205.00
80.9699 207.00
81.0351 221.00
81.1003 211.00
81.1655 238.00
81.2307 212.00
81.2959 227.00
81.3611 186.00
81.4263 235.00
81.4915 211.00
81.5567 229.00
81.6219 210.00
81.6871 222.00
81.7523 250.00
81.8175 248.00
81.8827 218.00
81.9479 215.00
82.0131 229.00
82.0783 201.00
82.1435 218.00
82.2087 224.00
82.2739 262.00
82.3391 216.00
82.4043 223.00
82.4695 247.00
82.5347 211.00
82.5999 217.00
82.6651 191.00
82.7303 221.00
82.7955 236.00
82.8607 221.00
82.9259 209.00
82.9911 213.00
83.0563 206.00
83.1215 222.00
83.1867 226.00
83.2519 202.00
83.3171 207.00
83.3823 224.00
83.4475 212.00
83.5127 193.00
83.5779 197.00
83.6431 194.00
83.7083 223.00
83.7735 210.00
83.8387 209.00
83.9039 219.00
83.9691 211.00
84.0343 210.00
84.0995 190.00
84.1647 206.00
84.2299 216.00
84.2951 203.00
84.3603 229.00
84.4255 228.00
84.4907 212.00
84.5559 210.00
84.6211 200.00
84.6863 225.00
84.7515 205.00
84.8167 187.00
84.8819 217.00
84.9471 202.00
85.0123 195.00
85.0775 220.00
85.1427 194.00
85.2079 193.00
85.2731 200.00
85.3383 218.00
85.4035 215.00
85.4687 203.00
85.5339 196.00
85.5991 211.00
85.6643 238.00
85.7295 223.00
85.7946 196.00
85.8598 207.00
85.925 170.00
85.9903 189.00
86.0554 199.00
86.1206 203.00
86.1858 204.00
86.251 185.00
86.3162 192.00
86.3814 202.00
86.4466 184.00
86.5118 189.00
86.577 199.00
86.6422 203.00
86.7074 194.00
86.7726 194.00
86.8378 193.00
86.903 202.00
86.9682 194.00
87.0334 157.00
87.0986 205.00
87.1638 173.00
87.229 191.00
87.2942 163.00
87.3594 198.00
87.4246 191.00
87.4898 180.00
87.555 175.00
87.6202 180.00
87.6854 186.00
87.7506 187.00
87.8158 190.00
87.881 168.00
87.9462 190.00
88.0114 176.00
88.0766 180.00
88.1418 177.00
88.207 192.00
88.2722 192.00
88.3374 178.00
88.4026 192.00
88.4678 200.00
88.533 211.00
88.5982 197.00
88.6634 177.00
88.7286 194.00
88.7938 171.00
88.859 184.00
88.9242 187.00
88.9894 217.00
89.0546 178.00
89.1198 183.00
89.185 169.00
89.2502 166.00
89.3154 179.00
89.3806 192.00
89.4458 185.00
89.511 195.00
89.5762 205.00
89.6414 172.00
89.7066 185.00
89.7718 205.00
89.837 198.00
89.9022 202.00
89.9674 164.00
90.0326 210.00
90.0978 174.00
90.163 184.00
90.2282 186.00
90.2934 166.00
90.3586 229.00
90.4238 186.00
90.489 172.00
90.5542 186.00
90.6193 165.00
90.6845 177.00
90.7497 176.00
90.8149 167.00
90.8801 177.00
90.9453 163.00
91.0105 165.00
91.0757 181.00
91.1409 173.00
91.2061 166.00
91.2713 177.00
91.3365 169.00
91.4017 198.00
91.4669 164.00
91.5321 183.00
91.5973 192.00
91.6625 192.00
91.7277 163.00
91.7929 196.00
91.8581 192.00
91.9233 167.00
91.9885 168.00
92.0537 174.00
92.1189 197.00
92.1841 170.00
92.2493 186.00
92.3145 178.00
92.3797 184.00
92.4449 161.00
92.5101 175.00
92.5753 158.00
92.6405 181.00
92.7057 149.00
92.7709 152.00
92.8361 157.00
92.9013 209.00
92.9665 178.00
93.0317 185.00
93.0969 188.00
93.1621 161.00
93.2273 171.00
93.2925 172.00
93.3577 192.00
93.4229 158.00
93.4881 185.00
93.5533 172.00
93.6185 171.00
93.6837 159.00
93.7489 192.00
93.8141 193.00
93.8793 170.00
93.9445 168.00
94.0097 186.00
94.0749 172.00
94.1401 182.00
94.2053 178.00
94.2705 188.00
94.3357 192.00
94.4009 182.00
94.4661 193.00
94.5313 192.00
94.5965 182.00
94.6617 203.00
94.7269 173.00
94.7921 165.00
94.8573 161.00
94.9225 163.00
94.9877 187.00
95.0529 157.00
95.1181 151.00
95.1833 156.00
95.2485 192.00
95.3137 148.00
95.3789 197.00
95.444 159.00
95.5092 182.00
95.5744 194.00
95.6396 216.00
95.7048 158.00
95.77 169.00
95.8352 196.00
95.9004 165.00
95.9656 175.00
96.0308 197.00
96.096 194.00
96.1612 178.00
96.2264 170.00
96.2916 161.00
96.3568 189.00
96.422 167.00
96.4872 151.00
96.5524 167.00
96.6176 187.00
96.6828 177.00
96.748 165.00
96.8132 171.00
96.8784 191.00
96.9436 177.00
97.0088 155.00
97.074 182.00
97.1392 177.00
97.2044 181.00
97.2696 182.00
97.3348 172.00
97.4 169.00
97.4652 155.00
97.5304 141.00
97.5956 186.00
97.6608 178.00
97.726 189.00
97.7912 167.00
97.8564 178.00
97.9216 148.00
97.9868 175.00
98.052 183.00
98.1172 155.00
98.1824 186.00
98.2476 186.00
98.3128 165.00
98.378 192.00
98.4432 192.00
98.5084 163.00
98.5736 151.00
98.6388 174.00
98.704 173.00
98.7692 178.00
98.8344 162.00
98.8996 170.00
98.9648 160.00
99.03 154.00
99.0952 176.00
99.1604 163.00
99.2256 178.00
99.2908 179.00
99.356 193.00
99.4212 173.00
99.4864 178.00
99.5516 206.00
99.6168 190.00
99.682 165.00
99.7472 189.00
99.8124 168.00
99.8776 184.00
99.9428 166.00
100.008 161.00
100.073 194.00
100.095 183.00