File: data/xrd_creation/results/Na_14.xy
9.903433 2762.00
9.968632 2571.00
10.0338 2604.00
10.099 2666.00
10.1642 2574.00
10.2294 2507.00
10.2946 2539.00
10.3598 2487.00
10.425 2469.00
10.4902 2544.00
10.5554 2403.00
10.6206 2439.00
10.6858 2364.00
10.751 2427.00
10.8162 2398.00
10.8814 2363.00
10.9466 2268.00
11.0118 2314.00
11.077 2329.00
11.1422 2245.00
11.2074 2239.00
11.2726 2208.00
11.3378 2287.00
11.403 2169.00
11.4682 2169.00
11.5334 2108.00
11.5986 2283.00
11.6638 2148.00
11.729 2125.00
11.7942 2016.00
11.8594 2061.00
11.9246 2029.00
11.9898 1959.00
12.055 1950.00
12.1202 1958.00
12.1854 1991.00
12.2506 2025.00
12.3158 1959.00
12.381 1930.00
12.4462 1910.00
12.5114 1853.00
12.5766 1842.00
12.6418 1844.00
12.707 1863.00
12.7722 1805.00
12.8374 1804.00
12.9026 1862.00
12.9678 1733.00
13.033 1759.00
13.0982 1702.00
13.1634 1716.00
13.2286 1672.00
13.2938 1749.00
13.359 1659.00
13.4242 1708.00
13.4894 1708.00
13.5546 1629.00
13.6198 1650.00
13.685 1667.00
13.7502 1538.00
13.8154 1597.00
13.8805 1592.00
13.9457 1549.00
14.0109 1585.00
14.0761 1567.00
14.1413 1501.00
14.2065 1493.00
14.2717 1547.00
14.3369 1490.00
14.4021 1501.00
14.4673 1571.00
14.5325 1499.00
14.5977 1494.00
14.6629 1496.00
14.7281 1485.00
14.7933 1455.00
14.8585 1489.00
14.9237 1446.00
14.9889 1407.00
15.0541 1407.00
15.1193 1406.00
15.1845 1439.00
15.2497 1364.00
15.3149 1390.00
15.3801 1405.00
15.4453 1334.00
15.5105 1346.00
15.5757 1341.00
15.6409 1386.00
15.7061 1381.00
15.7713 1327.00
15.8365 1352.00
15.9017 1319.00
15.9669 1303.00
16.0321 1309.00
16.0973 1297.00
16.1625 1313.00
16.2277 1334.00
16.2929 1284.00
16.3581 1339.00
16.4233 1234.00
16.4885 1291.00
16.5537 1235.00
16.6189 1309.00
16.6841 1216.00
16.7493 1208.00
16.8145 1229.00
16.8797 1268.00
16.9449 1230.00
17.0101 1146.00
17.0753 1239.00
17.1405 1219.00
17.2057 1205.00
17.2709 1275.00
17.3361 1219.00
17.4013 1231.00
17.4665 1190.00
17.5317 1174.00
17.5969 1219.00
17.6621 1150.00
17.7273 1119.00
17.7925 1116.00
17.8577 1170.00
17.9229 1193.00
17.9881 1092.00
18.0533 1105.00
18.1185 1178.00
18.1837 1138.00
18.2489 1139.00
18.3141 1110.00
18.3793 1110.00
18.4445 1120.00
18.5097 1094.00
18.5749 1096.00
18.6401 1075.00
18.7052 1059.00
18.7704 1053.00
18.8356 1042.00
18.9008 1070.00
18.966 1005.00
19.0312 1039.00
19.0964 1031.00
19.1616 1042.00
19.2268 1015.00
19.292 966.00
19.3572 1053.00
19.4224 1033.00
19.4876 1139.00
19.5528 1002.00
19.618 979.00
19.6832 940.00
19.7484 1022.00
19.8136 971.00
19.8788 937.00
19.944 1002.00
20.0092 980.00
20.0744 1001.00
20.1396 943.00
20.2048 946.00
20.27 890.00
20.3352 937.00
20.4004 930.00
20.4656 955.00
20.5308 935.00
20.596 958.00
20.6612 930.00
20.7264 904.00
20.7916 933.00
20.8568 954.00
20.922 928.00
20.9872 878.00
21.0524 900.00
21.1176 870.00
21.1828 897.00
21.248 879.00
21.3132 874.00
21.3784 888.00
21.4436 884.00
21.5088 881.00
21.574 891.00
21.6392 900.00
21.7044 855.00
21.7696 879.00
21.8348 879.00
21.9 881.00
21.9652 907.00
22.0304 929.00
22.0956 816.00
22.1608 847.00
22.226 812.00
22.2912 851.00
22.3564 854.00
22.4216 836.00
22.4868 887.00
22.552 866.00
22.6172 850.00
22.6824 813.00
22.7476 842.00
22.8128 888.00
22.878 830.00
22.9432 786.00
23.0084 836.00
23.0736 792.00
23.1388 767.00
23.204 801.00
23.2692 832.00
23.3344 801.00
23.3996 814.00
23.4647 822.00
23.5299 819.00
23.5951 756.00
23.6603 884.00
23.7255 879.00
23.7907 847.00
23.8559 827.00
23.9211 805.00
23.9863 818.00
24.0515 839.00
24.1167 820.00
24.1819 878.00
24.2471 794.00
24.3123 797.00
24.3775 781.00
24.4427 845.00
24.5079 911.00
24.5731 774.00
24.6383 777.00
24.7035 697.00
24.7687 776.00
24.8339 764.00
24.8991 753.00
24.9643 756.00
25.0295 747.00
25.0947 787.00
25.1599 760.00
25.2251 746.00
25.2903 758.00
25.3555 809.00
25.4207 729.00
25.4859 749.00
25.5511 790.00
25.6163 809.00
25.6815 916.00
25.7467 955.00
25.8119 864.00
25.8771 754.00
25.9423 715.00
26.0075 728.00
26.0727 674.00
26.1379 690.00
26.2031 785.00
26.2683 713.00
26.3335 725.00
26.3987 686.00
26.4639 681.00
26.5291 692.00
26.5943 699.00
26.6595 674.00
26.7247 671.00
26.7899 645.00
26.8551 703.00
26.9203 636.00
26.9855 673.00
27.0507 638.00
27.1159 714.00
27.1811 681.00
27.2463 704.00
27.3115 655.00
27.3767 673.00
27.4419 647.00
27.5071 693.00
27.5723 667.00
27.6375 727.00
27.7027 665.00
27.7679 631.00
27.8331 668.00
27.8983 686.00
27.9635 738.00
28.0287 781.00
28.0939 756.00
28.1591 730.00
28.2243 759.00
28.2894 881.00
28.3546 730.00
28.4198 640.00
28.485 681.00
28.5502 618.00
28.6154 625.00
28.6806 666.00
28.7458 636.00
28.811 576.00
28.8762 641.00
28.9414 643.00
29.0066 653.00
29.0718 689.00
29.137 700.00
29.2022 674.00
29.2674 647.00
29.3326 611.00
29.3978 612.00
29.463 603.00
29.5282 586.00
29.5934 590.00
29.6586 624.00
29.7238 553.00
29.789 630.00
29.8542 566.00
29.9194 581.00
29.9846 541.00
30.0498 558.00
30.115 593.00
30.1802 598.00
30.2454 608.00
30.3106 577.00
30.3758 559.00
30.441 550.00
30.5062 589.00
30.5714 621.00
30.6366 598.00
30.7018 596.00
30.767 513.00
30.8322 559.00
30.8974 531.00
30.9626 577.00
31.0278 557.00
31.093 602.00
31.1582 581.00
31.2234 571.00
31.2886 619.00
31.3538 571.00
31.419 594.00
31.4842 596.00
31.5494 566.00
31.6146 618.00
31.6798 619.00
31.745 532.00
31.8102 514.00
31.8754 531.00
31.9406 515.00
32.0058 561.00
32.071 596.00
32.1362 517.00
32.2014 515.00
32.2666 533.00
32.3318 586.00
32.397 603.00
32.4622 628.00
32.5274 635.00
32.5926 643.00
32.6578 602.00
32.723 594.00
32.7882 530.00
32.8534 576.00
32.9186 497.00
32.9838 510.00
33.0489 474.00
33.1141 511.00
33.1793 523.00
33.2445 516.00
33.3097 508.00
33.3749 475.00
33.4401 508.00
33.5053 479.00
33.5705 536.00
33.6357 508.00
33.7009 475.00
33.7661 501.00
33.8313 466.00
33.8965 451.00
33.9617 538.00
34.0269 513.00
34.0921 581.00
34.1573 454.00
34.2225 493.00
34.2877 490.00
34.3529 499.00
34.4181 475.00
34.4833 487.00
34.5485 449.00
34.6137 471.00
34.6789 472.00
34.7441 468.00
34.8093 563.00
34.8745 596.00
34.9397 581.00
35.0049 498.00
35.0701 505.00
35.1353 470.00
35.2005 428.00
35.2657 488.00
35.3309 460.00
35.3961 538.00
35.4613 465.00
35.5265 427.00
35.5917 466.00
35.6569 436.00
35.7221 472.00
35.7873 405.00
35.8525 427.00
35.9177 394.00
35.9829 440.00
36.0481 443.00
36.1133 483.00
36.1785 394.00
36.2437 404.00
36.3089 409.00
36.3741 443.00
36.4393 423.00
36.5045 468.00
36.5697 392.00
36.6349 402.00
36.7001 423.00
36.7653 443.00
36.8305 415.00
36.8957 418.00
36.9609 421.00
37.0261 406.00
37.0913 420.00
37.1565 420.00
37.2217 431.00
37.2869 390.00
37.3521 434.00
37.4173 402.00
37.4825 424.00
37.5477 383.00
37.6129 393.00
37.6781 403.00
37.7433 379.00
37.8085 406.00
37.8736 416.00
37.9388 386.00
38.004 394.00
38.0692 425.00
38.1344 378.00
38.1996 369.00
38.2648 376.00
38.33 430.00
38.3952 414.00
38.4604 400.00
38.5256 471.00
38.5908 443.00
38.656 444.00
38.7212 432.00
38.7864 383.00
38.8516 404.00
38.9168 442.00
38.982 372.00
39.0472 415.00
39.1124 394.00
39.1776 364.00
39.2428 398.00
39.308 423.00
39.3732 401.00
39.4384 404.00
39.5036 384.00
39.5688 398.00
39.634 401.00
39.6992 335.00
39.7644 402.00
39.8296 385.00
39.8948 373.00
39.96 359.00
40.0252 373.00
40.0904 381.00
40.1556 380.00
40.2208 399.00
40.286 374.00
40.3512 406.00
40.4164 362.00
40.4816 377.00
40.5468 374.00
40.612 381.00
40.6772 368.00
40.7424 346.00
40.8076 334.00
40.8728 355.00
40.938 380.00
41.0032 372.00
41.0684 378.00
41.1336 351.00
41.1988 372.00
41.264 363.00
41.3292 336.00
41.3944 339.00
41.4596 328.00
41.5248 340.00
41.59 320.00
41.6552 350.00
41.7204 353.00
41.7856 361.00
41.8508 356.00
41.916 363.00
41.9812 385.00
42.0464 320.00
42.1116 372.00
42.1768 370.00
42.242 335.00
42.3072 356.00
42.3724 307.00
42.4376 337.00
42.5028 316.00
42.568 335.00
42.6332 315.00
42.6983 365.00
42.7635 321.00
42.8287 364.00
42.8939 360.00
42.9591 308.00
43.0243 335.00
43.0895 336.00
43.1547 331.00
43.2199 353.00
43.2851 346.00
43.3503 333.00
43.4155 346.00
43.4807 324.00
43.5459 316.00
43.6111 335.00
43.6763 356.00
43.7415 335.00
43.8067 323.00
43.8719 355.00
43.9371 305.00
44.0023 313.00
44.0675 340.00
44.1327 332.00
44.1979 332.00
44.2631 336.00
44.3283 354.00
44.3935 363.00
44.4587 308.00
44.5239 368.00
44.5891 346.00
44.6543 357.00
44.7195 347.00
44.7847 352.00
44.8499 349.00
44.9151 308.00
44.9803 323.00
45.0455 297.00
45.1107 321.00
45.1759 264.00
45.2411 308.00
45.3063 306.00
45.3715 296.00
45.4367 305.00
45.5019 313.00
45.5671 337.00
45.6323 334.00
45.6975 325.00
45.7627 308.00
45.8279 339.00
45.8931 306.00
45.9583 307.00
46.0235 300.00
46.0887 280.00
46.1539 313.00
46.2191 324.00
46.2843 299.00
46.3495 264.00
46.4147 345.00
46.4799 322.00
46.5451 343.00
46.6103 371.00
46.6755 330.00
46.7407 315.00
46.8059 315.00
46.8711 301.00
46.9363 269.00
47.0015 301.00
47.0667 305.00
47.1319 315.00
47.1971 301.00
47.2623 305.00
47.3275 295.00
47.3927 306.00
47.4579 268.00
47.523 339.00
47.5882 302.00
47.6534 312.00
47.7186 340.00
47.7838 315.00
47.849 270.00
47.9142 313.00
47.9794 270.00
48.0446 302.00
48.1098 328.00
48.175 291.00
48.2402 297.00
48.3054 278.00
48.3706 329.00
48.4358 291.00
48.501 297.00
48.5662 320.00
48.6314 282.00
48.6966 298.00
48.7618 304.00
48.827 308.00
48.8922 340.00
48.9574 322.00
49.0226 306.00
49.0878 305.00
49.153 328.00
49.2182 272.00
49.2834 286.00
49.3486 291.00
49.4138 310.00
49.479 286.00
49.5442 269.00
49.6094 288.00
49.6746 273.00
49.7398 295.00
49.805 303.00
49.8702 269.00
49.9354 284.00
50.0006 338.00
50.0658 300.00
50.131 279.00
50.1962 265.00
50.2614 296.00
50.3266 304.00
50.3918 284.00
50.457 314.00
50.5222 275.00
50.5874 259.00
50.6526 261.00
50.7178 281.00
50.783 262.00
50.8482 301.00
50.9134 285.00
50.9786 250.00
51.0438 283.00
51.109 296.00
51.1742 250.00
51.2394 242.00
51.3046 303.00
51.3698 314.00
51.435 271.00
51.5002 288.00
51.5654 301.00
51.6306 325.00
51.6958 314.00
51.761 350.00
51.8262 306.00
51.8914 296.00
51.9566 290.00
52.0218 237.00
52.087 292.00
52.1522 279.00
52.2174 235.00
52.2826 274.00
52.3477 274.00
52.4129 264.00
52.4781 292.00
52.5433 261.00
52.6085 261.00
52.6737 270.00
52.7389 292.00
52.8041 248.00
52.8693 245.00
52.9345 279.00
52.9997 227.00
53.0649 245.00
53.1301 247.00
53.1953 262.00
53.2605 287.00
53.3257 285.00
53.3909 272.00
53.4561 245.00
53.5213 277.00
53.5865 269.00
53.6517 238.00
53.7169 250.00
53.7821 257.00
53.8473 277.00
53.9125 244.00
53.9777 247.00
54.0429 258.00
54.1081 274.00
54.1733 264.00
54.2385 241.00
54.3037 224.00
54.3689 301.00
54.4341 244.00
54.4993 280.00
54.5645 248.00
54.6297 248.00
54.6949 261.00
54.7601 261.00
54.8253 240.00
54.8905 232.00
54.9557 243.00
55.0209 288.00
55.0861 239.00
55.1513 210.00
55.2165 262.00
55.2817 227.00
55.3469 259.00
55.4121 262.00
55.4773 236.00
55.5425 273.00
55.6077 258.00
55.6729 219.00
55.7381 260.00
55.8033 236.00
55.8685 246.00
55.9337 270.00
55.9989 260.00
56.0641 263.00
56.1293 270.00
56.1945 240.00
56.2597 218.00
56.3249 242.00
56.3901 226.00
56.4553 240.00
56.5205 217.00
56.5857 259.00
56.6509 239.00
56.7161 218.00
56.7813 217.00
56.8465 230.00
56.9117 226.00
56.9769 246.00
57.042 245.00
57.1073 222.00
57.1724 247.00
57.2376 234.00
57.3028 245.00
57.368 237.00
57.4332 233.00
57.4984 237.00
57.5636 235.00
57.6288 219.00
57.694 235.00
57.7592 228.00
57.8244 247.00
57.8896 248.00
57.9548 241.00
58.02 286.00
58.0852 267.00
58.1504 230.00
58.2156 265.00
58.2808 236.00
58.346 248.00
58.4112 231.00
58.4764 248.00
58.5416 226.00
58.6068 225.00
58.672 226.00
58.7372 227.00
58.8024 235.00
58.8676 214.00
58.9328 228.00
58.998 188.00
59.0632 208.00
59.1284 219.00
59.1936 222.00
59.2588 239.00
59.324 241.00
59.3892 244.00
59.4544 219.00
59.5196 242.00
59.5848 222.00
59.65 208.00
59.7152 199.00
59.7804 202.00
59.8456 214.00
59.9108 232.00
59.976 239.00
60.0412 214.00
60.1064 218.00
60.1716 220.00
60.2368 212.00
60.302 217.00
60.3672 202.00
60.4324 226.00
60.4976 223.00
60.5628 223.00
60.628 227.00
60.6932 207.00
60.7584 231.00
60.8236 194.00
60.8888 231.00
60.954 190.00
61.0192 202.00
61.0844 184.00
61.1496 208.00
61.2148 214.00
61.28 266.00
61.3452 221.00
61.4104 227.00
61.4756 220.00
61.5408 216.00
61.606 220.00
61.6712 200.00
61.7364 211.00
61.8016 211.00
61.8667 187.00
61.932 221.00
61.9971 248.00
62.0623 233.00
62.1275 231.00
62.1927 204.00
62.2579 187.00
62.3231 230.00
62.3883 210.00
62.4535 198.00
62.5187 207.00
62.5839 210.00
62.6491 218.00
62.7143 220.00
62.7795 231.00
62.8447 232.00
62.9099 233.00
62.9751 196.00
63.0403 204.00
63.1055 218.00
63.1707 200.00
63.2359 213.00
63.3011 199.00
63.3663 207.00
63.4315 196.00
63.4967 203.00
63.5619 210.00
63.6271 223.00
63.6923 185.00
63.7575 207.00
63.8227 218.00
63.8879 211.00
63.9531 193.00
64.0183 208.00
64.0835 212.00
64.1487 219.00
64.2139 210.00
64.2791 217.00
64.3443 217.00
64.4095 202.00
64.4747 199.00
64.5399 191.00
64.6051 207.00
64.6703 198.00
64.7355 219.00
64.8007 218.00
64.8659 202.00
64.9311 222.00
64.9963 195.00
65.0615 213.00
65.1267 213.00
65.1919 226.00
65.2571 202.00
65.3223 221.00
65.3875 189.00
65.4527 228.00
65.5179 198.00
65.5831 210.00
65.6483 210.00
65.7135 220.00
65.7787 214.00
65.8439 214.00
65.9091 208.00
65.9743 222.00
66.0395 209.00
66.1047 201.00
66.1699 192.00
66.2351 186.00
66.3003 207.00
66.3655 188.00
66.4307 211.00
66.4959 230.00
66.561 188.00
66.6263 203.00
66.6915 191.00
66.7566 192.00
66.8218 199.00
66.887 211.00
66.9522 191.00
67.0174 214.00
67.0826 191.00
67.1478 202.00
67.213 209.00
67.2782 183.00
67.3434 199.00
67.4086 197.00
67.4738 210.00
67.539 193.00
67.6042 226.00
67.6694 213.00
67.7346 211.00
67.7998 212.00
67.865 196.00
67.9302 183.00
67.9954 265.00
68.0606 189.00
68.1258 198.00
68.191 223.00
68.2562 212.00
68.3214 205.00
68.3866 205.00
68.4518 232.00
68.517 205.00
68.5822 223.00
68.6474 209.00
68.7126 208.00
68.7778 198.00
68.843 231.00
68.9082 215.00
68.9734 215.00
69.0386 225.00
69.1038 196.00
69.169 223.00
69.2342 240.00
69.2994 211.00
69.3646 203.00
69.4298 212.00
69.495 173.00
69.5602 184.00
69.6254 219.00
69.6906 202.00
69.7558 209.00
69.821 182.00
69.8862 171.00
69.9514 184.00
70.0166 224.00
70.0818 210.00
70.147 192.00
70.2122 217.00
70.2774 186.00
70.3426 198.00
70.4078 218.00
70.473 184.00
70.5382 192.00
70.6034 184.00
70.6686 197.00
70.7338 226.00
70.799 225.00
70.8642 217.00
70.9294 212.00
70.9946 197.00
71.0598 197.00
71.125 211.00
71.1902 190.00
71.2554 206.00
71.3205 193.00
71.3858 204.00
71.451 188.00
71.5162 204.00
71.5813 193.00
71.6465 205.00
71.7117 229.00
71.7769 176.00
71.8421 218.00
71.9073 198.00
71.9725 183.00
72.0377 181.00
72.1029 202.00
72.1681 196.00
72.2333 193.00
72.2985 195.00
72.3637 204.00
72.4289 201.00
72.4941 208.00
72.5593 180.00
72.6245 199.00
72.6897 202.00
72.7549 185.00
72.8201 182.00
72.8853 211.00
72.9505 216.00
73.0157 185.00
73.0809 183.00
73.1461 203.00
73.2113 216.00
73.2765 198.00
73.3417 180.00
73.4069 176.00
73.4721 228.00
73.5373 181.00
73.6025 189.00
73.6677 212.00
73.7329 189.00
73.7981 214.00
73.8633 211.00
73.9285 176.00
73.9937 237.00
74.0589 203.00
74.1241 217.00
74.1893 204.00
74.2545 185.00
74.3197 200.00
74.3849 190.00
74.4501 209.00
74.5153 214.00
74.5805 217.00
74.6457 193.00
74.7109 203.00
74.7761 202.00
74.8413 200.00
74.9065 211.00
74.9717 203.00
75.0369 194.00
75.1021 205.00
75.1673 188.00
75.2325 209.00
75.2977 205.00
75.3629 189.00
75.4281 211.00
75.4933 203.00
75.5585 189.00
75.6237 212.00
75.6889 216.00
75.7541 199.00
75.8193 221.00
75.8845 200.00
75.9497 191.00
76.0149 181.00
76.0801 213.00
76.1452 198.00
76.2104 197.00
76.2756 196.00
76.3409 214.00
76.406 182.00
76.4712 210.00
76.5364 217.00
76.6016 214.00
76.6668 204.00
76.732 199.00
76.7972 198.00
76.8624 215.00
76.9276 202.00
76.9928 206.00
77.058 213.00
77.1232 219.00
77.1884 219.00
77.2536 197.00
77.3188 212.00
77.384 228.00
77.4492 218.00
77.5144 202.00
77.5796 208.00
77.6448 223.00
77.71 215.00
77.7752 191.00
77.8404 198.00
77.9056 219.00
77.9708 221.00
78.036 203.00
78.1012 215.00
78.1664 234.00
78.2316 230.00
78.2968 221.00
78.362 212.00
78.4272 210.00
78.4924 210.00
78.5576 193.00
78.6228 220.00
78.688 256.00
78.7532 182.00
78.8184 209.00
78.8836 217.00
78.9488 223.00
79.014 232.00
79.0792 234.00
79.1444 224.00
79.2096 205.00
79.2748 202.00
79.34 224.00
79.4052 213.00
79.4704 227.00
79.5356 199.00
79.6008 193.00
79.666 233.00
79.7312 223.00
79.7964 225.00
79.8616 219.00
79.9268 209.00
79.992 256.00
80.0572 223.00
80.1224 209.00
80.1876 213.00
80.2528 222.00
80.318 213.00
80.3832 197.00
80.4484 186.00
80.5136 217.00
80.5788 203.00
80.644 248.00
80.7092 250.00
80.7744 234.00
80.8396 222.00
80.9048 223.00
80.9699 231.00
81.0351 227.00
81.1003 216.00
81.1655 224.00
81.2307 194.00
81.2959 221.00
81.3611 222.00
81.4263 200.00
81.4915 216.00
81.5567 246.00
81.6219 220.00
81.6871 237.00
81.7523 227.00
81.8175 234.00
81.8827 214.00
81.9479 244.00
82.0131 214.00
82.0783 214.00
82.1435 261.00
82.2087 265.00
82.2739 240.00
82.3391 262.00
82.4043 236.00
82.4695 238.00
82.5347 241.00
82.5999 226.00
82.6651 207.00
82.7303 247.00
82.7955 243.00
82.8607 224.00
82.9259 226.00
82.9911 237.00
83.0563 205.00
83.1215 222.00
83.1867 221.00
83.2519 210.00
83.3171 219.00
83.3823 192.00
83.4475 212.00
83.5127 225.00
83.5779 224.00
83.6431 238.00
83.7083 218.00
83.7735 219.00
83.8387 198.00
83.9039 236.00
83.9691 243.00
84.0343 267.00
84.0995 181.00
84.1647 221.00
84.2299 212.00
84.2951 200.00
84.3603 221.00
84.4255 216.00
84.4907 207.00
84.5559 223.00
84.6211 223.00
84.6863 235.00
84.7515 235.00
84.8167 223.00
84.8819 214.00
84.9471 217.00
85.0123 232.00
85.0775 246.00
85.1427 226.00
85.2079 227.00
85.2731 205.00
85.3383 221.00
85.4035 195.00
85.4687 191.00
85.5339 207.00
85.5991 227.00
85.6643 216.00
85.7295 232.00
85.7946 213.00
85.8598 215.00
85.925 203.00
85.9903 201.00
86.0554 239.00
86.1206 214.00
86.1858 240.00
86.251 240.00
86.3162 223.00
86.3814 223.00
86.4466 206.00
86.5118 192.00
86.577 204.00
86.6422 236.00
86.7074 204.00
86.7726 217.00
86.8378 216.00
86.903 235.00
86.9682 185.00
87.0334 209.00
87.0986 219.00
87.1638 229.00
87.229 213.00
87.2942 212.00
87.3594 220.00
87.4246 208.00
87.4898 202.00
87.555 204.00
87.6202 193.00
87.6854 184.00
87.7506 201.00
87.8158 195.00
87.881 215.00
87.9462 186.00
88.0114 209.00
88.0766 193.00
88.1418 188.00
88.207 204.00
88.2722 224.00
88.3374 203.00
88.4026 195.00
88.4678 198.00
88.533 173.00
88.5982 193.00
88.6634 183.00
88.7286 201.00
88.7938 217.00
88.859 208.00
88.9242 211.00
88.9894 185.00
89.0546 181.00
89.1198 188.00
89.185 183.00
89.2502 184.00
89.3154 214.00
89.3806 208.00
89.4458 177.00
89.511 193.00
89.5762 213.00
89.6414 202.00
89.7066 198.00
89.7718 189.00
89.837 187.00
89.9022 199.00
89.9674 192.00
90.0326 198.00
90.0978 177.00
90.163 186.00
90.2282 194.00
90.2934 225.00
90.3586 170.00
90.4238 203.00
90.489 194.00
90.5542 192.00
90.6193 193.00
90.6845 181.00
90.7497 189.00
90.8149 200.00
90.8801 199.00
90.9453 162.00
91.0105 198.00
91.0757 199.00
91.1409 184.00
91.2061 188.00
91.2713 171.00
91.3365 202.00
91.4017 196.00
91.4669 179.00
91.5321 201.00
91.5973 191.00
91.6625 182.00
91.7277 193.00
91.7929 182.00
91.8581 190.00
91.9233 186.00
91.9885 177.00
92.0537 169.00
92.1189 199.00
92.1841 174.00
92.2493 167.00
92.3145 171.00
92.3797 200.00
92.4449 204.00
92.5101 189.00
92.5753 198.00
92.6405 173.00
92.7057 198.00
92.7709 181.00
92.8361 196.00
92.9013 174.00
92.9665 150.00
93.0317 193.00
93.0969 188.00
93.1621 180.00
93.2273 189.00
93.2925 183.00
93.3577 212.00
93.4229 200.00
93.4881 210.00
93.5533 191.00
93.6185 173.00
93.6837 191.00
93.7489 212.00
93.8141 192.00
93.8793 176.00
93.9445 178.00
94.0097 180.00
94.0749 196.00
94.1401 178.00
94.2053 179.00
94.2705 200.00
94.3357 169.00
94.4009 165.00
94.4661 158.00
94.5313 196.00
94.5965 184.00
94.6617 186.00
94.7269 190.00
94.7921 193.00
94.8573 185.00
94.9225 187.00
94.9877 185.00
95.0529 188.00
95.1181 187.00
95.1833 188.00
95.2485 189.00
95.3137 193.00
95.3789 200.00
95.444 173.00
95.5092 165.00
95.5744 176.00
95.6396 185.00
95.7048 185.00
95.77 170.00
95.8352 166.00
95.9004 181.00
95.9656 189.00
96.0308 186.00
96.096 186.00
96.1612 202.00
96.2264 176.00
96.2916 192.00
96.3568 196.00
96.422 207.00
96.4872 188.00
96.5524 216.00
96.6176 191.00
96.6828 194.00
96.748 173.00
96.8132 185.00
96.8784 195.00
96.9436 192.00
97.0088 182.00
97.074 181.00
97.1392 180.00
97.2044 175.00
97.2696 149.00
97.3348 192.00
97.4 176.00
97.4652 176.00
97.5304 182.00
97.5956 192.00
97.6608 180.00
97.726 166.00
97.7912 169.00
97.8564 175.00
97.9216 205.00
97.9868 175.00
98.052 181.00
98.1172 190.00
98.1824 171.00
98.2476 168.00
98.3128 172.00
98.378 197.00
98.4432 169.00
98.5084 190.00
98.5736 186.00
98.6388 194.00
98.704 184.00
98.7692 186.00
98.8344 186.00
98.8996 194.00
98.9648 180.00
99.03 170.00
99.0952 181.00
99.1604 185.00
99.2256 166.00
99.2908 161.00
99.356 186.00
99.4212 198.00
99.4864 175.00
99.5516 201.00
99.6168 195.00
99.682 194.00
99.7472 165.00
99.8124 187.00
99.8776 185.00
99.9428 186.00
100.008 195.00
100.073 190.00
100.095 164.00