File: data/xrd_creation/results/Na_123.xy
9.903433 2611.00
9.968632 2528.00
10.0338 2613.00
10.099 2515.00
10.1642 2573.00
10.2294 2516.00
10.2946 2489.00
10.3598 2442.00
10.425 2482.00
10.4902 2385.00
10.5554 2415.00
10.6206 2485.00
10.6858 2379.00
10.751 2360.00
10.8162 2412.00
10.8814 2373.00
10.9466 2353.00
11.0118 2214.00
11.077 2207.00
11.1422 2243.00
11.2074 2194.00
11.2726 2271.00
11.3378 2161.00
11.403 2245.00
11.4682 2197.00
11.5334 2114.00
11.5986 2127.00
11.6638 2105.00
11.729 2147.00
11.7942 2127.00
11.8594 2087.00
11.9246 2090.00
11.9898 2073.00
12.055 2035.00
12.1202 1975.00
12.1854 1922.00
12.2506 1899.00
12.3158 1952.00
12.381 1956.00
12.4462 1912.00
12.5114 1916.00
12.5766 1940.00
12.6418 1843.00
12.707 1790.00
12.7722 1878.00
12.8374 1798.00
12.9026 1887.00
12.9678 1827.00
13.033 1798.00
13.0982 1845.00
13.1634 1807.00
13.2286 1783.00
13.2938 1736.00
13.359 1783.00
13.4242 1760.00
13.4894 1733.00
13.5546 1688.00
13.6198 1680.00
13.685 1761.00
13.7502 1698.00
13.8154 1704.00
13.8805 1651.00
13.9457 1656.00
14.0109 1644.00
14.0761 1738.00
14.1413 1633.00
14.2065 1592.00
14.2717 1621.00
14.3369 1638.00
14.4021 1722.00
14.4673 1700.00
14.5325 1650.00
14.5977 1712.00
14.6629 1584.00
14.7281 1633.00
14.7933 1637.00
14.8585 1609.00
14.9237 1588.00
14.9889 1526.00
15.0541 1582.00
15.1193 1550.00
15.1845 1585.00
15.2497 1526.00
15.3149 1591.00
15.3801 1549.00
15.4453 1621.00
15.5105 1569.00
15.5757 1530.00
15.6409 1536.00
15.7061 1545.00
15.7713 1547.00
15.8365 1478.00
15.9017 1503.00
15.9669 1472.00
16.0321 1520.00
16.0973 1495.00
16.1625 1472.00
16.2277 1479.00
16.2929 1504.00
16.3581 1404.00
16.4233 1481.00
16.4885 1494.00
16.5537 1515.00
16.6189 1409.00
16.6841 1517.00
16.7493 1435.00
16.8145 1505.00
16.8797 1460.00
16.9449 1408.00
17.0101 1482.00
17.0753 1337.00
17.1405 1437.00
17.2057 1393.00
17.2709 1414.00
17.3361 1456.00
17.4013 1429.00
17.4665 1439.00
17.5317 1359.00
17.5969 1400.00
17.6621 1452.00
17.7273 1351.00
17.7925 1460.00
17.8577 1409.00
17.9229 1438.00
17.9881 1408.00
18.0533 1294.00
18.1185 1397.00
18.1837 1388.00
18.2489 1363.00
18.3141 1347.00
18.3793 1393.00
18.4445 1323.00
18.5097 1364.00
18.5749 1426.00
18.6401 1279.00
18.7052 1314.00
18.7704 1320.00
18.8356 1346.00
18.9008 1289.00
18.966 1358.00
19.0312 1286.00
19.0964 1274.00
19.1616 1328.00
19.2268 1312.00
19.292 1317.00
19.3572 1251.00
19.4224 1435.00
19.4876 1438.00
19.5528 1513.00
19.618 1590.00
19.6832 1497.00
19.7484 1458.00
19.8136 1473.00
19.8788 1430.00
19.944 1415.00
20.0092 1417.00
20.0744 1310.00
20.1396 1300.00
20.2048 1300.00
20.27 1281.00
20.3352 1201.00
20.4004 1141.00
20.4656 1198.00
20.5308 1226.00
20.596 1218.00
20.6612 1115.00
20.7264 1172.00
20.7916 1173.00
20.8568 1276.00
20.922 1224.00
20.9872 1160.00
21.0524 1246.00
21.1176 1271.00
21.1828 1303.00
21.248 1237.00
21.3132 1243.00
21.3784 1347.00
21.4436 1322.00
21.5088 1495.00
21.574 1563.00
21.6392 1581.00
21.7044 1380.00
21.7696 1227.00
21.8348 1231.00
21.9 1177.00
21.9652 1113.00
22.0304 1159.00
22.0956 1211.00
22.1608 1204.00
22.226 1184.00
22.2912 1248.00
22.3564 1272.00
22.4216 1308.00
22.4868 1433.00
22.552 1497.00
22.6172 1550.00
22.6824 1636.00
22.7476 1465.00
22.8128 1339.00
22.878 1271.00
22.9432 1182.00
23.0084 1198.00
23.0736 1219.00
23.1388 1140.00
23.204 1069.00
23.2692 1044.00
23.3344 1055.00
23.3996 1094.00
23.4647 1038.00
23.5299 1090.00
23.5951 1056.00
23.6603 999.00
23.7255 1052.00
23.7907 1035.00
23.8559 1011.00
23.9211 1018.00
23.9863 1032.00
24.0515 1033.00
24.1167 1053.00
24.1819 1044.00
24.2471 1037.00
24.3123 1075.00
24.3775 1147.00
24.4427 1211.00
24.5079 1210.00
24.5731 1259.00
24.6383 1090.00
24.7035 1094.00
24.7687 999.00
24.8339 967.00
24.8991 1005.00
24.9643 1003.00
25.0295 1035.00
25.0947 1078.00
25.1599 1058.00
25.2251 997.00
25.2903 1059.00
25.3555 1074.00
25.4207 1057.00
25.4859 1000.00
25.5511 971.00
25.6163 1040.00
25.6815 944.00
25.7467 928.00
25.8119 875.00
25.8771 893.00
25.9423 885.00
26.0075 979.00
26.0727 966.00
26.1379 960.00
26.2031 992.00
26.2683 981.00
26.3335 998.00
26.3987 994.00
26.4639 1129.00
26.5291 1155.00
26.5943 1362.00
26.6595 1628.00
26.7247 2086.00
26.7899 3058.00
26.8551 4289.00
26.9203 5449.00
26.9855 4638.00
27.0507 2899.00
27.1159 1690.00
27.1811 1321.00
27.2463 1097.00
27.3115 1020.00
27.3767 1073.00
27.4419 989.00
27.5071 969.00
27.5723 1026.00
27.6375 962.00
27.7027 1020.00
27.7679 972.00
27.8331 938.00
27.8983 893.00
27.9635 827.00
28.0287 896.00
28.0939 908.00
28.1591 904.00
28.2243 807.00
28.2894 885.00
28.3546 813.00
28.4198 847.00
28.485 780.00
28.5502 855.00
28.6154 886.00
28.6806 825.00
28.7458 835.00
28.811 834.00
28.8762 835.00
28.9414 776.00
29.0066 820.00
29.0718 821.00
29.137 852.00
29.2022 891.00
29.2674 854.00
29.3326 954.00
29.3978 948.00
29.463 947.00
29.5282 936.00
29.5934 840.00
29.6586 841.00
29.7238 836.00
29.789 758.00
29.8542 776.00
29.9194 765.00
29.9846 772.00
30.0498 874.00
30.115 758.00
30.1802 750.00
30.2454 780.00
30.3106 751.00
30.3758 760.00
30.441 779.00
30.5062 726.00
30.5714 747.00
30.6366 727.00
30.7018 756.00
30.767 752.00
30.8322 778.00
30.8974 780.00
30.9626 751.00
31.0278 704.00
31.093 767.00
31.1582 709.00
31.2234 775.00
31.2886 732.00
31.3538 786.00
31.419 776.00
31.4842 814.00
31.5494 862.00
31.6146 904.00
31.6798 965.00
31.745 1141.00
31.8102 1259.00
31.8754 1243.00
31.9406 1238.00
32.0058 1144.00
32.071 1058.00
32.1362 1050.00
32.2014 939.00
32.2666 922.00
32.3318 887.00
32.397 757.00
32.4622 767.00
32.5274 800.00
32.5926 723.00
32.6578 708.00
32.723 713.00
32.7882 686.00
32.8534 743.00
32.9186 714.00
32.9838 741.00
33.0489 730.00
33.1141 751.00
33.1793 767.00
33.2445 762.00
33.3097 832.00
33.3749 745.00
33.4401 764.00
33.5053 815.00
33.5705 793.00
33.6357 819.00
33.7009 792.00
33.7661 885.00
33.8313 968.00
33.8965 1055.00
33.9617 1360.00
34.0269 1961.00
34.0921 3067.00
34.1573 4436.00
34.2225 4797.00
34.2877 3754.00
34.3529 2380.00
34.4181 1507.00
34.4833 1086.00
34.5485 939.00
34.6137 860.00
34.6789 800.00
34.7441 712.00
34.8093 687.00
34.8745 630.00
34.9397 674.00
35.0049 705.00
35.0701 677.00
35.1353 641.00
35.2005 624.00
35.2657 683.00
35.3309 598.00
35.3961 642.00
35.4613 613.00
35.5265 642.00
35.5917 650.00
35.6569 647.00
35.7221 637.00
35.7873 688.00
35.8525 664.00
35.9177 638.00
35.9829 621.00
36.0481 576.00
36.1133 626.00
36.1785 624.00
36.2437 579.00
36.3089 602.00
36.3741 628.00
36.4393 602.00
36.5045 635.00
36.5697 653.00
36.6349 682.00
36.7001 667.00
36.7653 670.00
36.8305 708.00
36.8957 651.00
36.9609 630.00
37.0261 669.00
37.0913 631.00
37.1565 635.00
37.2217 648.00
37.2869 710.00
37.3521 771.00
37.4173 764.00
37.4825 894.00
37.5477 922.00
37.6129 959.00
37.6781 961.00
37.7433 1036.00
37.8085 995.00
37.8736 973.00
37.9388 933.00
38.004 868.00
38.0692 973.00
38.1344 1197.00
38.1996 1436.00
38.2648 1693.00
38.33 1572.00
38.3952 1353.00
38.4604 1077.00
38.5256 876.00
38.5908 734.00
38.656 705.00
38.7212 608.00
38.7864 649.00
38.8516 580.00
38.9168 592.00
38.982 638.00
39.0472 566.00
39.1124 591.00
39.1776 677.00
39.2428 783.00
39.308 877.00
39.3732 843.00
39.4384 815.00
39.5036 620.00
39.5688 655.00
39.634 609.00
39.6992 590.00
39.7644 626.00
39.8296 536.00
39.8948 619.00
39.96 557.00
40.0252 572.00
40.0904 585.00
40.1556 566.00
40.2208 554.00
40.286 578.00
40.3512 521.00
40.4164 560.00
40.4816 543.00
40.5468 546.00
40.612 552.00
40.6772 468.00
40.7424 498.00
40.8076 517.00
40.8728 504.00
40.938 490.00
41.0032 510.00
41.0684 538.00
41.1336 519.00
41.1988 516.00
41.264 567.00
41.3292 512.00
41.3944 504.00
41.4596 499.00
41.5248 553.00
41.59 528.00
41.6552 553.00
41.7204 519.00
41.7856 455.00
41.8508 490.00
41.916 439.00
41.9812 476.00
42.0464 483.00
42.1116 537.00
42.1768 523.00
42.242 501.00
42.3072 514.00
42.3724 486.00
42.4376 442.00
42.5028 512.00
42.568 470.00
42.6332 529.00
42.6983 535.00
42.7635 455.00
42.8287 536.00
42.8939 548.00
42.9591 579.00
43.0243 594.00
43.0895 524.00
43.1547 576.00
43.2199 517.00
43.2851 511.00
43.3503 526.00
43.4155 553.00
43.4807 541.00
43.5459 554.00
43.6111 567.00
43.6763 547.00
43.7415 520.00
43.8067 534.00
43.8719 478.00
43.9371 534.00
44.0023 493.00
44.0675 490.00
44.1327 504.00
44.1979 474.00
44.2631 479.00
44.3283 478.00
44.3935 482.00
44.4587 533.00
44.5239 529.00
44.5891 596.00
44.6543 560.00
44.7195 553.00
44.7847 570.00
44.8499 516.00
44.9151 451.00
44.9803 523.00
45.0455 501.00
45.1107 494.00
45.1759 476.00
45.2411 478.00
45.3063 459.00
45.3715 474.00
45.4367 511.00
45.5019 506.00
45.5671 521.00
45.6323 548.00
45.6975 490.00
45.7627 482.00
45.8279 528.00
45.8931 556.00
45.9583 489.00
46.0235 557.00
46.0887 559.00
46.1539 503.00
46.2191 474.00
46.2843 500.00
46.3495 482.00
46.4147 499.00
46.4799 468.00
46.5451 483.00
46.6103 443.00
46.6755 511.00
46.7407 516.00
46.8059 500.00
46.8711 514.00
46.9363 508.00
47.0015 488.00
47.0667 507.00
47.1319 473.00
47.1971 459.00
47.2623 479.00
47.3275 450.00
47.3927 494.00
47.4579 485.00
47.523 486.00
47.5882 469.00
47.6534 464.00
47.7186 453.00
47.7838 457.00
47.849 438.00
47.9142 452.00
47.9794 470.00
48.0446 487.00
48.1098 484.00
48.175 467.00
48.2402 442.00
48.3054 485.00
48.3706 453.00
48.4358 503.00
48.501 450.00
48.5662 477.00
48.6314 451.00
48.6966 447.00
48.7618 484.00
48.827 458.00
48.8922 417.00
48.9574 442.00
49.0226 450.00
49.0878 457.00
49.153 454.00
49.2182 480.00
49.2834 464.00
49.3486 426.00
49.4138 500.00
49.479 430.00
49.5442 484.00
49.6094 466.00
49.6746 464.00
49.7398 554.00
49.805 546.00
49.8702 597.00
49.9354 647.00
50.0006 668.00
50.0658 647.00
50.131 584.00
50.1962 593.00
50.2614 585.00
50.3266 547.00
50.3918 516.00
50.457 549.00
50.5222 538.00
50.5874 512.00
50.6526 504.00
50.7178 464.00
50.783 484.00
50.8482 508.00
50.9134 456.00
50.9786 491.00
51.0438 538.00
51.109 477.00
51.1742 508.00
51.2394 541.00
51.3046 539.00
51.3698 599.00
51.435 647.00
51.5002 655.00
51.5654 716.00
51.6306 770.00
51.6958 849.00
51.761 925.00
51.8262 1115.00
51.8914 1472.00
51.9566 2441.00
52.0218 3658.00
52.087 4381.00
52.1522 4105.00
52.2174 3264.00
52.2826 2285.00
52.3477 1498.00
52.4129 1072.00
52.4781 831.00
52.5433 687.00
52.6085 613.00
52.6737 580.00
52.7389 526.00
52.8041 533.00
52.8693 483.00
52.9345 492.00
52.9997 484.00
53.0649 498.00
53.1301 460.00
53.1953 453.00
53.2605 457.00
53.3257 430.00
53.3909 451.00
53.4561 438.00
53.5213 442.00
53.5865 442.00
53.6517 423.00
53.7169 399.00
53.7821 484.00
53.8473 408.00
53.9125 423.00
53.9777 447.00
54.0429 446.00
54.1081 405.00
54.1733 440.00
54.2385 477.00
54.3037 456.00
54.3689 430.00
54.4341 451.00
54.4993 460.00
54.5645 459.00
54.6297 458.00
54.6949 481.00
54.7601 513.00
54.8253 578.00
54.8905 660.00
54.9557 954.00
55.0209 1244.00
55.0861 1329.00
55.1513 1250.00
55.2165 1136.00
55.2817 850.00
55.3469 657.00
55.4121 553.00
55.4773 481.00
55.5425 518.00
55.6077 461.00
55.6729 435.00
55.7381 450.00
55.8033 458.00
55.8685 463.00
55.9337 466.00
55.9989 453.00
56.0641 510.00
56.1293 459.00
56.1945 468.00
56.2597 469.00
56.3249 484.00
56.3901 453.00
56.4553 437.00
56.5205 424.00
56.5857 437.00
56.6509 484.00
56.7161 473.00
56.7813 448.00
56.8465 531.00
56.9117 526.00
56.9769 487.00
57.042 523.00
57.1073 531.00
57.1724 454.00
57.2376 419.00
57.3028 470.00
57.368 443.00
57.4332 442.00
57.4984 483.00
57.5636 441.00
57.6288 447.00
57.694 472.00
57.7592 495.00
57.8244 472.00
57.8896 529.00
57.9548 580.00
58.02 751.00
58.0852 875.00
58.1504 881.00
58.2156 834.00
58.2808 758.00
58.346 637.00
58.4112 585.00
58.4764 527.00
58.5416 505.00
58.6068 507.00
58.672 551.00
58.7372 567.00
58.8024 479.00
58.8676 533.00
58.9328 462.00
58.998 454.00
59.0632 447.00
59.1284 466.00
59.1936 442.00
59.2588 423.00
59.324 401.00
59.3892 435.00
59.4544 399.00
59.5196 373.00
59.5848 438.00
59.65 395.00
59.7152 414.00
59.7804 387.00
59.8456 427.00
59.9108 399.00
59.976 420.00
60.0412 405.00
60.1064 410.00
60.1716 420.00
60.2368 421.00
60.302 501.00
60.3672 484.00
60.4324 529.00
60.4976 485.00
60.5628 539.00
60.628 538.00
60.6932 555.00
60.7584 552.00
60.8236 529.00
60.8888 520.00
60.954 488.00
61.0192 475.00
61.0844 483.00
61.1496 460.00
61.2148 440.00
61.28 494.00
61.3452 438.00
61.4104 499.00
61.4756 539.00
61.5408 505.00
61.606 536.00
61.6712 537.00
61.7364 534.00
61.8016 535.00
61.8667 573.00
61.932 681.00
61.9971 717.00
62.0623 926.00
62.1275 1098.00
62.1927 1125.00
62.2579 1180.00
62.3231 1004.00
62.3883 865.00
62.4535 752.00
62.5187 622.00
62.5839 511.00
62.6491 528.00
62.7143 486.00
62.7795 469.00
62.8447 446.00
62.9099 420.00
62.9751 398.00
63.0403 448.00
63.1055 425.00
63.1707 412.00
63.2359 411.00
63.3011 392.00
63.3663 385.00
63.4315 400.00
63.4967 458.00
63.5619 426.00
63.6271 421.00
63.6923 425.00
63.7575 469.00
63.8227 538.00
63.8879 463.00
63.9531 472.00
64.0183 511.00
64.0835 511.00
64.1487 501.00
64.2139 462.00
64.2791 430.00
64.3443 485.00
64.4095 438.00
64.4747 425.00
64.5399 437.00
64.6051 471.00
64.6703 549.00
64.7355 516.00
64.8007 623.00
64.8659 736.00
64.9311 1008.00
64.9963 1217.00
65.0615 1209.00
65.1267 1114.00
65.1919 992.00
65.2571 826.00
65.3223 673.00
65.3875 579.00
65.4527 544.00
65.5179 464.00
65.5831 485.00
65.6483 461.00
65.7135 469.00
65.7787 473.00
65.8439 498.00
65.9091 561.00
65.9743 599.00
66.0395 735.00
66.1047 920.00
66.1699 1188.00
66.2351 1377.00
66.3003 1332.00
66.3655 1221.00
66.4307 1144.00
66.4959 987.00
66.561 807.00
66.6263 679.00
66.6915 589.00
66.7566 529.00
66.8218 525.00
66.887 468.00
66.9522 468.00
67.0174 421.00
67.0826 381.00
67.1478 406.00
67.213 415.00
67.2782 426.00
67.3434 455.00
67.4086 455.00
67.4738 448.00
67.539 404.00
67.6042 400.00
67.6694 437.00
67.7346 399.00
67.7998 428.00
67.865 408.00
67.9302 371.00
67.9954 373.00
68.0606 385.00
68.1258 363.00
68.191 342.00
68.2562 354.00
68.3214 380.00
68.3866 359.00
68.4518 413.00
68.517 357.00
68.5822 381.00
68.6474 398.00
68.7126 348.00
68.7778 358.00
68.843 347.00
68.9082 366.00
68.9734 341.00
69.0386 372.00
69.1038 384.00
69.169 341.00
69.2342 375.00
69.2994 334.00
69.3646 405.00
69.4298 349.00
69.495 374.00
69.5602 383.00
69.6254 349.00
69.6906 384.00
69.7558 367.00
69.821 388.00
69.8862 396.00
69.9514 378.00
70.0166 394.00
70.0818 372.00
70.147 357.00
70.2122 388.00
70.2774 442.00
70.3426 432.00
70.4078 372.00
70.473 422.00
70.5382 422.00
70.6034 386.00
70.6686 373.00
70.7338 392.00
70.799 395.00
70.8642 381.00
70.9294 352.00
70.9946 420.00
71.0598 449.00
71.125 398.00
71.1902 445.00
71.2554 460.00
71.3205 423.00
71.3858 595.00
71.451 658.00
71.5162 745.00
71.5813 800.00
71.6465 682.00
71.7117 642.00
71.7769 634.00
71.8421 553.00
71.9073 471.00
71.9725 421.00
72.0377 414.00
72.1029 382.00
72.1681 386.00
72.2333 377.00
72.2985 357.00
72.3637 381.00
72.4289 345.00
72.4941 395.00
72.5593 373.00
72.6245 350.00
72.6897 338.00
72.7549 374.00
72.8201 368.00
72.8853 332.00
72.9505 338.00
73.0157 364.00
73.0809 341.00
73.1461 330.00
73.2113 348.00
73.2765 352.00
73.3417 349.00
73.4069 356.00
73.4721 326.00
73.5373 345.00
73.6025 345.00
73.6677 330.00
73.7329 361.00
73.7981 322.00
73.8633 341.00
73.9285 385.00
73.9937 345.00
74.0589 399.00
74.1241 336.00
74.1893 328.00
74.2545 370.00
74.3197 383.00
74.3849 378.00
74.4501 421.00
74.5153 389.00
74.5805 389.00
74.6457 411.00
74.7109 418.00
74.7761 369.00
74.8413 393.00
74.9065 347.00
74.9717 421.00
75.0369 370.00
75.1021 352.00
75.1673 365.00
75.2325 346.00
75.2977 375.00
75.3629 353.00
75.4281 358.00
75.4933 351.00
75.5585 352.00
75.6237 323.00
75.6889 335.00
75.7541 360.00
75.8193 353.00
75.8845 323.00
75.9497 356.00
76.0149 360.00
76.0801 356.00
76.1452 358.00
76.2104 337.00
76.2756 340.00
76.3409 338.00
76.406 342.00
76.4712 341.00
76.5364 319.00
76.6016 362.00
76.6668 390.00
76.732 357.00
76.7972 332.00
76.8624 345.00
76.9276 307.00
76.9928 363.00
77.058 323.00
77.1232 315.00
77.1884 392.00
77.2536 332.00
77.3188 362.00
77.384 353.00
77.4492 309.00
77.5144 320.00
77.5796 362.00
77.6448 336.00
77.71 376.00
77.7752 363.00
77.8404 316.00
77.9056 359.00
77.9708 360.00
78.036 348.00
78.1012 319.00
78.1664 341.00
78.2316 373.00
78.2968 309.00
78.362 386.00
78.4272 369.00
78.4924 386.00
78.5576 388.00
78.6228 415.00
78.688 432.00
78.7532 500.00
78.8184 606.00
78.8836 822.00
78.9488 1017.00
79.014 992.00
79.0792 933.00
79.1444 835.00
79.2096 820.00
79.2748 693.00
79.34 596.00
79.4052 488.00
79.4704 427.00
79.5356 434.00
79.6008 416.00
79.666 377.00
79.7312 373.00
79.7964 373.00
79.8616 347.00
79.9268 377.00
79.992 359.00
80.0572 439.00
80.1224 331.00
80.1876 350.00
80.2528 329.00
80.318 359.00
80.3832 360.00
80.4484 359.00
80.5136 374.00
80.5788 340.00
80.644 318.00
80.7092 324.00
80.7744 347.00
80.8396 355.00
80.9048 338.00
80.9699 397.00
81.0351 390.00
81.1003 402.00
81.1655 380.00
81.2307 400.00
81.2959 457.00
81.3611 512.00
81.4263 464.00
81.4915 487.00
81.5567 473.00
81.6219 435.00
81.6871 481.00
81.7523 429.00
81.8175 405.00
81.8827 371.00
81.9479 390.00
82.0131 404.00
82.0783 344.00
82.1435 323.00
82.2087 338.00
82.2739 328.00
82.3391 363.00
82.4043 367.00
82.4695 375.00
82.5347 353.00
82.5999 402.00
82.6651 356.00
82.7303 365.00
82.7955 369.00
82.8607 388.00
82.9259 370.00
82.9911 380.00
83.0563 327.00
83.1215 357.00
83.1867 383.00
83.2519 355.00
83.3171 350.00
83.3823 328.00
83.4475 343.00
83.5127 372.00
83.5779 364.00
83.6431 387.00
83.7083 441.00
83.7735 493.00
83.8387 601.00
83.9039 775.00
83.9691 834.00
84.0343 727.00
84.0995 732.00
84.1647 677.00
84.2299 670.00
84.2951 592.00
84.3603 489.00
84.4255 425.00
84.4907 407.00
84.5559 406.00
84.6211 384.00
84.6863 393.00
84.7515 347.00
84.8167 381.00
84.8819 331.00
84.9471 356.00
85.0123 340.00
85.0775 352.00
85.1427 359.00
85.2079 328.00
85.2731 331.00
85.3383 324.00
85.4035 367.00
85.4687 332.00
85.5339 365.00
85.5991 328.00
85.6643 313.00
85.7295 322.00
85.7946 312.00
85.8598 341.00
85.925 327.00
85.9903 296.00
86.0554 339.00
86.1206 347.00
86.1858 289.00
86.251 350.00
86.3162 315.00
86.3814 325.00
86.4466 367.00
86.5118 360.00
86.577 376.00
86.6422 371.00
86.7074 339.00
86.7726 338.00
86.8378 280.00
86.903 328.00
86.9682 306.00
87.0334 325.00
87.0986 330.00
87.1638 331.00
87.229 344.00
87.2942 374.00
87.3594 459.00
87.4246 541.00
87.4898 528.00
87.555 526.00
87.6202 478.00
87.6854 521.00
87.7506 474.00
87.8158 478.00
87.881 449.00
87.9462 407.00
88.0114 406.00
88.0766 416.00
88.1418 383.00
88.207 412.00
88.2722 423.00
88.3374 397.00
88.4026 360.00
88.4678 387.00
88.533 386.00
88.5982 413.00
88.6634 378.00
88.7286 396.00
88.7938 397.00
88.859 370.00
88.9242 375.00
88.9894 335.00
89.0546 391.00
89.1198 386.00
89.185 370.00
89.2502 388.00
89.3154 399.00
89.3806 407.00
89.4458 393.00
89.511 387.00
89.5762 414.00
89.6414 409.00
89.7066 475.00
89.7718 519.00
89.837 606.00
89.9022 695.00
89.9674 786.00
90.0326 880.00
90.0978 767.00
90.163 807.00
90.2282 731.00
90.2934 768.00
90.3586 653.00
90.4238 576.00
90.489 541.00
90.5542 477.00
90.6193 466.00
90.6845 491.00
90.7497 481.00
90.8149 482.00
90.8801 538.00
90.9453 609.00
91.0105 682.00
91.0757 756.00
91.1409 849.00
91.2061 833.00
91.2713 762.00
91.3365 729.00
91.4017 726.00
91.4669 684.00
91.5321 607.00
91.5973 536.00
91.6625 499.00
91.7277 466.00
91.7929 390.00
91.8581 397.00
91.9233 369.00
91.9885 355.00
92.0537 358.00
92.1189 390.00
92.1841 357.00
92.2493 371.00
92.3145 356.00
92.3797 350.00
92.4449 358.00
92.5101 375.00
92.5753 323.00
92.6405 380.00
92.7057 345.00
92.7709 374.00
92.8361 354.00
92.9013 376.00
92.9665 372.00
93.0317 423.00
93.0969 400.00
93.1621 396.00
93.2273 457.00
93.2925 443.00
93.3577 487.00
93.4229 575.00
93.4881 559.00
93.5533 578.00
93.6185 541.00
93.6837 536.00
93.7489 567.00
93.8141 521.00
93.8793 494.00
93.9445 527.00
94.0097 425.00
94.0749 396.00
94.1401 471.00
94.2053 403.00
94.2705 371.00
94.3357 384.00
94.4009 378.00
94.4661 358.00
94.5313 337.00
94.5965 374.00
94.6617 346.00
94.7269 350.00
94.7921 372.00
94.8573 350.00
94.9225 355.00
94.9877 349.00
95.0529 354.00
95.1181 377.00
95.1833 359.00
95.2485 351.00
95.3137 348.00
95.3789 365.00
95.444 353.00
95.5092 324.00
95.5744 363.00
95.6396 359.00
95.7048 351.00
95.77 344.00
95.8352 407.00
95.9004 388.00
95.9656 393.00
96.0308 437.00
96.096 471.00
96.1612 530.00
96.2264 567.00
96.2916 548.00
96.3568 544.00
96.422 529.00
96.4872 467.00
96.5524 527.00
96.6176 512.00
96.6828 413.00
96.748 401.00
96.8132 424.00
96.8784 375.00
96.9436 353.00
97.0088 374.00
97.074 376.00
97.1392 344.00
97.2044 384.00
97.2696 353.00
97.3348 336.00
97.4 375.00
97.4652 361.00
97.5304 339.00
97.5956 334.00
97.6608 314.00
97.726 328.00
97.7912 309.00
97.8564 358.00
97.9216 348.00
97.9868 307.00
98.052 350.00
98.1172 346.00
98.1824 343.00
98.2476 328.00
98.3128 339.00
98.378 378.00
98.4432 385.00
98.5084 389.00
98.5736 312.00
98.6388 370.00
98.704 321.00
98.7692 319.00
98.8344 348.00
98.8996 331.00
98.9648 306.00
99.03 353.00
99.0952 334.00
99.1604 368.00
99.2256 339.00
99.2908 322.00
99.356 306.00
99.4212 335.00
99.4864 351.00
99.5516 297.00
99.6168 352.00
99.682 380.00
99.7472 333.00
99.8124 335.00
99.8776 367.00
99.9428 339.00
100.008 349.00
100.073 366.00
100.095 317.00