File: data/xrd_creation/results/Na_121.xy
9.903433 2658.00
9.968632 2615.00
10.0338 2617.00
10.099 2570.00
10.1642 2570.00
10.2294 2636.00
10.2946 2610.00
10.3598 2554.00
10.425 2443.00
10.4902 2524.00
10.5554 2466.00
10.6206 2436.00
10.6858 2335.00
10.751 2444.00
10.8162 2353.00
10.8814 2352.00
10.9466 2294.00
11.0118 2386.00
11.077 2331.00
11.1422 2269.00
11.2074 2317.00
11.2726 2261.00
11.3378 2185.00
11.403 2294.00
11.4682 2181.00
11.5334 2181.00
11.5986 2186.00
11.6638 2079.00
11.729 2121.00
11.7942 2092.00
11.8594 2166.00
11.9246 2126.00
11.9898 2067.00
12.055 2074.00
12.1202 2056.00
12.1854 1977.00
12.2506 2037.00
12.3158 1954.00
12.381 2066.00
12.4462 1856.00
12.5114 1867.00
12.5766 1895.00
12.6418 1925.00
12.707 1909.00
12.7722 1840.00
12.8374 1858.00
12.9026 1939.00
12.9678 1827.00
13.033 1869.00
13.0982 1826.00
13.1634 1782.00
13.2286 1805.00
13.2938 1804.00
13.359 1842.00
13.4242 1742.00
13.4894 1812.00
13.5546 1754.00
13.6198 1757.00
13.685 1802.00
13.7502 1743.00
13.8154 1728.00
13.8805 1717.00
13.9457 1693.00
14.0109 1723.00
14.0761 1750.00
14.1413 1710.00
14.2065 1603.00
14.2717 1691.00
14.3369 1657.00
14.4021 1692.00
14.4673 1611.00
14.5325 1668.00
14.5977 1676.00
14.6629 1693.00
14.7281 1755.00
14.7933 1664.00
14.8585 1647.00
14.9237 1620.00
14.9889 1589.00
15.0541 1617.00
15.1193 1547.00
15.1845 1639.00
15.2497 1589.00
15.3149 1682.00
15.3801 1631.00
15.4453 1608.00
15.5105 1690.00
15.5757 1606.00
15.6409 1584.00
15.7061 1594.00
15.7713 1710.00
15.8365 1591.00
15.9017 1530.00
15.9669 1620.00
16.0321 1609.00
16.0973 1536.00
16.1625 1494.00
16.2277 1562.00
16.2929 1543.00
16.3581 1587.00
16.4233 1516.00
16.4885 1516.00
16.5537 1495.00
16.6189 1544.00
16.6841 1543.00
16.7493 1565.00
16.8145 1583.00
16.8797 1582.00
16.9449 1570.00
17.0101 1494.00
17.0753 1552.00
17.1405 1523.00
17.2057 1567.00
17.2709 1449.00
17.3361 1467.00
17.4013 1448.00
17.4665 1409.00
17.5317 1493.00
17.5969 1409.00
17.6621 1436.00
17.7273 1440.00
17.7925 1454.00
17.8577 1479.00
17.9229 1482.00
17.9881 1398.00
18.0533 1414.00
18.1185 1398.00
18.1837 1438.00
18.2489 1449.00
18.3141 1399.00
18.3793 1461.00
18.4445 1347.00
18.5097 1447.00
18.5749 1486.00
18.6401 1436.00
18.7052 1361.00
18.7704 1474.00
18.8356 1400.00
18.9008 1414.00
18.966 1441.00
19.0312 1450.00
19.0964 1400.00
19.1616 1561.00
19.2268 1568.00
19.292 1585.00
19.3572 1776.00
19.4224 2015.00
19.4876 2374.00
19.5528 3127.00
19.618 3920.00
19.6832 4903.00
19.7484 5011.00
19.8136 4149.00
19.8788 2830.00
19.944 2137.00
20.0092 1800.00
20.0744 1603.00
20.1396 1420.00
20.2048 1443.00
20.27 1400.00
20.3352 1410.00
20.4004 1334.00
20.4656 1326.00
20.5308 1346.00
20.596 1309.00
20.6612 1294.00
20.7264 1277.00
20.7916 1256.00
20.8568 1324.00
20.922 1239.00
20.9872 1268.00
21.0524 1271.00
21.1176 1216.00
21.1828 1322.00
21.248 1253.00
21.3132 1236.00
21.3784 1228.00
21.4436 1302.00
21.5088 1255.00
21.574 1213.00
21.6392 1230.00
21.7044 1244.00
21.7696 1276.00
21.8348 1218.00
21.9 1290.00
21.9652 1263.00
22.0304 1306.00
22.0956 1453.00
22.1608 1490.00
22.226 1478.00
22.2912 1637.00
22.3564 1820.00
22.4216 2302.00
22.4868 2965.00
22.552 4074.00
22.6172 5952.00
22.6824 8366.00
22.7476 9918.00
22.8128 8370.00
22.878 5337.00
22.9432 3149.00
23.0084 2172.00
23.0736 1817.00
23.1388 1661.00
23.204 1413.00
23.2692 1420.00
23.3344 1407.00
23.3996 1335.00
23.4647 1337.00
23.5299 1240.00
23.5951 1317.00
23.6603 1204.00
23.7255 1199.00
23.7907 1173.00
23.8559 1195.00
23.9211 1107.00
23.9863 1140.00
24.0515 1195.00
24.1167 1078.00
24.1819 1129.00
24.2471 1099.00
24.3123 1076.00
24.3775 1127.00
24.4427 1146.00
24.5079 1094.00
24.5731 1125.00
24.6383 1127.00
24.7035 1086.00
24.7687 1160.00
24.8339 1167.00
24.8991 1122.00
24.9643 1172.00
25.0295 1170.00
25.0947 1262.00
25.1599 1438.00
25.2251 1693.00
25.2903 2109.00
25.3555 2605.00
25.4207 2876.00
25.4859 2748.00
25.5511 2069.00
25.6163 1559.00
25.6815 1366.00
25.7467 1163.00
25.8119 1090.00
25.8771 1093.00
25.9423 1095.00
26.0075 1075.00
26.0727 1048.00
26.1379 1079.00
26.2031 1017.00
26.2683 1066.00
26.3335 1023.00
26.3987 1003.00
26.4639 999.00
26.5291 1021.00
26.5943 1033.00
26.6595 1053.00
26.7247 1036.00
26.7899 1308.00
26.8551 1588.00
26.9203 2091.00
26.9855 2922.00
27.0507 2783.00
27.1159 1918.00
27.1811 1256.00
27.2463 1145.00
27.3115 1121.00
27.3767 1104.00
27.4419 1124.00
27.5071 1222.00
27.5723 1327.00
27.6375 1532.00
27.7027 1798.00
27.7679 2296.00
27.8331 2563.00
27.8983 2525.00
27.9635 2099.00
28.0287 1728.00
28.0939 1430.00
28.1591 1268.00
28.2243 1161.00
28.2894 1090.00
28.3546 1024.00
28.4198 1072.00
28.485 1032.00
28.5502 992.00
28.6154 1020.00
28.6806 1003.00
28.7458 1045.00
28.811 1065.00
28.8762 997.00
28.9414 1029.00
29.0066 1002.00
29.0718 968.00
29.137 921.00
29.2022 924.00
29.2674 905.00
29.3326 902.00
29.3978 889.00
29.463 905.00
29.5282 883.00
29.5934 872.00
29.6586 909.00
29.7238 885.00
29.789 920.00
29.8542 916.00
29.9194 904.00
29.9846 906.00
30.0498 941.00
30.115 937.00
30.1802 876.00
30.2454 887.00
30.3106 890.00
30.3758 831.00
30.441 866.00
30.5062 898.00
30.5714 832.00
30.6366 831.00
30.7018 887.00
30.767 839.00
30.8322 848.00
30.8974 857.00
30.9626 883.00
31.0278 838.00
31.093 787.00
31.1582 912.00
31.2234 843.00
31.2886 809.00
31.3538 887.00
31.419 883.00
31.4842 938.00
31.5494 919.00
31.6146 982.00
31.6798 985.00
31.745 1039.00
31.8102 1122.00
31.8754 1232.00
31.9406 1533.00
32.0058 1971.00
32.071 2524.00
32.1362 3408.00
32.2014 3966.00
32.2666 3750.00
32.3318 2726.00
32.397 2004.00
32.4622 1445.00
32.5274 1171.00
32.5926 1050.00
32.6578 949.00
32.723 891.00
32.7882 903.00
32.8534 868.00
32.9186 869.00
32.9838 822.00
33.0489 808.00
33.1141 783.00
33.1793 828.00
33.2445 758.00
33.3097 764.00
33.3749 846.00
33.4401 764.00
33.5053 818.00
33.5705 768.00
33.6357 791.00
33.7009 809.00
33.7661 788.00
33.8313 858.00
33.8965 903.00
33.9617 916.00
34.0269 987.00
34.0921 1187.00
34.1573 1531.00
34.2225 2188.00
34.2877 2650.00
34.3529 2277.00
34.4181 1545.00
34.4833 1155.00
34.5485 974.00
34.6137 942.00
34.6789 869.00
34.7441 860.00
34.8093 853.00
34.8745 755.00
34.9397 824.00
35.0049 751.00
35.0701 771.00
35.1353 707.00
35.2005 727.00
35.2657 710.00
35.3309 694.00
35.3961 690.00
35.4613 700.00
35.5265 686.00
35.5917 722.00
35.6569 733.00
35.7221 753.00
35.7873 700.00
35.8525 679.00
35.9177 724.00
35.9829 751.00
36.0481 693.00
36.1133 717.00
36.1785 708.00
36.2437 693.00
36.3089 737.00
36.3741 704.00
36.4393 653.00
36.5045 707.00
36.5697 707.00
36.6349 704.00
36.7001 746.00
36.7653 690.00
36.8305 737.00
36.8957 753.00
36.9609 736.00
37.0261 762.00
37.0913 797.00
37.1565 725.00
37.2217 798.00
37.2869 883.00
37.3521 918.00
37.4173 1023.00
37.4825 1105.00
37.5477 1334.00
37.6129 1631.00
37.6781 2315.00
37.7433 3158.00
37.8085 4355.00
37.8736 5143.00
37.9388 5105.00
38.004 3932.00
38.0692 2702.00
38.1344 1915.00
38.1996 1496.00
38.2648 1334.00
38.33 1364.00
38.3952 1321.00
38.4604 1144.00
38.5256 973.00
38.5908 812.00
38.656 788.00
38.7212 695.00
38.7864 704.00
38.8516 769.00
38.9168 643.00
38.982 680.00
39.0472 743.00
39.1124 741.00
39.1776 734.00
39.2428 763.00
39.308 925.00
39.3732 1120.00
39.4384 1209.00
39.5036 1545.00
39.5688 1704.00
39.634 1821.00
39.6992 1575.00
39.7644 1365.00
39.8296 1025.00
39.8948 934.00
39.96 798.00
40.0252 731.00
40.0904 715.00
40.1556 687.00
40.2208 677.00
40.286 668.00
40.3512 646.00
40.4164 646.00
40.4816 634.00
40.5468 619.00
40.612 635.00
40.6772 600.00
40.7424 597.00
40.8076 612.00
40.8728 652.00
40.938 633.00
41.0032 697.00
41.0684 666.00
41.1336 724.00
41.1988 792.00
41.264 776.00
41.3292 826.00
41.3944 748.00
41.4596 722.00
41.5248 662.00
41.59 635.00
41.6552 558.00
41.7204 574.00
41.7856 546.00
41.8508 596.00
41.916 605.00
41.9812 574.00
42.0464 553.00
42.1116 537.00
42.1768 565.00
42.242 578.00
42.3072 592.00
42.3724 585.00
42.4376 585.00
42.5028 585.00
42.568 540.00
42.6332 567.00
42.6983 633.00
42.7635 621.00
42.8287 586.00
42.8939 629.00
42.9591 645.00
43.0243 657.00
43.0895 616.00
43.1547 588.00
43.2199 627.00
43.2851 640.00
43.3503 573.00
43.4155 668.00
43.4807 666.00
43.5459 651.00
43.6111 625.00
43.6763 672.00
43.7415 665.00
43.8067 671.00
43.8719 662.00
43.9371 646.00
44.0023 691.00
44.0675 679.00
44.1327 685.00
44.1979 624.00
44.2631 600.00
44.3283 624.00
44.3935 567.00
44.4587 548.00
44.5239 553.00
44.5891 564.00
44.6543 541.00
44.7195 582.00
44.7847 592.00
44.8499 541.00
44.9151 548.00
44.9803 554.00
45.0455 560.00
45.1107 596.00
45.1759 561.00
45.2411 590.00
45.3063 571.00
45.3715 550.00
45.4367 543.00
45.5019 535.00
45.5671 540.00
45.6323 590.00
45.6975 537.00
45.7627 593.00
45.8279 654.00
45.8931 781.00
45.9583 896.00
46.0235 963.00
46.0887 841.00
46.1539 722.00
46.2191 701.00
46.2843 631.00
46.3495 565.00
46.4147 588.00
46.4799 608.00
46.5451 593.00
46.6103 552.00
46.6755 586.00
46.7407 539.00
46.8059 558.00
46.8711 580.00
46.9363 552.00
47.0015 545.00
47.0667 549.00
47.1319 565.00
47.1971 573.00
47.2623 568.00
47.3275 593.00
47.3927 631.00
47.4579 659.00
47.523 682.00
47.5882 715.00
47.6534 626.00
47.7186 605.00
47.7838 558.00
47.849 589.00
47.9142 567.00
47.9794 546.00
48.0446 544.00
48.1098 582.00
48.175 506.00
48.2402 534.00
48.3054 562.00
48.3706 572.00
48.4358 546.00
48.501 555.00
48.5662 517.00
48.6314 559.00
48.6966 552.00
48.7618 556.00
48.827 630.00
48.8922 631.00
48.9574 565.00
49.0226 627.00
49.0878 627.00
49.153 636.00
49.2182 583.00
49.2834 529.00
49.3486 583.00
49.4138 583.00
49.479 562.00
49.5442 605.00
49.6094 564.00
49.6746 545.00
49.7398 559.00
49.805 617.00
49.8702 625.00
49.9354 703.00
50.0006 721.00
50.0658 840.00
50.131 988.00
50.1962 1300.00
50.2614 1616.00
50.3266 1815.00
50.3918 1814.00
50.457 1670.00
50.5222 1412.00
50.5874 1104.00
50.6526 996.00
50.7178 815.00
50.783 731.00
50.8482 701.00
50.9134 680.00
50.9786 666.00
51.0438 686.00
51.109 671.00
51.1742 657.00
51.2394 735.00
51.3046 783.00
51.3698 883.00
51.435 946.00
51.5002 1201.00
51.5654 1449.00
51.6306 1903.00
51.6958 2219.00
51.761 2454.00
51.8262 2301.00
51.8914 1954.00
51.9566 1634.00
52.0218 1525.00
52.087 1679.00
52.1522 2023.00
52.2174 1951.00
52.2826 1660.00
52.3477 1390.00
52.4129 964.00
52.4781 766.00
52.5433 697.00
52.6085 644.00
52.6737 589.00
52.7389 576.00
52.8041 568.00
52.8693 589.00
52.9345 559.00
52.9997 601.00
53.0649 608.00
53.1301 574.00
53.1953 562.00
53.2605 616.00
53.3257 579.00
53.3909 553.00
53.4561 567.00
53.5213 595.00
53.5865 548.00
53.6517 544.00
53.7169 469.00
53.7821 532.00
53.8473 542.00
53.9125 547.00
53.9777 542.00
54.0429 537.00
54.1081 541.00
54.1733 587.00
54.2385 550.00
54.3037 562.00
54.3689 567.00
54.4341 586.00
54.4993 590.00
54.5645 604.00
54.6297 570.00
54.6949 662.00
54.7601 618.00
54.8253 644.00
54.8905 663.00
54.9557 683.00
55.0209 801.00
55.0861 920.00
55.1513 1014.00
55.2165 932.00
55.2817 904.00
55.3469 774.00
55.4121 682.00
55.4773 615.00
55.5425 571.00
55.6077 549.00
55.6729 604.00
55.7381 557.00
55.8033 576.00
55.8685 531.00
55.9337 533.00
55.9989 555.00
56.0641 548.00
56.1293 475.00
56.1945 546.00
56.2597 502.00
56.3249 613.00
56.3901 558.00
56.4553 603.00
56.5205 671.00
56.5857 731.00
56.6509 744.00
56.7161 833.00
56.7813 908.00
56.8465 1110.00
56.9117 1376.00
56.9769 1615.00
57.042 1774.00
57.1073 1690.00
57.1724 1576.00
57.2376 1374.00
57.3028 1071.00
57.368 908.00
57.4332 845.00
57.4984 636.00
57.5636 659.00
57.6288 563.00
57.694 525.00
57.7592 579.00
57.8244 516.00
57.8896 523.00
57.9548 532.00
58.02 572.00
58.0852 559.00
58.1504 641.00
58.2156 655.00
58.2808 634.00
58.346 628.00
58.4112 573.00
58.4764 522.00
58.5416 555.00
58.6068 477.00
58.672 503.00
58.7372 488.00
58.8024 479.00
58.8676 495.00
58.9328 476.00
58.998 473.00
59.0632 483.00
59.1284 484.00
59.1936 491.00
59.2588 460.00
59.324 493.00
59.3892 474.00
59.4544 507.00
59.5196 537.00
59.5848 514.00
59.65 541.00
59.7152 507.00
59.7804 497.00
59.8456 477.00
59.9108 502.00
59.976 497.00
60.0412 531.00
60.1064 578.00
60.1716 584.00
60.2368 573.00
60.302 651.00
60.3672 681.00
60.4324 760.00
60.4976 882.00
60.5628 1039.00
60.628 1319.00
60.6932 1699.00
60.7584 1960.00
60.8236 2291.00
60.8888 2226.00
60.954 2037.00
61.0192 1727.00
61.0844 1397.00
61.1496 1112.00
61.2148 969.00
61.28 793.00
61.3452 736.00
61.4104 617.00
61.4756 634.00
61.5408 601.00
61.606 602.00
61.6712 649.00
61.7364 588.00
61.8016 625.00
61.8667 566.00
61.932 601.00
61.9971 612.00
62.0623 613.00
62.1275 684.00
62.1927 741.00
62.2579 820.00
62.3231 728.00
62.3883 729.00
62.4535 621.00
62.5187 623.00
62.5839 592.00
62.6491 581.00
62.7143 462.00
62.7795 535.00
62.8447 511.00
62.9099 517.00
62.9751 502.00
63.0403 470.00
63.1055 499.00
63.1707 536.00
63.2359 564.00
63.3011 563.00
63.3663 514.00
63.4315 496.00
63.4967 522.00
63.5619 498.00
63.6271 511.00
63.6923 449.00
63.7575 466.00
63.8227 436.00
63.8879 471.00
63.9531 467.00
64.0183 479.00
64.0835 469.00
64.1487 473.00
64.2139 491.00
64.2791 511.00
64.3443 521.00
64.4095 538.00
64.4747 516.00
64.5399 525.00
64.6051 491.00
64.6703 518.00
64.7355 509.00
64.8007 497.00
64.8659 507.00
64.9311 537.00
64.9963 652.00
65.0615 748.00
65.1267 750.00
65.1919 720.00
65.2571 643.00
65.3223 643.00
65.3875 522.00
65.4527 477.00
65.5179 472.00
65.5831 465.00
65.6483 448.00
65.7135 497.00
65.7787 422.00
65.8439 418.00
65.9091 440.00
65.9743 451.00
66.0395 449.00
66.1047 558.00
66.1699 546.00
66.2351 645.00
66.3003 724.00
66.3655 811.00
66.4307 801.00
66.4959 780.00
66.561 818.00
66.6263 843.00
66.6915 871.00
66.7566 882.00
66.8218 974.00
66.887 937.00
66.9522 896.00
67.0174 913.00
67.0826 800.00
67.1478 678.00
67.213 609.00
67.2782 546.00
67.3434 534.00
67.4086 533.00
67.4738 531.00
67.539 546.00
67.6042 527.00
67.6694 491.00
67.7346 465.00
67.7998 523.00
67.865 509.00
67.9302 515.00
67.9954 510.00
68.0606 577.00
68.1258 578.00
68.191 532.00
68.2562 553.00
68.3214 545.00
68.3866 530.00
68.4518 508.00
68.517 512.00
68.5822 469.00
68.6474 482.00
68.7126 530.00
68.7778 491.00
68.843 463.00
68.9082 445.00
68.9734 488.00
69.0386 493.00
69.1038 494.00
69.169 515.00
69.2342 474.00
69.2994 451.00
69.3646 490.00
69.4298 487.00
69.495 501.00
69.5602 488.00
69.6254 544.00
69.6906 514.00
69.7558 523.00
69.821 535.00
69.8862 555.00
69.9514 567.00
70.0166 555.00
70.0818 664.00
70.147 780.00
70.2122 826.00
70.2774 987.00
70.3426 934.00
70.4078 907.00
70.473 830.00
70.5382 775.00
70.6034 708.00
70.6686 655.00
70.7338 648.00
70.799 582.00
70.8642 531.00
70.9294 505.00
70.9946 543.00
71.0598 617.00
71.125 610.00
71.1902 672.00
71.2554 760.00
71.3205 849.00
71.3858 891.00
71.451 873.00
71.5162 961.00
71.5813 862.00
71.6465 909.00
71.7117 829.00
71.7769 749.00
71.8421 675.00
71.9073 615.00
71.9725 543.00
72.0377 510.00
72.1029 520.00
72.1681 459.00
72.2333 449.00
72.2985 430.00
72.3637 455.00
72.4289 479.00
72.4941 430.00
72.5593 499.00
72.6245 477.00
72.6897 484.00
72.7549 461.00
72.8201 475.00
72.8853 430.00
72.9505 433.00
73.0157 407.00
73.0809 447.00
73.1461 437.00
73.2113 409.00
73.2765 418.00
73.3417 480.00
73.4069 461.00
73.4721 489.00
73.5373 439.00
73.6025 541.00
73.6677 541.00
73.7329 507.00
73.7981 504.00
73.8633 469.00
73.9285 453.00
73.9937 498.00
74.0589 486.00
74.1241 462.00
74.1893 447.00
74.2545 460.00
74.3197 434.00
74.3849 457.00
74.4501 484.00
74.5153 461.00
74.5805 462.00
74.6457 417.00
74.7109 471.00
74.7761 437.00
74.8413 431.00
74.9065 392.00
74.9717 446.00
75.0369 400.00
75.1021 388.00
75.1673 434.00
75.2325 428.00
75.2977 446.00
75.3629 428.00
75.4281 452.00
75.4933 447.00
75.5585 485.00
75.6237 482.00
75.6889 513.00
75.7541 512.00
75.8193 555.00
75.8845 593.00
75.9497 659.00
76.0149 622.00
76.0801 588.00
76.1452 535.00
76.2104 543.00
76.2756 471.00
76.3409 478.00
76.406 436.00
76.4712 401.00
76.5364 404.00
76.6016 393.00
76.6668 421.00
76.732 408.00
76.7972 468.00
76.8624 453.00
76.9276 431.00
76.9928 424.00
77.058 462.00
77.1232 458.00
77.1884 410.00
77.2536 494.00
77.3188 430.00
77.384 424.00
77.4492 415.00
77.5144 385.00
77.5796 459.00
77.6448 437.00
77.71 436.00
77.7752 416.00
77.8404 399.00
77.9056 419.00
77.9708 463.00
78.036 422.00
78.1012 443.00
78.1664 391.00
78.2316 407.00
78.2968 400.00
78.362 396.00
78.4272 390.00
78.4924 386.00
78.5576 397.00
78.6228 420.00
78.688 435.00
78.7532 431.00
78.8184 458.00
78.8836 540.00
78.9488 570.00
79.014 713.00
79.0792 713.00
79.1444 796.00
79.2096 739.00
79.2748 781.00
79.34 686.00
79.4052 697.00
79.4704 653.00
79.5356 576.00
79.6008 562.00
79.666 520.00
79.7312 533.00
79.7964 519.00
79.8616 514.00
79.9268 503.00
79.992 489.00
80.0572 486.00
80.1224 528.00
80.1876 538.00
80.2528 626.00
80.318 622.00
80.3832 615.00
80.4484 593.00
80.5136 579.00
80.5788 508.00
80.644 501.00
80.7092 469.00
80.7744 484.00
80.8396 515.00
80.9048 459.00
80.9699 445.00
81.0351 443.00
81.1003 408.00
81.1655 366.00
81.2307 470.00
81.2959 398.00
81.3611 480.00
81.4263 460.00
81.4915 483.00
81.5567 440.00
81.6219 420.00
81.6871 480.00
81.7523 442.00
81.8175 429.00
81.8827 407.00
81.9479 394.00
82.0131 368.00
82.0783 384.00
82.1435 344.00
82.2087 354.00
82.2739 382.00
82.3391 383.00
82.4043 389.00
82.4695 389.00
82.5347 373.00
82.5999 399.00
82.6651 414.00
82.7303 394.00
82.7955 371.00
82.8607 408.00
82.9259 339.00
82.9911 360.00
83.0563 407.00
83.1215 391.00
83.1867 425.00
83.2519 406.00
83.3171 383.00
83.3823 383.00
83.4475 405.00
83.5127 429.00
83.5779 384.00
83.6431 396.00
83.7083 392.00
83.7735 406.00
83.8387 390.00
83.9039 411.00
83.9691 453.00
84.0343 556.00
84.0995 503.00
84.1647 511.00
84.2299 490.00
84.2951 452.00
84.3603 428.00
84.4255 399.00
84.4907 395.00
84.5559 398.00
84.6211 425.00
84.6863 371.00
84.7515 379.00
84.8167 370.00
84.8819 383.00
84.9471 352.00
85.0123 362.00
85.0775 393.00
85.1427 400.00
85.2079 355.00
85.2731 402.00
85.3383 399.00
85.4035 386.00
85.4687 396.00
85.5339 405.00
85.5991 425.00
85.6643 379.00
85.7295 395.00
85.7946 403.00
85.8598 415.00
85.925 373.00
85.9903 417.00
86.0554 400.00
86.1206 401.00
86.1858 418.00
86.251 404.00
86.3162 391.00
86.3814 352.00
86.4466 385.00
86.5118 367.00
86.577 431.00
86.6422 349.00
86.7074 416.00
86.7726 414.00
86.8378 398.00
86.903 426.00
86.9682 417.00
87.0334 415.00
87.0986 397.00
87.1638 434.00
87.229 422.00
87.2942 401.00
87.3594 452.00
87.4246 435.00
87.4898 492.00
87.555 507.00
87.6202 563.00
87.6854 564.00
87.7506 591.00
87.8158 588.00
87.881 644.00
87.9462 619.00
88.0114 581.00
88.0766 605.00
88.1418 539.00
88.207 507.00
88.2722 533.00
88.3374 542.00
88.4026 497.00
88.4678 522.00
88.533 514.00
88.5982 512.00
88.6634 490.00
88.7286 571.00
88.7938 589.00
88.859 630.00
88.9242 597.00
88.9894 628.00
89.0546 672.00
89.1198 650.00
89.185 572.00
89.2502 594.00
89.3154 508.00
89.3806 479.00
89.4458 490.00
89.511 454.00
89.5762 440.00
89.6414 410.00
89.7066 437.00
89.7718 413.00
89.837 436.00
89.9022 493.00
89.9674 502.00
90.0326 496.00
90.0978 529.00
90.163 556.00
90.2282 543.00
90.2934 507.00
90.3586 510.00
90.4238 493.00
90.489 460.00
90.5542 454.00
90.6193 453.00
90.6845 462.00
90.7497 451.00
90.8149 443.00
90.8801 433.00
90.9453 486.00
91.0105 463.00
91.0757 513.00
91.1409 580.00
91.2061 605.00
91.2713 625.00
91.3365 604.00
91.4017 528.00
91.4669 583.00
91.5321 554.00
91.5973 561.00
91.6625 512.00
91.7277 478.00
91.7929 468.00
91.8581 440.00
91.9233 462.00
91.9885 452.00
92.0537 409.00
92.1189 413.00
92.1841 438.00
92.2493 449.00
92.3145 467.00
92.3797 442.00
92.4449 404.00
92.5101 432.00
92.5753 427.00
92.6405 480.00
92.7057 457.00
92.7709 411.00
92.8361 472.00
92.9013 548.00
92.9665 549.00
93.0317 513.00
93.0969 564.00
93.1621 581.00
93.2273 647.00
93.2925 641.00
93.3577 655.00
93.4229 630.00
93.4881 572.00
93.5533 587.00
93.6185 587.00
93.6837 580.00
93.7489 534.00
93.8141 520.00
93.8793 457.00
93.9445 480.00
94.0097 445.00
94.0749 456.00
94.1401 430.00
94.2053 453.00
94.2705 402.00
94.3357 417.00
94.4009 426.00
94.4661 434.00
94.5313 407.00
94.5965 423.00
94.6617 397.00
94.7269 401.00
94.7921 388.00
94.8573 412.00
94.9225 422.00
94.9877 403.00
95.0529 409.00
95.1181 436.00
95.1833 425.00
95.2485 463.00
95.3137 433.00
95.3789 422.00
95.444 423.00
95.5092 410.00
95.5744 408.00
95.6396 433.00
95.7048 416.00
95.77 450.00
95.8352 441.00
95.9004 428.00
95.9656 482.00
96.0308 498.00
96.096 535.00
96.1612 578.00
96.2264 634.00
96.2916 646.00
96.3568 702.00
96.422 741.00
96.4872 752.00
96.5524 774.00
96.6176 714.00
96.6828 691.00
96.748 697.00
96.8132 653.00
96.8784 606.00
96.9436 582.00
97.0088 532.00
97.074 559.00
97.1392 492.00
97.2044 505.00
97.2696 493.00
97.3348 509.00
97.4 516.00
97.4652 466.00
97.5304 439.00
97.5956 439.00
97.6608 467.00
97.726 475.00
97.7912 414.00
97.8564 409.00
97.9216 426.00
97.9868 417.00
98.052 449.00
98.1172 491.00
98.1824 401.00
98.2476 400.00
98.3128 387.00
98.378 430.00
98.4432 421.00
98.5084 457.00
98.5736 401.00
98.6388 384.00
98.704 399.00
98.7692 391.00
98.8344 353.00
98.8996 421.00
98.9648 399.00
99.03 403.00
99.0952 379.00
99.1604 365.00
99.2256 366.00
99.2908 410.00
99.356 359.00
99.4212 381.00
99.4864 397.00
99.5516 388.00
99.6168 409.00
99.682 379.00
99.7472 420.00
99.8124 382.00
99.8776 417.00
99.9428 392.00
100.008 400.00
100.073 379.00
100.095 403.00