File: data/xrd_creation/results/Na_13.xy
9.903433 2601.00
9.968632 2602.00
10.0338 2494.00
10.099 2610.00
10.1642 2487.00
10.2294 2581.00
10.2946 2435.00
10.3598 2570.00
10.425 2427.00
10.4902 2356.00
10.5554 2343.00
10.6206 2285.00
10.6858 2372.00
10.751 2400.00
10.8162 2284.00
10.8814 2196.00
10.9466 2282.00
11.0118 2220.00
11.077 2305.00
11.1422 2214.00
11.2074 2145.00
11.2726 2196.00
11.3378 2037.00
11.403 2188.00
11.4682 2076.00
11.5334 2093.00
11.5986 2069.00
11.6638 2056.00
11.729 2102.00
11.7942 1903.00
11.8594 2020.00
11.9246 1960.00
11.9898 1900.00
12.055 1953.00
12.1202 1916.00
12.1854 1927.00
12.2506 1871.00
12.3158 1853.00
12.381 1805.00
12.4462 1846.00
12.5114 1890.00
12.5766 1797.00
12.6418 1653.00
12.707 1786.00
12.7722 1772.00
12.8374 1736.00
12.9026 1649.00
12.9678 1709.00
13.033 1731.00
13.0982 1732.00
13.1634 1709.00
13.2286 1710.00
13.2938 1673.00
13.359 1654.00
13.4242 1663.00
13.4894 1603.00
13.5546 1648.00
13.6198 1547.00
13.685 1563.00
13.7502 1587.00
13.8154 1547.00
13.8805 1481.00
13.9457 1517.00
14.0109 1489.00
14.0761 1465.00
14.1413 1477.00
14.2065 1518.00
14.2717 1469.00
14.3369 1493.00
14.4021 1559.00
14.4673 1439.00
14.5325 1424.00
14.5977 1457.00
14.6629 1464.00
14.7281 1389.00
14.7933 1380.00
14.8585 1403.00
14.9237 1422.00
14.9889 1407.00
15.0541 1427.00
15.1193 1411.00
15.1845 1416.00
15.2497 1342.00
15.3149 1341.00
15.3801 1404.00
15.4453 1370.00
15.5105 1349.00
15.5757 1315.00
15.6409 1331.00
15.7061 1380.00
15.7713 1369.00
15.8365 1345.00
15.9017 1348.00
15.9669 1264.00
16.0321 1300.00
16.0973 1314.00
16.1625 1293.00
16.2277 1319.00
16.2929 1238.00
16.3581 1279.00
16.4233 1262.00
16.4885 1309.00
16.5537 1266.00
16.6189 1212.00
16.6841 1249.00
16.7493 1220.00
16.8145 1303.00
16.8797 1203.00
16.9449 1228.00
17.0101 1221.00
17.0753 1146.00
17.1405 1239.00
17.2057 1186.00
17.2709 1167.00
17.3361 1177.00
17.4013 1220.00
17.4665 1146.00
17.5317 1222.00
17.5969 1116.00
17.6621 1118.00
17.7273 1160.00
17.7925 1158.00
17.8577 1120.00
17.9229 1157.00
17.9881 1145.00
18.0533 1117.00
18.1185 1106.00
18.1837 1063.00
18.2489 1055.00
18.3141 1120.00
18.3793 1079.00
18.4445 1089.00
18.5097 1078.00
18.5749 1080.00
18.6401 1064.00
18.7052 1077.00
18.7704 1124.00
18.8356 1076.00
18.9008 1075.00
18.966 1035.00
19.0312 1076.00
19.0964 1063.00
19.1616 1026.00
19.2268 1000.00
19.292 1060.00
19.3572 1025.00
19.4224 1057.00
19.4876 1004.00
19.5528 1021.00
19.618 1004.00
19.6832 975.00
19.7484 1002.00
19.8136 975.00
19.8788 936.00
19.944 987.00
20.0092 985.00
20.0744 968.00
20.1396 1002.00
20.2048 963.00
20.27 926.00
20.3352 962.00
20.4004 930.00
20.4656 927.00
20.5308 896.00
20.596 971.00
20.6612 970.00
20.7264 853.00
20.7916 926.00
20.8568 874.00
20.922 886.00
20.9872 914.00
21.0524 875.00
21.1176 883.00
21.1828 876.00
21.248 933.00
21.3132 917.00
21.3784 878.00
21.4436 866.00
21.5088 864.00
21.574 869.00
21.6392 832.00
21.7044 895.00
21.7696 894.00
21.8348 891.00
21.9 820.00
21.9652 860.00
22.0304 835.00
22.0956 836.00
22.1608 821.00
22.226 847.00
22.2912 847.00
22.3564 816.00
22.4216 821.00
22.4868 826.00
22.552 890.00
22.6172 831.00
22.6824 811.00
22.7476 805.00
22.8128 787.00
22.878 873.00
22.9432 819.00
23.0084 778.00
23.0736 830.00
23.1388 806.00
23.204 800.00
23.2692 791.00
23.3344 745.00
23.3996 827.00
23.4647 758.00
23.5299 808.00
23.5951 805.00
23.6603 839.00
23.7255 770.00
23.7907 735.00
23.8559 737.00
23.9211 827.00
23.9863 754.00
24.0515 762.00
24.1167 740.00
24.1819 763.00
24.2471 733.00
24.3123 689.00
24.3775 794.00
24.4427 739.00
24.5079 758.00
24.5731 735.00
24.6383 764.00
24.7035 748.00
24.7687 752.00
24.8339 748.00
24.8991 771.00
24.9643 769.00
25.0295 724.00
25.0947 730.00
25.1599 695.00
25.2251 675.00
25.2903 724.00
25.3555 685.00
25.4207 689.00
25.4859 685.00
25.5511 698.00
25.6163 689.00
25.6815 706.00
25.7467 702.00
25.8119 686.00
25.8771 691.00
25.9423 729.00
26.0075 677.00
26.0727 656.00
26.1379 693.00
26.2031 676.00
26.2683 674.00
26.3335 733.00
26.3987 685.00
26.4639 707.00
26.5291 698.00
26.5943 659.00
26.6595 686.00
26.7247 657.00
26.7899 642.00
26.8551 638.00
26.9203 685.00
26.9855 635.00
27.0507 646.00
27.1159 629.00
27.1811 713.00
27.2463 710.00
27.3115 711.00
27.3767 712.00
27.4419 655.00
27.5071 620.00
27.5723 645.00
27.6375 644.00
27.7027 609.00
27.7679 674.00
27.8331 602.00
27.8983 709.00
27.9635 621.00
28.0287 618.00
28.0939 659.00
28.1591 664.00
28.2243 640.00
28.2894 654.00
28.3546 619.00
28.4198 669.00
28.485 638.00
28.5502 652.00
28.6154 621.00
28.6806 619.00
28.7458 600.00
28.811 626.00
28.8762 577.00
28.9414 639.00
29.0066 627.00
29.0718 583.00
29.137 600.00
29.2022 572.00
29.2674 620.00
29.3326 635.00
29.3978 554.00
29.463 594.00
29.5282 617.00
29.5934 599.00
29.6586 573.00
29.7238 532.00
29.789 592.00
29.8542 612.00
29.9194 618.00
29.9846 719.00
30.0498 879.00
30.115 751.00
30.1802 658.00
30.2454 596.00
30.3106 587.00
30.3758 567.00
30.441 518.00
30.5062 561.00
30.5714 589.00
30.6366 537.00
30.7018 553.00
30.767 554.00
30.8322 575.00
30.8974 601.00
30.9626 592.00
31.0278 548.00
31.093 552.00
31.1582 560.00
31.2234 509.00
31.2886 579.00
31.3538 632.00
31.419 670.00
31.4842 905.00
31.5494 1274.00
31.6146 1332.00
31.6798 1036.00
31.745 782.00
31.8102 572.00
31.8754 542.00
31.9406 557.00
32.0058 525.00
32.071 565.00
32.1362 530.00
32.2014 490.00
32.2666 531.00
32.3318 539.00
32.397 524.00
32.4622 546.00
32.5274 542.00
32.5926 526.00
32.6578 524.00
32.723 465.00
32.7882 515.00
32.8534 496.00
32.9186 556.00
32.9838 564.00
33.0489 469.00
33.1141 501.00
33.1793 501.00
33.2445 501.00
33.3097 491.00
33.3749 477.00
33.4401 436.00
33.5053 519.00
33.5705 501.00
33.6357 449.00
33.7009 500.00
33.7661 514.00
33.8313 501.00
33.8965 508.00
33.9617 471.00
34.0269 509.00
34.0921 499.00
34.1573 497.00
34.2225 507.00
34.2877 514.00
34.3529 490.00
34.4181 458.00
34.4833 502.00
34.5485 507.00
34.6137 487.00
34.6789 441.00
34.7441 427.00
34.8093 418.00
34.8745 451.00
34.9397 456.00
35.0049 465.00
35.0701 482.00
35.1353 531.00
35.2005 487.00
35.2657 476.00
35.3309 424.00
35.3961 484.00
35.4613 447.00
35.5265 491.00
35.5917 497.00
35.6569 408.00
35.7221 448.00
35.7873 431.00
35.8525 485.00
35.9177 474.00
35.9829 450.00
36.0481 450.00
36.1133 422.00
36.1785 444.00
36.2437 433.00
36.3089 411.00
36.3741 417.00
36.4393 417.00
36.5045 448.00
36.5697 382.00
36.6349 441.00
36.7001 440.00
36.7653 419.00
36.8305 403.00
36.8957 457.00
36.9609 427.00
37.0261 393.00
37.0913 394.00
37.1565 421.00
37.2217 416.00
37.2869 381.00
37.3521 381.00
37.4173 410.00
37.4825 397.00
37.5477 400.00
37.6129 403.00
37.6781 420.00
37.7433 422.00
37.8085 424.00
37.8736 469.00
37.9388 493.00
38.004 445.00
38.0692 423.00
38.1344 399.00
38.1996 366.00
38.2648 391.00
38.33 394.00
38.3952 369.00
38.4604 391.00
38.5256 400.00
38.5908 385.00
38.656 356.00
38.7212 343.00
38.7864 371.00
38.8516 390.00
38.9168 384.00
38.982 328.00
39.0472 389.00
39.1124 384.00
39.1776 358.00
39.2428 375.00
39.308 348.00
39.3732 349.00
39.4384 385.00
39.5036 391.00
39.5688 372.00
39.634 352.00
39.6992 305.00
39.7644 362.00
39.8296 369.00
39.8948 398.00
39.96 351.00
40.0252 385.00
40.0904 353.00
40.1556 338.00
40.2208 357.00
40.286 353.00
40.3512 370.00
40.4164 359.00
40.4816 342.00
40.5468 353.00
40.612 347.00
40.6772 343.00
40.7424 356.00
40.8076 352.00
40.8728 314.00
40.938 341.00
41.0032 360.00
41.0684 330.00
41.1336 341.00
41.1988 331.00
41.264 365.00
41.3292 355.00
41.3944 368.00
41.4596 337.00
41.5248 344.00
41.59 366.00
41.6552 334.00
41.7204 358.00
41.7856 337.00
41.8508 295.00
41.916 314.00
41.9812 330.00
42.0464 287.00
42.1116 345.00
42.1768 327.00
42.242 320.00
42.3072 337.00
42.3724 359.00
42.4376 298.00
42.5028 334.00
42.568 355.00
42.6332 334.00
42.6983 323.00
42.7635 338.00
42.8287 348.00
42.8939 318.00
42.9591 342.00
43.0243 353.00
43.0895 369.00
43.1547 386.00
43.2199 385.00
43.2851 396.00
43.3503 364.00
43.4155 326.00
43.4807 346.00
43.5459 335.00
43.6111 311.00
43.6763 327.00
43.7415 309.00
43.8067 311.00
43.8719 283.00
43.9371 304.00
44.0023 352.00
44.0675 334.00
44.1327 352.00
44.1979 321.00
44.2631 303.00
44.3283 314.00
44.3935 314.00
44.4587 310.00
44.5239 312.00
44.5891 295.00
44.6543 327.00
44.7195 289.00
44.7847 308.00
44.8499 319.00
44.9151 327.00
44.9803 288.00
45.0455 303.00
45.1107 324.00
45.1759 318.00
45.2411 370.00
45.3063 551.00
45.3715 535.00
45.4367 474.00
45.5019 428.00
45.5671 338.00
45.6323 305.00
45.6975 310.00
45.7627 311.00
45.8279 279.00
45.8931 309.00
45.9583 278.00
46.0235 268.00
46.0887 310.00
46.1539 277.00
46.2191 321.00
46.2843 329.00
46.3495 297.00
46.4147 319.00
46.4799 318.00
46.5451 297.00
46.6103 298.00
46.6755 245.00
46.7407 325.00
46.8059 283.00
46.8711 263.00
46.9363 264.00
47.0015 319.00
47.0667 292.00
47.1319 270.00
47.1971 318.00
47.2623 247.00
47.3275 288.00
47.3927 321.00
47.4579 263.00
47.523 288.00
47.5882 329.00
47.6534 278.00
47.7186 263.00
47.7838 276.00
47.849 285.00
47.9142 275.00
47.9794 306.00
48.0446 264.00
48.1098 290.00
48.175 277.00
48.2402 265.00
48.3054 285.00
48.3706 277.00
48.4358 316.00
48.501 268.00
48.5662 285.00
48.6314 296.00
48.6966 274.00
48.7618 285.00
48.827 248.00
48.8922 249.00
48.9574 249.00
49.0226 288.00
49.0878 277.00
49.153 291.00
49.2182 274.00
49.2834 265.00
49.3486 275.00
49.4138 270.00
49.479 285.00
49.5442 290.00
49.6094 245.00
49.6746 305.00
49.7398 283.00
49.805 258.00
49.8702 238.00
49.9354 257.00
50.0006 249.00
50.0658 270.00
50.131 249.00
50.1962 266.00
50.2614 304.00
50.3266 246.00
50.3918 234.00
50.457 279.00
50.5222 246.00
50.5874 275.00
50.6526 238.00
50.7178 244.00
50.783 264.00
50.8482 276.00
50.9134 288.00
50.9786 265.00
51.0438 247.00
51.109 260.00
51.1742 297.00
51.2394 273.00
51.3046 242.00
51.3698 264.00
51.435 247.00
51.5002 263.00
51.5654 245.00
51.6306 305.00
51.6958 262.00
51.761 280.00
51.8262 274.00
51.8914 269.00
51.9566 279.00
52.0218 280.00
52.087 237.00
52.1522 245.00
52.2174 228.00
52.2826 238.00
52.3477 246.00
52.4129 278.00
52.4781 292.00
52.5433 247.00
52.6085 272.00
52.6737 300.00
52.7389 235.00
52.8041 266.00
52.8693 239.00
52.9345 244.00
52.9997 267.00
53.0649 290.00
53.1301 227.00
53.1953 270.00
53.2605 266.00
53.3257 271.00
53.3909 291.00
53.4561 268.00
53.5213 245.00
53.5865 257.00
53.6517 245.00
53.7169 237.00
53.7821 266.00
53.8473 248.00
53.9125 220.00
53.9777 250.00
54.0429 211.00
54.1081 278.00
54.1733 231.00
54.2385 220.00
54.3037 267.00
54.3689 264.00
54.4341 262.00
54.4993 242.00
54.5645 264.00
54.6297 219.00
54.6949 278.00
54.7601 271.00
54.8253 232.00
54.8905 258.00
54.9557 242.00
55.0209 274.00
55.0861 215.00
55.1513 227.00
55.2165 235.00
55.2817 223.00
55.3469 256.00
55.4121 264.00
55.4773 222.00
55.5425 212.00
55.6077 227.00
55.6729 259.00
55.7381 229.00
55.8033 215.00
55.8685 231.00
55.9337 208.00
55.9989 231.00
56.0641 258.00
56.1293 213.00
56.1945 226.00
56.2597 256.00
56.3249 272.00
56.3901 264.00
56.4553 257.00
56.5205 291.00
56.5857 257.00
56.6509 247.00
56.7161 202.00
56.7813 238.00
56.8465 223.00
56.9117 207.00
56.9769 197.00
57.042 239.00
57.1073 198.00
57.1724 232.00
57.2376 218.00
57.3028 209.00
57.368 197.00
57.4332 203.00
57.4984 224.00
57.5636 231.00
57.6288 232.00
57.694 245.00
57.7592 210.00
57.8244 193.00
57.8896 189.00
57.9548 189.00
58.02 241.00
58.0852 218.00
58.1504 208.00
58.2156 189.00
58.2808 211.00
58.346 219.00
58.4112 208.00
58.4764 219.00
58.5416 218.00
58.6068 218.00
58.672 189.00
58.7372 220.00
58.8024 228.00
58.8676 181.00
58.9328 172.00
58.998 230.00
59.0632 188.00
59.1284 261.00
59.1936 240.00
59.2588 203.00
59.324 214.00
59.3892 229.00
59.4544 195.00
59.5196 204.00
59.5848 203.00
59.65 197.00
59.7152 213.00
59.7804 194.00
59.8456 201.00
59.9108 212.00
59.976 191.00
60.0412 234.00
60.1064 223.00
60.1716 219.00
60.2368 214.00
60.302 203.00
60.3672 210.00
60.4324 180.00
60.4976 235.00
60.5628 212.00
60.628 212.00
60.6932 188.00
60.7584 215.00
60.8236 217.00
60.8888 202.00
60.954 183.00
61.0192 182.00
61.0844 205.00
61.1496 216.00
61.2148 206.00
61.28 201.00
61.3452 216.00
61.4104 226.00
61.4756 196.00
61.5408 220.00
61.606 194.00
61.6712 223.00
61.7364 196.00
61.8016 219.00
61.8667 206.00
61.932 206.00
61.9971 240.00
62.0623 210.00
62.1275 220.00
62.1927 188.00
62.2579 209.00
62.3231 199.00
62.3883 235.00
62.4535 207.00
62.5187 217.00
62.5839 225.00
62.6491 196.00
62.7143 208.00
62.7795 211.00
62.8447 197.00
62.9099 199.00
62.9751 175.00
63.0403 219.00
63.1055 213.00
63.1707 181.00
63.2359 229.00
63.3011 159.00
63.3663 206.00
63.4315 202.00
63.4967 168.00
63.5619 192.00
63.6271 203.00
63.6923 177.00
63.7575 201.00
63.8227 194.00
63.8879 204.00
63.9531 195.00
64.0183 192.00
64.0835 204.00
64.1487 198.00
64.2139 204.00
64.2791 204.00
64.3443 207.00
64.4095 191.00
64.4747 221.00
64.5399 200.00
64.6051 196.00
64.6703 222.00
64.7355 215.00
64.8007 194.00
64.8659 204.00
64.9311 185.00
64.9963 196.00
65.0615 167.00
65.1267 174.00
65.1919 173.00
65.2571 207.00
65.3223 222.00
65.3875 195.00
65.4527 189.00
65.5179 203.00
65.5831 192.00
65.6483 199.00
65.7135 201.00
65.7787 176.00
65.8439 215.00
65.9091 198.00
65.9743 192.00
66.0395 160.00
66.1047 239.00
66.1699 220.00
66.2351 196.00
66.3003 205.00
66.3655 201.00
66.4307 178.00
66.4959 193.00
66.561 175.00
66.6263 214.00
66.6915 207.00
66.7566 196.00
66.8218 184.00
66.887 194.00
66.9522 177.00
67.0174 180.00
67.0826 176.00
67.1478 191.00
67.213 209.00
67.2782 195.00
67.3434 164.00
67.4086 196.00
67.4738 183.00
67.539 191.00
67.6042 209.00
67.6694 187.00
67.7346 224.00
67.7998 214.00
67.865 177.00
67.9302 180.00
67.9954 186.00
68.0606 182.00
68.1258 193.00
68.191 188.00
68.2562 199.00
68.3214 213.00
68.3866 175.00
68.4518 197.00
68.517 192.00
68.5822 180.00
68.6474 173.00
68.7126 195.00
68.7778 189.00
68.843 189.00
68.9082 186.00
68.9734 190.00
69.0386 186.00
69.1038 196.00
69.169 182.00
69.2342 191.00
69.2994 177.00
69.3646 174.00
69.4298 183.00
69.495 190.00
69.5602 178.00
69.6254 203.00
69.6906 173.00
69.7558 184.00
69.821 217.00
69.8862 203.00
69.9514 157.00
70.0166 175.00
70.0818 215.00
70.147 205.00
70.2122 190.00
70.2774 205.00
70.3426 173.00
70.4078 193.00
70.473 186.00
70.5382 187.00
70.6034 211.00
70.6686 190.00
70.7338 185.00
70.799 188.00
70.8642 195.00
70.9294 160.00
70.9946 169.00
71.0598 215.00
71.125 191.00
71.1902 197.00
71.2554 200.00
71.3205 204.00
71.3858 206.00
71.451 177.00
71.5162 220.00
71.5813 176.00
71.6465 195.00
71.7117 183.00
71.7769 185.00
71.8421 196.00
71.9073 169.00
71.9725 209.00
72.0377 187.00
72.1029 205.00
72.1681 203.00
72.2333 206.00
72.2985 188.00
72.3637 198.00
72.4289 204.00
72.4941 195.00
72.5593 200.00
72.6245 195.00
72.6897 181.00
72.7549 197.00
72.8201 201.00
72.8853 207.00
72.9505 204.00
73.0157 208.00
73.0809 197.00
73.1461 176.00
73.2113 195.00
73.2765 186.00
73.3417 221.00
73.4069 193.00
73.4721 196.00
73.5373 198.00
73.6025 202.00
73.6677 187.00
73.7329 217.00
73.7981 210.00
73.8633 184.00
73.9285 217.00
73.9937 209.00
74.0589 176.00
74.1241 221.00
74.1893 226.00
74.2545 184.00
74.3197 183.00
74.3849 213.00
74.4501 180.00
74.5153 199.00
74.5805 177.00
74.6457 185.00
74.7109 208.00
74.7761 200.00
74.8413 192.00
74.9065 217.00
74.9717 209.00
75.0369 190.00
75.1021 230.00
75.1673 249.00
75.2325 257.00
75.2977 218.00
75.3629 230.00
75.4281 205.00
75.4933 212.00
75.5585 204.00
75.6237 203.00
75.6889 190.00
75.7541 205.00
75.8193 205.00
75.8845 200.00
75.9497 199.00
76.0149 219.00
76.0801 181.00
76.1452 216.00
76.2104 186.00
76.2756 196.00
76.3409 233.00
76.406 212.00
76.4712 191.00
76.5364 181.00
76.6016 200.00
76.6668 196.00
76.732 201.00
76.7972 207.00
76.8624 219.00
76.9276 221.00
76.9928 220.00
77.058 224.00
77.1232 258.00
77.1884 215.00
77.2536 218.00
77.3188 182.00
77.384 213.00
77.4492 197.00
77.5144 220.00
77.5796 212.00
77.6448 206.00
77.71 195.00
77.7752 205.00
77.8404 218.00
77.9056 217.00
77.9708 203.00
78.036 180.00
78.1012 197.00
78.1664 218.00
78.2316 200.00
78.2968 211.00
78.362 226.00
78.4272 211.00
78.4924 225.00
78.5576 195.00
78.6228 192.00
78.688 218.00
78.7532 215.00
78.8184 221.00
78.8836 197.00
78.9488 233.00
79.014 205.00
79.0792 245.00
79.1444 219.00
79.2096 213.00
79.2748 220.00
79.34 203.00
79.4052 218.00
79.4704 206.00
79.5356 218.00
79.6008 210.00
79.666 213.00
79.7312 201.00
79.7964 218.00
79.8616 209.00
79.9268 239.00
79.992 200.00
80.0572 234.00
80.1224 205.00
80.1876 213.00
80.2528 184.00
80.318 193.00
80.3832 216.00
80.4484 218.00
80.5136 241.00
80.5788 219.00
80.644 212.00
80.7092 218.00
80.7744 200.00
80.8396 227.00
80.9048 200.00
80.9699 234.00
81.0351 212.00
81.1003 220.00
81.1655 228.00
81.2307 226.00
81.2959 225.00
81.3611 238.00
81.4263 236.00
81.4915 198.00
81.5567 219.00
81.6219 200.00
81.6871 232.00
81.7523 195.00
81.8175 210.00
81.8827 212.00
81.9479 231.00
82.0131 212.00
82.0783 228.00
82.1435 259.00
82.2087 202.00
82.2739 231.00
82.3391 225.00
82.4043 257.00
82.4695 216.00
82.5347 233.00
82.5999 263.00
82.6651 243.00
82.7303 195.00
82.7955 234.00
82.8607 214.00
82.9259 202.00
82.9911 219.00
83.0563 213.00
83.1215 226.00
83.1867 234.00
83.2519 244.00
83.3171 215.00
83.3823 249.00
83.4475 224.00
83.5127 204.00
83.5779 228.00
83.6431 221.00
83.7083 247.00
83.7735 225.00
83.8387 248.00
83.9039 241.00
83.9691 230.00
84.0343 227.00
84.0995 226.00
84.1647 242.00
84.2299 222.00
84.2951 238.00
84.3603 191.00
84.4255 222.00
84.4907 207.00
84.5559 222.00
84.6211 195.00
84.6863 188.00
84.7515 209.00
84.8167 216.00
84.8819 228.00
84.9471 215.00
85.0123 222.00
85.0775 209.00
85.1427 199.00
85.2079 207.00
85.2731 209.00
85.3383 199.00
85.4035 200.00
85.4687 223.00
85.5339 221.00
85.5991 225.00
85.6643 209.00
85.7295 192.00
85.7946 212.00
85.8598 191.00
85.925 186.00
85.9903 195.00
86.0554 224.00
86.1206 197.00
86.1858 222.00
86.251 191.00
86.3162 217.00
86.3814 198.00
86.4466 183.00
86.5118 191.00
86.577 169.00
86.6422 211.00
86.7074 187.00
86.7726 196.00
86.8378 223.00
86.903 210.00
86.9682 208.00
87.0334 216.00
87.0986 177.00
87.1638 221.00
87.229 197.00
87.2942 181.00
87.3594 176.00
87.4246 213.00
87.4898 214.00
87.555 216.00
87.6202 184.00
87.6854 193.00
87.7506 212.00
87.8158 186.00
87.881 197.00
87.9462 199.00
88.0114 173.00
88.0766 194.00
88.1418 182.00
88.207 205.00
88.2722 185.00
88.3374 212.00
88.4026 233.00
88.4678 166.00
88.533 202.00
88.5982 214.00
88.6634 190.00
88.7286 205.00
88.7938 169.00
88.859 218.00
88.9242 202.00
88.9894 193.00
89.0546 227.00
89.1198 200.00
89.185 208.00
89.2502 177.00
89.3154 194.00
89.3806 173.00
89.4458 174.00
89.511 195.00
89.5762 202.00
89.6414 176.00
89.7066 186.00
89.7718 183.00
89.837 208.00
89.9022 217.00
89.9674 178.00
90.0326 177.00
90.0978 213.00
90.163 156.00
90.2282 189.00
90.2934 198.00
90.3586 199.00
90.4238 168.00
90.489 203.00
90.5542 190.00
90.6193 199.00
90.6845 208.00
90.7497 171.00
90.8149 190.00
90.8801 183.00
90.9453 168.00
91.0105 211.00
91.0757 164.00
91.1409 174.00
91.2061 165.00
91.2713 170.00
91.3365 173.00
91.4017 214.00
91.4669 169.00
91.5321 175.00
91.5973 204.00
91.6625 179.00
91.7277 184.00
91.7929 183.00
91.8581 182.00
91.9233 185.00
91.9885 179.00
92.0537 183.00
92.1189 192.00
92.1841 184.00
92.2493 196.00
92.3145 174.00
92.3797 174.00
92.4449 180.00
92.5101 193.00
92.5753 174.00
92.6405 184.00
92.7057 185.00
92.7709 187.00
92.8361 161.00
92.9013 175.00
92.9665 198.00
93.0317 184.00
93.0969 177.00
93.1621 178.00
93.2273 181.00
93.2925 156.00
93.3577 184.00
93.4229 219.00
93.4881 186.00
93.5533 218.00
93.6185 173.00
93.6837 188.00
93.7489 176.00
93.8141 166.00
93.8793 211.00
93.9445 188.00
94.0097 174.00
94.0749 180.00
94.1401 165.00
94.2053 177.00
94.2705 177.00
94.3357 163.00
94.4009 163.00
94.4661 171.00
94.5313 180.00
94.5965 189.00
94.6617 161.00
94.7269 198.00
94.7921 194.00
94.8573 178.00
94.9225 141.00
94.9877 184.00
95.0529 175.00
95.1181 189.00
95.1833 188.00
95.2485 176.00
95.3137 190.00
95.3789 181.00
95.444 198.00
95.5092 178.00
95.5744 177.00
95.6396 190.00
95.7048 175.00
95.77 184.00
95.8352 179.00
95.9004 180.00
95.9656 199.00
96.0308 187.00
96.096 188.00
96.1612 165.00
96.2264 191.00
96.2916 193.00
96.3568 190.00
96.422 204.00
96.4872 174.00
96.5524 182.00
96.6176 200.00
96.6828 182.00
96.748 181.00
96.8132 183.00
96.8784 170.00
96.9436 178.00
97.0088 199.00
97.074 199.00
97.1392 190.00
97.2044 149.00
97.2696 179.00
97.3348 184.00
97.4 170.00
97.4652 190.00
97.5304 170.00
97.5956 189.00
97.6608 164.00
97.726 166.00
97.7912 189.00
97.8564 171.00
97.9216 178.00
97.9868 173.00
98.052 170.00
98.1172 171.00
98.1824 199.00
98.2476 174.00
98.3128 196.00
98.378 195.00
98.4432 165.00
98.5084 215.00
98.5736 192.00
98.6388 187.00
98.704 183.00
98.7692 175.00
98.8344 140.00
98.8996 170.00
98.9648 169.00
99.03 176.00
99.0952 159.00
99.1604 212.00
99.2256 195.00
99.2908 190.00
99.356 191.00
99.4212 158.00
99.4864 207.00
99.5516 163.00
99.6168 176.00
99.682 171.00
99.7472 173.00
99.8124 201.00
99.8776 161.00
99.9428 190.00
100.008 164.00
100.073 172.00
100.095 184.00