File: data/xrd_creation/results/Na_119.xy
9.903433 2715.00
9.968632 2705.00
10.0338 2726.00
10.099 2700.00
10.1642 2627.00
10.2294 2586.00
10.2946 2651.00
10.3598 2558.00
10.425 2511.00
10.4902 2557.00
10.5554 2509.00
10.6206 2505.00
10.6858 2565.00
10.751 2480.00
10.8162 2475.00
10.8814 2418.00
10.9466 2424.00
11.0118 2509.00
11.077 2400.00
11.1422 2445.00
11.2074 2274.00
11.2726 2444.00
11.3378 2374.00
11.403 2295.00
11.4682 2372.00
11.5334 2304.00
11.5986 2251.00
11.6638 2318.00
11.729 2255.00
11.7942 2180.00
11.8594 2186.00
11.9246 2201.00
11.9898 2110.00
12.055 2239.00
12.1202 2138.00
12.1854 2174.00
12.2506 2119.00
12.3158 2127.00
12.381 2161.00
12.4462 2041.00
12.5114 2156.00
12.5766 2069.00
12.6418 2037.00
12.707 2006.00
12.7722 2016.00
12.8374 2086.00
12.9026 1919.00
12.9678 2007.00
13.033 2042.00
13.0982 2041.00
13.1634 1999.00
13.2286 1998.00
13.2938 1952.00
13.359 2045.00
13.4242 1919.00
13.4894 1817.00
13.5546 1854.00
13.6198 1819.00
13.685 1879.00
13.7502 1891.00
13.8154 1825.00
13.8805 1913.00
13.9457 1818.00
14.0109 1818.00
14.0761 1842.00
14.1413 1906.00
14.2065 1768.00
14.2717 1807.00
14.3369 1823.00
14.4021 1795.00
14.4673 1797.00
14.5325 1855.00
14.5977 1739.00
14.6629 1838.00
14.7281 1790.00
14.7933 1798.00
14.8585 1778.00
14.9237 1888.00
14.9889 1675.00
15.0541 1756.00
15.1193 1773.00
15.1845 1895.00
15.2497 1834.00
15.3149 1747.00
15.3801 1775.00
15.4453 1745.00
15.5105 1822.00
15.5757 1751.00
15.6409 1838.00
15.7061 1820.00
15.7713 1924.00
15.8365 1836.00
15.9017 1980.00
15.9669 2068.00
16.0321 2304.00
16.0973 2542.00
16.1625 3020.00
16.2277 3697.00
16.2929 4860.00
16.3581 6657.00
16.4233 8728.00
16.4885 10836.00
16.5537 10239.00
16.6189 6989.00
16.6841 4390.00
16.7493 3259.00
16.8145 2521.00
16.8797 2171.00
16.9449 2091.00
17.0101 1995.00
17.0753 1954.00
17.1405 1886.00
17.2057 1841.00
17.2709 1787.00
17.3361 1724.00
17.4013 1838.00
17.4665 1713.00
17.5317 1723.00
17.5969 1705.00
17.6621 1726.00
17.7273 1716.00
17.7925 1648.00
17.8577 1639.00
17.9229 1663.00
17.9881 1626.00
18.0533 1713.00
18.1185 1664.00
18.1837 1655.00
18.2489 1664.00
18.3141 1692.00
18.3793 1753.00
18.4445 1749.00
18.5097 1886.00
18.5749 1934.00
18.6401 2168.00
18.7052 2451.00
18.7704 2811.00
18.8356 3145.00
18.9008 3149.00
18.966 2974.00
19.0312 2936.00
19.0964 2643.00
19.1616 2698.00
19.2268 2623.00
19.292 2531.00
19.3572 2431.00
19.4224 2387.00
19.4876 2393.00
19.5528 2305.00
19.618 2318.00
19.6832 2275.00
19.7484 2177.00
19.8136 2185.00
19.8788 2175.00
19.944 1987.00
20.0092 2047.00
20.0744 1945.00
20.1396 2048.00
20.2048 2078.00
20.27 2024.00
20.3352 1898.00
20.4004 1920.00
20.4656 1840.00
20.5308 1960.00
20.596 1904.00
20.6612 1753.00
20.7264 1865.00
20.7916 1854.00
20.8568 1849.00
20.922 1852.00
20.9872 1786.00
21.0524 1816.00
21.1176 1790.00
21.1828 1757.00
21.248 1769.00
21.3132 1775.00
21.3784 1671.00
21.4436 1736.00
21.5088 1756.00
21.574 1670.00
21.6392 1674.00
21.7044 1676.00
21.7696 1666.00
21.8348 1693.00
21.9 1685.00
21.9652 1607.00
22.0304 1576.00
22.0956 1615.00
22.1608 1583.00
22.226 1526.00
22.2912 1558.00
22.3564 1626.00
22.4216 1588.00
22.4868 1566.00
22.552 1516.00
22.6172 1486.00
22.6824 1530.00
22.7476 1485.00
22.8128 1480.00
22.878 1492.00
22.9432 1469.00
23.0084 1506.00
23.0736 1508.00
23.1388 1501.00
23.204 1358.00
23.2692 1377.00
23.3344 1445.00
23.3996 1433.00
23.4647 1384.00
23.5299 1408.00
23.5951 1401.00
23.6603 1339.00
23.7255 1416.00
23.7907 1357.00
23.8559 1399.00
23.9211 1309.00
23.9863 1374.00
24.0515 1456.00
24.1167 1328.00
24.1819 1365.00
24.2471 1319.00
24.3123 1315.00
24.3775 1281.00
24.4427 1372.00
24.5079 1309.00
24.5731 1336.00
24.6383 1310.00
24.7035 1266.00
24.7687 1270.00
24.8339 1296.00
24.8991 1231.00
24.9643 1290.00
25.0295 1267.00
25.0947 1248.00
25.1599 1283.00
25.2251 1240.00
25.2903 1159.00
25.3555 1196.00
25.4207 1170.00
25.4859 1219.00
25.5511 1141.00
25.6163 1147.00
25.6815 1268.00
25.7467 1196.00
25.8119 1172.00
25.8771 1197.00
25.9423 1190.00
26.0075 1195.00
26.0727 1189.00
26.1379 1259.00
26.2031 1318.00
26.2683 1260.00
26.3335 1263.00
26.3987 1251.00
26.4639 1193.00
26.5291 1231.00
26.5943 1266.00
26.6595 1234.00
26.7247 1387.00
26.7899 1545.00
26.8551 1836.00
26.9203 2004.00
26.9855 1698.00
27.0507 1507.00
27.1159 1266.00
27.1811 1247.00
27.2463 1237.00
27.3115 1207.00
27.3767 1152.00
27.4419 1102.00
27.5071 1122.00
27.5723 1079.00
27.6375 1109.00
27.7027 1056.00
27.7679 1100.00
27.8331 1169.00
27.8983 1119.00
27.9635 1172.00
28.0287 1126.00
28.0939 1066.00
28.1591 1049.00
28.2243 1014.00
28.2894 997.00
28.3546 1050.00
28.4198 972.00
28.485 987.00
28.5502 963.00
28.6154 1006.00
28.6806 1009.00
28.7458 917.00
28.811 925.00
28.8762 1048.00
28.9414 983.00
29.0066 948.00
29.0718 975.00
29.137 999.00
29.2022 940.00
29.2674 1003.00
29.3326 960.00
29.3978 946.00
29.463 985.00
29.5282 954.00
29.5934 877.00
29.6586 957.00
29.7238 987.00
29.789 969.00
29.8542 985.00
29.9194 1030.00
29.9846 943.00
30.0498 987.00
30.115 1014.00
30.1802 1018.00
30.2454 1048.00
30.3106 1281.00
30.3758 1552.00
30.441 1951.00
30.5062 1602.00
30.5714 1183.00
30.6366 1056.00
30.7018 1014.00
30.767 915.00
30.8322 933.00
30.8974 882.00
30.9626 862.00
31.0278 909.00
31.093 996.00
31.1582 953.00
31.2234 905.00
31.2886 879.00
31.3538 885.00
31.419 892.00
31.4842 858.00
31.5494 844.00
31.6146 898.00
31.6798 862.00
31.745 923.00
31.8102 897.00
31.8754 910.00
31.9406 975.00
32.0058 901.00
32.071 902.00
32.1362 954.00
32.2014 984.00
32.2666 1019.00
32.3318 1013.00
32.397 1070.00
32.4622 1094.00
32.5274 1091.00
32.5926 1157.00
32.6578 1316.00
32.723 1559.00
32.7882 1932.00
32.8534 2442.00
32.9186 3592.00
32.9838 5129.00
33.0489 6932.00
33.1141 7737.00
33.1793 6652.00
33.2445 4706.00
33.3097 3261.00
33.3749 2444.00
33.4401 1819.00
33.5053 1552.00
33.5705 1369.00
33.6357 1230.00
33.7009 1239.00
33.7661 1197.00
33.8313 1206.00
33.8965 1219.00
33.9617 1370.00
34.0269 1499.00
34.0921 1887.00
34.1573 2393.00
34.2225 2693.00
34.2877 3419.00
34.3529 4495.00
34.4181 6242.00
34.4833 7841.00
34.5485 7266.00
34.6137 5393.00
34.6789 3698.00
34.7441 2574.00
34.8093 2202.00
34.8745 1806.00
34.9397 1464.00
35.0049 1229.00
35.0701 1117.00
35.1353 1048.00
35.2005 1090.00
35.2657 1091.00
35.3309 1071.00
35.3961 1151.00
35.4613 1384.00
35.5265 1530.00
35.5917 1445.00
35.6569 1174.00
35.7221 1005.00
35.7873 887.00
35.8525 868.00
35.9177 864.00
35.9829 827.00
36.0481 878.00
36.1133 832.00
36.1785 832.00
36.2437 816.00
36.3089 771.00
36.3741 800.00
36.4393 792.00
36.5045 721.00
36.5697 834.00
36.6349 710.00
36.7001 743.00
36.7653 800.00
36.8305 777.00
36.8957 809.00
36.9609 754.00
37.0261 807.00
37.0913 763.00
37.1565 768.00
37.2217 792.00
37.2869 823.00
37.3521 783.00
37.4173 782.00
37.4825 804.00
37.5477 843.00
37.6129 797.00
37.6781 873.00
37.7433 943.00
37.8085 1008.00
37.8736 1080.00
37.9388 1066.00
38.004 1125.00
38.0692 1201.00
38.1344 1442.00
38.1996 1653.00
38.2648 1913.00
38.33 1978.00
38.3952 1726.00
38.4604 1466.00
38.5256 1244.00
38.5908 1205.00
38.656 1170.00
38.7212 1136.00
38.7864 1189.00
38.8516 1201.00
38.9168 1259.00
38.982 1336.00
39.0472 1631.00
39.1124 1811.00
39.1776 2238.00
39.2428 2880.00
39.308 3884.00
39.3732 5445.00
39.4384 7752.00
39.5036 10585.00
39.5688 12402.00
39.634 11661.00
39.6992 9185.00
39.7644 6568.00
39.8296 4455.00
39.8948 3119.00
39.96 2411.00
40.0252 1847.00
40.0904 1646.00
40.1556 1675.00
40.2208 1563.00
40.286 1430.00
40.3512 1296.00
40.4164 1157.00
40.4816 941.00
40.5468 905.00
40.612 904.00
40.6772 863.00
40.7424 867.00
40.8076 805.00
40.8728 791.00
40.938 834.00
41.0032 812.00
41.0684 835.00
41.1336 835.00
41.1988 784.00
41.264 941.00
41.3292 954.00
41.3944 1044.00
41.4596 1056.00
41.5248 1021.00
41.59 941.00
41.6552 999.00
41.7204 1123.00
41.7856 1181.00
41.8508 1019.00
41.916 930.00
41.9812 826.00
42.0464 733.00
42.1116 783.00
42.1768 804.00
42.242 709.00
42.3072 752.00
42.3724 750.00
42.4376 751.00
42.5028 783.00
42.568 876.00
42.6332 874.00
42.6983 914.00
42.7635 1023.00
42.8287 1162.00
42.8939 1390.00
42.9591 1658.00
43.0243 1877.00
43.0895 1883.00
43.1547 1754.00
43.2199 1434.00
43.2851 1185.00
43.3503 932.00
43.4155 836.00
43.4807 812.00
43.5459 734.00
43.6111 695.00
43.6763 685.00
43.7415 647.00
43.8067 645.00
43.8719 614.00
43.9371 634.00
44.0023 642.00
44.0675 697.00
44.1327 623.00
44.1979 612.00
44.2631 675.00
44.3283 628.00
44.3935 613.00
44.4587 623.00
44.5239 611.00
44.5891 587.00
44.6543 660.00
44.7195 647.00
44.7847 731.00
44.8499 671.00
44.9151 673.00
44.9803 687.00
45.0455 611.00
45.1107 633.00
45.1759 602.00
45.2411 631.00
45.3063 630.00
45.3715 611.00
45.4367 582.00
45.5019 592.00
45.5671 579.00
45.6323 605.00
45.6975 594.00
45.7627 624.00
45.8279 588.00
45.8931 568.00
45.9583 579.00
46.0235 595.00
46.0887 605.00
46.1539 619.00
46.2191 584.00
46.2843 543.00
46.3495 586.00
46.4147 565.00
46.4799 582.00
46.5451 613.00
46.6103 671.00
46.6755 805.00
46.7407 836.00
46.8059 947.00
46.8711 831.00
46.9363 784.00
47.0015 693.00
47.0667 616.00
47.1319 574.00
47.1971 595.00
47.2623 625.00
47.3275 632.00
47.3927 595.00
47.4579 629.00
47.523 576.00
47.5882 527.00
47.6534 521.00
47.7186 538.00
47.7838 595.00
47.849 578.00
47.9142 544.00
47.9794 572.00
48.0446 584.00
48.1098 571.00
48.175 591.00
48.2402 600.00
48.3054 577.00
48.3706 642.00
48.4358 731.00
48.501 817.00
48.5662 839.00
48.6314 750.00
48.6966 706.00
48.7618 667.00
48.827 596.00
48.8922 618.00
48.9574 538.00
49.0226 579.00
49.0878 569.00
49.153 565.00
49.2182 510.00
49.2834 525.00
49.3486 529.00
49.4138 526.00
49.479 591.00
49.5442 559.00
49.6094 559.00
49.6746 580.00
49.7398 585.00
49.805 561.00
49.8702 578.00
49.9354 593.00
50.0006 593.00
50.0658 659.00
50.131 642.00
50.1962 688.00
50.2614 788.00
50.3266 812.00
50.3918 816.00
50.457 867.00
50.5222 865.00
50.5874 866.00
50.6526 944.00
50.7178 1003.00
50.783 1086.00
50.8482 1025.00
50.9134 1061.00
50.9786 1065.00
51.0438 1215.00
51.109 1350.00
51.1742 1494.00
51.2394 1805.00
51.3046 2020.00
51.3698 2124.00
51.435 2047.00
51.5002 1944.00
51.5654 1597.00
51.6306 1406.00
51.6958 1166.00
51.761 988.00
51.8262 1001.00
51.8914 1037.00
51.9566 1034.00
52.0218 1160.00
52.087 1258.00
52.1522 1139.00
52.2174 1008.00
52.2826 915.00
52.3477 887.00
52.4129 778.00
52.4781 792.00
52.5433 782.00
52.6085 697.00
52.6737 708.00
52.7389 672.00
52.8041 693.00
52.8693 658.00
52.9345 697.00
52.9997 668.00
53.0649 634.00
53.1301 654.00
53.1953 654.00
53.2605 630.00
53.3257 648.00
53.3909 634.00
53.4561 638.00
53.5213 646.00
53.5865 601.00
53.6517 651.00
53.7169 700.00
53.7821 716.00
53.8473 680.00
53.9125 760.00
53.9777 700.00
54.0429 671.00
54.1081 638.00
54.1733 624.00
54.2385 626.00
54.3037 593.00
54.3689 640.00
54.4341 632.00
54.4993 659.00
54.5645 676.00
54.6297 637.00
54.6949 651.00
54.7601 758.00
54.8253 672.00
54.8905 748.00
54.9557 751.00
55.0209 887.00
55.0861 810.00
55.1513 779.00
55.2165 654.00
55.2817 687.00
55.3469 691.00
55.4121 752.00
55.4773 813.00
55.5425 825.00
55.6077 961.00
55.6729 1094.00
55.7381 1249.00
55.8033 1417.00
55.8685 1763.00
55.9337 2226.00
55.9989 2721.00
56.0641 3282.00
56.1293 3265.00
56.1945 2915.00
56.2597 2437.00
56.3249 1949.00
56.3901 1604.00
56.4553 1375.00
56.5205 1157.00
56.5857 1062.00
56.6509 957.00
56.7161 831.00
56.7813 787.00
56.8465 737.00
56.9117 697.00
56.9769 683.00
57.042 683.00
57.1073 700.00
57.1724 726.00
57.2376 674.00
57.3028 723.00
57.368 694.00
57.4332 872.00
57.4984 873.00
57.5636 942.00
57.6288 1115.00
57.694 1272.00
57.7592 1649.00
57.8244 2090.00
57.8896 2892.00
57.9548 3363.00
58.02 3458.00
58.0852 3162.00
58.1504 2751.00
58.2156 2050.00
58.2808 1567.00
58.346 1252.00
58.4112 1053.00
58.4764 803.00
58.5416 777.00
58.6068 787.00
58.672 692.00
58.7372 734.00
58.8024 691.00
58.8676 668.00
58.9328 583.00
58.998 670.00
59.0632 623.00
59.1284 614.00
59.1936 625.00
59.2588 625.00
59.324 596.00
59.3892 600.00
59.4544 562.00
59.5196 557.00
59.5848 548.00
59.65 573.00
59.7152 551.00
59.7804 514.00
59.8456 569.00
59.9108 580.00
59.976 582.00
60.0412 583.00
60.1064 653.00
60.1716 710.00
60.2368 684.00
60.302 828.00
60.3672 946.00
60.4324 1143.00
60.4976 1351.00
60.5628 1642.00
60.628 1822.00
60.6932 1846.00
60.7584 1587.00
60.8236 1392.00
60.8888 1271.00
60.954 1006.00
61.0192 841.00
61.0844 734.00
61.1496 671.00
61.2148 628.00
61.28 599.00
61.3452 588.00
61.4104 485.00
61.4756 527.00
61.5408 503.00
61.606 528.00
61.6712 483.00
61.7364 482.00
61.8016 505.00
61.8667 469.00
61.932 508.00
61.9971 495.00
62.0623 531.00
62.1275 668.00
62.1927 630.00
62.2579 568.00
62.3231 582.00
62.3883 537.00
62.4535 500.00
62.5187 463.00
62.5839 506.00
62.6491 518.00
62.7143 518.00
62.7795 560.00
62.8447 546.00
62.9099 584.00
62.9751 550.00
63.0403 485.00
63.1055 507.00
63.1707 473.00
63.2359 432.00
63.3011 475.00
63.3663 458.00
63.4315 467.00
63.4967 407.00
63.5619 450.00
63.6271 441.00
63.6923 446.00
63.7575 457.00
63.8227 459.00
63.8879 443.00
63.9531 450.00
64.0183 474.00
64.0835 465.00
64.1487 454.00
64.2139 498.00
64.2791 443.00
64.3443 435.00
64.4095 446.00
64.4747 396.00
64.5399 488.00
64.6051 434.00
64.6703 456.00
64.7355 428.00
64.8007 431.00
64.8659 490.00
64.9311 528.00
64.9963 556.00
65.0615 548.00
65.1267 510.00
65.1919 506.00
65.2571 469.00
65.3223 483.00
65.3875 439.00
65.4527 453.00
65.5179 494.00
65.5831 470.00
65.6483 497.00
65.7135 442.00
65.7787 508.00
65.8439 481.00
65.9091 496.00
65.9743 546.00
66.0395 597.00
66.1047 626.00
66.1699 715.00
66.2351 761.00
66.3003 863.00
66.3655 994.00
66.4307 1108.00
66.4959 1177.00
66.561 1147.00
66.6263 1021.00
66.6915 980.00
66.7566 872.00
66.8218 790.00
66.887 671.00
66.9522 613.00
67.0174 616.00
67.0826 547.00
67.1478 526.00
67.213 557.00
67.2782 580.00
67.3434 583.00
67.4086 544.00
67.4738 544.00
67.539 575.00
67.6042 673.00
67.6694 676.00
67.7346 717.00
67.7998 774.00
67.865 810.00
67.9302 998.00
67.9954 1085.00
68.0606 1402.00
68.1258 1676.00
68.191 1923.00
68.2562 1965.00
68.3214 1960.00
68.3866 1707.00
68.4518 1547.00
68.517 1365.00
68.5822 1208.00
68.6474 1081.00
68.7126 1014.00
68.7778 1081.00
68.843 1222.00
68.9082 1281.00
68.9734 1327.00
69.0386 1444.00
69.1038 1337.00
69.169 1260.00
69.2342 1089.00
69.2994 978.00
69.3646 895.00
69.4298 752.00
69.495 665.00
69.5602 566.00
69.6254 559.00
69.6906 542.00
69.7558 524.00
69.821 498.00
69.8862 484.00
69.9514 459.00
70.0166 458.00
70.0818 449.00
70.147 451.00
70.2122 463.00
70.2774 411.00
70.3426 455.00
70.4078 446.00
70.473 420.00
70.5382 451.00
70.6034 464.00
70.6686 426.00
70.7338 436.00
70.799 447.00
70.8642 491.00
70.9294 473.00
70.9946 510.00
71.0598 537.00
71.125 525.00
71.1902 529.00
71.2554 575.00
71.3205 628.00
71.3858 583.00
71.451 644.00
71.5162 691.00
71.5813 712.00
71.6465 674.00
71.7117 777.00
71.7769 759.00
71.8421 835.00
71.9073 903.00
71.9725 1081.00
72.0377 1133.00
72.1029 1338.00
72.1681 1619.00
72.2333 1890.00
72.2985 1939.00
72.3637 1774.00
72.4289 1687.00
72.4941 1492.00
72.5593 1230.00
72.6245 1074.00
72.6897 829.00
72.7549 772.00
72.8201 660.00
72.8853 634.00
72.9505 630.00
73.0157 556.00
73.0809 501.00
73.1461 493.00
73.2113 511.00
73.2765 468.00
73.3417 450.00
73.4069 493.00
73.4721 438.00
73.5373 455.00
73.6025 434.00
73.6677 432.00
73.7329 470.00
73.7981 436.00
73.8633 419.00
73.9285 414.00
73.9937 437.00
74.0589 428.00
74.1241 422.00
74.1893 422.00
74.2545 435.00
74.3197 466.00
74.3849 480.00
74.4501 495.00
74.5153 483.00
74.5805 535.00
74.6457 596.00
74.7109 604.00
74.7761 594.00
74.8413 580.00
74.9065 543.00
74.9717 569.00
75.0369 488.00
75.1021 472.00
75.1673 446.00
75.2325 378.00
75.2977 425.00
75.3629 399.00
75.4281 406.00
75.4933 395.00
75.5585 386.00
75.6237 395.00
75.6889 351.00
75.7541 415.00
75.8193 381.00
75.8845 436.00
75.9497 406.00
76.0149 352.00
76.0801 336.00
76.1452 370.00
76.2104 396.00
76.2756 378.00
76.3409 328.00
76.406 372.00
76.4712 384.00
76.5364 352.00
76.6016 364.00
76.6668 350.00
76.732 357.00
76.7972 385.00
76.8624 356.00
76.9276 367.00
76.9928 347.00
77.058 378.00
77.1232 402.00
77.1884 395.00
77.2536 353.00
77.3188 324.00
77.384 377.00
77.4492 328.00
77.5144 351.00
77.5796 356.00
77.6448 343.00
77.71 358.00
77.7752 340.00
77.8404 356.00
77.9056 364.00
77.9708 349.00
78.036 345.00
78.1012 393.00
78.1664 356.00
78.2316 313.00
78.2968 348.00
78.362 353.00
78.4272 367.00
78.4924 325.00
78.5576 343.00
78.6228 354.00
78.688 360.00
78.7532 391.00
78.8184 355.00
78.8836 383.00
78.9488 453.00
79.014 432.00
79.0792 410.00
79.1444 439.00
79.2096 427.00
79.2748 412.00
79.34 415.00
79.4052 400.00
79.4704 447.00
79.5356 390.00
79.6008 441.00
79.666 463.00
79.7312 420.00
79.7964 458.00
79.8616 477.00
79.9268 570.00
79.992 610.00
80.0572 596.00
80.1224 598.00
80.1876 618.00
80.2528 640.00
80.318 633.00
80.3832 607.00
80.4484 561.00
80.5136 579.00
80.5788 553.00
80.644 626.00
80.7092 629.00
80.7744 666.00
80.8396 646.00
80.9048 657.00
80.9699 579.00
81.0351 614.00
81.1003 565.00
81.1655 559.00
81.2307 509.00
81.2959 482.00
81.3611 484.00
81.4263 456.00
81.4915 438.00
81.5567 423.00
81.6219 409.00
81.6871 406.00
81.7523 394.00
81.8175 374.00
81.8827 408.00
81.9479 376.00
82.0131 376.00
82.0783 369.00
82.1435 357.00
82.2087 406.00
82.2739 366.00
82.3391 351.00
82.4043 328.00
82.4695 354.00
82.5347 378.00
82.5999 384.00
82.6651 396.00
82.7303 365.00
82.7955 349.00
82.8607 349.00
82.9259 322.00
82.9911 357.00
83.0563 355.00
83.1215 371.00
83.1867 333.00
83.2519 353.00
83.3171 356.00
83.3823 372.00
83.4475 378.00
83.5127 387.00
83.5779 373.00
83.6431 395.00
83.7083 369.00
83.7735 386.00
83.8387 426.00
83.9039 458.00
83.9691 441.00
84.0343 375.00
84.0995 477.00
84.1647 490.00
84.2299 518.00
84.2951 539.00
84.3603 573.00
84.4255 684.00
84.4907 637.00
84.5559 760.00
84.6211 822.00
84.6863 832.00
84.7515 787.00
84.8167 777.00
84.8819 750.00
84.9471 698.00
85.0123 664.00
85.0775 643.00
85.1427 538.00
85.2079 536.00
85.2731 491.00
85.3383 459.00
85.4035 421.00
85.4687 411.00
85.5339 395.00
85.5991 375.00
85.6643 366.00
85.7295 344.00
85.7946 340.00
85.8598 367.00
85.925 354.00
85.9903 364.00
86.0554 333.00
86.1206 338.00
86.1858 334.00
86.251 335.00
86.3162 364.00
86.3814 318.00
86.4466 339.00
86.5118 357.00
86.577 331.00
86.6422 331.00
86.7074 324.00
86.7726 335.00
86.8378 365.00
86.903 318.00
86.9682 329.00
87.0334 346.00
87.0986 283.00
87.1638 346.00
87.229 327.00
87.2942 310.00
87.3594 347.00
87.4246 299.00
87.4898 340.00
87.555 331.00
87.6202 331.00
87.6854 309.00
87.7506 337.00
87.8158 307.00
87.881 330.00
87.9462 332.00
88.0114 338.00
88.0766 321.00
88.1418 319.00
88.207 350.00
88.2722 349.00
88.3374 359.00
88.4026 331.00
88.4678 314.00
88.533 319.00
88.5982 290.00
88.6634 356.00
88.7286 295.00
88.7938 311.00
88.859 315.00
88.9242 330.00
88.9894 331.00
89.0546 363.00
89.1198 314.00
89.185 366.00
89.2502 333.00
89.3154 341.00
89.3806 407.00
89.4458 355.00
89.511 392.00
89.5762 389.00
89.6414 382.00
89.7066 423.00
89.7718 442.00
89.837 447.00
89.9022 448.00
89.9674 469.00
90.0326 458.00
90.0978 492.00
90.163 443.00
90.2282 406.00
90.2934 379.00
90.3586 397.00
90.4238 424.00
90.489 403.00
90.5542 387.00
90.6193 395.00
90.6845 389.00
90.7497 416.00
90.8149 381.00
90.8801 389.00
90.9453 386.00
91.0105 442.00
91.0757 488.00
91.1409 506.00
91.2061 493.00
91.2713 582.00
91.3365 571.00
91.4017 579.00
91.4669 602.00
91.5321 562.00
91.5973 509.00
91.6625 573.00
91.7277 533.00
91.7929 517.00
91.8581 491.00
91.9233 472.00
91.9885 457.00
92.0537 408.00
92.1189 406.00
92.1841 384.00
92.2493 379.00
92.3145 394.00
92.3797 364.00
92.4449 346.00
92.5101 346.00
92.5753 375.00
92.6405 314.00
92.7057 371.00
92.7709 380.00
92.8361 350.00
92.9013 439.00
92.9665 378.00
93.0317 387.00
93.0969 386.00
93.1621 338.00
93.2273 425.00
93.2925 423.00
93.3577 444.00
93.4229 427.00
93.4881 487.00
93.5533 498.00
93.6185 537.00
93.6837 534.00
93.7489 560.00
93.8141 597.00
93.8793 534.00
93.9445 542.00
94.0097 539.00
94.0749 534.00
94.1401 538.00
94.2053 456.00
94.2705 461.00
94.3357 432.00
94.4009 470.00
94.4661 460.00
94.5313 416.00
94.5965 450.00
94.6617 444.00
94.7269 420.00
94.7921 435.00
94.8573 423.00
94.9225 458.00
94.9877 473.00
95.0529 509.00
95.1181 568.00
95.1833 532.00
95.2485 578.00
95.3137 647.00
95.3789 755.00
95.444 771.00
95.5092 727.00
95.5744 780.00
95.6396 798.00
95.7048 852.00
95.77 833.00
95.8352 934.00
95.9004 993.00
95.9656 1094.00
96.0308 1134.00
96.096 1181.00
96.1612 1269.00
96.2264 1232.00
96.2916 1199.00
96.3568 1098.00
96.422 1080.00
96.4872 981.00
96.5524 882.00
96.6176 805.00
96.6828 725.00
96.748 655.00
96.8132 592.00
96.8784 568.00
96.9436 514.00
97.0088 497.00
97.074 458.00
97.1392 444.00
97.2044 485.00
97.2696 446.00
97.3348 424.00
97.4 401.00
97.4652 381.00
97.5304 410.00
97.5956 409.00
97.6608 379.00
97.726 392.00
97.7912 392.00
97.8564 413.00
97.9216 417.00
97.9868 396.00
98.052 420.00
98.1172 408.00
98.1824 334.00
98.2476 412.00
98.3128 438.00
98.378 434.00
98.4432 450.00
98.5084 491.00
98.5736 480.00
98.6388 496.00
98.704 566.00
98.7692 527.00
98.8344 573.00
98.8996 668.00
98.9648 695.00
99.03 737.00
99.0952 857.00
99.1604 902.00
99.2256 972.00
99.2908 969.00
99.356 978.00
99.4212 928.00
99.4864 858.00
99.5516 888.00
99.6168 818.00
99.682 757.00
99.7472 746.00
99.8124 615.00
99.8776 591.00
99.9428 498.00
100.008 559.00
100.073 490.00
100.095 465.00