File: data/xrd_creation/results/Na_116.xy
9.903433 2773.00
9.968632 2675.00
10.0338 2717.00
10.099 2781.00
10.1642 2541.00
10.2294 2567.00
10.2946 2568.00
10.3598 2600.00
10.425 2549.00
10.4902 2602.00
10.5554 2463.00
10.6206 2512.00
10.6858 2513.00
10.751 2503.00
10.8162 2476.00
10.8814 2428.00
10.9466 2414.00
11.0118 2431.00
11.077 2580.00
11.1422 2677.00
11.2074 2794.00
11.2726 2886.00
11.3378 3297.00
11.403 3814.00
11.4682 4402.00
11.5334 5150.00
11.5986 6445.00
11.6638 7512.00
11.729 7395.00
11.7942 6077.00
11.8594 4464.00
11.9246 3154.00
11.9898 2524.00
12.055 2248.00
12.1202 2276.00
12.1854 2283.00
12.2506 2228.00
12.3158 2284.00
12.381 2098.00
12.4462 2164.00
12.5114 2154.00
12.5766 1996.00
12.6418 2086.00
12.707 2115.00
12.7722 1936.00
12.8374 2073.00
12.9026 1994.00
12.9678 2048.00
13.033 2029.00
13.0982 1960.00
13.1634 1923.00
13.2286 1898.00
13.2938 1934.00
13.359 1995.00
13.4242 1961.00
13.4894 1919.00
13.5546 1922.00
13.6198 1782.00
13.685 1891.00
13.7502 1975.00
13.8154 1922.00
13.8805 1917.00
13.9457 1843.00
14.0109 1838.00
14.0761 1936.00
14.1413 1879.00
14.2065 1798.00
14.2717 1770.00
14.3369 1801.00
14.4021 1744.00
14.4673 1860.00
14.5325 1851.00
14.5977 1762.00
14.6629 1890.00
14.7281 1918.00
14.7933 1873.00
14.8585 1845.00
14.9237 1969.00
14.9889 2000.00
15.0541 1907.00
15.1193 1714.00
15.1845 1774.00
15.2497 1716.00
15.3149 1763.00
15.3801 1738.00
15.4453 1723.00
15.5105 1712.00
15.5757 1816.00
15.6409 1704.00
15.7061 1840.00
15.7713 1759.00
15.8365 1825.00
15.9017 1727.00
15.9669 1833.00
16.0321 1878.00
16.0973 1981.00
16.1625 2161.00
16.2277 2491.00
16.2929 2857.00
16.3581 3327.00
16.4233 3908.00
16.4885 4401.00
16.5537 4140.00
16.6189 2861.00
16.6841 2167.00
16.7493 1883.00
16.8145 1816.00
16.8797 1645.00
16.9449 1671.00
17.0101 1615.00
17.0753 1586.00
17.1405 1644.00
17.2057 1658.00
17.2709 1638.00
17.3361 1613.00
17.4013 1547.00
17.4665 1610.00
17.5317 1582.00
17.5969 1562.00
17.6621 1574.00
17.7273 1707.00
17.7925 1581.00
17.8577 1832.00
17.9229 1801.00
17.9881 1915.00
18.0533 2058.00
18.1185 2245.00
18.1837 2314.00
18.2489 1977.00
18.3141 1786.00
18.3793 1660.00
18.4445 1618.00
18.5097 1603.00
18.5749 1508.00
18.6401 1519.00
18.7052 1448.00
18.7704 1395.00
18.8356 1441.00
18.9008 1459.00
18.966 1464.00
19.0312 1457.00
19.0964 1507.00
19.1616 1386.00
19.2268 1467.00
19.292 1442.00
19.3572 1374.00
19.4224 1355.00
19.4876 1376.00
19.5528 1346.00
19.618 1411.00
19.6832 1398.00
19.7484 1376.00
19.8136 1375.00
19.8788 1377.00
19.944 1325.00
20.0092 1290.00
20.0744 1378.00
20.1396 1332.00
20.2048 1248.00
20.27 1396.00
20.3352 1293.00
20.4004 1313.00
20.4656 1302.00
20.5308 1365.00
20.596 1336.00
20.6612 1260.00
20.7264 1442.00
20.7916 1382.00
20.8568 1457.00
20.922 1496.00
20.9872 1503.00
21.0524 1528.00
21.1176 1511.00
21.1828 1447.00
21.248 1423.00
21.3132 1357.00
21.3784 1307.00
21.4436 1293.00
21.5088 1321.00
21.574 1245.00
21.6392 1315.00
21.7044 1228.00
21.7696 1254.00
21.8348 1266.00
21.9 1234.00
21.9652 1223.00
22.0304 1255.00
22.0956 1267.00
22.1608 1182.00
22.226 1204.00
22.2912 1118.00
22.3564 1254.00
22.4216 1174.00
22.4868 1212.00
22.552 1165.00
22.6172 1169.00
22.6824 1111.00
22.7476 1191.00
22.8128 1222.00
22.878 1205.00
22.9432 1165.00
23.0084 1193.00
23.0736 1197.00
23.1388 1187.00
23.204 1309.00
23.2692 1230.00
23.3344 1164.00
23.3996 1241.00
23.4647 1190.00
23.5299 1221.00
23.5951 1191.00
23.6603 1128.00
23.7255 1111.00
23.7907 1148.00
23.8559 1123.00
23.9211 1165.00
23.9863 1156.00
24.0515 1247.00
24.1167 1218.00
24.1819 1290.00
24.2471 1305.00
24.3123 1392.00
24.3775 1643.00
24.4427 1784.00
24.5079 1849.00
24.5731 1808.00
24.6383 1879.00
24.7035 1866.00
24.7687 1564.00
24.8339 1360.00
24.8991 1199.00
24.9643 1240.00
25.0295 1192.00
25.0947 1219.00
25.1599 1302.00
25.2251 1160.00
25.2903 1182.00
25.3555 1259.00
25.4207 1276.00
25.4859 1326.00
25.5511 1346.00
25.6163 1388.00
25.6815 1468.00
25.7467 1707.00
25.8119 2273.00
25.8771 3132.00
25.9423 4402.00
26.0075 5243.00
26.0727 5331.00
26.1379 4827.00
26.2031 3930.00
26.2683 2739.00
26.3335 1914.00
26.3987 1557.00
26.4639 1527.00
26.5291 1587.00
26.5943 1853.00
26.6595 2713.00
26.7247 4356.00
26.7899 6808.00
26.8551 8991.00
26.9203 7711.00
26.9855 4448.00
27.0507 2294.00
27.1159 1635.00
27.1811 1537.00
27.2463 1435.00
27.3115 1351.00
27.3767 1323.00
27.4419 1271.00
27.5071 1251.00
27.5723 1441.00
27.6375 1711.00
27.7027 2144.00
27.7679 3128.00
27.8331 4322.00
27.8983 5301.00
27.9635 5088.00
28.0287 4022.00
28.0939 3186.00
28.1591 2594.00
28.2243 1947.00
28.2894 1505.00
28.3546 1280.00
28.4198 1170.00
28.485 1117.00
28.5502 1017.00
28.6154 1070.00
28.6806 974.00
28.7458 929.00
28.811 922.00
28.8762 929.00
28.9414 915.00
29.0066 983.00
29.0718 974.00
29.137 969.00
29.2022 942.00
29.2674 983.00
29.3326 919.00
29.3978 958.00
29.463 946.00
29.5282 917.00
29.5934 932.00
29.6586 912.00
29.7238 954.00
29.789 963.00
29.8542 1045.00
29.9194 1027.00
29.9846 1134.00
30.0498 1365.00
30.115 1745.00
30.1802 1913.00
30.2454 1790.00
30.3106 1582.00
30.3758 1626.00
30.441 1783.00
30.5062 1491.00
30.5714 1250.00
30.6366 1005.00
30.7018 954.00
30.767 881.00
30.8322 957.00
30.8974 925.00
30.9626 885.00
31.0278 935.00
31.093 940.00
31.1582 937.00
31.2234 951.00
31.2886 1034.00
31.3538 1173.00
31.419 1441.00
31.4842 1470.00
31.5494 1499.00
31.6146 1289.00
31.6798 1191.00
31.745 1181.00
31.8102 1314.00
31.8754 1519.00
31.9406 1589.00
32.0058 1440.00
32.071 1101.00
32.1362 1074.00
32.2014 884.00
32.2666 851.00
32.3318 884.00
32.397 862.00
32.4622 900.00
32.5274 941.00
32.5926 973.00
32.6578 1006.00
32.723 1129.00
32.7882 1098.00
32.8534 1666.00
32.9186 2827.00
32.9838 4413.00
33.0489 5630.00
33.1141 4993.00
33.1793 3197.00
33.2445 1794.00
33.3097 1248.00
33.3749 1043.00
33.4401 972.00
33.5053 1013.00
33.5705 987.00
33.6357 979.00
33.7009 1000.00
33.7661 1073.00
33.8313 1220.00
33.8965 1593.00
33.9617 2341.00
34.0269 4088.00
34.0921 6608.00
34.1573 8245.00
34.2225 6921.00
34.2877 5063.00
34.3529 4263.00
34.4181 5617.00
34.4833 6685.00
34.5485 6280.00
34.6137 4257.00
34.6789 2754.00
34.7441 2083.00
34.8093 2275.00
34.8745 2522.00
34.9397 2313.00
35.0049 1890.00
35.0701 1455.00
35.1353 1119.00
35.2005 1072.00
35.2657 1048.00
35.3309 968.00
35.3961 881.00
35.4613 810.00
35.5265 775.00
35.5917 831.00
35.6569 767.00
35.7221 734.00
35.7873 760.00
35.8525 736.00
35.9177 777.00
35.9829 758.00
36.0481 767.00
36.1133 766.00
36.1785 913.00
36.2437 932.00
36.3089 1020.00
36.3741 1050.00
36.4393 1102.00
36.5045 1103.00
36.5697 1087.00
36.6349 1081.00
36.7001 1022.00
36.7653 1089.00
36.8305 1066.00
36.8957 1238.00
36.9609 1161.00
37.0261 957.00
37.0913 1031.00
37.1565 1076.00
37.2217 1081.00
37.2869 988.00
37.3521 861.00
37.4173 760.00
37.4825 780.00
37.5477 722.00
37.6129 732.00
37.6781 786.00
37.7433 824.00
37.8085 848.00
37.8736 981.00
37.9388 994.00
38.004 968.00
38.0692 1283.00
38.1344 1791.00
38.1996 2441.00
38.2648 2528.00
38.33 1801.00
38.3952 1258.00
38.4604 918.00
38.5256 807.00
38.5908 772.00
38.656 645.00
38.7212 670.00
38.7864 640.00
38.8516 687.00
38.9168 672.00
38.982 628.00
39.0472 707.00
39.1124 896.00
39.1776 1032.00
39.2428 1185.00
39.308 1096.00
39.3732 932.00
39.4384 780.00
39.5036 709.00
39.5688 646.00
39.634 701.00
39.6992 715.00
39.7644 700.00
39.8296 655.00
39.8948 680.00
39.96 628.00
40.0252 635.00
40.0904 636.00
40.1556 632.00
40.2208 564.00
40.286 603.00
40.3512 689.00
40.4164 607.00
40.4816 667.00
40.5468 738.00
40.612 681.00
40.6772 689.00
40.7424 638.00
40.8076 613.00
40.8728 637.00
40.938 656.00
41.0032 725.00
41.0684 779.00
41.1336 714.00
41.1988 701.00
41.264 686.00
41.3292 706.00
41.3944 734.00
41.4596 703.00
41.5248 662.00
41.59 735.00
41.6552 854.00
41.7204 1019.00
41.7856 1115.00
41.8508 1079.00
41.916 1012.00
41.9812 948.00
42.0464 954.00
42.1116 1162.00
42.1768 1378.00
42.242 1407.00
42.3072 1405.00
42.3724 1374.00
42.4376 1249.00
42.5028 1273.00
42.568 1196.00
42.6332 982.00
42.6983 761.00
42.7635 728.00
42.8287 766.00
42.8939 695.00
42.9591 674.00
43.0243 738.00
43.0895 609.00
43.1547 578.00
43.2199 584.00
43.2851 571.00
43.3503 650.00
43.4155 742.00
43.4807 895.00
43.5459 1034.00
43.6111 1023.00
43.6763 929.00
43.7415 812.00
43.8067 781.00
43.8719 769.00
43.9371 678.00
44.0023 644.00
44.0675 600.00
44.1327 631.00
44.1979 664.00
44.2631 641.00
44.3283 547.00
44.3935 615.00
44.4587 582.00
44.5239 563.00
44.5891 628.00
44.6543 626.00
44.7195 551.00
44.7847 551.00
44.8499 588.00
44.9151 606.00
44.9803 685.00
45.0455 821.00
45.1107 876.00
45.1759 930.00
45.2411 878.00
45.3063 857.00
45.3715 814.00
45.4367 733.00
45.5019 751.00
45.5671 810.00
45.6323 735.00
45.6975 725.00
45.7627 676.00
45.8279 669.00
45.8931 621.00
45.9583 620.00
46.0235 556.00
46.0887 588.00
46.1539 660.00
46.2191 629.00
46.2843 627.00
46.3495 627.00
46.4147 616.00
46.4799 613.00
46.5451 576.00
46.6103 579.00
46.6755 642.00
46.7407 708.00
46.8059 743.00
46.8711 738.00
46.9363 812.00
47.0015 971.00
47.0667 982.00
47.1319 997.00
47.1971 979.00
47.2623 1089.00
47.3275 1160.00
47.3927 1293.00
47.4579 1489.00
47.523 1885.00
47.5882 1953.00
47.6534 1563.00
47.7186 1172.00
47.7838 803.00
47.849 663.00
47.9142 686.00
47.9794 616.00
48.0446 611.00
48.1098 601.00
48.175 569.00
48.2402 580.00
48.3054 596.00
48.3706 605.00
48.4358 645.00
48.501 694.00
48.5662 773.00
48.6314 782.00
48.6966 703.00
48.7618 714.00
48.827 715.00
48.8922 751.00
48.9574 748.00
49.0226 904.00
49.0878 976.00
49.153 944.00
49.2182 899.00
49.2834 845.00
49.3486 753.00
49.4138 727.00
49.479 714.00
49.5442 738.00
49.6094 912.00
49.6746 1186.00
49.7398 1322.00
49.805 1336.00
49.8702 1211.00
49.9354 1128.00
50.0006 1198.00
50.0658 1275.00
50.131 1271.00
50.1962 1312.00
50.2614 1354.00
50.3266 1409.00
50.3918 1298.00
50.457 1056.00
50.5222 892.00
50.5874 734.00
50.6526 649.00
50.7178 658.00
50.783 629.00
50.8482 593.00
50.9134 619.00
50.9786 557.00
51.0438 580.00
51.109 616.00
51.1742 605.00
51.2394 683.00
51.3046 652.00
51.3698 707.00
51.435 673.00
51.5002 715.00
51.5654 708.00
51.6306 893.00
51.6958 1269.00
51.761 1591.00
51.8262 1917.00
51.8914 2586.00
51.9566 4251.00
52.0218 6071.00
52.087 5498.00
52.1522 4043.00
52.2174 2980.00
52.2826 1458.00
52.3477 974.00
52.4129 821.00
52.4781 660.00
52.5433 597.00
52.6085 556.00
52.6737 546.00
52.7389 536.00
52.8041 541.00
52.8693 591.00
52.9345 588.00
52.9997 705.00
53.0649 896.00
53.1301 929.00
53.1953 945.00
53.2605 933.00
53.3257 925.00
53.3909 849.00
53.4561 784.00
53.5213 696.00
53.5865 738.00
53.6517 654.00
53.7169 664.00
53.7821 614.00
53.8473 692.00
53.9125 720.00
53.9777 665.00
54.0429 642.00
54.1081 623.00
54.1733 635.00
54.2385 660.00
54.3037 673.00
54.3689 683.00
54.4341 693.00
54.4993 689.00
54.5645 661.00
54.6297 597.00
54.6949 698.00
54.7601 741.00
54.8253 858.00
54.8905 1115.00
54.9557 1647.00
55.0209 1941.00
55.0861 1525.00
55.1513 1292.00
55.2165 1034.00
55.2817 742.00
55.3469 751.00
55.4121 799.00
55.4773 923.00
55.5425 955.00
55.6077 1016.00
55.6729 946.00
55.7381 789.00
55.8033 646.00
55.8685 626.00
55.9337 577.00
55.9989 585.00
56.0641 564.00
56.1293 620.00
56.1945 773.00
56.2597 754.00
56.3249 738.00
56.3901 707.00
56.4553 727.00
56.5205 654.00
56.5857 649.00
56.6509 639.00
56.7161 630.00
56.7813 738.00
56.8465 816.00
56.9117 843.00
56.9769 815.00
57.042 810.00
57.1073 771.00
57.1724 804.00
57.2376 788.00
57.3028 892.00
57.368 872.00
57.4332 817.00
57.4984 745.00
57.5636 675.00
57.6288 623.00
57.694 668.00
57.7592 715.00
57.8244 777.00
57.8896 663.00
57.9548 819.00
58.02 1129.00
58.0852 1286.00
58.1504 1176.00
58.2156 1109.00
58.2808 1025.00
58.346 989.00
58.4112 1183.00
58.4764 1354.00
58.5416 1313.00
58.6068 1222.00
58.672 990.00
58.7372 927.00
58.8024 918.00
58.8676 925.00
58.9328 799.00
58.998 859.00
59.0632 877.00
59.1284 841.00
59.1936 846.00
59.2588 828.00
59.324 912.00
59.3892 1102.00
59.4544 1263.00
59.5196 1414.00
59.5848 1602.00
59.65 1609.00
59.7152 1598.00
59.7804 1452.00
59.8456 1277.00
59.9108 1118.00
59.976 1031.00
60.0412 959.00
60.1064 1062.00
60.1716 1189.00
60.2368 1272.00
60.302 1102.00
60.3672 1039.00
60.4324 870.00
60.4976 726.00
60.5628 663.00
60.628 625.00
60.6932 609.00
60.7584 632.00
60.8236 642.00
60.8888 599.00
60.954 626.00
61.0192 611.00
61.0844 567.00
61.1496 538.00
61.2148 511.00
61.28 527.00
61.3452 499.00
61.4104 505.00
61.4756 521.00
61.5408 598.00
61.606 642.00
61.6712 680.00
61.7364 686.00
61.8016 708.00
61.8667 740.00
61.932 762.00
61.9971 899.00
62.0623 1292.00
62.1275 1643.00
62.1927 1435.00
62.2579 1326.00
62.3231 1408.00
62.3883 1113.00
62.4535 869.00
62.5187 828.00
62.5839 636.00
62.6491 629.00
62.7143 579.00
62.7795 598.00
62.8447 709.00
62.9099 837.00
62.9751 838.00
63.0403 930.00
63.1055 812.00
63.1707 714.00
63.2359 648.00
63.3011 539.00
63.3663 497.00
63.4315 497.00
63.4967 504.00
63.5619 506.00
63.6271 516.00
63.6923 573.00
63.7575 563.00
63.8227 601.00
63.8879 620.00
63.9531 568.00
64.0183 594.00
64.0835 633.00
64.1487 593.00
64.2139 682.00
64.2791 644.00
64.3443 654.00
64.4095 616.00
64.4747 621.00
64.5399 612.00
64.6051 612.00
64.6703 653.00
64.7355 683.00
64.8007 770.00
64.8659 1054.00
64.9311 1647.00
64.9963 1896.00
65.0615 1437.00
65.1267 1284.00
65.1919 1150.00
65.2571 835.00
65.3223 672.00
65.3875 660.00
65.4527 686.00
65.5179 695.00
65.5831 667.00
65.6483 651.00
65.7135 724.00
65.7787 761.00
65.8439 790.00
65.9091 835.00
65.9743 942.00
66.0395 957.00
66.1047 1374.00
66.1699 1860.00
66.2351 1995.00
66.3003 1595.00
66.3655 1387.00
66.4307 1218.00
66.4959 852.00
66.561 667.00
66.6263 635.00
66.6915 554.00
66.7566 618.00
66.8218 647.00
66.887 549.00
66.9522 584.00
67.0174 584.00
67.0826 584.00
67.1478 537.00
67.213 566.00
67.2782 567.00
67.3434 579.00
67.4086 580.00
67.4738 600.00
67.539 512.00
67.6042 537.00
67.6694 529.00
67.7346 485.00
67.7998 538.00
67.865 532.00
67.9302 499.00
67.9954 612.00
68.0606 562.00
68.1258 604.00
68.191 548.00
68.2562 526.00
68.3214 480.00
68.3866 463.00
68.4518 488.00
68.517 503.00
68.5822 559.00
68.6474 594.00
68.7126 600.00
68.7778 637.00
68.843 575.00
68.9082 626.00
68.9734 633.00
69.0386 578.00
69.1038 543.00
69.169 526.00
69.2342 556.00
69.2994 531.00
69.3646 507.00
69.4298 481.00
69.495 519.00
69.5602 453.00
69.6254 470.00
69.6906 465.00
69.7558 459.00
69.821 473.00
69.8862 415.00
69.9514 451.00
70.0166 454.00
70.0818 430.00
70.147 441.00
70.2122 451.00
70.2774 427.00
70.3426 461.00
70.4078 409.00
70.473 441.00
70.5382 468.00
70.6034 422.00
70.6686 442.00
70.7338 417.00
70.799 445.00
70.8642 512.00
70.9294 440.00
70.9946 393.00
71.0598 416.00
71.125 445.00
71.1902 442.00
71.2554 477.00
71.3205 480.00
71.3858 577.00
71.451 856.00
71.5162 1021.00
71.5813 793.00
71.6465 765.00
71.7117 766.00
71.7769 652.00
71.8421 494.00
71.9073 463.00
71.9725 467.00
72.0377 490.00
72.1029 531.00
72.1681 621.00
72.2333 638.00
72.2985 701.00
72.3637 694.00
72.4289 634.00
72.4941 560.00
72.5593 549.00
72.6245 448.00
72.6897 438.00
72.7549 397.00
72.8201 432.00
72.8853 371.00
72.9505 391.00
73.0157 393.00
73.0809 401.00
73.1461 402.00
73.2113 518.00
73.2765 609.00
73.3417 627.00
73.4069 636.00
73.4721 612.00
73.5373 577.00
73.6025 513.00
73.6677 481.00
73.7329 444.00
73.7981 405.00
73.8633 406.00
73.9285 427.00
73.9937 429.00
74.0589 412.00
74.1241 473.00
74.1893 439.00
74.2545 503.00
74.3197 498.00
74.3849 504.00
74.4501 540.00
74.5153 553.00
74.5805 542.00
74.6457 466.00
74.7109 517.00
74.7761 505.00
74.8413 441.00
74.9065 464.00
74.9717 450.00
75.0369 420.00
75.1021 397.00
75.1673 454.00
75.2325 425.00
75.2977 476.00
75.3629 508.00
75.4281 481.00
75.4933 450.00
75.5585 465.00
75.6237 421.00
75.6889 417.00
75.7541 420.00
75.8193 414.00
75.8845 415.00
75.9497 401.00
76.0149 423.00
76.0801 414.00
76.1452 451.00
76.2104 425.00
76.2756 477.00
76.3409 458.00
76.406 517.00
76.4712 420.00
76.5364 398.00
76.6016 469.00
76.6668 462.00
76.732 482.00
76.7972 484.00
76.8624 490.00
76.9276 518.00
76.9928 460.00
77.058 499.00
77.1232 511.00
77.1884 580.00
77.2536 574.00
77.3188 507.00
77.384 517.00
77.4492 574.00
77.5144 499.00
77.5796 479.00
77.6448 480.00
77.71 420.00
77.7752 435.00
77.8404 405.00
77.9056 404.00
77.9708 491.00
78.036 476.00
78.1012 477.00
78.1664 440.00
78.2316 456.00
78.2968 389.00
78.362 453.00
78.4272 421.00
78.4924 412.00
78.5576 472.00
78.6228 507.00
78.688 576.00
78.7532 659.00
78.8184 951.00
78.8836 1356.00
78.9488 1479.00
79.014 1104.00
79.0792 949.00
79.1444 1078.00
79.2096 899.00
79.2748 676.00
79.34 589.00
79.4052 515.00
79.4704 470.00
79.5356 502.00
79.6008 465.00
79.666 441.00
79.7312 410.00
79.7964 382.00
79.8616 412.00
79.9268 395.00
79.992 422.00
80.0572 459.00
80.1224 455.00
80.1876 516.00
80.2528 517.00
80.318 494.00
80.3832 459.00
80.4484 501.00
80.5136 464.00
80.5788 484.00
80.644 448.00
80.7092 393.00
80.7744 397.00
80.8396 470.00
80.9048 460.00
80.9699 475.00
81.0351 450.00
81.1003 481.00
81.1655 454.00
81.2307 522.00
81.2959 591.00
81.3611 650.00
81.4263 595.00
81.4915 557.00
81.5567 618.00
81.6219 648.00
81.6871 511.00
81.7523 435.00
81.8175 469.00
81.8827 427.00
81.9479 407.00
82.0131 426.00
82.0783 410.00
82.1435 410.00
82.2087 449.00
82.2739 377.00
82.3391 364.00
82.4043 387.00
82.4695 368.00
82.5347 463.00
82.5999 416.00
82.6651 465.00
82.7303 507.00
82.7955 464.00
82.8607 456.00
82.9259 468.00
82.9911 435.00
83.0563 418.00
83.1215 401.00
83.1867 394.00
83.2519 408.00
83.3171 385.00
83.3823 452.00
83.4475 490.00
83.5127 439.00
83.5779 470.00
83.6431 522.00
83.7083 556.00
83.7735 616.00
83.8387 775.00
83.9039 1088.00
83.9691 910.00
84.0343 724.00
84.0995 721.00
84.1647 841.00
84.2299 697.00
84.2951 508.00
84.3603 481.00
84.4255 431.00
84.4907 413.00
84.5559 459.00
84.6211 399.00
84.6863 471.00
84.7515 439.00
84.8167 459.00
84.8819 471.00
84.9471 501.00
85.0123 458.00
85.0775 492.00
85.1427 464.00
85.2079 537.00
85.2731 463.00
85.3383 453.00
85.4035 455.00
85.4687 445.00
85.5339 450.00
85.5991 489.00
85.6643 405.00
85.7295 451.00
85.7946 477.00
85.8598 467.00
85.925 452.00
85.9903 466.00
86.0554 515.00
86.1206 560.00
86.1858 511.00
86.251 473.00
86.3162 483.00
86.3814 487.00
86.4466 526.00
86.5118 451.00
86.577 459.00
86.6422 485.00
86.7074 457.00
86.7726 432.00
86.8378 440.00
86.903 493.00
86.9682 468.00
87.0334 495.00
87.0986 524.00
87.1638 496.00
87.229 494.00
87.2942 537.00
87.3594 579.00
87.4246 749.00
87.4898 644.00
87.555 511.00
87.6202 534.00
87.6854 575.00
87.7506 544.00
87.8158 483.00
87.881 433.00
87.9462 423.00
88.0114 417.00
88.0766 391.00
88.1418 392.00
88.207 432.00
88.2722 422.00
88.3374 412.00
88.4026 501.00
88.4678 487.00
88.533 497.00
88.5982 493.00
88.6634 482.00
88.7286 485.00
88.7938 445.00
88.859 417.00
88.9242 446.00
88.9894 423.00
89.0546 421.00
89.1198 491.00
89.185 439.00
89.2502 467.00
89.3154 449.00
89.3806 479.00
89.4458 468.00
89.511 502.00
89.5762 475.00
89.6414 483.00
89.7066 479.00
89.7718 520.00
89.837 611.00
89.9022 865.00
89.9674 1083.00
90.0326 1077.00
90.0978 716.00
90.163 671.00
90.2282 837.00
90.2934 873.00
90.3586 693.00
90.4238 590.00
90.489 583.00
90.5542 594.00
90.6193 519.00
90.6845 525.00
90.7497 534.00
90.8149 487.00
90.8801 523.00
90.9453 586.00
91.0105 842.00
91.0757 1051.00
91.1409 1027.00
91.2061 739.00
91.2713 692.00
91.3365 812.00
91.4017 820.00
91.4669 741.00
91.5321 580.00
91.5973 543.00
91.6625 556.00
91.7277 525.00
91.7929 501.00
91.8581 497.00
91.9233 467.00
91.9885 435.00
92.0537 519.00
92.1189 520.00
92.1841 457.00
92.2493 462.00
92.3145 406.00
92.3797 433.00
92.4449 475.00
92.5101 466.00
92.5753 451.00
92.6405 432.00
92.7057 523.00
92.7709 462.00
92.8361 433.00
92.9013 429.00
92.9665 443.00
93.0317 442.00
93.0969 451.00
93.1621 405.00
93.2273 413.00
93.2925 455.00
93.3577 524.00
93.4229 636.00
93.4881 766.00
93.5533 605.00
93.6185 538.00
93.6837 554.00
93.7489 544.00
93.8141 626.00
93.8793 486.00
93.9445 430.00
94.0097 424.00
94.0749 357.00
94.1401 363.00
94.2053 446.00
94.2705 412.00
94.3357 403.00
94.4009 415.00
94.4661 363.00
94.5313 355.00
94.5965 402.00
94.6617 420.00
94.7269 391.00
94.7921 373.00
94.8573 395.00
94.9225 396.00
94.9877 355.00
95.0529 392.00
95.1181 363.00
95.1833 377.00
95.2485 396.00
95.3137 433.00
95.3789 409.00
95.444 389.00
95.5092 419.00
95.5744 400.00
95.6396 411.00
95.7048 447.00
95.77 483.00
95.8352 465.00
95.9004 517.00
95.9656 485.00
96.0308 499.00
96.096 542.00
96.1612 729.00
96.2264 741.00
96.2916 591.00
96.3568 512.00
96.422 523.00
96.4872 598.00
96.5524 594.00
96.6176 492.00
96.6828 479.00
96.748 542.00
96.8132 452.00
96.8784 458.00
96.9436 488.00
97.0088 498.00
97.074 522.00
97.1392 518.00
97.2044 491.00
97.2696 557.00
97.3348 530.00
97.4 531.00
97.4652 512.00
97.5304 544.00
97.5956 468.00
97.6608 470.00
97.726 457.00
97.7912 481.00
97.8564 468.00
97.9216 439.00
97.9868 471.00
98.052 439.00
98.1172 398.00
98.1824 405.00
98.2476 477.00
98.3128 468.00
98.378 421.00
98.4432 386.00
98.5084 422.00
98.5736 429.00
98.6388 447.00
98.704 422.00
98.7692 453.00
98.8344 422.00
98.8996 373.00
98.9648 406.00
99.03 394.00
99.0952 399.00
99.1604 391.00
99.2256 407.00
99.2908 426.00
99.356 407.00
99.4212 442.00
99.4864 445.00
99.5516 444.00
99.6168 478.00
99.682 487.00
99.7472 510.00
99.8124 486.00
99.8776 481.00
99.9428 503.00
100.008 482.00
100.073 467.00
100.095 516.00