File: data/xrd_creation/results/Na_139.xy
9.903433 2661.00
9.968632 2598.00
10.0338 2604.00
10.099 2568.00
10.1642 2669.00
10.2294 2588.00
10.2946 2585.00
10.3598 2576.00
10.425 2543.00
10.4902 2477.00
10.5554 2556.00
10.6206 2398.00
10.6858 2429.00
10.751 2482.00
10.8162 2447.00
10.8814 2398.00
10.9466 2320.00
11.0118 2401.00
11.077 2264.00
11.1422 2452.00
11.2074 2352.00
11.2726 2215.00
11.3378 2269.00
11.403 2316.00
11.4682 2305.00
11.5334 2121.00
11.5986 2190.00
11.6638 2113.00
11.729 2167.00
11.7942 2205.00
11.8594 2093.00
11.9246 2088.00
11.9898 2134.00
12.055 2022.00
12.1202 2014.00
12.1854 2085.00
12.2506 2008.00
12.3158 2004.00
12.381 2028.00
12.4462 2066.00
12.5114 2001.00
12.5766 2005.00
12.6418 1915.00
12.707 1964.00
12.7722 1962.00
12.8374 1915.00
12.9026 2003.00
12.9678 2003.00
13.033 1896.00
13.0982 1883.00
13.1634 1928.00
13.2286 1849.00
13.2938 1830.00
13.359 1772.00
13.4242 1844.00
13.4894 1756.00
13.5546 1880.00
13.6198 1843.00
13.685 1785.00
13.7502 1799.00
13.8154 1734.00
13.8805 1788.00
13.9457 1805.00
14.0109 1749.00
14.0761 1713.00
14.1413 1727.00
14.2065 1773.00
14.2717 1775.00
14.3369 1719.00
14.4021 1716.00
14.4673 1682.00
14.5325 1725.00
14.5977 1700.00
14.6629 1768.00
14.7281 1667.00
14.7933 1782.00
14.8585 1704.00
14.9237 1682.00
14.9889 1720.00
15.0541 1703.00
15.1193 1734.00
15.1845 1594.00
15.2497 1632.00
15.3149 1779.00
15.3801 1722.00
15.4453 1656.00
15.5105 1647.00
15.5757 1702.00
15.6409 1629.00
15.7061 1664.00
15.7713 1580.00
15.8365 1603.00
15.9017 1615.00
15.9669 1604.00
16.0321 1661.00
16.0973 1521.00
16.1625 1590.00
16.2277 1582.00
16.2929 1562.00
16.3581 1617.00
16.4233 1564.00
16.4885 1542.00
16.5537 1559.00
16.6189 1614.00
16.6841 1603.00
16.7493 1531.00
16.8145 1524.00
16.8797 1577.00
16.9449 1543.00
17.0101 1486.00
17.0753 1505.00
17.1405 1503.00
17.2057 1505.00
17.2709 1547.00
17.3361 1520.00
17.4013 1461.00
17.4665 1461.00
17.5317 1510.00
17.5969 1470.00
17.6621 1508.00
17.7273 1503.00
17.7925 1427.00
17.8577 1541.00
17.9229 1491.00
17.9881 1464.00
18.0533 1462.00
18.1185 1470.00
18.1837 1365.00
18.2489 1478.00
18.3141 1443.00
18.3793 1433.00
18.4445 1441.00
18.5097 1405.00
18.5749 1412.00
18.6401 1489.00
18.7052 1457.00
18.7704 1474.00
18.8356 1444.00
18.9008 1428.00
18.966 1538.00
19.0312 1449.00
19.0964 1442.00
19.1616 1449.00
19.2268 1458.00
19.292 1455.00
19.3572 1447.00
19.4224 1427.00
19.4876 1453.00
19.5528 1475.00
19.618 1393.00
19.6832 1478.00
19.7484 1403.00
19.8136 1343.00
19.8788 1427.00
19.944 1314.00
20.0092 1320.00
20.0744 1327.00
20.1396 1378.00
20.2048 1302.00
20.27 1315.00
20.3352 1235.00
20.4004 1281.00
20.4656 1307.00
20.5308 1268.00
20.596 1298.00
20.6612 1293.00
20.7264 1231.00
20.7916 1246.00
20.8568 1224.00
20.922 1278.00
20.9872 1268.00
21.0524 1241.00
21.1176 1226.00
21.1828 1210.00
21.248 1215.00
21.3132 1271.00
21.3784 1215.00
21.4436 1222.00
21.5088 1337.00
21.574 1205.00
21.6392 1196.00
21.7044 1196.00
21.7696 1198.00
21.8348 1290.00
21.9 1220.00
21.9652 1325.00
22.0304 1259.00
22.0956 1333.00
22.1608 1291.00
22.226 1406.00
22.2912 1321.00
22.3564 1404.00
22.4216 1396.00
22.4868 1439.00
22.552 1438.00
22.6172 1505.00
22.6824 1413.00
22.7476 1460.00
22.8128 1395.00
22.878 1365.00
22.9432 1277.00
23.0084 1191.00
23.0736 1191.00
23.1388 1265.00
23.204 1184.00
23.2692 1137.00
23.3344 1173.00
23.3996 1242.00
23.4647 1115.00
23.5299 1086.00
23.5951 1140.00
23.6603 1048.00
23.7255 1107.00
23.7907 1120.00
23.8559 1068.00
23.9211 1156.00
23.9863 1114.00
24.0515 1074.00
24.1167 1096.00
24.1819 1073.00
24.2471 1173.00
24.3123 1083.00
24.3775 1064.00
24.4427 1034.00
24.5079 1064.00
24.5731 1074.00
24.6383 1014.00
24.7035 1086.00
24.7687 1066.00
24.8339 1078.00
24.8991 1043.00
24.9643 1026.00
25.0295 1126.00
25.0947 1065.00
25.1599 1088.00
25.2251 1077.00
25.2903 1070.00
25.3555 1112.00
25.4207 1056.00
25.4859 1093.00
25.5511 1098.00
25.6163 1041.00
25.6815 983.00
25.7467 1035.00
25.8119 1063.00
25.8771 1067.00
25.9423 1066.00
26.0075 1070.00
26.0727 1125.00
26.1379 1122.00
26.2031 1117.00
26.2683 1200.00
26.3335 1239.00
26.3987 1412.00
26.4639 1427.00
26.5291 1630.00
26.5943 2049.00
26.6595 2839.00
26.7247 4478.00
26.7899 7475.00
26.8551 11151.00
26.9203 10783.00
26.9855 6765.00
27.0507 3580.00
27.1159 2307.00
27.1811 1695.00
27.2463 1474.00
27.3115 1317.00
27.3767 1207.00
27.4419 1143.00
27.5071 1141.00
27.5723 1019.00
27.6375 1054.00
27.7027 1011.00
27.7679 1045.00
27.8331 966.00
27.8983 973.00
27.9635 1022.00
28.0287 923.00
28.0939 949.00
28.1591 935.00
28.2243 918.00
28.2894 942.00
28.3546 902.00
28.4198 946.00
28.485 866.00
28.5502 831.00
28.6154 873.00
28.6806 868.00
28.7458 915.00
28.811 889.00
28.8762 888.00
28.9414 898.00
29.0066 925.00
29.0718 882.00
29.137 867.00
29.2022 869.00
29.2674 820.00
29.3326 810.00
29.3978 837.00
29.463 805.00
29.5282 832.00
29.5934 813.00
29.6586 822.00
29.7238 829.00
29.789 821.00
29.8542 782.00
29.9194 851.00
29.9846 827.00
30.0498 818.00
30.115 789.00
30.1802 797.00
30.2454 781.00
30.3106 804.00
30.3758 799.00
30.441 777.00
30.5062 811.00
30.5714 738.00
30.6366 786.00
30.7018 841.00
30.767 814.00
30.8322 810.00
30.8974 796.00
30.9626 749.00
31.0278 742.00
31.093 811.00
31.1582 803.00
31.2234 736.00
31.2886 830.00
31.3538 757.00
31.419 856.00
31.4842 845.00
31.5494 814.00
31.6146 814.00
31.6798 806.00
31.745 880.00
31.8102 826.00
31.8754 772.00
31.9406 771.00
32.0058 749.00
32.071 842.00
32.1362 846.00
32.2014 798.00
32.2666 792.00
32.3318 791.00
32.397 780.00
32.4622 740.00
32.5274 777.00
32.5926 714.00
32.6578 742.00
32.723 779.00
32.7882 736.00
32.8534 764.00
32.9186 769.00
32.9838 784.00
33.0489 822.00
33.1141 801.00
33.1793 795.00
33.2445 810.00
33.3097 765.00
33.3749 839.00
33.4401 854.00
33.5053 823.00
33.5705 873.00
33.6357 1022.00
33.7009 1063.00
33.7661 1171.00
33.8313 1359.00
33.8965 1676.00
33.9617 2472.00
34.0269 4279.00
34.0921 7460.00
34.1573 10091.00
34.2225 8589.00
34.2877 5307.00
34.3529 2865.00
34.4181 1844.00
34.4833 1326.00
34.5485 1177.00
34.6137 1071.00
34.6789 916.00
34.7441 831.00
34.8093 800.00
34.8745 794.00
34.9397 795.00
35.0049 816.00
35.0701 730.00
35.1353 702.00
35.2005 733.00
35.2657 686.00
35.3309 676.00
35.3961 697.00
35.4613 713.00
35.5265 691.00
35.5917 697.00
35.6569 666.00
35.7221 673.00
35.7873 660.00
35.8525 634.00
35.9177 658.00
35.9829 658.00
36.0481 681.00
36.1133 681.00
36.1785 666.00
36.2437 730.00
36.3089 652.00
36.3741 645.00
36.4393 639.00
36.5045 668.00
36.5697 653.00
36.6349 630.00
36.7001 660.00
36.7653 680.00
36.8305 640.00
36.8957 663.00
36.9609 654.00
37.0261 705.00
37.0913 679.00
37.1565 684.00
37.2217 717.00
37.2869 704.00
37.3521 757.00
37.4173 753.00
37.4825 747.00
37.5477 783.00
37.6129 759.00
37.6781 760.00
37.7433 868.00
37.8085 795.00
37.8736 915.00
37.9388 983.00
38.004 1081.00
38.0692 1356.00
38.1344 2078.00
38.1996 3006.00
38.2648 3099.00
38.33 2621.00
38.3952 1739.00
38.4604 1133.00
38.5256 953.00
38.5908 790.00
38.656 693.00
38.7212 641.00
38.7864 704.00
38.8516 639.00
38.9168 652.00
38.982 665.00
39.0472 653.00
39.1124 758.00
39.1776 930.00
39.2428 1110.00
39.308 1157.00
39.3732 972.00
39.4384 748.00
39.5036 633.00
39.5688 546.00
39.634 610.00
39.6992 582.00
39.7644 605.00
39.8296 554.00
39.8948 491.00
39.96 579.00
40.0252 581.00
40.0904 579.00
40.1556 556.00
40.2208 542.00
40.286 558.00
40.3512 583.00
40.4164 572.00
40.4816 573.00
40.5468 542.00
40.612 554.00
40.6772 556.00
40.7424 498.00
40.8076 482.00
40.8728 565.00
40.938 547.00
41.0032 533.00
41.0684 565.00
41.1336 492.00
41.1988 516.00
41.264 492.00
41.3292 508.00
41.3944 505.00
41.4596 530.00
41.5248 523.00
41.59 532.00
41.6552 523.00
41.7204 517.00
41.7856 525.00
41.8508 510.00
41.916 494.00
41.9812 532.00
42.0464 586.00
42.1116 521.00
42.1768 537.00
42.242 474.00
42.3072 448.00
42.3724 474.00
42.4376 505.00
42.5028 523.00
42.568 528.00
42.6332 513.00
42.6983 510.00
42.7635 486.00
42.8287 598.00
42.8939 687.00
42.9591 625.00
43.0243 641.00
43.0895 574.00
43.1547 539.00
43.2199 509.00
43.2851 480.00
43.3503 499.00
43.4155 494.00
43.4807 538.00
43.5459 472.00
43.6111 497.00
43.6763 463.00
43.7415 455.00
43.8067 502.00
43.8719 518.00
43.9371 471.00
44.0023 438.00
44.0675 477.00
44.1327 442.00
44.1979 468.00
44.2631 431.00
44.3283 464.00
44.3935 474.00
44.4587 449.00
44.5239 453.00
44.5891 462.00
44.6543 497.00
44.7195 443.00
44.7847 520.00
44.8499 441.00
44.9151 466.00
44.9803 470.00
45.0455 464.00
45.1107 463.00
45.1759 475.00
45.2411 434.00
45.3063 467.00
45.3715 488.00
45.4367 493.00
45.5019 514.00
45.5671 494.00
45.6323 465.00
45.6975 455.00
45.7627 473.00
45.8279 450.00
45.8931 447.00
45.9583 492.00
46.0235 451.00
46.0887 469.00
46.1539 470.00
46.2191 480.00
46.2843 408.00
46.3495 456.00
46.4147 467.00
46.4799 430.00
46.5451 489.00
46.6103 444.00
46.6755 482.00
46.7407 474.00
46.8059 480.00
46.8711 501.00
46.9363 471.00
47.0015 446.00
47.0667 490.00
47.1319 452.00
47.1971 432.00
47.2623 440.00
47.3275 483.00
47.3927 444.00
47.4579 434.00
47.523 493.00
47.5882 442.00
47.6534 412.00
47.7186 442.00
47.7838 431.00
47.849 464.00
47.9142 453.00
47.9794 448.00
48.0446 450.00
48.1098 441.00
48.175 456.00
48.2402 412.00
48.3054 417.00
48.3706 478.00
48.4358 456.00
48.501 444.00
48.5662 447.00
48.6314 446.00
48.6966 445.00
48.7618 462.00
48.827 448.00
48.8922 425.00
48.9574 463.00
49.0226 435.00
49.0878 447.00
49.153 442.00
49.2182 466.00
49.2834 433.00
49.3486 456.00
49.4138 446.00
49.479 441.00
49.5442 449.00
49.6094 443.00
49.6746 433.00
49.7398 424.00
49.805 470.00
49.8702 449.00
49.9354 456.00
50.0006 464.00
50.0658 478.00
50.131 440.00
50.1962 498.00
50.2614 489.00
50.3266 537.00
50.3918 469.00
50.457 501.00
50.5222 553.00
50.5874 514.00
50.6526 521.00
50.7178 499.00
50.783 539.00
50.8482 498.00
50.9134 543.00
50.9786 523.00
51.0438 534.00
51.109 524.00
51.1742 585.00
51.2394 572.00
51.3046 597.00
51.3698 595.00
51.435 671.00
51.5002 729.00
51.5654 808.00
51.6306 863.00
51.6958 1003.00
51.761 1371.00
51.8262 1783.00
51.8914 2904.00
51.9566 5329.00
52.0218 8301.00
52.087 7835.00
52.1522 6291.00
52.2174 4462.00
52.2826 2514.00
52.3477 1599.00
52.4129 1204.00
52.4781 932.00
52.5433 767.00
52.6085 693.00
52.6737 625.00
52.7389 544.00
52.8041 555.00
52.8693 525.00
52.9345 524.00
52.9997 501.00
53.0649 517.00
53.1301 488.00
53.1953 484.00
53.2605 474.00
53.3257 509.00
53.3909 493.00
53.4561 474.00
53.5213 504.00
53.5865 462.00
53.6517 455.00
53.7169 460.00
53.7821 504.00
53.8473 480.00
53.9125 478.00
53.9777 483.00
54.0429 445.00
54.1081 426.00
54.1733 464.00
54.2385 471.00
54.3037 434.00
54.3689 462.00
54.4341 471.00
54.4993 471.00
54.5645 514.00
54.6297 547.00
54.6949 568.00
54.7601 617.00
54.8253 822.00
54.8905 1066.00
54.9557 1835.00
55.0209 2258.00
55.0861 2123.00
55.1513 1815.00
55.2165 1284.00
55.2817 869.00
55.3469 684.00
55.4121 570.00
55.4773 542.00
55.5425 478.00
55.6077 467.00
55.6729 464.00
55.7381 497.00
55.8033 446.00
55.8685 473.00
55.9337 466.00
55.9989 468.00
56.0641 447.00
56.1293 468.00
56.1945 481.00
56.2597 432.00
56.3249 469.00
56.3901 441.00
56.4553 437.00
56.5205 417.00
56.5857 448.00
56.6509 445.00
56.7161 437.00
56.7813 438.00
56.8465 443.00
56.9117 449.00
56.9769 442.00
57.042 434.00
57.1073 429.00
57.1724 428.00
57.2376 463.00
57.3028 428.00
57.368 387.00
57.4332 459.00
57.4984 388.00
57.5636 466.00
57.6288 430.00
57.694 486.00
57.7592 503.00
57.8244 507.00
57.8896 621.00
57.9548 797.00
58.02 1105.00
58.0852 1295.00
58.1504 1147.00
58.2156 1011.00
58.2808 862.00
58.346 644.00
58.4112 577.00
58.4764 489.00
58.5416 480.00
58.6068 446.00
58.672 415.00
58.7372 449.00
58.8024 450.00
58.8676 383.00
58.9328 400.00
58.998 390.00
59.0632 390.00
59.1284 376.00
59.1936 442.00
59.2588 383.00
59.324 416.00
59.3892 391.00
59.4544 387.00
59.5196 415.00
59.5848 374.00
59.65 421.00
59.7152 411.00
59.7804 412.00
59.8456 426.00
59.9108 425.00
59.976 376.00
60.0412 445.00
60.1064 418.00
60.1716 424.00
60.2368 405.00
60.302 393.00
60.3672 465.00
60.4324 437.00
60.4976 451.00
60.5628 482.00
60.628 441.00
60.6932 459.00
60.7584 462.00
60.8236 413.00
60.8888 413.00
60.954 455.00
61.0192 437.00
61.0844 458.00
61.1496 419.00
61.2148 480.00
61.28 388.00
61.3452 457.00
61.4104 432.00
61.4756 455.00
61.5408 432.00
61.606 441.00
61.6712 449.00
61.7364 512.00
61.8016 521.00
61.8667 634.00
61.932 697.00
61.9971 1011.00
62.0623 1464.00
62.1275 2004.00
62.1927 1776.00
62.2579 1616.00
62.3231 1344.00
62.3883 1020.00
62.4535 777.00
62.5187 627.00
62.5839 512.00
62.6491 503.00
62.7143 452.00
62.7795 457.00
62.8447 445.00
62.9099 428.00
62.9751 409.00
63.0403 412.00
63.1055 419.00
63.1707 424.00
63.2359 375.00
63.3011 357.00
63.3663 382.00
63.4315 384.00
63.4967 408.00
63.5619 410.00
63.6271 407.00
63.6923 428.00
63.7575 416.00
63.8227 392.00
63.8879 431.00
63.9531 393.00
64.0183 368.00
64.0835 399.00
64.1487 447.00
64.2139 416.00
64.2791 419.00
64.3443 445.00
64.4095 426.00
64.4747 469.00
64.5399 487.00
64.6051 538.00
64.6703 568.00
64.7355 638.00
64.8007 826.00
64.8659 1156.00
64.9311 1769.00
64.9963 2030.00
65.0615 1721.00
65.1267 1556.00
65.1919 1389.00
65.2571 955.00
65.3223 693.00
65.3875 622.00
65.4527 533.00
65.5179 539.00
65.5831 477.00
65.6483 531.00
65.7135 541.00
65.7787 550.00
65.8439 578.00
65.9091 654.00
65.9743 729.00
66.0395 982.00
66.1047 1465.00
66.1699 2249.00
66.2351 2303.00
66.3003 1908.00
66.3655 1814.00
66.4307 1468.00
66.4959 1042.00
66.561 757.00
66.6263 653.00
66.6915 551.00
66.7566 512.00
66.8218 439.00
66.887 447.00
66.9522 431.00
67.0174 381.00
67.0826 406.00
67.1478 387.00
67.213 359.00
67.2782 357.00
67.3434 360.00
67.4086 326.00
67.4738 363.00
67.539 339.00
67.6042 402.00
67.6694 315.00
67.7346 345.00
67.7998 347.00
67.865 391.00
67.9302 319.00
67.9954 377.00
68.0606 357.00
68.1258 336.00
68.191 333.00
68.2562 338.00
68.3214 377.00
68.3866 348.00
68.4518 359.00
68.517 334.00
68.5822 370.00
68.6474 377.00
68.7126 348.00
68.7778 333.00
68.843 367.00
68.9082 377.00
68.9734 333.00
69.0386 359.00
69.1038 356.00
69.169 376.00
69.2342 339.00
69.2994 354.00
69.3646 376.00
69.4298 359.00
69.495 366.00
69.5602 405.00
69.6254 340.00
69.6906 389.00
69.7558 415.00
69.821 351.00
69.8862 345.00
69.9514 373.00
70.0166 345.00
70.0818 363.00
70.147 350.00
70.2122 371.00
70.2774 360.00
70.3426 337.00
70.4078 346.00
70.473 344.00
70.5382 337.00
70.6034 371.00
70.6686 361.00
70.7338 349.00
70.799 393.00
70.8642 349.00
70.9294 382.00
70.9946 359.00
71.0598 409.00
71.125 390.00
71.1902 404.00
71.2554 477.00
71.3205 521.00
71.3858 742.00
71.451 1041.00
71.5162 1241.00
71.5813 1002.00
71.6465 925.00
71.7117 883.00
71.7769 721.00
71.8421 536.00
71.9073 497.00
71.9725 431.00
72.0377 437.00
72.1029 410.00
72.1681 361.00
72.2333 348.00
72.2985 339.00
72.3637 343.00
72.4289 352.00
72.4941 341.00
72.5593 308.00
72.6245 315.00
72.6897 346.00
72.7549 320.00
72.8201 381.00
72.8853 341.00
72.9505 346.00
73.0157 312.00
73.0809 290.00
73.1461 324.00
73.2113 301.00
73.2765 297.00
73.3417 334.00
73.4069 348.00
73.4721 330.00
73.5373 303.00
73.6025 306.00
73.6677 346.00
73.7329 345.00
73.7981 340.00
73.8633 319.00
73.9285 311.00
73.9937 320.00
74.0589 317.00
74.1241 328.00
74.1893 294.00
74.2545 337.00
74.3197 340.00
74.3849 319.00
74.4501 362.00
74.5153 301.00
74.5805 381.00
74.6457 345.00
74.7109 349.00
74.7761 359.00
74.8413 326.00
74.9065 319.00
74.9717 332.00
75.0369 339.00
75.1021 298.00
75.1673 297.00
75.2325 329.00
75.2977 300.00
75.3629 285.00
75.4281 302.00
75.4933 352.00
75.5585 315.00
75.6237 336.00
75.6889 339.00
75.7541 308.00
75.8193 300.00
75.8845 316.00
75.9497 320.00
76.0149 316.00
76.0801 315.00
76.1452 313.00
76.2104 335.00
76.2756 348.00
76.3409 287.00
76.406 331.00
76.4712 311.00
76.5364 281.00
76.6016 323.00
76.6668 328.00
76.732 315.00
76.7972 310.00
76.8624 308.00
76.9276 360.00
76.9928 302.00
77.058 309.00
77.1232 307.00
77.1884 312.00
77.2536 319.00
77.3188 321.00
77.384 313.00
77.4492 337.00
77.5144 299.00
77.5796 321.00
77.6448 318.00
77.71 322.00
77.7752 305.00
77.8404 311.00
77.9056 359.00
77.9708 295.00
78.036 327.00
78.1012 340.00
78.1664 361.00
78.2316 374.00
78.2968 389.00
78.362 374.00
78.4272 355.00
78.4924 414.00
78.5576 471.00
78.6228 493.00
78.688 560.00
78.7532 674.00
78.8184 989.00
78.8836 1394.00
78.9488 1686.00
79.014 1345.00
79.0792 1155.00
79.1444 1153.00
79.2096 1036.00
79.2748 765.00
79.34 633.00
79.4052 511.00
79.4704 447.00
79.5356 397.00
79.6008 383.00
79.666 360.00
79.7312 377.00
79.7964 337.00
79.8616 304.00
79.9268 357.00
79.992 346.00
80.0572 366.00
80.1224 300.00
80.1876 321.00
80.2528 332.00
80.318 369.00
80.3832 346.00
80.4484 345.00
80.5136 312.00
80.5788 328.00
80.644 287.00
80.7092 349.00
80.7744 318.00
80.8396 336.00
80.9048 331.00
80.9699 362.00
81.0351 387.00
81.1003 384.00
81.1655 415.00
81.2307 524.00
81.2959 615.00
81.3611 689.00
81.4263 612.00
81.4915 539.00
81.5567 576.00
81.6219 514.00
81.6871 444.00
81.7523 400.00
81.8175 367.00
81.8827 365.00
81.9479 350.00
82.0131 306.00
82.0783 349.00
82.1435 286.00
82.2087 324.00
82.2739 312.00
82.3391 324.00
82.4043 306.00
82.4695 351.00
82.5347 343.00
82.5999 318.00
82.6651 333.00
82.7303 297.00
82.7955 287.00
82.8607 311.00
82.9259 321.00
82.9911 284.00
83.0563 310.00
83.1215 304.00
83.1867 313.00
83.2519 311.00
83.3171 337.00
83.3823 368.00
83.4475 338.00
83.5127 358.00
83.5779 421.00
83.6431 414.00
83.7083 532.00
83.7735 601.00
83.8387 925.00
83.9039 1239.00
83.9691 1127.00
84.0343 894.00
84.0995 839.00
84.1647 899.00
84.2299 767.00
84.2951 618.00
84.3603 516.00
84.4255 425.00
84.4907 442.00
84.5559 326.00
84.6211 320.00
84.6863 337.00
84.7515 338.00
84.8167 291.00
84.8819 302.00
84.9471 294.00
85.0123 312.00
85.0775 300.00
85.1427 327.00
85.2079 277.00
85.2731 316.00
85.3383 301.00
85.4035 291.00
85.4687 297.00
85.5339 292.00
85.5991 307.00
85.6643 326.00
85.7295 292.00
85.7946 312.00
85.8598 316.00
85.925 299.00
85.9903 323.00
86.0554 291.00
86.1206 297.00
86.1858 315.00
86.251 282.00
86.3162 317.00
86.3814 306.00
86.4466 321.00
86.5118 296.00
86.577 313.00
86.6422 310.00
86.7074 309.00
86.7726 327.00
86.8378 300.00
86.903 333.00
86.9682 320.00
87.0334 337.00
87.0986 320.00
87.1638 372.00
87.229 392.00
87.2942 485.00
87.3594 570.00
87.4246 735.00
87.4898 733.00
87.555 585.00
87.6202 577.00
87.6854 569.00
87.7506 580.00
87.8158 467.00
87.881 417.00
87.9462 362.00
88.0114 347.00
88.0766 332.00
88.1418 315.00
88.207 295.00
88.2722 310.00
88.3374 308.00
88.4026 311.00
88.4678 336.00
88.533 325.00
88.5982 349.00
88.6634 355.00
88.7286 318.00
88.7938 340.00
88.859 375.00
88.9242 367.00
88.9894 336.00
89.0546 331.00
89.1198 339.00
89.185 329.00
89.2502 348.00
89.3154 353.00
89.3806 380.00
89.4458 419.00
89.511 408.00
89.5762 422.00
89.6414 491.00
89.7066 535.00
89.7718 623.00
89.837 794.00
89.9022 1032.00
89.9674 1284.00
90.0326 1281.00
90.0978 1036.00
90.163 954.00
90.2282 1041.00
90.2934 889.00
90.3586 755.00
90.4238 601.00
90.489 550.00
90.5542 500.00
90.6193 457.00
90.6845 514.00
90.7497 511.00
90.8149 560.00
90.8801 651.00
90.9453 743.00
91.0105 1037.00
91.0757 1312.00
91.1409 1342.00
91.2061 1101.00
91.2713 1023.00
91.3365 983.00
91.4017 948.00
91.4669 807.00
91.5321 669.00
91.5973 590.00
91.6625 482.00
91.7277 389.00
91.7929 387.00
91.8581 352.00
91.9233 306.00
91.9885 360.00
92.0537 331.00
92.1189 340.00
92.1841 330.00
92.2493 323.00
92.3145 359.00
92.3797 292.00
92.4449 342.00
92.5101 307.00
92.5753 313.00
92.6405 320.00
92.7057 329.00
92.7709 334.00
92.8361 327.00
92.9013 349.00
92.9665 365.00
93.0317 357.00
93.0969 409.00
93.1621 365.00
93.2273 403.00
93.2925 436.00
93.3577 544.00
93.4229 707.00
93.4881 834.00
93.5533 736.00
93.6185 683.00
93.6837 626.00
93.7489 636.00
93.8141 602.00
93.8793 524.00
93.9445 438.00
94.0097 367.00
94.0749 378.00
94.1401 354.00
94.2053 350.00
94.2705 328.00
94.3357 332.00
94.4009 321.00
94.4661 314.00
94.5313 320.00
94.5965 300.00
94.6617 335.00
94.7269 294.00
94.7921 304.00
94.8573 313.00
94.9225 312.00
94.9877 320.00
95.0529 312.00
95.1181 299.00
95.1833 276.00
95.2485 323.00
95.3137 345.00
95.3789 312.00
95.444 318.00
95.5092 323.00
95.5744 328.00
95.6396 342.00
95.7048 358.00
95.77 340.00
95.8352 368.00
95.9004 371.00
95.9656 403.00
96.0308 491.00
96.096 580.00
96.1612 713.00
96.2264 750.00
96.2916 653.00
96.3568 580.00
96.422 548.00
96.4872 571.00
96.5524 531.00
96.6176 472.00
96.6828 402.00
96.748 366.00
96.8132 371.00
96.8784 336.00
96.9436 326.00
97.0088 306.00
97.074 301.00
97.1392 347.00
97.2044 295.00
97.2696 341.00
97.3348 298.00
97.4 306.00
97.4652 286.00
97.5304 310.00
97.5956 278.00
97.6608 321.00
97.726 299.00
97.7912 312.00
97.8564 305.00
97.9216 261.00
97.9868 301.00
98.052 308.00
98.1172 321.00
98.1824 344.00
98.2476 295.00
98.3128 316.00
98.378 336.00
98.4432 321.00
98.5084 333.00
98.5736 296.00
98.6388 307.00
98.704 246.00
98.7692 314.00
98.8344 282.00
98.8996 304.00
98.9648 313.00
99.03 320.00
99.0952 328.00
99.1604 321.00
99.2256 270.00
99.2908 322.00
99.356 300.00
99.4212 265.00
99.4864 310.00
99.5516 278.00
99.6168 309.00
99.682 286.00
99.7472 295.00
99.8124 313.00
99.8776 292.00
99.9428 273.00
100.008 328.00
100.073 288.00
100.095 289.00