File: data/xrd_creation/results/Na_102.xy
9.903433 2624.00
9.968632 2611.00
10.0338 2644.00
10.099 2678.00
10.1642 2569.00
10.2294 2524.00
10.2946 2540.00
10.3598 2491.00
10.425 2377.00
10.4902 2489.00
10.5554 2410.00
10.6206 2413.00
10.6858 2392.00
10.751 2389.00
10.8162 2384.00
10.8814 2432.00
10.9466 2305.00
11.0118 2318.00
11.077 2323.00
11.1422 2240.00
11.2074 2224.00
11.2726 2225.00
11.3378 2159.00
11.403 2209.00
11.4682 2105.00
11.5334 2039.00
11.5986 2106.00
11.6638 2139.00
11.729 2015.00
11.7942 2188.00
11.8594 2055.00
11.9246 2036.00
11.9898 2070.00
12.055 1949.00
12.1202 1924.00
12.1854 1989.00
12.2506 1881.00
12.3158 1946.00
12.381 1918.00
12.4462 1867.00
12.5114 1907.00
12.5766 1794.00
12.6418 1884.00
12.707 1855.00
12.7722 1868.00
12.8374 1815.00
12.9026 1722.00
12.9678 1826.00
13.033 1720.00
13.0982 1767.00
13.1634 1765.00
13.2286 1741.00
13.2938 1710.00
13.359 1699.00
13.4242 1756.00
13.4894 1754.00
13.5546 1663.00
13.6198 1727.00
13.685 1653.00
13.7502 1660.00
13.8154 1599.00
13.8805 1556.00
13.9457 1607.00
14.0109 1631.00
14.0761 1586.00
14.1413 1641.00
14.2065 1708.00
14.2717 1690.00
14.3369 1687.00
14.4021 1596.00
14.4673 1626.00
14.5325 1622.00
14.5977 1654.00
14.6629 1500.00
14.7281 1491.00
14.7933 1536.00
14.8585 1536.00
14.9237 1405.00
14.9889 1443.00
15.0541 1455.00
15.1193 1409.00
15.1845 1477.00
15.2497 1434.00
15.3149 1404.00
15.3801 1422.00
15.4453 1394.00
15.5105 1375.00
15.5757 1329.00
15.6409 1336.00
15.7061 1346.00
15.7713 1351.00
15.8365 1395.00
15.9017 1374.00
15.9669 1379.00
16.0321 1282.00
16.0973 1283.00
16.1625 1301.00
16.2277 1359.00
16.2929 1303.00
16.3581 1388.00
16.4233 1257.00
16.4885 1287.00
16.5537 1381.00
16.6189 1328.00
16.6841 1285.00
16.7493 1311.00
16.8145 1325.00
16.8797 1323.00
16.9449 1357.00
17.0101 1368.00
17.0753 1301.00
17.1405 1179.00
17.2057 1241.00
17.2709 1268.00
17.3361 1215.00
17.4013 1206.00
17.4665 1239.00
17.5317 1189.00
17.5969 1243.00
17.6621 1291.00
17.7273 1241.00
17.7925 1207.00
17.8577 1192.00
17.9229 1170.00
17.9881 1209.00
18.0533 1223.00
18.1185 1126.00
18.1837 1217.00
18.2489 1157.00
18.3141 1303.00
18.3793 1186.00
18.4445 1199.00
18.5097 1159.00
18.5749 1216.00
18.6401 1149.00
18.7052 1089.00
18.7704 1125.00
18.8356 1154.00
18.9008 1135.00
18.966 1174.00
19.0312 1162.00
19.0964 1169.00
19.1616 1153.00
19.2268 1128.00
19.292 1137.00
19.3572 1191.00
19.4224 1194.00
19.4876 1193.00
19.5528 1296.00
19.618 1317.00
19.6832 1379.00
19.7484 1433.00
19.8136 1434.00
19.8788 1406.00
19.944 1398.00
20.0092 1311.00
20.0744 1186.00
20.1396 1252.00
20.2048 1143.00
20.27 1166.00
20.3352 1115.00
20.4004 1117.00
20.4656 1078.00
20.5308 1106.00
20.596 1122.00
20.6612 1078.00
20.7264 1067.00
20.7916 1096.00
20.8568 1162.00
20.922 1330.00
20.9872 1521.00
21.0524 1651.00
21.1176 1757.00
21.1828 1722.00
21.248 1600.00
21.3132 1388.00
21.3784 1125.00
21.4436 1089.00
21.5088 1056.00
21.574 1056.00
21.6392 985.00
21.7044 1090.00
21.7696 1030.00
21.8348 973.00
21.9 993.00
21.9652 994.00
22.0304 1020.00
22.0956 993.00
22.1608 1065.00
22.226 1099.00
22.2912 993.00
22.3564 1020.00
22.4216 1018.00
22.4868 1008.00
22.552 993.00
22.6172 994.00
22.6824 856.00
22.7476 977.00
22.8128 980.00
22.878 931.00
22.9432 929.00
23.0084 924.00
23.0736 997.00
23.1388 895.00
23.204 940.00
23.2692 859.00
23.3344 889.00
23.3996 905.00
23.4647 920.00
23.5299 918.00
23.5951 922.00
23.6603 975.00
23.7255 965.00
23.7907 914.00
23.8559 964.00
23.9211 1017.00
23.9863 1064.00
24.0515 1165.00
24.1167 1203.00
24.1819 1271.00
24.2471 1170.00
24.3123 1094.00
24.3775 1059.00
24.4427 1014.00
24.5079 980.00
24.5731 926.00
24.6383 949.00
24.7035 913.00
24.7687 833.00
24.8339 859.00
24.8991 931.00
24.9643 893.00
25.0295 915.00
25.0947 938.00
25.1599 918.00
25.2251 848.00
25.2903 844.00
25.3555 890.00
25.4207 866.00
25.4859 871.00
25.5511 901.00
25.6163 1044.00
25.6815 941.00
25.7467 1002.00
25.8119 1031.00
25.8771 958.00
25.9423 1021.00
26.0075 1033.00
26.0727 1084.00
26.1379 1100.00
26.2031 1114.00
26.2683 1074.00
26.3335 1220.00
26.3987 1343.00
26.4639 1399.00
26.5291 1330.00
26.5943 1301.00
26.6595 1276.00
26.7247 1272.00
26.7899 1162.00
26.8551 1106.00
26.9203 1043.00
26.9855 1060.00
27.0507 946.00
27.1159 975.00
27.1811 912.00
27.2463 928.00
27.3115 853.00
27.3767 917.00
27.4419 923.00
27.5071 918.00
27.5723 1006.00
27.6375 1055.00
27.7027 1042.00
27.7679 1054.00
27.8331 984.00
27.8983 937.00
27.9635 907.00
28.0287 882.00
28.0939 901.00
28.1591 831.00
28.2243 853.00
28.2894 827.00
28.3546 829.00
28.4198 826.00
28.485 799.00
28.5502 830.00
28.6154 863.00
28.6806 889.00
28.7458 881.00
28.811 894.00
28.8762 925.00
28.9414 1007.00
29.0066 1066.00
29.0718 1070.00
29.137 1089.00
29.2022 1072.00
29.2674 1086.00
29.3326 1041.00
29.3978 1032.00
29.463 1058.00
29.5282 956.00
29.5934 930.00
29.6586 890.00
29.7238 784.00
29.789 822.00
29.8542 841.00
29.9194 841.00
29.9846 825.00
30.0498 850.00
30.115 827.00
30.1802 765.00
30.2454 828.00
30.3106 844.00
30.3758 945.00
30.441 994.00
30.5062 985.00
30.5714 854.00
30.6366 867.00
30.7018 893.00
30.767 979.00
30.8322 1036.00
30.8974 1163.00
30.9626 1142.00
31.0278 1030.00
31.093 948.00
31.1582 921.00
31.2234 911.00
31.2886 839.00
31.3538 867.00
31.419 915.00
31.4842 1000.00
31.5494 1093.00
31.6146 1123.00
31.6798 1200.00
31.745 1322.00
31.8102 1256.00
31.8754 1139.00
31.9406 1041.00
32.0058 998.00
32.071 981.00
32.1362 938.00
32.2014 926.00
32.2666 882.00
32.3318 857.00
32.397 812.00
32.4622 829.00
32.5274 782.00
32.5926 776.00
32.6578 749.00
32.723 772.00
32.7882 828.00
32.8534 787.00
32.9186 801.00
32.9838 768.00
33.0489 732.00
33.1141 777.00
33.1793 789.00
33.2445 804.00
33.3097 825.00
33.3749 840.00
33.4401 863.00
33.5053 922.00
33.5705 951.00
33.6357 950.00
33.7009 1077.00
33.7661 1128.00
33.8313 1147.00
33.8965 1109.00
33.9617 1125.00
34.0269 1011.00
34.0921 952.00
34.1573 998.00
34.2225 1110.00
34.2877 1126.00
34.3529 1022.00
34.4181 932.00
34.4833 887.00
34.5485 706.00
34.6137 703.00
34.6789 663.00
34.7441 692.00
34.8093 645.00
34.8745 612.00
34.9397 618.00
35.0049 649.00
35.0701 685.00
35.1353 667.00
35.2005 614.00
35.2657 687.00
35.3309 654.00
35.3961 620.00
35.4613 603.00
35.5265 610.00
35.5917 625.00
35.6569 581.00
35.7221 599.00
35.7873 568.00
35.8525 577.00
35.9177 560.00
35.9829 556.00
36.0481 611.00
36.1133 634.00
36.1785 688.00
36.2437 674.00
36.3089 628.00
36.3741 646.00
36.4393 671.00
36.5045 683.00
36.5697 665.00
36.6349 628.00
36.7001 672.00
36.7653 698.00
36.8305 655.00
36.8957 672.00
36.9609 735.00
37.0261 805.00
37.0913 844.00
37.1565 840.00
37.2217 913.00
37.2869 920.00
37.3521 775.00
37.4173 728.00
37.4825 623.00
37.5477 688.00
37.6129 617.00
37.6781 609.00
37.7433 674.00
37.8085 649.00
37.8736 643.00
37.9388 683.00
38.004 640.00
38.0692 558.00
38.1344 577.00
38.1996 575.00
38.2648 544.00
38.33 517.00
38.3952 536.00
38.4604 493.00
38.5256 553.00
38.5908 500.00
38.656 513.00
38.7212 487.00
38.7864 535.00
38.8516 483.00
38.9168 550.00
38.982 505.00
39.0472 521.00
39.1124 560.00
39.1776 479.00
39.2428 521.00
39.308 501.00
39.3732 495.00
39.4384 472.00
39.5036 482.00
39.5688 531.00
39.634 476.00
39.6992 513.00
39.7644 501.00
39.8296 491.00
39.8948 472.00
39.96 480.00
40.0252 484.00
40.0904 442.00
40.1556 490.00
40.2208 472.00
40.286 464.00
40.3512 454.00
40.4164 475.00
40.4816 457.00
40.5468 470.00
40.612 440.00
40.6772 441.00
40.7424 458.00
40.8076 442.00
40.8728 513.00
40.938 436.00
41.0032 506.00
41.0684 488.00
41.1336 472.00
41.1988 415.00
41.264 459.00
41.3292 445.00
41.3944 469.00
41.4596 455.00
41.5248 507.00
41.59 509.00
41.6552 519.00
41.7204 504.00
41.7856 455.00
41.8508 444.00
41.916 482.00
41.9812 485.00
42.0464 457.00
42.1116 408.00
42.1768 418.00
42.242 423.00
42.3072 407.00
42.3724 410.00
42.4376 465.00
42.5028 442.00
42.568 429.00
42.6332 515.00
42.6983 468.00
42.7635 471.00
42.8287 491.00
42.8939 481.00
42.9591 478.00
43.0243 501.00
43.0895 509.00
43.1547 566.00
43.2199 485.00
43.2851 548.00
43.3503 496.00
43.4155 481.00
43.4807 501.00
43.5459 439.00
43.6111 457.00
43.6763 430.00
43.7415 448.00
43.8067 432.00
43.8719 462.00
43.9371 431.00
44.0023 472.00
44.0675 421.00
44.1327 488.00
44.1979 488.00
44.2631 516.00
44.3283 548.00
44.3935 520.00
44.4587 509.00
44.5239 518.00
44.5891 441.00
44.6543 519.00
44.7195 422.00
44.7847 457.00
44.8499 417.00
44.9151 425.00
44.9803 419.00
45.0455 404.00
45.1107 427.00
45.1759 407.00
45.2411 409.00
45.3063 425.00
45.3715 433.00
45.4367 453.00
45.5019 426.00
45.5671 426.00
45.6323 423.00
45.6975 394.00
45.7627 423.00
45.8279 461.00
45.8931 437.00
45.9583 438.00
46.0235 436.00
46.0887 394.00
46.1539 402.00
46.2191 398.00
46.2843 465.00
46.3495 459.00
46.4147 449.00
46.4799 434.00
46.5451 439.00
46.6103 430.00
46.6755 480.00
46.7407 486.00
46.8059 502.00
46.8711 535.00
46.9363 536.00
47.0015 513.00
47.0667 471.00
47.1319 469.00
47.1971 463.00
47.2623 449.00
47.3275 416.00
47.3927 449.00
47.4579 448.00
47.523 436.00
47.5882 401.00
47.6534 387.00
47.7186 437.00
47.7838 498.00
47.849 494.00
47.9142 467.00
47.9794 496.00
48.0446 500.00
48.1098 443.00
48.175 481.00
48.2402 458.00
48.3054 461.00
48.3706 469.00
48.4358 415.00
48.501 396.00
48.5662 418.00
48.6314 416.00
48.6966 434.00
48.7618 415.00
48.827 392.00
48.8922 380.00
48.9574 381.00
49.0226 389.00
49.0878 390.00
49.153 373.00
49.2182 413.00
49.2834 424.00
49.3486 451.00
49.4138 449.00
49.479 518.00
49.5442 493.00
49.6094 551.00
49.6746 500.00
49.7398 525.00
49.805 487.00
49.8702 465.00
49.9354 508.00
50.0006 447.00
50.0658 433.00
50.131 460.00
50.1962 453.00
50.2614 454.00
50.3266 423.00
50.3918 435.00
50.457 373.00
50.5222 418.00
50.5874 414.00
50.6526 422.00
50.7178 440.00
50.783 475.00
50.8482 450.00
50.9134 446.00
50.9786 459.00
51.0438 467.00
51.109 536.00
51.1742 524.00
51.2394 562.00
51.3046 546.00
51.3698 529.00
51.435 631.00
51.5002 675.00
51.5654 704.00
51.6306 722.00
51.6958 689.00
51.761 729.00
51.8262 822.00
51.8914 710.00
51.9566 717.00
52.0218 689.00
52.087 669.00
52.1522 650.00
52.2174 654.00
52.2826 652.00
52.3477 589.00
52.4129 590.00
52.4781 536.00
52.5433 506.00
52.6085 541.00
52.6737 512.00
52.7389 533.00
52.8041 510.00
52.8693 522.00
52.9345 507.00
52.9997 513.00
53.0649 439.00
53.1301 503.00
53.1953 432.00
53.2605 385.00
53.3257 430.00
53.3909 415.00
53.4561 413.00
53.5213 434.00
53.5865 425.00
53.6517 429.00
53.7169 458.00
53.7821 448.00
53.8473 383.00
53.9125 396.00
53.9777 407.00
54.0429 403.00
54.1081 430.00
54.1733 382.00
54.2385 405.00
54.3037 388.00
54.3689 373.00
54.4341 411.00
54.4993 422.00
54.5645 457.00
54.6297 430.00
54.6949 467.00
54.7601 433.00
54.8253 401.00
54.8905 426.00
54.9557 387.00
55.0209 398.00
55.0861 381.00
55.1513 359.00
55.2165 367.00
55.2817 356.00
55.3469 361.00
55.4121 348.00
55.4773 363.00
55.5425 351.00
55.6077 368.00
55.6729 357.00
55.7381 366.00
55.8033 326.00
55.8685 355.00
55.9337 372.00
55.9989 363.00
56.0641 381.00
56.1293 374.00
56.1945 391.00
56.2597 362.00
56.3249 354.00
56.3901 365.00
56.4553 369.00
56.5205 346.00
56.5857 366.00
56.6509 353.00
56.7161 352.00
56.7813 350.00
56.8465 367.00
56.9117 333.00
56.9769 306.00
57.042 350.00
57.1073 365.00
57.1724 333.00
57.2376 358.00
57.3028 423.00
57.368 403.00
57.4332 418.00
57.4984 418.00
57.5636 448.00
57.6288 420.00
57.694 424.00
57.7592 440.00
57.8244 470.00
57.8896 423.00
57.9548 463.00
58.02 433.00
58.0852 407.00
58.1504 474.00
58.2156 416.00
58.2808 439.00
58.346 459.00
58.4112 443.00
58.4764 416.00
58.5416 384.00
58.6068 349.00
58.672 383.00
58.7372 400.00
58.8024 406.00
58.8676 360.00
58.9328 358.00
58.998 319.00
59.0632 329.00
59.1284 329.00
59.1936 341.00
59.2588 354.00
59.324 338.00
59.3892 351.00
59.4544 420.00
59.5196 353.00
59.5848 321.00
59.65 362.00
59.7152 366.00
59.7804 325.00
59.8456 329.00
59.9108 347.00
59.976 314.00
60.0412 334.00
60.1064 319.00
60.1716 329.00
60.2368 349.00
60.302 314.00
60.3672 336.00
60.4324 315.00
60.4976 298.00
60.5628 365.00
60.628 362.00
60.6932 308.00
60.7584 320.00
60.8236 312.00
60.8888 325.00
60.954 342.00
61.0192 331.00
61.0844 348.00
61.1496 371.00
61.2148 388.00
61.28 363.00
61.3452 368.00
61.4104 393.00
61.4756 414.00
61.5408 432.00
61.606 458.00
61.6712 439.00
61.7364 416.00
61.8016 430.00
61.8667 418.00
61.932 385.00
61.9971 397.00
62.0623 442.00
62.1275 340.00
62.1927 431.00
62.2579 372.00
62.3231 327.00
62.3883 395.00
62.4535 363.00
62.5187 353.00
62.5839 373.00
62.6491 377.00
62.7143 373.00
62.7795 338.00
62.8447 355.00
62.9099 343.00
62.9751 381.00
63.0403 345.00
63.1055 336.00
63.1707 365.00
63.2359 346.00
63.3011 333.00
63.3663 389.00
63.4315 409.00
63.4967 387.00
63.5619 371.00
63.6271 380.00
63.6923 390.00
63.7575 407.00
63.8227 389.00
63.8879 356.00
63.9531 398.00
64.0183 358.00
64.0835 352.00
64.1487 418.00
64.2139 330.00
64.2791 319.00
64.3443 361.00
64.4095 371.00
64.4747 365.00
64.5399 392.00
64.6051 365.00
64.6703 398.00
64.7355 384.00
64.8007 343.00
64.8659 337.00
64.9311 359.00
64.9963 362.00
65.0615 319.00
65.1267 347.00
65.1919 336.00
65.2571 386.00
65.3223 344.00
65.3875 353.00
65.4527 375.00
65.5179 344.00
65.5831 383.00
65.6483 341.00
65.7135 360.00
65.7787 391.00
65.8439 436.00
65.9091 389.00
65.9743 370.00
66.0395 387.00
66.1047 398.00
66.1699 368.00
66.2351 396.00
66.3003 337.00
66.3655 368.00
66.4307 346.00
66.4959 406.00
66.561 348.00
66.6263 312.00
66.6915 303.00
66.7566 365.00
66.8218 306.00
66.887 317.00
66.9522 352.00
67.0174 338.00
67.0826 311.00
67.1478 353.00
67.213 352.00
67.2782 339.00
67.3434 324.00
67.4086 282.00
67.4738 323.00
67.539 298.00
67.6042 291.00
67.6694 281.00
67.7346 288.00
67.7998 234.00
67.865 294.00
67.9302 271.00
67.9954 270.00
68.0606 264.00
68.1258 256.00
68.191 246.00
68.2562 294.00
68.3214 247.00
68.3866 276.00
68.4518 278.00
68.517 238.00
68.5822 257.00
68.6474 227.00
68.7126 234.00
68.7778 289.00
68.843 261.00
68.9082 257.00
68.9734 227.00
69.0386 225.00
69.1038 248.00
69.169 257.00
69.2342 232.00
69.2994 258.00
69.3646 249.00
69.4298 257.00
69.495 239.00
69.5602 249.00
69.6254 249.00
69.6906 243.00
69.7558 248.00
69.821 248.00
69.8862 229.00
69.9514 260.00
70.0166 285.00
70.0818 268.00
70.147 293.00
70.2122 281.00
70.2774 265.00
70.3426 303.00
70.4078 282.00
70.473 307.00
70.5382 291.00
70.6034 282.00
70.6686 267.00
70.7338 284.00
70.799 264.00
70.8642 257.00
70.9294 269.00
70.9946 286.00
71.0598 271.00
71.125 298.00
71.1902 308.00
71.2554 308.00
71.3205 282.00
71.3858 271.00
71.451 301.00
71.5162 289.00
71.5813 292.00
71.6465 281.00
71.7117 267.00
71.7769 295.00
71.8421 290.00
71.9073 267.00
71.9725 263.00
72.0377 276.00
72.1029 303.00
72.1681 277.00
72.2333 261.00
72.2985 265.00
72.3637 269.00
72.4289 294.00
72.4941 299.00
72.5593 279.00
72.6245 238.00
72.6897 256.00
72.7549 275.00
72.8201 259.00
72.8853 290.00
72.9505 263.00
73.0157 238.00
73.0809 221.00
73.1461 256.00
73.2113 240.00
73.2765 218.00
73.3417 228.00
73.4069 235.00
73.4721 250.00
73.5373 258.00
73.6025 243.00
73.6677 260.00
73.7329 264.00
73.7981 221.00
73.8633 269.00
73.9285 239.00
73.9937 236.00
74.0589 212.00
74.1241 260.00
74.1893 227.00
74.2545 238.00
74.3197 227.00
74.3849 274.00
74.4501 244.00
74.5153 246.00
74.5805 292.00
74.6457 245.00
74.7109 268.00
74.7761 277.00
74.8413 280.00
74.9065 261.00
74.9717 309.00
75.0369 297.00
75.1021 282.00
75.1673 305.00
75.2325 294.00
75.2977 319.00
75.3629 274.00
75.4281 268.00
75.4933 288.00
75.5585 296.00
75.6237 276.00
75.6889 287.00
75.7541 303.00
75.8193 281.00
75.8845 263.00
75.9497 250.00
76.0149 282.00
76.0801 256.00
76.1452 244.00
76.2104 266.00
76.2756 281.00
76.3409 250.00
76.406 262.00
76.4712 249.00
76.5364 261.00
76.6016 264.00
76.6668 233.00
76.732 266.00
76.7972 236.00
76.8624 284.00
76.9276 298.00
76.9928 287.00
77.058 243.00
77.1232 246.00
77.1884 244.00
77.2536 261.00
77.3188 281.00
77.384 265.00
77.4492 270.00
77.5144 287.00
77.5796 259.00
77.6448 258.00
77.71 278.00
77.7752 226.00
77.8404 276.00
77.9056 297.00
77.9708 235.00
78.036 284.00
78.1012 266.00
78.1664 268.00
78.2316 279.00
78.2968 266.00
78.362 292.00
78.4272 306.00
78.4924 289.00
78.5576 284.00
78.6228 293.00
78.688 316.00
78.7532 309.00
78.8184 302.00
78.8836 314.00
78.9488 308.00
79.014 303.00
79.0792 307.00
79.1444 294.00
79.2096 301.00
79.2748 280.00
79.34 327.00
79.4052 286.00
79.4704 297.00
79.5356 298.00
79.6008 305.00
79.666 289.00
79.7312 274.00
79.7964 243.00
79.8616 269.00
79.9268 291.00
79.992 272.00
80.0572 277.00
80.1224 257.00
80.1876 289.00
80.2528 242.00
80.318 285.00
80.3832 266.00
80.4484 233.00
80.5136 275.00
80.5788 290.00
80.644 276.00
80.7092 274.00
80.7744 284.00
80.8396 273.00
80.9048 271.00
80.9699 284.00
81.0351 291.00
81.1003 285.00
81.1655 291.00
81.2307 275.00
81.2959 243.00
81.3611 278.00
81.4263 267.00
81.4915 258.00
81.5567 270.00
81.6219 248.00
81.6871 285.00
81.7523 282.00
81.8175 257.00
81.8827 302.00
81.9479 292.00
82.0131 273.00
82.0783 233.00
82.1435 232.00
82.2087 231.00
82.2739 264.00
82.3391 277.00
82.4043 268.00
82.4695 290.00
82.5347 280.00
82.5999 241.00
82.6651 263.00
82.7303 286.00
82.7955 289.00
82.8607 290.00
82.9259 307.00
82.9911 304.00
83.0563 282.00
83.1215 290.00
83.1867 306.00
83.2519 300.00
83.3171 304.00
83.3823 309.00
83.4475 286.00
83.5127 283.00
83.5779 299.00
83.6431 294.00
83.7083 315.00
83.7735 275.00
83.8387 273.00
83.9039 282.00
83.9691 294.00
84.0343 303.00
84.0995 301.00
84.1647 300.00
84.2299 282.00
84.2951 238.00
84.3603 280.00
84.4255 269.00
84.4907 275.00
84.5559 263.00
84.6211 276.00
84.6863 239.00
84.7515 222.00
84.8167 289.00
84.8819 258.00
84.9471 271.00
85.0123 262.00
85.0775 240.00
85.1427 242.00
85.2079 231.00
85.2731 231.00
85.3383 220.00
85.4035 232.00
85.4687 244.00
85.5339 265.00
85.5991 269.00
85.6643 230.00
85.7295 238.00
85.7946 240.00
85.8598 224.00
85.925 266.00
85.9903 228.00
86.0554 292.00
86.1206 287.00
86.1858 267.00
86.251 244.00
86.3162 277.00
86.3814 276.00
86.4466 287.00
86.5118 247.00
86.577 292.00
86.6422 246.00
86.7074 242.00
86.7726 245.00
86.8378 290.00
86.903 247.00
86.9682 274.00
87.0334 259.00
87.0986 284.00
87.1638 256.00
87.229 280.00
87.2942 273.00
87.3594 305.00
87.4246 261.00
87.4898 301.00
87.555 273.00
87.6202 265.00
87.6854 288.00
87.7506 273.00
87.8158 272.00
87.881 238.00
87.9462 267.00
88.0114 268.00
88.0766 259.00
88.1418 226.00
88.207 271.00
88.2722 281.00
88.3374 271.00
88.4026 257.00
88.4678 231.00
88.533 269.00
88.5982 288.00
88.6634 277.00
88.7286 244.00
88.7938 278.00
88.859 220.00
88.9242 256.00
88.9894 243.00
89.0546 284.00
89.1198 256.00
89.185 275.00
89.2502 266.00
89.3154 282.00
89.3806 272.00
89.4458 270.00
89.511 263.00
89.5762 238.00
89.6414 271.00
89.7066 294.00
89.7718 314.00
89.837 296.00
89.9022 288.00
89.9674 270.00
90.0326 308.00
90.0978 316.00
90.163 293.00
90.2282 246.00
90.2934 272.00
90.3586 278.00
90.4238 263.00
90.489 280.00
90.5542 282.00
90.6193 314.00
90.6845 302.00
90.7497 271.00
90.8149 312.00
90.8801 281.00
90.9453 288.00
91.0105 303.00
91.0757 305.00
91.1409 274.00
91.2061 261.00
91.2713 279.00
91.3365 300.00
91.4017 250.00
91.4669 286.00
91.5321 267.00
91.5973 263.00
91.6625 273.00
91.7277 273.00
91.7929 258.00
91.8581 245.00
91.9233 234.00
91.9885 265.00
92.0537 259.00
92.1189 228.00
92.1841 250.00
92.2493 225.00
92.3145 261.00
92.3797 195.00
92.4449 229.00
92.5101 259.00
92.5753 194.00
92.6405 224.00
92.7057 201.00
92.7709 275.00
92.8361 242.00
92.9013 273.00
92.9665 245.00
93.0317 225.00
93.0969 274.00
93.1621 256.00
93.2273 233.00
93.2925 278.00
93.3577 244.00
93.4229 268.00
93.4881 280.00
93.5533 250.00
93.6185 239.00
93.6837 249.00
93.7489 256.00
93.8141 280.00
93.8793 259.00
93.9445 232.00
94.0097 265.00
94.0749 309.00
94.1401 280.00
94.2053 234.00
94.2705 247.00
94.3357 256.00
94.4009 240.00
94.4661 225.00
94.5313 260.00
94.5965 202.00
94.6617 235.00
94.7269 235.00
94.7921 250.00
94.8573 241.00
94.9225 220.00
94.9877 263.00
95.0529 217.00
95.1181 237.00
95.1833 235.00
95.2485 280.00
95.3137 248.00
95.3789 235.00
95.444 239.00
95.5092 243.00
95.5744 261.00
95.6396 222.00
95.7048 237.00
95.77 259.00
95.8352 235.00
95.9004 236.00
95.9656 265.00
96.0308 238.00
96.096 269.00
96.1612 249.00
96.2264 262.00
96.2916 245.00
96.3568 235.00
96.422 266.00
96.4872 261.00
96.5524 223.00
96.6176 257.00
96.6828 231.00
96.748 239.00
96.8132 219.00
96.8784 210.00
96.9436 238.00
97.0088 238.00
97.074 194.00
97.1392 218.00
97.2044 243.00
97.2696 219.00
97.3348 225.00
97.4 234.00
97.4652 205.00
97.5304 233.00
97.5956 225.00
97.6608 186.00
97.726 224.00
97.7912 233.00
97.8564 244.00
97.9216 230.00
97.9868 241.00
98.052 209.00
98.1172 204.00
98.1824 237.00
98.2476 211.00
98.3128 241.00
98.378 245.00
98.4432 247.00
98.5084 242.00
98.5736 239.00
98.6388 265.00
98.704 216.00
98.7692 220.00
98.8344 235.00
98.8996 214.00
98.9648 261.00
99.03 200.00
99.0952 236.00
99.1604 248.00
99.2256 231.00
99.2908 222.00
99.356 241.00
99.4212 234.00
99.4864 223.00
99.5516 211.00
99.6168 237.00
99.682 227.00
99.7472 231.00
99.8124 226.00
99.8776 240.00
99.9428 229.00
100.008 234.00
100.073 233.00
100.095 228.00