File: data/xrd_creation/results/Na_299.xy
9.903433 2775.00
9.968632 2763.00
10.0338 2766.00
10.099 2742.00
10.1642 2692.00
10.2294 2706.00
10.2946 2781.00
10.3598 2682.00
10.425 2698.00
10.4902 2589.00
10.5554 2685.00
10.6206 2511.00
10.6858 2619.00
10.751 2517.00
10.8162 2452.00
10.8814 2481.00
10.9466 2439.00
11.0118 2438.00
11.077 2443.00
11.1422 2422.00
11.2074 2379.00
11.2726 2349.00
11.3378 2366.00
11.403 2235.00
11.4682 2367.00
11.5334 2327.00
11.5986 2182.00
11.6638 2342.00
11.729 2137.00
11.7942 2157.00
11.8594 2257.00
11.9246 2167.00
11.9898 2087.00
12.055 2131.00
12.1202 2243.00
12.1854 2097.00
12.2506 2121.00
12.3158 2145.00
12.381 2094.00
12.4462 2019.00
12.5114 2049.00
12.5766 2128.00
12.6418 2154.00
12.707 2029.00
12.7722 2101.00
12.8374 1977.00
12.9026 1996.00
12.9678 2038.00
13.033 2052.00
13.0982 1940.00
13.1634 1981.00
13.2286 2003.00
13.2938 1851.00
13.359 1903.00
13.4242 1929.00
13.4894 1866.00
13.5546 1825.00
13.6198 1843.00
13.685 1867.00
13.7502 1814.00
13.8154 1915.00
13.8805 1824.00
13.9457 1943.00
14.0109 1795.00
14.0761 1771.00
14.1413 1826.00
14.2065 1801.00
14.2717 1885.00
14.3369 1828.00
14.4021 1856.00
14.4673 1823.00
14.5325 1743.00
14.5977 1798.00
14.6629 1868.00
14.7281 1757.00
14.7933 1769.00
14.8585 1657.00
14.9237 1715.00
14.9889 1720.00
15.0541 1739.00
15.1193 1677.00
15.1845 1769.00
15.2497 1815.00
15.3149 1681.00
15.3801 1698.00
15.4453 1714.00
15.5105 1726.00
15.5757 1689.00
15.6409 1664.00
15.7061 1680.00
15.7713 1638.00
15.8365 1644.00
15.9017 1700.00
15.9669 1554.00
16.0321 1683.00
16.0973 1582.00
16.1625 1606.00
16.2277 1568.00
16.2929 1620.00
16.3581 1570.00
16.4233 1609.00
16.4885 1591.00
16.5537 1616.00
16.6189 1666.00
16.6841 1629.00
16.7493 1643.00
16.8145 1619.00
16.8797 1665.00
16.9449 1609.00
17.0101 1610.00
17.0753 1562.00
17.1405 1599.00
17.2057 1523.00
17.2709 1547.00
17.3361 1576.00
17.4013 1549.00
17.4665 1515.00
17.5317 1560.00
17.5969 1478.00
17.6621 1576.00
17.7273 1481.00
17.7925 1519.00
17.8577 1487.00
17.9229 1557.00
17.9881 1448.00
18.0533 1469.00
18.1185 1511.00
18.1837 1482.00
18.2489 1518.00
18.3141 1437.00
18.3793 1477.00
18.4445 1530.00
18.5097 1423.00
18.5749 1375.00
18.6401 1427.00
18.7052 1470.00
18.7704 1461.00
18.8356 1428.00
18.9008 1484.00
18.966 1586.00
19.0312 1516.00
19.0964 1493.00
19.1616 1446.00
19.2268 1398.00
19.292 1462.00
19.3572 1488.00
19.4224 1397.00
19.4876 1432.00
19.5528 1434.00
19.618 1396.00
19.6832 1497.00
19.7484 1547.00
19.8136 1585.00
19.8788 1655.00
19.944 1915.00
20.0092 2350.00
20.0744 2549.00
20.1396 2644.00
20.2048 2535.00
20.27 2030.00
20.3352 1817.00
20.4004 1809.00
20.4656 1961.00
20.5308 2608.00
20.596 3811.00
20.6612 6358.00
20.7264 11262.00
20.7916 11609.00
20.8568 7724.00
20.922 3965.00
20.9872 2237.00
21.0524 1664.00
21.1176 1517.00
21.1828 1407.00
21.248 1393.00
21.3132 1328.00
21.3784 1420.00
21.4436 1247.00
21.5088 1381.00
21.574 1306.00
21.6392 1340.00
21.7044 1294.00
21.7696 1287.00
21.8348 1365.00
21.9 1328.00
21.9652 1328.00
22.0304 1377.00
22.0956 1331.00
22.1608 1304.00
22.226 1333.00
22.2912 1287.00
22.3564 1302.00
22.4216 1287.00
22.4868 1314.00
22.552 1228.00
22.6172 1278.00
22.6824 1261.00
22.7476 1250.00
22.8128 1318.00
22.878 1335.00
22.9432 1325.00
23.0084 1322.00
23.0736 1371.00
23.1388 1293.00
23.204 1269.00
23.2692 1269.00
23.3344 1313.00
23.3996 1275.00
23.4647 1265.00
23.5299 1286.00
23.5951 1249.00
23.6603 1277.00
23.7255 1326.00
23.7907 1252.00
23.8559 1240.00
23.9211 1326.00
23.9863 1407.00
24.0515 1436.00
24.1167 1462.00
24.1819 1453.00
24.2471 1466.00
24.3123 1560.00
24.3775 1658.00
24.4427 1815.00
24.5079 1950.00
24.5731 1875.00
24.6383 1696.00
24.7035 1395.00
24.7687 1206.00
24.8339 1167.00
24.8991 1147.00
24.9643 1113.00
25.0295 1193.00
25.0947 1166.00
25.1599 1209.00
25.2251 1158.00
25.2903 1162.00
25.3555 1149.00
25.4207 1229.00
25.4859 1208.00
25.5511 1175.00
25.6163 1153.00
25.6815 1173.00
25.7467 1120.00
25.8119 1199.00
25.8771 1104.00
25.9423 1159.00
26.0075 1192.00
26.0727 1128.00
26.1379 1208.00
26.2031 1313.00
26.2683 1438.00
26.3335 1815.00
26.3987 2385.00
26.4639 2454.00
26.5291 1760.00
26.5943 1282.00
26.6595 1241.00
26.7247 1158.00
26.7899 1154.00
26.8551 1103.00
26.9203 1142.00
26.9855 1088.00
27.0507 1063.00
27.1159 1134.00
27.1811 1138.00
27.2463 1089.00
27.3115 1125.00
27.3767 1065.00
27.4419 1141.00
27.5071 1107.00
27.5723 1090.00
27.6375 1198.00
27.7027 1090.00
27.7679 1044.00
27.8331 1108.00
27.8983 1112.00
27.9635 1099.00
28.0287 1070.00
28.0939 1122.00
28.1591 1154.00
28.2243 1184.00
28.2894 1116.00
28.3546 1062.00
28.4198 1078.00
28.485 1133.00
28.5502 1022.00
28.6154 1095.00
28.6806 979.00
28.7458 1049.00
28.811 1065.00
28.8762 1032.00
28.9414 1053.00
29.0066 1086.00
29.0718 1122.00
29.137 1103.00
29.2022 1027.00
29.2674 1125.00
29.3326 1076.00
29.3978 1060.00
29.463 1067.00
29.5282 1042.00
29.5934 1095.00
29.6586 1063.00
29.7238 1096.00
29.789 991.00
29.8542 1088.00
29.9194 1009.00
29.9846 1036.00
30.0498 1024.00
30.115 1037.00
30.1802 1054.00
30.2454 1053.00
30.3106 1047.00
30.3758 1115.00
30.441 1174.00
30.5062 1150.00
30.5714 1137.00
30.6366 1137.00
30.7018 1099.00
30.767 1190.00
30.8322 1204.00
30.8974 1125.00
30.9626 1048.00
31.0278 1113.00
31.093 1044.00
31.1582 1081.00
31.2234 1109.00
31.2886 1096.00
31.3538 1086.00
31.419 1063.00
31.4842 1132.00
31.5494 1066.00
31.6146 1031.00
31.6798 1135.00
31.745 1103.00
31.8102 1076.00
31.8754 1102.00
31.9406 1117.00
32.0058 1023.00
32.071 1060.00
32.1362 1067.00
32.2014 1084.00
32.2666 1044.00
32.3318 1070.00
32.397 1099.00
32.4622 1219.00
32.5274 1298.00
32.5926 1689.00
32.6578 2139.00
32.723 2367.00
32.7882 2223.00
32.8534 1895.00
32.9186 1530.00
32.9838 1397.00
33.0489 1451.00
33.1141 1827.00
33.1793 1955.00
33.2445 1934.00
33.3097 1663.00
33.3749 1536.00
33.4401 1630.00
33.5053 1859.00
33.5705 2204.00
33.6357 2355.00
33.7009 2065.00
33.7661 1823.00
33.8313 1569.00
33.8965 1431.00
33.9617 1573.00
34.0269 1963.00
34.0921 3293.00
34.1573 7560.00
34.2225 9061.00
34.2877 7878.00
34.3529 4353.00
34.4181 2295.00
34.4833 1449.00
34.5485 1183.00
34.6137 1142.00
34.6789 1131.00
34.7441 1171.00
34.8093 1163.00
34.8745 1209.00
34.9397 1197.00
35.0049 1191.00
35.0701 1145.00
35.1353 1099.00
35.2005 1065.00
35.2657 1058.00
35.3309 1015.00
35.3961 935.00
35.4613 910.00
35.5265 921.00
35.5917 933.00
35.6569 967.00
35.7221 965.00
35.7873 1045.00
35.8525 1011.00
35.9177 1053.00
35.9829 1191.00
36.0481 1319.00
36.1133 1616.00
36.1785 1950.00
36.2437 2048.00
36.3089 1792.00
36.3741 1467.00
36.4393 1161.00
36.5045 1009.00
36.5697 935.00
36.6349 930.00
36.7001 970.00
36.7653 995.00
36.8305 1016.00
36.8957 1057.00
36.9609 936.00
37.0261 920.00
37.0913 958.00
37.1565 954.00
37.2217 986.00
37.2869 980.00
37.3521 963.00
37.4173 940.00
37.4825 830.00
37.5477 882.00
37.6129 811.00
37.6781 851.00
37.7433 843.00
37.8085 818.00
37.8736 908.00
37.9388 812.00
38.004 865.00
38.0692 865.00
38.1344 860.00
38.1996 904.00
38.2648 1030.00
38.33 1052.00
38.3952 1249.00
38.4604 1303.00
38.5256 1376.00
38.5908 1175.00
38.656 1027.00
38.7212 930.00
38.7864 814.00
38.8516 914.00
38.9168 859.00
38.982 856.00
39.0472 877.00
39.1124 894.00
39.1776 905.00
39.2428 853.00
39.308 904.00
39.3732 882.00
39.4384 877.00
39.5036 835.00
39.5688 802.00
39.634 856.00
39.6992 896.00
39.7644 915.00
39.8296 893.00
39.8948 862.00
39.96 895.00
40.0252 909.00
40.0904 951.00
40.1556 938.00
40.2208 845.00
40.286 967.00
40.3512 894.00
40.4164 967.00
40.4816 877.00
40.5468 825.00
40.612 824.00
40.6772 795.00
40.7424 793.00
40.8076 790.00
40.8728 820.00
40.938 830.00
41.0032 841.00
41.0684 798.00
41.1336 808.00
41.1988 870.00
41.264 917.00
41.3292 916.00
41.3944 1067.00
41.4596 1147.00
41.5248 1161.00
41.59 1087.00
41.6552 1017.00
41.7204 857.00
41.7856 807.00
41.8508 810.00
41.916 802.00
41.9812 897.00
42.0464 864.00
42.1116 891.00
42.1768 1068.00
42.242 1022.00
42.3072 1080.00
42.3724 914.00
42.4376 863.00
42.5028 823.00
42.568 802.00
42.6332 828.00
42.6983 819.00
42.7635 792.00
42.8287 763.00
42.8939 745.00
42.9591 754.00
43.0243 728.00
43.0895 751.00
43.1547 768.00
43.2199 842.00
43.2851 766.00
43.3503 799.00
43.4155 791.00
43.4807 793.00
43.5459 853.00
43.6111 974.00
43.6763 935.00
43.7415 881.00
43.8067 850.00
43.8719 817.00
43.9371 823.00
44.0023 814.00
44.0675 780.00
44.1327 810.00
44.1979 817.00
44.2631 787.00
44.3283 830.00
44.3935 780.00
44.4587 830.00
44.5239 746.00
44.5891 810.00
44.6543 800.00
44.7195 833.00
44.7847 831.00
44.8499 818.00
44.9151 732.00
44.9803 738.00
45.0455 714.00
45.1107 689.00
45.1759 683.00
45.2411 786.00
45.3063 733.00
45.3715 681.00
45.4367 667.00
45.5019 727.00
45.5671 734.00
45.6323 690.00
45.6975 675.00
45.7627 696.00
45.8279 678.00
45.8931 672.00
45.9583 702.00
46.0235 678.00
46.0887 733.00
46.1539 700.00
46.2191 724.00
46.2843 746.00
46.3495 675.00
46.4147 715.00
46.4799 746.00
46.5451 731.00
46.6103 711.00
46.6755 716.00
46.7407 702.00
46.8059 729.00
46.8711 741.00
46.9363 717.00
47.0015 778.00
47.0667 710.00
47.1319 760.00
47.1971 825.00
47.2623 983.00
47.3275 1008.00
47.3927 988.00
47.4579 817.00
47.523 801.00
47.5882 741.00
47.6534 784.00
47.7186 767.00
47.7838 712.00
47.849 737.00
47.9142 749.00
47.9794 717.00
48.0446 694.00
48.1098 711.00
48.175 699.00
48.2402 648.00
48.3054 680.00
48.3706 715.00
48.4358 675.00
48.501 705.00
48.5662 736.00
48.6314 757.00
48.6966 772.00
48.7618 705.00
48.827 779.00
48.8922 746.00
48.9574 841.00
49.0226 918.00
49.0878 1109.00
49.153 1336.00
49.2182 1277.00
49.2834 1199.00
49.3486 1034.00
49.4138 901.00
49.479 766.00
49.5442 721.00
49.6094 762.00
49.6746 651.00
49.7398 720.00
49.805 730.00
49.8702 693.00
49.9354 715.00
50.0006 750.00
50.0658 790.00
50.131 978.00
50.1962 1105.00
50.2614 1147.00
50.3266 1051.00
50.3918 922.00
50.457 813.00
50.5222 719.00
50.5874 687.00
50.6526 696.00
50.7178 658.00
50.783 632.00
50.8482 683.00
50.9134 647.00
50.9786 663.00
51.0438 655.00
51.109 666.00
51.1742 647.00
51.2394 696.00
51.3046 682.00
51.3698 617.00
51.435 677.00
51.5002 652.00
51.5654 672.00
51.6306 682.00
51.6958 719.00
51.761 688.00
51.8262 694.00
51.8914 677.00
51.9566 693.00
52.0218 759.00
52.087 688.00
52.1522 698.00
52.2174 715.00
52.2826 650.00
52.3477 703.00
52.4129 696.00
52.4781 678.00
52.5433 652.00
52.6085 622.00
52.6737 591.00
52.7389 636.00
52.8041 671.00
52.8693 671.00
52.9345 742.00
52.9997 712.00
53.0649 658.00
53.1301 670.00
53.1953 655.00
53.2605 646.00
53.3257 656.00
53.3909 686.00
53.4561 657.00
53.5213 644.00
53.5865 741.00
53.6517 683.00
53.7169 711.00
53.7821 694.00
53.8473 727.00
53.9125 777.00
53.9777 674.00
54.0429 725.00
54.1081 755.00
54.1733 680.00
54.2385 754.00
54.3037 703.00
54.3689 905.00
54.4341 828.00
54.4993 773.00
54.5645 767.00
54.6297 802.00
54.6949 1067.00
54.7601 1395.00
54.8253 1692.00
54.8905 1711.00
54.9557 1521.00
55.0209 1220.00
55.0861 1088.00
55.1513 830.00
55.2165 753.00
55.2817 727.00
55.3469 707.00
55.4121 727.00
55.4773 686.00
55.5425 667.00
55.6077 651.00
55.6729 627.00
55.7381 615.00
55.8033 636.00
55.8685 659.00
55.9337 599.00
55.9989 664.00
56.0641 627.00
56.1293 654.00
56.1945 655.00
56.2597 605.00
56.3249 618.00
56.3901 656.00
56.4553 646.00
56.5205 650.00
56.5857 600.00
56.6509 638.00
56.7161 678.00
56.7813 687.00
56.8465 655.00
56.9117 649.00
56.9769 636.00
57.042 605.00
57.1073 599.00
57.1724 639.00
57.2376 655.00
57.3028 652.00
57.368 629.00
57.4332 699.00
57.4984 599.00
57.5636 580.00
57.6288 598.00
57.694 652.00
57.7592 664.00
57.8244 599.00
57.8896 590.00
57.9548 627.00
58.02 607.00
58.0852 645.00
58.1504 620.00
58.2156 605.00
58.2808 632.00
58.346 699.00
58.4112 697.00
58.4764 677.00
58.5416 683.00
58.6068 643.00
58.672 648.00
58.7372 656.00
58.8024 660.00
58.8676 680.00
58.9328 715.00
58.998 802.00
59.0632 720.00
59.1284 759.00
59.1936 716.00
59.2588 682.00
59.324 689.00
59.3892 717.00
59.4544 665.00
59.5196 624.00
59.5848 639.00
59.65 673.00
59.7152 675.00
59.7804 649.00
59.8456 658.00
59.9108 655.00
59.976 570.00
60.0412 560.00
60.1064 570.00
60.1716 578.00
60.2368 577.00
60.302 549.00
60.3672 582.00
60.4324 606.00
60.4976 591.00
60.5628 595.00
60.628 615.00
60.6932 609.00
60.7584 599.00
60.8236 598.00
60.8888 681.00
60.954 644.00
61.0192 664.00
61.0844 726.00
61.1496 990.00
61.2148 1380.00
61.28 1525.00
61.3452 1270.00
61.4104 1215.00
61.4756 1036.00
61.5408 841.00
61.606 701.00
61.6712 657.00
61.7364 617.00
61.8016 631.00
61.8667 648.00
61.932 570.00
61.9971 605.00
62.0623 579.00
62.1275 653.00
62.1927 615.00
62.2579 581.00
62.3231 642.00
62.3883 573.00
62.4535 621.00
62.5187 562.00
62.5839 634.00
62.6491 562.00
62.7143 651.00
62.7795 702.00
62.8447 662.00
62.9099 655.00
62.9751 652.00
63.0403 665.00
63.1055 662.00
63.1707 615.00
63.2359 596.00
63.3011 672.00
63.3663 808.00
63.4315 911.00
63.4967 956.00
63.5619 865.00
63.6271 851.00
63.6923 731.00
63.7575 639.00
63.8227 608.00
63.8879 618.00
63.9531 609.00
64.0183 593.00
64.0835 573.00
64.1487 572.00
64.2139 613.00
64.2791 538.00
64.3443 592.00
64.4095 523.00
64.4747 592.00
64.5399 591.00
64.6051 537.00
64.6703 600.00
64.7355 602.00
64.8007 601.00
64.8659 619.00
64.9311 778.00
64.9963 829.00
65.0615 1042.00
65.1267 1136.00
65.1919 1145.00
65.2571 1135.00
65.3223 1217.00
65.3875 1102.00
65.4527 937.00
65.5179 850.00
65.5831 804.00
65.6483 641.00
65.7135 620.00
65.7787 572.00
65.8439 562.00
65.9091 595.00
65.9743 585.00
66.0395 536.00
66.1047 572.00
66.1699 577.00
66.2351 522.00
66.3003 550.00
66.3655 550.00
66.4307 527.00
66.4959 514.00
66.561 540.00
66.6263 544.00
66.6915 529.00
66.7566 538.00
66.8218 552.00
66.887 515.00
66.9522 491.00
67.0174 525.00
67.0826 544.00
67.1478 524.00
67.213 543.00
67.2782 531.00
67.3434 547.00
67.4086 575.00
67.4738 573.00
67.539 536.00
67.6042 546.00
67.6694 529.00
67.7346 551.00
67.7998 527.00
67.865 511.00
67.9302 555.00
67.9954 482.00
68.0606 498.00
68.1258 522.00
68.191 505.00
68.2562 533.00
68.3214 561.00
68.3866 481.00
68.4518 528.00
68.517 508.00
68.5822 531.00
68.6474 535.00
68.7126 474.00
68.7778 527.00
68.843 483.00
68.9082 543.00
68.9734 550.00
69.0386 534.00
69.1038 510.00
69.169 486.00
69.2342 494.00
69.2994 517.00
69.3646 513.00
69.4298 533.00
69.495 562.00
69.5602 542.00
69.6254 594.00
69.6906 600.00
69.7558 572.00
69.821 533.00
69.8862 514.00
69.9514 543.00
70.0166 538.00
70.0818 511.00
70.147 542.00
70.2122 506.00
70.2774 522.00
70.3426 536.00
70.4078 513.00
70.473 498.00
70.5382 547.00
70.6034 483.00
70.6686 522.00
70.7338 482.00
70.799 483.00
70.8642 534.00
70.9294 522.00
70.9946 477.00
71.0598 493.00
71.125 552.00
71.1902 511.00
71.2554 510.00
71.3205 482.00
71.3858 478.00
71.451 498.00
71.5162 495.00
71.5813 483.00
71.6465 522.00
71.7117 505.00
71.7769 505.00
71.8421 588.00
71.9073 535.00
71.9725 677.00
72.0377 762.00
72.1029 736.00
72.1681 777.00
72.2333 677.00
72.2985 575.00
72.3637 602.00
72.4289 522.00
72.4941 518.00
72.5593 538.00
72.6245 546.00
72.6897 549.00
72.7549 578.00
72.8201 683.00
72.8853 676.00
72.9505 656.00
73.0157 684.00
73.0809 633.00
73.1461 624.00
73.2113 619.00
73.2765 578.00
73.3417 587.00
73.4069 568.00
73.4721 536.00
73.5373 529.00
73.6025 524.00
73.6677 505.00
73.7329 551.00
73.7981 494.00
73.8633 504.00
73.9285 494.00
73.9937 546.00
74.0589 484.00
74.1241 488.00
74.1893 506.00
74.2545 483.00
74.3197 554.00
74.3849 522.00
74.4501 446.00
74.5153 521.00
74.5805 502.00
74.6457 484.00
74.7109 518.00
74.7761 505.00
74.8413 490.00
74.9065 526.00
74.9717 519.00
75.0369 471.00
75.1021 471.00
75.1673 478.00
75.2325 517.00
75.2977 595.00
75.3629 542.00
75.4281 526.00
75.4933 518.00
75.5585 486.00
75.6237 502.00
75.6889 497.00
75.7541 496.00
75.8193 561.00
75.8845 575.00
75.9497 556.00
76.0149 582.00
76.0801 536.00
76.1452 580.00
76.2104 536.00
76.2756 528.00
76.3409 522.00
76.406 515.00
76.4712 521.00
76.5364 498.00
76.6016 530.00
76.6668 546.00
76.732 517.00
76.7972 604.00
76.8624 574.00
76.9276 584.00
76.9928 571.00
77.058 508.00
77.1232 537.00
77.1884 492.00
77.2536 497.00
77.3188 534.00
77.384 510.00
77.4492 509.00
77.5144 458.00
77.5796 477.00
77.6448 441.00
77.71 488.00
77.7752 477.00
77.8404 504.00
77.9056 509.00
77.9708 509.00
78.036 451.00
78.1012 497.00
78.1664 486.00
78.2316 566.00
78.2968 501.00
78.362 500.00
78.4272 510.00
78.4924 504.00
78.5576 520.00
78.6228 481.00
78.688 501.00
78.7532 512.00
78.8184 521.00
78.8836 482.00
78.9488 553.00
79.014 553.00
79.0792 611.00
79.1444 598.00
79.2096 589.00
79.2748 577.00
79.34 558.00
79.4052 562.00
79.4704 526.00
79.5356 495.00
79.6008 509.00
79.666 497.00
79.7312 467.00
79.7964 482.00
79.8616 500.00
79.9268 485.00
79.992 504.00
80.0572 480.00
80.1224 497.00
80.1876 486.00
80.2528 482.00
80.318 473.00
80.3832 484.00
80.4484 497.00
80.5136 469.00
80.5788 492.00
80.644 488.00
80.7092 485.00
80.7744 511.00
80.8396 501.00
80.9048 479.00
80.9699 480.00
81.0351 469.00
81.1003 485.00
81.1655 521.00
81.2307 508.00
81.2959 465.00
81.3611 509.00
81.4263 487.00
81.4915 465.00
81.5567 504.00
81.6219 514.00
81.6871 473.00
81.7523 449.00
81.8175 503.00
81.8827 500.00
81.9479 519.00
82.0131 523.00
82.0783 562.00
82.1435 625.00
82.2087 638.00
82.2739 670.00
82.3391 669.00
82.4043 702.00
82.4695 657.00
82.5347 644.00
82.5999 599.00
82.6651 513.00
82.7303 543.00
82.7955 504.00
82.8607 537.00
82.9259 491.00
82.9911 493.00
83.0563 504.00
83.1215 503.00
83.1867 480.00
83.2519 470.00
83.3171 493.00
83.3823 492.00
83.4475 487.00
83.5127 476.00
83.5779 505.00
83.6431 501.00
83.7083 484.00
83.7735 445.00
83.8387 498.00
83.9039 530.00
83.9691 466.00
84.0343 490.00
84.0995 581.00
84.1647 566.00
84.2299 529.00
84.2951 558.00
84.3603 539.00
84.4255 568.00
84.4907 542.00
84.5559 580.00
84.6211 533.00
84.6863 533.00
84.7515 566.00
84.8167 560.00
84.8819 471.00
84.9471 568.00
85.0123 527.00
85.0775 504.00
85.1427 491.00
85.2079 424.00
85.2731 425.00
85.3383 486.00
85.4035 467.00
85.4687 490.00
85.5339 461.00
85.5991 560.00
85.6643 472.00
85.7295 459.00
85.7946 451.00
85.8598 464.00
85.925 506.00
85.9903 542.00
86.0554 491.00
86.1206 481.00
86.1858 503.00
86.251 500.00
86.3162 466.00
86.3814 515.00
86.4466 572.00
86.5118 608.00
86.577 547.00
86.6422 550.00
86.7074 537.00
86.7726 528.00
86.8378 506.00
86.903 516.00
86.9682 529.00
87.0334 494.00
87.0986 486.00
87.1638 503.00
87.229 489.00
87.2942 484.00
87.3594 466.00
87.4246 424.00
87.4898 466.00
87.555 484.00
87.6202 482.00
87.6854 458.00
87.7506 485.00
87.8158 448.00
87.881 461.00
87.9462 453.00
88.0114 475.00
88.0766 456.00
88.1418 496.00
88.207 452.00
88.2722 498.00
88.3374 507.00
88.4026 492.00
88.4678 482.00
88.533 442.00
88.5982 488.00
88.6634 461.00
88.7286 457.00
88.7938 446.00
88.859 488.00
88.9242 461.00
88.9894 432.00
89.0546 464.00
89.1198 471.00
89.185 451.00
89.2502 464.00
89.3154 467.00
89.3806 438.00
89.4458 445.00
89.511 437.00
89.5762 471.00
89.6414 482.00
89.7066 435.00
89.7718 465.00
89.837 461.00
89.9022 494.00
89.9674 504.00
90.0326 484.00
90.0978 532.00
90.163 617.00
90.2282 616.00
90.2934 590.00
90.3586 542.00
90.4238 533.00
90.489 582.00
90.5542 573.00
90.6193 524.00
90.6845 521.00
90.7497 466.00
90.8149 461.00
90.8801 498.00
90.9453 478.00
91.0105 454.00
91.0757 497.00
91.1409 462.00
91.2061 526.00
91.2713 442.00
91.3365 487.00
91.4017 476.00
91.4669 459.00
91.5321 489.00
91.5973 491.00
91.6625 503.00
91.7277 516.00
91.7929 482.00
91.8581 496.00
91.9233 496.00
91.9885 499.00
92.0537 507.00
92.1189 559.00
92.1841 541.00
92.2493 532.00
92.3145 501.00
92.3797 484.00
92.4449 485.00
92.5101 434.00
92.5753 449.00
92.6405 477.00
92.7057 467.00
92.7709 475.00
92.8361 420.00
92.9013 457.00
92.9665 459.00
93.0317 441.00
93.0969 486.00
93.1621 454.00
93.2273 472.00
93.2925 441.00
93.3577 473.00
93.4229 462.00
93.4881 504.00
93.5533 439.00
93.6185 436.00
93.6837 455.00
93.7489 445.00
93.8141 417.00
93.8793 472.00
93.9445 437.00
94.0097 435.00
94.0749 472.00
94.1401 498.00
94.2053 418.00
94.2705 432.00
94.3357 471.00
94.4009 492.00
94.4661 431.00
94.5313 423.00
94.5965 452.00
94.6617 467.00
94.7269 427.00
94.7921 452.00
94.8573 498.00
94.9225 446.00
94.9877 513.00
95.0529 468.00
95.1181 464.00
95.1833 476.00
95.2485 558.00
95.3137 581.00
95.3789 543.00
95.444 508.00
95.5092 534.00
95.5744 525.00
95.6396 546.00
95.7048 510.00
95.77 497.00
95.8352 469.00
95.9004 485.00
95.9656 495.00
96.0308 503.00
96.096 450.00
96.1612 469.00
96.2264 487.00
96.2916 486.00
96.3568 482.00
96.422 455.00
96.4872 467.00
96.5524 462.00
96.6176 474.00
96.6828 476.00
96.748 470.00
96.8132 462.00
96.8784 471.00
96.9436 465.00
97.0088 463.00
97.074 509.00
97.1392 470.00
97.2044 429.00
97.2696 473.00
97.3348 429.00
97.4 460.00
97.4652 468.00
97.5304 457.00
97.5956 492.00
97.6608 431.00
97.726 436.00
97.7912 471.00
97.8564 493.00
97.9216 488.00
97.9868 518.00
98.052 438.00
98.1172 482.00
98.1824 488.00
98.2476 487.00
98.3128 463.00
98.378 481.00
98.4432 472.00
98.5084 493.00
98.5736 474.00
98.6388 468.00
98.704 456.00
98.7692 459.00
98.8344 472.00
98.8996 512.00
98.9648 476.00
99.03 518.00
99.0952 489.00
99.1604 492.00
99.2256 423.00
99.2908 454.00
99.356 454.00
99.4212 453.00
99.4864 453.00
99.5516 442.00
99.6168 455.00
99.682 469.00
99.7472 482.00
99.8124 458.00
99.8776 484.00
99.9428 433.00
100.008 451.00
100.073 460.00
100.095 430.00