File: data/xrd_creation/results/Na_298.xy
9.903433 3444.00
9.968632 3197.00
10.0338 3325.00
10.099 3243.00
10.1642 3260.00
10.2294 3196.00
10.2946 3163.00
10.3598 3155.00
10.425 3128.00
10.4902 3054.00
10.5554 3108.00
10.6206 3173.00
10.6858 3068.00
10.751 3060.00
10.8162 3068.00
10.8814 2988.00
10.9466 2964.00
11.0118 3099.00
11.077 2983.00
11.1422 3067.00
11.2074 2961.00
11.2726 2864.00
11.3378 2817.00
11.403 2841.00
11.4682 2882.00
11.5334 2929.00
11.5986 2872.00
11.6638 2919.00
11.729 2884.00
11.7942 2790.00
11.8594 2918.00
11.9246 2876.00
11.9898 2645.00
12.055 2718.00
12.1202 2746.00
12.1854 2776.00
12.2506 2753.00
12.3158 2762.00
12.381 2749.00
12.4462 2617.00
12.5114 2697.00
12.5766 2681.00
12.6418 2644.00
12.707 2723.00
12.7722 2754.00
12.8374 2713.00
12.9026 2678.00
12.9678 2726.00
13.033 2750.00
13.0982 2669.00
13.1634 2621.00
13.2286 2676.00
13.2938 2537.00
13.359 2653.00
13.4242 2522.00
13.4894 2550.00
13.5546 2678.00
13.6198 2613.00
13.685 2677.00
13.7502 2604.00
13.8154 2678.00
13.8805 2847.00
13.9457 2888.00
14.0109 2795.00
14.0761 2760.00
14.1413 2738.00
14.2065 2751.00
14.2717 2817.00
14.3369 2930.00
14.4021 2900.00
14.4673 3067.00
14.5325 3019.00
14.5977 2978.00
14.6629 2949.00
14.7281 2942.00
14.7933 2897.00
14.8585 2769.00
14.9237 2713.00
14.9889 2651.00
15.0541 2582.00
15.1193 2531.00
15.1845 2547.00
15.2497 2519.00
15.3149 2525.00
15.3801 2677.00
15.4453 2538.00
15.5105 2546.00
15.5757 2571.00
15.6409 2506.00
15.7061 2507.00
15.7713 2493.00
15.8365 2401.00
15.9017 2543.00
15.9669 2440.00
16.0321 2430.00
16.0973 2451.00
16.1625 2508.00
16.2277 2640.00
16.2929 2654.00
16.3581 2647.00
16.4233 2534.00
16.4885 2577.00
16.5537 2548.00
16.6189 2648.00
16.6841 2508.00
16.7493 2644.00
16.8145 2434.00
16.8797 2661.00
16.9449 2549.00
17.0101 2629.00
17.0753 2588.00
17.1405 2495.00
17.2057 2649.00
17.2709 2611.00
17.3361 2497.00
17.4013 2517.00
17.4665 2526.00
17.5317 2538.00
17.5969 2513.00
17.6621 2642.00
17.7273 2602.00
17.7925 2543.00
17.8577 2455.00
17.9229 2339.00
17.9881 2369.00
18.0533 2413.00
18.1185 2585.00
18.1837 2535.00
18.2489 2552.00
18.3141 2585.00
18.3793 2455.00
18.4445 2468.00
18.5097 2459.00
18.5749 2510.00
18.6401 2587.00
18.7052 2523.00
18.7704 2359.00
18.8356 2394.00
18.9008 2380.00
18.966 2429.00
19.0312 2403.00
19.0964 2394.00
19.1616 2385.00
19.2268 2329.00
19.292 2299.00
19.3572 2445.00
19.4224 2333.00
19.4876 2427.00
19.5528 2566.00
19.618 2589.00
19.6832 2664.00
19.7484 2666.00
19.8136 2471.00
19.8788 2397.00
19.944 2476.00
20.0092 2493.00
20.0744 2604.00
20.1396 2710.00
20.2048 2548.00
20.27 2430.00
20.3352 2488.00
20.4004 2485.00
20.4656 2576.00
20.5308 2710.00
20.596 3028.00
20.6612 3674.00
20.7264 4813.00
20.7916 6192.00
20.8568 6423.00
20.922 6048.00
20.9872 7473.00
21.0524 9556.00
21.1176 5970.00
21.1828 2883.00
21.248 2395.00
21.3132 2402.00
21.3784 2373.00
21.4436 2412.00
21.5088 2375.00
21.574 2309.00
21.6392 2357.00
21.7044 2262.00
21.7696 2240.00
21.8348 2186.00
21.9 2389.00
21.9652 2350.00
22.0304 2191.00
22.0956 2190.00
22.1608 2156.00
22.226 2114.00
22.2912 2099.00
22.3564 2212.00
22.4216 2142.00
22.4868 2108.00
22.552 2096.00
22.6172 2123.00
22.6824 2103.00
22.7476 2231.00
22.8128 2352.00
22.878 2251.00
22.9432 2124.00
23.0084 2277.00
23.0736 2107.00
23.1388 2161.00
23.204 2233.00
23.2692 2325.00
23.3344 2446.00
23.3996 2470.00
23.4647 2464.00
23.5299 2602.00
23.5951 2690.00
23.6603 2756.00
23.7255 2564.00
23.7907 2435.00
23.8559 2492.00
23.9211 2314.00
23.9863 2281.00
24.0515 2426.00
24.1167 2535.00
24.1819 3372.00
24.2471 4541.00
24.3123 5557.00
24.3775 3641.00
24.4427 2337.00
24.5079 2404.00
24.5731 2424.00
24.6383 2405.00
24.7035 2253.00
24.7687 2087.00
24.8339 2104.00
24.8991 2145.00
24.9643 2134.00
25.0295 2100.00
25.0947 2168.00
25.1599 2009.00
25.2251 2037.00
25.2903 2088.00
25.3555 2080.00
25.4207 2174.00
25.4859 2062.00
25.5511 2135.00
25.6163 2232.00
25.6815 2263.00
25.7467 2250.00
25.8119 2091.00
25.8771 2137.00
25.9423 2145.00
26.0075 2118.00
26.0727 2113.00
26.1379 2197.00
26.2031 2255.00
26.2683 2105.00
26.3335 2069.00
26.3987 2122.00
26.4639 2071.00
26.5291 2164.00
26.5943 2141.00
26.6595 2209.00
26.7247 2204.00
26.7899 2164.00
26.8551 2214.00
26.9203 2110.00
26.9855 2160.00
27.0507 2232.00
27.1159 2194.00
27.1811 2159.00
27.2463 2153.00
27.3115 2139.00
27.3767 2028.00
27.4419 2076.00
27.5071 2019.00
27.5723 2086.00
27.6375 2158.00
27.7027 2041.00
27.7679 2018.00
27.8331 2094.00
27.8983 2118.00
27.9635 2149.00
28.0287 2088.00
28.0939 2080.00
28.1591 2005.00
28.2243 1999.00
28.2894 2098.00
28.3546 2048.00
28.4198 2141.00
28.485 2103.00
28.5502 2290.00
28.6154 2320.00
28.6806 2351.00
28.7458 2221.00
28.811 2229.00
28.8762 2472.00
28.9414 2471.00
29.0066 2611.00
29.0718 2788.00
29.137 3122.00
29.2022 4081.00
29.2674 6139.00
29.3326 11968.00
29.3978 22517.00
29.463 31081.00
29.5282 20105.00
29.5934 8596.00
29.6586 4079.00
29.7238 3159.00
29.789 2819.00
29.8542 2643.00
29.9194 2454.00
29.9846 2215.00
30.0498 2284.00
30.115 2184.00
30.1802 2159.00
30.2454 2187.00
30.3106 2102.00
30.3758 2138.00
30.441 2188.00
30.5062 2131.00
30.5714 2150.00
30.6366 2175.00
30.7018 2044.00
30.767 2182.00
30.8322 2162.00
30.8974 2226.00
30.9626 2207.00
31.0278 2371.00
31.093 2381.00
31.1582 2329.00
31.2234 2239.00
31.2886 2190.00
31.3538 2104.00
31.419 2193.00
31.4842 2156.00
31.5494 2112.00
31.6146 2150.00
31.6798 2215.00
31.745 2252.00
31.8102 2277.00
31.8754 2242.00
31.9406 2346.00
32.0058 2228.00
32.071 2343.00
32.1362 2419.00
32.2014 2385.00
32.2666 2657.00
32.3318 2803.00
32.397 2900.00
32.4622 2829.00
32.5274 2636.00
32.5926 2697.00
32.6578 2619.00
32.723 2579.00
32.7882 2624.00
32.8534 2527.00
32.9186 2465.00
32.9838 2432.00
33.0489 2496.00
33.1141 2260.00
33.1793 2267.00
33.2445 2319.00
33.3097 2358.00
33.3749 2316.00
33.4401 2438.00
33.5053 2320.00
33.5705 2440.00
33.6357 2535.00
33.7009 2789.00
33.7661 2886.00
33.8313 2926.00
33.8965 3302.00
33.9617 4863.00
34.0269 7832.00
34.0921 10359.00
34.1573 8240.00
34.2225 6386.00
34.2877 5350.00
34.3529 7188.00
34.4181 13659.00
34.4833 20041.00
34.5485 12766.00
34.6137 6532.00
34.6789 2950.00
34.7441 2497.00
34.8093 2385.00
34.8745 2205.00
34.9397 2234.00
35.0049 2305.00
35.0701 2103.00
35.1353 2089.00
35.2005 2327.00
35.2657 2377.00
35.3309 2402.00
35.3961 2235.00
35.4613 2191.00
35.5265 2198.00
35.5917 2146.00
35.6569 2054.00
35.7221 2076.00
35.7873 2006.00
35.8525 1909.00
35.9177 1946.00
35.9829 2161.00
36.0481 2169.00
36.1133 2692.00
36.1785 3310.00
36.2437 3130.00
36.3089 2691.00
36.3741 2187.00
36.4393 1960.00
36.5045 1965.00
36.5697 1946.00
36.6349 1998.00
36.7001 2017.00
36.7653 2038.00
36.8305 2058.00
36.8957 1943.00
36.9609 1991.00
37.0261 1927.00
37.0913 1995.00
37.1565 1949.00
37.2217 1999.00
37.2869 1908.00
37.3521 1961.00
37.4173 1963.00
37.4825 1883.00
37.5477 1874.00
37.6129 1876.00
37.6781 1832.00
37.7433 1824.00
37.8085 1889.00
37.8736 1933.00
37.9388 1928.00
38.004 1916.00
38.0692 1965.00
38.1344 2153.00
38.1996 2147.00
38.2648 2247.00
38.33 2060.00
38.3952 1874.00
38.4604 1838.00
38.5256 1933.00
38.5908 1878.00
38.656 1945.00
38.7212 1856.00
38.7864 1866.00
38.8516 1825.00
38.9168 1849.00
38.982 1833.00
39.0472 1722.00
39.1124 1816.00
39.1776 1739.00
39.2428 1841.00
39.308 1813.00
39.3732 1894.00
39.4384 1981.00
39.5036 1992.00
39.5688 2009.00
39.634 2030.00
39.6992 2102.00
39.7644 1956.00
39.8296 2002.00
39.8948 2070.00
39.96 2098.00
40.0252 2452.00
40.0904 3112.00
40.1556 3481.00
40.2208 3046.00
40.286 2409.00
40.3512 1967.00
40.4164 1970.00
40.4816 1945.00
40.5468 1926.00
40.612 1938.00
40.6772 1898.00
40.7424 1984.00
40.8076 2122.00
40.8728 2013.00
40.938 1977.00
41.0032 1917.00
41.0684 1825.00
41.1336 1830.00
41.1988 1809.00
41.264 1790.00
41.3292 1805.00
41.3944 1751.00
41.4596 1788.00
41.5248 1709.00
41.59 1724.00
41.6552 1805.00
41.7204 1846.00
41.7856 1846.00
41.8508 1986.00
41.916 2045.00
41.9812 2102.00
42.0464 1986.00
42.1116 1996.00
42.1768 1900.00
42.242 1803.00
42.3072 1890.00
42.3724 1874.00
42.4376 2244.00
42.5028 2312.00
42.568 2158.00
42.6332 1925.00
42.6983 1932.00
42.7635 1871.00
42.8287 1854.00
42.8939 1877.00
42.9591 1831.00
43.0243 1814.00
43.0895 1848.00
43.1547 1764.00
43.2199 1806.00
43.2851 1723.00
43.3503 1820.00
43.4155 1784.00
43.4807 1800.00
43.5459 1906.00
43.6111 2056.00
43.6763 2810.00
43.7415 3785.00
43.8067 3840.00
43.8719 3130.00
43.9371 2542.00
44.0023 1910.00
44.0675 1706.00
44.1327 1802.00
44.1979 1707.00
44.2631 1656.00
44.3283 1704.00
44.3935 1720.00
44.4587 1686.00
44.5239 1693.00
44.5891 1699.00
44.6543 1689.00
44.7195 1600.00
44.7847 1683.00
44.8499 1682.00
44.9151 1682.00
44.9803 1746.00
45.0455 1776.00
45.1107 1737.00
45.1759 1786.00
45.2411 1805.00
45.3063 1798.00
45.3715 1842.00
45.4367 1827.00
45.5019 1799.00
45.5671 1757.00
45.6323 1815.00
45.6975 1804.00
45.7627 1710.00
45.8279 1726.00
45.8931 1615.00
45.9583 1702.00
46.0235 1697.00
46.0887 1746.00
46.1539 1691.00
46.2191 1607.00
46.2843 1620.00
46.3495 1612.00
46.4147 1745.00
46.4799 1728.00
46.5451 1826.00
46.6103 1815.00
46.6755 1786.00
46.7407 1878.00
46.8059 1762.00
46.8711 1794.00
46.9363 1829.00
47.0015 1967.00
47.0667 2054.00
47.1319 2436.00
47.1971 2480.00
47.2623 2241.00
47.3275 2260.00
47.3927 2058.00
47.4579 2003.00
47.523 1987.00
47.5882 1964.00
47.6534 2045.00
47.7186 1912.00
47.7838 1965.00
47.849 1955.00
47.9142 1826.00
47.9794 1949.00
48.0446 1941.00
48.1098 2042.00
48.175 2038.00
48.2402 2006.00
48.3054 2106.00
48.3706 2127.00
48.4358 2126.00
48.501 2301.00
48.5662 2588.00
48.6314 3532.00
48.6966 5636.00
48.7618 10394.00
48.827 12823.00
48.8922 8564.00
48.9574 6955.00
49.0226 3529.00
49.0878 2575.00
49.153 2240.00
49.2182 2348.00
49.2834 2869.00
49.3486 4217.00
49.4138 4833.00
49.479 3422.00
49.5442 3168.00
49.6094 2085.00
49.6746 1896.00
49.7398 1820.00
49.805 1651.00
49.8702 1811.00
49.9354 1727.00
50.0006 1699.00
50.0658 1793.00
50.131 1715.00
50.1962 1728.00
50.2614 1744.00
50.3266 1911.00
50.3918 2091.00
50.457 2067.00
50.5222 1838.00
50.5874 1705.00
50.6526 1638.00
50.7178 1597.00
50.783 1543.00
50.8482 1579.00
50.9134 1551.00
50.9786 1532.00
51.0438 1565.00
51.109 1597.00
51.1742 1568.00
51.2394 1560.00
51.3046 1646.00
51.3698 1493.00
51.435 1543.00
51.5002 1600.00
51.5654 1500.00
51.6306 1566.00
51.6958 1606.00
51.761 1547.00
51.8262 1563.00
51.8914 1586.00
51.9566 1623.00
52.0218 1622.00
52.087 1549.00
52.1522 1592.00
52.2174 1547.00
52.2826 1492.00
52.3477 1488.00
52.4129 1583.00
52.4781 1589.00
52.5433 1568.00
52.6085 1597.00
52.6737 1635.00
52.7389 1610.00
52.8041 1607.00
52.8693 1629.00
52.9345 1732.00
52.9997 1734.00
53.0649 1645.00
53.1301 1787.00
53.1953 1769.00
53.2605 1792.00
53.3257 1934.00
53.3909 2287.00
53.4561 2858.00
53.5213 2773.00
53.5865 2252.00
53.6517 2179.00
53.7169 1759.00
53.7821 1708.00
53.8473 1593.00
53.9125 1580.00
53.9777 1587.00
54.0429 1570.00
54.1081 1560.00
54.1733 1575.00
54.2385 1611.00
54.3037 1610.00
54.3689 1541.00
54.4341 1642.00
54.4993 1665.00
54.5645 1758.00
54.6297 1670.00
54.6949 1674.00
54.7601 1723.00
54.8253 1733.00
54.8905 1713.00
54.9557 1861.00
55.0209 1768.00
55.0861 1738.00
55.1513 1617.00
55.2165 1639.00
55.2817 1591.00
55.3469 1490.00
55.4121 1568.00
55.4773 1472.00
55.5425 1502.00
55.6077 1537.00
55.6729 1553.00
55.7381 1494.00
55.8033 1579.00
55.8685 1602.00
55.9337 1570.00
55.9989 1591.00
56.0641 1606.00
56.1293 1656.00
56.1945 1683.00
56.2597 1686.00
56.3249 1903.00
56.3901 2194.00
56.4553 2577.00
56.5205 2185.00
56.5857 2155.00
56.6509 1847.00
56.7161 1647.00
56.7813 1642.00
56.8465 1571.00
56.9117 1531.00
56.9769 1508.00
57.042 1549.00
57.1073 1548.00
57.1724 1556.00
57.2376 1540.00
57.3028 1549.00
57.368 1605.00
57.4332 1597.00
57.4984 1663.00
57.5636 1762.00
57.6288 1925.00
57.694 2394.00
57.7592 3523.00
57.8244 6259.00
57.8896 8357.00
57.9548 5656.00
58.02 5278.00
58.0852 3896.00
58.1504 2253.00
58.2156 1870.00
58.2808 1682.00
58.346 1597.00
58.4112 1560.00
58.4764 1465.00
58.5416 1459.00
58.6068 1506.00
58.672 1443.00
58.7372 1465.00
58.8024 1471.00
58.8676 1452.00
58.9328 1524.00
58.998 1455.00
59.0632 1526.00
59.1284 1724.00
59.1936 2078.00
59.2588 2615.00
59.324 2812.00
59.3892 2320.00
59.4544 2240.00
59.5196 1930.00
59.5848 1712.00
59.65 1641.00
59.7152 1568.00
59.7804 1486.00
59.8456 1406.00
59.9108 1475.00
59.976 1437.00
60.0412 1417.00
60.1064 1397.00
60.1716 1500.00
60.2368 1539.00
60.302 1528.00
60.3672 1558.00
60.4324 1517.00
60.4976 1596.00
60.5628 1773.00
60.628 2204.00
60.6932 2626.00
60.7584 2349.00
60.8236 2113.00
60.8888 2008.00
60.954 1739.00
61.0192 1634.00
61.0844 1553.00
61.1496 1536.00
61.2148 1594.00
61.28 1801.00
61.3452 2262.00
61.4104 3236.00
61.4756 3647.00
61.5408 2474.00
61.606 2624.00
61.6712 2100.00
61.7364 1670.00
61.8016 1522.00
61.8667 1441.00
61.932 1526.00
61.9971 1698.00
62.0623 1821.00
62.1275 1801.00
62.1927 1681.00
62.2579 1626.00
62.3231 1536.00
62.3883 1375.00
62.4535 1489.00
62.5187 1390.00
62.5839 1352.00
62.6491 1325.00
62.7143 1349.00
62.7795 1433.00
62.8447 1371.00
62.9099 1322.00
62.9751 1339.00
63.0403 1336.00
63.1055 1349.00
63.1707 1434.00
63.2359 1457.00
63.3011 1410.00
63.3663 1518.00
63.4315 1635.00
63.4967 1490.00
63.5619 1495.00
63.6271 1547.00
63.6923 1377.00
63.7575 1428.00
63.8227 1353.00
63.8879 1359.00
63.9531 1452.00
64.0183 1441.00
64.0835 1315.00
64.1487 1356.00
64.2139 1382.00
64.2791 1402.00
64.3443 1348.00
64.4095 1528.00
64.4747 1527.00
64.5399 1485.00
64.6051 1547.00
64.6703 1609.00
64.7355 1947.00
64.8007 1952.00
64.8659 1696.00
64.9311 1700.00
64.9963 1670.00
65.0615 1363.00
65.1267 1373.00
65.1919 1340.00
65.2571 1399.00
65.3223 1348.00
65.3875 1288.00
65.4527 1319.00
65.5179 1391.00
65.5831 1465.00
65.6483 1441.00
65.7135 1321.00
65.7787 1437.00
65.8439 1416.00
65.9091 1381.00
65.9743 1465.00
66.0395 1473.00
66.1047 1611.00
66.1699 1555.00
66.2351 1493.00
66.3003 1447.00
66.3655 1383.00
66.4307 1310.00
66.4959 1328.00
66.561 1236.00
66.6263 1319.00
66.6915 1319.00
66.7566 1321.00
66.8218 1286.00
66.887 1262.00
66.9522 1255.00
67.0174 1257.00
67.0826 1297.00
67.1478 1248.00
67.213 1277.00
67.2782 1277.00
67.3434 1314.00
67.4086 1276.00
67.4738 1337.00
67.539 1321.00
67.6042 1320.00
67.6694 1283.00
67.7346 1348.00
67.7998 1365.00
67.865 1247.00
67.9302 1264.00
67.9954 1268.00
68.0606 1248.00
68.1258 1348.00
68.191 1338.00
68.2562 1317.00
68.3214 1393.00
68.3866 1345.00
68.4518 1277.00
68.517 1299.00
68.5822 1263.00
68.6474 1274.00
68.7126 1237.00
68.7778 1227.00
68.843 1245.00
68.9082 1302.00
68.9734 1264.00
69.0386 1242.00
69.1038 1294.00
69.169 1293.00
69.2342 1256.00
69.2994 1280.00
69.3646 1262.00
69.4298 1346.00
69.495 1237.00
69.5602 1266.00
69.6254 1240.00
69.6906 1340.00
69.7558 1283.00
69.821 1292.00
69.8862 1400.00
69.9514 1468.00
70.0166 1690.00
70.0818 1541.00
70.147 1527.00
70.2122 1485.00
70.2774 1388.00
70.3426 1395.00
70.4078 1242.00
70.473 1284.00
70.5382 1328.00
70.6034 1189.00
70.6686 1264.00
70.7338 1233.00
70.799 1208.00
70.8642 1269.00
70.9294 1259.00
70.9946 1293.00
71.0598 1299.00
71.125 1475.00
71.1902 1518.00
71.2554 1978.00
71.3205 2124.00
71.3858 1726.00
71.451 1623.00
71.5162 1758.00
71.5813 1534.00
71.6465 1392.00
71.7117 1412.00
71.7769 1340.00
71.8421 1319.00
71.9073 1372.00
71.9725 1433.00
72.0377 1261.00
72.1029 1443.00
72.1681 1656.00
72.2333 1887.00
72.2985 1640.00
72.3637 1594.00
72.4289 1725.00
72.4941 1825.00
72.5593 2013.00
72.6245 1836.00
72.6897 1605.00
72.7549 1590.00
72.8201 1553.00
72.8853 1408.00
72.9505 1259.00
73.0157 1216.00
73.0809 1263.00
73.1461 1239.00
73.2113 1230.00
73.2765 1286.00
73.3417 1242.00
73.4069 1240.00
73.4721 1176.00
73.5373 1171.00
73.6025 1271.00
73.6677 1293.00
73.7329 1350.00
73.7981 1536.00
73.8633 1544.00
73.9285 1402.00
73.9937 1415.00
74.0589 1424.00
74.1241 1313.00
74.1893 1180.00
74.2545 1245.00
74.3197 1328.00
74.3849 1192.00
74.4501 1213.00
74.5153 1148.00
74.5805 1177.00
74.6457 1265.00
74.7109 1190.00
74.7761 1206.00
74.8413 1136.00
74.9065 1184.00
74.9717 1311.00
75.0369 1505.00
75.1021 1702.00
75.1673 1437.00
75.2325 1310.00
75.2977 1373.00
75.3629 1274.00
75.4281 1263.00
75.4933 1230.00
75.5585 1214.00
75.6237 1172.00
75.6889 1279.00
75.7541 1197.00
75.8193 1255.00
75.8845 1217.00
75.9497 1263.00
76.0149 1216.00
76.0801 1372.00
76.1452 1205.00
76.2104 1349.00
76.2756 1452.00
76.3409 1578.00
76.406 1368.00
76.4712 1332.00
76.5364 1322.00
76.6016 1259.00
76.6668 1237.00
76.732 1163.00
76.7972 1122.00
76.8624 1201.00
76.9276 1201.00
76.9928 1198.00
77.058 1240.00
77.1232 1250.00
77.1884 1248.00
77.2536 1278.00
77.3188 1319.00
77.384 1370.00
77.4492 1421.00
77.5144 1623.00
77.5796 1892.00
77.6448 1680.00
77.71 1430.00
77.7752 1485.00
77.8404 1488.00
77.9056 1372.00
77.9708 1266.00
78.036 1259.00
78.1012 1256.00
78.1664 1246.00
78.2316 1252.00
78.2968 1233.00
78.362 1256.00
78.4272 1262.00
78.4924 1316.00
78.5576 1309.00
78.6228 1386.00
78.688 1690.00
78.7532 2269.00
78.8184 2881.00
78.8836 2112.00
78.9488 1746.00
79.014 1975.00
79.0792 1904.00
79.1444 1487.00
79.2096 1268.00
79.2748 1312.00
79.34 1228.00
79.4052 1238.00
79.4704 1203.00
79.5356 1202.00
79.6008 1182.00
79.666 1149.00
79.7312 1238.00
79.7964 1218.00
79.8616 1179.00
79.9268 1222.00
79.992 1212.00
80.0572 1182.00
80.1224 1213.00
80.1876 1251.00
80.2528 1239.00
80.318 1232.00
80.3832 1175.00
80.4484 1167.00
80.5136 1221.00
80.5788 1138.00
80.644 1169.00
80.7092 1256.00
80.7744 1191.00
80.8396 1203.00
80.9048 1290.00
80.9699 1257.00
81.0351 1284.00
81.1003 1343.00
81.1655 1586.00
81.2307 2044.00
81.2959 2080.00
81.3611 1668.00
81.4263 1632.00
81.4915 1657.00
81.5567 1594.00
81.6219 1428.00
81.6871 1251.00
81.7523 1238.00
81.8175 1230.00
81.8827 1172.00
81.9479 1203.00
82.0131 1197.00
82.0783 1246.00
82.1435 1311.00
82.2087 1310.00
82.2739 1399.00
82.3391 1544.00
82.4043 1634.00
82.4695 1568.00
82.5347 1505.00
82.5999 1429.00
82.6651 1367.00
82.7303 1382.00
82.7955 1252.00
82.8607 1259.00
82.9259 1207.00
82.9911 1187.00
83.0563 1167.00
83.1215 1187.00
83.1867 1230.00
83.2519 1183.00
83.3171 1187.00
83.3823 1192.00
83.4475 1209.00
83.5127 1208.00
83.5779 1187.00
83.6431 1296.00
83.7083 1330.00
83.7735 1268.00
83.8387 1232.00
83.9039 1323.00
83.9691 1248.00
84.0343 1123.00
84.0995 1201.00
84.1647 1177.00
84.2299 1172.00
84.2951 1239.00
84.3603 1155.00
84.4255 1215.00
84.4907 1247.00
84.5559 1226.00
84.6211 1228.00
84.6863 1241.00
84.7515 1215.00
84.8167 1358.00
84.8819 1585.00
84.9471 1536.00
85.0123 1414.00
85.0775 1328.00
85.1427 1390.00
85.2079 1459.00
85.2731 1294.00
85.3383 1276.00
85.4035 1210.00
85.4687 1180.00
85.5339 1122.00
85.5991 1215.00
85.6643 1202.00
85.7295 1165.00
85.7946 1195.00
85.8598 1121.00
85.925 1185.00
85.9903 1149.00
86.0554 1223.00
86.1206 1225.00
86.1858 1212.00
86.251 1110.00
86.3162 1202.00
86.3814 1219.00
86.4466 1206.00
86.5118 1223.00
86.577 1176.00
86.6422 1089.00
86.7074 1197.00
86.7726 1128.00
86.8378 1062.00
86.903 1192.00
86.9682 1185.00
87.0334 1173.00
87.0986 1175.00
87.1638 1248.00
87.229 1415.00
87.2942 1617.00
87.3594 1610.00
87.4246 1366.00
87.4898 1349.00
87.555 1250.00
87.6202 1391.00
87.6854 1242.00
87.7506 1183.00
87.8158 1094.00
87.881 1178.00
87.9462 1137.00
88.0114 1208.00
88.0766 1178.00
88.1418 1166.00
88.207 1155.00
88.2722 1194.00
88.3374 1189.00
88.4026 1084.00
88.4678 1190.00
88.533 1209.00
88.5982 1211.00
88.6634 1181.00
88.7286 1138.00
88.7938 1117.00
88.859 1172.00
88.9242 1093.00
88.9894 1106.00
89.0546 1258.00
89.1198 1160.00
89.185 1120.00
89.2502 1150.00
89.3154 1180.00
89.3806 1183.00
89.4458 1257.00
89.511 1231.00
89.5762 1221.00
89.6414 1356.00
89.7066 1453.00
89.7718 1676.00
89.837 1325.00
89.9022 1270.00
89.9674 1284.00
90.0326 1343.00
90.0978 1253.00
90.163 1247.00
90.2282 1181.00
90.2934 1137.00
90.3586 1201.00
90.4238 1154.00
90.489 1181.00
90.5542 1199.00
90.6193 1169.00
90.6845 1213.00
90.7497 1253.00
90.8149 1430.00
90.8801 1777.00
90.9453 2157.00
91.0105 1977.00
91.0757 1462.00
91.1409 1455.00
91.2061 1551.00
91.2713 1666.00
91.3365 1340.00
91.4017 1225.00
91.4669 1149.00
91.5321 1093.00
91.5973 1197.00
91.6625 1219.00
91.7277 1161.00
91.7929 1177.00
91.8581 1166.00
91.9233 1150.00
91.9885 1178.00
92.0537 1320.00
92.1189 1569.00
92.1841 1608.00
92.2493 1458.00
92.3145 1376.00
92.3797 1266.00
92.4449 1440.00
92.5101 1410.00
92.5753 1137.00
92.6405 1239.00
92.7057 1198.00
92.7709 1177.00
92.8361 1107.00
92.9013 1147.00
92.9665 1189.00
93.0317 1090.00
93.0969 1093.00
93.1621 1127.00
93.2273 1151.00
93.2925 1299.00
93.3577 1424.00
93.4229 1286.00
93.4881 1267.00
93.5533 1161.00
93.6185 1252.00
93.6837 1240.00
93.7489 1254.00
93.8141 1191.00
93.8793 1177.00
93.9445 1107.00
94.0097 1189.00
94.0749 1137.00
94.1401 1145.00
94.2053 1095.00
94.2705 1143.00
94.3357 1157.00
94.4009 1151.00
94.4661 1209.00
94.5313 1272.00
94.5965 1271.00
94.6617 1291.00
94.7269 1221.00
94.7921 1181.00
94.8573 1169.00
94.9225 1218.00
94.9877 1232.00
95.0529 1150.00
95.1181 1121.00
95.1833 1100.00
95.2485 1171.00
95.3137 1172.00
95.3789 1185.00
95.444 1219.00
95.5092 1184.00
95.5744 1249.00
95.6396 1276.00
95.7048 1551.00
95.77 1761.00
95.8352 1629.00
95.9004 1464.00
95.9656 1388.00
96.0308 1363.00
96.096 1504.00
96.1612 1391.00
96.2264 1214.00
96.2916 1197.00
96.3568 1162.00
96.422 1164.00
96.4872 1141.00
96.5524 1129.00
96.6176 1088.00
96.6828 1110.00
96.748 1099.00
96.8132 1073.00
96.8784 1151.00
96.9436 1214.00
97.0088 1178.00
97.074 1181.00
97.1392 1089.00
97.2044 1160.00
97.2696 1179.00
97.3348 1153.00
97.4 1159.00
97.4652 1098.00
97.5304 1104.00
97.5956 1118.00
97.6608 1069.00
97.726 1152.00
97.7912 1127.00
97.8564 1075.00
97.9216 1144.00
97.9868 1226.00
98.052 1294.00
98.1172 1519.00
98.1824 1848.00
98.2476 1880.00
98.3128 1501.00
98.378 1380.00
98.4432 1312.00
98.5084 1450.00
98.5736 1512.00
98.6388 1342.00
98.704 1251.00
98.7692 1189.00
98.8344 1198.00
98.8996 1116.00
98.9648 1138.00
99.03 1099.00
99.0952 1146.00
99.1604 1139.00
99.2256 1263.00
99.2908 1288.00
99.356 1376.00
99.4212 1572.00
99.4864 1565.00
99.5516 1339.00
99.6168 1226.00
99.682 1310.00
99.7472 1372.00
99.8124 1388.00
99.8776 1300.00
99.9428 1214.00
100.008 1207.00
100.073 1071.00
100.095 1059.00