File: data/xrd_creation/results/Na_204.xy
9.903433 2696.00
9.968632 2733.00
10.0338 2660.00
10.099 2712.00
10.1642 2699.00
10.2294 2703.00
10.2946 2684.00
10.3598 2576.00
10.425 2626.00
10.4902 2676.00
10.5554 2617.00
10.6206 2627.00
10.6858 2683.00
10.751 2641.00
10.8162 2445.00
10.8814 2435.00
10.9466 2472.00
11.0118 2438.00
11.077 2428.00
11.1422 2482.00
11.2074 2659.00
11.2726 2809.00
11.3378 2900.00
11.403 3135.00
11.4682 3286.00
11.5334 3594.00
11.5986 3875.00
11.6638 4709.00
11.729 6387.00
11.7942 6015.00
11.8594 3589.00
11.9246 3548.00
11.9898 4265.00
12.055 5204.00
12.1202 4689.00
12.1854 2521.00
12.2506 2394.00
12.3158 2250.00
12.381 2127.00
12.4462 2119.00
12.5114 2068.00
12.5766 2015.00
12.6418 2112.00
12.707 2020.00
12.7722 2100.00
12.8374 2003.00
12.9026 1986.00
12.9678 1951.00
13.033 1981.00
13.0982 2011.00
13.1634 1998.00
13.2286 1978.00
13.2938 1914.00
13.359 1882.00
13.4242 1901.00
13.4894 1893.00
13.5546 1891.00
13.6198 1870.00
13.685 1859.00
13.7502 1831.00
13.8154 1879.00
13.8805 1894.00
13.9457 1781.00
14.0109 1788.00
14.0761 1824.00
14.1413 1760.00
14.2065 1776.00
14.2717 1718.00
14.3369 1726.00
14.4021 1723.00
14.4673 1800.00
14.5325 1790.00
14.5977 1768.00
14.6629 1778.00
14.7281 1837.00
14.7933 1736.00
14.8585 1766.00
14.9237 1693.00
14.9889 1748.00
15.0541 1674.00
15.1193 1730.00
15.1845 1725.00
15.2497 1693.00
15.3149 1697.00
15.3801 1658.00
15.4453 1621.00
15.5105 1767.00
15.5757 1676.00
15.6409 1674.00
15.7061 1716.00
15.7713 1655.00
15.8365 1650.00
15.9017 1772.00
15.9669 1740.00
16.0321 1751.00
16.0973 1669.00
16.1625 1667.00
16.2277 1608.00
16.2929 1699.00
16.3581 1677.00
16.4233 1678.00
16.4885 1783.00
16.5537 1978.00
16.6189 2055.00
16.6841 2325.00
16.7493 2407.00
16.8145 1830.00
16.8797 1597.00
16.9449 1514.00
17.0101 1604.00
17.0753 1474.00
17.1405 1515.00
17.2057 1496.00
17.2709 1527.00
17.3361 1552.00
17.4013 1560.00
17.4665 1632.00
17.5317 1623.00
17.5969 1699.00
17.6621 1639.00
17.7273 1628.00
17.7925 1658.00
17.8577 1669.00
17.9229 1700.00
17.9881 1746.00
18.0533 1918.00
18.1185 2012.00
18.1837 2367.00
18.2489 3075.00
18.3141 4016.00
18.3793 3942.00
18.4445 2539.00
18.5097 2403.00
18.5749 2744.00
18.6401 2853.00
18.7052 1990.00
18.7704 1419.00
18.8356 1490.00
18.9008 1387.00
18.966 1351.00
19.0312 1365.00
19.0964 1356.00
19.1616 1352.00
19.2268 1341.00
19.292 1326.00
19.3572 1339.00
19.4224 1375.00
19.4876 1297.00
19.5528 1410.00
19.618 1344.00
19.6832 1301.00
19.7484 1363.00
19.8136 1258.00
19.8788 1319.00
19.944 1269.00
20.0092 1325.00
20.0744 1283.00
20.1396 1279.00
20.2048 1268.00
20.27 1297.00
20.3352 1247.00
20.4004 1191.00
20.4656 1260.00
20.5308 1260.00
20.596 1271.00
20.6612 1378.00
20.7264 1328.00
20.7916 1314.00
20.8568 1343.00
20.922 1485.00
20.9872 1626.00
21.0524 1917.00
21.1176 2132.00
21.1828 1885.00
21.248 1598.00
21.3132 1506.00
21.3784 1314.00
21.4436 1149.00
21.5088 1242.00
21.574 1244.00
21.6392 1173.00
21.7044 1218.00
21.7696 1142.00
21.8348 1252.00
21.9 1206.00
21.9652 1141.00
22.0304 1136.00
22.0956 1142.00
22.1608 1173.00
22.226 1146.00
22.2912 1121.00
22.3564 1152.00
22.4216 1186.00
22.4868 1082.00
22.552 1166.00
22.6172 1148.00
22.6824 1134.00
22.7476 1166.00
22.8128 1186.00
22.878 1189.00
22.9432 1129.00
23.0084 1209.00
23.0736 1279.00
23.1388 1363.00
23.204 1452.00
23.2692 1604.00
23.3344 1299.00
23.3996 1086.00
23.4647 1135.00
23.5299 1134.00
23.5951 1117.00
23.6603 1145.00
23.7255 1203.00
23.7907 1218.00
23.8559 1372.00
23.9211 1545.00
23.9863 1328.00
24.0515 1279.00
24.1167 1199.00
24.1819 1398.00
24.2471 1615.00
24.3123 2176.00
24.3775 2829.00
24.4427 2449.00
24.5079 1522.00
24.5731 1307.00
24.6383 1336.00
24.7035 1304.00
24.7687 1345.00
24.8339 1540.00
24.8991 1979.00
24.9643 2693.00
25.0295 3452.00
25.0947 2416.00
25.1599 1420.00
25.2251 1144.00
25.2903 1234.00
25.3555 1435.00
25.4207 1352.00
25.4859 1403.00
25.5511 1387.00
25.6163 1400.00
25.6815 1221.00
25.7467 1216.00
25.8119 1199.00
25.8771 1393.00
25.9423 1720.00
26.0075 2397.00
26.0727 3574.00
26.1379 5385.00
26.2031 3836.00
26.2683 1980.00
26.3335 1464.00
26.3987 1584.00
26.4639 2096.00
26.5291 2755.00
26.5943 3172.00
26.6595 1929.00
26.7247 1277.00
26.7899 1046.00
26.8551 1017.00
26.9203 1009.00
26.9855 999.00
27.0507 977.00
27.1159 1030.00
27.1811 938.00
27.2463 988.00
27.3115 1108.00
27.3767 1047.00
27.4419 1100.00
27.5071 1160.00
27.5723 1103.00
27.6375 1267.00
27.7027 1329.00
27.7679 1594.00
27.8331 1468.00
27.8983 1191.00
27.9635 1188.00
28.0287 1242.00
28.0939 1495.00
28.1591 1868.00
28.2243 2678.00
28.2894 3335.00
28.3546 2634.00
28.4198 2402.00
28.485 3008.00
28.5502 2719.00
28.6154 1602.00
28.6806 1127.00
28.7458 1006.00
28.811 1002.00
28.8762 972.00
28.9414 1049.00
29.0066 1097.00
29.0718 1032.00
29.137 969.00
29.2022 985.00
29.2674 1047.00
29.3326 1174.00
29.3978 1427.00
29.463 1933.00
29.5282 1779.00
29.5934 1361.00
29.6586 1025.00
29.7238 951.00
29.789 886.00
29.8542 883.00
29.9194 941.00
29.9846 848.00
30.0498 841.00
30.115 937.00
30.1802 1007.00
30.2454 1058.00
30.3106 1008.00
30.3758 921.00
30.441 815.00
30.5062 885.00
30.5714 942.00
30.6366 933.00
30.7018 900.00
30.767 1004.00
30.8322 1104.00
30.8974 1344.00
30.9626 1530.00
31.0278 1454.00
31.093 1499.00
31.1582 1330.00
31.2234 1121.00
31.2886 901.00
31.3538 921.00
31.419 914.00
31.4842 875.00
31.5494 879.00
31.6146 866.00
31.6798 881.00
31.745 967.00
31.8102 957.00
31.8754 880.00
31.9406 890.00
32.0058 904.00
32.071 945.00
32.1362 911.00
32.2014 951.00
32.2666 769.00
32.3318 791.00
32.397 818.00
32.4622 874.00
32.5274 864.00
32.5926 802.00
32.6578 785.00
32.723 814.00
32.7882 796.00
32.8534 844.00
32.9186 949.00
32.9838 1012.00
33.0489 1055.00
33.1141 1378.00
33.1793 1658.00
33.2445 2479.00
33.3097 3835.00
33.3749 7189.00
33.4401 9301.00
33.5053 6112.00
33.5705 3467.00
33.6357 2527.00
33.7009 1914.00
33.7661 1550.00
33.8313 1280.00
33.8965 1386.00
33.9617 2158.00
34.0269 3345.00
34.0921 4216.00
34.1573 2830.00
34.2225 1562.00
34.2877 1157.00
34.3529 1155.00
34.4181 1132.00
34.4833 1303.00
34.5485 1416.00
34.6137 1447.00
34.6789 1372.00
34.7441 1339.00
34.8093 1292.00
34.8745 1281.00
34.9397 1568.00
35.0049 2332.00
35.0701 4456.00
35.1353 7072.00
35.2005 5879.00
35.2657 4333.00
35.3309 2765.00
35.3961 1748.00
35.4613 1088.00
35.5265 816.00
35.5917 761.00
35.6569 692.00
35.7221 705.00
35.7873 780.00
35.8525 820.00
35.9177 894.00
35.9829 1072.00
36.0481 1041.00
36.1133 980.00
36.1785 914.00
36.2437 857.00
36.3089 889.00
36.3741 867.00
36.4393 761.00
36.5045 740.00
36.5697 709.00
36.6349 741.00
36.7001 743.00
36.7653 783.00
36.8305 752.00
36.8957 727.00
36.9609 717.00
37.0261 756.00
37.0913 772.00
37.1565 729.00
37.2217 739.00
37.2869 705.00
37.3521 764.00
37.4173 768.00
37.4825 681.00
37.5477 647.00
37.6129 612.00
37.6781 644.00
37.7433 609.00
37.8085 647.00
37.8736 653.00
37.9388 596.00
38.004 592.00
38.0692 537.00
38.1344 552.00
38.1996 609.00
38.2648 620.00
38.33 568.00
38.3952 624.00
38.4604 570.00
38.5256 698.00
38.5908 658.00
38.656 710.00
38.7212 753.00
38.7864 925.00
38.8516 910.00
38.9168 757.00
38.982 646.00
39.0472 633.00
39.1124 655.00
39.1776 725.00
39.2428 647.00
39.308 629.00
39.3732 606.00
39.4384 580.00
39.5036 605.00
39.5688 643.00
39.634 702.00
39.6992 694.00
39.7644 674.00
39.8296 583.00
39.8948 593.00
39.96 557.00
40.0252 552.00
40.0904 560.00
40.1556 570.00
40.2208 554.00
40.286 579.00
40.3512 571.00
40.4164 614.00
40.4816 642.00
40.5468 641.00
40.612 637.00
40.6772 690.00
40.7424 622.00
40.8076 593.00
40.8728 575.00
40.938 578.00
41.0032 582.00
41.0684 590.00
41.1336 635.00
41.1988 632.00
41.264 691.00
41.3292 667.00
41.3944 611.00
41.4596 603.00
41.5248 635.00
41.59 650.00
41.6552 694.00
41.7204 617.00
41.7856 621.00
41.8508 661.00
41.916 632.00
41.9812 646.00
42.0464 648.00
42.1116 600.00
42.1768 547.00
42.242 541.00
42.3072 589.00
42.3724 662.00
42.4376 708.00
42.5028 616.00
42.568 784.00
42.6332 848.00
42.6983 993.00
42.7635 909.00
42.8287 934.00
42.8939 1248.00
42.9591 1232.00
43.0243 1103.00
43.0895 996.00
43.1547 884.00
43.2199 803.00
43.2851 611.00
43.3503 521.00
43.4155 502.00
43.4807 511.00
43.5459 521.00
43.6111 581.00
43.6763 542.00
43.7415 570.00
43.8067 610.00
43.8719 535.00
43.9371 585.00
44.0023 562.00
44.0675 572.00
44.1327 656.00
44.1979 759.00
44.2631 884.00
44.3283 1182.00
44.3935 1124.00
44.4587 1091.00
44.5239 837.00
44.5891 691.00
44.6543 676.00
44.7195 590.00
44.7847 710.00
44.8499 693.00
44.9151 684.00
44.9803 617.00
45.0455 606.00
45.1107 602.00
45.1759 575.00
45.2411 587.00
45.3063 593.00
45.3715 594.00
45.4367 582.00
45.5019 573.00
45.5671 516.00
45.6323 462.00
45.6975 569.00
45.7627 549.00
45.8279 617.00
45.8931 873.00
45.9583 1165.00
46.0235 1133.00
46.0887 915.00
46.1539 805.00
46.2191 610.00
46.2843 573.00
46.3495 610.00
46.4147 592.00
46.4799 549.00
46.5451 537.00
46.6103 558.00
46.6755 544.00
46.7407 699.00
46.8059 757.00
46.8711 871.00
46.9363 1040.00
47.0015 1784.00
47.0667 3212.00
47.1319 4627.00
47.1971 2949.00
47.2623 2403.00
47.3275 1092.00
47.3927 642.00
47.4579 617.00
47.523 511.00
47.5882 548.00
47.6534 536.00
47.7186 515.00
47.7838 518.00
47.849 559.00
47.9142 680.00
47.9794 690.00
48.0446 635.00
48.1098 736.00
48.175 638.00
48.2402 656.00
48.3054 711.00
48.3706 788.00
48.4358 1011.00
48.501 1488.00
48.5662 1221.00
48.6314 1234.00
48.6966 1301.00
48.7618 1159.00
48.827 946.00
48.8922 924.00
48.9574 680.00
49.0226 581.00
49.0878 558.00
49.153 640.00
49.2182 778.00
49.2834 800.00
49.3486 725.00
49.4138 704.00
49.479 740.00
49.5442 786.00
49.6094 813.00
49.6746 681.00
49.7398 725.00
49.805 636.00
49.8702 577.00
49.9354 562.00
50.0006 576.00
50.0658 704.00
50.131 811.00
50.1962 893.00
50.2614 816.00
50.3266 742.00
50.3918 707.00
50.457 637.00
50.5222 628.00
50.5874 733.00
50.6526 880.00
50.7178 1052.00
50.783 1112.00
50.8482 1330.00
50.9134 1479.00
50.9786 1228.00
51.0438 1233.00
51.109 1160.00
51.1742 941.00
51.2394 816.00
51.3046 765.00
51.3698 580.00
51.435 482.00
51.5002 528.00
51.5654 513.00
51.6306 629.00
51.6958 629.00
51.761 581.00
51.8262 616.00
51.8914 638.00
51.9566 679.00
52.0218 760.00
52.087 1139.00
52.1522 1508.00
52.2174 1373.00
52.2826 1089.00
52.3477 848.00
52.4129 577.00
52.4781 505.00
52.5433 518.00
52.6085 519.00
52.6737 559.00
52.7389 521.00
52.8041 487.00
52.8693 452.00
52.9345 461.00
52.9997 473.00
53.0649 454.00
53.1301 495.00
53.1953 494.00
53.2605 501.00
53.3257 568.00
53.3909 504.00
53.4561 465.00
53.5213 571.00
53.5865 544.00
53.6517 658.00
53.7169 642.00
53.7821 598.00
53.8473 561.00
53.9125 503.00
53.9777 524.00
54.0429 544.00
54.1081 586.00
54.1733 626.00
54.2385 603.00
54.3037 579.00
54.3689 535.00
54.4341 600.00
54.4993 689.00
54.5645 741.00
54.6297 795.00
54.6949 637.00
54.7601 611.00
54.8253 570.00
54.8905 555.00
54.9557 476.00
55.0209 531.00
55.0861 459.00
55.1513 467.00
55.2165 458.00
55.2817 443.00
55.3469 418.00
55.4121 458.00
55.4773 524.00
55.5425 530.00
55.6077 451.00
55.6729 489.00
55.7381 511.00
55.8033 531.00
55.8685 566.00
55.9337 563.00
55.9989 614.00
56.0641 694.00
56.1293 607.00
56.1945 646.00
56.2597 651.00
56.3249 646.00
56.3901 623.00
56.4553 623.00
56.5205 684.00
56.5857 676.00
56.6509 695.00
56.7161 573.00
56.7813 607.00
56.8465 560.00
56.9117 720.00
56.9769 698.00
57.042 700.00
57.1073 702.00
57.1724 568.00
57.2376 607.00
57.3028 564.00
57.368 591.00
57.4332 575.00
57.4984 551.00
57.5636 530.00
57.6288 506.00
57.694 501.00
57.7592 520.00
57.8244 416.00
57.8896 428.00
57.9548 435.00
58.02 426.00
58.0852 443.00
58.1504 525.00
58.2156 585.00
58.2808 708.00
58.346 692.00
58.4112 792.00
58.4764 720.00
58.5416 646.00
58.6068 569.00
58.672 558.00
58.7372 600.00
58.8024 557.00
58.8676 597.00
58.9328 696.00
58.998 936.00
59.0632 1539.00
59.1284 1852.00
59.1936 1396.00
59.2588 1245.00
59.324 1068.00
59.3892 717.00
59.4544 583.00
59.5196 590.00
59.5848 514.00
59.65 568.00
59.7152 696.00
59.7804 825.00
59.8456 888.00
59.9108 848.00
59.976 879.00
60.0412 684.00
60.1064 627.00
60.1716 655.00
60.2368 678.00
60.302 930.00
60.3672 1405.00
60.4324 2221.00
60.4976 1395.00
60.5628 1419.00
60.628 1498.00
60.6932 1319.00
60.7584 1282.00
60.8236 1055.00
60.8888 1116.00
60.954 870.00
61.0192 769.00
61.0844 876.00
61.1496 1137.00
61.2148 1571.00
61.28 1228.00
61.3452 1063.00
61.4104 982.00
61.4756 685.00
61.5408 643.00
61.606 528.00
61.6712 530.00
61.7364 513.00
61.8016 566.00
61.8667 526.00
61.932 502.00
61.9971 455.00
62.0623 484.00
62.1275 440.00
62.1927 439.00
62.2579 453.00
62.3231 610.00
62.3883 849.00
62.4535 979.00
62.5187 681.00
62.5839 671.00
62.6491 615.00
62.7143 468.00
62.7795 394.00
62.8447 413.00
62.9099 362.00
62.9751 387.00
63.0403 416.00
63.1055 428.00
63.1707 429.00
63.2359 404.00
63.3011 389.00
63.3663 388.00
63.4315 429.00
63.4967 442.00
63.5619 431.00
63.6271 461.00
63.6923 460.00
63.7575 515.00
63.8227 550.00
63.8879 707.00
63.9531 831.00
64.0183 804.00
64.0835 668.00
64.1487 692.00
64.2139 610.00
64.2791 601.00
64.3443 648.00
64.4095 549.00
64.4747 489.00
64.5399 495.00
64.6051 419.00
64.6703 372.00
64.7355 402.00
64.8007 356.00
64.8659 414.00
64.9311 386.00
64.9963 397.00
65.0615 383.00
65.1267 483.00
65.1919 547.00
65.2571 649.00
65.3223 585.00
65.3875 607.00
65.4527 526.00
65.5179 515.00
65.5831 518.00
65.6483 431.00
65.7135 425.00
65.7787 432.00
65.8439 462.00
65.9091 373.00
65.9743 355.00
66.0395 366.00
66.1047 400.00
66.1699 370.00
66.2351 378.00
66.3003 377.00
66.3655 378.00
66.4307 428.00
66.4959 467.00
66.561 422.00
66.6263 439.00
66.6915 470.00
66.7566 453.00
66.8218 464.00
66.887 534.00
66.9522 556.00
67.0174 478.00
67.0826 471.00
67.1478 445.00
67.213 376.00
67.2782 364.00
67.3434 398.00
67.4086 401.00
67.4738 433.00
67.539 374.00
67.6042 439.00
67.6694 465.00
67.7346 420.00
67.7998 474.00
67.865 476.00
67.9302 408.00
67.9954 423.00
68.0606 388.00
68.1258 416.00
68.191 424.00
68.2562 475.00
68.3214 503.00
68.3866 495.00
68.4518 445.00
68.517 403.00
68.5822 408.00
68.6474 385.00
68.7126 356.00
68.7778 357.00
68.843 375.00
68.9082 382.00
68.9734 388.00
69.0386 425.00
69.1038 447.00
69.169 491.00
69.2342 515.00
69.2994 485.00
69.3646 423.00
69.4298 420.00
69.495 414.00
69.5602 444.00
69.6254 505.00
69.6906 608.00
69.7558 714.00
69.821 566.00
69.8862 526.00
69.9514 556.00
70.0166 479.00
70.0818 407.00
70.147 431.00
70.2122 393.00
70.2774 362.00
70.3426 373.00
70.4078 406.00
70.473 419.00
70.5382 387.00
70.6034 385.00
70.6686 381.00
70.7338 354.00
70.799 385.00
70.8642 385.00
70.9294 336.00
70.9946 394.00
71.0598 446.00
71.125 545.00
71.1902 698.00
71.2554 938.00
71.3205 689.00
71.3858 585.00
71.451 664.00
71.5162 620.00
71.5813 455.00
71.6465 373.00
71.7117 377.00
71.7769 364.00
71.8421 357.00
71.9073 315.00
71.9725 371.00
72.0377 335.00
72.1029 361.00
72.1681 364.00
72.2333 357.00
72.2985 334.00
72.3637 352.00
72.4289 389.00
72.4941 396.00
72.5593 401.00
72.6245 377.00
72.6897 401.00
72.7549 388.00
72.8201 380.00
72.8853 357.00
72.9505 352.00
73.0157 387.00
73.0809 344.00
73.1461 344.00
73.2113 378.00
73.2765 384.00
73.3417 360.00
73.4069 363.00
73.4721 375.00
73.5373 367.00
73.6025 393.00
73.6677 421.00
73.7329 484.00
73.7981 490.00
73.8633 423.00
73.9285 423.00
73.9937 453.00
74.0589 488.00
74.1241 479.00
74.1893 511.00
74.2545 459.00
74.3197 405.00
74.3849 452.00
74.4501 410.00
74.5153 410.00
74.5805 411.00
74.6457 435.00
74.7109 419.00
74.7761 390.00
74.8413 371.00
74.9065 372.00
74.9717 326.00
75.0369 311.00
75.1021 350.00
75.1673 384.00
75.2325 412.00
75.2977 429.00
75.3629 444.00
75.4281 470.00
75.4933 414.00
75.5585 413.00
75.6237 355.00
75.6889 346.00
75.7541 334.00
75.8193 332.00
75.8845 348.00
75.9497 312.00
76.0149 355.00
76.0801 334.00
76.1452 328.00
76.2104 319.00
76.2756 353.00
76.3409 370.00
76.406 397.00
76.4712 418.00
76.5364 371.00
76.6016 362.00
76.6668 393.00
76.732 372.00
76.7972 371.00
76.8624 363.00
76.9276 339.00
76.9928 344.00
77.058 299.00
77.1232 290.00
77.1884 303.00
77.2536 291.00
77.3188 298.00
77.384 295.00
77.4492 292.00
77.5144 290.00
77.5796 339.00
77.6448 381.00
77.71 391.00
77.7752 401.00
77.8404 456.00
77.9056 482.00
77.9708 473.00
78.036 478.00
78.1012 463.00
78.1664 492.00
78.2316 542.00
78.2968 568.00
78.362 625.00
78.4272 469.00
78.4924 456.00
78.5576 523.00
78.6228 394.00
78.688 362.00
78.7532 368.00
78.8184 374.00
78.8836 332.00
78.9488 381.00
79.014 378.00
79.0792 427.00
79.1444 453.00
79.2096 463.00
79.2748 406.00
79.34 380.00
79.4052 388.00
79.4704 350.00
79.5356 315.00
79.6008 392.00
79.666 361.00
79.7312 319.00
79.7964 317.00
79.8616 358.00
79.9268 357.00
79.992 512.00
80.0572 632.00
80.1224 590.00
80.1876 554.00
80.2528 527.00
80.318 583.00
80.3832 567.00
80.4484 481.00
80.5136 443.00
80.5788 367.00
80.644 395.00
80.7092 360.00
80.7744 326.00
80.8396 338.00
80.9048 330.00
80.9699 357.00
81.0351 302.00
81.1003 334.00
81.1655 332.00
81.2307 396.00
81.2959 433.00
81.3611 404.00
81.4263 378.00
81.4915 338.00
81.5567 361.00
81.6219 397.00
81.6871 331.00
81.7523 331.00
81.8175 337.00
81.8827 342.00
81.9479 404.00
82.0131 418.00
82.0783 398.00
82.1435 387.00
82.2087 361.00
82.2739 412.00
82.3391 419.00
82.4043 315.00
82.4695 353.00
82.5347 370.00
82.5999 346.00
82.6651 439.00
82.7303 416.00
82.7955 371.00
82.8607 441.00
82.9259 380.00
82.9911 363.00
83.0563 334.00
83.1215 358.00
83.1867 326.00
83.2519 323.00
83.3171 322.00
83.3823 308.00
83.4475 284.00
83.5127 272.00
83.5779 297.00
83.6431 260.00
83.7083 301.00
83.7735 323.00
83.8387 337.00
83.9039 337.00
83.9691 361.00
84.0343 332.00
84.0995 320.00
84.1647 330.00
84.2299 327.00
84.2951 325.00
84.3603 293.00
84.4255 337.00
84.4907 289.00
84.5559 309.00
84.6211 271.00
84.6863 258.00
84.7515 284.00
84.8167 278.00
84.8819 329.00
84.9471 291.00
85.0123 291.00
85.0775 300.00
85.1427 357.00
85.2079 320.00
85.2731 295.00
85.3383 308.00
85.4035 305.00
85.4687 287.00
85.5339 283.00
85.5991 257.00
85.6643 309.00
85.7295 311.00
85.7946 313.00
85.8598 275.00
85.925 281.00
85.9903 315.00
86.0554 285.00
86.1206 331.00
86.1858 323.00
86.251 326.00
86.3162 302.00
86.3814 326.00
86.4466 314.00
86.5118 326.00
86.577 320.00
86.6422 294.00
86.7074 336.00
86.7726 313.00
86.8378 345.00
86.903 385.00
86.9682 412.00
87.0334 440.00
87.0986 398.00
87.1638 363.00
87.229 362.00
87.2942 364.00
87.3594 378.00
87.4246 411.00
87.4898 333.00
87.555 339.00
87.6202 366.00
87.6854 326.00
87.7506 316.00
87.8158 364.00
87.881 374.00
87.9462 291.00
88.0114 309.00
88.0766 321.00
88.1418 340.00
88.207 351.00
88.2722 337.00
88.3374 350.00
88.4026 334.00
88.4678 331.00
88.533 351.00
88.5982 316.00
88.6634 332.00
88.7286 306.00
88.7938 333.00
88.859 282.00
88.9242 293.00
88.9894 317.00
89.0546 330.00
89.1198 294.00
89.185 271.00
89.2502 324.00
89.3154 323.00
89.3806 309.00
89.4458 322.00
89.511 332.00
89.5762 399.00
89.6414 362.00
89.7066 393.00
89.7718 363.00
89.837 294.00
89.9022 350.00
89.9674 326.00
90.0326 308.00
90.0978 332.00
90.163 321.00
90.2282 312.00
90.2934 333.00
90.3586 309.00
90.4238 333.00
90.489 324.00
90.5542 308.00
90.6193 396.00
90.6845 348.00
90.7497 368.00
90.8149 337.00
90.8801 389.00
90.9453 390.00
91.0105 352.00
91.0757 384.00
91.1409 378.00
91.2061 338.00
91.2713 321.00
91.3365 317.00
91.4017 330.00
91.4669 322.00
91.5321 353.00
91.5973 314.00
91.6625 304.00
91.7277 289.00
91.7929 326.00
91.8581 280.00
91.9233 339.00
91.9885 370.00
92.0537 346.00
92.1189 314.00
92.1841 314.00
92.2493 327.00
92.3145 329.00
92.3797 273.00
92.4449 291.00
92.5101 329.00
92.5753 302.00
92.6405 305.00
92.7057 319.00
92.7709 314.00
92.8361 338.00
92.9013 319.00
92.9665 345.00
93.0317 338.00
93.0969 332.00
93.1621 329.00
93.2273 316.00
93.2925 360.00
93.3577 349.00
93.4229 351.00
93.4881 324.00
93.5533 334.00
93.6185 335.00
93.6837 310.00
93.7489 346.00
93.8141 306.00
93.8793 313.00
93.9445 338.00
94.0097 337.00
94.0749 347.00
94.1401 374.00
94.2053 350.00
94.2705 373.00
94.3357 320.00
94.4009 319.00
94.4661 316.00
94.5313 296.00
94.5965 378.00
94.6617 337.00
94.7269 357.00
94.7921 297.00
94.8573 292.00
94.9225 304.00
94.9877 272.00
95.0529 307.00
95.1181 285.00
95.1833 301.00
95.2485 307.00
95.3137 277.00
95.3789 324.00
95.444 335.00
95.5092 323.00
95.5744 337.00
95.6396 319.00
95.7048 326.00
95.77 325.00
95.8352 327.00
95.9004 313.00
95.9656 303.00
96.0308 305.00
96.096 299.00
96.1612 306.00
96.2264 296.00
96.2916 320.00
96.3568 310.00
96.422 387.00
96.4872 345.00
96.5524 360.00
96.6176 325.00
96.6828 303.00
96.748 330.00
96.8132 350.00
96.8784 336.00
96.9436 312.00
97.0088 302.00
97.074 346.00
97.1392 376.00
97.2044 437.00
97.2696 405.00
97.3348 415.00
97.4 403.00
97.4652 415.00
97.5304 372.00
97.5956 366.00
97.6608 343.00
97.726 346.00
97.7912 331.00
97.8564 301.00
97.9216 273.00
97.9868 323.00
98.052 373.00
98.1172 374.00
98.1824 421.00
98.2476 472.00
98.3128 404.00
98.378 399.00
98.4432 365.00
98.5084 399.00
98.5736 399.00
98.6388 383.00
98.704 400.00
98.7692 436.00
98.8344 417.00
98.8996 392.00
98.9648 365.00
99.03 359.00
99.0952 382.00
99.1604 373.00
99.2256 450.00
99.2908 390.00
99.356 403.00
99.4212 354.00
99.4864 389.00
99.5516 398.00
99.6168 405.00
99.682 382.00
99.7472 365.00
99.8124 364.00
99.8776 359.00
99.9428 314.00
100.008 327.00
100.073 378.00
100.095 348.00