File: data/xrd_creation/results/Na_206.xy
9.903433 2907.00
9.968632 2769.00
10.0338 2772.00
10.099 2817.00
10.1642 2795.00
10.2294 2827.00
10.2946 2886.00
10.3598 2870.00
10.425 2986.00
10.4902 2937.00
10.5554 2997.00
10.6206 3176.00
10.6858 3096.00
10.751 2761.00
10.8162 2646.00
10.8814 2584.00
10.9466 2627.00
11.0118 2586.00
11.077 2578.00
11.1422 2529.00
11.2074 2545.00
11.2726 2641.00
11.3378 2579.00
11.403 2464.00
11.4682 2534.00
11.5334 2534.00
11.5986 2503.00
11.6638 2547.00
11.729 2592.00
11.7942 2676.00
11.8594 2973.00
11.9246 3116.00
11.9898 3505.00
12.055 3881.00
12.1202 4465.00
12.1854 4786.00
12.2506 3267.00
12.3158 2536.00
12.381 2387.00
12.4462 2344.00
12.5114 2247.00
12.5766 2296.00
12.6418 2264.00
12.707 2142.00
12.7722 2183.00
12.8374 2222.00
12.9026 2236.00
12.9678 2225.00
13.033 2217.00
13.0982 2163.00
13.1634 2104.00
13.2286 2240.00
13.2938 1985.00
13.359 2064.00
13.4242 2137.00
13.4894 2078.00
13.5546 2110.00
13.6198 2049.00
13.685 2190.00
13.7502 2175.00
13.8154 2227.00
13.8805 2179.00
13.9457 2240.00
14.0109 2393.00
14.0761 2494.00
14.1413 2400.00
14.2065 2179.00
14.2717 1963.00
14.3369 2007.00
14.4021 2016.00
14.4673 1967.00
14.5325 1958.00
14.5977 1949.00
14.6629 2048.00
14.7281 1946.00
14.7933 1894.00
14.8585 1932.00
14.9237 1932.00
14.9889 1903.00
15.0541 1920.00
15.1193 1906.00
15.1845 1923.00
15.2497 1900.00
15.3149 1955.00
15.3801 1947.00
15.4453 1872.00
15.5105 1885.00
15.5757 1886.00
15.6409 1910.00
15.7061 1954.00
15.7713 1910.00
15.8365 1867.00
15.9017 1895.00
15.9669 1894.00
16.0321 1938.00
16.0973 1794.00
16.1625 1893.00
16.2277 1967.00
16.2929 1943.00
16.3581 1853.00
16.4233 1867.00
16.4885 1847.00
16.5537 1852.00
16.6189 1779.00
16.6841 1865.00
16.7493 1782.00
16.8145 1796.00
16.8797 1839.00
16.9449 1831.00
17.0101 1831.00
17.0753 1776.00
17.1405 1736.00
17.2057 1814.00
17.2709 1898.00
17.3361 1841.00
17.4013 1863.00
17.4665 1873.00
17.5317 1867.00
17.5969 1910.00
17.6621 1920.00
17.7273 2006.00
17.7925 1928.00
17.8577 1909.00
17.9229 1803.00
17.9881 1762.00
18.0533 1761.00
18.1185 1741.00
18.1837 1695.00
18.2489 1651.00
18.3141 1677.00
18.3793 1733.00
18.4445 1774.00
18.5097 1690.00
18.5749 1756.00
18.6401 1738.00
18.7052 1742.00
18.7704 1566.00
18.8356 1732.00
18.9008 1716.00
18.966 1680.00
19.0312 1687.00
19.0964 1719.00
19.1616 1694.00
19.2268 1727.00
19.292 1757.00
19.3572 1912.00
19.4224 1820.00
19.4876 2010.00
19.5528 2053.00
19.618 2348.00
19.6832 2357.00
19.7484 2448.00
19.8136 2557.00
19.8788 2675.00
19.944 2783.00
20.0092 3055.00
20.0744 2516.00
20.1396 2027.00
20.2048 1741.00
20.27 1679.00
20.3352 1675.00
20.4004 1698.00
20.4656 1720.00
20.5308 1754.00
20.596 1891.00
20.6612 2029.00
20.7264 2200.00
20.7916 2476.00
20.8568 2669.00
20.922 2549.00
20.9872 2250.00
21.0524 2052.00
21.1176 1844.00
21.1828 1628.00
21.248 1625.00
21.3132 1644.00
21.3784 1599.00
21.4436 1528.00
21.5088 1613.00
21.574 1626.00
21.6392 1577.00
21.7044 1621.00
21.7696 1534.00
21.8348 1548.00
21.9 1563.00
21.9652 1670.00
22.0304 1574.00
22.0956 1608.00
22.1608 1643.00
22.226 1627.00
22.2912 1579.00
22.3564 1633.00
22.4216 1675.00
22.4868 1663.00
22.552 1666.00
22.6172 1619.00
22.6824 1807.00
22.7476 1833.00
22.8128 2019.00
22.878 2214.00
22.9432 2691.00
23.0084 2955.00
23.0736 3473.00
23.1388 3855.00
23.204 4053.00
23.2692 3825.00
23.3344 3038.00
23.3996 2447.00
23.4647 2426.00
23.5299 2596.00
23.5951 2288.00
23.6603 2013.00
23.7255 1777.00
23.7907 1951.00
23.8559 2046.00
23.9211 2256.00
23.9863 2595.00
24.0515 2902.00
24.1167 3335.00
24.1819 3317.00
24.2471 2756.00
24.3123 2484.00
24.3775 2433.00
24.4427 2252.00
24.5079 2115.00
24.5731 2096.00
24.6383 2351.00
24.7035 2433.00
24.7687 2355.00
24.8339 2158.00
24.8991 1710.00
24.9643 1605.00
25.0295 1573.00
25.0947 1529.00
25.1599 1534.00
25.2251 1527.00
25.2903 1571.00
25.3555 1581.00
25.4207 1619.00
25.4859 1610.00
25.5511 1535.00
25.6163 1560.00
25.6815 1511.00
25.7467 1517.00
25.8119 1610.00
25.8771 1522.00
25.9423 1511.00
26.0075 1633.00
26.0727 1636.00
26.1379 1563.00
26.2031 1610.00
26.2683 1649.00
26.3335 1648.00
26.3987 1484.00
26.4639 1554.00
26.5291 1601.00
26.5943 1521.00
26.6595 1505.00
26.7247 1411.00
26.7899 1523.00
26.8551 1477.00
26.9203 1530.00
26.9855 1486.00
27.0507 1527.00
27.1159 1507.00
27.1811 1548.00
27.2463 1522.00
27.3115 1518.00
27.3767 1533.00
27.4419 1459.00
27.5071 1491.00
27.5723 1606.00
27.6375 1637.00
27.7027 1601.00
27.7679 1729.00
27.8331 1793.00
27.8983 1876.00
27.9635 2046.00
28.0287 2183.00
28.0939 2474.00
28.1591 2866.00
28.2243 3236.00
28.2894 3920.00
28.3546 4943.00
28.4198 6251.00
28.485 6594.00
28.5502 4946.00
28.6154 3056.00
28.6806 2106.00
28.7458 1851.00
28.811 1740.00
28.8762 1558.00
28.9414 1641.00
29.0066 1587.00
29.0718 1514.00
29.137 1498.00
29.2022 1503.00
29.2674 1519.00
29.3326 1534.00
29.3978 1511.00
29.463 1538.00
29.5282 1443.00
29.5934 1422.00
29.6586 1532.00
29.7238 1537.00
29.789 1516.00
29.8542 1527.00
29.9194 1577.00
29.9846 1698.00
30.0498 1670.00
30.115 1872.00
30.1802 1871.00
30.2454 2219.00
30.3106 2283.00
30.3758 2438.00
30.441 2314.00
30.5062 2080.00
30.5714 2089.00
30.6366 2251.00
30.7018 2327.00
30.767 2209.00
30.8322 1959.00
30.8974 1695.00
30.9626 1773.00
31.0278 1876.00
31.093 1985.00
31.1582 2093.00
31.2234 2302.00
31.2886 2614.00
31.3538 3271.00
31.419 4243.00
31.4842 5584.00
31.5494 6902.00
31.6146 8615.00
31.6798 9532.00
31.745 8881.00
31.8102 6374.00
31.8754 3782.00
31.9406 2368.00
32.0058 1967.00
32.071 1687.00
32.1362 1685.00
32.2014 1586.00
32.2666 1571.00
32.3318 1477.00
32.397 1466.00
32.4622 1386.00
32.5274 1403.00
32.5926 1416.00
32.6578 1449.00
32.723 1402.00
32.7882 1303.00
32.8534 1465.00
32.9186 1447.00
32.9838 1410.00
33.0489 1429.00
33.1141 1326.00
33.1793 1417.00
33.2445 1398.00
33.3097 1406.00
33.3749 1384.00
33.4401 1384.00
33.5053 1469.00
33.5705 1534.00
33.6357 1624.00
33.7009 1757.00
33.7661 2016.00
33.8313 2601.00
33.8965 3273.00
33.9617 4469.00
34.0269 5934.00
34.0921 7794.00
34.1573 9180.00
34.2225 8335.00
34.2877 7490.00
34.3529 6772.00
34.4181 6234.00
34.4833 4546.00
34.5485 3168.00
34.6137 2573.00
34.6789 2375.00
34.7441 2098.00
34.8093 1812.00
34.8745 1574.00
34.9397 1506.00
35.0049 1393.00
35.0701 1411.00
35.1353 1404.00
35.2005 1460.00
35.2657 1534.00
35.3309 1577.00
35.3961 1725.00
35.4613 1837.00
35.5265 2057.00
35.5917 2260.00
35.6569 2000.00
35.7221 1642.00
35.7873 1400.00
35.8525 1389.00
35.9177 1396.00
35.9829 1403.00
36.0481 1408.00
36.1133 1459.00
36.1785 1545.00
36.2437 1424.00
36.3089 1493.00
36.3741 1494.00
36.4393 1470.00
36.5045 1485.00
36.5697 1452.00
36.6349 1417.00
36.7001 1382.00
36.7653 1310.00
36.8305 1300.00
36.8957 1270.00
36.9609 1206.00
37.0261 1245.00
37.0913 1275.00
37.1565 1245.00
37.2217 1284.00
37.2869 1297.00
37.3521 1338.00
37.4173 1258.00
37.4825 1206.00
37.5477 1192.00
37.6129 1247.00
37.6781 1268.00
37.7433 1225.00
37.8085 1358.00
37.8736 1272.00
37.9388 1249.00
38.004 1243.00
38.0692 1278.00
38.1344 1195.00
38.1996 1244.00
38.2648 1294.00
38.33 1308.00
38.3952 1275.00
38.4604 1286.00
38.5256 1326.00
38.5908 1334.00
38.656 1376.00
38.7212 1490.00
38.7864 1533.00
38.8516 1512.00
38.9168 1468.00
38.982 1406.00
39.0472 1320.00
39.1124 1219.00
39.1776 1309.00
39.2428 1177.00
39.308 1225.00
39.3732 1257.00
39.4384 1218.00
39.5036 1262.00
39.5688 1297.00
39.634 1271.00
39.6992 1419.00
39.7644 1265.00
39.8296 1276.00
39.8948 1256.00
39.96 1267.00
40.0252 1240.00
40.0904 1282.00
40.1556 1299.00
40.2208 1284.00
40.286 1370.00
40.3512 1279.00
40.4164 1330.00
40.4816 1338.00
40.5468 1333.00
40.612 1309.00
40.6772 1291.00
40.7424 1389.00
40.8076 1597.00
40.8728 1641.00
40.938 1829.00
41.0032 1968.00
41.0684 1889.00
41.1336 1793.00
41.1988 1705.00
41.264 1667.00
41.3292 1740.00
41.3944 1832.00
41.4596 1883.00
41.5248 2026.00
41.59 1944.00
41.6552 1985.00
41.7204 1803.00
41.7856 1609.00
41.8508 1419.00
41.916 1336.00
41.9812 1467.00
42.0464 1574.00
42.1116 1637.00
42.1768 1568.00
42.242 1507.00
42.3072 1338.00
42.3724 1348.00
42.4376 1329.00
42.5028 1341.00
42.568 1265.00
42.6332 1262.00
42.6983 1173.00
42.7635 1234.00
42.8287 1165.00
42.8939 1175.00
42.9591 1212.00
43.0243 1304.00
43.0895 1261.00
43.1547 1297.00
43.2199 1322.00
43.2851 1301.00
43.3503 1361.00
43.4155 1356.00
43.4807 1331.00
43.5459 1400.00
43.6111 1280.00
43.6763 1227.00
43.7415 1297.00
43.8067 1333.00
43.8719 1267.00
43.9371 1246.00
44.0023 1122.00
44.0675 1158.00
44.1327 1300.00
44.1979 1207.00
44.2631 1214.00
44.3283 1203.00
44.3935 1248.00
44.4587 1310.00
44.5239 1245.00
44.5891 1266.00
44.6543 1320.00
44.7195 1322.00
44.7847 1289.00
44.8499 1317.00
44.9151 1406.00
44.9803 1558.00
45.0455 1632.00
45.1107 1688.00
45.1759 1590.00
45.2411 1456.00
45.3063 1392.00
45.3715 1207.00
45.4367 1243.00
45.5019 1262.00
45.5671 1313.00
45.6323 1334.00
45.6975 1516.00
45.7627 1585.00
45.8279 1633.00
45.8931 1527.00
45.9583 1450.00
46.0235 1281.00
46.0887 1451.00
46.1539 1408.00
46.2191 1515.00
46.2843 1521.00
46.3495 1571.00
46.4147 1616.00
46.4799 1605.00
46.5451 1573.00
46.6103 1540.00
46.6755 1475.00
46.7407 1560.00
46.8059 1685.00
46.8711 1906.00
46.9363 2256.00
47.0015 2701.00
47.0667 3031.00
47.1319 2862.00
47.1971 2907.00
47.2623 2474.00
47.3275 2093.00
47.3927 1725.00
47.4579 1444.00
47.523 1416.00
47.5882 1364.00
47.6534 1309.00
47.7186 1280.00
47.7838 1345.00
47.849 1245.00
47.9142 1251.00
47.9794 1216.00
48.0446 1176.00
48.1098 1269.00
48.175 1273.00
48.2402 1180.00
48.3054 1250.00
48.3706 1200.00
48.4358 1136.00
48.501 1200.00
48.5662 1262.00
48.6314 1246.00
48.6966 1271.00
48.7618 1385.00
48.827 1536.00
48.8922 1554.00
48.9574 1797.00
49.0226 2192.00
49.0878 2367.00
49.153 2340.00
49.2182 2071.00
49.2834 1976.00
49.3486 1832.00
49.4138 1974.00
49.479 2241.00
49.5442 2324.00
49.6094 2016.00
49.6746 1724.00
49.7398 1484.00
49.805 1331.00
49.8702 1326.00
49.9354 1288.00
50.0006 1355.00
50.0658 1387.00
50.131 1595.00
50.1962 1960.00
50.2614 2280.00
50.3266 2766.00
50.3918 2925.00
50.457 2800.00
50.5222 2515.00
50.5874 2154.00
50.6526 1967.00
50.7178 1849.00
50.783 2120.00
50.8482 2098.00
50.9134 1984.00
50.9786 1780.00
51.0438 1541.00
51.109 1396.00
51.1742 1392.00
51.2394 1438.00
51.3046 1377.00
51.3698 1570.00
51.435 1573.00
51.5002 1518.00
51.5654 1528.00
51.6306 1417.00
51.6958 1394.00
51.761 1310.00
51.8262 1366.00
51.8914 1409.00
51.9566 1362.00
52.0218 1426.00
52.087 1453.00
52.1522 1336.00
52.2174 1331.00
52.2826 1202.00
52.3477 1140.00
52.4129 1165.00
52.4781 1164.00
52.5433 1176.00
52.6085 1173.00
52.6737 1175.00
52.7389 1111.00
52.8041 1126.00
52.8693 1222.00
52.9345 1368.00
52.9997 1447.00
53.0649 1535.00
53.1301 1505.00
53.1953 1532.00
53.2605 1500.00
53.3257 1514.00
53.3909 1466.00
53.4561 1356.00
53.5213 1286.00
53.5865 1210.00
53.6517 1291.00
53.7169 1279.00
53.7821 1290.00
53.8473 1343.00
53.9125 1184.00
53.9777 1225.00
54.0429 1185.00
54.1081 1382.00
54.1733 1457.00
54.2385 1623.00
54.3037 1836.00
54.3689 1950.00
54.4341 1725.00
54.4993 1655.00
54.5645 1584.00
54.6297 1431.00
54.6949 1388.00
54.7601 1414.00
54.8253 1276.00
54.8905 1308.00
54.9557 1273.00
55.0209 1201.00
55.0861 1245.00
55.1513 1253.00
55.2165 1235.00
55.2817 1296.00
55.3469 1422.00
55.4121 1575.00
55.4773 1736.00
55.5425 1778.00
55.6077 2023.00
55.6729 1996.00
55.7381 1943.00
55.8033 1851.00
55.8685 1856.00
55.9337 1683.00
55.9989 1541.00
56.0641 1572.00
56.1293 1694.00
56.1945 1539.00
56.2597 1470.00
56.3249 1322.00
56.3901 1188.00
56.4553 1219.00
56.5205 1166.00
56.5857 1085.00
56.6509 1089.00
56.7161 1133.00
56.7813 1059.00
56.8465 1153.00
56.9117 1018.00
56.9769 1073.00
57.042 1148.00
57.1073 1087.00
57.1724 1209.00
57.2376 1236.00
57.3028 1361.00
57.368 1494.00
57.4332 1500.00
57.4984 1445.00
57.5636 1307.00
57.6288 1282.00
57.694 1152.00
57.7592 1158.00
57.8244 1114.00
57.8896 1169.00
57.9548 1239.00
58.02 1267.00
58.0852 1355.00
58.1504 1360.00
58.2156 1321.00
58.2808 1324.00
58.346 1305.00
58.4112 1335.00
58.4764 1246.00
58.5416 1245.00
58.6068 1294.00
58.672 1209.00
58.7372 1275.00
58.8024 1178.00
58.8676 1166.00
58.9328 1220.00
58.998 1250.00
59.0632 1402.00
59.1284 1601.00
59.1936 1731.00
59.2588 1888.00
59.324 1813.00
59.3892 1818.00
59.4544 1714.00
59.5196 1472.00
59.5848 1365.00
59.65 1333.00
59.7152 1268.00
59.7804 1312.00
59.8456 1438.00
59.9108 1487.00
59.976 1656.00
60.0412 1685.00
60.1064 1716.00
60.1716 1729.00
60.2368 1657.00
60.302 1599.00
60.3672 1484.00
60.4324 1414.00
60.4976 1326.00
60.5628 1405.00
60.628 1423.00
60.6932 1482.00
60.7584 1571.00
60.8236 1625.00
60.8888 1836.00
60.954 1838.00
61.0192 1784.00
61.0844 1714.00
61.1496 1532.00
61.2148 1491.00
61.28 1381.00
61.3452 1338.00
61.4104 1358.00
61.4756 1436.00
61.5408 1552.00
61.606 1482.00
61.6712 1457.00
61.7364 1366.00
61.8016 1355.00
61.8667 1353.00
61.932 1391.00
61.9971 1486.00
62.0623 1691.00
62.1275 1848.00
62.1927 1822.00
62.2579 1842.00
62.3231 1633.00
62.3883 1523.00
62.4535 1399.00
62.5187 1262.00
62.5839 1185.00
62.6491 1161.00
62.7143 1167.00
62.7795 1169.00
62.8447 1215.00
62.9099 1303.00
62.9751 1491.00
63.0403 1638.00
63.1055 1636.00
63.1707 1515.00
63.2359 1390.00
63.3011 1360.00
63.3663 1220.00
63.4315 1129.00
63.4967 1114.00
63.5619 1051.00
63.6271 1094.00
63.6923 1044.00
63.7575 989.00
63.8227 1063.00
63.8879 1056.00
63.9531 1025.00
64.0183 1046.00
64.0835 1042.00
64.1487 984.00
64.2139 1108.00
64.2791 1122.00
64.3443 1085.00
64.4095 1198.00
64.4747 1219.00
64.5399 1171.00
64.6051 1153.00
64.6703 1157.00
64.7355 1016.00
64.8007 1056.00
64.8659 1068.00
64.9311 1048.00
64.9963 1075.00
65.0615 1118.00
65.1267 1088.00
65.1919 1139.00
65.2571 995.00
65.3223 1066.00
65.3875 1108.00
65.4527 1071.00
65.5179 1119.00
65.5831 1176.00
65.6483 1205.00
65.7135 1278.00
65.7787 1305.00
65.8439 1472.00
65.9091 1442.00
65.9743 1423.00
66.0395 1415.00
66.1047 1345.00
66.1699 1341.00
66.2351 1206.00
66.3003 1127.00
66.3655 1147.00
66.4307 1198.00
66.4959 1102.00
66.561 1060.00
66.6263 1113.00
66.6915 1057.00
66.7566 1036.00
66.8218 1027.00
66.887 1026.00
66.9522 980.00
67.0174 1003.00
67.0826 945.00
67.1478 952.00
67.213 1047.00
67.2782 1003.00
67.3434 944.00
67.4086 1010.00
67.4738 1012.00
67.539 980.00
67.6042 935.00
67.6694 966.00
67.7346 962.00
67.7998 979.00
67.865 1044.00
67.9302 947.00
67.9954 992.00
68.0606 953.00
68.1258 993.00
68.191 1008.00
68.2562 985.00
68.3214 923.00
68.3866 947.00
68.4518 965.00
68.517 869.00
68.5822 924.00
68.6474 904.00
68.7126 892.00
68.7778 951.00
68.843 920.00
68.9082 920.00
68.9734 990.00
69.0386 983.00
69.1038 949.00
69.169 1014.00
69.2342 985.00
69.2994 962.00
69.3646 990.00
69.4298 1089.00
69.495 1018.00
69.5602 940.00
69.6254 1053.00
69.6906 1011.00
69.7558 1015.00
69.821 1020.00
69.8862 1052.00
69.9514 952.00
70.0166 968.00
70.0818 939.00
70.147 989.00
70.2122 953.00
70.2774 986.00
70.3426 937.00
70.4078 938.00
70.473 950.00
70.5382 848.00
70.6034 895.00
70.6686 894.00
70.7338 921.00
70.799 927.00
70.8642 929.00
70.9294 850.00
70.9946 959.00
71.0598 972.00
71.125 1006.00
71.1902 1068.00
71.2554 1184.00
71.3205 1258.00
71.3858 1358.00
71.451 1417.00
71.5162 1404.00
71.5813 1291.00
71.6465 1247.00
71.7117 1165.00
71.7769 1137.00
71.8421 1130.00
71.9073 1114.00
71.9725 1099.00
72.0377 1075.00
72.1029 1028.00
72.1681 1018.00
72.2333 1029.00
72.2985 1086.00
72.3637 1029.00
72.4289 1095.00
72.4941 1001.00
72.5593 938.00
72.6245 978.00
72.6897 1030.00
72.7549 1058.00
72.8201 987.00
72.8853 1010.00
72.9505 975.00
73.0157 1000.00
73.0809 989.00
73.1461 951.00
73.2113 909.00
73.2765 939.00
73.3417 922.00
73.4069 911.00
73.4721 804.00
73.5373 932.00
73.6025 849.00
73.6677 922.00
73.7329 838.00
73.7981 857.00
73.8633 855.00
73.9285 885.00
73.9937 844.00
74.0589 827.00
74.1241 883.00
74.1893 832.00
74.2545 817.00
74.3197 882.00
74.3849 850.00
74.4501 882.00
74.5153 890.00
74.5805 847.00
74.6457 921.00
74.7109 844.00
74.7761 951.00
74.8413 970.00
74.9065 972.00
74.9717 997.00
75.0369 983.00
75.1021 1024.00
75.1673 1106.00
75.2325 1072.00
75.2977 1147.00
75.3629 1106.00
75.4281 1072.00
75.4933 986.00
75.5585 1004.00
75.6237 1004.00
75.6889 943.00
75.7541 906.00
75.8193 911.00
75.8845 852.00
75.9497 902.00
76.0149 854.00
76.0801 935.00
76.1452 898.00
76.2104 916.00
76.2756 921.00
76.3409 882.00
76.406 932.00
76.4712 939.00
76.5364 1006.00
76.6016 973.00
76.6668 913.00
76.732 962.00
76.7972 1017.00
76.8624 973.00
76.9276 924.00
76.9928 944.00
77.058 903.00
77.1232 915.00
77.1884 910.00
77.2536 884.00
77.3188 849.00
77.384 909.00
77.4492 960.00
77.5144 876.00
77.5796 907.00
77.6448 897.00
77.71 947.00
77.7752 838.00
77.8404 915.00
77.9056 841.00
77.9708 907.00
78.036 895.00
78.1012 892.00
78.1664 859.00
78.2316 837.00
78.2968 831.00
78.362 875.00
78.4272 849.00
78.4924 890.00
78.5576 865.00
78.6228 865.00
78.688 847.00
78.7532 850.00
78.8184 833.00
78.8836 921.00
78.9488 926.00
79.014 928.00
79.0792 975.00
79.1444 931.00
79.2096 965.00
79.2748 971.00
79.34 895.00
79.4052 900.00
79.4704 829.00
79.5356 908.00
79.6008 877.00
79.666 881.00
79.7312 907.00
79.7964 942.00
79.8616 902.00
79.9268 908.00
79.992 978.00
80.0572 965.00
80.1224 982.00
80.1876 1025.00
80.2528 961.00
80.318 1046.00
80.3832 1034.00
80.4484 1004.00
80.5136 942.00
80.5788 981.00
80.644 988.00
80.7092 896.00
80.7744 892.00
80.8396 910.00
80.9048 801.00
80.9699 819.00
81.0351 821.00
81.1003 850.00
81.1655 835.00
81.2307 879.00
81.2959 924.00
81.3611 876.00
81.4263 970.00
81.4915 913.00
81.5567 942.00
81.6219 1009.00
81.6871 1011.00
81.7523 1013.00
81.8175 1053.00
81.8827 1030.00
81.9479 1036.00
82.0131 975.00
82.0783 989.00
82.1435 898.00
82.2087 917.00
82.2739 932.00
82.3391 961.00
82.4043 1000.00
82.4695 962.00
82.5347 938.00
82.5999 994.00
82.6651 981.00
82.7303 1063.00
82.7955 1064.00
82.8607 983.00
82.9259 978.00
82.9911 1022.00
83.0563 931.00
83.1215 980.00
83.1867 973.00
83.2519 981.00
83.3171 1013.00
83.3823 1062.00
83.4475 994.00
83.5127 1072.00
83.5779 935.00
83.6431 916.00
83.7083 972.00
83.7735 874.00
83.8387 890.00
83.9039 944.00
83.9691 905.00
84.0343 906.00
84.0995 970.00
84.1647 962.00
84.2299 940.00
84.2951 979.00
84.3603 954.00
84.4255 941.00
84.4907 870.00
84.5559 870.00
84.6211 868.00
84.6863 861.00
84.7515 849.00
84.8167 892.00
84.8819 931.00
84.9471 887.00
85.0123 860.00
85.0775 858.00
85.1427 890.00
85.2079 916.00
85.2731 902.00
85.3383 898.00
85.4035 926.00
85.4687 881.00
85.5339 892.00
85.5991 915.00
85.6643 921.00
85.7295 889.00
85.7946 827.00
85.8598 858.00
85.925 876.00
85.9903 916.00
86.0554 903.00
86.1206 896.00
86.1858 943.00
86.251 959.00
86.3162 1017.00
86.3814 906.00
86.4466 877.00
86.5118 966.00
86.577 933.00
86.6422 941.00
86.7074 933.00
86.7726 876.00
86.8378 863.00
86.903 937.00
86.9682 873.00
87.0334 829.00
87.0986 802.00
87.1638 951.00
87.229 919.00
87.2942 819.00
87.3594 868.00
87.4246 857.00
87.4898 929.00
87.555 940.00
87.6202 953.00
87.6854 1057.00
87.7506 984.00
87.8158 922.00
87.881 994.00
87.9462 926.00
88.0114 884.00
88.0766 892.00
88.1418 921.00
88.207 993.00
88.2722 939.00
88.3374 925.00
88.4026 975.00
88.4678 1004.00
88.533 965.00
88.5982 1044.00
88.6634 973.00
88.7286 1102.00
88.7938 966.00
88.859 846.00
88.9242 888.00
88.9894 954.00
89.0546 833.00
89.1198 864.00
89.185 859.00
89.2502 927.00
89.3154 839.00
89.3806 874.00
89.4458 885.00
89.511 914.00
89.5762 907.00
89.6414 877.00
89.7066 931.00
89.7718 931.00
89.837 985.00
89.9022 1020.00
89.9674 1028.00
90.0326 1041.00
90.0978 998.00
90.163 967.00
90.2282 1004.00
90.2934 1013.00
90.3586 972.00
90.4238 948.00
90.489 880.00
90.5542 884.00
90.6193 862.00
90.6845 873.00
90.7497 951.00
90.8149 830.00
90.8801 818.00
90.9453 861.00
91.0105 828.00
91.0757 822.00
91.1409 861.00
91.2061 942.00
91.2713 814.00
91.3365 859.00
91.4017 857.00
91.4669 866.00
91.5321 916.00
91.5973 890.00
91.6625 868.00
91.7277 852.00
91.7929 904.00
91.8581 813.00
91.9233 872.00
91.9885 918.00
92.0537 893.00
92.1189 862.00
92.1841 921.00
92.2493 854.00
92.3145 872.00
92.3797 885.00
92.4449 824.00
92.5101 882.00
92.5753 867.00
92.6405 857.00
92.7057 852.00
92.7709 799.00
92.8361 832.00
92.9013 811.00
92.9665 880.00
93.0317 824.00
93.0969 825.00
93.1621 806.00
93.2273 730.00
93.2925 802.00
93.3577 790.00
93.4229 745.00
93.4881 806.00
93.5533 814.00
93.6185 805.00
93.6837 766.00
93.7489 844.00
93.8141 908.00
93.8793 828.00
93.9445 873.00
94.0097 886.00
94.0749 874.00
94.1401 825.00
94.2053 881.00
94.2705 864.00
94.3357 798.00
94.4009 872.00
94.4661 819.00
94.5313 860.00
94.5965 848.00
94.6617 773.00
94.7269 905.00
94.7921 808.00
94.8573 890.00
94.9225 894.00
94.9877 889.00
95.0529 923.00
95.1181 862.00
95.1833 889.00
95.2485 908.00
95.3137 933.00
95.3789 933.00
95.444 873.00
95.5092 808.00
95.5744 876.00
95.6396 921.00
95.7048 825.00
95.77 869.00
95.8352 877.00
95.9004 822.00
95.9656 905.00
96.0308 819.00
96.096 844.00
96.1612 874.00
96.2264 845.00
96.2916 917.00
96.3568 973.00
96.422 960.00
96.4872 975.00
96.5524 935.00
96.6176 995.00
96.6828 1046.00
96.748 1020.00
96.8132 983.00
96.8784 888.00
96.9436 965.00
97.0088 999.00
97.074 930.00
97.1392 950.00
97.2044 968.00
97.2696 904.00
97.3348 860.00
97.4 806.00
97.4652 826.00
97.5304 868.00
97.5956 825.00
97.6608 825.00
97.726 781.00
97.7912 794.00
97.8564 778.00
97.9216 861.00
97.9868 827.00
98.052 826.00
98.1172 824.00
98.1824 891.00
98.2476 855.00
98.3128 860.00
98.378 868.00
98.4432 801.00
98.5084 813.00
98.5736 880.00
98.6388 853.00
98.704 835.00
98.7692 755.00
98.8344 768.00
98.8996 896.00
98.9648 889.00
99.03 884.00
99.0952 918.00
99.1604 903.00
99.2256 948.00
99.2908 898.00
99.356 893.00
99.4212 963.00
99.4864 998.00
99.5516 1013.00
99.6168 942.00
99.682 1002.00
99.7472 949.00
99.8124 907.00
99.8776 954.00
99.9428 910.00
100.008 969.00
100.073 968.00
100.095 901.00