File: data/xrd_creation/results/Na_292.xy
9.903433 2747.00
9.968632 2676.00
10.0338 2667.00
10.099 2588.00
10.1642 2654.00
10.2294 2713.00
10.2946 2643.00
10.3598 2634.00
10.425 2590.00
10.4902 2604.00
10.5554 2598.00
10.6206 2546.00
10.6858 2433.00
10.751 2488.00
10.8162 2470.00
10.8814 2363.00
10.9466 2393.00
11.0118 2394.00
11.077 2363.00
11.1422 2318.00
11.2074 2337.00
11.2726 2395.00
11.3378 2385.00
11.403 2246.00
11.4682 2363.00
11.5334 2234.00
11.5986 2174.00
11.6638 2253.00
11.729 2198.00
11.7942 2196.00
11.8594 2226.00
11.9246 2228.00
11.9898 2179.00
12.055 2191.00
12.1202 2179.00
12.1854 2178.00
12.2506 2075.00
12.3158 2190.00
12.381 2108.00
12.4462 2156.00
12.5114 2032.00
12.5766 1994.00
12.6418 2012.00
12.707 2115.00
12.7722 2099.00
12.8374 2126.00
12.9026 2135.00
12.9678 2184.00
13.033 2335.00
13.0982 2301.00
13.1634 2541.00
13.2286 2623.00
13.2938 2381.00
13.359 2182.00
13.4242 1988.00
13.4894 2014.00
13.5546 2091.00
13.6198 2306.00
13.685 2311.00
13.7502 2638.00
13.8154 2220.00
13.8805 2034.00
13.9457 1899.00
14.0109 1893.00
14.0761 1935.00
14.1413 1892.00
14.2065 1936.00
14.2717 1805.00
14.3369 1830.00
14.4021 1829.00
14.4673 1830.00
14.5325 1826.00
14.5977 1797.00
14.6629 1799.00
14.7281 1743.00
14.7933 1725.00
14.8585 1855.00
14.9237 1818.00
14.9889 1755.00
15.0541 1745.00
15.1193 1822.00
15.1845 1736.00
15.2497 1723.00
15.3149 1785.00
15.3801 1750.00
15.4453 1754.00
15.5105 1684.00
15.5757 1707.00
15.6409 1666.00
15.7061 1784.00
15.7713 1723.00
15.8365 1758.00
15.9017 1735.00
15.9669 1801.00
16.0321 1707.00
16.0973 1732.00
16.1625 1745.00
16.2277 1681.00
16.2929 1679.00
16.3581 1685.00
16.4233 1692.00
16.4885 1604.00
16.5537 1708.00
16.6189 1739.00
16.6841 1616.00
16.7493 1633.00
16.8145 1619.00
16.8797 1643.00
16.9449 1639.00
17.0101 1586.00
17.0753 1603.00
17.1405 1585.00
17.2057 1646.00
17.2709 1517.00
17.3361 1569.00
17.4013 1553.00
17.4665 1585.00
17.5317 1646.00
17.5969 1615.00
17.6621 1639.00
17.7273 1600.00
17.7925 1552.00
17.8577 1571.00
17.9229 1583.00
17.9881 1573.00
18.0533 1485.00
18.1185 1506.00
18.1837 1539.00
18.2489 1489.00
18.3141 1517.00
18.3793 1529.00
18.4445 1446.00
18.5097 1542.00
18.5749 1455.00
18.6401 1467.00
18.7052 1428.00
18.7704 1451.00
18.8356 1461.00
18.9008 1484.00
18.966 1485.00
19.0312 1424.00
19.0964 1454.00
19.1616 1501.00
19.2268 1706.00
19.292 1870.00
19.3572 1852.00
19.4224 1797.00
19.4876 1698.00
19.5528 1473.00
19.618 1363.00
19.6832 1391.00
19.7484 1400.00
19.8136 1514.00
19.8788 1358.00
19.944 1328.00
20.0092 1385.00
20.0744 1375.00
20.1396 1340.00
20.2048 1363.00
20.27 1382.00
20.3352 1350.00
20.4004 1430.00
20.4656 1386.00
20.5308 1339.00
20.596 1291.00
20.6612 1380.00
20.7264 1496.00
20.7916 1585.00
20.8568 2002.00
20.922 2740.00
20.9872 3757.00
21.0524 3985.00
21.1176 2123.00
21.1828 1424.00
21.248 1352.00
21.3132 1365.00
21.3784 1304.00
21.4436 1321.00
21.5088 1315.00
21.574 1357.00
21.6392 1375.00
21.7044 1526.00
21.7696 1467.00
21.8348 1279.00
21.9 1242.00
21.9652 1258.00
22.0304 1228.00
22.0956 1239.00
22.1608 1194.00
22.226 1247.00
22.2912 1213.00
22.3564 1243.00
22.4216 1223.00
22.4868 1274.00
22.552 1335.00
22.6172 1509.00
22.6824 1685.00
22.7476 2094.00
22.8128 2150.00
22.878 1989.00
22.9432 1588.00
23.0084 1382.00
23.0736 1425.00
23.1388 1422.00
23.204 1485.00
23.2692 1417.00
23.3344 1342.00
23.3996 1238.00
23.4647 1239.00
23.5299 1216.00
23.5951 1137.00
23.6603 1149.00
23.7255 1193.00
23.7907 1205.00
23.8559 1156.00
23.9211 1170.00
23.9863 1198.00
24.0515 1205.00
24.1167 1494.00
24.1819 1850.00
24.2471 2524.00
24.3123 2300.00
24.3775 1497.00
24.4427 1279.00
24.5079 1130.00
24.5731 1164.00
24.6383 1097.00
24.7035 1123.00
24.7687 1071.00
24.8339 1111.00
24.8991 1042.00
24.9643 1027.00
25.0295 1073.00
25.0947 1018.00
25.1599 996.00
25.2251 1066.00
25.2903 1107.00
25.3555 1066.00
25.4207 1170.00
25.4859 1200.00
25.5511 1392.00
25.6163 1700.00
25.6815 1440.00
25.7467 1216.00
25.8119 1042.00
25.8771 1097.00
25.9423 1126.00
26.0075 1115.00
26.0727 1121.00
26.1379 1141.00
26.2031 1287.00
26.2683 1783.00
26.3335 2489.00
26.3987 3639.00
26.4639 3873.00
26.5291 2702.00
26.5943 1657.00
26.6595 1296.00
26.7247 1147.00
26.7899 1265.00
26.8551 1496.00
26.9203 1369.00
26.9855 1249.00
27.0507 1090.00
27.1159 1097.00
27.1811 1098.00
27.2463 1234.00
27.3115 1216.00
27.3767 1138.00
27.4419 1123.00
27.5071 1339.00
27.5723 1495.00
27.6375 1424.00
27.7027 1400.00
27.7679 1615.00
27.8331 1790.00
27.8983 1637.00
27.9635 1287.00
28.0287 1059.00
28.0939 1044.00
28.1591 1035.00
28.2243 1060.00
28.2894 1051.00
28.3546 1108.00
28.4198 1080.00
28.485 1009.00
28.5502 1013.00
28.6154 1015.00
28.6806 997.00
28.7458 990.00
28.811 1021.00
28.8762 1042.00
28.9414 1056.00
29.0066 1152.00
29.0718 1249.00
29.137 1348.00
29.2022 1683.00
29.2674 2459.00
29.3326 4332.00
29.3978 6924.00
29.463 8031.00
29.5282 6461.00
29.5934 3573.00
29.6586 1907.00
29.7238 1432.00
29.789 1347.00
29.8542 1248.00
29.9194 1300.00
29.9846 1405.00
30.0498 1894.00
30.115 2951.00
30.1802 5302.00
30.2454 8998.00
30.3106 10412.00
30.3758 6783.00
30.441 3317.00
30.5062 1958.00
30.5714 1604.00
30.6366 1367.00
30.7018 1393.00
30.767 1535.00
30.8322 2008.00
30.8974 2335.00
30.9626 2373.00
31.0278 2170.00
31.093 1605.00
31.1582 1260.00
31.2234 1216.00
31.2886 1091.00
31.3538 1033.00
31.419 1032.00
31.4842 1046.00
31.5494 1018.00
31.6146 936.00
31.6798 951.00
31.745 1066.00
31.8102 1120.00
31.8754 1139.00
31.9406 1082.00
32.0058 1219.00
32.071 1703.00
32.1362 2059.00
32.2014 2160.00
32.2666 1532.00
32.3318 1084.00
32.397 994.00
32.4622 1075.00
32.5274 993.00
32.5926 873.00
32.6578 910.00
32.723 860.00
32.7882 866.00
32.8534 803.00
32.9186 856.00
32.9838 901.00
33.0489 887.00
33.1141 913.00
33.1793 1031.00
33.2445 996.00
33.3097 991.00
33.3749 1040.00
33.4401 1168.00
33.5053 1683.00
33.5705 1825.00
33.6357 1605.00
33.7009 1446.00
33.7661 1488.00
33.8313 1422.00
33.8965 1274.00
33.9617 1104.00
34.0269 1171.00
34.0921 1207.00
34.1573 1286.00
34.2225 1659.00
34.2877 2480.00
34.3529 4990.00
34.4181 9038.00
34.4833 6577.00
34.5485 3881.00
34.6137 1502.00
34.6789 1192.00
34.7441 966.00
34.8093 1073.00
34.8745 946.00
34.9397 832.00
35.0049 843.00
35.0701 838.00
35.1353 810.00
35.2005 836.00
35.2657 872.00
35.3309 874.00
35.3961 860.00
35.4613 801.00
35.5265 810.00
35.5917 855.00
35.6569 847.00
35.7221 853.00
35.7873 845.00
35.8525 820.00
35.9177 781.00
35.9829 788.00
36.0481 822.00
36.1133 750.00
36.1785 819.00
36.2437 854.00
36.3089 813.00
36.3741 807.00
36.4393 813.00
36.5045 834.00
36.5697 845.00
36.6349 894.00
36.7001 773.00
36.7653 785.00
36.8305 790.00
36.8957 766.00
36.9609 769.00
37.0261 719.00
37.0913 763.00
37.1565 762.00
37.2217 739.00
37.2869 716.00
37.3521 775.00
37.4173 800.00
37.4825 744.00
37.5477 712.00
37.6129 692.00
37.6781 655.00
37.7433 726.00
37.8085 754.00
37.8736 702.00
37.9388 711.00
38.004 732.00
38.0692 703.00
38.1344 765.00
38.1996 811.00
38.2648 810.00
38.33 753.00
38.3952 777.00
38.4604 718.00
38.5256 733.00
38.5908 685.00
38.656 749.00
38.7212 770.00
38.7864 766.00
38.8516 868.00
38.9168 907.00
38.982 889.00
39.0472 845.00
39.1124 766.00
39.1776 810.00
39.2428 761.00
39.308 859.00
39.3732 883.00
39.4384 914.00
39.5036 980.00
39.5688 1137.00
39.634 1531.00
39.6992 2198.00
39.7644 3252.00
39.8296 3622.00
39.8948 2774.00
39.96 1977.00
40.0252 1296.00
40.0904 1222.00
40.1556 1044.00
40.2208 954.00
40.286 838.00
40.3512 758.00
40.4164 773.00
40.4816 718.00
40.5468 715.00
40.612 720.00
40.6772 774.00
40.7424 939.00
40.8076 1150.00
40.8728 1306.00
40.938 1389.00
41.0032 1113.00
41.0684 926.00
41.1336 893.00
41.1988 798.00
41.264 872.00
41.3292 777.00
41.3944 721.00
41.4596 692.00
41.5248 710.00
41.59 680.00
41.6552 683.00
41.7204 735.00
41.7856 737.00
41.8508 742.00
41.916 684.00
41.9812 685.00
42.0464 690.00
42.1116 695.00
42.1768 713.00
42.242 675.00
42.3072 753.00
42.3724 883.00
42.4376 1020.00
42.5028 1008.00
42.568 892.00
42.6332 773.00
42.6983 729.00
42.7635 649.00
42.8287 717.00
42.8939 671.00
42.9591 614.00
43.0243 639.00
43.0895 651.00
43.1547 673.00
43.2199 666.00
43.2851 634.00
43.3503 669.00
43.4155 669.00
43.4807 682.00
43.5459 715.00
43.6111 629.00
43.6763 669.00
43.7415 789.00
43.8067 797.00
43.8719 852.00
43.9371 1020.00
44.0023 1101.00
44.0675 1151.00
44.1327 1144.00
44.1979 1066.00
44.2631 1163.00
44.3283 1020.00
44.3935 912.00
44.4587 798.00
44.5239 717.00
44.5891 682.00
44.6543 621.00
44.7195 637.00
44.7847 679.00
44.8499 782.00
44.9151 858.00
44.9803 853.00
45.0455 969.00
45.1107 791.00
45.1759 746.00
45.2411 747.00
45.3063 734.00
45.3715 729.00
45.4367 681.00
45.5019 704.00
45.5671 723.00
45.6323 686.00
45.6975 882.00
45.7627 837.00
45.8279 891.00
45.8931 821.00
45.9583 810.00
46.0235 846.00
46.0887 978.00
46.1539 1070.00
46.2191 1395.00
46.2843 2169.00
46.3495 3178.00
46.4147 3046.00
46.4799 2523.00
46.5451 1872.00
46.6103 1289.00
46.6755 990.00
46.7407 893.00
46.8059 842.00
46.8711 863.00
46.9363 780.00
47.0015 776.00
47.0667 870.00
47.1319 1007.00
47.1971 806.00
47.2623 763.00
47.3275 711.00
47.3927 651.00
47.4579 654.00
47.523 689.00
47.5882 655.00
47.6534 683.00
47.7186 624.00
47.7838 618.00
47.849 616.00
47.9142 622.00
47.9794 632.00
48.0446 587.00
48.1098 701.00
48.175 596.00
48.2402 642.00
48.3054 633.00
48.3706 588.00
48.4358 600.00
48.501 640.00
48.5662 664.00
48.6314 709.00
48.6966 645.00
48.7618 689.00
48.827 717.00
48.8922 765.00
48.9574 761.00
49.0226 748.00
49.0878 785.00
49.153 874.00
49.2182 1249.00
49.2834 1900.00
49.3486 1847.00
49.4138 1356.00
49.479 1166.00
49.5442 705.00
49.6094 679.00
49.6746 634.00
49.7398 639.00
49.805 666.00
49.8702 645.00
49.9354 679.00
50.0006 675.00
50.0658 696.00
50.131 703.00
50.1962 773.00
50.2614 686.00
50.3266 643.00
50.3918 657.00
50.457 585.00
50.5222 609.00
50.5874 591.00
50.6526 593.00
50.7178 627.00
50.783 631.00
50.8482 730.00
50.9134 909.00
50.9786 1201.00
51.0438 1262.00
51.109 1142.00
51.1742 938.00
51.2394 727.00
51.3046 646.00
51.3698 578.00
51.435 553.00
51.5002 523.00
51.5654 536.00
51.6306 583.00
51.6958 570.00
51.761 613.00
51.8262 751.00
51.8914 798.00
51.9566 826.00
52.0218 841.00
52.087 875.00
52.1522 933.00
52.2174 1009.00
52.2826 1237.00
52.3477 1763.00
52.4129 2531.00
52.4781 2498.00
52.5433 2044.00
52.6085 1692.00
52.6737 1140.00
52.7389 893.00
52.8041 766.00
52.8693 724.00
52.9345 653.00
52.9997 590.00
53.0649 615.00
53.1301 567.00
53.1953 598.00
53.2605 635.00
53.3257 585.00
53.3909 610.00
53.4561 659.00
53.5213 727.00
53.5865 854.00
53.6517 1038.00
53.7169 1194.00
53.7821 1393.00
53.8473 1403.00
53.9125 1366.00
53.9777 1394.00
54.0429 1194.00
54.1081 1073.00
54.1733 858.00
54.2385 806.00
54.3037 718.00
54.3689 609.00
54.4341 629.00
54.4993 557.00
54.5645 578.00
54.6297 591.00
54.6949 606.00
54.7601 585.00
54.8253 534.00
54.8905 586.00
54.9557 594.00
55.0209 654.00
55.0861 651.00
55.1513 625.00
55.2165 625.00
55.2817 652.00
55.3469 683.00
55.4121 781.00
55.4773 855.00
55.5425 1051.00
55.6077 1467.00
55.6729 1993.00
55.7381 2224.00
55.8033 1933.00
55.8685 1778.00
55.9337 1367.00
55.9989 1161.00
56.0641 1164.00
56.1293 1398.00
56.1945 1707.00
56.2597 1707.00
56.3249 1458.00
56.3901 1280.00
56.4553 1004.00
56.5205 794.00
56.5857 696.00
56.6509 604.00
56.7161 555.00
56.7813 554.00
56.8465 523.00
56.9117 534.00
56.9769 541.00
57.042 548.00
57.1073 516.00
57.1724 554.00
57.2376 548.00
57.3028 506.00
57.368 544.00
57.4332 484.00
57.4984 482.00
57.5636 505.00
57.6288 491.00
57.694 443.00
57.7592 478.00
57.8244 513.00
57.8896 568.00
57.9548 540.00
58.02 533.00
58.0852 495.00
58.1504 480.00
58.2156 513.00
58.2808 494.00
58.346 471.00
58.4112 433.00
58.4764 481.00
58.5416 482.00
58.6068 540.00
58.672 558.00
58.7372 506.00
58.8024 554.00
58.8676 570.00
58.9328 506.00
58.998 487.00
59.0632 538.00
59.1284 534.00
59.1936 494.00
59.2588 447.00
59.324 481.00
59.3892 470.00
59.4544 493.00
59.5196 460.00
59.5848 501.00
59.65 487.00
59.7152 462.00
59.7804 494.00
59.8456 472.00
59.9108 529.00
59.976 526.00
60.0412 515.00
60.1064 504.00
60.1716 530.00
60.2368 533.00
60.302 478.00
60.3672 531.00
60.4324 604.00
60.4976 706.00
60.5628 860.00
60.628 848.00
60.6932 868.00
60.7584 863.00
60.8236 808.00
60.8888 661.00
60.954 687.00
61.0192 635.00
61.0844 650.00
61.1496 591.00
61.2148 733.00
61.28 1166.00
61.3452 1606.00
61.4104 1018.00
61.4756 988.00
61.5408 915.00
61.606 585.00
61.6712 501.00
61.7364 532.00
61.8016 463.00
61.8667 428.00
61.932 471.00
61.9971 463.00
62.0623 427.00
62.1275 438.00
62.1927 530.00
62.2579 471.00
62.3231 498.00
62.3883 576.00
62.4535 650.00
62.5187 808.00
62.5839 747.00
62.6491 754.00
62.7143 658.00
62.7795 595.00
62.8447 513.00
62.9099 481.00
62.9751 447.00
63.0403 481.00
63.1055 483.00
63.1707 470.00
63.2359 453.00
63.3011 510.00
63.3663 513.00
63.4315 536.00
63.4967 518.00
63.5619 441.00
63.6271 436.00
63.6923 484.00
63.7575 481.00
63.8227 473.00
63.8879 510.00
63.9531 484.00
64.0183 481.00
64.0835 488.00
64.1487 501.00
64.2139 487.00
64.2791 473.00
64.3443 508.00
64.4095 487.00
64.4747 451.00
64.5399 409.00
64.6051 412.00
64.6703 390.00
64.7355 384.00
64.8007 396.00
64.8659 394.00
64.9311 463.00
64.9963 404.00
65.0615 417.00
65.1267 422.00
65.1919 411.00
65.2571 468.00
65.3223 487.00
65.3875 538.00
65.4527 713.00
65.5179 801.00
65.5831 796.00
65.6483 708.00
65.7135 592.00
65.7787 583.00
65.8439 506.00
65.9091 449.00
65.9743 428.00
66.0395 427.00
66.1047 461.00
66.1699 424.00
66.2351 395.00
66.3003 405.00
66.3655 421.00
66.4307 450.00
66.4959 443.00
66.561 420.00
66.6263 419.00
66.6915 440.00
66.7566 431.00
66.8218 442.00
66.887 436.00
66.9522 462.00
67.0174 478.00
67.0826 509.00
67.1478 557.00
67.213 560.00
67.2782 526.00
67.3434 526.00
67.4086 439.00
67.4738 419.00
67.539 391.00
67.6042 426.00
67.6694 363.00
67.7346 375.00
67.7998 380.00
67.865 367.00
67.9302 379.00
67.9954 404.00
68.0606 372.00
68.1258 372.00
68.191 417.00
68.2562 396.00
68.3214 331.00
68.3866 417.00
68.4518 426.00
68.517 389.00
68.5822 379.00
68.6474 438.00
68.7126 394.00
68.7778 384.00
68.843 389.00
68.9082 402.00
68.9734 378.00
69.0386 395.00
69.1038 359.00
69.169 364.00
69.2342 387.00
69.2994 376.00
69.3646 372.00
69.4298 374.00
69.495 363.00
69.5602 347.00
69.6254 409.00
69.6906 341.00
69.7558 393.00
69.821 376.00
69.8862 372.00
69.9514 416.00
70.0166 388.00
70.0818 440.00
70.147 481.00
70.2122 468.00
70.2774 479.00
70.3426 479.00
70.4078 443.00
70.473 439.00
70.5382 421.00
70.6034 415.00
70.6686 440.00
70.7338 406.00
70.799 423.00
70.8642 420.00
70.9294 391.00
70.9946 412.00
71.0598 389.00
71.125 401.00
71.1902 378.00
71.2554 366.00
71.3205 347.00
71.3858 394.00
71.451 419.00
71.5162 472.00
71.5813 508.00
71.6465 488.00
71.7117 480.00
71.7769 471.00
71.8421 503.00
71.9073 484.00
71.9725 558.00
72.0377 698.00
72.1029 854.00
72.1681 742.00
72.2333 837.00
72.2985 980.00
72.3637 1069.00
72.4289 858.00
72.4941 774.00
72.5593 842.00
72.6245 625.00
72.6897 612.00
72.7549 524.00
72.8201 509.00
72.8853 476.00
72.9505 485.00
73.0157 461.00
73.0809 457.00
73.1461 416.00
73.2113 441.00
73.2765 394.00
73.3417 427.00
73.4069 448.00
73.4721 460.00
73.5373 450.00
73.6025 494.00
73.6677 525.00
73.7329 515.00
73.7981 491.00
73.8633 485.00
73.9285 464.00
73.9937 454.00
74.0589 442.00
74.1241 402.00
74.1893 409.00
74.2545 393.00
74.3197 410.00
74.3849 399.00
74.4501 379.00
74.5153 357.00
74.5805 407.00
74.6457 408.00
74.7109 376.00
74.7761 348.00
74.8413 371.00
74.9065 384.00
74.9717 403.00
75.0369 385.00
75.1021 399.00
75.1673 439.00
75.2325 489.00
75.2977 521.00
75.3629 622.00
75.4281 760.00
75.4933 972.00
75.5585 999.00
75.6237 940.00
75.6889 870.00
75.7541 873.00
75.8193 710.00
75.8845 654.00
75.9497 593.00
76.0149 465.00
76.0801 469.00
76.1452 448.00
76.2104 426.00
76.2756 399.00
76.3409 405.00
76.406 354.00
76.4712 445.00
76.5364 418.00
76.6016 384.00
76.6668 385.00
76.732 440.00
76.7972 453.00
76.8624 400.00
76.9276 400.00
76.9928 461.00
77.058 393.00
77.1232 417.00
77.1884 424.00
77.2536 410.00
77.3188 396.00
77.384 389.00
77.4492 354.00
77.5144 383.00
77.5796 365.00
77.6448 435.00
77.71 425.00
77.7752 430.00
77.8404 445.00
77.9056 450.00
77.9708 424.00
78.036 449.00
78.1012 457.00
78.1664 435.00
78.2316 417.00
78.2968 422.00
78.362 432.00
78.4272 378.00
78.4924 441.00
78.5576 398.00
78.6228 419.00
78.688 376.00
78.7532 387.00
78.8184 445.00
78.8836 404.00
78.9488 418.00
79.014 475.00
79.0792 496.00
79.1444 471.00
79.2096 529.00
79.2748 639.00
79.34 777.00
79.4052 778.00
79.4704 706.00
79.5356 664.00
79.6008 595.00
79.666 568.00
79.7312 490.00
79.7964 456.00
79.8616 383.00
79.9268 415.00
79.992 384.00
80.0572 365.00
80.1224 361.00
80.1876 378.00
80.2528 359.00
80.318 397.00
80.3832 380.00
80.4484 349.00
80.5136 349.00
80.5788 389.00
80.644 385.00
80.7092 431.00
80.7744 395.00
80.8396 395.00
80.9048 436.00
80.9699 495.00
81.0351 592.00
81.1003 581.00
81.1655 539.00
81.2307 531.00
81.2959 514.00
81.3611 510.00
81.4263 464.00
81.4915 411.00
81.5567 431.00
81.6219 398.00
81.6871 396.00
81.7523 365.00
81.8175 406.00
81.8827 398.00
81.9479 437.00
82.0131 442.00
82.0783 512.00
82.1435 631.00
82.2087 709.00
82.2739 652.00
82.3391 590.00
82.4043 544.00
82.4695 538.00
82.5347 464.00
82.5999 446.00
82.6651 431.00
82.7303 432.00
82.7955 390.00
82.8607 425.00
82.9259 354.00
82.9911 379.00
83.0563 375.00
83.1215 353.00
83.1867 394.00
83.2519 412.00
83.3171 411.00
83.3823 419.00
83.4475 404.00
83.5127 380.00
83.5779 386.00
83.6431 407.00
83.7083 435.00
83.7735 448.00
83.8387 497.00
83.9039 553.00
83.9691 663.00
84.0343 672.00
84.0995 680.00
84.1647 574.00
84.2299 578.00
84.2951 547.00
84.3603 514.00
84.4255 447.00
84.4907 391.00
84.5559 392.00
84.6211 394.00
84.6863 374.00
84.7515 407.00
84.8167 400.00
84.8819 428.00
84.9471 430.00
85.0123 476.00
85.0775 460.00
85.1427 509.00
85.2079 514.00
85.2731 599.00
85.3383 544.00
85.4035 614.00
85.4687 622.00
85.5339 643.00
85.5991 672.00
85.6643 639.00
85.7295 632.00
85.7946 577.00
85.8598 602.00
85.925 614.00
85.9903 508.00
86.0554 506.00
86.1206 540.00
86.1858 481.00
86.251 452.00
86.3162 479.00
86.3814 426.00
86.4466 410.00
86.5118 424.00
86.577 406.00
86.6422 415.00
86.7074 403.00
86.7726 398.00
86.8378 387.00
86.903 330.00
86.9682 385.00
87.0334 316.00
87.0986 349.00
87.1638 366.00
87.229 360.00
87.2942 332.00
87.3594 335.00
87.4246 364.00
87.4898 340.00
87.555 361.00
87.6202 371.00
87.6854 394.00
87.7506 384.00
87.8158 359.00
87.881 402.00
87.9462 409.00
88.0114 392.00
88.0766 392.00
88.1418 420.00
88.207 458.00
88.2722 444.00
88.3374 413.00
88.4026 402.00
88.4678 414.00
88.533 359.00
88.5982 360.00
88.6634 394.00
88.7286 389.00
88.7938 363.00
88.859 365.00
88.9242 331.00
88.9894 403.00
89.0546 316.00
89.1198 351.00
89.185 351.00
89.2502 371.00
89.3154 366.00
89.3806 340.00
89.4458 367.00
89.511 349.00
89.5762 361.00
89.6414 372.00
89.7066 369.00
89.7718 423.00
89.837 434.00
89.9022 431.00
89.9674 533.00
90.0326 591.00
90.0978 717.00
90.163 760.00
90.2282 741.00
90.2934 687.00
90.3586 676.00
90.4238 641.00
90.489 549.00
90.5542 516.00
90.6193 459.00
90.6845 439.00
90.7497 415.00
90.8149 398.00
90.8801 418.00
90.9453 371.00
91.0105 368.00
91.0757 319.00
91.1409 350.00
91.2061 357.00
91.2713 320.00
91.3365 377.00
91.4017 365.00
91.4669 358.00
91.5321 357.00
91.5973 362.00
91.6625 372.00
91.7277 373.00
91.7929 341.00
91.8581 379.00
91.9233 391.00
91.9885 343.00
92.0537 410.00
92.1189 386.00
92.1841 413.00
92.2493 346.00
92.3145 412.00
92.3797 403.00
92.4449 415.00
92.5101 420.00
92.5753 460.00
92.6405 463.00
92.7057 511.00
92.7709 557.00
92.8361 547.00
92.9013 581.00
92.9665 557.00
93.0317 517.00
93.0969 550.00
93.1621 484.00
93.2273 441.00
93.2925 412.00
93.3577 398.00
93.4229 411.00
93.4881 380.00
93.5533 399.00
93.6185 366.00
93.6837 307.00
93.7489 329.00
93.8141 347.00
93.8793 358.00
93.9445 350.00
94.0097 341.00
94.0749 345.00
94.1401 359.00
94.2053 325.00
94.2705 334.00
94.3357 335.00
94.4009 327.00
94.4661 322.00
94.5313 319.00
94.5965 284.00
94.6617 304.00
94.7269 333.00
94.7921 309.00
94.8573 347.00
94.9225 345.00
94.9877 360.00
95.0529 350.00
95.1181 329.00
95.1833 326.00
95.2485 347.00
95.3137 351.00
95.3789 314.00
95.444 353.00
95.5092 331.00
95.5744 345.00
95.6396 330.00
95.7048 364.00
95.77 382.00
95.8352 372.00
95.9004 361.00
95.9656 346.00
96.0308 345.00
96.096 345.00
96.1612 359.00
96.2264 344.00
96.2916 316.00
96.3568 383.00
96.422 350.00
96.4872 347.00
96.5524 353.00
96.6176 350.00
96.6828 362.00
96.748 314.00
96.8132 350.00
96.8784 355.00
96.9436 302.00
97.0088 318.00
97.074 340.00
97.1392 336.00
97.2044 346.00
97.2696 365.00
97.3348 325.00
97.4 363.00
97.4652 367.00
97.5304 331.00
97.5956 378.00
97.6608 357.00
97.726 361.00
97.7912 360.00
97.8564 345.00
97.9216 375.00
97.9868 408.00
98.052 391.00
98.1172 409.00
98.1824 378.00
98.2476 367.00
98.3128 367.00
98.378 372.00
98.4432 369.00
98.5084 359.00
98.5736 339.00
98.6388 353.00
98.704 383.00
98.7692 365.00
98.8344 313.00
98.8996 328.00
98.9648 380.00
99.03 339.00
99.0952 318.00
99.1604 317.00
99.2256 308.00
99.2908 314.00
99.356 308.00
99.4212 331.00
99.4864 335.00
99.5516 322.00
99.6168 313.00
99.682 347.00
99.7472 336.00
99.8124 337.00
99.8776 353.00
99.9428 338.00
100.008 305.00
100.073 363.00
100.095 351.00