File: data/xrd_creation/results/Na_286.xy
9.903433 2860.00
9.968632 2907.00
10.0338 2882.00
10.099 2889.00
10.1642 2810.00
10.2294 2728.00
10.2946 2789.00
10.3598 2822.00
10.425 2673.00
10.4902 2750.00
10.5554 2733.00
10.6206 2581.00
10.6858 2816.00
10.751 2632.00
10.8162 2649.00
10.8814 2685.00
10.9466 2737.00
11.0118 2537.00
11.077 2645.00
11.1422 2546.00
11.2074 2609.00
11.2726 2664.00
11.3378 2691.00
11.403 2812.00
11.4682 3049.00
11.5334 3342.00
11.5986 3738.00
11.6638 4391.00
11.729 5359.00
11.7942 6585.00
11.8594 7342.00
11.9246 7280.00
11.9898 8854.00
12.055 11451.00
12.1202 13859.00
12.1854 16494.00
12.2506 14230.00
12.3158 7270.00
12.381 4717.00
12.4462 3961.00
12.5114 4220.00
12.5766 4778.00
12.6418 5016.00
12.707 4647.00
12.7722 3178.00
12.8374 2591.00
12.9026 2439.00
12.9678 2401.00
13.033 2336.00
13.0982 2357.00
13.1634 2294.00
13.2286 2211.00
13.2938 2195.00
13.359 2305.00
13.4242 2210.00
13.4894 2305.00
13.5546 2218.00
13.6198 2317.00
13.685 2227.00
13.7502 2345.00
13.8154 2303.00
13.8805 2440.00
13.9457 2540.00
14.0109 2680.00
14.0761 3013.00
14.1413 3183.00
14.2065 3567.00
14.2717 4222.00
14.3369 4665.00
14.4021 4950.00
14.4673 4358.00
14.5325 4512.00
14.5977 5268.00
14.6629 4334.00
14.7281 2741.00
14.7933 2500.00
14.8585 2361.00
14.9237 2141.00
14.9889 2114.00
15.0541 2026.00
15.1193 2051.00
15.1845 2113.00
15.2497 2021.00
15.3149 2018.00
15.3801 1964.00
15.4453 1958.00
15.5105 1982.00
15.5757 1878.00
15.6409 1939.00
15.7061 2001.00
15.7713 1989.00
15.8365 1898.00
15.9017 1875.00
15.9669 1886.00
16.0321 1976.00
16.0973 1980.00
16.1625 1957.00
16.2277 1942.00
16.2929 1893.00
16.3581 1968.00
16.4233 1972.00
16.4885 1937.00
16.5537 2009.00
16.6189 1879.00
16.6841 1925.00
16.7493 1844.00
16.8145 1849.00
16.8797 1881.00
16.9449 1934.00
17.0101 2016.00
17.0753 1995.00
17.1405 1990.00
17.2057 1993.00
17.2709 2082.00
17.3361 2127.00
17.4013 2202.00
17.4665 2215.00
17.5317 2323.00
17.5969 2156.00
17.6621 1915.00
17.7273 1854.00
17.7925 1942.00
17.8577 1856.00
17.9229 1933.00
17.9881 1809.00
18.0533 1808.00
18.1185 1824.00
18.1837 1785.00
18.2489 1757.00
18.3141 1778.00
18.3793 1855.00
18.4445 1818.00
18.5097 1822.00
18.5749 1842.00
18.6401 2016.00
18.7052 2227.00
18.7704 2503.00
18.8356 2874.00
18.9008 2550.00
18.966 2144.00
19.0312 2208.00
19.0964 2388.00
19.1616 2595.00
19.2268 2925.00
19.292 3270.00
19.3572 3789.00
19.4224 3602.00
19.4876 3024.00
19.5528 3040.00
19.618 3462.00
19.6832 4029.00
19.7484 4110.00
19.8136 4330.00
19.8788 3760.00
19.944 2921.00
20.0092 2457.00
20.0744 2472.00
20.1396 2314.00
20.2048 2146.00
20.27 2356.00
20.3352 2852.00
20.4004 3522.00
20.4656 3261.00
20.5308 2419.00
20.596 2559.00
20.6612 3026.00
20.7264 3126.00
20.7916 3033.00
20.8568 3054.00
20.922 2814.00
20.9872 2647.00
21.0524 2543.00
21.1176 2092.00
21.1828 2003.00
21.248 1926.00
21.3132 1932.00
21.3784 2208.00
21.4436 2737.00
21.5088 3159.00
21.574 3326.00
21.6392 3301.00
21.7044 3051.00
21.7696 2719.00
21.8348 2378.00
21.9 2279.00
21.9652 2391.00
22.0304 2349.00
22.0956 2364.00
22.1608 2110.00
22.226 1947.00
22.2912 1769.00
22.3564 1749.00
22.4216 1816.00
22.4868 1768.00
22.552 1728.00
22.6172 1930.00
22.6824 2042.00
22.7476 2158.00
22.8128 2512.00
22.878 2892.00
22.9432 3153.00
23.0084 3827.00
23.0736 5469.00
23.1388 7860.00
23.204 8631.00
23.2692 6077.00
23.3344 4367.00
23.3996 4232.00
23.4647 3785.00
23.5299 2791.00
23.5951 2344.00
23.6603 2337.00
23.7255 2714.00
23.7907 3290.00
23.8559 4067.00
23.9211 3847.00
23.9863 3249.00
24.0515 3188.00
24.1167 3608.00
24.1819 3918.00
24.2471 4169.00
24.3123 3414.00
24.3775 2510.00
24.4427 2255.00
24.5079 2129.00
24.5731 2194.00
24.6383 2244.00
24.7035 2371.00
24.7687 2526.00
24.8339 2492.00
24.8991 2477.00
24.9643 2539.00
25.0295 2998.00
25.0947 3571.00
25.1599 3226.00
25.2251 2415.00
25.2903 1978.00
25.3555 1790.00
25.4207 1670.00
25.4859 1627.00
25.5511 1579.00
25.6163 1555.00
25.6815 1602.00
25.7467 1592.00
25.8119 1529.00
25.8771 1557.00
25.9423 1485.00
26.0075 1499.00
26.0727 1559.00
26.1379 1602.00
26.2031 1681.00
26.2683 1716.00
26.3335 1783.00
26.3987 1675.00
26.4639 1569.00
26.5291 1503.00
26.5943 1609.00
26.6595 1822.00
26.7247 2135.00
26.7899 2041.00
26.8551 1761.00
26.9203 1791.00
26.9855 1931.00
27.0507 1856.00
27.1159 1822.00
27.1811 1870.00
27.2463 1983.00
27.3115 2239.00
27.3767 2295.00
27.4419 2371.00
27.5071 2354.00
27.5723 2363.00
27.6375 2525.00
27.7027 2687.00
27.7679 2989.00
27.8331 3470.00
27.8983 4634.00
27.9635 5859.00
28.0287 7044.00
28.0939 6389.00
28.1591 4973.00
28.2243 3999.00
28.2894 3796.00
28.3546 3527.00
28.4198 3512.00
28.485 4457.00
28.5502 5692.00
28.6154 5999.00
28.6806 4953.00
28.7458 3779.00
28.811 2899.00
28.8762 2693.00
28.9414 2865.00
29.0066 3817.00
29.0718 5155.00
29.137 6181.00
29.2022 5268.00
29.2674 3493.00
29.3326 2354.00
29.3978 1929.00
29.463 2133.00
29.5282 2092.00
29.5934 2269.00
29.6586 2154.00
29.7238 2189.00
29.789 2756.00
29.8542 3564.00
29.9194 4209.00
29.9846 5037.00
30.0498 4201.00
30.115 3174.00
30.1802 2704.00
30.2454 2360.00
30.3106 2423.00
30.3758 2600.00
30.441 2834.00
30.5062 3236.00
30.5714 3423.00
30.6366 3360.00
30.7018 3540.00
30.767 3665.00
30.8322 3389.00
30.8974 3318.00
30.9626 2871.00
31.0278 2319.00
31.093 2148.00
31.1582 2042.00
31.2234 2098.00
31.2886 2449.00
31.3538 2942.00
31.419 3353.00
31.4842 3622.00
31.5494 3322.00
31.6146 3135.00
31.6798 3371.00
31.745 3742.00
31.8102 3909.00
31.8754 4062.00
31.9406 4054.00
32.0058 3712.00
32.071 3704.00
32.1362 3998.00
32.2014 3859.00
32.2666 3568.00
32.3318 3283.00
32.397 3281.00
32.4622 3234.00
32.5274 3128.00
32.5926 3375.00
32.6578 3322.00
32.723 3224.00
32.7882 2868.00
32.8534 2580.00
32.9186 2762.00
32.9838 3031.00
33.0489 3212.00
33.1141 2770.00
33.1793 2418.00
33.2445 2360.00
33.3097 2407.00
33.3749 2631.00
33.4401 3129.00
33.5053 3481.00
33.5705 2890.00
33.6357 2123.00
33.7009 1827.00
33.7661 1671.00
33.8313 1664.00
33.8965 1682.00
33.9617 1783.00
34.0269 1908.00
34.0921 2162.00
34.1573 2595.00
34.2225 3367.00
34.2877 4058.00
34.3529 3667.00
34.4181 3042.00
34.4833 2658.00
34.5485 2439.00
34.6137 2387.00
34.6789 2438.00
34.7441 2432.00
34.8093 2667.00
34.8745 3062.00
34.9397 3225.00
35.0049 3284.00
35.0701 3378.00
35.1353 3482.00
35.2005 3208.00
35.2657 2879.00
35.3309 2236.00
35.3961 1771.00
35.4613 1574.00
35.5265 1512.00
35.5917 1492.00
35.6569 1580.00
35.7221 1636.00
35.7873 1667.00
35.8525 1737.00
35.9177 1782.00
35.9829 1821.00
36.0481 1757.00
36.1133 1710.00
36.1785 1740.00
36.2437 1764.00
36.3089 1920.00
36.3741 2274.00
36.4393 2555.00
36.5045 2853.00
36.5697 2864.00
36.6349 2709.00
36.7001 2747.00
36.7653 2916.00
36.8305 3149.00
36.8957 3640.00
36.9609 4044.00
37.0261 3765.00
37.0913 3125.00
37.1565 2531.00
37.2217 2321.00
37.2869 2323.00
37.3521 2680.00
37.4173 2685.00
37.4825 2541.00
37.5477 2085.00
37.6129 1830.00
37.6781 1831.00
37.7433 1984.00
37.8085 2152.00
37.8736 2183.00
37.9388 2153.00
38.004 1981.00
38.0692 1724.00
38.1344 1644.00
38.1996 1542.00
38.2648 1523.00
38.33 1469.00
38.3952 1525.00
38.4604 1598.00
38.5256 1494.00
38.5908 1535.00
38.656 1523.00
38.7212 1750.00
38.7864 1899.00
38.8516 1972.00
38.9168 1899.00
38.982 1769.00
39.0472 1658.00
39.1124 1479.00
39.1776 1446.00
39.2428 1450.00
39.308 1463.00
39.3732 1744.00
39.4384 1854.00
39.5036 1786.00
39.5688 1750.00
39.634 1599.00
39.6992 1461.00
39.7644 1386.00
39.8296 1461.00
39.8948 1548.00
39.96 1653.00
40.0252 1741.00
40.0904 1762.00
40.1556 1704.00
40.2208 1599.00
40.286 1545.00
40.3512 1542.00
40.4164 1474.00
40.4816 1430.00
40.5468 1331.00
40.612 1258.00
40.6772 1295.00
40.7424 1309.00
40.8076 1226.00
40.8728 1238.00
40.938 1275.00
41.0032 1349.00
41.0684 1349.00
41.1336 1387.00
41.1988 1414.00
41.264 1306.00
41.3292 1342.00
41.3944 1381.00
41.4596 1372.00
41.5248 1481.00
41.59 1768.00
41.6552 1884.00
41.7204 2054.00
41.7856 2057.00
41.8508 1841.00
41.916 1592.00
41.9812 1467.00
42.0464 1414.00
42.1116 1427.00
42.1768 1407.00
42.242 1552.00
42.3072 1552.00
42.3724 1560.00
42.4376 1494.00
42.5028 1359.00
42.568 1346.00
42.6332 1304.00
42.6983 1312.00
42.7635 1271.00
42.8287 1302.00
42.8939 1405.00
42.9591 1346.00
43.0243 1302.00
43.0895 1347.00
43.1547 1361.00
43.2199 1533.00
43.2851 1531.00
43.3503 1627.00
43.4155 1634.00
43.4807 1669.00
43.5459 1681.00
43.6111 1834.00
43.6763 1776.00
43.7415 1810.00
43.8067 1624.00
43.8719 1641.00
43.9371 1655.00
44.0023 1589.00
44.0675 1691.00
44.1327 1789.00
44.1979 1640.00
44.2631 1634.00
44.3283 1593.00
44.3935 1665.00
44.4587 1696.00
44.5239 1603.00
44.5891 1663.00
44.6543 1731.00
44.7195 1975.00
44.7847 2032.00
44.8499 2030.00
44.9151 1983.00
44.9803 1876.00
45.0455 1813.00
45.1107 1711.00
45.1759 1629.00
45.2411 1617.00
45.3063 1490.00
45.3715 1398.00
45.4367 1431.00
45.5019 1400.00
45.5671 1475.00
45.6323 1422.00
45.6975 1574.00
45.7627 1624.00
45.8279 1758.00
45.8931 1988.00
45.9583 1996.00
46.0235 1763.00
46.0887 1713.00
46.1539 1627.00
46.2191 1548.00
46.2843 1706.00
46.3495 1843.00
46.4147 1810.00
46.4799 1632.00
46.5451 1570.00
46.6103 1472.00
46.6755 1533.00
46.7407 1568.00
46.8059 1733.00
46.8711 2362.00
46.9363 2866.00
47.0015 3099.00
47.0667 2921.00
47.1319 2554.00
47.1971 2211.00
47.2623 1884.00
47.3275 1748.00
47.3927 1761.00
47.4579 1973.00
47.523 2145.00
47.5882 2157.00
47.6534 1844.00
47.7186 1642.00
47.7838 1371.00
47.849 1277.00
47.9142 1173.00
47.9794 1196.00
48.0446 1132.00
48.1098 1233.00
48.175 1214.00
48.2402 1221.00
48.3054 1263.00
48.3706 1426.00
48.4358 1532.00
48.501 1601.00
48.5662 1618.00
48.6314 1574.00
48.6966 1690.00
48.7618 1742.00
48.827 1842.00
48.8922 1729.00
48.9574 1718.00
49.0226 1871.00
49.0878 2045.00
49.153 2095.00
49.2182 2236.00
49.2834 2180.00
49.3486 2073.00
49.4138 1984.00
49.479 1843.00
49.5442 1668.00
49.6094 1656.00
49.6746 1655.00
49.7398 1827.00
49.805 1817.00
49.8702 1900.00
49.9354 1979.00
50.0006 1944.00
50.0658 1942.00
50.131 1861.00
50.1962 1762.00
50.2614 1632.00
50.3266 1562.00
50.3918 1575.00
50.457 1582.00
50.5222 1638.00
50.5874 1666.00
50.6526 1789.00
50.7178 1780.00
50.783 1822.00
50.8482 1899.00
50.9134 2066.00
50.9786 2239.00
51.0438 2295.00
51.109 2196.00
51.1742 2264.00
51.2394 2118.00
51.3046 2081.00
51.3698 1961.00
51.435 1965.00
51.5002 2078.00
51.5654 2059.00
51.6306 2134.00
51.6958 1852.00
51.761 1647.00
51.8262 1541.00
51.8914 1433.00
51.9566 1478.00
52.0218 1659.00
52.087 1691.00
52.1522 1704.00
52.2174 1674.00
52.2826 1695.00
52.3477 1605.00
52.4129 1677.00
52.4781 1565.00
52.5433 1586.00
52.6085 1441.00
52.6737 1429.00
52.7389 1479.00
52.8041 1497.00
52.8693 1558.00
52.9345 1574.00
52.9997 1610.00
53.0649 1788.00
53.1301 1720.00
53.1953 1976.00
53.2605 2130.00
53.3257 2174.00
53.3909 2197.00
53.4561 2067.00
53.5213 2085.00
53.5865 2162.00
53.6517 1932.00
53.7169 2010.00
53.7821 1951.00
53.8473 1879.00
53.9125 1684.00
53.9777 1791.00
54.0429 1784.00
54.1081 1972.00
54.1733 1925.00
54.2385 1977.00
54.3037 2047.00
54.3689 1834.00
54.4341 1750.00
54.4993 1724.00
54.5645 1690.00
54.6297 1745.00
54.6949 1937.00
54.7601 1884.00
54.8253 1909.00
54.8905 1890.00
54.9557 1933.00
55.0209 1904.00
55.0861 1874.00
55.1513 1926.00
55.2165 1813.00
55.2817 1896.00
55.3469 1884.00
55.4121 1957.00
55.4773 1948.00
55.5425 2028.00
55.6077 2344.00
55.6729 2655.00
55.7381 2815.00
55.8033 2730.00
55.8685 2809.00
55.9337 2723.00
55.9989 2746.00
56.0641 2668.00
56.1293 2572.00
56.1945 2454.00
56.2597 2190.00
56.3249 2047.00
56.3901 2262.00
56.4553 2363.00
56.5205 2360.00
56.5857 2392.00
56.6509 2345.00
56.7161 2227.00
56.7813 2051.00
56.8465 1885.00
56.9117 1817.00
56.9769 1783.00
57.042 1753.00
57.1073 1666.00
57.1724 1648.00
57.2376 1652.00
57.3028 1685.00
57.368 1684.00
57.4332 1805.00
57.4984 1866.00
57.5636 1820.00
57.6288 1872.00
57.694 1823.00
57.7592 1692.00
57.8244 1660.00
57.8896 1630.00
57.9548 1558.00
58.02 1563.00
58.0852 1490.00
58.1504 1507.00
58.2156 1430.00
58.2808 1385.00
58.346 1326.00
58.4112 1440.00
58.4764 1377.00
58.5416 1406.00
58.6068 1397.00
58.672 1487.00
58.7372 1503.00
58.8024 1548.00
58.8676 1504.00
58.9328 1555.00
58.998 1517.00
59.0632 1495.00
59.1284 1701.00
59.1936 1957.00
59.2588 2051.00
59.324 2089.00
59.3892 2124.00
59.4544 2009.00
59.5196 2001.00
59.5848 1881.00
59.65 1894.00
59.7152 1819.00
59.7804 1853.00
59.8456 1825.00
59.9108 1931.00
59.976 2043.00
60.0412 2126.00
60.1064 2095.00
60.1716 1968.00
60.2368 1938.00
60.302 1781.00
60.3672 1733.00
60.4324 1850.00
60.4976 1788.00
60.5628 1835.00
60.628 1915.00
60.6932 1752.00
60.7584 1678.00
60.8236 1709.00
60.8888 1603.00
60.954 1555.00
61.0192 1573.00
61.0844 1580.00
61.1496 1584.00
61.2148 1679.00
61.28 1690.00
61.3452 1615.00
61.4104 1599.00
61.4756 1614.00
61.5408 1608.00
61.606 1485.00
61.6712 1548.00
61.7364 1510.00
61.8016 1481.00
61.8667 1607.00
61.932 1644.00
61.9971 1629.00
62.0623 1626.00
62.1275 1557.00
62.1927 1500.00
62.2579 1538.00
62.3231 1543.00
62.3883 1430.00
62.4535 1460.00
62.5187 1473.00
62.5839 1505.00
62.6491 1570.00
62.7143 1543.00
62.7795 1563.00
62.8447 1591.00
62.9099 1398.00
62.9751 1420.00
63.0403 1454.00
63.1055 1491.00
63.1707 1469.00
63.2359 1394.00
63.3011 1308.00
63.3663 1331.00
63.4315 1383.00
63.4967 1478.00
63.5619 1454.00
63.6271 1572.00
63.6923 1648.00
63.7575 1699.00
63.8227 1663.00
63.8879 1628.00
63.9531 1525.00
64.0183 1606.00
64.0835 1498.00
64.1487 1450.00
64.2139 1304.00
64.2791 1348.00
64.3443 1283.00
64.4095 1328.00
64.4747 1381.00
64.5399 1389.00
64.6051 1423.00
64.6703 1430.00
64.7355 1410.00
64.8007 1389.00
64.8659 1421.00
64.9311 1477.00
64.9963 1444.00
65.0615 1390.00
65.1267 1350.00
65.1919 1340.00
65.2571 1293.00
65.3223 1328.00
65.3875 1380.00
65.4527 1358.00
65.5179 1398.00
65.5831 1402.00
65.6483 1496.00
65.7135 1387.00
65.7787 1513.00
65.8439 1465.00
65.9091 1537.00
65.9743 1566.00
66.0395 1568.00
66.1047 1700.00
66.1699 1717.00
66.2351 1605.00
66.3003 1608.00
66.3655 1631.00
66.4307 1572.00
66.4959 1494.00
66.561 1582.00
66.6263 1567.00
66.6915 1597.00
66.7566 1558.00
66.8218 1607.00
66.887 1616.00
66.9522 1624.00
67.0174 1591.00
67.0826 1525.00
67.1478 1480.00
67.213 1385.00
67.2782 1457.00
67.3434 1402.00
67.4086 1381.00
67.4738 1404.00
67.539 1438.00
67.6042 1506.00
67.6694 1527.00
67.7346 1560.00
67.7998 1585.00
67.865 1546.00
67.9302 1549.00
67.9954 1561.00
68.0606 1512.00
68.1258 1590.00
68.191 1425.00
68.2562 1453.00
68.3214 1463.00
68.3866 1347.00
68.4518 1378.00
68.517 1389.00
68.5822 1326.00
68.6474 1251.00
68.7126 1253.00
68.7778 1190.00
68.843 1219.00
68.9082 1291.00
68.9734 1282.00
69.0386 1351.00
69.1038 1356.00
69.169 1336.00
69.2342 1437.00
69.2994 1346.00
69.3646 1419.00
69.4298 1393.00
69.495 1299.00
69.5602 1367.00
69.6254 1386.00
69.6906 1327.00
69.7558 1378.00
69.821 1438.00
69.8862 1459.00
69.9514 1477.00
70.0166 1487.00
70.0818 1351.00
70.147 1369.00
70.2122 1326.00
70.2774 1307.00
70.3426 1256.00
70.4078 1353.00
70.473 1286.00
70.5382 1354.00
70.6034 1355.00
70.6686 1347.00
70.7338 1359.00
70.799 1484.00
70.8642 1440.00
70.9294 1365.00
70.9946 1380.00
71.0598 1294.00
71.125 1242.00
71.1902 1232.00
71.2554 1191.00
71.3205 1168.00
71.3858 1165.00
71.451 1236.00
71.5162 1259.00
71.5813 1254.00
71.6465 1319.00
71.7117 1348.00
71.7769 1269.00
71.8421 1332.00
71.9073 1301.00
71.9725 1268.00
72.0377 1227.00
72.1029 1221.00
72.1681 1253.00
72.2333 1248.00
72.2985 1161.00
72.3637 1219.00
72.4289 1243.00
72.4941 1150.00
72.5593 1172.00
72.6245 1133.00
72.6897 1141.00
72.7549 1187.00
72.8201 1255.00
72.8853 1199.00
72.9505 1236.00
73.0157 1310.00
73.0809 1369.00
73.1461 1347.00
73.2113 1337.00
73.2765 1354.00
73.3417 1446.00
73.4069 1452.00
73.4721 1321.00
73.5373 1287.00
73.6025 1360.00
73.6677 1247.00
73.7329 1311.00
73.7981 1368.00
73.8633 1342.00
73.9285 1294.00
73.9937 1288.00
74.0589 1327.00
74.1241 1295.00
74.1893 1293.00
74.2545 1167.00
74.3197 1134.00
74.3849 1218.00
74.4501 1155.00
74.5153 1116.00
74.5805 1096.00
74.6457 1056.00
74.7109 1133.00
74.7761 1127.00
74.8413 1079.00
74.9065 1108.00
74.9717 1125.00
75.0369 1122.00
75.1021 1127.00
75.1673 1129.00
75.2325 1158.00
75.2977 1194.00
75.3629 1155.00
75.4281 1141.00
75.4933 1174.00
75.5585 1171.00
75.6237 1166.00
75.6889 1141.00
75.7541 1114.00
75.8193 1198.00
75.8845 1068.00
75.9497 1154.00
76.0149 1119.00
76.0801 1105.00
76.1452 1036.00
76.2104 1061.00
76.2756 1098.00
76.3409 1169.00
76.406 1144.00
76.4712 1170.00
76.5364 1125.00
76.6016 1243.00
76.6668 1126.00
76.732 1134.00
76.7972 1149.00
76.8624 1265.00
76.9276 1186.00
76.9928 1243.00
77.058 1263.00
77.1232 1248.00
77.1884 1290.00
77.2536 1274.00
77.3188 1202.00
77.384 1216.00
77.4492 1201.00
77.5144 1181.00
77.5796 1234.00
77.6448 1185.00
77.71 1162.00
77.7752 1189.00
77.8404 1217.00
77.9056 1192.00
77.9708 1171.00
78.036 1219.00
78.1012 1141.00
78.1664 1145.00
78.2316 1167.00
78.2968 1151.00
78.362 1140.00
78.4272 1068.00
78.4924 1131.00
78.5576 1123.00
78.6228 1035.00
78.688 1095.00
78.7532 1106.00
78.8184 1037.00
78.8836 1081.00
78.9488 1068.00
79.014 1126.00
79.0792 1214.00
79.1444 1146.00
79.2096 1226.00
79.2748 1176.00
79.34 1218.00
79.4052 1230.00
79.4704 1121.00
79.5356 1201.00
79.6008 1181.00
79.666 1148.00
79.7312 1129.00
79.7964 1242.00
79.8616 1222.00
79.9268 1175.00
79.992 1234.00
80.0572 1243.00
80.1224 1362.00
80.1876 1330.00
80.2528 1423.00
80.318 1450.00
80.3832 1428.00
80.4484 1402.00
80.5136 1349.00
80.5788 1339.00
80.644 1432.00
80.7092 1383.00
80.7744 1447.00
80.8396 1415.00
80.9048 1344.00
80.9699 1298.00
81.0351 1283.00
81.1003 1309.00
81.1655 1223.00
81.2307 1217.00
81.2959 1210.00
81.3611 1131.00
81.4263 1162.00
81.4915 1131.00
81.5567 1120.00
81.6219 1146.00
81.6871 1079.00
81.7523 1187.00
81.8175 1205.00
81.8827 1151.00
81.9479 1200.00
82.0131 1146.00
82.0783 1205.00
82.1435 1183.00
82.2087 1239.00
82.2739 1201.00
82.3391 1184.00
82.4043 1255.00
82.4695 1250.00
82.5347 1264.00
82.5999 1196.00
82.6651 1229.00
82.7303 1185.00
82.7955 1239.00
82.8607 1224.00
82.9259 1305.00
82.9911 1275.00
83.0563 1237.00
83.1215 1263.00
83.1867 1298.00
83.2519 1297.00
83.3171 1214.00
83.3823 1171.00
83.4475 1246.00
83.5127 1191.00
83.5779 1222.00
83.6431 1233.00
83.7083 1171.00
83.7735 1196.00
83.8387 1172.00
83.9039 1178.00
83.9691 1219.00
84.0343 1158.00
84.0995 1235.00
84.1647 1140.00
84.2299 1202.00
84.2951 1275.00
84.3603 1266.00
84.4255 1235.00
84.4907 1213.00
84.5559 1318.00
84.6211 1313.00
84.6863 1225.00
84.7515 1333.00
84.8167 1286.00
84.8819 1259.00
84.9471 1327.00
85.0123 1300.00
85.0775 1286.00
85.1427 1235.00
85.2079 1283.00
85.2731 1270.00
85.3383 1233.00
85.4035 1231.00
85.4687 1219.00
85.5339 1199.00
85.5991 1233.00
85.6643 1257.00
85.7295 1227.00
85.7946 1269.00
85.8598 1272.00
85.925 1180.00
85.9903 1205.00
86.0554 1261.00
86.1206 1221.00
86.1858 1215.00
86.251 1271.00
86.3162 1247.00
86.3814 1217.00
86.4466 1201.00
86.5118 1297.00
86.577 1176.00
86.6422 1270.00
86.7074 1220.00
86.7726 1195.00
86.8378 1225.00
86.903 1211.00
86.9682 1185.00
87.0334 1230.00
87.0986 1116.00
87.1638 1196.00
87.229 1221.00
87.2942 1126.00
87.3594 1191.00
87.4246 1118.00
87.4898 1146.00
87.555 1224.00
87.6202 1137.00
87.6854 1199.00
87.7506 1255.00
87.8158 1191.00
87.881 1168.00
87.9462 1246.00
88.0114 1224.00
88.0766 1175.00
88.1418 1238.00
88.207 1246.00
88.2722 1205.00
88.3374 1207.00
88.4026 1250.00
88.4678 1160.00
88.533 1188.00
88.5982 1204.00
88.6634 1198.00
88.7286 1160.00
88.7938 1134.00
88.859 1135.00
88.9242 1121.00
88.9894 1099.00
89.0546 1183.00
89.1198 1141.00
89.185 1090.00
89.2502 1138.00
89.3154 1148.00
89.3806 1177.00
89.4458 1108.00
89.511 1120.00
89.5762 1197.00
89.6414 1188.00
89.7066 1166.00
89.7718 1214.00
89.837 1177.00
89.9022 1202.00
89.9674 1287.00
90.0326 1168.00
90.0978 1266.00
90.163 1265.00
90.2282 1273.00
90.2934 1317.00
90.3586 1149.00
90.4238 1217.00
90.489 1305.00
90.5542 1149.00
90.6193 1178.00
90.6845 1212.00
90.7497 1172.00
90.8149 1203.00
90.8801 1137.00
90.9453 1233.00
91.0105 1140.00
91.0757 1160.00
91.1409 1106.00
91.2061 1154.00
91.2713 1124.00
91.3365 1122.00
91.4017 1108.00
91.4669 1163.00
91.5321 1064.00
91.5973 1091.00
91.6625 1051.00
91.7277 1144.00
91.7929 1098.00
91.8581 1108.00
91.9233 1156.00
91.9885 1151.00
92.0537 1068.00
92.1189 1171.00
92.1841 1033.00
92.2493 1185.00
92.3145 1084.00
92.3797 1070.00
92.4449 1122.00
92.5101 1139.00
92.5753 1127.00
92.6405 1163.00
92.7057 1105.00
92.7709 1172.00
92.8361 1074.00
92.9013 1175.00
92.9665 1098.00
93.0317 1208.00
93.0969 1147.00
93.1621 1190.00
93.2273 1216.00
93.2925 1225.00
93.3577 1159.00
93.4229 1186.00
93.4881 1245.00
93.5533 1249.00
93.6185 1246.00
93.6837 1241.00
93.7489 1193.00
93.8141 1223.00
93.8793 1188.00
93.9445 1240.00
94.0097 1218.00
94.0749 1191.00
94.1401 1215.00
94.2053 1256.00
94.2705 1219.00
94.3357 1133.00
94.4009 1183.00
94.4661 1211.00
94.5313 1196.00
94.5965 1201.00
94.6617 1130.00
94.7269 1174.00
94.7921 1173.00
94.8573 1183.00
94.9225 1281.00
94.9877 1219.00
95.0529 1250.00
95.1181 1274.00
95.1833 1269.00
95.2485 1244.00
95.3137 1294.00
95.3789 1188.00
95.444 1278.00
95.5092 1231.00
95.5744 1188.00
95.6396 1259.00
95.7048 1163.00
95.77 1159.00
95.8352 1214.00
95.9004 1103.00
95.9656 1159.00
96.0308 1130.00
96.096 1163.00
96.1612 1173.00
96.2264 1172.00
96.2916 1126.00
96.3568 1148.00
96.422 1114.00
96.4872 1164.00
96.5524 1156.00
96.6176 1125.00
96.6828 1130.00
96.748 1215.00
96.8132 1150.00
96.8784 1117.00
96.9436 1141.00
97.0088 1129.00
97.074 1110.00
97.1392 1113.00
97.2044 1185.00
97.2696 1181.00
97.3348 1204.00
97.4 1114.00
97.4652 1201.00
97.5304 1097.00
97.5956 1130.00
97.6608 1082.00
97.726 1122.00
97.7912 1117.00
97.8564 1127.00
97.9216 1104.00
97.9868 1187.00
98.052 1187.00
98.1172 1212.00
98.1824 1144.00
98.2476 1234.00
98.3128 1223.00
98.378 1245.00
98.4432 1259.00
98.5084 1258.00
98.5736 1205.00
98.6388 1239.00
98.704 1265.00
98.7692 1237.00
98.8344 1202.00
98.8996 1189.00
98.9648 1239.00
99.03 1155.00
99.0952 1183.00
99.1604 1097.00
99.2256 1177.00
99.2908 1219.00
99.356 1127.00
99.4212 1163.00
99.4864 1165.00
99.5516 1219.00
99.6168 1167.00
99.682 1233.00
99.7472 1228.00
99.8124 1215.00
99.8776 1146.00
99.9428 1207.00
100.008 1247.00
100.073 1188.00
100.095 1116.00