File: data/xrd_creation/results/Na_275.xy
9.903433 2701.00
9.968632 2541.00
10.0338 2500.00
10.099 2568.00
10.1642 2313.00
10.2294 2449.00
10.2946 2430.00
10.3598 2409.00
10.425 2392.00
10.4902 2367.00
10.5554 2364.00
10.6206 2292.00
10.6858 2307.00
10.751 2306.00
10.8162 2288.00
10.8814 2250.00
10.9466 2205.00
11.0118 2087.00
11.077 2187.00
11.1422 2176.00
11.2074 2114.00
11.2726 2105.00
11.3378 2098.00
11.403 2028.00
11.4682 2121.00
11.5334 2117.00
11.5986 1920.00
11.6638 2057.00
11.729 1989.00
11.7942 2041.00
11.8594 1968.00
11.9246 1931.00
11.9898 1892.00
12.055 1937.00
12.1202 1868.00
12.1854 1814.00
12.2506 1898.00
12.3158 1886.00
12.381 1828.00
12.4462 1803.00
12.5114 1701.00
12.5766 1743.00
12.6418 1741.00
12.707 1715.00
12.7722 1729.00
12.8374 1686.00
12.9026 1715.00
12.9678 1734.00
13.033 1760.00
13.0982 1692.00
13.1634 1640.00
13.2286 1652.00
13.2938 1603.00
13.359 1559.00
13.4242 1588.00
13.4894 1552.00
13.5546 1571.00
13.6198 1497.00
13.685 1563.00
13.7502 1539.00
13.8154 1562.00
13.8805 1564.00
13.9457 1557.00
14.0109 1501.00
14.0761 1484.00
14.1413 1471.00
14.2065 1514.00
14.2717 1457.00
14.3369 1515.00
14.4021 1472.00
14.4673 1463.00
14.5325 1450.00
14.5977 1448.00
14.6629 1479.00
14.7281 1452.00
14.7933 1393.00
14.8585 1383.00
14.9237 1411.00
14.9889 1312.00
15.0541 1438.00
15.1193 1379.00
15.1845 1420.00
15.2497 1379.00
15.3149 1386.00
15.3801 1305.00
15.4453 1318.00
15.5105 1374.00
15.5757 1266.00
15.6409 1277.00
15.7061 1416.00
15.7713 1288.00
15.8365 1304.00
15.9017 1287.00
15.9669 1298.00
16.0321 1300.00
16.0973 1391.00
16.1625 1298.00
16.2277 1327.00
16.2929 1245.00
16.3581 1239.00
16.4233 1268.00
16.4885 1212.00
16.5537 1264.00
16.6189 1218.00
16.6841 1270.00
16.7493 1219.00
16.8145 1238.00
16.8797 1205.00
16.9449 1210.00
17.0101 1169.00
17.0753 1262.00
17.1405 1229.00
17.2057 1246.00
17.2709 1185.00
17.3361 1173.00
17.4013 1173.00
17.4665 1235.00
17.5317 1181.00
17.5969 1152.00
17.6621 1108.00
17.7273 1162.00
17.7925 1153.00
17.8577 1237.00
17.9229 1165.00
17.9881 1149.00
18.0533 1158.00
18.1185 1116.00
18.1837 1112.00
18.2489 1062.00
18.3141 1117.00
18.3793 1073.00
18.4445 1097.00
18.5097 1075.00
18.5749 1119.00
18.6401 1084.00
18.7052 1056.00
18.7704 1062.00
18.8356 1112.00
18.9008 1036.00
18.966 1059.00
19.0312 1075.00
19.0964 1090.00
19.1616 1029.00
19.2268 1088.00
19.292 1074.00
19.3572 954.00
19.4224 1058.00
19.4876 1012.00
19.5528 1025.00
19.618 978.00
19.6832 1013.00
19.7484 1000.00
19.8136 1027.00
19.8788 1047.00
19.944 990.00
20.0092 988.00
20.0744 949.00
20.1396 990.00
20.2048 1026.00
20.27 1043.00
20.3352 975.00
20.4004 976.00
20.4656 947.00
20.5308 1159.00
20.596 1422.00
20.6612 1698.00
20.7264 1652.00
20.7916 1307.00
20.8568 1151.00
20.922 1052.00
20.9872 999.00
21.0524 992.00
21.1176 922.00
21.1828 958.00
21.248 916.00
21.3132 980.00
21.3784 954.00
21.4436 856.00
21.5088 898.00
21.574 882.00
21.6392 867.00
21.7044 929.00
21.7696 909.00
21.8348 910.00
21.9 848.00
21.9652 947.00
22.0304 840.00
22.0956 833.00
22.1608 874.00
22.226 882.00
22.2912 865.00
22.3564 849.00
22.4216 832.00
22.4868 866.00
22.552 819.00
22.6172 832.00
22.6824 888.00
22.7476 787.00
22.8128 856.00
22.878 844.00
22.9432 857.00
23.0084 810.00
23.0736 853.00
23.1388 816.00
23.204 768.00
23.2692 779.00
23.3344 756.00
23.3996 844.00
23.4647 771.00
23.5299 850.00
23.5951 781.00
23.6603 787.00
23.7255 780.00
23.7907 800.00
23.8559 772.00
23.9211 801.00
23.9863 740.00
24.0515 776.00
24.1167 764.00
24.1819 803.00
24.2471 740.00
24.3123 763.00
24.3775 744.00
24.4427 755.00
24.5079 744.00
24.5731 744.00
24.6383 741.00
24.7035 743.00
24.7687 772.00
24.8339 694.00
24.8991 697.00
24.9643 723.00
25.0295 729.00
25.0947 733.00
25.1599 745.00
25.2251 699.00
25.2903 728.00
25.3555 689.00
25.4207 745.00
25.4859 719.00
25.5511 753.00
25.6163 761.00
25.6815 709.00
25.7467 654.00
25.8119 694.00
25.8771 731.00
25.9423 699.00
26.0075 672.00
26.0727 710.00
26.1379 718.00
26.2031 639.00
26.2683 691.00
26.3335 697.00
26.3987 693.00
26.4639 688.00
26.5291 706.00
26.5943 641.00
26.6595 612.00
26.7247 684.00
26.7899 643.00
26.8551 630.00
26.9203 574.00
26.9855 657.00
27.0507 629.00
27.1159 655.00
27.1811 692.00
27.2463 665.00
27.3115 653.00
27.3767 660.00
27.4419 612.00
27.5071 638.00
27.5723 643.00
27.6375 643.00
27.7027 674.00
27.7679 661.00
27.8331 638.00
27.8983 617.00
27.9635 635.00
28.0287 644.00
28.0939 619.00
28.1591 621.00
28.2243 646.00
28.2894 603.00
28.3546 612.00
28.4198 664.00
28.485 635.00
28.5502 645.00
28.6154 629.00
28.6806 576.00
28.7458 633.00
28.811 615.00
28.8762 605.00
28.9414 612.00
29.0066 601.00
29.0718 598.00
29.137 624.00
29.2022 603.00
29.2674 559.00
29.3326 600.00
29.3978 621.00
29.463 603.00
29.5282 575.00
29.5934 565.00
29.6586 604.00
29.7238 577.00
29.789 556.00
29.8542 535.00
29.9194 565.00
29.9846 572.00
30.0498 562.00
30.115 588.00
30.1802 584.00
30.2454 558.00
30.3106 547.00
30.3758 587.00
30.441 560.00
30.5062 527.00
30.5714 511.00
30.6366 541.00
30.7018 509.00
30.767 562.00
30.8322 524.00
30.8974 562.00
30.9626 527.00
31.0278 556.00
31.093 512.00
31.1582 500.00
31.2234 522.00
31.2886 515.00
31.3538 505.00
31.419 542.00
31.4842 517.00
31.5494 517.00
31.6146 539.00
31.6798 521.00
31.745 555.00
31.8102 486.00
31.8754 509.00
31.9406 543.00
32.0058 531.00
32.071 509.00
32.1362 488.00
32.2014 476.00
32.2666 541.00
32.3318 472.00
32.397 502.00
32.4622 543.00
32.5274 510.00
32.5926 552.00
32.6578 535.00
32.723 531.00
32.7882 551.00
32.8534 526.00
32.9186 518.00
32.9838 496.00
33.0489 508.00
33.1141 511.00
33.1793 477.00
33.2445 488.00
33.3097 471.00
33.3749 450.00
33.4401 506.00
33.5053 520.00
33.5705 518.00
33.6357 500.00
33.7009 516.00
33.7661 516.00
33.8313 488.00
33.8965 488.00
33.9617 560.00
34.0269 676.00
34.0921 1033.00
34.1573 1355.00
34.2225 1165.00
34.2877 846.00
34.3529 586.00
34.4181 522.00
34.4833 509.00
34.5485 508.00
34.6137 495.00
34.6789 458.00
34.7441 433.00
34.8093 450.00
34.8745 459.00
34.9397 460.00
35.0049 474.00
35.0701 456.00
35.1353 472.00
35.2005 458.00
35.2657 467.00
35.3309 436.00
35.3961 517.00
35.4613 468.00
35.5265 433.00
35.5917 402.00
35.6569 438.00
35.7221 468.00
35.7873 408.00
35.8525 430.00
35.9177 422.00
35.9829 458.00
36.0481 479.00
36.1133 437.00
36.1785 459.00
36.2437 429.00
36.3089 408.00
36.3741 427.00
36.4393 446.00
36.5045 390.00
36.5697 472.00
36.6349 365.00
36.7001 482.00
36.7653 412.00
36.8305 441.00
36.8957 376.00
36.9609 442.00
37.0261 398.00
37.0913 455.00
37.1565 410.00
37.2217 420.00
37.2869 404.00
37.3521 434.00
37.4173 424.00
37.4825 406.00
37.5477 421.00
37.6129 387.00
37.6781 400.00
37.7433 372.00
37.8085 379.00
37.8736 357.00
37.9388 384.00
38.004 412.00
38.0692 400.00
38.1344 360.00
38.1996 392.00
38.2648 411.00
38.33 415.00
38.3952 401.00
38.4604 435.00
38.5256 428.00
38.5908 394.00
38.656 391.00
38.7212 386.00
38.7864 397.00
38.8516 385.00
38.9168 378.00
38.982 356.00
39.0472 366.00
39.1124 394.00
39.1776 374.00
39.2428 375.00
39.308 368.00
39.3732 361.00
39.4384 354.00
39.5036 398.00
39.5688 350.00
39.634 413.00
39.6992 369.00
39.7644 375.00
39.8296 359.00
39.8948 380.00
39.96 342.00
40.0252 370.00
40.0904 398.00
40.1556 380.00
40.2208 358.00
40.286 357.00
40.3512 369.00
40.4164 343.00
40.4816 389.00
40.5468 373.00
40.612 378.00
40.6772 351.00
40.7424 327.00
40.8076 345.00
40.8728 385.00
40.938 309.00
41.0032 361.00
41.0684 364.00
41.1336 382.00
41.1988 323.00
41.264 395.00
41.3292 346.00
41.3944 364.00
41.4596 334.00
41.5248 340.00
41.59 351.00
41.6552 311.00
41.7204 367.00
41.7856 362.00
41.8508 322.00
41.916 370.00
41.9812 357.00
42.0464 337.00
42.1116 375.00
42.1768 384.00
42.242 351.00
42.3072 416.00
42.3724 320.00
42.4376 334.00
42.5028 328.00
42.568 351.00
42.6332 334.00
42.6983 344.00
42.7635 350.00
42.8287 315.00
42.8939 325.00
42.9591 292.00
43.0243 359.00
43.0895 299.00
43.1547 302.00
43.2199 347.00
43.2851 317.00
43.3503 341.00
43.4155 332.00
43.4807 336.00
43.5459 334.00
43.6111 314.00
43.6763 330.00
43.7415 315.00
43.8067 347.00
43.8719 346.00
43.9371 318.00
44.0023 282.00
44.0675 314.00
44.1327 302.00
44.1979 285.00
44.2631 303.00
44.3283 301.00
44.3935 297.00
44.4587 308.00
44.5239 338.00
44.5891 306.00
44.6543 318.00
44.7195 303.00
44.7847 317.00
44.8499 323.00
44.9151 320.00
44.9803 318.00
45.0455 316.00
45.1107 278.00
45.1759 288.00
45.2411 328.00
45.3063 314.00
45.3715 299.00
45.4367 327.00
45.5019 311.00
45.5671 299.00
45.6323 307.00
45.6975 287.00
45.7627 318.00
45.8279 301.00
45.8931 288.00
45.9583 329.00
46.0235 331.00
46.0887 282.00
46.1539 322.00
46.2191 310.00
46.2843 294.00
46.3495 302.00
46.4147 269.00
46.4799 293.00
46.5451 278.00
46.6103 315.00
46.6755 306.00
46.7407 303.00
46.8059 304.00
46.8711 288.00
46.9363 287.00
47.0015 290.00
47.0667 299.00
47.1319 301.00
47.1971 295.00
47.2623 288.00
47.3275 289.00
47.3927 303.00
47.4579 312.00
47.523 303.00
47.5882 302.00
47.6534 270.00
47.7186 334.00
47.7838 300.00
47.849 326.00
47.9142 287.00
47.9794 268.00
48.0446 278.00
48.1098 294.00
48.175 265.00
48.2402 298.00
48.3054 306.00
48.3706 315.00
48.4358 262.00
48.501 281.00
48.5662 310.00
48.6314 267.00
48.6966 276.00
48.7618 281.00
48.827 338.00
48.8922 296.00
48.9574 314.00
49.0226 297.00
49.0878 382.00
49.153 394.00
49.2182 348.00
49.2834 325.00
49.3486 294.00
49.4138 283.00
49.479 264.00
49.5442 326.00
49.6094 328.00
49.6746 285.00
49.7398 284.00
49.805 274.00
49.8702 275.00
49.9354 262.00
50.0006 275.00
50.0658 267.00
50.131 267.00
50.1962 284.00
50.2614 297.00
50.3266 291.00
50.3918 261.00
50.457 290.00
50.5222 266.00
50.5874 275.00
50.6526 288.00
50.7178 287.00
50.783 250.00
50.8482 301.00
50.9134 292.00
50.9786 250.00
51.0438 262.00
51.109 301.00
51.1742 275.00
51.2394 240.00
51.3046 257.00
51.3698 295.00
51.435 245.00
51.5002 291.00
51.5654 267.00
51.6306 296.00
51.6958 299.00
51.761 288.00
51.8262 272.00
51.8914 290.00
51.9566 272.00
52.0218 296.00
52.087 266.00
52.1522 262.00
52.2174 272.00
52.2826 303.00
52.3477 258.00
52.4129 245.00
52.4781 249.00
52.5433 241.00
52.6085 241.00
52.6737 238.00
52.7389 263.00
52.8041 277.00
52.8693 241.00
52.9345 260.00
52.9997 287.00
53.0649 288.00
53.1301 235.00
53.1953 265.00
53.2605 244.00
53.3257 237.00
53.3909 249.00
53.4561 264.00
53.5213 226.00
53.5865 237.00
53.6517 259.00
53.7169 251.00
53.7821 263.00
53.8473 240.00
53.9125 219.00
53.9777 250.00
54.0429 243.00
54.1081 234.00
54.1733 247.00
54.2385 231.00
54.3037 222.00
54.3689 286.00
54.4341 268.00
54.4993 206.00
54.5645 225.00
54.6297 244.00
54.6949 271.00
54.7601 249.00
54.8253 294.00
54.8905 229.00
54.9557 228.00
55.0209 235.00
55.0861 262.00
55.1513 228.00
55.2165 256.00
55.2817 247.00
55.3469 235.00
55.4121 245.00
55.4773 199.00
55.5425 257.00
55.6077 257.00
55.6729 223.00
55.7381 244.00
55.8033 211.00
55.8685 266.00
55.9337 218.00
55.9989 241.00
56.0641 216.00
56.1293 226.00
56.1945 272.00
56.2597 239.00
56.3249 211.00
56.3901 236.00
56.4553 200.00
56.5205 242.00
56.5857 262.00
56.6509 226.00
56.7161 240.00
56.7813 201.00
56.8465 219.00
56.9117 248.00
56.9769 226.00
57.042 210.00
57.1073 228.00
57.1724 240.00
57.2376 229.00
57.3028 249.00
57.368 204.00
57.4332 216.00
57.4984 211.00
57.5636 241.00
57.6288 199.00
57.694 242.00
57.7592 261.00
57.8244 225.00
57.8896 239.00
57.9548 229.00
58.02 204.00
58.0852 258.00
58.1504 228.00
58.2156 218.00
58.2808 235.00
58.346 224.00
58.4112 229.00
58.4764 216.00
58.5416 222.00
58.6068 214.00
58.672 219.00
58.7372 232.00
58.8024 199.00
58.8676 218.00
58.9328 193.00
58.998 227.00
59.0632 220.00
59.1284 211.00
59.1936 206.00
59.2588 203.00
59.324 210.00
59.3892 240.00
59.4544 224.00
59.5196 208.00
59.5848 229.00
59.65 225.00
59.7152 232.00
59.7804 205.00
59.8456 210.00
59.9108 179.00
59.976 214.00
60.0412 193.00
60.1064 208.00
60.1716 208.00
60.2368 206.00
60.302 257.00
60.3672 216.00
60.4324 205.00
60.4976 225.00
60.5628 222.00
60.628 224.00
60.6932 236.00
60.7584 202.00
60.8236 225.00
60.8888 220.00
60.954 223.00
61.0192 186.00
61.0844 203.00
61.1496 236.00
61.2148 285.00
61.28 287.00
61.3452 291.00
61.4104 284.00
61.4756 244.00
61.5408 214.00
61.606 222.00
61.6712 201.00
61.7364 204.00
61.8016 195.00
61.8667 203.00
61.932 182.00
61.9971 212.00
62.0623 220.00
62.1275 220.00
62.1927 217.00
62.2579 193.00
62.3231 190.00
62.3883 186.00
62.4535 181.00
62.5187 202.00
62.5839 207.00
62.6491 195.00
62.7143 237.00
62.7795 204.00
62.8447 199.00
62.9099 201.00
62.9751 188.00
63.0403 185.00
63.1055 212.00
63.1707 208.00
63.2359 222.00
63.3011 166.00
63.3663 203.00
63.4315 210.00
63.4967 178.00
63.5619 205.00
63.6271 188.00
63.6923 214.00
63.7575 211.00
63.8227 209.00
63.8879 190.00
63.9531 209.00
64.0183 195.00
64.0835 198.00
64.1487 176.00
64.2139 197.00
64.2791 201.00
64.3443 200.00
64.4095 198.00
64.4747 210.00
64.5399 210.00
64.6051 219.00
64.6703 219.00
64.7355 169.00
64.8007 205.00
64.8659 215.00
64.9311 199.00
64.9963 197.00
65.0615 199.00
65.1267 211.00
65.1919 209.00
65.2571 207.00
65.3223 221.00
65.3875 203.00
65.4527 189.00
65.5179 224.00
65.5831 224.00
65.6483 207.00
65.7135 206.00
65.7787 179.00
65.8439 209.00
65.9091 189.00
65.9743 195.00
66.0395 224.00
66.1047 186.00
66.1699 198.00
66.2351 183.00
66.3003 186.00
66.3655 196.00
66.4307 205.00
66.4959 203.00
66.561 198.00
66.6263 216.00
66.6915 195.00
66.7566 186.00
66.8218 198.00
66.887 215.00
66.9522 175.00
67.0174 165.00
67.0826 207.00
67.1478 198.00
67.213 187.00
67.2782 168.00
67.3434 207.00
67.4086 193.00
67.4738 201.00
67.539 195.00
67.6042 188.00
67.6694 186.00
67.7346 196.00
67.7998 177.00
67.865 199.00
67.9302 212.00
67.9954 204.00
68.0606 203.00
68.1258 208.00
68.191 191.00
68.2562 195.00
68.3214 184.00
68.3866 179.00
68.4518 193.00
68.517 201.00
68.5822 215.00
68.6474 204.00
68.7126 202.00
68.7778 181.00
68.843 199.00
68.9082 174.00
68.9734 179.00
69.0386 219.00
69.1038 216.00
69.169 192.00
69.2342 219.00
69.2994 162.00
69.3646 201.00
69.4298 200.00
69.495 192.00
69.5602 174.00
69.6254 177.00
69.6906 186.00
69.7558 193.00
69.821 208.00
69.8862 222.00
69.9514 196.00
70.0166 209.00
70.0818 215.00
70.147 200.00
70.2122 184.00
70.2774 195.00
70.3426 204.00
70.4078 177.00
70.473 172.00
70.5382 196.00
70.6034 218.00
70.6686 214.00
70.7338 209.00
70.799 216.00
70.8642 197.00
70.9294 205.00
70.9946 208.00
71.0598 190.00
71.125 190.00
71.1902 205.00
71.2554 191.00
71.3205 191.00
71.3858 184.00
71.451 183.00
71.5162 198.00
71.5813 200.00
71.6465 184.00
71.7117 195.00
71.7769 191.00
71.8421 198.00
71.9073 212.00
71.9725 185.00
72.0377 198.00
72.1029 186.00
72.1681 208.00
72.2333 179.00
72.2985 203.00
72.3637 189.00
72.4289 208.00
72.4941 211.00
72.5593 209.00
72.6245 193.00
72.6897 196.00
72.7549 172.00
72.8201 225.00
72.8853 194.00
72.9505 188.00
73.0157 213.00
73.0809 170.00
73.1461 184.00
73.2113 207.00
73.2765 212.00
73.3417 192.00
73.4069 177.00
73.4721 185.00
73.5373 194.00
73.6025 199.00
73.6677 224.00
73.7329 166.00
73.7981 202.00
73.8633 211.00
73.9285 205.00
73.9937 197.00
74.0589 206.00
74.1241 211.00
74.1893 183.00
74.2545 217.00
74.3197 215.00
74.3849 195.00
74.4501 202.00
74.5153 196.00
74.5805 234.00
74.6457 185.00
74.7109 226.00
74.7761 190.00
74.8413 186.00
74.9065 238.00
74.9717 192.00
75.0369 210.00
75.1021 204.00
75.1673 209.00
75.2325 210.00
75.2977 203.00
75.3629 191.00
75.4281 178.00
75.4933 211.00
75.5585 191.00
75.6237 201.00
75.6889 207.00
75.7541 210.00
75.8193 236.00
75.8845 216.00
75.9497 219.00
76.0149 231.00
76.0801 218.00
76.1452 228.00
76.2104 223.00
76.2756 209.00
76.3409 203.00
76.406 210.00
76.4712 194.00
76.5364 204.00
76.6016 176.00
76.6668 221.00
76.732 188.00
76.7972 176.00
76.8624 232.00
76.9276 202.00
76.9928 206.00
77.058 234.00
77.1232 231.00
77.1884 221.00
77.2536 220.00
77.3188 221.00
77.384 212.00
77.4492 214.00
77.5144 215.00
77.5796 197.00
77.6448 244.00
77.71 211.00
77.7752 203.00
77.8404 203.00
77.9056 197.00
77.9708 214.00
78.036 203.00
78.1012 215.00
78.1664 205.00
78.2316 214.00
78.2968 208.00
78.362 191.00
78.4272 205.00
78.4924 212.00
78.5576 259.00
78.6228 199.00
78.688 214.00
78.7532 221.00
78.8184 220.00
78.8836 204.00
78.9488 222.00
79.014 211.00
79.0792 237.00
79.1444 222.00
79.2096 208.00
79.2748 210.00
79.34 218.00
79.4052 242.00
79.4704 218.00
79.5356 224.00
79.6008 214.00
79.666 238.00
79.7312 205.00
79.7964 218.00
79.8616 220.00
79.9268 248.00
79.992 214.00
80.0572 185.00
80.1224 257.00
80.1876 217.00
80.2528 256.00
80.318 226.00
80.3832 233.00
80.4484 228.00
80.5136 224.00
80.5788 226.00
80.644 236.00
80.7092 214.00
80.7744 206.00
80.8396 221.00
80.9048 217.00
80.9699 209.00
81.0351 221.00
81.1003 224.00
81.1655 217.00
81.2307 218.00
81.2959 221.00
81.3611 245.00
81.4263 215.00
81.4915 237.00
81.5567 247.00
81.6219 222.00
81.6871 214.00
81.7523 234.00
81.8175 250.00
81.8827 223.00
81.9479 236.00
82.0131 210.00
82.0783 224.00
82.1435 214.00
82.2087 225.00
82.2739 224.00
82.3391 202.00
82.4043 260.00
82.4695 242.00
82.5347 228.00
82.5999 200.00
82.6651 248.00
82.7303 233.00
82.7955 224.00
82.8607 224.00
82.9259 235.00
82.9911 263.00
83.0563 262.00
83.1215 214.00
83.1867 233.00
83.2519 230.00
83.3171 248.00
83.3823 228.00
83.4475 233.00
83.5127 216.00
83.5779 223.00
83.6431 245.00
83.7083 214.00
83.7735 226.00
83.8387 214.00
83.9039 210.00
83.9691 233.00
84.0343 198.00
84.0995 232.00
84.1647 195.00
84.2299 207.00
84.2951 206.00
84.3603 242.00
84.4255 206.00
84.4907 199.00
84.5559 204.00
84.6211 236.00
84.6863 242.00
84.7515 237.00
84.8167 234.00
84.8819 207.00
84.9471 207.00
85.0123 211.00
85.0775 214.00
85.1427 207.00
85.2079 201.00
85.2731 236.00
85.3383 212.00
85.4035 192.00
85.4687 223.00
85.5339 172.00
85.5991 186.00
85.6643 193.00
85.7295 192.00
85.7946 193.00
85.8598 204.00
85.925 224.00
85.9903 205.00
86.0554 206.00
86.1206 208.00
86.1858 220.00
86.251 201.00
86.3162 204.00
86.3814 175.00
86.4466 209.00
86.5118 191.00
86.577 163.00
86.6422 212.00
86.7074 187.00
86.7726 221.00
86.8378 206.00
86.903 205.00
86.9682 190.00
87.0334 200.00
87.0986 223.00
87.1638 196.00
87.229 184.00
87.2942 201.00
87.3594 219.00
87.4246 228.00
87.4898 198.00
87.555 204.00
87.6202 192.00
87.6854 175.00
87.7506 187.00
87.8158 203.00
87.881 215.00
87.9462 183.00
88.0114 207.00
88.0766 189.00
88.1418 222.00
88.207 218.00
88.2722 196.00
88.3374 185.00
88.4026 187.00
88.4678 197.00
88.533 194.00
88.5982 228.00
88.6634 197.00
88.7286 201.00
88.7938 185.00
88.859 258.00
88.9242 195.00
88.9894 195.00
89.0546 199.00
89.1198 195.00
89.185 230.00
89.2502 191.00
89.3154 190.00
89.3806 177.00
89.4458 187.00
89.511 202.00
89.5762 209.00
89.6414 216.00
89.7066 196.00
89.7718 192.00
89.837 198.00
89.9022 160.00
89.9674 190.00
90.0326 192.00
90.0978 176.00
90.163 180.00
90.2282 188.00
90.2934 203.00
90.3586 198.00
90.4238 200.00
90.489 180.00
90.5542 178.00
90.6193 185.00
90.6845 179.00
90.7497 187.00
90.8149 194.00
90.8801 208.00
90.9453 188.00
91.0105 217.00
91.0757 169.00
91.1409 227.00
91.2061 191.00
91.2713 177.00
91.3365 202.00
91.4017 186.00
91.4669 186.00
91.5321 197.00
91.5973 200.00
91.6625 186.00
91.7277 206.00
91.7929 198.00
91.8581 197.00
91.9233 172.00
91.9885 179.00
92.0537 201.00
92.1189 188.00
92.1841 179.00
92.2493 181.00
92.3145 182.00
92.3797 189.00
92.4449 191.00
92.5101 155.00
92.5753 182.00
92.6405 184.00
92.7057 175.00
92.7709 178.00
92.8361 171.00
92.9013 197.00
92.9665 205.00
93.0317 182.00
93.0969 193.00
93.1621 183.00
93.2273 174.00
93.2925 181.00
93.3577 184.00
93.4229 182.00
93.4881 189.00
93.5533 184.00
93.6185 184.00
93.6837 200.00
93.7489 196.00
93.8141 191.00
93.8793 197.00
93.9445 164.00
94.0097 197.00
94.0749 201.00
94.1401 189.00
94.2053 203.00
94.2705 177.00
94.3357 182.00
94.4009 198.00
94.4661 186.00
94.5313 197.00
94.5965 158.00
94.6617 140.00
94.7269 170.00
94.7921 199.00
94.8573 199.00
94.9225 175.00
94.9877 192.00
95.0529 196.00
95.1181 197.00
95.1833 196.00
95.2485 171.00
95.3137 183.00
95.3789 199.00
95.444 168.00
95.5092 164.00
95.5744 185.00
95.6396 194.00
95.7048 190.00
95.77 178.00
95.8352 172.00
95.9004 181.00
95.9656 190.00
96.0308 182.00
96.096 182.00
96.1612 169.00
96.2264 195.00
96.2916 211.00
96.3568 180.00
96.422 197.00
96.4872 189.00
96.5524 190.00
96.6176 182.00
96.6828 175.00
96.748 171.00
96.8132 158.00
96.8784 206.00
96.9436 199.00
97.0088 172.00
97.074 200.00
97.1392 197.00
97.2044 186.00
97.2696 174.00
97.3348 183.00
97.4 170.00
97.4652 183.00
97.5304 197.00
97.5956 186.00
97.6608 170.00
97.726 178.00
97.7912 188.00
97.8564 179.00
97.9216 192.00
97.9868 164.00
98.052 185.00
98.1172 180.00
98.1824 195.00
98.2476 168.00
98.3128 175.00
98.378 172.00
98.4432 154.00
98.5084 184.00
98.5736 181.00
98.6388 190.00
98.704 225.00
98.7692 181.00
98.8344 188.00
98.8996 168.00
98.9648 178.00
99.03 166.00
99.0952 156.00
99.1604 207.00
99.2256 175.00
99.2908 154.00
99.356 204.00
99.4212 205.00
99.4864 193.00
99.5516 169.00
99.6168 193.00
99.682 173.00
99.7472 158.00
99.8124 188.00
99.8776 177.00
99.9428 188.00
100.008 179.00
100.073 199.00
100.095 189.00