File: data/xrd_creation/results/Na_295.xy
9.903433 2638.00
9.968632 2712.00
10.0338 2787.00
10.099 2726.00
10.1642 2727.00
10.2294 2672.00
10.2946 2632.00
10.3598 2625.00
10.425 2496.00
10.4902 2754.00
10.5554 2595.00
10.6206 2471.00
10.6858 2513.00
10.751 2493.00
10.8162 2515.00
10.8814 2592.00
10.9466 2454.00
11.0118 2410.00
11.077 2470.00
11.1422 2440.00
11.2074 2403.00
11.2726 2332.00
11.3378 2384.00
11.403 2320.00
11.4682 2392.00
11.5334 2401.00
11.5986 2309.00
11.6638 2224.00
11.729 2322.00
11.7942 2241.00
11.8594 2331.00
11.9246 2305.00
11.9898 2276.00
12.055 2266.00
12.1202 2326.00
12.1854 2226.00
12.2506 2160.00
12.3158 2217.00
12.381 2256.00
12.4462 2348.00
12.5114 2208.00
12.5766 2260.00
12.6418 2115.00
12.707 2140.00
12.7722 2150.00
12.8374 2192.00
12.9026 2087.00
12.9678 2077.00
13.033 2164.00
13.0982 2165.00
13.1634 2177.00
13.2286 2118.00
13.2938 2155.00
13.359 2076.00
13.4242 2047.00
13.4894 2119.00
13.5546 2128.00
13.6198 2153.00
13.685 2120.00
13.7502 2120.00
13.8154 2085.00
13.8805 2083.00
13.9457 2089.00
14.0109 2074.00
14.0761 2007.00
14.1413 2088.00
14.2065 1993.00
14.2717 2118.00
14.3369 2054.00
14.4021 2086.00
14.4673 2153.00
14.5325 2040.00
14.5977 1951.00
14.6629 2003.00
14.7281 2039.00
14.7933 2077.00
14.8585 2053.00
14.9237 1974.00
14.9889 1990.00
15.0541 1921.00
15.1193 1939.00
15.1845 1964.00
15.2497 2024.00
15.3149 2007.00
15.3801 2043.00
15.4453 2009.00
15.5105 2076.00
15.5757 2043.00
15.6409 1901.00
15.7061 1994.00
15.7713 1969.00
15.8365 2030.00
15.9017 1980.00
15.9669 2056.00
16.0321 2033.00
16.0973 2017.00
16.1625 1931.00
16.2277 1983.00
16.2929 1905.00
16.3581 1836.00
16.4233 1939.00
16.4885 1899.00
16.5537 1858.00
16.6189 1953.00
16.6841 1963.00
16.7493 1840.00
16.8145 1842.00
16.8797 1797.00
16.9449 1874.00
17.0101 1778.00
17.0753 1778.00
17.1405 1786.00
17.2057 1719.00
17.2709 1770.00
17.3361 1810.00
17.4013 1820.00
17.4665 1815.00
17.5317 1774.00
17.5969 1769.00
17.6621 1729.00
17.7273 1800.00
17.7925 1797.00
17.8577 1634.00
17.9229 1718.00
17.9881 1734.00
18.0533 1759.00
18.1185 1596.00
18.1837 1652.00
18.2489 1680.00
18.3141 1704.00
18.3793 1756.00
18.4445 1747.00
18.5097 1648.00
18.5749 1705.00
18.6401 1639.00
18.7052 1700.00
18.7704 1656.00
18.8356 1780.00
18.9008 1771.00
18.966 1826.00
19.0312 1862.00
19.0964 1998.00
19.1616 2037.00
19.2268 2113.00
19.292 1925.00
19.3572 1768.00
19.4224 1675.00
19.4876 1671.00
19.5528 1591.00
19.618 1667.00
19.6832 1653.00
19.7484 1648.00
19.8136 1673.00
19.8788 1678.00
19.944 1669.00
20.0092 1664.00
20.0744 1672.00
20.1396 1706.00
20.2048 1783.00
20.27 1807.00
20.3352 1873.00
20.4004 1812.00
20.4656 1824.00
20.5308 1896.00
20.596 2067.00
20.6612 2356.00
20.7264 2841.00
20.7916 4487.00
20.8568 7945.00
20.922 13685.00
20.9872 21531.00
21.0524 21113.00
21.1176 7753.00
21.1828 2612.00
21.248 2182.00
21.3132 1916.00
21.3784 1777.00
21.4436 1667.00
21.5088 1592.00
21.574 1579.00
21.6392 1600.00
21.7044 1520.00
21.7696 1559.00
21.8348 1557.00
21.9 1515.00
21.9652 1536.00
22.0304 1393.00
22.0956 1476.00
22.1608 1498.00
22.226 1483.00
22.2912 1480.00
22.3564 1432.00
22.4216 1418.00
22.4868 1443.00
22.552 1419.00
22.6172 1416.00
22.6824 1446.00
22.7476 1431.00
22.8128 1472.00
22.878 1449.00
22.9432 1471.00
23.0084 1370.00
23.0736 1383.00
23.1388 1440.00
23.204 1385.00
23.2692 1396.00
23.3344 1479.00
23.3996 1387.00
23.4647 1375.00
23.5299 1465.00
23.5951 1397.00
23.6603 1432.00
23.7255 1413.00
23.7907 1463.00
23.8559 1432.00
23.9211 1468.00
23.9863 1595.00
24.0515 1745.00
24.1167 1998.00
24.1819 2318.00
24.2471 2698.00
24.3123 2635.00
24.3775 2043.00
24.4427 1625.00
24.5079 1570.00
24.5731 1509.00
24.6383 1439.00
24.7035 1432.00
24.7687 1333.00
24.8339 1349.00
24.8991 1400.00
24.9643 1353.00
25.0295 1295.00
25.0947 1346.00
25.1599 1312.00
25.2251 1260.00
25.2903 1344.00
25.3555 1275.00
25.4207 1324.00
25.4859 1346.00
25.5511 1353.00
25.6163 1285.00
25.6815 1367.00
25.7467 1380.00
25.8119 1369.00
25.8771 1310.00
25.9423 1339.00
26.0075 1252.00
26.0727 1355.00
26.1379 1291.00
26.2031 1275.00
26.2683 1362.00
26.3335 1316.00
26.3987 1343.00
26.4639 1363.00
26.5291 1390.00
26.5943 1303.00
26.6595 1365.00
26.7247 1277.00
26.7899 1260.00
26.8551 1276.00
26.9203 1213.00
26.9855 1315.00
27.0507 1259.00
27.1159 1249.00
27.1811 1278.00
27.2463 1281.00
27.3115 1252.00
27.3767 1281.00
27.4419 1309.00
27.5071 1283.00
27.5723 1317.00
27.6375 1305.00
27.7027 1288.00
27.7679 1300.00
27.8331 1286.00
27.8983 1279.00
27.9635 1215.00
28.0287 1279.00
28.0939 1242.00
28.1591 1246.00
28.2243 1261.00
28.2894 1281.00
28.3546 1363.00
28.4198 1267.00
28.485 1291.00
28.5502 1313.00
28.6154 1275.00
28.6806 1264.00
28.7458 1229.00
28.811 1290.00
28.8762 1253.00
28.9414 1216.00
29.0066 1276.00
29.0718 1251.00
29.137 1260.00
29.2022 1270.00
29.2674 1311.00
29.3326 1356.00
29.3978 1340.00
29.463 1348.00
29.5282 1408.00
29.5934 1397.00
29.6586 1372.00
29.7238 1415.00
29.789 1517.00
29.8542 1506.00
29.9194 1606.00
29.9846 1657.00
30.0498 1740.00
30.115 2038.00
30.1802 2326.00
30.2454 2876.00
30.3106 3281.00
30.3758 3662.00
30.441 3623.00
30.5062 3287.00
30.5714 3353.00
30.6366 3504.00
30.7018 4026.00
30.767 3896.00
30.8322 3352.00
30.8974 2785.00
30.9626 2365.00
31.0278 2032.00
31.093 1952.00
31.1582 1799.00
31.2234 1594.00
31.2886 1652.00
31.3538 1709.00
31.419 1727.00
31.4842 1766.00
31.5494 1786.00
31.6146 2044.00
31.6798 1983.00
31.745 2519.00
31.8102 3039.00
31.8754 4086.00
31.9406 5097.00
32.0058 5424.00
32.071 4685.00
32.1362 3637.00
32.2014 2685.00
32.2666 2381.00
32.3318 2204.00
32.397 2017.00
32.4622 1790.00
32.5274 1462.00
32.5926 1469.00
32.6578 1438.00
32.723 1415.00
32.7882 1385.00
32.8534 1400.00
32.9186 1440.00
32.9838 1401.00
33.0489 1399.00
33.1141 1361.00
33.1793 1494.00
33.2445 1522.00
33.3097 1515.00
33.3749 1608.00
33.4401 1631.00
33.5053 1709.00
33.5705 1904.00
33.6357 2235.00
33.7009 2294.00
33.7661 2551.00
33.8313 2490.00
33.8965 2352.00
33.9617 2515.00
34.0269 2543.00
34.0921 2791.00
34.1573 3471.00
34.2225 5496.00
34.2877 10567.00
34.3529 21784.00
34.4181 35249.00
34.4833 27127.00
34.5485 15224.00
34.6137 5516.00
34.6789 3506.00
34.7441 2780.00
34.8093 2190.00
34.8745 1931.00
34.9397 1797.00
35.0049 1805.00
35.0701 1883.00
35.1353 2057.00
35.2005 2516.00
35.2657 2957.00
35.3309 3947.00
35.3961 5089.00
35.4613 5967.00
35.5265 5769.00
35.5917 4691.00
35.6569 3358.00
35.7221 2523.00
35.7873 2092.00
35.8525 1816.00
35.9177 1793.00
35.9829 1590.00
36.0481 1608.00
36.1133 1531.00
36.1785 1464.00
36.2437 1436.00
36.3089 1448.00
36.3741 1394.00
36.4393 1413.00
36.5045 1369.00
36.5697 1380.00
36.6349 1338.00
36.7001 1351.00
36.7653 1403.00
36.8305 1377.00
36.8957 1369.00
36.9609 1465.00
37.0261 1425.00
37.0913 1511.00
37.1565 1576.00
37.2217 1592.00
37.2869 1784.00
37.3521 1945.00
37.4173 2003.00
37.4825 2152.00
37.5477 2333.00
37.6129 2557.00
37.6781 2629.00
37.7433 2507.00
37.8085 2208.00
37.8736 1848.00
37.9388 1735.00
38.004 1687.00
38.0692 1687.00
38.1344 1753.00
38.1996 1791.00
38.2648 1741.00
38.33 1901.00
38.3952 2101.00
38.4604 2429.00
38.5256 2637.00
38.5908 3088.00
38.656 3312.00
38.7212 3187.00
38.7864 2810.00
38.8516 2368.00
38.9168 2024.00
38.982 1729.00
39.0472 1714.00
39.1124 1571.00
39.1776 1390.00
39.2428 1403.00
39.308 1327.00
39.3732 1348.00
39.4384 1290.00
39.5036 1253.00
39.5688 1316.00
39.634 1244.00
39.6992 1267.00
39.7644 1331.00
39.8296 1243.00
39.8948 1210.00
39.96 1240.00
40.0252 1239.00
40.0904 1190.00
40.1556 1239.00
40.2208 1273.00
40.286 1297.00
40.3512 1245.00
40.4164 1335.00
40.4816 1404.00
40.5468 1338.00
40.612 1295.00
40.6772 1263.00
40.7424 1235.00
40.8076 1277.00
40.8728 1341.00
40.938 1277.00
41.0032 1292.00
41.0684 1318.00
41.1336 1274.00
41.1988 1366.00
41.264 1175.00
41.3292 1284.00
41.3944 1237.00
41.4596 1146.00
41.5248 1193.00
41.59 1184.00
41.6552 1215.00
41.7204 1199.00
41.7856 1105.00
41.8508 1183.00
41.916 1151.00
41.9812 1148.00
42.0464 1178.00
42.1116 1086.00
42.1768 1220.00
42.242 1377.00
42.3072 1550.00
42.3724 2078.00
42.4376 2573.00
42.5028 1903.00
42.568 1594.00
42.6332 1237.00
42.6983 1232.00
42.7635 1195.00
42.8287 1265.00
42.8939 1332.00
42.9591 1331.00
43.0243 1344.00
43.0895 1432.00
43.1547 1485.00
43.2199 1554.00
43.2851 1617.00
43.3503 1569.00
43.4155 1397.00
43.4807 1365.00
43.5459 1277.00
43.6111 1119.00
43.6763 1169.00
43.7415 1085.00
43.8067 1100.00
43.8719 1156.00
43.9371 1107.00
44.0023 1089.00
44.0675 1086.00
44.1327 1110.00
44.1979 1068.00
44.2631 1107.00
44.3283 1090.00
44.3935 1066.00
44.4587 1027.00
44.5239 1048.00
44.5891 1087.00
44.6543 1076.00
44.7195 1141.00
44.7847 1115.00
44.8499 1189.00
44.9151 1147.00
44.9803 1138.00
45.0455 1230.00
45.1107 1151.00
45.1759 1064.00
45.2411 1064.00
45.3063 1071.00
45.3715 1045.00
45.4367 1070.00
45.5019 1091.00
45.5671 1177.00
45.6323 1086.00
45.6975 1255.00
45.7627 1215.00
45.8279 1355.00
45.8931 1481.00
45.9583 1669.00
46.0235 1805.00
46.0887 1843.00
46.1539 1806.00
46.2191 1681.00
46.2843 1352.00
46.3495 1284.00
46.4147 1203.00
46.4799 1083.00
46.5451 1071.00
46.6103 1003.00
46.6755 1022.00
46.7407 978.00
46.8059 1006.00
46.8711 960.00
46.9363 1040.00
47.0015 1004.00
47.0667 971.00
47.1319 950.00
47.1971 1041.00
47.2623 1013.00
47.3275 981.00
47.3927 1003.00
47.4579 1003.00
47.523 1007.00
47.5882 1050.00
47.6534 965.00
47.7186 971.00
47.7838 982.00
47.849 967.00
47.9142 1004.00
47.9794 966.00
48.0446 1017.00
48.1098 1083.00
48.175 1029.00
48.2402 1070.00
48.3054 1080.00
48.3706 1150.00
48.4358 1236.00
48.501 1250.00
48.5662 1357.00
48.6314 1371.00
48.6966 1455.00
48.7618 1605.00
48.827 1828.00
48.8922 1896.00
48.9574 2015.00
49.0226 1830.00
49.0878 1924.00
49.153 2000.00
49.2182 2943.00
49.2834 5051.00
49.3486 6000.00
49.4138 3887.00
49.479 3598.00
49.5442 2079.00
49.6094 1753.00
49.6746 1611.00
49.7398 1385.00
49.805 1391.00
49.8702 1274.00
49.9354 1194.00
50.0006 1106.00
50.0658 1086.00
50.131 1038.00
50.1962 1021.00
50.2614 979.00
50.3266 1009.00
50.3918 969.00
50.457 966.00
50.5222 930.00
50.5874 1002.00
50.6526 956.00
50.7178 948.00
50.783 900.00
50.8482 977.00
50.9134 960.00
50.9786 944.00
51.0438 1039.00
51.109 1006.00
51.1742 1010.00
51.2394 986.00
51.3046 980.00
51.3698 975.00
51.435 929.00
51.5002 947.00
51.5654 915.00
51.6306 901.00
51.6958 903.00
51.761 929.00
51.8262 895.00
51.8914 890.00
51.9566 936.00
52.0218 890.00
52.087 920.00
52.1522 946.00
52.2174 879.00
52.2826 926.00
52.3477 911.00
52.4129 986.00
52.4781 911.00
52.5433 997.00
52.6085 903.00
52.6737 922.00
52.7389 873.00
52.8041 953.00
52.8693 912.00
52.9345 989.00
52.9997 969.00
53.0649 953.00
53.1301 927.00
53.1953 943.00
53.2605 908.00
53.3257 927.00
53.3909 885.00
53.4561 864.00
53.5213 907.00
53.5865 947.00
53.6517 986.00
53.7169 922.00
53.7821 943.00
53.8473 977.00
53.9125 894.00
53.9777 952.00
54.0429 961.00
54.1081 967.00
54.1733 963.00
54.2385 956.00
54.3037 975.00
54.3689 991.00
54.4341 997.00
54.4993 1032.00
54.5645 1020.00
54.6297 1072.00
54.6949 1155.00
54.7601 1176.00
54.8253 1140.00
54.8905 1052.00
54.9557 1035.00
55.0209 1021.00
55.0861 965.00
55.1513 963.00
55.2165 897.00
55.2817 942.00
55.3469 925.00
55.4121 857.00
55.4773 864.00
55.5425 887.00
55.6077 966.00
55.6729 942.00
55.7381 900.00
55.8033 861.00
55.8685 896.00
55.9337 821.00
55.9989 855.00
56.0641 896.00
56.1293 853.00
56.1945 890.00
56.2597 873.00
56.3249 865.00
56.3901 912.00
56.4553 875.00
56.5205 865.00
56.5857 977.00
56.6509 976.00
56.7161 955.00
56.7813 905.00
56.8465 916.00
56.9117 938.00
56.9769 866.00
57.042 900.00
57.1073 886.00
57.1724 913.00
57.2376 885.00
57.3028 904.00
57.368 966.00
57.4332 970.00
57.4984 1110.00
57.5636 1146.00
57.6288 1238.00
57.694 1425.00
57.7592 1622.00
57.8244 1732.00
57.8896 1656.00
57.9548 1576.00
58.02 1467.00
58.0852 1420.00
58.1504 1204.00
58.2156 1094.00
58.2808 1057.00
58.346 935.00
58.4112 917.00
58.4764 869.00
58.5416 912.00
58.6068 865.00
58.672 860.00
58.7372 816.00
58.8024 840.00
58.8676 859.00
58.9328 928.00
58.998 885.00
59.0632 955.00
59.1284 1006.00
59.1936 1037.00
59.2588 1104.00
59.324 1086.00
59.3892 1174.00
59.4544 1057.00
59.5196 1068.00
59.5848 1009.00
59.65 997.00
59.7152 1065.00
59.7804 1041.00
59.8456 1165.00
59.9108 1187.00
59.976 1209.00
60.0412 1435.00
60.1064 1498.00
60.1716 1485.00
60.2368 1558.00
60.302 1568.00
60.3672 1400.00
60.4324 1346.00
60.4976 1351.00
60.5628 1376.00
60.628 1375.00
60.6932 1384.00
60.7584 1402.00
60.8236 1376.00
60.8888 1378.00
60.954 1522.00
61.0192 1723.00
61.0844 2056.00
61.1496 2458.00
61.2148 2867.00
61.28 4119.00
61.3452 6265.00
61.4104 5806.00
61.4756 3791.00
61.5408 4152.00
61.606 2453.00
61.6712 1549.00
61.7364 1368.00
61.8016 1163.00
61.8667 1015.00
61.932 969.00
61.9971 978.00
62.0623 924.00
62.1275 919.00
62.1927 887.00
62.2579 893.00
62.3231 825.00
62.3883 814.00
62.4535 941.00
62.5187 883.00
62.5839 933.00
62.6491 967.00
62.7143 1069.00
62.7795 1103.00
62.8447 1157.00
62.9099 1114.00
62.9751 1135.00
63.0403 1120.00
63.1055 1075.00
63.1707 990.00
63.2359 973.00
63.3011 933.00
63.3663 866.00
63.4315 880.00
63.4967 890.00
63.5619 857.00
63.6271 844.00
63.6923 814.00
63.7575 820.00
63.8227 862.00
63.8879 879.00
63.9531 955.00
64.0183 1025.00
64.0835 1019.00
64.1487 1195.00
64.2139 1308.00
64.2791 1419.00
64.3443 1505.00
64.4095 1598.00
64.4747 1645.00
64.5399 1651.00
64.6051 1721.00
64.6703 1945.00
64.7355 2254.00
64.8007 2651.00
64.8659 2847.00
64.9311 3019.00
64.9963 2746.00
65.0615 2474.00
65.1267 2147.00
65.1919 1662.00
65.2571 1430.00
65.3223 1208.00
65.3875 1253.00
65.4527 1337.00
65.5179 1383.00
65.5831 1103.00
65.6483 1062.00
65.7135 1098.00
65.7787 917.00
65.8439 831.00
65.9091 775.00
65.9743 799.00
66.0395 773.00
66.1047 754.00
66.1699 781.00
66.2351 721.00
66.3003 773.00
66.3655 729.00
66.4307 746.00
66.4959 696.00
66.561 734.00
66.6263 723.00
66.6915 804.00
66.7566 743.00
66.8218 736.00
66.887 747.00
66.9522 751.00
67.0174 717.00
67.0826 742.00
67.1478 721.00
67.213 694.00
67.2782 735.00
67.3434 669.00
67.4086 754.00
67.4738 769.00
67.539 718.00
67.6042 679.00
67.6694 716.00
67.7346 738.00
67.7998 762.00
67.865 712.00
67.9302 772.00
67.9954 717.00
68.0606 744.00
68.1258 709.00
68.191 720.00
68.2562 688.00
68.3214 717.00
68.3866 743.00
68.4518 722.00
68.517 786.00
68.5822 757.00
68.6474 744.00
68.7126 735.00
68.7778 789.00
68.843 718.00
68.9082 743.00
68.9734 809.00
69.0386 805.00
69.1038 787.00
69.169 800.00
69.2342 826.00
69.2994 900.00
69.3646 965.00
69.4298 960.00
69.495 945.00
69.5602 1008.00
69.6254 1102.00
69.6906 1081.00
69.7558 1126.00
69.821 1141.00
69.8862 1052.00
69.9514 1043.00
70.0166 974.00
70.0818 1022.00
70.147 936.00
70.2122 880.00
70.2774 902.00
70.3426 1003.00
70.4078 978.00
70.473 1066.00
70.5382 1047.00
70.6034 1051.00
70.6686 1003.00
70.7338 990.00
70.799 913.00
70.8642 904.00
70.9294 864.00
70.9946 837.00
71.0598 749.00
71.125 736.00
71.1902 776.00
71.2554 768.00
71.3205 737.00
71.3858 742.00
71.451 716.00
71.5162 742.00
71.5813 725.00
71.6465 762.00
71.7117 726.00
71.7769 755.00
71.8421 765.00
71.9073 756.00
71.9725 1001.00
72.0377 1275.00
72.1029 1793.00
72.1681 1686.00
72.2333 1197.00
72.2985 1259.00
72.3637 1278.00
72.4289 927.00
72.4941 896.00
72.5593 931.00
72.6245 877.00
72.6897 871.00
72.7549 877.00
72.8201 869.00
72.8853 832.00
72.9505 802.00
73.0157 750.00
73.0809 769.00
73.1461 697.00
73.2113 686.00
73.2765 679.00
73.3417 728.00
73.4069 695.00
73.4721 675.00
73.5373 629.00
73.6025 660.00
73.6677 666.00
73.7329 698.00
73.7981 775.00
73.8633 749.00
73.9285 795.00
73.9937 835.00
74.0589 799.00
74.1241 774.00
74.1893 757.00
74.2545 761.00
74.3197 717.00
74.3849 687.00
74.4501 702.00
74.5153 705.00
74.5805 695.00
74.6457 717.00
74.7109 682.00
74.7761 697.00
74.8413 674.00
74.9065 665.00
74.9717 592.00
75.0369 622.00
75.1021 661.00
75.1673 580.00
75.2325 620.00
75.2977 617.00
75.3629 627.00
75.4281 606.00
75.4933 644.00
75.5585 632.00
75.6237 621.00
75.6889 628.00
75.7541 643.00
75.8193 693.00
75.8845 839.00
75.9497 915.00
76.0149 927.00
76.0801 769.00
76.1452 725.00
76.2104 772.00
76.2756 681.00
76.3409 645.00
76.406 639.00
76.4712 625.00
76.5364 596.00
76.6016 633.00
76.6668 558.00
76.732 623.00
76.7972 632.00
76.8624 635.00
76.9276 641.00
76.9928 623.00
77.058 624.00
77.1232 624.00
77.1884 616.00
77.2536 630.00
77.3188 627.00
77.384 649.00
77.4492 595.00
77.5144 599.00
77.5796 578.00
77.6448 679.00
77.71 542.00
77.7752 625.00
77.8404 636.00
77.9056 631.00
77.9708 607.00
78.036 666.00
78.1012 671.00
78.1664 687.00
78.2316 694.00
78.2968 697.00
78.362 683.00
78.4272 648.00
78.4924 630.00
78.5576 594.00
78.6228 647.00
78.688 649.00
78.7532 633.00
78.8184 621.00
78.8836 624.00
78.9488 654.00
79.014 657.00
79.0792 652.00
79.1444 693.00
79.2096 687.00
79.2748 665.00
79.34 648.00
79.4052 660.00
79.4704 633.00
79.5356 659.00
79.6008 621.00
79.666 628.00
79.7312 633.00
79.7964 592.00
79.8616 577.00
79.9268 577.00
79.992 633.00
80.0572 602.00
80.1224 606.00
80.1876 647.00
80.2528 616.00
80.318 621.00
80.3832 610.00
80.4484 633.00
80.5136 605.00
80.5788 574.00
80.644 554.00
80.7092 603.00
80.7744 552.00
80.8396 617.00
80.9048 567.00
80.9699 571.00
81.0351 556.00
81.1003 573.00
81.1655 592.00
81.2307 612.00
81.2959 592.00
81.3611 565.00
81.4263 663.00
81.4915 600.00
81.5567 595.00
81.6219 590.00
81.6871 593.00
81.7523 608.00
81.8175 672.00
81.8827 642.00
81.9479 704.00
82.0131 713.00
82.0783 797.00
82.1435 960.00
82.2087 1412.00
82.2739 1641.00
82.3391 1061.00
82.4043 1008.00
82.4695 1163.00
82.5347 1201.00
82.5999 840.00
82.6651 733.00
82.7303 736.00
82.7955 719.00
82.8607 742.00
82.9259 656.00
82.9911 667.00
83.0563 677.00
83.1215 622.00
83.1867 658.00
83.2519 596.00
83.3171 607.00
83.3823 622.00
83.4475 610.00
83.5127 609.00
83.5779 643.00
83.6431 698.00
83.7083 595.00
83.7735 637.00
83.8387 603.00
83.9039 609.00
83.9691 628.00
84.0343 638.00
84.0995 663.00
84.1647 682.00
84.2299 654.00
84.2951 676.00
84.3603 744.00
84.4255 758.00
84.4907 744.00
84.5559 716.00
84.6211 749.00
84.6863 775.00
84.7515 702.00
84.8167 745.00
84.8819 727.00
84.9471 641.00
85.0123 699.00
85.0775 714.00
85.1427 662.00
85.2079 630.00
85.2731 663.00
85.3383 627.00
85.4035 618.00
85.4687 644.00
85.5339 641.00
85.5991 708.00
85.6643 647.00
85.7295 661.00
85.7946 628.00
85.8598 709.00
85.925 764.00
85.9903 785.00
86.0554 684.00
86.1206 649.00
86.1858 652.00
86.251 691.00
86.3162 674.00
86.3814 661.00
86.4466 607.00
86.5118 610.00
86.577 558.00
86.6422 621.00
86.7074 581.00
86.7726 617.00
86.8378 573.00
86.903 554.00
86.9682 598.00
87.0334 617.00
87.0986 584.00
87.1638 569.00
87.229 571.00
87.2942 564.00
87.3594 557.00
87.4246 569.00
87.4898 587.00
87.555 554.00
87.6202 539.00
87.6854 568.00
87.7506 590.00
87.8158 608.00
87.881 549.00
87.9462 539.00
88.0114 515.00
88.0766 585.00
88.1418 576.00
88.207 569.00
88.2722 545.00
88.3374 568.00
88.4026 568.00
88.4678 544.00
88.533 556.00
88.5982 537.00
88.6634 565.00
88.7286 596.00
88.7938 596.00
88.859 576.00
88.9242 551.00
88.9894 614.00
89.0546 640.00
89.1198 629.00
89.185 596.00
89.2502 648.00
89.3154 625.00
89.3806 657.00
89.4458 614.00
89.511 647.00
89.5762 560.00
89.6414 575.00
89.7066 611.00
89.7718 608.00
89.837 621.00
89.9022 591.00
89.9674 577.00
90.0326 619.00
90.0978 624.00
90.163 600.00
90.2282 651.00
90.2934 596.00
90.3586 605.00
90.4238 646.00
90.489 647.00
90.5542 601.00
90.6193 645.00
90.6845 658.00
90.7497 685.00
90.8149 616.00
90.8801 646.00
90.9453 611.00
91.0105 658.00
91.0757 636.00
91.1409 648.00
91.2061 693.00
91.2713 664.00
91.3365 757.00
91.4017 751.00
91.4669 751.00
91.5321 764.00
91.5973 723.00
91.6625 770.00
91.7277 756.00
91.7929 711.00
91.8581 744.00
91.9233 698.00
91.9885 691.00
92.0537 819.00
92.1189 843.00
92.1841 777.00
92.2493 736.00
92.3145 663.00
92.3797 677.00
92.4449 628.00
92.5101 650.00
92.5753 556.00
92.6405 572.00
92.7057 621.00
92.7709 633.00
92.8361 662.00
92.9013 585.00
92.9665 589.00
93.0317 601.00
93.0969 571.00
93.1621 622.00
93.2273 589.00
93.2925 608.00
93.3577 605.00
93.4229 612.00
93.4881 665.00
93.5533 609.00
93.6185 620.00
93.6837 611.00
93.7489 604.00
93.8141 606.00
93.8793 598.00
93.9445 623.00
94.0097 569.00
94.0749 590.00
94.1401 628.00
94.2053 587.00
94.2705 675.00
94.3357 688.00
94.4009 690.00
94.4661 739.00
94.5313 718.00
94.5965 763.00
94.6617 757.00
94.7269 785.00
94.7921 771.00
94.8573 773.00
94.9225 736.00
94.9877 759.00
95.0529 697.00
95.1181 739.00
95.1833 648.00
95.2485 677.00
95.3137 686.00
95.3789 622.00
95.444 693.00
95.5092 670.00
95.5744 637.00
95.6396 724.00
95.7048 703.00
95.77 711.00
95.8352 765.00
95.9004 804.00
95.9656 763.00
96.0308 736.00
96.096 797.00
96.1612 824.00
96.2264 825.00
96.2916 799.00
96.3568 860.00
96.422 838.00
96.4872 832.00
96.5524 862.00
96.6176 824.00
96.6828 798.00
96.748 737.00
96.8132 730.00
96.8784 691.00
96.9436 708.00
97.0088 656.00
97.074 668.00
97.1392 671.00
97.2044 626.00
97.2696 606.00
97.3348 600.00
97.4 643.00
97.4652 573.00
97.5304 565.00
97.5956 566.00
97.6608 540.00
97.726 551.00
97.7912 573.00
97.8564 590.00
97.9216 582.00
97.9868 557.00
98.052 563.00
98.1172 565.00
98.1824 596.00
98.2476 551.00
98.3128 560.00
98.378 576.00
98.4432 618.00
98.5084 620.00
98.5736 627.00
98.6388 607.00
98.704 653.00
98.7692 628.00
98.8344 596.00
98.8996 653.00
98.9648 620.00
99.03 614.00
99.0952 670.00
99.1604 660.00
99.2256 653.00
99.2908 664.00
99.356 662.00
99.4212 635.00
99.4864 651.00
99.5516 596.00
99.6168 623.00
99.682 550.00
99.7472 604.00
99.8124 631.00
99.8776 546.00
99.9428 558.00
100.008 552.00
100.073 576.00
100.095 602.00