File: data/xrd_creation/results/Na_208.xy
9.903433 2779.00
9.968632 2827.00
10.0338 2802.00
10.099 2741.00
10.1642 2821.00
10.2294 2982.00
10.2946 3058.00
10.3598 2992.00
10.425 3093.00
10.4902 3022.00
10.5554 2972.00
10.6206 2763.00
10.6858 2656.00
10.751 2534.00
10.8162 2470.00
10.8814 2542.00
10.9466 2479.00
11.0118 2461.00
11.077 2629.00
11.1422 2611.00
11.2074 2546.00
11.2726 2550.00
11.3378 2582.00
11.403 2607.00
11.4682 2605.00
11.5334 2550.00
11.5986 2805.00
11.6638 3050.00
11.729 3475.00
11.7942 4144.00
11.8594 4476.00
11.9246 4613.00
11.9898 4070.00
12.055 3377.00
12.1202 2923.00
12.1854 2600.00
12.2506 2260.00
12.3158 2214.00
12.381 2174.00
12.4462 2138.00
12.5114 2185.00
12.5766 2188.00
12.6418 2098.00
12.707 2146.00
12.7722 2156.00
12.8374 2101.00
12.9026 1989.00
12.9678 2072.00
13.033 2004.00
13.0982 1982.00
13.1634 1899.00
13.2286 1985.00
13.2938 1885.00
13.359 1846.00
13.4242 1914.00
13.4894 1937.00
13.5546 1990.00
13.6198 2053.00
13.685 2182.00
13.7502 2224.00
13.8154 2244.00
13.8805 2074.00
13.9457 2129.00
14.0109 1944.00
14.0761 1877.00
14.1413 1838.00
14.2065 1775.00
14.2717 1787.00
14.3369 1719.00
14.4021 1779.00
14.4673 1714.00
14.5325 1749.00
14.5977 1796.00
14.6629 1719.00
14.7281 1687.00
14.7933 1695.00
14.8585 1625.00
14.9237 1702.00
14.9889 1672.00
15.0541 1690.00
15.1193 1657.00
15.1845 1688.00
15.2497 1608.00
15.3149 1594.00
15.3801 1673.00
15.4453 1614.00
15.5105 1710.00
15.5757 1718.00
15.6409 1557.00
15.7061 1561.00
15.7713 1643.00
15.8365 1580.00
15.9017 1638.00
15.9669 1606.00
16.0321 1510.00
16.0973 1616.00
16.1625 1615.00
16.2277 1709.00
16.2929 1559.00
16.3581 1632.00
16.4233 1673.00
16.4885 1561.00
16.5537 1595.00
16.6189 1525.00
16.6841 1598.00
16.7493 1523.00
16.8145 1469.00
16.8797 1548.00
16.9449 1601.00
17.0101 1520.00
17.0753 1480.00
17.1405 1509.00
17.2057 1484.00
17.2709 1475.00
17.3361 1499.00
17.4013 1545.00
17.4665 1613.00
17.5317 1629.00
17.5969 1687.00
17.6621 1637.00
17.7273 1555.00
17.7925 1587.00
17.8577 1463.00
17.9229 1470.00
17.9881 1378.00
18.0533 1425.00
18.1185 1364.00
18.1837 1351.00
18.2489 1350.00
18.3141 1448.00
18.3793 1433.00
18.4445 1336.00
18.5097 1388.00
18.5749 1415.00
18.6401 1424.00
18.7052 1386.00
18.7704 1386.00
18.8356 1393.00
18.9008 1313.00
18.966 1425.00
19.0312 1472.00
19.0964 1561.00
19.1616 1711.00
19.2268 1994.00
19.292 2422.00
19.3572 2922.00
19.4224 3396.00
19.4876 3522.00
19.5528 3439.00
19.618 3012.00
19.6832 2619.00
19.7484 2273.00
19.8136 1844.00
19.8788 1590.00
19.944 1486.00
20.0092 1346.00
20.0744 1329.00
20.1396 1343.00
20.2048 1271.00
20.27 1350.00
20.3352 1286.00
20.4004 1316.00
20.4656 1285.00
20.5308 1405.00
20.596 1461.00
20.6612 1381.00
20.7264 1290.00
20.7916 1379.00
20.8568 1354.00
20.922 1329.00
20.9872 1268.00
21.0524 1232.00
21.1176 1189.00
21.1828 1220.00
21.248 1171.00
21.3132 1244.00
21.3784 1195.00
21.4436 1221.00
21.5088 1209.00
21.574 1190.00
21.6392 1190.00
21.7044 1288.00
21.7696 1184.00
21.8348 1185.00
21.9 1266.00
21.9652 1325.00
22.0304 1286.00
22.0956 1216.00
22.1608 1303.00
22.226 1172.00
22.2912 1305.00
22.3564 1315.00
22.4216 1325.00
22.4868 1369.00
22.552 1588.00
22.6172 1915.00
22.6824 2444.00
22.7476 3307.00
22.8128 3995.00
22.878 4050.00
22.9432 3602.00
23.0084 3127.00
23.0736 2449.00
23.1388 1886.00
23.204 1629.00
23.2692 1424.00
23.3344 1265.00
23.3996 1282.00
23.4647 1306.00
23.5299 1265.00
23.5951 1315.00
23.6603 1413.00
23.7255 1626.00
23.7907 2066.00
23.8559 2125.00
23.9211 2065.00
23.9863 1906.00
24.0515 1863.00
24.1167 1879.00
24.1819 2018.00
24.2471 1948.00
24.3123 1892.00
24.3775 1707.00
24.4427 1592.00
24.5079 1596.00
24.5731 1778.00
24.6383 1762.00
24.7035 1651.00
24.7687 1592.00
24.8339 1398.00
24.8991 1219.00
24.9643 1221.00
25.0295 1242.00
25.0947 1200.00
25.1599 1226.00
25.2251 1169.00
25.2903 1178.00
25.3555 1090.00
25.4207 1137.00
25.4859 1170.00
25.5511 1081.00
25.6163 1088.00
25.6815 1179.00
25.7467 1121.00
25.8119 1194.00
25.8771 1156.00
25.9423 1137.00
26.0075 1253.00
26.0727 1180.00
26.1379 1257.00
26.2031 1146.00
26.2683 1126.00
26.3335 1118.00
26.3987 1129.00
26.4639 1096.00
26.5291 1110.00
26.5943 1067.00
26.6595 1026.00
26.7247 1072.00
26.7899 1074.00
26.8551 1068.00
26.9203 1175.00
26.9855 1156.00
27.0507 1113.00
27.1159 1136.00
27.1811 1093.00
27.2463 1164.00
27.3115 1172.00
27.3767 1191.00
27.4419 1341.00
27.5071 1522.00
27.5723 1696.00
27.6375 1764.00
27.7027 1768.00
27.7679 1583.00
27.8331 1516.00
27.8983 1390.00
27.9635 1400.00
28.0287 1454.00
28.0939 1701.00
28.1591 2226.00
28.2243 3171.00
28.2894 4482.00
28.3546 5503.00
28.4198 5630.00
28.485 4946.00
28.5502 3889.00
28.6154 2906.00
28.6806 2140.00
28.7458 1740.00
28.811 1429.00
28.8762 1296.00
28.9414 1183.00
29.0066 1216.00
29.0718 1108.00
29.137 1101.00
29.2022 1135.00
29.2674 1101.00
29.3326 1097.00
29.3978 1177.00
29.463 1124.00
29.5282 1113.00
29.5934 1130.00
29.6586 1138.00
29.7238 1186.00
29.789 1228.00
29.8542 1342.00
29.9194 1585.00
29.9846 2057.00
30.0498 2461.00
30.115 2801.00
30.1802 2792.00
30.2454 2486.00
30.3106 2058.00
30.3758 1710.00
30.441 1525.00
30.5062 1353.00
30.5714 1342.00
30.6366 1288.00
30.7018 1337.00
30.767 1587.00
30.8322 1956.00
30.8974 2803.00
30.9626 3809.00
31.0278 4650.00
31.093 4708.00
31.1582 4023.00
31.2234 3254.00
31.2886 2588.00
31.3538 2259.00
31.419 2069.00
31.4842 2326.00
31.5494 3141.00
31.6146 3850.00
31.6798 4616.00
31.745 4565.00
31.8102 4055.00
31.8754 3239.00
31.9406 2419.00
32.0058 1919.00
32.071 1417.00
32.1362 1256.00
32.2014 1122.00
32.2666 1046.00
32.3318 1061.00
32.397 948.00
32.4622 943.00
32.5274 974.00
32.5926 951.00
32.6578 962.00
32.723 1047.00
32.7882 958.00
32.8534 967.00
32.9186 1005.00
32.9838 938.00
33.0489 932.00
33.1141 903.00
33.1793 925.00
33.2445 961.00
33.3097 917.00
33.3749 979.00
33.4401 1057.00
33.5053 1150.00
33.5705 1192.00
33.6357 1484.00
33.7009 2107.00
33.7661 3144.00
33.8313 4336.00
33.8965 5244.00
33.9617 5254.00
34.0269 4688.00
34.0921 4121.00
34.1573 3520.00
34.2225 2975.00
34.2877 2695.00
34.3529 2756.00
34.4181 2585.00
34.4833 2439.00
34.5485 2397.00
34.6137 2358.00
34.6789 2152.00
34.7441 1981.00
34.8093 1628.00
34.8745 1312.00
34.9397 1115.00
35.0049 1030.00
35.0701 956.00
35.1353 965.00
35.2005 959.00
35.2657 970.00
35.3309 1173.00
35.3961 1356.00
35.4613 1807.00
35.5265 2158.00
35.5917 2155.00
35.6569 1900.00
35.7221 1732.00
35.7873 1394.00
35.8525 1206.00
35.9177 1160.00
35.9829 1275.00
36.0481 1717.00
36.1133 1751.00
36.1785 1694.00
36.2437 1563.00
36.3089 1338.00
36.3741 1132.00
36.4393 1080.00
36.5045 988.00
36.5697 900.00
36.6349 868.00
36.7001 904.00
36.7653 874.00
36.8305 819.00
36.8957 801.00
36.9609 838.00
37.0261 826.00
37.0913 794.00
37.1565 807.00
37.2217 737.00
37.2869 794.00
37.3521 804.00
37.4173 781.00
37.4825 825.00
37.5477 739.00
37.6129 819.00
37.6781 804.00
37.7433 785.00
37.8085 806.00
37.8736 800.00
37.9388 822.00
38.004 735.00
38.0692 790.00
38.1344 745.00
38.1996 800.00
38.2648 710.00
38.33 764.00
38.3952 741.00
38.4604 772.00
38.5256 797.00
38.5908 808.00
38.656 890.00
38.7212 982.00
38.7864 1159.00
38.8516 1176.00
38.9168 1138.00
38.982 1059.00
39.0472 974.00
39.1124 960.00
39.1776 907.00
39.2428 899.00
39.308 902.00
39.3732 878.00
39.4384 891.00
39.5036 988.00
39.5688 903.00
39.634 897.00
39.6992 815.00
39.7644 861.00
39.8296 861.00
39.8948 847.00
39.96 840.00
40.0252 856.00
40.0904 830.00
40.1556 886.00
40.2208 867.00
40.286 907.00
40.3512 848.00
40.4164 791.00
40.4816 832.00
40.5468 797.00
40.612 830.00
40.6772 825.00
40.7424 911.00
40.8076 968.00
40.8728 1164.00
40.938 1251.00
41.0032 1379.00
41.0684 1497.00
41.1336 1552.00
41.1988 1622.00
41.264 1579.00
41.3292 1571.00
41.3944 1533.00
41.4596 1435.00
41.5248 1485.00
41.59 1260.00
41.6552 1221.00
41.7204 1173.00
41.7856 1205.00
41.8508 1168.00
41.916 1131.00
41.9812 1069.00
42.0464 1097.00
42.1116 994.00
42.1768 977.00
42.242 881.00
42.3072 864.00
42.3724 819.00
42.4376 786.00
42.5028 775.00
42.568 760.00
42.6332 731.00
42.6983 763.00
42.7635 779.00
42.8287 870.00
42.8939 884.00
42.9591 857.00
43.0243 867.00
43.0895 840.00
43.1547 876.00
43.2199 887.00
43.2851 880.00
43.3503 816.00
43.4155 833.00
43.4807 822.00
43.5459 784.00
43.6111 772.00
43.6763 724.00
43.7415 739.00
43.8067 714.00
43.8719 746.00
43.9371 700.00
44.0023 715.00
44.0675 746.00
44.1327 805.00
44.1979 912.00
44.2631 930.00
44.3283 1017.00
44.3935 1010.00
44.4587 943.00
44.5239 855.00
44.5891 790.00
44.6543 786.00
44.7195 748.00
44.7847 712.00
44.8499 762.00
44.9151 737.00
44.9803 836.00
45.0455 847.00
45.1107 911.00
45.1759 959.00
45.2411 950.00
45.3063 877.00
45.3715 869.00
45.4367 893.00
45.5019 860.00
45.5671 833.00
45.6323 950.00
45.6975 1011.00
45.7627 1114.00
45.8279 1265.00
45.8931 1453.00
45.9583 1535.00
46.0235 1500.00
46.0887 1366.00
46.1539 1338.00
46.2191 1064.00
46.2843 1098.00
46.3495 1016.00
46.4147 1171.00
46.4799 1488.00
46.5451 1944.00
46.6103 2181.00
46.6755 2125.00
46.7407 1873.00
46.8059 1721.00
46.8711 1511.00
46.9363 1177.00
47.0015 1036.00
47.0667 848.00
47.1319 830.00
47.1971 753.00
47.2623 740.00
47.3275 741.00
47.3927 719.00
47.4579 735.00
47.523 702.00
47.5882 692.00
47.6534 695.00
47.7186 738.00
47.7838 754.00
47.849 736.00
47.9142 792.00
47.9794 716.00
48.0446 746.00
48.1098 720.00
48.175 718.00
48.2402 697.00
48.3054 748.00
48.3706 747.00
48.4358 711.00
48.501 785.00
48.5662 811.00
48.6314 936.00
48.6966 1123.00
48.7618 1144.00
48.827 1241.00
48.8922 1210.00
48.9574 1044.00
49.0226 966.00
49.0878 1016.00
49.153 991.00
49.2182 1017.00
49.2834 934.00
49.3486 984.00
49.4138 1066.00
49.479 1265.00
49.5442 1533.00
49.6094 1645.00
49.6746 1537.00
49.7398 1396.00
49.805 1325.00
49.8702 1069.00
49.9354 955.00
50.0006 873.00
50.0658 884.00
50.131 868.00
50.1962 1105.00
50.2614 1221.00
50.3266 1563.00
50.3918 1966.00
50.457 2295.00
50.5222 2376.00
50.5874 2119.00
50.6526 1907.00
50.7178 1658.00
50.783 1564.00
50.8482 1483.00
50.9134 1484.00
50.9786 1503.00
51.0438 1554.00
51.109 1426.00
51.1742 1279.00
51.2394 1237.00
51.3046 1067.00
51.3698 1029.00
51.435 964.00
51.5002 977.00
51.5654 976.00
51.6306 1010.00
51.6958 927.00
51.761 829.00
51.8262 847.00
51.8914 745.00
51.9566 721.00
52.0218 769.00
52.087 682.00
52.1522 657.00
52.2174 716.00
52.2826 655.00
52.3477 720.00
52.4129 702.00
52.4781 671.00
52.5433 741.00
52.6085 712.00
52.6737 805.00
52.7389 988.00
52.8041 1197.00
52.8693 1390.00
52.9345 1467.00
52.9997 1408.00
53.0649 1312.00
53.1301 1057.00
53.1953 947.00
53.2605 821.00
53.3257 771.00
53.3909 799.00
53.4561 728.00
53.5213 736.00
53.5865 740.00
53.6517 749.00
53.7169 714.00
53.7821 769.00
53.8473 715.00
53.9125 734.00
53.9777 751.00
54.0429 727.00
54.1081 725.00
54.1733 745.00
54.2385 830.00
54.3037 995.00
54.3689 1158.00
54.4341 1351.00
54.4993 1505.00
54.5645 1528.00
54.6297 1563.00
54.6949 1365.00
54.7601 1264.00
54.8253 1104.00
54.8905 932.00
54.9557 901.00
55.0209 857.00
55.0861 820.00
55.1513 846.00
55.2165 807.00
55.2817 737.00
55.3469 782.00
55.4121 740.00
55.4773 761.00
55.5425 884.00
55.6077 1088.00
55.6729 1200.00
55.7381 1400.00
55.8033 1385.00
55.8685 1471.00
55.9337 1435.00
55.9989 1368.00
56.0641 1230.00
56.1293 1197.00
56.1945 1184.00
56.2597 1134.00
56.3249 1158.00
56.3901 1109.00
56.4553 1003.00
56.5205 904.00
56.5857 852.00
56.6509 731.00
56.7161 683.00
56.7813 670.00
56.8465 668.00
56.9117 699.00
56.9769 702.00
57.042 618.00
57.1073 645.00
57.1724 639.00
57.2376 651.00
57.3028 734.00
57.368 733.00
57.4332 824.00
57.4984 847.00
57.5636 980.00
57.6288 951.00
57.694 991.00
57.7592 904.00
57.8244 853.00
57.8896 784.00
57.9548 745.00
58.02 704.00
58.0852 774.00
58.1504 817.00
58.2156 1016.00
58.2808 1027.00
58.346 1105.00
58.4112 1046.00
58.4764 994.00
58.5416 947.00
58.6068 943.00
58.672 1129.00
58.7372 1327.00
58.8024 1532.00
58.8676 1628.00
58.9328 1573.00
58.998 1409.00
59.0632 1288.00
59.1284 1142.00
59.1936 1007.00
59.2588 919.00
59.324 796.00
59.3892 697.00
59.4544 742.00
59.5196 697.00
59.5848 658.00
59.65 679.00
59.7152 646.00
59.7804 734.00
59.8456 668.00
59.9108 711.00
59.976 692.00
60.0412 833.00
60.1064 931.00
60.1716 989.00
60.2368 1130.00
60.302 1125.00
60.3672 1230.00
60.4324 1293.00
60.4976 1350.00
60.5628 1411.00
60.628 1402.00
60.6932 1466.00
60.7584 1287.00
60.8236 1265.00
60.8888 1170.00
60.954 1059.00
61.0192 984.00
61.0844 966.00
61.1496 924.00
61.2148 904.00
61.28 863.00
61.3452 815.00
61.4104 717.00
61.4756 717.00
61.5408 775.00
61.606 773.00
61.6712 864.00
61.7364 911.00
61.8016 993.00
61.8667 1041.00
61.932 994.00
61.9971 1015.00
62.0623 1077.00
62.1275 1074.00
62.1927 1016.00
62.2579 1173.00
62.3231 1191.00
62.3883 1193.00
62.4535 1213.00
62.5187 1067.00
62.5839 950.00
62.6491 923.00
62.7143 808.00
62.7795 793.00
62.8447 724.00
62.9099 759.00
62.9751 757.00
63.0403 796.00
63.1055 803.00
63.1707 864.00
63.2359 998.00
63.3011 1008.00
63.3663 1038.00
63.4315 994.00
63.4967 951.00
63.5619 839.00
63.6271 756.00
63.6923 665.00
63.7575 637.00
63.8227 648.00
63.8879 611.00
63.9531 573.00
64.0183 608.00
64.0835 601.00
64.1487 559.00
64.2139 623.00
64.2791 674.00
64.3443 731.00
64.4095 711.00
64.4747 762.00
64.5399 731.00
64.6051 783.00
64.6703 807.00
64.7355 788.00
64.8007 753.00
64.8659 773.00
64.9311 779.00
64.9963 743.00
65.0615 710.00
65.1267 717.00
65.1919 621.00
65.2571 672.00
65.3223 623.00
65.3875 628.00
65.4527 679.00
65.5179 664.00
65.5831 771.00
65.6483 805.00
65.7135 974.00
65.7787 996.00
65.8439 1068.00
65.9091 1132.00
65.9743 1005.00
66.0395 1134.00
66.1047 1148.00
66.1699 1220.00
66.2351 1238.00
66.3003 1246.00
66.3655 1080.00
66.4307 1041.00
66.4959 914.00
66.561 834.00
66.6263 729.00
66.6915 716.00
66.7566 665.00
66.8218 578.00
66.887 585.00
66.9522 617.00
67.0174 580.00
67.0826 535.00
67.1478 589.00
67.213 571.00
67.2782 550.00
67.3434 521.00
67.4086 589.00
67.4738 577.00
67.539 564.00
67.6042 569.00
67.6694 609.00
67.7346 632.00
67.7998 661.00
67.865 655.00
67.9302 607.00
67.9954 667.00
68.0606 593.00
68.1258 572.00
68.191 596.00
68.2562 541.00
68.3214 580.00
68.3866 573.00
68.4518 606.00
68.517 598.00
68.5822 545.00
68.6474 593.00
68.7126 535.00
68.7778 565.00
68.843 592.00
68.9082 572.00
68.9734 579.00
69.0386 580.00
69.1038 635.00
69.169 709.00
69.2342 746.00
69.2994 809.00
69.3646 853.00
69.4298 825.00
69.495 843.00
69.5602 746.00
69.6254 666.00
69.6906 636.00
69.7558 660.00
69.821 591.00
69.8862 541.00
69.9514 590.00
70.0166 586.00
70.0818 555.00
70.147 548.00
70.2122 509.00
70.2774 570.00
70.3426 560.00
70.4078 527.00
70.473 562.00
70.5382 594.00
70.6034 588.00
70.6686 552.00
70.7338 515.00
70.799 521.00
70.8642 586.00
70.9294 564.00
70.9946 615.00
71.0598 620.00
71.125 636.00
71.1902 673.00
71.2554 794.00
71.3205 767.00
71.3858 752.00
71.451 775.00
71.5162 798.00
71.5813 804.00
71.6465 880.00
71.7117 882.00
71.7769 836.00
71.8421 829.00
71.9073 776.00
71.9725 773.00
72.0377 740.00
72.1029 671.00
72.1681 654.00
72.2333 611.00
72.2985 599.00
72.3637 666.00
72.4289 615.00
72.4941 642.00
72.5593 738.00
72.6245 698.00
72.6897 709.00
72.7549 708.00
72.8201 701.00
72.8853 643.00
72.9505 686.00
73.0157 703.00
73.0809 679.00
73.1461 738.00
73.2113 703.00
73.2765 728.00
73.3417 633.00
73.4069 604.00
73.4721 609.00
73.5373 617.00
73.6025 597.00
73.6677 550.00
73.7329 523.00
73.7981 575.00
73.8633 568.00
73.9285 520.00
73.9937 506.00
74.0589 524.00
74.1241 520.00
74.1893 480.00
74.2545 532.00
74.3197 522.00
74.3849 521.00
74.4501 516.00
74.5153 548.00
74.5805 577.00
74.6457 599.00
74.7109 659.00
74.7761 594.00
74.8413 657.00
74.9065 632.00
74.9717 574.00
75.0369 580.00
75.1021 655.00
75.1673 651.00
75.2325 687.00
75.2977 697.00
75.3629 627.00
75.4281 664.00
75.4933 680.00
75.5585 731.00
75.6237 754.00
75.6889 709.00
75.7541 712.00
75.8193 648.00
75.8845 720.00
75.9497 676.00
76.0149 660.00
76.0801 599.00
76.1452 652.00
76.2104 612.00
76.2756 560.00
76.3409 615.00
76.406 612.00
76.4712 598.00
76.5364 649.00
76.6016 695.00
76.6668 592.00
76.732 661.00
76.7972 612.00
76.8624 616.00
76.9276 674.00
76.9928 669.00
77.058 626.00
77.1232 695.00
77.1884 633.00
77.2536 631.00
77.3188 598.00
77.384 562.00
77.4492 529.00
77.5144 547.00
77.5796 561.00
77.6448 585.00
77.71 586.00
77.7752 560.00
77.8404 633.00
77.9056 619.00
77.9708 606.00
78.036 603.00
78.1012 570.00
78.1664 560.00
78.2316 598.00
78.2968 518.00
78.362 563.00
78.4272 608.00
78.4924 571.00
78.5576 567.00
78.6228 590.00
78.688 546.00
78.7532 576.00
78.8184 548.00
78.8836 530.00
78.9488 621.00
79.014 573.00
79.0792 573.00
79.1444 502.00
79.2096 620.00
79.2748 581.00
79.34 646.00
79.4052 707.00
79.4704 726.00
79.5356 763.00
79.6008 699.00
79.666 789.00
79.7312 856.00
79.7964 829.00
79.8616 801.00
79.9268 745.00
79.992 671.00
80.0572 676.00
80.1224 647.00
80.1876 576.00
80.2528 550.00
80.318 530.00
80.3832 531.00
80.4484 514.00
80.5136 528.00
80.5788 540.00
80.644 555.00
80.7092 511.00
80.7744 530.00
80.8396 548.00
80.9048 558.00
80.9699 548.00
81.0351 542.00
81.1003 568.00
81.1655 603.00
81.2307 611.00
81.2959 588.00
81.3611 612.00
81.4263 607.00
81.4915 601.00
81.5567 667.00
81.6219 653.00
81.6871 641.00
81.7523 699.00
81.8175 644.00
81.8827 638.00
81.9479 640.00
82.0131 619.00
82.0783 610.00
82.1435 669.00
82.2087 731.00
82.2739 603.00
82.3391 612.00
82.4043 656.00
82.4695 627.00
82.5347 627.00
82.5999 612.00
82.6651 590.00
82.7303 570.00
82.7955 604.00
82.8607 644.00
82.9259 620.00
82.9911 653.00
83.0563 594.00
83.1215 620.00
83.1867 614.00
83.2519 601.00
83.3171 629.00
83.3823 660.00
83.4475 630.00
83.5127 618.00
83.5779 655.00
83.6431 655.00
83.7083 618.00
83.7735 654.00
83.8387 585.00
83.9039 613.00
83.9691 650.00
84.0343 621.00
84.0995 607.00
84.1647 632.00
84.2299 593.00
84.2951 593.00
84.3603 601.00
84.4255 609.00
84.4907 603.00
84.5559 681.00
84.6211 687.00
84.6863 655.00
84.7515 663.00
84.8167 653.00
84.8819 669.00
84.9471 599.00
85.0123 643.00
85.0775 589.00
85.1427 587.00
85.2079 537.00
85.2731 542.00
85.3383 559.00
85.4035 570.00
85.4687 604.00
85.5339 641.00
85.5991 641.00
85.6643 565.00
85.7295 666.00
85.7946 722.00
85.8598 604.00
85.925 637.00
85.9903 605.00
86.0554 647.00
86.1206 607.00
86.1858 587.00
86.251 643.00
86.3162 586.00
86.3814 661.00
86.4466 649.00
86.5118 654.00
86.577 637.00
86.6422 679.00
86.7074 629.00
86.7726 633.00
86.8378 610.00
86.903 598.00
86.9682 631.00
87.0334 528.00
87.0986 563.00
87.1638 535.00
87.229 578.00
87.2942 497.00
87.3594 474.00
87.4246 561.00
87.4898 505.00
87.555 520.00
87.6202 537.00
87.6854 510.00
87.7506 523.00
87.8158 531.00
87.881 583.00
87.9462 623.00
88.0114 654.00
88.0766 626.00
88.1418 628.00
88.207 632.00
88.2722 618.00
88.3374 601.00
88.4026 587.00
88.4678 623.00
88.533 596.00
88.5982 597.00
88.6634 574.00
88.7286 647.00
88.7938 654.00
88.859 668.00
88.9242 606.00
88.9894 634.00
89.0546 731.00
89.1198 732.00
89.185 764.00
89.2502 735.00
89.3154 689.00
89.3806 708.00
89.4458 720.00
89.511 697.00
89.5762 659.00
89.6414 608.00
89.7066 622.00
89.7718 612.00
89.837 614.00
89.9022 620.00
89.9674 638.00
90.0326 607.00
90.0978 572.00
90.163 590.00
90.2282 566.00
90.2934 617.00
90.3586 585.00
90.4238 684.00
90.489 686.00
90.5542 646.00
90.6193 607.00
90.6845 611.00
90.7497 634.00
90.8149 553.00
90.8801 569.00
90.9453 570.00
91.0105 573.00
91.0757 566.00
91.1409 549.00
91.2061 548.00
91.2713 553.00
91.3365 588.00
91.4017 563.00
91.4669 568.00
91.5321 540.00
91.5973 530.00
91.6625 565.00
91.7277 546.00
91.7929 535.00
91.8581 514.00
91.9233 508.00
91.9885 522.00
92.0537 537.00
92.1189 508.00
92.1841 561.00
92.2493 554.00
92.3145 580.00
92.3797 589.00
92.4449 547.00
92.5101 517.00
92.5753 581.00
92.6405 607.00
92.7057 530.00
92.7709 520.00
92.8361 557.00
92.9013 575.00
92.9665 551.00
93.0317 571.00
93.0969 561.00
93.1621 535.00
93.2273 542.00
93.2925 479.00
93.3577 484.00
93.4229 502.00
93.4881 510.00
93.5533 479.00
93.6185 493.00
93.6837 477.00
93.7489 537.00
93.8141 483.00
93.8793 472.00
93.9445 484.00
94.0097 496.00
94.0749 523.00
94.1401 510.00
94.2053 511.00
94.2705 527.00
94.3357 571.00
94.4009 528.00
94.4661 587.00
94.5313 611.00
94.5965 604.00
94.6617 559.00
94.7269 618.00
94.7921 584.00
94.8573 561.00
94.9225 538.00
94.9877 532.00
95.0529 552.00
95.1181 551.00
95.1833 531.00
95.2485 537.00
95.3137 548.00
95.3789 544.00
95.444 570.00
95.5092 611.00
95.5744 581.00
95.6396 636.00
95.7048 630.00
95.77 666.00
95.8352 642.00
95.9004 614.00
95.9656 631.00
96.0308 600.00
96.096 610.00
96.1612 537.00
96.2264 514.00
96.2916 606.00
96.3568 548.00
96.422 541.00
96.4872 542.00
96.5524 555.00
96.6176 552.00
96.6828 539.00
96.748 530.00
96.8132 593.00
96.8784 593.00
96.9436 580.00
97.0088 569.00
97.074 560.00
97.1392 602.00
97.2044 612.00
97.2696 641.00
97.3348 598.00
97.4 623.00
97.4652 630.00
97.5304 679.00
97.5956 638.00
97.6608 683.00
97.726 690.00
97.7912 650.00
97.8564 606.00
97.9216 569.00
97.9868 615.00
98.052 569.00
98.1172 548.00
98.1824 562.00
98.2476 543.00
98.3128 542.00
98.378 511.00
98.4432 570.00
98.5084 520.00
98.5736 520.00
98.6388 547.00
98.704 597.00
98.7692 582.00
98.8344 565.00
98.8996 558.00
98.9648 581.00
99.03 565.00
99.0952 612.00
99.1604 576.00
99.2256 639.00
99.2908 624.00
99.356 677.00
99.4212 645.00
99.4864 681.00
99.5516 648.00
99.6168 725.00
99.682 641.00
99.7472 659.00
99.8124 604.00
99.8776 613.00
99.9428 596.00
100.008 600.00
100.073 685.00
100.095 696.00