File: data/xrd_creation/results/Na_205.xy
9.903433 3041.00
9.968632 3049.00
10.0338 3023.00
10.099 2933.00
10.1642 3055.00
10.2294 3069.00
10.2946 3031.00
10.3598 3118.00
10.425 3240.00
10.4902 3429.00
10.5554 3568.00
10.6206 3948.00
10.6858 3934.00
10.751 3087.00
10.8162 2855.00
10.8814 2822.00
10.9466 2787.00
11.0118 2805.00
11.077 2730.00
11.1422 2773.00
11.2074 2901.00
11.2726 2817.00
11.3378 2789.00
11.403 2742.00
11.4682 2743.00
11.5334 2719.00
11.5986 2724.00
11.6638 2656.00
11.729 2751.00
11.7942 2836.00
11.8594 2864.00
11.9246 3022.00
11.9898 3171.00
12.055 3509.00
12.1202 4033.00
12.1854 4350.00
12.2506 3273.00
12.3158 2619.00
12.381 2400.00
12.4462 2469.00
12.5114 2502.00
12.5766 2467.00
12.6418 2386.00
12.707 2459.00
12.7722 2334.00
12.8374 2459.00
12.9026 2483.00
12.9678 2580.00
13.033 2498.00
13.0982 2364.00
13.1634 2386.00
13.2286 2293.00
13.2938 2381.00
13.359 2340.00
13.4242 2344.00
13.4894 2312.00
13.5546 2390.00
13.6198 2266.00
13.685 2325.00
13.7502 2326.00
13.8154 2265.00
13.8805 2415.00
13.9457 2387.00
14.0109 2401.00
14.0761 2499.00
14.1413 2516.00
14.2065 2385.00
14.2717 2295.00
14.3369 2236.00
14.4021 2220.00
14.4673 2175.00
14.5325 2108.00
14.5977 2256.00
14.6629 2164.00
14.7281 2196.00
14.7933 2213.00
14.8585 2116.00
14.9237 2192.00
14.9889 2158.00
15.0541 2121.00
15.1193 2138.00
15.1845 2161.00
15.2497 2121.00
15.3149 2206.00
15.3801 2157.00
15.4453 2143.00
15.5105 2219.00
15.5757 2285.00
15.6409 2173.00
15.7061 2046.00
15.7713 2112.00
15.8365 2072.00
15.9017 2191.00
15.9669 2093.00
16.0321 2138.00
16.0973 2116.00
16.1625 2156.00
16.2277 2076.00
16.2929 2270.00
16.3581 2122.00
16.4233 2144.00
16.4885 2130.00
16.5537 2165.00
16.6189 2137.00
16.6841 2131.00
16.7493 2137.00
16.8145 2054.00
16.8797 2053.00
16.9449 2041.00
17.0101 2087.00
17.0753 2122.00
17.1405 2054.00
17.2057 2105.00
17.2709 2066.00
17.3361 2061.00
17.4013 1965.00
17.4665 2153.00
17.5317 2095.00
17.5969 2233.00
17.6621 2315.00
17.7273 2393.00
17.7925 2344.00
17.8577 2141.00
17.9229 1987.00
17.9881 2003.00
18.0533 1975.00
18.1185 2015.00
18.1837 1960.00
18.2489 1946.00
18.3141 1916.00
18.3793 1940.00
18.4445 1810.00
18.5097 1894.00
18.5749 1978.00
18.6401 1989.00
18.7052 1914.00
18.7704 1907.00
18.8356 1923.00
18.9008 1943.00
18.966 1887.00
19.0312 1862.00
19.0964 1944.00
19.1616 1920.00
19.2268 2041.00
19.292 1963.00
19.3572 1932.00
19.4224 2088.00
19.4876 2131.00
19.5528 2312.00
19.618 2411.00
19.6832 2585.00
19.7484 2685.00
19.8136 2709.00
19.8788 3112.00
19.944 3426.00
20.0092 3545.00
20.0744 2687.00
20.1396 2199.00
20.2048 2047.00
20.27 1971.00
20.3352 1921.00
20.4004 1936.00
20.4656 2058.00
20.5308 2109.00
20.596 2252.00
20.6612 2452.00
20.7264 2845.00
20.7916 3225.00
20.8568 3719.00
20.922 3480.00
20.9872 2799.00
21.0524 2622.00
21.1176 2424.00
21.1828 1971.00
21.248 1838.00
21.3132 1837.00
21.3784 1899.00
21.4436 1826.00
21.5088 1826.00
21.574 1905.00
21.6392 1902.00
21.7044 1849.00
21.7696 1856.00
21.8348 1849.00
21.9 1918.00
21.9652 1841.00
22.0304 1865.00
22.0956 1846.00
22.1608 1896.00
22.226 1862.00
22.2912 1896.00
22.3564 1934.00
22.4216 1891.00
22.4868 1921.00
22.552 1903.00
22.6172 1939.00
22.6824 1948.00
22.7476 2007.00
22.8128 2019.00
22.878 2304.00
22.9432 2417.00
23.0084 2713.00
23.0736 3074.00
23.1388 3190.00
23.204 3481.00
23.2692 3235.00
23.3344 2816.00
23.3996 2389.00
23.4647 2414.00
23.5299 2491.00
23.5951 2196.00
23.6603 2124.00
23.7255 2093.00
23.7907 2075.00
23.8559 2423.00
23.9211 2703.00
23.9863 3249.00
24.0515 4077.00
24.1167 4966.00
24.1819 5111.00
24.2471 3935.00
24.3123 3401.00
24.3775 3307.00
24.4427 2787.00
24.5079 2424.00
24.5731 2528.00
24.6383 2606.00
24.7035 2959.00
24.7687 3009.00
24.8339 2464.00
24.8991 2069.00
24.9643 1952.00
25.0295 1914.00
25.0947 1776.00
25.1599 1793.00
25.2251 1849.00
25.2903 1769.00
25.3555 1869.00
25.4207 1892.00
25.4859 1842.00
25.5511 1848.00
25.6163 1892.00
25.6815 1874.00
25.7467 1904.00
25.8119 1772.00
25.8771 1838.00
25.9423 1840.00
26.0075 1875.00
26.0727 1984.00
26.1379 1929.00
26.2031 1863.00
26.2683 1860.00
26.3335 1953.00
26.3987 1898.00
26.4639 1807.00
26.5291 1786.00
26.5943 1799.00
26.6595 1769.00
26.7247 1746.00
26.7899 1766.00
26.8551 1752.00
26.9203 1742.00
26.9855 1740.00
27.0507 1808.00
27.1159 1823.00
27.1811 1836.00
27.2463 1842.00
27.3115 1842.00
27.3767 1821.00
27.4419 1796.00
27.5071 1782.00
27.5723 1760.00
27.6375 1861.00
27.7027 1909.00
27.7679 1895.00
27.8331 1975.00
27.8983 2083.00
27.9635 2227.00
28.0287 2405.00
28.0939 2598.00
28.1591 2974.00
28.2243 3552.00
28.2894 4657.00
28.3546 6624.00
28.4198 9084.00
28.485 10182.00
28.5502 7308.00
28.6154 3954.00
28.6806 2635.00
28.7458 2113.00
28.811 2055.00
28.8762 1993.00
28.9414 1837.00
29.0066 1787.00
29.0718 1904.00
29.137 1721.00
29.2022 1773.00
29.2674 1735.00
29.3326 1771.00
29.3978 1827.00
29.463 1734.00
29.5282 1763.00
29.5934 1754.00
29.6586 1709.00
29.7238 1870.00
29.789 1803.00
29.8542 1782.00
29.9194 1722.00
29.9846 1894.00
30.0498 1881.00
30.115 1940.00
30.1802 1908.00
30.2454 2088.00
30.3106 2368.00
30.3758 2355.00
30.441 2284.00
30.5062 2156.00
30.5714 2098.00
30.6366 2179.00
30.7018 2284.00
30.767 2224.00
30.8322 2010.00
30.8974 1910.00
30.9626 2012.00
31.0278 1990.00
31.093 2118.00
31.1582 2204.00
31.2234 2435.00
31.2886 2550.00
31.3538 2945.00
31.419 3769.00
31.4842 4921.00
31.5494 6362.00
31.6146 7783.00
31.6798 9425.00
31.745 9986.00
31.8102 7679.00
31.8754 4665.00
31.9406 2970.00
32.0058 2222.00
32.071 1947.00
32.1362 1847.00
32.2014 1801.00
32.2666 1718.00
32.3318 1721.00
32.397 1708.00
32.4622 1736.00
32.5274 1634.00
32.5926 1641.00
32.6578 1594.00
32.723 1587.00
32.7882 1555.00
32.8534 1648.00
32.9186 1584.00
32.9838 1647.00
33.0489 1706.00
33.1141 1547.00
33.1793 1685.00
33.2445 1670.00
33.3097 1636.00
33.3749 1596.00
33.4401 1719.00
33.5053 1835.00
33.5705 1694.00
33.6357 1817.00
33.7009 1893.00
33.7661 2054.00
33.8313 2483.00
33.8965 3035.00
33.9617 4079.00
34.0269 5801.00
34.0921 8103.00
34.1573 9937.00
34.2225 9192.00
34.2877 8500.00
34.3529 8577.00
34.4181 8622.00
34.4833 6676.00
34.5485 4253.00
34.6137 3299.00
34.6789 3046.00
34.7441 2687.00
34.8093 2105.00
34.8745 1942.00
34.9397 1777.00
35.0049 1710.00
35.0701 1741.00
35.1353 1587.00
35.2005 1549.00
35.2657 1653.00
35.3309 1785.00
35.3961 1923.00
35.4613 2225.00
35.5265 2667.00
35.5917 2889.00
35.6569 2527.00
35.7221 2157.00
35.7873 1894.00
35.8525 1705.00
35.9177 1626.00
35.9829 1591.00
36.0481 1615.00
36.1133 1719.00
36.1785 1759.00
36.2437 1759.00
36.3089 1595.00
36.3741 1628.00
36.4393 1599.00
36.5045 1542.00
36.5697 1592.00
36.6349 1455.00
36.7001 1589.00
36.7653 1529.00
36.8305 1500.00
36.8957 1473.00
36.9609 1424.00
37.0261 1477.00
37.0913 1476.00
37.1565 1516.00
37.2217 1452.00
37.2869 1521.00
37.3521 1473.00
37.4173 1474.00
37.4825 1453.00
37.5477 1491.00
37.6129 1488.00
37.6781 1495.00
37.7433 1423.00
37.8085 1447.00
37.8736 1434.00
37.9388 1501.00
38.004 1360.00
38.0692 1449.00
38.1344 1454.00
38.1996 1430.00
38.2648 1466.00
38.33 1383.00
38.3952 1392.00
38.4604 1476.00
38.5256 1457.00
38.5908 1492.00
38.656 1543.00
38.7212 1786.00
38.7864 1830.00
38.8516 1956.00
38.9168 1893.00
38.982 1620.00
39.0472 1477.00
39.1124 1454.00
39.1776 1530.00
39.2428 1449.00
39.308 1431.00
39.3732 1403.00
39.4384 1446.00
39.5036 1426.00
39.5688 1388.00
39.634 1546.00
39.6992 1532.00
39.7644 1476.00
39.8296 1437.00
39.8948 1540.00
39.96 1510.00
40.0252 1450.00
40.0904 1471.00
40.1556 1502.00
40.2208 1487.00
40.286 1542.00
40.3512 1521.00
40.4164 1514.00
40.4816 1512.00
40.5468 1525.00
40.612 1579.00
40.6772 1548.00
40.7424 1651.00
40.8076 1779.00
40.8728 1872.00
40.938 2248.00
41.0032 2493.00
41.0684 2448.00
41.1336 2138.00
41.1988 1808.00
41.264 1786.00
41.3292 1835.00
41.3944 1939.00
41.4596 2236.00
41.5248 2012.00
41.59 2100.00
41.6552 2126.00
41.7204 2014.00
41.7856 1774.00
41.8508 1562.00
41.916 1584.00
41.9812 1590.00
42.0464 1535.00
42.1116 1714.00
42.1768 1639.00
42.242 1598.00
42.3072 1449.00
42.3724 1479.00
42.4376 1411.00
42.5028 1453.00
42.568 1377.00
42.6332 1383.00
42.6983 1401.00
42.7635 1303.00
42.8287 1398.00
42.8939 1375.00
42.9591 1366.00
43.0243 1359.00
43.0895 1510.00
43.1547 1466.00
43.2199 1505.00
43.2851 1501.00
43.3503 1588.00
43.4155 1484.00
43.4807 1722.00
43.5459 1673.00
43.6111 1555.00
43.6763 1488.00
43.7415 1409.00
43.8067 1447.00
43.8719 1416.00
43.9371 1366.00
44.0023 1332.00
44.0675 1365.00
44.1327 1316.00
44.1979 1305.00
44.2631 1346.00
44.3283 1292.00
44.3935 1313.00
44.4587 1331.00
44.5239 1394.00
44.5891 1365.00
44.6543 1415.00
44.7195 1428.00
44.7847 1471.00
44.8499 1543.00
44.9151 1548.00
44.9803 1757.00
45.0455 1892.00
45.1107 1985.00
45.1759 1861.00
45.2411 1771.00
45.3063 1468.00
45.3715 1461.00
45.4367 1436.00
45.5019 1499.00
45.5671 1526.00
45.6323 1653.00
45.6975 1753.00
45.7627 1971.00
45.8279 1903.00
45.8931 1765.00
45.9583 1603.00
46.0235 1494.00
46.0887 1460.00
46.1539 1556.00
46.2191 1451.00
46.2843 1503.00
46.3495 1561.00
46.4147 1586.00
46.4799 1638.00
46.5451 1522.00
46.6103 1580.00
46.6755 1438.00
46.7407 1556.00
46.8059 1594.00
46.8711 1716.00
46.9363 2006.00
47.0015 2291.00
47.0667 2537.00
47.1319 2575.00
47.1971 2436.00
47.2623 2162.00
47.3275 1862.00
47.3927 1562.00
47.4579 1545.00
47.523 1365.00
47.5882 1385.00
47.6534 1361.00
47.7186 1414.00
47.7838 1416.00
47.849 1368.00
47.9142 1350.00
47.9794 1383.00
48.0446 1359.00
48.1098 1355.00
48.175 1349.00
48.2402 1310.00
48.3054 1274.00
48.3706 1370.00
48.4358 1382.00
48.501 1314.00
48.5662 1359.00
48.6314 1404.00
48.6966 1431.00
48.7618 1507.00
48.827 1664.00
48.8922 1958.00
48.9574 2218.00
49.0226 2732.00
49.0878 3102.00
49.153 3150.00
49.2182 2659.00
49.2834 2400.00
49.3486 2350.00
49.4138 2300.00
49.479 2899.00
49.5442 2989.00
49.6094 2480.00
49.6746 2139.00
49.7398 1682.00
49.805 1524.00
49.8702 1511.00
49.9354 1551.00
50.0006 1486.00
50.0658 1603.00
50.131 1786.00
50.1962 2155.00
50.2614 2518.00
50.3266 3216.00
50.3918 3537.00
50.457 3200.00
50.5222 2744.00
50.5874 2292.00
50.6526 2041.00
50.7178 2177.00
50.783 2500.00
50.8482 2555.00
50.9134 2254.00
50.9786 2020.00
51.0438 1688.00
51.109 1592.00
51.1742 1465.00
51.2394 1525.00
51.3046 1573.00
51.3698 1801.00
51.435 1889.00
51.5002 1659.00
51.5654 1671.00
51.6306 1588.00
51.6958 1507.00
51.761 1501.00
51.8262 1428.00
51.8914 1406.00
51.9566 1501.00
52.0218 1560.00
52.087 1368.00
52.1522 1435.00
52.2174 1430.00
52.2826 1349.00
52.3477 1319.00
52.4129 1278.00
52.4781 1288.00
52.5433 1232.00
52.6085 1295.00
52.6737 1339.00
52.7389 1225.00
52.8041 1349.00
52.8693 1357.00
52.9345 1343.00
52.9997 1544.00
53.0649 1478.00
53.1301 1572.00
53.1953 1565.00
53.2605 1535.00
53.3257 1475.00
53.3909 1415.00
53.4561 1456.00
53.5213 1488.00
53.5865 1377.00
53.6517 1465.00
53.7169 1365.00
53.7821 1494.00
53.8473 1486.00
53.9125 1369.00
53.9777 1393.00
54.0429 1518.00
54.1081 1572.00
54.1733 1716.00
54.2385 1928.00
54.3037 2108.00
54.3689 2305.00
54.4341 2151.00
54.4993 1836.00
54.5645 1722.00
54.6297 1492.00
54.6949 1392.00
54.7601 1287.00
54.8253 1384.00
54.8905 1341.00
54.9557 1481.00
55.0209 1326.00
55.0861 1417.00
55.1513 1371.00
55.2165 1458.00
55.2817 1410.00
55.3469 1528.00
55.4121 1738.00
55.4773 1947.00
55.5425 2212.00
55.6077 2531.00
55.6729 2401.00
55.7381 2295.00
55.8033 2263.00
55.8685 2159.00
55.9337 1969.00
55.9989 1864.00
56.0641 1901.00
56.1293 1945.00
56.1945 1889.00
56.2597 1776.00
56.3249 1622.00
56.3901 1473.00
56.4553 1376.00
56.5205 1376.00
56.5857 1198.00
56.6509 1202.00
56.7161 1224.00
56.7813 1164.00
56.8465 1214.00
56.9117 1177.00
56.9769 1280.00
57.042 1238.00
57.1073 1281.00
57.1724 1308.00
57.2376 1431.00
57.3028 1577.00
57.368 1781.00
57.4332 1864.00
57.4984 1756.00
57.5636 1651.00
57.6288 1427.00
57.694 1358.00
57.7592 1333.00
57.8244 1290.00
57.8896 1306.00
57.9548 1345.00
58.02 1429.00
58.0852 1542.00
58.1504 1566.00
58.2156 1448.00
58.2808 1566.00
58.346 1478.00
58.4112 1377.00
58.4764 1464.00
58.5416 1536.00
58.6068 1444.00
58.672 1422.00
58.7372 1277.00
58.8024 1257.00
58.8676 1295.00
58.9328 1324.00
58.998 1339.00
59.0632 1380.00
59.1284 1552.00
59.1936 1648.00
59.2588 1688.00
59.324 1690.00
59.3892 1716.00
59.4544 1586.00
59.5196 1451.00
59.5848 1467.00
59.65 1365.00
59.7152 1344.00
59.7804 1418.00
59.8456 1470.00
59.9108 1725.00
59.976 1901.00
60.0412 2157.00
60.1064 2031.00
60.1716 1929.00
60.2368 2004.00
60.302 1899.00
60.3672 1769.00
60.4324 1641.00
60.4976 1554.00
60.5628 1426.00
60.628 1511.00
60.6932 1550.00
60.7584 1662.00
60.8236 1866.00
60.8888 1943.00
60.954 2001.00
61.0192 2027.00
61.0844 1966.00
61.1496 1710.00
61.2148 1576.00
61.28 1427.00
61.3452 1484.00
61.4104 1583.00
61.4756 1729.00
61.5408 1841.00
61.606 1798.00
61.6712 1753.00
61.7364 1575.00
61.8016 1493.00
61.8667 1516.00
61.932 1602.00
61.9971 1578.00
62.0623 1624.00
62.1275 1876.00
62.1927 1955.00
62.2579 1888.00
62.3231 1718.00
62.3883 1609.00
62.4535 1493.00
62.5187 1402.00
62.5839 1324.00
62.6491 1242.00
62.7143 1236.00
62.7795 1365.00
62.8447 1323.00
62.9099 1421.00
62.9751 1741.00
63.0403 1935.00
63.1055 2069.00
63.1707 1776.00
63.2359 1625.00
63.3011 1469.00
63.3663 1335.00
63.4315 1272.00
63.4967 1201.00
63.5619 1143.00
63.6271 1159.00
63.6923 1089.00
63.7575 1126.00
63.8227 1131.00
63.8879 1158.00
63.9531 1051.00
64.0183 1116.00
64.0835 1130.00
64.1487 1241.00
64.2139 1234.00
64.2791 1197.00
64.3443 1275.00
64.4095 1341.00
64.4747 1358.00
64.5399 1421.00
64.6051 1315.00
64.6703 1316.00
64.7355 1190.00
64.8007 1218.00
64.8659 1218.00
64.9311 1148.00
64.9963 1267.00
65.0615 1312.00
65.1267 1383.00
65.1919 1306.00
65.2571 1314.00
65.3223 1286.00
65.3875 1300.00
65.4527 1255.00
65.5179 1234.00
65.5831 1305.00
65.6483 1416.00
65.7135 1385.00
65.7787 1502.00
65.8439 1590.00
65.9091 1762.00
65.9743 1733.00
66.0395 1565.00
66.1047 1570.00
66.1699 1430.00
66.2351 1290.00
66.3003 1243.00
66.3655 1256.00
66.4307 1156.00
66.4959 1207.00
66.561 1108.00
66.6263 1136.00
66.6915 1180.00
66.7566 1153.00
66.8218 1107.00
66.887 1108.00
66.9522 1039.00
67.0174 1122.00
67.0826 1095.00
67.1478 1076.00
67.213 1176.00
67.2782 1091.00
67.3434 1121.00
67.4086 1075.00
67.4738 1057.00
67.539 1092.00
67.6042 1092.00
67.6694 1072.00
67.7346 1091.00
67.7998 1036.00
67.865 1045.00
67.9302 1156.00
67.9954 1040.00
68.0606 997.00
68.1258 1070.00
68.191 1011.00
68.2562 1040.00
68.3214 1099.00
68.3866 1029.00
68.4518 1007.00
68.517 1039.00
68.5822 1048.00
68.6474 1059.00
68.7126 1001.00
68.7778 996.00
68.843 1026.00
68.9082 1047.00
68.9734 1047.00
69.0386 1137.00
69.1038 1144.00
69.169 1179.00
69.2342 1116.00
69.2994 1090.00
69.3646 1104.00
69.4298 1084.00
69.495 1143.00
69.5602 995.00
69.6254 1054.00
69.6906 1046.00
69.7558 1095.00
69.821 1104.00
69.8862 1112.00
69.9514 1107.00
70.0166 1007.00
70.0818 1112.00
70.147 1092.00
70.2122 1011.00
70.2774 980.00
70.3426 1033.00
70.4078 1020.00
70.473 998.00
70.5382 1027.00
70.6034 1015.00
70.6686 1007.00
70.7338 978.00
70.799 1034.00
70.8642 997.00
70.9294 971.00
70.9946 1082.00
71.0598 1055.00
71.125 1146.00
71.1902 1259.00
71.2554 1308.00
71.3205 1422.00
71.3858 1532.00
71.451 1617.00
71.5162 1643.00
71.5813 1556.00
71.6465 1440.00
71.7117 1314.00
71.7769 1257.00
71.8421 1153.00
71.9073 1150.00
71.9725 1168.00
72.0377 1236.00
72.1029 1196.00
72.1681 1207.00
72.2333 1148.00
72.2985 1216.00
72.3637 1251.00
72.4289 1202.00
72.4941 1114.00
72.5593 1083.00
72.6245 1081.00
72.6897 1087.00
72.7549 1147.00
72.8201 1151.00
72.8853 1071.00
72.9505 1071.00
73.0157 1071.00
73.0809 1074.00
73.1461 1033.00
73.2113 1017.00
73.2765 996.00
73.3417 1017.00
73.4069 1004.00
73.4721 915.00
73.5373 955.00
73.6025 974.00
73.6677 1009.00
73.7329 1008.00
73.7981 937.00
73.8633 980.00
73.9285 911.00
73.9937 927.00
74.0589 951.00
74.1241 905.00
74.1893 919.00
74.2545 881.00
74.3197 949.00
74.3849 916.00
74.4501 910.00
74.5153 945.00
74.5805 890.00
74.6457 939.00
74.7109 994.00
74.7761 1050.00
74.8413 1080.00
74.9065 1203.00
74.9717 1192.00
75.0369 1172.00
75.1021 1229.00
75.1673 1228.00
75.2325 1308.00
75.2977 1283.00
75.3629 1281.00
75.4281 1187.00
75.4933 1078.00
75.5585 1082.00
75.6237 1083.00
75.6889 1051.00
75.7541 1013.00
75.8193 987.00
75.8845 953.00
75.9497 975.00
76.0149 997.00
76.0801 979.00
76.1452 961.00
76.2104 953.00
76.2756 953.00
76.3409 1020.00
76.406 1003.00
76.4712 1016.00
76.5364 1032.00
76.6016 1104.00
76.6668 1154.00
76.732 1117.00
76.7972 1082.00
76.8624 1127.00
76.9276 1088.00
76.9928 1104.00
77.058 1053.00
77.1232 960.00
77.1884 970.00
77.2536 1000.00
77.3188 1023.00
77.384 1008.00
77.4492 1086.00
77.5144 1063.00
77.5796 1082.00
77.6448 1025.00
77.71 1079.00
77.7752 1002.00
77.8404 1014.00
77.9056 952.00
77.9708 959.00
78.036 940.00
78.1012 1044.00
78.1664 989.00
78.2316 989.00
78.2968 994.00
78.362 965.00
78.4272 980.00
78.4924 960.00
78.5576 948.00
78.6228 953.00
78.688 966.00
78.7532 943.00
78.8184 1013.00
78.8836 1074.00
78.9488 1082.00
79.014 1045.00
79.0792 1160.00
79.1444 1099.00
79.2096 1042.00
79.2748 1027.00
79.34 1086.00
79.4052 1013.00
79.4704 920.00
79.5356 959.00
79.6008 968.00
79.666 928.00
79.7312 907.00
79.7964 971.00
79.8616 964.00
79.9268 993.00
79.992 985.00
80.0572 981.00
80.1224 1072.00
80.1876 1004.00
80.2528 1019.00
80.318 954.00
80.3832 1054.00
80.4484 1016.00
80.5136 1027.00
80.5788 976.00
80.644 1036.00
80.7092 1005.00
80.7744 1008.00
80.8396 998.00
80.9048 945.00
80.9699 958.00
81.0351 907.00
81.1003 925.00
81.1655 947.00
81.2307 953.00
81.2959 922.00
81.3611 955.00
81.4263 1026.00
81.4915 994.00
81.5567 1031.00
81.6219 1135.00
81.6871 1067.00
81.7523 1118.00
81.8175 1154.00
81.8827 1187.00
81.9479 1122.00
82.0131 1094.00
82.0783 1100.00
82.1435 1015.00
82.2087 1035.00
82.2739 1008.00
82.3391 1055.00
82.4043 1096.00
82.4695 1033.00
82.5347 1031.00
82.5999 1026.00
82.6651 1072.00
82.7303 1132.00
82.7955 1088.00
82.8607 1154.00
82.9259 1079.00
82.9911 1011.00
83.0563 1009.00
83.1215 1066.00
83.1867 1083.00
83.2519 1039.00
83.3171 1181.00
83.3823 1088.00
83.4475 1150.00
83.5127 1128.00
83.5779 1077.00
83.6431 1096.00
83.7083 983.00
83.7735 1022.00
83.8387 1049.00
83.9039 951.00
83.9691 1040.00
84.0343 1038.00
84.0995 1117.00
84.1647 1040.00
84.2299 1087.00
84.2951 1098.00
84.3603 1135.00
84.4255 1103.00
84.4907 1109.00
84.5559 1021.00
84.6211 950.00
84.6863 953.00
84.7515 1004.00
84.8167 918.00
84.8819 964.00
84.9471 990.00
85.0123 1003.00
85.0775 1052.00
85.1427 1068.00
85.2079 1054.00
85.2731 994.00
85.3383 996.00
85.4035 1017.00
85.4687 950.00
85.5339 948.00
85.5991 865.00
85.6643 910.00
85.7295 910.00
85.7946 933.00
85.8598 956.00
85.925 922.00
85.9903 897.00
86.0554 951.00
86.1206 978.00
86.1858 1032.00
86.251 1060.00
86.3162 1050.00
86.3814 1049.00
86.4466 967.00
86.5118 996.00
86.577 1036.00
86.6422 1060.00
86.7074 991.00
86.7726 934.00
86.8378 912.00
86.903 1025.00
86.9682 939.00
87.0334 983.00
87.0986 909.00
87.1638 861.00
87.229 938.00
87.2942 926.00
87.3594 988.00
87.4246 1038.00
87.4898 1020.00
87.555 1144.00
87.6202 1160.00
87.6854 1078.00
87.7506 1060.00
87.8158 1038.00
87.881 1038.00
87.9462 1029.00
88.0114 976.00
88.0766 952.00
88.1418 949.00
88.207 977.00
88.2722 1039.00
88.3374 1084.00
88.4026 1170.00
88.4678 1091.00
88.533 1167.00
88.5982 1251.00
88.6634 1202.00
88.7286 1220.00
88.7938 1148.00
88.859 1082.00
88.9242 990.00
88.9894 1025.00
89.0546 1010.00
89.1198 929.00
89.185 937.00
89.2502 929.00
89.3154 921.00
89.3806 944.00
89.4458 889.00
89.511 1009.00
89.5762 1049.00
89.6414 929.00
89.7066 1032.00
89.7718 1065.00
89.837 1057.00
89.9022 1142.00
89.9674 1156.00
90.0326 1182.00
90.0978 1139.00
90.163 1140.00
90.2282 1131.00
90.2934 1070.00
90.3586 1052.00
90.4238 1072.00
90.489 973.00
90.5542 905.00
90.6193 942.00
90.6845 904.00
90.7497 981.00
90.8149 957.00
90.8801 943.00
90.9453 956.00
91.0105 956.00
91.0757 950.00
91.1409 928.00
91.2061 922.00
91.2713 971.00
91.3365 949.00
91.4017 1028.00
91.4669 941.00
91.5321 1021.00
91.5973 952.00
91.6625 937.00
91.7277 999.00
91.7929 932.00
91.8581 903.00
91.9233 917.00
91.9885 880.00
92.0537 923.00
92.1189 939.00
92.1841 861.00
92.2493 921.00
92.3145 880.00
92.3797 895.00
92.4449 883.00
92.5101 847.00
92.5753 882.00
92.6405 895.00
92.7057 842.00
92.7709 817.00
92.8361 870.00
92.9013 854.00
92.9665 901.00
93.0317 878.00
93.0969 956.00
93.1621 924.00
93.2273 896.00
93.2925 874.00
93.3577 855.00
93.4229 879.00
93.4881 832.00
93.5533 897.00
93.6185 939.00
93.6837 882.00
93.7489 944.00
93.8141 949.00
93.8793 948.00
93.9445 953.00
94.0097 947.00
94.0749 945.00
94.1401 1009.00
94.2053 962.00
94.2705 992.00
94.3357 927.00
94.4009 887.00
94.4661 882.00
94.5313 930.00
94.5965 888.00
94.6617 896.00
94.7269 850.00
94.7921 933.00
94.8573 981.00
94.9225 942.00
94.9877 1016.00
95.0529 1072.00
95.1181 1033.00
95.1833 1030.00
95.2485 1029.00
95.3137 1065.00
95.3789 1064.00
95.444 1052.00
95.5092 956.00
95.5744 952.00
95.6396 1017.00
95.7048 979.00
95.77 939.00
95.8352 884.00
95.9004 931.00
95.9656 880.00
96.0308 921.00
96.096 976.00
96.1612 989.00
96.2264 958.00
96.2916 1079.00
96.3568 1118.00
96.422 1075.00
96.4872 1069.00
96.5524 1071.00
96.6176 1108.00
96.6828 1189.00
96.748 1121.00
96.8132 1141.00
96.8784 1038.00
96.9436 1121.00
97.0088 1104.00
97.074 1099.00
97.1392 1086.00
97.2044 1138.00
97.2696 1087.00
97.3348 962.00
97.4 1073.00
97.4652 955.00
97.5304 894.00
97.5956 935.00
97.6608 929.00
97.726 896.00
97.7912 861.00
97.8564 902.00
97.9216 911.00
97.9868 952.00
98.052 910.00
98.1172 957.00
98.1824 987.00
98.2476 1001.00
98.3128 936.00
98.378 907.00
98.4432 956.00
98.5084 971.00
98.5736 904.00
98.6388 966.00
98.704 938.00
98.7692 966.00
98.8344 965.00
98.8996 963.00
98.9648 973.00
99.03 1026.00
99.0952 998.00
99.1604 910.00
99.2256 992.00
99.2908 937.00
99.356 1005.00
99.4212 1033.00
99.4864 1102.00
99.5516 1115.00
99.6168 1226.00
99.682 1094.00
99.7472 1133.00
99.8124 1067.00
99.8776 1054.00
99.9428 1089.00
100.008 1040.00
100.073 963.00
100.095 936.00