File: data/xrd_creation/results/Na_273.xy
9.903433 4051.00
9.968632 4004.00
10.0338 3857.00
10.099 3989.00
10.1642 4035.00
10.2294 4016.00
10.2946 3960.00
10.3598 3945.00
10.425 3996.00
10.4902 4020.00
10.5554 3995.00
10.6206 3901.00
10.6858 3932.00
10.751 3999.00
10.8162 3894.00
10.8814 3871.00
10.9466 3861.00
11.0118 3693.00
11.077 3818.00
11.1422 3911.00
11.2074 3750.00
11.2726 3877.00
11.3378 3825.00
11.403 3703.00
11.4682 3883.00
11.5334 3720.00
11.5986 3833.00
11.6638 3735.00
11.729 3768.00
11.7942 3770.00
11.8594 3872.00
11.9246 3815.00
11.9898 3591.00
12.055 3701.00
12.1202 3724.00
12.1854 3708.00
12.2506 3749.00
12.3158 3775.00
12.381 3784.00
12.4462 3816.00
12.5114 3802.00
12.5766 3731.00
12.6418 3845.00
12.707 3890.00
12.7722 3947.00
12.8374 3949.00
12.9026 4061.00
12.9678 4326.00
13.033 4607.00
13.0982 4614.00
13.1634 4102.00
13.2286 3857.00
13.2938 3984.00
13.359 4035.00
13.4242 4087.00
13.4894 3903.00
13.5546 3822.00
13.6198 3725.00
13.685 3683.00
13.7502 3659.00
13.8154 3603.00
13.8805 3585.00
13.9457 3717.00
14.0109 3711.00
14.0761 3764.00
14.1413 3645.00
14.2065 3747.00
14.2717 3716.00
14.3369 3743.00
14.4021 3675.00
14.4673 3746.00
14.5325 3771.00
14.5977 3744.00
14.6629 3702.00
14.7281 3821.00
14.7933 3722.00
14.8585 3810.00
14.9237 3774.00
14.9889 3769.00
15.0541 3825.00
15.1193 3798.00
15.1845 3719.00
15.2497 3718.00
15.3149 3714.00
15.3801 3816.00
15.4453 3792.00
15.5105 3747.00
15.5757 3610.00
15.6409 3702.00
15.7061 3814.00
15.7713 3801.00
15.8365 3814.00
15.9017 3785.00
15.9669 3748.00
16.0321 3758.00
16.0973 3731.00
16.1625 3671.00
16.2277 3780.00
16.2929 3694.00
16.3581 3770.00
16.4233 3756.00
16.4885 3786.00
16.5537 3854.00
16.6189 3656.00
16.6841 3846.00
16.7493 3686.00
16.8145 3804.00
16.8797 3836.00
16.9449 3787.00
17.0101 3812.00
17.0753 3825.00
17.1405 3836.00
17.2057 3805.00
17.2709 3783.00
17.3361 3834.00
17.4013 3901.00
17.4665 3773.00
17.5317 3792.00
17.5969 3749.00
17.6621 3810.00
17.7273 3769.00
17.7925 3791.00
17.8577 3866.00
17.9229 3887.00
17.9881 3839.00
18.0533 3806.00
18.1185 3859.00
18.1837 3853.00
18.2489 3815.00
18.3141 3736.00
18.3793 3696.00
18.4445 3832.00
18.5097 3902.00
18.5749 3666.00
18.6401 3847.00
18.7052 3939.00
18.7704 3752.00
18.8356 3742.00
18.9008 3800.00
18.966 3700.00
19.0312 3787.00
19.0964 3743.00
19.1616 3875.00
19.2268 3707.00
19.292 3793.00
19.3572 3780.00
19.4224 3711.00
19.4876 3750.00
19.5528 3705.00
19.618 3789.00
19.6832 3888.00
19.7484 3827.00
19.8136 3758.00
19.8788 3913.00
19.944 3742.00
20.0092 3758.00
20.0744 3811.00
20.1396 3856.00
20.2048 3873.00
20.27 3962.00
20.3352 3952.00
20.4004 4005.00
20.4656 4046.00
20.5308 3823.00
20.596 3964.00
20.6612 3869.00
20.7264 4146.00
20.7916 4362.00
20.8568 4806.00
20.922 5936.00
20.9872 7627.00
21.0524 10615.00
21.1176 10769.00
21.1828 5956.00
21.248 4181.00
21.3132 3935.00
21.3784 3877.00
21.4436 3956.00
21.5088 3963.00
21.574 4025.00
21.6392 4085.00
21.7044 3981.00
21.7696 3998.00
21.8348 3957.00
21.9 3857.00
21.9652 3959.00
22.0304 3802.00
22.0956 3898.00
22.1608 3866.00
22.226 3865.00
22.2912 3854.00
22.3564 3861.00
22.4216 3784.00
22.4868 3802.00
22.552 3829.00
22.6172 3847.00
22.6824 3843.00
22.7476 3741.00
22.8128 3820.00
22.878 3771.00
22.9432 3783.00
23.0084 3815.00
23.0736 3788.00
23.1388 3802.00
23.204 3881.00
23.2692 3836.00
23.3344 3865.00
23.3996 3814.00
23.4647 3843.00
23.5299 3936.00
23.5951 4004.00
23.6603 4276.00
23.7255 4576.00
23.7907 4413.00
23.8559 4426.00
23.9211 4651.00
23.9863 5149.00
24.0515 5813.00
24.1167 5492.00
24.1819 4706.00
24.2471 4259.00
24.3123 4634.00
24.3775 4770.00
24.4427 4832.00
24.5079 4549.00
24.5731 4149.00
24.6383 4038.00
24.7035 3878.00
24.7687 3863.00
24.8339 3740.00
24.8991 3849.00
24.9643 3796.00
25.0295 3852.00
25.0947 3848.00
25.1599 3745.00
25.2251 3797.00
25.2903 3806.00
25.3555 3818.00
25.4207 3830.00
25.4859 3856.00
25.5511 3705.00
25.6163 3758.00
25.6815 3690.00
25.7467 3855.00
25.8119 3739.00
25.8771 3934.00
25.9423 3865.00
26.0075 3869.00
26.0727 3751.00
26.1379 3803.00
26.2031 3722.00
26.2683 3767.00
26.3335 3668.00
26.3987 3819.00
26.4639 3784.00
26.5291 3634.00
26.5943 3668.00
26.6595 3690.00
26.7247 3724.00
26.7899 3701.00
26.8551 3696.00
26.9203 3689.00
26.9855 3579.00
27.0507 3681.00
27.1159 3759.00
27.1811 3686.00
27.2463 3753.00
27.3115 3676.00
27.3767 3640.00
27.4419 3827.00
27.5071 3718.00
27.5723 3656.00
27.6375 3690.00
27.7027 3721.00
27.7679 3737.00
27.8331 3700.00
27.8983 3830.00
27.9635 3705.00
28.0287 3803.00
28.0939 3702.00
28.1591 3849.00
28.2243 3683.00
28.2894 3701.00
28.3546 3836.00
28.4198 3913.00
28.485 3822.00
28.5502 3688.00
28.6154 3689.00
28.6806 3772.00
28.7458 3645.00
28.811 3740.00
28.8762 3693.00
28.9414 3649.00
29.0066 3793.00
29.0718 3684.00
29.137 3687.00
29.2022 3675.00
29.2674 3706.00
29.3326 3650.00
29.3978 3747.00
29.463 3724.00
29.5282 3815.00
29.5934 3878.00
29.6586 3866.00
29.7238 3846.00
29.789 3951.00
29.8542 3768.00
29.9194 3677.00
29.9846 3740.00
30.0498 3719.00
30.115 3629.00
30.1802 3695.00
30.2454 3639.00
30.3106 3737.00
30.3758 3714.00
30.441 3577.00
30.5062 3665.00
30.5714 3742.00
30.6366 3665.00
30.7018 3650.00
30.767 3601.00
30.8322 3720.00
30.8974 3722.00
30.9626 3760.00
31.0278 3786.00
31.093 3852.00
31.1582 3827.00
31.2234 3684.00
31.2886 3587.00
31.3538 3811.00
31.419 3747.00
31.4842 3811.00
31.5494 3864.00
31.6146 3845.00
31.6798 3900.00
31.745 3913.00
31.8102 3769.00
31.8754 4248.00
31.9406 4564.00
32.0058 4699.00
32.071 4410.00
32.1362 3920.00
32.2014 3884.00
32.2666 4000.00
32.3318 4184.00
32.397 4332.00
32.4622 4182.00
32.5274 4037.00
32.5926 3907.00
32.6578 3785.00
32.723 3665.00
32.7882 3942.00
32.8534 4280.00
32.9186 5119.00
32.9838 5286.00
33.0489 4721.00
33.1141 4515.00
33.1793 4535.00
33.2445 4680.00
33.3097 4794.00
33.3749 5589.00
33.4401 6691.00
33.5053 6057.00
33.5705 4987.00
33.6357 4121.00
33.7009 3888.00
33.7661 3788.00
33.8313 3881.00
33.8965 3817.00
33.9617 3708.00
34.0269 3805.00
34.0921 3961.00
34.1573 4010.00
34.2225 4129.00
34.2877 4471.00
34.3529 5165.00
34.4181 7231.00
34.4833 11877.00
34.5485 16970.00
34.6137 12639.00
34.6789 8132.00
34.7441 5360.00
34.8093 5587.00
34.8745 6284.00
34.9397 5494.00
35.0049 4513.00
35.0701 4061.00
35.1353 4081.00
35.2005 4038.00
35.2657 4211.00
35.3309 4511.00
35.3961 4173.00
35.4613 3898.00
35.5265 3766.00
35.5917 3915.00
35.6569 4000.00
35.7221 4091.00
35.7873 4325.00
35.8525 5208.00
35.9177 6241.00
35.9829 5710.00
36.0481 4837.00
36.1133 4078.00
36.1785 3864.00
36.2437 3781.00
36.3089 3692.00
36.3741 3756.00
36.4393 3767.00
36.5045 3586.00
36.5697 3676.00
36.6349 3693.00
36.7001 3752.00
36.7653 3686.00
36.8305 3547.00
36.8957 3647.00
36.9609 3603.00
37.0261 3614.00
37.0913 3800.00
37.1565 3627.00
37.2217 3587.00
37.2869 3620.00
37.3521 3664.00
37.4173 3640.00
37.4825 3765.00
37.5477 3737.00
37.6129 3688.00
37.6781 3677.00
37.7433 3650.00
37.8085 3713.00
37.8736 3620.00
37.9388 3693.00
38.004 3666.00
38.0692 3647.00
38.1344 3641.00
38.1996 3771.00
38.2648 3815.00
38.33 3944.00
38.3952 4244.00
38.4604 4121.00
38.5256 3972.00
38.5908 3679.00
38.656 3667.00
38.7212 3562.00
38.7864 3621.00
38.8516 3740.00
38.9168 3642.00
38.982 3493.00
39.0472 3670.00
39.1124 3623.00
39.1776 3703.00
39.2428 3780.00
39.308 3685.00
39.3732 3595.00
39.4384 3640.00
39.5036 3712.00
39.5688 3664.00
39.634 3719.00
39.6992 3608.00
39.7644 3710.00
39.8296 3779.00
39.8948 3620.00
39.96 3706.00
40.0252 3748.00
40.0904 3737.00
40.1556 3645.00
40.2208 3657.00
40.286 3648.00
40.3512 3632.00
40.4164 3761.00
40.4816 3665.00
40.5468 3692.00
40.612 3679.00
40.6772 3692.00
40.7424 3773.00
40.8076 3634.00
40.8728 3721.00
40.938 3791.00
41.0032 3804.00
41.0684 4000.00
41.1336 4387.00
41.1988 4163.00
41.264 3984.00
41.3292 3818.00
41.3944 3767.00
41.4596 3797.00
41.5248 3747.00
41.59 3666.00
41.6552 3904.00
41.7204 3845.00
41.7856 3823.00
41.8508 3747.00
41.916 3936.00
41.9812 3812.00
42.0464 3821.00
42.1116 3740.00
42.1768 3756.00
42.242 3756.00
42.3072 3769.00
42.3724 3757.00
42.4376 3750.00
42.5028 4049.00
42.568 4097.00
42.6332 4107.00
42.6983 3924.00
42.7635 3774.00
42.8287 3778.00
42.8939 3759.00
42.9591 3678.00
43.0243 3620.00
43.0895 3606.00
43.1547 3694.00
43.2199 3780.00
43.2851 3830.00
43.3503 3631.00
43.4155 3748.00
43.4807 3589.00
43.5459 3639.00
43.6111 3660.00
43.6763 3608.00
43.7415 3563.00
43.8067 3778.00
43.8719 3597.00
43.9371 3612.00
44.0023 3592.00
44.0675 3693.00
44.1327 3509.00
44.1979 3672.00
44.2631 3644.00
44.3283 3761.00
44.3935 3609.00
44.4587 3644.00
44.5239 3589.00
44.5891 3626.00
44.6543 3723.00
44.7195 3744.00
44.7847 3501.00
44.8499 3607.00
44.9151 3516.00
44.9803 3597.00
45.0455 3694.00
45.1107 3567.00
45.1759 3439.00
45.2411 3457.00
45.3063 3548.00
45.3715 3583.00
45.4367 3586.00
45.5019 3455.00
45.5671 3488.00
45.6323 3694.00
45.6975 3651.00
45.7627 3667.00
45.8279 3643.00
45.8931 3567.00
45.9583 3472.00
46.0235 3636.00
46.0887 3686.00
46.1539 3765.00
46.2191 3680.00
46.2843 3717.00
46.3495 3582.00
46.4147 3511.00
46.4799 3585.00
46.5451 3567.00
46.6103 3564.00
46.6755 3561.00
46.7407 3554.00
46.8059 3525.00
46.8711 3524.00
46.9363 3575.00
47.0015 3534.00
47.0667 3737.00
47.1319 3595.00
47.1971 3541.00
47.2623 3583.00
47.3275 3638.00
47.3927 3500.00
47.4579 3582.00
47.523 3694.00
47.5882 3531.00
47.6534 3785.00
47.7186 3621.00
47.7838 3668.00
47.849 3578.00
47.9142 3727.00
47.9794 3582.00
48.0446 3625.00
48.1098 3777.00
48.175 3957.00
48.2402 3951.00
48.3054 3818.00
48.3706 3768.00
48.4358 3731.00
48.501 3694.00
48.5662 3624.00
48.6314 3698.00
48.6966 3862.00
48.7618 4099.00
48.827 3940.00
48.8922 4212.00
48.9574 4279.00
49.0226 4135.00
49.0878 3913.00
49.153 3788.00
49.2182 3803.00
49.2834 3822.00
49.3486 4014.00
49.4138 4697.00
49.479 5688.00
49.5442 5648.00
49.6094 5345.00
49.6746 5220.00
49.7398 4865.00
49.805 4509.00
49.8702 4342.00
49.9354 3835.00
50.0006 3674.00
50.0658 3670.00
50.131 3559.00
50.1962 3712.00
50.2614 3453.00
50.3266 3567.00
50.3918 3487.00
50.457 3600.00
50.5222 3627.00
50.5874 3516.00
50.6526 3602.00
50.7178 3551.00
50.783 3553.00
50.8482 3541.00
50.9134 3488.00
50.9786 3559.00
51.0438 3581.00
51.109 3530.00
51.1742 3641.00
51.2394 3540.00
51.3046 3500.00
51.3698 3606.00
51.435 3462.00
51.5002 3494.00
51.5654 3503.00
51.6306 3541.00
51.6958 3539.00
51.761 3577.00
51.8262 3552.00
51.8914 3541.00
51.9566 3498.00
52.0218 3539.00
52.087 3579.00
52.1522 3568.00
52.2174 3518.00
52.2826 3611.00
52.3477 3509.00
52.4129 3492.00
52.4781 3586.00
52.5433 3526.00
52.6085 3613.00
52.6737 3550.00
52.7389 3635.00
52.8041 3592.00
52.8693 3535.00
52.9345 3590.00
52.9997 3697.00
53.0649 3848.00
53.1301 3797.00
53.1953 3739.00
53.2605 3577.00
53.3257 3648.00
53.3909 3557.00
53.4561 3500.00
53.5213 3594.00
53.5865 3588.00
53.6517 3621.00
53.7169 3570.00
53.7821 3573.00
53.8473 3546.00
53.9125 3617.00
53.9777 3569.00
54.0429 3529.00
54.1081 3745.00
54.1733 3778.00
54.2385 4036.00
54.3037 4575.00
54.3689 4572.00
54.4341 4243.00
54.4993 4042.00
54.5645 3857.00
54.6297 3644.00
54.6949 3507.00
54.7601 3597.00
54.8253 3578.00
54.8905 3693.00
54.9557 3493.00
55.0209 3600.00
55.0861 3610.00
55.1513 3518.00
55.2165 3517.00
55.2817 3577.00
55.3469 3447.00
55.4121 3456.00
55.4773 3471.00
55.5425 3554.00
55.6077 3595.00
55.6729 3568.00
55.7381 3671.00
55.8033 3535.00
55.8685 3633.00
55.9337 3644.00
55.9989 3680.00
56.0641 3737.00
56.1293 3596.00
56.1945 3714.00
56.2597 3597.00
56.3249 3641.00
56.3901 3535.00
56.4553 3725.00
56.5205 3489.00
56.5857 3600.00
56.6509 3574.00
56.7161 3572.00
56.7813 3516.00
56.8465 3417.00
56.9117 3459.00
56.9769 3437.00
57.042 3539.00
57.1073 3531.00
57.1724 3613.00
57.2376 3422.00
57.3028 3585.00
57.368 3542.00
57.4332 3649.00
57.4984 3576.00
57.5636 3564.00
57.6288 3700.00
57.694 3823.00
57.7592 3611.00
57.8244 3743.00
57.8896 3762.00
57.9548 3749.00
58.02 3648.00
58.0852 3642.00
58.1504 3514.00
58.2156 3631.00
58.2808 3511.00
58.346 3618.00
58.4112 3570.00
58.4764 3547.00
58.5416 3627.00
58.6068 3483.00
58.672 3424.00
58.7372 3529.00
58.8024 3406.00
58.8676 3459.00
58.9328 3463.00
58.998 3651.00
59.0632 3440.00
59.1284 3508.00
59.1936 3545.00
59.2588 3583.00
59.324 3505.00
59.3892 3449.00
59.4544 3513.00
59.5196 3504.00
59.5848 3637.00
59.65 3540.00
59.7152 3487.00
59.7804 3502.00
59.8456 3579.00
59.9108 3574.00
59.976 3540.00
60.0412 3599.00
60.1064 3515.00
60.1716 3510.00
60.2368 3560.00
60.302 3501.00
60.3672 3454.00
60.4324 3457.00
60.4976 3481.00
60.5628 3481.00
60.628 3395.00
60.6932 3506.00
60.7584 3615.00
60.8236 3693.00
60.8888 3735.00
60.954 3828.00
61.0192 3820.00
61.0844 3776.00
61.1496 3767.00
61.2148 3875.00
61.28 3894.00
61.3452 3920.00
61.4104 4065.00
61.4756 4494.00
61.5408 5155.00
61.606 5570.00
61.6712 4954.00
61.7364 4706.00
61.8016 4392.00
61.8667 3936.00
61.932 3862.00
61.9971 3601.00
62.0623 3677.00
62.1275 3713.00
62.1927 3578.00
62.2579 3569.00
62.3231 3538.00
62.3883 3764.00
62.4535 3726.00
62.5187 3817.00
62.5839 4085.00
62.6491 4223.00
62.7143 4256.00
62.7795 4076.00
62.8447 4075.00
62.9099 3937.00
62.9751 3670.00
63.0403 3622.00
63.1055 3668.00
63.1707 3470.00
63.2359 3415.00
63.3011 3462.00
63.3663 3432.00
63.4315 3499.00
63.4967 3592.00
63.5619 3617.00
63.6271 3650.00
63.6923 3613.00
63.7575 3618.00
63.8227 3572.00
63.8879 3601.00
63.9531 3595.00
64.0183 3633.00
64.0835 3679.00
64.1487 3980.00
64.2139 4208.00
64.2791 4208.00
64.3443 3992.00
64.4095 3951.00
64.4747 3837.00
64.5399 3698.00
64.6051 3609.00
64.6703 3558.00
64.7355 3544.00
64.8007 3451.00
64.8659 3438.00
64.9311 3417.00
64.9963 3432.00
65.0615 3557.00
65.1267 3485.00
65.1919 3479.00
65.2571 3485.00
65.3223 3615.00
65.3875 3552.00
65.4527 3666.00
65.5179 3558.00
65.5831 3758.00
65.6483 3591.00
65.7135 3788.00
65.7787 3716.00
65.8439 3712.00
65.9091 3620.00
65.9743 3632.00
66.0395 3480.00
66.1047 3514.00
66.1699 3477.00
66.2351 3474.00
66.3003 3476.00
66.3655 3370.00
66.4307 3456.00
66.4959 3617.00
66.561 3495.00
66.6263 3427.00
66.6915 3446.00
66.7566 3465.00
66.8218 3436.00
66.887 3528.00
66.9522 3425.00
67.0174 3416.00
67.0826 3496.00
67.1478 3391.00
67.213 3495.00
67.2782 3424.00
67.3434 3510.00
67.4086 3369.00
67.4738 3495.00
67.539 3385.00
67.6042 3518.00
67.6694 3426.00
67.7346 3479.00
67.7998 3505.00
67.865 3479.00
67.9302 3482.00
67.9954 3411.00
68.0606 3453.00
68.1258 3377.00
68.191 3397.00
68.2562 3373.00
68.3214 3348.00
68.3866 3456.00
68.4518 3430.00
68.517 3378.00
68.5822 3341.00
68.6474 3362.00
68.7126 3451.00
68.7778 3461.00
68.843 3485.00
68.9082 3426.00
68.9734 3430.00
69.0386 3604.00
69.1038 3523.00
69.169 3455.00
69.2342 3590.00
69.2994 3509.00
69.3646 3515.00
69.4298 3353.00
69.495 3432.00
69.5602 3417.00
69.6254 3501.00
69.6906 3475.00
69.7558 3440.00
69.821 3512.00
69.8862 3459.00
69.9514 3535.00
70.0166 3500.00
70.0818 3335.00
70.147 3515.00
70.2122 3456.00
70.2774 3395.00
70.3426 3404.00
70.4078 3492.00
70.473 3479.00
70.5382 3434.00
70.6034 3405.00
70.6686 3340.00
70.7338 3448.00
70.799 3373.00
70.8642 3405.00
70.9294 3377.00
70.9946 3414.00
71.0598 3483.00
71.125 3322.00
71.1902 3373.00
71.2554 3380.00
71.3205 3432.00
71.3858 3384.00
71.451 3503.00
71.5162 3350.00
71.5813 3424.00
71.6465 3515.00
71.7117 3509.00
71.7769 3455.00
71.8421 3530.00
71.9073 3490.00
71.9725 3522.00
72.0377 3430.00
72.1029 3571.00
72.1681 3806.00
72.2333 3664.00
72.2985 3804.00
72.3637 4113.00
72.4289 3923.00
72.4941 3824.00
72.5593 3653.00
72.6245 3817.00
72.6897 3757.00
72.7549 3412.00
72.8201 3433.00
72.8853 3467.00
72.9505 3557.00
73.0157 3428.00
73.0809 3409.00
73.1461 3569.00
73.2113 3580.00
73.2765 3536.00
73.3417 3468.00
73.4069 3550.00
73.4721 3464.00
73.5373 3493.00
73.6025 3341.00
73.6677 3415.00
73.7329 3394.00
73.7981 3428.00
73.8633 3469.00
73.9285 3428.00
73.9937 3356.00
74.0589 3418.00
74.1241 3505.00
74.1893 3475.00
74.2545 3505.00
74.3197 3398.00
74.3849 3503.00
74.4501 3532.00
74.5153 3330.00
74.5805 3366.00
74.6457 3490.00
74.7109 3476.00
74.7761 3457.00
74.8413 3391.00
74.9065 3480.00
74.9717 3539.00
75.0369 3446.00
75.1021 3359.00
75.1673 3451.00
75.2325 3464.00
75.2977 3391.00
75.3629 3479.00
75.4281 3402.00
75.4933 3457.00
75.5585 3490.00
75.6237 3589.00
75.6889 3597.00
75.7541 3611.00
75.8193 3487.00
75.8845 3607.00
75.9497 3563.00
76.0149 3445.00
76.0801 3499.00
76.1452 3480.00
76.2104 3502.00
76.2756 3593.00
76.3409 3528.00
76.406 3558.00
76.4712 3517.00
76.5364 3484.00
76.6016 3464.00
76.6668 3503.00
76.732 3360.00
76.7972 3366.00
76.8624 3391.00
76.9276 3366.00
76.9928 3398.00
77.058 3507.00
77.1232 3434.00
77.1884 3440.00
77.2536 3411.00
77.3188 3418.00
77.384 3331.00
77.4492 3485.00
77.5144 3409.00
77.5796 3339.00
77.6448 3367.00
77.71 3407.00
77.7752 3460.00
77.8404 3438.00
77.9056 3435.00
77.9708 3402.00
78.036 3450.00
78.1012 3418.00
78.1664 3409.00
78.2316 3370.00
78.2968 3346.00
78.362 3407.00
78.4272 3433.00
78.4924 3306.00
78.5576 3492.00
78.6228 3477.00
78.688 3394.00
78.7532 3391.00
78.8184 3460.00
78.8836 3470.00
78.9488 3469.00
79.014 3492.00
79.0792 3588.00
79.1444 3392.00
79.2096 3450.00
79.2748 3334.00
79.34 3420.00
79.4052 3420.00
79.4704 3523.00
79.5356 3353.00
79.6008 3373.00
79.666 3467.00
79.7312 3400.00
79.7964 3355.00
79.8616 3425.00
79.9268 3421.00
79.992 3362.00
80.0572 3421.00
80.1224 3443.00
80.1876 3385.00
80.2528 3566.00
80.318 3507.00
80.3832 3297.00
80.4484 3466.00
80.5136 3427.00
80.5788 3379.00
80.644 3453.00
80.7092 3449.00
80.7744 3532.00
80.8396 3466.00
80.9048 3498.00
80.9699 3472.00
81.0351 3493.00
81.1003 3504.00
81.1655 3411.00
81.2307 3471.00
81.2959 3471.00
81.3611 3469.00
81.4263 3419.00
81.4915 3345.00
81.5567 3338.00
81.6219 3343.00
81.6871 3331.00
81.7523 3450.00
81.8175 3524.00
81.8827 3411.00
81.9479 3443.00
82.0131 3415.00
82.0783 3585.00
82.1435 3268.00
82.2087 3448.00
82.2739 3385.00
82.3391 3497.00
82.4043 3567.00
82.4695 3597.00
82.5347 3694.00
82.5999 3740.00
82.6651 3750.00
82.7303 3700.00
82.7955 3699.00
82.8607 3591.00
82.9259 3686.00
82.9911 3459.00
83.0563 3501.00
83.1215 3509.00
83.1867 3510.00
83.2519 3438.00
83.3171 3568.00
83.3823 3435.00
83.4475 3514.00
83.5127 3446.00
83.5779 3322.00
83.6431 3375.00
83.7083 3486.00
83.7735 3460.00
83.8387 3398.00
83.9039 3532.00
83.9691 3367.00
84.0343 3437.00
84.0995 3401.00
84.1647 3373.00
84.2299 3529.00
84.2951 3408.00
84.3603 3539.00
84.4255 3331.00
84.4907 3398.00
84.5559 3419.00
84.6211 3410.00
84.6863 3418.00
84.7515 3368.00
84.8167 3440.00
84.8819 3534.00
84.9471 3372.00
85.0123 3614.00
85.0775 3624.00
85.1427 3623.00
85.2079 3542.00
85.2731 3420.00
85.3383 3453.00
85.4035 3503.00
85.4687 3441.00
85.5339 3348.00
85.5991 3401.00
85.6643 3480.00
85.7295 3330.00
85.7946 3423.00
85.8598 3317.00
85.925 3343.00
85.9903 3413.00
86.0554 3338.00
86.1206 3457.00
86.1858 3396.00
86.251 3422.00
86.3162 3412.00
86.3814 3577.00
86.4466 3342.00
86.5118 3476.00
86.577 3468.00
86.6422 3349.00
86.7074 3418.00
86.7726 3304.00
86.8378 3440.00
86.903 3392.00
86.9682 3365.00
87.0334 3499.00
87.0986 3460.00
87.1638 3447.00
87.229 3453.00
87.2942 3430.00
87.3594 3359.00
87.4246 3398.00
87.4898 3432.00
87.555 3415.00
87.6202 3339.00
87.6854 3491.00
87.7506 3517.00
87.8158 3449.00
87.881 3424.00
87.9462 3452.00
88.0114 3469.00
88.0766 3376.00
88.1418 3402.00
88.207 3310.00
88.2722 3357.00
88.3374 3419.00
88.4026 3359.00
88.4678 3466.00
88.533 3464.00
88.5982 3404.00
88.6634 3413.00
88.7286 3648.00
88.7938 3572.00
88.859 3547.00
88.9242 3505.00
88.9894 3560.00
89.0546 3434.00
89.1198 3396.00
89.185 3403.00
89.2502 3478.00
89.3154 3366.00
89.3806 3524.00
89.4458 3312.00
89.511 3363.00
89.5762 3521.00
89.6414 3390.00
89.7066 3384.00
89.7718 3415.00
89.837 3542.00
89.9022 3386.00
89.9674 3409.00
90.0326 3428.00
90.0978 3384.00
90.163 3476.00
90.2282 3408.00
90.2934 3494.00
90.3586 3423.00
90.4238 3272.00
90.489 3375.00
90.5542 3435.00
90.6193 3440.00
90.6845 3484.00
90.7497 3339.00
90.8149 3435.00
90.8801 3474.00
90.9453 3395.00
91.0105 3517.00
91.0757 3396.00
91.1409 3436.00
91.2061 3360.00
91.2713 3361.00
91.3365 3371.00
91.4017 3442.00
91.4669 3478.00
91.5321 3432.00
91.5973 3323.00
91.6625 3437.00
91.7277 3404.00
91.7929 3455.00
91.8581 3290.00
91.9233 3347.00
91.9885 3387.00
92.0537 3376.00
92.1189 3390.00
92.1841 3357.00
92.2493 3429.00
92.3145 3323.00
92.3797 3491.00
92.4449 3434.00
92.5101 3438.00
92.5753 3535.00
92.6405 3334.00
92.7057 3416.00
92.7709 3477.00
92.8361 3471.00
92.9013 3478.00
92.9665 3482.00
93.0317 3373.00
93.0969 3383.00
93.1621 3375.00
93.2273 3439.00
93.2925 3483.00
93.3577 3431.00
93.4229 3295.00
93.4881 3361.00
93.5533 3310.00
93.6185 3320.00
93.6837 3300.00
93.7489 3429.00
93.8141 3449.00
93.8793 3578.00
93.9445 3480.00
94.0097 3603.00
94.0749 3613.00
94.1401 3486.00
94.2053 3496.00
94.2705 3443.00
94.3357 3518.00
94.4009 3440.00
94.4661 3268.00
94.5313 3375.00
94.5965 3482.00
94.6617 3481.00
94.7269 3378.00
94.7921 3341.00
94.8573 3165.00
94.9225 3365.00
94.9877 3334.00
95.0529 3280.00
95.1181 3278.00
95.1833 3352.00
95.2485 3433.00
95.3137 3412.00
95.3789 3383.00
95.444 3446.00
95.5092 3366.00
95.5744 3466.00
95.6396 3387.00
95.7048 3497.00
95.77 3472.00
95.8352 3502.00
95.9004 3480.00
95.9656 3379.00
96.0308 3528.00
96.096 3590.00
96.1612 3423.00
96.2264 3402.00
96.2916 3588.00
96.3568 3465.00
96.422 3346.00
96.4872 3352.00
96.5524 3328.00
96.6176 3466.00
96.6828 3452.00
96.748 3377.00
96.8132 3508.00
96.8784 3345.00
96.9436 3340.00
97.0088 3343.00
97.074 3438.00
97.1392 3271.00
97.2044 3469.00
97.2696 3411.00
97.3348 3545.00
97.4 3463.00
97.4652 3381.00
97.5304 3399.00
97.5956 3377.00
97.6608 3386.00
97.726 3407.00
97.7912 3473.00
97.8564 3458.00
97.9216 3420.00
97.9868 3491.00
98.052 3442.00
98.1172 3445.00
98.1824 3476.00
98.2476 3406.00
98.3128 3491.00
98.378 3423.00
98.4432 3373.00
98.5084 3500.00
98.5736 3556.00
98.6388 3350.00
98.704 3399.00
98.7692 3391.00
98.8344 3356.00
98.8996 3450.00
98.9648 3471.00
99.03 3486.00
99.0952 3383.00
99.1604 3371.00
99.2256 3363.00
99.2908 3543.00
99.356 3441.00
99.4212 3324.00
99.4864 3406.00
99.5516 3481.00
99.6168 3487.00
99.682 3381.00
99.7472 3398.00
99.8124 3443.00
99.8776 3420.00
99.9428 3371.00
100.008 3362.00
100.073 3358.00
100.095 3275.00