File: data/xrd_creation/results/Na_283.xy
9.903433 3021.00
9.968632 3074.00
10.0338 3016.00
10.099 3090.00
10.1642 2961.00
10.2294 2969.00
10.2946 2918.00
10.3598 2827.00
10.425 2862.00
10.4902 2868.00
10.5554 2833.00
10.6206 2788.00
10.6858 2823.00
10.751 2737.00
10.8162 2760.00
10.8814 2715.00
10.9466 2762.00
11.0118 2622.00
11.077 2690.00
11.1422 2661.00
11.2074 2624.00
11.2726 2597.00
11.3378 2680.00
11.403 2539.00
11.4682 2605.00
11.5334 2603.00
11.5986 2600.00
11.6638 2547.00
11.729 2589.00
11.7942 2522.00
11.8594 2488.00
11.9246 2525.00
11.9898 2532.00
12.055 2468.00
12.1202 2404.00
12.1854 2415.00
12.2506 2441.00
12.3158 2328.00
12.381 2410.00
12.4462 2382.00
12.5114 2432.00
12.5766 2361.00
12.6418 2453.00
12.707 2352.00
12.7722 2486.00
12.8374 2475.00
12.9026 2475.00
12.9678 2532.00
13.033 2758.00
13.0982 2910.00
13.1634 2783.00
13.2286 2593.00
13.2938 2581.00
13.359 2577.00
13.4242 2663.00
13.4894 2636.00
13.5546 2945.00
13.6198 3153.00
13.685 3312.00
13.7502 2859.00
13.8154 2478.00
13.8805 2417.00
13.9457 2437.00
14.0109 2347.00
14.0761 2223.00
14.1413 2299.00
14.2065 2361.00
14.2717 2267.00
14.3369 2366.00
14.4021 2313.00
14.4673 2274.00
14.5325 2243.00
14.5977 2232.00
14.6629 2271.00
14.7281 2227.00
14.7933 2257.00
14.8585 2340.00
14.9237 2328.00
14.9889 2243.00
15.0541 2171.00
15.1193 2190.00
15.1845 2254.00
15.2497 2286.00
15.3149 2183.00
15.3801 2257.00
15.4453 2216.00
15.5105 2192.00
15.5757 2198.00
15.6409 2158.00
15.7061 2188.00
15.7713 2189.00
15.8365 2243.00
15.9017 2251.00
15.9669 2249.00
16.0321 2236.00
16.0973 2117.00
16.1625 2169.00
16.2277 2156.00
16.2929 2279.00
16.3581 2218.00
16.4233 2179.00
16.4885 2157.00
16.5537 2162.00
16.6189 2115.00
16.6841 2150.00
16.7493 2254.00
16.8145 2175.00
16.8797 2399.00
16.9449 2392.00
17.0101 2495.00
17.0753 2381.00
17.1405 2191.00
17.2057 1996.00
17.2709 2090.00
17.3361 2035.00
17.4013 2032.00
17.4665 2090.00
17.5317 2069.00
17.5969 2161.00
17.6621 2015.00
17.7273 2084.00
17.7925 2186.00
17.8577 2144.00
17.9229 2197.00
17.9881 2083.00
18.0533 2026.00
18.1185 2212.00
18.1837 2153.00
18.2489 1996.00
18.3141 2110.00
18.3793 2094.00
18.4445 2101.00
18.5097 1961.00
18.5749 2005.00
18.6401 2055.00
18.7052 1982.00
18.7704 2110.00
18.8356 2083.00
18.9008 2004.00
18.966 2014.00
19.0312 2097.00
19.0964 2160.00
19.1616 2135.00
19.2268 2291.00
19.292 2390.00
19.3572 2202.00
19.4224 2284.00
19.4876 2266.00
19.5528 2472.00
19.618 2945.00
19.6832 3131.00
19.7484 2834.00
19.8136 2484.00
19.8788 2338.00
19.944 2293.00
20.0092 2283.00
20.0744 2334.00
20.1396 2639.00
20.2048 3151.00
20.27 3695.00
20.3352 4913.00
20.4004 5867.00
20.4656 4326.00
20.5308 3126.00
20.596 3359.00
20.6612 3678.00
20.7264 3449.00
20.7916 2613.00
20.8568 2256.00
20.922 2238.00
20.9872 2299.00
21.0524 2305.00
21.1176 2166.00
21.1828 2065.00
21.248 2027.00
21.3132 1983.00
21.3784 1992.00
21.4436 2135.00
21.5088 2098.00
21.574 2099.00
21.6392 2104.00
21.7044 1957.00
21.7696 1946.00
21.8348 2034.00
21.9 2021.00
21.9652 1917.00
22.0304 1931.00
22.0956 1937.00
22.1608 1958.00
22.226 1969.00
22.2912 1905.00
22.3564 2040.00
22.4216 2011.00
22.4868 1997.00
22.552 2207.00
22.6172 2198.00
22.6824 2295.00
22.7476 2536.00
22.8128 2849.00
22.878 3440.00
22.9432 4372.00
23.0084 5774.00
23.0736 7571.00
23.1388 9693.00
23.204 10410.00
23.2692 7752.00
23.3344 5150.00
23.3996 4242.00
23.4647 4100.00
23.5299 4389.00
23.5951 3903.00
23.6603 3284.00
23.7255 2650.00
23.7907 2438.00
23.8559 2486.00
23.9211 2819.00
23.9863 3190.00
24.0515 3112.00
24.1167 2568.00
24.1819 2127.00
24.2471 1977.00
24.3123 1897.00
24.3775 1828.00
24.4427 1909.00
24.5079 1860.00
24.5731 1855.00
24.6383 2031.00
24.7035 1905.00
24.7687 1827.00
24.8339 1899.00
24.8991 1943.00
24.9643 1900.00
25.0295 1851.00
25.0947 1839.00
25.1599 1920.00
25.2251 1796.00
25.2903 1899.00
25.3555 1900.00
25.4207 1788.00
25.4859 1826.00
25.5511 1768.00
25.6163 1903.00
25.6815 1690.00
25.7467 1854.00
25.8119 1953.00
25.8771 1954.00
25.9423 1837.00
26.0075 1950.00
26.0727 1848.00
26.1379 1822.00
26.2031 1804.00
26.2683 1864.00
26.3335 2011.00
26.3987 1942.00
26.4639 1986.00
26.5291 2219.00
26.5943 2552.00
26.6595 3175.00
26.7247 3921.00
26.7899 3340.00
26.8551 2328.00
26.9203 2006.00
26.9855 1901.00
27.0507 2022.00
27.1159 1989.00
27.1811 1988.00
27.2463 2156.00
27.3115 2041.00
27.3767 1948.00
27.4419 1922.00
27.5071 1855.00
27.5723 1924.00
27.6375 1868.00
27.7027 2033.00
27.7679 1942.00
27.8331 1943.00
27.8983 1874.00
27.9635 1783.00
28.0287 1694.00
28.0939 1710.00
28.1591 1653.00
28.2243 1744.00
28.2894 1650.00
28.3546 1642.00
28.4198 1729.00
28.485 1738.00
28.5502 1677.00
28.6154 1501.00
28.6806 1659.00
28.7458 1707.00
28.811 1671.00
28.8762 1776.00
28.9414 1782.00
29.0066 1764.00
29.0718 1791.00
29.137 1867.00
29.2022 1826.00
29.2674 1742.00
29.3326 1665.00
29.3978 1634.00
29.463 1665.00
29.5282 1664.00
29.5934 1699.00
29.6586 1820.00
29.7238 1861.00
29.789 1779.00
29.8542 1674.00
29.9194 1625.00
29.9846 1655.00
30.0498 1686.00
30.115 1735.00
30.1802 1637.00
30.2454 1661.00
30.3106 1654.00
30.3758 1616.00
30.441 1723.00
30.5062 1679.00
30.5714 1666.00
30.6366 1654.00
30.7018 1658.00
30.767 1667.00
30.8322 1618.00
30.8974 1651.00
30.9626 1734.00
31.0278 1678.00
31.093 1754.00
31.1582 1708.00
31.2234 1649.00
31.2886 1679.00
31.3538 1762.00
31.419 1689.00
31.4842 1700.00
31.5494 1716.00
31.6146 1658.00
31.6798 1730.00
31.745 1769.00
31.8102 1804.00
31.8754 1858.00
31.9406 1776.00
32.0058 1814.00
32.071 1829.00
32.1362 2006.00
32.2014 2317.00
32.2666 2613.00
32.3318 3327.00
32.397 4360.00
32.4622 5881.00
32.5274 7142.00
32.5926 7992.00
32.6578 7809.00
32.723 7866.00
32.7882 8942.00
32.8534 10330.00
32.9186 10510.00
32.9838 9339.00
33.0489 6900.00
33.1141 4624.00
33.1793 3099.00
33.2445 2638.00
33.3097 2884.00
33.3749 3556.00
33.4401 4615.00
33.5053 4677.00
33.5705 3322.00
33.6357 2289.00
33.7009 1922.00
33.7661 1946.00
33.8313 1972.00
33.8965 2152.00
33.9617 2564.00
34.0269 3271.00
34.0921 4023.00
34.1573 4225.00
34.2225 4078.00
34.2877 4184.00
34.3529 4279.00
34.4181 3334.00
34.4833 2481.00
34.5485 2085.00
34.6137 1799.00
34.6789 1765.00
34.7441 1652.00
34.8093 1771.00
34.8745 1862.00
34.9397 1805.00
35.0049 1769.00
35.0701 1657.00
35.1353 1584.00
35.2005 1569.00
35.2657 1575.00
35.3309 1629.00
35.3961 1467.00
35.4613 1572.00
35.5265 1604.00
35.5917 1517.00
35.6569 1498.00
35.7221 1525.00
35.7873 1517.00
35.8525 1585.00
35.9177 1505.00
35.9829 1481.00
36.0481 1529.00
36.1133 1563.00
36.1785 1525.00
36.2437 1483.00
36.3089 1477.00
36.3741 1479.00
36.4393 1472.00
36.5045 1501.00
36.5697 1416.00
36.6349 1355.00
36.7001 1479.00
36.7653 1539.00
36.8305 1635.00
36.8957 1636.00
36.9609 1664.00
37.0261 1869.00
37.0913 1778.00
37.1565 1729.00
37.2217 1546.00
37.2869 1446.00
37.3521 1508.00
37.4173 1520.00
37.4825 1619.00
37.5477 1688.00
37.6129 1521.00
37.6781 1510.00
37.7433 1411.00
37.8085 1537.00
37.8736 1494.00
37.9388 1419.00
38.004 1450.00
38.0692 1402.00
38.1344 1525.00
38.1996 1452.00
38.2648 1460.00
38.33 1370.00
38.3952 1392.00
38.4604 1468.00
38.5256 1465.00
38.5908 1632.00
38.656 1745.00
38.7212 2214.00
38.7864 2388.00
38.8516 2095.00
38.9168 1862.00
38.982 1742.00
39.0472 1644.00
39.1124 1632.00
39.1776 1686.00
39.2428 1567.00
39.308 1547.00
39.3732 1408.00
39.4384 1522.00
39.5036 1537.00
39.5688 1464.00
39.634 1538.00
39.6992 1440.00
39.7644 1442.00
39.8296 1341.00
39.8948 1364.00
39.96 1344.00
40.0252 1329.00
40.0904 1460.00
40.1556 1324.00
40.2208 1419.00
40.286 1539.00
40.3512 1581.00
40.4164 1629.00
40.4816 1613.00
40.5468 1612.00
40.612 1586.00
40.6772 1561.00
40.7424 1516.00
40.8076 1439.00
40.8728 1417.00
40.938 1411.00
41.0032 1374.00
41.0684 1360.00
41.1336 1357.00
41.1988 1296.00
41.264 1301.00
41.3292 1343.00
41.3944 1250.00
41.4596 1293.00
41.5248 1349.00
41.59 1453.00
41.6552 1452.00
41.7204 1519.00
41.7856 1480.00
41.8508 1438.00
41.916 1489.00
41.9812 1450.00
42.0464 1466.00
42.1116 1541.00
42.1768 1457.00
42.242 1487.00
42.3072 1556.00
42.3724 1501.00
42.4376 1520.00
42.5028 1416.00
42.568 1352.00
42.6332 1300.00
42.6983 1388.00
42.7635 1341.00
42.8287 1405.00
42.8939 1486.00
42.9591 1480.00
43.0243 1519.00
43.0895 1410.00
43.1547 1330.00
43.2199 1412.00
43.2851 1428.00
43.3503 1412.00
43.4155 1399.00
43.4807 1374.00
43.5459 1406.00
43.6111 1421.00
43.6763 1424.00
43.7415 1459.00
43.8067 1604.00
43.8719 1811.00
43.9371 1810.00
44.0023 1697.00
44.0675 1571.00
44.1327 1434.00
44.1979 1523.00
44.2631 1453.00
44.3283 1582.00
44.3935 1559.00
44.4587 1413.00
44.5239 1400.00
44.5891 1458.00
44.6543 1425.00
44.7195 1385.00
44.7847 1365.00
44.8499 1373.00
44.9151 1388.00
44.9803 1454.00
45.0455 1485.00
45.1107 1436.00
45.1759 1467.00
45.2411 1485.00
45.3063 1366.00
45.3715 1528.00
45.4367 1395.00
45.5019 1546.00
45.5671 1575.00
45.6323 1550.00
45.6975 1514.00
45.7627 1388.00
45.8279 1370.00
45.8931 1398.00
45.9583 1427.00
46.0235 1467.00
46.0887 1335.00
46.1539 1420.00
46.2191 1377.00
46.2843 1370.00
46.3495 1363.00
46.4147 1398.00
46.4799 1510.00
46.5451 1633.00
46.6103 1693.00
46.6755 1812.00
46.7407 2044.00
46.8059 2242.00
46.8711 2662.00
46.9363 3261.00
47.0015 3701.00
47.0667 3766.00
47.1319 3362.00
47.1971 2964.00
47.2623 2455.00
47.3275 2209.00
47.3927 2144.00
47.4579 2281.00
47.523 2611.00
47.5882 2916.00
47.6534 2922.00
47.7186 3169.00
47.7838 3099.00
47.849 2820.00
47.9142 2494.00
47.9794 2250.00
48.0446 2025.00
48.1098 1881.00
48.175 1739.00
48.2402 1513.00
48.3054 1544.00
48.3706 1361.00
48.4358 1357.00
48.501 1379.00
48.5662 1264.00
48.6314 1224.00
48.6966 1293.00
48.7618 1358.00
48.827 1296.00
48.8922 1349.00
48.9574 1411.00
49.0226 1312.00
49.0878 1332.00
49.153 1302.00
49.2182 1352.00
49.2834 1376.00
49.3486 1346.00
49.4138 1297.00
49.479 1341.00
49.5442 1316.00
49.6094 1326.00
49.6746 1343.00
49.7398 1384.00
49.805 1278.00
49.8702 1289.00
49.9354 1339.00
50.0006 1226.00
50.0658 1250.00
50.131 1228.00
50.1962 1217.00
50.2614 1418.00
50.3266 1409.00
50.3918 1455.00
50.457 1344.00
50.5222 1313.00
50.5874 1345.00
50.6526 1282.00
50.7178 1291.00
50.783 1228.00
50.8482 1364.00
50.9134 1297.00
50.9786 1250.00
51.0438 1317.00
51.109 1278.00
51.1742 1347.00
51.2394 1418.00
51.3046 1384.00
51.3698 1438.00
51.435 1400.00
51.5002 1433.00
51.5654 1385.00
51.6306 1363.00
51.6958 1389.00
51.761 1304.00
51.8262 1345.00
51.8914 1433.00
51.9566 1502.00
52.0218 1504.00
52.087 1547.00
52.1522 1626.00
52.2174 1528.00
52.2826 1654.00
52.3477 1799.00
52.4129 1850.00
52.4781 1882.00
52.5433 1932.00
52.6085 2034.00
52.6737 2168.00
52.7389 2458.00
52.8041 2965.00
52.8693 3405.00
52.9345 3495.00
52.9997 3373.00
53.0649 3235.00
53.1301 2750.00
53.1953 2360.00
53.2605 2208.00
53.3257 1888.00
53.3909 1743.00
53.4561 1673.00
53.5213 1490.00
53.5865 1481.00
53.6517 1461.00
53.7169 1541.00
53.7821 1535.00
53.8473 1579.00
53.9125 1671.00
53.9777 1564.00
54.0429 1466.00
54.1081 1420.00
54.1733 1381.00
54.2385 1406.00
54.3037 1329.00
54.3689 1450.00
54.4341 1427.00
54.4993 1429.00
54.5645 1519.00
54.6297 1420.00
54.6949 1458.00
54.7601 1406.00
54.8253 1481.00
54.8905 1370.00
54.9557 1342.00
55.0209 1365.00
55.0861 1310.00
55.1513 1351.00
55.2165 1273.00
55.2817 1238.00
55.3469 1336.00
55.4121 1254.00
55.4773 1303.00
55.5425 1272.00
55.6077 1261.00
55.6729 1296.00
55.7381 1337.00
55.8033 1378.00
55.8685 1351.00
55.9337 1296.00
55.9989 1332.00
56.0641 1370.00
56.1293 1406.00
56.1945 1397.00
56.2597 1336.00
56.3249 1310.00
56.3901 1374.00
56.4553 1323.00
56.5205 1350.00
56.5857 1442.00
56.6509 1433.00
56.7161 1425.00
56.7813 1517.00
56.8465 1561.00
56.9117 1553.00
56.9769 1623.00
57.042 1444.00
57.1073 1432.00
57.1724 1335.00
57.2376 1324.00
57.3028 1331.00
57.368 1317.00
57.4332 1345.00
57.4984 1418.00
57.5636 1336.00
57.6288 1370.00
57.694 1447.00
57.7592 1386.00
57.8244 1599.00
57.8896 1543.00
57.9548 1684.00
58.02 1723.00
58.0852 2014.00
58.1504 2156.00
58.2156 2496.00
58.2808 2831.00
58.346 3081.00
58.4112 3224.00
58.4764 3242.00
58.5416 3117.00
58.6068 2721.00
58.672 2271.00
58.7372 1992.00
58.8024 1842.00
58.8676 1697.00
58.9328 1678.00
58.998 1484.00
59.0632 1522.00
59.1284 1619.00
59.1936 1699.00
59.2588 1723.00
59.324 1711.00
59.3892 1672.00
59.4544 1774.00
59.5196 1800.00
59.5848 1848.00
59.65 1877.00
59.7152 1921.00
59.7804 1962.00
59.8456 1952.00
59.9108 2209.00
59.976 2147.00
60.0412 1994.00
60.1064 1959.00
60.1716 1867.00
60.2368 1796.00
60.302 1597.00
60.3672 1457.00
60.4324 1389.00
60.4976 1286.00
60.5628 1303.00
60.628 1268.00
60.6932 1348.00
60.7584 1355.00
60.8236 1475.00
60.8888 1507.00
60.954 1505.00
61.0192 1394.00
61.0844 1412.00
61.1496 1346.00
61.2148 1227.00
61.28 1357.00
61.3452 1287.00
61.4104 1264.00
61.4756 1433.00
61.5408 1338.00
61.606 1215.00
61.6712 1192.00
61.7364 1188.00
61.8016 1225.00
61.8667 1158.00
61.932 1135.00
61.9971 1212.00
62.0623 1242.00
62.1275 1160.00
62.1927 1177.00
62.2579 1198.00
62.3231 1170.00
62.3883 1125.00
62.4535 1138.00
62.5187 1237.00
62.5839 1230.00
62.6491 1134.00
62.7143 1201.00
62.7795 1246.00
62.8447 1292.00
62.9099 1209.00
62.9751 1298.00
63.0403 1388.00
63.1055 1525.00
63.1707 1430.00
63.2359 1380.00
63.3011 1303.00
63.3663 1307.00
63.4315 1242.00
63.4967 1331.00
63.5619 1260.00
63.6271 1240.00
63.6923 1219.00
63.7575 1251.00
63.8227 1281.00
63.8879 1268.00
63.9531 1350.00
64.0183 1427.00
64.0835 1445.00
64.1487 1442.00
64.2139 1644.00
64.2791 1596.00
64.3443 1586.00
64.4095 1517.00
64.4747 1444.00
64.5399 1366.00
64.6051 1295.00
64.6703 1250.00
64.7355 1211.00
64.8007 1156.00
64.8659 1169.00
64.9311 1147.00
64.9963 1194.00
65.0615 1155.00
65.1267 1155.00
65.1919 1212.00
65.2571 1275.00
65.3223 1313.00
65.3875 1432.00
65.4527 1423.00
65.5179 1425.00
65.5831 1481.00
65.6483 1374.00
65.7135 1310.00
65.7787 1204.00
65.8439 1157.00
65.9091 1217.00
65.9743 1208.00
66.0395 1113.00
66.1047 1216.00
66.1699 1134.00
66.2351 1138.00
66.3003 1208.00
66.3655 1118.00
66.4307 1073.00
66.4959 1174.00
66.561 1130.00
66.6263 1171.00
66.6915 1171.00
66.7566 1173.00
66.8218 1189.00
66.887 1190.00
66.9522 1190.00
67.0174 1204.00
67.0826 1165.00
67.1478 1251.00
67.213 1116.00
67.2782 1158.00
67.3434 1149.00
67.4086 1230.00
67.4738 1210.00
67.539 1205.00
67.6042 1323.00
67.6694 1306.00
67.7346 1281.00
67.7998 1338.00
67.865 1293.00
67.9302 1297.00
67.9954 1353.00
68.0606 1394.00
68.1258 1452.00
68.191 1498.00
68.2562 1547.00
68.3214 1673.00
68.3866 1786.00
68.4518 1854.00
68.517 1912.00
68.5822 1840.00
68.6474 1767.00
68.7126 1663.00
68.7778 1657.00
68.843 1444.00
68.9082 1389.00
68.9734 1258.00
69.0386 1234.00
69.1038 1200.00
69.169 1235.00
69.2342 1139.00
69.2994 1134.00
69.3646 1091.00
69.4298 1140.00
69.495 1149.00
69.5602 1174.00
69.6254 1126.00
69.6906 1158.00
69.7558 1198.00
69.821 1250.00
69.8862 1273.00
69.9514 1324.00
70.0166 1196.00
70.0818 1209.00
70.147 1230.00
70.2122 1215.00
70.2774 1190.00
70.3426 1196.00
70.4078 1233.00
70.473 1139.00
70.5382 1181.00
70.6034 1133.00
70.6686 1193.00
70.7338 1040.00
70.799 1157.00
70.8642 1225.00
70.9294 1189.00
70.9946 1231.00
71.0598 1266.00
71.125 1221.00
71.1902 1210.00
71.2554 1279.00
71.3205 1274.00
71.3858 1244.00
71.451 1247.00
71.5162 1146.00
71.5813 1152.00
71.6465 1314.00
71.7117 1170.00
71.7769 1188.00
71.8421 1210.00
71.9073 1301.00
71.9725 1333.00
72.0377 1274.00
72.1029 1211.00
72.1681 1228.00
72.2333 1251.00
72.2985 1174.00
72.3637 1153.00
72.4289 1112.00
72.4941 1213.00
72.5593 1199.00
72.6245 1203.00
72.6897 1094.00
72.7549 1225.00
72.8201 1326.00
72.8853 1292.00
72.9505 1375.00
73.0157 1440.00
73.0809 1499.00
73.1461 1651.00
73.2113 1647.00
73.2765 1645.00
73.3417 1643.00
73.4069 1696.00
73.4721 1508.00
73.5373 1530.00
73.6025 1481.00
73.6677 1349.00
73.7329 1318.00
73.7981 1164.00
73.8633 1208.00
73.9285 1137.00
73.9937 1123.00
74.0589 1117.00
74.1241 1106.00
74.1893 1185.00
74.2545 1071.00
74.3197 1102.00
74.3849 1116.00
74.4501 1085.00
74.5153 1093.00
74.5805 1142.00
74.6457 1066.00
74.7109 1119.00
74.7761 1086.00
74.8413 1079.00
74.9065 1082.00
74.9717 1059.00
75.0369 1021.00
75.1021 1120.00
75.1673 1101.00
75.2325 1224.00
75.2977 1110.00
75.3629 1136.00
75.4281 1214.00
75.4933 1090.00
75.5585 1155.00
75.6237 1137.00
75.6889 1132.00
75.7541 1117.00
75.8193 1135.00
75.8845 1063.00
75.9497 1225.00
76.0149 1113.00
76.0801 1105.00
76.1452 1141.00
76.2104 1106.00
76.2756 1035.00
76.3409 1042.00
76.406 1099.00
76.4712 1115.00
76.5364 1170.00
76.6016 1175.00
76.6668 1098.00
76.732 1140.00
76.7972 1140.00
76.8624 1105.00
76.9276 1138.00
76.9928 1097.00
77.058 1062.00
77.1232 1130.00
77.1884 1132.00
77.2536 1135.00
77.3188 1131.00
77.384 1124.00
77.4492 1180.00
77.5144 1218.00
77.5796 1263.00
77.6448 1288.00
77.71 1380.00
77.7752 1383.00
77.8404 1463.00
77.9056 1574.00
77.9708 1534.00
78.036 1469.00
78.1012 1601.00
78.1664 1473.00
78.2316 1457.00
78.2968 1435.00
78.362 1280.00
78.4272 1339.00
78.4924 1307.00
78.5576 1233.00
78.6228 1123.00
78.688 1147.00
78.7532 1160.00
78.8184 1111.00
78.8836 1065.00
78.9488 1073.00
79.014 1042.00
79.0792 1103.00
79.1444 1074.00
79.2096 1090.00
79.2748 1129.00
79.34 1235.00
79.4052 1080.00
79.4704 1141.00
79.5356 1119.00
79.6008 1098.00
79.666 1133.00
79.7312 1053.00
79.7964 1078.00
79.8616 1058.00
79.9268 1024.00
79.992 1101.00
80.0572 1104.00
80.1224 1055.00
80.1876 1069.00
80.2528 1051.00
80.318 1114.00
80.3832 1084.00
80.4484 1141.00
80.5136 1159.00
80.5788 1206.00
80.644 1224.00
80.7092 1194.00
80.7744 1175.00
80.8396 1150.00
80.9048 1132.00
80.9699 1149.00
81.0351 1157.00
81.1003 1178.00
81.1655 1153.00
81.2307 1153.00
81.2959 1225.00
81.3611 1184.00
81.4263 1172.00
81.4915 1132.00
81.5567 1125.00
81.6219 1172.00
81.6871 1109.00
81.7523 1070.00
81.8175 1072.00
81.8827 1004.00
81.9479 1107.00
82.0131 1097.00
82.0783 1163.00
82.1435 1130.00
82.2087 1090.00
82.2739 1110.00
82.3391 1052.00
82.4043 1187.00
82.4695 1176.00
82.5347 1226.00
82.5999 1259.00
82.6651 1322.00
82.7303 1280.00
82.7955 1315.00
82.8607 1156.00
82.9259 1147.00
82.9911 1159.00
83.0563 1106.00
83.1215 1180.00
83.1867 1143.00
83.2519 1075.00
83.3171 1037.00
83.3823 1091.00
83.4475 1033.00
83.5127 1092.00
83.5779 1070.00
83.6431 1018.00
83.7083 1152.00
83.7735 1074.00
83.8387 1110.00
83.9039 1031.00
83.9691 1063.00
84.0343 1086.00
84.0995 1011.00
84.1647 1070.00
84.2299 1107.00
84.2951 1060.00
84.3603 1098.00
84.4255 1181.00
84.4907 1143.00
84.5559 1193.00
84.6211 1194.00
84.6863 1136.00
84.7515 1222.00
84.8167 1257.00
84.8819 1237.00
84.9471 1283.00
85.0123 1160.00
85.0775 1217.00
85.1427 1194.00
85.2079 1159.00
85.2731 1252.00
85.3383 1093.00
85.4035 1075.00
85.4687 1059.00
85.5339 1007.00
85.5991 1020.00
85.6643 1046.00
85.7295 1062.00
85.7946 1053.00
85.8598 1093.00
85.925 1024.00
85.9903 1086.00
86.0554 1004.00
86.1206 1071.00
86.1858 1051.00
86.251 1117.00
86.3162 1152.00
86.3814 1098.00
86.4466 1175.00
86.5118 1110.00
86.577 1141.00
86.6422 1166.00
86.7074 1205.00
86.7726 1215.00
86.8378 1272.00
86.903 1234.00
86.9682 1194.00
87.0334 1246.00
87.0986 1335.00
87.1638 1250.00
87.229 1219.00
87.2942 1269.00
87.3594 1225.00
87.4246 1157.00
87.4898 1184.00
87.555 1067.00
87.6202 1075.00
87.6854 1034.00
87.7506 1054.00
87.8158 1036.00
87.881 1055.00
87.9462 1041.00
88.0114 1037.00
88.0766 1029.00
88.1418 1043.00
88.207 1028.00
88.2722 985.00
88.3374 1057.00
88.4026 1089.00
88.4678 1106.00
88.533 1100.00
88.5982 1067.00
88.6634 1108.00
88.7286 1113.00
88.7938 1073.00
88.859 1080.00
88.9242 1049.00
88.9894 1061.00
89.0546 1051.00
89.1198 1047.00
89.185 1098.00
89.2502 1047.00
89.3154 1106.00
89.3806 1025.00
89.4458 1025.00
89.511 922.00
89.5762 998.00
89.6414 1113.00
89.7066 988.00
89.7718 1044.00
89.837 1029.00
89.9022 1055.00
89.9674 1073.00
90.0326 1007.00
90.0978 1087.00
90.163 1070.00
90.2282 1061.00
90.2934 1050.00
90.3586 1033.00
90.4238 1115.00
90.489 1084.00
90.5542 1116.00
90.6193 1039.00
90.6845 1129.00
90.7497 1096.00
90.8149 1127.00
90.8801 1053.00
90.9453 1111.00
91.0105 1072.00
91.0757 1102.00
91.1409 1185.00
91.2061 1160.00
91.2713 1173.00
91.3365 1173.00
91.4017 1223.00
91.4669 1247.00
91.5321 1163.00
91.5973 1235.00
91.6625 1179.00
91.7277 1214.00
91.7929 1130.00
91.8581 1150.00
91.9233 1094.00
91.9885 1180.00
92.0537 1178.00
92.1189 1147.00
92.1841 1166.00
92.2493 1102.00
92.3145 1098.00
92.3797 1111.00
92.4449 1121.00
92.5101 1094.00
92.5753 1073.00
92.6405 1043.00
92.7057 1086.00
92.7709 1044.00
92.8361 1091.00
92.9013 1083.00
92.9665 1080.00
93.0317 1088.00
93.0969 1046.00
93.1621 1022.00
93.2273 1097.00
93.2925 1021.00
93.3577 1021.00
93.4229 1016.00
93.4881 1075.00
93.5533 1016.00
93.6185 1029.00
93.6837 1017.00
93.7489 1097.00
93.8141 1106.00
93.8793 1085.00
93.9445 1086.00
94.0097 1122.00
94.0749 1072.00
94.1401 1098.00
94.2053 1088.00
94.2705 1142.00
94.3357 1056.00
94.4009 1134.00
94.4661 1113.00
94.5313 1156.00
94.5965 1108.00
94.6617 1094.00
94.7269 1097.00
94.7921 1091.00
94.8573 1219.00
94.9225 1079.00
94.9877 1047.00
95.0529 1217.00
95.1181 1145.00
95.1833 1101.00
95.2485 1103.00
95.3137 1191.00
95.3789 1219.00
95.444 1174.00
95.5092 1217.00
95.5744 1217.00
95.6396 1237.00
95.7048 1389.00
95.77 1332.00
95.8352 1411.00
95.9004 1431.00
95.9656 1435.00
96.0308 1509.00
96.096 1500.00
96.1612 1399.00
96.2264 1496.00
96.2916 1494.00
96.3568 1419.00
96.422 1406.00
96.4872 1297.00
96.5524 1321.00
96.6176 1238.00
96.6828 1202.00
96.748 1239.00
96.8132 1233.00
96.8784 1171.00
96.9436 1070.00
97.0088 1078.00
97.074 1113.00
97.1392 1039.00
97.2044 1089.00
97.2696 1032.00
97.3348 1090.00
97.4 1074.00
97.4652 1041.00
97.5304 1067.00
97.5956 980.00
97.6608 1084.00
97.726 1060.00
97.7912 1057.00
97.8564 978.00
97.9216 1047.00
97.9868 1062.00
98.052 1095.00
98.1172 1068.00
98.1824 1129.00
98.2476 1111.00
98.3128 1154.00
98.378 1059.00
98.4432 1082.00
98.5084 1088.00
98.5736 1009.00
98.6388 1086.00
98.704 1137.00
98.7692 1059.00
98.8344 1051.00
98.8996 1033.00
98.9648 974.00
99.03 1000.00
99.0952 1079.00
99.1604 1059.00
99.2256 1050.00
99.2908 1040.00
99.356 1017.00
99.4212 996.00
99.4864 1038.00
99.5516 1008.00
99.6168 1088.00
99.682 1023.00
99.7472 978.00
99.8124 1010.00
99.8776 1018.00
99.9428 1030.00
100.008 1039.00
100.073 1009.00
100.095 978.00