File: data/xrd_creation/results/Na_203.xy
9.903433 2880.00
9.968632 2946.00
10.0338 2768.00
10.099 2733.00
10.1642 2801.00
10.2294 2770.00
10.2946 2806.00
10.3598 2678.00
10.425 2691.00
10.4902 2607.00
10.5554 2794.00
10.6206 2727.00
10.6858 2763.00
10.751 2632.00
10.8162 2652.00
10.8814 2527.00
10.9466 2517.00
11.0118 2550.00
11.077 2477.00
11.1422 2563.00
11.2074 2574.00
11.2726 2596.00
11.3378 2910.00
11.403 3089.00
11.4682 3476.00
11.5334 3911.00
11.5986 4953.00
11.6638 6961.00
11.729 10042.00
11.7942 9679.00
11.8594 4594.00
11.9246 4575.00
11.9898 6194.00
12.055 9142.00
12.1202 6067.00
12.1854 2850.00
12.2506 2464.00
12.3158 2416.00
12.381 2302.00
12.4462 2216.00
12.5114 2261.00
12.5766 2239.00
12.6418 2201.00
12.707 2210.00
12.7722 2141.00
12.8374 2107.00
12.9026 2062.00
12.9678 2086.00
13.033 2129.00
13.0982 2045.00
13.1634 2022.00
13.2286 2119.00
13.2938 1917.00
13.359 1961.00
13.4242 2007.00
13.4894 2093.00
13.5546 1962.00
13.6198 1991.00
13.685 1939.00
13.7502 1901.00
13.8154 2008.00
13.8805 1943.00
13.9457 1878.00
14.0109 1788.00
14.0761 1877.00
14.1413 1890.00
14.2065 1880.00
14.2717 1813.00
14.3369 1825.00
14.4021 1856.00
14.4673 1830.00
14.5325 1844.00
14.5977 1762.00
14.6629 1891.00
14.7281 1900.00
14.7933 1799.00
14.8585 1813.00
14.9237 1832.00
14.9889 1738.00
15.0541 1766.00
15.1193 1777.00
15.1845 1766.00
15.2497 1711.00
15.3149 1791.00
15.3801 1711.00
15.4453 1823.00
15.5105 1730.00
15.5757 1837.00
15.6409 1778.00
15.7061 1742.00
15.7713 1781.00
15.8365 1638.00
15.9017 1744.00
15.9669 1873.00
16.0321 1830.00
16.0973 1830.00
16.1625 1719.00
16.2277 1695.00
16.2929 1709.00
16.3581 1677.00
16.4233 1849.00
16.4885 1805.00
16.5537 1967.00
16.6189 2439.00
16.6841 2828.00
16.7493 3077.00
16.8145 2000.00
16.8797 1708.00
16.9449 1718.00
17.0101 1611.00
17.0753 1541.00
17.1405 1550.00
17.2057 1504.00
17.2709 1578.00
17.3361 1568.00
17.4013 1573.00
17.4665 1594.00
17.5317 1641.00
17.5969 1772.00
17.6621 1744.00
17.7273 1546.00
17.7925 1620.00
17.8577 1608.00
17.9229 1651.00
17.9881 1665.00
18.0533 1706.00
18.1185 1928.00
18.1837 2381.00
18.2489 2950.00
18.3141 4018.00
18.3793 4138.00
18.4445 2599.00
18.5097 2527.00
18.5749 2892.00
18.6401 3122.00
18.7052 2056.00
18.7704 1597.00
18.8356 1489.00
18.9008 1480.00
18.966 1474.00
19.0312 1316.00
19.0964 1442.00
19.1616 1421.00
19.2268 1382.00
19.292 1428.00
19.3572 1364.00
19.4224 1434.00
19.4876 1483.00
19.5528 1474.00
19.618 1356.00
19.6832 1281.00
19.7484 1380.00
19.8136 1339.00
19.8788 1272.00
19.944 1319.00
20.0092 1304.00
20.0744 1306.00
20.1396 1282.00
20.2048 1358.00
20.27 1361.00
20.3352 1303.00
20.4004 1270.00
20.4656 1291.00
20.5308 1304.00
20.596 1280.00
20.6612 1249.00
20.7264 1270.00
20.7916 1339.00
20.8568 1436.00
20.922 1623.00
20.9872 1808.00
21.0524 1927.00
21.1176 1869.00
21.1828 1678.00
21.248 1573.00
21.3132 1441.00
21.3784 1360.00
21.4436 1225.00
21.5088 1266.00
21.574 1217.00
21.6392 1281.00
21.7044 1223.00
21.7696 1216.00
21.8348 1340.00
21.9 1180.00
21.9652 1106.00
22.0304 1137.00
22.0956 1177.00
22.1608 1194.00
22.226 1239.00
22.2912 1102.00
22.3564 1220.00
22.4216 1176.00
22.4868 1159.00
22.552 1142.00
22.6172 1152.00
22.6824 1101.00
22.7476 1104.00
22.8128 1188.00
22.878 1179.00
22.9432 1241.00
23.0084 1217.00
23.0736 1324.00
23.1388 1453.00
23.204 1793.00
23.2692 1966.00
23.3344 1579.00
23.3996 1183.00
23.4647 1181.00
23.5299 1136.00
23.5951 1079.00
23.6603 1183.00
23.7255 1252.00
23.7907 1327.00
23.8559 1525.00
23.9211 1782.00
23.9863 1368.00
24.0515 1111.00
24.1167 1155.00
24.1819 1329.00
24.2471 1675.00
24.3123 2315.00
24.3775 2977.00
24.4427 2524.00
24.5079 1596.00
24.5731 1281.00
24.6383 1262.00
24.7035 1190.00
24.7687 1322.00
24.8339 1521.00
24.8991 1885.00
24.9643 2749.00
25.0295 3609.00
25.0947 2559.00
25.1599 1407.00
25.2251 1185.00
25.2903 1212.00
25.3555 1369.00
25.4207 1474.00
25.4859 1452.00
25.5511 1429.00
25.6163 1551.00
25.6815 1337.00
25.7467 1120.00
25.8119 1176.00
25.8771 1249.00
25.9423 1504.00
26.0075 2107.00
26.0727 3811.00
26.1379 6565.00
26.2031 5216.00
26.2683 2501.00
26.3335 1542.00
26.3987 1853.00
26.4639 2291.00
26.5291 3506.00
26.5943 4999.00
26.6595 3253.00
26.7247 1417.00
26.7899 1083.00
26.8551 966.00
26.9203 1032.00
26.9855 1024.00
27.0507 956.00
27.1159 986.00
27.1811 1020.00
27.2463 989.00
27.3115 1141.00
27.3767 1128.00
27.4419 1172.00
27.5071 1120.00
27.5723 1123.00
27.6375 1140.00
27.7027 1374.00
27.7679 1676.00
27.8331 1531.00
27.8983 1208.00
27.9635 1144.00
28.0287 1181.00
28.0939 1431.00
28.1591 1839.00
28.2243 2686.00
28.2894 3373.00
28.3546 2600.00
28.4198 2385.00
28.485 3257.00
28.5502 2966.00
28.6154 1820.00
28.6806 1098.00
28.7458 1045.00
28.811 972.00
28.8762 1079.00
28.9414 1107.00
29.0066 1101.00
29.0718 1019.00
29.137 952.00
29.2022 989.00
29.2674 1099.00
29.3326 1212.00
29.3978 1738.00
29.463 2252.00
29.5282 2367.00
29.5934 1565.00
29.6586 1110.00
29.7238 992.00
29.789 929.00
29.8542 905.00
29.9194 877.00
29.9846 933.00
30.0498 873.00
30.115 984.00
30.1802 1054.00
30.2454 1139.00
30.3106 1118.00
30.3758 855.00
30.441 857.00
30.5062 898.00
30.5714 894.00
30.6366 903.00
30.7018 971.00
30.767 968.00
30.8322 1098.00
30.8974 1287.00
30.9626 1491.00
31.0278 1565.00
31.093 1731.00
31.1582 1519.00
31.2234 1177.00
31.2886 945.00
31.3538 909.00
31.419 934.00
31.4842 900.00
31.5494 871.00
31.6146 846.00
31.6798 854.00
31.745 962.00
31.8102 955.00
31.8754 984.00
31.9406 932.00
32.0058 1004.00
32.071 1059.00
32.1362 985.00
32.2014 831.00
32.2666 820.00
32.3318 815.00
32.397 805.00
32.4622 862.00
32.5274 933.00
32.5926 858.00
32.6578 815.00
32.723 871.00
32.7882 842.00
32.8534 910.00
32.9186 929.00
32.9838 1011.00
33.0489 1108.00
33.1141 1332.00
33.1793 1625.00
33.2445 2258.00
33.3097 4649.00
33.3749 9681.00
33.4401 15988.00
33.5053 8835.00
33.5705 4495.00
33.6357 3004.00
33.7009 2119.00
33.7661 1581.00
33.8313 1221.00
33.8965 1364.00
33.9617 1862.00
34.0269 3252.00
34.0921 4062.00
34.1573 2864.00
34.2225 1575.00
34.2877 1053.00
34.3529 1074.00
34.4181 1160.00
34.4833 1178.00
34.5485 1188.00
34.6137 1251.00
34.6789 1310.00
34.7441 1220.00
34.8093 1210.00
34.8745 1184.00
34.9397 1285.00
35.0049 1925.00
35.0701 3721.00
35.1353 7148.00
35.2005 6274.00
35.2657 4944.00
35.3309 3015.00
35.3961 1961.00
35.4613 1206.00
35.5265 888.00
35.5917 728.00
35.6569 800.00
35.7221 734.00
35.7873 747.00
35.8525 803.00
35.9177 962.00
35.9829 1176.00
36.0481 1119.00
36.1133 978.00
36.1785 967.00
36.2437 915.00
36.3089 833.00
36.3741 812.00
36.4393 838.00
36.5045 790.00
36.5697 683.00
36.6349 713.00
36.7001 780.00
36.7653 791.00
36.8305 831.00
36.8957 720.00
36.9609 719.00
37.0261 795.00
37.0913 852.00
37.1565 743.00
37.2217 691.00
37.2869 716.00
37.3521 874.00
37.4173 812.00
37.4825 766.00
37.5477 641.00
37.6129 591.00
37.6781 614.00
37.7433 617.00
37.8085 655.00
37.8736 657.00
37.9388 638.00
38.004 577.00
38.0692 583.00
38.1344 589.00
38.1996 622.00
38.2648 562.00
38.33 643.00
38.3952 562.00
38.4604 555.00
38.5256 632.00
38.5908 678.00
38.656 650.00
38.7212 805.00
38.7864 978.00
38.8516 1053.00
38.9168 743.00
38.982 680.00
39.0472 657.00
39.1124 652.00
39.1776 677.00
39.2428 600.00
39.308 678.00
39.3732 620.00
39.4384 595.00
39.5036 650.00
39.5688 658.00
39.634 716.00
39.6992 795.00
39.7644 716.00
39.8296 639.00
39.8948 598.00
39.96 549.00
40.0252 572.00
40.0904 533.00
40.1556 527.00
40.2208 545.00
40.286 570.00
40.3512 540.00
40.4164 608.00
40.4816 631.00
40.5468 702.00
40.612 624.00
40.6772 618.00
40.7424 670.00
40.8076 638.00
40.8728 599.00
40.938 589.00
41.0032 556.00
41.0684 562.00
41.1336 585.00
41.1988 600.00
41.264 656.00
41.3292 710.00
41.3944 654.00
41.4596 628.00
41.5248 683.00
41.59 676.00
41.6552 694.00
41.7204 634.00
41.7856 608.00
41.8508 650.00
41.916 683.00
41.9812 596.00
42.0464 701.00
42.1116 609.00
42.1768 584.00
42.242 532.00
42.3072 571.00
42.3724 658.00
42.4376 766.00
42.5028 698.00
42.568 717.00
42.6332 936.00
42.6983 977.00
42.7635 966.00
42.8287 837.00
42.8939 1205.00
42.9591 1333.00
43.0243 1181.00
43.0895 1068.00
43.1547 938.00
43.2199 749.00
43.2851 690.00
43.3503 494.00
43.4155 492.00
43.4807 495.00
43.5459 547.00
43.6111 566.00
43.6763 591.00
43.7415 644.00
43.8067 576.00
43.8719 602.00
43.9371 536.00
44.0023 542.00
44.0675 579.00
44.1327 627.00
44.1979 654.00
44.2631 861.00
44.3283 1367.00
44.3935 1435.00
44.4587 1312.00
44.5239 974.00
44.5891 742.00
44.6543 658.00
44.7195 613.00
44.7847 668.00
44.8499 801.00
44.9151 690.00
44.9803 728.00
45.0455 613.00
45.1107 579.00
45.1759 574.00
45.2411 619.00
45.3063 601.00
45.3715 713.00
45.4367 627.00
45.5019 624.00
45.5671 545.00
45.6323 513.00
45.6975 522.00
45.7627 524.00
45.8279 561.00
45.8931 755.00
45.9583 1104.00
46.0235 1083.00
46.0887 917.00
46.1539 769.00
46.2191 598.00
46.2843 605.00
46.3495 644.00
46.4147 593.00
46.4799 556.00
46.5451 509.00
46.6103 532.00
46.6755 626.00
46.7407 695.00
46.8059 757.00
46.8711 785.00
46.9363 987.00
47.0015 1624.00
47.0667 3850.00
47.1319 7100.00
47.1971 4243.00
47.2623 3915.00
47.3275 1529.00
47.3927 750.00
47.4579 635.00
47.523 569.00
47.5882 579.00
47.6534 501.00
47.7186 569.00
47.7838 566.00
47.849 557.00
47.9142 704.00
47.9794 718.00
48.0446 757.00
48.1098 693.00
48.175 686.00
48.2402 615.00
48.3054 666.00
48.3706 776.00
48.4358 1084.00
48.501 1556.00
48.5662 1219.00
48.6314 1275.00
48.6966 1670.00
48.7618 1718.00
48.827 1339.00
48.8922 1228.00
48.9574 877.00
49.0226 673.00
49.0878 674.00
49.153 633.00
49.2182 777.00
49.2834 938.00
49.3486 762.00
49.4138 781.00
49.479 728.00
49.5442 849.00
49.6094 768.00
49.6746 762.00
49.7398 676.00
49.805 659.00
49.8702 569.00
49.9354 585.00
50.0006 559.00
50.0658 693.00
50.131 860.00
50.1962 953.00
50.2614 872.00
50.3266 748.00
50.3918 686.00
50.457 633.00
50.5222 681.00
50.5874 749.00
50.6526 875.00
50.7178 1009.00
50.783 1145.00
50.8482 1376.00
50.9134 1851.00
50.9786 1322.00
51.0438 1330.00
51.109 1186.00
51.1742 845.00
51.2394 847.00
51.3046 762.00
51.3698 625.00
51.435 543.00
51.5002 541.00
51.5654 558.00
51.6306 576.00
51.6958 632.00
51.761 560.00
51.8262 594.00
51.8914 638.00
51.9566 601.00
52.0218 655.00
52.087 829.00
52.1522 1335.00
52.2174 1482.00
52.2826 1034.00
52.3477 992.00
52.4129 620.00
52.4781 559.00
52.5433 576.00
52.6085 620.00
52.6737 561.00
52.7389 601.00
52.8041 461.00
52.8693 484.00
52.9345 493.00
52.9997 482.00
53.0649 490.00
53.1301 497.00
53.1953 492.00
53.2605 487.00
53.3257 535.00
53.3909 479.00
53.4561 499.00
53.5213 538.00
53.5865 534.00
53.6517 568.00
53.7169 658.00
53.7821 549.00
53.8473 512.00
53.9125 489.00
53.9777 478.00
54.0429 524.00
54.1081 567.00
54.1733 593.00
54.2385 536.00
54.3037 499.00
54.3689 572.00
54.4341 536.00
54.4993 652.00
54.5645 746.00
54.6297 743.00
54.6949 666.00
54.7601 579.00
54.8253 574.00
54.8905 558.00
54.9557 529.00
55.0209 518.00
55.0861 481.00
55.1513 494.00
55.2165 485.00
55.2817 441.00
55.3469 478.00
55.4121 419.00
55.4773 472.00
55.5425 524.00
55.6077 514.00
55.6729 441.00
55.7381 474.00
55.8033 487.00
55.8685 508.00
55.9337 580.00
55.9989 628.00
56.0641 796.00
56.1293 671.00
56.1945 644.00
56.2597 706.00
56.3249 746.00
56.3901 635.00
56.4553 649.00
56.5205 682.00
56.5857 687.00
56.6509 675.00
56.7161 635.00
56.7813 642.00
56.8465 592.00
56.9117 715.00
56.9769 758.00
57.042 852.00
57.1073 737.00
57.1724 659.00
57.2376 565.00
57.3028 562.00
57.368 567.00
57.4332 575.00
57.4984 567.00
57.5636 611.00
57.6288 516.00
57.694 540.00
57.7592 477.00
57.8244 482.00
57.8896 426.00
57.9548 451.00
58.02 441.00
58.0852 451.00
58.1504 536.00
58.2156 569.00
58.2808 681.00
58.346 673.00
58.4112 726.00
58.4764 764.00
58.5416 617.00
58.6068 595.00
58.672 570.00
58.7372 556.00
58.8024 509.00
58.8676 535.00
58.9328 622.00
58.998 816.00
59.0632 1272.00
59.1284 2201.00
59.1936 1392.00
59.2588 1348.00
59.324 1220.00
59.3892 718.00
59.4544 651.00
59.5196 555.00
59.5848 509.00
59.65 548.00
59.7152 667.00
59.7804 833.00
59.8456 824.00
59.9108 899.00
59.976 885.00
60.0412 681.00
60.1064 689.00
60.1716 657.00
60.2368 588.00
60.302 851.00
60.3672 1107.00
60.4324 1459.00
60.4976 1184.00
60.5628 1011.00
60.628 1128.00
60.6932 1120.00
60.7584 1318.00
60.8236 1006.00
60.8888 1078.00
60.954 890.00
61.0192 778.00
61.0844 848.00
61.1496 1063.00
61.2148 1463.00
61.28 1072.00
61.3452 1027.00
61.4104 1002.00
61.4756 680.00
61.5408 600.00
61.606 528.00
61.6712 529.00
61.7364 500.00
61.8016 525.00
61.8667 550.00
61.932 538.00
61.9971 500.00
62.0623 442.00
62.1275 434.00
62.1927 400.00
62.2579 412.00
62.3231 505.00
62.3883 748.00
62.4535 984.00
62.5187 679.00
62.5839 658.00
62.6491 689.00
62.7143 424.00
62.7795 436.00
62.8447 387.00
62.9099 362.00
62.9751 422.00
63.0403 379.00
63.1055 370.00
63.1707 384.00
63.2359 410.00
63.3011 424.00
63.3663 427.00
63.4315 461.00
63.4967 445.00
63.5619 419.00
63.6271 424.00
63.6923 471.00
63.7575 485.00
63.8227 493.00
63.8879 572.00
63.9531 779.00
64.0183 791.00
64.0835 646.00
64.1487 614.00
64.2139 677.00
64.2791 676.00
64.3443 607.00
64.4095 596.00
64.4747 504.00
64.5399 488.00
64.6051 428.00
64.6703 351.00
64.7355 372.00
64.8007 385.00
64.8659 365.00
64.9311 386.00
64.9963 408.00
65.0615 422.00
65.1267 412.00
65.1919 530.00
65.2571 571.00
65.3223 609.00
65.3875 591.00
65.4527 536.00
65.5179 546.00
65.5831 487.00
65.6483 468.00
65.7135 444.00
65.7787 394.00
65.8439 416.00
65.9091 445.00
65.9743 410.00
66.0395 363.00
66.1047 369.00
66.1699 400.00
66.2351 395.00
66.3003 390.00
66.3655 375.00
66.4307 406.00
66.4959 457.00
66.561 457.00
66.6263 460.00
66.6915 420.00
66.7566 479.00
66.8218 496.00
66.887 691.00
66.9522 824.00
67.0174 625.00
67.0826 569.00
67.1478 568.00
67.213 431.00
67.2782 390.00
67.3434 412.00
67.4086 439.00
67.4738 384.00
67.539 449.00
67.6042 461.00
67.6694 442.00
67.7346 459.00
67.7998 468.00
67.865 498.00
67.9302 441.00
67.9954 443.00
68.0606 421.00
68.1258 433.00
68.191 394.00
68.2562 463.00
68.3214 489.00
68.3866 507.00
68.4518 542.00
68.517 478.00
68.5822 441.00
68.6474 402.00
68.7126 417.00
68.7778 361.00
68.843 325.00
68.9082 367.00
68.9734 409.00
69.0386 425.00
69.1038 463.00
69.169 486.00
69.2342 435.00
69.2994 470.00
69.3646 420.00
69.4298 451.00
69.495 446.00
69.5602 424.00
69.6254 521.00
69.6906 779.00
69.7558 961.00
69.821 712.00
69.8862 600.00
69.9514 688.00
70.0166 502.00
70.0818 417.00
70.147 362.00
70.2122 391.00
70.2774 377.00
70.3426 404.00
70.4078 468.00
70.473 429.00
70.5382 378.00
70.6034 382.00
70.6686 373.00
70.7338 383.00
70.799 348.00
70.8642 421.00
70.9294 391.00
70.9946 367.00
71.0598 374.00
71.125 482.00
71.1902 730.00
71.2554 910.00
71.3205 758.00
71.3858 609.00
71.451 711.00
71.5162 681.00
71.5813 501.00
71.6465 435.00
71.7117 430.00
71.7769 426.00
71.8421 375.00
71.9073 352.00
71.9725 374.00
72.0377 408.00
72.1029 358.00
72.1681 317.00
72.2333 372.00
72.2985 364.00
72.3637 383.00
72.4289 352.00
72.4941 396.00
72.5593 377.00
72.6245 352.00
72.6897 377.00
72.7549 365.00
72.8201 394.00
72.8853 393.00
72.9505 399.00
73.0157 375.00
73.0809 381.00
73.1461 357.00
73.2113 359.00
73.2765 394.00
73.3417 387.00
73.4069 382.00
73.4721 363.00
73.5373 370.00
73.6025 382.00
73.6677 376.00
73.7329 475.00
73.7981 529.00
73.8633 408.00
73.9285 419.00
73.9937 450.00
74.0589 463.00
74.1241 592.00
74.1893 511.00
74.2545 467.00
74.3197 428.00
74.3849 441.00
74.4501 435.00
74.5153 415.00
74.5805 473.00
74.6457 561.00
74.7109 534.00
74.7761 455.00
74.8413 479.00
74.9065 435.00
74.9717 361.00
75.0369 342.00
75.1021 404.00
75.1673 335.00
75.2325 353.00
75.2977 402.00
75.3629 423.00
75.4281 418.00
75.4933 380.00
75.5585 397.00
75.6237 409.00
75.6889 378.00
75.7541 360.00
75.8193 358.00
75.8845 339.00
75.9497 338.00
76.0149 387.00
76.0801 367.00
76.1452 331.00
76.2104 362.00
76.2756 338.00
76.3409 387.00
76.406 427.00
76.4712 352.00
76.5364 388.00
76.6016 380.00
76.6668 414.00
76.732 365.00
76.7972 362.00
76.8624 311.00
76.9276 328.00
76.9928 347.00
77.058 282.00
77.1232 282.00
77.1884 294.00
77.2536 305.00
77.3188 276.00
77.384 314.00
77.4492 312.00
77.5144 302.00
77.5796 341.00
77.6448 387.00
77.71 373.00
77.7752 390.00
77.8404 403.00
77.9056 518.00
77.9708 576.00
78.036 552.00
78.1012 493.00
78.1664 464.00
78.2316 577.00
78.2968 680.00
78.362 707.00
78.4272 584.00
78.4924 508.00
78.5576 545.00
78.6228 503.00
78.688 400.00
78.7532 365.00
78.8184 344.00
78.8836 362.00
78.9488 339.00
79.014 389.00
79.0792 436.00
79.1444 545.00
79.2096 546.00
79.2748 505.00
79.34 431.00
79.4052 467.00
79.4704 437.00
79.5356 373.00
79.6008 324.00
79.666 378.00
79.7312 364.00
79.7964 326.00
79.8616 374.00
79.9268 379.00
79.992 509.00
80.0572 619.00
80.1224 714.00
80.1876 510.00
80.2528 483.00
80.318 619.00
80.3832 623.00
80.4484 560.00
80.5136 466.00
80.5788 387.00
80.644 427.00
80.7092 468.00
80.7744 355.00
80.8396 343.00
80.9048 356.00
80.9699 350.00
81.0351 324.00
81.1003 319.00
81.1655 317.00
81.2307 352.00
81.2959 415.00
81.3611 417.00
81.4263 406.00
81.4915 386.00
81.5567 340.00
81.6219 384.00
81.6871 390.00
81.7523 348.00
81.8175 338.00
81.8827 356.00
81.9479 381.00
82.0131 435.00
82.0783 442.00
82.1435 443.00
82.2087 412.00
82.2739 372.00
82.3391 456.00
82.4043 357.00
82.4695 378.00
82.5347 331.00
82.5999 392.00
82.6651 397.00
82.7303 396.00
82.7955 348.00
82.8607 364.00
82.9259 359.00
82.9911 361.00
83.0563 324.00
83.1215 319.00
83.1867 310.00
83.2519 285.00
83.3171 335.00
83.3823 319.00
83.4475 331.00
83.5127 281.00
83.5779 294.00
83.6431 266.00
83.7083 259.00
83.7735 317.00
83.8387 318.00
83.9039 280.00
83.9691 323.00
84.0343 327.00
84.0995 334.00
84.1647 315.00
84.2299 336.00
84.2951 319.00
84.3603 284.00
84.4255 305.00
84.4907 305.00
84.5559 306.00
84.6211 245.00
84.6863 297.00
84.7515 306.00
84.8167 296.00
84.8819 300.00
84.9471 287.00
85.0123 328.00
85.0775 293.00
85.1427 315.00
85.2079 312.00
85.2731 313.00
85.3383 276.00
85.4035 279.00
85.4687 299.00
85.5339 299.00
85.5991 264.00
85.6643 286.00
85.7295 298.00
85.7946 313.00
85.8598 320.00
85.925 279.00
85.9903 326.00
86.0554 333.00
86.1206 321.00
86.1858 347.00
86.251 342.00
86.3162 294.00
86.3814 317.00
86.4466 311.00
86.5118 318.00
86.577 322.00
86.6422 326.00
86.7074 319.00
86.7726 347.00
86.8378 332.00
86.903 357.00
86.9682 388.00
87.0334 447.00
87.0986 435.00
87.1638 406.00
87.229 368.00
87.2942 384.00
87.3594 394.00
87.4246 346.00
87.4898 312.00
87.555 328.00
87.6202 304.00
87.6854 360.00
87.7506 305.00
87.8158 339.00
87.881 355.00
87.9462 306.00
88.0114 312.00
88.0766 313.00
88.1418 308.00
88.207 296.00
88.2722 377.00
88.3374 400.00
88.4026 321.00
88.4678 317.00
88.533 349.00
88.5982 390.00
88.6634 362.00
88.7286 315.00
88.7938 325.00
88.859 305.00
88.9242 308.00
88.9894 309.00
89.0546 315.00
89.1198 333.00
89.185 287.00
89.2502 330.00
89.3154 301.00
89.3806 308.00
89.4458 342.00
89.511 350.00
89.5762 348.00
89.6414 405.00
89.7066 386.00
89.7718 383.00
89.837 372.00
89.9022 358.00
89.9674 337.00
90.0326 321.00
90.0978 294.00
90.163 328.00
90.2282 304.00
90.2934 304.00
90.3586 334.00
90.4238 314.00
90.489 312.00
90.5542 351.00
90.6193 391.00
90.6845 491.00
90.7497 389.00
90.8149 364.00
90.8801 396.00
90.9453 485.00
91.0105 389.00
91.0757 337.00
91.1409 367.00
91.2061 348.00
91.2713 331.00
91.3365 374.00
91.4017 360.00
91.4669 323.00
91.5321 319.00
91.5973 337.00
91.6625 366.00
91.7277 331.00
91.7929 305.00
91.8581 303.00
91.9233 326.00
91.9885 339.00
92.0537 332.00
92.1189 359.00
92.1841 312.00
92.2493 299.00
92.3145 291.00
92.3797 297.00
92.4449 321.00
92.5101 308.00
92.5753 292.00
92.6405 300.00
92.7057 282.00
92.7709 317.00
92.8361 311.00
92.9013 344.00
92.9665 332.00
93.0317 345.00
93.0969 323.00
93.1621 306.00
93.2273 346.00
93.2925 318.00
93.3577 349.00
93.4229 379.00
93.4881 414.00
93.5533 346.00
93.6185 353.00
93.6837 345.00
93.7489 369.00
93.8141 337.00
93.8793 317.00
93.9445 327.00
94.0097 350.00
94.0749 325.00
94.1401 311.00
94.2053 342.00
94.2705 338.00
94.3357 373.00
94.4009 372.00
94.4661 332.00
94.5313 357.00
94.5965 395.00
94.6617 323.00
94.7269 358.00
94.7921 300.00
94.8573 299.00
94.9225 301.00
94.9877 294.00
95.0529 280.00
95.1181 300.00
95.1833 249.00
95.2485 299.00
95.3137 287.00
95.3789 278.00
95.444 317.00
95.5092 284.00
95.5744 328.00
95.6396 316.00
95.7048 321.00
95.77 266.00
95.8352 309.00
95.9004 335.00
95.9656 281.00
96.0308 313.00
96.096 312.00
96.1612 335.00
96.2264 305.00
96.2916 354.00
96.3568 319.00
96.422 317.00
96.4872 389.00
96.5524 324.00
96.6176 319.00
96.6828 306.00
96.748 347.00
96.8132 288.00
96.8784 348.00
96.9436 316.00
97.0088 330.00
97.074 385.00
97.1392 470.00
97.2044 557.00
97.2696 440.00
97.3348 459.00
97.4 430.00
97.4652 461.00
97.5304 443.00
97.5956 407.00
97.6608 359.00
97.726 360.00
97.7912 313.00
97.8564 303.00
97.9216 292.00
97.9868 313.00
98.052 314.00
98.1172 372.00
98.1824 443.00
98.2476 518.00
98.3128 460.00
98.378 395.00
98.4432 350.00
98.5084 407.00
98.5736 492.00
98.6388 406.00
98.704 407.00
98.7692 419.00
98.8344 428.00
98.8996 339.00
98.9648 378.00
99.03 342.00
99.0952 360.00
99.1604 449.00
99.2256 444.00
99.2908 487.00
99.356 390.00
99.4212 397.00
99.4864 378.00
99.5516 402.00
99.6168 418.00
99.682 408.00
99.7472 403.00
99.8124 365.00
99.8776 383.00
99.9428 355.00
100.008 380.00
100.073 337.00
100.095 335.00