File: data/xrd_creation/results/Na_272.xy
9.903433 2682.00
9.968632 2687.00
10.0338 2509.00
10.099 2612.00
10.1642 2609.00
10.2294 2666.00
10.2946 2630.00
10.3598 2476.00
10.425 2470.00
10.4902 2610.00
10.5554 2344.00
10.6206 2396.00
10.6858 2359.00
10.751 2309.00
10.8162 2282.00
10.8814 2420.00
10.9466 2343.00
11.0118 2348.00
11.077 2234.00
11.1422 2362.00
11.2074 2293.00
11.2726 2282.00
11.3378 2354.00
11.403 2238.00
11.4682 2268.00
11.5334 2112.00
11.5986 2250.00
11.6638 2206.00
11.729 2232.00
11.7942 2132.00
11.8594 2108.00
11.9246 2211.00
11.9898 2090.00
12.055 2161.00
12.1202 2012.00
12.1854 1986.00
12.2506 1966.00
12.3158 1974.00
12.381 2016.00
12.4462 1970.00
12.5114 1936.00
12.5766 1917.00
12.6418 1927.00
12.707 1875.00
12.7722 1939.00
12.8374 1869.00
12.9026 1871.00
12.9678 1904.00
13.033 1898.00
13.0982 1849.00
13.1634 1941.00
13.2286 1967.00
13.2938 1938.00
13.359 1963.00
13.4242 1913.00
13.4894 1936.00
13.5546 1976.00
13.6198 1834.00
13.685 1818.00
13.7502 1786.00
13.8154 1753.00
13.8805 1822.00
13.9457 1638.00
14.0109 1731.00
14.0761 1654.00
14.1413 1650.00
14.2065 1698.00
14.2717 1722.00
14.3369 1685.00
14.4021 1615.00
14.4673 1652.00
14.5325 1529.00
14.5977 1607.00
14.6629 1598.00
14.7281 1693.00
14.7933 1573.00
14.8585 1717.00
14.9237 1653.00
14.9889 1632.00
15.0541 1639.00
15.1193 1694.00
15.1845 1632.00
15.2497 1593.00
15.3149 1600.00
15.3801 1605.00
15.4453 1585.00
15.5105 1620.00
15.5757 1624.00
15.6409 1656.00
15.7061 1568.00
15.7713 1592.00
15.8365 1585.00
15.9017 1592.00
15.9669 1588.00
16.0321 1630.00
16.0973 1572.00
16.1625 1574.00
16.2277 1565.00
16.2929 1580.00
16.3581 1572.00
16.4233 1566.00
16.4885 1525.00
16.5537 1534.00
16.6189 1565.00
16.6841 1639.00
16.7493 1614.00
16.8145 1676.00
16.8797 1639.00
16.9449 1558.00
17.0101 1519.00
17.0753 1406.00
17.1405 1472.00
17.2057 1447.00
17.2709 1484.00
17.3361 1464.00
17.4013 1460.00
17.4665 1577.00
17.5317 1419.00
17.5969 1436.00
17.6621 1488.00
17.7273 1495.00
17.7925 1473.00
17.8577 1515.00
17.9229 1549.00
17.9881 1553.00
18.0533 1437.00
18.1185 1477.00
18.1837 1343.00
18.2489 1440.00
18.3141 1357.00
18.3793 1392.00
18.4445 1430.00
18.5097 1447.00
18.5749 1403.00
18.6401 1321.00
18.7052 1465.00
18.7704 1550.00
18.8356 1620.00
18.9008 1872.00
18.966 2056.00
19.0312 2190.00
19.0964 2213.00
19.1616 2033.00
19.2268 1686.00
19.292 1565.00
19.3572 1430.00
19.4224 1513.00
19.4876 1476.00
19.5528 1601.00
19.618 1539.00
19.6832 1664.00
19.7484 1814.00
19.8136 2085.00
19.8788 2713.00
19.944 3974.00
20.0092 5800.00
20.0744 8343.00
20.1396 10648.00
20.2048 11696.00
20.27 9991.00
20.3352 5890.00
20.4004 3400.00
20.4656 3238.00
20.5308 3826.00
20.596 4662.00
20.6612 5198.00
20.7264 4941.00
20.7916 3948.00
20.8568 2527.00
20.922 1878.00
20.9872 1606.00
21.0524 1548.00
21.1176 1497.00
21.1828 1475.00
21.248 1462.00
21.3132 1530.00
21.3784 1627.00
21.4436 1693.00
21.5088 1730.00
21.574 1747.00
21.6392 1602.00
21.7044 1472.00
21.7696 1453.00
21.8348 1346.00
21.9 1350.00
21.9652 1329.00
22.0304 1263.00
22.0956 1311.00
22.1608 1203.00
22.226 1222.00
22.2912 1295.00
22.3564 1301.00
22.4216 1219.00
22.4868 1198.00
22.552 1228.00
22.6172 1209.00
22.6824 1259.00
22.7476 1216.00
22.8128 1222.00
22.878 1271.00
22.9432 1299.00
23.0084 1364.00
23.0736 1389.00
23.1388 1359.00
23.204 1549.00
23.2692 1497.00
23.3344 1399.00
23.3996 1289.00
23.4647 1275.00
23.5299 1185.00
23.5951 1130.00
23.6603 1206.00
23.7255 1128.00
23.7907 1204.00
23.8559 1188.00
23.9211 1213.00
23.9863 1121.00
24.0515 1147.00
24.1167 1143.00
24.1819 1136.00
24.2471 1123.00
24.3123 1123.00
24.3775 1181.00
24.4427 1117.00
24.5079 1253.00
24.5731 1287.00
24.6383 1358.00
24.7035 1346.00
24.7687 1234.00
24.8339 1222.00
24.8991 1142.00
24.9643 1052.00
25.0295 1147.00
25.0947 1164.00
25.1599 1247.00
25.2251 1256.00
25.2903 1269.00
25.3555 1268.00
25.4207 1328.00
25.4859 1370.00
25.5511 1625.00
25.6163 1794.00
25.6815 2199.00
25.7467 2893.00
25.8119 4602.00
25.8771 7820.00
25.9423 12970.00
26.0075 18285.00
26.0727 23632.00
26.1379 22958.00
26.2031 16644.00
26.2683 9370.00
26.3335 5318.00
26.3987 4145.00
26.4639 4510.00
26.5291 5153.00
26.5943 4944.00
26.6595 3728.00
26.7247 2361.00
26.7899 1772.00
26.8551 1433.00
26.9203 1426.00
26.9855 1377.00
27.0507 1375.00
27.1159 1352.00
27.1811 1252.00
27.2463 1166.00
27.3115 1226.00
27.3767 1265.00
27.4419 1340.00
27.5071 1415.00
27.5723 1301.00
27.6375 1399.00
27.7027 1277.00
27.7679 1198.00
27.8331 1056.00
27.8983 1024.00
27.9635 1090.00
28.0287 1104.00
28.0939 1016.00
28.1591 1045.00
28.2243 1132.00
28.2894 1069.00
28.3546 1125.00
28.4198 1082.00
28.485 1018.00
28.5502 1042.00
28.6154 1077.00
28.6806 1163.00
28.7458 1112.00
28.811 1183.00
28.8762 1123.00
28.9414 1007.00
29.0066 1030.00
29.0718 1001.00
29.137 984.00
29.2022 1010.00
29.2674 923.00
29.3326 998.00
29.3978 1053.00
29.463 1078.00
29.5282 1046.00
29.5934 1030.00
29.6586 966.00
29.7238 948.00
29.789 1007.00
29.8542 977.00
29.9194 1001.00
29.9846 1020.00
30.0498 1018.00
30.115 994.00
30.1802 992.00
30.2454 972.00
30.3106 943.00
30.3758 985.00
30.441 919.00
30.5062 955.00
30.5714 987.00
30.6366 965.00
30.7018 1051.00
30.767 996.00
30.8322 1024.00
30.8974 982.00
30.9626 956.00
31.0278 906.00
31.093 965.00
31.1582 883.00
31.2234 952.00
31.2886 977.00
31.3538 949.00
31.419 969.00
31.4842 913.00
31.5494 892.00
31.6146 903.00
31.6798 940.00
31.745 902.00
31.8102 921.00
31.8754 954.00
31.9406 943.00
32.0058 946.00
32.071 997.00
32.1362 1021.00
32.2014 1108.00
32.2666 1201.00
32.3318 1228.00
32.397 1322.00
32.4622 1326.00
32.5274 1633.00
32.5926 2244.00
32.6578 3408.00
32.723 5071.00
32.7882 7338.00
32.8534 7718.00
32.9186 6568.00
32.9838 4811.00
33.0489 4454.00
33.1141 6035.00
33.1793 8642.00
33.2445 10816.00
33.3097 10342.00
33.3749 7144.00
33.4401 3919.00
33.5053 2090.00
33.5705 1543.00
33.6357 1430.00
33.7009 1358.00
33.7661 1497.00
33.8313 1848.00
33.8965 2041.00
33.9617 2181.00
34.0269 1839.00
34.0921 1489.00
34.1573 1265.00
34.2225 1202.00
34.2877 1120.00
34.3529 1133.00
34.4181 1221.00
34.4833 1284.00
34.5485 1252.00
34.6137 1259.00
34.6789 1396.00
34.7441 1316.00
34.8093 1132.00
34.8745 1005.00
34.9397 1059.00
35.0049 1089.00
35.0701 1121.00
35.1353 1115.00
35.2005 1151.00
35.2657 1257.00
35.3309 1180.00
35.3961 1173.00
35.4613 1184.00
35.5265 1078.00
35.5917 1113.00
35.6569 1112.00
35.7221 1198.00
35.7873 1344.00
35.8525 1568.00
35.9177 1962.00
35.9829 2327.00
36.0481 2797.00
36.1133 3075.00
36.1785 2925.00
36.2437 2555.00
36.3089 1918.00
36.3741 1483.00
36.4393 1223.00
36.5045 1037.00
36.5697 1047.00
36.6349 1005.00
36.7001 1093.00
36.7653 1201.00
36.8305 1279.00
36.8957 1501.00
36.9609 1486.00
37.0261 1439.00
37.0913 1362.00
37.1565 1381.00
37.2217 1410.00
37.2869 1382.00
37.3521 1391.00
37.4173 1364.00
37.4825 1198.00
37.5477 1188.00
37.6129 1118.00
37.6781 1076.00
37.7433 1082.00
37.8085 1205.00
37.8736 1282.00
37.9388 1639.00
38.004 2322.00
38.0692 3341.00
38.1344 4598.00
38.1996 5198.00
38.2648 5101.00
38.33 4321.00
38.3952 3459.00
38.4604 3023.00
38.5256 3207.00
38.5908 3440.00
38.656 3186.00
38.7212 2569.00
38.7864 1966.00
38.8516 1475.00
38.9168 1355.00
38.982 1338.00
39.0472 1298.00
39.1124 1336.00
39.1776 1306.00
39.2428 1349.00
39.308 1454.00
39.3732 1669.00
39.4384 2224.00
39.5036 2786.00
39.5688 3224.00
39.634 3401.00
39.6992 2860.00
39.7644 2349.00
39.8296 1715.00
39.8948 1331.00
39.96 1130.00
40.0252 957.00
40.0904 1008.00
40.1556 1080.00
40.2208 1048.00
40.286 1038.00
40.3512 1014.00
40.4164 965.00
40.4816 973.00
40.5468 887.00
40.612 857.00
40.6772 824.00
40.7424 791.00
40.8076 771.00
40.8728 799.00
40.938 817.00
41.0032 834.00
41.0684 846.00
41.1336 806.00
41.1988 846.00
41.264 838.00
41.3292 916.00
41.3944 883.00
41.4596 857.00
41.5248 961.00
41.59 1041.00
41.6552 1365.00
41.7204 1792.00
41.7856 2520.00
41.8508 3422.00
41.916 3873.00
41.9812 4034.00
42.0464 3326.00
42.1116 2638.00
42.1768 1994.00
42.242 1434.00
42.3072 1172.00
42.3724 1114.00
42.4376 940.00
42.5028 947.00
42.568 946.00
42.6332 1006.00
42.6983 1110.00
42.7635 1124.00
42.8287 1030.00
42.8939 1011.00
42.9591 904.00
43.0243 865.00
43.0895 797.00
43.1547 805.00
43.2199 836.00
43.2851 799.00
43.3503 815.00
43.4155 911.00
43.4807 1053.00
43.5459 1332.00
43.6111 1718.00
43.6763 2000.00
43.7415 1942.00
43.8067 1688.00
43.8719 1370.00
43.9371 1073.00
44.0023 1054.00
44.0675 957.00
44.1327 963.00
44.1979 900.00
44.2631 907.00
44.3283 831.00
44.3935 879.00
44.4587 789.00
44.5239 840.00
44.5891 944.00
44.6543 979.00
44.7195 1132.00
44.7847 1344.00
44.8499 1438.00
44.9151 1582.00
44.9803 1635.00
45.0455 1535.00
45.1107 1329.00
45.1759 1110.00
45.2411 1059.00
45.3063 919.00
45.3715 863.00
45.4367 831.00
45.5019 769.00
45.5671 795.00
45.6323 789.00
45.6975 740.00
45.7627 790.00
45.8279 762.00
45.8931 739.00
45.9583 774.00
46.0235 739.00
46.0887 728.00
46.1539 743.00
46.2191 690.00
46.2843 690.00
46.3495 714.00
46.4147 717.00
46.4799 713.00
46.5451 742.00
46.6103 669.00
46.6755 731.00
46.7407 713.00
46.8059 769.00
46.8711 794.00
46.9363 763.00
47.0015 860.00
47.0667 971.00
47.1319 1154.00
47.1971 1574.00
47.2623 2184.00
47.3275 2727.00
47.3927 2942.00
47.4579 2511.00
47.523 1956.00
47.5882 1528.00
47.6534 1247.00
47.7186 1057.00
47.7838 937.00
47.849 1008.00
47.9142 937.00
47.9794 963.00
48.0446 961.00
48.1098 878.00
48.175 842.00
48.2402 924.00
48.3054 1026.00
48.3706 1251.00
48.4358 1562.00
48.501 1747.00
48.5662 1917.00
48.6314 2139.00
48.6966 2432.00
48.7618 2891.00
48.827 3077.00
48.8922 2864.00
48.9574 2551.00
49.0226 1996.00
49.0878 1655.00
49.153 1323.00
49.2182 1080.00
49.2834 920.00
49.3486 791.00
49.4138 764.00
49.479 716.00
49.5442 698.00
49.6094 711.00
49.6746 706.00
49.7398 667.00
49.805 602.00
49.8702 655.00
49.9354 670.00
50.0006 653.00
50.0658 625.00
50.131 650.00
50.1962 624.00
50.2614 679.00
50.3266 695.00
50.3918 704.00
50.457 691.00
50.5222 779.00
50.5874 720.00
50.6526 739.00
50.7178 670.00
50.783 697.00
50.8482 598.00
50.9134 660.00
50.9786 642.00
51.0438 626.00
51.109 656.00
51.1742 719.00
51.2394 671.00
51.3046 674.00
51.3698 699.00
51.435 661.00
51.5002 711.00
51.5654 702.00
51.6306 901.00
51.6958 983.00
51.761 1099.00
51.8262 1195.00
51.8914 1063.00
51.9566 992.00
52.0218 952.00
52.087 906.00
52.1522 1088.00
52.2174 1111.00
52.2826 1147.00
52.3477 1067.00
52.4129 946.00
52.4781 837.00
52.5433 781.00
52.6085 736.00
52.6737 694.00
52.7389 740.00
52.8041 678.00
52.8693 733.00
52.9345 759.00
52.9997 925.00
53.0649 966.00
53.1301 1143.00
53.1953 1266.00
53.2605 1308.00
53.3257 1494.00
53.3909 1669.00
53.4561 1801.00
53.5213 1909.00
53.5865 1958.00
53.6517 1758.00
53.7169 1568.00
53.7821 1319.00
53.8473 1102.00
53.9125 966.00
53.9777 809.00
54.0429 764.00
54.1081 745.00
54.1733 731.00
54.2385 747.00
54.3037 750.00
54.3689 836.00
54.4341 924.00
54.4993 981.00
54.5645 1037.00
54.6297 975.00
54.6949 1048.00
54.7601 987.00
54.8253 869.00
54.8905 823.00
54.9557 806.00
55.0209 714.00
55.0861 693.00
55.1513 791.00
55.2165 709.00
55.2817 734.00
55.3469 774.00
55.4121 770.00
55.4773 781.00
55.5425 733.00
55.6077 735.00
55.6729 731.00
55.7381 732.00
55.8033 865.00
55.8685 920.00
55.9337 939.00
55.9989 886.00
56.0641 915.00
56.1293 848.00
56.1945 845.00
56.2597 842.00
56.3249 947.00
56.3901 1049.00
56.4553 1147.00
56.5205 1058.00
56.5857 1051.00
56.6509 1045.00
56.7161 1012.00
56.7813 1081.00
56.8465 1036.00
56.9117 991.00
56.9769 953.00
57.042 902.00
57.1073 778.00
57.1724 776.00
57.2376 752.00
57.3028 765.00
57.368 764.00
57.4332 724.00
57.4984 698.00
57.5636 630.00
57.6288 651.00
57.694 679.00
57.7592 622.00
57.8244 677.00
57.8896 641.00
57.9548 669.00
58.02 743.00
58.0852 742.00
58.1504 751.00
58.2156 819.00
58.2808 846.00
58.346 825.00
58.4112 864.00
58.4764 910.00
58.5416 943.00
58.6068 1138.00
58.672 1367.00
58.7372 1728.00
58.8024 2178.00
58.8676 2904.00
58.9328 3438.00
58.998 3914.00
59.0632 3889.00
59.1284 3794.00
59.1936 3474.00
59.2588 3202.00
59.324 2806.00
59.3892 2410.00
59.4544 2018.00
59.5196 1639.00
59.5848 1421.00
59.65 1293.00
59.7152 1203.00
59.7804 1193.00
59.8456 1145.00
59.9108 1000.00
59.976 933.00
60.0412 792.00
60.1064 799.00
60.1716 695.00
60.2368 764.00
60.302 695.00
60.3672 706.00
60.4324 689.00
60.4976 653.00
60.5628 686.00
60.628 638.00
60.6932 631.00
60.7584 630.00
60.8236 664.00
60.8888 647.00
60.954 649.00
61.0192 670.00
61.0844 650.00
61.1496 670.00
61.2148 665.00
61.28 690.00
61.3452 664.00
61.4104 695.00
61.4756 687.00
61.5408 719.00
61.606 758.00
61.6712 994.00
61.7364 1106.00
61.8016 1184.00
61.8667 1258.00
61.932 1319.00
61.9971 1283.00
62.0623 1161.00
62.1275 1024.00
62.1927 984.00
62.2579 873.00
62.3231 818.00
62.3883 818.00
62.4535 817.00
62.5187 779.00
62.5839 874.00
62.6491 882.00
62.7143 1031.00
62.7795 1206.00
62.8447 1357.00
62.9099 1353.00
62.9751 1430.00
63.0403 1250.00
63.1055 1177.00
63.1707 962.00
63.2359 865.00
63.3011 783.00
63.3663 807.00
63.4315 660.00
63.4967 657.00
63.5619 637.00
63.6271 664.00
63.6923 665.00
63.7575 703.00
63.8227 656.00
63.8879 635.00
63.9531 694.00
64.0183 646.00
64.0835 665.00
64.1487 586.00
64.2139 646.00
64.2791 619.00
64.3443 606.00
64.4095 612.00
64.4747 599.00
64.5399 642.00
64.6051 569.00
64.6703 632.00
64.7355 630.00
64.8007 688.00
64.8659 701.00
64.9311 744.00
64.9963 766.00
65.0615 814.00
65.1267 918.00
65.1919 1063.00
65.2571 1308.00
65.3223 1476.00
65.3875 1534.00
65.4527 1569.00
65.5179 1533.00
65.5831 1497.00
65.6483 1413.00
65.7135 1597.00
65.7787 1831.00
65.8439 2168.00
65.9091 2380.00
65.9743 2691.00
66.0395 2912.00
66.1047 2989.00
66.1699 2908.00
66.2351 2800.00
66.3003 2603.00
66.3655 2180.00
66.4307 1879.00
66.4959 1605.00
66.561 1252.00
66.6263 1151.00
66.6915 1046.00
66.7566 1010.00
66.8218 1040.00
66.887 1058.00
66.9522 1223.00
67.0174 1340.00
67.0826 1629.00
67.1478 1670.00
67.213 1794.00
67.2782 1748.00
67.3434 1599.00
67.4086 1470.00
67.4738 1354.00
67.539 1152.00
67.6042 992.00
67.6694 905.00
67.7346 813.00
67.7998 672.00
67.865 717.00
67.9302 697.00
67.9954 660.00
68.0606 608.00
68.1258 583.00
68.191 615.00
68.2562 574.00
68.3214 574.00
68.3866 579.00
68.4518 589.00
68.517 554.00
68.5822 620.00
68.6474 610.00
68.7126 554.00
68.7778 632.00
68.843 538.00
68.9082 580.00
68.9734 560.00
69.0386 538.00
69.1038 558.00
69.169 553.00
69.2342 577.00
69.2994 609.00
69.3646 682.00
69.4298 704.00
69.495 782.00
69.5602 897.00
69.6254 1045.00
69.6906 1120.00
69.7558 1098.00
69.821 1129.00
69.8862 1086.00
69.9514 1095.00
70.0166 1180.00
70.0818 1324.00
70.147 1426.00
70.2122 1524.00
70.2774 1467.00
70.3426 1403.00
70.4078 1390.00
70.473 1167.00
70.5382 1071.00
70.6034 942.00
70.6686 907.00
70.7338 766.00
70.799 742.00
70.8642 594.00
70.9294 654.00
70.9946 581.00
71.0598 601.00
71.125 589.00
71.1902 612.00
71.2554 576.00
71.3205 545.00
71.3858 570.00
71.451 523.00
71.5162 551.00
71.5813 535.00
71.6465 523.00
71.7117 544.00
71.7769 505.00
71.8421 536.00
71.9073 543.00
71.9725 547.00
72.0377 568.00
72.1029 588.00
72.1681 581.00
72.2333 580.00
72.2985 557.00
72.3637 617.00
72.4289 594.00
72.4941 611.00
72.5593 567.00
72.6245 636.00
72.6897 643.00
72.7549 674.00
72.8201 752.00
72.8853 731.00
72.9505 770.00
73.0157 764.00
73.0809 722.00
73.1461 735.00
73.2113 738.00
73.2765 711.00
73.3417 703.00
73.4069 731.00
73.4721 639.00
73.5373 661.00
73.6025 668.00
73.6677 738.00
73.7329 771.00
73.7981 882.00
73.8633 958.00
73.9285 1053.00
73.9937 1130.00
74.0589 1074.00
74.1241 1091.00
74.1893 967.00
74.2545 942.00
74.3197 808.00
74.3849 808.00
74.4501 719.00
74.5153 730.00
74.5805 642.00
74.6457 664.00
74.7109 625.00
74.7761 618.00
74.8413 556.00
74.9065 543.00
74.9717 593.00
75.0369 600.00
75.1021 585.00
75.1673 627.00
75.2325 678.00
75.2977 709.00
75.3629 747.00
75.4281 705.00
75.4933 655.00
75.5585 639.00
75.6237 600.00
75.6889 582.00
75.7541 598.00
75.8193 610.00
75.8845 592.00
75.9497 596.00
76.0149 596.00
76.0801 585.00
76.1452 650.00
76.2104 686.00
76.2756 667.00
76.3409 777.00
76.406 739.00
76.4712 787.00
76.5364 758.00
76.6016 762.00
76.6668 708.00
76.732 628.00
76.7972 677.00
76.8624 627.00
76.9276 621.00
76.9928 631.00
77.058 624.00
77.1232 646.00
77.1884 751.00
77.2536 741.00
77.3188 887.00
77.384 889.00
77.4492 876.00
77.5144 946.00
77.5796 927.00
77.6448 1071.00
77.71 1036.00
77.7752 1033.00
77.8404 945.00
77.9056 945.00
77.9708 930.00
78.036 899.00
78.1012 812.00
78.1664 756.00
78.2316 776.00
78.2968 782.00
78.362 707.00
78.4272 767.00
78.4924 794.00
78.5576 756.00
78.6228 811.00
78.688 793.00
78.7532 820.00
78.8184 829.00
78.8836 819.00
78.9488 884.00
79.014 918.00
79.0792 1004.00
79.1444 1023.00
79.2096 845.00
79.2748 831.00
79.34 787.00
79.4052 712.00
79.4704 751.00
79.5356 673.00
79.6008 641.00
79.666 687.00
79.7312 656.00
79.7964 696.00
79.8616 722.00
79.9268 826.00
79.992 909.00
80.0572 964.00
80.1224 1002.00
80.1876 1033.00
80.2528 989.00
80.318 965.00
80.3832 892.00
80.4484 882.00
80.5136 848.00
80.5788 771.00
80.644 703.00
80.7092 698.00
80.7744 655.00
80.8396 651.00
80.9048 627.00
80.9699 574.00
81.0351 560.00
81.1003 562.00
81.1655 544.00
81.2307 589.00
81.2959 597.00
81.3611 560.00
81.4263 549.00
81.4915 570.00
81.5567 554.00
81.6219 596.00
81.6871 543.00
81.7523 552.00
81.8175 549.00
81.8827 568.00
81.9479 583.00
82.0131 579.00
82.0783 616.00
82.1435 619.00
82.2087 670.00
82.2739 718.00
82.3391 709.00
82.4043 810.00
82.4695 801.00
82.5347 842.00
82.5999 780.00
82.6651 750.00
82.7303 685.00
82.7955 659.00
82.8607 685.00
82.9259 578.00
82.9911 552.00
83.0563 562.00
83.1215 551.00
83.1867 568.00
83.2519 524.00
83.3171 532.00
83.3823 537.00
83.4475 543.00
83.5127 540.00
83.5779 524.00
83.6431 529.00
83.7083 571.00
83.7735 519.00
83.8387 525.00
83.9039 572.00
83.9691 534.00
84.0343 581.00
84.0995 556.00
84.1647 551.00
84.2299 564.00
84.2951 568.00
84.3603 581.00
84.4255 614.00
84.4907 646.00
84.5559 671.00
84.6211 789.00
84.6863 826.00
84.7515 874.00
84.8167 917.00
84.8819 916.00
84.9471 873.00
85.0123 877.00
85.0775 851.00
85.1427 751.00
85.2079 717.00
85.2731 665.00
85.3383 622.00
85.4035 659.00
85.4687 582.00
85.5339 562.00
85.5991 600.00
85.6643 549.00
85.7295 501.00
85.7946 565.00
85.8598 549.00
85.925 530.00
85.9903 576.00
86.0554 546.00
86.1206 530.00
86.1858 509.00
86.251 527.00
86.3162 629.00
86.3814 544.00
86.4466 627.00
86.5118 583.00
86.577 653.00
86.6422 663.00
86.7074 654.00
86.7726 618.00
86.8378 605.00
86.903 556.00
86.9682 598.00
87.0334 545.00
87.0986 554.00
87.1638 532.00
87.229 533.00
87.2942 508.00
87.3594 522.00
87.4246 516.00
87.4898 522.00
87.555 474.00
87.6202 488.00
87.6854 514.00
87.7506 550.00
87.8158 563.00
87.881 470.00
87.9462 463.00
88.0114 508.00
88.0766 547.00
88.1418 581.00
88.207 598.00
88.2722 602.00
88.3374 668.00
88.4026 706.00
88.4678 663.00
88.533 763.00
88.5982 800.00
88.6634 766.00
88.7286 810.00
88.7938 780.00
88.859 768.00
88.9242 727.00
88.9894 712.00
89.0546 688.00
89.1198 683.00
89.185 644.00
89.2502 663.00
89.3154 602.00
89.3806 579.00
89.4458 615.00
89.511 548.00
89.5762 616.00
89.6414 576.00
89.7066 660.00
89.7718 597.00
89.837 679.00
89.9022 698.00
89.9674 692.00
90.0326 706.00
90.0978 676.00
90.163 685.00
90.2282 618.00
90.2934 595.00
90.3586 531.00
90.4238 563.00
90.489 586.00
90.5542 544.00
90.6193 542.00
90.6845 520.00
90.7497 519.00
90.8149 533.00
90.8801 514.00
90.9453 574.00
91.0105 539.00
91.0757 620.00
91.1409 523.00
91.2061 565.00
91.2713 539.00
91.3365 566.00
91.4017 540.00
91.4669 567.00
91.5321 562.00
91.5973 562.00
91.6625 585.00
91.7277 646.00
91.7929 657.00
91.8581 729.00
91.9233 736.00
91.9885 701.00
92.0537 693.00
92.1189 691.00
92.1841 742.00
92.2493 707.00
92.3145 756.00
92.3797 778.00
92.4449 781.00
92.5101 754.00
92.5753 754.00
92.6405 832.00
92.7057 783.00
92.7709 746.00
92.8361 781.00
92.9013 734.00
92.9665 730.00
93.0317 719.00
93.0969 704.00
93.1621 675.00
93.2273 699.00
93.2925 744.00
93.3577 676.00
93.4229 644.00
93.4881 666.00
93.5533 626.00
93.6185 617.00
93.6837 620.00
93.7489 584.00
93.8141 605.00
93.8793 591.00
93.9445 573.00
94.0097 555.00
94.0749 609.00
94.1401 574.00
94.2053 576.00
94.2705 592.00
94.3357 543.00
94.4009 598.00
94.4661 548.00
94.5313 547.00
94.5965 517.00
94.6617 551.00
94.7269 492.00
94.7921 484.00
94.8573 494.00
94.9225 518.00
94.9877 549.00
95.0529 553.00
95.1181 536.00
95.1833 566.00
95.2485 564.00
95.3137 552.00
95.3789 575.00
95.444 588.00
95.5092 634.00
95.5744 620.00
95.6396 608.00
95.7048 636.00
95.77 646.00
95.8352 700.00
95.9004 689.00
95.9656 649.00
96.0308 661.00
96.096 630.00
96.1612 650.00
96.2264 618.00
96.2916 559.00
96.3568 611.00
96.422 575.00
96.4872 572.00
96.5524 556.00
96.6176 532.00
96.6828 539.00
96.748 561.00
96.8132 551.00
96.8784 584.00
96.9436 635.00
97.0088 655.00
97.074 644.00
97.1392 661.00
97.2044 688.00
97.2696 672.00
97.3348 725.00
97.4 686.00
97.4652 705.00
97.5304 708.00
97.5956 736.00
97.6608 686.00
97.726 728.00
97.7912 731.00
97.8564 755.00
97.9216 847.00
97.9868 752.00
98.052 765.00
98.1172 719.00
98.1824 772.00
98.2476 727.00
98.3128 761.00
98.378 734.00
98.4432 785.00
98.5084 739.00
98.5736 688.00
98.6388 630.00
98.704 651.00
98.7692 610.00
98.8344 618.00
98.8996 668.00
98.9648 687.00
99.03 690.00
99.0952 717.00
99.1604 810.00
99.2256 820.00
99.2908 840.00
99.356 966.00
99.4212 945.00
99.4864 995.00
99.5516 939.00
99.6168 966.00
99.682 1041.00
99.7472 1061.00
99.8124 1026.00
99.8776 963.00
99.9428 944.00
100.008 910.00
100.073 859.00
100.095 873.00