File: data/xrd_creation/results/Na_287.xy
9.903433 2847.00
9.968632 2803.00
10.0338 2773.00
10.099 2686.00
10.1642 2687.00
10.2294 2616.00
10.2946 2630.00
10.3598 2574.00
10.425 2686.00
10.4902 2688.00
10.5554 2579.00
10.6206 2626.00
10.6858 2630.00
10.751 2597.00
10.8162 2501.00
10.8814 2532.00
10.9466 2450.00
11.0118 2428.00
11.077 2466.00
11.1422 2461.00
11.2074 2366.00
11.2726 2305.00
11.3378 2352.00
11.403 2440.00
11.4682 2374.00
11.5334 2422.00
11.5986 2337.00
11.6638 2398.00
11.729 2299.00
11.7942 2315.00
11.8594 2275.00
11.9246 2195.00
11.9898 2214.00
12.055 2172.00
12.1202 2189.00
12.1854 2216.00
12.2506 2199.00
12.3158 2316.00
12.381 2206.00
12.4462 2200.00
12.5114 2134.00
12.5766 2114.00
12.6418 2175.00
12.707 2180.00
12.7722 2140.00
12.8374 2198.00
12.9026 2114.00
12.9678 2175.00
13.033 2095.00
13.0982 2047.00
13.1634 2081.00
13.2286 2134.00
13.2938 2070.00
13.359 2024.00
13.4242 2067.00
13.4894 2096.00
13.5546 2114.00
13.6198 2207.00
13.685 2222.00
13.7502 2309.00
13.8154 2264.00
13.8805 2259.00
13.9457 2140.00
14.0109 2145.00
14.0761 2011.00
14.1413 2226.00
14.2065 2211.00
14.2717 2142.00
14.3369 2101.00
14.4021 2213.00
14.4673 2198.00
14.5325 2438.00
14.5977 2403.00
14.6629 2460.00
14.7281 2125.00
14.7933 2013.00
14.8585 2030.00
14.9237 2132.00
14.9889 2057.00
15.0541 2004.00
15.1193 1987.00
15.1845 1923.00
15.2497 1993.00
15.3149 2036.00
15.3801 2026.00
15.4453 2093.00
15.5105 2263.00
15.5757 2426.00
15.6409 2500.00
15.7061 2231.00
15.7713 1976.00
15.8365 1954.00
15.9017 1966.00
15.9669 1965.00
16.0321 1989.00
16.0973 2023.00
16.1625 1838.00
16.2277 1866.00
16.2929 1901.00
16.3581 1858.00
16.4233 1901.00
16.4885 1731.00
16.5537 1833.00
16.6189 1798.00
16.6841 1849.00
16.7493 1814.00
16.8145 1818.00
16.8797 1792.00
16.9449 1781.00
17.0101 1786.00
17.0753 1784.00
17.1405 1705.00
17.2057 1763.00
17.2709 1718.00
17.3361 1649.00
17.4013 1806.00
17.4665 1708.00
17.5317 1709.00
17.5969 1709.00
17.6621 1729.00
17.7273 1812.00
17.7925 1654.00
17.8577 1717.00
17.9229 1614.00
17.9881 1673.00
18.0533 1684.00
18.1185 1668.00
18.1837 1657.00
18.2489 1771.00
18.3141 1717.00
18.3793 1600.00
18.4445 1593.00
18.5097 1674.00
18.5749 1640.00
18.6401 1693.00
18.7052 1637.00
18.7704 1581.00
18.8356 1665.00
18.9008 1688.00
18.966 1819.00
19.0312 1889.00
19.0964 1770.00
19.1616 1893.00
19.2268 2023.00
19.292 1951.00
19.3572 1861.00
19.4224 1753.00
19.4876 1672.00
19.5528 1628.00
19.618 1790.00
19.6832 1795.00
19.7484 1976.00
19.8136 1918.00
19.8788 1804.00
19.944 1748.00
20.0092 1896.00
20.0744 1986.00
20.1396 2024.00
20.2048 2422.00
20.27 2776.00
20.3352 2965.00
20.4004 2327.00
20.4656 1808.00
20.5308 1953.00
20.596 1962.00
20.6612 2256.00
20.7264 2593.00
20.7916 3379.00
20.8568 5323.00
20.922 9782.00
20.9872 16460.00
21.0524 22038.00
21.1176 12596.00
21.1828 3769.00
21.248 2299.00
21.3132 1982.00
21.3784 1815.00
21.4436 1773.00
21.5088 1640.00
21.574 1567.00
21.6392 1696.00
21.7044 1586.00
21.7696 1530.00
21.8348 1618.00
21.9 1633.00
21.9652 1602.00
22.0304 1562.00
22.0956 1601.00
22.1608 1558.00
22.226 1484.00
22.2912 1513.00
22.3564 1482.00
22.4216 1438.00
22.4868 1485.00
22.552 1569.00
22.6172 1533.00
22.6824 1629.00
22.7476 1514.00
22.8128 1475.00
22.878 1463.00
22.9432 1423.00
23.0084 1460.00
23.0736 1476.00
23.1388 1455.00
23.204 1513.00
23.2692 1418.00
23.3344 1333.00
23.3996 1467.00
23.4647 1415.00
23.5299 1461.00
23.5951 1422.00
23.6603 1457.00
23.7255 1442.00
23.7907 1454.00
23.8559 1470.00
23.9211 1432.00
23.9863 1541.00
24.0515 1533.00
24.1167 1715.00
24.1819 1886.00
24.2471 2234.00
24.3123 2437.00
24.3775 1996.00
24.4427 1770.00
24.5079 1883.00
24.5731 1708.00
24.6383 1517.00
24.7035 1463.00
24.7687 1484.00
24.8339 1428.00
24.8991 1436.00
24.9643 1424.00
25.0295 1446.00
25.0947 1402.00
25.1599 1424.00
25.2251 1438.00
25.2903 1326.00
25.3555 1336.00
25.4207 1411.00
25.4859 1386.00
25.5511 1429.00
25.6163 1596.00
25.6815 1807.00
25.7467 2111.00
25.8119 2101.00
25.8771 1635.00
25.9423 1423.00
26.0075 1365.00
26.0727 1332.00
26.1379 1427.00
26.2031 1353.00
26.2683 1382.00
26.3335 1416.00
26.3987 1405.00
26.4639 1379.00
26.5291 1420.00
26.5943 1381.00
26.6595 1354.00
26.7247 1403.00
26.7899 1256.00
26.8551 1349.00
26.9203 1284.00
26.9855 1330.00
27.0507 1332.00
27.1159 1358.00
27.1811 1344.00
27.2463 1428.00
27.3115 1423.00
27.3767 1594.00
27.4419 1936.00
27.5071 2418.00
27.5723 2119.00
27.6375 1677.00
27.7027 1392.00
27.7679 1344.00
27.8331 1380.00
27.8983 1285.00
27.9635 1439.00
28.0287 1355.00
28.0939 1410.00
28.1591 1321.00
28.2243 1355.00
28.2894 1435.00
28.3546 1506.00
28.4198 1415.00
28.485 1484.00
28.5502 1425.00
28.6154 1414.00
28.6806 1355.00
28.7458 1386.00
28.811 1380.00
28.8762 1355.00
28.9414 1464.00
29.0066 1454.00
29.0718 1631.00
29.137 1678.00
29.2022 1564.00
29.2674 1466.00
29.3326 1586.00
29.3978 1769.00
29.463 1795.00
29.5282 1643.00
29.5934 1542.00
29.6586 1489.00
29.7238 1600.00
29.789 1574.00
29.8542 1550.00
29.9194 1669.00
29.9846 1736.00
30.0498 1737.00
30.115 2145.00
30.1802 2331.00
30.2454 2575.00
30.3106 3088.00
30.3758 3455.00
30.441 3478.00
30.5062 3358.00
30.5714 3247.00
30.6366 3435.00
30.7018 3809.00
30.767 3848.00
30.8322 3568.00
30.8974 3060.00
30.9626 2736.00
31.0278 2583.00
31.093 2428.00
31.1582 2289.00
31.2234 2062.00
31.2886 1974.00
31.3538 1903.00
31.419 2080.00
31.4842 2466.00
31.5494 2868.00
31.6146 2629.00
31.6798 2373.00
31.745 2634.00
31.8102 3157.00
31.8754 3936.00
31.9406 4771.00
32.0058 5442.00
32.071 4870.00
32.1362 4117.00
32.2014 3507.00
32.2666 3650.00
32.3318 4590.00
32.397 5738.00
32.4622 4430.00
32.5274 2859.00
32.5926 1919.00
32.6578 1716.00
32.723 1637.00
32.7882 1614.00
32.8534 1513.00
32.9186 1589.00
32.9838 1621.00
33.0489 1589.00
33.1141 1501.00
33.1793 1576.00
33.2445 1602.00
33.3097 1643.00
33.3749 1698.00
33.4401 1729.00
33.5053 1777.00
33.5705 1901.00
33.6357 2013.00
33.7009 2282.00
33.7661 2469.00
33.8313 2521.00
33.8965 2273.00
33.9617 2409.00
34.0269 2458.00
34.0921 2655.00
34.1573 3035.00
34.2225 4337.00
34.2877 7100.00
34.3529 12939.00
34.4181 23534.00
34.4833 28075.00
34.5485 15722.00
34.6137 6330.00
34.6789 3208.00
34.7441 2847.00
34.8093 2622.00
34.8745 2208.00
34.9397 2017.00
35.0049 1937.00
35.0701 2009.00
35.1353 2427.00
35.2005 2986.00
35.2657 3812.00
35.3309 4306.00
35.3961 4726.00
35.4613 5423.00
35.5265 5589.00
35.5917 4891.00
35.6569 3977.00
35.7221 2918.00
35.7873 2268.00
35.8525 2039.00
35.9177 1852.00
35.9829 1817.00
36.0481 1690.00
36.1133 1650.00
36.1785 1528.00
36.2437 1441.00
36.3089 1509.00
36.3741 1427.00
36.4393 1435.00
36.5045 1337.00
36.5697 1383.00
36.6349 1420.00
36.7001 1361.00
36.7653 1355.00
36.8305 1380.00
36.8957 1362.00
36.9609 1448.00
37.0261 1445.00
37.0913 1430.00
37.1565 1499.00
37.2217 1545.00
37.2869 1623.00
37.3521 1767.00
37.4173 1741.00
37.4825 1980.00
37.5477 2170.00
37.6129 2398.00
37.6781 2540.00
37.7433 2345.00
37.8085 2303.00
37.8736 2173.00
37.9388 2025.00
38.004 2029.00
38.0692 2121.00
38.1344 1980.00
38.1996 1879.00
38.2648 1784.00
38.33 1858.00
38.3952 1983.00
38.4604 2274.00
38.5256 2707.00
38.5908 2992.00
38.656 3152.00
38.7212 3109.00
38.7864 2829.00
38.8516 2526.00
38.9168 2107.00
38.982 1953.00
39.0472 1837.00
39.1124 1902.00
39.1776 1806.00
39.2428 1589.00
39.308 1424.00
39.3732 1328.00
39.4384 1371.00
39.5036 1330.00
39.5688 1346.00
39.634 1476.00
39.6992 1689.00
39.7644 1810.00
39.8296 1603.00
39.8948 1464.00
39.96 1333.00
40.0252 1252.00
40.0904 1227.00
40.1556 1187.00
40.2208 1196.00
40.286 1281.00
40.3512 1321.00
40.4164 1340.00
40.4816 1396.00
40.5468 1387.00
40.612 1348.00
40.6772 1205.00
40.7424 1252.00
40.8076 1280.00
40.8728 1359.00
40.938 1351.00
41.0032 1402.00
41.0684 1326.00
41.1336 1240.00
41.1988 1256.00
41.264 1172.00
41.3292 1261.00
41.3944 1195.00
41.4596 1247.00
41.5248 1238.00
41.59 1360.00
41.6552 1671.00
41.7204 1743.00
41.7856 1538.00
41.8508 1434.00
41.916 1183.00
41.9812 1153.00
42.0464 1187.00
42.1116 1129.00
42.1768 1152.00
42.242 1281.00
42.3072 1300.00
42.3724 1684.00
42.4376 2235.00
42.5028 2093.00
42.568 1738.00
42.6332 1328.00
42.6983 1188.00
42.7635 1311.00
42.8287 1338.00
42.8939 1466.00
42.9591 1406.00
43.0243 1430.00
43.0895 1381.00
43.1547 1419.00
43.2199 1509.00
43.2851 1576.00
43.3503 1530.00
43.4155 1458.00
43.4807 1385.00
43.5459 1371.00
43.6111 1185.00
43.6763 1215.00
43.7415 1112.00
43.8067 1147.00
43.8719 1155.00
43.9371 1216.00
44.0023 1379.00
44.0675 1637.00
44.1327 1530.00
44.1979 1473.00
44.2631 1316.00
44.3283 1171.00
44.3935 1123.00
44.4587 1109.00
44.5239 1159.00
44.5891 1221.00
44.6543 1393.00
44.7195 1408.00
44.7847 1387.00
44.8499 1298.00
44.9151 1302.00
44.9803 1286.00
45.0455 1164.00
45.1107 1185.00
45.1759 1233.00
45.2411 1180.00
45.3063 1165.00
45.3715 1344.00
45.4367 1505.00
45.5019 1432.00
45.5671 1456.00
45.6323 1509.00
45.6975 1562.00
45.7627 1642.00
45.8279 1643.00
45.8931 1673.00
45.9583 1737.00
46.0235 1797.00
46.0887 1870.00
46.1539 1821.00
46.2191 1709.00
46.2843 1483.00
46.3495 1376.00
46.4147 1339.00
46.4799 1292.00
46.5451 1265.00
46.6103 1333.00
46.6755 1215.00
46.7407 1225.00
46.8059 1148.00
46.8711 1055.00
46.9363 1078.00
47.0015 1060.00
47.0667 1007.00
47.1319 1021.00
47.1971 1056.00
47.2623 1144.00
47.3275 1210.00
47.3927 1125.00
47.4579 1089.00
47.523 1053.00
47.5882 1084.00
47.6534 1074.00
47.7186 1058.00
47.7838 1024.00
47.849 1118.00
47.9142 932.00
47.9794 1019.00
48.0446 1018.00
48.1098 1019.00
48.175 1029.00
48.2402 1128.00
48.3054 1220.00
48.3706 1247.00
48.4358 1385.00
48.501 1407.00
48.5662 1395.00
48.6314 1336.00
48.6966 1556.00
48.7618 1642.00
48.827 1906.00
48.8922 1875.00
48.9574 1868.00
49.0226 1687.00
49.0878 1673.00
49.153 1751.00
49.2182 2326.00
49.2834 3651.00
49.3486 5365.00
49.4138 4003.00
49.479 3312.00
49.5442 2168.00
49.6094 1467.00
49.6746 1320.00
49.7398 1294.00
49.805 1326.00
49.8702 1242.00
49.9354 1182.00
50.0006 1142.00
50.0658 1123.00
50.131 1029.00
50.1962 1006.00
50.2614 1120.00
50.3266 1016.00
50.3918 1055.00
50.457 1096.00
50.5222 1183.00
50.5874 1219.00
50.6526 1142.00
50.7178 1125.00
50.783 1038.00
50.8482 923.00
50.9134 988.00
50.9786 946.00
51.0438 1037.00
51.109 1099.00
51.1742 1091.00
51.2394 1007.00
51.3046 1037.00
51.3698 1010.00
51.435 1121.00
51.5002 1147.00
51.5654 1139.00
51.6306 1068.00
51.6958 1015.00
51.761 933.00
51.8262 927.00
51.8914 964.00
51.9566 913.00
52.0218 953.00
52.087 977.00
52.1522 995.00
52.2174 1041.00
52.2826 985.00
52.3477 950.00
52.4129 1105.00
52.4781 1197.00
52.5433 1282.00
52.6085 1241.00
52.6737 1186.00
52.7389 1037.00
52.8041 975.00
52.8693 987.00
52.9345 967.00
52.9997 1030.00
53.0649 1016.00
53.1301 1008.00
53.1953 1043.00
53.2605 997.00
53.3257 921.00
53.3909 960.00
53.4561 949.00
53.5213 1010.00
53.5865 1032.00
53.6517 965.00
53.7169 1012.00
53.7821 1079.00
53.8473 980.00
53.9125 947.00
53.9777 935.00
54.0429 987.00
54.1081 1005.00
54.1733 1013.00
54.2385 970.00
54.3037 1001.00
54.3689 1031.00
54.4341 1160.00
54.4993 1223.00
54.5645 1199.00
54.6297 1253.00
54.6949 1269.00
54.7601 1215.00
54.8253 1109.00
54.8905 1103.00
54.9557 1125.00
55.0209 1070.00
55.0861 1033.00
55.1513 934.00
55.2165 892.00
55.2817 916.00
55.3469 861.00
55.4121 908.00
55.4773 893.00
55.5425 901.00
55.6077 925.00
55.6729 943.00
55.7381 893.00
55.8033 954.00
55.8685 959.00
55.9337 976.00
55.9989 926.00
56.0641 964.00
56.1293 928.00
56.1945 877.00
56.2597 885.00
56.3249 904.00
56.3901 902.00
56.4553 931.00
56.5205 934.00
56.5857 877.00
56.6509 924.00
56.7161 887.00
56.7813 950.00
56.8465 922.00
56.9117 921.00
56.9769 898.00
57.042 929.00
57.1073 914.00
57.1724 916.00
57.2376 947.00
57.3028 954.00
57.368 955.00
57.4332 1026.00
57.4984 1033.00
57.5636 1145.00
57.6288 1315.00
57.694 1458.00
57.7592 1594.00
57.8244 1628.00
57.8896 1638.00
57.9548 1638.00
58.02 1484.00
58.0852 1376.00
58.1504 1269.00
58.2156 1230.00
58.2808 1192.00
58.346 1211.00
58.4112 1286.00
58.4764 1020.00
58.5416 1033.00
58.6068 973.00
58.672 928.00
58.7372 940.00
58.8024 920.00
58.8676 970.00
58.9328 918.00
58.998 906.00
59.0632 945.00
59.1284 994.00
59.1936 1018.00
59.2588 1104.00
59.324 1129.00
59.3892 1096.00
59.4544 1142.00
59.5196 1199.00
59.5848 1179.00
59.65 1046.00
59.7152 1112.00
59.7804 1081.00
59.8456 1104.00
59.9108 1196.00
59.976 1258.00
60.0412 1432.00
60.1064 1514.00
60.1716 1543.00
60.2368 1514.00
60.302 1552.00
60.3672 1466.00
60.4324 1374.00
60.4976 1373.00
60.5628 1383.00
60.628 1420.00
60.6932 1382.00
60.7584 1446.00
60.8236 1403.00
60.8888 1363.00
60.954 1392.00
61.0192 1542.00
61.0844 1649.00
61.1496 1999.00
61.2148 2302.00
61.28 3102.00
61.3452 4549.00
61.4104 5860.00
61.4756 3570.00
61.5408 3477.00
61.606 2913.00
61.6712 1700.00
61.7364 1377.00
61.8016 1339.00
61.8667 1081.00
61.932 1043.00
61.9971 1050.00
62.0623 1002.00
62.1275 912.00
62.1927 912.00
62.2579 936.00
62.3231 885.00
62.3883 916.00
62.4535 949.00
62.5187 960.00
62.5839 913.00
62.6491 985.00
62.7143 972.00
62.7795 1064.00
62.8447 1117.00
62.9099 1223.00
62.9751 1248.00
63.0403 1195.00
63.1055 1115.00
63.1707 1104.00
63.2359 1058.00
63.3011 920.00
63.3663 900.00
63.4315 879.00
63.4967 873.00
63.5619 861.00
63.6271 907.00
63.6923 837.00
63.7575 924.00
63.8227 854.00
63.8879 939.00
63.9531 985.00
64.0183 1021.00
64.0835 1125.00
64.1487 1218.00
64.2139 1341.00
64.2791 1507.00
64.3443 1505.00
64.4095 1562.00
64.4747 1617.00
64.5399 1739.00
64.6051 1738.00
64.6703 1956.00
64.7355 2230.00
64.8007 2441.00
64.8659 2666.00
64.9311 2711.00
64.9963 2617.00
65.0615 2407.00
65.1267 2020.00
65.1919 1789.00
65.2571 1515.00
65.3223 1285.00
65.3875 1151.00
65.4527 1237.00
65.5179 1378.00
65.5831 1299.00
65.6483 1054.00
65.7135 1113.00
65.7787 1063.00
65.8439 842.00
65.9091 923.00
65.9743 875.00
66.0395 870.00
66.1047 865.00
66.1699 787.00
66.2351 770.00
66.3003 792.00
66.3655 852.00
66.4307 848.00
66.4959 702.00
66.561 773.00
66.6263 720.00
66.6915 730.00
66.7566 778.00
66.8218 758.00
66.887 741.00
66.9522 762.00
67.0174 749.00
67.0826 709.00
67.1478 770.00
67.213 763.00
67.2782 769.00
67.3434 740.00
67.4086 773.00
67.4738 720.00
67.539 768.00
67.6042 760.00
67.6694 767.00
67.7346 774.00
67.7998 720.00
67.865 726.00
67.9302 697.00
67.9954 694.00
68.0606 691.00
68.1258 684.00
68.191 736.00
68.2562 716.00
68.3214 700.00
68.3866 748.00
68.4518 754.00
68.517 745.00
68.5822 770.00
68.6474 725.00
68.7126 764.00
68.7778 843.00
68.843 751.00
68.9082 762.00
68.9734 819.00
69.0386 899.00
69.1038 823.00
69.169 800.00
69.2342 840.00
69.2994 899.00
69.3646 929.00
69.4298 985.00
69.495 969.00
69.5602 1024.00
69.6254 1089.00
69.6906 1112.00
69.7558 1084.00
69.821 1122.00
69.8862 1128.00
69.9514 1100.00
70.0166 999.00
70.0818 934.00
70.147 1034.00
70.2122 946.00
70.2774 849.00
70.3426 991.00
70.4078 978.00
70.473 1019.00
70.5382 1054.00
70.6034 1043.00
70.6686 969.00
70.7338 969.00
70.799 954.00
70.8642 892.00
70.9294 907.00
70.9946 848.00
71.0598 850.00
71.125 773.00
71.1902 773.00
71.2554 737.00
71.3205 756.00
71.3858 735.00
71.451 773.00
71.5162 758.00
71.5813 733.00
71.6465 703.00
71.7117 763.00
71.7769 744.00
71.8421 819.00
71.9073 861.00
71.9725 932.00
72.0377 1101.00
72.1029 1307.00
72.1681 1686.00
72.2333 1321.00
72.2985 1080.00
72.3637 1311.00
72.4289 1045.00
72.4941 858.00
72.5593 862.00
72.6245 865.00
72.6897 855.00
72.7549 885.00
72.8201 848.00
72.8853 815.00
72.9505 847.00
73.0157 728.00
73.0809 755.00
73.1461 756.00
73.2113 734.00
73.2765 712.00
73.3417 685.00
73.4069 661.00
73.4721 637.00
73.5373 648.00
73.6025 685.00
73.6677 708.00
73.7329 737.00
73.7981 737.00
73.8633 766.00
73.9285 772.00
73.9937 876.00
74.0589 877.00
74.1241 815.00
74.1893 823.00
74.2545 796.00
74.3197 768.00
74.3849 731.00
74.4501 765.00
74.5153 663.00
74.5805 745.00
74.6457 739.00
74.7109 709.00
74.7761 687.00
74.8413 648.00
74.9065 658.00
74.9717 626.00
75.0369 679.00
75.1021 652.00
75.1673 628.00
75.2325 648.00
75.2977 623.00
75.3629 624.00
75.4281 662.00
75.4933 615.00
75.5585 642.00
75.6237 636.00
75.6889 670.00
75.7541 680.00
75.8193 679.00
75.8845 743.00
75.9497 785.00
76.0149 955.00
76.0801 807.00
76.1452 693.00
76.2104 727.00
76.2756 722.00
76.3409 690.00
76.406 632.00
76.4712 626.00
76.5364 634.00
76.6016 615.00
76.6668 605.00
76.732 594.00
76.7972 622.00
76.8624 638.00
76.9276 626.00
76.9928 656.00
77.058 649.00
77.1232 636.00
77.1884 632.00
77.2536 672.00
77.3188 639.00
77.384 643.00
77.4492 616.00
77.5144 656.00
77.5796 610.00
77.6448 654.00
77.71 622.00
77.7752 631.00
77.8404 643.00
77.9056 622.00
77.9708 667.00
78.036 715.00
78.1012 675.00
78.1664 632.00
78.2316 688.00
78.2968 646.00
78.362 620.00
78.4272 660.00
78.4924 684.00
78.5576 655.00
78.6228 649.00
78.688 631.00
78.7532 663.00
78.8184 637.00
78.8836 664.00
78.9488 673.00
79.014 693.00
79.0792 682.00
79.1444 679.00
79.2096 655.00
79.2748 671.00
79.34 674.00
79.4052 650.00
79.4704 628.00
79.5356 608.00
79.6008 616.00
79.666 608.00
79.7312 628.00
79.7964 661.00
79.8616 638.00
79.9268 602.00
79.992 596.00
80.0572 583.00
80.1224 607.00
80.1876 580.00
80.2528 634.00
80.318 655.00
80.3832 605.00
80.4484 645.00
80.5136 578.00
80.5788 595.00
80.644 656.00
80.7092 651.00
80.7744 601.00
80.8396 592.00
80.9048 578.00
80.9699 636.00
81.0351 652.00
81.1003 670.00
81.1655 593.00
81.2307 607.00
81.2959 586.00
81.3611 624.00
81.4263 643.00
81.4915 575.00
81.5567 574.00
81.6219 617.00
81.6871 628.00
81.7523 651.00
81.8175 668.00
81.8827 668.00
81.9479 646.00
82.0131 687.00
82.0783 706.00
82.1435 849.00
82.2087 1037.00
82.2739 1390.00
82.3391 1250.00
82.4043 935.00
82.4695 964.00
82.5347 1085.00
82.5999 925.00
82.6651 773.00
82.7303 736.00
82.7955 733.00
82.8607 643.00
82.9259 692.00
82.9911 654.00
83.0563 627.00
83.1215 656.00
83.1867 658.00
83.2519 654.00
83.3171 640.00
83.3823 693.00
83.4475 669.00
83.5127 649.00
83.5779 693.00
83.6431 611.00
83.7083 684.00
83.7735 646.00
83.8387 681.00
83.9039 648.00
83.9691 676.00
84.0343 674.00
84.0995 672.00
84.1647 645.00
84.2299 675.00
84.2951 651.00
84.3603 720.00
84.4255 734.00
84.4907 703.00
84.5559 748.00
84.6211 737.00
84.6863 708.00
84.7515 725.00
84.8167 679.00
84.8819 703.00
84.9471 620.00
85.0123 664.00
85.0775 657.00
85.1427 647.00
85.2079 662.00
85.2731 658.00
85.3383 658.00
85.4035 623.00
85.4687 685.00
85.5339 637.00
85.5991 649.00
85.6643 661.00
85.7295 644.00
85.7946 698.00
85.8598 662.00
85.925 689.00
85.9903 698.00
86.0554 731.00
86.1206 671.00
86.1858 631.00
86.251 723.00
86.3162 654.00
86.3814 653.00
86.4466 643.00
86.5118 619.00
86.577 602.00
86.6422 560.00
86.7074 599.00
86.7726 595.00
86.8378 632.00
86.903 597.00
86.9682 592.00
87.0334 618.00
87.0986 622.00
87.1638 619.00
87.229 617.00
87.2942 569.00
87.3594 544.00
87.4246 556.00
87.4898 631.00
87.555 633.00
87.6202 619.00
87.6854 610.00
87.7506 614.00
87.8158 572.00
87.881 576.00
87.9462 588.00
88.0114 622.00
88.0766 616.00
88.1418 636.00
88.207 575.00
88.2722 584.00
88.3374 597.00
88.4026 602.00
88.4678 562.00
88.533 563.00
88.5982 566.00
88.6634 601.00
88.7286 600.00
88.7938 578.00
88.859 609.00
88.9242 616.00
88.9894 597.00
89.0546 631.00
89.1198 632.00
89.185 627.00
89.2502 626.00
89.3154 608.00
89.3806 652.00
89.4458 646.00
89.511 630.00
89.5762 592.00
89.6414 639.00
89.7066 692.00
89.7718 674.00
89.837 592.00
89.9022 583.00
89.9674 669.00
90.0326 634.00
90.0978 638.00
90.163 661.00
90.2282 666.00
90.2934 681.00
90.3586 670.00
90.4238 653.00
90.489 640.00
90.5542 664.00
90.6193 679.00
90.6845 594.00
90.7497 672.00
90.8149 643.00
90.8801 677.00
90.9453 624.00
91.0105 674.00
91.0757 647.00
91.1409 646.00
91.2061 691.00
91.2713 675.00
91.3365 720.00
91.4017 712.00
91.4669 727.00
91.5321 728.00
91.5973 735.00
91.6625 794.00
91.7277 703.00
91.7929 768.00
91.8581 698.00
91.9233 698.00
91.9885 714.00
92.0537 732.00
92.1189 726.00
92.1841 860.00
92.2493 774.00
92.3145 681.00
92.3797 663.00
92.4449 668.00
92.5101 692.00
92.5753 660.00
92.6405 591.00
92.7057 620.00
92.7709 597.00
92.8361 613.00
92.9013 590.00
92.9665 627.00
93.0317 583.00
93.0969 617.00
93.1621 620.00
93.2273 636.00
93.2925 619.00
93.3577 606.00
93.4229 605.00
93.4881 576.00
93.5533 641.00
93.6185 615.00
93.6837 632.00
93.7489 535.00
93.8141 606.00
93.8793 630.00
93.9445 590.00
94.0097 612.00
94.0749 622.00
94.1401 675.00
94.2053 622.00
94.2705 658.00
94.3357 655.00
94.4009 702.00
94.4661 736.00
94.5313 757.00
94.5965 781.00
94.6617 739.00
94.7269 742.00
94.7921 765.00
94.8573 762.00
94.9225 694.00
94.9877 666.00
95.0529 735.00
95.1181 686.00
95.1833 686.00
95.2485 676.00
95.3137 690.00
95.3789 687.00
95.444 729.00
95.5092 682.00
95.5744 680.00
95.6396 679.00
95.7048 728.00
95.77 694.00
95.8352 735.00
95.9004 745.00
95.9656 724.00
96.0308 772.00
96.096 782.00
96.1612 790.00
96.2264 810.00
96.2916 843.00
96.3568 808.00
96.422 815.00
96.4872 850.00
96.5524 833.00
96.6176 849.00
96.6828 768.00
96.748 784.00
96.8132 755.00
96.8784 724.00
96.9436 730.00
97.0088 729.00
97.074 712.00
97.1392 630.00
97.2044 651.00
97.2696 604.00
97.3348 603.00
97.4 585.00
97.4652 582.00
97.5304 580.00
97.5956 596.00
97.6608 596.00
97.726 571.00
97.7912 581.00
97.8564 587.00
97.9216 573.00
97.9868 539.00
98.052 551.00
98.1172 557.00
98.1824 567.00
98.2476 576.00
98.3128 594.00
98.378 581.00
98.4432 602.00
98.5084 608.00
98.5736 576.00
98.6388 612.00
98.704 671.00
98.7692 638.00
98.8344 610.00
98.8996 641.00
98.9648 651.00
99.03 590.00
99.0952 637.00
99.1604 636.00
99.2256 618.00
99.2908 666.00
99.356 660.00
99.4212 633.00
99.4864 651.00
99.5516 617.00
99.6168 584.00
99.682 648.00
99.7472 632.00
99.8124 619.00
99.8776 602.00
99.9428 579.00
100.008 556.00
100.073 572.00
100.095 580.00