File: data/xrd_creation/results/Na_297.xy
9.903433 2735.00
9.968632 2734.00
10.0338 2680.00
10.099 2708.00
10.1642 2534.00
10.2294 2659.00
10.2946 2531.00
10.3598 2657.00
10.425 2484.00
10.4902 2505.00
10.5554 2566.00
10.6206 2490.00
10.6858 2415.00
10.751 2459.00
10.8162 2443.00
10.8814 2401.00
10.9466 2437.00
11.0118 2370.00
11.077 2394.00
11.1422 2371.00
11.2074 2370.00
11.2726 2331.00
11.3378 2257.00
11.403 2234.00
11.4682 2383.00
11.5334 2279.00
11.5986 2258.00
11.6638 2184.00
11.729 2234.00
11.7942 2337.00
11.8594 2387.00
11.9246 2193.00
11.9898 2084.00
12.055 2105.00
12.1202 2144.00
12.1854 2169.00
12.2506 2226.00
12.3158 2198.00
12.381 2101.00
12.4462 2085.00
12.5114 2155.00
12.5766 2086.00
12.6418 2021.00
12.707 2028.00
12.7722 2018.00
12.8374 2112.00
12.9026 2008.00
12.9678 2056.00
13.033 2034.00
13.0982 1996.00
13.1634 2033.00
13.2286 1933.00
13.2938 2029.00
13.359 1872.00
13.4242 1974.00
13.4894 1978.00
13.5546 1967.00
13.6198 1975.00
13.685 1932.00
13.7502 1995.00
13.8154 1908.00
13.8805 1884.00
13.9457 1893.00
14.0109 1916.00
14.0761 1899.00
14.1413 1868.00
14.2065 1979.00
14.2717 1893.00
14.3369 1911.00
14.4021 1876.00
14.4673 1847.00
14.5325 1866.00
14.5977 1894.00
14.6629 1905.00
14.7281 1884.00
14.7933 1893.00
14.8585 1872.00
14.9237 1838.00
14.9889 1812.00
15.0541 1843.00
15.1193 1724.00
15.1845 1954.00
15.2497 1878.00
15.3149 1886.00
15.3801 1986.00
15.4453 1931.00
15.5105 2028.00
15.5757 1934.00
15.6409 2008.00
15.7061 1885.00
15.7713 1799.00
15.8365 1743.00
15.9017 1797.00
15.9669 1745.00
16.0321 1744.00
16.0973 1696.00
16.1625 1734.00
16.2277 1723.00
16.2929 1694.00
16.3581 1712.00
16.4233 1740.00
16.4885 1700.00
16.5537 1622.00
16.6189 1680.00
16.6841 1654.00
16.7493 1613.00
16.8145 1658.00
16.8797 1650.00
16.9449 1591.00
17.0101 1625.00
17.0753 1573.00
17.1405 1636.00
17.2057 1566.00
17.2709 1538.00
17.3361 1635.00
17.4013 1580.00
17.4665 1601.00
17.5317 1618.00
17.5969 1597.00
17.6621 1557.00
17.7273 1543.00
17.7925 1525.00
17.8577 1559.00
17.9229 1493.00
17.9881 1466.00
18.0533 1569.00
18.1185 1488.00
18.1837 1518.00
18.2489 1472.00
18.3141 1543.00
18.3793 1520.00
18.4445 1577.00
18.5097 1596.00
18.5749 1541.00
18.6401 1542.00
18.7052 1518.00
18.7704 1542.00
18.8356 1673.00
18.9008 1566.00
18.966 1748.00
19.0312 1760.00
19.0964 1715.00
19.1616 1782.00
19.2268 1771.00
19.292 1662.00
19.3572 1728.00
19.4224 1585.00
19.4876 1524.00
19.5528 1529.00
19.618 1565.00
19.6832 1553.00
19.7484 1489.00
19.8136 1583.00
19.8788 1653.00
19.944 1675.00
20.0092 1770.00
20.0744 1866.00
20.1396 1934.00
20.2048 1918.00
20.27 1868.00
20.3352 1845.00
20.4004 1867.00
20.4656 2127.00
20.5308 2827.00
20.596 3829.00
20.6612 5149.00
20.7264 6715.00
20.7916 7837.00
20.8568 9920.00
20.922 11204.00
20.9872 9442.00
21.0524 4612.00
21.1176 2118.00
21.1828 1744.00
21.248 1681.00
21.3132 1628.00
21.3784 1532.00
21.4436 1531.00
21.5088 1490.00
21.574 1384.00
21.6392 1432.00
21.7044 1389.00
21.7696 1436.00
21.8348 1411.00
21.9 1333.00
21.9652 1420.00
22.0304 1402.00
22.0956 1413.00
22.1608 1513.00
22.226 1502.00
22.2912 1503.00
22.3564 1423.00
22.4216 1441.00
22.4868 1377.00
22.552 1332.00
22.6172 1419.00
22.6824 1331.00
22.7476 1359.00
22.8128 1418.00
22.878 1337.00
22.9432 1349.00
23.0084 1402.00
23.0736 1363.00
23.1388 1328.00
23.204 1385.00
23.2692 1316.00
23.3344 1318.00
23.3996 1305.00
23.4647 1220.00
23.5299 1293.00
23.5951 1299.00
23.6603 1261.00
23.7255 1339.00
23.7907 1328.00
23.8559 1473.00
23.9211 1486.00
23.9863 1489.00
24.0515 1637.00
24.1167 1720.00
24.1819 1829.00
24.2471 1749.00
24.3123 1557.00
24.3775 1426.00
24.4427 1377.00
24.5079 1360.00
24.5731 1343.00
24.6383 1328.00
24.7035 1242.00
24.7687 1258.00
24.8339 1219.00
24.8991 1227.00
24.9643 1285.00
25.0295 1217.00
25.0947 1219.00
25.1599 1162.00
25.2251 1242.00
25.2903 1256.00
25.3555 1297.00
25.4207 1288.00
25.4859 1330.00
25.5511 1356.00
25.6163 1276.00
25.6815 1315.00
25.7467 1268.00
25.8119 1285.00
25.8771 1172.00
25.9423 1211.00
26.0075 1177.00
26.0727 1173.00
26.1379 1302.00
26.2031 1267.00
26.2683 1200.00
26.3335 1279.00
26.3987 1257.00
26.4639 1283.00
26.5291 1301.00
26.5943 1315.00
26.6595 1337.00
26.7247 1285.00
26.7899 1238.00
26.8551 1179.00
26.9203 1161.00
26.9855 1281.00
27.0507 1183.00
27.1159 1293.00
27.1811 1243.00
27.2463 1274.00
27.3115 1278.00
27.3767 1361.00
27.4419 1386.00
27.5071 1288.00
27.5723 1226.00
27.6375 1194.00
27.7027 1153.00
27.7679 1219.00
27.8331 1196.00
27.8983 1137.00
27.9635 1174.00
28.0287 1237.00
28.0939 1282.00
28.1591 1233.00
28.2243 1218.00
28.2894 1244.00
28.3546 1327.00
28.4198 1315.00
28.485 1348.00
28.5502 1225.00
28.6154 1204.00
28.6806 1288.00
28.7458 1261.00
28.811 1164.00
28.8762 1164.00
28.9414 1163.00
29.0066 1226.00
29.0718 1267.00
29.137 1276.00
29.2022 1277.00
29.2674 1186.00
29.3326 1182.00
29.3978 1254.00
29.463 1242.00
29.5282 1256.00
29.5934 1317.00
29.6586 1336.00
29.7238 1367.00
29.789 1478.00
29.8542 1484.00
29.9194 1589.00
29.9846 1843.00
30.0498 2084.00
30.115 2255.00
30.1802 2550.00
30.2454 2812.00
30.3106 2993.00
30.3758 2931.00
30.441 2961.00
30.5062 2972.00
30.5714 3078.00
30.6366 2980.00
30.7018 2764.00
30.767 2477.00
30.8322 2133.00
30.8974 1898.00
30.9626 1737.00
31.0278 1659.00
31.093 1578.00
31.1582 1584.00
31.2234 1566.00
31.2886 1707.00
31.3538 1772.00
31.419 1825.00
31.4842 2108.00
31.5494 2275.00
31.6146 2582.00
31.6798 2952.00
31.745 3226.00
31.8102 3670.00
31.8754 3844.00
31.9406 3736.00
32.0058 3408.00
32.071 2854.00
32.1362 2414.00
32.2014 2176.00
32.2666 2299.00
32.3318 2019.00
32.397 1640.00
32.4622 1433.00
32.5274 1360.00
32.5926 1361.00
32.6578 1340.00
32.723 1394.00
32.7882 1472.00
32.8534 1382.00
32.9186 1334.00
32.9838 1403.00
33.0489 1420.00
33.1141 1483.00
33.1793 1610.00
33.2445 1688.00
33.3097 1747.00
33.3749 1733.00
33.4401 1867.00
33.5053 1956.00
33.5705 2133.00
33.6357 2251.00
33.7009 2263.00
33.7661 2176.00
33.8313 2158.00
33.8965 2364.00
33.9617 3075.00
34.0269 4529.00
34.0921 6998.00
34.1573 9465.00
34.2225 11952.00
34.2877 15287.00
34.3529 17806.00
34.4181 13567.00
34.4833 7222.00
34.5485 3359.00
34.6137 2236.00
34.6789 2078.00
34.7441 1875.00
34.8093 1829.00
34.8745 1805.00
34.9397 1795.00
35.0049 2119.00
35.0701 2495.00
35.1353 2821.00
35.2005 3330.00
35.2657 3775.00
35.3309 4140.00
35.3961 4175.00
35.4613 3778.00
35.5265 3153.00
35.5917 2324.00
35.6569 1809.00
35.7221 1635.00
35.7873 1447.00
35.8525 1391.00
35.9177 1328.00
35.9829 1268.00
36.0481 1318.00
36.1133 1293.00
36.1785 1292.00
36.2437 1250.00
36.3089 1236.00
36.3741 1197.00
36.4393 1156.00
36.5045 1148.00
36.5697 1258.00
36.6349 1213.00
36.7001 1198.00
36.7653 1217.00
36.8305 1274.00
36.8957 1229.00
36.9609 1289.00
37.0261 1333.00
37.0913 1385.00
37.1565 1451.00
37.2217 1621.00
37.2869 1641.00
37.3521 1709.00
37.4173 1880.00
37.4825 2041.00
37.5477 2117.00
37.6129 2093.00
37.6781 1857.00
37.7433 1716.00
37.8085 1619.00
37.8736 1540.00
37.9388 1564.00
38.004 1569.00
38.0692 1502.00
38.1344 1531.00
38.1996 1546.00
38.2648 1815.00
38.33 2012.00
38.3952 2194.00
38.4604 2315.00
38.5256 2515.00
38.5908 2414.00
38.656 2240.00
38.7212 2036.00
38.7864 1780.00
38.8516 1514.00
38.9168 1427.00
38.982 1353.00
39.0472 1272.00
39.1124 1250.00
39.1776 1166.00
39.2428 1136.00
39.308 1124.00
39.3732 1062.00
39.4384 1115.00
39.5036 1138.00
39.5688 1091.00
39.634 1216.00
39.6992 1114.00
39.7644 1080.00
39.8296 1151.00
39.8948 1195.00
39.96 1156.00
40.0252 1169.00
40.0904 1069.00
40.1556 1125.00
40.2208 1168.00
40.286 1127.00
40.3512 1173.00
40.4164 1180.00
40.4816 1148.00
40.5468 1185.00
40.612 1123.00
40.6772 1070.00
40.7424 1065.00
40.8076 1050.00
40.8728 1066.00
40.938 1027.00
41.0032 1108.00
41.0684 1057.00
41.1336 1016.00
41.1988 1045.00
41.264 992.00
41.3292 1007.00
41.3944 1064.00
41.4596 1004.00
41.5248 1065.00
41.59 1063.00
41.6552 1095.00
41.7204 1104.00
41.7856 1078.00
41.8508 1062.00
41.916 1016.00
41.9812 1052.00
42.0464 1095.00
42.1116 1255.00
42.1768 1346.00
42.242 1455.00
42.3072 1570.00
42.3724 1611.00
42.4376 1393.00
42.5028 1155.00
42.568 1094.00
42.6332 1072.00
42.6983 1005.00
42.7635 1153.00
42.8287 1174.00
42.8939 1285.00
42.9591 1252.00
43.0243 1385.00
43.0895 1486.00
43.1547 1338.00
43.2199 1327.00
43.2851 1346.00
43.3503 1230.00
43.4155 1228.00
43.4807 1042.00
43.5459 936.00
43.6111 970.00
43.6763 934.00
43.7415 947.00
43.8067 1030.00
43.8719 1067.00
43.9371 975.00
44.0023 988.00
44.0675 992.00
44.1327 967.00
44.1979 949.00
44.2631 890.00
44.3283 947.00
44.3935 944.00
44.4587 982.00
44.5239 971.00
44.5891 954.00
44.6543 1070.00
44.7195 1091.00
44.7847 1087.00
44.8499 1072.00
44.9151 1088.00
44.9803 1066.00
45.0455 1021.00
45.1107 1042.00
45.1759 997.00
45.2411 947.00
45.3063 1050.00
45.3715 1042.00
45.4367 1044.00
45.5019 1059.00
45.5671 1099.00
45.6323 1139.00
45.6975 1227.00
45.7627 1291.00
45.8279 1359.00
45.8931 1487.00
45.9583 1447.00
46.0235 1431.00
46.0887 1406.00
46.1539 1241.00
46.2191 1173.00
46.2843 1129.00
46.3495 963.00
46.4147 964.00
46.4799 907.00
46.5451 929.00
46.6103 876.00
46.6755 942.00
46.7407 870.00
46.8059 915.00
46.8711 907.00
46.9363 957.00
47.0015 966.00
47.0667 1023.00
47.1319 986.00
47.1971 995.00
47.2623 971.00
47.3275 987.00
47.3927 928.00
47.4579 936.00
47.523 884.00
47.5882 834.00
47.6534 869.00
47.7186 857.00
47.7838 887.00
47.849 853.00
47.9142 948.00
47.9794 935.00
48.0446 963.00
48.1098 954.00
48.175 1010.00
48.2402 1049.00
48.3054 1100.00
48.3706 1153.00
48.4358 1077.00
48.501 1108.00
48.5662 1254.00
48.6314 1252.00
48.6966 1366.00
48.7618 1463.00
48.827 1447.00
48.8922 1448.00
48.9574 1698.00
49.0226 2184.00
49.0878 2492.00
49.153 2974.00
49.2182 3754.00
49.2834 3537.00
49.3486 2586.00
49.4138 2019.00
49.479 1319.00
49.5442 1124.00
49.6094 1127.00
49.6746 1079.00
49.7398 1075.00
49.805 1074.00
49.8702 1040.00
49.9354 995.00
50.0006 949.00
50.0658 940.00
50.131 856.00
50.1962 851.00
50.2614 857.00
50.3266 907.00
50.3918 887.00
50.457 892.00
50.5222 922.00
50.5874 909.00
50.6526 858.00
50.7178 948.00
50.783 875.00
50.8482 879.00
50.9134 909.00
50.9786 910.00
51.0438 951.00
51.109 939.00
51.1742 915.00
51.2394 895.00
51.3046 852.00
51.3698 804.00
51.435 860.00
51.5002 850.00
51.5654 797.00
51.6306 800.00
51.6958 835.00
51.761 816.00
51.8262 837.00
51.8914 807.00
51.9566 811.00
52.0218 811.00
52.087 825.00
52.1522 818.00
52.2174 882.00
52.2826 863.00
52.3477 874.00
52.4129 886.00
52.4781 824.00
52.5433 851.00
52.6085 871.00
52.6737 817.00
52.7389 796.00
52.8041 888.00
52.8693 830.00
52.9345 874.00
52.9997 908.00
53.0649 878.00
53.1301 846.00
53.1953 844.00
53.2605 772.00
53.3257 836.00
53.3909 862.00
53.4561 887.00
53.5213 918.00
53.5865 846.00
53.6517 862.00
53.7169 784.00
53.7821 835.00
53.8473 861.00
53.9125 865.00
53.9777 891.00
54.0429 798.00
54.1081 888.00
54.1733 841.00
54.2385 911.00
54.3037 897.00
54.3689 896.00
54.4341 894.00
54.4993 969.00
54.5645 974.00
54.6297 1001.00
54.6949 1016.00
54.7601 972.00
54.8253 876.00
54.8905 925.00
54.9557 852.00
55.0209 889.00
55.0861 793.00
55.1513 831.00
55.2165 799.00
55.2817 793.00
55.3469 779.00
55.4121 791.00
55.4773 753.00
55.5425 748.00
55.6077 846.00
55.6729 791.00
55.7381 779.00
55.8033 769.00
55.8685 752.00
55.9337 741.00
55.9989 774.00
56.0641 747.00
56.1293 747.00
56.1945 717.00
56.2597 767.00
56.3249 788.00
56.3901 768.00
56.4553 868.00
56.5205 790.00
56.5857 822.00
56.6509 805.00
56.7161 766.00
56.7813 780.00
56.8465 829.00
56.9117 769.00
56.9769 757.00
57.042 743.00
57.1073 722.00
57.1724 815.00
57.2376 784.00
57.3028 848.00
57.368 875.00
57.4332 910.00
57.4984 1074.00
57.5636 1184.00
57.6288 1291.00
57.694 1297.00
57.7592 1348.00
57.8244 1338.00
57.8896 1233.00
57.9548 1165.00
58.02 1019.00
58.0852 984.00
58.1504 934.00
58.2156 923.00
58.2808 836.00
58.346 752.00
58.4112 822.00
58.4764 817.00
58.5416 732.00
58.6068 806.00
58.672 743.00
58.7372 782.00
58.8024 763.00
58.8676 781.00
58.9328 839.00
58.998 847.00
59.0632 844.00
59.1284 925.00
59.1936 929.00
59.2588 945.00
59.324 908.00
59.3892 888.00
59.4544 888.00
59.5196 869.00
59.5848 933.00
59.65 909.00
59.7152 944.00
59.7804 1018.00
59.8456 1072.00
59.9108 1146.00
59.976 1190.00
60.0412 1312.00
60.1064 1224.00
60.1716 1217.00
60.2368 1218.00
60.302 1189.00
60.3672 1156.00
60.4324 1093.00
60.4976 1119.00
60.5628 1155.00
60.628 1104.00
60.6932 1140.00
60.7584 1128.00
60.8236 1226.00
60.8888 1359.00
60.954 1492.00
61.0192 2021.00
61.0844 2580.00
61.1496 3079.00
61.2148 3766.00
61.28 4225.00
61.3452 3682.00
61.4104 2485.00
61.4756 2236.00
61.5408 1556.00
61.606 1069.00
61.6712 925.00
61.7364 855.00
61.8016 845.00
61.8667 845.00
61.932 787.00
61.9971 772.00
62.0623 768.00
62.1275 807.00
62.1927 715.00
62.2579 746.00
62.3231 780.00
62.3883 819.00
62.4535 795.00
62.5187 803.00
62.5839 858.00
62.6491 883.00
62.7143 979.00
62.7795 990.00
62.8447 970.00
62.9099 953.00
62.9751 923.00
63.0403 933.00
63.1055 869.00
63.1707 791.00
63.2359 779.00
63.3011 763.00
63.3663 745.00
63.4315 708.00
63.4967 750.00
63.5619 726.00
63.6271 717.00
63.6923 778.00
63.7575 779.00
63.8227 763.00
63.8879 817.00
63.9531 850.00
64.0183 950.00
64.0835 1079.00
64.1487 1126.00
64.2139 1226.00
64.2791 1304.00
64.3443 1291.00
64.4095 1303.00
64.4747 1375.00
64.5399 1574.00
64.6051 1853.00
64.6703 1917.00
64.7355 2126.00
64.8007 2212.00
64.8659 2146.00
64.9311 2010.00
64.9963 1675.00
65.0615 1502.00
65.1267 1277.00
65.1919 1140.00
65.2571 1066.00
65.3223 1086.00
65.3875 1089.00
65.4527 1035.00
65.5179 973.00
65.5831 896.00
65.6483 832.00
65.7135 747.00
65.7787 703.00
65.8439 667.00
65.9091 712.00
65.9743 640.00
66.0395 678.00
66.1047 619.00
66.1699 648.00
66.2351 654.00
66.3003 647.00
66.3655 625.00
66.4307 608.00
66.4959 635.00
66.561 654.00
66.6263 655.00
66.6915 636.00
66.7566 640.00
66.8218 610.00
66.887 605.00
66.9522 653.00
67.0174 636.00
67.0826 652.00
67.1478 641.00
67.213 609.00
67.2782 662.00
67.3434 623.00
67.4086 660.00
67.4738 601.00
67.539 643.00
67.6042 611.00
67.6694 570.00
67.7346 638.00
67.7998 562.00
67.865 623.00
67.9302 598.00
67.9954 613.00
68.0606 649.00
68.1258 581.00
68.191 602.00
68.2562 557.00
68.3214 580.00
68.3866 662.00
68.4518 606.00
68.517 627.00
68.5822 559.00
68.6474 610.00
68.7126 605.00
68.7778 647.00
68.843 683.00
68.9082 657.00
68.9734 658.00
69.0386 662.00
69.1038 686.00
69.169 748.00
69.2342 754.00
69.2994 763.00
69.3646 866.00
69.4298 868.00
69.495 893.00
69.5602 851.00
69.6254 949.00
69.6906 883.00
69.7558 910.00
69.821 854.00
69.8862 816.00
69.9514 802.00
70.0166 747.00
70.0818 754.00
70.147 771.00
70.2122 803.00
70.2774 794.00
70.3426 805.00
70.4078 862.00
70.473 925.00
70.5382 843.00
70.6034 858.00
70.6686 867.00
70.7338 755.00
70.799 688.00
70.8642 721.00
70.9294 724.00
70.9946 625.00
71.0598 630.00
71.125 624.00
71.1902 583.00
71.2554 604.00
71.3205 626.00
71.3858 618.00
71.451 580.00
71.5162 552.00
71.5813 561.00
71.6465 573.00
71.7117 635.00
71.7769 652.00
71.8421 803.00
71.9073 944.00
71.9725 1093.00
72.0377 1245.00
72.1029 1217.00
72.1681 993.00
72.2333 988.00
72.2985 834.00
72.3637 767.00
72.4289 709.00
72.4941 702.00
72.5593 746.00
72.6245 719.00
72.6897 700.00
72.7549 666.00
72.8201 677.00
72.8853 661.00
72.9505 639.00
73.0157 615.00
73.0809 612.00
73.1461 584.00
73.2113 568.00
73.2765 588.00
73.3417 579.00
73.4069 554.00
73.4721 554.00
73.5373 610.00
73.6025 650.00
73.6677 650.00
73.7329 664.00
73.7981 618.00
73.8633 748.00
73.9285 742.00
73.9937 614.00
74.0589 669.00
74.1241 648.00
74.1893 633.00
74.2545 620.00
74.3197 638.00
74.3849 612.00
74.4501 598.00
74.5153 596.00
74.5805 603.00
74.6457 583.00
74.7109 591.00
74.7761 532.00
74.8413 554.00
74.9065 562.00
74.9717 537.00
75.0369 512.00
75.1021 532.00
75.1673 536.00
75.2325 538.00
75.2977 487.00
75.3629 580.00
75.4281 550.00
75.4933 545.00
75.5585 536.00
75.6237 532.00
75.6889 627.00
75.7541 610.00
75.8193 693.00
75.8845 690.00
75.9497 702.00
76.0149 643.00
76.0801 617.00
76.1452 561.00
76.2104 602.00
76.2756 541.00
76.3409 495.00
76.406 524.00
76.4712 484.00
76.5364 524.00
76.6016 570.00
76.6668 540.00
76.732 540.00
76.7972 536.00
76.8624 513.00
76.9276 534.00
76.9928 570.00
77.058 531.00
77.1232 542.00
77.1884 560.00
77.2536 528.00
77.3188 583.00
77.384 511.00
77.4492 514.00
77.5144 483.00
77.5796 561.00
77.6448 547.00
77.71 526.00
77.7752 537.00
77.8404 618.00
77.9056 518.00
77.9708 568.00
78.036 578.00
78.1012 577.00
78.1664 573.00
78.2316 556.00
78.2968 578.00
78.362 556.00
78.4272 585.00
78.4924 513.00
78.5576 547.00
78.6228 588.00
78.688 544.00
78.7532 549.00
78.8184 586.00
78.8836 553.00
78.9488 565.00
79.014 576.00
79.0792 546.00
79.1444 544.00
79.2096 557.00
79.2748 587.00
79.34 558.00
79.4052 501.00
79.4704 540.00
79.5356 521.00
79.6008 535.00
79.666 513.00
79.7312 519.00
79.7964 544.00
79.8616 498.00
79.9268 485.00
79.992 520.00
80.0572 486.00
80.1224 480.00
80.1876 561.00
80.2528 543.00
80.318 546.00
80.3832 488.00
80.4484 524.00
80.5136 499.00
80.5788 534.00
80.644 525.00
80.7092 544.00
80.7744 516.00
80.8396 524.00
80.9048 553.00
80.9699 534.00
81.0351 495.00
81.1003 510.00
81.1655 479.00
81.2307 473.00
81.2959 464.00
81.3611 486.00
81.4263 460.00
81.4915 550.00
81.5567 529.00
81.6219 540.00
81.6871 551.00
81.7523 516.00
81.8175 567.00
81.8827 578.00
81.9479 659.00
82.0131 845.00
82.0783 936.00
82.1435 1073.00
82.2087 1163.00
82.2739 1004.00
82.3391 840.00
82.4043 850.00
82.4695 828.00
82.5347 671.00
82.5999 592.00
82.6651 546.00
82.7303 552.00
82.7955 507.00
82.8607 529.00
82.9259 536.00
82.9911 509.00
83.0563 601.00
83.1215 538.00
83.1867 544.00
83.2519 518.00
83.3171 505.00
83.3823 506.00
83.4475 543.00
83.5127 559.00
83.5779 500.00
83.6431 514.00
83.7083 506.00
83.7735 526.00
83.8387 561.00
83.9039 528.00
83.9691 565.00
84.0343 562.00
84.0995 582.00
84.1647 583.00
84.2299 563.00
84.2951 584.00
84.3603 581.00
84.4255 599.00
84.4907 608.00
84.5559 635.00
84.6211 603.00
84.6863 632.00
84.7515 631.00
84.8167 534.00
84.8819 567.00
84.9471 524.00
85.0123 553.00
85.0775 575.00
85.1427 495.00
85.2079 578.00
85.2731 575.00
85.3383 536.00
85.4035 542.00
85.4687 562.00
85.5339 548.00
85.5991 586.00
85.6643 583.00
85.7295 578.00
85.7946 584.00
85.8598 614.00
85.925 611.00
85.9903 583.00
86.0554 588.00
86.1206 545.00
86.1858 542.00
86.251 508.00
86.3162 518.00
86.3814 514.00
86.4466 530.00
86.5118 463.00
86.577 496.00
86.6422 488.00
86.7074 513.00
86.7726 481.00
86.8378 517.00
86.903 513.00
86.9682 446.00
87.0334 460.00
87.0986 491.00
87.1638 456.00
87.229 502.00
87.2942 436.00
87.3594 482.00
87.4246 458.00
87.4898 459.00
87.555 482.00
87.6202 477.00
87.6854 460.00
87.7506 499.00
87.8158 528.00
87.881 460.00
87.9462 461.00
88.0114 460.00
88.0766 437.00
88.1418 481.00
88.207 469.00
88.2722 485.00
88.3374 448.00
88.4026 486.00
88.4678 513.00
88.533 489.00
88.5982 474.00
88.6634 504.00
88.7286 463.00
88.7938 505.00
88.859 489.00
88.9242 547.00
88.9894 502.00
89.0546 510.00
89.1198 487.00
89.185 516.00
89.2502 521.00
89.3154 541.00
89.3806 510.00
89.4458 483.00
89.511 536.00
89.5762 491.00
89.6414 494.00
89.7066 508.00
89.7718 506.00
89.837 487.00
89.9022 531.00
89.9674 519.00
90.0326 541.00
90.0978 508.00
90.163 527.00
90.2282 560.00
90.2934 546.00
90.3586 508.00
90.4238 537.00
90.489 518.00
90.5542 493.00
90.6193 535.00
90.6845 511.00
90.7497 471.00
90.8149 516.00
90.8801 543.00
90.9453 568.00
91.0105 480.00
91.0757 575.00
91.1409 518.00
91.2061 556.00
91.2713 585.00
91.3365 597.00
91.4017 624.00
91.4669 582.00
91.5321 682.00
91.5973 585.00
91.6625 593.00
91.7277 579.00
91.7929 570.00
91.8581 637.00
91.9233 615.00
91.9885 619.00
92.0537 666.00
92.1189 603.00
92.1841 607.00
92.2493 557.00
92.3145 559.00
92.3797 553.00
92.4449 541.00
92.5101 480.00
92.5753 487.00
92.6405 503.00
92.7057 475.00
92.7709 515.00
92.8361 517.00
92.9013 487.00
92.9665 505.00
93.0317 467.00
93.0969 454.00
93.1621 462.00
93.2273 513.00
93.2925 472.00
93.3577 501.00
93.4229 494.00
93.4881 487.00
93.5533 500.00
93.6185 464.00
93.6837 530.00
93.7489 501.00
93.8141 478.00
93.8793 505.00
93.9445 533.00
94.0097 578.00
94.0749 517.00
94.1401 526.00
94.2053 564.00
94.2705 599.00
94.3357 535.00
94.4009 612.00
94.4661 647.00
94.5313 633.00
94.5965 627.00
94.6617 572.00
94.7269 561.00
94.7921 590.00
94.8573 566.00
94.9225 613.00
94.9877 541.00
95.0529 578.00
95.1181 578.00
95.1833 545.00
95.2485 565.00
95.3137 595.00
95.3789 537.00
95.444 545.00
95.5092 569.00
95.5744 562.00
95.6396 560.00
95.7048 581.00
95.77 629.00
95.8352 626.00
95.9004 612.00
95.9656 645.00
96.0308 648.00
96.096 619.00
96.1612 667.00
96.2264 635.00
96.2916 694.00
96.3568 682.00
96.422 688.00
96.4872 657.00
96.5524 701.00
96.6176 648.00
96.6828 622.00
96.748 649.00
96.8132 583.00
96.8784 533.00
96.9436 537.00
97.0088 579.00
97.074 520.00
97.1392 476.00
97.2044 486.00
97.2696 519.00
97.3348 488.00
97.4 449.00
97.4652 457.00
97.5304 493.00
97.5956 469.00
97.6608 467.00
97.726 444.00
97.7912 517.00
97.8564 460.00
97.9216 486.00
97.9868 478.00
98.052 487.00
98.1172 509.00
98.1824 472.00
98.2476 488.00
98.3128 477.00
98.378 492.00
98.4432 507.00
98.5084 529.00
98.5736 525.00
98.6388 516.00
98.704 500.00
98.7692 463.00
98.8344 505.00
98.8996 520.00
98.9648 552.00
99.03 571.00
99.0952 507.00
99.1604 545.00
99.2256 551.00
99.2908 573.00
99.356 527.00
99.4212 545.00
99.4864 549.00
99.5516 522.00
99.6168 479.00
99.682 465.00
99.7472 472.00
99.8124 477.00
99.8776 475.00
99.9428 472.00
100.008 458.00
100.073 457.00
100.095 455.00