File: data/xrd_creation/results/Na_294.xy
9.903433 2762.00
9.968632 2707.00
10.0338 2687.00
10.099 2759.00
10.1642 2663.00
10.2294 2652.00
10.2946 2645.00
10.3598 2633.00
10.425 2654.00
10.4902 2598.00
10.5554 2587.00
10.6206 2542.00
10.6858 2651.00
10.751 2560.00
10.8162 2530.00
10.8814 2530.00
10.9466 2613.00
11.0118 2780.00
11.077 2860.00
11.1422 3081.00
11.2074 3248.00
11.2726 2682.00
11.3378 2515.00
11.403 2551.00
11.4682 2549.00
11.5334 2646.00
11.5986 2925.00
11.6638 3136.00
11.729 3505.00
11.7942 3960.00
11.8594 4550.00
11.9246 5369.00
11.9898 6898.00
12.055 9125.00
12.1202 10798.00
12.1854 8618.00
12.2506 4888.00
12.3158 3097.00
12.381 2640.00
12.4462 2592.00
12.5114 2518.00
12.5766 2475.00
12.6418 2509.00
12.707 2260.00
12.7722 2247.00
12.8374 2208.00
12.9026 2204.00
12.9678 2233.00
13.033 2221.00
13.0982 2298.00
13.1634 2157.00
13.2286 2223.00
13.2938 2335.00
13.359 2253.00
13.4242 2381.00
13.4894 2416.00
13.5546 2404.00
13.6198 2381.00
13.685 2358.00
13.7502 2217.00
13.8154 2163.00
13.8805 2168.00
13.9457 2053.00
14.0109 2082.00
14.0761 2029.00
14.1413 2051.00
14.2065 2041.00
14.2717 2011.00
14.3369 2029.00
14.4021 1930.00
14.4673 1959.00
14.5325 1886.00
14.5977 1916.00
14.6629 1858.00
14.7281 1949.00
14.7933 1972.00
14.8585 1886.00
14.9237 1974.00
14.9889 1809.00
15.0541 1910.00
15.1193 1854.00
15.1845 1858.00
15.2497 1844.00
15.3149 1903.00
15.3801 1864.00
15.4453 1815.00
15.5105 1759.00
15.5757 1939.00
15.6409 1830.00
15.7061 1848.00
15.7713 1817.00
15.8365 1775.00
15.9017 1840.00
15.9669 1803.00
16.0321 1778.00
16.0973 1710.00
16.1625 1798.00
16.2277 1865.00
16.2929 1790.00
16.3581 1835.00
16.4233 1838.00
16.4885 1754.00
16.5537 1872.00
16.6189 1923.00
16.6841 1921.00
16.7493 1912.00
16.8145 2026.00
16.8797 1786.00
16.9449 1842.00
17.0101 1862.00
17.0753 1808.00
17.1405 1785.00
17.2057 1931.00
17.2709 1849.00
17.3361 1831.00
17.4013 1829.00
17.4665 1974.00
17.5317 2052.00
17.5969 1863.00
17.6621 1934.00
17.7273 2040.00
17.7925 2186.00
17.8577 2555.00
17.9229 3476.00
17.9881 5651.00
18.0533 5129.00
18.1185 2121.00
18.1837 1856.00
18.2489 1793.00
18.3141 1756.00
18.3793 1846.00
18.4445 1842.00
18.5097 1867.00
18.5749 2030.00
18.6401 2171.00
18.7052 2677.00
18.7704 3659.00
18.8356 5236.00
18.9008 4047.00
18.966 2106.00
19.0312 1852.00
19.0964 1773.00
19.1616 1767.00
19.2268 1842.00
19.292 1786.00
19.3572 1697.00
19.4224 1575.00
19.4876 1731.00
19.5528 1713.00
19.618 1773.00
19.6832 1793.00
19.7484 1888.00
19.8136 1867.00
19.8788 1946.00
19.944 1898.00
20.0092 1922.00
20.0744 2086.00
20.1396 2433.00
20.2048 3156.00
20.27 3842.00
20.3352 3082.00
20.4004 2814.00
20.4656 2741.00
20.5308 2482.00
20.596 2700.00
20.6612 3525.00
20.7264 4228.00
20.7916 4720.00
20.8568 5126.00
20.922 4104.00
20.9872 3079.00
21.0524 2921.00
21.1176 2209.00
21.1828 2029.00
21.248 2015.00
21.3132 2051.00
21.3784 2427.00
21.4436 3019.00
21.5088 3984.00
21.574 4567.00
21.6392 4978.00
21.7044 4922.00
21.7696 4054.00
21.8348 3478.00
21.9 3325.00
21.9652 3195.00
22.0304 2980.00
22.0956 3151.00
22.1608 3239.00
22.226 2351.00
22.2912 1857.00
22.3564 1754.00
22.4216 1804.00
22.4868 1810.00
22.552 1829.00
22.6172 1823.00
22.6824 1701.00
22.7476 1824.00
22.8128 1789.00
22.878 1898.00
22.9432 1884.00
23.0084 1914.00
23.0736 1993.00
23.1388 2088.00
23.204 2307.00
23.2692 2536.00
23.3344 2810.00
23.3996 3132.00
23.4647 2992.00
23.5299 2732.00
23.5951 2538.00
23.6603 2130.00
23.7255 2082.00
23.7907 2150.00
23.8559 2468.00
23.9211 3095.00
23.9863 4193.00
24.0515 4516.00
24.1167 3856.00
24.1819 3214.00
24.2471 2707.00
24.3123 2642.00
24.3775 2552.00
24.4427 2654.00
24.5079 2736.00
24.5731 2697.00
24.6383 3006.00
24.7035 3354.00
24.7687 3744.00
24.8339 3462.00
24.8991 3341.00
24.9643 3580.00
25.0295 4851.00
25.0947 7103.00
25.1599 4984.00
25.2251 2496.00
25.2903 1834.00
25.3555 1632.00
25.4207 1696.00
25.4859 1609.00
25.5511 1661.00
25.6163 1583.00
25.6815 1566.00
25.7467 1620.00
25.8119 1477.00
25.8771 1531.00
25.9423 1526.00
26.0075 1608.00
26.0727 1701.00
26.1379 1714.00
26.2031 1905.00
26.2683 2107.00
26.3335 1861.00
26.3987 1566.00
26.4639 1581.00
26.5291 1604.00
26.5943 1627.00
26.6595 1875.00
26.7247 2179.00
26.7899 2107.00
26.8551 2451.00
26.9203 3354.00
26.9855 5052.00
27.0507 4048.00
27.1159 2859.00
27.1811 2055.00
27.2463 1998.00
27.3115 2365.00
27.3767 2860.00
27.4419 3123.00
27.5071 3257.00
27.5723 3366.00
27.6375 3778.00
27.7027 4028.00
27.7679 3838.00
27.8331 3146.00
27.8983 2822.00
27.9635 2613.00
28.0287 2551.00
28.0939 2595.00
28.1591 2626.00
28.2243 2329.00
28.2894 2317.00
28.3546 2096.00
28.4198 2104.00
28.485 2389.00
28.5502 2303.00
28.6154 2290.00
28.6806 2134.00
28.7458 1938.00
28.811 1932.00
28.8762 1727.00
28.9414 1494.00
29.0066 1526.00
29.0718 1581.00
29.137 1544.00
29.2022 1563.00
29.2674 1542.00
29.3326 1604.00
29.3978 1677.00
29.463 1684.00
29.5282 1733.00
29.5934 1775.00
29.6586 1718.00
29.7238 1743.00
29.789 1807.00
29.8542 2065.00
29.9194 2359.00
29.9846 2476.00
30.0498 2803.00
30.115 2937.00
30.1802 3060.00
30.2454 2831.00
30.3106 2879.00
30.3758 2897.00
30.441 2632.00
30.5062 2415.00
30.5714 2267.00
30.6366 2254.00
30.7018 2585.00
30.767 2932.00
30.8322 3180.00
30.8974 3212.00
30.9626 3011.00
31.0278 3065.00
31.093 3877.00
31.1582 3595.00
31.2234 2931.00
31.2886 2206.00
31.3538 2575.00
31.419 3397.00
31.4842 3647.00
31.5494 4184.00
31.6146 3442.00
31.6798 2999.00
31.745 2853.00
31.8102 3311.00
31.8754 3837.00
31.9406 3613.00
32.0058 3185.00
32.071 3358.00
32.1362 3637.00
32.2014 4732.00
32.2666 5264.00
32.3318 6168.00
32.397 6392.00
32.4622 5502.00
32.5274 4737.00
32.5926 4354.00
32.6578 4166.00
32.723 3915.00
32.7882 3442.00
32.8534 3474.00
32.9186 3335.00
32.9838 3431.00
33.0489 3576.00
33.1141 3319.00
33.1793 3103.00
33.2445 3054.00
33.3097 3096.00
33.3749 3129.00
33.4401 3735.00
33.5053 3828.00
33.5705 3337.00
33.6357 2775.00
33.7009 2431.00
33.7661 3060.00
33.8313 3582.00
33.8965 2844.00
33.9617 2197.00
34.0269 2126.00
34.0921 2183.00
34.1573 1928.00
34.2225 1850.00
34.2877 1677.00
34.3529 1770.00
34.4181 1881.00
34.4833 2108.00
34.5485 1804.00
34.6137 1600.00
34.6789 1520.00
34.7441 1570.00
34.8093 1588.00
34.8745 1526.00
34.9397 1617.00
35.0049 1656.00
35.0701 1878.00
35.1353 2077.00
35.2005 2027.00
35.2657 1798.00
35.3309 1631.00
35.3961 1421.00
35.4613 1480.00
35.5265 1401.00
35.5917 1422.00
35.6569 1355.00
35.7221 1416.00
35.7873 1453.00
35.8525 1503.00
35.9177 1609.00
35.9829 1745.00
36.0481 1793.00
36.1133 2201.00
36.1785 2404.00
36.2437 2471.00
36.3089 2384.00
36.3741 2246.00
36.4393 2227.00
36.5045 2166.00
36.5697 2379.00
36.6349 2704.00
36.7001 3261.00
36.7653 3435.00
36.8305 3091.00
36.8957 2783.00
36.9609 2608.00
37.0261 2360.00
37.0913 2357.00
37.1565 2313.00
37.2217 2176.00
37.2869 2044.00
37.3521 2031.00
37.4173 1942.00
37.4825 2098.00
37.5477 2381.00
37.6129 2274.00
37.6781 2223.00
37.7433 2076.00
37.8085 2342.00
37.8736 2434.00
37.9388 1975.00
38.004 1718.00
38.0692 1683.00
38.1344 1770.00
38.1996 1625.00
38.2648 1511.00
38.33 1418.00
38.3952 1349.00
38.4604 1343.00
38.5256 1338.00
38.5908 1322.00
38.656 1411.00
38.7212 1450.00
38.7864 1570.00
38.8516 1430.00
38.9168 1386.00
38.982 1327.00
39.0472 1214.00
39.1124 1244.00
39.1776 1287.00
39.2428 1409.00
39.308 1655.00
39.3732 2334.00
39.4384 1877.00
39.5036 1713.00
39.5688 1421.00
39.634 1476.00
39.6992 1602.00
39.7644 1439.00
39.8296 1296.00
39.8948 1290.00
39.96 1273.00
40.0252 1337.00
40.0904 1417.00
40.1556 1583.00
40.2208 1801.00
40.286 1890.00
40.3512 1800.00
40.4164 1645.00
40.4816 1682.00
40.5468 1597.00
40.612 1583.00
40.6772 1609.00
40.7424 1507.00
40.8076 1546.00
40.8728 1511.00
40.938 1740.00
41.0032 1830.00
41.0684 1614.00
41.1336 1436.00
41.1988 1285.00
41.264 1288.00
41.3292 1354.00
41.3944 1363.00
41.4596 1345.00
41.5248 1382.00
41.59 1421.00
41.6552 1399.00
41.7204 1414.00
41.7856 1408.00
41.8508 1635.00
41.916 1435.00
41.9812 1446.00
42.0464 1362.00
42.1116 1385.00
42.1768 1398.00
42.242 1453.00
42.3072 1421.00
42.3724 1550.00
42.4376 1526.00
42.5028 1643.00
42.568 1449.00
42.6332 1468.00
42.6983 1390.00
42.7635 1413.00
42.8287 1381.00
42.8939 1366.00
42.9591 1398.00
43.0243 1287.00
43.0895 1375.00
43.1547 1284.00
43.2199 1290.00
43.2851 1293.00
43.3503 1350.00
43.4155 1567.00
43.4807 1881.00
43.5459 1651.00
43.6111 1691.00
43.6763 1520.00
43.7415 1747.00
43.8067 1712.00
43.8719 1777.00
43.9371 1621.00
44.0023 1598.00
44.0675 1457.00
44.1327 1603.00
44.1979 1606.00
44.2631 1655.00
44.3283 1864.00
44.3935 2018.00
44.4587 1979.00
44.5239 1870.00
44.5891 1644.00
44.6543 1545.00
44.7195 1534.00
44.7847 1519.00
44.8499 1499.00
44.9151 1495.00
44.9803 1466.00
45.0455 1451.00
45.1107 1507.00
45.1759 1396.00
45.2411 1366.00
45.3063 1337.00
45.3715 1436.00
45.4367 1842.00
45.5019 2154.00
45.5671 1822.00
45.6323 1838.00
45.6975 1747.00
45.7627 1813.00
45.8279 1797.00
45.8931 1832.00
45.9583 1776.00
46.0235 1665.00
46.0887 1669.00
46.1539 1603.00
46.2191 1522.00
46.2843 1424.00
46.3495 1365.00
46.4147 1379.00
46.4799 1340.00
46.5451 1341.00
46.6103 1342.00
46.6755 1260.00
46.7407 1233.00
46.8059 1288.00
46.8711 1255.00
46.9363 1304.00
47.0015 1333.00
47.0667 1358.00
47.1319 1324.00
47.1971 1402.00
47.2623 1359.00
47.3275 1385.00
47.3927 1435.00
47.4579 1599.00
47.523 1914.00
47.5882 1656.00
47.6534 1655.00
47.7186 1462.00
47.7838 1448.00
47.849 1462.00
47.9142 1341.00
47.9794 1223.00
48.0446 1234.00
48.1098 1256.00
48.175 1189.00
48.2402 1221.00
48.3054 1291.00
48.3706 1398.00
48.4358 1535.00
48.501 1607.00
48.5662 1586.00
48.6314 1685.00
48.6966 1946.00
48.7618 2199.00
48.827 2349.00
48.8922 2414.00
48.9574 2272.00
49.0226 2044.00
49.0878 1958.00
49.153 2061.00
49.2182 1824.00
49.2834 1995.00
49.3486 2210.00
49.4138 2294.00
49.479 2063.00
49.5442 1964.00
49.6094 1775.00
49.6746 1573.00
49.7398 1549.00
49.805 1524.00
49.8702 1592.00
49.9354 1618.00
50.0006 1588.00
50.0658 2097.00
50.131 2733.00
50.1962 2256.00
50.2614 2222.00
50.3266 1847.00
50.3918 1780.00
50.457 1777.00
50.5222 1712.00
50.5874 1930.00
50.6526 1870.00
50.7178 1864.00
50.783 1781.00
50.8482 1571.00
50.9134 1510.00
50.9786 1523.00
51.0438 1698.00
51.109 1834.00
51.1742 1727.00
51.2394 1636.00
51.3046 1501.00
51.3698 1491.00
51.435 1384.00
51.5002 1372.00
51.5654 1270.00
51.6306 1320.00
51.6958 1299.00
51.761 1258.00
51.8262 1335.00
51.8914 1372.00
51.9566 1401.00
52.0218 1803.00
52.087 1545.00
52.1522 1723.00
52.2174 2016.00
52.2826 2085.00
52.3477 1956.00
52.4129 1857.00
52.4781 1745.00
52.5433 1528.00
52.6085 1467.00
52.6737 1396.00
52.7389 1495.00
52.8041 1455.00
52.8693 1441.00
52.9345 1459.00
52.9997 1429.00
53.0649 1405.00
53.1301 1691.00
53.1953 1898.00
53.2605 1723.00
53.3257 2079.00
53.3909 1862.00
53.4561 1905.00
53.5213 1960.00
53.5865 1914.00
53.6517 2091.00
53.7169 1861.00
53.7821 1946.00
53.8473 1956.00
53.9125 1818.00
53.9777 1777.00
54.0429 1839.00
54.1081 1797.00
54.1733 1927.00
54.2385 1995.00
54.3037 1970.00
54.3689 1788.00
54.4341 1734.00
54.4993 1842.00
54.5645 1932.00
54.6297 1972.00
54.6949 2289.00
54.7601 2693.00
54.8253 2735.00
54.8905 2526.00
54.9557 2650.00
55.0209 2224.00
55.0861 2245.00
55.1513 2347.00
55.2165 2300.00
55.2817 2170.00
55.3469 2025.00
55.4121 1958.00
55.4773 1885.00
55.5425 1791.00
55.6077 1848.00
55.6729 1795.00
55.7381 1901.00
55.8033 1921.00
55.8685 1874.00
55.9337 2116.00
55.9989 2158.00
56.0641 2118.00
56.1293 2162.00
56.1945 2303.00
56.2597 2323.00
56.3249 2389.00
56.3901 2473.00
56.4553 2688.00
56.5205 2678.00
56.5857 2679.00
56.6509 2684.00
56.7161 2559.00
56.7813 2324.00
56.8465 2275.00
56.9117 2374.00
56.9769 2190.00
57.042 1930.00
57.1073 1863.00
57.1724 1655.00
57.2376 1573.00
57.3028 1569.00
57.368 1517.00
57.4332 1476.00
57.4984 1479.00
57.5636 1497.00
57.6288 1527.00
57.694 1667.00
57.7592 1700.00
57.8244 1919.00
57.8896 1695.00
57.9548 1892.00
58.02 2153.00
58.0852 1952.00
58.1504 1780.00
58.2156 1825.00
58.2808 1584.00
58.346 1554.00
58.4112 1506.00
58.4764 1588.00
58.5416 1627.00
58.6068 1786.00
58.672 1846.00
58.7372 1643.00
58.8024 1871.00
58.8676 1770.00
58.9328 1670.00
58.998 1685.00
59.0632 1665.00
59.1284 1699.00
59.1936 1772.00
59.2588 1941.00
59.324 1805.00
59.3892 1852.00
59.4544 1840.00
59.5196 1775.00
59.5848 1712.00
59.65 1711.00
59.7152 1623.00
59.7804 1692.00
59.8456 1689.00
59.9108 1646.00
59.976 1548.00
60.0412 1592.00
60.1064 1575.00
60.1716 1456.00
60.2368 1562.00
60.302 1643.00
60.3672 1632.00
60.4324 1710.00
60.4976 1723.00
60.5628 1614.00
60.628 1617.00
60.6932 1584.00
60.7584 1556.00
60.8236 1511.00
60.8888 1521.00
60.954 1633.00
61.0192 1503.00
61.0844 1521.00
61.1496 1475.00
61.2148 1501.00
61.28 1560.00
61.3452 1572.00
61.4104 1529.00
61.4756 1716.00
61.5408 1759.00
61.606 1746.00
61.6712 1698.00
61.7364 1619.00
61.8016 1541.00
61.8667 1611.00
61.932 1729.00
61.9971 1750.00
62.0623 1687.00
62.1275 1716.00
62.1927 1585.00
62.2579 1664.00
62.3231 1620.00
62.3883 1538.00
62.4535 1597.00
62.5187 1758.00
62.5839 1524.00
62.6491 1603.00
62.7143 1658.00
62.7795 1524.00
62.8447 1470.00
62.9099 1528.00
62.9751 1498.00
63.0403 1377.00
63.1055 1350.00
63.1707 1385.00
63.2359 1224.00
63.3011 1301.00
63.3663 1197.00
63.4315 1278.00
63.4967 1323.00
63.5619 1276.00
63.6271 1294.00
63.6923 1268.00
63.7575 1328.00
63.8227 1202.00
63.8879 1189.00
63.9531 1186.00
64.0183 1165.00
64.0835 1186.00
64.1487 1189.00
64.2139 1234.00
64.2791 1256.00
64.3443 1360.00
64.4095 1397.00
64.4747 1362.00
64.5399 1258.00
64.6051 1224.00
64.6703 1209.00
64.7355 1221.00
64.8007 1280.00
64.8659 1257.00
64.9311 1253.00
64.9963 1251.00
65.0615 1340.00
65.1267 1321.00
65.1919 1439.00
65.2571 1246.00
65.3223 1324.00
65.3875 1262.00
65.4527 1284.00
65.5179 1213.00
65.5831 1296.00
65.6483 1238.00
65.7135 1247.00
65.7787 1318.00
65.8439 1431.00
65.9091 1275.00
65.9743 1243.00
66.0395 1239.00
66.1047 1282.00
66.1699 1340.00
66.2351 1269.00
66.3003 1292.00
66.3655 1346.00
66.4307 1283.00
66.4959 1266.00
66.561 1198.00
66.6263 1225.00
66.6915 1242.00
66.7566 1297.00
66.8218 1293.00
66.887 1261.00
66.9522 1276.00
67.0174 1249.00
67.0826 1297.00
67.1478 1248.00
67.213 1333.00
67.2782 1399.00
67.3434 1388.00
67.4086 1425.00
67.4738 1449.00
67.539 1556.00
67.6042 1361.00
67.6694 1320.00
67.7346 1405.00
67.7998 1277.00
67.865 1263.00
67.9302 1317.00
67.9954 1259.00
68.0606 1263.00
68.1258 1298.00
68.191 1340.00
68.2562 1242.00
68.3214 1286.00
68.3866 1286.00
68.4518 1208.00
68.517 1193.00
68.5822 1251.00
68.6474 1294.00
68.7126 1296.00
68.7778 1334.00
68.843 1424.00
68.9082 1429.00
68.9734 1574.00
69.0386 1648.00
69.1038 1531.00
69.169 1462.00
69.2342 1458.00
69.2994 1534.00
69.3646 1482.00
69.4298 1399.00
69.495 1571.00
69.5602 1312.00
69.6254 1346.00
69.6906 1479.00
69.7558 1368.00
69.821 1366.00
69.8862 1389.00
69.9514 1385.00
70.0166 1432.00
70.0818 1661.00
70.147 1509.00
70.2122 1503.00
70.2774 1568.00
70.3426 1457.00
70.4078 1385.00
70.473 1352.00
70.5382 1335.00
70.6034 1340.00
70.6686 1298.00
70.7338 1264.00
70.799 1282.00
70.8642 1287.00
70.9294 1172.00
70.9946 1315.00
71.0598 1146.00
71.125 1200.00
71.1902 1197.00
71.2554 1141.00
71.3205 1134.00
71.3858 1219.00
71.451 1188.00
71.5162 1168.00
71.5813 1215.00
71.6465 1211.00
71.7117 1162.00
71.7769 1272.00
71.8421 1228.00
71.9073 1170.00
71.9725 1210.00
72.0377 1207.00
72.1029 1219.00
72.1681 1167.00
72.2333 1241.00
72.2985 1118.00
72.3637 1220.00
72.4289 1215.00
72.4941 1220.00
72.5593 1290.00
72.6245 1311.00
72.6897 1384.00
72.7549 1342.00
72.8201 1335.00
72.8853 1326.00
72.9505 1418.00
73.0157 1337.00
73.0809 1237.00
73.1461 1303.00
73.2113 1351.00
73.2765 1304.00
73.3417 1304.00
73.4069 1260.00
73.4721 1261.00
73.5373 1292.00
73.6025 1475.00
73.6677 1481.00
73.7329 1380.00
73.7981 1299.00
73.8633 1461.00
73.9285 1328.00
73.9937 1254.00
74.0589 1111.00
74.1241 1155.00
74.1893 1144.00
74.2545 1139.00
74.3197 1033.00
74.3849 1146.00
74.4501 1143.00
74.5153 1046.00
74.5805 1020.00
74.6457 1109.00
74.7109 1117.00
74.7761 1092.00
74.8413 1089.00
74.9065 1090.00
74.9717 1108.00
75.0369 1116.00
75.1021 1079.00
75.1673 1071.00
75.2325 992.00
75.2977 1080.00
75.3629 1105.00
75.4281 1126.00
75.4933 1060.00
75.5585 1127.00
75.6237 1086.00
75.6889 1097.00
75.7541 1127.00
75.8193 1160.00
75.8845 1125.00
75.9497 1120.00
76.0149 1131.00
76.0801 1279.00
76.1452 1163.00
76.2104 1131.00
76.2756 1246.00
76.3409 1164.00
76.406 1095.00
76.4712 1168.00
76.5364 1119.00
76.6016 1090.00
76.6668 1080.00
76.732 1065.00
76.7972 1131.00
76.8624 1050.00
76.9276 1076.00
76.9928 1114.00
77.058 1086.00
77.1232 1071.00
77.1884 1199.00
77.2536 1157.00
77.3188 1156.00
77.384 1158.00
77.4492 1258.00
77.5144 1126.00
77.5796 1110.00
77.6448 1073.00
77.71 1174.00
77.7752 1162.00
77.8404 1116.00
77.9056 1112.00
77.9708 1106.00
78.036 1126.00
78.1012 1074.00
78.1664 1145.00
78.2316 1078.00
78.2968 1053.00
78.362 1092.00
78.4272 1066.00
78.4924 1089.00
78.5576 1073.00
78.6228 1066.00
78.688 1032.00
78.7532 1030.00
78.8184 1044.00
78.8836 1057.00
78.9488 1006.00
79.014 1065.00
79.0792 1061.00
79.1444 1049.00
79.2096 1077.00
79.2748 1085.00
79.34 1126.00
79.4052 1132.00
79.4704 1045.00
79.5356 1207.00
79.6008 1272.00
79.666 1178.00
79.7312 1202.00
79.7964 1180.00
79.8616 1184.00
79.9268 1111.00
79.992 1143.00
80.0572 1162.00
80.1224 1142.00
80.1876 1228.00
80.2528 1230.00
80.318 1296.00
80.3832 1238.00
80.4484 1357.00
80.5136 1262.00
80.5788 1271.00
80.644 1409.00
80.7092 1513.00
80.7744 1347.00
80.8396 1249.00
80.9048 1280.00
80.9699 1277.00
81.0351 1200.00
81.1003 1175.00
81.1655 1104.00
81.2307 1167.00
81.2959 1216.00
81.3611 1069.00
81.4263 1096.00
81.4915 1080.00
81.5567 1073.00
81.6219 1136.00
81.6871 1132.00
81.7523 1132.00
81.8175 1113.00
81.8827 1106.00
81.9479 1101.00
82.0131 1073.00
82.0783 1144.00
82.1435 1203.00
82.2087 1280.00
82.2739 1226.00
82.3391 1119.00
82.4043 1215.00
82.4695 1211.00
82.5347 1153.00
82.5999 1167.00
82.6651 1151.00
82.7303 1140.00
82.7955 1201.00
82.8607 1166.00
82.9259 1152.00
82.9911 1158.00
83.0563 1086.00
83.1215 1157.00
83.1867 1137.00
83.2519 1162.00
83.3171 1123.00
83.3823 1119.00
83.4475 1133.00
83.5127 1110.00
83.5779 1268.00
83.6431 1267.00
83.7083 1112.00
83.7735 1139.00
83.8387 1182.00
83.9039 1104.00
83.9691 1158.00
84.0343 1077.00
84.0995 1127.00
84.1647 1158.00
84.2299 1122.00
84.2951 1187.00
84.3603 1174.00
84.4255 1216.00
84.4907 1246.00
84.5559 1129.00
84.6211 1225.00
84.6863 1192.00
84.7515 1203.00
84.8167 1299.00
84.8819 1299.00
84.9471 1309.00
85.0123 1307.00
85.0775 1416.00
85.1427 1402.00
85.2079 1339.00
85.2731 1349.00
85.3383 1384.00
85.4035 1357.00
85.4687 1255.00
85.5339 1254.00
85.5991 1236.00
85.6643 1198.00
85.7295 1196.00
85.7946 1231.00
85.8598 1228.00
85.925 1230.00
85.9903 1178.00
86.0554 1144.00
86.1206 1155.00
86.1858 1172.00
86.251 1194.00
86.3162 1193.00
86.3814 1184.00
86.4466 1169.00
86.5118 1207.00
86.577 1105.00
86.6422 1138.00
86.7074 1228.00
86.7726 1110.00
86.8378 1107.00
86.903 1213.00
86.9682 1194.00
87.0334 1142.00
87.0986 1133.00
87.1638 1187.00
87.229 1232.00
87.2942 1217.00
87.3594 1253.00
87.4246 1336.00
87.4898 1268.00
87.555 1391.00
87.6202 1436.00
87.6854 1446.00
87.7506 1469.00
87.8158 1489.00
87.881 1697.00
87.9462 1440.00
88.0114 1321.00
88.0766 1338.00
88.1418 1463.00
88.207 1327.00
88.2722 1273.00
88.3374 1262.00
88.4026 1253.00
88.4678 1192.00
88.533 1170.00
88.5982 1252.00
88.6634 1176.00
88.7286 1203.00
88.7938 1143.00
88.859 1109.00
88.9242 1121.00
88.9894 1143.00
89.0546 1115.00
89.1198 1145.00
89.185 1179.00
89.2502 1152.00
89.3154 1200.00
89.3806 1119.00
89.4458 1169.00
89.511 1130.00
89.5762 1194.00
89.6414 1267.00
89.7066 1129.00
89.7718 1186.00
89.837 1237.00
89.9022 1226.00
89.9674 1218.00
90.0326 1185.00
90.0978 1192.00
90.163 1260.00
90.2282 1193.00
90.2934 1204.00
90.3586 1092.00
90.4238 1130.00
90.489 1191.00
90.5542 1252.00
90.6193 1093.00
90.6845 1116.00
90.7497 1148.00
90.8149 1101.00
90.8801 1253.00
90.9453 1311.00
91.0105 1412.00
91.0757 1274.00
91.1409 1185.00
91.2061 1246.00
91.2713 1311.00
91.3365 1174.00
91.4017 1165.00
91.4669 1182.00
91.5321 1171.00
91.5973 1028.00
91.6625 1174.00
91.7277 1184.00
91.7929 1120.00
91.8581 1048.00
91.9233 1112.00
91.9885 1115.00
92.0537 1149.00
92.1189 1098.00
92.1841 1054.00
92.2493 1066.00
92.3145 1088.00
92.3797 1149.00
92.4449 1077.00
92.5101 1132.00
92.5753 1047.00
92.6405 1101.00
92.7057 1107.00
92.7709 1121.00
92.8361 1103.00
92.9013 1129.00
92.9665 1071.00
93.0317 1123.00
93.0969 1055.00
93.1621 994.00
93.2273 1002.00
93.2925 1041.00
93.3577 1064.00
93.4229 1046.00
93.4881 1119.00
93.5533 1099.00
93.6185 1081.00
93.6837 1094.00
93.7489 1041.00
93.8141 1128.00
93.8793 1124.00
93.9445 1116.00
94.0097 1085.00
94.0749 1104.00
94.1401 1131.00
94.2053 1103.00
94.2705 1145.00
94.3357 1124.00
94.4009 1219.00
94.4661 1268.00
94.5313 1144.00
94.5965 1044.00
94.6617 1159.00
94.7269 1211.00
94.7921 1165.00
94.8573 1144.00
94.9225 1147.00
94.9877 1108.00
95.0529 1109.00
95.1181 1090.00
95.1833 1105.00
95.2485 1134.00
95.3137 1135.00
95.3789 1181.00
95.444 1132.00
95.5092 1089.00
95.5744 1112.00
95.6396 1181.00
95.7048 1132.00
95.77 1144.00
95.8352 1075.00
95.9004 1111.00
95.9656 1049.00
96.0308 1077.00
96.096 1143.00
96.1612 1115.00
96.2264 1105.00
96.2916 1080.00
96.3568 1078.00
96.422 1056.00
96.4872 1070.00
96.5524 1041.00
96.6176 1026.00
96.6828 1126.00
96.748 1128.00
96.8132 1134.00
96.8784 1158.00
96.9436 1156.00
97.0088 1170.00
97.074 1168.00
97.1392 1091.00
97.2044 1108.00
97.2696 1118.00
97.3348 1109.00
97.4 1041.00
97.4652 1149.00
97.5304 1107.00
97.5956 1140.00
97.6608 1154.00
97.726 1142.00
97.7912 1007.00
97.8564 1007.00
97.9216 1052.00
97.9868 1043.00
98.052 1154.00
98.1172 1096.00
98.1824 1149.00
98.2476 1139.00
98.3128 1168.00
98.378 1127.00
98.4432 1167.00
98.5084 1175.00
98.5736 1095.00
98.6388 1117.00
98.704 1151.00
98.7692 1137.00
98.8344 1105.00
98.8996 1032.00
98.9648 1047.00
99.03 1105.00
99.0952 1054.00
99.1604 1044.00
99.2256 1023.00
99.2908 1049.00
99.356 1102.00
99.4212 1085.00
99.4864 1062.00
99.5516 1081.00
99.6168 1113.00
99.682 1103.00
99.7472 1081.00
99.8124 1104.00
99.8776 1111.00
99.9428 1084.00
100.008 1085.00
100.073 1048.00
100.095 1083.00