File: data/xrd_creation/results/Na_278.xy
9.903433 2801.00
9.968632 2834.00
10.0338 2956.00
10.099 2788.00
10.1642 2876.00
10.2294 2898.00
10.2946 2913.00
10.3598 2969.00
10.425 3115.00
10.4902 3232.00
10.5554 3425.00
10.6206 3767.00
10.6858 3521.00
10.751 2833.00
10.8162 2750.00
10.8814 2752.00
10.9466 2788.00
11.0118 2713.00
11.077 2766.00
11.1422 2768.00
11.2074 2936.00
11.2726 2823.00
11.3378 2851.00
11.403 2587.00
11.4682 2662.00
11.5334 2677.00
11.5986 2757.00
11.6638 2858.00
11.729 2935.00
11.7942 3095.00
11.8594 3274.00
11.9246 3652.00
11.9898 4377.00
12.055 5524.00
12.1202 6829.00
12.1854 6537.00
12.2506 3815.00
12.3158 2773.00
12.381 2675.00
12.4462 2491.00
12.5114 2368.00
12.5766 2342.00
12.6418 2304.00
12.707 2285.00
12.7722 2255.00
12.8374 2354.00
12.9026 2337.00
12.9678 2312.00
13.033 2354.00
13.0982 2308.00
13.1634 2363.00
13.2286 2411.00
13.2938 2299.00
13.359 2299.00
13.4242 2239.00
13.4894 2191.00
13.5546 2174.00
13.6198 2172.00
13.685 2294.00
13.7502 2244.00
13.8154 2384.00
13.8805 2514.00
13.9457 2635.00
14.0109 2776.00
14.0761 2659.00
14.1413 2422.00
14.2065 2228.00
14.2717 2078.00
14.3369 2018.00
14.4021 1968.00
14.4673 1945.00
14.5325 1911.00
14.5977 1933.00
14.6629 1900.00
14.7281 1982.00
14.7933 1903.00
14.8585 1863.00
14.9237 1914.00
14.9889 1912.00
15.0541 1905.00
15.1193 1880.00
15.1845 1846.00
15.2497 1894.00
15.3149 1957.00
15.3801 1830.00
15.4453 1848.00
15.5105 1929.00
15.5757 1863.00
15.6409 1872.00
15.7061 1836.00
15.7713 1868.00
15.8365 1876.00
15.9017 2007.00
15.9669 1862.00
16.0321 1995.00
16.0973 1897.00
16.1625 1802.00
16.2277 1898.00
16.2929 1856.00
16.3581 1877.00
16.4233 1905.00
16.4885 2025.00
16.5537 1951.00
16.6189 1850.00
16.6841 1844.00
16.7493 1753.00
16.8145 1738.00
16.8797 1776.00
16.9449 1829.00
17.0101 1776.00
17.0753 1844.00
17.1405 1921.00
17.2057 1816.00
17.2709 1743.00
17.3361 1785.00
17.4013 1826.00
17.4665 1842.00
17.5317 1895.00
17.5969 1874.00
17.6621 1949.00
17.7273 2081.00
17.7925 2352.00
17.8577 2439.00
17.9229 2213.00
17.9881 1830.00
18.0533 1870.00
18.1185 1746.00
18.1837 1692.00
18.2489 1682.00
18.3141 1647.00
18.3793 1684.00
18.4445 1704.00
18.5097 1623.00
18.5749 1700.00
18.6401 1721.00
18.7052 1693.00
18.7704 1722.00
18.8356 1701.00
18.9008 1747.00
18.966 1724.00
19.0312 1786.00
19.0964 1751.00
19.1616 1775.00
19.2268 1841.00
19.292 1937.00
19.3572 2188.00
19.4224 2473.00
19.4876 2790.00
19.5528 3407.00
19.618 4499.00
19.6832 5383.00
19.7484 4759.00
19.8136 3663.00
19.8788 3183.00
19.944 3149.00
20.0092 3007.00
20.0744 2680.00
20.1396 2027.00
20.2048 1754.00
20.27 1741.00
20.3352 1700.00
20.4004 1749.00
20.4656 1677.00
20.5308 1744.00
20.596 1660.00
20.6612 1708.00
20.7264 1836.00
20.7916 1863.00
20.8568 2044.00
20.922 2279.00
20.9872 2232.00
21.0524 2072.00
21.1176 1714.00
21.1828 1643.00
21.248 1651.00
21.3132 1558.00
21.3784 1574.00
21.4436 1564.00
21.5088 1591.00
21.574 1587.00
21.6392 1522.00
21.7044 1517.00
21.7696 1659.00
21.8348 1600.00
21.9 1588.00
21.9652 1543.00
22.0304 1687.00
22.0956 1624.00
22.1608 1633.00
22.226 1663.00
22.2912 1710.00
22.3564 1666.00
22.4216 1685.00
22.4868 1728.00
22.552 1724.00
22.6172 1860.00
22.6824 1849.00
22.7476 2039.00
22.8128 2366.00
22.878 2826.00
22.9432 3742.00
23.0084 4999.00
23.0736 6414.00
23.1388 6056.00
23.204 4456.00
23.2692 3001.00
23.3344 2173.00
23.3996 1931.00
23.4647 1816.00
23.5299 1747.00
23.5951 1755.00
23.6603 1638.00
23.7255 1759.00
23.7907 1834.00
23.8559 1761.00
23.9211 2010.00
23.9863 2347.00
24.0515 2823.00
24.1167 3702.00
24.1819 4401.00
24.2471 3989.00
24.3123 2948.00
24.3775 2876.00
24.4427 3422.00
24.5079 3792.00
24.5731 3189.00
24.6383 2534.00
24.7035 2326.00
24.7687 2464.00
24.8339 2934.00
24.8991 3188.00
24.9643 2907.00
25.0295 2169.00
25.0947 1839.00
25.1599 1653.00
25.2251 1588.00
25.2903 1674.00
25.3555 1594.00
25.4207 1599.00
25.4859 1609.00
25.5511 1518.00
25.6163 1532.00
25.6815 1553.00
25.7467 1500.00
25.8119 1618.00
25.8771 1550.00
25.9423 1468.00
26.0075 1610.00
26.0727 1666.00
26.1379 1653.00
26.2031 1744.00
26.2683 1853.00
26.3335 1876.00
26.3987 1857.00
26.4639 1744.00
26.5291 1602.00
26.5943 1523.00
26.6595 1483.00
26.7247 1473.00
26.7899 1538.00
26.8551 1533.00
26.9203 1643.00
26.9855 1565.00
27.0507 1661.00
27.1159 1726.00
27.1811 1626.00
27.2463 1606.00
27.3115 1567.00
27.3767 1572.00
27.4419 1599.00
27.5071 1585.00
27.5723 1750.00
27.6375 1800.00
27.7027 1951.00
27.7679 2232.00
27.8331 2425.00
27.8983 2671.00
27.9635 2446.00
28.0287 2171.00
28.0939 1944.00
28.1591 2097.00
28.2243 2290.00
28.2894 2528.00
28.3546 3139.00
28.4198 4146.00
28.485 6306.00
28.5502 9536.00
28.6154 13365.00
28.6806 13883.00
28.7458 9847.00
28.811 5825.00
28.8762 3614.00
28.9414 2872.00
29.0066 2391.00
29.0718 2109.00
29.137 2008.00
29.2022 1772.00
29.2674 1697.00
29.3326 1676.00
29.3978 1704.00
29.463 1687.00
29.5282 1792.00
29.5934 1782.00
29.6586 1739.00
29.7238 1650.00
29.789 1699.00
29.8542 1674.00
29.9194 1700.00
29.9846 1760.00
30.0498 1813.00
30.115 2053.00
30.1802 2349.00
30.2454 2976.00
30.3106 3886.00
30.3758 4360.00
30.441 4090.00
30.5062 3264.00
30.5714 2386.00
30.6366 2038.00
30.7018 1917.00
30.767 1970.00
30.8322 2060.00
30.8974 2211.00
30.9626 2274.00
31.0278 2742.00
31.093 3606.00
31.1582 4815.00
31.2234 6352.00
31.2886 7662.00
31.3538 6548.00
31.419 4677.00
31.4842 3720.00
31.5494 3548.00
31.6146 3238.00
31.6798 3473.00
31.745 4087.00
31.8102 5922.00
31.8754 8689.00
31.9406 11460.00
32.0058 10817.00
32.071 7663.00
32.1362 4750.00
32.2014 3153.00
32.2666 2430.00
32.3318 2069.00
32.397 1846.00
32.4622 1749.00
32.5274 1732.00
32.5926 1608.00
32.6578 1585.00
32.723 1522.00
32.7882 1505.00
32.8534 1495.00
32.9186 1512.00
32.9838 1570.00
33.0489 1544.00
33.1141 1508.00
33.1793 1458.00
33.2445 1456.00
33.3097 1560.00
33.3749 1559.00
33.4401 1526.00
33.5053 1522.00
33.5705 1463.00
33.6357 1537.00
33.7009 1566.00
33.7661 1763.00
33.8313 1798.00
33.8965 2084.00
33.9617 2677.00
34.0269 3839.00
34.0921 6256.00
34.1573 9046.00
34.2225 9680.00
34.2877 8998.00
34.3529 8347.00
34.4181 7898.00
34.4833 5920.00
34.5485 5275.00
34.6137 5189.00
34.6789 5045.00
34.7441 4256.00
34.8093 3844.00
34.8745 4479.00
34.9397 4456.00
35.0049 3693.00
35.0701 2739.00
35.1353 2016.00
35.2005 1721.00
35.2657 1589.00
35.3309 1593.00
35.3961 1525.00
35.4613 1554.00
35.5265 1595.00
35.5917 1881.00
35.6569 2355.00
35.7221 3279.00
35.7873 4636.00
35.8525 4850.00
35.9177 4004.00
35.9829 2651.00
36.0481 2074.00
36.1133 1759.00
36.1785 1933.00
36.2437 2182.00
36.3089 2778.00
36.3741 3130.00
36.4393 2776.00
36.5045 2262.00
36.5697 1904.00
36.6349 1606.00
36.7001 1540.00
36.7653 1364.00
36.8305 1297.00
36.8957 1301.00
36.9609 1322.00
37.0261 1186.00
37.0913 1287.00
37.1565 1203.00
37.2217 1249.00
37.2869 1216.00
37.3521 1230.00
37.4173 1265.00
37.4825 1199.00
37.5477 1252.00
37.6129 1256.00
37.6781 1281.00
37.7433 1242.00
37.8085 1221.00
37.8736 1264.00
37.9388 1215.00
38.004 1195.00
38.0692 1174.00
38.1344 1172.00
38.1996 1169.00
38.2648 1212.00
38.33 1178.00
38.3952 1175.00
38.4604 1261.00
38.5256 1212.00
38.5908 1231.00
38.656 1208.00
38.7212 1272.00
38.7864 1237.00
38.8516 1293.00
38.9168 1545.00
38.982 1757.00
39.0472 2141.00
39.1124 2482.00
39.1776 2147.00
39.2428 1729.00
39.308 1481.00
39.3732 1372.00
39.4384 1321.00
39.5036 1288.00
39.5688 1388.00
39.634 1458.00
39.6992 1389.00
39.7644 1373.00
39.8296 1424.00
39.8948 1371.00
39.96 1337.00
40.0252 1363.00
40.0904 1313.00
40.1556 1402.00
40.2208 1310.00
40.286 1282.00
40.3512 1448.00
40.4164 1452.00
40.4816 1429.00
40.5468 1472.00
40.612 1384.00
40.6772 1273.00
40.7424 1326.00
40.8076 1397.00
40.8728 1419.00
40.938 1385.00
41.0032 1528.00
41.0684 1696.00
41.1336 1992.00
41.1988 2490.00
41.264 2884.00
41.3292 3011.00
41.3944 2929.00
41.4596 2646.00
41.5248 2612.00
41.59 2459.00
41.6552 2412.00
41.7204 2252.00
41.7856 2172.00
41.8508 2040.00
41.916 2002.00
41.9812 2001.00
42.0464 1971.00
42.1116 1899.00
42.1768 1834.00
42.242 1725.00
42.3072 1670.00
42.3724 1455.00
42.4376 1465.00
42.5028 1396.00
42.568 1306.00
42.6332 1272.00
42.6983 1237.00
42.7635 1207.00
42.8287 1168.00
42.8939 1160.00
42.9591 1189.00
43.0243 1171.00
43.0895 1112.00
43.1547 1152.00
43.2199 1200.00
43.2851 1125.00
43.3503 1203.00
43.4155 1273.00
43.4807 1268.00
43.5459 1403.00
43.6111 1344.00
43.6763 1342.00
43.7415 1321.00
43.8067 1207.00
43.8719 1151.00
43.9371 1196.00
44.0023 1099.00
44.0675 1197.00
44.1327 1204.00
44.1979 1254.00
44.2631 1199.00
44.3283 1244.00
44.3935 1301.00
44.4587 1433.00
44.5239 1453.00
44.5891 1468.00
44.6543 1471.00
44.7195 1416.00
44.7847 1349.00
44.8499 1292.00
44.9151 1305.00
44.9803 1210.00
45.0455 1293.00
45.1107 1259.00
45.1759 1362.00
45.2411 1530.00
45.3063 1609.00
45.3715 1780.00
45.4367 1750.00
45.5019 1572.00
45.5671 1398.00
45.6323 1426.00
45.6975 1335.00
45.7627 1442.00
45.8279 1515.00
45.8931 1659.00
45.9583 1808.00
46.0235 2067.00
46.0887 2300.00
46.1539 2599.00
46.2191 2618.00
46.2843 2399.00
46.3495 2059.00
46.4147 1793.00
46.4799 1627.00
46.5451 1672.00
46.6103 1738.00
46.6755 2000.00
46.7407 2421.00
46.8059 3167.00
46.8711 3413.00
46.9363 2885.00
47.0015 2600.00
47.0667 2239.00
47.1319 1928.00
47.1971 1701.00
47.2623 1464.00
47.3275 1369.00
47.3927 1256.00
47.4579 1181.00
47.523 1203.00
47.5882 1173.00
47.6534 1250.00
47.7186 1218.00
47.7838 1184.00
47.849 1251.00
47.9142 1170.00
47.9794 1276.00
48.0446 1264.00
48.1098 1237.00
48.175 1236.00
48.2402 1222.00
48.3054 1198.00
48.3706 1190.00
48.4358 1164.00
48.501 1214.00
48.5662 1137.00
48.6314 1209.00
48.6966 1212.00
48.7618 1267.00
48.827 1337.00
48.8922 1440.00
48.9574 1623.00
49.0226 1831.00
49.0878 2118.00
49.153 2333.00
49.2182 2503.00
49.2834 2286.00
49.3486 2102.00
49.4138 1959.00
49.479 1689.00
49.5442 1641.00
49.6094 1774.00
49.6746 1891.00
49.7398 2605.00
49.805 3487.00
49.8702 3648.00
49.9354 3151.00
50.0006 2632.00
50.0658 1942.00
50.131 1701.00
50.1962 1528.00
50.2614 1503.00
50.3266 1547.00
50.3918 1637.00
50.457 1951.00
50.5222 2337.00
50.5874 2905.00
50.6526 4000.00
50.7178 4984.00
50.783 4710.00
50.8482 4134.00
50.9134 3235.00
50.9786 2838.00
51.0438 2685.00
51.109 3014.00
51.1742 3011.00
51.2394 2999.00
51.3046 2636.00
51.3698 2154.00
51.435 1925.00
51.5002 1691.00
51.5654 1543.00
51.6306 1488.00
51.6958 1591.00
51.761 1796.00
51.8262 1701.00
51.8914 1737.00
51.9566 1579.00
52.0218 1442.00
52.087 1349.00
52.1522 1309.00
52.2174 1269.00
52.2826 1123.00
52.3477 1241.00
52.4129 1171.00
52.4781 1268.00
52.5433 1178.00
52.6085 1205.00
52.6737 1177.00
52.7389 1188.00
52.8041 1211.00
52.8693 1357.00
52.9345 1420.00
52.9997 1613.00
53.0649 2047.00
53.1301 2252.00
53.1953 2255.00
53.2605 2071.00
53.3257 1748.00
53.3909 1583.00
53.4561 1455.00
53.5213 1393.00
53.5865 1319.00
53.6517 1295.00
53.7169 1288.00
53.7821 1322.00
53.8473 1292.00
53.9125 1252.00
53.9777 1246.00
54.0429 1245.00
54.1081 1224.00
54.1733 1288.00
54.2385 1263.00
54.3037 1306.00
54.3689 1405.00
54.4341 1555.00
54.4993 1638.00
54.5645 2033.00
54.6297 2568.00
54.6949 2929.00
54.7601 3069.00
54.8253 2661.00
54.8905 2534.00
54.9557 2097.00
55.0209 1764.00
55.0861 1706.00
55.1513 1511.00
55.2165 1476.00
55.2817 1568.00
55.3469 1478.00
55.4121 1436.00
55.4773 1477.00
55.5425 1432.00
55.6077 1424.00
55.6729 1417.00
55.7381 1621.00
55.8033 1904.00
55.8685 2470.00
55.9337 2835.00
55.9989 2980.00
56.0641 3034.00
56.1293 2840.00
56.1945 2482.00
56.2597 2279.00
56.3249 2092.00
56.3901 2009.00
56.4553 1997.00
56.5205 2378.00
56.5857 2381.00
56.6509 2091.00
56.7161 1967.00
56.7813 1734.00
56.8465 1406.00
56.9117 1389.00
56.9769 1274.00
57.042 1187.00
57.1073 1169.00
57.1724 1208.00
57.2376 1123.00
57.3028 1216.00
57.368 1196.00
57.4332 1222.00
57.4984 1256.00
57.5636 1360.00
57.6288 1359.00
57.694 1620.00
57.7592 1898.00
57.8244 2066.00
57.8896 2025.00
57.9548 1815.00
58.02 1713.00
58.0852 1526.00
58.1504 1432.00
58.2156 1392.00
58.2808 1310.00
58.346 1395.00
58.4112 1635.00
58.4764 1865.00
58.5416 2149.00
58.6068 2104.00
58.672 2053.00
58.7372 1901.00
58.8024 1921.00
58.8676 2134.00
58.9328 2159.00
58.998 2461.00
59.0632 2678.00
59.1284 2536.00
59.1936 2359.00
59.2588 2216.00
59.324 1833.00
59.3892 1602.00
59.4544 1470.00
59.5196 1348.00
59.5848 1346.00
59.65 1263.00
59.7152 1211.00
59.7804 1171.00
59.8456 1202.00
59.9108 1237.00
59.976 1161.00
60.0412 1227.00
60.1064 1225.00
60.1716 1361.00
60.2368 1390.00
60.302 1635.00
60.3672 1920.00
60.4324 2215.00
60.4976 2456.00
60.5628 2467.00
60.628 2494.00
60.6932 2349.00
60.7584 2400.00
60.8236 2581.00
60.8888 2365.00
60.954 2281.00
61.0192 2258.00
61.0844 2182.00
61.1496 2196.00
61.2148 2162.00
61.28 2009.00
61.3452 1963.00
61.4104 1731.00
61.4756 1619.00
61.5408 1421.00
61.606 1306.00
61.6712 1375.00
61.7364 1338.00
61.8016 1426.00
61.8667 1542.00
61.932 1823.00
61.9971 1855.00
62.0623 2015.00
62.1275 1957.00
62.1927 1897.00
62.2579 1908.00
62.3231 1897.00
62.3883 1877.00
62.4535 2016.00
62.5187 2223.00
62.5839 2264.00
62.6491 2195.00
62.7143 2071.00
62.7795 1804.00
62.8447 1670.00
62.9099 1555.00
62.9751 1508.00
63.0403 1389.00
63.1055 1309.00
63.1707 1341.00
63.2359 1327.00
63.3011 1423.00
63.3663 1633.00
63.4315 1886.00
63.4967 2109.00
63.5619 2126.00
63.6271 2024.00
63.6923 1897.00
63.7575 1650.00
63.8227 1443.00
63.8879 1247.00
63.9531 1187.00
64.0183 1143.00
64.0835 1089.00
64.1487 1068.00
64.2139 1062.00
64.2791 1140.00
64.3443 1082.00
64.4095 1111.00
64.4747 1138.00
64.5399 1212.00
64.6051 1225.00
64.6703 1268.00
64.7355 1392.00
64.8007 1390.00
64.8659 1495.00
64.9311 1572.00
64.9963 1527.00
65.0615 1507.00
65.1267 1492.00
65.1919 1431.00
65.2571 1302.00
65.3223 1187.00
65.3875 1133.00
65.4527 1138.00
65.5179 1133.00
65.5831 1145.00
65.6483 1218.00
65.7135 1295.00
65.7787 1358.00
65.8439 1513.00
65.9091 1565.00
65.9743 1747.00
66.0395 1832.00
66.1047 1919.00
66.1699 1896.00
66.2351 1961.00
66.3003 2156.00
66.3655 2290.00
66.4307 2375.00
66.4959 2314.00
66.561 2064.00
66.6263 1953.00
66.6915 1656.00
66.7566 1548.00
66.8218 1356.00
66.887 1241.00
66.9522 1138.00
67.0174 1129.00
67.0826 956.00
67.1478 1028.00
67.213 1061.00
67.2782 1077.00
67.3434 979.00
67.4086 1022.00
67.4738 1031.00
67.539 1004.00
67.6042 1073.00
67.6694 973.00
67.7346 1055.00
67.7998 1030.00
67.865 1053.00
67.9302 1061.00
67.9954 1061.00
68.0606 1108.00
68.1258 1103.00
68.191 1107.00
68.2562 1052.00
68.3214 1096.00
68.3866 997.00
68.4518 1020.00
68.517 968.00
68.5822 1010.00
68.6474 991.00
68.7126 1019.00
68.7778 1000.00
68.843 1030.00
68.9082 1001.00
68.9734 989.00
69.0386 987.00
69.1038 1043.00
69.169 1027.00
69.2342 1081.00
69.2994 1132.00
69.3646 1193.00
69.4298 1314.00
69.495 1295.00
69.5602 1408.00
69.6254 1480.00
69.6906 1472.00
69.7558 1346.00
69.821 1256.00
69.8862 1222.00
69.9514 1087.00
70.0166 1116.00
70.0818 1019.00
70.147 986.00
70.2122 1047.00
70.2774 1061.00
70.3426 1076.00
70.4078 1074.00
70.473 1026.00
70.5382 1000.00
70.6034 992.00
70.6686 1015.00
70.7338 986.00
70.799 1036.00
70.8642 990.00
70.9294 1017.00
70.9946 998.00
71.0598 983.00
71.125 986.00
71.1902 978.00
71.2554 1030.00
71.3205 1066.00
71.3858 1190.00
71.451 1331.00
71.5162 1350.00
71.5813 1337.00
71.6465 1457.00
71.7117 1638.00
71.7769 1762.00
71.8421 1812.00
71.9073 1764.00
71.9725 1830.00
72.0377 1734.00
72.1029 1681.00
72.1681 1454.00
72.2333 1326.00
72.2985 1203.00
72.3637 1132.00
72.4289 1097.00
72.4941 1137.00
72.5593 1112.00
72.6245 1200.00
72.6897 1182.00
72.7549 1275.00
72.8201 1304.00
72.8853 1323.00
72.9505 1315.00
73.0157 1237.00
73.0809 1266.00
73.1461 1249.00
73.2113 1298.00
73.2765 1340.00
73.3417 1315.00
73.4069 1278.00
73.4721 1201.00
73.5373 1223.00
73.6025 1132.00
73.6677 1079.00
73.7329 1064.00
73.7981 1035.00
73.8633 1019.00
73.9285 956.00
73.9937 964.00
74.0589 997.00
74.1241 996.00
74.1893 984.00
74.2545 938.00
74.3197 889.00
74.3849 906.00
74.4501 920.00
74.5153 915.00
74.5805 922.00
74.6457 895.00
74.7109 939.00
74.7761 981.00
74.8413 1060.00
74.9065 1067.00
74.9717 1058.00
75.0369 1128.00
75.1021 1083.00
75.1673 1042.00
75.2325 1150.00
75.2977 1151.00
75.3629 1218.00
75.4281 1243.00
75.4933 1305.00
75.5585 1217.00
75.6237 1218.00
75.6889 1266.00
75.7541 1351.00
75.8193 1479.00
75.8845 1386.00
75.9497 1419.00
76.0149 1405.00
76.0801 1363.00
76.1452 1304.00
76.2104 1213.00
76.2756 1192.00
76.3409 1160.00
76.406 1111.00
76.4712 1057.00
76.5364 987.00
76.6016 1102.00
76.6668 1052.00
76.732 1103.00
76.7972 1064.00
76.8624 1118.00
76.9276 1153.00
76.9928 1116.00
77.058 1155.00
77.1232 1149.00
77.1884 1203.00
77.2536 1217.00
77.3188 1265.00
77.384 1196.00
77.4492 1163.00
77.5144 1078.00
77.5796 1084.00
77.6448 981.00
77.71 1097.00
77.7752 1014.00
77.8404 1007.00
77.9056 986.00
77.9708 1064.00
78.036 1091.00
78.1012 1089.00
78.1664 1106.00
78.2316 1129.00
78.2968 1114.00
78.362 1089.00
78.4272 1076.00
78.4924 1089.00
78.5576 1004.00
78.6228 1000.00
78.688 1078.00
78.7532 1034.00
78.8184 1058.00
78.8836 1021.00
78.9488 1090.00
79.014 1050.00
79.0792 1004.00
79.1444 971.00
79.2096 1055.00
79.2748 1053.00
79.34 1094.00
79.4052 1052.00
79.4704 1078.00
79.5356 1114.00
79.6008 1211.00
79.666 1375.00
79.7312 1444.00
79.7964 1356.00
79.8616 1409.00
79.9268 1456.00
79.992 1476.00
80.0572 1313.00
80.1224 1285.00
80.1876 1192.00
80.2528 1170.00
80.318 1136.00
80.3832 1061.00
80.4484 1010.00
80.5136 966.00
80.5788 1004.00
80.644 945.00
80.7092 939.00
80.7744 1020.00
80.8396 941.00
80.9048 925.00
80.9699 1020.00
81.0351 998.00
81.1003 989.00
81.1655 970.00
81.2307 1025.00
81.2959 1071.00
81.3611 1033.00
81.4263 1002.00
81.4915 1083.00
81.5567 1097.00
81.6219 1048.00
81.6871 1051.00
81.7523 1141.00
81.8175 1129.00
81.8827 1160.00
81.9479 1187.00
82.0131 1203.00
82.0783 1215.00
82.1435 1263.00
82.2087 1326.00
82.2739 1298.00
82.3391 1300.00
82.4043 1338.00
82.4695 1238.00
82.5347 1212.00
82.5999 1118.00
82.6651 1131.00
82.7303 1184.00
82.7955 1031.00
82.8607 1063.00
82.9259 1128.00
82.9911 1105.00
83.0563 1127.00
83.1215 1077.00
83.1867 1030.00
83.2519 1112.00
83.3171 1225.00
83.3823 1167.00
83.4475 1176.00
83.5127 1208.00
83.5779 1198.00
83.6431 1195.00
83.7083 1184.00
83.7735 1193.00
83.8387 1262.00
83.9039 1253.00
83.9691 1274.00
84.0343 1278.00
84.0995 1246.00
84.1647 1273.00
84.2299 1187.00
84.2951 1181.00
84.3603 1126.00
84.4255 1109.00
84.4907 1179.00
84.5559 1126.00
84.6211 1207.00
84.6863 1131.00
84.7515 1245.00
84.8167 1267.00
84.8819 1299.00
84.9471 1345.00
85.0123 1329.00
85.0775 1253.00
85.1427 1233.00
85.2079 1180.00
85.2731 1076.00
85.3383 1106.00
85.4035 1139.00
85.4687 1154.00
85.5339 1073.00
85.5991 1108.00
85.6643 1202.00
85.7295 1227.00
85.7946 1136.00
85.8598 1204.00
85.925 1167.00
85.9903 1193.00
86.0554 1112.00
86.1206 1168.00
86.1858 1129.00
86.251 1098.00
86.3162 1052.00
86.3814 1087.00
86.4466 1093.00
86.5118 1068.00
86.577 1138.00
86.6422 1212.00
86.7074 1080.00
86.7726 1150.00
86.8378 1153.00
86.903 1139.00
86.9682 1192.00
87.0334 1153.00
87.0986 1172.00
87.1638 1062.00
87.229 1052.00
87.2942 996.00
87.3594 959.00
87.4246 972.00
87.4898 994.00
87.555 993.00
87.6202 994.00
87.6854 964.00
87.7506 986.00
87.8158 1003.00
87.881 1066.00
87.9462 1019.00
88.0114 1052.00
88.0766 1032.00
88.1418 1103.00
88.207 1197.00
88.2722 1150.00
88.3374 1240.00
88.4026 1122.00
88.4678 1208.00
88.533 1182.00
88.5982 1144.00
88.6634 1145.00
88.7286 1144.00
88.7938 1158.00
88.859 1184.00
88.9242 1229.00
88.9894 1258.00
89.0546 1262.00
89.1198 1303.00
89.185 1292.00
89.2502 1339.00
89.3154 1396.00
89.3806 1371.00
89.4458 1371.00
89.511 1341.00
89.5762 1314.00
89.6414 1311.00
89.7066 1284.00
89.7718 1239.00
89.837 1173.00
89.9022 1200.00
89.9674 1156.00
90.0326 1198.00
90.0978 1154.00
90.163 1141.00
90.2282 1169.00
90.2934 1096.00
90.3586 1123.00
90.4238 1136.00
90.489 1157.00
90.5542 1212.00
90.6193 1291.00
90.6845 1242.00
90.7497 1232.00
90.8149 1174.00
90.8801 1163.00
90.9453 1103.00
91.0105 1123.00
91.0757 1144.00
91.1409 1161.00
91.2061 1076.00
91.2713 1033.00
91.3365 1038.00
91.4017 981.00
91.4669 1066.00
91.5321 1042.00
91.5973 1025.00
91.6625 1088.00
91.7277 1048.00
91.7929 1091.00
91.8581 1042.00
91.9233 1065.00
91.9885 1045.00
92.0537 1040.00
92.1189 1050.00
92.1841 1092.00
92.2493 1064.00
92.3145 1081.00
92.3797 1009.00
92.4449 1068.00
92.5101 1060.00
92.5753 1047.00
92.6405 1019.00
92.7057 1047.00
92.7709 1066.00
92.8361 1019.00
92.9013 1002.00
92.9665 1043.00
93.0317 934.00
93.0969 1057.00
93.1621 935.00
93.2273 1004.00
93.2925 923.00
93.3577 1010.00
93.4229 956.00
93.4881 983.00
93.5533 874.00
93.6185 880.00
93.6837 901.00
93.7489 891.00
93.8141 981.00
93.8793 966.00
93.9445 908.00
94.0097 924.00
94.0749 949.00
94.1401 926.00
94.2053 926.00
94.2705 941.00
94.3357 950.00
94.4009 1045.00
94.4661 1056.00
94.5313 989.00
94.5965 1063.00
94.6617 1128.00
94.7269 1086.00
94.7921 1092.00
94.8573 1115.00
94.9225 1083.00
94.9877 1144.00
95.0529 1089.00
95.1181 1073.00
95.1833 1026.00
95.2485 1091.00
95.3137 1083.00
95.3789 980.00
95.444 1062.00
95.5092 1029.00
95.5744 1053.00
95.6396 1146.00
95.7048 1109.00
95.77 1166.00
95.8352 1153.00
95.9004 1163.00
95.9656 1267.00
96.0308 1235.00
96.096 1247.00
96.1612 1173.00
96.2264 1185.00
96.2916 1202.00
96.3568 1154.00
96.422 1081.00
96.4872 1125.00
96.5524 997.00
96.6176 1025.00
96.6828 1031.00
96.748 1041.00
96.8132 1077.00
96.8784 1075.00
96.9436 1080.00
97.0088 1137.00
97.074 1185.00
97.1392 1222.00
97.2044 1170.00
97.2696 1177.00
97.3348 1239.00
97.4 1345.00
97.4652 1324.00
97.5304 1320.00
97.5956 1328.00
97.6608 1387.00
97.726 1389.00
97.7912 1417.00
97.8564 1357.00
97.9216 1353.00
97.9868 1254.00
98.052 1249.00
98.1172 1201.00
98.1824 1132.00
98.2476 1166.00
98.3128 1142.00
98.378 1055.00
98.4432 1157.00
98.5084 1044.00
98.5736 1067.00
98.6388 1058.00
98.704 960.00
98.7692 1084.00
98.8344 1083.00
98.8996 1118.00
98.9648 1179.00
99.03 1193.00
99.0952 1170.00
99.1604 1146.00
99.2256 1219.00
99.2908 1153.00
99.356 1286.00
99.4212 1257.00
99.4864 1310.00
99.5516 1273.00
99.6168 1303.00
99.682 1283.00
99.7472 1254.00
99.8124 1260.00
99.8776 1258.00
99.9428 1245.00
100.008 1271.00
100.073 1309.00
100.095 1316.00