File: data/xrd_creation/results/Na_280.xy
9.903433 2757.00
9.968632 2658.00
10.0338 2661.00
10.099 2590.00
10.1642 2627.00
10.2294 2572.00
10.2946 2557.00
10.3598 2550.00
10.425 2557.00
10.4902 2515.00
10.5554 2434.00
10.6206 2465.00
10.6858 2381.00
10.751 2397.00
10.8162 2355.00
10.8814 2355.00
10.9466 2424.00
11.0118 2343.00
11.077 2365.00
11.1422 2322.00
11.2074 2408.00
11.2726 2237.00
11.3378 2236.00
11.403 2223.00
11.4682 2232.00
11.5334 2279.00
11.5986 2135.00
11.6638 2151.00
11.729 2213.00
11.7942 2158.00
11.8594 2132.00
11.9246 2104.00
11.9898 2080.00
12.055 2124.00
12.1202 2051.00
12.1854 2037.00
12.2506 2068.00
12.3158 2041.00
12.381 2042.00
12.4462 2041.00
12.5114 1964.00
12.5766 1949.00
12.6418 1956.00
12.707 1925.00
12.7722 1955.00
12.8374 1966.00
12.9026 1890.00
12.9678 1927.00
13.033 1913.00
13.0982 1930.00
13.1634 1920.00
13.2286 1845.00
13.2938 1869.00
13.359 1841.00
13.4242 1789.00
13.4894 1810.00
13.5546 1782.00
13.6198 1781.00
13.685 1800.00
13.7502 1797.00
13.8154 1794.00
13.8805 1710.00
13.9457 1737.00
14.0109 1796.00
14.0761 1811.00
14.1413 1799.00
14.2065 1717.00
14.2717 1718.00
14.3369 1688.00
14.4021 1695.00
14.4673 1620.00
14.5325 1690.00
14.5977 1700.00
14.6629 1736.00
14.7281 1755.00
14.7933 1659.00
14.8585 1700.00
14.9237 1726.00
14.9889 1659.00
15.0541 1665.00
15.1193 1611.00
15.1845 1595.00
15.2497 1631.00
15.3149 1668.00
15.3801 1623.00
15.4453 1648.00
15.5105 1666.00
15.5757 1594.00
15.6409 1595.00
15.7061 1577.00
15.7713 1564.00
15.8365 1592.00
15.9017 1618.00
15.9669 1576.00
16.0321 1605.00
16.0973 1536.00
16.1625 1544.00
16.2277 1562.00
16.2929 1591.00
16.3581 1565.00
16.4233 1583.00
16.4885 1598.00
16.5537 1483.00
16.6189 1529.00
16.6841 1556.00
16.7493 1407.00
16.8145 1498.00
16.8797 1535.00
16.9449 1478.00
17.0101 1462.00
17.0753 1423.00
17.1405 1550.00
17.2057 1459.00
17.2709 1485.00
17.3361 1508.00
17.4013 1443.00
17.4665 1528.00
17.5317 1451.00
17.5969 1479.00
17.6621 1489.00
17.7273 1455.00
17.7925 1481.00
17.8577 1417.00
17.9229 1519.00
17.9881 1422.00
18.0533 1421.00
18.1185 1487.00
18.1837 1420.00
18.2489 1339.00
18.3141 1335.00
18.3793 1448.00
18.4445 1380.00
18.5097 1364.00
18.5749 1406.00
18.6401 1318.00
18.7052 1403.00
18.7704 1423.00
18.8356 1552.00
18.9008 1732.00
18.966 1814.00
19.0312 1773.00
19.0964 1642.00
19.1616 1392.00
19.2268 1355.00
19.292 1296.00
19.3572 1363.00
19.4224 1339.00
19.4876 1374.00
19.5528 1399.00
19.618 1411.00
19.6832 1492.00
19.7484 1455.00
19.8136 1810.00
19.8788 2315.00
19.944 3274.00
20.0092 4750.00
20.0744 6389.00
20.1396 7017.00
20.2048 4854.00
20.27 2683.00
20.3352 1717.00
20.4004 1394.00
20.4656 1328.00
20.5308 1314.00
20.596 1279.00
20.6612 1355.00
20.7264 1239.00
20.7916 1254.00
20.8568 1232.00
20.922 1227.00
20.9872 1172.00
21.0524 1196.00
21.1176 1280.00
21.1828 1225.00
21.248 1278.00
21.3132 1181.00
21.3784 1233.00
21.4436 1148.00
21.5088 1223.00
21.574 1207.00
21.6392 1201.00
21.7044 1181.00
21.7696 1212.00
21.8348 1227.00
21.9 1267.00
21.9652 1310.00
22.0304 1222.00
22.0956 1169.00
22.1608 1169.00
22.226 1162.00
22.2912 1158.00
22.3564 1188.00
22.4216 1103.00
22.4868 1131.00
22.552 1153.00
22.6172 1136.00
22.6824 1124.00
22.7476 1106.00
22.8128 1241.00
22.878 1107.00
22.9432 1219.00
23.0084 1276.00
23.0736 1308.00
23.1388 1405.00
23.204 1370.00
23.2692 1191.00
23.3344 1137.00
23.3996 1174.00
23.4647 1131.00
23.5299 1072.00
23.5951 1140.00
23.6603 1101.00
23.7255 1137.00
23.7907 1129.00
23.8559 1090.00
23.9211 1103.00
23.9863 1145.00
24.0515 1109.00
24.1167 1146.00
24.1819 1147.00
24.2471 1232.00
24.3123 1444.00
24.3775 1776.00
24.4427 2400.00
24.5079 2914.00
24.5731 2559.00
24.6383 2025.00
24.7035 1417.00
24.7687 1103.00
24.8339 1104.00
24.8991 1035.00
24.9643 1108.00
25.0295 1059.00
25.0947 1022.00
25.1599 1012.00
25.2251 1081.00
25.2903 993.00
25.3555 995.00
25.4207 997.00
25.4859 1055.00
25.5511 1072.00
25.6163 1027.00
25.6815 1027.00
25.7467 957.00
25.8119 975.00
25.8771 1010.00
25.9423 998.00
26.0075 1119.00
26.0727 1081.00
26.1379 1149.00
26.2031 1220.00
26.2683 1614.00
26.3335 2265.00
26.3987 2852.00
26.4639 2869.00
26.5291 2056.00
26.5943 1438.00
26.6595 1031.00
26.7247 1024.00
26.7899 956.00
26.8551 973.00
26.9203 956.00
26.9855 948.00
27.0507 1028.00
27.1159 982.00
27.1811 980.00
27.2463 944.00
27.3115 993.00
27.3767 995.00
27.4419 1065.00
27.5071 1192.00
27.5723 1128.00
27.6375 1023.00
27.7027 944.00
27.7679 977.00
27.8331 899.00
27.8983 932.00
27.9635 891.00
28.0287 947.00
28.0939 940.00
28.1591 905.00
28.2243 893.00
28.2894 925.00
28.3546 930.00
28.4198 932.00
28.485 902.00
28.5502 925.00
28.6154 872.00
28.6806 910.00
28.7458 905.00
28.811 867.00
28.8762 802.00
28.9414 848.00
29.0066 846.00
29.0718 855.00
29.137 868.00
29.2022 866.00
29.2674 895.00
29.3326 865.00
29.3978 905.00
29.463 982.00
29.5282 861.00
29.5934 856.00
29.6586 800.00
29.7238 915.00
29.789 866.00
29.8542 864.00
29.9194 894.00
29.9846 895.00
30.0498 836.00
30.115 818.00
30.1802 888.00
30.2454 922.00
30.3106 845.00
30.3758 876.00
30.441 841.00
30.5062 842.00
30.5714 879.00
30.6366 864.00
30.7018 913.00
30.767 915.00
30.8322 894.00
30.8974 926.00
30.9626 882.00
31.0278 890.00
31.093 948.00
31.1582 864.00
31.2234 862.00
31.2886 921.00
31.3538 867.00
31.419 852.00
31.4842 807.00
31.5494 785.00
31.6146 870.00
31.6798 780.00
31.745 826.00
31.8102 869.00
31.8754 837.00
31.9406 840.00
32.0058 859.00
32.071 829.00
32.1362 906.00
32.2014 894.00
32.2666 962.00
32.3318 954.00
32.397 1022.00
32.4622 1171.00
32.5274 1610.00
32.5926 2546.00
32.6578 4029.00
32.723 5222.00
32.7882 4726.00
32.8534 3200.00
32.9186 2039.00
32.9838 1856.00
33.0489 2981.00
33.1141 4918.00
33.1793 6119.00
33.2445 5727.00
33.3097 3653.00
33.3749 2193.00
33.4401 1813.00
33.5053 2480.00
33.5705 3419.00
33.6357 3873.00
33.7009 3363.00
33.7661 2625.00
33.8313 2163.00
33.8965 1817.00
33.9617 1401.00
34.0269 1111.00
34.0921 941.00
34.1573 881.00
34.2225 821.00
34.2877 813.00
34.3529 760.00
34.4181 864.00
34.4833 900.00
34.5485 1016.00
34.6137 1108.00
34.6789 1009.00
34.7441 925.00
34.8093 908.00
34.8745 900.00
34.9397 846.00
35.0049 885.00
35.0701 876.00
35.1353 922.00
35.2005 866.00
35.2657 946.00
35.3309 864.00
35.3961 841.00
35.4613 787.00
35.5265 864.00
35.5917 804.00
35.6569 861.00
35.7221 955.00
35.7873 1079.00
35.8525 1075.00
35.9177 1069.00
35.9829 1134.00
36.0481 1474.00
36.1133 2277.00
36.1785 3091.00
36.2437 3384.00
36.3089 2760.00
36.3741 1920.00
36.4393 1332.00
36.5045 873.00
36.5697 845.00
36.6349 904.00
36.7001 995.00
36.7653 1141.00
36.8305 1263.00
36.8957 1082.00
36.9609 1077.00
37.0261 976.00
37.0913 1018.00
37.1565 1142.00
37.2217 1165.00
37.2869 1068.00
37.3521 1005.00
37.4173 848.00
37.4825 796.00
37.5477 780.00
37.6129 713.00
37.6781 728.00
37.7433 753.00
37.8085 755.00
37.8736 719.00
37.9388 658.00
38.004 715.00
38.0692 760.00
38.1344 741.00
38.1996 786.00
38.2648 855.00
38.33 1141.00
38.3952 1654.00
38.4604 2217.00
38.5256 2449.00
38.5908 1994.00
38.656 1422.00
38.7212 970.00
38.7864 862.00
38.8516 897.00
38.9168 865.00
38.982 892.00
39.0472 882.00
39.1124 869.00
39.1776 861.00
39.2428 863.00
39.308 914.00
39.3732 933.00
39.4384 870.00
39.5036 741.00
39.5688 759.00
39.634 756.00
39.6992 788.00
39.7644 840.00
39.8296 843.00
39.8948 776.00
39.96 740.00
40.0252 813.00
40.0904 879.00
40.1556 832.00
40.2208 785.00
40.286 704.00
40.3512 658.00
40.4164 708.00
40.4816 602.00
40.5468 682.00
40.612 645.00
40.6772 664.00
40.7424 664.00
40.8076 737.00
40.8728 714.00
40.938 657.00
41.0032 697.00
41.0684 657.00
41.1336 659.00
41.1988 726.00
41.264 828.00
41.3292 972.00
41.3944 1192.00
41.4596 1551.00
41.5248 1626.00
41.59 1378.00
41.6552 1110.00
41.7204 856.00
41.7856 747.00
41.8508 717.00
41.916 631.00
41.9812 649.00
42.0464 659.00
42.1116 692.00
42.1768 643.00
42.242 675.00
42.3072 633.00
42.3724 657.00
42.4376 624.00
42.5028 770.00
42.568 763.00
42.6332 854.00
42.6983 874.00
42.7635 829.00
42.8287 782.00
42.8939 743.00
42.9591 654.00
43.0243 711.00
43.0895 671.00
43.1547 679.00
43.2199 684.00
43.2851 671.00
43.3503 685.00
43.4155 721.00
43.4807 993.00
43.5459 1259.00
43.6111 1510.00
43.6763 1511.00
43.7415 1248.00
43.8067 963.00
43.8719 812.00
43.9371 783.00
44.0023 843.00
44.0675 870.00
44.1327 856.00
44.1979 892.00
44.2631 871.00
44.3283 858.00
44.3935 760.00
44.4587 690.00
44.5239 756.00
44.5891 809.00
44.6543 1013.00
44.7195 1090.00
44.7847 980.00
44.8499 1002.00
44.9151 931.00
44.9803 805.00
45.0455 799.00
45.1107 700.00
45.1759 668.00
45.2411 630.00
45.3063 592.00
45.3715 630.00
45.4367 600.00
45.5019 614.00
45.5671 606.00
45.6323 610.00
45.6975 600.00
45.7627 644.00
45.8279 670.00
45.8931 627.00
45.9583 627.00
46.0235 582.00
46.0887 642.00
46.1539 591.00
46.2191 598.00
46.2843 625.00
46.3495 562.00
46.4147 625.00
46.4799 625.00
46.5451 615.00
46.6103 637.00
46.6755 628.00
46.7407 664.00
46.8059 667.00
46.8711 678.00
46.9363 670.00
47.0015 708.00
47.0667 769.00
47.1319 1077.00
47.1971 1646.00
47.2623 2169.00
47.3275 2180.00
47.3927 1740.00
47.4579 1375.00
47.523 990.00
47.5882 823.00
47.6534 759.00
47.7186 796.00
47.7838 721.00
47.849 745.00
47.9142 798.00
47.9794 702.00
48.0446 703.00
48.1098 632.00
48.175 663.00
48.2402 590.00
48.3054 639.00
48.3706 619.00
48.4358 671.00
48.501 655.00
48.5662 719.00
48.6314 710.00
48.6966 710.00
48.7618 708.00
48.827 652.00
48.8922 672.00
48.9574 696.00
49.0226 680.00
49.0878 765.00
49.153 675.00
49.2182 662.00
49.2834 682.00
49.3486 597.00
49.4138 577.00
49.479 589.00
49.5442 642.00
49.6094 630.00
49.6746 663.00
49.7398 664.00
49.805 630.00
49.8702 652.00
49.9354 643.00
50.0006 699.00
50.0658 875.00
50.131 1208.00
50.1962 1611.00
50.2614 1677.00
50.3266 1487.00
50.3918 1184.00
50.457 959.00
50.5222 738.00
50.5874 689.00
50.6526 649.00
50.7178 619.00
50.783 637.00
50.8482 599.00
50.9134 595.00
50.9786 605.00
51.0438 616.00
51.109 611.00
51.1742 612.00
51.2394 583.00
51.3046 641.00
51.3698 639.00
51.435 563.00
51.5002 638.00
51.5654 723.00
51.6306 846.00
51.6958 935.00
51.761 917.00
51.8262 860.00
51.8914 792.00
51.9566 705.00
52.0218 726.00
52.087 811.00
52.1522 945.00
52.2174 915.00
52.2826 813.00
52.3477 765.00
52.4129 650.00
52.4781 629.00
52.5433 594.00
52.6085 583.00
52.6737 569.00
52.7389 588.00
52.8041 575.00
52.8693 577.00
52.9345 627.00
52.9997 676.00
53.0649 656.00
53.1301 625.00
53.1953 583.00
53.2605 600.00
53.3257 595.00
53.3909 655.00
53.4561 662.00
53.5213 726.00
53.5865 775.00
53.6517 758.00
53.7169 719.00
53.7821 665.00
53.8473 675.00
53.9125 645.00
53.9777 647.00
54.0429 664.00
54.1081 643.00
54.1733 652.00
54.2385 709.00
54.3037 788.00
54.3689 814.00
54.4341 871.00
54.4993 916.00
54.5645 1026.00
54.6297 1059.00
54.6949 1421.00
54.7601 2163.00
54.8253 2954.00
54.8905 3102.00
54.9557 2593.00
55.0209 2063.00
55.0861 1478.00
55.1513 1066.00
55.2165 905.00
55.2817 898.00
55.3469 810.00
55.4121 731.00
55.4773 671.00
55.5425 609.00
55.6077 643.00
55.6729 632.00
55.7381 729.00
55.8033 782.00
55.8685 823.00
55.9337 825.00
55.9989 724.00
56.0641 721.00
56.1293 679.00
56.1945 626.00
56.2597 604.00
56.3249 597.00
56.3901 647.00
56.4553 687.00
56.5205 655.00
56.5857 703.00
56.6509 755.00
56.7161 745.00
56.7813 745.00
56.8465 701.00
56.9117 683.00
56.9769 643.00
57.042 663.00
57.1073 667.00
57.1724 716.00
57.2376 683.00
57.3028 688.00
57.368 648.00
57.4332 618.00
57.4984 595.00
57.5636 565.00
57.6288 571.00
57.694 573.00
57.7592 549.00
57.8244 543.00
57.8896 583.00
57.9548 648.00
58.02 624.00
58.0852 654.00
58.1504 664.00
58.2156 668.00
58.2808 706.00
58.346 750.00
58.4112 779.00
58.4764 777.00
58.5416 774.00
58.6068 762.00
58.672 738.00
58.7372 734.00
58.8024 803.00
58.8676 1048.00
58.9328 1332.00
58.998 1367.00
59.0632 1208.00
59.1284 1367.00
59.1936 1413.00
59.2588 1324.00
59.324 1305.00
59.3892 1067.00
59.4544 927.00
59.5196 852.00
59.5848 807.00
59.65 913.00
59.7152 969.00
59.7804 862.00
59.8456 788.00
59.9108 703.00
59.976 638.00
60.0412 592.00
60.1064 591.00
60.1716 577.00
60.2368 536.00
60.302 572.00
60.3672 563.00
60.4324 593.00
60.4976 594.00
60.5628 555.00
60.628 539.00
60.6932 589.00
60.7584 608.00
60.8236 613.00
60.8888 579.00
60.954 601.00
61.0192 575.00
61.0844 599.00
61.1496 590.00
61.2148 551.00
61.28 579.00
61.3452 580.00
61.4104 505.00
61.4756 480.00
61.5408 539.00
61.606 565.00
61.6712 548.00
61.7364 560.00
61.8016 563.00
61.8667 566.00
61.932 564.00
61.9971 572.00
62.0623 577.00
62.1275 615.00
62.1927 609.00
62.2579 642.00
62.3231 698.00
62.3883 708.00
62.4535 648.00
62.5187 677.00
62.5839 679.00
62.6491 761.00
62.7143 964.00
62.7795 1152.00
62.8447 1272.00
62.9099 1170.00
62.9751 958.00
63.0403 929.00
63.1055 846.00
63.1707 739.00
63.2359 732.00
63.3011 823.00
63.3663 1088.00
63.4315 1249.00
63.4967 1342.00
63.5619 1176.00
63.6271 1092.00
63.6923 916.00
63.7575 781.00
63.8227 699.00
63.8879 652.00
63.9531 595.00
64.0183 543.00
64.0835 577.00
64.1487 545.00
64.2139 514.00
64.2791 570.00
64.3443 559.00
64.4095 572.00
64.4747 590.00
64.5399 573.00
64.6051 576.00
64.6703 576.00
64.7355 614.00
64.8007 659.00
64.8659 739.00
64.9311 846.00
64.9963 1125.00
65.0615 1604.00
65.1267 1807.00
65.1919 1898.00
65.2571 2004.00
65.3223 1797.00
65.3875 1484.00
65.4527 1251.00
65.5179 1057.00
65.5831 785.00
65.6483 657.00
65.7135 601.00
65.7787 592.00
65.8439 573.00
65.9091 644.00
65.9743 612.00
66.0395 636.00
66.1047 605.00
66.1699 571.00
66.2351 539.00
66.3003 577.00
66.3655 540.00
66.4307 555.00
66.4959 568.00
66.561 533.00
66.6263 524.00
66.6915 547.00
66.7566 639.00
66.8218 571.00
66.887 584.00
66.9522 548.00
67.0174 588.00
67.0826 549.00
67.1478 595.00
67.213 594.00
67.2782 606.00
67.3434 641.00
67.4086 611.00
67.4738 565.00
67.539 590.00
67.6042 537.00
67.6694 516.00
67.7346 483.00
67.7998 524.00
67.865 539.00
67.9302 508.00
67.9954 490.00
68.0606 514.00
68.1258 487.00
68.191 496.00
68.2562 501.00
68.3214 508.00
68.3866 535.00
68.4518 518.00
68.517 558.00
68.5822 552.00
68.6474 575.00
68.7126 530.00
68.7778 517.00
68.843 517.00
68.9082 530.00
68.9734 503.00
69.0386 548.00
69.1038 546.00
69.169 524.00
69.2342 517.00
69.2994 512.00
69.3646 533.00
69.4298 613.00
69.495 704.00
69.5602 774.00
69.6254 861.00
69.6906 838.00
69.7558 807.00
69.821 753.00
69.8862 760.00
69.9514 813.00
70.0166 778.00
70.0818 661.00
70.147 660.00
70.2122 681.00
70.2774 610.00
70.3426 586.00
70.4078 538.00
70.473 540.00
70.5382 550.00
70.6034 514.00
70.6686 559.00
70.7338 540.00
70.799 540.00
70.8642 541.00
70.9294 544.00
70.9946 551.00
71.0598 512.00
71.125 478.00
71.1902 509.00
71.2554 515.00
71.3205 534.00
71.3858 507.00
71.451 512.00
71.5162 500.00
71.5813 527.00
71.6465 549.00
71.7117 549.00
71.7769 491.00
71.8421 543.00
71.9073 532.00
71.9725 584.00
72.0377 540.00
72.1029 518.00
72.1681 569.00
72.2333 530.00
72.2985 518.00
72.3637 542.00
72.4289 566.00
72.4941 586.00
72.5593 638.00
72.6245 607.00
72.6897 634.00
72.7549 740.00
72.8201 809.00
72.8853 966.00
72.9505 998.00
73.0157 956.00
73.0809 829.00
73.1461 896.00
73.2113 823.00
73.2765 800.00
73.3417 746.00
73.4069 665.00
73.4721 616.00
73.5373 623.00
73.6025 549.00
73.6677 586.00
73.7329 548.00
73.7981 481.00
73.8633 486.00
73.9285 550.00
73.9937 543.00
74.0589 533.00
74.1241 532.00
74.1893 531.00
74.2545 513.00
74.3197 527.00
74.3849 517.00
74.4501 599.00
74.5153 558.00
74.5805 559.00
74.6457 554.00
74.7109 560.00
74.7761 550.00
74.8413 532.00
74.9065 524.00
74.9717 525.00
75.0369 526.00
75.1021 632.00
75.1673 664.00
75.2325 706.00
75.2977 695.00
75.3629 627.00
75.4281 612.00
75.4933 585.00
75.5585 540.00
75.6237 620.00
75.6889 502.00
75.7541 511.00
75.8193 561.00
75.8845 604.00
75.9497 547.00
76.0149 537.00
76.0801 536.00
76.1452 534.00
76.2104 516.00
76.2756 593.00
76.3409 597.00
76.406 585.00
76.4712 583.00
76.5364 576.00
76.6016 613.00
76.6668 599.00
76.732 646.00
76.7972 677.00
76.8624 701.00
76.9276 670.00
76.9928 636.00
77.058 645.00
77.1232 605.00
77.1884 561.00
77.2536 498.00
77.3188 566.00
77.384 560.00
77.4492 504.00
77.5144 564.00
77.5796 535.00
77.6448 531.00
77.71 494.00
77.7752 506.00
77.8404 517.00
77.9056 501.00
77.9708 489.00
78.036 514.00
78.1012 544.00
78.1664 555.00
78.2316 555.00
78.2968 577.00
78.362 504.00
78.4272 525.00
78.4924 509.00
78.5576 595.00
78.6228 506.00
78.688 561.00
78.7532 562.00
78.8184 589.00
78.8836 617.00
78.9488 807.00
79.014 887.00
79.0792 1005.00
79.1444 867.00
79.2096 825.00
79.2748 859.00
79.34 808.00
79.4052 683.00
79.4704 621.00
79.5356 585.00
79.6008 541.00
79.666 540.00
79.7312 530.00
79.7964 493.00
79.8616 551.00
79.9268 522.00
79.992 537.00
80.0572 528.00
80.1224 555.00
80.1876 573.00
80.2528 549.00
80.318 581.00
80.3832 507.00
80.4484 555.00
80.5136 508.00
80.5788 500.00
80.644 538.00
80.7092 513.00
80.7744 542.00
80.8396 564.00
80.9048 524.00
80.9699 541.00
81.0351 514.00
81.1003 506.00
81.1655 584.00
81.2307 483.00
81.2959 514.00
81.3611 512.00
81.4263 533.00
81.4915 505.00
81.5567 520.00
81.6219 573.00
81.6871 528.00
81.7523 546.00
81.8175 507.00
81.8827 571.00
81.9479 598.00
82.0131 569.00
82.0783 642.00
82.1435 605.00
82.2087 600.00
82.2739 702.00
82.3391 709.00
82.4043 766.00
82.4695 724.00
82.5347 716.00
82.5999 686.00
82.6651 624.00
82.7303 627.00
82.7955 642.00
82.8607 536.00
82.9259 551.00
82.9911 531.00
83.0563 540.00
83.1215 551.00
83.1867 532.00
83.2519 537.00
83.3171 539.00
83.3823 546.00
83.4475 543.00
83.5127 570.00
83.5779 559.00
83.6431 537.00
83.7083 527.00
83.7735 560.00
83.8387 516.00
83.9039 536.00
83.9691 590.00
84.0343 588.00
84.0995 627.00
84.1647 684.00
84.2299 699.00
84.2951 794.00
84.3603 633.00
84.4255 662.00
84.4907 734.00
84.5559 762.00
84.6211 836.00
84.6863 890.00
84.7515 853.00
84.8167 736.00
84.8819 671.00
84.9471 688.00
85.0123 677.00
85.0775 647.00
85.1427 590.00
85.2079 530.00
85.2731 493.00
85.3383 566.00
85.4035 498.00
85.4687 569.00
85.5339 534.00
85.5991 567.00
85.6643 551.00
85.7295 540.00
85.7946 515.00
85.8598 582.00
85.925 594.00
85.9903 554.00
86.0554 594.00
86.1206 619.00
86.1858 604.00
86.251 552.00
86.3162 606.00
86.3814 609.00
86.4466 704.00
86.5118 711.00
86.577 816.00
86.6422 736.00
86.7074 735.00
86.7726 692.00
86.8378 692.00
86.903 631.00
86.9682 611.00
87.0334 562.00
87.0986 562.00
87.1638 562.00
87.229 524.00
87.2942 498.00
87.3594 450.00
87.4246 505.00
87.4898 503.00
87.555 519.00
87.6202 474.00
87.6854 497.00
87.7506 512.00
87.8158 526.00
87.881 520.00
87.9462 544.00
88.0114 506.00
88.0766 518.00
88.1418 509.00
88.207 605.00
88.2722 603.00
88.3374 596.00
88.4026 631.00
88.4678 609.00
88.533 625.00
88.5982 559.00
88.6634 555.00
88.7286 563.00
88.7938 554.00
88.859 531.00
88.9242 550.00
88.9894 574.00
89.0546 527.00
89.1198 509.00
89.185 555.00
89.2502 505.00
89.3154 553.00
89.3806 517.00
89.4458 564.00
89.511 492.00
89.5762 534.00
89.6414 510.00
89.7066 510.00
89.7718 563.00
89.837 561.00
89.9022 600.00
89.9674 595.00
90.0326 628.00
90.0978 727.00
90.163 873.00
90.2282 862.00
90.2934 725.00
90.3586 758.00
90.4238 754.00
90.489 730.00
90.5542 704.00
90.6193 566.00
90.6845 611.00
90.7497 591.00
90.8149 579.00
90.8801 560.00
90.9453 531.00
91.0105 562.00
91.0757 558.00
91.1409 530.00
91.2061 506.00
91.2713 541.00
91.3365 531.00
91.4017 506.00
91.4669 521.00
91.5321 497.00
91.5973 579.00
91.6625 545.00
91.7277 612.00
91.7929 639.00
91.8581 674.00
91.9233 649.00
91.9885 661.00
92.0537 654.00
92.1189 622.00
92.1841 622.00
92.2493 575.00
92.3145 567.00
92.3797 527.00
92.4449 537.00
92.5101 530.00
92.5753 504.00
92.6405 530.00
92.7057 511.00
92.7709 484.00
92.8361 535.00
92.9013 517.00
92.9665 478.00
93.0317 528.00
93.0969 571.00
93.1621 550.00
93.2273 544.00
93.2925 589.00
93.3577 579.00
93.4229 568.00
93.4881 537.00
93.5533 572.00
93.6185 569.00
93.6837 562.00
93.7489 563.00
93.8141 559.00
93.8793 585.00
93.9445 561.00
94.0097 546.00
94.0749 620.00
94.1401 525.00
94.2053 587.00
94.2705 534.00
94.3357 521.00
94.4009 534.00
94.4661 479.00
94.5313 536.00
94.5965 540.00
94.6617 542.00
94.7269 555.00
94.7921 504.00
94.8573 522.00
94.9225 534.00
94.9877 573.00
95.0529 577.00
95.1181 643.00
95.1833 670.00
95.2485 796.00
95.3137 809.00
95.3789 768.00
95.444 737.00
95.5092 655.00
95.5744 699.00
95.6396 687.00
95.7048 655.00
95.77 615.00
95.8352 621.00
95.9004 562.00
95.9656 528.00
96.0308 546.00
96.096 552.00
96.1612 564.00
96.2264 569.00
96.2916 520.00
96.3568 512.00
96.422 506.00
96.4872 502.00
96.5524 536.00
96.6176 498.00
96.6828 541.00
96.748 562.00
96.8132 565.00
96.8784 514.00
96.9436 526.00
97.0088 531.00
97.074 538.00
97.1392 558.00
97.2044 563.00
97.2696 542.00
97.3348 534.00
97.4 545.00
97.4652 558.00
97.5304 579.00
97.5956 595.00
97.6608 602.00
97.726 574.00
97.7912 611.00
97.8564 624.00
97.9216 598.00
97.9868 641.00
98.052 726.00
98.1172 701.00
98.1824 685.00
98.2476 639.00
98.3128 667.00
98.378 689.00
98.4432 663.00
98.5084 687.00
98.5736 627.00
98.6388 659.00
98.704 580.00
98.7692 621.00
98.8344 587.00
98.8996 584.00
98.9648 610.00
99.03 599.00
99.0952 486.00
99.1604 586.00
99.2256 573.00
99.2908 531.00
99.356 563.00
99.4212 496.00
99.4864 522.00
99.5516 485.00
99.6168 493.00
99.682 529.00
99.7472 537.00
99.8124 535.00
99.8776 522.00
99.9428 530.00
100.008 526.00
100.073 568.00
100.095 528.00