File: data/xrd_creation/results/Na_207.xy
9.903433 2729.00
9.968632 2847.00
10.0338 3010.00
10.099 2990.00
10.1642 2960.00
10.2294 3206.00
10.2946 3268.00
10.3598 3227.00
10.425 2990.00
10.4902 2795.00
10.5554 2651.00
10.6206 2560.00
10.6858 2703.00
10.751 2661.00
10.8162 2631.00
10.8814 2634.00
10.9466 2693.00
11.0118 2660.00
11.077 2666.00
11.1422 2507.00
11.2074 2458.00
11.2726 2496.00
11.3378 2530.00
11.403 2620.00
11.4682 2675.00
11.5334 2720.00
11.5986 2882.00
11.6638 3232.00
11.729 4028.00
11.7942 4602.00
11.8594 4372.00
11.9246 3496.00
11.9898 2799.00
12.055 2432.00
12.1202 2295.00
12.1854 2149.00
12.2506 2291.00
12.3158 2134.00
12.381 2221.00
12.4462 2174.00
12.5114 2106.00
12.5766 2211.00
12.6418 2168.00
12.707 2199.00
12.7722 2087.00
12.8374 2003.00
12.9026 2111.00
12.9678 1970.00
13.033 1927.00
13.0982 2015.00
13.1634 2009.00
13.2286 1905.00
13.2938 1897.00
13.359 2008.00
13.4242 1991.00
13.4894 1979.00
13.5546 2037.00
13.6198 2176.00
13.685 2206.00
13.7502 2185.00
13.8154 2072.00
13.8805 2009.00
13.9457 1861.00
14.0109 1818.00
14.0761 1760.00
14.1413 1774.00
14.2065 1698.00
14.2717 1684.00
14.3369 1667.00
14.4021 1767.00
14.4673 1696.00
14.5325 1676.00
14.5977 1760.00
14.6629 1666.00
14.7281 1683.00
14.7933 1538.00
14.8585 1675.00
14.9237 1589.00
14.9889 1619.00
15.0541 1681.00
15.1193 1626.00
15.1845 1545.00
15.2497 1698.00
15.3149 1713.00
15.3801 1670.00
15.4453 1633.00
15.5105 1645.00
15.5757 1617.00
15.6409 1623.00
15.7061 1583.00
15.7713 1528.00
15.8365 1529.00
15.9017 1552.00
15.9669 1569.00
16.0321 1577.00
16.0973 1614.00
16.1625 1669.00
16.2277 1604.00
16.2929 1561.00
16.3581 1528.00
16.4233 1571.00
16.4885 1589.00
16.5537 1546.00
16.6189 1524.00
16.6841 1539.00
16.7493 1408.00
16.8145 1464.00
16.8797 1396.00
16.9449 1505.00
17.0101 1512.00
17.0753 1434.00
17.1405 1527.00
17.2057 1406.00
17.2709 1498.00
17.3361 1480.00
17.4013 1519.00
17.4665 1659.00
17.5317 1690.00
17.5969 1655.00
17.6621 1589.00
17.7273 1450.00
17.7925 1417.00
17.8577 1372.00
17.9229 1305.00
17.9881 1390.00
18.0533 1417.00
18.1185 1336.00
18.1837 1343.00
18.2489 1363.00
18.3141 1345.00
18.3793 1388.00
18.4445 1351.00
18.5097 1292.00
18.5749 1313.00
18.6401 1300.00
18.7052 1403.00
18.7704 1309.00
18.8356 1300.00
18.9008 1397.00
18.966 1438.00
19.0312 1469.00
19.0964 1546.00
19.1616 1718.00
19.2268 1996.00
19.292 2742.00
19.3572 3111.00
19.4224 3080.00
19.4876 2860.00
19.5528 2485.00
19.618 2270.00
19.6832 1820.00
19.7484 1601.00
19.8136 1462.00
19.8788 1325.00
19.944 1260.00
20.0092 1233.00
20.0744 1245.00
20.1396 1188.00
20.2048 1206.00
20.27 1328.00
20.3352 1334.00
20.4004 1323.00
20.4656 1404.00
20.5308 1328.00
20.596 1392.00
20.6612 1374.00
20.7264 1304.00
20.7916 1256.00
20.8568 1243.00
20.922 1203.00
20.9872 1162.00
21.0524 1171.00
21.1176 1154.00
21.1828 1126.00
21.248 1126.00
21.3132 1195.00
21.3784 1188.00
21.4436 1164.00
21.5088 1165.00
21.574 1120.00
21.6392 1178.00
21.7044 1132.00
21.7696 1221.00
21.8348 1205.00
21.9 1189.00
21.9652 1151.00
22.0304 1199.00
22.0956 1201.00
22.1608 1146.00
22.226 1148.00
22.2912 1223.00
22.3564 1194.00
22.4216 1310.00
22.4868 1357.00
22.552 1626.00
22.6172 2021.00
22.6824 2593.00
22.7476 3238.00
22.8128 3427.00
22.878 3012.00
22.9432 2252.00
23.0084 1725.00
23.0736 1336.00
23.1388 1267.00
23.204 1231.00
23.2692 1238.00
23.3344 1151.00
23.3996 1172.00
23.4647 1188.00
23.5299 1253.00
23.5951 1365.00
23.6603 1573.00
23.7255 2004.00
23.7907 2242.00
23.8559 2090.00
23.9211 1831.00
23.9863 1619.00
24.0515 1690.00
24.1167 1961.00
24.1819 1949.00
24.2471 1841.00
24.3123 1605.00
24.3775 1427.00
24.4427 1456.00
24.5079 1612.00
24.5731 1687.00
24.6383 1594.00
24.7035 1426.00
24.7687 1258.00
24.8339 1157.00
24.8991 1166.00
24.9643 1098.00
25.0295 1084.00
25.0947 1050.00
25.1599 1054.00
25.2251 1119.00
25.2903 1000.00
25.3555 1023.00
25.4207 976.00
25.4859 1014.00
25.5511 1045.00
25.6163 1116.00
25.6815 1141.00
25.7467 1103.00
25.8119 1027.00
25.8771 1069.00
25.9423 1166.00
26.0075 1201.00
26.0727 1165.00
26.1379 1086.00
26.2031 957.00
26.2683 1029.00
26.3335 1027.00
26.3987 1035.00
26.4639 982.00
26.5291 983.00
26.5943 1006.00
26.6595 1051.00
26.7247 1045.00
26.7899 1043.00
26.8551 1073.00
26.9203 1084.00
26.9855 1033.00
27.0507 995.00
27.1159 1084.00
27.1811 1004.00
27.2463 1068.00
27.3115 1060.00
27.3767 1138.00
27.4419 1236.00
27.5071 1410.00
27.5723 1637.00
27.6375 1552.00
27.7027 1298.00
27.7679 1172.00
27.8331 1232.00
27.8983 1219.00
27.9635 1301.00
28.0287 1462.00
28.0939 1907.00
28.1591 2755.00
28.2243 4181.00
28.2894 5412.00
28.3546 5563.00
28.4198 4789.00
28.485 3284.00
28.5502 2241.00
28.6154 1654.00
28.6806 1382.00
28.7458 1200.00
28.811 1141.00
28.8762 1007.00
28.9414 1017.00
29.0066 1023.00
29.0718 993.00
29.137 1034.00
29.2022 1042.00
29.2674 1023.00
29.3326 974.00
29.3978 968.00
29.463 1034.00
29.5282 994.00
29.5934 1053.00
29.6586 1062.00
29.7238 1063.00
29.789 1141.00
29.8542 1252.00
29.9194 1556.00
29.9846 2077.00
30.0498 2232.00
30.115 2271.00
30.1802 1917.00
30.2454 1558.00
30.3106 1344.00
30.3758 1157.00
30.441 1071.00
30.5062 1092.00
30.5714 1086.00
30.6366 1065.00
30.7018 1213.00
30.767 1491.00
30.8322 2001.00
30.8974 2884.00
30.9626 3865.00
31.0278 3676.00
31.093 3110.00
31.1582 2346.00
31.2234 1870.00
31.2886 1677.00
31.3538 1614.00
31.419 1833.00
31.4842 2471.00
31.5494 3602.00
31.6146 4511.00
31.6798 4475.00
31.745 3704.00
31.8102 2648.00
31.8754 1796.00
31.9406 1464.00
32.0058 1168.00
32.071 1051.00
32.1362 953.00
32.2014 971.00
32.2666 918.00
32.3318 829.00
32.397 860.00
32.4622 821.00
32.5274 881.00
32.5926 889.00
32.6578 857.00
32.723 872.00
32.7882 849.00
32.8534 849.00
32.9186 835.00
32.9838 830.00
33.0489 829.00
33.1141 816.00
33.1793 872.00
33.2445 936.00
33.3097 886.00
33.3749 908.00
33.4401 978.00
33.5053 1045.00
33.5705 1204.00
33.6357 1616.00
33.7009 2456.00
33.7661 3473.00
33.8313 4211.00
33.8965 4150.00
33.9617 3746.00
34.0269 3099.00
34.0921 2818.00
34.1573 2328.00
34.2225 2161.00
34.2877 2268.00
34.3529 2267.00
34.4181 2212.00
34.4833 2059.00
34.5485 2035.00
34.6137 1892.00
34.6789 1746.00
34.7441 1294.00
34.8093 1041.00
34.8745 969.00
34.9397 895.00
35.0049 862.00
35.0701 827.00
35.1353 828.00
35.2005 855.00
35.2657 967.00
35.3309 1163.00
35.3961 1514.00
35.4613 1945.00
35.5265 2108.00
35.5917 1787.00
35.6569 1453.00
35.7221 1110.00
35.7873 969.00
35.8525 930.00
35.9177 962.00
35.9829 1279.00
36.0481 1455.00
36.1133 1454.00
36.1785 1259.00
36.2437 1116.00
36.3089 888.00
36.3741 852.00
36.4393 783.00
36.5045 781.00
36.5697 683.00
36.6349 712.00
36.7001 678.00
36.7653 681.00
36.8305 701.00
36.8957 740.00
36.9609 702.00
37.0261 721.00
37.0913 688.00
37.1565 683.00
37.2217 677.00
37.2869 666.00
37.3521 702.00
37.4173 766.00
37.4825 678.00
37.5477 747.00
37.6129 691.00
37.6781 674.00
37.7433 634.00
37.8085 677.00
37.8736 627.00
37.9388 652.00
38.004 645.00
38.0692 692.00
38.1344 651.00
38.1996 718.00
38.2648 669.00
38.33 636.00
38.3952 648.00
38.4604 665.00
38.5256 725.00
38.5908 726.00
38.656 870.00
38.7212 981.00
38.7864 1058.00
38.8516 1000.00
38.9168 841.00
38.982 822.00
39.0472 749.00
39.1124 767.00
39.1776 685.00
39.2428 787.00
39.308 739.00
39.3732 745.00
39.4384 762.00
39.5036 743.00
39.5688 713.00
39.634 739.00
39.6992 680.00
39.7644 706.00
39.8296 755.00
39.8948 734.00
39.96 702.00
40.0252 721.00
40.0904 708.00
40.1556 772.00
40.2208 755.00
40.286 711.00
40.3512 667.00
40.4164 671.00
40.4816 679.00
40.5468 684.00
40.612 685.00
40.6772 766.00
40.7424 758.00
40.8076 921.00
40.8728 1067.00
40.938 1272.00
41.0032 1314.00
41.0684 1246.00
41.1336 1222.00
41.1988 1221.00
41.264 1098.00
41.3292 1118.00
41.3944 1035.00
41.4596 1069.00
41.5248 1074.00
41.59 1042.00
41.6552 940.00
41.7204 907.00
41.7856 817.00
41.8508 898.00
41.916 859.00
41.9812 861.00
42.0464 794.00
42.1116 752.00
42.1768 667.00
42.242 740.00
42.3072 695.00
42.3724 602.00
42.4376 604.00
42.5028 659.00
42.568 660.00
42.6332 562.00
42.6983 625.00
42.7635 608.00
42.8287 614.00
42.8939 624.00
42.9591 680.00
43.0243 681.00
43.0895 705.00
43.1547 727.00
43.2199 744.00
43.2851 709.00
43.3503 656.00
43.4155 615.00
43.4807 665.00
43.5459 617.00
43.6111 577.00
43.6763 590.00
43.7415 629.00
43.8067 614.00
43.8719 636.00
43.9371 595.00
44.0023 654.00
44.0675 644.00
44.1327 653.00
44.1979 725.00
44.2631 768.00
44.3283 792.00
44.3935 758.00
44.4587 715.00
44.5239 613.00
44.5891 628.00
44.6543 593.00
44.7195 577.00
44.7847 625.00
44.8499 653.00
44.9151 689.00
44.9803 710.00
45.0455 804.00
45.1107 840.00
45.1759 786.00
45.2411 702.00
45.3063 683.00
45.3715 621.00
45.4367 693.00
45.5019 675.00
45.5671 728.00
45.6323 766.00
45.6975 903.00
45.7627 882.00
45.8279 1011.00
45.8931 1120.00
45.9583 1127.00
46.0235 1087.00
46.0887 870.00
46.1539 782.00
46.2191 805.00
46.2843 804.00
46.3495 867.00
46.4147 962.00
46.4799 1221.00
46.5451 1428.00
46.6103 1530.00
46.6755 1396.00
46.7407 1148.00
46.8059 984.00
46.8711 767.00
46.9363 712.00
47.0015 678.00
47.0667 643.00
47.1319 603.00
47.1971 561.00
47.2623 566.00
47.3275 576.00
47.3927 573.00
47.4579 571.00
47.523 615.00
47.5882 534.00
47.6534 566.00
47.7186 629.00
47.7838 622.00
47.849 564.00
47.9142 573.00
47.9794 582.00
48.0446 566.00
48.1098 550.00
48.175 579.00
48.2402 540.00
48.3054 550.00
48.3706 588.00
48.4358 588.00
48.501 679.00
48.5662 711.00
48.6314 812.00
48.6966 905.00
48.7618 963.00
48.827 899.00
48.8922 877.00
48.9574 799.00
49.0226 815.00
49.0878 788.00
49.153 723.00
49.2182 724.00
49.2834 763.00
49.3486 841.00
49.4138 936.00
49.479 1208.00
49.5442 1371.00
49.6094 1288.00
49.6746 1179.00
49.7398 1008.00
49.805 788.00
49.8702 737.00
49.9354 699.00
50.0006 660.00
50.0658 679.00
50.131 755.00
50.1962 859.00
50.2614 1123.00
50.3266 1386.00
50.3918 1781.00
50.457 1745.00
50.5222 1681.00
50.5874 1450.00
50.6526 1161.00
50.7178 1039.00
50.783 1082.00
50.8482 1154.00
50.9134 1099.00
50.9786 1143.00
51.0438 1125.00
51.109 1025.00
51.1742 834.00
51.2394 784.00
51.3046 717.00
51.3698 684.00
51.435 717.00
51.5002 764.00
51.5654 735.00
51.6306 706.00
51.6958 662.00
51.761 600.00
51.8262 602.00
51.8914 574.00
51.9566 549.00
52.0218 529.00
52.087 599.00
52.1522 584.00
52.2174 574.00
52.2826 532.00
52.3477 583.00
52.4129 597.00
52.4781 580.00
52.5433 542.00
52.6085 566.00
52.6737 673.00
52.7389 786.00
52.8041 1006.00
52.8693 1049.00
52.9345 955.00
52.9997 915.00
53.0649 793.00
53.1301 703.00
53.1953 653.00
53.2605 582.00
53.3257 599.00
53.3909 588.00
53.4561 582.00
53.5213 610.00
53.5865 601.00
53.6517 612.00
53.7169 578.00
53.7821 573.00
53.8473 552.00
53.9125 564.00
53.9777 556.00
54.0429 622.00
54.1081 582.00
54.1733 645.00
54.2385 686.00
54.3037 885.00
54.3689 1061.00
54.4341 1169.00
54.4993 1175.00
54.5645 1236.00
54.6297 1055.00
54.6949 931.00
54.7601 800.00
54.8253 750.00
54.8905 682.00
54.9557 674.00
55.0209 700.00
55.0861 587.00
55.1513 672.00
55.2165 588.00
55.2817 635.00
55.3469 571.00
55.4121 594.00
55.4773 634.00
55.5425 759.00
55.6077 985.00
55.6729 1071.00
55.7381 1141.00
55.8033 1135.00
55.8685 1163.00
55.9337 1005.00
55.9989 917.00
56.0641 881.00
56.1293 829.00
56.1945 894.00
56.2597 892.00
56.3249 873.00
56.3901 829.00
56.4553 734.00
56.5205 606.00
56.5857 599.00
56.6509 597.00
56.7161 521.00
56.7813 500.00
56.8465 518.00
56.9117 528.00
56.9769 473.00
57.042 523.00
57.1073 568.00
57.1724 560.00
57.2376 524.00
57.3028 569.00
57.368 587.00
57.4332 685.00
57.4984 833.00
57.5636 781.00
57.6288 805.00
57.694 749.00
57.7592 684.00
57.8244 601.00
57.8896 606.00
57.9548 582.00
58.02 599.00
58.0852 647.00
58.1504 783.00
58.2156 823.00
58.2808 827.00
58.346 853.00
58.4112 778.00
58.4764 718.00
58.5416 783.00
58.6068 817.00
58.672 869.00
58.7372 1090.00
58.8024 1160.00
58.8676 1109.00
58.9328 1045.00
58.998 935.00
59.0632 774.00
59.1284 695.00
59.1936 657.00
59.2588 592.00
59.324 606.00
59.3892 545.00
59.4544 534.00
59.5196 559.00
59.5848 527.00
59.65 507.00
59.7152 557.00
59.7804 509.00
59.8456 574.00
59.9108 559.00
59.976 595.00
60.0412 694.00
60.1064 806.00
60.1716 933.00
60.2368 973.00
60.302 965.00
60.3672 991.00
60.4324 988.00
60.4976 1022.00
60.5628 1078.00
60.628 1016.00
60.6932 918.00
60.7584 875.00
60.8236 832.00
60.8888 752.00
60.954 721.00
61.0192 715.00
61.0844 666.00
61.1496 672.00
61.2148 665.00
61.28 618.00
61.3452 576.00
61.4104 576.00
61.4756 606.00
61.5408 615.00
61.606 646.00
61.6712 730.00
61.7364 722.00
61.8016 785.00
61.8667 784.00
61.932 773.00
61.9971 773.00
62.0623 790.00
62.1275 716.00
62.1927 779.00
62.2579 864.00
62.3231 883.00
62.3883 937.00
62.4535 823.00
62.5187 749.00
62.5839 680.00
62.6491 622.00
62.7143 612.00
62.7795 565.00
62.8447 563.00
62.9099 597.00
62.9751 586.00
63.0403 580.00
63.1055 648.00
63.1707 746.00
63.2359 856.00
63.3011 834.00
63.3663 809.00
63.4315 702.00
63.4967 628.00
63.5619 607.00
63.6271 525.00
63.6923 506.00
63.7575 516.00
63.8227 490.00
63.8879 499.00
63.9531 476.00
64.0183 452.00
64.0835 499.00
64.1487 482.00
64.2139 523.00
64.2791 489.00
64.3443 513.00
64.4095 574.00
64.4747 580.00
64.5399 607.00
64.6051 606.00
64.6703 595.00
64.7355 661.00
64.8007 629.00
64.8659 594.00
64.9311 603.00
64.9963 551.00
65.0615 527.00
65.1267 499.00
65.1919 526.00
65.2571 512.00
65.3223 532.00
65.3875 535.00
65.4527 527.00
65.5179 558.00
65.5831 606.00
65.6483 649.00
65.7135 691.00
65.7787 695.00
65.8439 749.00
65.9091 746.00
65.9743 819.00
66.0395 784.00
66.1047 941.00
66.1699 946.00
66.2351 929.00
66.3003 892.00
66.3655 824.00
66.4307 718.00
66.4959 631.00
66.561 598.00
66.6263 526.00
66.6915 501.00
66.7566 453.00
66.8218 463.00
66.887 510.00
66.9522 442.00
67.0174 502.00
67.0826 440.00
67.1478 409.00
67.213 463.00
67.2782 476.00
67.3434 498.00
67.4086 471.00
67.4738 438.00
67.539 428.00
67.6042 455.00
67.6694 452.00
67.7346 468.00
67.7998 516.00
67.865 488.00
67.9302 476.00
67.9954 446.00
68.0606 453.00
68.1258 445.00
68.191 422.00
68.2562 443.00
68.3214 410.00
68.3866 446.00
68.4518 462.00
68.517 434.00
68.5822 448.00
68.6474 445.00
68.7126 443.00
68.7778 491.00
68.843 443.00
68.9082 446.00
68.9734 424.00
69.0386 463.00
69.1038 535.00
69.169 528.00
69.2342 563.00
69.2994 584.00
69.3646 658.00
69.4298 569.00
69.495 596.00
69.5602 539.00
69.6254 458.00
69.6906 478.00
69.7558 439.00
69.821 462.00
69.8862 441.00
69.9514 452.00
70.0166 425.00
70.0818 421.00
70.147 439.00
70.2122 445.00
70.2774 467.00
70.3426 435.00
70.4078 451.00
70.473 418.00
70.5382 446.00
70.6034 426.00
70.6686 443.00
70.7338 457.00
70.799 463.00
70.8642 415.00
70.9294 473.00
70.9946 444.00
71.0598 504.00
71.125 510.00
71.1902 574.00
71.2554 562.00
71.3205 564.00
71.3858 559.00
71.451 636.00
71.5162 612.00
71.5813 657.00
71.6465 677.00
71.7117 664.00
71.7769 648.00
71.8421 617.00
71.9073 601.00
71.9725 552.00
72.0377 502.00
72.1029 478.00
72.1681 483.00
72.2333 496.00
72.2985 514.00
72.3637 466.00
72.4289 501.00
72.4941 529.00
72.5593 552.00
72.6245 570.00
72.6897 546.00
72.7549 542.00
72.8201 544.00
72.8853 543.00
72.9505 528.00
73.0157 535.00
73.0809 530.00
73.1461 483.00
73.2113 519.00
73.2765 513.00
73.3417 463.00
73.4069 465.00
73.4721 488.00
73.5373 455.00
73.6025 437.00
73.6677 398.00
73.7329 429.00
73.7981 435.00
73.8633 412.00
73.9285 424.00
73.9937 391.00
74.0589 461.00
74.1241 408.00
74.1893 424.00
74.2545 472.00
74.3197 404.00
74.3849 405.00
74.4501 404.00
74.5153 402.00
74.5805 491.00
74.6457 458.00
74.7109 498.00
74.7761 464.00
74.8413 481.00
74.9065 466.00
74.9717 462.00
75.0369 461.00
75.1021 504.00
75.1673 538.00
75.2325 517.00
75.2977 548.00
75.3629 535.00
75.4281 521.00
75.4933 557.00
75.5585 614.00
75.6237 595.00
75.6889 594.00
75.7541 567.00
75.8193 563.00
75.8845 517.00
75.9497 504.00
76.0149 465.00
76.0801 476.00
76.1452 465.00
76.2104 457.00
76.2756 458.00
76.3409 447.00
76.406 497.00
76.4712 478.00
76.5364 504.00
76.6016 492.00
76.6668 476.00
76.732 501.00
76.7972 479.00
76.8624 514.00
76.9276 506.00
76.9928 513.00
77.058 511.00
77.1232 525.00
77.1884 481.00
77.2536 466.00
77.3188 468.00
77.384 438.00
77.4492 442.00
77.5144 407.00
77.5796 457.00
77.6448 418.00
77.71 389.00
77.7752 448.00
77.8404 477.00
77.9056 493.00
77.9708 476.00
78.036 504.00
78.1012 514.00
78.1664 429.00
78.2316 481.00
78.2968 473.00
78.362 424.00
78.4272 495.00
78.4924 430.00
78.5576 475.00
78.6228 484.00
78.688 448.00
78.7532 455.00
78.8184 423.00
78.8836 424.00
78.9488 484.00
79.014 445.00
79.0792 445.00
79.1444 471.00
79.2096 466.00
79.2748 446.00
79.34 509.00
79.4052 534.00
79.4704 588.00
79.5356 614.00
79.6008 597.00
79.666 617.00
79.7312 609.00
79.7964 593.00
79.8616 522.00
79.9268 511.00
79.992 514.00
80.0572 473.00
80.1224 477.00
80.1876 428.00
80.2528 459.00
80.318 423.00
80.3832 418.00
80.4484 437.00
80.5136 432.00
80.5788 450.00
80.644 457.00
80.7092 430.00
80.7744 414.00
80.8396 433.00
80.9048 448.00
80.9699 432.00
81.0351 453.00
81.1003 499.00
81.1655 470.00
81.2307 458.00
81.2959 464.00
81.3611 441.00
81.4263 466.00
81.4915 470.00
81.5567 511.00
81.6219 544.00
81.6871 444.00
81.7523 448.00
81.8175 541.00
81.8827 492.00
81.9479 504.00
82.0131 509.00
82.0783 527.00
82.1435 518.00
82.2087 501.00
82.2739 502.00
82.3391 488.00
82.4043 505.00
82.4695 495.00
82.5347 440.00
82.5999 442.00
82.6651 494.00
82.7303 488.00
82.7955 498.00
82.8607 481.00
82.9259 496.00
82.9911 454.00
83.0563 527.00
83.1215 545.00
83.1867 469.00
83.2519 470.00
83.3171 493.00
83.3823 541.00
83.4475 467.00
83.5127 475.00
83.5779 478.00
83.6431 565.00
83.7083 533.00
83.7735 523.00
83.8387 529.00
83.9039 469.00
83.9691 472.00
84.0343 472.00
84.0995 454.00
84.1647 461.00
84.2299 443.00
84.2951 499.00
84.3603 478.00
84.4255 473.00
84.4907 529.00
84.5559 506.00
84.6211 488.00
84.6863 516.00
84.7515 545.00
84.8167 555.00
84.8819 498.00
84.9471 440.00
85.0123 487.00
85.0775 434.00
85.1427 502.00
85.2079 413.00
85.2731 432.00
85.3383 443.00
85.4035 469.00
85.4687 444.00
85.5339 450.00
85.5991 507.00
85.6643 439.00
85.7295 510.00
85.7946 473.00
85.8598 501.00
85.925 479.00
85.9903 493.00
86.0554 443.00
86.1206 509.00
86.1858 470.00
86.251 516.00
86.3162 468.00
86.3814 477.00
86.4466 501.00
86.5118 502.00
86.577 449.00
86.6422 517.00
86.7074 433.00
86.7726 484.00
86.8378 463.00
86.903 495.00
86.9682 485.00
87.0334 454.00
87.0986 435.00
87.1638 433.00
87.229 421.00
87.2942 442.00
87.3594 397.00
87.4246 427.00
87.4898 452.00
87.555 422.00
87.6202 402.00
87.6854 387.00
87.7506 449.00
87.8158 418.00
87.881 443.00
87.9462 447.00
88.0114 462.00
88.0766 501.00
88.1418 491.00
88.207 507.00
88.2722 458.00
88.3374 501.00
88.4026 480.00
88.4678 474.00
88.533 475.00
88.5982 449.00
88.6634 495.00
88.7286 508.00
88.7938 510.00
88.859 520.00
88.9242 517.00
88.9894 502.00
89.0546 511.00
89.1198 521.00
89.185 532.00
89.2502 554.00
89.3154 531.00
89.3806 546.00
89.4458 521.00
89.511 500.00
89.5762 502.00
89.6414 454.00
89.7066 475.00
89.7718 472.00
89.837 450.00
89.9022 489.00
89.9674 464.00
90.0326 494.00
90.0978 470.00
90.163 430.00
90.2282 436.00
90.2934 491.00
90.3586 465.00
90.4238 485.00
90.489 502.00
90.5542 462.00
90.6193 475.00
90.6845 472.00
90.7497 464.00
90.8149 431.00
90.8801 414.00
90.9453 436.00
91.0105 462.00
91.0757 465.00
91.1409 464.00
91.2061 440.00
91.2713 439.00
91.3365 460.00
91.4017 415.00
91.4669 411.00
91.5321 418.00
91.5973 440.00
91.6625 403.00
91.7277 441.00
91.7929 413.00
91.8581 459.00
91.9233 412.00
91.9885 463.00
92.0537 453.00
92.1189 450.00
92.1841 404.00
92.2493 438.00
92.3145 417.00
92.3797 428.00
92.4449 422.00
92.5101 459.00
92.5753 396.00
92.6405 392.00
92.7057 462.00
92.7709 392.00
92.8361 423.00
92.9013 441.00
92.9665 411.00
93.0317 443.00
93.0969 421.00
93.1621 419.00
93.2273 385.00
93.2925 401.00
93.3577 394.00
93.4229 380.00
93.4881 371.00
93.5533 395.00
93.6185 428.00
93.6837 417.00
93.7489 429.00
93.8141 402.00
93.8793 380.00
93.9445 379.00
94.0097 381.00
94.0749 434.00
94.1401 360.00
94.2053 428.00
94.2705 437.00
94.3357 422.00
94.4009 434.00
94.4661 472.00
94.5313 432.00
94.5965 426.00
94.6617 418.00
94.7269 401.00
94.7921 460.00
94.8573 440.00
94.9225 406.00
94.9877 428.00
95.0529 416.00
95.1181 391.00
95.1833 399.00
95.2485 388.00
95.3137 450.00
95.3789 480.00
95.444 451.00
95.5092 448.00
95.5744 500.00
95.6396 477.00
95.7048 512.00
95.77 521.00
95.8352 547.00
95.9004 479.00
95.9656 501.00
96.0308 461.00
96.096 452.00
96.1612 441.00
96.2264 399.00
96.2916 425.00
96.3568 444.00
96.422 412.00
96.4872 440.00
96.5524 426.00
96.6176 427.00
96.6828 425.00
96.748 461.00
96.8132 511.00
96.8784 470.00
96.9436 506.00
97.0088 460.00
97.074 487.00
97.1392 457.00
97.2044 513.00
97.2696 541.00
97.3348 504.00
97.4 495.00
97.4652 494.00
97.5304 525.00
97.5956 512.00
97.6608 495.00
97.726 517.00
97.7912 503.00
97.8564 466.00
97.9216 435.00
97.9868 447.00
98.052 461.00
98.1172 465.00
98.1824 435.00
98.2476 455.00
98.3128 404.00
98.378 386.00
98.4432 415.00
98.5084 380.00
98.5736 415.00
98.6388 453.00
98.704 475.00
98.7692 485.00
98.8344 445.00
98.8996 495.00
98.9648 441.00
99.03 492.00
99.0952 446.00
99.1604 445.00
99.2256 487.00
99.2908 509.00
99.356 496.00
99.4212 496.00
99.4864 486.00
99.5516 487.00
99.6168 521.00
99.682 483.00
99.7472 477.00
99.8124 446.00
99.8776 494.00
99.9428 471.00
100.008 471.00
100.073 523.00
100.095 482.00