File: data/xrd_creation/results/Na_29.xy
9.903433 2950.00
9.968632 2951.00
10.0338 2931.00
10.099 2889.00
10.1642 2907.00
10.2294 2889.00
10.2946 2861.00
10.3598 2773.00
10.425 2782.00
10.4902 2768.00
10.5554 2718.00
10.6206 2793.00
10.6858 2759.00
10.751 2743.00
10.8162 2656.00
10.8814 2576.00
10.9466 2563.00
11.0118 2742.00
11.077 2639.00
11.1422 2606.00
11.2074 2571.00
11.2726 2493.00
11.3378 2497.00
11.403 2612.00
11.4682 2522.00
11.5334 2500.00
11.5986 2538.00
11.6638 2465.00
11.729 2462.00
11.7942 2489.00
11.8594 2398.00
11.9246 2438.00
11.9898 2502.00
12.055 2374.00
12.1202 2390.00
12.1854 2369.00
12.2506 2294.00
12.3158 2293.00
12.381 2430.00
12.4462 2296.00
12.5114 2281.00
12.5766 2242.00
12.6418 2222.00
12.707 2259.00
12.7722 2211.00
12.8374 2144.00
12.9026 2149.00
12.9678 2176.00
13.033 2211.00
13.0982 2208.00
13.1634 2212.00
13.2286 2186.00
13.2938 2145.00
13.359 2210.00
13.4242 2137.00
13.4894 2149.00
13.5546 2134.00
13.6198 2133.00
13.685 2140.00
13.7502 2161.00
13.8154 2109.00
13.8805 2137.00
13.9457 2147.00
14.0109 2092.00
14.0761 2130.00
14.1413 2057.00
14.2065 2031.00
14.2717 2119.00
14.3369 2056.00
14.4021 2043.00
14.4673 2035.00
14.5325 1942.00
14.5977 2059.00
14.6629 2124.00
14.7281 1893.00
14.7933 2057.00
14.8585 2034.00
14.9237 1994.00
14.9889 2033.00
15.0541 2038.00
15.1193 1988.00
15.1845 1984.00
15.2497 1927.00
15.3149 1988.00
15.3801 1839.00
15.4453 1879.00
15.5105 1943.00
15.5757 1980.00
15.6409 1897.00
15.7061 1844.00
15.7713 2020.00
15.8365 1924.00
15.9017 1913.00
15.9669 1887.00
16.0321 1878.00
16.0973 1938.00
16.1625 1960.00
16.2277 1963.00
16.2929 1979.00
16.3581 1994.00
16.4233 1933.00
16.4885 1913.00
16.5537 1970.00
16.6189 1954.00
16.6841 1862.00
16.7493 1896.00
16.8145 1934.00
16.8797 1908.00
16.9449 1870.00
17.0101 1815.00
17.0753 1984.00
17.1405 1825.00
17.2057 1826.00
17.2709 1818.00
17.3361 1923.00
17.4013 1862.00
17.4665 1922.00
17.5317 1849.00
17.5969 1847.00
17.6621 1892.00
17.7273 1835.00
17.7925 1936.00
17.8577 1859.00
17.9229 1767.00
17.9881 1806.00
18.0533 1834.00
18.1185 1911.00
18.1837 1794.00
18.2489 1816.00
18.3141 1843.00
18.3793 1848.00
18.4445 1814.00
18.5097 1838.00
18.5749 1868.00
18.6401 1783.00
18.7052 1824.00
18.7704 1819.00
18.8356 1810.00
18.9008 1778.00
18.966 1833.00
19.0312 1892.00
19.0964 1858.00
19.1616 2023.00
19.2268 1968.00
19.292 1913.00
19.3572 1901.00
19.4224 1908.00
19.4876 1877.00
19.5528 1848.00
19.618 1811.00
19.6832 1744.00
19.7484 1840.00
19.8136 1882.00
19.8788 1772.00
19.944 1849.00
20.0092 1782.00
20.0744 1892.00
20.1396 2006.00
20.2048 2224.00
20.27 2500.00
20.3352 2893.00
20.4004 2903.00
20.4656 2264.00
20.5308 2014.00
20.596 1926.00
20.6612 1894.00
20.7264 1779.00
20.7916 1910.00
20.8568 1812.00
20.922 1759.00
20.9872 1818.00
21.0524 1740.00
21.1176 1740.00
21.1828 1770.00
21.248 1721.00
21.3132 1792.00
21.3784 1690.00
21.4436 1693.00
21.5088 1685.00
21.574 1705.00
21.6392 1685.00
21.7044 1704.00
21.7696 1677.00
21.8348 1681.00
21.9 1658.00
21.9652 1762.00
22.0304 1683.00
22.0956 1701.00
22.1608 1677.00
22.226 1655.00
22.2912 1617.00
22.3564 1727.00
22.4216 1617.00
22.4868 1631.00
22.552 1738.00
22.6172 1719.00
22.6824 1639.00
22.7476 1659.00
22.8128 1687.00
22.878 1565.00
22.9432 1784.00
23.0084 1726.00
23.0736 1814.00
23.1388 2082.00
23.204 2347.00
23.2692 2806.00
23.3344 3080.00
23.3996 2462.00
23.4647 2012.00
23.5299 1718.00
23.5951 1713.00
23.6603 1682.00
23.7255 1687.00
23.7907 1676.00
23.8559 1660.00
23.9211 1609.00
23.9863 1645.00
24.0515 1726.00
24.1167 1887.00
24.1819 1908.00
24.2471 1954.00
24.3123 1840.00
24.3775 1775.00
24.4427 1802.00
24.5079 1734.00
24.5731 1604.00
24.6383 1658.00
24.7035 1635.00
24.7687 1512.00
24.8339 1549.00
24.8991 1551.00
24.9643 1516.00
25.0295 1443.00
25.0947 1597.00
25.1599 1519.00
25.2251 1455.00
25.2903 1498.00
25.3555 1451.00
25.4207 1447.00
25.4859 1536.00
25.5511 1484.00
25.6163 1556.00
25.6815 1504.00
25.7467 1492.00
25.8119 1477.00
25.8771 1563.00
25.9423 1521.00
26.0075 1437.00
26.0727 1474.00
26.1379 1460.00
26.2031 1586.00
26.2683 1577.00
26.3335 1592.00
26.3987 1549.00
26.4639 1530.00
26.5291 1608.00
26.5943 1694.00
26.6595 1860.00
26.7247 1836.00
26.7899 1668.00
26.8551 1505.00
26.9203 1585.00
26.9855 1459.00
27.0507 1520.00
27.1159 1514.00
27.1811 1507.00
27.2463 1480.00
27.3115 1577.00
27.3767 1588.00
27.4419 1512.00
27.5071 1515.00
27.5723 1590.00
27.6375 1564.00
27.7027 1571.00
27.7679 1522.00
27.8331 1634.00
27.8983 1618.00
27.9635 1508.00
28.0287 1584.00
28.0939 1611.00
28.1591 1589.00
28.2243 1583.00
28.2894 1608.00
28.3546 1686.00
28.4198 1679.00
28.485 1558.00
28.5502 1665.00
28.6154 1682.00
28.6806 1643.00
28.7458 1647.00
28.811 1712.00
28.8762 1656.00
28.9414 1696.00
29.0066 1692.00
29.0718 1751.00
29.137 1779.00
29.2022 1821.00
29.2674 1842.00
29.3326 2091.00
29.3978 2407.00
29.463 3367.00
29.5282 5770.00
29.5934 10475.00
29.6586 15323.00
29.7238 11184.00
29.789 5560.00
29.8542 2677.00
29.9194 2134.00
29.9846 1992.00
30.0498 1811.00
30.115 1769.00
30.1802 1695.00
30.2454 1675.00
30.3106 1689.00
30.3758 1669.00
30.441 1649.00
30.5062 1665.00
30.5714 1648.00
30.6366 1666.00
30.7018 1654.00
30.767 1648.00
30.8322 1642.00
30.8974 1603.00
30.9626 1552.00
31.0278 1636.00
31.093 1663.00
31.1582 1711.00
31.2234 1624.00
31.2886 1608.00
31.3538 1571.00
31.419 1628.00
31.4842 1729.00
31.5494 1705.00
31.6146 1830.00
31.6798 1994.00
31.745 1896.00
31.8102 1784.00
31.8754 1717.00
31.9406 1699.00
32.0058 1674.00
32.071 1738.00
32.1362 1834.00
32.2014 1802.00
32.2666 1798.00
32.3318 1881.00
32.397 2004.00
32.4622 1975.00
32.5274 1914.00
32.5926 1964.00
32.6578 1985.00
32.723 2076.00
32.7882 2051.00
32.8534 2174.00
32.9186 2261.00
32.9838 2357.00
33.0489 2078.00
33.1141 1748.00
33.1793 1686.00
33.2445 1681.00
33.3097 1784.00
33.3749 2222.00
33.4401 2184.00
33.5053 2021.00
33.5705 1621.00
33.6357 1472.00
33.7009 1476.00
33.7661 1421.00
33.8313 1471.00
33.8965 1403.00
33.9617 1380.00
34.0269 1480.00
34.0921 1513.00
34.1573 1397.00
34.2225 1370.00
34.2877 1279.00
34.3529 1324.00
34.4181 1278.00
34.4833 1201.00
34.5485 1262.00
34.6137 1242.00
34.6789 1309.00
34.7441 1311.00
34.8093 1272.00
34.8745 1382.00
34.9397 1299.00
35.0049 1306.00
35.0701 1209.00
35.1353 1155.00
35.2005 1275.00
35.2657 1170.00
35.3309 1091.00
35.3961 1135.00
35.4613 1119.00
35.5265 1110.00
35.5917 1145.00
35.6569 1152.00
35.7221 1093.00
35.7873 1146.00
35.8525 1100.00
35.9177 1086.00
35.9829 1199.00
36.0481 1370.00
36.1133 1668.00
36.1785 2246.00
36.2437 2690.00
36.3089 2133.00
36.3741 1560.00
36.4393 1207.00
36.5045 1157.00
36.5697 1104.00
36.6349 1044.00
36.7001 1052.00
36.7653 1028.00
36.8305 1076.00
36.8957 1074.00
36.9609 1092.00
37.0261 1044.00
37.0913 1135.00
37.1565 1138.00
37.2217 1053.00
37.2869 1108.00
37.3521 1020.00
37.4173 1137.00
37.4825 1073.00
37.5477 1113.00
37.6129 962.00
37.6781 1021.00
37.7433 995.00
37.8085 953.00
37.8736 933.00
37.9388 948.00
38.004 964.00
38.0692 931.00
38.1344 937.00
38.1996 930.00
38.2648 992.00
38.33 938.00
38.3952 993.00
38.4604 1045.00
38.5256 962.00
38.5908 933.00
38.656 1068.00
38.7212 1125.00
38.7864 1087.00
38.8516 1049.00
38.9168 935.00
38.982 968.00
39.0472 980.00
39.1124 974.00
39.1776 991.00
39.2428 883.00
39.308 994.00
39.3732 1012.00
39.4384 1143.00
39.5036 1481.00
39.5688 2011.00
39.634 3020.00
39.6992 3057.00
39.7644 2352.00
39.8296 1526.00
39.8948 1087.00
39.96 1003.00
40.0252 978.00
40.0904 971.00
40.1556 943.00
40.2208 927.00
40.286 918.00
40.3512 946.00
40.4164 932.00
40.4816 846.00
40.5468 866.00
40.612 863.00
40.6772 883.00
40.7424 873.00
40.8076 959.00
40.8728 859.00
40.938 907.00
41.0032 894.00
41.0684 867.00
41.1336 845.00
41.1988 870.00
41.264 845.00
41.3292 918.00
41.3944 889.00
41.4596 836.00
41.5248 870.00
41.59 860.00
41.6552 828.00
41.7204 846.00
41.7856 839.00
41.8508 816.00
41.916 859.00
41.9812 847.00
42.0464 844.00
42.1116 837.00
42.1768 823.00
42.242 810.00
42.3072 872.00
42.3724 837.00
42.4376 816.00
42.5028 845.00
42.568 867.00
42.6332 833.00
42.6983 828.00
42.7635 840.00
42.8287 890.00
42.8939 914.00
42.9591 940.00
43.0243 877.00
43.0895 869.00
43.1547 960.00
43.2199 1101.00
43.2851 1465.00
43.3503 2408.00
43.4155 2875.00
43.4807 2233.00
43.5459 1794.00
43.6111 1232.00
43.6763 968.00
43.7415 983.00
43.8067 965.00
43.8719 950.00
43.9371 895.00
44.0023 899.00
44.0675 835.00
44.1327 847.00
44.1979 868.00
44.2631 804.00
44.3283 842.00
44.3935 796.00
44.4587 836.00
44.5239 876.00
44.5891 775.00
44.6543 830.00
44.7195 836.00
44.7847 871.00
44.8499 830.00
44.9151 860.00
44.9803 834.00
45.0455 852.00
45.1107 847.00
45.1759 809.00
45.2411 817.00
45.3063 847.00
45.3715 810.00
45.4367 827.00
45.5019 769.00
45.5671 848.00
45.6323 810.00
45.6975 820.00
45.7627 855.00
45.8279 801.00
45.8931 882.00
45.9583 782.00
46.0235 825.00
46.0887 825.00
46.1539 834.00
46.2191 785.00
46.2843 823.00
46.3495 807.00
46.4147 848.00
46.4799 880.00
46.5451 860.00
46.6103 870.00
46.6755 877.00
46.7407 838.00
46.8059 860.00
46.8711 780.00
46.9363 868.00
47.0015 929.00
47.0667 916.00
47.1319 950.00
47.1971 1104.00
47.2623 1336.00
47.3275 1586.00
47.3927 1726.00
47.4579 1594.00
47.523 1646.00
47.5882 1709.00
47.6534 2282.00
47.7186 2998.00
47.7838 2788.00
47.849 2246.00
47.9142 1594.00
47.9794 1080.00
48.0446 945.00
48.1098 886.00
48.175 821.00
48.2402 845.00
48.3054 824.00
48.3706 826.00
48.4358 883.00
48.501 988.00
48.5662 1263.00
48.6314 1766.00
48.6966 2578.00
48.7618 3066.00
48.827 2302.00
48.8922 1950.00
48.9574 1215.00
49.0226 985.00
49.0878 856.00
49.153 840.00
49.2182 799.00
49.2834 760.00
49.3486 757.00
49.4138 764.00
49.479 783.00
49.5442 707.00
49.6094 698.00
49.6746 719.00
49.7398 756.00
49.805 661.00
49.8702 707.00
49.9354 697.00
50.0006 669.00
50.0658 637.00
50.131 701.00
50.1962 700.00
50.2614 702.00
50.3266 713.00
50.3918 677.00
50.457 652.00
50.5222 669.00
50.5874 704.00
50.6526 665.00
50.7178 716.00
50.783 677.00
50.8482 736.00
50.9134 724.00
50.9786 690.00
51.0438 716.00
51.109 713.00
51.1742 675.00
51.2394 708.00
51.3046 659.00
51.3698 640.00
51.435 700.00
51.5002 633.00
51.5654 682.00
51.6306 643.00
51.6958 668.00
51.761 727.00
51.8262 639.00
51.8914 683.00
51.9566 704.00
52.0218 661.00
52.087 716.00
52.1522 678.00
52.2174 641.00
52.2826 634.00
52.3477 661.00
52.4129 702.00
52.4781 722.00
52.5433 709.00
52.6085 662.00
52.6737 646.00
52.7389 642.00
52.8041 673.00
52.8693 675.00
52.9345 649.00
52.9997 647.00
53.0649 633.00
53.1301 662.00
53.1953 697.00
53.2605 685.00
53.3257 610.00
53.3909 694.00
53.4561 651.00
53.5213 623.00
53.5865 670.00
53.6517 593.00
53.7169 707.00
53.7821 617.00
53.8473 674.00
53.9125 678.00
53.9777 648.00
54.0429 651.00
54.1081 648.00
54.1733 637.00
54.2385 647.00
54.3037 634.00
54.3689 666.00
54.4341 635.00
54.4993 611.00
54.5645 664.00
54.6297 658.00
54.6949 638.00
54.7601 680.00
54.8253 667.00
54.8905 661.00
54.9557 644.00
55.0209 641.00
55.0861 650.00
55.1513 667.00
55.2165 655.00
55.2817 642.00
55.3469 595.00
55.4121 582.00
55.4773 635.00
55.5425 652.00
55.6077 634.00
55.6729 615.00
55.7381 640.00
55.8033 604.00
55.8685 620.00
55.9337 624.00
55.9989 636.00
56.0641 595.00
56.1293 616.00
56.1945 604.00
56.2597 627.00
56.3249 615.00
56.3901 636.00
56.4553 635.00
56.5205 679.00
56.5857 639.00
56.6509 704.00
56.7161 806.00
56.7813 983.00
56.8465 965.00
56.9117 839.00
56.9769 834.00
57.042 792.00
57.1073 694.00
57.1724 688.00
57.2376 659.00
57.3028 756.00
57.368 746.00
57.4332 829.00
57.4984 948.00
57.5636 1308.00
57.6288 1589.00
57.694 1298.00
57.7592 1185.00
57.8244 986.00
57.8896 791.00
57.9548 791.00
58.02 732.00
58.0852 701.00
58.1504 659.00
58.2156 729.00
58.2808 720.00
58.346 699.00
58.4112 697.00
58.4764 696.00
58.5416 702.00
58.6068 580.00
58.672 554.00
58.7372 621.00
58.8024 597.00
58.8676 633.00
58.9328 620.00
58.998 628.00
59.0632 647.00
59.1284 679.00
59.1936 641.00
59.2588 770.00
59.324 662.00
59.3892 663.00
59.4544 718.00
59.5196 706.00
59.5848 638.00
59.65 677.00
59.7152 657.00
59.7804 640.00
59.8456 737.00
59.9108 650.00
59.976 620.00
60.0412 625.00
60.1064 624.00
60.1716 650.00
60.2368 628.00
60.302 593.00
60.3672 609.00
60.4324 637.00
60.4976 643.00
60.5628 646.00
60.628 641.00
60.6932 697.00
60.7584 786.00
60.8236 995.00
60.8888 1195.00
60.954 1027.00
61.0192 984.00
61.0844 1005.00
61.1496 916.00
61.2148 938.00
61.28 772.00
61.3452 809.00
61.4104 825.00
61.4756 771.00
61.5408 818.00
61.606 870.00
61.6712 715.00
61.7364 746.00
61.8016 655.00
61.8667 617.00
61.932 597.00
61.9971 603.00
62.0623 554.00
62.1275 547.00
62.1927 570.00
62.2579 535.00
62.3231 550.00
62.3883 580.00
62.4535 571.00
62.5187 555.00
62.5839 605.00
62.6491 559.00
62.7143 607.00
62.7795 616.00
62.8447 583.00
62.9099 581.00
62.9751 614.00
63.0403 636.00
63.1055 653.00
63.1707 687.00
63.2359 739.00
63.3011 751.00
63.3663 719.00
63.4315 679.00
63.4967 593.00
63.5619 559.00
63.6271 578.00
63.6923 535.00
63.7575 570.00
63.8227 537.00
63.8879 505.00
63.9531 532.00
64.0183 535.00
64.0835 547.00
64.1487 538.00
64.2139 525.00
64.2791 578.00
64.3443 516.00
64.4095 519.00
64.4747 524.00
64.5399 566.00
64.6051 620.00
64.6703 642.00
64.7355 716.00
64.8007 910.00
64.8659 1078.00
64.9311 1081.00
64.9963 863.00
65.0615 950.00
65.1267 755.00
65.1919 651.00
65.2571 617.00
65.3223 622.00
65.3875 592.00
65.4527 649.00
65.5179 660.00
65.5831 660.00
65.6483 696.00
65.7135 749.00
65.7787 845.00
65.8439 799.00
65.9091 767.00
65.9743 771.00
66.0395 712.00
66.1047 600.00
66.1699 537.00
66.2351 598.00
66.3003 561.00
66.3655 531.00
66.4307 587.00
66.4959 511.00
66.561 567.00
66.6263 597.00
66.6915 576.00
66.7566 565.00
66.8218 598.00
66.887 594.00
66.9522 576.00
67.0174 587.00
67.0826 554.00
67.1478 594.00
67.213 557.00
67.2782 598.00
67.3434 538.00
67.4086 564.00
67.4738 580.00
67.539 543.00
67.6042 546.00
67.6694 542.00
67.7346 542.00
67.7998 563.00
67.865 545.00
67.9302 545.00
67.9954 535.00
68.0606 509.00
68.1258 533.00
68.191 541.00
68.2562 478.00
68.3214 466.00
68.3866 529.00
68.4518 518.00
68.517 471.00
68.5822 429.00
68.6474 473.00
68.7126 483.00
68.7778 438.00
68.843 492.00
68.9082 452.00
68.9734 483.00
69.0386 424.00
69.1038 501.00
69.169 467.00
69.2342 462.00
69.2994 504.00
69.3646 534.00
69.4298 578.00
69.495 497.00
69.5602 515.00
69.6254 523.00
69.6906 437.00
69.7558 473.00
69.821 489.00
69.8862 483.00
69.9514 492.00
70.0166 499.00
70.0818 505.00
70.147 483.00
70.2122 533.00
70.2774 496.00
70.3426 525.00
70.4078 586.00
70.473 631.00
70.5382 527.00
70.6034 516.00
70.6686 535.00
70.7338 467.00
70.799 452.00
70.8642 419.00
70.9294 447.00
70.9946 482.00
71.0598 420.00
71.125 419.00
71.1902 444.00
71.2554 433.00
71.3205 436.00
71.3858 395.00
71.451 406.00
71.5162 441.00
71.5813 392.00
71.6465 405.00
71.7117 436.00
71.7769 414.00
71.8421 426.00
71.9073 392.00
71.9725 401.00
72.0377 466.00
72.1029 404.00
72.1681 423.00
72.2333 447.00
72.2985 439.00
72.3637 467.00
72.4289 435.00
72.4941 415.00
72.5593 431.00
72.6245 420.00
72.6897 429.00
72.7549 420.00
72.8201 446.00
72.8853 470.00
72.9505 537.00
73.0157 634.00
73.0809 678.00
73.1461 654.00
73.2113 581.00
73.2765 575.00
73.3417 567.00
73.4069 502.00
73.4721 445.00
73.5373 448.00
73.6025 441.00
73.6677 472.00
73.7329 447.00
73.7981 461.00
73.8633 457.00
73.9285 500.00
73.9937 468.00
74.0589 441.00
74.1241 429.00
74.1893 436.00
74.2545 419.00
74.3197 406.00
74.3849 416.00
74.4501 470.00
74.5153 426.00
74.5805 403.00
74.6457 450.00
74.7109 405.00
74.7761 412.00
74.8413 411.00
74.9065 396.00
74.9717 420.00
75.0369 395.00
75.1021 427.00
75.1673 399.00
75.2325 411.00
75.2977 399.00
75.3629 442.00
75.4281 400.00
75.4933 446.00
75.5585 403.00
75.6237 400.00
75.6889 393.00
75.7541 372.00
75.8193 405.00
75.8845 373.00
75.9497 396.00
76.0149 375.00
76.0801 422.00
76.1452 376.00
76.2104 442.00
76.2756 437.00
76.3409 464.00
76.406 522.00
76.4712 531.00
76.5364 495.00
76.6016 464.00
76.6668 491.00
76.732 415.00
76.7972 398.00
76.8624 375.00
76.9276 386.00
76.9928 430.00
77.058 415.00
77.1232 394.00
77.1884 458.00
77.2536 564.00
77.3188 581.00
77.384 533.00
77.4492 495.00
77.5144 521.00
77.5796 478.00
77.6448 468.00
77.71 404.00
77.7752 408.00
77.8404 409.00
77.9056 397.00
77.9708 402.00
78.036 353.00
78.1012 412.00
78.1664 376.00
78.2316 369.00
78.2968 378.00
78.362 402.00
78.4272 334.00
78.4924 419.00
78.5576 398.00
78.6228 408.00
78.688 354.00
78.7532 371.00
78.8184 405.00
78.8836 353.00
78.9488 398.00
79.014 368.00
79.0792 378.00
79.1444 388.00
79.2096 425.00
79.2748 400.00
79.34 394.00
79.4052 393.00
79.4704 425.00
79.5356 443.00
79.6008 397.00
79.666 397.00
79.7312 396.00
79.7964 387.00
79.8616 388.00
79.9268 375.00
79.992 351.00
80.0572 401.00
80.1224 374.00
80.1876 369.00
80.2528 375.00
80.318 417.00
80.3832 349.00
80.4484 378.00
80.5136 417.00
80.5788 361.00
80.644 423.00
80.7092 337.00
80.7744 377.00
80.8396 384.00
80.9048 375.00
80.9699 398.00
81.0351 437.00
81.1003 394.00
81.1655 462.00
81.2307 397.00
81.2959 408.00
81.3611 425.00
81.4263 422.00
81.4915 421.00
81.5567 483.00
81.6219 528.00
81.6871 543.00
81.7523 600.00
81.8175 480.00
81.8827 503.00
81.9479 508.00
82.0131 456.00
82.0783 433.00
82.1435 398.00
82.2087 390.00
82.2739 386.00
82.3391 377.00
82.4043 390.00
82.4695 417.00
82.5347 392.00
82.5999 434.00
82.6651 371.00
82.7303 376.00
82.7955 369.00
82.8607 397.00
82.9259 384.00
82.9911 379.00
83.0563 366.00
83.1215 378.00
83.1867 362.00
83.2519 356.00
83.3171 398.00
83.3823 384.00
83.4475 401.00
83.5127 412.00
83.5779 407.00
83.6431 433.00
83.7083 429.00
83.7735 495.00
83.8387 559.00
83.9039 654.00
83.9691 707.00
84.0343 591.00
84.0995 584.00
84.1647 553.00
84.2299 557.00
84.2951 499.00
84.3603 401.00
84.4255 439.00
84.4907 360.00
84.5559 412.00
84.6211 393.00
84.6863 424.00
84.7515 428.00
84.8167 482.00
84.8819 508.00
84.9471 600.00
85.0123 575.00
85.0775 448.00
85.1427 527.00
85.2079 501.00
85.2731 480.00
85.3383 422.00
85.4035 375.00
85.4687 406.00
85.5339 405.00
85.5991 369.00
85.6643 349.00
85.7295 403.00
85.7946 367.00
85.8598 389.00
85.925 377.00
85.9903 358.00
86.0554 393.00
86.1206 351.00
86.1858 370.00
86.251 350.00
86.3162 353.00
86.3814 372.00
86.4466 392.00
86.5118 398.00
86.577 395.00
86.6422 411.00
86.7074 412.00
86.7726 385.00
86.8378 405.00
86.903 384.00
86.9682 405.00
87.0334 390.00
87.0986 381.00
87.1638 372.00
87.229 380.00
87.2942 373.00
87.3594 402.00
87.4246 333.00
87.4898 364.00
87.555 317.00
87.6202 392.00
87.6854 374.00
87.7506 361.00
87.8158 358.00
87.881 363.00
87.9462 389.00
88.0114 316.00
88.0766 357.00
88.1418 357.00
88.207 349.00
88.2722 352.00
88.3374 362.00
88.4026 348.00
88.4678 325.00
88.533 354.00
88.5982 343.00
88.6634 364.00
88.7286 408.00
88.7938 353.00
88.859 402.00
88.9242 388.00
88.9894 331.00
89.0546 342.00
89.1198 370.00
89.185 330.00
89.2502 363.00
89.3154 357.00
89.3806 358.00
89.4458 359.00
89.511 344.00
89.5762 376.00
89.6414 335.00
89.7066 348.00
89.7718 336.00
89.837 378.00
89.9022 353.00
89.9674 329.00
90.0326 363.00
90.0978 369.00
90.163 324.00
90.2282 292.00
90.2934 338.00
90.3586 352.00
90.4238 344.00
90.489 326.00
90.5542 344.00
90.6193 303.00
90.6845 314.00
90.7497 356.00
90.8149 335.00
90.8801 373.00
90.9453 386.00
91.0105 352.00
91.0757 348.00
91.1409 362.00
91.2061 312.00
91.2713 340.00
91.3365 338.00
91.4017 370.00
91.4669 367.00
91.5321 349.00
91.5973 356.00
91.6625 365.00
91.7277 371.00
91.7929 357.00
91.8581 354.00
91.9233 376.00
91.9885 394.00
92.0537 345.00
92.1189 339.00
92.1841 341.00
92.2493 359.00
92.3145 335.00
92.3797 381.00
92.4449 360.00
92.5101 376.00
92.5753 355.00
92.6405 342.00
92.7057 360.00
92.7709 341.00
92.8361 342.00
92.9013 340.00
92.9665 366.00
93.0317 386.00
93.0969 381.00
93.1621 437.00
93.2273 388.00
93.2925 415.00
93.3577 354.00
93.4229 374.00
93.4881 414.00
93.5533 389.00
93.6185 332.00
93.6837 348.00
93.7489 314.00
93.8141 380.00
93.8793 375.00
93.9445 354.00
94.0097 357.00
94.0749 361.00
94.1401 359.00
94.2053 362.00
94.2705 354.00
94.3357 362.00
94.4009 357.00
94.4661 358.00
94.5313 365.00
94.5965 396.00
94.6617 409.00
94.7269 432.00
94.7921 504.00
94.8573 592.00
94.9225 573.00
94.9877 504.00
95.0529 607.00
95.1181 672.00
95.1833 704.00
95.2485 592.00
95.3137 513.00
95.3789 520.00
95.444 519.00
95.5092 501.00
95.5744 434.00
95.6396 404.00
95.7048 419.00
95.77 390.00
95.8352 368.00
95.9004 362.00
95.9656 358.00
96.0308 393.00
96.096 430.00
96.1612 450.00
96.2264 447.00
96.2916 501.00
96.3568 433.00
96.422 416.00
96.4872 407.00
96.5524 385.00
96.6176 418.00
96.6828 374.00
96.748 371.00
96.8132 356.00
96.8784 355.00
96.9436 329.00
97.0088 322.00
97.074 340.00
97.1392 334.00
97.2044 339.00
97.2696 346.00
97.3348 324.00
97.4 369.00
97.4652 328.00
97.5304 334.00
97.5956 324.00
97.6608 349.00
97.726 360.00
97.7912 366.00
97.8564 395.00
97.9216 356.00
97.9868 359.00
98.052 358.00
98.1172 393.00
98.1824 375.00
98.2476 372.00
98.3128 339.00
98.378 365.00
98.4432 345.00
98.5084 372.00
98.5736 383.00
98.6388 343.00
98.704 352.00
98.7692 348.00
98.8344 369.00
98.8996 351.00
98.9648 359.00
99.03 367.00
99.0952 421.00
99.1604 438.00
99.2256 490.00
99.2908 570.00
99.356 461.00
99.4212 473.00
99.4864 410.00
99.5516 468.00
99.6168 417.00
99.682 436.00
99.7472 361.00
99.8124 375.00
99.8776 372.00
99.9428 353.00
100.008 333.00
100.073 361.00
100.095 342.00