File: data/xrd_creation/results/Na_284.xy
9.903433 2740.00
9.968632 2791.00
10.0338 2764.00
10.099 2865.00
10.1642 2677.00
10.2294 2645.00
10.2946 2771.00
10.3598 2677.00
10.425 2751.00
10.4902 2649.00
10.5554 2558.00
10.6206 2532.00
10.6858 2637.00
10.751 2601.00
10.8162 2584.00
10.8814 2454.00
10.9466 2494.00
11.0118 2457.00
11.077 2481.00
11.1422 2456.00
11.2074 2411.00
11.2726 2474.00
11.3378 2497.00
11.403 2447.00
11.4682 2411.00
11.5334 2360.00
11.5986 2364.00
11.6638 2320.00
11.729 2300.00
11.7942 2330.00
11.8594 2272.00
11.9246 2266.00
11.9898 2223.00
12.055 2240.00
12.1202 2183.00
12.1854 2222.00
12.2506 2157.00
12.3158 2176.00
12.381 2114.00
12.4462 2118.00
12.5114 2133.00
12.5766 2125.00
12.6418 2051.00
12.707 2166.00
12.7722 2233.00
12.8374 2280.00
12.9026 2196.00
12.9678 2332.00
13.033 2446.00
13.0982 2474.00
13.1634 2753.00
13.2286 3055.00
13.2938 2819.00
13.359 2523.00
13.4242 2401.00
13.4894 2140.00
13.5546 2035.00
13.6198 2254.00
13.685 2258.00
13.7502 2488.00
13.8154 2515.00
13.8805 2271.00
13.9457 2111.00
14.0109 2076.00
14.0761 1906.00
14.1413 1993.00
14.2065 2027.00
14.2717 1980.00
14.3369 2038.00
14.4021 1947.00
14.4673 2041.00
14.5325 1896.00
14.5977 1962.00
14.6629 2014.00
14.7281 1994.00
14.7933 1928.00
14.8585 1928.00
14.9237 1846.00
14.9889 1860.00
15.0541 1918.00
15.1193 1847.00
15.1845 1876.00
15.2497 1809.00
15.3149 1905.00
15.3801 1932.00
15.4453 2030.00
15.5105 2068.00
15.5757 2161.00
15.6409 2326.00
15.7061 2490.00
15.7713 2614.00
15.8365 2795.00
15.9017 3113.00
15.9669 3585.00
16.0321 3742.00
16.0973 3278.00
16.1625 2804.00
16.2277 2372.00
16.2929 2095.00
16.3581 1985.00
16.4233 1935.00
16.4885 1815.00
16.5537 1821.00
16.6189 1755.00
16.6841 1804.00
16.7493 1737.00
16.8145 1668.00
16.8797 1751.00
16.9449 1731.00
17.0101 1697.00
17.0753 1713.00
17.1405 1750.00
17.2057 1689.00
17.2709 1679.00
17.3361 1655.00
17.4013 1674.00
17.4665 1671.00
17.5317 1676.00
17.5969 1627.00
17.6621 1645.00
17.7273 1653.00
17.7925 1676.00
17.8577 1634.00
17.9229 1582.00
17.9881 1636.00
18.0533 1624.00
18.1185 1596.00
18.1837 1597.00
18.2489 1643.00
18.3141 1602.00
18.3793 1469.00
18.4445 1592.00
18.5097 1585.00
18.5749 1512.00
18.6401 1511.00
18.7052 1555.00
18.7704 1566.00
18.8356 1497.00
18.9008 1557.00
18.966 1458.00
19.0312 1477.00
19.0964 1504.00
19.1616 1555.00
19.2268 1660.00
19.292 1841.00
19.3572 1898.00
19.4224 2016.00
19.4876 1914.00
19.5528 1691.00
19.618 1696.00
19.6832 1562.00
19.7484 1610.00
19.8136 1585.00
19.8788 1570.00
19.944 1557.00
20.0092 1517.00
20.0744 1505.00
20.1396 1642.00
20.2048 1724.00
20.27 1806.00
20.3352 1844.00
20.4004 1811.00
20.4656 1630.00
20.5308 1575.00
20.596 1445.00
20.6612 1528.00
20.7264 1559.00
20.7916 1716.00
20.8568 1813.00
20.922 1998.00
20.9872 2484.00
21.0524 3201.00
21.1176 3455.00
21.1828 2461.00
21.248 1862.00
21.3132 1528.00
21.3784 1485.00
21.4436 1449.00
21.5088 1394.00
21.574 1403.00
21.6392 1407.00
21.7044 1540.00
21.7696 1597.00
21.8348 1484.00
21.9 1367.00
21.9652 1362.00
22.0304 1408.00
22.0956 1336.00
22.1608 1300.00
22.226 1344.00
22.2912 1393.00
22.3564 1389.00
22.4216 1378.00
22.4868 1400.00
22.552 1535.00
22.6172 1508.00
22.6824 1751.00
22.7476 1996.00
22.8128 2289.00
22.878 2434.00
22.9432 2471.00
23.0084 2094.00
23.0736 1712.00
23.1388 1609.00
23.204 1600.00
23.2692 1615.00
23.3344 1508.00
23.3996 1468.00
23.4647 1362.00
23.5299 1316.00
23.5951 1371.00
23.6603 1295.00
23.7255 1196.00
23.7907 1263.00
23.8559 1275.00
23.9211 1196.00
23.9863 1217.00
24.0515 1175.00
24.1167 1241.00
24.1819 1279.00
24.2471 1406.00
24.3123 1667.00
24.3775 1657.00
24.4427 1504.00
24.5079 1353.00
24.5731 1336.00
24.6383 1301.00
24.7035 1265.00
24.7687 1186.00
24.8339 1212.00
24.8991 1238.00
24.9643 1194.00
25.0295 1122.00
25.0947 1223.00
25.1599 1138.00
25.2251 1089.00
25.2903 1222.00
25.3555 1168.00
25.4207 1260.00
25.4859 1334.00
25.5511 1401.00
25.6163 1562.00
25.6815 1716.00
25.7467 1616.00
25.8119 1495.00
25.8771 1373.00
25.9423 1312.00
26.0075 1248.00
26.0727 1271.00
26.1379 1308.00
26.2031 1444.00
26.2683 1479.00
26.3335 1416.00
26.3987 1415.00
26.4639 1281.00
26.5291 1197.00
26.5943 1271.00
26.6595 1247.00
26.7247 1233.00
26.7899 1258.00
26.8551 1280.00
26.9203 1329.00
26.9855 1315.00
27.0507 1345.00
27.1159 1346.00
27.1811 1457.00
27.2463 1520.00
27.3115 1716.00
27.3767 1905.00
27.4419 2169.00
27.5071 2563.00
27.5723 2942.00
27.6375 3156.00
27.7027 2972.00
27.7679 2589.00
27.8331 2198.00
27.8983 2032.00
27.9635 1964.00
28.0287 1899.00
28.0939 2089.00
28.1591 2510.00
28.2243 3077.00
28.2894 3586.00
28.3546 3779.00
28.4198 3358.00
28.485 2708.00
28.5502 2199.00
28.6154 1880.00
28.6806 1615.00
28.7458 1454.00
28.811 1354.00
28.8762 1400.00
28.9414 1338.00
29.0066 1389.00
29.0718 1428.00
29.137 1591.00
29.2022 1747.00
29.2674 2094.00
29.3326 3158.00
29.3978 5077.00
29.463 7218.00
29.5282 7659.00
29.5934 5788.00
29.6586 3521.00
29.7238 2056.00
29.789 1573.00
29.8542 1279.00
29.9194 1322.00
29.9846 1202.00
30.0498 1191.00
30.115 1206.00
30.1802 1329.00
30.2454 1261.00
30.3106 1137.00
30.3758 1163.00
30.441 1262.00
30.5062 1222.00
30.5714 1268.00
30.6366 1382.00
30.7018 1324.00
30.767 1413.00
30.8322 1887.00
30.8974 2400.00
30.9626 2943.00
31.0278 3056.00
31.093 2820.00
31.1582 2594.00
31.2234 2042.00
31.2886 1661.00
31.3538 1355.00
31.419 1300.00
31.4842 1402.00
31.5494 1472.00
31.6146 1527.00
31.6798 1437.00
31.745 1428.00
31.8102 1496.00
31.8754 1595.00
31.9406 1726.00
32.0058 1769.00
32.071 1875.00
32.1362 2162.00
32.2014 2392.00
32.2666 2196.00
32.3318 2003.00
32.397 2093.00
32.4622 2061.00
32.5274 1845.00
32.5926 1422.00
32.6578 1324.00
32.723 1231.00
32.7882 1126.00
32.8534 1098.00
32.9186 1099.00
32.9838 1078.00
33.0489 1102.00
33.1141 1107.00
33.1793 1094.00
33.2445 1181.00
33.3097 1230.00
33.3749 1277.00
33.4401 1423.00
33.5053 1651.00
33.5705 2023.00
33.6357 1958.00
33.7009 1797.00
33.7661 1793.00
33.8313 1856.00
33.8965 1640.00
33.9617 1325.00
34.0269 1195.00
34.0921 1159.00
34.1573 1156.00
34.2225 1234.00
34.2877 1459.00
34.3529 1669.00
34.4181 2260.00
34.4833 3487.00
34.5485 3828.00
34.6137 2712.00
34.6789 1757.00
34.7441 1238.00
34.8093 1171.00
34.8745 1158.00
34.9397 1116.00
35.0049 1004.00
35.0701 968.00
35.1353 1035.00
35.2005 1115.00
35.2657 1246.00
35.3309 1273.00
35.3961 1175.00
35.4613 1047.00
35.5265 1023.00
35.5917 1019.00
35.6569 956.00
35.7221 941.00
35.7873 905.00
35.8525 937.00
35.9177 923.00
35.9829 961.00
36.0481 901.00
36.1133 998.00
36.1785 937.00
36.2437 1031.00
36.3089 995.00
36.3741 1134.00
36.4393 1084.00
36.5045 1028.00
36.5697 1059.00
36.6349 1003.00
36.7001 920.00
36.7653 940.00
36.8305 854.00
36.8957 879.00
36.9609 883.00
37.0261 861.00
37.0913 842.00
37.1565 846.00
37.2217 859.00
37.2869 850.00
37.3521 776.00
37.4173 802.00
37.4825 886.00
37.5477 829.00
37.6129 842.00
37.6781 830.00
37.7433 785.00
37.8085 793.00
37.8736 827.00
37.9388 903.00
38.004 849.00
38.0692 910.00
38.1344 974.00
38.1996 1005.00
38.2648 911.00
38.33 872.00
38.3952 881.00
38.4604 858.00
38.5256 912.00
38.5908 895.00
38.656 869.00
38.7212 839.00
38.7864 877.00
38.8516 885.00
38.9168 949.00
38.982 1053.00
39.0472 940.00
39.1124 1047.00
39.1776 1004.00
39.2428 1023.00
39.308 1045.00
39.3732 1112.00
39.4384 1289.00
39.5036 1483.00
39.5688 1775.00
39.634 2202.00
39.6992 2740.00
39.7644 3181.00
39.8296 3055.00
39.8948 2677.00
39.96 2176.00
40.0252 1871.00
40.0904 1726.00
40.1556 1438.00
40.2208 1256.00
40.286 1106.00
40.3512 1036.00
40.4164 971.00
40.4816 947.00
40.5468 988.00
40.612 934.00
40.6772 1017.00
40.7424 1007.00
40.8076 1266.00
40.8728 1610.00
40.938 1771.00
41.0032 1636.00
41.0684 1348.00
41.1336 1074.00
41.1988 961.00
41.264 898.00
41.3292 853.00
41.3944 886.00
41.4596 880.00
41.5248 889.00
41.59 838.00
41.6552 889.00
41.7204 1039.00
41.7856 994.00
41.8508 921.00
41.916 904.00
41.9812 838.00
42.0464 770.00
42.1116 791.00
42.1768 802.00
42.242 806.00
42.3072 839.00
42.3724 920.00
42.4376 1069.00
42.5028 1247.00
42.568 1239.00
42.6332 1136.00
42.6983 1039.00
42.7635 969.00
42.8287 915.00
42.8939 891.00
42.9591 827.00
43.0243 838.00
43.0895 786.00
43.1547 772.00
43.2199 794.00
43.2851 778.00
43.3503 794.00
43.4155 770.00
43.4807 801.00
43.5459 770.00
43.6111 751.00
43.6763 747.00
43.7415 763.00
43.8067 832.00
43.8719 966.00
43.9371 969.00
44.0023 1116.00
44.0675 1293.00
44.1327 1374.00
44.1979 1311.00
44.2631 1278.00
44.3283 1356.00
44.3935 1444.00
44.4587 1351.00
44.5239 1168.00
44.5891 1043.00
44.6543 933.00
44.7195 925.00
44.7847 878.00
44.8499 870.00
44.9151 898.00
44.9803 816.00
45.0455 810.00
45.1107 745.00
45.1759 807.00
45.2411 837.00
45.3063 913.00
45.3715 868.00
45.4367 893.00
45.5019 893.00
45.5671 899.00
45.6323 891.00
45.6975 935.00
45.7627 937.00
45.8279 997.00
45.8931 909.00
45.9583 852.00
46.0235 873.00
46.0887 809.00
46.1539 887.00
46.2191 841.00
46.2843 878.00
46.3495 879.00
46.4147 903.00
46.4799 934.00
46.5451 912.00
46.6103 890.00
46.6755 816.00
46.7407 774.00
46.8059 838.00
46.8711 900.00
46.9363 962.00
47.0015 951.00
47.0667 971.00
47.1319 1105.00
47.1971 1095.00
47.2623 1123.00
47.3275 1103.00
47.3927 1036.00
47.4579 1109.00
47.523 1024.00
47.5882 952.00
47.6534 890.00
47.7186 913.00
47.7838 793.00
47.849 839.00
47.9142 811.00
47.9794 835.00
48.0446 837.00
48.1098 884.00
48.175 836.00
48.2402 919.00
48.3054 953.00
48.3706 1048.00
48.4358 1179.00
48.501 1297.00
48.5662 1414.00
48.6314 1482.00
48.6966 1512.00
48.7618 1548.00
48.827 1644.00
48.8922 1799.00
48.9574 1891.00
49.0226 1884.00
49.0878 1713.00
49.153 1544.00
49.2182 1423.00
49.2834 1334.00
49.3486 1241.00
49.4138 1498.00
49.479 1237.00
49.5442 1134.00
49.6094 941.00
49.6746 847.00
49.7398 807.00
49.805 730.00
49.8702 730.00
49.9354 784.00
50.0006 936.00
50.0658 903.00
50.131 996.00
50.1962 998.00
50.2614 1030.00
50.3266 950.00
50.3918 984.00
50.457 897.00
50.5222 853.00
50.5874 917.00
50.6526 834.00
50.7178 850.00
50.783 843.00
50.8482 1000.00
50.9134 1344.00
50.9786 1580.00
51.0438 1545.00
51.109 1454.00
51.1742 1180.00
51.2394 986.00
51.3046 807.00
51.3698 718.00
51.435 735.00
51.5002 652.00
51.5654 682.00
51.6306 731.00
51.6958 744.00
51.761 861.00
51.8262 862.00
51.8914 921.00
51.9566 941.00
52.0218 895.00
52.087 856.00
52.1522 830.00
52.2174 822.00
52.2826 727.00
52.3477 793.00
52.4129 745.00
52.4781 745.00
52.5433 755.00
52.6085 719.00
52.6737 698.00
52.7389 677.00
52.8041 668.00
52.8693 652.00
52.9345 643.00
52.9997 610.00
53.0649 703.00
53.1301 659.00
53.1953 682.00
53.2605 644.00
53.3257 669.00
53.3909 694.00
53.4561 713.00
53.5213 817.00
53.5865 872.00
53.6517 1133.00
53.7169 1213.00
53.7821 1399.00
53.8473 1511.00
53.9125 1628.00
53.9777 1597.00
54.0429 1509.00
54.1081 1460.00
54.1733 1154.00
54.2385 951.00
54.3037 821.00
54.3689 742.00
54.4341 697.00
54.4993 702.00
54.5645 568.00
54.6297 644.00
54.6949 650.00
54.7601 652.00
54.8253 629.00
54.8905 637.00
54.9557 705.00
55.0209 680.00
55.0861 668.00
55.1513 714.00
55.2165 676.00
55.2817 721.00
55.3469 750.00
55.4121 853.00
55.4773 869.00
55.5425 893.00
55.6077 952.00
55.6729 933.00
55.7381 931.00
55.8033 830.00
55.8685 821.00
55.9337 804.00
55.9989 747.00
56.0641 784.00
56.1293 778.00
56.1945 693.00
56.2597 637.00
56.3249 624.00
56.3901 678.00
56.4553 720.00
56.5205 718.00
56.5857 725.00
56.6509 667.00
56.7161 685.00
56.7813 655.00
56.8465 657.00
56.9117 684.00
56.9769 633.00
57.042 594.00
57.1073 597.00
57.1724 596.00
57.2376 613.00
57.3028 592.00
57.368 590.00
57.4332 583.00
57.4984 571.00
57.5636 582.00
57.6288 585.00
57.694 579.00
57.7592 573.00
57.8244 582.00
57.8896 629.00
57.9548 641.00
58.02 615.00
58.0852 660.00
58.1504 606.00
58.2156 600.00
58.2808 645.00
58.346 635.00
58.4112 611.00
58.4764 618.00
58.5416 620.00
58.6068 608.00
58.672 683.00
58.7372 629.00
58.8024 603.00
58.8676 668.00
58.9328 599.00
58.998 665.00
59.0632 638.00
59.1284 612.00
59.1936 646.00
59.2588 638.00
59.324 567.00
59.3892 583.00
59.4544 550.00
59.5196 573.00
59.5848 567.00
59.65 567.00
59.7152 516.00
59.7804 531.00
59.8456 528.00
59.9108 525.00
59.976 549.00
60.0412 566.00
60.1064 567.00
60.1716 555.00
60.2368 572.00
60.302 552.00
60.3672 597.00
60.4324 569.00
60.4976 679.00
60.5628 724.00
60.628 696.00
60.6932 767.00
60.7584 891.00
60.8236 877.00
60.8888 859.00
60.954 745.00
61.0192 697.00
61.0844 667.00
61.1496 561.00
61.2148 544.00
61.28 556.00
61.3452 625.00
61.4104 712.00
61.4756 811.00
61.5408 728.00
61.606 720.00
61.6712 717.00
61.7364 594.00
61.8016 593.00
61.8667 494.00
61.932 511.00
61.9971 469.00
62.0623 503.00
62.1275 498.00
62.1927 481.00
62.2579 487.00
62.3231 484.00
62.3883 476.00
62.4535 489.00
62.5187 473.00
62.5839 483.00
62.6491 464.00
62.7143 503.00
62.7795 482.00
62.8447 506.00
62.9099 504.00
62.9751 524.00
63.0403 520.00
63.1055 583.00
63.1707 523.00
63.2359 550.00
63.3011 563.00
63.3663 510.00
63.4315 524.00
63.4967 537.00
63.5619 500.00
63.6271 522.00
63.6923 556.00
63.7575 509.00
63.8227 516.00
63.8879 623.00
63.9531 654.00
64.0183 696.00
64.0835 727.00
64.1487 749.00
64.2139 764.00
64.2791 804.00
64.3443 782.00
64.4095 815.00
64.4747 774.00
64.5399 695.00
64.6051 704.00
64.6703 610.00
64.7355 595.00
64.8007 534.00
64.8659 512.00
64.9311 506.00
64.9963 547.00
65.0615 548.00
65.1267 620.00
65.1919 616.00
65.2571 725.00
65.3223 723.00
65.3875 735.00
65.4527 854.00
65.5179 862.00
65.5831 867.00
65.6483 811.00
65.7135 713.00
65.7787 675.00
65.8439 612.00
65.9091 564.00
65.9743 560.00
66.0395 542.00
66.1047 540.00
66.1699 524.00
66.2351 486.00
66.3003 480.00
66.3655 476.00
66.4307 493.00
66.4959 473.00
66.561 439.00
66.6263 485.00
66.6915 477.00
66.7566 421.00
66.8218 444.00
66.887 432.00
66.9522 447.00
67.0174 459.00
67.0826 418.00
67.1478 452.00
67.213 447.00
67.2782 418.00
67.3434 425.00
67.4086 494.00
67.4738 402.00
67.539 427.00
67.6042 456.00
67.6694 382.00
67.7346 433.00
67.7998 419.00
67.865 402.00
67.9302 410.00
67.9954 391.00
68.0606 425.00
68.1258 388.00
68.191 428.00
68.2562 418.00
68.3214 432.00
68.3866 392.00
68.4518 416.00
68.517 431.00
68.5822 431.00
68.6474 443.00
68.7126 441.00
68.7778 479.00
68.843 418.00
68.9082 457.00
68.9734 433.00
69.0386 407.00
69.1038 394.00
69.169 414.00
69.2342 438.00
69.2994 474.00
69.3646 479.00
69.4298 472.00
69.495 480.00
69.5602 489.00
69.6254 499.00
69.6906 530.00
69.7558 558.00
69.821 609.00
69.8862 602.00
69.9514 652.00
70.0166 676.00
70.0818 689.00
70.147 738.00
70.2122 749.00
70.2774 705.00
70.3426 678.00
70.4078 628.00
70.473 585.00
70.5382 604.00
70.6034 632.00
70.6686 531.00
70.7338 490.00
70.799 565.00
70.8642 500.00
70.9294 460.00
70.9946 500.00
71.0598 519.00
71.125 492.00
71.1902 470.00
71.2554 477.00
71.3205 499.00
71.3858 465.00
71.451 488.00
71.5162 510.00
71.5813 507.00
71.6465 520.00
71.7117 536.00
71.7769 563.00
71.8421 525.00
71.9073 461.00
71.9725 526.00
72.0377 544.00
72.1029 556.00
72.1681 613.00
72.2333 641.00
72.2985 591.00
72.3637 593.00
72.4289 627.00
72.4941 582.00
72.5593 530.00
72.6245 514.00
72.6897 506.00
72.7549 519.00
72.8201 476.00
72.8853 500.00
72.9505 479.00
73.0157 513.00
73.0809 517.00
73.1461 500.00
73.2113 562.00
73.2765 478.00
73.3417 511.00
73.4069 435.00
73.4721 520.00
73.5373 462.00
73.6025 399.00
73.6677 425.00
73.7329 442.00
73.7981 444.00
73.8633 454.00
73.9285 431.00
73.9937 395.00
74.0589 384.00
74.1241 450.00
74.1893 398.00
74.2545 409.00
74.3197 434.00
74.3849 451.00
74.4501 456.00
74.5153 474.00
74.5805 444.00
74.6457 424.00
74.7109 454.00
74.7761 395.00
74.8413 461.00
74.9065 426.00
74.9717 436.00
75.0369 408.00
75.1021 412.00
75.1673 399.00
75.2325 405.00
75.2977 441.00
75.3629 419.00
75.4281 378.00
75.4933 433.00
75.5585 409.00
75.6237 431.00
75.6889 473.00
75.7541 454.00
75.8193 473.00
75.8845 470.00
75.9497 479.00
76.0149 511.00
76.0801 544.00
76.1452 534.00
76.2104 556.00
76.2756 480.00
76.3409 561.00
76.406 552.00
76.4712 540.00
76.5364 524.00
76.6016 632.00
76.6668 565.00
76.732 575.00
76.7972 557.00
76.8624 576.00
76.9276 570.00
76.9928 556.00
77.058 563.00
77.1232 524.00
77.1884 617.00
77.2536 573.00
77.3188 566.00
77.384 549.00
77.4492 626.00
77.5144 617.00
77.5796 618.00
77.6448 656.00
77.71 691.00
77.7752 688.00
77.8404 692.00
77.9056 678.00
77.9708 718.00
78.036 720.00
78.1012 669.00
78.1664 665.00
78.2316 619.00
78.2968 577.00
78.362 589.00
78.4272 545.00
78.4924 500.00
78.5576 510.00
78.6228 529.00
78.688 528.00
78.7532 559.00
78.8184 492.00
78.8836 528.00
78.9488 470.00
79.014 512.00
79.0792 519.00
79.1444 517.00
79.2096 489.00
79.2748 491.00
79.34 464.00
79.4052 421.00
79.4704 423.00
79.5356 436.00
79.6008 397.00
79.666 399.00
79.7312 398.00
79.7964 409.00
79.8616 405.00
79.9268 401.00
79.992 422.00
80.0572 388.00
80.1224 433.00
80.1876 413.00
80.2528 416.00
80.318 374.00
80.3832 419.00
80.4484 425.00
80.5136 416.00
80.5788 440.00
80.644 412.00
80.7092 412.00
80.7744 436.00
80.8396 398.00
80.9048 381.00
80.9699 414.00
81.0351 437.00
81.1003 376.00
81.1655 417.00
81.2307 450.00
81.2959 412.00
81.3611 406.00
81.4263 387.00
81.4915 377.00
81.5567 420.00
81.6219 432.00
81.6871 445.00
81.7523 426.00
81.8175 455.00
81.8827 432.00
81.9479 482.00
82.0131 513.00
82.0783 602.00
82.1435 628.00
82.2087 697.00
82.2739 676.00
82.3391 693.00
82.4043 648.00
82.4695 623.00
82.5347 611.00
82.5999 572.00
82.6651 546.00
82.7303 517.00
82.7955 482.00
82.8607 452.00
82.9259 482.00
82.9911 454.00
83.0563 407.00
83.1215 426.00
83.1867 418.00
83.2519 445.00
83.3171 391.00
83.3823 412.00
83.4475 416.00
83.5127 432.00
83.5779 428.00
83.6431 394.00
83.7083 417.00
83.7735 392.00
83.8387 367.00
83.9039 386.00
83.9691 408.00
84.0343 407.00
84.0995 424.00
84.1647 412.00
84.2299 421.00
84.2951 422.00
84.3603 404.00
84.4255 418.00
84.4907 398.00
84.5559 429.00
84.6211 415.00
84.6863 403.00
84.7515 467.00
84.8167 489.00
84.8819 440.00
84.9471 460.00
85.0123 504.00
85.0775 502.00
85.1427 510.00
85.2079 511.00
85.2731 495.00
85.3383 523.00
85.4035 520.00
85.4687 512.00
85.5339 499.00
85.5991 492.00
85.6643 531.00
85.7295 510.00
85.7946 535.00
85.8598 569.00
85.925 493.00
85.9903 531.00
86.0554 525.00
86.1206 528.00
86.1858 530.00
86.251 511.00
86.3162 475.00
86.3814 493.00
86.4466 463.00
86.5118 488.00
86.577 457.00
86.6422 426.00
86.7074 433.00
86.7726 407.00
86.8378 390.00
86.903 412.00
86.9682 399.00
87.0334 412.00
87.0986 410.00
87.1638 371.00
87.229 430.00
87.2942 432.00
87.3594 400.00
87.4246 367.00
87.4898 363.00
87.555 469.00
87.6202 417.00
87.6854 402.00
87.7506 451.00
87.8158 426.00
87.881 425.00
87.9462 442.00
88.0114 445.00
88.0766 450.00
88.1418 514.00
88.207 502.00
88.2722 483.00
88.3374 508.00
88.4026 513.00
88.4678 483.00
88.533 475.00
88.5982 493.00
88.6634 447.00
88.7286 531.00
88.7938 525.00
88.859 504.00
88.9242 497.00
88.9894 509.00
89.0546 501.00
89.1198 523.00
89.185 487.00
89.2502 491.00
89.3154 449.00
89.3806 473.00
89.4458 403.00
89.511 431.00
89.5762 461.00
89.6414 430.00
89.7066 404.00
89.7718 410.00
89.837 405.00
89.9022 414.00
89.9674 429.00
90.0326 417.00
90.0978 391.00
90.163 441.00
90.2282 424.00
90.2934 407.00
90.3586 437.00
90.4238 433.00
90.489 410.00
90.5542 458.00
90.6193 435.00
90.6845 448.00
90.7497 414.00
90.8149 455.00
90.8801 454.00
90.9453 403.00
91.0105 423.00
91.0757 412.00
91.1409 401.00
91.2061 395.00
91.2713 432.00
91.3365 411.00
91.4017 401.00
91.4669 399.00
91.5321 389.00
91.5973 439.00
91.6625 435.00
91.7277 417.00
91.7929 415.00
91.8581 420.00
91.9233 405.00
91.9885 417.00
92.0537 418.00
92.1189 399.00
92.1841 448.00
92.2493 399.00
92.3145 447.00
92.3797 404.00
92.4449 414.00
92.5101 419.00
92.5753 375.00
92.6405 425.00
92.7057 428.00
92.7709 432.00
92.8361 450.00
92.9013 439.00
92.9665 426.00
93.0317 420.00
93.0969 385.00
93.1621 417.00
93.2273 401.00
93.2925 438.00
93.3577 408.00
93.4229 375.00
93.4881 359.00
93.5533 408.00
93.6185 400.00
93.6837 355.00
93.7489 423.00
93.8141 378.00
93.8793 370.00
93.9445 394.00
94.0097 396.00
94.0749 387.00
94.1401 398.00
94.2053 390.00
94.2705 382.00
94.3357 330.00
94.4009 373.00
94.4661 360.00
94.5313 349.00
94.5965 377.00
94.6617 373.00
94.7269 372.00
94.7921 339.00
94.8573 395.00
94.9225 400.00
94.9877 354.00
95.0529 347.00
95.1181 370.00
95.1833 402.00
95.2485 430.00
95.3137 389.00
95.3789 456.00
95.444 454.00
95.5092 449.00
95.5744 445.00
95.6396 412.00
95.7048 442.00
95.77 471.00
95.8352 462.00
95.9004 457.00
95.9656 495.00
96.0308 488.00
96.096 459.00
96.1612 444.00
96.2264 466.00
96.2916 458.00
96.3568 440.00
96.422 429.00
96.4872 447.00
96.5524 485.00
96.6176 409.00
96.6828 448.00
96.748 406.00
96.8132 452.00
96.8784 405.00
96.9436 442.00
97.0088 428.00
97.074 437.00
97.1392 427.00
97.2044 433.00
97.2696 419.00
97.3348 445.00
97.4 429.00
97.4652 419.00
97.5304 431.00
97.5956 404.00
97.6608 404.00
97.726 397.00
97.7912 408.00
97.8564 433.00
97.9216 426.00
97.9868 409.00
98.052 438.00
98.1172 383.00
98.1824 402.00
98.2476 397.00
98.3128 407.00
98.378 425.00
98.4432 435.00
98.5084 405.00
98.5736 430.00
98.6388 376.00
98.704 393.00
98.7692 396.00
98.8344 424.00
98.8996 368.00
98.9648 403.00
99.03 370.00
99.0952 360.00
99.1604 347.00
99.2256 370.00
99.2908 398.00
99.356 377.00
99.4212 333.00
99.4864 356.00
99.5516 342.00
99.6168 372.00
99.682 350.00
99.7472 355.00
99.8124 355.00
99.8776 363.00
99.9428 368.00
100.008 386.00
100.073 348.00
100.095 370.00