File: data/xrd_creation/results/Na_274.xy
9.903433 2811.00
9.968632 2806.00
10.0338 2783.00
10.099 2764.00
10.1642 2799.00
10.2294 2723.00
10.2946 2706.00
10.3598 2773.00
10.425 2810.00
10.4902 2887.00
10.5554 2771.00
10.6206 2547.00
10.6858 2496.00
10.751 2451.00
10.8162 2383.00
10.8814 2434.00
10.9466 2452.00
11.0118 2368.00
11.077 2357.00
11.1422 2366.00
11.2074 2251.00
11.2726 2230.00
11.3378 2287.00
11.403 2186.00
11.4682 2142.00
11.5334 2246.00
11.5986 2191.00
11.6638 2161.00
11.729 2205.00
11.7942 2169.00
11.8594 2366.00
11.9246 2309.00
11.9898 2189.00
12.055 2056.00
12.1202 2103.00
12.1854 2086.00
12.2506 2057.00
12.3158 2035.00
12.381 1993.00
12.4462 2045.00
12.5114 1982.00
12.5766 1967.00
12.6418 1975.00
12.707 1991.00
12.7722 1943.00
12.8374 1940.00
12.9026 1850.00
12.9678 1814.00
13.033 1859.00
13.0982 1764.00
13.1634 1805.00
13.2286 1761.00
13.2938 1829.00
13.359 1728.00
13.4242 1762.00
13.4894 1696.00
13.5546 1789.00
13.6198 1700.00
13.685 1751.00
13.7502 1705.00
13.8154 1817.00
13.8805 1737.00
13.9457 1714.00
14.0109 1810.00
14.0761 1914.00
14.1413 1946.00
14.2065 1941.00
14.2717 1909.00
14.3369 1691.00
14.4021 1688.00
14.4673 1693.00
14.5325 1628.00
14.5977 1687.00
14.6629 1694.00
14.7281 1792.00
14.7933 1862.00
14.8585 1816.00
14.9237 1625.00
14.9889 1596.00
15.0541 1586.00
15.1193 1537.00
15.1845 1546.00
15.2497 1564.00
15.3149 1592.00
15.3801 1620.00
15.4453 1580.00
15.5105 1569.00
15.5757 1601.00
15.6409 1555.00
15.7061 1717.00
15.7713 1729.00
15.8365 1981.00
15.9017 2403.00
15.9669 2700.00
16.0321 2499.00
16.0973 1936.00
16.1625 1693.00
16.2277 1529.00
16.2929 1514.00
16.3581 1498.00
16.4233 1486.00
16.4885 1575.00
16.5537 1762.00
16.6189 1875.00
16.6841 2032.00
16.7493 2139.00
16.8145 1882.00
16.8797 1627.00
16.9449 1460.00
17.0101 1461.00
17.0753 1391.00
17.1405 1411.00
17.2057 1460.00
17.2709 1331.00
17.3361 1350.00
17.4013 1319.00
17.4665 1442.00
17.5317 1366.00
17.5969 1331.00
17.6621 1338.00
17.7273 1375.00
17.7925 1423.00
17.8577 1364.00
17.9229 1382.00
17.9881 1360.00
18.0533 1276.00
18.1185 1342.00
18.1837 1353.00
18.2489 1320.00
18.3141 1393.00
18.3793 1499.00
18.4445 1516.00
18.5097 1693.00
18.5749 1999.00
18.6401 2407.00
18.7052 2724.00
18.7704 2201.00
18.8356 1815.00
18.9008 1633.00
18.966 1720.00
19.0312 1898.00
19.0964 1945.00
19.1616 1709.00
19.2268 1629.00
19.292 1602.00
19.3572 1857.00
19.4224 1984.00
19.4876 1714.00
19.5528 1590.00
19.618 1655.00
19.6832 1971.00
19.7484 1989.00
19.8136 1755.00
19.8788 1576.00
19.944 1716.00
20.0092 1906.00
20.0744 1714.00
20.1396 1385.00
20.2048 1341.00
20.27 1340.00
20.3352 1457.00
20.4004 1347.00
20.4656 1292.00
20.5308 1356.00
20.596 1351.00
20.6612 1549.00
20.7264 1436.00
20.7916 1230.00
20.8568 1241.00
20.922 1213.00
20.9872 1213.00
21.0524 1226.00
21.1176 1217.00
21.1828 1187.00
21.248 1180.00
21.3132 1175.00
21.3784 1153.00
21.4436 1190.00
21.5088 1180.00
21.574 1150.00
21.6392 1173.00
21.7044 1175.00
21.7696 1165.00
21.8348 1144.00
21.9 1134.00
21.9652 1262.00
22.0304 1201.00
22.0956 1308.00
22.1608 1495.00
22.226 1747.00
22.2912 1693.00
22.3564 1545.00
22.4216 1445.00
22.4868 1430.00
22.552 1545.00
22.6172 1527.00
22.6824 1417.00
22.7476 1375.00
22.8128 1403.00
22.878 1336.00
22.9432 1456.00
23.0084 1765.00
23.0736 1671.00
23.1388 1357.00
23.204 1413.00
23.2692 1431.00
23.3344 1788.00
23.3996 1936.00
23.4647 1612.00
23.5299 1387.00
23.5951 1279.00
23.6603 1258.00
23.7255 1316.00
23.7907 1474.00
23.8559 1444.00
23.9211 1343.00
23.9863 1297.00
24.0515 1352.00
24.1167 1413.00
24.1819 1848.00
24.2471 1985.00
24.3123 1556.00
24.3775 1245.00
24.4427 1112.00
24.5079 1076.00
24.5731 1048.00
24.6383 1032.00
24.7035 1031.00
24.7687 995.00
24.8339 979.00
24.8991 984.00
24.9643 996.00
25.0295 1032.00
25.0947 1026.00
25.1599 1019.00
25.2251 945.00
25.2903 991.00
25.3555 1025.00
25.4207 982.00
25.4859 1022.00
25.5511 1077.00
25.6163 1132.00
25.6815 1198.00
25.7467 1524.00
25.8119 1659.00
25.8771 1435.00
25.9423 1151.00
26.0075 1036.00
26.0727 963.00
26.1379 1024.00
26.2031 1020.00
26.2683 1057.00
26.3335 1185.00
26.3987 1031.00
26.4639 1031.00
26.5291 1040.00
26.5943 972.00
26.6595 1003.00
26.7247 995.00
26.7899 924.00
26.8551 957.00
26.9203 1000.00
26.9855 1006.00
27.0507 983.00
27.1159 1069.00
27.1811 1160.00
27.2463 1142.00
27.3115 1352.00
27.3767 1655.00
27.4419 2309.00
27.5071 2936.00
27.5723 2903.00
27.6375 2106.00
27.7027 1605.00
27.7679 1305.00
27.8331 1213.00
27.8983 1253.00
27.9635 1459.00
28.0287 1770.00
28.0939 2279.00
28.1591 2259.00
28.2243 2231.00
28.2894 2483.00
28.3546 2797.00
28.4198 2679.00
28.485 2202.00
28.5502 1779.00
28.6154 1552.00
28.6806 1600.00
28.7458 1573.00
28.811 1787.00
28.8762 2236.00
28.9414 2538.00
29.0066 2180.00
29.0718 1606.00
29.137 1171.00
29.2022 1109.00
29.2674 1024.00
29.3326 975.00
29.3978 1050.00
29.463 1249.00
29.5282 1345.00
29.5934 1461.00
29.6586 1198.00
29.7238 1049.00
29.789 1078.00
29.8542 1126.00
29.9194 1170.00
29.9846 1251.00
30.0498 1224.00
30.115 1058.00
30.1802 1018.00
30.2454 1025.00
30.3106 980.00
30.3758 1043.00
30.441 1138.00
30.5062 1425.00
30.5714 1527.00
30.6366 1437.00
30.7018 1149.00
30.767 1069.00
30.8322 1181.00
30.8974 1457.00
30.9626 1613.00
31.0278 1539.00
31.093 1345.00
31.1582 1229.00
31.2234 988.00
31.2886 1060.00
31.3538 1076.00
31.419 1138.00
31.4842 1120.00
31.5494 1059.00
31.6146 1070.00
31.6798 1137.00
31.745 1063.00
31.8102 1104.00
31.8754 1231.00
31.9406 1270.00
32.0058 1323.00
32.071 1278.00
32.1362 1276.00
32.2014 1266.00
32.2666 1609.00
32.3318 2076.00
32.397 2623.00
32.4622 2544.00
32.5274 1990.00
32.5926 1496.00
32.6578 1197.00
32.723 990.00
32.7882 946.00
32.8534 934.00
32.9186 865.00
32.9838 889.00
33.0489 851.00
33.1141 904.00
33.1793 943.00
33.2445 1182.00
33.3097 1441.00
33.3749 1262.00
33.4401 986.00
33.5053 876.00
33.5705 916.00
33.6357 924.00
33.7009 1046.00
33.7661 1078.00
33.8313 1225.00
33.8965 1295.00
33.9617 1693.00
34.0269 1884.00
34.0921 1727.00
34.1573 1301.00
34.2225 1039.00
34.2877 1087.00
34.3529 1009.00
34.4181 1086.00
34.4833 1267.00
34.5485 1298.00
34.6137 1155.00
34.6789 1081.00
34.7441 1032.00
34.8093 996.00
34.8745 909.00
34.9397 903.00
35.0049 1024.00
35.0701 1525.00
35.1353 1756.00
35.2005 1491.00
35.2657 1082.00
35.3309 1005.00
35.3961 949.00
35.4613 847.00
35.5265 793.00
35.5917 776.00
35.6569 880.00
35.7221 935.00
35.7873 941.00
35.8525 935.00
35.9177 763.00
35.9829 730.00
36.0481 725.00
36.1133 707.00
36.1785 701.00
36.2437 670.00
36.3089 743.00
36.3741 773.00
36.4393 962.00
36.5045 1014.00
36.5697 1040.00
36.6349 901.00
36.7001 876.00
36.7653 827.00
36.8305 853.00
36.8957 882.00
36.9609 821.00
37.0261 792.00
37.0913 731.00
37.1565 746.00
37.2217 741.00
37.2869 748.00
37.3521 681.00
37.4173 621.00
37.4825 641.00
37.5477 595.00
37.6129 668.00
37.6781 662.00
37.7433 692.00
37.8085 751.00
37.8736 687.00
37.9388 796.00
38.004 961.00
38.0692 793.00
38.1344 775.00
38.1996 701.00
38.2648 713.00
38.33 686.00
38.3952 645.00
38.4604 702.00
38.5256 693.00
38.5908 685.00
38.656 720.00
38.7212 778.00
38.7864 882.00
38.8516 920.00
38.9168 844.00
38.982 687.00
39.0472 619.00
39.1124 555.00
39.1776 610.00
39.2428 579.00
39.308 620.00
39.3732 649.00
39.4384 664.00
39.5036 620.00
39.5688 689.00
39.634 582.00
39.6992 665.00
39.7644 616.00
39.8296 619.00
39.8948 616.00
39.96 755.00
40.0252 803.00
40.0904 757.00
40.1556 699.00
40.2208 622.00
40.286 618.00
40.3512 636.00
40.4164 629.00
40.4816 575.00
40.5468 563.00
40.612 531.00
40.6772 557.00
40.7424 559.00
40.8076 561.00
40.8728 588.00
40.938 558.00
41.0032 553.00
41.0684 551.00
41.1336 589.00
41.1988 587.00
41.264 630.00
41.3292 741.00
41.3944 805.00
41.4596 741.00
41.5248 702.00
41.59 686.00
41.6552 749.00
41.7204 802.00
41.7856 751.00
41.8508 742.00
41.916 637.00
41.9812 607.00
42.0464 570.00
42.1116 650.00
42.1768 626.00
42.242 681.00
42.3072 643.00
42.3724 595.00
42.4376 633.00
42.5028 617.00
42.568 683.00
42.6332 648.00
42.6983 627.00
42.7635 670.00
42.8287 552.00
42.8939 544.00
42.9591 545.00
43.0243 637.00
43.0895 707.00
43.1547 767.00
43.2199 726.00
43.2851 660.00
43.3503 609.00
43.4155 626.00
43.4807 662.00
43.5459 688.00
43.6111 588.00
43.6763 589.00
43.7415 498.00
43.8067 523.00
43.8719 562.00
43.9371 535.00
44.0023 607.00
44.0675 587.00
44.1327 576.00
44.1979 533.00
44.2631 515.00
44.3283 526.00
44.3935 484.00
44.4587 608.00
44.5239 582.00
44.5891 553.00
44.6543 552.00
44.7195 485.00
44.7847 467.00
44.8499 491.00
44.9151 494.00
44.9803 554.00
45.0455 483.00
45.1107 510.00
45.1759 531.00
45.2411 504.00
45.3063 536.00
45.3715 544.00
45.4367 588.00
45.5019 619.00
45.5671 764.00
45.6323 845.00
45.6975 907.00
45.7627 856.00
45.8279 788.00
45.8931 671.00
45.9583 520.00
46.0235 509.00
46.0887 531.00
46.1539 520.00
46.2191 561.00
46.2843 542.00
46.3495 489.00
46.4147 443.00
46.4799 504.00
46.5451 513.00
46.6103 489.00
46.6755 523.00
46.7407 475.00
46.8059 525.00
46.8711 484.00
46.9363 524.00
47.0015 529.00
47.0667 534.00
47.1319 576.00
47.1971 703.00
47.2623 658.00
47.3275 593.00
47.3927 584.00
47.4579 554.00
47.523 534.00
47.5882 526.00
47.6534 579.00
47.7186 503.00
47.7838 472.00
47.849 521.00
47.9142 518.00
47.9794 502.00
48.0446 471.00
48.1098 530.00
48.175 518.00
48.2402 469.00
48.3054 494.00
48.3706 506.00
48.4358 489.00
48.501 535.00
48.5662 595.00
48.6314 633.00
48.6966 681.00
48.7618 775.00
48.827 778.00
48.8922 709.00
48.9574 642.00
49.0226 623.00
49.0878 588.00
49.153 541.00
49.2182 587.00
49.2834 529.00
49.3486 506.00
49.4138 498.00
49.479 489.00
49.5442 505.00
49.6094 517.00
49.6746 553.00
49.7398 533.00
49.805 509.00
49.8702 530.00
49.9354 453.00
50.0006 492.00
50.0658 481.00
50.131 565.00
50.1962 515.00
50.2614 570.00
50.3266 630.00
50.3918 616.00
50.457 572.00
50.5222 558.00
50.5874 678.00
50.6526 709.00
50.7178 757.00
50.783 743.00
50.8482 692.00
50.9134 608.00
50.9786 559.00
51.0438 516.00
51.109 488.00
51.1742 465.00
51.2394 540.00
51.3046 482.00
51.3698 503.00
51.435 514.00
51.5002 466.00
51.5654 464.00
51.6306 637.00
51.6958 606.00
51.761 639.00
51.8262 700.00
51.8914 648.00
51.9566 685.00
52.0218 665.00
52.087 612.00
52.1522 660.00
52.2174 567.00
52.2826 589.00
52.3477 524.00
52.4129 495.00
52.4781 480.00
52.5433 488.00
52.6085 466.00
52.6737 418.00
52.7389 498.00
52.8041 477.00
52.8693 492.00
52.9345 526.00
52.9997 484.00
53.0649 439.00
53.1301 502.00
53.1953 515.00
53.2605 514.00
53.3257 552.00
53.3909 623.00
53.4561 617.00
53.5213 576.00
53.5865 650.00
53.6517 702.00
53.7169 631.00
53.7821 579.00
53.8473 499.00
53.9125 502.00
53.9777 508.00
54.0429 590.00
54.1081 653.00
54.1733 700.00
54.2385 748.00
54.3037 630.00
54.3689 611.00
54.4341 546.00
54.4993 537.00
54.5645 655.00
54.6297 735.00
54.6949 866.00
54.7601 834.00
54.8253 719.00
54.8905 641.00
54.9557 549.00
55.0209 553.00
55.0861 485.00
55.1513 482.00
55.2165 505.00
55.2817 454.00
55.3469 415.00
55.4121 414.00
55.4773 444.00
55.5425 391.00
55.6077 449.00
55.6729 480.00
55.7381 463.00
55.8033 504.00
55.8685 552.00
55.9337 517.00
55.9989 524.00
56.0641 476.00
56.1293 457.00
56.1945 486.00
56.2597 505.00
56.3249 478.00
56.3901 556.00
56.4553 566.00
56.5205 567.00
56.5857 561.00
56.6509 543.00
56.7161 576.00
56.7813 555.00
56.8465 578.00
56.9117 734.00
56.9769 721.00
57.042 682.00
57.1073 701.00
57.1724 602.00
57.2376 590.00
57.3028 523.00
57.368 482.00
57.4332 440.00
57.4984 400.00
57.5636 422.00
57.6288 419.00
57.694 440.00
57.7592 439.00
57.8244 412.00
57.8896 421.00
57.9548 432.00
58.02 417.00
58.0852 405.00
58.1504 458.00
58.2156 494.00
58.2808 585.00
58.346 534.00
58.4112 547.00
58.4764 516.00
58.5416 616.00
58.6068 577.00
58.672 590.00
58.7372 571.00
58.8024 530.00
58.8676 521.00
58.9328 478.00
58.998 417.00
59.0632 496.00
59.1284 538.00
59.1936 555.00
59.2588 495.00
59.324 443.00
59.3892 443.00
59.4544 456.00
59.5196 485.00
59.5848 453.00
59.65 440.00
59.7152 479.00
59.7804 533.00
59.8456 628.00
59.9108 635.00
59.976 612.00
60.0412 549.00
60.1064 455.00
60.1716 459.00
60.2368 427.00
60.302 422.00
60.3672 407.00
60.4324 498.00
60.4976 504.00
60.5628 493.00
60.628 484.00
60.6932 523.00
60.7584 516.00
60.8236 498.00
60.8888 542.00
60.954 508.00
61.0192 450.00
61.0844 448.00
61.1496 421.00
61.2148 408.00
61.28 436.00
61.3452 398.00
61.4104 423.00
61.4756 510.00
61.5408 470.00
61.606 425.00
61.6712 433.00
61.7364 406.00
61.8016 446.00
61.8667 428.00
61.932 455.00
61.9971 457.00
62.0623 526.00
62.1275 495.00
62.1927 437.00
62.2579 491.00
62.3231 452.00
62.3883 492.00
62.4535 438.00
62.5187 421.00
62.5839 417.00
62.6491 392.00
62.7143 394.00
62.7795 406.00
62.8447 421.00
62.9099 403.00
62.9751 461.00
63.0403 512.00
63.1055 415.00
63.1707 502.00
63.2359 465.00
63.3011 439.00
63.3663 420.00
63.4315 418.00
63.4967 430.00
63.5619 414.00
63.6271 336.00
63.6923 363.00
63.7575 346.00
63.8227 409.00
63.8879 403.00
63.9531 418.00
64.0183 405.00
64.0835 422.00
64.1487 460.00
64.2139 468.00
64.2791 450.00
64.3443 462.00
64.4095 491.00
64.4747 483.00
64.5399 475.00
64.6051 486.00
64.6703 422.00
64.7355 454.00
64.8007 432.00
64.8659 446.00
64.9311 408.00
64.9963 435.00
65.0615 389.00
65.1267 417.00
65.1919 393.00
65.2571 386.00
65.3223 388.00
65.3875 362.00
65.4527 380.00
65.5179 373.00
65.5831 396.00
65.6483 424.00
65.7135 425.00
65.7787 410.00
65.8439 398.00
65.9091 373.00
65.9743 383.00
66.0395 417.00
66.1047 416.00
66.1699 422.00
66.2351 411.00
66.3003 389.00
66.3655 401.00
66.4307 416.00
66.4959 352.00
66.561 341.00
66.6263 355.00
66.6915 411.00
66.7566 383.00
66.8218 361.00
66.887 374.00
66.9522 407.00
67.0174 386.00
67.0826 419.00
67.1478 417.00
67.213 395.00
67.2782 414.00
67.3434 407.00
67.4086 393.00
67.4738 350.00
67.539 325.00
67.6042 314.00
67.6694 347.00
67.7346 293.00
67.7998 337.00
67.865 314.00
67.9302 349.00
67.9954 335.00
68.0606 334.00
68.1258 370.00
68.191 356.00
68.2562 409.00
68.3214 386.00
68.3866 382.00
68.4518 402.00
68.517 422.00
68.5822 366.00
68.6474 398.00
68.7126 377.00
68.7778 391.00
68.843 375.00
68.9082 351.00
68.9734 396.00
69.0386 356.00
69.1038 366.00
69.169 347.00
69.2342 346.00
69.2994 332.00
69.3646 378.00
69.4298 331.00
69.495 355.00
69.5602 334.00
69.6254 332.00
69.6906 360.00
69.7558 358.00
69.821 323.00
69.8862 310.00
69.9514 344.00
70.0166 364.00
70.0818 344.00
70.147 316.00
70.2122 344.00
70.2774 315.00
70.3426 309.00
70.4078 331.00
70.473 371.00
70.5382 359.00
70.6034 370.00
70.6686 429.00
70.7338 402.00
70.799 378.00
70.8642 345.00
70.9294 371.00
70.9946 371.00
71.0598 343.00
71.125 380.00
71.1902 322.00
71.2554 343.00
71.3205 300.00
71.3858 346.00
71.451 363.00
71.5162 331.00
71.5813 311.00
71.6465 287.00
71.7117 320.00
71.7769 330.00
71.8421 309.00
71.9073 334.00
71.9725 317.00
72.0377 348.00
72.1029 333.00
72.1681 319.00
72.2333 347.00
72.2985 280.00
72.3637 313.00
72.4289 302.00
72.4941 346.00
72.5593 299.00
72.6245 375.00
72.6897 348.00
72.7549 360.00
72.8201 330.00
72.8853 349.00
72.9505 355.00
73.0157 344.00
73.0809 364.00
73.1461 372.00
73.2113 311.00
73.2765 339.00
73.3417 313.00
73.4069 363.00
73.4721 337.00
73.5373 326.00
73.6025 333.00
73.6677 328.00
73.7329 352.00
73.7981 278.00
73.8633 348.00
73.9285 383.00
73.9937 363.00
74.0589 378.00
74.1241 350.00
74.1893 334.00
74.2545 372.00
74.3197 328.00
74.3849 371.00
74.4501 354.00
74.5153 365.00
74.5805 314.00
74.6457 322.00
74.7109 332.00
74.7761 312.00
74.8413 311.00
74.9065 334.00
74.9717 350.00
75.0369 332.00
75.1021 352.00
75.1673 387.00
75.2325 324.00
75.2977 342.00
75.3629 386.00
75.4281 303.00
75.4933 314.00
75.5585 349.00
75.6237 357.00
75.6889 341.00
75.7541 355.00
75.8193 333.00
75.8845 338.00
75.9497 336.00
76.0149 329.00
76.0801 339.00
76.1452 350.00
76.2104 352.00
76.2756 359.00
76.3409 359.00
76.406 362.00
76.4712 345.00
76.5364 344.00
76.6016 348.00
76.6668 331.00
76.732 364.00
76.7972 325.00
76.8624 297.00
76.9276 313.00
76.9928 340.00
77.058 340.00
77.1232 318.00
77.1884 330.00
77.2536 317.00
77.3188 331.00
77.384 373.00
77.4492 362.00
77.5144 345.00
77.5796 351.00
77.6448 403.00
77.71 379.00
77.7752 402.00
77.8404 387.00
77.9056 343.00
77.9708 360.00
78.036 397.00
78.1012 335.00
78.1664 388.00
78.2316 396.00
78.2968 410.00
78.362 406.00
78.4272 405.00
78.4924 406.00
78.5576 370.00
78.6228 415.00
78.688 411.00
78.7532 375.00
78.8184 353.00
78.8836 347.00
78.9488 316.00
79.014 332.00
79.0792 329.00
79.1444 321.00
79.2096 317.00
79.2748 320.00
79.34 293.00
79.4052 320.00
79.4704 338.00
79.5356 337.00
79.6008 292.00
79.666 324.00
79.7312 365.00
79.7964 357.00
79.8616 359.00
79.9268 386.00
79.992 363.00
80.0572 378.00
80.1224 343.00
80.1876 342.00
80.2528 365.00
80.318 352.00
80.3832 368.00
80.4484 350.00
80.5136 368.00
80.5788 388.00
80.644 411.00
80.7092 430.00
80.7744 431.00
80.8396 409.00
80.9048 435.00
80.9699 412.00
81.0351 401.00
81.1003 363.00
81.1655 376.00
81.2307 351.00
81.2959 356.00
81.3611 335.00
81.4263 372.00
81.4915 341.00
81.5567 359.00
81.6219 366.00
81.6871 342.00
81.7523 325.00
81.8175 323.00
81.8827 322.00
81.9479 348.00
82.0131 363.00
82.0783 320.00
82.1435 392.00
82.2087 377.00
82.2739 374.00
82.3391 390.00
82.4043 378.00
82.4695 366.00
82.5347 364.00
82.5999 361.00
82.6651 358.00
82.7303 326.00
82.7955 326.00
82.8607 300.00
82.9259 344.00
82.9911 308.00
83.0563 336.00
83.1215 321.00
83.1867 300.00
83.2519 335.00
83.3171 321.00
83.3823 323.00
83.4475 302.00
83.5127 345.00
83.5779 342.00
83.6431 340.00
83.7083 340.00
83.7735 358.00
83.8387 340.00
83.9039 330.00
83.9691 334.00
84.0343 333.00
84.0995 290.00
84.1647 331.00
84.2299 301.00
84.2951 292.00
84.3603 281.00
84.4255 316.00
84.4907 282.00
84.5559 274.00
84.6211 314.00
84.6863 371.00
84.7515 369.00
84.8167 389.00
84.8819 383.00
84.9471 390.00
85.0123 402.00
85.0775 360.00
85.1427 400.00
85.2079 378.00
85.2731 385.00
85.3383 351.00
85.4035 310.00
85.4687 348.00
85.5339 299.00
85.5991 350.00
85.6643 308.00
85.7295 308.00
85.7946 293.00
85.8598 331.00
85.925 307.00
85.9903 328.00
86.0554 330.00
86.1206 330.00
86.1858 334.00
86.251 315.00
86.3162 340.00
86.3814 341.00
86.4466 358.00
86.5118 364.00
86.577 347.00
86.6422 341.00
86.7074 343.00
86.7726 308.00
86.8378 289.00
86.903 313.00
86.9682 290.00
87.0334 279.00
87.0986 311.00
87.1638 319.00
87.229 324.00
87.2942 308.00
87.3594 316.00
87.4246 323.00
87.4898 314.00
87.555 272.00
87.6202 305.00
87.6854 280.00
87.7506 331.00
87.8158 323.00
87.881 314.00
87.9462 343.00
88.0114 293.00
88.0766 280.00
88.1418 331.00
88.207 283.00
88.2722 307.00
88.3374 291.00
88.4026 327.00
88.4678 286.00
88.533 269.00
88.5982 337.00
88.6634 285.00
88.7286 319.00
88.7938 275.00
88.859 280.00
88.9242 331.00
88.9894 298.00
89.0546 300.00
89.1198 308.00
89.185 279.00
89.2502 256.00
89.3154 336.00
89.3806 296.00
89.4458 300.00
89.511 287.00
89.5762 301.00
89.6414 312.00
89.7066 288.00
89.7718 294.00
89.837 277.00
89.9022 293.00
89.9674 284.00
90.0326 309.00
90.0978 273.00
90.163 284.00
90.2282 308.00
90.2934 270.00
90.3586 284.00
90.4238 275.00
90.489 302.00
90.5542 281.00
90.6193 285.00
90.6845 304.00
90.7497 306.00
90.8149 256.00
90.8801 277.00
90.9453 264.00
91.0105 289.00
91.0757 269.00
91.1409 327.00
91.2061 280.00
91.2713 285.00
91.3365 308.00
91.4017 301.00
91.4669 300.00
91.5321 300.00
91.5973 299.00
91.6625 304.00
91.7277 305.00
91.7929 280.00
91.8581 306.00
91.9233 300.00
91.9885 283.00
92.0537 291.00
92.1189 262.00
92.1841 307.00
92.2493 282.00
92.3145 286.00
92.3797 285.00
92.4449 294.00
92.5101 294.00
92.5753 316.00
92.6405 284.00
92.7057 302.00
92.7709 294.00
92.8361 311.00
92.9013 303.00
92.9665 291.00
93.0317 298.00
93.0969 301.00
93.1621 270.00
93.2273 283.00
93.2925 288.00
93.3577 293.00
93.4229 293.00
93.4881 336.00
93.5533 293.00
93.6185 298.00
93.6837 321.00
93.7489 319.00
93.8141 279.00
93.8793 303.00
93.9445 266.00
94.0097 285.00
94.0749 308.00
94.1401 305.00
94.2053 327.00
94.2705 320.00
94.3357 280.00
94.4009 292.00
94.4661 302.00
94.5313 278.00
94.5965 323.00
94.6617 293.00
94.7269 277.00
94.7921 300.00
94.8573 278.00
94.9225 266.00
94.9877 304.00
95.0529 306.00
95.1181 270.00
95.1833 285.00
95.2485 262.00
95.3137 283.00
95.3789 281.00
95.444 259.00
95.5092 297.00
95.5744 290.00
95.6396 285.00
95.7048 256.00
95.77 267.00
95.8352 222.00
95.9004 282.00
95.9656 284.00
96.0308 268.00
96.096 244.00
96.1612 291.00
96.2264 271.00
96.2916 297.00
96.3568 264.00
96.422 261.00
96.4872 291.00
96.5524 279.00
96.6176 278.00
96.6828 263.00
96.748 328.00
96.8132 298.00
96.8784 248.00
96.9436 272.00
97.0088 264.00
97.074 275.00
97.1392 280.00
97.2044 275.00
97.2696 286.00
97.3348 283.00
97.4 294.00
97.4652 301.00
97.5304 239.00
97.5956 284.00
97.6608 267.00
97.726 277.00
97.7912 299.00
97.8564 282.00
97.9216 265.00
97.9868 243.00
98.052 269.00
98.1172 258.00
98.1824 265.00
98.2476 282.00
98.3128 304.00
98.378 244.00
98.4432 301.00
98.5084 288.00
98.5736 286.00
98.6388 270.00
98.704 310.00
98.7692 312.00
98.8344 349.00
98.8996 316.00
98.9648 266.00
99.03 289.00
99.0952 289.00
99.1604 275.00
99.2256 300.00
99.2908 303.00
99.356 284.00
99.4212 312.00
99.4864 276.00
99.5516 271.00
99.6168 303.00
99.682 246.00
99.7472 313.00
99.8124 279.00
99.8776 306.00
99.9428 298.00
100.008 270.00
100.073 261.00
100.095 238.00