File: data/xrd_creation/results/Na_277.xy
9.903433 2663.00
9.968632 2687.00
10.0338 2589.00
10.099 2585.00
10.1642 2615.00
10.2294 2715.00
10.2946 2587.00
10.3598 2574.00
10.425 2461.00
10.4902 2420.00
10.5554 2382.00
10.6206 2298.00
10.6858 2353.00
10.751 2258.00
10.8162 2271.00
10.8814 2347.00
10.9466 2263.00
11.0118 2264.00
11.077 2212.00
11.1422 2197.00
11.2074 2223.00
11.2726 2184.00
11.3378 2227.00
11.403 2160.00
11.4682 2184.00
11.5334 2162.00
11.5986 2222.00
11.6638 2236.00
11.729 2462.00
11.7942 2610.00
11.8594 2447.00
11.9246 2345.00
11.9898 2119.00
12.055 1998.00
12.1202 1981.00
12.1854 1929.00
12.2506 1933.00
12.3158 1915.00
12.381 1874.00
12.4462 1872.00
12.5114 1876.00
12.5766 1797.00
12.6418 1873.00
12.707 1792.00
12.7722 1797.00
12.8374 1747.00
12.9026 1701.00
12.9678 1690.00
13.033 1783.00
13.0982 1668.00
13.1634 1627.00
13.2286 1690.00
13.2938 1628.00
13.359 1640.00
13.4242 1715.00
13.4894 1677.00
13.5546 1665.00
13.6198 1587.00
13.685 1654.00
13.7502 1639.00
13.8154 1656.00
13.8805 1618.00
13.9457 1554.00
14.0109 1556.00
14.0761 1531.00
14.1413 1581.00
14.2065 1491.00
14.2717 1534.00
14.3369 1489.00
14.4021 1462.00
14.4673 1450.00
14.5325 1457.00
14.5977 1455.00
14.6629 1419.00
14.7281 1492.00
14.7933 1383.00
14.8585 1475.00
14.9237 1412.00
14.9889 1402.00
15.0541 1390.00
15.1193 1381.00
15.1845 1420.00
15.2497 1357.00
15.3149 1349.00
15.3801 1331.00
15.4453 1464.00
15.5105 1433.00
15.5757 1382.00
15.6409 1338.00
15.7061 1321.00
15.7713 1318.00
15.8365 1370.00
15.9017 1280.00
15.9669 1348.00
16.0321 1294.00
16.0973 1353.00
16.1625 1316.00
16.2277 1324.00
16.2929 1266.00
16.3581 1250.00
16.4233 1244.00
16.4885 1266.00
16.5537 1278.00
16.6189 1204.00
16.6841 1248.00
16.7493 1254.00
16.8145 1262.00
16.8797 1231.00
16.9449 1201.00
17.0101 1221.00
17.0753 1280.00
17.1405 1269.00
17.2057 1261.00
17.2709 1271.00
17.3361 1182.00
17.4013 1179.00
17.4665 1254.00
17.5317 1191.00
17.5969 1173.00
17.6621 1201.00
17.7273 1160.00
17.7925 1181.00
17.8577 1140.00
17.9229 1194.00
17.9881 1182.00
18.0533 1131.00
18.1185 1099.00
18.1837 1137.00
18.2489 1149.00
18.3141 1133.00
18.3793 1166.00
18.4445 1125.00
18.5097 1089.00
18.5749 1070.00
18.6401 1113.00
18.7052 1039.00
18.7704 1025.00
18.8356 1119.00
18.9008 1132.00
18.966 992.00
19.0312 1157.00
19.0964 1116.00
19.1616 1077.00
19.2268 1176.00
19.292 1182.00
19.3572 1208.00
19.4224 1134.00
19.4876 1171.00
19.5528 1225.00
19.618 1277.00
19.6832 1275.00
19.7484 1191.00
19.8136 1101.00
19.8788 1102.00
19.944 1009.00
20.0092 1051.00
20.0744 1030.00
20.1396 1035.00
20.2048 1060.00
20.27 985.00
20.3352 1063.00
20.4004 1008.00
20.4656 1150.00
20.5308 1214.00
20.596 1247.00
20.6612 1153.00
20.7264 1083.00
20.7916 1031.00
20.8568 1002.00
20.922 934.00
20.9872 966.00
21.0524 1010.00
21.1176 963.00
21.1828 935.00
21.248 975.00
21.3132 926.00
21.3784 935.00
21.4436 935.00
21.5088 920.00
21.574 956.00
21.6392 947.00
21.7044 957.00
21.7696 944.00
21.8348 990.00
21.9 913.00
21.9652 917.00
22.0304 929.00
22.0956 935.00
22.1608 884.00
22.226 899.00
22.2912 906.00
22.3564 920.00
22.4216 977.00
22.4868 897.00
22.552 967.00
22.6172 954.00
22.6824 1041.00
22.7476 1118.00
22.8128 1158.00
22.878 1233.00
22.9432 1197.00
23.0084 1055.00
23.0736 1042.00
23.1388 992.00
23.204 925.00
23.2692 906.00
23.3344 897.00
23.3996 889.00
23.4647 858.00
23.5299 880.00
23.5951 887.00
23.6603 930.00
23.7255 1001.00
23.7907 1117.00
23.8559 1137.00
23.9211 1139.00
23.9863 1074.00
24.0515 993.00
24.1167 922.00
24.1819 896.00
24.2471 823.00
24.3123 920.00
24.3775 918.00
24.4427 981.00
24.5079 902.00
24.5731 807.00
24.6383 816.00
24.7035 800.00
24.7687 844.00
24.8339 776.00
24.8991 743.00
24.9643 768.00
25.0295 806.00
25.0947 779.00
25.1599 824.00
25.2251 795.00
25.2903 808.00
25.3555 765.00
25.4207 768.00
25.4859 795.00
25.5511 813.00
25.6163 736.00
25.6815 710.00
25.7467 806.00
25.8119 750.00
25.8771 732.00
25.9423 756.00
26.0075 762.00
26.0727 731.00
26.1379 765.00
26.2031 796.00
26.2683 764.00
26.3335 826.00
26.3987 835.00
26.4639 843.00
26.5291 819.00
26.5943 773.00
26.6595 746.00
26.7247 696.00
26.7899 727.00
26.8551 747.00
26.9203 728.00
26.9855 714.00
27.0507 753.00
27.1159 756.00
27.1811 752.00
27.2463 751.00
27.3115 749.00
27.3767 781.00
27.4419 771.00
27.5071 818.00
27.5723 789.00
27.6375 762.00
27.7027 774.00
27.7679 805.00
27.8331 784.00
27.8983 856.00
27.9635 968.00
28.0287 1205.00
28.0939 1394.00
28.1591 1553.00
28.2243 1363.00
28.2894 1113.00
28.3546 900.00
28.4198 827.00
28.485 731.00
28.5502 726.00
28.6154 721.00
28.6806 666.00
28.7458 711.00
28.811 705.00
28.8762 698.00
28.9414 692.00
29.0066 715.00
29.0718 712.00
29.137 682.00
29.2022 663.00
29.2674 615.00
29.3326 640.00
29.3978 641.00
29.463 640.00
29.5282 649.00
29.5934 628.00
29.6586 661.00
29.7238 700.00
29.789 644.00
29.8542 698.00
29.9194 697.00
29.9846 768.00
30.0498 714.00
30.115 768.00
30.1802 683.00
30.2454 699.00
30.3106 700.00
30.3758 734.00
30.441 684.00
30.5062 712.00
30.5714 646.00
30.6366 653.00
30.7018 667.00
30.767 672.00
30.8322 684.00
30.8974 694.00
30.9626 710.00
31.0278 705.00
31.093 847.00
31.1582 872.00
31.2234 1033.00
31.2886 1243.00
31.3538 1508.00
31.419 1522.00
31.4842 1293.00
31.5494 1017.00
31.6146 798.00
31.6798 728.00
31.745 628.00
31.8102 638.00
31.8754 633.00
31.9406 632.00
32.0058 615.00
32.071 602.00
32.1362 569.00
32.2014 544.00
32.2666 545.00
32.3318 574.00
32.397 589.00
32.4622 601.00
32.5274 604.00
32.5926 575.00
32.6578 590.00
32.723 579.00
32.7882 592.00
32.8534 575.00
32.9186 552.00
32.9838 597.00
33.0489 597.00
33.1141 610.00
33.1793 598.00
33.2445 580.00
33.3097 549.00
33.3749 582.00
33.4401 606.00
33.5053 647.00
33.5705 692.00
33.6357 712.00
33.7009 881.00
33.7661 1154.00
33.8313 1209.00
33.8965 1300.00
33.9617 1243.00
34.0269 1356.00
34.0921 1219.00
34.1573 1067.00
34.2225 837.00
34.2877 704.00
34.3529 643.00
34.4181 623.00
34.4833 593.00
34.5485 529.00
34.6137 547.00
34.6789 542.00
34.7441 514.00
34.8093 549.00
34.8745 565.00
34.9397 546.00
35.0049 535.00
35.0701 525.00
35.1353 569.00
35.2005 567.00
35.2657 631.00
35.3309 615.00
35.3961 569.00
35.4613 564.00
35.5265 541.00
35.5917 490.00
35.6569 477.00
35.7221 489.00
35.7873 517.00
35.8525 501.00
35.9177 525.00
35.9829 497.00
36.0481 481.00
36.1133 504.00
36.1785 483.00
36.2437 480.00
36.3089 525.00
36.3741 481.00
36.4393 489.00
36.5045 436.00
36.5697 535.00
36.6349 483.00
36.7001 470.00
36.7653 456.00
36.8305 460.00
36.8957 462.00
36.9609 481.00
37.0261 472.00
37.0913 480.00
37.1565 496.00
37.2217 516.00
37.2869 447.00
37.3521 459.00
37.4173 481.00
37.4825 477.00
37.5477 437.00
37.6129 428.00
37.6781 461.00
37.7433 456.00
37.8085 472.00
37.8736 457.00
37.9388 466.00
38.004 445.00
38.0692 421.00
38.1344 437.00
38.1996 407.00
38.2648 424.00
38.33 431.00
38.3952 410.00
38.4604 447.00
38.5256 431.00
38.5908 454.00
38.656 451.00
38.7212 444.00
38.7864 460.00
38.8516 435.00
38.9168 405.00
38.982 447.00
39.0472 462.00
39.1124 439.00
39.1776 404.00
39.2428 365.00
39.308 427.00
39.3732 446.00
39.4384 406.00
39.5036 422.00
39.5688 399.00
39.634 414.00
39.6992 393.00
39.7644 392.00
39.8296 380.00
39.8948 433.00
39.96 444.00
40.0252 468.00
40.0904 350.00
40.1556 416.00
40.2208 445.00
40.286 398.00
40.3512 415.00
40.4164 465.00
40.4816 462.00
40.5468 466.00
40.612 440.00
40.6772 489.00
40.7424 434.00
40.8076 446.00
40.8728 432.00
40.938 463.00
41.0032 401.00
41.0684 423.00
41.1336 435.00
41.1988 475.00
41.264 483.00
41.3292 457.00
41.3944 466.00
41.4596 448.00
41.5248 404.00
41.59 411.00
41.6552 376.00
41.7204 407.00
41.7856 421.00
41.8508 402.00
41.916 404.00
41.9812 416.00
42.0464 411.00
42.1116 407.00
42.1768 372.00
42.242 389.00
42.3072 399.00
42.3724 401.00
42.4376 378.00
42.5028 377.00
42.568 359.00
42.6332 380.00
42.6983 378.00
42.7635 403.00
42.8287 365.00
42.8939 388.00
42.9591 411.00
43.0243 357.00
43.0895 388.00
43.1547 384.00
43.2199 410.00
43.2851 356.00
43.3503 425.00
43.4155 368.00
43.4807 368.00
43.5459 379.00
43.6111 381.00
43.6763 350.00
43.7415 391.00
43.8067 378.00
43.8719 333.00
43.9371 334.00
44.0023 357.00
44.0675 345.00
44.1327 382.00
44.1979 366.00
44.2631 339.00
44.3283 373.00
44.3935 316.00
44.4587 366.00
44.5239 387.00
44.5891 393.00
44.6543 358.00
44.7195 377.00
44.7847 380.00
44.8499 421.00
44.9151 404.00
44.9803 377.00
45.0455 362.00
45.1107 364.00
45.1759 341.00
45.2411 374.00
45.3063 326.00
45.3715 356.00
45.4367 373.00
45.5019 397.00
45.5671 394.00
45.6323 407.00
45.6975 377.00
45.7627 377.00
45.8279 376.00
45.8931 383.00
45.9583 351.00
46.0235 340.00
46.0887 377.00
46.1539 369.00
46.2191 352.00
46.2843 383.00
46.3495 367.00
46.4147 352.00
46.4799 357.00
46.5451 379.00
46.6103 427.00
46.6755 430.00
46.7407 414.00
46.8059 432.00
46.8711 424.00
46.9363 455.00
47.0015 410.00
47.0667 366.00
47.1319 354.00
47.1971 376.00
47.2623 359.00
47.3275 324.00
47.3927 323.00
47.4579 338.00
47.523 371.00
47.5882 322.00
47.6534 345.00
47.7186 346.00
47.7838 310.00
47.849 299.00
47.9142 355.00
47.9794 324.00
48.0446 329.00
48.1098 329.00
48.175 334.00
48.2402 336.00
48.3054 329.00
48.3706 336.00
48.4358 322.00
48.501 355.00
48.5662 344.00
48.6314 381.00
48.6966 379.00
48.7618 369.00
48.827 426.00
48.8922 419.00
48.9574 449.00
49.0226 388.00
49.0878 386.00
49.153 417.00
49.2182 411.00
49.2834 419.00
49.3486 429.00
49.4138 355.00
49.479 332.00
49.5442 359.00
49.6094 324.00
49.6746 378.00
49.7398 333.00
49.805 339.00
49.8702 341.00
49.9354 351.00
50.0006 440.00
50.0658 476.00
50.131 423.00
50.1962 432.00
50.2614 377.00
50.3266 379.00
50.3918 347.00
50.457 375.00
50.5222 379.00
50.5874 394.00
50.6526 372.00
50.7178 387.00
50.783 343.00
50.8482 319.00
50.9134 339.00
50.9786 334.00
51.0438 343.00
51.109 355.00
51.1742 347.00
51.2394 298.00
51.3046 345.00
51.3698 347.00
51.435 313.00
51.5002 365.00
51.5654 360.00
51.6306 396.00
51.6958 374.00
51.761 328.00
51.8262 315.00
51.8914 308.00
51.9566 306.00
52.0218 328.00
52.087 272.00
52.1522 316.00
52.2174 350.00
52.2826 301.00
52.3477 309.00
52.4129 287.00
52.4781 317.00
52.5433 292.00
52.6085 330.00
52.6737 285.00
52.7389 316.00
52.8041 316.00
52.8693 336.00
52.9345 345.00
52.9997 307.00
53.0649 298.00
53.1301 309.00
53.1953 307.00
53.2605 314.00
53.3257 297.00
53.3909 302.00
53.4561 300.00
53.5213 318.00
53.5865 331.00
53.6517 292.00
53.7169 338.00
53.7821 308.00
53.8473 335.00
53.9125 327.00
53.9777 323.00
54.0429 341.00
54.1081 340.00
54.1733 351.00
54.2385 332.00
54.3037 323.00
54.3689 305.00
54.4341 288.00
54.4993 344.00
54.5645 339.00
54.6297 347.00
54.6949 315.00
54.7601 315.00
54.8253 282.00
54.8905 301.00
54.9557 322.00
55.0209 341.00
55.0861 298.00
55.1513 314.00
55.2165 334.00
55.2817 349.00
55.3469 331.00
55.4121 286.00
55.4773 338.00
55.5425 357.00
55.6077 312.00
55.6729 323.00
55.7381 311.00
55.8033 321.00
55.8685 292.00
55.9337 322.00
55.9989 309.00
56.0641 279.00
56.1293 280.00
56.1945 248.00
56.2597 287.00
56.3249 281.00
56.3901 297.00
56.4553 271.00
56.5205 290.00
56.5857 267.00
56.6509 262.00
56.7161 281.00
56.7813 260.00
56.8465 291.00
56.9117 275.00
56.9769 289.00
57.042 284.00
57.1073 291.00
57.1724 293.00
57.2376 285.00
57.3028 313.00
57.368 236.00
57.4332 247.00
57.4984 281.00
57.5636 243.00
57.6288 298.00
57.694 293.00
57.7592 283.00
57.8244 280.00
57.8896 273.00
57.9548 305.00
58.02 262.00
58.0852 289.00
58.1504 266.00
58.2156 268.00
58.2808 265.00
58.346 276.00
58.4112 279.00
58.4764 242.00
58.5416 250.00
58.6068 248.00
58.672 296.00
58.7372 264.00
58.8024 275.00
58.8676 297.00
58.9328 295.00
58.998 301.00
59.0632 308.00
59.1284 326.00
59.1936 290.00
59.2588 284.00
59.324 273.00
59.3892 285.00
59.4544 243.00
59.5196 276.00
59.5848 275.00
59.65 274.00
59.7152 304.00
59.7804 322.00
59.8456 292.00
59.9108 301.00
59.976 268.00
60.0412 294.00
60.1064 291.00
60.1716 276.00
60.2368 239.00
60.302 301.00
60.3672 274.00
60.4324 271.00
60.4976 266.00
60.5628 271.00
60.628 259.00
60.6932 301.00
60.7584 300.00
60.8236 288.00
60.8888 280.00
60.954 316.00
61.0192 284.00
61.0844 272.00
61.1496 246.00
61.2148 275.00
61.28 279.00
61.3452 283.00
61.4104 289.00
61.4756 258.00
61.5408 264.00
61.606 257.00
61.6712 277.00
61.7364 256.00
61.8016 230.00
61.8667 327.00
61.932 278.00
61.9971 283.00
62.0623 269.00
62.1275 291.00
62.1927 239.00
62.2579 236.00
62.3231 233.00
62.3883 309.00
62.4535 226.00
62.5187 248.00
62.5839 261.00
62.6491 285.00
62.7143 278.00
62.7795 259.00
62.8447 287.00
62.9099 297.00
62.9751 259.00
63.0403 278.00
63.1055 259.00
63.1707 235.00
63.2359 240.00
63.3011 211.00
63.3663 239.00
63.4315 225.00
63.4967 229.00
63.5619 228.00
63.6271 209.00
63.6923 267.00
63.7575 240.00
63.8227 244.00
63.8879 223.00
63.9531 240.00
64.0183 230.00
64.0835 219.00
64.1487 224.00
64.2139 230.00
64.2791 275.00
64.3443 240.00
64.4095 249.00
64.4747 239.00
64.5399 238.00
64.6051 267.00
64.6703 245.00
64.7355 244.00
64.8007 238.00
64.8659 236.00
64.9311 235.00
64.9963 258.00
65.0615 270.00
65.1267 246.00
65.1919 236.00
65.2571 228.00
65.3223 225.00
65.3875 234.00
65.4527 287.00
65.5179 261.00
65.5831 215.00
65.6483 278.00
65.7135 259.00
65.7787 279.00
65.8439 261.00
65.9091 269.00
65.9743 282.00
66.0395 236.00
66.1047 275.00
66.1699 233.00
66.2351 228.00
66.3003 270.00
66.3655 234.00
66.4307 245.00
66.4959 245.00
66.561 207.00
66.6263 224.00
66.6915 208.00
66.7566 243.00
66.8218 234.00
66.887 234.00
66.9522 243.00
67.0174 248.00
67.0826 241.00
67.1478 227.00
67.213 246.00
67.2782 260.00
67.3434 244.00
67.4086 221.00
67.4738 273.00
67.539 221.00
67.6042 204.00
67.6694 229.00
67.7346 225.00
67.7998 224.00
67.865 239.00
67.9302 242.00
67.9954 233.00
68.0606 219.00
68.1258 226.00
68.191 229.00
68.2562 205.00
68.3214 226.00
68.3866 247.00
68.4518 221.00
68.517 198.00
68.5822 243.00
68.6474 237.00
68.7126 238.00
68.7778 232.00
68.843 220.00
68.9082 195.00
68.9734 214.00
69.0386 226.00
69.1038 216.00
69.169 215.00
69.2342 229.00
69.2994 236.00
69.3646 236.00
69.4298 242.00
69.495 239.00
69.5602 236.00
69.6254 246.00
69.6906 218.00
69.7558 224.00
69.821 248.00
69.8862 261.00
69.9514 215.00
70.0166 258.00
70.0818 202.00
70.147 209.00
70.2122 236.00
70.2774 232.00
70.3426 211.00
70.4078 226.00
70.473 222.00
70.5382 269.00
70.6034 226.00
70.6686 218.00
70.7338 224.00
70.799 215.00
70.8642 225.00
70.9294 224.00
70.9946 205.00
71.0598 219.00
71.125 275.00
71.1902 260.00
71.2554 222.00
71.3205 259.00
71.3858 245.00
71.451 228.00
71.5162 257.00
71.5813 264.00
71.6465 282.00
71.7117 242.00
71.7769 268.00
71.8421 217.00
71.9073 243.00
71.9725 231.00
72.0377 205.00
72.1029 226.00
72.1681 225.00
72.2333 276.00
72.2985 249.00
72.3637 221.00
72.4289 238.00
72.4941 239.00
72.5593 228.00
72.6245 265.00
72.6897 222.00
72.7549 263.00
72.8201 212.00
72.8853 236.00
72.9505 218.00
73.0157 188.00
73.0809 246.00
73.1461 245.00
73.2113 235.00
73.2765 217.00
73.3417 207.00
73.4069 222.00
73.4721 215.00
73.5373 231.00
73.6025 227.00
73.6677 211.00
73.7329 205.00
73.7981 226.00
73.8633 222.00
73.9285 258.00
73.9937 243.00
74.0589 219.00
74.1241 277.00
74.1893 216.00
74.2545 212.00
74.3197 247.00
74.3849 207.00
74.4501 219.00
74.5153 246.00
74.5805 228.00
74.6457 228.00
74.7109 238.00
74.7761 213.00
74.8413 209.00
74.9065 262.00
74.9717 240.00
75.0369 242.00
75.1021 245.00
75.1673 244.00
75.2325 231.00
75.2977 232.00
75.3629 256.00
75.4281 244.00
75.4933 238.00
75.5585 250.00
75.6237 219.00
75.6889 245.00
75.7541 217.00
75.8193 246.00
75.8845 209.00
75.9497 236.00
76.0149 218.00
76.0801 248.00
76.1452 216.00
76.2104 234.00
76.2756 250.00
76.3409 246.00
76.406 213.00
76.4712 224.00
76.5364 227.00
76.6016 248.00
76.6668 249.00
76.732 215.00
76.7972 244.00
76.8624 249.00
76.9276 250.00
76.9928 226.00
77.058 232.00
77.1232 238.00
77.1884 225.00
77.2536 234.00
77.3188 227.00
77.384 234.00
77.4492 233.00
77.5144 259.00
77.5796 250.00
77.6448 263.00
77.71 231.00
77.7752 256.00
77.8404 263.00
77.9056 241.00
77.9708 256.00
78.036 240.00
78.1012 238.00
78.1664 235.00
78.2316 259.00
78.2968 241.00
78.362 228.00
78.4272 267.00
78.4924 226.00
78.5576 243.00
78.6228 258.00
78.688 272.00
78.7532 249.00
78.8184 242.00
78.8836 288.00
78.9488 241.00
79.014 298.00
79.0792 261.00
79.1444 239.00
79.2096 286.00
79.2748 266.00
79.34 224.00
79.4052 225.00
79.4704 243.00
79.5356 258.00
79.6008 269.00
79.666 213.00
79.7312 276.00
79.7964 257.00
79.8616 244.00
79.9268 257.00
79.992 227.00
80.0572 257.00
80.1224 269.00
80.1876 272.00
80.2528 263.00
80.318 264.00
80.3832 283.00
80.4484 256.00
80.5136 250.00
80.5788 314.00
80.644 274.00
80.7092 264.00
80.7744 284.00
80.8396 224.00
80.9048 270.00
80.9699 257.00
81.0351 281.00
81.1003 243.00
81.1655 235.00
81.2307 250.00
81.2959 269.00
81.3611 223.00
81.4263 260.00
81.4915 294.00
81.5567 283.00
81.6219 263.00
81.6871 262.00
81.7523 268.00
81.8175 268.00
81.8827 266.00
81.9479 273.00
82.0131 274.00
82.0783 247.00
82.1435 264.00
82.2087 277.00
82.2739 227.00
82.3391 248.00
82.4043 241.00
82.4695 238.00
82.5347 258.00
82.5999 277.00
82.6651 271.00
82.7303 236.00
82.7955 265.00
82.8607 225.00
82.9259 267.00
82.9911 272.00
83.0563 229.00
83.1215 267.00
83.1867 234.00
83.2519 244.00
83.3171 244.00
83.3823 272.00
83.4475 262.00
83.5127 263.00
83.5779 268.00
83.6431 226.00
83.7083 271.00
83.7735 230.00
83.8387 261.00
83.9039 287.00
83.9691 259.00
84.0343 259.00
84.0995 266.00
84.1647 234.00
84.2299 262.00
84.2951 280.00
84.3603 275.00
84.4255 224.00
84.4907 230.00
84.5559 268.00
84.6211 282.00
84.6863 229.00
84.7515 264.00
84.8167 260.00
84.8819 229.00
84.9471 244.00
85.0123 280.00
85.0775 262.00
85.1427 244.00
85.2079 248.00
85.2731 235.00
85.3383 257.00
85.4035 268.00
85.4687 242.00
85.5339 258.00
85.5991 260.00
85.6643 244.00
85.7295 240.00
85.7946 244.00
85.8598 240.00
85.925 232.00
85.9903 256.00
86.0554 239.00
86.1206 221.00
86.1858 262.00
86.251 235.00
86.3162 256.00
86.3814 208.00
86.4466 271.00
86.5118 215.00
86.577 261.00
86.6422 240.00
86.7074 234.00
86.7726 236.00
86.8378 234.00
86.903 208.00
86.9682 242.00
87.0334 242.00
87.0986 237.00
87.1638 216.00
87.229 219.00
87.2942 231.00
87.3594 227.00
87.4246 262.00
87.4898 235.00
87.555 240.00
87.6202 232.00
87.6854 226.00
87.7506 240.00
87.8158 222.00
87.881 228.00
87.9462 259.00
88.0114 195.00
88.0766 274.00
88.1418 265.00
88.207 216.00
88.2722 213.00
88.3374 244.00
88.4026 234.00
88.4678 259.00
88.533 278.00
88.5982 238.00
88.6634 230.00
88.7286 244.00
88.7938 194.00
88.859 244.00
88.9242 224.00
88.9894 239.00
89.0546 209.00
89.1198 224.00
89.185 226.00
89.2502 213.00
89.3154 198.00
89.3806 230.00
89.4458 240.00
89.511 229.00
89.5762 210.00
89.6414 257.00
89.7066 233.00
89.7718 202.00
89.837 241.00
89.9022 227.00
89.9674 235.00
90.0326 240.00
90.0978 229.00
90.163 206.00
90.2282 195.00
90.2934 204.00
90.3586 212.00
90.4238 215.00
90.489 220.00
90.5542 220.00
90.6193 198.00
90.6845 235.00
90.7497 233.00
90.8149 223.00
90.8801 231.00
90.9453 236.00
91.0105 198.00
91.0757 223.00
91.1409 248.00
91.2061 222.00
91.2713 211.00
91.3365 194.00
91.4017 213.00
91.4669 230.00
91.5321 198.00
91.5973 213.00
91.6625 223.00
91.7277 188.00
91.7929 197.00
91.8581 190.00
91.9233 215.00
91.9885 234.00
92.0537 212.00
92.1189 211.00
92.1841 189.00
92.2493 239.00
92.3145 184.00
92.3797 215.00
92.4449 187.00
92.5101 231.00
92.5753 226.00
92.6405 232.00
92.7057 208.00
92.7709 211.00
92.8361 236.00
92.9013 223.00
92.9665 222.00
93.0317 225.00
93.0969 187.00
93.1621 201.00
93.2273 229.00
93.2925 189.00
93.3577 246.00
93.4229 202.00
93.4881 240.00
93.5533 209.00
93.6185 201.00
93.6837 235.00
93.7489 224.00
93.8141 216.00
93.8793 217.00
93.9445 249.00
94.0097 231.00
94.0749 221.00
94.1401 201.00
94.2053 210.00
94.2705 219.00
94.3357 213.00
94.4009 218.00
94.4661 220.00
94.5313 173.00
94.5965 207.00
94.6617 212.00
94.7269 231.00
94.7921 225.00
94.8573 202.00
94.9225 215.00
94.9877 205.00
95.0529 203.00
95.1181 226.00
95.1833 212.00
95.2485 193.00
95.3137 228.00
95.3789 221.00
95.444 208.00
95.5092 216.00
95.5744 226.00
95.6396 230.00
95.7048 208.00
95.77 229.00
95.8352 249.00
95.9004 218.00
95.9656 227.00
96.0308 198.00
96.096 199.00
96.1612 193.00
96.2264 230.00
96.2916 211.00
96.3568 231.00
96.422 182.00
96.4872 224.00
96.5524 215.00
96.6176 223.00
96.6828 188.00
96.748 184.00
96.8132 234.00
96.8784 220.00
96.9436 226.00
97.0088 222.00
97.074 244.00
97.1392 212.00
97.2044 224.00
97.2696 212.00
97.3348 226.00
97.4 215.00
97.4652 185.00
97.5304 208.00
97.5956 194.00
97.6608 221.00
97.726 208.00
97.7912 230.00
97.8564 201.00
97.9216 197.00
97.9868 216.00
98.052 225.00
98.1172 222.00
98.1824 175.00
98.2476 244.00
98.3128 200.00
98.378 215.00
98.4432 233.00
98.5084 241.00
98.5736 190.00
98.6388 206.00
98.704 205.00
98.7692 193.00
98.8344 230.00
98.8996 204.00
98.9648 184.00
99.03 233.00
99.0952 204.00
99.1604 219.00
99.2256 207.00
99.2908 211.00
99.356 215.00
99.4212 214.00
99.4864 194.00
99.5516 241.00
99.6168 194.00
99.682 223.00
99.7472 222.00
99.8124 239.00
99.8776 204.00
99.9428 222.00
100.008 191.00
100.073 223.00
100.095 216.00