File: data/xrd_creation/results/Na_290.xy
9.903433 2508.00
9.968632 2502.00
10.0338 2534.00
10.099 2439.00
10.1642 2412.00
10.2294 2422.00
10.2946 2401.00
10.3598 2294.00
10.425 2361.00
10.4902 2312.00
10.5554 2326.00
10.6206 2271.00
10.6858 2297.00
10.751 2264.00
10.8162 2173.00
10.8814 2204.00
10.9466 2141.00
11.0118 2171.00
11.077 2139.00
11.1422 2134.00
11.2074 2090.00
11.2726 2079.00
11.3378 2158.00
11.403 2057.00
11.4682 1956.00
11.5334 1993.00
11.5986 2049.00
11.6638 2039.00
11.729 1976.00
11.7942 1988.00
11.8594 1927.00
11.9246 1934.00
11.9898 1874.00
12.055 2008.00
12.1202 1845.00
12.1854 1861.00
12.2506 1808.00
12.3158 1713.00
12.381 1805.00
12.4462 1804.00
12.5114 1799.00
12.5766 1807.00
12.6418 1721.00
12.707 1751.00
12.7722 1763.00
12.8374 1708.00
12.9026 1686.00
12.9678 1754.00
13.033 1677.00
13.0982 1597.00
13.1634 1673.00
13.2286 1500.00
13.2938 1620.00
13.359 1624.00
13.4242 1630.00
13.4894 1603.00
13.5546 1598.00
13.6198 1498.00
13.685 1570.00
13.7502 1532.00
13.8154 1507.00
13.8805 1487.00
13.9457 1528.00
14.0109 1480.00
14.0761 1528.00
14.1413 1496.00
14.2065 1485.00
14.2717 1501.00
14.3369 1450.00
14.4021 1527.00
14.4673 1355.00
14.5325 1516.00
14.5977 1445.00
14.6629 1388.00
14.7281 1432.00
14.7933 1411.00
14.8585 1367.00
14.9237 1413.00
14.9889 1409.00
15.0541 1324.00
15.1193 1371.00
15.1845 1364.00
15.2497 1327.00
15.3149 1307.00
15.3801 1320.00
15.4453 1390.00
15.5105 1342.00
15.5757 1316.00
15.6409 1373.00
15.7061 1338.00
15.7713 1297.00
15.8365 1324.00
15.9017 1296.00
15.9669 1194.00
16.0321 1271.00
16.0973 1325.00
16.1625 1301.00
16.2277 1315.00
16.2929 1269.00
16.3581 1224.00
16.4233 1254.00
16.4885 1240.00
16.5537 1280.00
16.6189 1249.00
16.6841 1282.00
16.7493 1245.00
16.8145 1281.00
16.8797 1228.00
16.9449 1285.00
17.0101 1229.00
17.0753 1151.00
17.1405 1176.00
17.2057 1197.00
17.2709 1201.00
17.3361 1160.00
17.4013 1134.00
17.4665 1162.00
17.5317 1182.00
17.5969 1104.00
17.6621 1114.00
17.7273 1102.00
17.7925 1125.00
17.8577 1160.00
17.9229 1140.00
17.9881 1130.00
18.0533 1023.00
18.1185 1111.00
18.1837 1152.00
18.2489 1076.00
18.3141 1121.00
18.3793 1096.00
18.4445 1079.00
18.5097 1103.00
18.5749 1054.00
18.6401 1125.00
18.7052 1085.00
18.7704 1059.00
18.8356 1072.00
18.9008 1035.00
18.966 1026.00
19.0312 1030.00
19.0964 1054.00
19.1616 1016.00
19.2268 995.00
19.292 1026.00
19.3572 1103.00
19.4224 965.00
19.4876 976.00
19.5528 948.00
19.618 995.00
19.6832 1044.00
19.7484 977.00
19.8136 988.00
19.8788 971.00
19.944 938.00
20.0092 907.00
20.0744 999.00
20.1396 975.00
20.2048 1001.00
20.27 989.00
20.3352 1056.00
20.4004 1118.00
20.4656 1131.00
20.5308 1105.00
20.596 1238.00
20.6612 1327.00
20.7264 1227.00
20.7916 1062.00
20.8568 932.00
20.922 1006.00
20.9872 854.00
21.0524 877.00
21.1176 973.00
21.1828 906.00
21.248 891.00
21.3132 931.00
21.3784 913.00
21.4436 875.00
21.5088 883.00
21.574 895.00
21.6392 934.00
21.7044 828.00
21.7696 895.00
21.8348 828.00
21.9 930.00
21.9652 861.00
22.0304 858.00
22.0956 857.00
22.1608 887.00
22.226 899.00
22.2912 902.00
22.3564 871.00
22.4216 820.00
22.4868 849.00
22.552 828.00
22.6172 872.00
22.6824 866.00
22.7476 875.00
22.8128 843.00
22.878 809.00
22.9432 823.00
23.0084 875.00
23.0736 847.00
23.1388 816.00
23.204 844.00
23.2692 860.00
23.3344 799.00
23.3996 885.00
23.4647 844.00
23.5299 873.00
23.5951 850.00
23.6603 830.00
23.7255 850.00
23.7907 905.00
23.8559 938.00
23.9211 967.00
23.9863 905.00
24.0515 809.00
24.1167 819.00
24.1819 753.00
24.2471 801.00
24.3123 758.00
24.3775 700.00
24.4427 793.00
24.5079 718.00
24.5731 730.00
24.6383 750.00
24.7035 704.00
24.7687 760.00
24.8339 758.00
24.8991 754.00
24.9643 730.00
25.0295 752.00
25.0947 807.00
25.1599 769.00
25.2251 808.00
25.2903 752.00
25.3555 746.00
25.4207 767.00
25.4859 780.00
25.5511 688.00
25.6163 719.00
25.6815 756.00
25.7467 726.00
25.8119 704.00
25.8771 736.00
25.9423 714.00
26.0075 716.00
26.0727 735.00
26.1379 683.00
26.2031 673.00
26.2683 702.00
26.3335 717.00
26.3987 737.00
26.4639 691.00
26.5291 652.00
26.5943 671.00
26.6595 650.00
26.7247 725.00
26.7899 745.00
26.8551 681.00
26.9203 694.00
26.9855 678.00
27.0507 649.00
27.1159 672.00
27.1811 692.00
27.2463 717.00
27.3115 617.00
27.3767 716.00
27.4419 745.00
27.5071 718.00
27.5723 679.00
27.6375 821.00
27.7027 968.00
27.7679 1290.00
27.8331 1286.00
27.8983 991.00
27.9635 712.00
28.0287 670.00
28.0939 673.00
28.1591 687.00
28.2243 724.00
28.2894 715.00
28.3546 706.00
28.4198 662.00
28.485 722.00
28.5502 672.00
28.6154 639.00
28.6806 721.00
28.7458 691.00
28.811 718.00
28.8762 776.00
28.9414 939.00
29.0066 1336.00
29.0718 1600.00
29.137 1535.00
29.2022 1153.00
29.2674 930.00
29.3326 745.00
29.3978 671.00
29.463 639.00
29.5282 698.00
29.5934 642.00
29.6586 644.00
29.7238 632.00
29.789 599.00
29.8542 600.00
29.9194 633.00
29.9846 655.00
30.0498 661.00
30.115 610.00
30.1802 648.00
30.2454 632.00
30.3106 664.00
30.3758 611.00
30.441 612.00
30.5062 570.00
30.5714 590.00
30.6366 618.00
30.7018 592.00
30.767 543.00
30.8322 572.00
30.8974 605.00
30.9626 606.00
31.0278 581.00
31.093 589.00
31.1582 546.00
31.2234 567.00
31.2886 537.00
31.3538 585.00
31.419 609.00
31.4842 582.00
31.5494 643.00
31.6146 667.00
31.6798 669.00
31.745 616.00
31.8102 583.00
31.8754 574.00
31.9406 584.00
32.0058 575.00
32.071 618.00
32.1362 535.00
32.2014 564.00
32.2666 561.00
32.3318 606.00
32.397 598.00
32.4622 688.00
32.5274 803.00
32.5926 695.00
32.6578 636.00
32.723 583.00
32.7882 568.00
32.8534 502.00
32.9186 548.00
32.9838 554.00
33.0489 540.00
33.1141 526.00
33.1793 496.00
33.2445 531.00
33.3097 498.00
33.3749 545.00
33.4401 508.00
33.5053 552.00
33.5705 564.00
33.6357 707.00
33.7009 777.00
33.7661 832.00
33.8313 763.00
33.8965 672.00
33.9617 814.00
34.0269 1035.00
34.0921 1168.00
34.1573 1155.00
34.2225 899.00
34.2877 684.00
34.3529 516.00
34.4181 494.00
34.4833 527.00
34.5485 506.00
34.6137 500.00
34.6789 476.00
34.7441 603.00
34.8093 552.00
34.8745 516.00
34.9397 484.00
35.0049 474.00
35.0701 501.00
35.1353 453.00
35.2005 500.00
35.2657 488.00
35.3309 517.00
35.3961 459.00
35.4613 494.00
35.5265 509.00
35.5917 462.00
35.6569 499.00
35.7221 448.00
35.7873 493.00
35.8525 530.00
35.9177 497.00
35.9829 468.00
36.0481 534.00
36.1133 471.00
36.1785 461.00
36.2437 453.00
36.3089 448.00
36.3741 425.00
36.4393 433.00
36.5045 459.00
36.5697 446.00
36.6349 419.00
36.7001 437.00
36.7653 463.00
36.8305 443.00
36.8957 431.00
36.9609 481.00
37.0261 447.00
37.0913 469.00
37.1565 448.00
37.2217 450.00
37.2869 417.00
37.3521 440.00
37.4173 433.00
37.4825 464.00
37.5477 416.00
37.6129 442.00
37.6781 407.00
37.7433 416.00
37.8085 419.00
37.8736 489.00
37.9388 397.00
38.004 438.00
38.0692 398.00
38.1344 446.00
38.1996 416.00
38.2648 397.00
38.33 403.00
38.3952 446.00
38.4604 423.00
38.5256 383.00
38.5908 440.00
38.656 408.00
38.7212 410.00
38.7864 425.00
38.8516 460.00
38.9168 400.00
38.982 413.00
39.0472 373.00
39.1124 404.00
39.1776 414.00
39.2428 430.00
39.308 426.00
39.3732 397.00
39.4384 375.00
39.5036 386.00
39.5688 393.00
39.634 366.00
39.6992 432.00
39.7644 475.00
39.8296 471.00
39.8948 422.00
39.96 439.00
40.0252 401.00
40.0904 395.00
40.1556 382.00
40.2208 406.00
40.286 404.00
40.3512 383.00
40.4164 349.00
40.4816 395.00
40.5468 397.00
40.612 378.00
40.6772 367.00
40.7424 382.00
40.8076 385.00
40.8728 429.00
40.938 377.00
41.0032 391.00
41.0684 331.00
41.1336 374.00
41.1988 386.00
41.264 394.00
41.3292 401.00
41.3944 360.00
41.4596 358.00
41.5248 363.00
41.59 376.00
41.6552 390.00
41.7204 364.00
41.7856 385.00
41.8508 413.00
41.916 389.00
41.9812 397.00
42.0464 363.00
42.1116 417.00
42.1768 385.00
42.242 417.00
42.3072 392.00
42.3724 356.00
42.4376 371.00
42.5028 379.00
42.568 348.00
42.6332 377.00
42.6983 376.00
42.7635 361.00
42.8287 373.00
42.8939 374.00
42.9591 382.00
43.0243 331.00
43.0895 401.00
43.1547 407.00
43.2199 343.00
43.2851 377.00
43.3503 381.00
43.4155 432.00
43.4807 422.00
43.5459 400.00
43.6111 349.00
43.6763 335.00
43.7415 346.00
43.8067 329.00
43.8719 355.00
43.9371 342.00
44.0023 341.00
44.0675 326.00
44.1327 341.00
44.1979 352.00
44.2631 334.00
44.3283 352.00
44.3935 346.00
44.4587 346.00
44.5239 321.00
44.5891 321.00
44.6543 343.00
44.7195 336.00
44.7847 350.00
44.8499 340.00
44.9151 345.00
44.9803 363.00
45.0455 352.00
45.1107 309.00
45.1759 350.00
45.2411 353.00
45.3063 340.00
45.3715 333.00
45.4367 310.00
45.5019 316.00
45.5671 318.00
45.6323 331.00
45.6975 330.00
45.7627 303.00
45.8279 328.00
45.8931 310.00
45.9583 346.00
46.0235 367.00
46.0887 492.00
46.1539 407.00
46.2191 424.00
46.2843 341.00
46.3495 327.00
46.4147 351.00
46.4799 338.00
46.5451 337.00
46.6103 335.00
46.6755 370.00
46.7407 401.00
46.8059 418.00
46.8711 396.00
46.9363 349.00
47.0015 362.00
47.0667 320.00
47.1319 356.00
47.1971 319.00
47.2623 340.00
47.3275 333.00
47.3927 354.00
47.4579 370.00
47.523 329.00
47.5882 306.00
47.6534 321.00
47.7186 315.00
47.7838 328.00
47.849 354.00
47.9142 288.00
47.9794 356.00
48.0446 317.00
48.1098 326.00
48.175 346.00
48.2402 334.00
48.3054 377.00
48.3706 409.00
48.4358 564.00
48.501 582.00
48.5662 540.00
48.6314 496.00
48.6966 403.00
48.7618 364.00
48.827 324.00
48.8922 341.00
48.9574 374.00
49.0226 393.00
49.0878 350.00
49.153 346.00
49.2182 372.00
49.2834 329.00
49.3486 309.00
49.4138 289.00
49.479 320.00
49.5442 318.00
49.6094 296.00
49.6746 289.00
49.7398 298.00
49.805 304.00
49.8702 303.00
49.9354 301.00
50.0006 298.00
50.0658 317.00
50.131 332.00
50.1962 341.00
50.2614 309.00
50.3266 299.00
50.3918 310.00
50.457 316.00
50.5222 296.00
50.5874 280.00
50.6526 283.00
50.7178 353.00
50.783 293.00
50.8482 285.00
50.9134 300.00
50.9786 294.00
51.0438 301.00
51.109 302.00
51.1742 320.00
51.2394 310.00
51.3046 295.00
51.3698 290.00
51.435 314.00
51.5002 291.00
51.5654 280.00
51.6306 328.00
51.6958 306.00
51.761 273.00
51.8262 244.00
51.8914 265.00
51.9566 302.00
52.0218 319.00
52.087 274.00
52.1522 269.00
52.2174 303.00
52.2826 311.00
52.3477 297.00
52.4129 303.00
52.4781 247.00
52.5433 314.00
52.6085 309.00
52.6737 310.00
52.7389 271.00
52.8041 278.00
52.8693 288.00
52.9345 317.00
52.9997 240.00
53.0649 313.00
53.1301 318.00
53.1953 265.00
53.2605 321.00
53.3257 304.00
53.3909 292.00
53.4561 285.00
53.5213 292.00
53.5865 282.00
53.6517 270.00
53.7169 277.00
53.7821 271.00
53.8473 289.00
53.9125 289.00
53.9777 278.00
54.0429 306.00
54.1081 343.00
54.1733 360.00
54.2385 309.00
54.3037 316.00
54.3689 317.00
54.4341 262.00
54.4993 292.00
54.5645 293.00
54.6297 300.00
54.6949 281.00
54.7601 293.00
54.8253 276.00
54.8905 285.00
54.9557 280.00
55.0209 248.00
55.0861 266.00
55.1513 291.00
55.2165 287.00
55.2817 371.00
55.3469 414.00
55.4121 308.00
55.4773 353.00
55.5425 341.00
55.6077 270.00
55.6729 268.00
55.7381 278.00
55.8033 279.00
55.8685 238.00
55.9337 287.00
55.9989 312.00
56.0641 327.00
56.1293 315.00
56.1945 300.00
56.2597 272.00
56.3249 258.00
56.3901 264.00
56.4553 261.00
56.5205 270.00
56.5857 288.00
56.6509 239.00
56.7161 267.00
56.7813 258.00
56.8465 250.00
56.9117 268.00
56.9769 267.00
57.042 271.00
57.1073 270.00
57.1724 243.00
57.2376 273.00
57.3028 271.00
57.368 263.00
57.4332 302.00
57.4984 345.00
57.5636 466.00
57.6288 438.00
57.694 379.00
57.7592 325.00
57.8244 296.00
57.8896 245.00
57.9548 224.00
58.02 242.00
58.0852 237.00
58.1504 247.00
58.2156 265.00
58.2808 203.00
58.346 263.00
58.4112 248.00
58.4764 264.00
58.5416 230.00
58.6068 238.00
58.672 257.00
58.7372 234.00
58.8024 242.00
58.8676 238.00
58.9328 272.00
58.998 282.00
59.0632 224.00
59.1284 241.00
59.1936 283.00
59.2588 241.00
59.324 231.00
59.3892 239.00
59.4544 248.00
59.5196 247.00
59.5848 235.00
59.65 245.00
59.7152 227.00
59.7804 203.00
59.8456 218.00
59.9108 228.00
59.976 221.00
60.0412 231.00
60.1064 242.00
60.1716 240.00
60.2368 244.00
60.302 239.00
60.3672 270.00
60.4324 262.00
60.4976 257.00
60.5628 258.00
60.628 264.00
60.6932 251.00
60.7584 245.00
60.8236 216.00
60.8888 221.00
60.954 231.00
61.0192 235.00
61.0844 299.00
61.1496 267.00
61.2148 295.00
61.28 264.00
61.3452 234.00
61.4104 214.00
61.4756 246.00
61.5408 262.00
61.606 231.00
61.6712 221.00
61.7364 219.00
61.8016 249.00
61.8667 245.00
61.932 244.00
61.9971 221.00
62.0623 215.00
62.1275 224.00
62.1927 231.00
62.2579 223.00
62.3231 236.00
62.3883 216.00
62.4535 237.00
62.5187 245.00
62.5839 243.00
62.6491 263.00
62.7143 227.00
62.7795 211.00
62.8447 246.00
62.9099 238.00
62.9751 228.00
63.0403 245.00
63.1055 256.00
63.1707 232.00
63.2359 213.00
63.3011 238.00
63.3663 225.00
63.4315 216.00
63.4967 247.00
63.5619 194.00
63.6271 206.00
63.6923 203.00
63.7575 212.00
63.8227 199.00
63.8879 233.00
63.9531 218.00
64.0183 205.00
64.0835 250.00
64.1487 226.00
64.2139 174.00
64.2791 201.00
64.3443 219.00
64.4095 217.00
64.4747 229.00
64.5399 234.00
64.6051 210.00
64.6703 221.00
64.7355 239.00
64.8007 207.00
64.8659 229.00
64.9311 228.00
64.9963 189.00
65.0615 215.00
65.1267 206.00
65.1919 220.00
65.2571 216.00
65.3223 214.00
65.3875 218.00
65.4527 232.00
65.5179 225.00
65.5831 244.00
65.6483 225.00
65.7135 183.00
65.7787 231.00
65.8439 258.00
65.9091 224.00
65.9743 219.00
66.0395 206.00
66.1047 216.00
66.1699 182.00
66.2351 219.00
66.3003 227.00
66.3655 206.00
66.4307 216.00
66.4959 246.00
66.561 201.00
66.6263 188.00
66.6915 204.00
66.7566 188.00
66.8218 221.00
66.887 212.00
66.9522 208.00
67.0174 237.00
67.0826 204.00
67.1478 212.00
67.213 207.00
67.2782 215.00
67.3434 226.00
67.4086 218.00
67.4738 196.00
67.539 209.00
67.6042 228.00
67.6694 195.00
67.7346 233.00
67.7998 213.00
67.865 224.00
67.9302 199.00
67.9954 200.00
68.0606 197.00
68.1258 210.00
68.191 222.00
68.2562 240.00
68.3214 263.00
68.3866 245.00
68.4518 214.00
68.517 239.00
68.5822 228.00
68.6474 208.00
68.7126 205.00
68.7778 238.00
68.843 196.00
68.9082 211.00
68.9734 190.00
69.0386 199.00
69.1038 204.00
69.169 240.00
69.2342 194.00
69.2994 212.00
69.3646 185.00
69.4298 220.00
69.495 200.00
69.5602 188.00
69.6254 225.00
69.6906 219.00
69.7558 213.00
69.821 204.00
69.8862 227.00
69.9514 205.00
70.0166 242.00
70.0818 226.00
70.147 207.00
70.2122 224.00
70.2774 205.00
70.3426 224.00
70.4078 182.00
70.473 209.00
70.5382 218.00
70.6034 216.00
70.6686 186.00
70.7338 265.00
70.799 211.00
70.8642 234.00
70.9294 207.00
70.9946 231.00
71.0598 212.00
71.125 230.00
71.1902 248.00
71.2554 205.00
71.3205 217.00
71.3858 206.00
71.451 211.00
71.5162 237.00
71.5813 217.00
71.6465 211.00
71.7117 195.00
71.7769 212.00
71.8421 211.00
71.9073 200.00
71.9725 234.00
72.0377 246.00
72.1029 221.00
72.1681 224.00
72.2333 240.00
72.2985 242.00
72.3637 231.00
72.4289 248.00
72.4941 192.00
72.5593 220.00
72.6245 228.00
72.6897 261.00
72.7549 212.00
72.8201 218.00
72.8853 228.00
72.9505 230.00
73.0157 200.00
73.0809 238.00
73.1461 210.00
73.2113 214.00
73.2765 224.00
73.3417 229.00
73.4069 210.00
73.4721 217.00
73.5373 208.00
73.6025 219.00
73.6677 235.00
73.7329 199.00
73.7981 209.00
73.8633 211.00
73.9285 237.00
73.9937 209.00
74.0589 218.00
74.1241 217.00
74.1893 219.00
74.2545 219.00
74.3197 242.00
74.3849 259.00
74.4501 264.00
74.5153 212.00
74.5805 218.00
74.6457 231.00
74.7109 240.00
74.7761 233.00
74.8413 217.00
74.9065 232.00
74.9717 218.00
75.0369 246.00
75.1021 197.00
75.1673 205.00
75.2325 214.00
75.2977 228.00
75.3629 230.00
75.4281 237.00
75.4933 227.00
75.5585 245.00
75.6237 238.00
75.6889 236.00
75.7541 230.00
75.8193 257.00
75.8845 235.00
75.9497 211.00
76.0149 250.00
76.0801 225.00
76.1452 223.00
76.2104 256.00
76.2756 195.00
76.3409 205.00
76.406 227.00
76.4712 228.00
76.5364 210.00
76.6016 198.00
76.6668 196.00
76.732 229.00
76.7972 232.00
76.8624 231.00
76.9276 203.00
76.9928 229.00
77.058 202.00
77.1232 223.00
77.1884 227.00
77.2536 220.00
77.3188 245.00
77.384 244.00
77.4492 237.00
77.5144 228.00
77.5796 210.00
77.6448 243.00
77.71 236.00
77.7752 249.00
77.8404 225.00
77.9056 232.00
77.9708 226.00
78.036 224.00
78.1012 211.00
78.1664 217.00
78.2316 227.00
78.2968 235.00
78.362 233.00
78.4272 256.00
78.4924 228.00
78.5576 249.00
78.6228 266.00
78.688 251.00
78.7532 260.00
78.8184 209.00
78.8836 276.00
78.9488 211.00
79.014 235.00
79.0792 238.00
79.1444 230.00
79.2096 236.00
79.2748 239.00
79.34 220.00
79.4052 248.00
79.4704 229.00
79.5356 241.00
79.6008 220.00
79.666 203.00
79.7312 234.00
79.7964 263.00
79.8616 221.00
79.9268 234.00
79.992 235.00
80.0572 258.00
80.1224 233.00
80.1876 244.00
80.2528 224.00
80.318 242.00
80.3832 239.00
80.4484 274.00
80.5136 220.00
80.5788 216.00
80.644 231.00
80.7092 241.00
80.7744 273.00
80.8396 237.00
80.9048 235.00
80.9699 261.00
81.0351 257.00
81.1003 245.00
81.1655 268.00
81.2307 269.00
81.2959 269.00
81.3611 237.00
81.4263 274.00
81.4915 279.00
81.5567 224.00
81.6219 264.00
81.6871 217.00
81.7523 231.00
81.8175 250.00
81.8827 235.00
81.9479 250.00
82.0131 274.00
82.0783 265.00
82.1435 236.00
82.2087 275.00
82.2739 241.00
82.3391 233.00
82.4043 241.00
82.4695 280.00
82.5347 308.00
82.5999 236.00
82.6651 240.00
82.7303 243.00
82.7955 206.00
82.8607 242.00
82.9259 237.00
82.9911 237.00
83.0563 240.00
83.1215 236.00
83.1867 222.00
83.2519 258.00
83.3171 234.00
83.3823 279.00
83.4475 259.00
83.5127 257.00
83.5779 223.00
83.6431 235.00
83.7083 256.00
83.7735 243.00
83.8387 234.00
83.9039 225.00
83.9691 219.00
84.0343 232.00
84.0995 225.00
84.1647 238.00
84.2299 223.00
84.2951 240.00
84.3603 227.00
84.4255 240.00
84.4907 225.00
84.5559 262.00
84.6211 224.00
84.6863 228.00
84.7515 227.00
84.8167 237.00
84.8819 236.00
84.9471 243.00
85.0123 280.00
85.0775 237.00
85.1427 232.00
85.2079 238.00
85.2731 229.00
85.3383 218.00
85.4035 238.00
85.4687 225.00
85.5339 205.00
85.5991 230.00
85.6643 228.00
85.7295 210.00
85.7946 248.00
85.8598 230.00
85.925 226.00
85.9903 209.00
86.0554 230.00
86.1206 216.00
86.1858 206.00
86.251 244.00
86.3162 229.00
86.3814 232.00
86.4466 213.00
86.5118 224.00
86.577 237.00
86.6422 234.00
86.7074 223.00
86.7726 213.00
86.8378 237.00
86.903 212.00
86.9682 233.00
87.0334 217.00
87.0986 229.00
87.1638 202.00
87.229 211.00
87.2942 222.00
87.3594 198.00
87.4246 216.00
87.4898 203.00
87.555 230.00
87.6202 230.00
87.6854 224.00
87.7506 195.00
87.8158 212.00
87.881 228.00
87.9462 235.00
88.0114 202.00
88.0766 208.00
88.1418 212.00
88.207 198.00
88.2722 195.00
88.3374 206.00
88.4026 195.00
88.4678 181.00
88.533 231.00
88.5982 188.00
88.6634 194.00
88.7286 209.00
88.7938 180.00
88.859 185.00
88.9242 190.00
88.9894 189.00
89.0546 179.00
89.1198 180.00
89.185 191.00
89.2502 209.00
89.3154 217.00
89.3806 209.00
89.4458 217.00
89.511 233.00
89.5762 209.00
89.6414 214.00
89.7066 216.00
89.7718 232.00
89.837 199.00
89.9022 186.00
89.9674 185.00
90.0326 180.00
90.0978 234.00
90.163 200.00
90.2282 218.00
90.2934 194.00
90.3586 215.00
90.4238 224.00
90.489 191.00
90.5542 214.00
90.6193 201.00
90.6845 225.00
90.7497 235.00
90.8149 249.00
90.8801 240.00
90.9453 214.00
91.0105 211.00
91.0757 220.00
91.1409 218.00
91.2061 179.00
91.2713 235.00
91.3365 193.00
91.4017 184.00
91.4669 183.00
91.5321 187.00
91.5973 208.00
91.6625 198.00
91.7277 174.00
91.7929 187.00
91.8581 215.00
91.9233 206.00
91.9885 182.00
92.0537 217.00
92.1189 228.00
92.1841 230.00
92.2493 220.00
92.3145 214.00
92.3797 188.00
92.4449 204.00
92.5101 213.00
92.5753 169.00
92.6405 192.00
92.7057 207.00
92.7709 234.00
92.8361 209.00
92.9013 195.00
92.9665 192.00
93.0317 202.00
93.0969 222.00
93.1621 190.00
93.2273 224.00
93.2925 187.00
93.3577 206.00
93.4229 216.00
93.4881 213.00
93.5533 228.00
93.6185 239.00
93.6837 193.00
93.7489 201.00
93.8141 197.00
93.8793 206.00
93.9445 191.00
94.0097 204.00
94.0749 224.00
94.1401 219.00
94.2053 200.00
94.2705 207.00
94.3357 189.00
94.4009 196.00
94.4661 223.00
94.5313 216.00
94.5965 204.00
94.6617 192.00
94.7269 190.00
94.7921 197.00
94.8573 206.00
94.9225 189.00
94.9877 200.00
95.0529 207.00
95.1181 208.00
95.1833 223.00
95.2485 201.00
95.3137 201.00
95.3789 194.00
95.444 211.00
95.5092 229.00
95.5744 210.00
95.6396 209.00
95.7048 200.00
95.77 205.00
95.8352 203.00
95.9004 215.00
95.9656 194.00
96.0308 233.00
96.096 185.00
96.1612 194.00
96.2264 200.00
96.2916 182.00
96.3568 184.00
96.422 202.00
96.4872 197.00
96.5524 204.00
96.6176 188.00
96.6828 229.00
96.748 194.00
96.8132 232.00
96.8784 197.00
96.9436 191.00
97.0088 178.00
97.074 206.00
97.1392 210.00
97.2044 203.00
97.2696 200.00
97.3348 213.00
97.4 177.00
97.4652 203.00
97.5304 180.00
97.5956 182.00
97.6608 193.00
97.726 189.00
97.7912 201.00
97.8564 190.00
97.9216 213.00
97.9868 224.00
98.052 193.00
98.1172 213.00
98.1824 188.00
98.2476 206.00
98.3128 217.00
98.378 200.00
98.4432 190.00
98.5084 191.00
98.5736 173.00
98.6388 206.00
98.704 205.00
98.7692 220.00
98.8344 185.00
98.8996 219.00
98.9648 166.00
99.03 194.00
99.0952 192.00
99.1604 208.00
99.2256 208.00
99.2908 225.00
99.356 189.00
99.4212 191.00
99.4864 229.00
99.5516 204.00
99.6168 207.00
99.682 200.00
99.7472 201.00
99.8124 198.00
99.8776 199.00
99.9428 221.00
100.008 198.00
100.073 195.00
100.095 215.00