File: data/xrd_creation/results/Na_276.xy
9.903433 2719.00
9.968632 2721.00
10.0338 2800.00
10.099 2701.00
10.1642 2515.00
10.2294 2648.00
10.2946 2640.00
10.3598 2702.00
10.425 2762.00
10.4902 2785.00
10.5554 2481.00
10.6206 2401.00
10.6858 2327.00
10.751 2330.00
10.8162 2242.00
10.8814 2270.00
10.9466 2308.00
11.0118 2183.00
11.077 2184.00
11.1422 2180.00
11.2074 2253.00
11.2726 2082.00
11.3378 2175.00
11.403 2055.00
11.4682 2007.00
11.5334 2140.00
11.5986 2032.00
11.6638 1989.00
11.729 2068.00
11.7942 2047.00
11.8594 1966.00
11.9246 1942.00
11.9898 1902.00
12.055 1905.00
12.1202 1923.00
12.1854 1852.00
12.2506 1830.00
12.3158 1739.00
12.381 1872.00
12.4462 1844.00
12.5114 1878.00
12.5766 1886.00
12.6418 1864.00
12.707 1808.00
12.7722 1806.00
12.8374 1663.00
12.9026 1699.00
12.9678 1739.00
13.033 1742.00
13.0982 1655.00
13.1634 1651.00
13.2286 1612.00
13.2938 1626.00
13.359 1606.00
13.4242 1649.00
13.4894 1634.00
13.5546 1558.00
13.6198 1566.00
13.685 1494.00
13.7502 1593.00
13.8154 1580.00
13.8805 1581.00
13.9457 1668.00
14.0109 1561.00
14.0761 1703.00
14.1413 1766.00
14.2065 1739.00
14.2717 1780.00
14.3369 1548.00
14.4021 1555.00
14.4673 1536.00
14.5325 1522.00
14.5977 1516.00
14.6629 1523.00
14.7281 1576.00
14.7933 1679.00
14.8585 1457.00
14.9237 1444.00
14.9889 1409.00
15.0541 1402.00
15.1193 1427.00
15.1845 1407.00
15.2497 1449.00
15.3149 1375.00
15.3801 1295.00
15.4453 1361.00
15.5105 1370.00
15.5757 1344.00
15.6409 1294.00
15.7061 1373.00
15.7713 1380.00
15.8365 1341.00
15.9017 1318.00
15.9669 1331.00
16.0321 1340.00
16.0973 1297.00
16.1625 1349.00
16.2277 1300.00
16.2929 1260.00
16.3581 1292.00
16.4233 1243.00
16.4885 1283.00
16.5537 1320.00
16.6189 1273.00
16.6841 1401.00
16.7493 1236.00
16.8145 1298.00
16.8797 1288.00
16.9449 1226.00
17.0101 1212.00
17.0753 1273.00
17.1405 1172.00
17.2057 1243.00
17.2709 1219.00
17.3361 1266.00
17.4013 1216.00
17.4665 1288.00
17.5317 1325.00
17.5969 1459.00
17.6621 1461.00
17.7273 1304.00
17.7925 1199.00
17.8577 1226.00
17.9229 1128.00
17.9881 1192.00
18.0533 1135.00
18.1185 1113.00
18.1837 1172.00
18.2489 1215.00
18.3141 1175.00
18.3793 1225.00
18.4445 1249.00
18.5097 1341.00
18.5749 1268.00
18.6401 1252.00
18.7052 1169.00
18.7704 1096.00
18.8356 1105.00
18.9008 1093.00
18.966 1065.00
19.0312 1039.00
19.0964 1071.00
19.1616 1145.00
19.2268 1224.00
19.292 1389.00
19.3572 1707.00
19.4224 1664.00
19.4876 1340.00
19.5528 1282.00
19.618 1465.00
19.6832 1730.00
19.7484 1716.00
19.8136 1406.00
19.8788 1327.00
19.944 1589.00
20.0092 1704.00
20.0744 1380.00
20.1396 1087.00
20.2048 1027.00
20.27 1047.00
20.3352 1036.00
20.4004 1022.00
20.4656 1024.00
20.5308 999.00
20.596 981.00
20.6612 977.00
20.7264 993.00
20.7916 989.00
20.8568 978.00
20.922 977.00
20.9872 871.00
21.0524 941.00
21.1176 965.00
21.1828 974.00
21.248 911.00
21.3132 936.00
21.3784 942.00
21.4436 925.00
21.5088 949.00
21.574 911.00
21.6392 912.00
21.7044 984.00
21.7696 868.00
21.8348 956.00
21.9 957.00
21.9652 917.00
22.0304 1010.00
22.0956 1043.00
22.1608 1351.00
22.226 1564.00
22.2912 1501.00
22.3564 1206.00
22.4216 1160.00
22.4868 1160.00
22.552 1363.00
22.6172 1236.00
22.6824 1111.00
22.7476 1134.00
22.8128 1143.00
22.878 1163.00
22.9432 1243.00
23.0084 1267.00
23.0736 1107.00
23.1388 926.00
23.204 932.00
23.2692 787.00
23.3344 871.00
23.3996 846.00
23.4647 881.00
23.5299 921.00
23.5951 885.00
23.6603 935.00
23.7255 1084.00
23.7907 1105.00
23.8559 1200.00
23.9211 1094.00
23.9863 1036.00
24.0515 1134.00
24.1167 1386.00
24.1819 1716.00
24.2471 1587.00
24.3123 1342.00
24.3775 1155.00
24.4427 1366.00
24.5079 1336.00
24.5731 1282.00
24.6383 1163.00
24.7035 1010.00
24.7687 879.00
24.8339 891.00
24.8991 854.00
24.9643 797.00
25.0295 840.00
25.0947 822.00
25.1599 804.00
25.2251 844.00
25.2903 796.00
25.3555 763.00
25.4207 777.00
25.4859 804.00
25.5511 830.00
25.6163 902.00
25.6815 1043.00
25.7467 1221.00
25.8119 1356.00
25.8771 1138.00
25.9423 915.00
26.0075 842.00
26.0727 794.00
26.1379 790.00
26.2031 771.00
26.2683 810.00
26.3335 763.00
26.3987 730.00
26.4639 824.00
26.5291 773.00
26.5943 735.00
26.6595 773.00
26.7247 721.00
26.7899 809.00
26.8551 786.00
26.9203 831.00
26.9855 879.00
27.0507 1039.00
27.1159 1212.00
27.1811 1398.00
27.2463 1488.00
27.3115 1465.00
27.3767 1203.00
27.4419 991.00
27.5071 856.00
27.5723 856.00
27.6375 845.00
27.7027 867.00
27.7679 849.00
27.8331 841.00
27.8983 850.00
27.9635 865.00
28.0287 885.00
28.0939 923.00
28.1591 1033.00
28.2243 1102.00
28.2894 1291.00
28.3546 1233.00
28.4198 1218.00
28.485 1388.00
28.5502 1231.00
28.6154 1077.00
28.6806 1157.00
28.7458 1109.00
28.811 1076.00
28.8762 972.00
28.9414 804.00
29.0066 771.00
29.0718 731.00
29.137 691.00
29.2022 664.00
29.2674 646.00
29.3326 651.00
29.3978 723.00
29.463 683.00
29.5282 655.00
29.5934 670.00
29.6586 675.00
29.7238 662.00
29.789 722.00
29.8542 737.00
29.9194 773.00
29.9846 661.00
30.0498 697.00
30.115 636.00
30.1802 625.00
30.2454 675.00
30.3106 691.00
30.3758 754.00
30.441 1012.00
30.5062 1232.00
30.5714 1115.00
30.6366 895.00
30.7018 847.00
30.767 883.00
30.8322 1129.00
30.8974 1201.00
30.9626 1048.00
31.0278 1059.00
31.093 1242.00
31.1582 1127.00
31.2234 847.00
31.2886 812.00
31.3538 971.00
31.419 1034.00
31.4842 1016.00
31.5494 863.00
31.6146 850.00
31.6798 764.00
31.745 822.00
31.8102 907.00
31.8754 1034.00
31.9406 1303.00
32.0058 1226.00
32.071 1196.00
32.1362 1150.00
32.2014 1038.00
32.2666 1079.00
32.3318 1237.00
32.397 1192.00
32.4622 992.00
32.5274 851.00
32.5926 724.00
32.6578 689.00
32.723 720.00
32.7882 731.00
32.8534 673.00
32.9186 620.00
32.9838 664.00
33.0489 697.00
33.1141 788.00
33.1793 887.00
33.2445 1184.00
33.3097 1315.00
33.3749 1104.00
33.4401 821.00
33.5053 697.00
33.5705 627.00
33.6357 653.00
33.7009 696.00
33.7661 673.00
33.8313 688.00
33.8965 895.00
33.9617 1342.00
34.0269 1741.00
34.0921 1413.00
34.1573 856.00
34.2225 648.00
34.2877 717.00
34.3529 704.00
34.4181 974.00
34.4833 1262.00
34.5485 1069.00
34.6137 842.00
34.6789 593.00
34.7441 601.00
34.8093 592.00
34.8745 606.00
34.9397 645.00
35.0049 965.00
35.0701 1423.00
35.1353 1438.00
35.2005 1039.00
35.2657 683.00
35.3309 632.00
35.3961 537.00
35.4613 522.00
35.5265 543.00
35.5917 619.00
35.6569 649.00
35.7221 866.00
35.7873 875.00
35.8525 735.00
35.9177 572.00
35.9829 522.00
36.0481 498.00
36.1133 540.00
36.1785 488.00
36.2437 512.00
36.3089 598.00
36.3741 699.00
36.4393 851.00
36.5045 830.00
36.5697 782.00
36.6349 725.00
36.7001 798.00
36.7653 644.00
36.8305 673.00
36.8957 733.00
36.9609 665.00
37.0261 648.00
37.0913 636.00
37.1565 684.00
37.2217 670.00
37.2869 612.00
37.3521 530.00
37.4173 531.00
37.4825 534.00
37.5477 549.00
37.6129 604.00
37.6781 601.00
37.7433 557.00
37.8085 578.00
37.8736 631.00
37.9388 745.00
38.004 707.00
38.0692 632.00
38.1344 591.00
38.1996 611.00
38.2648 604.00
38.33 559.00
38.3952 556.00
38.4604 565.00
38.5256 547.00
38.5908 504.00
38.656 482.00
38.7212 495.00
38.7864 557.00
38.8516 486.00
38.9168 466.00
38.982 455.00
39.0472 440.00
39.1124 518.00
39.1776 515.00
39.2428 465.00
39.308 477.00
39.3732 500.00
39.4384 470.00
39.5036 444.00
39.5688 415.00
39.634 415.00
39.6992 400.00
39.7644 428.00
39.8296 442.00
39.8948 492.00
39.96 565.00
40.0252 669.00
40.0904 678.00
40.1556 578.00
40.2208 519.00
40.286 457.00
40.3512 486.00
40.4164 490.00
40.4816 394.00
40.5468 411.00
40.612 429.00
40.6772 449.00
40.7424 465.00
40.8076 469.00
40.8728 472.00
40.938 480.00
41.0032 481.00
41.0684 543.00
41.1336 554.00
41.1988 592.00
41.264 677.00
41.3292 663.00
41.3944 601.00
41.4596 575.00
41.5248 549.00
41.59 557.00
41.6552 497.00
41.7204 493.00
41.7856 484.00
41.8508 466.00
41.916 469.00
41.9812 489.00
42.0464 526.00
42.1116 463.00
42.1768 507.00
42.242 495.00
42.3072 400.00
42.3724 418.00
42.4376 409.00
42.5028 456.00
42.568 516.00
42.6332 535.00
42.6983 543.00
42.7635 485.00
42.8287 436.00
42.8939 455.00
42.9591 462.00
43.0243 463.00
43.0895 527.00
43.1547 531.00
43.2199 497.00
43.2851 423.00
43.3503 400.00
43.4155 414.00
43.4807 400.00
43.5459 406.00
43.6111 383.00
43.6763 392.00
43.7415 399.00
43.8067 410.00
43.8719 434.00
43.9371 499.00
44.0023 502.00
44.0675 469.00
44.1327 443.00
44.1979 410.00
44.2631 424.00
44.3283 460.00
44.3935 445.00
44.4587 401.00
44.5239 422.00
44.5891 413.00
44.6543 403.00
44.7195 386.00
44.7847 384.00
44.8499 401.00
44.9151 387.00
44.9803 447.00
45.0455 385.00
45.1107 392.00
45.1759 410.00
45.2411 381.00
45.3063 336.00
45.3715 352.00
45.4367 304.00
45.5019 402.00
45.5671 406.00
45.6323 325.00
45.6975 403.00
45.7627 411.00
45.8279 408.00
45.8931 407.00
45.9583 408.00
46.0235 371.00
46.0887 424.00
46.1539 448.00
46.2191 502.00
46.2843 456.00
46.3495 415.00
46.4147 421.00
46.4799 410.00
46.5451 378.00
46.6103 356.00
46.6755 366.00
46.7407 398.00
46.8059 385.00
46.8711 371.00
46.9363 408.00
47.0015 362.00
47.0667 413.00
47.1319 410.00
47.1971 407.00
47.2623 434.00
47.3275 375.00
47.3927 386.00
47.4579 399.00
47.523 422.00
47.5882 454.00
47.6534 498.00
47.7186 423.00
47.7838 423.00
47.849 411.00
47.9142 361.00
47.9794 346.00
48.0446 372.00
48.1098 364.00
48.175 368.00
48.2402 342.00
48.3054 341.00
48.3706 359.00
48.4358 401.00
48.501 384.00
48.5662 418.00
48.6314 476.00
48.6966 449.00
48.7618 450.00
48.827 458.00
48.8922 441.00
48.9574 430.00
49.0226 438.00
49.0878 441.00
49.153 469.00
49.2182 420.00
49.2834 413.00
49.3486 398.00
49.4138 388.00
49.479 344.00
49.5442 386.00
49.6094 442.00
49.6746 427.00
49.7398 438.00
49.805 410.00
49.8702 463.00
49.9354 420.00
50.0006 404.00
50.0658 382.00
50.131 397.00
50.1962 425.00
50.2614 441.00
50.3266 437.00
50.3918 448.00
50.457 479.00
50.5222 490.00
50.5874 465.00
50.6526 440.00
50.7178 462.00
50.783 398.00
50.8482 400.00
50.9134 390.00
50.9786 360.00
51.0438 405.00
51.109 382.00
51.1742 342.00
51.2394 344.00
51.3046 376.00
51.3698 345.00
51.435 371.00
51.5002 366.00
51.5654 345.00
51.6306 373.00
51.6958 361.00
51.761 312.00
51.8262 368.00
51.8914 353.00
51.9566 404.00
52.0218 449.00
52.087 424.00
52.1522 463.00
52.2174 422.00
52.2826 440.00
52.3477 384.00
52.4129 364.00
52.4781 400.00
52.5433 365.00
52.6085 379.00
52.6737 358.00
52.7389 353.00
52.8041 377.00
52.8693 378.00
52.9345 345.00
52.9997 390.00
53.0649 385.00
53.1301 359.00
53.1953 400.00
53.2605 396.00
53.3257 425.00
53.3909 515.00
53.4561 530.00
53.5213 493.00
53.5865 545.00
53.6517 516.00
53.7169 520.00
53.7821 467.00
53.8473 412.00
53.9125 391.00
53.9777 392.00
54.0429 457.00
54.1081 399.00
54.1733 422.00
54.2385 427.00
54.3037 346.00
54.3689 318.00
54.4341 305.00
54.4993 362.00
54.5645 370.00
54.6297 414.00
54.6949 353.00
54.7601 334.00
54.8253 357.00
54.8905 384.00
54.9557 409.00
55.0209 418.00
55.0861 427.00
55.1513 385.00
55.2165 377.00
55.2817 329.00
55.3469 323.00
55.4121 337.00
55.4773 338.00
55.5425 412.00
55.6077 356.00
55.6729 326.00
55.7381 340.00
55.8033 318.00
55.8685 364.00
55.9337 325.00
55.9989 378.00
56.0641 326.00
56.1293 308.00
56.1945 307.00
56.2597 359.00
56.3249 312.00
56.3901 340.00
56.4553 317.00
56.5205 358.00
56.5857 367.00
56.6509 349.00
56.7161 331.00
56.7813 340.00
56.8465 352.00
56.9117 293.00
56.9769 324.00
57.042 321.00
57.1073 309.00
57.1724 313.00
57.2376 291.00
57.3028 336.00
57.368 309.00
57.4332 298.00
57.4984 336.00
57.5636 314.00
57.6288 328.00
57.694 336.00
57.7592 328.00
57.8244 283.00
57.8896 359.00
57.9548 371.00
58.02 346.00
58.0852 349.00
58.1504 319.00
58.2156 372.00
58.2808 456.00
58.346 426.00
58.4112 409.00
58.4764 400.00
58.5416 425.00
58.6068 426.00
58.672 377.00
58.7372 367.00
58.8024 377.00
58.8676 301.00
58.9328 315.00
58.998 304.00
59.0632 309.00
59.1284 316.00
59.1936 277.00
59.2588 292.00
59.324 343.00
59.3892 323.00
59.4544 312.00
59.5196 347.00
59.5848 273.00
59.65 316.00
59.7152 297.00
59.7804 323.00
59.8456 309.00
59.9108 343.00
59.976 316.00
60.0412 325.00
60.1064 309.00
60.1716 299.00
60.2368 313.00
60.302 360.00
60.3672 374.00
60.4324 419.00
60.4976 436.00
60.5628 394.00
60.628 354.00
60.6932 373.00
60.7584 352.00
60.8236 354.00
60.8888 437.00
60.954 343.00
61.0192 351.00
61.0844 385.00
61.1496 330.00
61.2148 348.00
61.28 348.00
61.3452 347.00
61.4104 339.00
61.4756 334.00
61.5408 341.00
61.606 334.00
61.6712 314.00
61.7364 419.00
61.8016 376.00
61.8667 370.00
61.932 330.00
61.9971 391.00
62.0623 442.00
62.1275 409.00
62.1927 393.00
62.2579 420.00
62.3231 302.00
62.3883 328.00
62.4535 313.00
62.5187 292.00
62.5839 342.00
62.6491 265.00
62.7143 288.00
62.7795 299.00
62.8447 296.00
62.9099 369.00
62.9751 379.00
63.0403 334.00
63.1055 337.00
63.1707 366.00
63.2359 327.00
63.3011 308.00
63.3663 325.00
63.4315 328.00
63.4967 333.00
63.5619 338.00
63.6271 289.00
63.6923 323.00
63.7575 310.00
63.8227 310.00
63.8879 308.00
63.9531 309.00
64.0183 302.00
64.0835 297.00
64.1487 306.00
64.2139 321.00
64.2791 332.00
64.3443 361.00
64.4095 312.00
64.4747 312.00
64.5399 324.00
64.6051 313.00
64.6703 290.00
64.7355 303.00
64.8007 329.00
64.8659 325.00
64.9311 313.00
64.9963 320.00
65.0615 324.00
65.1267 316.00
65.1919 299.00
65.2571 290.00
65.3223 281.00
65.3875 293.00
65.4527 327.00
65.5179 331.00
65.5831 322.00
65.6483 326.00
65.7135 266.00
65.7787 300.00
65.8439 319.00
65.9091 347.00
65.9743 321.00
66.0395 352.00
66.1047 346.00
66.1699 347.00
66.2351 335.00
66.3003 346.00
66.3655 303.00
66.4307 329.00
66.4959 297.00
66.561 266.00
66.6263 292.00
66.6915 273.00
66.7566 282.00
66.8218 324.00
66.887 273.00
66.9522 267.00
67.0174 325.00
67.0826 322.00
67.1478 302.00
67.213 292.00
67.2782 291.00
67.3434 264.00
67.4086 286.00
67.4738 273.00
67.539 296.00
67.6042 291.00
67.6694 310.00
67.7346 265.00
67.7998 258.00
67.865 275.00
67.9302 337.00
67.9954 277.00
68.0606 298.00
68.1258 297.00
68.191 292.00
68.2562 264.00
68.3214 274.00
68.3866 234.00
68.4518 289.00
68.517 229.00
68.5822 232.00
68.6474 258.00
68.7126 248.00
68.7778 240.00
68.843 248.00
68.9082 307.00
68.9734 302.00
69.0386 276.00
69.1038 283.00
69.169 323.00
69.2342 278.00
69.2994 246.00
69.3646 241.00
69.4298 276.00
69.495 279.00
69.5602 250.00
69.6254 259.00
69.6906 274.00
69.7558 295.00
69.821 303.00
69.8862 324.00
69.9514 297.00
70.0166 289.00
70.0818 288.00
70.147 229.00
70.2122 274.00
70.2774 245.00
70.3426 273.00
70.4078 234.00
70.473 278.00
70.5382 245.00
70.6034 227.00
70.6686 230.00
70.7338 282.00
70.799 276.00
70.8642 277.00
70.9294 284.00
70.9946 231.00
71.0598 272.00
71.125 243.00
71.1902 248.00
71.2554 242.00
71.3205 234.00
71.3858 233.00
71.451 216.00
71.5162 260.00
71.5813 219.00
71.6465 273.00
71.7117 299.00
71.7769 291.00
71.8421 288.00
71.9073 283.00
71.9725 290.00
72.0377 256.00
72.1029 261.00
72.1681 277.00
72.2333 244.00
72.2985 250.00
72.3637 272.00
72.4289 251.00
72.4941 250.00
72.5593 280.00
72.6245 314.00
72.6897 315.00
72.7549 278.00
72.8201 298.00
72.8853 299.00
72.9505 324.00
73.0157 291.00
73.0809 320.00
73.1461 270.00
73.2113 259.00
73.2765 273.00
73.3417 267.00
73.4069 228.00
73.4721 269.00
73.5373 237.00
73.6025 247.00
73.6677 258.00
73.7329 238.00
73.7981 244.00
73.8633 246.00
73.9285 249.00
73.9937 283.00
74.0589 271.00
74.1241 288.00
74.1893 277.00
74.2545 289.00
74.3197 267.00
74.3849 260.00
74.4501 258.00
74.5153 270.00
74.5805 240.00
74.6457 244.00
74.7109 231.00
74.7761 266.00
74.8413 273.00
74.9065 282.00
74.9717 226.00
75.0369 235.00
75.1021 284.00
75.1673 276.00
75.2325 232.00
75.2977 261.00
75.3629 265.00
75.4281 276.00
75.4933 262.00
75.5585 238.00
75.6237 256.00
75.6889 242.00
75.7541 282.00
75.8193 304.00
75.8845 288.00
75.9497 265.00
76.0149 280.00
76.0801 285.00
76.1452 271.00
76.2104 272.00
76.2756 260.00
76.3409 282.00
76.406 279.00
76.4712 270.00
76.5364 308.00
76.6016 243.00
76.6668 242.00
76.732 248.00
76.7972 283.00
76.8624 277.00
76.9276 270.00
76.9928 259.00
77.058 245.00
77.1232 277.00
77.1884 268.00
77.2536 270.00
77.3188 307.00
77.384 278.00
77.4492 286.00
77.5144 291.00
77.5796 340.00
77.6448 297.00
77.71 275.00
77.7752 266.00
77.8404 250.00
77.9056 290.00
77.9708 270.00
78.036 283.00
78.1012 290.00
78.1664 290.00
78.2316 324.00
78.2968 300.00
78.362 295.00
78.4272 270.00
78.4924 276.00
78.5576 294.00
78.6228 300.00
78.688 256.00
78.7532 275.00
78.8184 228.00
78.8836 270.00
78.9488 265.00
79.014 245.00
79.0792 272.00
79.1444 256.00
79.2096 246.00
79.2748 266.00
79.34 215.00
79.4052 240.00
79.4704 258.00
79.5356 243.00
79.6008 250.00
79.666 268.00
79.7312 274.00
79.7964 291.00
79.8616 264.00
79.9268 238.00
79.992 326.00
80.0572 260.00
80.1224 286.00
80.1876 264.00
80.2528 282.00
80.318 257.00
80.3832 293.00
80.4484 263.00
80.5136 329.00
80.5788 316.00
80.644 303.00
80.7092 287.00
80.7744 305.00
80.8396 277.00
80.9048 272.00
80.9699 278.00
81.0351 286.00
81.1003 272.00
81.1655 285.00
81.2307 266.00
81.2959 260.00
81.3611 245.00
81.4263 258.00
81.4915 263.00
81.5567 276.00
81.6219 267.00
81.6871 223.00
81.7523 269.00
81.8175 229.00
81.8827 250.00
81.9479 284.00
82.0131 284.00
82.0783 228.00
82.1435 280.00
82.2087 236.00
82.2739 274.00
82.3391 267.00
82.4043 231.00
82.4695 276.00
82.5347 246.00
82.5999 228.00
82.6651 261.00
82.7303 245.00
82.7955 264.00
82.8607 297.00
82.9259 258.00
82.9911 266.00
83.0563 282.00
83.1215 265.00
83.1867 270.00
83.2519 292.00
83.3171 266.00
83.3823 248.00
83.4475 277.00
83.5127 272.00
83.5779 289.00
83.6431 313.00
83.7083 310.00
83.7735 330.00
83.8387 328.00
83.9039 239.00
83.9691 288.00
84.0343 308.00
84.0995 271.00
84.1647 259.00
84.2299 275.00
84.2951 276.00
84.3603 263.00
84.4255 265.00
84.4907 273.00
84.5559 290.00
84.6211 284.00
84.6863 299.00
84.7515 237.00
84.8167 289.00
84.8819 289.00
84.9471 302.00
85.0123 290.00
85.0775 309.00
85.1427 326.00
85.2079 288.00
85.2731 287.00
85.3383 270.00
85.4035 274.00
85.4687 262.00
85.5339 243.00
85.5991 268.00
85.6643 272.00
85.7295 231.00
85.7946 259.00
85.8598 270.00
85.925 277.00
85.9903 275.00
86.0554 231.00
86.1206 272.00
86.1858 262.00
86.251 262.00
86.3162 233.00
86.3814 263.00
86.4466 257.00
86.5118 235.00
86.577 276.00
86.6422 235.00
86.7074 244.00
86.7726 235.00
86.8378 262.00
86.903 260.00
86.9682 231.00
87.0334 256.00
87.0986 258.00
87.1638 236.00
87.229 265.00
87.2942 267.00
87.3594 247.00
87.4246 238.00
87.4898 257.00
87.555 256.00
87.6202 285.00
87.6854 237.00
87.7506 269.00
87.8158 242.00
87.881 250.00
87.9462 244.00
88.0114 260.00
88.0766 270.00
88.1418 293.00
88.207 245.00
88.2722 216.00
88.3374 249.00
88.4026 236.00
88.4678 257.00
88.533 231.00
88.5982 249.00
88.6634 241.00
88.7286 238.00
88.7938 222.00
88.859 245.00
88.9242 249.00
88.9894 231.00
89.0546 236.00
89.1198 228.00
89.185 248.00
89.2502 261.00
89.3154 278.00
89.3806 212.00
89.4458 240.00
89.511 241.00
89.5762 229.00
89.6414 232.00
89.7066 247.00
89.7718 285.00
89.837 219.00
89.9022 237.00
89.9674 257.00
90.0326 259.00
90.0978 239.00
90.163 266.00
90.2282 242.00
90.2934 225.00
90.3586 219.00
90.4238 223.00
90.489 265.00
90.5542 247.00
90.6193 210.00
90.6845 222.00
90.7497 244.00
90.8149 202.00
90.8801 230.00
90.9453 228.00
91.0105 221.00
91.0757 238.00
91.1409 258.00
91.2061 206.00
91.2713 225.00
91.3365 234.00
91.4017 245.00
91.4669 211.00
91.5321 226.00
91.5973 260.00
91.6625 232.00
91.7277 262.00
91.7929 232.00
91.8581 237.00
91.9233 228.00
91.9885 234.00
92.0537 249.00
92.1189 218.00
92.1841 211.00
92.2493 194.00
92.3145 244.00
92.3797 228.00
92.4449 237.00
92.5101 258.00
92.5753 231.00
92.6405 221.00
92.7057 235.00
92.7709 237.00
92.8361 232.00
92.9013 215.00
92.9665 230.00
93.0317 261.00
93.0969 212.00
93.1621 198.00
93.2273 239.00
93.2925 197.00
93.3577 240.00
93.4229 232.00
93.4881 238.00
93.5533 237.00
93.6185 227.00
93.6837 221.00
93.7489 237.00
93.8141 210.00
93.8793 261.00
93.9445 240.00
94.0097 226.00
94.0749 236.00
94.1401 234.00
94.2053 236.00
94.2705 232.00
94.3357 238.00
94.4009 203.00
94.4661 218.00
94.5313 220.00
94.5965 228.00
94.6617 244.00
94.7269 224.00
94.7921 237.00
94.8573 244.00
94.9225 228.00
94.9877 242.00
95.0529 216.00
95.1181 236.00
95.1833 212.00
95.2485 223.00
95.3137 222.00
95.3789 242.00
95.444 239.00
95.5092 214.00
95.5744 229.00
95.6396 220.00
95.7048 204.00
95.77 230.00
95.8352 233.00
95.9004 249.00
95.9656 234.00
96.0308 213.00
96.096 239.00
96.1612 235.00
96.2264 232.00
96.2916 190.00
96.3568 216.00
96.422 248.00
96.4872 234.00
96.5524 229.00
96.6176 239.00
96.6828 249.00
96.748 236.00
96.8132 226.00
96.8784 217.00
96.9436 224.00
97.0088 234.00
97.074 236.00
97.1392 207.00
97.2044 216.00
97.2696 231.00
97.3348 236.00
97.4 224.00
97.4652 234.00
97.5304 248.00
97.5956 215.00
97.6608 215.00
97.726 235.00
97.7912 241.00
97.8564 216.00
97.9216 256.00
97.9868 187.00
98.052 212.00
98.1172 235.00
98.1824 203.00
98.2476 224.00
98.3128 214.00
98.378 238.00
98.4432 258.00
98.5084 227.00
98.5736 205.00
98.6388 239.00
98.704 215.00
98.7692 226.00
98.8344 217.00
98.8996 230.00
98.9648 222.00
99.03 230.00
99.0952 235.00
99.1604 210.00
99.2256 216.00
99.2908 245.00
99.356 224.00
99.4212 218.00
99.4864 231.00
99.5516 208.00
99.6168 228.00
99.682 195.00
99.7472 233.00
99.8124 243.00
99.8776 227.00
99.9428 229.00
100.008 209.00
100.073 224.00
100.095 214.00