File: data/xrd_creation/results/Na_285.xy
9.903433 2623.00
9.968632 2520.00
10.0338 2468.00
10.099 2602.00
10.1642 2472.00
10.2294 2599.00
10.2946 2420.00
10.3598 2418.00
10.425 2373.00
10.4902 2328.00
10.5554 2414.00
10.6206 2290.00
10.6858 2380.00
10.751 2296.00
10.8162 2282.00
10.8814 2261.00
10.9466 2249.00
11.0118 2181.00
11.077 2220.00
11.1422 2202.00
11.2074 2064.00
11.2726 2173.00
11.3378 2135.00
11.403 2083.00
11.4682 2053.00
11.5334 2177.00
11.5986 2015.00
11.6638 2056.00
11.729 2112.00
11.7942 2010.00
11.8594 2066.00
11.9246 1958.00
11.9898 2011.00
12.055 1903.00
12.1202 1831.00
12.1854 1899.00
12.2506 1848.00
12.3158 1823.00
12.381 1847.00
12.4462 1903.00
12.5114 1903.00
12.5766 1801.00
12.6418 1818.00
12.707 1764.00
12.7722 1713.00
12.8374 1837.00
12.9026 1734.00
12.9678 1740.00
13.033 1735.00
13.0982 1688.00
13.1634 1665.00
13.2286 1659.00
13.2938 1619.00
13.359 1644.00
13.4242 1648.00
13.4894 1622.00
13.5546 1640.00
13.6198 1579.00
13.685 1707.00
13.7502 1717.00
13.8154 1506.00
13.8805 1595.00
13.9457 1598.00
14.0109 1620.00
14.0761 1586.00
14.1413 1530.00
14.2065 1540.00
14.2717 1616.00
14.3369 1506.00
14.4021 1524.00
14.4673 1522.00
14.5325 1457.00
14.5977 1500.00
14.6629 1497.00
14.7281 1564.00
14.7933 1517.00
14.8585 1433.00
14.9237 1489.00
14.9889 1416.00
15.0541 1550.00
15.1193 1488.00
15.1845 1414.00
15.2497 1405.00
15.3149 1464.00
15.3801 1359.00
15.4453 1419.00
15.5105 1435.00
15.5757 1391.00
15.6409 1440.00
15.7061 1441.00
15.7713 1385.00
15.8365 1424.00
15.9017 1378.00
15.9669 1385.00
16.0321 1394.00
16.0973 1365.00
16.1625 1373.00
16.2277 1324.00
16.2929 1345.00
16.3581 1287.00
16.4233 1345.00
16.4885 1342.00
16.5537 1349.00
16.6189 1308.00
16.6841 1260.00
16.7493 1308.00
16.8145 1322.00
16.8797 1236.00
16.9449 1289.00
17.0101 1265.00
17.0753 1236.00
17.1405 1221.00
17.2057 1304.00
17.2709 1299.00
17.3361 1249.00
17.4013 1276.00
17.4665 1274.00
17.5317 1266.00
17.5969 1254.00
17.6621 1229.00
17.7273 1204.00
17.7925 1244.00
17.8577 1237.00
17.9229 1135.00
17.9881 1229.00
18.0533 1159.00
18.1185 1145.00
18.1837 1243.00
18.2489 1189.00
18.3141 1186.00
18.3793 1186.00
18.4445 1195.00
18.5097 1184.00
18.5749 1243.00
18.6401 1161.00
18.7052 1223.00
18.7704 1145.00
18.8356 1152.00
18.9008 1114.00
18.966 1124.00
19.0312 1145.00
19.0964 1159.00
19.1616 1081.00
19.2268 1137.00
19.292 1077.00
19.3572 1161.00
19.4224 1133.00
19.4876 1032.00
19.5528 1081.00
19.618 1083.00
19.6832 1046.00
19.7484 1119.00
19.8136 1134.00
19.8788 1116.00
19.944 1054.00
20.0092 1006.00
20.0744 1083.00
20.1396 1082.00
20.2048 1108.00
20.27 1053.00
20.3352 1013.00
20.4004 1095.00
20.4656 1103.00
20.5308 1076.00
20.596 1016.00
20.6612 1025.00
20.7264 1025.00
20.7916 1063.00
20.8568 1015.00
20.922 1057.00
20.9872 1020.00
21.0524 1035.00
21.1176 1011.00
21.1828 1021.00
21.248 976.00
21.3132 975.00
21.3784 1012.00
21.4436 1069.00
21.5088 969.00
21.574 1018.00
21.6392 1017.00
21.7044 986.00
21.7696 1024.00
21.8348 975.00
21.9 977.00
21.9652 1000.00
22.0304 953.00
22.0956 960.00
22.1608 951.00
22.226 978.00
22.2912 957.00
22.3564 940.00
22.4216 924.00
22.4868 922.00
22.552 961.00
22.6172 1007.00
22.6824 983.00
22.7476 903.00
22.8128 979.00
22.878 916.00
22.9432 896.00
23.0084 930.00
23.0736 913.00
23.1388 930.00
23.204 902.00
23.2692 902.00
23.3344 939.00
23.3996 951.00
23.4647 850.00
23.5299 903.00
23.5951 925.00
23.6603 899.00
23.7255 838.00
23.7907 874.00
23.8559 916.00
23.9211 897.00
23.9863 896.00
24.0515 874.00
24.1167 892.00
24.1819 878.00
24.2471 849.00
24.3123 897.00
24.3775 853.00
24.4427 863.00
24.5079 843.00
24.5731 849.00
24.6383 818.00
24.7035 834.00
24.7687 849.00
24.8339 839.00
24.8991 789.00
24.9643 824.00
25.0295 863.00
25.0947 853.00
25.1599 891.00
25.2251 843.00
25.2903 818.00
25.3555 800.00
25.4207 829.00
25.4859 859.00
25.5511 831.00
25.6163 822.00
25.6815 838.00
25.7467 817.00
25.8119 836.00
25.8771 798.00
25.9423 737.00
26.0075 806.00
26.0727 807.00
26.1379 783.00
26.2031 805.00
26.2683 829.00
26.3335 857.00
26.3987 755.00
26.4639 808.00
26.5291 801.00
26.5943 769.00
26.6595 780.00
26.7247 716.00
26.7899 801.00
26.8551 781.00
26.9203 761.00
26.9855 787.00
27.0507 785.00
27.1159 759.00
27.1811 786.00
27.2463 768.00
27.3115 787.00
27.3767 792.00
27.4419 833.00
27.5071 801.00
27.5723 803.00
27.6375 871.00
27.7027 987.00
27.7679 1328.00
27.8331 1494.00
27.8983 1079.00
27.9635 790.00
28.0287 795.00
28.0939 818.00
28.1591 776.00
28.2243 813.00
28.2894 781.00
28.3546 747.00
28.4198 732.00
28.485 741.00
28.5502 754.00
28.6154 758.00
28.6806 762.00
28.7458 769.00
28.811 733.00
28.8762 760.00
28.9414 728.00
29.0066 684.00
29.0718 731.00
29.137 702.00
29.2022 671.00
29.2674 708.00
29.3326 681.00
29.3978 743.00
29.463 753.00
29.5282 715.00
29.5934 760.00
29.6586 691.00
29.7238 708.00
29.789 712.00
29.8542 721.00
29.9194 714.00
29.9846 696.00
30.0498 690.00
30.115 683.00
30.1802 714.00
30.2454 726.00
30.3106 720.00
30.3758 657.00
30.441 760.00
30.5062 671.00
30.5714 693.00
30.6366 685.00
30.7018 682.00
30.767 685.00
30.8322 695.00
30.8974 660.00
30.9626 713.00
31.0278 681.00
31.093 648.00
31.1582 664.00
31.2234 632.00
31.2886 665.00
31.3538 658.00
31.419 669.00
31.4842 683.00
31.5494 726.00
31.6146 802.00
31.6798 740.00
31.745 700.00
31.8102 594.00
31.8754 661.00
31.9406 654.00
32.0058 675.00
32.071 625.00
32.1362 659.00
32.2014 664.00
32.2666 646.00
32.3318 671.00
32.397 625.00
32.4622 650.00
32.5274 768.00
32.5926 791.00
32.6578 705.00
32.723 609.00
32.7882 641.00
32.8534 610.00
32.9186 604.00
32.9838 615.00
33.0489 583.00
33.1141 580.00
33.1793 588.00
33.2445 585.00
33.3097 603.00
33.3749 564.00
33.4401 599.00
33.5053 592.00
33.5705 556.00
33.6357 599.00
33.7009 621.00
33.7661 572.00
33.8313 558.00
33.8965 544.00
33.9617 569.00
34.0269 518.00
34.0921 553.00
34.1573 551.00
34.2225 508.00
34.2877 533.00
34.3529 575.00
34.4181 559.00
34.4833 518.00
34.5485 540.00
34.6137 536.00
34.6789 532.00
34.7441 595.00
34.8093 594.00
34.8745 576.00
34.9397 543.00
35.0049 552.00
35.0701 519.00
35.1353 558.00
35.2005 513.00
35.2657 523.00
35.3309 550.00
35.3961 478.00
35.4613 565.00
35.5265 502.00
35.5917 498.00
35.6569 499.00
35.7221 526.00
35.7873 452.00
35.8525 511.00
35.9177 495.00
35.9829 491.00
36.0481 488.00
36.1133 497.00
36.1785 491.00
36.2437 500.00
36.3089 449.00
36.3741 449.00
36.4393 523.00
36.5045 519.00
36.5697 443.00
36.6349 408.00
36.7001 477.00
36.7653 495.00
36.8305 489.00
36.8957 476.00
36.9609 474.00
37.0261 494.00
37.0913 457.00
37.1565 438.00
37.2217 441.00
37.2869 467.00
37.3521 484.00
37.4173 439.00
37.4825 449.00
37.5477 483.00
37.6129 483.00
37.6781 470.00
37.7433 480.00
37.8085 437.00
37.8736 434.00
37.9388 409.00
38.004 405.00
38.0692 425.00
38.1344 469.00
38.1996 481.00
38.2648 455.00
38.33 433.00
38.3952 458.00
38.4604 416.00
38.5256 466.00
38.5908 451.00
38.656 436.00
38.7212 420.00
38.7864 444.00
38.8516 441.00
38.9168 420.00
38.982 395.00
39.0472 430.00
39.1124 420.00
39.1776 448.00
39.2428 423.00
39.308 399.00
39.3732 417.00
39.4384 439.00
39.5036 417.00
39.5688 418.00
39.634 377.00
39.6992 392.00
39.7644 417.00
39.8296 393.00
39.8948 419.00
39.96 414.00
40.0252 400.00
40.0904 394.00
40.1556 392.00
40.2208 402.00
40.286 416.00
40.3512 398.00
40.4164 418.00
40.4816 374.00
40.5468 419.00
40.612 405.00
40.6772 401.00
40.7424 418.00
40.8076 372.00
40.8728 452.00
40.938 420.00
41.0032 402.00
41.0684 397.00
41.1336 418.00
41.1988 352.00
41.264 385.00
41.3292 394.00
41.3944 403.00
41.4596 398.00
41.5248 393.00
41.59 406.00
41.6552 400.00
41.7204 376.00
41.7856 429.00
41.8508 366.00
41.916 343.00
41.9812 383.00
42.0464 388.00
42.1116 367.00
42.1768 395.00
42.242 399.00
42.3072 382.00
42.3724 392.00
42.4376 405.00
42.5028 398.00
42.568 404.00
42.6332 379.00
42.6983 390.00
42.7635 382.00
42.8287 382.00
42.8939 369.00
42.9591 379.00
43.0243 367.00
43.0895 429.00
43.1547 401.00
43.2199 380.00
43.2851 370.00
43.3503 357.00
43.4155 396.00
43.4807 355.00
43.5459 372.00
43.6111 382.00
43.6763 364.00
43.7415 355.00
43.8067 409.00
43.8719 338.00
43.9371 363.00
44.0023 365.00
44.0675 355.00
44.1327 357.00
44.1979 383.00
44.2631 385.00
44.3283 368.00
44.3935 376.00
44.4587 357.00
44.5239 368.00
44.5891 389.00
44.6543 348.00
44.7195 379.00
44.7847 376.00
44.8499 343.00
44.9151 316.00
44.9803 405.00
45.0455 412.00
45.1107 373.00
45.1759 341.00
45.2411 365.00
45.3063 350.00
45.3715 377.00
45.4367 363.00
45.5019 344.00
45.5671 371.00
45.6323 372.00
45.6975 346.00
45.7627 340.00
45.8279 405.00
45.8931 393.00
45.9583 382.00
46.0235 450.00
46.0887 542.00
46.1539 461.00
46.2191 443.00
46.2843 378.00
46.3495 368.00
46.4147 369.00
46.4799 325.00
46.5451 356.00
46.6103 370.00
46.6755 373.00
46.7407 412.00
46.8059 400.00
46.8711 374.00
46.9363 372.00
47.0015 333.00
47.0667 357.00
47.1319 312.00
47.1971 360.00
47.2623 359.00
47.3275 406.00
47.3927 348.00
47.4579 333.00
47.523 344.00
47.5882 363.00
47.6534 336.00
47.7186 336.00
47.7838 362.00
47.849 359.00
47.9142 360.00
47.9794 329.00
48.0446 370.00
48.1098 350.00
48.175 316.00
48.2402 329.00
48.3054 360.00
48.3706 315.00
48.4358 328.00
48.501 340.00
48.5662 364.00
48.6314 325.00
48.6966 310.00
48.7618 332.00
48.827 329.00
48.8922 310.00
48.9574 331.00
49.0226 336.00
49.0878 339.00
49.153 345.00
49.2182 351.00
49.2834 322.00
49.3486 353.00
49.4138 315.00
49.479 327.00
49.5442 342.00
49.6094 330.00
49.6746 324.00
49.7398 296.00
49.805 331.00
49.8702 324.00
49.9354 314.00
50.0006 319.00
50.0658 340.00
50.131 363.00
50.1962 311.00
50.2614 352.00
50.3266 318.00
50.3918 304.00
50.457 340.00
50.5222 319.00
50.5874 310.00
50.6526 301.00
50.7178 320.00
50.783 316.00
50.8482 326.00
50.9134 301.00
50.9786 341.00
51.0438 337.00
51.109 359.00
51.1742 320.00
51.2394 336.00
51.3046 307.00
51.3698 368.00
51.435 310.00
51.5002 281.00
51.5654 318.00
51.6306 343.00
51.6958 356.00
51.761 337.00
51.8262 334.00
51.8914 301.00
51.9566 290.00
52.0218 320.00
52.087 319.00
52.1522 282.00
52.2174 300.00
52.2826 320.00
52.3477 349.00
52.4129 335.00
52.4781 290.00
52.5433 307.00
52.6085 326.00
52.6737 299.00
52.7389 305.00
52.8041 356.00
52.8693 286.00
52.9345 338.00
52.9997 312.00
53.0649 320.00
53.1301 266.00
53.1953 312.00
53.2605 284.00
53.3257 312.00
53.3909 325.00
53.4561 321.00
53.5213 272.00
53.5865 327.00
53.6517 303.00
53.7169 318.00
53.7821 344.00
53.8473 298.00
53.9125 309.00
53.9777 299.00
54.0429 336.00
54.1081 388.00
54.1733 376.00
54.2385 348.00
54.3037 348.00
54.3689 308.00
54.4341 335.00
54.4993 294.00
54.5645 309.00
54.6297 258.00
54.6949 290.00
54.7601 286.00
54.8253 316.00
54.8905 308.00
54.9557 312.00
55.0209 318.00
55.0861 323.00
55.1513 332.00
55.2165 321.00
55.2817 364.00
55.3469 413.00
55.4121 392.00
55.4773 400.00
55.5425 362.00
55.6077 349.00
55.6729 279.00
55.7381 316.00
55.8033 318.00
55.8685 319.00
55.9337 338.00
55.9989 314.00
56.0641 271.00
56.1293 295.00
56.1945 290.00
56.2597 298.00
56.3249 300.00
56.3901 283.00
56.4553 298.00
56.5205 281.00
56.5857 259.00
56.6509 247.00
56.7161 327.00
56.7813 290.00
56.8465 318.00
56.9117 292.00
56.9769 270.00
57.042 260.00
57.1073 284.00
57.1724 274.00
57.2376 246.00
57.3028 324.00
57.368 329.00
57.4332 306.00
57.4984 294.00
57.5636 335.00
57.6288 318.00
57.694 305.00
57.7592 278.00
57.8244 287.00
57.8896 288.00
57.9548 285.00
58.02 288.00
58.0852 287.00
58.1504 240.00
58.2156 275.00
58.2808 308.00
58.346 288.00
58.4112 259.00
58.4764 246.00
58.5416 259.00
58.6068 233.00
58.672 228.00
58.7372 261.00
58.8024 238.00
58.8676 260.00
58.9328 282.00
58.998 275.00
59.0632 284.00
59.1284 258.00
59.1936 232.00
59.2588 256.00
59.324 283.00
59.3892 266.00
59.4544 287.00
59.5196 264.00
59.5848 269.00
59.65 250.00
59.7152 294.00
59.7804 289.00
59.8456 306.00
59.9108 257.00
59.976 241.00
60.0412 264.00
60.1064 246.00
60.1716 233.00
60.2368 246.00
60.302 245.00
60.3672 280.00
60.4324 244.00
60.4976 261.00
60.5628 243.00
60.628 247.00
60.6932 285.00
60.7584 256.00
60.8236 272.00
60.8888 246.00
60.954 265.00
61.0192 222.00
61.0844 268.00
61.1496 229.00
61.2148 241.00
61.28 229.00
61.3452 269.00
61.4104 273.00
61.4756 269.00
61.5408 257.00
61.606 248.00
61.6712 243.00
61.7364 260.00
61.8016 247.00
61.8667 275.00
61.932 219.00
61.9971 269.00
62.0623 283.00
62.1275 267.00
62.1927 277.00
62.2579 268.00
62.3231 278.00
62.3883 239.00
62.4535 278.00
62.5187 214.00
62.5839 270.00
62.6491 258.00
62.7143 283.00
62.7795 256.00
62.8447 256.00
62.9099 266.00
62.9751 262.00
63.0403 237.00
63.1055 259.00
63.1707 280.00
63.2359 271.00
63.3011 265.00
63.3663 260.00
63.4315 263.00
63.4967 257.00
63.5619 265.00
63.6271 256.00
63.6923 269.00
63.7575 234.00
63.8227 257.00
63.8879 258.00
63.9531 225.00
64.0183 227.00
64.0835 236.00
64.1487 266.00
64.2139 256.00
64.2791 222.00
64.3443 220.00
64.4095 225.00
64.4747 258.00
64.5399 269.00
64.6051 280.00
64.6703 230.00
64.7355 225.00
64.8007 223.00
64.8659 212.00
64.9311 263.00
64.9963 239.00
65.0615 256.00
65.1267 242.00
65.1919 260.00
65.2571 218.00
65.3223 243.00
65.3875 245.00
65.4527 269.00
65.5179 234.00
65.5831 258.00
65.6483 240.00
65.7135 187.00
65.7787 231.00
65.8439 243.00
65.9091 264.00
65.9743 258.00
66.0395 244.00
66.1047 234.00
66.1699 263.00
66.2351 237.00
66.3003 257.00
66.3655 275.00
66.4307 232.00
66.4959 250.00
66.561 243.00
66.6263 233.00
66.6915 230.00
66.7566 217.00
66.8218 215.00
66.887 237.00
66.9522 211.00
67.0174 249.00
67.0826 250.00
67.1478 210.00
67.213 228.00
67.2782 197.00
67.3434 231.00
67.4086 217.00
67.4738 230.00
67.539 235.00
67.6042 223.00
67.6694 241.00
67.7346 244.00
67.7998 220.00
67.865 224.00
67.9302 260.00
67.9954 267.00
68.0606 227.00
68.1258 244.00
68.191 217.00
68.2562 247.00
68.3214 247.00
68.3866 237.00
68.4518 266.00
68.517 220.00
68.5822 242.00
68.6474 247.00
68.7126 265.00
68.7778 213.00
68.843 207.00
68.9082 247.00
68.9734 211.00
69.0386 193.00
69.1038 234.00
69.169 216.00
69.2342 234.00
69.2994 213.00
69.3646 256.00
69.4298 266.00
69.495 234.00
69.5602 228.00
69.6254 257.00
69.6906 233.00
69.7558 228.00
69.821 216.00
69.8862 220.00
69.9514 230.00
70.0166 217.00
70.0818 238.00
70.147 221.00
70.2122 196.00
70.2774 236.00
70.3426 202.00
70.4078 240.00
70.473 204.00
70.5382 231.00
70.6034 230.00
70.6686 214.00
70.7338 237.00
70.799 214.00
70.8642 260.00
70.9294 216.00
70.9946 211.00
71.0598 236.00
71.125 240.00
71.1902 231.00
71.2554 265.00
71.3205 236.00
71.3858 231.00
71.451 212.00
71.5162 226.00
71.5813 203.00
71.6465 195.00
71.7117 229.00
71.7769 241.00
71.8421 226.00
71.9073 257.00
71.9725 229.00
72.0377 227.00
72.1029 225.00
72.1681 230.00
72.2333 198.00
72.2985 217.00
72.3637 226.00
72.4289 221.00
72.4941 220.00
72.5593 222.00
72.6245 215.00
72.6897 209.00
72.7549 238.00
72.8201 267.00
72.8853 205.00
72.9505 245.00
73.0157 224.00
73.0809 251.00
73.1461 245.00
73.2113 215.00
73.2765 245.00
73.3417 236.00
73.4069 242.00
73.4721 231.00
73.5373 221.00
73.6025 265.00
73.6677 231.00
73.7329 248.00
73.7981 237.00
73.8633 233.00
73.9285 223.00
73.9937 216.00
74.0589 204.00
74.1241 257.00
74.1893 228.00
74.2545 244.00
74.3197 250.00
74.3849 234.00
74.4501 296.00
74.5153 227.00
74.5805 244.00
74.6457 249.00
74.7109 247.00
74.7761 226.00
74.8413 249.00
74.9065 228.00
74.9717 226.00
75.0369 235.00
75.1021 195.00
75.1673 192.00
75.2325 217.00
75.2977 216.00
75.3629 242.00
75.4281 274.00
75.4933 228.00
75.5585 232.00
75.6237 222.00
75.6889 247.00
75.7541 239.00
75.8193 256.00
75.8845 233.00
75.9497 230.00
76.0149 216.00
76.0801 239.00
76.1452 268.00
76.2104 181.00
76.2756 232.00
76.3409 214.00
76.406 234.00
76.4712 267.00
76.5364 200.00
76.6016 241.00
76.6668 238.00
76.732 258.00
76.7972 249.00
76.8624 213.00
76.9276 264.00
76.9928 265.00
77.058 244.00
77.1232 260.00
77.1884 241.00
77.2536 262.00
77.3188 260.00
77.384 238.00
77.4492 221.00
77.5144 259.00
77.5796 263.00
77.6448 227.00
77.71 229.00
77.7752 233.00
77.8404 261.00
77.9056 279.00
77.9708 228.00
78.036 238.00
78.1012 202.00
78.1664 239.00
78.2316 240.00
78.2968 227.00
78.362 247.00
78.4272 267.00
78.4924 202.00
78.5576 236.00
78.6228 269.00
78.688 218.00
78.7532 222.00
78.8184 257.00
78.8836 234.00
78.9488 229.00
79.014 246.00
79.0792 250.00
79.1444 248.00
79.2096 277.00
79.2748 234.00
79.34 249.00
79.4052 229.00
79.4704 237.00
79.5356 225.00
79.6008 242.00
79.666 294.00
79.7312 257.00
79.7964 230.00
79.8616 221.00
79.9268 258.00
79.992 260.00
80.0572 274.00
80.1224 248.00
80.1876 242.00
80.2528 244.00
80.318 248.00
80.3832 208.00
80.4484 219.00
80.5136 239.00
80.5788 228.00
80.644 227.00
80.7092 231.00
80.7744 265.00
80.8396 270.00
80.9048 243.00
80.9699 266.00
81.0351 280.00
81.1003 271.00
81.1655 273.00
81.2307 231.00
81.2959 236.00
81.3611 256.00
81.4263 257.00
81.4915 263.00
81.5567 238.00
81.6219 248.00
81.6871 232.00
81.7523 244.00
81.8175 263.00
81.8827 258.00
81.9479 232.00
82.0131 230.00
82.0783 222.00
82.1435 228.00
82.2087 265.00
82.2739 247.00
82.3391 249.00
82.4043 202.00
82.4695 270.00
82.5347 238.00
82.5999 214.00
82.6651 243.00
82.7303 239.00
82.7955 292.00
82.8607 258.00
82.9259 232.00
82.9911 242.00
83.0563 265.00
83.1215 273.00
83.1867 237.00
83.2519 246.00
83.3171 244.00
83.3823 271.00
83.4475 264.00
83.5127 264.00
83.5779 287.00
83.6431 207.00
83.7083 266.00
83.7735 265.00
83.8387 247.00
83.9039 262.00
83.9691 227.00
84.0343 215.00
84.0995 272.00
84.1647 262.00
84.2299 242.00
84.2951 239.00
84.3603 239.00
84.4255 275.00
84.4907 238.00
84.5559 234.00
84.6211 261.00
84.6863 257.00
84.7515 225.00
84.8167 271.00
84.8819 240.00
84.9471 239.00
85.0123 245.00
85.0775 243.00
85.1427 231.00
85.2079 228.00
85.2731 222.00
85.3383 261.00
85.4035 239.00
85.4687 200.00
85.5339 209.00
85.5991 247.00
85.6643 248.00
85.7295 248.00
85.7946 243.00
85.8598 227.00
85.925 248.00
85.9903 258.00
86.0554 222.00
86.1206 251.00
86.1858 232.00
86.251 208.00
86.3162 214.00
86.3814 234.00
86.4466 248.00
86.5118 247.00
86.577 233.00
86.6422 213.00
86.7074 221.00
86.7726 228.00
86.8378 248.00
86.903 244.00
86.9682 212.00
87.0334 221.00
87.0986 208.00
87.1638 228.00
87.229 217.00
87.2942 205.00
87.3594 219.00
87.4246 248.00
87.4898 237.00
87.555 215.00
87.6202 227.00
87.6854 223.00
87.7506 199.00
87.8158 230.00
87.881 209.00
87.9462 269.00
88.0114 244.00
88.0766 223.00
88.1418 220.00
88.207 202.00
88.2722 219.00
88.3374 245.00
88.4026 220.00
88.4678 231.00
88.533 207.00
88.5982 210.00
88.6634 231.00
88.7286 220.00
88.7938 228.00
88.859 190.00
88.9242 208.00
88.9894 210.00
89.0546 233.00
89.1198 215.00
89.185 211.00
89.2502 209.00
89.3154 208.00
89.3806 223.00
89.4458 220.00
89.511 221.00
89.5762 233.00
89.6414 237.00
89.7066 243.00
89.7718 228.00
89.837 206.00
89.9022 211.00
89.9674 218.00
90.0326 193.00
90.0978 203.00
90.163 225.00
90.2282 211.00
90.2934 211.00
90.3586 223.00
90.4238 199.00
90.489 229.00
90.5542 223.00
90.6193 224.00
90.6845 207.00
90.7497 204.00
90.8149 205.00
90.8801 236.00
90.9453 211.00
91.0105 201.00
91.0757 249.00
91.1409 178.00
91.2061 231.00
91.2713 224.00
91.3365 216.00
91.4017 211.00
91.4669 214.00
91.5321 216.00
91.5973 212.00
91.6625 212.00
91.7277 215.00
91.7929 194.00
91.8581 221.00
91.9233 226.00
91.9885 212.00
92.0537 217.00
92.1189 191.00
92.1841 208.00
92.2493 193.00
92.3145 224.00
92.3797 197.00
92.4449 190.00
92.5101 212.00
92.5753 181.00
92.6405 189.00
92.7057 213.00
92.7709 223.00
92.8361 210.00
92.9013 229.00
92.9665 189.00
93.0317 231.00
93.0969 178.00
93.1621 206.00
93.2273 204.00
93.2925 234.00
93.3577 211.00
93.4229 214.00
93.4881 211.00
93.5533 199.00
93.6185 192.00
93.6837 218.00
93.7489 224.00
93.8141 223.00
93.8793 200.00
93.9445 217.00
94.0097 226.00
94.0749 185.00
94.1401 205.00
94.2053 214.00
94.2705 209.00
94.3357 207.00
94.4009 249.00
94.4661 212.00
94.5313 185.00
94.5965 181.00
94.6617 213.00
94.7269 214.00
94.7921 181.00
94.8573 207.00
94.9225 211.00
94.9877 202.00
95.0529 206.00
95.1181 222.00
95.1833 201.00
95.2485 210.00
95.3137 206.00
95.3789 240.00
95.444 205.00
95.5092 229.00
95.5744 188.00
95.6396 207.00
95.7048 174.00
95.77 223.00
95.8352 189.00
95.9004 201.00
95.9656 230.00
96.0308 212.00
96.096 210.00
96.1612 206.00
96.2264 195.00
96.2916 206.00
96.3568 186.00
96.422 198.00
96.4872 229.00
96.5524 213.00
96.6176 197.00
96.6828 224.00
96.748 216.00
96.8132 213.00
96.8784 183.00
96.9436 232.00
97.0088 189.00
97.074 223.00
97.1392 197.00
97.2044 211.00
97.2696 212.00
97.3348 206.00
97.4 215.00
97.4652 204.00
97.5304 205.00
97.5956 221.00
97.6608 201.00
97.726 200.00
97.7912 188.00
97.8564 203.00
97.9216 231.00
97.9868 207.00
98.052 188.00
98.1172 203.00
98.1824 193.00
98.2476 215.00
98.3128 210.00
98.378 217.00
98.4432 196.00
98.5084 198.00
98.5736 206.00
98.6388 211.00
98.704 181.00
98.7692 192.00
98.8344 215.00
98.8996 190.00
98.9648 228.00
99.03 197.00
99.0952 198.00
99.1604 199.00
99.2256 182.00
99.2908 220.00
99.356 224.00
99.4212 213.00
99.4864 196.00
99.5516 188.00
99.6168 198.00
99.682 193.00
99.7472 178.00
99.8124 205.00
99.8776 221.00
99.9428 209.00
100.008 209.00
100.073 210.00
100.095 182.00