File: data/xrd_creation/results/Na_21.xy
9.903433 2615.00
9.968632 2636.00
10.0338 2618.00
10.099 2534.00
10.1642 2605.00
10.2294 2510.00
10.2946 2438.00
10.3598 2454.00
10.425 2457.00
10.4902 2461.00
10.5554 2395.00
10.6206 2357.00
10.6858 2404.00
10.751 2376.00
10.8162 2294.00
10.8814 2253.00
10.9466 2198.00
11.0118 2190.00
11.077 2121.00
11.1422 2172.00
11.2074 2153.00
11.2726 2122.00
11.3378 2120.00
11.403 2078.00
11.4682 2201.00
11.5334 2103.00
11.5986 2017.00
11.6638 2016.00
11.729 2008.00
11.7942 1959.00
11.8594 1979.00
11.9246 1930.00
11.9898 1971.00
12.055 1944.00
12.1202 1933.00
12.1854 1859.00
12.2506 1859.00
12.3158 1861.00
12.381 1834.00
12.4462 1756.00
12.5114 1699.00
12.5766 1788.00
12.6418 1740.00
12.707 1767.00
12.7722 1784.00
12.8374 1720.00
12.9026 1743.00
12.9678 1690.00
13.033 1715.00
13.0982 1620.00
13.1634 1753.00
13.2286 1658.00
13.2938 1605.00
13.359 1682.00
13.4242 1575.00
13.4894 1595.00
13.5546 1561.00
13.6198 1579.00
13.685 1498.00
13.7502 1518.00
13.8154 1565.00
13.8805 1580.00
13.9457 1562.00
14.0109 1470.00
14.0761 1614.00
14.1413 1534.00
14.2065 1519.00
14.2717 1447.00
14.3369 1508.00
14.4021 1551.00
14.4673 1507.00
14.5325 1435.00
14.5977 1530.00
14.6629 1524.00
14.7281 1489.00
14.7933 1458.00
14.8585 1405.00
14.9237 1371.00
14.9889 1478.00
15.0541 1369.00
15.1193 1382.00
15.1845 1399.00
15.2497 1394.00
15.3149 1365.00
15.3801 1396.00
15.4453 1373.00
15.5105 1417.00
15.5757 1324.00
15.6409 1356.00
15.7061 1402.00
15.7713 1289.00
15.8365 1314.00
15.9017 1359.00
15.9669 1328.00
16.0321 1306.00
16.0973 1284.00
16.1625 1368.00
16.2277 1350.00
16.2929 1291.00
16.3581 1279.00
16.4233 1311.00
16.4885 1295.00
16.5537 1372.00
16.6189 1334.00
16.6841 1353.00
16.7493 1510.00
16.8145 1603.00
16.8797 1581.00
16.9449 1505.00
17.0101 1500.00
17.0753 1355.00
17.1405 1416.00
17.2057 1393.00
17.2709 1290.00
17.3361 1185.00
17.4013 1233.00
17.4665 1215.00
17.5317 1218.00
17.5969 1238.00
17.6621 1243.00
17.7273 1177.00
17.7925 1234.00
17.8577 1350.00
17.9229 1322.00
17.9881 1375.00
18.0533 1340.00
18.1185 1249.00
18.1837 1181.00
18.2489 1194.00
18.3141 1219.00
18.3793 1134.00
18.4445 1207.00
18.5097 1163.00
18.5749 1179.00
18.6401 1138.00
18.7052 1130.00
18.7704 1120.00
18.8356 1070.00
18.9008 1105.00
18.966 1067.00
19.0312 1168.00
19.0964 1075.00
19.1616 1073.00
19.2268 1095.00
19.292 1054.00
19.3572 1116.00
19.4224 1009.00
19.4876 1076.00
19.5528 1031.00
19.618 1058.00
19.6832 1013.00
19.7484 1005.00
19.8136 1009.00
19.8788 1037.00
19.944 1028.00
20.0092 998.00
20.0744 1009.00
20.1396 1010.00
20.2048 959.00
20.27 988.00
20.3352 974.00
20.4004 984.00
20.4656 1038.00
20.5308 911.00
20.596 954.00
20.6612 1000.00
20.7264 950.00
20.7916 979.00
20.8568 944.00
20.922 948.00
20.9872 939.00
21.0524 978.00
21.1176 979.00
21.1828 956.00
21.248 992.00
21.3132 1011.00
21.3784 937.00
21.4436 932.00
21.5088 905.00
21.574 936.00
21.6392 969.00
21.7044 937.00
21.7696 970.00
21.8348 945.00
21.9 944.00
21.9652 1066.00
22.0304 1146.00
22.0956 1358.00
22.1608 1504.00
22.226 1589.00
22.2912 1461.00
22.3564 1175.00
22.4216 1168.00
22.4868 1181.00
22.552 1028.00
22.6172 935.00
22.6824 976.00
22.7476 840.00
22.8128 926.00
22.878 866.00
22.9432 848.00
23.0084 908.00
23.0736 865.00
23.1388 1016.00
23.204 1090.00
23.2692 1172.00
23.3344 1129.00
23.3996 1086.00
23.4647 951.00
23.5299 946.00
23.5951 942.00
23.6603 836.00
23.7255 863.00
23.7907 864.00
23.8559 863.00
23.9211 828.00
23.9863 829.00
24.0515 812.00
24.1167 829.00
24.1819 822.00
24.2471 807.00
24.3123 829.00
24.3775 856.00
24.4427 873.00
24.5079 810.00
24.5731 807.00
24.6383 824.00
24.7035 772.00
24.7687 853.00
24.8339 746.00
24.8991 821.00
24.9643 815.00
25.0295 784.00
25.0947 827.00
25.1599 757.00
25.2251 763.00
25.2903 806.00
25.3555 770.00
25.4207 886.00
25.4859 911.00
25.5511 874.00
25.6163 1033.00
25.6815 1166.00
25.7467 1304.00
25.8119 1205.00
25.8771 1001.00
25.9423 942.00
26.0075 880.00
26.0727 870.00
26.1379 843.00
26.2031 744.00
26.2683 718.00
26.3335 790.00
26.3987 828.00
26.4639 883.00
26.5291 983.00
26.5943 922.00
26.6595 846.00
26.7247 908.00
26.7899 823.00
26.8551 786.00
26.9203 738.00
26.9855 747.00
27.0507 687.00
27.1159 770.00
27.1811 737.00
27.2463 739.00
27.3115 733.00
27.3767 707.00
27.4419 729.00
27.5071 771.00
27.5723 716.00
27.6375 746.00
27.7027 774.00
27.7679 735.00
27.8331 762.00
27.8983 761.00
27.9635 771.00
28.0287 743.00
28.0939 729.00
28.1591 702.00
28.2243 762.00
28.2894 762.00
28.3546 822.00
28.4198 948.00
28.485 1003.00
28.5502 1080.00
28.6154 1086.00
28.6806 1088.00
28.7458 1166.00
28.811 1043.00
28.8762 911.00
28.9414 811.00
29.0066 836.00
29.0718 795.00
29.137 782.00
29.2022 780.00
29.2674 809.00
29.3326 844.00
29.3978 940.00
29.463 1278.00
29.5282 1563.00
29.5934 1501.00
29.6586 1320.00
29.7238 1055.00
29.789 995.00
29.8542 1092.00
29.9194 885.00
29.9846 818.00
30.0498 795.00
30.115 895.00
30.1802 939.00
30.2454 953.00
30.3106 877.00
30.3758 778.00
30.441 750.00
30.5062 759.00
30.5714 770.00
30.6366 734.00
30.7018 725.00
30.767 729.00
30.8322 749.00
30.8974 757.00
30.9626 677.00
31.0278 683.00
31.093 634.00
31.1582 633.00
31.2234 642.00
31.2886 642.00
31.3538 616.00
31.419 647.00
31.4842 625.00
31.5494 650.00
31.6146 633.00
31.6798 668.00
31.745 590.00
31.8102 623.00
31.8754 650.00
31.9406 715.00
32.0058 867.00
32.071 917.00
32.1362 964.00
32.2014 844.00
32.2666 834.00
32.3318 774.00
32.397 744.00
32.4622 668.00
32.5274 615.00
32.5926 626.00
32.6578 595.00
32.723 609.00
32.7882 616.00
32.8534 626.00
32.9186 580.00
32.9838 658.00
33.0489 705.00
33.1141 816.00
33.1793 1051.00
33.2445 1163.00
33.3097 1080.00
33.3749 809.00
33.4401 798.00
33.5053 851.00
33.5705 730.00
33.6357 695.00
33.7009 641.00
33.7661 675.00
33.8313 648.00
33.8965 615.00
33.9617 676.00
34.0269 626.00
34.0921 704.00
34.1573 703.00
34.2225 760.00
34.2877 836.00
34.3529 811.00
34.4181 757.00
34.4833 673.00
34.5485 691.00
34.6137 624.00
34.6789 615.00
34.7441 645.00
34.8093 624.00
34.8745 609.00
34.9397 632.00
35.0049 863.00
35.0701 1367.00
35.1353 1183.00
35.2005 1028.00
35.2657 823.00
35.3309 936.00
35.3961 988.00
35.4613 1189.00
35.5265 1271.00
35.5917 1265.00
35.6569 1079.00
35.7221 901.00
35.7873 795.00
35.8525 695.00
35.9177 668.00
35.9829 591.00
36.0481 533.00
36.1133 568.00
36.1785 509.00
36.2437 501.00
36.3089 554.00
36.3741 549.00
36.4393 556.00
36.5045 534.00
36.5697 534.00
36.6349 509.00
36.7001 601.00
36.7653 508.00
36.8305 527.00
36.8957 555.00
36.9609 597.00
37.0261 598.00
37.0913 587.00
37.1565 669.00
37.2217 679.00
37.2869 657.00
37.3521 635.00
37.4173 593.00
37.4825 603.00
37.5477 505.00
37.6129 700.00
37.6781 698.00
37.7433 746.00
37.8085 660.00
37.8736 642.00
37.9388 599.00
38.004 570.00
38.0692 551.00
38.1344 525.00
38.1996 514.00
38.2648 470.00
38.33 522.00
38.3952 590.00
38.4604 623.00
38.5256 612.00
38.5908 602.00
38.656 563.00
38.7212 510.00
38.7864 544.00
38.8516 528.00
38.9168 533.00
38.982 507.00
39.0472 467.00
39.1124 536.00
39.1776 492.00
39.2428 498.00
39.308 490.00
39.3732 525.00
39.4384 552.00
39.5036 457.00
39.5688 496.00
39.634 516.00
39.6992 484.00
39.7644 531.00
39.8296 443.00
39.8948 453.00
39.96 484.00
40.0252 471.00
40.0904 466.00
40.1556 474.00
40.2208 468.00
40.286 508.00
40.3512 474.00
40.4164 454.00
40.4816 471.00
40.5468 525.00
40.612 431.00
40.6772 498.00
40.7424 499.00
40.8076 448.00
40.8728 444.00
40.938 503.00
41.0032 484.00
41.0684 481.00
41.1336 561.00
41.1988 494.00
41.264 481.00
41.3292 502.00
41.3944 565.00
41.4596 538.00
41.5248 611.00
41.59 593.00
41.6552 646.00
41.7204 672.00
41.7856 661.00
41.8508 654.00
41.916 647.00
41.9812 602.00
42.0464 497.00
42.1116 540.00
42.1768 501.00
42.242 490.00
42.3072 438.00
42.3724 508.00
42.4376 437.00
42.5028 488.00
42.568 511.00
42.6332 503.00
42.6983 507.00
42.7635 540.00
42.8287 534.00
42.8939 557.00
42.9591 555.00
43.0243 559.00
43.0895 538.00
43.1547 583.00
43.2199 658.00
43.2851 782.00
43.3503 728.00
43.4155 690.00
43.4807 587.00
43.5459 576.00
43.6111 607.00
43.6763 718.00
43.7415 813.00
43.8067 839.00
43.8719 882.00
43.9371 712.00
44.0023 683.00
44.0675 567.00
44.1327 557.00
44.1979 513.00
44.2631 486.00
44.3283 449.00
44.3935 517.00
44.4587 482.00
44.5239 502.00
44.5891 442.00
44.6543 510.00
44.7195 461.00
44.7847 614.00
44.8499 695.00
44.9151 811.00
44.9803 777.00
45.0455 710.00
45.1107 662.00
45.1759 593.00
45.2411 562.00
45.3063 567.00
45.3715 503.00
45.4367 519.00
45.5019 479.00
45.5671 539.00
45.6323 513.00
45.6975 519.00
45.7627 559.00
45.8279 634.00
45.8931 608.00
45.9583 670.00
46.0235 579.00
46.0887 590.00
46.1539 580.00
46.2191 515.00
46.2843 619.00
46.3495 587.00
46.4147 582.00
46.4799 558.00
46.5451 503.00
46.6103 555.00
46.6755 480.00
46.7407 471.00
46.8059 461.00
46.8711 475.00
46.9363 456.00
47.0015 418.00
47.0667 502.00
47.1319 466.00
47.1971 479.00
47.2623 500.00
47.3275 465.00
47.3927 477.00
47.4579 482.00
47.523 499.00
47.5882 463.00
47.6534 489.00
47.7186 468.00
47.7838 437.00
47.849 440.00
47.9142 443.00
47.9794 428.00
48.0446 436.00
48.1098 519.00
48.175 455.00
48.2402 500.00
48.3054 456.00
48.3706 455.00
48.4358 413.00
48.501 422.00
48.5662 490.00
48.6314 450.00
48.6966 448.00
48.7618 425.00
48.827 413.00
48.8922 428.00
48.9574 452.00
49.0226 434.00
49.0878 510.00
49.153 505.00
49.2182 445.00
49.2834 434.00
49.3486 433.00
49.4138 467.00
49.479 409.00
49.5442 465.00
49.6094 459.00
49.6746 492.00
49.7398 536.00
49.805 584.00
49.8702 579.00
49.9354 568.00
50.0006 488.00
50.0658 487.00
50.131 455.00
50.1962 497.00
50.2614 502.00
50.3266 478.00
50.3918 470.00
50.457 452.00
50.5222 474.00
50.5874 408.00
50.6526 440.00
50.7178 394.00
50.783 419.00
50.8482 428.00
50.9134 419.00
50.9786 413.00
51.0438 418.00
51.109 435.00
51.1742 404.00
51.2394 397.00
51.3046 427.00
51.3698 455.00
51.435 416.00
51.5002 426.00
51.5654 391.00
51.6306 395.00
51.6958 349.00
51.761 409.00
51.8262 433.00
51.8914 435.00
51.9566 434.00
52.0218 447.00
52.087 430.00
52.1522 570.00
52.2174 503.00
52.2826 466.00
52.3477 516.00
52.4129 566.00
52.4781 651.00
52.5433 603.00
52.6085 586.00
52.6737 527.00
52.7389 537.00
52.8041 442.00
52.8693 453.00
52.9345 455.00
52.9997 427.00
53.0649 410.00
53.1301 380.00
53.1953 388.00
53.2605 409.00
53.3257 393.00
53.3909 411.00
53.4561 382.00
53.5213 399.00
53.5865 409.00
53.6517 365.00
53.7169 419.00
53.7821 447.00
53.8473 400.00
53.9125 394.00
53.9777 370.00
54.0429 398.00
54.1081 386.00
54.1733 415.00
54.2385 385.00
54.3037 392.00
54.3689 413.00
54.4341 412.00
54.4993 400.00
54.5645 414.00
54.6297 431.00
54.6949 491.00
54.7601 547.00
54.8253 553.00
54.8905 498.00
54.9557 550.00
55.0209 480.00
55.0861 417.00
55.1513 482.00
55.2165 476.00
55.2817 469.00
55.3469 415.00
55.4121 411.00
55.4773 427.00
55.5425 405.00
55.6077 412.00
55.6729 441.00
55.7381 405.00
55.8033 456.00
55.8685 454.00
55.9337 474.00
55.9989 465.00
56.0641 520.00
56.1293 467.00
56.1945 471.00
56.2597 449.00
56.3249 410.00
56.3901 414.00
56.4553 385.00
56.5205 422.00
56.5857 371.00
56.6509 417.00
56.7161 395.00
56.7813 419.00
56.8465 418.00
56.9117 400.00
56.9769 411.00
57.042 402.00
57.1073 401.00
57.1724 413.00
57.2376 405.00
57.3028 477.00
57.368 797.00
57.4332 1257.00
57.4984 1153.00
57.5636 964.00
57.6288 996.00
57.694 950.00
57.7592 668.00
57.8244 664.00
57.8896 552.00
57.9548 449.00
58.02 438.00
58.0852 396.00
58.1504 361.00
58.2156 353.00
58.2808 389.00
58.346 411.00
58.4112 357.00
58.4764 360.00
58.5416 379.00
58.6068 451.00
58.672 389.00
58.7372 427.00
58.8024 378.00
58.8676 406.00
58.9328 419.00
58.998 442.00
59.0632 427.00
59.1284 419.00
59.1936 386.00
59.2588 365.00
59.324 392.00
59.3892 391.00
59.4544 403.00
59.5196 416.00
59.5848 413.00
59.65 380.00
59.7152 426.00
59.7804 397.00
59.8456 390.00
59.9108 394.00
59.976 427.00
60.0412 380.00
60.1064 402.00
60.1716 437.00
60.2368 437.00
60.302 434.00
60.3672 441.00
60.4324 470.00
60.4976 455.00
60.5628 429.00
60.628 380.00
60.6932 389.00
60.7584 365.00
60.8236 383.00
60.8888 382.00
60.954 392.00
61.0192 390.00
61.0844 370.00
61.1496 455.00
61.2148 722.00
61.28 761.00
61.3452 760.00
61.4104 680.00
61.4756 815.00
61.5408 551.00
61.606 460.00
61.6712 521.00
61.7364 407.00
61.8016 483.00
61.8667 432.00
61.932 480.00
61.9971 488.00
62.0623 504.00
62.1275 486.00
62.1927 407.00
62.2579 423.00
62.3231 431.00
62.3883 390.00
62.4535 406.00
62.5187 426.00
62.5839 382.00
62.6491 416.00
62.7143 425.00
62.7795 365.00
62.8447 386.00
62.9099 373.00
62.9751 386.00
63.0403 334.00
63.1055 367.00
63.1707 353.00
63.2359 361.00
63.3011 406.00
63.3663 362.00
63.4315 357.00
63.4967 396.00
63.5619 341.00
63.6271 347.00
63.6923 366.00
63.7575 354.00
63.8227 353.00
63.8879 370.00
63.9531 337.00
64.0183 317.00
64.0835 328.00
64.1487 395.00
64.2139 408.00
64.2791 349.00
64.3443 399.00
64.4095 396.00
64.4747 399.00
64.5399 364.00
64.6051 338.00
64.6703 365.00
64.7355 381.00
64.8007 305.00
64.8659 300.00
64.9311 330.00
64.9963 351.00
65.0615 379.00
65.1267 343.00
65.1919 337.00
65.2571 367.00
65.3223 344.00
65.3875 341.00
65.4527 361.00
65.5179 307.00
65.5831 323.00
65.6483 362.00
65.7135 370.00
65.7787 346.00
65.8439 356.00
65.9091 360.00
65.9743 351.00
66.0395 351.00
66.1047 378.00
66.1699 367.00
66.2351 375.00
66.3003 387.00
66.3655 438.00
66.4307 495.00
66.4959 531.00
66.561 558.00
66.6263 564.00
66.6915 552.00
66.7566 478.00
66.8218 440.00
66.887 435.00
66.9522 365.00
67.0174 363.00
67.0826 361.00
67.1478 368.00
67.213 348.00
67.2782 356.00
67.3434 337.00
67.4086 329.00
67.4738 346.00
67.539 331.00
67.6042 369.00
67.6694 351.00
67.7346 389.00
67.7998 428.00
67.865 390.00
67.9302 374.00
67.9954 403.00
68.0606 430.00
68.1258 455.00
68.191 438.00
68.2562 416.00
68.3214 526.00
68.3866 506.00
68.4518 388.00
68.517 440.00
68.5822 426.00
68.6474 365.00
68.7126 375.00
68.7778 389.00
68.843 384.00
68.9082 349.00
68.9734 379.00
69.0386 349.00
69.1038 385.00
69.169 375.00
69.2342 365.00
69.2994 324.00
69.3646 341.00
69.4298 343.00
69.495 374.00
69.5602 291.00
69.6254 337.00
69.6906 374.00
69.7558 358.00
69.821 380.00
69.8862 336.00
69.9514 422.00
70.0166 440.00
70.0818 413.00
70.147 448.00
70.2122 397.00
70.2774 408.00
70.3426 456.00
70.4078 381.00
70.473 419.00
70.5382 386.00
70.6034 363.00
70.6686 426.00
70.7338 419.00
70.799 396.00
70.8642 417.00
70.9294 356.00
70.9946 360.00
71.0598 374.00
71.125 320.00
71.1902 345.00
71.2554 318.00
71.3205 342.00
71.3858 342.00
71.451 356.00
71.5162 332.00
71.5813 330.00
71.6465 385.00
71.7117 338.00
71.7769 346.00
71.8421 324.00
71.9073 351.00
71.9725 335.00
72.0377 333.00
72.1029 350.00
72.1681 296.00
72.2333 381.00
72.2985 378.00
72.3637 428.00
72.4289 409.00
72.4941 326.00
72.5593 390.00
72.6245 332.00
72.6897 358.00
72.7549 374.00
72.8201 313.00
72.8853 343.00
72.9505 347.00
73.0157 358.00
73.0809 328.00
73.1461 345.00
73.2113 336.00
73.2765 375.00
73.3417 369.00
73.4069 360.00
73.4721 367.00
73.5373 378.00
73.6025 390.00
73.6677 355.00
73.7329 350.00
73.7981 363.00
73.8633 373.00
73.9285 395.00
73.9937 385.00
74.0589 395.00
74.1241 389.00
74.1893 380.00
74.2545 442.00
74.3197 448.00
74.3849 408.00
74.4501 415.00
74.5153 402.00
74.5805 366.00
74.6457 362.00
74.7109 362.00
74.7761 340.00
74.8413 392.00
74.9065 400.00
74.9717 371.00
75.0369 352.00
75.1021 375.00
75.1673 353.00
75.2325 365.00
75.2977 394.00
75.3629 345.00
75.4281 369.00
75.4933 339.00
75.5585 375.00
75.6237 360.00
75.6889 341.00
75.7541 333.00
75.8193 345.00
75.8845 404.00
75.9497 398.00
76.0149 348.00
76.0801 368.00
76.1452 384.00
76.2104 397.00
76.2756 373.00
76.3409 418.00
76.406 429.00
76.4712 419.00
76.5364 408.00
76.6016 420.00
76.6668 492.00
76.732 690.00
76.7972 1507.00
76.8624 1710.00
76.9276 946.00
76.9928 1367.00
77.058 1867.00
77.1232 1028.00
77.1884 851.00
77.2536 946.00
77.3188 629.00
77.384 577.00
77.4492 567.00
77.5144 453.00
77.5796 445.00
77.6448 445.00
77.71 396.00
77.7752 395.00
77.8404 392.00
77.9056 377.00
77.9708 376.00
78.036 387.00
78.1012 359.00
78.1664 357.00
78.2316 399.00
78.2968 380.00
78.362 348.00
78.4272 399.00
78.4924 336.00
78.5576 358.00
78.6228 395.00
78.688 330.00
78.7532 378.00
78.8184 381.00
78.8836 408.00
78.9488 400.00
79.014 385.00
79.0792 381.00
79.1444 371.00
79.2096 388.00
79.2748 389.00
79.34 365.00
79.4052 349.00
79.4704 371.00
79.5356 366.00
79.6008 392.00
79.666 392.00
79.7312 394.00
79.7964 371.00
79.8616 347.00
79.9268 388.00
79.992 426.00
80.0572 367.00
80.1224 355.00
80.1876 388.00
80.2528 404.00
80.318 349.00
80.3832 353.00
80.4484 406.00
80.5136 365.00
80.5788 353.00
80.644 389.00
80.7092 359.00
80.7744 417.00
80.8396 383.00
80.9048 376.00
80.9699 366.00
81.0351 367.00
81.1003 359.00
81.1655 352.00
81.2307 358.00
81.2959 402.00
81.3611 345.00
81.4263 392.00
81.4915 394.00
81.5567 359.00
81.6219 347.00
81.6871 357.00
81.7523 393.00
81.8175 390.00
81.8827 429.00
81.9479 387.00
82.0131 332.00
82.0783 405.00
82.1435 390.00
82.2087 363.00
82.2739 341.00
82.3391 339.00
82.4043 359.00
82.4695 352.00
82.5347 337.00
82.5999 345.00
82.6651 366.00
82.7303 341.00
82.7955 344.00
82.8607 335.00
82.9259 357.00
82.9911 382.00
83.0563 327.00
83.1215 362.00
83.1867 356.00
83.2519 358.00
83.3171 354.00
83.3823 373.00
83.4475 330.00
83.5127 360.00
83.5779 353.00
83.6431 403.00
83.7083 369.00
83.7735 336.00
83.8387 363.00
83.9039 375.00
83.9691 383.00
84.0343 381.00
84.0995 367.00
84.1647 366.00
84.2299 373.00
84.2951 389.00
84.3603 366.00
84.4255 348.00
84.4907 345.00
84.5559 387.00
84.6211 342.00
84.6863 339.00
84.7515 319.00
84.8167 386.00
84.8819 343.00
84.9471 360.00
85.0123 393.00
85.0775 354.00
85.1427 332.00
85.2079 350.00
85.2731 332.00
85.3383 359.00
85.4035 383.00
85.4687 370.00
85.5339 377.00
85.5991 348.00
85.6643 357.00
85.7295 371.00
85.7946 335.00
85.8598 346.00
85.925 366.00
85.9903 308.00
86.0554 337.00
86.1206 342.00
86.1858 335.00
86.251 305.00
86.3162 344.00
86.3814 344.00
86.4466 384.00
86.5118 402.00
86.577 342.00
86.6422 349.00
86.7074 370.00
86.7726 350.00
86.8378 375.00
86.903 342.00
86.9682 367.00
87.0334 366.00
87.0986 364.00
87.1638 350.00
87.229 336.00
87.2942 312.00
87.3594 319.00
87.4246 363.00
87.4898 348.00
87.555 352.00
87.6202 350.00
87.6854 375.00
87.7506 336.00
87.8158 345.00
87.881 314.00
87.9462 357.00
88.0114 321.00
88.0766 426.00
88.1418 378.00
88.207 345.00
88.2722 338.00
88.3374 331.00
88.4026 329.00
88.4678 335.00
88.533 378.00
88.5982 348.00
88.6634 385.00
88.7286 374.00
88.7938 380.00
88.859 391.00
88.9242 593.00
88.9894 521.00
89.0546 421.00
89.1198 456.00
89.185 538.00
89.2502 451.00
89.3154 430.00
89.3806 371.00
89.4458 362.00
89.511 378.00
89.5762 332.00
89.6414 351.00
89.7066 303.00
89.7718 353.00
89.837 330.00
89.9022 342.00
89.9674 341.00
90.0326 337.00
90.0978 349.00
90.163 358.00
90.2282 329.00
90.2934 403.00
90.3586 371.00
90.4238 343.00
90.489 372.00
90.5542 362.00
90.6193 605.00
90.6845 773.00
90.7497 589.00
90.8149 711.00
90.8801 752.00
90.9453 641.00
91.0105 517.00
91.0757 444.00
91.1409 610.00
91.2061 468.00
91.2713 354.00
91.3365 339.00
91.4017 377.00
91.4669 348.00
91.5321 375.00
91.5973 362.00
91.6625 358.00
91.7277 371.00
91.7929 316.00
91.8581 322.00
91.9233 311.00
91.9885 313.00
92.0537 350.00
92.1189 307.00
92.1841 339.00
92.2493 335.00
92.3145 339.00
92.3797 346.00
92.4449 358.00
92.5101 364.00
92.5753 331.00
92.6405 338.00
92.7057 333.00
92.7709 366.00
92.8361 319.00
92.9013 338.00
92.9665 346.00
93.0317 337.00
93.0969 374.00
93.1621 296.00
93.2273 331.00
93.2925 355.00
93.3577 318.00
93.4229 358.00
93.4881 334.00
93.5533 355.00
93.6185 332.00
93.6837 380.00
93.7489 370.00
93.8141 320.00
93.8793 331.00
93.9445 341.00
94.0097 402.00
94.0749 348.00
94.1401 405.00
94.2053 338.00
94.2705 353.00
94.3357 341.00
94.4009 343.00
94.4661 361.00
94.5313 351.00
94.5965 361.00
94.6617 349.00
94.7269 355.00
94.7921 344.00
94.8573 325.00
94.9225 368.00
94.9877 344.00
95.0529 298.00
95.1181 350.00
95.1833 400.00
95.2485 414.00
95.3137 378.00
95.3789 375.00
95.444 324.00
95.5092 373.00
95.5744 378.00
95.6396 376.00
95.7048 317.00
95.77 313.00
95.8352 344.00
95.9004 357.00
95.9656 333.00
96.0308 325.00
96.096 322.00
96.1612 341.00
96.2264 305.00
96.2916 340.00
96.3568 338.00
96.422 352.00
96.4872 349.00
96.5524 342.00
96.6176 340.00
96.6828 361.00
96.748 337.00
96.8132 323.00
96.8784 372.00
96.9436 323.00
97.0088 368.00
97.074 351.00
97.1392 371.00
97.2044 297.00
97.2696 397.00
97.3348 348.00
97.4 348.00
97.4652 326.00
97.5304 308.00
97.5956 369.00
97.6608 320.00
97.726 326.00
97.7912 330.00
97.8564 332.00
97.9216 317.00
97.9868 342.00
98.052 296.00
98.1172 341.00
98.1824 320.00
98.2476 346.00
98.3128 356.00
98.378 354.00
98.4432 343.00
98.5084 337.00
98.5736 302.00
98.6388 332.00
98.704 331.00
98.7692 298.00
98.8344 320.00
98.8996 302.00
98.9648 324.00
99.03 306.00
99.0952 315.00
99.1604 304.00
99.2256 327.00
99.2908 317.00
99.356 331.00
99.4212 324.00
99.4864 331.00
99.5516 316.00
99.6168 338.00
99.682 334.00
99.7472 329.00
99.8124 306.00
99.8776 353.00
99.9428 332.00
100.008 308.00
100.073 318.00
100.095 293.00