File: data/xrd_creation/results/Na_289.xy
9.903433 5056.00
9.968632 5062.00
10.0338 5049.00
10.099 5213.00
10.1642 5197.00
10.2294 5264.00
10.2946 5142.00
10.3598 5109.00
10.425 5262.00
10.4902 5177.00
10.5554 5262.00
10.6206 5192.00
10.6858 5076.00
10.751 5183.00
10.8162 5156.00
10.8814 5283.00
10.9466 5174.00
11.0118 5150.00
11.077 5174.00
11.1422 5274.00
11.2074 5231.00
11.2726 5188.00
11.3378 5107.00
11.403 5181.00
11.4682 5109.00
11.5334 5224.00
11.5986 5286.00
11.6638 5119.00
11.729 5178.00
11.7942 5295.00
11.8594 5242.00
11.9246 5308.00
11.9898 5298.00
12.055 5270.00
12.1202 5306.00
12.1854 5347.00
12.2506 5244.00
12.3158 5186.00
12.381 5385.00
12.4462 5203.00
12.5114 5450.00
12.5766 5355.00
12.6418 5410.00
12.707 5378.00
12.7722 5371.00
12.8374 5360.00
12.9026 5245.00
12.9678 5352.00
13.033 5260.00
13.0982 5440.00
13.1634 5482.00
13.2286 5334.00
13.2938 5560.00
13.359 5238.00
13.4242 5518.00
13.4894 5352.00
13.5546 5472.00
13.6198 5441.00
13.685 5529.00
13.7502 5488.00
13.8154 5405.00
13.8805 5596.00
13.9457 5466.00
14.0109 5386.00
14.0761 5469.00
14.1413 5565.00
14.2065 5502.00
14.2717 5498.00
14.3369 5671.00
14.4021 5346.00
14.4673 5502.00
14.5325 5657.00
14.5977 5618.00
14.6629 5467.00
14.7281 5522.00
14.7933 5529.00
14.8585 5577.00
14.9237 5643.00
14.9889 5571.00
15.0541 5556.00
15.1193 5522.00
15.1845 5543.00
15.2497 5676.00
15.3149 5663.00
15.3801 5644.00
15.4453 5651.00
15.5105 5732.00
15.5757 5640.00
15.6409 5647.00
15.7061 5727.00
15.7713 5754.00
15.8365 5651.00
15.9017 5732.00
15.9669 5720.00
16.0321 5789.00
16.0973 5699.00
16.1625 5774.00
16.2277 5668.00
16.2929 5641.00
16.3581 5770.00
16.4233 5754.00
16.4885 5845.00
16.5537 5869.00
16.6189 5828.00
16.6841 5801.00
16.7493 5745.00
16.8145 5835.00
16.8797 5758.00
16.9449 5784.00
17.0101 5906.00
17.0753 5771.00
17.1405 5913.00
17.2057 5882.00
17.2709 5876.00
17.3361 5825.00
17.4013 5811.00
17.4665 5931.00
17.5317 5920.00
17.5969 5849.00
17.6621 5827.00
17.7273 5871.00
17.7925 5899.00
17.8577 6066.00
17.9229 5933.00
17.9881 5904.00
18.0533 5912.00
18.1185 5759.00
18.1837 5985.00
18.2489 6106.00
18.3141 5816.00
18.3793 5909.00
18.4445 6056.00
18.5097 5987.00
18.5749 5921.00
18.6401 6155.00
18.7052 6031.00
18.7704 6042.00
18.8356 6055.00
18.9008 6004.00
18.966 6100.00
19.0312 6084.00
19.0964 6043.00
19.1616 5976.00
19.2268 5862.00
19.292 6130.00
19.3572 6154.00
19.4224 6172.00
19.4876 6139.00
19.5528 6078.00
19.618 5982.00
19.6832 6003.00
19.7484 6002.00
19.8136 6125.00
19.8788 5999.00
19.944 6016.00
20.0092 6102.00
20.0744 5983.00
20.1396 6126.00
20.2048 6125.00
20.27 6138.00
20.3352 6211.00
20.4004 6228.00
20.4656 6180.00
20.5308 6329.00
20.596 6352.00
20.6612 6405.00
20.7264 6674.00
20.7916 7001.00
20.8568 7422.00
20.922 8248.00
20.9872 9898.00
21.0524 13120.00
21.1176 16685.00
21.1828 14018.00
21.248 8279.00
21.3132 6674.00
21.3784 6454.00
21.4436 6414.00
21.5088 6414.00
21.574 6311.00
21.6392 6198.00
21.7044 6324.00
21.7696 6270.00
21.8348 6355.00
21.9 6351.00
21.9652 6314.00
22.0304 6324.00
22.0956 6434.00
22.1608 6340.00
22.226 6367.00
22.2912 6415.00
22.3564 6417.00
22.4216 6471.00
22.4868 6432.00
22.552 6326.00
22.6172 6425.00
22.6824 6501.00
22.7476 6375.00
22.8128 6389.00
22.878 6443.00
22.9432 6472.00
23.0084 6276.00
23.0736 6396.00
23.1388 6450.00
23.204 6432.00
23.2692 6343.00
23.3344 6341.00
23.3996 6471.00
23.4647 6232.00
23.5299 6245.00
23.5951 6368.00
23.6603 6383.00
23.7255 6466.00
23.7907 6330.00
23.8559 6368.00
23.9211 6411.00
23.9863 6474.00
24.0515 6394.00
24.1167 6390.00
24.1819 6351.00
24.2471 6340.00
24.3123 6502.00
24.3775 6347.00
24.4427 6405.00
24.5079 6310.00
24.5731 6406.00
24.6383 6490.00
24.7035 6445.00
24.7687 6281.00
24.8339 6385.00
24.8991 6361.00
24.9643 6499.00
25.0295 6529.00
25.0947 6640.00
25.1599 6681.00
25.2251 6448.00
25.2903 6403.00
25.3555 6413.00
25.4207 6440.00
25.4859 6440.00
25.5511 6338.00
25.6163 6412.00
25.6815 6347.00
25.7467 6353.00
25.8119 6325.00
25.8771 6400.00
25.9423 6298.00
26.0075 6499.00
26.0727 6386.00
26.1379 6481.00
26.2031 6326.00
26.2683 6503.00
26.3335 6492.00
26.3987 6447.00
26.4639 6564.00
26.5291 6415.00
26.5943 6219.00
26.6595 6302.00
26.7247 6419.00
26.7899 6493.00
26.8551 6421.00
26.9203 6376.00
26.9855 6380.00
27.0507 6441.00
27.1159 6332.00
27.1811 6285.00
27.2463 6390.00
27.3115 6565.00
27.3767 6453.00
27.4419 6374.00
27.5071 6394.00
27.5723 6409.00
27.6375 6521.00
27.7027 6473.00
27.7679 6384.00
27.8331 6380.00
27.8983 6293.00
27.9635 6437.00
28.0287 6363.00
28.0939 6620.00
28.1591 6485.00
28.2243 6431.00
28.2894 6359.00
28.3546 6376.00
28.4198 6524.00
28.485 6434.00
28.5502 6508.00
28.6154 6453.00
28.6806 6534.00
28.7458 6493.00
28.811 6503.00
28.8762 6370.00
28.9414 6429.00
29.0066 6435.00
29.0718 6497.00
29.137 6524.00
29.2022 6382.00
29.2674 6406.00
29.3326 6535.00
29.3978 6423.00
29.463 6474.00
29.5282 6588.00
29.5934 6417.00
29.6586 6378.00
29.7238 6513.00
29.789 6476.00
29.8542 6427.00
29.9194 6582.00
29.9846 6415.00
30.0498 6532.00
30.115 6526.00
30.1802 6560.00
30.2454 6430.00
30.3106 6584.00
30.3758 6567.00
30.441 6704.00
30.5062 6875.00
30.5714 7110.00
30.6366 6670.00
30.7018 6583.00
30.767 6549.00
30.8322 6484.00
30.8974 6356.00
30.9626 6578.00
31.0278 6579.00
31.093 6381.00
31.1582 6639.00
31.2234 6667.00
31.2886 6495.00
31.3538 6581.00
31.419 6470.00
31.4842 6692.00
31.5494 6676.00
31.6146 6529.00
31.6798 6795.00
31.745 6627.00
31.8102 6704.00
31.8754 6415.00
31.9406 6491.00
32.0058 6603.00
32.071 6539.00
32.1362 6576.00
32.2014 6551.00
32.2666 6530.00
32.3318 6451.00
32.397 6580.00
32.4622 6585.00
32.5274 6635.00
32.5926 6500.00
32.6578 6455.00
32.723 6434.00
32.7882 6515.00
32.8534 6518.00
32.9186 6652.00
32.9838 6522.00
33.0489 6556.00
33.1141 6626.00
33.1793 6671.00
33.2445 6511.00
33.3097 6464.00
33.3749 6648.00
33.4401 6765.00
33.5053 6663.00
33.5705 6591.00
33.6357 6730.00
33.7009 6639.00
33.7661 6661.00
33.8313 6649.00
33.8965 6639.00
33.9617 6750.00
34.0269 6634.00
34.0921 6761.00
34.1573 6837.00
34.2225 6919.00
34.2877 6962.00
34.3529 7488.00
34.4181 8710.00
34.4833 11840.00
34.5485 19270.00
34.6137 25748.00
34.6789 20142.00
34.7441 13592.00
34.8093 8638.00
34.8745 7248.00
34.9397 7069.00
35.0049 6879.00
35.0701 7039.00
35.1353 6833.00
35.2005 6707.00
35.2657 6628.00
35.3309 6695.00
35.3961 6814.00
35.4613 6631.00
35.5265 6592.00
35.5917 6673.00
35.6569 6735.00
35.7221 6656.00
35.7873 6673.00
35.8525 6699.00
35.9177 6747.00
35.9829 6574.00
36.0481 6670.00
36.1133 6995.00
36.1785 7601.00
36.2437 8336.00
36.3089 7921.00
36.3741 7297.00
36.4393 6909.00
36.5045 6789.00
36.5697 6700.00
36.6349 6761.00
36.7001 6705.00
36.7653 6787.00
36.8305 6705.00
36.8957 6820.00
36.9609 6819.00
37.0261 6886.00
37.0913 6969.00
37.1565 7386.00
37.2217 7081.00
37.2869 6984.00
37.3521 6688.00
37.4173 6689.00
37.4825 6682.00
37.5477 6633.00
37.6129 6685.00
37.6781 6577.00
37.7433 6747.00
37.8085 6754.00
37.8736 6790.00
37.9388 6716.00
38.004 6587.00
38.0692 6785.00
38.1344 6735.00
38.1996 6631.00
38.2648 6832.00
38.33 6558.00
38.3952 6619.00
38.4604 6588.00
38.5256 6622.00
38.5908 6620.00
38.656 6636.00
38.7212 6691.00
38.7864 6707.00
38.8516 6702.00
38.9168 6743.00
38.982 6507.00
39.0472 6767.00
39.1124 6735.00
39.1776 6770.00
39.2428 6872.00
39.308 7192.00
39.3732 6959.00
39.4384 6868.00
39.5036 6789.00
39.5688 6581.00
39.634 6827.00
39.6992 6794.00
39.7644 6864.00
39.8296 7045.00
39.8948 6809.00
39.96 6611.00
40.0252 6663.00
40.0904 6631.00
40.1556 6749.00
40.2208 6758.00
40.286 6810.00
40.3512 6582.00
40.4164 6624.00
40.4816 6743.00
40.5468 6612.00
40.612 6711.00
40.6772 6881.00
40.7424 6735.00
40.8076 6737.00
40.8728 6626.00
40.938 6645.00
41.0032 6666.00
41.0684 6649.00
41.1336 6614.00
41.1988 6681.00
41.264 6729.00
41.3292 6720.00
41.3944 6663.00
41.4596 6646.00
41.5248 6706.00
41.59 6614.00
41.6552 6729.00
41.7204 6731.00
41.7856 6539.00
41.8508 6561.00
41.916 6510.00
41.9812 6646.00
42.0464 6637.00
42.1116 6677.00
42.1768 6632.00
42.242 6680.00
42.3072 6674.00
42.3724 6612.00
42.4376 6695.00
42.5028 6837.00
42.568 7060.00
42.6332 7085.00
42.6983 7278.00
42.7635 7076.00
42.8287 6906.00
42.8939 6857.00
42.9591 6675.00
43.0243 6708.00
43.0895 6759.00
43.1547 6822.00
43.2199 6799.00
43.2851 6774.00
43.3503 6703.00
43.4155 6651.00
43.4807 6770.00
43.5459 6788.00
43.6111 6869.00
43.6763 6625.00
43.7415 6707.00
43.8067 6687.00
43.8719 6681.00
43.9371 6717.00
44.0023 6738.00
44.0675 6748.00
44.1327 6602.00
44.1979 6731.00
44.2631 6644.00
44.3283 6637.00
44.3935 6745.00
44.4587 6641.00
44.5239 6739.00
44.5891 6761.00
44.6543 6579.00
44.7195 6748.00
44.7847 6768.00
44.8499 6607.00
44.9151 6616.00
44.9803 6640.00
45.0455 6686.00
45.1107 6774.00
45.1759 6755.00
45.2411 6756.00
45.3063 6669.00
45.3715 6625.00
45.4367 6657.00
45.5019 6768.00
45.5671 6642.00
45.6323 6693.00
45.6975 6626.00
45.7627 6637.00
45.8279 6441.00
45.8931 6652.00
45.9583 6572.00
46.0235 6670.00
46.0887 6570.00
46.1539 6519.00
46.2191 6542.00
46.2843 6625.00
46.3495 6564.00
46.4147 6690.00
46.4799 6611.00
46.5451 6812.00
46.6103 6848.00
46.6755 6604.00
46.7407 6707.00
46.8059 6662.00
46.8711 6490.00
46.9363 6622.00
47.0015 6711.00
47.0667 6631.00
47.1319 6776.00
47.1971 6633.00
47.2623 6643.00
47.3275 6711.00
47.3927 6601.00
47.4579 6894.00
47.523 6806.00
47.5882 6739.00
47.6534 6674.00
47.7186 6684.00
47.7838 6664.00
47.849 6726.00
47.9142 6706.00
47.9794 6681.00
48.0446 6632.00
48.1098 6582.00
48.175 6745.00
48.2402 6737.00
48.3054 6625.00
48.3706 6553.00
48.4358 6772.00
48.501 6586.00
48.5662 6552.00
48.6314 6667.00
48.6966 6597.00
48.7618 6532.00
48.827 6802.00
48.8922 6614.00
48.9574 6650.00
49.0226 6625.00
49.0878 6750.00
49.153 6749.00
49.2182 6613.00
49.2834 6742.00
49.3486 6763.00
49.4138 6770.00
49.479 7529.00
49.5442 8956.00
49.6094 9887.00
49.6746 8803.00
49.7398 8301.00
49.805 7199.00
49.8702 6761.00
49.9354 6810.00
50.0006 6946.00
50.0658 6805.00
50.131 6899.00
50.1962 6696.00
50.2614 6633.00
50.3266 6562.00
50.3918 6641.00
50.457 6717.00
50.5222 6848.00
50.5874 6652.00
50.6526 6739.00
50.7178 6583.00
50.783 6638.00
50.8482 6646.00
50.9134 6680.00
50.9786 6651.00
51.0438 6603.00
51.109 6644.00
51.1742 6751.00
51.2394 6789.00
51.3046 6691.00
51.3698 6708.00
51.435 6640.00
51.5002 6643.00
51.5654 6662.00
51.6306 6613.00
51.6958 6681.00
51.761 6579.00
51.8262 6842.00
51.8914 6786.00
51.9566 6735.00
52.0218 6548.00
52.087 6603.00
52.1522 6717.00
52.2174 6663.00
52.2826 6617.00
52.3477 6537.00
52.4129 6646.00
52.4781 6610.00
52.5433 6800.00
52.6085 6635.00
52.6737 6751.00
52.7389 6588.00
52.8041 6680.00
52.8693 6748.00
52.9345 6668.00
52.9997 6567.00
53.0649 6731.00
53.1301 6748.00
53.1953 6725.00
53.2605 6540.00
53.3257 6716.00
53.3909 6685.00
53.4561 6636.00
53.5213 6625.00
53.5865 6711.00
53.6517 6740.00
53.7169 6744.00
53.7821 6798.00
53.8473 6652.00
53.9125 6745.00
53.9777 6799.00
54.0429 6767.00
54.1081 6851.00
54.1733 6832.00
54.2385 6733.00
54.3037 6835.00
54.3689 6805.00
54.4341 6831.00
54.4993 6793.00
54.5645 6727.00
54.6297 6610.00
54.6949 6780.00
54.7601 6631.00
54.8253 6739.00
54.8905 6609.00
54.9557 6596.00
55.0209 6708.00
55.0861 6782.00
55.1513 6774.00
55.2165 6691.00
55.2817 6842.00
55.3469 6724.00
55.4121 6622.00
55.4773 6637.00
55.5425 6609.00
55.6077 6750.00
55.6729 6562.00
55.7381 6791.00
55.8033 6898.00
55.8685 6972.00
55.9337 7039.00
55.9989 6878.00
56.0641 6865.00
56.1293 6853.00
56.1945 6785.00
56.2597 6543.00
56.3249 6853.00
56.3901 6649.00
56.4553 6911.00
56.5205 6664.00
56.5857 6666.00
56.6509 6652.00
56.7161 6548.00
56.7813 6758.00
56.8465 6569.00
56.9117 6741.00
56.9769 6695.00
57.042 6577.00
57.1073 6680.00
57.1724 6696.00
57.2376 6721.00
57.3028 6540.00
57.368 6696.00
57.4332 6602.00
57.4984 6632.00
57.5636 6772.00
57.6288 6549.00
57.694 6521.00
57.7592 6679.00
57.8244 6768.00
57.8896 6789.00
57.9548 6743.00
58.02 6660.00
58.0852 6589.00
58.1504 6785.00
58.2156 6632.00
58.2808 6581.00
58.346 6516.00
58.4112 6563.00
58.4764 6688.00
58.5416 6510.00
58.6068 6754.00
58.672 6692.00
58.7372 6736.00
58.8024 6763.00
58.8676 6784.00
58.9328 6571.00
58.998 6659.00
59.0632 6795.00
59.1284 6826.00
59.1936 6815.00
59.2588 6680.00
59.324 6616.00
59.3892 6679.00
59.4544 6616.00
59.5196 6705.00
59.5848 6891.00
59.65 6785.00
59.7152 6711.00
59.7804 6777.00
59.8456 6737.00
59.9108 6665.00
59.976 6726.00
60.0412 6677.00
60.1064 6673.00
60.1716 6712.00
60.2368 6622.00
60.302 6786.00
60.3672 6582.00
60.4324 6673.00
60.4976 6693.00
60.5628 6665.00
60.628 6553.00
60.6932 6551.00
60.7584 6690.00
60.8236 6598.00
60.8888 6690.00
60.954 6841.00
61.0192 6788.00
61.0844 6575.00
61.1496 6711.00
61.2148 6736.00
61.28 6838.00
61.3452 6699.00
61.4104 6609.00
61.4756 7003.00
61.5408 7437.00
61.606 8699.00
61.6712 9540.00
61.7364 9390.00
61.8016 10026.00
61.8667 9158.00
61.932 8059.00
61.9971 7668.00
62.0623 7138.00
62.1275 6770.00
62.1927 6838.00
62.2579 6632.00
62.3231 6625.00
62.3883 6636.00
62.4535 6681.00
62.5187 6686.00
62.5839 6634.00
62.6491 6594.00
62.7143 6659.00
62.7795 6640.00
62.8447 6576.00
62.9099 6519.00
62.9751 6572.00
63.0403 6680.00
63.1055 6767.00
63.1707 6799.00
63.2359 6727.00
63.3011 6595.00
63.3663 6588.00
63.4315 6736.00
63.4967 6639.00
63.5619 6550.00
63.6271 6670.00
63.6923 6723.00
63.7575 6654.00
63.8227 6591.00
63.8879 6696.00
63.9531 6823.00
64.0183 6699.00
64.0835 6601.00
64.1487 6576.00
64.2139 6657.00
64.2791 6592.00
64.3443 6608.00
64.4095 6596.00
64.4747 6518.00
64.5399 6647.00
64.6051 6671.00
64.6703 6709.00
64.7355 6606.00
64.8007 6595.00
64.8659 6818.00
64.9311 6702.00
64.9963 6714.00
65.0615 6629.00
65.1267 6704.00
65.1919 6573.00
65.2571 6614.00
65.3223 6654.00
65.3875 6860.00
65.4527 6696.00
65.5179 6938.00
65.5831 6809.00
65.6483 6794.00
65.7135 6650.00
65.7787 6918.00
65.8439 7025.00
65.9091 6882.00
65.9743 7007.00
66.0395 7101.00
66.1047 6709.00
66.1699 6831.00
66.2351 6686.00
66.3003 6656.00
66.3655 6716.00
66.4307 6443.00
66.4959 6687.00
66.561 6578.00
66.6263 6528.00
66.6915 6731.00
66.7566 6717.00
66.8218 6644.00
66.887 6643.00
66.9522 6557.00
67.0174 6617.00
67.0826 6683.00
67.1478 6625.00
67.213 6654.00
67.2782 6557.00
67.3434 6730.00
67.4086 6412.00
67.4738 6716.00
67.539 6762.00
67.6042 6637.00
67.6694 6784.00
67.7346 6791.00
67.7998 6757.00
67.865 6543.00
67.9302 6514.00
67.9954 6726.00
68.0606 6608.00
68.1258 6587.00
68.191 6626.00
68.2562 6556.00
68.3214 6620.00
68.3866 6677.00
68.4518 6627.00
68.517 6673.00
68.5822 6577.00
68.6474 6524.00
68.7126 6524.00
68.7778 6609.00
68.843 6581.00
68.9082 6583.00
68.9734 6648.00
69.0386 6700.00
69.1038 6504.00
69.169 6533.00
69.2342 6583.00
69.2994 6561.00
69.3646 6616.00
69.4298 6660.00
69.495 6687.00
69.5602 6633.00
69.6254 6461.00
69.6906 6729.00
69.7558 6679.00
69.821 6631.00
69.8862 6535.00
69.9514 6702.00
70.0166 6595.00
70.0818 6496.00
70.147 6611.00
70.2122 6547.00
70.2774 6586.00
70.3426 6668.00
70.4078 6789.00
70.473 6714.00
70.5382 6631.00
70.6034 6644.00
70.6686 6571.00
70.7338 6744.00
70.799 6501.00
70.8642 6577.00
70.9294 6696.00
70.9946 6671.00
71.0598 6558.00
71.125 6588.00
71.1902 6648.00
71.2554 6635.00
71.3205 6514.00
71.3858 6544.00
71.451 6528.00
71.5162 6522.00
71.5813 6690.00
71.6465 6763.00
71.7117 6446.00
71.7769 6461.00
71.8421 6688.00
71.9073 6681.00
71.9725 6739.00
72.0377 6605.00
72.1029 6504.00
72.1681 6771.00
72.2333 6605.00
72.2985 6683.00
72.3637 6800.00
72.4289 6885.00
72.4941 7138.00
72.5593 7399.00
72.6245 7121.00
72.6897 6967.00
72.7549 6993.00
72.8201 6820.00
72.8853 6475.00
72.9505 6759.00
73.0157 6695.00
73.0809 6558.00
73.1461 6600.00
73.2113 6493.00
73.2765 6671.00
73.3417 6562.00
73.4069 6674.00
73.4721 6753.00
73.5373 6585.00
73.6025 6585.00
73.6677 6660.00
73.7329 6731.00
73.7981 6497.00
73.8633 6574.00
73.9285 6599.00
73.9937 6635.00
74.0589 6599.00
74.1241 6542.00
74.1893 6574.00
74.2545 6536.00
74.3197 6756.00
74.3849 6578.00
74.4501 6640.00
74.5153 6615.00
74.5805 6741.00
74.6457 6503.00
74.7109 6597.00
74.7761 6563.00
74.8413 6566.00
74.9065 6443.00
74.9717 6531.00
75.0369 6582.00
75.1021 6479.00
75.1673 6453.00
75.2325 6667.00
75.2977 6629.00
75.3629 6489.00
75.4281 6709.00
75.4933 6497.00
75.5585 6522.00
75.6237 6612.00
75.6889 6497.00
75.7541 6552.00
75.8193 6578.00
75.8845 6516.00
75.9497 6696.00
76.0149 6593.00
76.0801 6609.00
76.1452 6552.00
76.2104 6645.00
76.2756 6529.00
76.3409 6647.00
76.406 6633.00
76.4712 6799.00
76.5364 6801.00
76.6016 6644.00
76.6668 6730.00
76.732 6574.00
76.7972 6544.00
76.8624 6598.00
76.9276 6726.00
76.9928 6525.00
77.058 6659.00
77.1232 6587.00
77.1884 6576.00
77.2536 6650.00
77.3188 6560.00
77.384 6580.00
77.4492 6560.00
77.5144 6454.00
77.5796 6623.00
77.6448 6603.00
77.71 6628.00
77.7752 6431.00
77.8404 6689.00
77.9056 6753.00
77.9708 6549.00
78.036 6553.00
78.1012 6703.00
78.1664 6478.00
78.2316 6453.00
78.2968 6447.00
78.362 6543.00
78.4272 6548.00
78.4924 6551.00
78.5576 6541.00
78.6228 6621.00
78.688 6648.00
78.7532 6586.00
78.8184 6553.00
78.8836 6695.00
78.9488 6580.00
79.014 6696.00
79.0792 6660.00
79.1444 6370.00
79.2096 6658.00
79.2748 6588.00
79.34 6556.00
79.4052 6750.00
79.4704 6533.00
79.5356 6443.00
79.6008 6455.00
79.666 6617.00
79.7312 6580.00
79.7964 6679.00
79.8616 6657.00
79.9268 6589.00
79.992 6547.00
80.0572 6629.00
80.1224 6670.00
80.1876 6582.00
80.2528 6723.00
80.318 6581.00
80.3832 6553.00
80.4484 6673.00
80.5136 6566.00
80.5788 6613.00
80.644 6705.00
80.7092 6370.00
80.7744 6500.00
80.8396 6636.00
80.9048 6631.00
80.9699 6647.00
81.0351 6720.00
81.1003 6615.00
81.1655 6553.00
81.2307 6427.00
81.2959 6704.00
81.3611 6643.00
81.4263 6546.00
81.4915 6656.00
81.5567 6664.00
81.6219 6510.00
81.6871 6663.00
81.7523 6740.00
81.8175 6675.00
81.8827 6508.00
81.9479 6589.00
82.0131 6567.00
82.0783 6760.00
82.1435 6492.00
82.2087 6760.00
82.2739 6603.00
82.3391 6567.00
82.4043 6663.00
82.4695 6564.00
82.5347 6812.00
82.5999 6915.00
82.6651 6967.00
82.7303 7319.00
82.7955 7199.00
82.8607 7091.00
82.9259 7207.00
82.9911 6985.00
83.0563 7229.00
83.1215 6850.00
83.1867 6759.00
83.2519 6701.00
83.3171 6641.00
83.3823 6726.00
83.4475 6381.00
83.5127 6584.00
83.5779 6734.00
83.6431 6640.00
83.7083 6559.00
83.7735 6639.00
83.8387 6628.00
83.9039 6582.00
83.9691 6662.00
84.0343 6576.00
84.0995 6551.00
84.1647 6584.00
84.2299 6461.00
84.2951 6722.00
84.3603 6619.00
84.4255 6676.00
84.4907 6703.00
84.5559 6365.00
84.6211 6561.00
84.6863 6686.00
84.7515 6606.00
84.8167 6545.00
84.8819 6621.00
84.9471 6439.00
85.0123 6695.00
85.0775 6486.00
85.1427 6594.00
85.2079 6546.00
85.2731 6591.00
85.3383 6524.00
85.4035 6741.00
85.4687 6754.00
85.5339 6587.00
85.5991 6536.00
85.6643 6618.00
85.7295 6420.00
85.7946 6645.00
85.8598 6680.00
85.925 6684.00
85.9903 6597.00
86.0554 6593.00
86.1206 6563.00
86.1858 6593.00
86.251 6601.00
86.3162 6532.00
86.3814 6685.00
86.4466 6738.00
86.5118 6617.00
86.577 6598.00
86.6422 6637.00
86.7074 6573.00
86.7726 6534.00
86.8378 6660.00
86.903 6653.00
86.9682 6660.00
87.0334 6573.00
87.0986 6531.00
87.1638 6545.00
87.229 6681.00
87.2942 6507.00
87.3594 6578.00
87.4246 6680.00
87.4898 6495.00
87.555 6721.00
87.6202 6691.00
87.6854 6518.00
87.7506 6669.00
87.8158 6580.00
87.881 6739.00
87.9462 6639.00
88.0114 6550.00
88.0766 6600.00
88.1418 6623.00
88.207 6766.00
88.2722 6620.00
88.3374 6550.00
88.4026 6489.00
88.4678 6520.00
88.533 6550.00
88.5982 6441.00
88.6634 6678.00
88.7286 6519.00
88.7938 6561.00
88.859 6502.00
88.9242 6493.00
88.9894 6573.00
89.0546 6710.00
89.1198 6496.00
89.185 6627.00
89.2502 6425.00
89.3154 6599.00
89.3806 6661.00
89.4458 6652.00
89.511 6482.00
89.5762 6557.00
89.6414 6634.00
89.7066 6679.00
89.7718 6571.00
89.837 6720.00
89.9022 6670.00
89.9674 6617.00
90.0326 6449.00
90.0978 6485.00
90.163 6706.00
90.2282 6434.00
90.2934 6642.00
90.3586 6567.00
90.4238 6682.00
90.489 6564.00
90.5542 6538.00
90.6193 6581.00
90.6845 6526.00
90.7497 6581.00
90.8149 6428.00
90.8801 6676.00
90.9453 6704.00
91.0105 6554.00
91.0757 6559.00
91.1409 6652.00
91.2061 6523.00
91.2713 6425.00
91.3365 6628.00
91.4017 6630.00
91.4669 6514.00
91.5321 6705.00
91.5973 6507.00
91.6625 6571.00
91.7277 6495.00
91.7929 6617.00
91.8581 6671.00
91.9233 6485.00
91.9885 6740.00
92.0537 6508.00
92.1189 6587.00
92.1841 6660.00
92.2493 6423.00
92.3145 6569.00
92.3797 6567.00
92.4449 6549.00
92.5101 6626.00
92.5753 6738.00
92.6405 6735.00
92.7057 6597.00
92.7709 6647.00
92.8361 6760.00
92.9013 6814.00
92.9665 6767.00
93.0317 6630.00
93.0969 6578.00
93.1621 6608.00
93.2273 6661.00
93.2925 6761.00
93.3577 6587.00
93.4229 6582.00
93.4881 6529.00
93.5533 6689.00
93.6185 6584.00
93.6837 6654.00
93.7489 6577.00
93.8141 6510.00
93.8793 6562.00
93.9445 6688.00
94.0097 6760.00
94.0749 6584.00
94.1401 6611.00
94.2053 6607.00
94.2705 6595.00
94.3357 6661.00
94.4009 6448.00
94.4661 6564.00
94.5313 6535.00
94.5965 6654.00
94.6617 6572.00
94.7269 6580.00
94.7921 6676.00
94.8573 6716.00
94.9225 6515.00
94.9877 6666.00
95.0529 6563.00
95.1181 6676.00
95.1833 6445.00
95.2485 6522.00
95.3137 6867.00
95.3789 6525.00
95.444 6698.00
95.5092 6623.00
95.5744 6635.00
95.6396 6707.00
95.7048 6592.00
95.77 6692.00
95.8352 6470.00
95.9004 6516.00
95.9656 6551.00
96.0308 6596.00
96.096 6640.00
96.1612 6498.00
96.2264 6777.00
96.2916 6654.00
96.3568 6650.00
96.422 6560.00
96.4872 6652.00
96.5524 6582.00
96.6176 6640.00
96.6828 6693.00
96.748 6435.00
96.8132 6697.00
96.8784 6500.00
96.9436 6568.00
97.0088 6535.00
97.074 6646.00
97.1392 6669.00
97.2044 6533.00
97.2696 6561.00
97.3348 6424.00
97.4 6563.00
97.4652 6501.00
97.5304 6484.00
97.5956 6611.00
97.6608 6478.00
97.726 6569.00
97.7912 6422.00
97.8564 6581.00
97.9216 6536.00
97.9868 6604.00
98.052 6663.00
98.1172 6617.00
98.1824 6462.00
98.2476 6608.00
98.3128 6564.00
98.378 6483.00
98.4432 6706.00
98.5084 6660.00
98.5736 6719.00
98.6388 6618.00
98.704 6745.00
98.7692 6596.00
98.8344 6656.00
98.8996 6458.00
98.9648 6512.00
99.03 6567.00
99.0952 6703.00
99.1604 6644.00
99.2256 6710.00
99.2908 6378.00
99.356 6629.00
99.4212 6741.00
99.4864 6529.00
99.5516 6753.00
99.6168 6602.00
99.682 6452.00
99.7472 6568.00
99.8124 6597.00
99.8776 6620.00
99.9428 6564.00
100.008 6664.00
100.073 6700.00
100.095 6451.00