File: data/xrd_creation/results/Na_288.xy
9.903433 2718.00
9.968632 2702.00
10.0338 2717.00
10.099 2567.00
10.1642 2619.00
10.2294 2478.00
10.2946 2555.00
10.3598 2516.00
10.425 2513.00
10.4902 2505.00
10.5554 2497.00
10.6206 2470.00
10.6858 2410.00
10.751 2391.00
10.8162 2350.00
10.8814 2375.00
10.9466 2394.00
11.0118 2360.00
11.077 2353.00
11.1422 2352.00
11.2074 2290.00
11.2726 2301.00
11.3378 2223.00
11.403 2277.00
11.4682 2215.00
11.5334 2235.00
11.5986 2157.00
11.6638 2150.00
11.729 2090.00
11.7942 2101.00
11.8594 2156.00
11.9246 2062.00
11.9898 2087.00
12.055 2034.00
12.1202 2140.00
12.1854 2072.00
12.2506 2052.00
12.3158 2019.00
12.381 2043.00
12.4462 2010.00
12.5114 1967.00
12.5766 1949.00
12.6418 2011.00
12.707 1889.00
12.7722 1961.00
12.8374 1914.00
12.9026 1898.00
12.9678 1883.00
13.033 1904.00
13.0982 1837.00
13.1634 1794.00
13.2286 1902.00
13.2938 1844.00
13.359 1870.00
13.4242 1835.00
13.4894 1811.00
13.5546 1788.00
13.6198 1750.00
13.685 1795.00
13.7502 1790.00
13.8154 1760.00
13.8805 1768.00
13.9457 1754.00
14.0109 1687.00
14.0761 1707.00
14.1413 1731.00
14.2065 1746.00
14.2717 1695.00
14.3369 1664.00
14.4021 1640.00
14.4673 1731.00
14.5325 1637.00
14.5977 1742.00
14.6629 1711.00
14.7281 1657.00
14.7933 1710.00
14.8585 1652.00
14.9237 1639.00
14.9889 1644.00
15.0541 1663.00
15.1193 1635.00
15.1845 1600.00
15.2497 1529.00
15.3149 1561.00
15.3801 1607.00
15.4453 1686.00
15.5105 1587.00
15.5757 1617.00
15.6409 1582.00
15.7061 1579.00
15.7713 1601.00
15.8365 1542.00
15.9017 1555.00
15.9669 1540.00
16.0321 1532.00
16.0973 1569.00
16.1625 1536.00
16.2277 1519.00
16.2929 1513.00
16.3581 1453.00
16.4233 1526.00
16.4885 1500.00
16.5537 1543.00
16.6189 1463.00
16.6841 1540.00
16.7493 1562.00
16.8145 1468.00
16.8797 1513.00
16.9449 1484.00
17.0101 1451.00
17.0753 1469.00
17.1405 1487.00
17.2057 1545.00
17.2709 1425.00
17.3361 1470.00
17.4013 1421.00
17.4665 1518.00
17.5317 1407.00
17.5969 1481.00
17.6621 1411.00
17.7273 1385.00
17.7925 1389.00
17.8577 1415.00
17.9229 1361.00
17.9881 1410.00
18.0533 1428.00
18.1185 1425.00
18.1837 1443.00
18.2489 1405.00
18.3141 1401.00
18.3793 1341.00
18.4445 1353.00
18.5097 1403.00
18.5749 1344.00
18.6401 1249.00
18.7052 1329.00
18.7704 1425.00
18.8356 1428.00
18.9008 1432.00
18.966 1506.00
19.0312 1485.00
19.0964 1501.00
19.1616 1441.00
19.2268 1430.00
19.292 1360.00
19.3572 1346.00
19.4224 1289.00
19.4876 1332.00
19.5528 1359.00
19.618 1359.00
19.6832 1390.00
19.7484 1400.00
19.8136 1636.00
19.8788 1992.00
19.944 2545.00
20.0092 3572.00
20.0744 3844.00
20.1396 3630.00
20.2048 2926.00
20.27 2787.00
20.3352 2854.00
20.4004 2551.00
20.4656 1838.00
20.5308 1764.00
20.596 1995.00
20.6612 2169.00
20.7264 2114.00
20.7916 1926.00
20.8568 1672.00
20.922 1807.00
20.9872 1898.00
21.0524 1544.00
21.1176 1365.00
21.1828 1208.00
21.248 1240.00
21.3132 1182.00
21.3784 1169.00
21.4436 1167.00
21.5088 1176.00
21.574 1136.00
21.6392 1272.00
21.7044 1178.00
21.7696 1214.00
21.8348 1119.00
21.9 1246.00
21.9652 1153.00
22.0304 1203.00
22.0956 1216.00
22.1608 1214.00
22.226 1128.00
22.2912 1127.00
22.3564 1159.00
22.4216 1142.00
22.4868 1126.00
22.552 1149.00
22.6172 1137.00
22.6824 1187.00
22.7476 1142.00
22.8128 1142.00
22.878 1103.00
22.9432 1129.00
23.0084 1201.00
23.0736 1193.00
23.1388 1278.00
23.204 1279.00
23.2692 1168.00
23.3344 1101.00
23.3996 1170.00
23.4647 1133.00
23.5299 1114.00
23.5951 1068.00
23.6603 1044.00
23.7255 1104.00
23.7907 1128.00
23.8559 1179.00
23.9211 1131.00
23.9863 1066.00
24.0515 1122.00
24.1167 1136.00
24.1819 1129.00
24.2471 1229.00
24.3123 1324.00
24.3775 1600.00
24.4427 1921.00
24.5079 1997.00
24.5731 1749.00
24.6383 1631.00
24.7035 1663.00
24.7687 1651.00
24.8339 1485.00
24.8991 1185.00
24.9643 1103.00
25.0295 1036.00
25.0947 1021.00
25.1599 1022.00
25.2251 1005.00
25.2903 928.00
25.3555 990.00
25.4207 987.00
25.4859 983.00
25.5511 966.00
25.6163 966.00
25.6815 982.00
25.7467 988.00
25.8119 985.00
25.8771 1006.00
25.9423 1027.00
26.0075 1019.00
26.0727 983.00
26.1379 1089.00
26.2031 1189.00
26.2683 1404.00
26.3335 1717.00
26.3987 1701.00
26.4639 1526.00
26.5291 1430.00
26.5943 1404.00
26.6595 1557.00
26.7247 1361.00
26.7899 1018.00
26.8551 981.00
26.9203 921.00
26.9855 973.00
27.0507 931.00
27.1159 942.00
27.1811 918.00
27.2463 923.00
27.3115 951.00
27.3767 968.00
27.4419 1008.00
27.5071 964.00
27.5723 950.00
27.6375 936.00
27.7027 942.00
27.7679 961.00
27.8331 982.00
27.8983 851.00
27.9635 883.00
28.0287 905.00
28.0939 901.00
28.1591 942.00
28.2243 944.00
28.2894 877.00
28.3546 910.00
28.4198 919.00
28.485 884.00
28.5502 871.00
28.6154 796.00
28.6806 873.00
28.7458 847.00
28.811 831.00
28.8762 912.00
28.9414 894.00
29.0066 778.00
29.0718 917.00
29.137 820.00
29.2022 879.00
29.2674 874.00
29.3326 894.00
29.3978 865.00
29.463 858.00
29.5282 887.00
29.5934 836.00
29.6586 824.00
29.7238 871.00
29.789 822.00
29.8542 778.00
29.9194 850.00
29.9846 782.00
30.0498 831.00
30.115 768.00
30.1802 821.00
30.2454 874.00
30.3106 789.00
30.3758 862.00
30.441 867.00
30.5062 854.00
30.5714 804.00
30.6366 843.00
30.7018 832.00
30.767 885.00
30.8322 902.00
30.8974 849.00
30.9626 814.00
31.0278 926.00
31.093 862.00
31.1582 830.00
31.2234 877.00
31.2886 812.00
31.3538 793.00
31.419 821.00
31.4842 835.00
31.5494 803.00
31.6146 807.00
31.6798 794.00
31.745 786.00
31.8102 773.00
31.8754 760.00
31.9406 820.00
32.0058 791.00
32.071 788.00
32.1362 863.00
32.2014 856.00
32.2666 870.00
32.3318 879.00
32.397 904.00
32.4622 1001.00
32.5274 1261.00
32.5926 1917.00
32.6578 2556.00
32.723 2636.00
32.7882 2236.00
32.8534 2053.00
32.9186 2203.00
32.9838 2405.00
33.0489 2700.00
33.1141 3003.00
33.1793 3148.00
33.2445 2757.00
33.3097 2435.00
33.3749 2472.00
33.4401 2701.00
33.5053 2722.00
33.5705 2545.00
33.6357 2365.00
33.7009 2267.00
33.7661 2136.00
33.8313 2200.00
33.8965 1996.00
33.9617 1826.00
34.0269 2011.00
34.0921 2381.00
34.1573 2250.00
34.2225 2073.00
34.2877 1710.00
34.3529 1652.00
34.4181 1505.00
34.4833 1311.00
34.5485 1068.00
34.6137 1055.00
34.6789 881.00
34.7441 858.00
34.8093 832.00
34.8745 803.00
34.9397 886.00
35.0049 803.00
35.0701 784.00
35.1353 800.00
35.2005 812.00
35.2657 831.00
35.3309 799.00
35.3961 864.00
35.4613 834.00
35.5265 855.00
35.5917 770.00
35.6569 870.00
35.7221 883.00
35.7873 853.00
35.8525 860.00
35.9177 935.00
35.9829 999.00
36.0481 1238.00
36.1133 1683.00
36.1785 2039.00
36.2437 1959.00
36.3089 1774.00
36.3741 1721.00
36.4393 1648.00
36.5045 1393.00
36.5697 1125.00
36.6349 975.00
36.7001 942.00
36.7653 982.00
36.8305 937.00
36.8957 939.00
36.9609 916.00
37.0261 956.00
37.0913 986.00
37.1565 937.00
37.2217 912.00
37.2869 912.00
37.3521 898.00
37.4173 819.00
37.4825 770.00
37.5477 750.00
37.6129 705.00
37.6781 696.00
37.7433 721.00
37.8085 695.00
37.8736 712.00
37.9388 675.00
38.004 639.00
38.0692 674.00
38.1344 688.00
38.1996 714.00
38.2648 759.00
38.33 946.00
38.3952 1165.00
38.4604 1348.00
38.5256 1380.00
38.5908 1287.00
38.656 1192.00
38.7212 1203.00
38.7864 1157.00
38.8516 952.00
38.9168 875.00
38.982 834.00
39.0472 784.00
39.1124 779.00
39.1776 784.00
39.2428 818.00
39.308 772.00
39.3732 812.00
39.4384 803.00
39.5036 729.00
39.5688 741.00
39.634 770.00
39.6992 768.00
39.7644 808.00
39.8296 784.00
39.8948 736.00
39.96 839.00
40.0252 794.00
40.0904 793.00
40.1556 667.00
40.2208 745.00
40.286 693.00
40.3512 693.00
40.4164 705.00
40.4816 664.00
40.5468 647.00
40.612 656.00
40.6772 679.00
40.7424 650.00
40.8076 674.00
40.8728 638.00
40.938 664.00
41.0032 642.00
41.0684 685.00
41.1336 661.00
41.1988 657.00
41.264 668.00
41.3292 791.00
41.3944 1032.00
41.4596 1127.00
41.5248 1096.00
41.59 1016.00
41.6552 1081.00
41.7204 1100.00
41.7856 902.00
41.8508 838.00
41.916 701.00
41.9812 698.00
42.0464 717.00
42.1116 662.00
42.1768 651.00
42.242 653.00
42.3072 644.00
42.3724 653.00
42.4376 647.00
42.5028 710.00
42.568 706.00
42.6332 689.00
42.6983 699.00
42.7635 721.00
42.8287 756.00
42.8939 716.00
42.9591 684.00
43.0243 666.00
43.0895 628.00
43.1547 616.00
43.2199 616.00
43.2851 620.00
43.3503 650.00
43.4155 668.00
43.4807 768.00
43.5459 961.00
43.6111 986.00
43.6763 988.00
43.7415 963.00
43.8067 953.00
43.8719 948.00
43.9371 858.00
44.0023 767.00
44.0675 750.00
44.1327 789.00
44.1979 823.00
44.2631 737.00
44.3283 818.00
44.3935 729.00
44.4587 673.00
44.5239 715.00
44.5891 794.00
44.6543 817.00
44.7195 780.00
44.7847 809.00
44.8499 832.00
44.9151 846.00
44.9803 775.00
45.0455 725.00
45.1107 686.00
45.1759 616.00
45.2411 687.00
45.3063 641.00
45.3715 598.00
45.4367 551.00
45.5019 552.00
45.5671 599.00
45.6323 594.00
45.6975 607.00
45.7627 540.00
45.8279 558.00
45.8931 605.00
45.9583 582.00
46.0235 609.00
46.0887 575.00
46.1539 579.00
46.2191 547.00
46.2843 573.00
46.3495 593.00
46.4147 631.00
46.4799 589.00
46.5451 631.00
46.6103 629.00
46.6755 608.00
46.7407 623.00
46.8059 632.00
46.8711 588.00
46.9363 631.00
47.0015 638.00
47.0667 679.00
47.1319 820.00
47.1971 1112.00
47.2623 1235.00
47.3275 1192.00
47.3927 1189.00
47.4579 1193.00
47.523 1166.00
47.5882 1001.00
47.6534 804.00
47.7186 670.00
47.7838 695.00
47.849 661.00
47.9142 682.00
47.9794 676.00
48.0446 648.00
48.1098 648.00
48.175 703.00
48.2402 628.00
48.3054 579.00
48.3706 585.00
48.4358 604.00
48.501 599.00
48.5662 613.00
48.6314 664.00
48.6966 656.00
48.7618 671.00
48.827 645.00
48.8922 699.00
48.9574 719.00
49.0226 798.00
49.0878 797.00
49.153 714.00
49.2182 730.00
49.2834 709.00
49.3486 681.00
49.4138 666.00
49.479 652.00
49.5442 586.00
49.6094 563.00
49.6746 559.00
49.7398 579.00
49.805 631.00
49.8702 614.00
49.9354 608.00
50.0006 638.00
50.0658 737.00
50.131 927.00
50.1962 1127.00
50.2614 1199.00
50.3266 1188.00
50.3918 1092.00
50.457 1061.00
50.5222 969.00
50.5874 791.00
50.6526 739.00
50.7178 677.00
50.783 641.00
50.8482 602.00
50.9134 584.00
50.9786 605.00
51.0438 537.00
51.109 594.00
51.1742 570.00
51.2394 584.00
51.3046 629.00
51.3698 642.00
51.435 627.00
51.5002 626.00
51.5654 666.00
51.6306 652.00
51.6958 738.00
51.761 723.00
51.8262 734.00
51.8914 730.00
51.9566 719.00
52.0218 669.00
52.087 747.00
52.1522 677.00
52.2174 689.00
52.2826 743.00
52.3477 702.00
52.4129 672.00
52.4781 643.00
52.5433 619.00
52.6085 589.00
52.6737 579.00
52.7389 600.00
52.8041 543.00
52.8693 615.00
52.9345 577.00
52.9997 597.00
53.0649 565.00
53.1301 564.00
53.1953 572.00
53.2605 588.00
53.3257 586.00
53.3909 569.00
53.4561 594.00
53.5213 591.00
53.5865 659.00
53.6517 627.00
53.7169 659.00
53.7821 641.00
53.8473 697.00
53.9125 606.00
53.9777 633.00
54.0429 571.00
54.1081 610.00
54.1733 558.00
54.2385 624.00
54.3037 693.00
54.3689 668.00
54.4341 707.00
54.4993 748.00
54.5645 776.00
54.6297 882.00
54.6949 1055.00
54.7601 1447.00
54.8253 1779.00
54.8905 1959.00
54.9557 2045.00
55.0209 1919.00
55.0861 1666.00
55.1513 1333.00
55.2165 1104.00
55.2817 916.00
55.3469 801.00
55.4121 699.00
55.4773 605.00
55.5425 672.00
55.6077 606.00
55.6729 602.00
55.7381 679.00
55.8033 669.00
55.8685 676.00
55.9337 720.00
55.9989 655.00
56.0641 650.00
56.1293 635.00
56.1945 658.00
56.2597 579.00
56.3249 611.00
56.3901 631.00
56.4553 620.00
56.5205 585.00
56.5857 598.00
56.6509 634.00
56.7161 631.00
56.7813 596.00
56.8465 679.00
56.9117 615.00
56.9769 656.00
57.042 606.00
57.1073 685.00
57.1724 602.00
57.2376 607.00
57.3028 558.00
57.368 616.00
57.4332 589.00
57.4984 559.00
57.5636 564.00
57.6288 576.00
57.694 523.00
57.7592 543.00
57.8244 539.00
57.8896 509.00
57.9548 519.00
58.02 576.00
58.0852 562.00
58.1504 527.00
58.2156 570.00
58.2808 656.00
58.346 677.00
58.4112 694.00
58.4764 685.00
58.5416 675.00
58.6068 684.00
58.672 672.00
58.7372 666.00
58.8024 711.00
58.8676 792.00
58.9328 947.00
58.998 980.00
59.0632 985.00
59.1284 1034.00
59.1936 1096.00
59.2588 1057.00
59.324 991.00
59.3892 939.00
59.4544 896.00
59.5196 792.00
59.5848 771.00
59.65 760.00
59.7152 716.00
59.7804 697.00
59.8456 711.00
59.9108 674.00
59.976 597.00
60.0412 583.00
60.1064 589.00
60.1716 531.00
60.2368 532.00
60.302 529.00
60.3672 560.00
60.4324 519.00
60.4976 567.00
60.5628 500.00
60.628 511.00
60.6932 532.00
60.7584 563.00
60.8236 566.00
60.8888 530.00
60.954 576.00
61.0192 645.00
61.0844 705.00
61.1496 777.00
61.2148 782.00
61.28 816.00
61.3452 716.00
61.4104 703.00
61.4756 630.00
61.5408 581.00
61.606 583.00
61.6712 581.00
61.7364 552.00
61.8016 572.00
61.8667 565.00
61.932 564.00
61.9971 538.00
62.0623 544.00
62.1275 522.00
62.1927 545.00
62.2579 556.00
62.3231 550.00
62.3883 597.00
62.4535 604.00
62.5187 583.00
62.5839 592.00
62.6491 628.00
62.7143 722.00
62.7795 849.00
62.8447 821.00
62.9099 919.00
62.9751 885.00
63.0403 850.00
63.1055 794.00
63.1707 722.00
63.2359 727.00
63.3011 703.00
63.3663 842.00
63.4315 953.00
63.4967 1021.00
63.5619 1073.00
63.6271 1002.00
63.6923 962.00
63.7575 851.00
63.8227 765.00
63.8879 675.00
63.9531 577.00
64.0183 580.00
64.0835 542.00
64.1487 575.00
64.2139 524.00
64.2791 527.00
64.3443 553.00
64.4095 536.00
64.4747 535.00
64.5399 550.00
64.6051 535.00
64.6703 568.00
64.7355 520.00
64.8007 559.00
64.8659 602.00
64.9311 737.00
64.9963 881.00
65.0615 1093.00
65.1267 1258.00
65.1919 1375.00
65.2571 1528.00
65.3223 1541.00
65.3875 1334.00
65.4527 1136.00
65.5179 1084.00
65.5831 902.00
65.6483 727.00
65.7135 691.00
65.7787 629.00
65.8439 604.00
65.9091 566.00
65.9743 545.00
66.0395 573.00
66.1047 627.00
66.1699 562.00
66.2351 532.00
66.3003 541.00
66.3655 582.00
66.4307 494.00
66.4959 511.00
66.561 550.00
66.6263 521.00
66.6915 515.00
66.7566 570.00
66.8218 470.00
66.887 532.00
66.9522 539.00
67.0174 529.00
67.0826 549.00
67.1478 541.00
67.213 530.00
67.2782 567.00
67.3434 575.00
67.4086 538.00
67.4738 571.00
67.539 554.00
67.6042 585.00
67.6694 510.00
67.7346 530.00
67.7998 495.00
67.865 527.00
67.9302 495.00
67.9954 510.00
68.0606 494.00
68.1258 444.00
68.191 492.00
68.2562 527.00
68.3214 472.00
68.3866 488.00
68.4518 487.00
68.517 484.00
68.5822 531.00
68.6474 536.00
68.7126 479.00
68.7778 526.00
68.843 472.00
68.9082 507.00
68.9734 513.00
69.0386 498.00
69.1038 473.00
69.169 482.00
69.2342 479.00
69.2994 544.00
69.3646 492.00
69.4298 541.00
69.495 614.00
69.5602 633.00
69.6254 665.00
69.6906 708.00
69.7558 677.00
69.821 690.00
69.8862 661.00
69.9514 672.00
70.0166 624.00
70.0818 597.00
70.147 602.00
70.2122 586.00
70.2774 592.00
70.3426 534.00
70.4078 530.00
70.473 504.00
70.5382 525.00
70.6034 512.00
70.6686 524.00
70.7338 529.00
70.799 481.00
70.8642 509.00
70.9294 496.00
70.9946 526.00
71.0598 507.00
71.125 501.00
71.1902 471.00
71.2554 514.00
71.3205 550.00
71.3858 540.00
71.451 506.00
71.5162 493.00
71.5813 493.00
71.6465 472.00
71.7117 505.00
71.7769 565.00
71.8421 501.00
71.9073 551.00
71.9725 578.00
72.0377 594.00
72.1029 593.00
72.1681 550.00
72.2333 556.00
72.2985 597.00
72.3637 528.00
72.4289 516.00
72.4941 537.00
72.5593 519.00
72.6245 587.00
72.6897 594.00
72.7549 665.00
72.8201 711.00
72.8853 741.00
72.9505 773.00
73.0157 791.00
73.0809 821.00
73.1461 802.00
73.2113 723.00
73.2765 719.00
73.3417 694.00
73.4069 645.00
73.4721 646.00
73.5373 596.00
73.6025 534.00
73.6677 504.00
73.7329 541.00
73.7981 529.00
73.8633 523.00
73.9285 491.00
73.9937 522.00
74.0589 480.00
74.1241 474.00
74.1893 502.00
74.2545 502.00
74.3197 482.00
74.3849 465.00
74.4501 557.00
74.5153 482.00
74.5805 524.00
74.6457 512.00
74.7109 538.00
74.7761 511.00
74.8413 485.00
74.9065 467.00
74.9717 521.00
75.0369 554.00
75.1021 551.00
75.1673 532.00
75.2325 546.00
75.2977 568.00
75.3629 575.00
75.4281 586.00
75.4933 574.00
75.5585 553.00
75.6237 506.00
75.6889 537.00
75.7541 541.00
75.8193 528.00
75.8845 550.00
75.9497 527.00
76.0149 587.00
76.0801 528.00
76.1452 516.00
76.2104 529.00
76.2756 563.00
76.3409 557.00
76.406 562.00
76.4712 536.00
76.5364 558.00
76.6016 537.00
76.6668 587.00
76.732 595.00
76.7972 615.00
76.8624 597.00
76.9276 637.00
76.9928 620.00
77.058 607.00
77.1232 567.00
77.1884 533.00
77.2536 508.00
77.3188 520.00
77.384 482.00
77.4492 528.00
77.5144 500.00
77.5796 523.00
77.6448 489.00
77.71 494.00
77.7752 497.00
77.8404 488.00
77.9056 481.00
77.9708 487.00
78.036 505.00
78.1012 499.00
78.1664 473.00
78.2316 487.00
78.2968 485.00
78.362 521.00
78.4272 495.00
78.4924 533.00
78.5576 520.00
78.6228 483.00
78.688 478.00
78.7532 500.00
78.8184 534.00
78.8836 587.00
78.9488 609.00
79.014 674.00
79.0792 748.00
79.1444 751.00
79.2096 807.00
79.2748 741.00
79.34 750.00
79.4052 633.00
79.4704 579.00
79.5356 583.00
79.6008 597.00
79.666 488.00
79.7312 463.00
79.7964 462.00
79.8616 471.00
79.9268 467.00
79.992 479.00
80.0572 530.00
80.1224 528.00
80.1876 498.00
80.2528 513.00
80.318 544.00
80.3832 506.00
80.4484 501.00
80.5136 518.00
80.5788 525.00
80.644 506.00
80.7092 492.00
80.7744 501.00
80.8396 482.00
80.9048 489.00
80.9699 521.00
81.0351 500.00
81.1003 469.00
81.1655 453.00
81.2307 569.00
81.2959 506.00
81.3611 495.00
81.4263 508.00
81.4915 499.00
81.5567 512.00
81.6219 506.00
81.6871 483.00
81.7523 486.00
81.8175 519.00
81.8827 488.00
81.9479 579.00
82.0131 578.00
82.0783 595.00
82.1435 571.00
82.2087 621.00
82.2739 675.00
82.3391 657.00
82.4043 671.00
82.4695 669.00
82.5347 646.00
82.5999 649.00
82.6651 590.00
82.7303 586.00
82.7955 551.00
82.8607 579.00
82.9259 563.00
82.9911 528.00
83.0563 521.00
83.1215 501.00
83.1867 544.00
83.2519 535.00
83.3171 521.00
83.3823 520.00
83.4475 552.00
83.5127 472.00
83.5779 495.00
83.6431 460.00
83.7083 533.00
83.7735 539.00
83.8387 506.00
83.9039 480.00
83.9691 539.00
84.0343 542.00
84.0995 558.00
84.1647 604.00
84.2299 646.00
84.2951 583.00
84.3603 629.00
84.4255 645.00
84.4907 674.00
84.5559 644.00
84.6211 670.00
84.6863 713.00
84.7515 783.00
84.8167 705.00
84.8819 681.00
84.9471 682.00
85.0123 606.00
85.0775 640.00
85.1427 591.00
85.2079 572.00
85.2731 506.00
85.3383 533.00
85.4035 480.00
85.4687 519.00
85.5339 489.00
85.5991 514.00
85.6643 529.00
85.7295 599.00
85.7946 539.00
85.8598 519.00
85.925 552.00
85.9903 525.00
86.0554 530.00
86.1206 546.00
86.1858 589.00
86.251 532.00
86.3162 571.00
86.3814 579.00
86.4466 633.00
86.5118 687.00
86.577 641.00
86.6422 675.00
86.7074 671.00
86.7726 622.00
86.8378 678.00
86.903 613.00
86.9682 550.00
87.0334 553.00
87.0986 555.00
87.1638 519.00
87.229 537.00
87.2942 506.00
87.3594 511.00
87.4246 508.00
87.4898 542.00
87.555 483.00
87.6202 537.00
87.6854 504.00
87.7506 504.00
87.8158 521.00
87.881 496.00
87.9462 523.00
88.0114 470.00
88.0766 480.00
88.1418 513.00
88.207 544.00
88.2722 492.00
88.3374 535.00
88.4026 541.00
88.4678 535.00
88.533 624.00
88.5982 568.00
88.6634 527.00
88.7286 542.00
88.7938 532.00
88.859 522.00
88.9242 515.00
88.9894 518.00
89.0546 531.00
89.1198 494.00
89.185 470.00
89.2502 459.00
89.3154 522.00
89.3806 496.00
89.4458 523.00
89.511 513.00
89.5762 516.00
89.6414 448.00
89.7066 498.00
89.7718 472.00
89.837 488.00
89.9022 491.00
89.9674 502.00
90.0326 556.00
90.0978 611.00
90.163 714.00
90.2282 706.00
90.2934 759.00
90.3586 692.00
90.4238 771.00
90.489 656.00
90.5542 658.00
90.6193 592.00
90.6845 550.00
90.7497 564.00
90.8149 476.00
90.8801 525.00
90.9453 538.00
91.0105 517.00
91.0757 503.00
91.1409 533.00
91.2061 498.00
91.2713 533.00
91.3365 498.00
91.4017 544.00
91.4669 525.00
91.5321 519.00
91.5973 532.00
91.6625 528.00
91.7277 576.00
91.7929 585.00
91.8581 613.00
91.9233 630.00
91.9885 580.00
92.0537 627.00
92.1189 601.00
92.1841 579.00
92.2493 556.00
92.3145 532.00
92.3797 488.00
92.4449 518.00
92.5101 462.00
92.5753 523.00
92.6405 544.00
92.7057 540.00
92.7709 532.00
92.8361 524.00
92.9013 490.00
92.9665 471.00
93.0317 495.00
93.0969 494.00
93.1621 517.00
93.2273 524.00
93.2925 518.00
93.3577 507.00
93.4229 559.00
93.4881 525.00
93.5533 508.00
93.6185 483.00
93.6837 486.00
93.7489 527.00
93.8141 502.00
93.8793 458.00
93.9445 535.00
94.0097 471.00
94.0749 528.00
94.1401 557.00
94.2053 514.00
94.2705 497.00
94.3357 515.00
94.4009 517.00
94.4661 511.00
94.5313 531.00
94.5965 515.00
94.6617 526.00
94.7269 477.00
94.7921 552.00
94.8573 538.00
94.9225 490.00
94.9877 536.00
95.0529 518.00
95.1181 544.00
95.1833 636.00
95.2485 695.00
95.3137 705.00
95.3789 689.00
95.444 703.00
95.5092 655.00
95.5744 658.00
95.6396 637.00
95.7048 660.00
95.77 615.00
95.8352 577.00
95.9004 576.00
95.9656 576.00
96.0308 561.00
96.096 548.00
96.1612 518.00
96.2264 526.00
96.2916 511.00
96.3568 500.00
96.422 471.00
96.4872 519.00
96.5524 513.00
96.6176 466.00
96.6828 540.00
96.748 494.00
96.8132 506.00
96.8784 509.00
96.9436 522.00
97.0088 532.00
97.074 551.00
97.1392 487.00
97.2044 512.00
97.2696 547.00
97.3348 506.00
97.4 536.00
97.4652 519.00
97.5304 559.00
97.5956 557.00
97.6608 571.00
97.726 570.00
97.7912 587.00
97.8564 592.00
97.9216 592.00
97.9868 590.00
98.052 591.00
98.1172 648.00
98.1824 605.00
98.2476 606.00
98.3128 601.00
98.378 580.00
98.4432 638.00
98.5084 617.00
98.5736 590.00
98.6388 598.00
98.704 559.00
98.7692 560.00
98.8344 607.00
98.8996 588.00
98.9648 534.00
99.03 581.00
99.0952 536.00
99.1604 515.00
99.2256 539.00
99.2908 555.00
99.356 487.00
99.4212 558.00
99.4864 544.00
99.5516 527.00
99.6168 512.00
99.682 492.00
99.7472 501.00
99.8124 495.00
99.8776 511.00
99.9428 527.00
100.008 537.00
100.073 525.00
100.095 500.00