File: data/xrd_creation/results/Na_20.xy
9.903433 2602.00
9.968632 2555.00
10.0338 2567.00
10.099 2502.00
10.1642 2493.00
10.2294 2587.00
10.2946 2493.00
10.3598 2463.00
10.425 2383.00
10.4902 2401.00
10.5554 2358.00
10.6206 2377.00
10.6858 2384.00
10.751 2348.00
10.8162 2258.00
10.8814 2275.00
10.9466 2258.00
11.0118 2276.00
11.077 2234.00
11.1422 2144.00
11.2074 2178.00
11.2726 2118.00
11.3378 2135.00
11.403 2051.00
11.4682 2023.00
11.5334 2113.00
11.5986 2034.00
11.6638 2084.00
11.729 1982.00
11.7942 2083.00
11.8594 2008.00
11.9246 1970.00
11.9898 1923.00
12.055 1969.00
12.1202 1854.00
12.1854 1867.00
12.2506 1952.00
12.3158 1803.00
12.381 1830.00
12.4462 1791.00
12.5114 1849.00
12.5766 1841.00
12.6418 1685.00
12.707 1758.00
12.7722 1786.00
12.8374 1702.00
12.9026 1756.00
12.9678 1694.00
13.033 1757.00
13.0982 1703.00
13.1634 1668.00
13.2286 1669.00
13.2938 1672.00
13.359 1645.00
13.4242 1585.00
13.4894 1591.00
13.5546 1639.00
13.6198 1617.00
13.685 1494.00
13.7502 1620.00
13.8154 1568.00
13.8805 1625.00
13.9457 1447.00
14.0109 1500.00
14.0761 1553.00
14.1413 1525.00
14.2065 1480.00
14.2717 1453.00
14.3369 1492.00
14.4021 1436.00
14.4673 1450.00
14.5325 1474.00
14.5977 1424.00
14.6629 1386.00
14.7281 1430.00
14.7933 1343.00
14.8585 1355.00
14.9237 1425.00
14.9889 1380.00
15.0541 1396.00
15.1193 1328.00
15.1845 1425.00
15.2497 1377.00
15.3149 1422.00
15.3801 1350.00
15.4453 1310.00
15.5105 1425.00
15.5757 1352.00
15.6409 1359.00
15.7061 1286.00
15.7713 1310.00
15.8365 1297.00
15.9017 1213.00
15.9669 1264.00
16.0321 1292.00
16.0973 1340.00
16.1625 1311.00
16.2277 1343.00
16.2929 1335.00
16.3581 1270.00
16.4233 1284.00
16.4885 1293.00
16.5537 1285.00
16.6189 1291.00
16.6841 1255.00
16.7493 1241.00
16.8145 1267.00
16.8797 1207.00
16.9449 1239.00
17.0101 1215.00
17.0753 1255.00
17.1405 1192.00
17.2057 1256.00
17.2709 1218.00
17.3361 1190.00
17.4013 1127.00
17.4665 1161.00
17.5317 1186.00
17.5969 1181.00
17.6621 1170.00
17.7273 1104.00
17.7925 1178.00
17.8577 1112.00
17.9229 1105.00
17.9881 1118.00
18.0533 1109.00
18.1185 1156.00
18.1837 1109.00
18.2489 1095.00
18.3141 1141.00
18.3793 1132.00
18.4445 1103.00
18.5097 1154.00
18.5749 1074.00
18.6401 1059.00
18.7052 1136.00
18.7704 1022.00
18.8356 1072.00
18.9008 1125.00
18.966 1012.00
19.0312 1056.00
19.0964 1073.00
19.1616 1085.00
19.2268 1055.00
19.292 1016.00
19.3572 1017.00
19.4224 991.00
19.4876 1036.00
19.5528 1041.00
19.618 971.00
19.6832 1023.00
19.7484 984.00
19.8136 1003.00
19.8788 1037.00
19.944 978.00
20.0092 1025.00
20.0744 1006.00
20.1396 930.00
20.2048 990.00
20.27 993.00
20.3352 998.00
20.4004 969.00
20.4656 942.00
20.5308 938.00
20.596 942.00
20.6612 942.00
20.7264 957.00
20.7916 928.00
20.8568 898.00
20.922 940.00
20.9872 912.00
21.0524 954.00
21.1176 967.00
21.1828 949.00
21.248 878.00
21.3132 902.00
21.3784 887.00
21.4436 955.00
21.5088 904.00
21.574 873.00
21.6392 905.00
21.7044 887.00
21.7696 937.00
21.8348 901.00
21.9 953.00
21.9652 910.00
22.0304 907.00
22.0956 843.00
22.1608 932.00
22.226 900.00
22.2912 871.00
22.3564 849.00
22.4216 900.00
22.4868 900.00
22.552 860.00
22.6172 851.00
22.6824 901.00
22.7476 846.00
22.8128 872.00
22.878 876.00
22.9432 857.00
23.0084 835.00
23.0736 829.00
23.1388 887.00
23.204 840.00
23.2692 885.00
23.3344 813.00
23.3996 810.00
23.4647 756.00
23.5299 840.00
23.5951 871.00
23.6603 792.00
23.7255 804.00
23.7907 862.00
23.8559 826.00
23.9211 813.00
23.9863 754.00
24.0515 790.00
24.1167 797.00
24.1819 755.00
24.2471 779.00
24.3123 852.00
24.3775 839.00
24.4427 787.00
24.5079 753.00
24.5731 747.00
24.6383 755.00
24.7035 777.00
24.7687 771.00
24.8339 818.00
24.8991 759.00
24.9643 753.00
25.0295 783.00
25.0947 811.00
25.1599 811.00
25.2251 807.00
25.2903 797.00
25.3555 798.00
25.4207 764.00
25.4859 762.00
25.5511 741.00
25.6163 740.00
25.6815 706.00
25.7467 724.00
25.8119 757.00
25.8771 730.00
25.9423 759.00
26.0075 701.00
26.0727 768.00
26.1379 794.00
26.2031 749.00
26.2683 780.00
26.3335 812.00
26.3987 859.00
26.4639 826.00
26.5291 767.00
26.5943 735.00
26.6595 739.00
26.7247 678.00
26.7899 768.00
26.8551 711.00
26.9203 750.00
26.9855 700.00
27.0507 733.00
27.1159 702.00
27.1811 684.00
27.2463 695.00
27.3115 737.00
27.3767 707.00
27.4419 633.00
27.5071 713.00
27.5723 705.00
27.6375 678.00
27.7027 678.00
27.7679 676.00
27.8331 747.00
27.8983 740.00
27.9635 794.00
28.0287 777.00
28.0939 752.00
28.1591 740.00
28.2243 698.00
28.2894 712.00
28.3546 692.00
28.4198 694.00
28.485 706.00
28.5502 687.00
28.6154 637.00
28.6806 669.00
28.7458 629.00
28.811 658.00
28.8762 704.00
28.9414 706.00
29.0066 657.00
29.0718 678.00
29.137 635.00
29.2022 627.00
29.2674 645.00
29.3326 625.00
29.3978 628.00
29.463 555.00
29.5282 643.00
29.5934 606.00
29.6586 617.00
29.7238 578.00
29.789 576.00
29.8542 653.00
29.9194 568.00
29.9846 566.00
30.0498 564.00
30.115 604.00
30.1802 599.00
30.2454 623.00
30.3106 590.00
30.3758 611.00
30.441 603.00
30.5062 611.00
30.5714 582.00
30.6366 582.00
30.7018 551.00
30.767 586.00
30.8322 571.00
30.8974 564.00
30.9626 592.00
31.0278 589.00
31.093 605.00
31.1582 590.00
31.2234 626.00
31.2886 611.00
31.3538 626.00
31.419 621.00
31.4842 605.00
31.5494 601.00
31.6146 635.00
31.6798 625.00
31.745 596.00
31.8102 585.00
31.8754 605.00
31.9406 599.00
32.0058 541.00
32.071 564.00
32.1362 552.00
32.2014 530.00
32.2666 546.00
32.3318 508.00
32.397 547.00
32.4622 542.00
32.5274 514.00
32.5926 565.00
32.6578 551.00
32.723 519.00
32.7882 514.00
32.8534 584.00
32.9186 510.00
32.9838 527.00
33.0489 527.00
33.1141 493.00
33.1793 498.00
33.2445 497.00
33.3097 499.00
33.3749 478.00
33.4401 500.00
33.5053 532.00
33.5705 474.00
33.6357 496.00
33.7009 535.00
33.7661 476.00
33.8313 509.00
33.8965 526.00
33.9617 456.00
34.0269 516.00
34.0921 526.00
34.1573 495.00
34.2225 506.00
34.2877 522.00
34.3529 532.00
34.4181 526.00
34.4833 476.00
34.5485 479.00
34.6137 455.00
34.6789 477.00
34.7441 449.00
34.8093 476.00
34.8745 492.00
34.9397 514.00
35.0049 451.00
35.0701 497.00
35.1353 439.00
35.2005 462.00
35.2657 429.00
35.3309 432.00
35.3961 448.00
35.4613 441.00
35.5265 442.00
35.5917 436.00
35.6569 450.00
35.7221 442.00
35.7873 453.00
35.8525 443.00
35.9177 518.00
35.9829 478.00
36.0481 460.00
36.1133 492.00
36.1785 536.00
36.2437 413.00
36.3089 421.00
36.3741 430.00
36.4393 464.00
36.5045 416.00
36.5697 434.00
36.6349 409.00
36.7001 426.00
36.7653 394.00
36.8305 432.00
36.8957 439.00
36.9609 427.00
37.0261 470.00
37.0913 415.00
37.1565 468.00
37.2217 391.00
37.2869 396.00
37.3521 436.00
37.4173 384.00
37.4825 422.00
37.5477 434.00
37.6129 436.00
37.6781 399.00
37.7433 435.00
37.8085 390.00
37.8736 429.00
37.9388 417.00
38.004 403.00
38.0692 454.00
38.1344 397.00
38.1996 375.00
38.2648 379.00
38.33 407.00
38.3952 420.00
38.4604 393.00
38.5256 409.00
38.5908 342.00
38.656 392.00
38.7212 354.00
38.7864 427.00
38.8516 368.00
38.9168 385.00
38.982 396.00
39.0472 375.00
39.1124 371.00
39.1776 415.00
39.2428 407.00
39.308 346.00
39.3732 383.00
39.4384 391.00
39.5036 401.00
39.5688 371.00
39.634 396.00
39.6992 309.00
39.7644 369.00
39.8296 395.00
39.8948 376.00
39.96 385.00
40.0252 342.00
40.0904 344.00
40.1556 393.00
40.2208 361.00
40.286 406.00
40.3512 397.00
40.4164 388.00
40.4816 408.00
40.5468 393.00
40.612 396.00
40.6772 354.00
40.7424 396.00
40.8076 360.00
40.8728 343.00
40.938 365.00
41.0032 358.00
41.0684 366.00
41.1336 352.00
41.1988 369.00
41.264 347.00
41.3292 344.00
41.3944 335.00
41.4596 374.00
41.5248 372.00
41.59 387.00
41.6552 316.00
41.7204 333.00
41.7856 364.00
41.8508 380.00
41.916 379.00
41.9812 360.00
42.0464 384.00
42.1116 326.00
42.1768 340.00
42.242 332.00
42.3072 350.00
42.3724 325.00
42.4376 338.00
42.5028 336.00
42.568 325.00
42.6332 345.00
42.6983 340.00
42.7635 360.00
42.8287 339.00
42.8939 359.00
42.9591 315.00
43.0243 369.00
43.0895 422.00
43.1547 396.00
43.2199 346.00
43.2851 372.00
43.3503 365.00
43.4155 335.00
43.4807 304.00
43.5459 333.00
43.6111 310.00
43.6763 313.00
43.7415 358.00
43.8067 310.00
43.8719 310.00
43.9371 323.00
44.0023 353.00
44.0675 329.00
44.1327 330.00
44.1979 317.00
44.2631 368.00
44.3283 359.00
44.3935 307.00
44.4587 325.00
44.5239 302.00
44.5891 303.00
44.6543 323.00
44.7195 354.00
44.7847 296.00
44.8499 276.00
44.9151 301.00
44.9803 317.00
45.0455 331.00
45.1107 293.00
45.1759 335.00
45.2411 269.00
45.3063 280.00
45.3715 338.00
45.4367 301.00
45.5019 300.00
45.5671 327.00
45.6323 331.00
45.6975 308.00
45.7627 311.00
45.8279 327.00
45.8931 287.00
45.9583 305.00
46.0235 287.00
46.0887 314.00
46.1539 301.00
46.2191 309.00
46.2843 268.00
46.3495 301.00
46.4147 299.00
46.4799 280.00
46.5451 318.00
46.6103 303.00
46.6755 304.00
46.7407 307.00
46.8059 247.00
46.8711 317.00
46.9363 294.00
47.0015 296.00
47.0667 309.00
47.1319 282.00
47.1971 292.00
47.2623 279.00
47.3275 287.00
47.3927 277.00
47.4579 289.00
47.523 299.00
47.5882 272.00
47.6534 290.00
47.7186 289.00
47.7838 277.00
47.849 283.00
47.9142 302.00
47.9794 267.00
48.0446 296.00
48.1098 291.00
48.175 305.00
48.2402 330.00
48.3054 271.00
48.3706 302.00
48.4358 304.00
48.501 249.00
48.5662 274.00
48.6314 300.00
48.6966 285.00
48.7618 294.00
48.827 257.00
48.8922 277.00
48.9574 314.00
49.0226 274.00
49.0878 315.00
49.153 279.00
49.2182 296.00
49.2834 272.00
49.3486 290.00
49.4138 298.00
49.479 302.00
49.5442 275.00
49.6094 293.00
49.6746 278.00
49.7398 262.00
49.805 272.00
49.8702 295.00
49.9354 273.00
50.0006 313.00
50.0658 277.00
50.131 300.00
50.1962 271.00
50.2614 275.00
50.3266 231.00
50.3918 280.00
50.457 264.00
50.5222 284.00
50.5874 243.00
50.6526 243.00
50.7178 265.00
50.783 266.00
50.8482 290.00
50.9134 264.00
50.9786 264.00
51.0438 279.00
51.109 274.00
51.1742 272.00
51.2394 279.00
51.3046 315.00
51.3698 285.00
51.435 276.00
51.5002 277.00
51.5654 221.00
51.6306 278.00
51.6958 236.00
51.761 279.00
51.8262 277.00
51.8914 249.00
51.9566 236.00
52.0218 276.00
52.087 279.00
52.1522 236.00
52.2174 275.00
52.2826 219.00
52.3477 269.00
52.4129 272.00
52.4781 304.00
52.5433 230.00
52.6085 273.00
52.6737 283.00
52.7389 261.00
52.8041 240.00
52.8693 262.00
52.9345 242.00
52.9997 233.00
53.0649 249.00
53.1301 232.00
53.1953 238.00
53.2605 226.00
53.3257 235.00
53.3909 240.00
53.4561 275.00
53.5213 269.00
53.5865 269.00
53.6517 282.00
53.7169 276.00
53.7821 260.00
53.8473 274.00
53.9125 237.00
53.9777 257.00
54.0429 231.00
54.1081 250.00
54.1733 272.00
54.2385 257.00
54.3037 236.00
54.3689 249.00
54.4341 262.00
54.4993 267.00
54.5645 280.00
54.6297 272.00
54.6949 260.00
54.7601 236.00
54.8253 246.00
54.8905 245.00
54.9557 265.00
55.0209 235.00
55.0861 249.00
55.1513 240.00
55.2165 284.00
55.2817 247.00
55.3469 275.00
55.4121 232.00
55.4773 274.00
55.5425 236.00
55.6077 245.00
55.6729 235.00
55.7381 223.00
55.8033 214.00
55.8685 267.00
55.9337 258.00
55.9989 256.00
56.0641 257.00
56.1293 242.00
56.1945 223.00
56.2597 217.00
56.3249 230.00
56.3901 210.00
56.4553 211.00
56.5205 229.00
56.5857 220.00
56.6509 249.00
56.7161 227.00
56.7813 231.00
56.8465 221.00
56.9117 208.00
56.9769 230.00
57.042 222.00
57.1073 233.00
57.1724 221.00
57.2376 258.00
57.3028 224.00
57.368 243.00
57.4332 233.00
57.4984 226.00
57.5636 238.00
57.6288 222.00
57.694 248.00
57.7592 217.00
57.8244 202.00
57.8896 225.00
57.9548 186.00
58.02 218.00
58.0852 201.00
58.1504 206.00
58.2156 205.00
58.2808 225.00
58.346 241.00
58.4112 225.00
58.4764 214.00
58.5416 207.00
58.6068 202.00
58.672 224.00
58.7372 219.00
58.8024 200.00
58.8676 221.00
58.9328 211.00
58.998 188.00
59.0632 203.00
59.1284 215.00
59.1936 222.00
59.2588 239.00
59.324 221.00
59.3892 207.00
59.4544 193.00
59.5196 213.00
59.5848 256.00
59.65 201.00
59.7152 209.00
59.7804 224.00
59.8456 196.00
59.9108 206.00
59.976 229.00
60.0412 200.00
60.1064 234.00
60.1716 211.00
60.2368 203.00
60.302 188.00
60.3672 210.00
60.4324 183.00
60.4976 178.00
60.5628 210.00
60.628 183.00
60.6932 179.00
60.7584 197.00
60.8236 199.00
60.8888 211.00
60.954 208.00
61.0192 223.00
61.0844 218.00
61.1496 201.00
61.2148 203.00
61.28 215.00
61.3452 199.00
61.4104 207.00
61.4756 192.00
61.5408 185.00
61.606 208.00
61.6712 210.00
61.7364 212.00
61.8016 208.00
61.8667 177.00
61.932 238.00
61.9971 223.00
62.0623 224.00
62.1275 214.00
62.1927 193.00
62.2579 199.00
62.3231 200.00
62.3883 196.00
62.4535 168.00
62.5187 210.00
62.5839 216.00
62.6491 259.00
62.7143 264.00
62.7795 203.00
62.8447 222.00
62.9099 221.00
62.9751 233.00
63.0403 217.00
63.1055 193.00
63.1707 237.00
63.2359 224.00
63.3011 210.00
63.3663 203.00
63.4315 172.00
63.4967 208.00
63.5619 203.00
63.6271 206.00
63.6923 186.00
63.7575 196.00
63.8227 200.00
63.8879 195.00
63.9531 208.00
64.0183 178.00
64.0835 175.00
64.1487 200.00
64.2139 222.00
64.2791 221.00
64.3443 219.00
64.4095 183.00
64.4747 193.00
64.5399 177.00
64.6051 186.00
64.6703 187.00
64.7355 184.00
64.8007 233.00
64.8659 168.00
64.9311 196.00
64.9963 188.00
65.0615 210.00
65.1267 179.00
65.1919 219.00
65.2571 189.00
65.3223 195.00
65.3875 191.00
65.4527 185.00
65.5179 197.00
65.5831 204.00
65.6483 207.00
65.7135 192.00
65.7787 189.00
65.8439 196.00
65.9091 180.00
65.9743 209.00
66.0395 208.00
66.1047 197.00
66.1699 198.00
66.2351 173.00
66.3003 191.00
66.3655 177.00
66.4307 208.00
66.4959 210.00
66.561 188.00
66.6263 211.00
66.6915 178.00
66.7566 201.00
66.8218 169.00
66.887 194.00
66.9522 192.00
67.0174 206.00
67.0826 189.00
67.1478 199.00
67.213 181.00
67.2782 175.00
67.3434 198.00
67.4086 205.00
67.4738 164.00
67.539 209.00
67.6042 175.00
67.6694 190.00
67.7346 211.00
67.7998 179.00
67.865 205.00
67.9302 174.00
67.9954 210.00
68.0606 187.00
68.1258 171.00
68.191 176.00
68.2562 190.00
68.3214 214.00
68.3866 218.00
68.4518 196.00
68.517 203.00
68.5822 211.00
68.6474 179.00
68.7126 182.00
68.7778 181.00
68.843 218.00
68.9082 200.00
68.9734 219.00
69.0386 189.00
69.1038 195.00
69.169 180.00
69.2342 214.00
69.2994 201.00
69.3646 176.00
69.4298 171.00
69.495 172.00
69.5602 190.00
69.6254 205.00
69.6906 183.00
69.7558 192.00
69.821 192.00
69.8862 185.00
69.9514 187.00
70.0166 205.00
70.0818 199.00
70.147 194.00
70.2122 191.00
70.2774 188.00
70.3426 205.00
70.4078 159.00
70.473 197.00
70.5382 177.00
70.6034 211.00
70.6686 195.00
70.7338 193.00
70.799 188.00
70.8642 214.00
70.9294 173.00
70.9946 176.00
71.0598 183.00
71.125 191.00
71.1902 180.00
71.2554 174.00
71.3205 174.00
71.3858 185.00
71.451 209.00
71.5162 208.00
71.5813 184.00
71.6465 175.00
71.7117 167.00
71.7769 181.00
71.8421 194.00
71.9073 185.00
71.9725 195.00
72.0377 202.00
72.1029 185.00
72.1681 212.00
72.2333 197.00
72.2985 178.00
72.3637 200.00
72.4289 194.00
72.4941 203.00
72.5593 186.00
72.6245 197.00
72.6897 226.00
72.7549 176.00
72.8201 194.00
72.8853 197.00
72.9505 185.00
73.0157 195.00
73.0809 181.00
73.1461 192.00
73.2113 199.00
73.2765 192.00
73.3417 222.00
73.4069 216.00
73.4721 185.00
73.5373 201.00
73.6025 183.00
73.6677 205.00
73.7329 198.00
73.7981 192.00
73.8633 174.00
73.9285 183.00
73.9937 192.00
74.0589 219.00
74.1241 195.00
74.1893 165.00
74.2545 177.00
74.3197 182.00
74.3849 212.00
74.4501 197.00
74.5153 192.00
74.5805 184.00
74.6457 204.00
74.7109 232.00
74.7761 190.00
74.8413 210.00
74.9065 208.00
74.9717 187.00
75.0369 226.00
75.1021 191.00
75.1673 212.00
75.2325 193.00
75.2977 222.00
75.3629 191.00
75.4281 209.00
75.4933 197.00
75.5585 218.00
75.6237 224.00
75.6889 197.00
75.7541 196.00
75.8193 182.00
75.8845 194.00
75.9497 207.00
76.0149 199.00
76.0801 201.00
76.1452 229.00
76.2104 200.00
76.2756 192.00
76.3409 221.00
76.406 216.00
76.4712 194.00
76.5364 191.00
76.6016 203.00
76.6668 182.00
76.732 200.00
76.7972 195.00
76.8624 236.00
76.9276 227.00
76.9928 224.00
77.058 192.00
77.1232 183.00
77.1884 220.00
77.2536 205.00
77.3188 191.00
77.384 196.00
77.4492 188.00
77.5144 227.00
77.5796 193.00
77.6448 187.00
77.71 212.00
77.7752 212.00
77.8404 215.00
77.9056 225.00
77.9708 205.00
78.036 222.00
78.1012 202.00
78.1664 209.00
78.2316 203.00
78.2968 208.00
78.362 210.00
78.4272 192.00
78.4924 214.00
78.5576 210.00
78.6228 241.00
78.688 213.00
78.7532 210.00
78.8184 208.00
78.8836 207.00
78.9488 214.00
79.014 193.00
79.0792 225.00
79.1444 209.00
79.2096 214.00
79.2748 218.00
79.34 231.00
79.4052 212.00
79.4704 211.00
79.5356 211.00
79.6008 199.00
79.666 247.00
79.7312 213.00
79.7964 189.00
79.8616 210.00
79.9268 199.00
79.992 239.00
80.0572 218.00
80.1224 234.00
80.1876 216.00
80.2528 214.00
80.318 227.00
80.3832 235.00
80.4484 190.00
80.5136 228.00
80.5788 237.00
80.644 205.00
80.7092 238.00
80.7744 220.00
80.8396 244.00
80.9048 215.00
80.9699 240.00
81.0351 195.00
81.1003 191.00
81.1655 221.00
81.2307 235.00
81.2959 197.00
81.3611 209.00
81.4263 248.00
81.4915 199.00
81.5567 229.00
81.6219 222.00
81.6871 227.00
81.7523 233.00
81.8175 237.00
81.8827 243.00
81.9479 217.00
82.0131 201.00
82.0783 265.00
82.1435 248.00
82.2087 210.00
82.2739 203.00
82.3391 234.00
82.4043 238.00
82.4695 214.00
82.5347 244.00
82.5999 260.00
82.6651 227.00
82.7303 244.00
82.7955 218.00
82.8607 219.00
82.9259 212.00
82.9911 244.00
83.0563 221.00
83.1215 261.00
83.1867 232.00
83.2519 211.00
83.3171 219.00
83.3823 225.00
83.4475 231.00
83.5127 246.00
83.5779 236.00
83.6431 219.00
83.7083 235.00
83.7735 233.00
83.8387 236.00
83.9039 244.00
83.9691 214.00
84.0343 264.00
84.0995 231.00
84.1647 226.00
84.2299 249.00
84.2951 239.00
84.3603 217.00
84.4255 229.00
84.4907 219.00
84.5559 234.00
84.6211 244.00
84.6863 208.00
84.7515 206.00
84.8167 243.00
84.8819 258.00
84.9471 200.00
85.0123 260.00
85.0775 214.00
85.1427 231.00
85.2079 216.00
85.2731 227.00
85.3383 226.00
85.4035 230.00
85.4687 211.00
85.5339 184.00
85.5991 226.00
85.6643 205.00
85.7295 192.00
85.7946 204.00
85.8598 235.00
85.925 243.00
85.9903 210.00
86.0554 216.00
86.1206 233.00
86.1858 209.00
86.251 231.00
86.3162 235.00
86.3814 213.00
86.4466 208.00
86.5118 213.00
86.577 237.00
86.6422 178.00
86.7074 219.00
86.7726 186.00
86.8378 211.00
86.903 227.00
86.9682 224.00
87.0334 200.00
87.0986 227.00
87.1638 239.00
87.229 211.00
87.2942 244.00
87.3594 227.00
87.4246 191.00
87.4898 219.00
87.555 206.00
87.6202 209.00
87.6854 203.00
87.7506 202.00
87.8158 194.00
87.881 214.00
87.9462 188.00
88.0114 201.00
88.0766 215.00
88.1418 242.00
88.207 198.00
88.2722 197.00
88.3374 184.00
88.4026 208.00
88.4678 216.00
88.533 220.00
88.5982 202.00
88.6634 199.00
88.7286 222.00
88.7938 213.00
88.859 186.00
88.9242 199.00
88.9894 198.00
89.0546 190.00
89.1198 210.00
89.185 200.00
89.2502 213.00
89.3154 202.00
89.3806 222.00
89.4458 214.00
89.511 184.00
89.5762 230.00
89.6414 214.00
89.7066 222.00
89.7718 215.00
89.837 208.00
89.9022 207.00
89.9674 220.00
90.0326 209.00
90.0978 213.00
90.163 192.00
90.2282 208.00
90.2934 190.00
90.3586 223.00
90.4238 196.00
90.489 234.00
90.5542 187.00
90.6193 172.00
90.6845 188.00
90.7497 209.00
90.8149 203.00
90.8801 211.00
90.9453 170.00
91.0105 193.00
91.0757 190.00
91.1409 200.00
91.2061 182.00
91.2713 231.00
91.3365 226.00
91.4017 198.00
91.4669 228.00
91.5321 227.00
91.5973 209.00
91.6625 194.00
91.7277 219.00
91.7929 194.00
91.8581 183.00
91.9233 191.00
91.9885 186.00
92.0537 176.00
92.1189 182.00
92.1841 192.00
92.2493 212.00
92.3145 185.00
92.3797 184.00
92.4449 197.00
92.5101 189.00
92.5753 201.00
92.6405 204.00
92.7057 191.00
92.7709 212.00
92.8361 193.00
92.9013 213.00
92.9665 186.00
93.0317 185.00
93.0969 200.00
93.1621 204.00
93.2273 210.00
93.2925 196.00
93.3577 206.00
93.4229 167.00
93.4881 197.00
93.5533 216.00
93.6185 213.00
93.6837 206.00
93.7489 191.00
93.8141 186.00
93.8793 239.00
93.9445 209.00
94.0097 209.00
94.0749 199.00
94.1401 194.00
94.2053 203.00
94.2705 178.00
94.3357 197.00
94.4009 159.00
94.4661 195.00
94.5313 174.00
94.5965 175.00
94.6617 194.00
94.7269 200.00
94.7921 211.00
94.8573 216.00
94.9225 205.00
94.9877 207.00
95.0529 171.00
95.1181 214.00
95.1833 177.00
95.2485 187.00
95.3137 208.00
95.3789 203.00
95.444 198.00
95.5092 183.00
95.5744 179.00
95.6396 214.00
95.7048 179.00
95.77 189.00
95.8352 192.00
95.9004 193.00
95.9656 176.00
96.0308 186.00
96.096 199.00
96.1612 194.00
96.2264 178.00
96.2916 187.00
96.3568 209.00
96.422 192.00
96.4872 195.00
96.5524 199.00
96.6176 200.00
96.6828 200.00
96.748 181.00
96.8132 185.00
96.8784 201.00
96.9436 182.00
97.0088 164.00
97.074 197.00
97.1392 177.00
97.2044 173.00
97.2696 187.00
97.3348 205.00
97.4 177.00
97.4652 197.00
97.5304 168.00
97.5956 202.00
97.6608 189.00
97.726 168.00
97.7912 197.00
97.8564 220.00
97.9216 205.00
97.9868 224.00
98.052 177.00
98.1172 183.00
98.1824 175.00
98.2476 176.00
98.3128 201.00
98.378 169.00
98.4432 172.00
98.5084 171.00
98.5736 196.00
98.6388 186.00
98.704 177.00
98.7692 193.00
98.8344 189.00
98.8996 186.00
98.9648 171.00
99.03 192.00
99.0952 181.00
99.1604 166.00
99.2256 185.00
99.2908 176.00
99.356 183.00
99.4212 170.00
99.4864 185.00
99.5516 192.00
99.6168 177.00
99.682 170.00
99.7472 202.00
99.8124 162.00
99.8776 194.00
99.9428 143.00
100.008 195.00
100.073 164.00
100.095 171.00