File: data/xrd_creation/results/Na_271.xy
9.903433 3164.00
9.968632 3041.00
10.0338 3061.00
10.099 2945.00
10.1642 2898.00
10.2294 2858.00
10.2946 2768.00
10.3598 2779.00
10.425 2772.00
10.4902 2797.00
10.5554 2824.00
10.6206 2825.00
10.6858 2769.00
10.751 2762.00
10.8162 2652.00
10.8814 2582.00
10.9466 2657.00
11.0118 2590.00
11.077 2697.00
11.1422 2643.00
11.2074 2564.00
11.2726 2607.00
11.3378 2533.00
11.403 2507.00
11.4682 2514.00
11.5334 2482.00
11.5986 2444.00
11.6638 2427.00
11.729 2490.00
11.7942 2409.00
11.8594 2444.00
11.9246 2398.00
11.9898 2436.00
12.055 2383.00
12.1202 2460.00
12.1854 2384.00
12.2506 2432.00
12.3158 2388.00
12.381 2362.00
12.4462 2416.00
12.5114 2403.00
12.5766 2312.00
12.6418 2291.00
12.707 2419.00
12.7722 2250.00
12.8374 2215.00
12.9026 2213.00
12.9678 2200.00
13.033 2156.00
13.0982 2270.00
13.1634 2149.00
13.2286 2155.00
13.2938 2234.00
13.359 2216.00
13.4242 2230.00
13.4894 2251.00
13.5546 2114.00
13.6198 2101.00
13.685 2168.00
13.7502 2037.00
13.8154 2146.00
13.8805 2148.00
13.9457 2113.00
14.0109 2144.00
14.0761 2154.00
14.1413 2119.00
14.2065 2116.00
14.2717 2088.00
14.3369 2165.00
14.4021 2103.00
14.4673 2051.00
14.5325 2055.00
14.5977 2112.00
14.6629 2053.00
14.7281 2009.00
14.7933 2006.00
14.8585 2040.00
14.9237 2057.00
14.9889 2012.00
15.0541 2040.00
15.1193 1989.00
15.1845 2021.00
15.2497 1959.00
15.3149 1940.00
15.3801 2028.00
15.4453 2054.00
15.5105 2016.00
15.5757 1957.00
15.6409 1979.00
15.7061 1976.00
15.7713 1954.00
15.8365 1932.00
15.9017 1968.00
15.9669 1965.00
16.0321 1948.00
16.0973 1897.00
16.1625 1964.00
16.2277 1939.00
16.2929 1897.00
16.3581 2000.00
16.4233 1894.00
16.4885 1810.00
16.5537 1851.00
16.6189 1854.00
16.6841 1802.00
16.7493 1785.00
16.8145 1789.00
16.8797 1864.00
16.9449 1869.00
17.0101 1909.00
17.0753 1891.00
17.1405 1831.00
17.2057 1780.00
17.2709 1810.00
17.3361 1776.00
17.4013 1790.00
17.4665 1785.00
17.5317 1791.00
17.5969 1824.00
17.6621 1783.00
17.7273 1818.00
17.7925 1729.00
17.8577 1804.00
17.9229 1749.00
17.9881 1812.00
18.0533 1795.00
18.1185 1791.00
18.1837 1710.00
18.2489 1829.00
18.3141 1711.00
18.3793 1572.00
18.4445 1641.00
18.5097 1685.00
18.5749 1701.00
18.6401 1676.00
18.7052 1682.00
18.7704 1609.00
18.8356 1642.00
18.9008 1693.00
18.966 1727.00
19.0312 1741.00
19.0964 1676.00
19.1616 1695.00
19.2268 1606.00
19.292 1614.00
19.3572 1655.00
19.4224 1684.00
19.4876 1564.00
19.5528 1537.00
19.618 1650.00
19.6832 1618.00
19.7484 1663.00
19.8136 1620.00
19.8788 1694.00
19.944 1670.00
20.0092 1678.00
20.0744 1703.00
20.1396 1708.00
20.2048 1956.00
20.27 2097.00
20.3352 2269.00
20.4004 2257.00
20.4656 2292.00
20.5308 2401.00
20.596 2535.00
20.6612 3133.00
20.7264 4281.00
20.7916 6642.00
20.8568 10852.00
20.922 18065.00
20.9872 25160.00
21.0524 25713.00
21.1176 12037.00
21.1828 4287.00
21.248 2936.00
21.3132 2746.00
21.3784 2370.00
21.4436 2074.00
21.5088 1928.00
21.574 1803.00
21.6392 1670.00
21.7044 1732.00
21.7696 1598.00
21.8348 1646.00
21.9 1602.00
21.9652 1542.00
22.0304 1563.00
22.0956 1558.00
22.1608 1631.00
22.226 1605.00
22.2912 1589.00
22.3564 1606.00
22.4216 1557.00
22.4868 1509.00
22.552 1571.00
22.6172 1496.00
22.6824 1549.00
22.7476 1447.00
22.8128 1421.00
22.878 1502.00
22.9432 1469.00
23.0084 1488.00
23.0736 1444.00
23.1388 1493.00
23.204 1454.00
23.2692 1469.00
23.3344 1465.00
23.3996 1446.00
23.4647 1471.00
23.5299 1543.00
23.5951 1406.00
23.6603 1490.00
23.7255 1513.00
23.7907 1566.00
23.8559 1646.00
23.9211 1780.00
23.9863 1814.00
24.0515 2131.00
24.1167 2523.00
24.1819 2939.00
24.2471 3538.00
24.3123 3451.00
24.3775 2328.00
24.4427 1624.00
24.5079 1538.00
24.5731 1475.00
24.6383 1442.00
24.7035 1490.00
24.7687 1446.00
24.8339 1508.00
24.8991 1459.00
24.9643 1496.00
25.0295 1420.00
25.0947 1389.00
25.1599 1418.00
25.2251 1414.00
25.2903 1431.00
25.3555 1359.00
25.4207 1350.00
25.4859 1288.00
25.5511 1259.00
25.6163 1356.00
25.6815 1333.00
25.7467 1383.00
25.8119 1356.00
25.8771 1336.00
25.9423 1348.00
26.0075 1338.00
26.0727 1352.00
26.1379 1299.00
26.2031 1333.00
26.2683 1356.00
26.3335 1329.00
26.3987 1384.00
26.4639 1377.00
26.5291 1384.00
26.5943 1380.00
26.6595 1398.00
26.7247 1317.00
26.7899 1307.00
26.8551 1226.00
26.9203 1226.00
26.9855 1291.00
27.0507 1282.00
27.1159 1333.00
27.1811 1285.00
27.2463 1233.00
27.3115 1233.00
27.3767 1217.00
27.4419 1231.00
27.5071 1296.00
27.5723 1243.00
27.6375 1330.00
27.7027 1263.00
27.7679 1292.00
27.8331 1277.00
27.8983 1245.00
27.9635 1214.00
28.0287 1231.00
28.0939 1307.00
28.1591 1249.00
28.2243 1220.00
28.2894 1299.00
28.3546 1325.00
28.4198 1311.00
28.485 1279.00
28.5502 1266.00
28.6154 1262.00
28.6806 1225.00
28.7458 1245.00
28.811 1299.00
28.8762 1254.00
28.9414 1247.00
29.0066 1275.00
29.0718 1252.00
29.137 1216.00
29.2022 1251.00
29.2674 1208.00
29.3326 1242.00
29.3978 1279.00
29.463 1252.00
29.5282 1234.00
29.5934 1268.00
29.6586 1314.00
29.7238 1338.00
29.789 1261.00
29.8542 1326.00
29.9194 1313.00
29.9846 1326.00
30.0498 1335.00
30.115 1332.00
30.1802 1305.00
30.2454 1319.00
30.3106 1387.00
30.3758 1254.00
30.441 1285.00
30.5062 1299.00
30.5714 1257.00
30.6366 1276.00
30.7018 1296.00
30.767 1336.00
30.8322 1250.00
30.8974 1301.00
30.9626 1254.00
31.0278 1374.00
31.093 1361.00
31.1582 1380.00
31.2234 1330.00
31.2886 1260.00
31.3538 1295.00
31.419 1317.00
31.4842 1281.00
31.5494 1284.00
31.6146 1298.00
31.6798 1297.00
31.745 1268.00
31.8102 1311.00
31.8754 1318.00
31.9406 1359.00
32.0058 1300.00
32.071 1292.00
32.1362 1299.00
32.2014 1324.00
32.2666 1300.00
32.3318 1366.00
32.397 1304.00
32.4622 1297.00
32.5274 1294.00
32.5926 1306.00
32.6578 1248.00
32.723 1267.00
32.7882 1311.00
32.8534 1303.00
32.9186 1286.00
32.9838 1294.00
33.0489 1389.00
33.1141 1312.00
33.1793 1338.00
33.2445 1333.00
33.3097 1450.00
33.3749 1449.00
33.4401 1558.00
33.5053 1537.00
33.5705 1656.00
33.6357 1703.00
33.7009 1850.00
33.7661 1932.00
33.8313 2057.00
33.8965 2244.00
33.9617 2656.00
34.0269 3435.00
34.0921 4420.00
34.1573 6076.00
34.2225 8412.00
34.2877 12258.00
34.3529 19206.00
34.4181 27544.00
34.4833 29227.00
34.5485 17706.00
34.6137 8150.00
34.6789 3999.00
34.7441 3044.00
34.8093 2439.00
34.8745 2006.00
34.9397 1844.00
35.0049 1697.00
35.0701 1569.00
35.1353 1585.00
35.2005 1537.00
35.2657 1739.00
35.3309 1706.00
35.3961 1830.00
35.4613 1863.00
35.5265 1607.00
35.5917 1479.00
35.6569 1386.00
35.7221 1327.00
35.7873 1299.00
35.8525 1317.00
35.9177 1325.00
35.9829 1300.00
36.0481 1376.00
36.1133 1351.00
36.1785 1431.00
36.2437 1303.00
36.3089 1397.00
36.3741 1336.00
36.4393 1368.00
36.5045 1364.00
36.5697 1337.00
36.6349 1379.00
36.7001 1417.00
36.7653 1392.00
36.8305 1395.00
36.8957 1388.00
36.9609 1382.00
37.0261 1398.00
37.0913 1430.00
37.1565 1417.00
37.2217 1390.00
37.2869 1441.00
37.3521 1434.00
37.4173 1477.00
37.4825 1493.00
37.5477 1469.00
37.6129 1491.00
37.6781 1460.00
37.7433 1427.00
37.8085 1522.00
37.8736 1423.00
37.9388 1405.00
38.004 1419.00
38.0692 1405.00
38.1344 1386.00
38.1996 1438.00
38.2648 1438.00
38.33 1352.00
38.3952 1375.00
38.4604 1373.00
38.5256 1380.00
38.5908 1328.00
38.656 1369.00
38.7212 1367.00
38.7864 1309.00
38.8516 1328.00
38.9168 1350.00
38.982 1412.00
39.0472 1405.00
39.1124 1437.00
39.1776 1417.00
39.2428 1384.00
39.308 1410.00
39.3732 1357.00
39.4384 1434.00
39.5036 1383.00
39.5688 1354.00
39.634 1389.00
39.6992 1344.00
39.7644 1377.00
39.8296 1314.00
39.8948 1360.00
39.96 1320.00
40.0252 1292.00
40.0904 1293.00
40.1556 1293.00
40.2208 1406.00
40.286 1362.00
40.3512 1401.00
40.4164 1308.00
40.4816 1346.00
40.5468 1401.00
40.612 1491.00
40.6772 1385.00
40.7424 1355.00
40.8076 1247.00
40.8728 1278.00
40.938 1328.00
41.0032 1343.00
41.0684 1240.00
41.1336 1312.00
41.1988 1300.00
41.264 1220.00
41.3292 1278.00
41.3944 1300.00
41.4596 1280.00
41.5248 1286.00
41.59 1316.00
41.6552 1270.00
41.7204 1218.00
41.7856 1283.00
41.8508 1210.00
41.916 1239.00
41.9812 1204.00
42.0464 1238.00
42.1116 1237.00
42.1768 1310.00
42.242 1379.00
42.3072 1443.00
42.3724 1582.00
42.4376 1822.00
42.5028 1773.00
42.568 1490.00
42.6332 1374.00
42.6983 1142.00
42.7635 1246.00
42.8287 1222.00
42.8939 1244.00
42.9591 1166.00
43.0243 1191.00
43.0895 1140.00
43.1547 1116.00
43.2199 1122.00
43.2851 1198.00
43.3503 1153.00
43.4155 1051.00
43.4807 1067.00
43.5459 1195.00
43.6111 1048.00
43.6763 1000.00
43.7415 1020.00
43.8067 1063.00
43.8719 1053.00
43.9371 1097.00
44.0023 1099.00
44.0675 1052.00
44.1327 1148.00
44.1979 1049.00
44.2631 1092.00
44.3283 1006.00
44.3935 1086.00
44.4587 1048.00
44.5239 1000.00
44.5891 990.00
44.6543 1120.00
44.7195 1014.00
44.7847 1018.00
44.8499 1047.00
44.9151 1017.00
44.9803 1060.00
45.0455 1073.00
45.1107 1111.00
45.1759 1110.00
45.2411 1100.00
45.3063 1117.00
45.3715 1036.00
45.4367 1091.00
45.5019 1070.00
45.5671 1119.00
45.6323 1150.00
45.6975 1121.00
45.7627 1110.00
45.8279 1100.00
45.8931 1131.00
45.9583 1139.00
46.0235 1059.00
46.0887 1088.00
46.1539 1095.00
46.2191 1162.00
46.2843 1145.00
46.3495 1107.00
46.4147 1117.00
46.4799 1146.00
46.5451 1077.00
46.6103 1039.00
46.6755 1043.00
46.7407 1025.00
46.8059 1148.00
46.8711 1046.00
46.9363 1006.00
47.0015 1007.00
47.0667 1019.00
47.1319 954.00
47.1971 1005.00
47.2623 962.00
47.3275 920.00
47.3927 926.00
47.4579 931.00
47.523 916.00
47.5882 940.00
47.6534 907.00
47.7186 904.00
47.7838 942.00
47.849 842.00
47.9142 889.00
47.9794 924.00
48.0446 905.00
48.1098 941.00
48.175 896.00
48.2402 944.00
48.3054 987.00
48.3706 1037.00
48.4358 1000.00
48.501 1022.00
48.5662 1080.00
48.6314 1018.00
48.6966 1069.00
48.7618 1113.00
48.827 1163.00
48.8922 1162.00
48.9574 1387.00
49.0226 1449.00
49.0878 1718.00
49.153 2152.00
49.2182 2790.00
49.2834 3650.00
49.3486 4819.00
49.4138 4584.00
49.479 3273.00
49.5442 2570.00
49.6094 1659.00
49.6746 1309.00
49.7398 1147.00
49.805 1106.00
49.8702 1075.00
49.9354 1039.00
50.0006 988.00
50.0658 957.00
50.131 918.00
50.1962 916.00
50.2614 952.00
50.3266 892.00
50.3918 919.00
50.457 910.00
50.5222 952.00
50.5874 916.00
50.6526 961.00
50.7178 855.00
50.783 865.00
50.8482 916.00
50.9134 829.00
50.9786 864.00
51.0438 892.00
51.109 851.00
51.1742 840.00
51.2394 858.00
51.3046 871.00
51.3698 815.00
51.435 819.00
51.5002 847.00
51.5654 885.00
51.6306 885.00
51.6958 846.00
51.761 862.00
51.8262 872.00
51.8914 833.00
51.9566 861.00
52.0218 849.00
52.087 831.00
52.1522 837.00
52.2174 865.00
52.2826 855.00
52.3477 856.00
52.4129 824.00
52.4781 826.00
52.5433 825.00
52.6085 802.00
52.6737 765.00
52.7389 828.00
52.8041 802.00
52.8693 801.00
52.9345 888.00
52.9997 849.00
53.0649 791.00
53.1301 846.00
53.1953 827.00
53.2605 778.00
53.3257 818.00
53.3909 806.00
53.4561 840.00
53.5213 909.00
53.5865 832.00
53.6517 868.00
53.7169 845.00
53.7821 840.00
53.8473 822.00
53.9125 839.00
53.9777 817.00
54.0429 825.00
54.1081 876.00
54.1733 940.00
54.2385 866.00
54.3037 848.00
54.3689 832.00
54.4341 875.00
54.4993 818.00
54.5645 825.00
54.6297 786.00
54.6949 780.00
54.7601 824.00
54.8253 818.00
54.8905 818.00
54.9557 798.00
55.0209 838.00
55.0861 815.00
55.1513 862.00
55.2165 809.00
55.2817 715.00
55.3469 801.00
55.4121 760.00
55.4773 796.00
55.5425 810.00
55.6077 792.00
55.6729 772.00
55.7381 808.00
55.8033 783.00
55.8685 816.00
55.9337 783.00
55.9989 757.00
56.0641 727.00
56.1293 727.00
56.1945 751.00
56.2597 729.00
56.3249 759.00
56.3901 763.00
56.4553 710.00
56.5205 743.00
56.5857 749.00
56.6509 764.00
56.7161 768.00
56.7813 787.00
56.8465 805.00
56.9117 743.00
56.9769 718.00
57.042 746.00
57.1073 699.00
57.1724 728.00
57.2376 709.00
57.3028 718.00
57.368 727.00
57.4332 770.00
57.4984 752.00
57.5636 781.00
57.6288 712.00
57.694 719.00
57.7592 752.00
57.8244 732.00
57.8896 736.00
57.9548 740.00
58.02 717.00
58.0852 661.00
58.1504 772.00
58.2156 708.00
58.2808 712.00
58.346 704.00
58.4112 721.00
58.4764 709.00
58.5416 725.00
58.6068 670.00
58.672 732.00
58.7372 780.00
58.8024 710.00
58.8676 686.00
58.9328 712.00
58.998 709.00
59.0632 717.00
59.1284 752.00
59.1936 740.00
59.2588 764.00
59.324 781.00
59.3892 794.00
59.4544 779.00
59.5196 767.00
59.5848 733.00
59.65 814.00
59.7152 732.00
59.7804 773.00
59.8456 765.00
59.9108 796.00
59.976 804.00
60.0412 773.00
60.1064 776.00
60.1716 759.00
60.2368 785.00
60.302 784.00
60.3672 848.00
60.4324 790.00
60.4976 864.00
60.5628 815.00
60.628 811.00
60.6932 907.00
60.7584 846.00
60.8236 898.00
60.8888 966.00
60.954 979.00
61.0192 1139.00
61.0844 1282.00
61.1496 1643.00
61.2148 2199.00
61.28 2896.00
61.3452 3844.00
61.4104 4786.00
61.4756 4570.00
61.5408 3193.00
61.606 3027.00
61.6712 1916.00
61.7364 1267.00
61.8016 1059.00
61.8667 929.00
61.932 939.00
61.9971 904.00
62.0623 851.00
62.1275 807.00
62.1927 795.00
62.2579 831.00
62.3231 794.00
62.3883 788.00
62.4535 755.00
62.5187 760.00
62.5839 716.00
62.6491 751.00
62.7143 727.00
62.7795 705.00
62.8447 690.00
62.9099 681.00
62.9751 656.00
63.0403 673.00
63.1055 685.00
63.1707 702.00
63.2359 644.00
63.3011 673.00
63.3663 673.00
63.4315 683.00
63.4967 749.00
63.5619 705.00
63.6271 693.00
63.6923 567.00
63.7575 661.00
63.8227 656.00
63.8879 678.00
63.9531 699.00
64.0183 644.00
64.0835 704.00
64.1487 687.00
64.2139 649.00
64.2791 668.00
64.3443 644.00
64.4095 668.00
64.4747 664.00
64.5399 698.00
64.6051 639.00
64.6703 646.00
64.7355 633.00
64.8007 670.00
64.8659 702.00
64.9311 708.00
64.9963 735.00
65.0615 693.00
65.1267 712.00
65.1919 722.00
65.2571 725.00
65.3223 777.00
65.3875 902.00
65.4527 1020.00
65.5179 1118.00
65.5831 1152.00
65.6483 1102.00
65.7135 938.00
65.7787 918.00
65.8439 814.00
65.9091 700.00
65.9743 741.00
66.0395 701.00
66.1047 715.00
66.1699 723.00
66.2351 741.00
66.3003 722.00
66.3655 758.00
66.4307 751.00
66.4959 755.00
66.561 774.00
66.6263 804.00
66.6915 774.00
66.7566 858.00
66.8218 852.00
66.887 825.00
66.9522 830.00
67.0174 819.00
67.0826 866.00
67.1478 863.00
67.213 826.00
67.2782 815.00
67.3434 811.00
67.4086 794.00
67.4738 804.00
67.539 873.00
67.6042 777.00
67.6694 768.00
67.7346 713.00
67.7998 679.00
67.865 735.00
67.9302 709.00
67.9954 644.00
68.0606 658.00
68.1258 664.00
68.191 620.00
68.2562 665.00
68.3214 643.00
68.3866 628.00
68.4518 579.00
68.517 610.00
68.5822 586.00
68.6474 593.00
68.7126 615.00
68.7778 557.00
68.843 553.00
68.9082 525.00
68.9734 569.00
69.0386 546.00
69.1038 582.00
69.169 548.00
69.2342 540.00
69.2994 534.00
69.3646 545.00
69.4298 550.00
69.495 552.00
69.5602 529.00
69.6254 591.00
69.6906 585.00
69.7558 537.00
69.821 522.00
69.8862 544.00
69.9514 543.00
70.0166 570.00
70.0818 553.00
70.147 552.00
70.2122 524.00
70.2774 549.00
70.3426 583.00
70.4078 576.00
70.473 561.00
70.5382 550.00
70.6034 528.00
70.6686 481.00
70.7338 525.00
70.799 530.00
70.8642 535.00
70.9294 552.00
70.9946 539.00
71.0598 552.00
71.125 551.00
71.1902 565.00
71.2554 578.00
71.3205 553.00
71.3858 562.00
71.451 542.00
71.5162 595.00
71.5813 608.00
71.6465 610.00
71.7117 574.00
71.7769 632.00
71.8421 656.00
71.9073 756.00
71.9725 833.00
72.0377 966.00
72.1029 1149.00
72.1681 1343.00
72.2333 1517.00
72.2985 1113.00
72.3637 1016.00
72.4289 946.00
72.4941 790.00
72.5593 711.00
72.6245 634.00
72.6897 595.00
72.7549 552.00
72.8201 541.00
72.8853 515.00
72.9505 549.00
73.0157 631.00
73.0809 522.00
73.1461 535.00
73.2113 524.00
73.2765 508.00
73.3417 500.00
73.4069 526.00
73.4721 514.00
73.5373 512.00
73.6025 514.00
73.6677 498.00
73.7329 479.00
73.7981 554.00
73.8633 478.00
73.9285 472.00
73.9937 524.00
74.0589 506.00
74.1241 500.00
74.1893 536.00
74.2545 487.00
74.3197 469.00
74.3849 511.00
74.4501 508.00
74.5153 490.00
74.5805 510.00
74.6457 512.00
74.7109 527.00
74.7761 503.00
74.8413 498.00
74.9065 467.00
74.9717 501.00
75.0369 496.00
75.1021 460.00
75.1673 518.00
75.2325 514.00
75.2977 492.00
75.3629 509.00
75.4281 535.00
75.4933 490.00
75.5585 487.00
75.6237 516.00
75.6889 529.00
75.7541 492.00
75.8193 573.00
75.8845 626.00
75.9497 740.00
76.0149 730.00
76.0801 807.00
76.1452 748.00
76.2104 630.00
76.2756 714.00
76.3409 668.00
76.406 565.00
76.4712 551.00
76.5364 502.00
76.6016 515.00
76.6668 486.00
76.732 514.00
76.7972 499.00
76.8624 535.00
76.9276 497.00
76.9928 506.00
77.058 493.00
77.1232 494.00
77.1884 495.00
77.2536 551.00
77.3188 554.00
77.384 536.00
77.4492 486.00
77.5144 488.00
77.5796 513.00
77.6448 504.00
77.71 514.00
77.7752 486.00
77.8404 507.00
77.9056 474.00
77.9708 478.00
78.036 493.00
78.1012 446.00
78.1664 471.00
78.2316 494.00
78.2968 498.00
78.362 490.00
78.4272 458.00
78.4924 479.00
78.5576 494.00
78.6228 524.00
78.688 485.00
78.7532 472.00
78.8184 464.00
78.8836 494.00
78.9488 510.00
79.014 498.00
79.0792 480.00
79.1444 510.00
79.2096 483.00
79.2748 505.00
79.34 463.00
79.4052 449.00
79.4704 495.00
79.5356 463.00
79.6008 459.00
79.666 507.00
79.7312 509.00
79.7964 484.00
79.8616 514.00
79.9268 463.00
79.992 468.00
80.0572 472.00
80.1224 477.00
80.1876 486.00
80.2528 499.00
80.318 526.00
80.3832 452.00
80.4484 470.00
80.5136 481.00
80.5788 477.00
80.644 471.00
80.7092 504.00
80.7744 503.00
80.8396 491.00
80.9048 457.00
80.9699 498.00
81.0351 522.00
81.1003 480.00
81.1655 506.00
81.2307 500.00
81.2959 487.00
81.3611 537.00
81.4263 530.00
81.4915 521.00
81.5567 491.00
81.6219 512.00
81.6871 526.00
81.7523 572.00
81.8175 535.00
81.8827 542.00
81.9479 556.00
82.0131 585.00
82.0783 668.00
82.1435 771.00
82.2087 904.00
82.2739 1126.00
82.3391 1232.00
82.4043 1198.00
82.4695 955.00
82.5347 854.00
82.5999 886.00
82.6651 791.00
82.7303 646.00
82.7955 576.00
82.8607 549.00
82.9259 570.00
82.9911 505.00
83.0563 489.00
83.1215 514.00
83.1867 531.00
83.2519 525.00
83.3171 540.00
83.3823 483.00
83.4475 518.00
83.5127 500.00
83.5779 464.00
83.6431 495.00
83.7083 487.00
83.7735 504.00
83.8387 507.00
83.9039 473.00
83.9691 490.00
84.0343 490.00
84.0995 486.00
84.1647 499.00
84.2299 476.00
84.2951 486.00
84.3603 436.00
84.4255 496.00
84.4907 450.00
84.5559 465.00
84.6211 523.00
84.6863 504.00
84.7515 481.00
84.8167 470.00
84.8819 494.00
84.9471 494.00
85.0123 503.00
85.0775 500.00
85.1427 458.00
85.2079 546.00
85.2731 487.00
85.3383 481.00
85.4035 467.00
85.4687 510.00
85.5339 456.00
85.5991 487.00
85.6643 467.00
85.7295 488.00
85.7946 449.00
85.8598 513.00
85.925 535.00
85.9903 551.00
86.0554 547.00
86.1206 525.00
86.1858 486.00
86.251 507.00
86.3162 539.00
86.3814 502.00
86.4466 491.00
86.5118 430.00
86.577 464.00
86.6422 432.00
86.7074 476.00
86.7726 438.00
86.8378 474.00
86.903 471.00
86.9682 463.00
87.0334 435.00
87.0986 418.00
87.1638 443.00
87.229 442.00
87.2942 413.00
87.3594 434.00
87.4246 448.00
87.4898 461.00
87.555 492.00
87.6202 412.00
87.6854 442.00
87.7506 455.00
87.8158 480.00
87.881 449.00
87.9462 401.00
88.0114 446.00
88.0766 464.00
88.1418 488.00
88.207 481.00
88.2722 449.00
88.3374 449.00
88.4026 457.00
88.4678 392.00
88.533 458.00
88.5982 439.00
88.6634 427.00
88.7286 425.00
88.7938 445.00
88.859 502.00
88.9242 424.00
88.9894 472.00
89.0546 489.00
89.1198 406.00
89.185 431.00
89.2502 423.00
89.3154 451.00
89.3806 402.00
89.4458 450.00
89.511 427.00
89.5762 404.00
89.6414 453.00
89.7066 455.00
89.7718 465.00
89.837 438.00
89.9022 460.00
89.9674 440.00
90.0326 447.00
90.0978 458.00
90.163 444.00
90.2282 459.00
90.2934 443.00
90.3586 445.00
90.4238 428.00
90.489 411.00
90.5542 415.00
90.6193 398.00
90.6845 406.00
90.7497 414.00
90.8149 477.00
90.8801 413.00
90.9453 437.00
91.0105 414.00
91.0757 429.00
91.1409 424.00
91.2061 442.00
91.2713 444.00
91.3365 445.00
91.4017 460.00
91.4669 449.00
91.5321 424.00
91.5973 435.00
91.6625 470.00
91.7277 453.00
91.7929 428.00
91.8581 458.00
91.9233 453.00
91.9885 442.00
92.0537 513.00
92.1189 525.00
92.1841 566.00
92.2493 537.00
92.3145 551.00
92.3797 533.00
92.4449 479.00
92.5101 487.00
92.5753 513.00
92.6405 465.00
92.7057 484.00
92.7709 422.00
92.8361 466.00
92.9013 398.00
92.9665 436.00
93.0317 411.00
93.0969 444.00
93.1621 475.00
93.2273 451.00
93.2925 401.00
93.3577 420.00
93.4229 464.00
93.4881 437.00
93.5533 442.00
93.6185 440.00
93.6837 403.00
93.7489 446.00
93.8141 451.00
93.8793 425.00
93.9445 442.00
94.0097 386.00
94.0749 415.00
94.1401 459.00
94.2053 412.00
94.2705 426.00
94.3357 428.00
94.4009 435.00
94.4661 456.00
94.5313 415.00
94.5965 401.00
94.6617 440.00
94.7269 442.00
94.7921 432.00
94.8573 400.00
94.9225 436.00
94.9877 420.00
95.0529 458.00
95.1181 421.00
95.1833 437.00
95.2485 429.00
95.3137 440.00
95.3789 421.00
95.444 436.00
95.5092 447.00
95.5744 498.00
95.6396 437.00
95.7048 417.00
95.77 422.00
95.8352 489.00
95.9004 485.00
95.9656 489.00
96.0308 476.00
96.096 463.00
96.1612 479.00
96.2264 484.00
96.2916 443.00
96.3568 463.00
96.422 436.00
96.4872 419.00
96.5524 432.00
96.6176 422.00
96.6828 473.00
96.748 430.00
96.8132 430.00
96.8784 404.00
96.9436 419.00
97.0088 454.00
97.074 448.00
97.1392 434.00
97.2044 478.00
97.2696 413.00
97.3348 423.00
97.4 436.00
97.4652 416.00
97.5304 474.00
97.5956 419.00
97.6608 413.00
97.726 414.00
97.7912 431.00
97.8564 417.00
97.9216 424.00
97.9868 416.00
98.052 414.00
98.1172 438.00
98.1824 432.00
98.2476 424.00
98.3128 417.00
98.378 462.00
98.4432 427.00
98.5084 401.00
98.5736 464.00
98.6388 414.00
98.704 421.00
98.7692 445.00
98.8344 421.00
98.8996 413.00
98.9648 419.00
99.03 374.00
99.0952 420.00
99.1604 400.00
99.2256 433.00
99.2908 434.00
99.356 405.00
99.4212 427.00
99.4864 395.00
99.5516 383.00
99.6168 394.00
99.682 412.00
99.7472 456.00
99.8124 417.00
99.8776 406.00
99.9428 410.00
100.008 433.00
100.073 435.00
100.095 430.00