File: data/xrd_creation/results/Na_281.xy
9.903433 5486.00
9.968632 5517.00
10.0338 5487.00
10.099 5449.00
10.1642 5352.00
10.2294 5414.00
10.2946 5513.00
10.3598 5451.00
10.425 5500.00
10.4902 5598.00
10.5554 5364.00
10.6206 5353.00
10.6858 5469.00
10.751 5279.00
10.8162 5317.00
10.8814 5504.00
10.9466 5343.00
11.0118 5381.00
11.077 5429.00
11.1422 5413.00
11.2074 5646.00
11.2726 5454.00
11.3378 5463.00
11.403 5438.00
11.4682 5471.00
11.5334 5397.00
11.5986 5333.00
11.6638 5455.00
11.729 5565.00
11.7942 5396.00
11.8594 5292.00
11.9246 5509.00
11.9898 5528.00
12.055 5532.00
12.1202 5530.00
12.1854 5514.00
12.2506 5592.00
12.3158 5458.00
12.381 5484.00
12.4462 5597.00
12.5114 5661.00
12.5766 5459.00
12.6418 5474.00
12.707 5552.00
12.7722 5499.00
12.8374 5537.00
12.9026 5464.00
12.9678 5576.00
13.033 5574.00
13.0982 5745.00
13.1634 5513.00
13.2286 5606.00
13.2938 5668.00
13.359 5567.00
13.4242 5659.00
13.4894 5731.00
13.5546 5609.00
13.6198 5675.00
13.685 5665.00
13.7502 5700.00
13.8154 5630.00
13.8805 5817.00
13.9457 5741.00
14.0109 5729.00
14.0761 5696.00
14.1413 5732.00
14.2065 5720.00
14.2717 5793.00
14.3369 5782.00
14.4021 5792.00
14.4673 5868.00
14.5325 5702.00
14.5977 5977.00
14.6629 5666.00
14.7281 5809.00
14.7933 5903.00
14.8585 5923.00
14.9237 5902.00
14.9889 5894.00
15.0541 5852.00
15.1193 5904.00
15.1845 5778.00
15.2497 5840.00
15.3149 5898.00
15.3801 6002.00
15.4453 5953.00
15.5105 6049.00
15.5757 5887.00
15.6409 6102.00
15.7061 6144.00
15.7713 6128.00
15.8365 6063.00
15.9017 6132.00
15.9669 6071.00
16.0321 6058.00
16.0973 6057.00
16.1625 6092.00
16.2277 6037.00
16.2929 6165.00
16.3581 6021.00
16.4233 6308.00
16.4885 6220.00
16.5537 6031.00
16.6189 6209.00
16.6841 6210.00
16.7493 6192.00
16.8145 6329.00
16.8797 6216.00
16.9449 6064.00
17.0101 6205.00
17.0753 6308.00
17.1405 6209.00
17.2057 6247.00
17.2709 6377.00
17.3361 6247.00
17.4013 6165.00
17.4665 6183.00
17.5317 6197.00
17.5969 6206.00
17.6621 6254.00
17.7273 6204.00
17.7925 6223.00
17.8577 6306.00
17.9229 6280.00
17.9881 6191.00
18.0533 6238.00
18.1185 6235.00
18.1837 6425.00
18.2489 6186.00
18.3141 6332.00
18.3793 6183.00
18.4445 6450.00
18.5097 6395.00
18.5749 6312.00
18.6401 6229.00
18.7052 6497.00
18.7704 6435.00
18.8356 6350.00
18.9008 6326.00
18.966 6302.00
19.0312 6571.00
19.0964 6424.00
19.1616 6386.00
19.2268 6506.00
19.292 6444.00
19.3572 6552.00
19.4224 6589.00
19.4876 6416.00
19.5528 6565.00
19.618 6546.00
19.6832 6497.00
19.7484 6438.00
19.8136 6547.00
19.8788 6561.00
19.944 6507.00
20.0092 6535.00
20.0744 6390.00
20.1396 6623.00
20.2048 6520.00
20.27 6632.00
20.3352 6513.00
20.4004 6640.00
20.4656 6748.00
20.5308 6646.00
20.596 6772.00
20.6612 6833.00
20.7264 7140.00
20.7916 7274.00
20.8568 8137.00
20.922 9585.00
20.9872 11975.00
21.0524 16151.00
21.1176 18183.00
21.1828 12414.00
21.248 7788.00
21.3132 6856.00
21.3784 6871.00
21.4436 6794.00
21.5088 6736.00
21.574 6729.00
21.6392 6563.00
21.7044 6742.00
21.7696 6772.00
21.8348 6752.00
21.9 6788.00
21.9652 6828.00
22.0304 6731.00
22.0956 6878.00
22.1608 6879.00
22.226 6884.00
22.2912 6948.00
22.3564 6796.00
22.4216 6786.00
22.4868 6698.00
22.552 6724.00
22.6172 6806.00
22.6824 6729.00
22.7476 6838.00
22.8128 6879.00
22.878 6781.00
22.9432 6969.00
23.0084 6888.00
23.0736 6928.00
23.1388 6823.00
23.204 6873.00
23.2692 6746.00
23.3344 6701.00
23.3996 6834.00
23.4647 6875.00
23.5299 6840.00
23.5951 6787.00
23.6603 6881.00
23.7255 6843.00
23.7907 6766.00
23.8559 6692.00
23.9211 6840.00
23.9863 6995.00
24.0515 6934.00
24.1167 6961.00
24.1819 6844.00
24.2471 6824.00
24.3123 6949.00
24.3775 6916.00
24.4427 6916.00
24.5079 6870.00
24.5731 6839.00
24.6383 6797.00
24.7035 6825.00
24.7687 6739.00
24.8339 6803.00
24.8991 6846.00
24.9643 6830.00
25.0295 7163.00
25.0947 7046.00
25.1599 6824.00
25.2251 6721.00
25.2903 6570.00
25.3555 6883.00
25.4207 6830.00
25.4859 6805.00
25.5511 6709.00
25.6163 7008.00
25.6815 6907.00
25.7467 6836.00
25.8119 6726.00
25.8771 6817.00
25.9423 6667.00
26.0075 6777.00
26.0727 6864.00
26.1379 6904.00
26.2031 6917.00
26.2683 6839.00
26.3335 6823.00
26.3987 6789.00
26.4639 6786.00
26.5291 6763.00
26.5943 6696.00
26.6595 6903.00
26.7247 6998.00
26.7899 6739.00
26.8551 6817.00
26.9203 6940.00
26.9855 6831.00
27.0507 6735.00
27.1159 6728.00
27.1811 6846.00
27.2463 6753.00
27.3115 6767.00
27.3767 6848.00
27.4419 6795.00
27.5071 6926.00
27.5723 6623.00
27.6375 6760.00
27.7027 6729.00
27.7679 6729.00
27.8331 6726.00
27.8983 6866.00
27.9635 6753.00
28.0287 6821.00
28.0939 6735.00
28.1591 6793.00
28.2243 6827.00
28.2894 6743.00
28.3546 6906.00
28.4198 6763.00
28.485 6861.00
28.5502 6781.00
28.6154 6863.00
28.6806 6762.00
28.7458 6774.00
28.811 6564.00
28.8762 6866.00
28.9414 6680.00
29.0066 6748.00
29.0718 6866.00
29.137 6845.00
29.2022 6782.00
29.2674 6759.00
29.3326 6692.00
29.3978 6751.00
29.463 6797.00
29.5282 6817.00
29.5934 6731.00
29.6586 6845.00
29.7238 6713.00
29.789 6627.00
29.8542 6756.00
29.9194 6672.00
29.9846 6870.00
30.0498 6752.00
30.115 6832.00
30.1802 6787.00
30.2454 6815.00
30.3106 6968.00
30.3758 7012.00
30.441 7033.00
30.5062 7318.00
30.5714 7010.00
30.6366 6957.00
30.7018 6925.00
30.767 6878.00
30.8322 6820.00
30.8974 6635.00
30.9626 6682.00
31.0278 6688.00
31.093 6721.00
31.1582 6991.00
31.2234 6927.00
31.2886 6784.00
31.3538 6694.00
31.419 6807.00
31.4842 6846.00
31.5494 7055.00
31.6146 6650.00
31.6798 6846.00
31.745 6884.00
31.8102 6711.00
31.8754 6836.00
31.9406 6757.00
32.0058 6791.00
32.071 6719.00
32.1362 6814.00
32.2014 6757.00
32.2666 6879.00
32.3318 6702.00
32.397 6717.00
32.4622 6742.00
32.5274 6711.00
32.5926 6773.00
32.6578 6761.00
32.723 6805.00
32.7882 6737.00
32.8534 6662.00
32.9186 6819.00
32.9838 6744.00
33.0489 6786.00
33.1141 6732.00
33.1793 6930.00
33.2445 6885.00
33.3097 6860.00
33.3749 6768.00
33.4401 6990.00
33.5053 7003.00
33.5705 6911.00
33.6357 6900.00
33.7009 6963.00
33.7661 6934.00
33.8313 6919.00
33.8965 6877.00
33.9617 7089.00
34.0269 6959.00
34.0921 7101.00
34.1573 7164.00
34.2225 7143.00
34.2877 7429.00
34.3529 8199.00
34.4181 10355.00
34.4833 15674.00
34.5485 24087.00
34.6137 25489.00
34.6789 18441.00
34.7441 10677.00
34.8093 7911.00
34.8745 7232.00
34.9397 7207.00
35.0049 7035.00
35.0701 7284.00
35.1353 7064.00
35.2005 7172.00
35.2657 6924.00
35.3309 6819.00
35.3961 6749.00
35.4613 6824.00
35.5265 6929.00
35.5917 6800.00
35.6569 6794.00
35.7221 6915.00
35.7873 6908.00
35.8525 6919.00
35.9177 6785.00
35.9829 6899.00
36.0481 6945.00
36.1133 7556.00
36.1785 8170.00
36.2437 8525.00
36.3089 7930.00
36.3741 7182.00
36.4393 6966.00
36.5045 7028.00
36.5697 6847.00
36.6349 6956.00
36.7001 6749.00
36.7653 6783.00
36.8305 6931.00
36.8957 7050.00
36.9609 6877.00
37.0261 7022.00
37.0913 7018.00
37.1565 7308.00
37.2217 7135.00
37.2869 7002.00
37.3521 6853.00
37.4173 6759.00
37.4825 6847.00
37.5477 6749.00
37.6129 6935.00
37.6781 6873.00
37.7433 6847.00
37.8085 6919.00
37.8736 6869.00
37.9388 6905.00
38.004 6893.00
38.0692 6751.00
38.1344 6906.00
38.1996 6811.00
38.2648 6877.00
38.33 6893.00
38.3952 6758.00
38.4604 6888.00
38.5256 6915.00
38.5908 6748.00
38.656 6969.00
38.7212 6974.00
38.7864 6884.00
38.8516 6781.00
38.9168 6868.00
38.982 6883.00
39.0472 6823.00
39.1124 6799.00
39.1776 7043.00
39.2428 7165.00
39.308 7231.00
39.3732 7161.00
39.4384 6928.00
39.5036 6623.00
39.5688 6803.00
39.634 7022.00
39.6992 6955.00
39.7644 7022.00
39.8296 6980.00
39.8948 6959.00
39.96 6890.00
40.0252 6797.00
40.0904 6822.00
40.1556 6661.00
40.2208 6812.00
40.286 6619.00
40.3512 6802.00
40.4164 6764.00
40.4816 6828.00
40.5468 6855.00
40.612 6971.00
40.6772 6889.00
40.7424 7032.00
40.8076 6962.00
40.8728 6829.00
40.938 6719.00
41.0032 6883.00
41.0684 6886.00
41.1336 6862.00
41.1988 6698.00
41.264 6728.00
41.3292 6782.00
41.3944 6853.00
41.4596 6820.00
41.5248 6774.00
41.59 6900.00
41.6552 6858.00
41.7204 6910.00
41.7856 7006.00
41.8508 6781.00
41.916 6841.00
41.9812 6893.00
42.0464 6679.00
42.1116 6886.00
42.1768 6854.00
42.242 6998.00
42.3072 6783.00
42.3724 6850.00
42.4376 6916.00
42.5028 7114.00
42.568 7325.00
42.6332 7392.00
42.6983 7594.00
42.7635 7048.00
42.8287 6984.00
42.8939 6914.00
42.9591 6784.00
43.0243 6933.00
43.0895 6864.00
43.1547 6999.00
43.2199 6861.00
43.2851 6902.00
43.3503 6826.00
43.4155 6834.00
43.4807 6874.00
43.5459 6977.00
43.6111 6962.00
43.6763 7008.00
43.7415 6696.00
43.8067 6966.00
43.8719 6854.00
43.9371 6631.00
44.0023 6843.00
44.0675 6856.00
44.1327 6717.00
44.1979 6900.00
44.2631 6835.00
44.3283 6896.00
44.3935 6729.00
44.4587 6874.00
44.5239 6783.00
44.5891 6773.00
44.6543 6607.00
44.7195 6747.00
44.7847 6742.00
44.8499 6698.00
44.9151 6750.00
44.9803 6796.00
45.0455 6861.00
45.1107 6858.00
45.1759 6852.00
45.2411 6707.00
45.3063 6643.00
45.3715 6822.00
45.4367 6662.00
45.5019 6684.00
45.5671 6631.00
45.6323 6785.00
45.6975 6856.00
45.7627 6703.00
45.8279 6817.00
45.8931 6802.00
45.9583 6917.00
46.0235 6535.00
46.0887 6868.00
46.1539 6872.00
46.2191 6787.00
46.2843 6713.00
46.3495 6769.00
46.4147 6725.00
46.4799 6697.00
46.5451 6818.00
46.6103 6843.00
46.6755 6793.00
46.7407 6778.00
46.8059 6860.00
46.8711 6796.00
46.9363 6729.00
47.0015 6730.00
47.0667 6801.00
47.1319 6770.00
47.1971 6799.00
47.2623 6710.00
47.3275 6811.00
47.3927 6883.00
47.4579 6869.00
47.523 6859.00
47.5882 6926.00
47.6534 6723.00
47.7186 6835.00
47.7838 6760.00
47.849 6810.00
47.9142 6830.00
47.9794 6802.00
48.0446 6638.00
48.1098 6587.00
48.175 6788.00
48.2402 6684.00
48.3054 6802.00
48.3706 6736.00
48.4358 6773.00
48.501 6765.00
48.5662 6754.00
48.6314 6771.00
48.6966 6730.00
48.7618 6610.00
48.827 6724.00
48.8922 6713.00
48.9574 6738.00
49.0226 6858.00
49.0878 6935.00
49.153 6700.00
49.2182 6816.00
49.2834 6977.00
49.3486 6931.00
49.4138 7378.00
49.479 8246.00
49.5442 9605.00
49.6094 9643.00
49.6746 8464.00
49.7398 7958.00
49.805 6923.00
49.8702 6800.00
49.9354 6781.00
50.0006 6928.00
50.0658 6970.00
50.131 6812.00
50.1962 6751.00
50.2614 6745.00
50.3266 6879.00
50.3918 6815.00
50.457 6888.00
50.5222 6660.00
50.5874 6860.00
50.6526 6842.00
50.7178 6645.00
50.783 6741.00
50.8482 6838.00
50.9134 6744.00
50.9786 6589.00
51.0438 6899.00
51.109 6784.00
51.1742 6713.00
51.2394 6758.00
51.3046 6797.00
51.3698 6638.00
51.435 6703.00
51.5002 6643.00
51.5654 6689.00
51.6306 6839.00
51.6958 6795.00
51.761 6808.00
51.8262 6765.00
51.8914 6701.00
51.9566 6884.00
52.0218 6717.00
52.087 6631.00
52.1522 6808.00
52.2174 6685.00
52.2826 6607.00
52.3477 6774.00
52.4129 6825.00
52.4781 6655.00
52.5433 6865.00
52.6085 6702.00
52.6737 6751.00
52.7389 6788.00
52.8041 6756.00
52.8693 6725.00
52.9345 6886.00
52.9997 6720.00
53.0649 6686.00
53.1301 6620.00
53.1953 6735.00
53.2605 6671.00
53.3257 6881.00
53.3909 6676.00
53.4561 6822.00
53.5213 6781.00
53.5865 6766.00
53.6517 6919.00
53.7169 6737.00
53.7821 6746.00
53.8473 6818.00
53.9125 6883.00
53.9777 6853.00
54.0429 6707.00
54.1081 6864.00
54.1733 6813.00
54.2385 6990.00
54.3037 6739.00
54.3689 6870.00
54.4341 6852.00
54.4993 6771.00
54.5645 6681.00
54.6297 6648.00
54.6949 6644.00
54.7601 6718.00
54.8253 6756.00
54.8905 6662.00
54.9557 6745.00
55.0209 6752.00
55.0861 6866.00
55.1513 6679.00
55.2165 6681.00
55.2817 6756.00
55.3469 6731.00
55.4121 6708.00
55.4773 6709.00
55.5425 6731.00
55.6077 6850.00
55.6729 6536.00
55.7381 6839.00
55.8033 6936.00
55.8685 7051.00
55.9337 6814.00
55.9989 7051.00
56.0641 6897.00
56.1293 6977.00
56.1945 7030.00
56.2597 6716.00
56.3249 6711.00
56.3901 6892.00
56.4553 6749.00
56.5205 6707.00
56.5857 6838.00
56.6509 6689.00
56.7161 6812.00
56.7813 6797.00
56.8465 6654.00
56.9117 6753.00
56.9769 6763.00
57.042 6760.00
57.1073 6688.00
57.1724 6717.00
57.2376 6663.00
57.3028 6780.00
57.368 6745.00
57.4332 6686.00
57.4984 6669.00
57.5636 6756.00
57.6288 6617.00
57.694 6734.00
57.7592 6765.00
57.8244 6743.00
57.8896 6779.00
57.9548 6736.00
58.02 6723.00
58.0852 6871.00
58.1504 6766.00
58.2156 6706.00
58.2808 6638.00
58.346 6746.00
58.4112 6649.00
58.4764 6731.00
58.5416 6668.00
58.6068 6640.00
58.672 6613.00
58.7372 6653.00
58.8024 6532.00
58.8676 6813.00
58.9328 6899.00
58.998 6775.00
59.0632 6816.00
59.1284 6727.00
59.1936 6824.00
59.2588 6673.00
59.324 6796.00
59.3892 6711.00
59.4544 6672.00
59.5196 6758.00
59.5848 7038.00
59.65 6875.00
59.7152 6784.00
59.7804 6939.00
59.8456 6845.00
59.9108 6774.00
59.976 6711.00
60.0412 6616.00
60.1064 6727.00
60.1716 6843.00
60.2368 6683.00
60.302 6670.00
60.3672 6767.00
60.4324 6777.00
60.4976 6721.00
60.5628 6907.00
60.628 6595.00
60.6932 6710.00
60.7584 6699.00
60.8236 6741.00
60.8888 6687.00
60.954 6821.00
61.0192 6616.00
61.0844 6713.00
61.1496 6725.00
61.2148 6763.00
61.28 6790.00
61.3452 6984.00
61.4104 6887.00
61.4756 7361.00
61.5408 8200.00
61.606 9465.00
61.6712 9463.00
61.7364 9593.00
61.8016 9863.00
61.8667 8479.00
61.932 7813.00
61.9971 7585.00
62.0623 7053.00
62.1275 6888.00
62.1927 6746.00
62.2579 6664.00
62.3231 6687.00
62.3883 6786.00
62.4535 6641.00
62.5187 6689.00
62.5839 6706.00
62.6491 6754.00
62.7143 6713.00
62.7795 6738.00
62.8447 6630.00
62.9099 6690.00
62.9751 6679.00
63.0403 6586.00
63.1055 6623.00
63.1707 6801.00
63.2359 6776.00
63.3011 6773.00
63.3663 6672.00
63.4315 6573.00
63.4967 6767.00
63.5619 6503.00
63.6271 6510.00
63.6923 6706.00
63.7575 6816.00
63.8227 6663.00
63.8879 6743.00
63.9531 6822.00
64.0183 6736.00
64.0835 6646.00
64.1487 6667.00
64.2139 6748.00
64.2791 6669.00
64.3443 6748.00
64.4095 6728.00
64.4747 6823.00
64.5399 6710.00
64.6051 6802.00
64.6703 6882.00
64.7355 6790.00
64.8007 6683.00
64.8659 6768.00
64.9311 6689.00
64.9963 6825.00
65.0615 6768.00
65.1267 6611.00
65.1919 6552.00
65.2571 6703.00
65.3223 6631.00
65.3875 6798.00
65.4527 6885.00
65.5179 6797.00
65.5831 6656.00
65.6483 6926.00
65.7135 6862.00
65.7787 6926.00
65.8439 7030.00
65.9091 7010.00
65.9743 6962.00
66.0395 6866.00
66.1047 6767.00
66.1699 6795.00
66.2351 6699.00
66.3003 6805.00
66.3655 6713.00
66.4307 6629.00
66.4959 6612.00
66.561 6624.00
66.6263 6673.00
66.6915 6570.00
66.7566 6665.00
66.8218 6561.00
66.887 6646.00
66.9522 6769.00
67.0174 6703.00
67.0826 6535.00
67.1478 6652.00
67.213 6581.00
67.2782 6681.00
67.3434 6733.00
67.4086 6622.00
67.4738 6522.00
67.539 6701.00
67.6042 6640.00
67.6694 6784.00
67.7346 6623.00
67.7998 6762.00
67.865 6669.00
67.9302 6656.00
67.9954 6734.00
68.0606 6707.00
68.1258 6671.00
68.191 6705.00
68.2562 6780.00
68.3214 6646.00
68.3866 6682.00
68.4518 6741.00
68.517 6701.00
68.5822 6602.00
68.6474 6744.00
68.7126 6592.00
68.7778 6609.00
68.843 6639.00
68.9082 6690.00
68.9734 6660.00
69.0386 6619.00
69.1038 6660.00
69.169 6476.00
69.2342 6647.00
69.2994 6530.00
69.3646 6580.00
69.4298 6569.00
69.495 6668.00
69.5602 6655.00
69.6254 6794.00
69.6906 6573.00
69.7558 6662.00
69.821 6534.00
69.8862 6506.00
69.9514 6495.00
70.0166 6545.00
70.0818 6689.00
70.147 6578.00
70.2122 6660.00
70.2774 6698.00
70.3426 6574.00
70.4078 6632.00
70.473 6671.00
70.5382 6696.00
70.6034 6561.00
70.6686 6833.00
70.7338 6678.00
70.799 6543.00
70.8642 6552.00
70.9294 6637.00
70.9946 6611.00
71.0598 6641.00
71.125 6730.00
71.1902 6550.00
71.2554 6681.00
71.3205 6659.00
71.3858 6667.00
71.451 6559.00
71.5162 6605.00
71.5813 6590.00
71.6465 6782.00
71.7117 6581.00
71.7769 6547.00
71.8421 6634.00
71.9073 6612.00
71.9725 6788.00
72.0377 6559.00
72.1029 6586.00
72.1681 6651.00
72.2333 6674.00
72.2985 6757.00
72.3637 6911.00
72.4289 7213.00
72.4941 7301.00
72.5593 7159.00
72.6245 6991.00
72.6897 6995.00
72.7549 6979.00
72.8201 6783.00
72.8853 6737.00
72.9505 6734.00
73.0157 6716.00
73.0809 6576.00
73.1461 6536.00
73.2113 6534.00
73.2765 6562.00
73.3417 6797.00
73.4069 6764.00
73.4721 6498.00
73.5373 6670.00
73.6025 6567.00
73.6677 6662.00
73.7329 6469.00
73.7981 6619.00
73.8633 6496.00
73.9285 6614.00
73.9937 6602.00
74.0589 6451.00
74.1241 6637.00
74.1893 6520.00
74.2545 6566.00
74.3197 6571.00
74.3849 6628.00
74.4501 6529.00
74.5153 6499.00
74.5805 6705.00
74.6457 6526.00
74.7109 6605.00
74.7761 6622.00
74.8413 6541.00
74.9065 6575.00
74.9717 6663.00
75.0369 6720.00
75.1021 6547.00
75.1673 6584.00
75.2325 6596.00
75.2977 6537.00
75.3629 6550.00
75.4281 6660.00
75.4933 6574.00
75.5585 6510.00
75.6237 6596.00
75.6889 6582.00
75.7541 6687.00
75.8193 6569.00
75.8845 6641.00
75.9497 6588.00
76.0149 6656.00
76.0801 6511.00
76.1452 6559.00
76.2104 6620.00
76.2756 6712.00
76.3409 6710.00
76.406 6628.00
76.4712 6623.00
76.5364 6869.00
76.6016 6520.00
76.6668 6695.00
76.732 6587.00
76.7972 6635.00
76.8624 6620.00
76.9276 6582.00
76.9928 6526.00
77.058 6552.00
77.1232 6533.00
77.1884 6683.00
77.2536 6549.00
77.3188 6698.00
77.384 6501.00
77.4492 6558.00
77.5144 6632.00
77.5796 6756.00
77.6448 6584.00
77.71 6573.00
77.7752 6719.00
77.8404 6700.00
77.9056 6630.00
77.9708 6653.00
78.036 6566.00
78.1012 6560.00
78.1664 6390.00
78.2316 6615.00
78.2968 6589.00
78.362 6589.00
78.4272 6493.00
78.4924 6492.00
78.5576 6422.00
78.6228 6638.00
78.688 6580.00
78.7532 6536.00
78.8184 6557.00
78.8836 6569.00
78.9488 6564.00
79.014 6609.00
79.0792 6422.00
79.1444 6629.00
79.2096 6687.00
79.2748 6653.00
79.34 6669.00
79.4052 6526.00
79.4704 6578.00
79.5356 6723.00
79.6008 6575.00
79.666 6567.00
79.7312 6572.00
79.7964 6525.00
79.8616 6520.00
79.9268 6532.00
79.992 6531.00
80.0572 6418.00
80.1224 6501.00
80.1876 6608.00
80.2528 6634.00
80.318 6646.00
80.3832 6585.00
80.4484 6583.00
80.5136 6568.00
80.5788 6528.00
80.644 6564.00
80.7092 6597.00
80.7744 6498.00
80.8396 6521.00
80.9048 6592.00
80.9699 6543.00
81.0351 6580.00
81.1003 6555.00
81.1655 6602.00
81.2307 6701.00
81.2959 6574.00
81.3611 6696.00
81.4263 6702.00
81.4915 6568.00
81.5567 6467.00
81.6219 6476.00
81.6871 6571.00
81.7523 6598.00
81.8175 6569.00
81.8827 6473.00
81.9479 6574.00
82.0131 6680.00
82.0783 6600.00
82.1435 6575.00
82.2087 6738.00
82.2739 6488.00
82.3391 6471.00
82.4043 6606.00
82.4695 6854.00
82.5347 6751.00
82.5999 6988.00
82.6651 7207.00
82.7303 7392.00
82.7955 7245.00
82.8607 6987.00
82.9259 7125.00
82.9911 7002.00
83.0563 6865.00
83.1215 6648.00
83.1867 6800.00
83.2519 6696.00
83.3171 6481.00
83.3823 6679.00
83.4475 6561.00
83.5127 6705.00
83.5779 6513.00
83.6431 6700.00
83.7083 6711.00
83.7735 6510.00
83.8387 6484.00
83.9039 6601.00
83.9691 6435.00
84.0343 6584.00
84.0995 6679.00
84.1647 6601.00
84.2299 6628.00
84.2951 6473.00
84.3603 6537.00
84.4255 6482.00
84.4907 6368.00
84.5559 6498.00
84.6211 6532.00
84.6863 6598.00
84.7515 6586.00
84.8167 6538.00
84.8819 6475.00
84.9471 6589.00
85.0123 6362.00
85.0775 6583.00
85.1427 6542.00
85.2079 6571.00
85.2731 6564.00
85.3383 6548.00
85.4035 6392.00
85.4687 6578.00
85.5339 6535.00
85.5991 6659.00
85.6643 6534.00
85.7295 6555.00
85.7946 6569.00
85.8598 6617.00
85.925 6528.00
85.9903 6660.00
86.0554 6509.00
86.1206 6565.00
86.1858 6418.00
86.251 6661.00
86.3162 6612.00
86.3814 6564.00
86.4466 6574.00
86.5118 6669.00
86.577 6661.00
86.6422 6444.00
86.7074 6473.00
86.7726 6577.00
86.8378 6693.00
86.903 6411.00
86.9682 6609.00
87.0334 6463.00
87.0986 6599.00
87.1638 6587.00
87.229 6543.00
87.2942 6583.00
87.3594 6575.00
87.4246 6613.00
87.4898 6532.00
87.555 6550.00
87.6202 6547.00
87.6854 6579.00
87.7506 6607.00
87.8158 6484.00
87.881 6445.00
87.9462 6533.00
88.0114 6476.00
88.0766 6721.00
88.1418 6611.00
88.207 6638.00
88.2722 6446.00
88.3374 6595.00
88.4026 6390.00
88.4678 6528.00
88.533 6556.00
88.5982 6612.00
88.6634 6699.00
88.7286 6455.00
88.7938 6521.00
88.859 6512.00
88.9242 6340.00
88.9894 6613.00
89.0546 6573.00
89.1198 6443.00
89.185 6499.00
89.2502 6525.00
89.3154 6566.00
89.3806 6595.00
89.4458 6617.00
89.511 6627.00
89.5762 6497.00
89.6414 6480.00
89.7066 6646.00
89.7718 6443.00
89.837 6527.00
89.9022 6666.00
89.9674 6600.00
90.0326 6506.00
90.0978 6612.00
90.163 6429.00
90.2282 6552.00
90.2934 6499.00
90.3586 6592.00
90.4238 6461.00
90.489 6414.00
90.5542 6492.00
90.6193 6595.00
90.6845 6500.00
90.7497 6573.00
90.8149 6416.00
90.8801 6419.00
90.9453 6419.00
91.0105 6603.00
91.0757 6580.00
91.1409 6504.00
91.2061 6482.00
91.2713 6482.00
91.3365 6659.00
91.4017 6540.00
91.4669 6591.00
91.5321 6560.00
91.5973 6493.00
91.6625 6472.00
91.7277 6489.00
91.7929 6530.00
91.8581 6462.00
91.9233 6535.00
91.9885 6398.00
92.0537 6497.00
92.1189 6560.00
92.1841 6510.00
92.2493 6461.00
92.3145 6638.00
92.3797 6579.00
92.4449 6513.00
92.5101 6570.00
92.5753 6685.00
92.6405 6638.00
92.7057 6550.00
92.7709 6590.00
92.8361 6643.00
92.9013 6686.00
92.9665 6544.00
93.0317 6635.00
93.0969 6655.00
93.1621 6511.00
93.2273 6554.00
93.2925 6617.00
93.3577 6555.00
93.4229 6479.00
93.4881 6606.00
93.5533 6564.00
93.6185 6523.00
93.6837 6607.00
93.7489 6568.00
93.8141 6526.00
93.8793 6485.00
93.9445 6406.00
94.0097 6527.00
94.0749 6299.00
94.1401 6490.00
94.2053 6526.00
94.2705 6507.00
94.3357 6614.00
94.4009 6446.00
94.4661 6490.00
94.5313 6394.00
94.5965 6394.00
94.6617 6505.00
94.7269 6479.00
94.7921 6562.00
94.8573 6654.00
94.9225 6593.00
94.9877 6410.00
95.0529 6426.00
95.1181 6606.00
95.1833 6605.00
95.2485 6414.00
95.3137 6362.00
95.3789 6548.00
95.444 6515.00
95.5092 6643.00
95.5744 6547.00
95.6396 6614.00
95.7048 6435.00
95.77 6458.00
95.8352 6683.00
95.9004 6599.00
95.9656 6428.00
96.0308 6581.00
96.096 6477.00
96.1612 6568.00
96.2264 6415.00
96.2916 6458.00
96.3568 6537.00
96.422 6440.00
96.4872 6539.00
96.5524 6578.00
96.6176 6395.00
96.6828 6595.00
96.748 6445.00
96.8132 6558.00
96.8784 6423.00
96.9436 6608.00
97.0088 6518.00
97.074 6529.00
97.1392 6533.00
97.2044 6599.00
97.2696 6424.00
97.3348 6670.00
97.4 6411.00
97.4652 6498.00
97.5304 6528.00
97.5956 6578.00
97.6608 6518.00
97.726 6346.00
97.7912 6478.00
97.8564 6626.00
97.9216 6419.00
97.9868 6582.00
98.052 6415.00
98.1172 6558.00
98.1824 6631.00
98.2476 6531.00
98.3128 6450.00
98.378 6472.00
98.4432 6426.00
98.5084 6406.00
98.5736 6549.00
98.6388 6579.00
98.704 6685.00
98.7692 6524.00
98.8344 6601.00
98.8996 6376.00
98.9648 6372.00
99.03 6651.00
99.0952 6554.00
99.1604 6408.00
99.2256 6383.00
99.2908 6451.00
99.356 6533.00
99.4212 6510.00
99.4864 6415.00
99.5516 6563.00
99.6168 6488.00
99.682 6443.00
99.7472 6413.00
99.8124 6430.00
99.8776 6440.00
99.9428 6495.00
100.008 6511.00
100.073 6536.00
100.095 6507.00