File: data/xrd_creation/results/Na_302.xy
9.903433 2736.00
9.968632 2892.00
10.0338 2797.00
10.099 2801.00
10.1642 2745.00
10.2294 2723.00
10.2946 2773.00
10.3598 2786.00
10.425 2685.00
10.4902 2713.00
10.5554 2709.00
10.6206 2622.00
10.6858 2620.00
10.751 2569.00
10.8162 2620.00
10.8814 2512.00
10.9466 2579.00
11.0118 2560.00
11.077 2461.00
11.1422 2431.00
11.2074 2520.00
11.2726 2500.00
11.3378 2386.00
11.403 2350.00
11.4682 2414.00
11.5334 2546.00
11.5986 2466.00
11.6638 2449.00
11.729 2293.00
11.7942 2362.00
11.8594 2270.00
11.9246 2262.00
11.9898 2282.00
12.055 2272.00
12.1202 2220.00
12.1854 2230.00
12.2506 2227.00
12.3158 2200.00
12.381 2343.00
12.4462 2225.00
12.5114 2141.00
12.5766 2163.00
12.6418 2176.00
12.707 2157.00
12.7722 2139.00
12.8374 2197.00
12.9026 2167.00
12.9678 2192.00
13.033 2227.00
13.0982 2179.00
13.1634 2112.00
13.2286 2105.00
13.2938 2155.00
13.359 2101.00
13.4242 2110.00
13.4894 2111.00
13.5546 2105.00
13.6198 2043.00
13.685 2147.00
13.7502 2072.00
13.8154 1978.00
13.8805 2029.00
13.9457 1994.00
14.0109 1974.00
14.0761 2074.00
14.1413 2040.00
14.2065 2055.00
14.2717 2035.00
14.3369 2056.00
14.4021 2003.00
14.4673 2073.00
14.5325 2097.00
14.5977 1974.00
14.6629 1962.00
14.7281 2080.00
14.7933 1943.00
14.8585 1993.00
14.9237 2009.00
14.9889 2092.00
15.0541 2069.00
15.1193 2010.00
15.1845 1957.00
15.2497 1971.00
15.3149 2025.00
15.3801 1996.00
15.4453 1937.00
15.5105 2040.00
15.5757 1989.00
15.6409 1938.00
15.7061 2074.00
15.7713 2072.00
15.8365 2031.00
15.9017 2166.00
15.9669 2036.00
16.0321 1966.00
16.0973 2078.00
16.1625 2090.00
16.2277 1992.00
16.2929 1914.00
16.3581 2124.00
16.4233 1949.00
16.4885 2051.00
16.5537 2015.00
16.6189 2055.00
16.6841 2102.00
16.7493 2025.00
16.8145 2055.00
16.8797 2003.00
16.9449 2039.00
17.0101 2112.00
17.0753 2063.00
17.1405 2094.00
17.2057 2043.00
17.2709 2170.00
17.3361 2088.00
17.4013 2098.00
17.4665 2083.00
17.5317 2083.00
17.5969 2130.00
17.6621 2114.00
17.7273 2110.00
17.7925 2136.00
17.8577 2071.00
17.9229 2109.00
17.9881 2099.00
18.0533 2157.00
18.1185 2166.00
18.1837 2122.00
18.2489 2190.00
18.3141 2199.00
18.3793 2210.00
18.4445 2282.00
18.5097 2187.00
18.5749 2220.00
18.6401 2202.00
18.7052 2318.00
18.7704 2271.00
18.8356 2267.00
18.9008 2204.00
18.966 2309.00
19.0312 2339.00
19.0964 2344.00
19.1616 2295.00
19.2268 2360.00
19.292 2357.00
19.3572 2377.00
19.4224 2385.00
19.4876 2443.00
19.5528 2460.00
19.618 2401.00
19.6832 2466.00
19.7484 2577.00
19.8136 2533.00
19.8788 2406.00
19.944 2606.00
20.0092 2592.00
20.0744 2527.00
20.1396 2518.00
20.2048 2517.00
20.27 2598.00
20.3352 2672.00
20.4004 2630.00
20.4656 2762.00
20.5308 2704.00
20.596 2783.00
20.6612 2707.00
20.7264 2846.00
20.7916 2772.00
20.8568 2649.00
20.922 2811.00
20.9872 2851.00
21.0524 2810.00
21.1176 2810.00
21.1828 2754.00
21.248 2840.00
21.3132 2827.00
21.3784 2814.00
21.4436 2873.00
21.5088 2856.00
21.574 2886.00
21.6392 2849.00
21.7044 2877.00
21.7696 2822.00
21.8348 2836.00
21.9 2781.00
21.9652 2721.00
22.0304 2692.00
22.0956 2796.00
22.1608 2812.00
22.226 2802.00
22.2912 2659.00
22.3564 2822.00
22.4216 2722.00
22.4868 2812.00
22.552 2794.00
22.6172 2673.00
22.6824 2722.00
22.7476 2688.00
22.8128 2682.00
22.878 2659.00
22.9432 2727.00
23.0084 2596.00
23.0736 2646.00
23.1388 2615.00
23.204 2572.00
23.2692 2521.00
23.3344 2565.00
23.3996 2517.00
23.4647 2527.00
23.5299 2523.00
23.5951 2565.00
23.6603 2634.00
23.7255 2473.00
23.7907 2541.00
23.8559 2451.00
23.9211 2503.00
23.9863 2521.00
24.0515 2412.00
24.1167 2557.00
24.1819 2510.00
24.2471 2499.00
24.3123 2501.00
24.3775 2425.00
24.4427 2484.00
24.5079 2533.00
24.5731 2452.00
24.6383 2465.00
24.7035 2506.00
24.7687 2466.00
24.8339 2478.00
24.8991 2411.00
24.9643 2389.00
25.0295 2369.00
25.0947 2378.00
25.1599 2420.00
25.2251 2337.00
25.2903 2353.00
25.3555 2487.00
25.4207 2329.00
25.4859 2343.00
25.5511 2468.00
25.6163 2415.00
25.6815 2383.00
25.7467 2379.00
25.8119 2389.00
25.8771 2363.00
25.9423 2308.00
26.0075 2333.00
26.0727 2419.00
26.1379 2293.00
26.2031 2433.00
26.2683 2419.00
26.3335 2447.00
26.3987 2325.00
26.4639 2422.00
26.5291 2361.00
26.5943 2409.00
26.6595 2462.00
26.7247 2332.00
26.7899 2467.00
26.8551 2557.00
26.9203 2383.00
26.9855 2340.00
27.0507 2296.00
27.1159 2506.00
27.1811 2498.00
27.2463 2374.00
27.3115 2457.00
27.3767 2525.00
27.4419 2432.00
27.5071 2390.00
27.5723 2367.00
27.6375 2522.00
27.7027 2383.00
27.7679 2443.00
27.8331 2556.00
27.8983 2529.00
27.9635 2434.00
28.0287 2395.00
28.0939 2389.00
28.1591 2424.00
28.2243 2407.00
28.2894 2464.00
28.3546 2430.00
28.4198 2459.00
28.485 2470.00
28.5502 2479.00
28.6154 2423.00
28.6806 2478.00
28.7458 2451.00
28.811 2466.00
28.8762 2457.00
28.9414 2375.00
29.0066 2526.00
29.0718 2505.00
29.137 2579.00
29.2022 2531.00
29.2674 2487.00
29.3326 2446.00
29.3978 2413.00
29.463 2500.00
29.5282 2472.00
29.5934 2550.00
29.6586 2366.00
29.7238 2477.00
29.789 2511.00
29.8542 2464.00
29.9194 2461.00
29.9846 2503.00
30.0498 2531.00
30.115 2570.00
30.1802 2585.00
30.2454 2485.00
30.3106 2445.00
30.3758 2425.00
30.441 2468.00
30.5062 2469.00
30.5714 2478.00
30.6366 2388.00
30.7018 2471.00
30.767 2461.00
30.8322 2397.00
30.8974 2376.00
30.9626 2414.00
31.0278 2492.00
31.093 2488.00
31.1582 2532.00
31.2234 2460.00
31.2886 2458.00
31.3538 2487.00
31.419 2480.00
31.4842 2366.00
31.5494 2468.00
31.6146 2456.00
31.6798 2387.00
31.745 2378.00
31.8102 2443.00
31.8754 2425.00
31.9406 2346.00
32.0058 2400.00
32.071 2325.00
32.1362 2352.00
32.2014 2388.00
32.2666 2325.00
32.3318 2288.00
32.397 2279.00
32.4622 2368.00
32.5274 2331.00
32.5926 2377.00
32.6578 2406.00
32.723 2288.00
32.7882 2314.00
32.8534 2300.00
32.9186 2297.00
32.9838 2229.00
33.0489 2240.00
33.1141 2249.00
33.1793 2178.00
33.2445 2321.00
33.3097 2286.00
33.3749 2245.00
33.4401 2176.00
33.5053 2244.00
33.5705 2176.00
33.6357 2213.00
33.7009 2170.00
33.7661 2129.00
33.8313 2144.00
33.8965 2192.00
33.9617 2151.00
34.0269 2131.00
34.0921 2148.00
34.1573 2113.00
34.2225 2067.00
34.2877 2127.00
34.3529 2110.00
34.4181 2110.00
34.4833 1965.00
34.5485 2045.00
34.6137 1993.00
34.6789 2017.00
34.7441 1962.00
34.8093 2029.00
34.8745 1972.00
34.9397 1988.00
35.0049 1921.00
35.0701 1963.00
35.1353 1910.00
35.2005 2010.00
35.2657 1924.00
35.3309 2054.00
35.3961 1886.00
35.4613 1919.00
35.5265 1887.00
35.5917 1836.00
35.6569 1829.00
35.7221 1839.00
35.7873 1857.00
35.8525 1800.00
35.9177 1910.00
35.9829 1770.00
36.0481 1826.00
36.1133 1818.00
36.1785 1731.00
36.2437 1785.00
36.3089 1716.00
36.3741 1819.00
36.4393 1703.00
36.5045 1752.00
36.5697 1746.00
36.6349 1744.00
36.7001 1798.00
36.7653 1637.00
36.8305 1641.00
36.8957 1682.00
36.9609 1660.00
37.0261 1655.00
37.0913 1696.00
37.1565 1614.00
37.2217 1547.00
37.2869 1574.00
37.3521 1538.00
37.4173 1625.00
37.4825 1612.00
37.5477 1596.00
37.6129 1630.00
37.6781 1512.00
37.7433 1520.00
37.8085 1629.00
37.8736 1520.00
37.9388 1533.00
38.004 1548.00
38.0692 1538.00
38.1344 1509.00
38.1996 1504.00
38.2648 1548.00
38.33 1468.00
38.3952 1528.00
38.4604 1495.00
38.5256 1489.00
38.5908 1487.00
38.656 1479.00
38.7212 1409.00
38.7864 1408.00
38.8516 1485.00
38.9168 1410.00
38.982 1491.00
39.0472 1435.00
39.1124 1430.00
39.1776 1423.00
39.2428 1431.00
39.308 1368.00
39.3732 1461.00
39.4384 1404.00
39.5036 1453.00
39.5688 1343.00
39.634 1463.00
39.6992 1404.00
39.7644 1323.00
39.8296 1415.00
39.8948 1358.00
39.96 1391.00
40.0252 1363.00
40.0904 1374.00
40.1556 1375.00
40.2208 1404.00
40.286 1323.00
40.3512 1394.00
40.4164 1359.00
40.4816 1424.00
40.5468 1399.00
40.612 1387.00
40.6772 1382.00
40.7424 1340.00
40.8076 1357.00
40.8728 1385.00
40.938 1258.00
41.0032 1371.00
41.0684 1310.00
41.1336 1379.00
41.1988 1319.00
41.264 1281.00
41.3292 1256.00
41.3944 1309.00
41.4596 1382.00
41.5248 1343.00
41.59 1407.00
41.6552 1345.00
41.7204 1456.00
41.7856 1298.00
41.8508 1405.00
41.916 1324.00
41.9812 1319.00
42.0464 1280.00
42.1116 1260.00
42.1768 1261.00
42.242 1247.00
42.3072 1297.00
42.3724 1316.00
42.4376 1262.00
42.5028 1287.00
42.568 1370.00
42.6332 1324.00
42.6983 1261.00
42.7635 1239.00
42.8287 1279.00
42.8939 1278.00
42.9591 1285.00
43.0243 1333.00
43.0895 1332.00
43.1547 1324.00
43.2199 1295.00
43.2851 1293.00
43.3503 1274.00
43.4155 1325.00
43.4807 1338.00
43.5459 1250.00
43.6111 1230.00
43.6763 1310.00
43.7415 1319.00
43.8067 1306.00
43.8719 1252.00
43.9371 1331.00
44.0023 1318.00
44.0675 1262.00
44.1327 1199.00
44.1979 1256.00
44.2631 1312.00
44.3283 1320.00
44.3935 1320.00
44.4587 1318.00
44.5239 1330.00
44.5891 1310.00
44.6543 1233.00
44.7195 1273.00
44.7847 1318.00
44.8499 1288.00
44.9151 1265.00
44.9803 1233.00
45.0455 1279.00
45.1107 1246.00
45.1759 1279.00
45.2411 1252.00
45.3063 1297.00
45.3715 1256.00
45.4367 1304.00
45.5019 1250.00
45.5671 1243.00
45.6323 1297.00
45.6975 1248.00
45.7627 1274.00
45.8279 1245.00
45.8931 1274.00
45.9583 1248.00
46.0235 1288.00
46.0887 1283.00
46.1539 1306.00
46.2191 1251.00
46.2843 1261.00
46.3495 1282.00
46.4147 1278.00
46.4799 1231.00
46.5451 1165.00
46.6103 1137.00
46.6755 1255.00
46.7407 1200.00
46.8059 1266.00
46.8711 1299.00
46.9363 1226.00
47.0015 1227.00
47.0667 1171.00
47.1319 1190.00
47.1971 1279.00
47.2623 1235.00
47.3275 1244.00
47.3927 1191.00
47.4579 1261.00
47.523 1234.00
47.5882 1161.00
47.6534 1227.00
47.7186 1288.00
47.7838 1224.00
47.849 1254.00
47.9142 1180.00
47.9794 1185.00
48.0446 1243.00
48.1098 1249.00
48.175 1211.00
48.2402 1268.00
48.3054 1193.00
48.3706 1236.00
48.4358 1230.00
48.501 1190.00
48.5662 1234.00
48.6314 1192.00
48.6966 1188.00
48.7618 1162.00
48.827 1163.00
48.8922 1216.00
48.9574 1217.00
49.0226 1227.00
49.0878 1121.00
49.153 1188.00
49.2182 1222.00
49.2834 1164.00
49.3486 1182.00
49.4138 1161.00
49.479 1201.00
49.5442 1166.00
49.6094 1204.00
49.6746 1150.00
49.7398 1187.00
49.805 1230.00
49.8702 1212.00
49.9354 1227.00
50.0006 1214.00
50.0658 1111.00
50.131 1186.00
50.1962 1181.00
50.2614 1179.00
50.3266 1172.00
50.3918 1261.00
50.457 1132.00
50.5222 1202.00
50.5874 1151.00
50.6526 1131.00
50.7178 1222.00
50.783 1181.00
50.8482 1172.00
50.9134 1128.00
50.9786 1175.00
51.0438 1203.00
51.109 1196.00
51.1742 1179.00
51.2394 1222.00
51.3046 1199.00
51.3698 1198.00
51.435 1154.00
51.5002 1133.00
51.5654 1147.00
51.6306 1190.00
51.6958 1099.00
51.761 1134.00
51.8262 1231.00
51.8914 1186.00
51.9566 1188.00
52.0218 1174.00
52.087 1108.00
52.1522 1142.00
52.2174 1170.00
52.2826 1167.00
52.3477 1190.00
52.4129 1165.00
52.4781 1208.00
52.5433 1176.00
52.6085 1161.00
52.6737 1145.00
52.7389 1194.00
52.8041 1104.00
52.8693 1219.00
52.9345 1150.00
52.9997 1219.00
53.0649 1186.00
53.1301 1187.00
53.1953 1219.00
53.2605 1122.00
53.3257 1121.00
53.3909 1111.00
53.4561 1108.00
53.5213 1134.00
53.5865 1149.00
53.6517 1178.00
53.7169 1116.00
53.7821 1105.00
53.8473 1147.00
53.9125 1107.00
53.9777 1133.00
54.0429 1150.00
54.1081 1171.00
54.1733 1162.00
54.2385 1220.00
54.3037 1136.00
54.3689 1152.00
54.4341 1215.00
54.4993 1089.00
54.5645 1069.00
54.6297 1186.00
54.6949 1098.00
54.7601 1110.00
54.8253 1156.00
54.8905 1175.00
54.9557 1132.00
55.0209 1133.00
55.0861 1129.00
55.1513 1090.00
55.2165 1136.00
55.2817 1163.00
55.3469 1157.00
55.4121 1116.00
55.4773 1146.00
55.5425 1107.00
55.6077 1148.00
55.6729 1183.00
55.7381 1111.00
55.8033 1130.00
55.8685 1111.00
55.9337 1187.00
55.9989 1125.00
56.0641 1097.00
56.1293 1135.00
56.1945 1058.00
56.2597 1126.00
56.3249 1087.00
56.3901 1140.00
56.4553 1092.00
56.5205 1117.00
56.5857 1135.00
56.6509 1207.00
56.7161 1169.00
56.7813 1172.00
56.8465 1088.00
56.9117 1197.00
56.9769 1086.00
57.042 1140.00
57.1073 1070.00
57.1724 1147.00
57.2376 1154.00
57.3028 1090.00
57.368 1154.00
57.4332 1140.00
57.4984 1154.00
57.5636 1109.00
57.6288 1084.00
57.694 1137.00
57.7592 1176.00
57.8244 1218.00
57.8896 1152.00
57.9548 1139.00
58.02 1124.00
58.0852 1156.00
58.1504 1139.00
58.2156 1092.00
58.2808 1131.00
58.346 1185.00
58.4112 1107.00
58.4764 1231.00
58.5416 1136.00
58.6068 1157.00
58.672 1111.00
58.7372 1185.00
58.8024 1122.00
58.8676 1136.00
58.9328 1130.00
58.998 1162.00
59.0632 1153.00
59.1284 1168.00
59.1936 1121.00
59.2588 1167.00
59.324 1078.00
59.3892 1150.00
59.4544 1146.00
59.5196 1161.00
59.5848 1154.00
59.65 1178.00
59.7152 1151.00
59.7804 1107.00
59.8456 1072.00
59.9108 1177.00
59.976 1116.00
60.0412 1014.00
60.1064 1163.00
60.1716 1066.00
60.2368 1087.00
60.302 1147.00
60.3672 1110.00
60.4324 1140.00
60.4976 1124.00
60.5628 1131.00
60.628 1135.00
60.6932 1124.00
60.7584 1112.00
60.8236 1108.00
60.8888 1056.00
60.954 1123.00
61.0192 1121.00
61.0844 1069.00
61.1496 1093.00
61.2148 1093.00
61.28 1127.00
61.3452 1145.00
61.4104 1108.00
61.4756 1126.00
61.5408 1109.00
61.606 1117.00
61.6712 1112.00
61.7364 1133.00
61.8016 1099.00
61.8667 1107.00
61.932 1144.00
61.9971 1123.00
62.0623 1044.00
62.1275 1166.00
62.1927 1100.00
62.2579 1082.00
62.3231 1135.00
62.3883 1168.00
62.4535 1146.00
62.5187 1105.00
62.5839 1067.00
62.6491 1127.00
62.7143 1086.00
62.7795 1149.00
62.8447 1078.00
62.9099 1171.00
62.9751 1087.00
63.0403 1181.00
63.1055 1143.00
63.1707 1090.00
63.2359 1155.00
63.3011 1110.00
63.3663 1086.00
63.4315 1102.00
63.4967 1121.00
63.5619 1123.00
63.6271 1087.00
63.6923 1075.00
63.7575 1042.00
63.8227 1114.00
63.8879 1140.00
63.9531 1119.00
64.0183 1091.00
64.0835 1163.00
64.1487 1094.00
64.2139 1167.00
64.2791 1067.00
64.3443 1174.00
64.4095 1133.00
64.4747 1087.00
64.5399 1084.00
64.6051 1081.00
64.6703 1124.00
64.7355 1144.00
64.8007 1046.00
64.8659 1123.00
64.9311 1130.00
64.9963 1121.00
65.0615 1081.00
65.1267 1112.00
65.1919 1091.00
65.2571 1087.00
65.3223 1085.00
65.3875 1044.00
65.4527 1134.00
65.5179 1003.00
65.5831 1135.00
65.6483 1097.00
65.7135 1017.00
65.7787 1051.00
65.8439 1100.00
65.9091 1088.00
65.9743 1071.00
66.0395 1098.00
66.1047 1071.00
66.1699 990.00
66.2351 1072.00
66.3003 1066.00
66.3655 1090.00
66.4307 1077.00
66.4959 1066.00
66.561 1017.00
66.6263 1050.00
66.6915 1007.00
66.7566 1113.00
66.8218 1061.00
66.887 1064.00
66.9522 1022.00
67.0174 1067.00
67.0826 1072.00
67.1478 1062.00
67.213 1047.00
67.2782 1000.00
67.3434 1053.00
67.4086 1032.00
67.4738 1029.00
67.539 1008.00
67.6042 1038.00
67.6694 1092.00
67.7346 1031.00
67.7998 1032.00
67.865 1040.00
67.9302 1019.00
67.9954 1002.00
68.0606 1081.00
68.1258 1033.00
68.191 1066.00
68.2562 1037.00
68.3214 966.00
68.3866 1061.00
68.4518 1069.00
68.517 1022.00
68.5822 1010.00
68.6474 1040.00
68.7126 994.00
68.7778 1026.00
68.843 967.00
68.9082 981.00
68.9734 1029.00
69.0386 1046.00
69.1038 1012.00
69.169 1037.00
69.2342 951.00
69.2994 1017.00
69.3646 986.00
69.4298 929.00
69.495 994.00
69.5602 992.00
69.6254 987.00
69.6906 1020.00
69.7558 980.00
69.821 1009.00
69.8862 973.00
69.9514 1035.00
70.0166 972.00
70.0818 945.00
70.147 979.00
70.2122 978.00
70.2774 985.00
70.3426 1012.00
70.4078 1004.00
70.473 987.00
70.5382 995.00
70.6034 945.00
70.6686 946.00
70.7338 972.00
70.799 989.00
70.8642 938.00
70.9294 915.00
70.9946 952.00
71.0598 959.00
71.125 919.00
71.1902 954.00
71.2554 944.00
71.3205 1008.00
71.3858 969.00
71.451 954.00
71.5162 910.00
71.5813 924.00
71.6465 954.00
71.7117 895.00
71.7769 979.00
71.8421 944.00
71.9073 897.00
71.9725 920.00
72.0377 970.00
72.1029 920.00
72.1681 923.00
72.2333 960.00
72.2985 837.00
72.3637 906.00
72.4289 922.00
72.4941 916.00
72.5593 898.00
72.6245 932.00
72.6897 902.00
72.7549 897.00
72.8201 918.00
72.8853 925.00
72.9505 949.00
73.0157 868.00
73.0809 932.00
73.1461 879.00
73.2113 894.00
73.2765 876.00
73.3417 895.00
73.4069 855.00
73.4721 904.00
73.5373 861.00
73.6025 929.00
73.6677 880.00
73.7329 858.00
73.7981 836.00
73.8633 851.00
73.9285 908.00
73.9937 901.00
74.0589 897.00
74.1241 910.00
74.1893 913.00
74.2545 873.00
74.3197 876.00
74.3849 896.00
74.4501 900.00
74.5153 863.00
74.5805 840.00
74.6457 867.00
74.7109 873.00
74.7761 831.00
74.8413 840.00
74.9065 850.00
74.9717 867.00
75.0369 847.00
75.1021 867.00
75.1673 907.00
75.2325 865.00
75.2977 746.00
75.3629 806.00
75.4281 854.00
75.4933 808.00
75.5585 873.00
75.6237 889.00
75.6889 837.00
75.7541 820.00
75.8193 830.00
75.8845 866.00
75.9497 846.00
76.0149 810.00
76.0801 838.00
76.1452 877.00
76.2104 847.00
76.2756 862.00
76.3409 779.00
76.406 827.00
76.4712 842.00
76.5364 804.00
76.6016 817.00
76.6668 816.00
76.732 778.00
76.7972 756.00
76.8624 837.00
76.9276 802.00
76.9928 797.00
77.058 795.00
77.1232 836.00
77.1884 789.00
77.2536 812.00
77.3188 832.00
77.384 795.00
77.4492 804.00
77.5144 745.00
77.5796 784.00
77.6448 827.00
77.71 801.00
77.7752 792.00
77.8404 789.00
77.9056 808.00
77.9708 814.00
78.036 811.00
78.1012 791.00
78.1664 781.00
78.2316 820.00
78.2968 775.00
78.362 810.00
78.4272 772.00
78.4924 754.00
78.5576 821.00
78.6228 754.00
78.688 753.00
78.7532 723.00
78.8184 822.00
78.8836 713.00
78.9488 778.00
79.014 758.00
79.0792 774.00
79.1444 780.00
79.2096 834.00
79.2748 797.00
79.34 796.00
79.4052 738.00
79.4704 719.00
79.5356 725.00
79.6008 781.00
79.666 735.00
79.7312 790.00
79.7964 732.00
79.8616 746.00
79.9268 759.00
79.992 777.00
80.0572 701.00
80.1224 722.00
80.1876 721.00
80.2528 719.00
80.318 794.00
80.3832 705.00
80.4484 734.00
80.5136 756.00
80.5788 725.00
80.644 728.00
80.7092 735.00
80.7744 731.00
80.8396 729.00
80.9048 751.00
80.9699 694.00
81.0351 723.00
81.1003 713.00
81.1655 729.00
81.2307 710.00
81.2959 708.00
81.3611 758.00
81.4263 754.00
81.4915 711.00
81.5567 661.00
81.6219 696.00
81.6871 738.00
81.7523 711.00
81.8175 725.00
81.8827 720.00
81.9479 713.00
82.0131 743.00
82.0783 774.00
82.1435 741.00
82.2087 689.00
82.2739 727.00
82.3391 672.00
82.4043 702.00
82.4695 746.00
82.5347 718.00
82.5999 704.00
82.6651 761.00
82.7303 721.00
82.7955 765.00
82.8607 719.00
82.9259 694.00
82.9911 760.00
83.0563 733.00
83.1215 717.00
83.1867 732.00
83.2519 680.00
83.3171 690.00
83.3823 672.00
83.4475 679.00
83.5127 706.00
83.5779 675.00
83.6431 721.00
83.7083 686.00
83.7735 666.00
83.8387 678.00
83.9039 723.00
83.9691 690.00
84.0343 707.00
84.0995 699.00
84.1647 715.00
84.2299 691.00
84.2951 701.00
84.3603 676.00
84.4255 717.00
84.4907 688.00
84.5559 652.00
84.6211 658.00
84.6863 725.00
84.7515 698.00
84.8167 630.00
84.8819 647.00
84.9471 714.00
85.0123 749.00
85.0775 705.00
85.1427 767.00
85.2079 650.00
85.2731 709.00
85.3383 716.00
85.4035 658.00
85.4687 680.00
85.5339 712.00
85.5991 666.00
85.6643 647.00
85.7295 717.00
85.7946 675.00
85.8598 727.00
85.925 698.00
85.9903 668.00
86.0554 689.00
86.1206 714.00
86.1858 615.00
86.251 708.00
86.3162 653.00
86.3814 710.00
86.4466 661.00
86.5118 654.00
86.577 672.00
86.6422 674.00
86.7074 713.00
86.7726 683.00
86.8378 677.00
86.903 630.00
86.9682 703.00
87.0334 655.00
87.0986 679.00
87.1638 687.00
87.229 664.00
87.2942 704.00
87.3594 650.00
87.4246 694.00
87.4898 733.00
87.555 681.00
87.6202 688.00
87.6854 650.00
87.7506 672.00
87.8158 665.00
87.881 695.00
87.9462 695.00
88.0114 681.00
88.0766 686.00
88.1418 671.00
88.207 684.00
88.2722 669.00
88.3374 672.00
88.4026 689.00
88.4678 667.00
88.533 712.00
88.5982 673.00
88.6634 673.00
88.7286 686.00
88.7938 698.00
88.859 697.00
88.9242 641.00
88.9894 647.00
89.0546 681.00
89.1198 622.00
89.185 670.00
89.2502 651.00
89.3154 657.00
89.3806 596.00
89.4458 647.00
89.511 696.00
89.5762 683.00
89.6414 697.00
89.7066 587.00
89.7718 713.00
89.837 671.00
89.9022 683.00
89.9674 702.00
90.0326 695.00
90.0978 606.00
90.163 630.00
90.2282 640.00
90.2934 675.00
90.3586 685.00
90.4238 660.00
90.489 656.00
90.5542 652.00
90.6193 672.00
90.6845 672.00
90.7497 697.00
90.8149 663.00
90.8801 632.00
90.9453 663.00
91.0105 705.00
91.0757 619.00
91.1409 664.00
91.2061 660.00
91.2713 678.00
91.3365 656.00
91.4017 694.00
91.4669 678.00
91.5321 628.00
91.5973 657.00
91.6625 694.00
91.7277 642.00
91.7929 657.00
91.8581 668.00
91.9233 680.00
91.9885 663.00
92.0537 661.00
92.1189 664.00
92.1841 671.00
92.2493 641.00
92.3145 629.00
92.3797 661.00
92.4449 654.00
92.5101 634.00
92.5753 675.00
92.6405 642.00
92.7057 641.00
92.7709 671.00
92.8361 675.00
92.9013 684.00
92.9665 675.00
93.0317 695.00
93.0969 658.00
93.1621 665.00
93.2273 669.00
93.2925 674.00
93.3577 645.00
93.4229 672.00
93.4881 658.00
93.5533 657.00
93.6185 687.00
93.6837 638.00
93.7489 684.00
93.8141 656.00
93.8793 654.00
93.9445 690.00
94.0097 635.00
94.0749 648.00
94.1401 692.00
94.2053 664.00
94.2705 659.00
94.3357 672.00
94.4009 672.00
94.4661 682.00
94.5313 681.00
94.5965 620.00
94.6617 671.00
94.7269 662.00
94.7921 689.00
94.8573 659.00
94.9225 701.00
94.9877 681.00
95.0529 680.00
95.1181 626.00
95.1833 668.00
95.2485 636.00
95.3137 596.00
95.3789 680.00
95.444 630.00
95.5092 603.00
95.5744 621.00
95.6396 631.00
95.7048 672.00
95.77 696.00
95.8352 653.00
95.9004 647.00
95.9656 660.00
96.0308 656.00
96.096 622.00
96.1612 601.00
96.2264 669.00
96.2916 687.00
96.3568 630.00
96.422 683.00
96.4872 688.00
96.5524 683.00
96.6176 653.00
96.6828 708.00
96.748 680.00
96.8132 625.00
96.8784 644.00
96.9436 624.00
97.0088 623.00
97.074 615.00
97.1392 686.00
97.2044 648.00
97.2696 663.00
97.3348 634.00
97.4 677.00
97.4652 673.00
97.5304 648.00
97.5956 640.00
97.6608 646.00
97.726 678.00
97.7912 616.00
97.8564 639.00
97.9216 653.00
97.9868 665.00
98.052 639.00
98.1172 609.00
98.1824 597.00
98.2476 634.00
98.3128 712.00
98.378 704.00
98.4432 654.00
98.5084 643.00
98.5736 591.00
98.6388 659.00
98.704 670.00
98.7692 663.00
98.8344 684.00
98.8996 646.00
98.9648 611.00
99.03 614.00
99.0952 594.00
99.1604 608.00
99.2256 660.00
99.2908 658.00
99.356 610.00
99.4212 633.00
99.4864 650.00
99.5516 657.00
99.6168 628.00
99.682 652.00
99.7472 651.00
99.8124 648.00
99.8776 635.00
99.9428 626.00
100.008 642.00
100.073 672.00
100.095 653.00