File: data/xrd_creation/results/Na_37.xy
9.903433 2661.00
9.968632 2795.00
10.0338 2718.00
10.099 2775.00
10.1642 2731.00
10.2294 2668.00
10.2946 2604.00
10.3598 2583.00
10.425 2633.00
10.4902 2542.00
10.5554 2504.00
10.6206 2504.00
10.6858 2588.00
10.751 2428.00
10.8162 2483.00
10.8814 2449.00
10.9466 2441.00
11.0118 2520.00
11.077 2397.00
11.1422 2383.00
11.2074 2382.00
11.2726 2320.00
11.3378 2279.00
11.403 2320.00
11.4682 2296.00
11.5334 2249.00
11.5986 2254.00
11.6638 2348.00
11.729 2173.00
11.7942 2226.00
11.8594 2263.00
11.9246 2117.00
11.9898 2131.00
12.055 2190.00
12.1202 2222.00
12.1854 2130.00
12.2506 2097.00
12.3158 2132.00
12.381 2093.00
12.4462 2004.00
12.5114 1978.00
12.5766 2029.00
12.6418 2049.00
12.707 1943.00
12.7722 1950.00
12.8374 1964.00
12.9026 1953.00
12.9678 1972.00
13.033 2013.00
13.0982 1946.00
13.1634 1869.00
13.2286 1872.00
13.2938 1968.00
13.359 1924.00
13.4242 1794.00
13.4894 1745.00
13.5546 1833.00
13.6198 1887.00
13.685 1768.00
13.7502 1908.00
13.8154 1778.00
13.8805 1769.00
13.9457 1798.00
14.0109 1800.00
14.0761 1741.00
14.1413 1802.00
14.2065 1708.00
14.2717 1766.00
14.3369 1745.00
14.4021 1774.00
14.4673 1797.00
14.5325 1776.00
14.5977 1684.00
14.6629 1703.00
14.7281 1744.00
14.7933 1667.00
14.8585 1631.00
14.9237 1733.00
14.9889 1665.00
15.0541 1700.00
15.1193 1696.00
15.1845 1634.00
15.2497 1649.00
15.3149 1616.00
15.3801 1736.00
15.4453 1591.00
15.5105 1589.00
15.5757 1604.00
15.6409 1620.00
15.7061 1626.00
15.7713 1563.00
15.8365 1582.00
15.9017 1555.00
15.9669 1666.00
16.0321 1537.00
16.0973 1517.00
16.1625 1610.00
16.2277 1584.00
16.2929 1590.00
16.3581 1576.00
16.4233 1538.00
16.4885 1536.00
16.5537 1595.00
16.6189 1500.00
16.6841 1595.00
16.7493 1490.00
16.8145 1497.00
16.8797 1482.00
16.9449 1430.00
17.0101 1480.00
17.0753 1529.00
17.1405 1453.00
17.2057 1465.00
17.2709 1456.00
17.3361 1436.00
17.4013 1445.00
17.4665 1488.00
17.5317 1509.00
17.5969 1475.00
17.6621 1420.00
17.7273 1401.00
17.7925 1382.00
17.8577 1457.00
17.9229 1399.00
17.9881 1415.00
18.0533 1391.00
18.1185 1395.00
18.1837 1376.00
18.2489 1331.00
18.3141 1430.00
18.3793 1383.00
18.4445 1365.00
18.5097 1313.00
18.5749 1338.00
18.6401 1364.00
18.7052 1399.00
18.7704 1425.00
18.8356 1402.00
18.9008 1438.00
18.966 1416.00
19.0312 1457.00
19.0964 1474.00
19.1616 1402.00
19.2268 1377.00
19.292 1353.00
19.3572 1305.00
19.4224 1324.00
19.4876 1294.00
19.5528 1311.00
19.618 1297.00
19.6832 1280.00
19.7484 1301.00
19.8136 1369.00
19.8788 1532.00
19.944 1651.00
20.0092 1954.00
20.0744 2310.00
20.1396 2585.00
20.2048 2649.00
20.27 2791.00
20.3352 2533.00
20.4004 2005.00
20.4656 1564.00
20.5308 1338.00
20.596 1232.00
20.6612 1300.00
20.7264 1244.00
20.7916 1184.00
20.8568 1220.00
20.922 1237.00
20.9872 1133.00
21.0524 1184.00
21.1176 1218.00
21.1828 1194.00
21.248 1147.00
21.3132 1159.00
21.3784 1087.00
21.4436 1108.00
21.5088 1209.00
21.574 1149.00
21.6392 1178.00
21.7044 1125.00
21.7696 1126.00
21.8348 1137.00
21.9 1102.00
21.9652 1085.00
22.0304 1118.00
22.0956 1156.00
22.1608 1106.00
22.226 1106.00
22.2912 1073.00
22.3564 1109.00
22.4216 1107.00
22.4868 1095.00
22.552 1128.00
22.6172 1051.00
22.6824 1117.00
22.7476 1058.00
22.8128 1092.00
22.878 1076.00
22.9432 1041.00
23.0084 1060.00
23.0736 1090.00
23.1388 1091.00
23.204 1063.00
23.2692 1192.00
23.3344 1112.00
23.3996 1094.00
23.4647 1121.00
23.5299 978.00
23.5951 1023.00
23.6603 1032.00
23.7255 1045.00
23.7907 1014.00
23.8559 1017.00
23.9211 1059.00
23.9863 1014.00
24.0515 987.00
24.1167 1029.00
24.1819 989.00
24.2471 961.00
24.3123 1012.00
24.3775 1019.00
24.4427 962.00
24.5079 951.00
24.5731 983.00
24.6383 976.00
24.7035 1001.00
24.7687 967.00
24.8339 926.00
24.8991 1019.00
24.9643 960.00
25.0295 925.00
25.0947 963.00
25.1599 958.00
25.2251 902.00
25.2903 919.00
25.3555 887.00
25.4207 943.00
25.4859 917.00
25.5511 1010.00
25.6163 1044.00
25.6815 1033.00
25.7467 978.00
25.8119 1029.00
25.8771 1060.00
25.9423 1118.00
26.0075 1144.00
26.0727 1266.00
26.1379 1314.00
26.2031 1459.00
26.2683 1663.00
26.3335 2102.00
26.3987 2739.00
26.4639 3945.00
26.5291 5679.00
26.5943 7591.00
26.6595 9213.00
26.7247 10053.00
26.7899 10034.00
26.8551 8103.00
26.9203 4808.00
26.9855 2944.00
27.0507 1987.00
27.1159 1563.00
27.1811 1361.00
27.2463 1224.00
27.3115 1158.00
27.3767 1077.00
27.4419 1000.00
27.5071 1106.00
27.5723 996.00
27.6375 958.00
27.7027 1015.00
27.7679 981.00
27.8331 960.00
27.8983 926.00
27.9635 912.00
28.0287 917.00
28.0939 881.00
28.1591 884.00
28.2243 815.00
28.2894 840.00
28.3546 809.00
28.4198 897.00
28.485 852.00
28.5502 821.00
28.6154 813.00
28.6806 796.00
28.7458 828.00
28.811 807.00
28.8762 833.00
28.9414 787.00
29.0066 753.00
29.0718 783.00
29.137 781.00
29.2022 765.00
29.2674 782.00
29.3326 740.00
29.3978 746.00
29.463 803.00
29.5282 795.00
29.5934 745.00
29.6586 743.00
29.7238 766.00
29.789 741.00
29.8542 768.00
29.9194 752.00
29.9846 698.00
30.0498 764.00
30.115 740.00
30.1802 787.00
30.2454 733.00
30.3106 744.00
30.3758 766.00
30.441 777.00
30.5062 720.00
30.5714 755.00
30.6366 766.00
30.7018 728.00
30.767 746.00
30.8322 735.00
30.8974 727.00
30.9626 717.00
31.0278 700.00
31.093 702.00
31.1582 670.00
31.2234 723.00
31.2886 701.00
31.3538 709.00
31.419 766.00
31.4842 732.00
31.5494 736.00
31.6146 694.00
31.6798 690.00
31.745 688.00
31.8102 728.00
31.8754 714.00
31.9406 726.00
32.0058 674.00
32.071 748.00
32.1362 689.00
32.2014 718.00
32.2666 768.00
32.3318 756.00
32.397 773.00
32.4622 776.00
32.5274 852.00
32.5926 1017.00
32.6578 1130.00
32.723 1396.00
32.7882 1649.00
32.8534 1815.00
32.9186 2014.00
32.9838 1810.00
33.0489 1612.00
33.1141 1597.00
33.1793 1760.00
33.2445 2082.00
33.3097 2263.00
33.3749 2375.00
33.4401 2258.00
33.5053 1850.00
33.5705 1583.00
33.6357 1674.00
33.7009 2024.00
33.7661 3106.00
33.8313 4521.00
33.8965 6291.00
33.9617 8043.00
34.0269 8945.00
34.0921 8772.00
34.1573 6508.00
34.2225 4000.00
34.2877 2399.00
34.3529 1524.00
34.4181 1262.00
34.4833 1053.00
34.5485 947.00
34.6137 892.00
34.6789 835.00
34.7441 830.00
34.8093 833.00
34.8745 762.00
34.9397 754.00
35.0049 698.00
35.0701 718.00
35.1353 699.00
35.2005 714.00
35.2657 698.00
35.3309 698.00
35.3961 666.00
35.4613 658.00
35.5265 654.00
35.5917 646.00
35.6569 666.00
35.7221 681.00
35.7873 682.00
35.8525 663.00
35.9177 676.00
35.9829 656.00
36.0481 633.00
36.1133 609.00
36.1785 634.00
36.2437 566.00
36.3089 620.00
36.3741 624.00
36.4393 620.00
36.5045 581.00
36.5697 625.00
36.6349 612.00
36.7001 617.00
36.7653 641.00
36.8305 672.00
36.8957 715.00
36.9609 739.00
37.0261 710.00
37.0913 681.00
37.1565 669.00
37.2217 727.00
37.2869 742.00
37.3521 740.00
37.4173 742.00
37.4825 742.00
37.5477 734.00
37.6129 759.00
37.6781 727.00
37.7433 831.00
37.8085 1035.00
37.8736 1354.00
37.9388 1785.00
38.004 2280.00
38.0692 2749.00
38.1344 2890.00
38.1996 2590.00
38.2648 1906.00
38.33 1374.00
38.3952 1041.00
38.4604 955.00
38.5256 995.00
38.5908 1035.00
38.656 1071.00
38.7212 1044.00
38.7864 946.00
38.8516 853.00
38.9168 844.00
38.982 938.00
39.0472 931.00
39.1124 1070.00
39.1776 1083.00
39.2428 1015.00
39.308 850.00
39.3732 705.00
39.4384 626.00
39.5036 591.00
39.5688 619.00
39.634 547.00
39.6992 545.00
39.7644 493.00
39.8296 526.00
39.8948 517.00
39.96 489.00
40.0252 493.00
40.0904 532.00
40.1556 519.00
40.2208 506.00
40.286 518.00
40.3512 524.00
40.4164 500.00
40.4816 548.00
40.5468 466.00
40.612 489.00
40.6772 469.00
40.7424 479.00
40.8076 451.00
40.8728 458.00
40.938 459.00
41.0032 471.00
41.0684 473.00
41.1336 474.00
41.1988 448.00
41.264 453.00
41.3292 452.00
41.3944 426.00
41.4596 488.00
41.5248 490.00
41.59 489.00
41.6552 452.00
41.7204 461.00
41.7856 457.00
41.8508 444.00
41.916 452.00
41.9812 501.00
42.0464 433.00
42.1116 476.00
42.1768 460.00
42.242 463.00
42.3072 453.00
42.3724 425.00
42.4376 497.00
42.5028 506.00
42.568 507.00
42.6332 553.00
42.6983 600.00
42.7635 663.00
42.8287 682.00
42.8939 624.00
42.9591 578.00
43.0243 484.00
43.0895 478.00
43.1547 450.00
43.2199 450.00
43.2851 457.00
43.3503 477.00
43.4155 497.00
43.4807 479.00
43.5459 505.00
43.6111 582.00
43.6763 584.00
43.7415 656.00
43.8067 699.00
43.8719 658.00
43.9371 576.00
44.0023 507.00
44.0675 522.00
44.1327 493.00
44.1979 488.00
44.2631 443.00
44.3283 439.00
44.3935 458.00
44.4587 434.00
44.5239 447.00
44.5891 425.00
44.6543 465.00
44.7195 432.00
44.7847 448.00
44.8499 515.00
44.9151 500.00
44.9803 564.00
45.0455 506.00
45.1107 448.00
45.1759 470.00
45.2411 444.00
45.3063 432.00
45.3715 439.00
45.4367 434.00
45.5019 448.00
45.5671 406.00
45.6323 389.00
45.6975 425.00
45.7627 371.00
45.8279 413.00
45.8931 398.00
45.9583 405.00
46.0235 431.00
46.0887 392.00
46.1539 413.00
46.2191 444.00
46.2843 397.00
46.3495 371.00
46.4147 391.00
46.4799 431.00
46.5451 413.00
46.6103 400.00
46.6755 386.00
46.7407 428.00
46.8059 414.00
46.8711 385.00
46.9363 370.00
47.0015 401.00
47.0667 442.00
47.1319 411.00
47.1971 540.00
47.2623 615.00
47.3275 730.00
47.3927 740.00
47.4579 789.00
47.523 804.00
47.5882 723.00
47.6534 596.00
47.7186 519.00
47.7838 522.00
47.849 476.00
47.9142 418.00
47.9794 456.00
48.0446 409.00
48.1098 437.00
48.175 397.00
48.2402 389.00
48.3054 383.00
48.3706 418.00
48.4358 368.00
48.501 361.00
48.5662 402.00
48.6314 389.00
48.6966 402.00
48.7618 372.00
48.827 424.00
48.8922 379.00
48.9574 425.00
49.0226 397.00
49.0878 386.00
49.153 415.00
49.2182 411.00
49.2834 388.00
49.3486 403.00
49.4138 413.00
49.479 390.00
49.5442 360.00
49.6094 388.00
49.6746 366.00
49.7398 396.00
49.805 347.00
49.8702 379.00
49.9354 365.00
50.0006 407.00
50.0658 383.00
50.131 406.00
50.1962 380.00
50.2614 371.00
50.3266 392.00
50.3918 438.00
50.457 412.00
50.5222 450.00
50.5874 429.00
50.6526 432.00
50.7178 451.00
50.783 461.00
50.8482 430.00
50.9134 447.00
50.9786 426.00
51.0438 495.00
51.109 472.00
51.1742 527.00
51.2394 516.00
51.3046 544.00
51.3698 660.00
51.435 758.00
51.5002 865.00
51.5654 1193.00
51.6306 1659.00
51.6958 2774.00
51.761 4104.00
51.8262 5865.00
51.8914 7359.00
51.9566 7809.00
52.0218 6831.00
52.087 4763.00
52.1522 3253.00
52.2174 1975.00
52.2826 1300.00
52.3477 1023.00
52.4129 834.00
52.4781 666.00
52.5433 601.00
52.6085 562.00
52.6737 518.00
52.7389 499.00
52.8041 405.00
52.8693 467.00
52.9345 450.00
52.9997 430.00
53.0649 489.00
53.1301 446.00
53.1953 440.00
53.2605 393.00
53.3257 390.00
53.3909 382.00
53.4561 420.00
53.5213 407.00
53.5865 437.00
53.6517 417.00
53.7169 403.00
53.7821 440.00
53.8473 457.00
53.9125 416.00
53.9777 447.00
54.0429 404.00
54.1081 397.00
54.1733 472.00
54.2385 431.00
54.3037 432.00
54.3689 418.00
54.4341 518.00
54.4993 582.00
54.5645 628.00
54.6297 782.00
54.6949 1030.00
54.7601 1387.00
54.8253 1775.00
54.8905 2138.00
54.9557 2002.00
55.0209 1704.00
55.0861 1344.00
55.1513 951.00
55.2165 667.00
55.2817 570.00
55.3469 481.00
55.4121 466.00
55.4773 478.00
55.5425 440.00
55.6077 399.00
55.6729 379.00
55.7381 365.00
55.8033 404.00
55.8685 417.00
55.9337 386.00
55.9989 429.00
56.0641 422.00
56.1293 412.00
56.1945 414.00
56.2597 402.00
56.3249 387.00
56.3901 363.00
56.4553 367.00
56.5205 357.00
56.5857 376.00
56.6509 388.00
56.7161 399.00
56.7813 399.00
56.8465 415.00
56.9117 408.00
56.9769 410.00
57.042 374.00
57.1073 382.00
57.1724 397.00
57.2376 369.00
57.3028 364.00
57.368 408.00
57.4332 397.00
57.4984 439.00
57.5636 446.00
57.6288 419.00
57.694 546.00
57.7592 640.00
57.8244 808.00
57.8896 1034.00
57.9548 1112.00
58.02 1067.00
58.0852 995.00
58.1504 810.00
58.2156 697.00
58.2808 544.00
58.346 448.00
58.4112 446.00
58.4764 390.00
58.5416 366.00
58.6068 385.00
58.672 379.00
58.7372 358.00
58.8024 414.00
58.8676 421.00
58.9328 517.00
58.998 498.00
59.0632 548.00
59.1284 622.00
59.1936 616.00
59.2588 629.00
59.324 630.00
59.3892 618.00
59.4544 624.00
59.5196 526.00
59.5848 494.00
59.65 478.00
59.7152 473.00
59.7804 456.00
59.8456 492.00
59.9108 416.00
59.976 382.00
60.0412 385.00
60.1064 336.00
60.1716 331.00
60.2368 355.00
60.302 316.00
60.3672 306.00
60.4324 357.00
60.4976 299.00
60.5628 376.00
60.628 325.00
60.6932 313.00
60.7584 295.00
60.8236 288.00
60.8888 319.00
60.954 326.00
61.0192 357.00
61.0844 322.00
61.1496 342.00
61.2148 369.00
61.28 348.00
61.3452 344.00
61.4104 363.00
61.4756 406.00
61.5408 389.00
61.606 456.00
61.6712 493.00
61.7364 607.00
61.8016 805.00
61.8667 1023.00
61.932 1550.00
61.9971 1726.00
62.0623 1896.00
62.1275 1566.00
62.1927 1323.00
62.2579 1056.00
62.3231 761.00
62.3883 555.00
62.4535 478.00
62.5187 455.00
62.5839 434.00
62.6491 431.00
62.7143 438.00
62.7795 410.00
62.8447 479.00
62.9099 461.00
62.9751 562.00
63.0403 521.00
63.1055 527.00
63.1707 456.00
63.2359 423.00
63.3011 366.00
63.3663 367.00
63.4315 356.00
63.4967 351.00
63.5619 338.00
63.6271 310.00
63.6923 379.00
63.7575 333.00
63.8227 358.00
63.8879 338.00
63.9531 335.00
64.0183 367.00
64.0835 363.00
64.1487 375.00
64.2139 328.00
64.2791 387.00
64.3443 359.00
64.4095 434.00
64.4747 471.00
64.5399 606.00
64.6051 716.00
64.6703 936.00
64.7355 1278.00
64.8007 1651.00
64.8659 1898.00
64.9311 1785.00
64.9963 1555.00
65.0615 1260.00
65.1267 1116.00
65.1919 822.00
65.2571 664.00
65.3223 603.00
65.3875 637.00
65.4527 644.00
65.5179 609.00
65.5831 637.00
65.6483 636.00
65.7135 673.00
65.7787 718.00
65.8439 892.00
65.9091 1173.00
65.9743 1518.00
66.0395 2040.00
66.1047 2353.00
66.1699 2143.00
66.2351 1731.00
66.3003 1434.00
66.3655 1124.00
66.4307 788.00
66.4959 575.00
66.561 453.00
66.6263 408.00
66.6915 382.00
66.7566 366.00
66.8218 347.00
66.887 351.00
66.9522 303.00
67.0174 318.00
67.0826 311.00
67.1478 292.00
67.213 317.00
67.2782 311.00
67.3434 308.00
67.4086 301.00
67.4738 304.00
67.539 296.00
67.6042 313.00
67.6694 247.00
67.7346 258.00
67.7998 286.00
67.865 256.00
67.9302 295.00
67.9954 274.00
68.0606 270.00
68.1258 273.00
68.191 244.00
68.2562 271.00
68.3214 270.00
68.3866 225.00
68.4518 284.00
68.517 258.00
68.5822 280.00
68.6474 263.00
68.7126 268.00
68.7778 268.00
68.843 267.00
68.9082 274.00
68.9734 298.00
69.0386 288.00
69.1038 268.00
69.169 290.00
69.2342 271.00
69.2994 306.00
69.3646 281.00
69.4298 294.00
69.495 293.00
69.5602 354.00
69.6254 350.00
69.6906 398.00
69.7558 386.00
69.821 355.00
69.8862 377.00
69.9514 354.00
70.0166 387.00
70.0818 349.00
70.147 357.00
70.2122 346.00
70.2774 301.00
70.3426 319.00
70.4078 297.00
70.473 274.00
70.5382 282.00
70.6034 288.00
70.6686 286.00
70.7338 305.00
70.799 314.00
70.8642 279.00
70.9294 290.00
70.9946 345.00
71.0598 386.00
71.125 424.00
71.1902 563.00
71.2554 726.00
71.3205 856.00
71.3858 1058.00
71.451 1030.00
71.5162 903.00
71.5813 779.00
71.6465 662.00
71.7117 506.00
71.7769 408.00
71.8421 381.00
71.9073 357.00
71.9725 309.00
72.0377 323.00
72.1029 312.00
72.1681 277.00
72.2333 268.00
72.2985 256.00
72.3637 277.00
72.4289 282.00
72.4941 287.00
72.5593 273.00
72.6245 268.00
72.6897 318.00
72.7549 308.00
72.8201 297.00
72.8853 290.00
72.9505 298.00
73.0157 288.00
73.0809 316.00
73.1461 296.00
73.2113 295.00
73.2765 256.00
73.3417 283.00
73.4069 305.00
73.4721 281.00
73.5373 262.00
73.6025 263.00
73.6677 242.00
73.7329 233.00
73.7981 277.00
73.8633 231.00
73.9285 247.00
73.9937 217.00
74.0589 237.00
74.1241 256.00
74.1893 264.00
74.2545 266.00
74.3197 268.00
74.3849 281.00
74.4501 273.00
74.5153 283.00
74.5805 278.00
74.6457 295.00
74.7109 286.00
74.7761 282.00
74.8413 261.00
74.9065 264.00
74.9717 230.00
75.0369 249.00
75.1021 281.00
75.1673 243.00
75.2325 286.00
75.2977 283.00
75.3629 276.00
75.4281 275.00
75.4933 269.00
75.5585 284.00
75.6237 283.00
75.6889 264.00
75.7541 259.00
75.8193 295.00
75.8845 262.00
75.9497 243.00
76.0149 276.00
76.0801 275.00
76.1452 230.00
76.2104 257.00
76.2756 259.00
76.3409 261.00
76.406 264.00
76.4712 247.00
76.5364 287.00
76.6016 258.00
76.6668 261.00
76.732 234.00
76.7972 231.00
76.8624 282.00
76.9276 257.00
76.9928 257.00
77.058 224.00
77.1232 244.00
77.1884 245.00
77.2536 265.00
77.3188 230.00
77.384 229.00
77.4492 207.00
77.5144 215.00
77.5796 295.00
77.6448 243.00
77.71 244.00
77.7752 268.00
77.8404 260.00
77.9056 246.00
77.9708 239.00
78.036 222.00
78.1012 266.00
78.1664 289.00
78.2316 306.00
78.2968 325.00
78.362 337.00
78.4272 385.00
78.4924 424.00
78.5576 468.00
78.6228 729.00
78.688 1035.00
78.7532 1225.00
78.8184 1452.00
78.8836 1446.00
78.9488 1215.00
79.014 1062.00
79.0792 1027.00
79.1444 843.00
79.2096 611.00
79.2748 547.00
79.34 489.00
79.4052 392.00
79.4704 353.00
79.5356 325.00
79.6008 326.00
79.666 261.00
79.7312 292.00
79.7964 264.00
79.8616 263.00
79.9268 293.00
79.992 246.00
80.0572 257.00
80.1224 241.00
80.1876 268.00
80.2528 275.00
80.318 229.00
80.3832 242.00
80.4484 232.00
80.5136 243.00
80.5788 263.00
80.644 257.00
80.7092 319.00
80.7744 262.00
80.8396 287.00
80.9048 305.00
80.9699 336.00
81.0351 364.00
81.1003 408.00
81.1655 522.00
81.2307 593.00
81.2959 607.00
81.3611 562.00
81.4263 477.00
81.4915 457.00
81.5567 425.00
81.6219 387.00
81.6871 314.00
81.7523 270.00
81.8175 286.00
81.8827 249.00
81.9479 261.00
82.0131 265.00
82.0783 247.00
82.1435 268.00
82.2087 266.00
82.2739 281.00
82.3391 263.00
82.4043 276.00
82.4695 317.00
82.5347 296.00
82.5999 317.00
82.6651 307.00
82.7303 344.00
82.7955 302.00
82.8607 292.00
82.9259 281.00
82.9911 269.00
83.0563 240.00
83.1215 285.00
83.1867 273.00
83.2519 282.00
83.3171 297.00
83.3823 321.00
83.4475 310.00
83.5127 379.00
83.5779 455.00
83.6431 609.00
83.7083 858.00
83.7735 1033.00
83.8387 1099.00
83.9039 1017.00
83.9691 917.00
84.0343 767.00
84.0995 722.00
84.1647 594.00
84.2299 458.00
84.2951 384.00
84.3603 355.00
84.4255 314.00
84.4907 298.00
84.5559 338.00
84.6211 294.00
84.6863 307.00
84.7515 327.00
84.8167 377.00
84.8819 335.00
84.9471 326.00
85.0123 328.00
85.0775 292.00
85.1427 280.00
85.2079 300.00
85.2731 260.00
85.3383 256.00
85.4035 265.00
85.4687 247.00
85.5339 234.00
85.5991 270.00
85.6643 256.00
85.7295 257.00
85.7946 234.00
85.8598 235.00
85.925 240.00
85.9903 245.00
86.0554 234.00
86.1206 266.00
86.1858 214.00
86.251 248.00
86.3162 219.00
86.3814 247.00
86.4466 267.00
86.5118 268.00
86.577 303.00
86.6422 282.00
86.7074 290.00
86.7726 275.00
86.8378 288.00
86.903 339.00
86.9682 351.00
87.0334 277.00
87.0986 347.00
87.1638 414.00
87.229 544.00
87.2942 605.00
87.3594 676.00
87.4246 574.00
87.4898 509.00
87.555 442.00
87.6202 470.00
87.6854 407.00
87.7506 346.00
87.8158 309.00
87.881 266.00
87.9462 224.00
88.0114 245.00
88.0766 245.00
88.1418 259.00
88.207 239.00
88.2722 310.00
88.3374 271.00
88.4026 233.00
88.4678 244.00
88.533 274.00
88.5982 273.00
88.6634 311.00
88.7286 278.00
88.7938 278.00
88.859 282.00
88.9242 269.00
88.9894 305.00
89.0546 267.00
89.1198 299.00
89.185 300.00
89.2502 292.00
89.3154 304.00
89.3806 339.00
89.4458 374.00
89.511 336.00
89.5762 412.00
89.6414 550.00
89.7066 705.00
89.7718 903.00
89.837 1133.00
89.9022 1216.00
89.9674 1106.00
90.0326 905.00
90.0978 878.00
90.163 816.00
90.2282 749.00
90.2934 604.00
90.3586 514.00
90.4238 423.00
90.489 337.00
90.5542 375.00
90.6193 432.00
90.6845 457.00
90.7497 529.00
90.8149 695.00
90.8801 978.00
90.9453 1230.00
91.0105 1304.00
91.0757 1174.00
91.1409 973.00
91.2061 862.00
91.2713 933.00
91.3365 793.00
91.4017 631.00
91.4669 503.00
91.5321 398.00
91.5973 390.00
91.6625 327.00
91.7277 303.00
91.7929 326.00
91.8581 294.00
91.9233 315.00
91.9885 296.00
92.0537 288.00
92.1189 307.00
92.1841 288.00
92.2493 309.00
92.3145 282.00
92.3797 299.00
92.4449 304.00
92.5101 274.00
92.5753 260.00
92.6405 258.00
92.7057 258.00
92.7709 303.00
92.8361 277.00
92.9013 317.00
92.9665 297.00
93.0317 317.00
93.0969 323.00
93.1621 420.00
93.2273 457.00
93.2925 585.00
93.3577 679.00
93.4229 762.00
93.4881 594.00
93.5533 552.00
93.6185 522.00
93.6837 548.00
93.7489 497.00
93.8141 390.00
93.8793 322.00
93.9445 301.00
94.0097 281.00
94.0749 296.00
94.1401 274.00
94.2053 293.00
94.2705 249.00
94.3357 224.00
94.4009 245.00
94.4661 237.00
94.5313 247.00
94.5965 268.00
94.6617 279.00
94.7269 212.00
94.7921 217.00
94.8573 220.00
94.9225 234.00
94.9877 258.00
95.0529 270.00
95.1181 276.00
95.1833 239.00
95.2485 277.00
95.3137 263.00
95.3789 266.00
95.444 293.00
95.5092 283.00
95.5744 285.00
95.6396 296.00
95.7048 281.00
95.77 305.00
95.8352 357.00
95.9004 387.00
95.9656 514.00
96.0308 601.00
96.096 669.00
96.1612 548.00
96.2264 543.00
96.2916 496.00
96.3568 486.00
96.422 487.00
96.4872 405.00
96.5524 338.00
96.6176 277.00
96.6828 294.00
96.748 268.00
96.8132 245.00
96.8784 233.00
96.9436 246.00
97.0088 246.00
97.074 243.00
97.1392 217.00
97.2044 215.00
97.2696 223.00
97.3348 215.00
97.4 247.00
97.4652 233.00
97.5304 209.00
97.5956 260.00
97.6608 233.00
97.726 246.00
97.7912 247.00
97.8564 249.00
97.9216 228.00
97.9868 249.00
98.052 304.00
98.1172 268.00
98.1824 273.00
98.2476 263.00
98.3128 267.00
98.378 278.00
98.4432 275.00
98.5084 279.00
98.5736 276.00
98.6388 260.00
98.704 297.00
98.7692 304.00
98.8344 280.00
98.8996 228.00
98.9648 232.00
99.03 278.00
99.0952 282.00
99.1604 261.00
99.2256 245.00
99.2908 256.00
99.356 220.00
99.4212 224.00
99.4864 241.00
99.5516 220.00
99.6168 234.00
99.682 192.00
99.7472 225.00
99.8124 230.00
99.8776 216.00
99.9428 208.00
100.008 221.00
100.073 245.00
100.095 250.00