File: data/xrd_creation/results/Na_301.xy
9.903433 2824.00
9.968632 2849.00
10.0338 2829.00
10.099 2770.00
10.1642 2637.00
10.2294 2635.00
10.2946 2797.00
10.3598 2662.00
10.425 2660.00
10.4902 2700.00
10.5554 2562.00
10.6206 2618.00
10.6858 2583.00
10.751 2572.00
10.8162 2571.00
10.8814 2501.00
10.9466 2437.00
11.0118 2514.00
11.077 2529.00
11.1422 2524.00
11.2074 2469.00
11.2726 2430.00
11.3378 2431.00
11.403 2405.00
11.4682 2358.00
11.5334 2385.00
11.5986 2348.00
11.6638 2349.00
11.729 2246.00
11.7942 2348.00
11.8594 2283.00
11.9246 2228.00
11.9898 2171.00
12.055 2267.00
12.1202 2216.00
12.1854 2213.00
12.2506 2257.00
12.3158 2236.00
12.381 2155.00
12.4462 2082.00
12.5114 2203.00
12.5766 2082.00
12.6418 2197.00
12.707 2109.00
12.7722 2077.00
12.8374 2183.00
12.9026 2151.00
12.9678 2078.00
13.033 2128.00
13.0982 2062.00
13.1634 2086.00
13.2286 2028.00
13.2938 2085.00
13.359 2023.00
13.4242 2087.00
13.4894 2107.00
13.5546 2015.00
13.6198 2087.00
13.685 1992.00
13.7502 2029.00
13.8154 2018.00
13.8805 2039.00
13.9457 2027.00
14.0109 1961.00
14.0761 1968.00
14.1413 2038.00
14.2065 1963.00
14.2717 2075.00
14.3369 2013.00
14.4021 1934.00
14.4673 1960.00
14.5325 2014.00
14.5977 1958.00
14.6629 1912.00
14.7281 1961.00
14.7933 1965.00
14.8585 1905.00
14.9237 1943.00
14.9889 1876.00
15.0541 2011.00
15.1193 1870.00
15.1845 1932.00
15.2497 1861.00
15.3149 1931.00
15.3801 1879.00
15.4453 1786.00
15.5105 1790.00
15.5757 1979.00
15.6409 1947.00
15.7061 1811.00
15.7713 1890.00
15.8365 1915.00
15.9017 1937.00
15.9669 1807.00
16.0321 1879.00
16.0973 1883.00
16.1625 1870.00
16.2277 1907.00
16.2929 1839.00
16.3581 1858.00
16.4233 1848.00
16.4885 1861.00
16.5537 1899.00
16.6189 1857.00
16.6841 1891.00
16.7493 1804.00
16.8145 1839.00
16.8797 1800.00
16.9449 1801.00
17.0101 1847.00
17.0753 1806.00
17.1405 1736.00
17.2057 1880.00
17.2709 1780.00
17.3361 1751.00
17.4013 1805.00
17.4665 1873.00
17.5317 1777.00
17.5969 1693.00
17.6621 1683.00
17.7273 1784.00
17.7925 1746.00
17.8577 1711.00
17.9229 1726.00
17.9881 1818.00
18.0533 1750.00
18.1185 1760.00
18.1837 1692.00
18.2489 1826.00
18.3141 1609.00
18.3793 1655.00
18.4445 1710.00
18.5097 1749.00
18.5749 1739.00
18.6401 1742.00
18.7052 1689.00
18.7704 1762.00
18.8356 1791.00
18.9008 1749.00
18.966 1644.00
19.0312 1790.00
19.0964 1674.00
19.1616 1748.00
19.2268 1843.00
19.292 1879.00
19.3572 1856.00
19.4224 1811.00
19.4876 1765.00
19.5528 1715.00
19.618 1746.00
19.6832 1802.00
19.7484 1751.00
19.8136 1812.00
19.8788 1736.00
19.944 1715.00
20.0092 1776.00
20.0744 1732.00
20.1396 1720.00
20.2048 1772.00
20.27 1761.00
20.3352 1791.00
20.4004 1853.00
20.4656 1931.00
20.5308 2172.00
20.596 2718.00
20.6612 3486.00
20.7264 4233.00
20.7916 3964.00
20.8568 3016.00
20.922 2230.00
20.9872 1921.00
21.0524 1771.00
21.1176 1757.00
21.1828 1739.00
21.248 1701.00
21.3132 1708.00
21.3784 1756.00
21.4436 1741.00
21.5088 1681.00
21.574 1691.00
21.6392 1714.00
21.7044 1717.00
21.7696 1689.00
21.8348 1617.00
21.9 1778.00
21.9652 1790.00
22.0304 1827.00
22.0956 1809.00
22.1608 1829.00
22.226 1863.00
22.2912 2067.00
22.3564 2127.00
22.4216 2518.00
22.4868 3247.00
22.552 4755.00
22.6172 7174.00
22.6824 9140.00
22.7476 9276.00
22.8128 8410.00
22.878 6696.00
22.9432 4740.00
23.0084 3028.00
23.0736 2443.00
23.1388 2407.00
23.204 2255.00
23.2692 1984.00
23.3344 1941.00
23.3996 1760.00
23.4647 1733.00
23.5299 1701.00
23.5951 1747.00
23.6603 1700.00
23.7255 1701.00
23.7907 1607.00
23.8559 1699.00
23.9211 1730.00
23.9863 1660.00
24.0515 1594.00
24.1167 1619.00
24.1819 1698.00
24.2471 1737.00
24.3123 1716.00
24.3775 1652.00
24.4427 1598.00
24.5079 1617.00
24.5731 1674.00
24.6383 1663.00
24.7035 1678.00
24.7687 1684.00
24.8339 1607.00
24.8991 1656.00
24.9643 1557.00
25.0295 1606.00
25.0947 1645.00
25.1599 1661.00
25.2251 1711.00
25.2903 1661.00
25.3555 1655.00
25.4207 1798.00
25.4859 1675.00
25.5511 1683.00
25.6163 1727.00
25.6815 1660.00
25.7467 1619.00
25.8119 1647.00
25.8771 1630.00
25.9423 1647.00
26.0075 1648.00
26.0727 1633.00
26.1379 1669.00
26.2031 1666.00
26.2683 1695.00
26.3335 1701.00
26.3987 1703.00
26.4639 1634.00
26.5291 1575.00
26.5943 1582.00
26.6595 1599.00
26.7247 1557.00
26.7899 1625.00
26.8551 1698.00
26.9203 1669.00
26.9855 1655.00
27.0507 1634.00
27.1159 1618.00
27.1811 1631.00
27.2463 1620.00
27.3115 1646.00
27.3767 1608.00
27.4419 1556.00
27.5071 1633.00
27.5723 1660.00
27.6375 1619.00
27.7027 1678.00
27.7679 1577.00
27.8331 1595.00
27.8983 1609.00
27.9635 1491.00
28.0287 1612.00
28.0939 1647.00
28.1591 1542.00
28.2243 1526.00
28.2894 1571.00
28.3546 1587.00
28.4198 1614.00
28.485 1661.00
28.5502 1583.00
28.6154 1590.00
28.6806 1530.00
28.7458 1556.00
28.811 1595.00
28.8762 1573.00
28.9414 1611.00
29.0066 1567.00
29.0718 1539.00
29.137 1537.00
29.2022 1481.00
29.2674 1625.00
29.3326 1574.00
29.3978 1496.00
29.463 1619.00
29.5282 1600.00
29.5934 1506.00
29.6586 1605.00
29.7238 1520.00
29.789 1537.00
29.8542 1575.00
29.9194 1584.00
29.9846 1474.00
30.0498 1584.00
30.115 1491.00
30.1802 1576.00
30.2454 1618.00
30.3106 1546.00
30.3758 1558.00
30.441 1583.00
30.5062 1626.00
30.5714 1543.00
30.6366 1536.00
30.7018 1580.00
30.767 1634.00
30.8322 1564.00
30.8974 1575.00
30.9626 1605.00
31.0278 1529.00
31.093 1560.00
31.1582 1683.00
31.2234 1579.00
31.2886 1656.00
31.3538 1633.00
31.419 1605.00
31.4842 1647.00
31.5494 1754.00
31.6146 1688.00
31.6798 1731.00
31.745 1837.00
31.8102 1879.00
31.8754 2248.00
31.9406 2575.00
32.0058 3478.00
32.071 4726.00
32.1362 6062.00
32.2014 5740.00
32.2666 5911.00
32.3318 8033.00
32.397 12204.00
32.4622 14526.00
32.5274 11054.00
32.5926 6326.00
32.6578 3413.00
32.723 2303.00
32.7882 1928.00
32.8534 1816.00
32.9186 1787.00
32.9838 1746.00
33.0489 1684.00
33.1141 1644.00
33.1793 1563.00
33.2445 1576.00
33.3097 1596.00
33.3749 1601.00
33.4401 1619.00
33.5053 1576.00
33.5705 1756.00
33.6357 1831.00
33.7009 2281.00
33.7661 2822.00
33.8313 3070.00
33.8965 2846.00
33.9617 2501.00
34.0269 2321.00
34.0921 2782.00
34.1573 3382.00
34.2225 3630.00
34.2877 3137.00
34.3529 2557.00
34.4181 2005.00
34.4833 1807.00
34.5485 1583.00
34.6137 1602.00
34.6789 1470.00
34.7441 1475.00
34.8093 1428.00
34.8745 1415.00
34.9397 1370.00
35.0049 1382.00
35.0701 1410.00
35.1353 1484.00
35.2005 1453.00
35.2657 1328.00
35.3309 1350.00
35.3961 1391.00
35.4613 1372.00
35.5265 1318.00
35.5917 1391.00
35.6569 1448.00
35.7221 1374.00
35.7873 1395.00
35.8525 1387.00
35.9177 1302.00
35.9829 1387.00
36.0481 1290.00
36.1133 1334.00
36.1785 1313.00
36.2437 1427.00
36.3089 1308.00
36.3741 1374.00
36.4393 1429.00
36.5045 1367.00
36.5697 1376.00
36.6349 1352.00
36.7001 1408.00
36.7653 1354.00
36.8305 1326.00
36.8957 1264.00
36.9609 1297.00
37.0261 1308.00
37.0913 1242.00
37.1565 1273.00
37.2217 1286.00
37.2869 1242.00
37.3521 1311.00
37.4173 1320.00
37.4825 1265.00
37.5477 1246.00
37.6129 1198.00
37.6781 1218.00
37.7433 1224.00
37.8085 1218.00
37.8736 1325.00
37.9388 1267.00
38.004 1275.00
38.0692 1352.00
38.1344 1302.00
38.1996 1311.00
38.2648 1377.00
38.33 1403.00
38.3952 1371.00
38.4604 1290.00
38.5256 1257.00
38.5908 1197.00
38.656 1129.00
38.7212 1151.00
38.7864 1210.00
38.8516 1182.00
38.9168 1219.00
38.982 1206.00
39.0472 1242.00
39.1124 1102.00
39.1776 1159.00
39.2428 1142.00
39.308 1155.00
39.3732 1195.00
39.4384 1227.00
39.5036 1164.00
39.5688 1197.00
39.634 1171.00
39.6992 1195.00
39.7644 1343.00
39.8296 1362.00
39.8948 1353.00
39.96 1332.00
40.0252 1368.00
40.0904 1484.00
40.1556 1413.00
40.2208 1400.00
40.286 1288.00
40.3512 1315.00
40.4164 1224.00
40.4816 1170.00
40.5468 1186.00
40.612 1161.00
40.6772 1172.00
40.7424 1037.00
40.8076 1204.00
40.8728 1146.00
40.938 1209.00
41.0032 1138.00
41.0684 1195.00
41.1336 1156.00
41.1988 1191.00
41.264 1138.00
41.3292 1099.00
41.3944 1155.00
41.4596 1214.00
41.5248 1227.00
41.59 1218.00
41.6552 1107.00
41.7204 1197.00
41.7856 1153.00
41.8508 1124.00
41.916 1147.00
41.9812 1079.00
42.0464 1148.00
42.1116 1138.00
42.1768 1178.00
42.242 1177.00
42.3072 1146.00
42.3724 1112.00
42.4376 1110.00
42.5028 1123.00
42.568 1128.00
42.6332 1095.00
42.6983 1201.00
42.7635 1149.00
42.8287 1175.00
42.8939 1141.00
42.9591 1143.00
43.0243 1117.00
43.0895 1144.00
43.1547 1100.00
43.2199 1206.00
43.2851 1194.00
43.3503 1175.00
43.4155 1137.00
43.4807 1123.00
43.5459 1166.00
43.6111 1124.00
43.6763 1118.00
43.7415 1083.00
43.8067 1000.00
43.8719 1044.00
43.9371 1054.00
44.0023 1121.00
44.0675 1073.00
44.1327 1124.00
44.1979 1062.00
44.2631 1129.00
44.3283 1153.00
44.3935 1019.00
44.4587 1069.00
44.5239 1073.00
44.5891 1082.00
44.6543 1172.00
44.7195 1099.00
44.7847 1098.00
44.8499 1128.00
44.9151 1054.00
44.9803 1137.00
45.0455 1115.00
45.1107 1073.00
45.1759 1125.00
45.2411 1068.00
45.3063 1096.00
45.3715 1130.00
45.4367 1112.00
45.5019 1110.00
45.5671 1058.00
45.6323 1092.00
45.6975 1120.00
45.7627 1129.00
45.8279 1139.00
45.8931 1147.00
45.9583 1237.00
46.0235 1235.00
46.0887 1371.00
46.1539 1769.00
46.2191 2510.00
46.2843 3623.00
46.3495 4398.00
46.4147 4065.00
46.4799 3700.00
46.5451 3251.00
46.6103 3097.00
46.6755 3480.00
46.7407 3457.00
46.8059 2796.00
46.8711 2236.00
46.9363 1617.00
47.0015 1312.00
47.0667 1318.00
47.1319 1320.00
47.1971 1332.00
47.2623 1432.00
47.3275 1540.00
47.3927 1678.00
47.4579 1488.00
47.523 1468.00
47.5882 1324.00
47.6534 1140.00
47.7186 1118.00
47.7838 1076.00
47.849 1057.00
47.9142 1096.00
47.9794 1040.00
48.0446 1069.00
48.1098 1075.00
48.175 941.00
48.2402 998.00
48.3054 1019.00
48.3706 1079.00
48.4358 1078.00
48.501 1041.00
48.5662 1061.00
48.6314 1123.00
48.6966 1029.00
48.7618 1101.00
48.827 1068.00
48.8922 1039.00
48.9574 1088.00
49.0226 1159.00
49.0878 1209.00
49.153 1245.00
49.2182 1181.00
49.2834 1166.00
49.3486 1159.00
49.4138 1086.00
49.479 1135.00
49.5442 1129.00
49.6094 1152.00
49.6746 1064.00
49.7398 1112.00
49.805 1028.00
49.8702 1025.00
49.9354 1049.00
50.0006 1093.00
50.0658 1096.00
50.131 1031.00
50.1962 1036.00
50.2614 1038.00
50.3266 1081.00
50.3918 1028.00
50.457 1059.00
50.5222 1058.00
50.5874 1057.00
50.6526 1012.00
50.7178 1020.00
50.783 1024.00
50.8482 995.00
50.9134 1054.00
50.9786 1121.00
51.0438 1024.00
51.109 1080.00
51.1742 1074.00
51.2394 1053.00
51.3046 1127.00
51.3698 1106.00
51.435 1066.00
51.5002 977.00
51.5654 1072.00
51.6306 1165.00
51.6958 1146.00
51.761 1209.00
51.8262 1491.00
51.8914 1681.00
51.9566 1758.00
52.0218 1888.00
52.087 1936.00
52.1522 2067.00
52.2174 2455.00
52.2826 2856.00
52.3477 3021.00
52.4129 3321.00
52.4781 3688.00
52.5433 3787.00
52.6085 3264.00
52.6737 2604.00
52.7389 2004.00
52.8041 1517.00
52.8693 1364.00
52.9345 1172.00
52.9997 1196.00
53.0649 1087.00
53.1301 1064.00
53.1953 997.00
53.2605 1065.00
53.3257 975.00
53.3909 1057.00
53.4561 1075.00
53.5213 1060.00
53.5865 1041.00
53.6517 1027.00
53.7169 1094.00
53.7821 1020.00
53.8473 1016.00
53.9125 1081.00
53.9777 1041.00
54.0429 1041.00
54.1081 1092.00
54.1733 968.00
54.2385 998.00
54.3037 965.00
54.3689 1070.00
54.4341 1043.00
54.4993 1006.00
54.5645 978.00
54.6297 992.00
54.6949 986.00
54.7601 1032.00
54.8253 1070.00
54.8905 945.00
54.9557 1002.00
55.0209 1103.00
55.0861 1035.00
55.1513 983.00
55.2165 988.00
55.2817 1064.00
55.3469 1021.00
55.4121 1084.00
55.4773 1040.00
55.5425 1015.00
55.6077 1008.00
55.6729 1063.00
55.7381 967.00
55.8033 1056.00
55.8685 1030.00
55.9337 1054.00
55.9989 981.00
56.0641 960.00
56.1293 1020.00
56.1945 1003.00
56.2597 1009.00
56.3249 1011.00
56.3901 927.00
56.4553 1015.00
56.5205 1043.00
56.5857 998.00
56.6509 1024.00
56.7161 1031.00
56.7813 1056.00
56.8465 993.00
56.9117 1053.00
56.9769 1069.00
57.042 1095.00
57.1073 1107.00
57.1724 1123.00
57.2376 1155.00
57.3028 1231.00
57.368 1636.00
57.4332 2105.00
57.4984 2310.00
57.5636 2256.00
57.6288 2197.00
57.694 2216.00
57.7592 2318.00
57.8244 3102.00
57.8896 3814.00
57.9548 4024.00
58.02 3902.00
58.0852 3536.00
58.1504 2751.00
58.2156 2108.00
58.2808 1584.00
58.346 1299.00
58.4112 1145.00
58.4764 1020.00
58.5416 1060.00
58.6068 995.00
58.672 1050.00
58.7372 1016.00
58.8024 958.00
58.8676 955.00
58.9328 946.00
58.998 1010.00
59.0632 1044.00
59.1284 1016.00
59.1936 1042.00
59.2588 1049.00
59.324 1026.00
59.3892 1165.00
59.4544 1166.00
59.5196 1249.00
59.5848 1174.00
59.65 1126.00
59.7152 1045.00
59.7804 1026.00
59.8456 992.00
59.9108 986.00
59.976 1000.00
60.0412 1003.00
60.1064 924.00
60.1716 992.00
60.2368 900.00
60.302 994.00
60.3672 999.00
60.4324 1084.00
60.4976 1077.00
60.5628 1084.00
60.628 1026.00
60.6932 987.00
60.7584 988.00
60.8236 988.00
60.8888 994.00
60.954 1071.00
61.0192 1041.00
61.0844 991.00
61.1496 1064.00
61.2148 1151.00
61.28 1185.00
61.3452 1247.00
61.4104 1099.00
61.4756 1110.00
61.5408 1075.00
61.606 976.00
61.6712 945.00
61.7364 894.00
61.8016 961.00
61.8667 877.00
61.932 863.00
61.9971 850.00
62.0623 865.00
62.1275 820.00
62.1927 918.00
62.2579 882.00
62.3231 839.00
62.3883 872.00
62.4535 829.00
62.5187 889.00
62.5839 873.00
62.6491 873.00
62.7143 822.00
62.7795 852.00
62.8447 817.00
62.9099 920.00
62.9751 833.00
63.0403 868.00
63.1055 845.00
63.1707 891.00
63.2359 889.00
63.3011 878.00
63.3663 865.00
63.4315 892.00
63.4967 841.00
63.5619 909.00
63.6271 958.00
63.6923 926.00
63.7575 863.00
63.8227 941.00
63.8879 914.00
63.9531 920.00
64.0183 905.00
64.0835 854.00
64.1487 856.00
64.2139 887.00
64.2791 868.00
64.3443 834.00
64.4095 826.00
64.4747 832.00
64.5399 861.00
64.6051 817.00
64.6703 863.00
64.7355 809.00
64.8007 799.00
64.8659 836.00
64.9311 834.00
64.9963 850.00
65.0615 790.00
65.1267 823.00
65.1919 856.00
65.2571 771.00
65.3223 847.00
65.3875 860.00
65.4527 897.00
65.5179 842.00
65.5831 814.00
65.6483 883.00
65.7135 800.00
65.7787 769.00
65.8439 832.00
65.9091 756.00
65.9743 819.00
66.0395 761.00
66.1047 736.00
66.1699 786.00
66.2351 807.00
66.3003 792.00
66.3655 792.00
66.4307 782.00
66.4959 869.00
66.561 786.00
66.6263 827.00
66.6915 835.00
66.7566 830.00
66.8218 850.00
66.887 767.00
66.9522 820.00
67.0174 864.00
67.0826 940.00
67.1478 979.00
67.213 1071.00
67.2782 1013.00
67.3434 1051.00
67.4086 1140.00
67.4738 1002.00
67.539 1034.00
67.6042 984.00
67.6694 999.00
67.7346 1123.00
67.7998 1404.00
67.865 1817.00
67.9302 2202.00
67.9954 2370.00
68.0606 2132.00
68.1258 1970.00
68.191 1728.00
68.2562 1331.00
68.3214 1132.00
68.3866 1052.00
68.4518 841.00
68.517 859.00
68.5822 855.00
68.6474 753.00
68.7126 790.00
68.7778 780.00
68.843 803.00
68.9082 784.00
68.9734 744.00
69.0386 771.00
69.1038 737.00
69.169 749.00
69.2342 815.00
69.2994 781.00
69.3646 774.00
69.4298 774.00
69.495 742.00
69.5602 744.00
69.6254 788.00
69.6906 745.00
69.7558 750.00
69.821 755.00
69.8862 693.00
69.9514 752.00
70.0166 745.00
70.0818 777.00
70.147 766.00
70.2122 753.00
70.2774 758.00
70.3426 763.00
70.4078 792.00
70.473 704.00
70.5382 746.00
70.6034 782.00
70.6686 764.00
70.7338 718.00
70.799 728.00
70.8642 746.00
70.9294 751.00
70.9946 784.00
71.0598 803.00
71.125 744.00
71.1902 819.00
71.2554 801.00
71.3205 822.00
71.3858 812.00
71.451 855.00
71.5162 846.00
71.5813 837.00
71.6465 788.00
71.7117 843.00
71.7769 848.00
71.8421 844.00
71.9073 901.00
71.9725 955.00
72.0377 918.00
72.1029 962.00
72.1681 903.00
72.2333 1044.00
72.2985 1032.00
72.3637 1223.00
72.4289 1319.00
72.4941 1241.00
72.5593 1257.00
72.6245 1250.00
72.6897 1312.00
72.7549 1468.00
72.8201 1476.00
72.8853 1504.00
72.9505 1322.00
73.0157 1321.00
73.0809 1232.00
73.1461 1039.00
73.2113 911.00
73.2765 840.00
73.3417 776.00
73.4069 773.00
73.4721 789.00
73.5373 711.00
73.6025 702.00
73.6677 659.00
73.7329 698.00
73.7981 711.00
73.8633 714.00
73.9285 687.00
73.9937 799.00
74.0589 717.00
74.1241 678.00
74.1893 684.00
74.2545 721.00
74.3197 681.00
74.3849 701.00
74.4501 731.00
74.5153 704.00
74.5805 737.00
74.6457 752.00
74.7109 725.00
74.7761 733.00
74.8413 734.00
74.9065 776.00
74.9717 718.00
75.0369 757.00
75.1021 711.00
75.1673 785.00
75.2325 713.00
75.2977 726.00
75.3629 713.00
75.4281 790.00
75.4933 713.00
75.5585 710.00
75.6237 725.00
75.6889 728.00
75.7541 709.00
75.8193 741.00
75.8845 729.00
75.9497 732.00
76.0149 752.00
76.0801 682.00
76.1452 757.00
76.2104 723.00
76.2756 695.00
76.3409 792.00
76.406 784.00
76.4712 845.00
76.5364 824.00
76.6016 902.00
76.6668 901.00
76.732 883.00
76.7972 1039.00
76.8624 1021.00
76.9276 1133.00
76.9928 1153.00
77.058 1119.00
77.1232 1179.00
77.1884 1268.00
77.2536 1230.00
77.3188 1091.00
77.384 1061.00
77.4492 1208.00
77.5144 1239.00
77.5796 1359.00
77.6448 1308.00
77.71 1158.00
77.7752 1103.00
77.8404 1005.00
77.9056 945.00
77.9708 833.00
78.036 731.00
78.1012 716.00
78.1664 734.00
78.2316 750.00
78.2968 716.00
78.362 704.00
78.4272 717.00
78.4924 655.00
78.5576 664.00
78.6228 638.00
78.688 668.00
78.7532 723.00
78.8184 681.00
78.8836 713.00
78.9488 717.00
79.014 723.00
79.0792 702.00
79.1444 696.00
79.2096 698.00
79.2748 741.00
79.34 666.00
79.4052 676.00
79.4704 679.00
79.5356 740.00
79.6008 698.00
79.666 680.00
79.7312 675.00
79.7964 674.00
79.8616 720.00
79.9268 666.00
79.992 716.00
80.0572 753.00
80.1224 721.00
80.1876 718.00
80.2528 754.00
80.318 729.00
80.3832 745.00
80.4484 704.00
80.5136 725.00
80.5788 696.00
80.644 758.00
80.7092 744.00
80.7744 689.00
80.8396 700.00
80.9048 712.00
80.9699 760.00
81.0351 707.00
81.1003 691.00
81.1655 745.00
81.2307 814.00
81.2959 744.00
81.3611 763.00
81.4263 755.00
81.4915 710.00
81.5567 746.00
81.6219 764.00
81.6871 755.00
81.7523 788.00
81.8175 872.00
81.8827 878.00
81.9479 879.00
82.0131 878.00
82.0783 831.00
82.1435 865.00
82.2087 827.00
82.2739 881.00
82.3391 829.00
82.4043 773.00
82.4695 785.00
82.5347 714.00
82.5999 756.00
82.6651 680.00
82.7303 690.00
82.7955 670.00
82.8607 640.00
82.9259 606.00
82.9911 665.00
83.0563 685.00
83.1215 662.00
83.1867 649.00
83.2519 616.00
83.3171 671.00
83.3823 666.00
83.4475 605.00
83.5127 640.00
83.5779 645.00
83.6431 710.00
83.7083 604.00
83.7735 612.00
83.8387 670.00
83.9039 675.00
83.9691 649.00
84.0343 675.00
84.0995 635.00
84.1647 676.00
84.2299 712.00
84.2951 652.00
84.3603 640.00
84.4255 688.00
84.4907 681.00
84.5559 613.00
84.6211 656.00
84.6863 655.00
84.7515 658.00
84.8167 703.00
84.8819 631.00
84.9471 667.00
85.0123 637.00
85.0775 650.00
85.1427 702.00
85.2079 637.00
85.2731 628.00
85.3383 665.00
85.4035 637.00
85.4687 678.00
85.5339 680.00
85.5991 671.00
85.6643 682.00
85.7295 719.00
85.7946 822.00
85.8598 853.00
85.925 771.00
85.9903 860.00
86.0554 826.00
86.1206 736.00
86.1858 791.00
86.251 693.00
86.3162 710.00
86.3814 683.00
86.4466 719.00
86.5118 834.00
86.577 840.00
86.6422 906.00
86.7074 875.00
86.7726 846.00
86.8378 818.00
86.903 763.00
86.9682 705.00
87.0334 737.00
87.0986 691.00
87.1638 614.00
87.229 672.00
87.2942 656.00
87.3594 615.00
87.4246 652.00
87.4898 631.00
87.555 637.00
87.6202 629.00
87.6854 666.00
87.7506 601.00
87.8158 666.00
87.881 618.00
87.9462 595.00
88.0114 617.00
88.0766 639.00
88.1418 604.00
88.207 688.00
88.2722 653.00
88.3374 648.00
88.4026 616.00
88.4678 629.00
88.533 718.00
88.5982 612.00
88.6634 634.00
88.7286 671.00
88.7938 624.00
88.859 644.00
88.9242 682.00
88.9894 610.00
89.0546 637.00
89.1198 631.00
89.185 618.00
89.2502 616.00
89.3154 660.00
89.3806 642.00
89.4458 629.00
89.511 610.00
89.5762 645.00
89.6414 695.00
89.7066 690.00
89.7718 631.00
89.837 727.00
89.9022 717.00
89.9674 685.00
90.0326 711.00
90.0978 682.00
90.163 689.00
90.2282 714.00
90.2934 677.00
90.3586 650.00
90.4238 718.00
90.489 694.00
90.5542 709.00
90.6193 783.00
90.6845 784.00
90.7497 814.00
90.8149 815.00
90.8801 832.00
90.9453 827.00
91.0105 914.00
91.0757 859.00
91.1409 861.00
91.2061 792.00
91.2713 769.00
91.3365 759.00
91.4017 757.00
91.4669 703.00
91.5321 638.00
91.5973 666.00
91.6625 693.00
91.7277 645.00
91.7929 647.00
91.8581 599.00
91.9233 637.00
91.9885 650.00
92.0537 671.00
92.1189 613.00
92.1841 697.00
92.2493 620.00
92.3145 627.00
92.3797 674.00
92.4449 649.00
92.5101 651.00
92.5753 649.00
92.6405 652.00
92.7057 679.00
92.7709 626.00
92.8361 603.00
92.9013 607.00
92.9665 668.00
93.0317 608.00
93.0969 613.00
93.1621 625.00
93.2273 655.00
93.2925 685.00
93.3577 635.00
93.4229 641.00
93.4881 646.00
93.5533 676.00
93.6185 675.00
93.6837 631.00
93.7489 680.00
93.8141 616.00
93.8793 658.00
93.9445 662.00
94.0097 722.00
94.0749 648.00
94.1401 711.00
94.2053 703.00
94.2705 745.00
94.3357 755.00
94.4009 751.00
94.4661 734.00
94.5313 741.00
94.5965 770.00
94.6617 775.00
94.7269 824.00
94.7921 835.00
94.8573 822.00
94.9225 818.00
94.9877 885.00
95.0529 913.00
95.1181 958.00
95.1833 1034.00
95.2485 1079.00
95.3137 1193.00
95.3789 1235.00
95.444 1292.00
95.5092 1284.00
95.5744 1286.00
95.6396 1383.00
95.7048 1283.00
95.77 1128.00
95.8352 1008.00
95.9004 1011.00
95.9656 906.00
96.0308 853.00
96.096 808.00
96.1612 720.00
96.2264 700.00
96.2916 681.00
96.3568 675.00
96.422 613.00
96.4872 649.00
96.5524 611.00
96.6176 639.00
96.6828 618.00
96.748 654.00
96.8132 631.00
96.8784 680.00
96.9436 589.00
97.0088 625.00
97.074 583.00
97.1392 591.00
97.2044 656.00
97.2696 644.00
97.3348 571.00
97.4 628.00
97.4652 633.00
97.5304 605.00
97.5956 659.00
97.6608 620.00
97.726 590.00
97.7912 633.00
97.8564 611.00
97.9216 607.00
97.9868 578.00
98.052 596.00
98.1172 592.00
98.1824 597.00
98.2476 578.00
98.3128 616.00
98.378 614.00
98.4432 577.00
98.5084 603.00
98.5736 600.00
98.6388 628.00
98.704 597.00
98.7692 633.00
98.8344 596.00
98.8996 576.00
98.9648 557.00
99.03 573.00
99.0952 570.00
99.1604 665.00
99.2256 547.00
99.2908 608.00
99.356 602.00
99.4212 591.00
99.4864 600.00
99.5516 620.00
99.6168 640.00
99.682 619.00
99.7472 622.00
99.8124 640.00
99.8776 590.00
99.9428 620.00
100.008 570.00
100.073 614.00
100.095 635.00