File: data/xrd_creation/results/Na_30.xy
9.903433 2632.00
9.968632 2672.00
10.0338 2534.00
10.099 2611.00
10.1642 2509.00
10.2294 2450.00
10.2946 2515.00
10.3598 2487.00
10.425 2520.00
10.4902 2348.00
10.5554 2393.00
10.6206 2452.00
10.6858 2391.00
10.751 2371.00
10.8162 2242.00
10.8814 2336.00
10.9466 2297.00
11.0118 2205.00
11.077 2234.00
11.1422 2239.00
11.2074 2173.00
11.2726 2127.00
11.3378 2179.00
11.403 2199.00
11.4682 2085.00
11.5334 2097.00
11.5986 2018.00
11.6638 2119.00
11.729 1943.00
11.7942 1945.00
11.8594 2022.00
11.9246 1936.00
11.9898 1944.00
12.055 1888.00
12.1202 1880.00
12.1854 1919.00
12.2506 1830.00
12.3158 1900.00
12.381 1829.00
12.4462 1864.00
12.5114 1758.00
12.5766 1784.00
12.6418 1769.00
12.707 1665.00
12.7722 1744.00
12.8374 1732.00
12.9026 1759.00
12.9678 1694.00
13.033 1713.00
13.0982 1662.00
13.1634 1701.00
13.2286 1595.00
13.2938 1611.00
13.359 1603.00
13.4242 1663.00
13.4894 1629.00
13.5546 1624.00
13.6198 1585.00
13.685 1586.00
13.7502 1506.00
13.8154 1586.00
13.8805 1512.00
13.9457 1534.00
14.0109 1481.00
14.0761 1493.00
14.1413 1460.00
14.2065 1531.00
14.2717 1490.00
14.3369 1463.00
14.4021 1486.00
14.4673 1411.00
14.5325 1360.00
14.5977 1409.00
14.6629 1461.00
14.7281 1364.00
14.7933 1342.00
14.8585 1411.00
14.9237 1401.00
14.9889 1415.00
15.0541 1392.00
15.1193 1415.00
15.1845 1401.00
15.2497 1370.00
15.3149 1345.00
15.3801 1353.00
15.4453 1352.00
15.5105 1335.00
15.5757 1360.00
15.6409 1387.00
15.7061 1341.00
15.7713 1309.00
15.8365 1318.00
15.9017 1287.00
15.9669 1291.00
16.0321 1273.00
16.0973 1284.00
16.1625 1304.00
16.2277 1271.00
16.2929 1287.00
16.3581 1271.00
16.4233 1223.00
16.4885 1321.00
16.5537 1264.00
16.6189 1188.00
16.6841 1304.00
16.7493 1239.00
16.8145 1210.00
16.8797 1232.00
16.9449 1225.00
17.0101 1225.00
17.0753 1245.00
17.1405 1217.00
17.2057 1146.00
17.2709 1257.00
17.3361 1271.00
17.4013 1200.00
17.4665 1180.00
17.5317 1193.00
17.5969 1223.00
17.6621 1171.00
17.7273 1120.00
17.7925 1158.00
17.8577 1176.00
17.9229 1153.00
17.9881 1171.00
18.0533 1167.00
18.1185 1148.00
18.1837 1122.00
18.2489 1099.00
18.3141 1142.00
18.3793 1120.00
18.4445 1112.00
18.5097 1093.00
18.5749 1043.00
18.6401 1176.00
18.7052 1041.00
18.7704 1079.00
18.8356 1100.00
18.9008 1087.00
18.966 1066.00
19.0312 1058.00
19.0964 1017.00
19.1616 1028.00
19.2268 1053.00
19.292 1013.00
19.3572 956.00
19.4224 1046.00
19.4876 1014.00
19.5528 1035.00
19.618 947.00
19.6832 984.00
19.7484 1018.00
19.8136 1045.00
19.8788 916.00
19.944 973.00
20.0092 927.00
20.0744 1007.00
20.1396 1014.00
20.2048 966.00
20.27 971.00
20.3352 909.00
20.4004 919.00
20.4656 970.00
20.5308 938.00
20.596 998.00
20.6612 934.00
20.7264 941.00
20.7916 940.00
20.8568 853.00
20.922 971.00
20.9872 1026.00
21.0524 901.00
21.1176 901.00
21.1828 954.00
21.248 934.00
21.3132 904.00
21.3784 919.00
21.4436 864.00
21.5088 817.00
21.574 859.00
21.6392 884.00
21.7044 893.00
21.7696 905.00
21.8348 915.00
21.9 874.00
21.9652 902.00
22.0304 892.00
22.0956 916.00
22.1608 840.00
22.226 945.00
22.2912 841.00
22.3564 853.00
22.4216 877.00
22.4868 809.00
22.552 846.00
22.6172 796.00
22.6824 855.00
22.7476 803.00
22.8128 802.00
22.878 821.00
22.9432 838.00
23.0084 898.00
23.0736 778.00
23.1388 832.00
23.204 831.00
23.2692 839.00
23.3344 795.00
23.3996 827.00
23.4647 808.00
23.5299 845.00
23.5951 737.00
23.6603 759.00
23.7255 748.00
23.7907 753.00
23.8559 794.00
23.9211 793.00
23.9863 771.00
24.0515 790.00
24.1167 748.00
24.1819 752.00
24.2471 727.00
24.3123 749.00
24.3775 765.00
24.4427 781.00
24.5079 794.00
24.5731 793.00
24.6383 745.00
24.7035 760.00
24.7687 745.00
24.8339 716.00
24.8991 762.00
24.9643 699.00
25.0295 666.00
25.0947 768.00
25.1599 772.00
25.2251 695.00
25.2903 755.00
25.3555 774.00
25.4207 736.00
25.4859 743.00
25.5511 743.00
25.6163 741.00
25.6815 776.00
25.7467 785.00
25.8119 706.00
25.8771 740.00
25.9423 664.00
26.0075 716.00
26.0727 771.00
26.1379 718.00
26.2031 811.00
26.2683 810.00
26.3335 952.00
26.3987 1067.00
26.4639 1073.00
26.5291 918.00
26.5943 780.00
26.6595 727.00
26.7247 663.00
26.7899 685.00
26.8551 716.00
26.9203 727.00
26.9855 658.00
27.0507 674.00
27.1159 653.00
27.1811 691.00
27.2463 694.00
27.3115 677.00
27.3767 718.00
27.4419 726.00
27.5071 749.00
27.5723 705.00
27.6375 699.00
27.7027 703.00
27.7679 641.00
27.8331 659.00
27.8983 729.00
27.9635 683.00
28.0287 705.00
28.0939 724.00
28.1591 705.00
28.2243 776.00
28.2894 819.00
28.3546 757.00
28.4198 710.00
28.485 719.00
28.5502 701.00
28.6154 742.00
28.6806 836.00
28.7458 878.00
28.811 1071.00
28.8762 1160.00
28.9414 1041.00
29.0066 868.00
29.0718 742.00
29.137 706.00
29.2022 686.00
29.2674 687.00
29.3326 622.00
29.3978 576.00
29.463 652.00
29.5282 617.00
29.5934 636.00
29.6586 651.00
29.7238 650.00
29.789 645.00
29.8542 637.00
29.9194 619.00
29.9846 662.00
30.0498 620.00
30.115 608.00
30.1802 628.00
30.2454 641.00
30.3106 609.00
30.3758 678.00
30.441 675.00
30.5062 602.00
30.5714 617.00
30.6366 594.00
30.7018 542.00
30.767 531.00
30.8322 606.00
30.8974 609.00
30.9626 539.00
31.0278 597.00
31.093 600.00
31.1582 547.00
31.2234 543.00
31.2886 556.00
31.3538 572.00
31.419 581.00
31.4842 549.00
31.5494 615.00
31.6146 560.00
31.6798 586.00
31.745 587.00
31.8102 589.00
31.8754 598.00
31.9406 600.00
32.0058 608.00
32.071 563.00
32.1362 577.00
32.2014 559.00
32.2666 572.00
32.3318 565.00
32.397 484.00
32.4622 594.00
32.5274 526.00
32.5926 548.00
32.6578 566.00
32.723 654.00
32.7882 619.00
32.8534 562.00
32.9186 620.00
32.9838 570.00
33.0489 580.00
33.1141 562.00
33.1793 542.00
33.2445 537.00
33.3097 580.00
33.3749 641.00
33.4401 680.00
33.5053 673.00
33.5705 734.00
33.6357 786.00
33.7009 830.00
33.7661 783.00
33.8313 618.00
33.8965 620.00
33.9617 531.00
34.0269 526.00
34.0921 502.00
34.1573 504.00
34.2225 469.00
34.2877 493.00
34.3529 524.00
34.4181 507.00
34.4833 465.00
34.5485 488.00
34.6137 530.00
34.6789 527.00
34.7441 432.00
34.8093 486.00
34.8745 450.00
34.9397 494.00
35.0049 475.00
35.0701 466.00
35.1353 492.00
35.2005 458.00
35.2657 496.00
35.3309 495.00
35.3961 458.00
35.4613 499.00
35.5265 460.00
35.5917 435.00
35.6569 470.00
35.7221 444.00
35.7873 448.00
35.8525 470.00
35.9177 474.00
35.9829 472.00
36.0481 456.00
36.1133 435.00
36.1785 447.00
36.2437 414.00
36.3089 440.00
36.3741 429.00
36.4393 443.00
36.5045 429.00
36.5697 473.00
36.6349 488.00
36.7001 439.00
36.7653 430.00
36.8305 408.00
36.8957 449.00
36.9609 446.00
37.0261 442.00
37.0913 463.00
37.1565 402.00
37.2217 434.00
37.2869 419.00
37.3521 423.00
37.4173 435.00
37.4825 396.00
37.5477 450.00
37.6129 426.00
37.6781 462.00
37.7433 525.00
37.8085 497.00
37.8736 474.00
37.9388 465.00
38.004 408.00
38.0692 380.00
38.1344 396.00
38.1996 401.00
38.2648 428.00
38.33 417.00
38.3952 379.00
38.4604 436.00
38.5256 398.00
38.5908 413.00
38.656 384.00
38.7212 456.00
38.7864 422.00
38.8516 404.00
38.9168 431.00
38.982 399.00
39.0472 369.00
39.1124 389.00
39.1776 398.00
39.2428 389.00
39.308 373.00
39.3732 431.00
39.4384 408.00
39.5036 387.00
39.5688 374.00
39.634 409.00
39.6992 408.00
39.7644 407.00
39.8296 364.00
39.8948 343.00
39.96 417.00
40.0252 350.00
40.0904 396.00
40.1556 313.00
40.2208 433.00
40.286 381.00
40.3512 378.00
40.4164 378.00
40.4816 341.00
40.5468 422.00
40.612 370.00
40.6772 348.00
40.7424 384.00
40.8076 343.00
40.8728 400.00
40.938 398.00
41.0032 363.00
41.0684 366.00
41.1336 366.00
41.1988 392.00
41.264 372.00
41.3292 362.00
41.3944 360.00
41.4596 364.00
41.5248 363.00
41.59 382.00
41.6552 415.00
41.7204 334.00
41.7856 352.00
41.8508 390.00
41.916 363.00
41.9812 369.00
42.0464 363.00
42.1116 348.00
42.1768 357.00
42.242 353.00
42.3072 356.00
42.3724 366.00
42.4376 358.00
42.5028 358.00
42.568 377.00
42.6332 359.00
42.6983 325.00
42.7635 419.00
42.8287 367.00
42.8939 347.00
42.9591 367.00
43.0243 393.00
43.0895 344.00
43.1547 320.00
43.2199 358.00
43.2851 353.00
43.3503 411.00
43.4155 348.00
43.4807 382.00
43.5459 369.00
43.6111 380.00
43.6763 333.00
43.7415 372.00
43.8067 337.00
43.8719 350.00
43.9371 315.00
44.0023 355.00
44.0675 369.00
44.1327 326.00
44.1979 312.00
44.2631 317.00
44.3283 338.00
44.3935 335.00
44.4587 330.00
44.5239 365.00
44.5891 347.00
44.6543 363.00
44.7195 318.00
44.7847 347.00
44.8499 350.00
44.9151 357.00
44.9803 293.00
45.0455 346.00
45.1107 311.00
45.1759 335.00
45.2411 339.00
45.3063 320.00
45.3715 318.00
45.4367 341.00
45.5019 343.00
45.5671 346.00
45.6323 355.00
45.6975 330.00
45.7627 342.00
45.8279 319.00
45.8931 331.00
45.9583 323.00
46.0235 322.00
46.0887 288.00
46.1539 334.00
46.2191 313.00
46.2843 310.00
46.3495 315.00
46.4147 311.00
46.4799 324.00
46.5451 308.00
46.6103 303.00
46.6755 297.00
46.7407 348.00
46.8059 311.00
46.8711 325.00
46.9363 339.00
47.0015 317.00
47.0667 315.00
47.1319 324.00
47.1971 341.00
47.2623 325.00
47.3275 322.00
47.3927 337.00
47.4579 293.00
47.523 331.00
47.5882 312.00
47.6534 299.00
47.7186 283.00
47.7838 298.00
47.849 362.00
47.9142 317.00
47.9794 346.00
48.0446 372.00
48.1098 427.00
48.175 411.00
48.2402 430.00
48.3054 369.00
48.3706 361.00
48.4358 335.00
48.501 311.00
48.5662 328.00
48.6314 320.00
48.6966 311.00
48.7618 317.00
48.827 330.00
48.8922 305.00
48.9574 313.00
49.0226 320.00
49.0878 336.00
49.153 284.00
49.2182 291.00
49.2834 336.00
49.3486 324.00
49.4138 304.00
49.479 310.00
49.5442 280.00
49.6094 311.00
49.6746 313.00
49.7398 290.00
49.805 317.00
49.8702 317.00
49.9354 279.00
50.0006 331.00
50.0658 325.00
50.131 265.00
50.1962 274.00
50.2614 287.00
50.3266 327.00
50.3918 302.00
50.457 305.00
50.5222 291.00
50.5874 300.00
50.6526 299.00
50.7178 275.00
50.783 299.00
50.8482 342.00
50.9134 290.00
50.9786 344.00
51.0438 291.00
51.109 285.00
51.1742 339.00
51.2394 301.00
51.3046 296.00
51.3698 299.00
51.435 317.00
51.5002 345.00
51.5654 409.00
51.6306 470.00
51.6958 413.00
51.761 440.00
51.8262 346.00
51.8914 313.00
51.9566 288.00
52.0218 306.00
52.087 300.00
52.1522 295.00
52.2174 291.00
52.2826 314.00
52.3477 306.00
52.4129 308.00
52.4781 299.00
52.5433 311.00
52.6085 276.00
52.6737 292.00
52.7389 291.00
52.8041 285.00
52.8693 300.00
52.9345 263.00
52.9997 288.00
53.0649 277.00
53.1301 269.00
53.1953 247.00
53.2605 271.00
53.3257 285.00
53.3909 279.00
53.4561 273.00
53.5213 273.00
53.5865 272.00
53.6517 271.00
53.7169 282.00
53.7821 302.00
53.8473 285.00
53.9125 295.00
53.9777 258.00
54.0429 272.00
54.1081 265.00
54.1733 316.00
54.2385 276.00
54.3037 305.00
54.3689 284.00
54.4341 285.00
54.4993 291.00
54.5645 298.00
54.6297 314.00
54.6949 323.00
54.7601 284.00
54.8253 299.00
54.8905 267.00
54.9557 273.00
55.0209 259.00
55.0861 271.00
55.1513 243.00
55.2165 245.00
55.2817 261.00
55.3469 249.00
55.4121 285.00
55.4773 262.00
55.5425 272.00
55.6077 285.00
55.6729 271.00
55.7381 265.00
55.8033 257.00
55.8685 256.00
55.9337 248.00
55.9989 271.00
56.0641 263.00
56.1293 228.00
56.1945 257.00
56.2597 275.00
56.3249 266.00
56.3901 238.00
56.4553 269.00
56.5205 288.00
56.5857 241.00
56.6509 233.00
56.7161 244.00
56.7813 267.00
56.8465 243.00
56.9117 274.00
56.9769 269.00
57.042 270.00
57.1073 329.00
57.1724 352.00
57.2376 342.00
57.3028 336.00
57.368 314.00
57.4332 295.00
57.4984 263.00
57.5636 271.00
57.6288 271.00
57.694 246.00
57.7592 282.00
57.8244 258.00
57.8896 264.00
57.9548 235.00
58.02 215.00
58.0852 235.00
58.1504 235.00
58.2156 210.00
58.2808 225.00
58.346 267.00
58.4112 231.00
58.4764 234.00
58.5416 210.00
58.6068 239.00
58.672 216.00
58.7372 225.00
58.8024 228.00
58.8676 186.00
58.9328 231.00
58.998 229.00
59.0632 218.00
59.1284 256.00
59.1936 215.00
59.2588 239.00
59.324 246.00
59.3892 218.00
59.4544 268.00
59.5196 217.00
59.5848 231.00
59.65 227.00
59.7152 216.00
59.7804 222.00
59.8456 276.00
59.9108 274.00
59.976 232.00
60.0412 221.00
60.1064 272.00
60.1716 273.00
60.2368 231.00
60.302 215.00
60.3672 229.00
60.4324 246.00
60.4976 205.00
60.5628 238.00
60.628 225.00
60.6932 234.00
60.7584 207.00
60.8236 194.00
60.8888 206.00
60.954 225.00
61.0192 257.00
61.0844 226.00
61.1496 219.00
61.2148 227.00
61.28 235.00
61.3452 224.00
61.4104 243.00
61.4756 237.00
61.5408 220.00
61.606 229.00
61.6712 222.00
61.7364 272.00
61.8016 258.00
61.8667 235.00
61.932 225.00
61.9971 199.00
62.0623 242.00
62.1275 275.00
62.1927 258.00
62.2579 245.00
62.3231 196.00
62.3883 230.00
62.4535 243.00
62.5187 221.00
62.5839 205.00
62.6491 202.00
62.7143 220.00
62.7795 216.00
62.8447 226.00
62.9099 216.00
62.9751 216.00
63.0403 189.00
63.1055 218.00
63.1707 211.00
63.2359 232.00
63.3011 203.00
63.3663 240.00
63.4315 225.00
63.4967 214.00
63.5619 228.00
63.6271 213.00
63.6923 191.00
63.7575 227.00
63.8227 200.00
63.8879 227.00
63.9531 211.00
64.0183 212.00
64.0835 242.00
64.1487 180.00
64.2139 222.00
64.2791 209.00
64.3443 223.00
64.4095 222.00
64.4747 206.00
64.5399 235.00
64.6051 257.00
64.6703 205.00
64.7355 231.00
64.8007 215.00
64.8659 207.00
64.9311 213.00
64.9963 200.00
65.0615 195.00
65.1267 202.00
65.1919 218.00
65.2571 202.00
65.3223 210.00
65.3875 189.00
65.4527 225.00
65.5179 214.00
65.5831 231.00
65.6483 209.00
65.7135 226.00
65.7787 245.00
65.8439 232.00
65.9091 229.00
65.9743 248.00
66.0395 226.00
66.1047 181.00
66.1699 223.00
66.2351 195.00
66.3003 200.00
66.3655 184.00
66.4307 220.00
66.4959 190.00
66.561 215.00
66.6263 210.00
66.6915 218.00
66.7566 231.00
66.8218 171.00
66.887 209.00
66.9522 211.00
67.0174 201.00
67.0826 219.00
67.1478 201.00
67.213 191.00
67.2782 224.00
67.3434 195.00
67.4086 215.00
67.4738 238.00
67.539 209.00
67.6042 187.00
67.6694 207.00
67.7346 218.00
67.7998 212.00
67.865 227.00
67.9302 211.00
67.9954 219.00
68.0606 204.00
68.1258 200.00
68.191 214.00
68.2562 207.00
68.3214 197.00
68.3866 203.00
68.4518 201.00
68.517 213.00
68.5822 193.00
68.6474 212.00
68.7126 201.00
68.7778 193.00
68.843 189.00
68.9082 204.00
68.9734 224.00
69.0386 205.00
69.1038 197.00
69.169 235.00
69.2342 211.00
69.2994 205.00
69.3646 187.00
69.4298 191.00
69.495 178.00
69.5602 223.00
69.6254 181.00
69.6906 215.00
69.7558 195.00
69.821 194.00
69.8862 196.00
69.9514 213.00
70.0166 204.00
70.0818 192.00
70.147 201.00
70.2122 197.00
70.2774 209.00
70.3426 197.00
70.4078 180.00
70.473 230.00
70.5382 219.00
70.6034 220.00
70.6686 236.00
70.7338 242.00
70.799 190.00
70.8642 238.00
70.9294 208.00
70.9946 218.00
71.0598 193.00
71.125 222.00
71.1902 184.00
71.2554 216.00
71.3205 224.00
71.3858 226.00
71.451 230.00
71.5162 209.00
71.5813 214.00
71.6465 197.00
71.7117 191.00
71.7769 196.00
71.8421 194.00
71.9073 197.00
71.9725 224.00
72.0377 175.00
72.1029 197.00
72.1681 222.00
72.2333 216.00
72.2985 209.00
72.3637 206.00
72.4289 204.00
72.4941 202.00
72.5593 244.00
72.6245 168.00
72.6897 226.00
72.7549 200.00
72.8201 195.00
72.8853 206.00
72.9505 189.00
73.0157 214.00
73.0809 224.00
73.1461 230.00
73.2113 206.00
73.2765 184.00
73.3417 218.00
73.4069 235.00
73.4721 203.00
73.5373 192.00
73.6025 227.00
73.6677 210.00
73.7329 193.00
73.7981 227.00
73.8633 220.00
73.9285 221.00
73.9937 214.00
74.0589 204.00
74.1241 209.00
74.1893 221.00
74.2545 240.00
74.3197 219.00
74.3849 257.00
74.4501 238.00
74.5153 228.00
74.5805 222.00
74.6457 214.00
74.7109 190.00
74.7761 209.00
74.8413 214.00
74.9065 219.00
74.9717 195.00
75.0369 233.00
75.1021 234.00
75.1673 200.00
75.2325 222.00
75.2977 209.00
75.3629 239.00
75.4281 192.00
75.4933 230.00
75.5585 234.00
75.6237 233.00
75.6889 195.00
75.7541 235.00
75.8193 223.00
75.8845 215.00
75.9497 205.00
76.0149 210.00
76.0801 226.00
76.1452 202.00
76.2104 217.00
76.2756 269.00
76.3409 204.00
76.406 258.00
76.4712 223.00
76.5364 219.00
76.6016 194.00
76.6668 226.00
76.732 208.00
76.7972 214.00
76.8624 235.00
76.9276 206.00
76.9928 226.00
77.058 276.00
77.1232 223.00
77.1884 236.00
77.2536 215.00
77.3188 243.00
77.384 210.00
77.4492 232.00
77.5144 245.00
77.5796 229.00
77.6448 269.00
77.71 232.00
77.7752 227.00
77.8404 220.00
77.9056 237.00
77.9708 264.00
78.036 270.00
78.1012 244.00
78.1664 256.00
78.2316 237.00
78.2968 234.00
78.362 231.00
78.4272 245.00
78.4924 263.00
78.5576 268.00
78.6228 261.00
78.688 272.00
78.7532 247.00
78.8184 250.00
78.8836 266.00
78.9488 217.00
79.014 259.00
79.0792 248.00
79.1444 239.00
79.2096 238.00
79.2748 247.00
79.34 247.00
79.4052 267.00
79.4704 247.00
79.5356 239.00
79.6008 222.00
79.666 241.00
79.7312 223.00
79.7964 250.00
79.8616 227.00
79.9268 218.00
79.992 283.00
80.0572 240.00
80.1224 231.00
80.1876 234.00
80.2528 248.00
80.318 248.00
80.3832 257.00
80.4484 249.00
80.5136 258.00
80.5788 256.00
80.644 247.00
80.7092 233.00
80.7744 268.00
80.8396 234.00
80.9048 247.00
80.9699 268.00
81.0351 244.00
81.1003 261.00
81.1655 257.00
81.2307 229.00
81.2959 241.00
81.3611 210.00
81.4263 283.00
81.4915 281.00
81.5567 239.00
81.6219 244.00
81.6871 212.00
81.7523 223.00
81.8175 205.00
81.8827 246.00
81.9479 224.00
82.0131 234.00
82.0783 248.00
82.1435 225.00
82.2087 257.00
82.2739 246.00
82.3391 232.00
82.4043 257.00
82.4695 229.00
82.5347 198.00
82.5999 231.00
82.6651 203.00
82.7303 234.00
82.7955 241.00
82.8607 240.00
82.9259 240.00
82.9911 238.00
83.0563 239.00
83.1215 212.00
83.1867 228.00
83.2519 223.00
83.3171 218.00
83.3823 228.00
83.4475 207.00
83.5127 247.00
83.5779 245.00
83.6431 238.00
83.7083 218.00
83.7735 256.00
83.8387 231.00
83.9039 224.00
83.9691 268.00
84.0343 212.00
84.0995 212.00
84.1647 245.00
84.2299 235.00
84.2951 220.00
84.3603 238.00
84.4255 267.00
84.4907 220.00
84.5559 198.00
84.6211 217.00
84.6863 213.00
84.7515 226.00
84.8167 220.00
84.8819 238.00
84.9471 229.00
85.0123 202.00
85.0775 207.00
85.1427 195.00
85.2079 199.00
85.2731 189.00
85.3383 206.00
85.4035 208.00
85.4687 222.00
85.5339 201.00
85.5991 230.00
85.6643 209.00
85.7295 219.00
85.7946 220.00
85.8598 218.00
85.925 189.00
85.9903 200.00
86.0554 212.00
86.1206 210.00
86.1858 210.00
86.251 195.00
86.3162 225.00
86.3814 206.00
86.4466 185.00
86.5118 227.00
86.577 213.00
86.6422 203.00
86.7074 212.00
86.7726 224.00
86.8378 211.00
86.903 214.00
86.9682 211.00
87.0334 208.00
87.0986 198.00
87.1638 239.00
87.229 195.00
87.2942 188.00
87.3594 209.00
87.4246 191.00
87.4898 185.00
87.555 178.00
87.6202 204.00
87.6854 207.00
87.7506 185.00
87.8158 200.00
87.881 200.00
87.9462 201.00
88.0114 213.00
88.0766 189.00
88.1418 210.00
88.207 191.00
88.2722 195.00
88.3374 200.00
88.4026 186.00
88.4678 180.00
88.533 223.00
88.5982 204.00
88.6634 179.00
88.7286 197.00
88.7938 200.00
88.859 199.00
88.9242 210.00
88.9894 197.00
89.0546 177.00
89.1198 196.00
89.185 196.00
89.2502 186.00
89.3154 191.00
89.3806 224.00
89.4458 200.00
89.511 194.00
89.5762 199.00
89.6414 212.00
89.7066 231.00
89.7718 204.00
89.837 184.00
89.9022 211.00
89.9674 225.00
90.0326 205.00
90.0978 203.00
90.163 187.00
90.2282 213.00
90.2934 186.00
90.3586 213.00
90.4238 192.00
90.489 227.00
90.5542 197.00
90.6193 195.00
90.6845 213.00
90.7497 222.00
90.8149 215.00
90.8801 210.00
90.9453 212.00
91.0105 170.00
91.0757 200.00
91.1409 210.00
91.2061 223.00
91.2713 192.00
91.3365 182.00
91.4017 183.00
91.4669 184.00
91.5321 210.00
91.5973 188.00
91.6625 193.00
91.7277 177.00
91.7929 201.00
91.8581 185.00
91.9233 177.00
91.9885 198.00
92.0537 182.00
92.1189 194.00
92.1841 189.00
92.2493 190.00
92.3145 172.00
92.3797 199.00
92.4449 172.00
92.5101 178.00
92.5753 183.00
92.6405 205.00
92.7057 192.00
92.7709 202.00
92.8361 198.00
92.9013 175.00
92.9665 186.00
93.0317 195.00
93.0969 216.00
93.1621 203.00
93.2273 183.00
93.2925 193.00
93.3577 170.00
93.4229 188.00
93.4881 185.00
93.5533 194.00
93.6185 190.00
93.6837 210.00
93.7489 193.00
93.8141 199.00
93.8793 190.00
93.9445 197.00
94.0097 205.00
94.0749 188.00
94.1401 185.00
94.2053 215.00
94.2705 194.00
94.3357 193.00
94.4009 178.00
94.4661 170.00
94.5313 182.00
94.5965 191.00
94.6617 220.00
94.7269 188.00
94.7921 168.00
94.8573 217.00
94.9225 199.00
94.9877 184.00
95.0529 165.00
95.1181 200.00
95.1833 191.00
95.2485 209.00
95.3137 203.00
95.3789 189.00
95.444 193.00
95.5092 190.00
95.5744 176.00
95.6396 186.00
95.7048 168.00
95.77 173.00
95.8352 218.00
95.9004 201.00
95.9656 220.00
96.0308 178.00
96.096 201.00
96.1612 191.00
96.2264 191.00
96.2916 193.00
96.3568 189.00
96.422 169.00
96.4872 187.00
96.5524 194.00
96.6176 206.00
96.6828 202.00
96.748 198.00
96.8132 181.00
96.8784 173.00
96.9436 173.00
97.0088 203.00
97.074 203.00
97.1392 188.00
97.2044 193.00
97.2696 215.00
97.3348 198.00
97.4 200.00
97.4652 210.00
97.5304 225.00
97.5956 193.00
97.6608 230.00
97.726 202.00
97.7912 164.00
97.8564 203.00
97.9216 212.00
97.9868 185.00
98.052 191.00
98.1172 154.00
98.1824 180.00
98.2476 194.00
98.3128 198.00
98.378 178.00
98.4432 207.00
98.5084 186.00
98.5736 176.00
98.6388 194.00
98.704 192.00
98.7692 190.00
98.8344 174.00
98.8996 183.00
98.9648 187.00
99.03 193.00
99.0952 177.00
99.1604 178.00
99.2256 199.00
99.2908 153.00
99.356 161.00
99.4212 211.00
99.4864 187.00
99.5516 151.00
99.6168 196.00
99.682 162.00
99.7472 179.00
99.8124 198.00
99.8776 188.00
99.9428 176.00
100.008 186.00
100.073 215.00
100.095 213.00