File: data/xrd_creation/results/Na_34.xy
9.903433 3285.00
9.968632 3324.00
10.0338 3257.00
10.099 3203.00
10.1642 3275.00
10.2294 3155.00
10.2946 3110.00
10.3598 3189.00
10.425 3268.00
10.4902 3166.00
10.5554 3123.00
10.6206 2965.00
10.6858 2967.00
10.751 3110.00
10.8162 2965.00
10.8814 2994.00
10.9466 2913.00
11.0118 2914.00
11.077 2876.00
11.1422 2902.00
11.2074 2868.00
11.2726 2866.00
11.3378 2811.00
11.403 2833.00
11.4682 2715.00
11.5334 2843.00
11.5986 2847.00
11.6638 2778.00
11.729 2681.00
11.7942 2837.00
11.8594 2791.00
11.9246 2658.00
11.9898 2759.00
12.055 2732.00
12.1202 2721.00
12.1854 2713.00
12.2506 2643.00
12.3158 2675.00
12.381 2705.00
12.4462 2589.00
12.5114 2556.00
12.5766 2552.00
12.6418 2642.00
12.707 2537.00
12.7722 2699.00
12.8374 2520.00
12.9026 2466.00
12.9678 2501.00
13.033 2531.00
13.0982 2574.00
13.1634 2607.00
13.2286 2512.00
13.2938 2506.00
13.359 2519.00
13.4242 2433.00
13.4894 2514.00
13.5546 2495.00
13.6198 2472.00
13.685 2417.00
13.7502 2367.00
13.8154 2528.00
13.8805 2388.00
13.9457 2425.00
14.0109 2482.00
14.0761 2450.00
14.1413 2388.00
14.2065 2438.00
14.2717 2406.00
14.3369 2433.00
14.4021 2359.00
14.4673 2452.00
14.5325 2507.00
14.5977 2386.00
14.6629 2267.00
14.7281 2374.00
14.7933 2286.00
14.8585 2257.00
14.9237 2257.00
14.9889 2342.00
15.0541 2315.00
15.1193 2340.00
15.1845 2251.00
15.2497 2380.00
15.3149 2282.00
15.3801 2297.00
15.4453 2279.00
15.5105 2355.00
15.5757 2275.00
15.6409 2277.00
15.7061 2297.00
15.7713 2321.00
15.8365 2253.00
15.9017 2301.00
15.9669 2262.00
16.0321 2231.00
16.0973 2273.00
16.1625 2202.00
16.2277 2166.00
16.2929 2226.00
16.3581 2215.00
16.4233 2264.00
16.4885 2258.00
16.5537 2198.00
16.6189 2185.00
16.6841 2233.00
16.7493 2186.00
16.8145 2234.00
16.8797 2224.00
16.9449 2240.00
17.0101 2195.00
17.0753 2281.00
17.1405 2089.00
17.2057 2185.00
17.2709 2166.00
17.3361 2232.00
17.4013 2141.00
17.4665 2031.00
17.5317 2170.00
17.5969 2172.00
17.6621 2254.00
17.7273 2088.00
17.7925 2100.00
17.8577 2110.00
17.9229 2088.00
17.9881 2188.00
18.0533 2103.00
18.1185 2125.00
18.1837 2172.00
18.2489 2235.00
18.3141 2147.00
18.3793 2218.00
18.4445 2100.00
18.5097 2109.00
18.5749 2006.00
18.6401 2123.00
18.7052 2082.00
18.7704 2097.00
18.8356 2005.00
18.9008 2146.00
18.966 2032.00
19.0312 2055.00
19.0964 2033.00
19.1616 1959.00
19.2268 1989.00
19.292 2027.00
19.3572 1988.00
19.4224 1967.00
19.4876 1969.00
19.5528 1980.00
19.618 2005.00
19.6832 1959.00
19.7484 1969.00
19.8136 2103.00
19.8788 2019.00
19.944 2081.00
20.0092 2149.00
20.0744 1992.00
20.1396 1938.00
20.2048 1958.00
20.27 1968.00
20.3352 1924.00
20.4004 2010.00
20.4656 1945.00
20.5308 1895.00
20.596 2001.00
20.6612 2002.00
20.7264 1963.00
20.7916 2013.00
20.8568 1898.00
20.922 2005.00
20.9872 1989.00
21.0524 1866.00
21.1176 1966.00
21.1828 1921.00
21.248 1950.00
21.3132 1952.00
21.3784 1935.00
21.4436 1990.00
21.5088 1914.00
21.574 1993.00
21.6392 2062.00
21.7044 1987.00
21.7696 1938.00
21.8348 1931.00
21.9 2003.00
21.9652 1908.00
22.0304 1975.00
22.0956 1989.00
22.1608 1908.00
22.226 1977.00
22.2912 1981.00
22.3564 2084.00
22.4216 2028.00
22.4868 2030.00
22.552 2074.00
22.6172 2056.00
22.6824 2026.00
22.7476 2138.00
22.8128 2150.00
22.878 2270.00
22.9432 2370.00
23.0084 2376.00
23.0736 2511.00
23.1388 2268.00
23.204 2184.00
23.2692 2118.00
23.3344 2146.00
23.3996 2193.00
23.4647 2273.00
23.5299 2365.00
23.5951 2384.00
23.6603 2431.00
23.7255 2742.00
23.7907 2886.00
23.8559 2857.00
23.9211 2779.00
23.9863 2488.00
24.0515 2378.00
24.1167 2388.00
24.1819 2425.00
24.2471 2635.00
24.3123 2504.00
24.3775 2490.00
24.4427 2563.00
24.5079 2600.00
24.5731 2780.00
24.6383 2737.00
24.7035 2783.00
24.7687 2748.00
24.8339 2788.00
24.8991 3032.00
24.9643 2918.00
25.0295 3070.00
25.0947 3109.00
25.1599 3257.00
25.2251 3227.00
25.2903 3235.00
25.3555 3297.00
25.4207 3435.00
25.4859 3483.00
25.5511 3534.00
25.6163 3563.00
25.6815 3639.00
25.7467 3746.00
25.8119 3822.00
25.8771 3773.00
25.9423 3949.00
26.0075 4151.00
26.0727 4231.00
26.1379 4549.00
26.2031 4913.00
26.2683 5154.00
26.3335 5075.00
26.3987 4301.00
26.4639 3593.00
26.5291 3214.00
26.5943 3084.00
26.6595 2946.00
26.7247 2845.00
26.7899 2748.00
26.8551 2617.00
26.9203 2558.00
26.9855 2425.00
27.0507 2490.00
27.1159 2456.00
27.1811 2334.00
27.2463 2368.00
27.3115 2226.00
27.3767 2248.00
27.4419 2269.00
27.5071 2438.00
27.5723 2621.00
27.6375 2925.00
27.7027 3307.00
27.7679 3913.00
27.8331 4607.00
27.8983 4658.00
27.9635 3721.00
28.0287 2706.00
28.0939 2151.00
28.1591 1929.00
28.2243 1890.00
28.2894 1721.00
28.3546 1764.00
28.4198 1777.00
28.485 1728.00
28.5502 1705.00
28.6154 1791.00
28.6806 1690.00
28.7458 1693.00
28.811 1689.00
28.8762 1686.00
28.9414 1789.00
29.0066 1741.00
29.0718 1839.00
29.137 1884.00
29.2022 2074.00
29.2674 2083.00
29.3326 2020.00
29.3978 1914.00
29.463 1816.00
29.5282 1806.00
29.5934 1769.00
29.6586 1776.00
29.7238 1801.00
29.789 1930.00
29.8542 2005.00
29.9194 2334.00
29.9846 2896.00
30.0498 3739.00
30.115 4994.00
30.1802 6770.00
30.2454 9196.00
30.3106 12166.00
30.3758 14626.00
30.441 12527.00
30.5062 7050.00
30.5714 3499.00
30.6366 2693.00
30.7018 2429.00
30.767 2116.00
30.8322 1957.00
30.8974 1916.00
30.9626 1830.00
31.0278 1845.00
31.093 1890.00
31.1582 1955.00
31.2234 1875.00
31.2886 1838.00
31.3538 1928.00
31.419 1839.00
31.4842 1876.00
31.5494 1816.00
31.6146 1948.00
31.6798 1889.00
31.745 1943.00
31.8102 1865.00
31.8754 1810.00
31.9406 1876.00
32.0058 1849.00
32.071 1848.00
32.1362 1821.00
32.2014 1768.00
32.2666 1767.00
32.3318 1678.00
32.397 1635.00
32.4622 1644.00
32.5274 1687.00
32.5926 1686.00
32.6578 1692.00
32.723 1643.00
32.7882 1677.00
32.8534 1816.00
32.9186 1854.00
32.9838 2110.00
33.0489 2638.00
33.1141 3003.00
33.1793 3599.00
33.2445 4104.00
33.3097 4047.00
33.3749 3476.00
33.4401 2448.00
33.5053 1988.00
33.5705 1699.00
33.6357 1620.00
33.7009 1733.00
33.7661 1781.00
33.8313 1824.00
33.8965 1945.00
33.9617 2079.00
34.0269 2412.00
34.0921 2807.00
34.1573 3132.00
34.2225 3641.00
34.2877 4438.00
34.3529 5548.00
34.4181 6812.00
34.4833 7178.00
34.5485 6121.00
34.6137 5695.00
34.6789 6467.00
34.7441 7215.00
34.8093 6424.00
34.8745 4513.00
34.9397 3239.00
35.0049 2532.00
35.0701 2656.00
35.1353 3237.00
35.2005 4245.00
35.2657 5258.00
35.3309 6840.00
35.3961 8833.00
35.4613 10468.00
35.5265 9856.00
35.5917 5797.00
35.6569 3251.00
35.7221 1920.00
35.7873 1771.00
35.8525 1694.00
35.9177 1668.00
35.9829 1564.00
36.0481 1610.00
36.1133 1632.00
36.1785 1477.00
36.2437 1539.00
36.3089 1383.00
36.3741 1374.00
36.4393 1370.00
36.5045 1416.00
36.5697 1388.00
36.6349 1479.00
36.7001 1493.00
36.7653 1689.00
36.8305 1789.00
36.8957 1708.00
36.9609 1828.00
37.0261 1841.00
37.0913 1883.00
37.1565 1910.00
37.2217 1784.00
37.2869 1616.00
37.3521 1605.00
37.4173 1674.00
37.4825 1698.00
37.5477 1824.00
37.6129 2030.00
37.6781 2320.00
37.7433 2736.00
37.8085 3137.00
37.8736 3938.00
37.9388 5136.00
38.004 6958.00
38.0692 8931.00
38.1344 11793.00
38.1996 14740.00
38.2648 15276.00
38.33 11398.00
38.3952 7327.00
38.4604 3978.00
38.5256 2718.00
38.5908 2395.00
38.656 2293.00
38.7212 2300.00
38.7864 2248.00
38.8516 2096.00
38.9168 1886.00
38.982 1575.00
39.0472 1513.00
39.1124 1544.00
39.1776 1498.00
39.2428 1451.00
39.308 1405.00
39.3732 1528.00
39.4384 1492.00
39.5036 1494.00
39.5688 1533.00
39.634 1576.00
39.6992 1681.00
39.7644 1979.00
39.8296 2542.00
39.8948 3273.00
39.96 4316.00
40.0252 5458.00
40.0904 6851.00
40.1556 8485.00
40.2208 8703.00
40.286 6382.00
40.3512 4288.00
40.4164 2397.00
40.4816 1802.00
40.5468 1540.00
40.612 1480.00
40.6772 1449.00
40.7424 1478.00
40.8076 1446.00
40.8728 1570.00
40.938 1680.00
41.0032 1996.00
41.0684 2481.00
41.1336 3079.00
41.1988 3716.00
41.264 4509.00
41.3292 5798.00
41.3944 6244.00
41.4596 5407.00
41.5248 5226.00
41.59 5257.00
41.6552 6086.00
41.7204 6526.00
41.7856 5446.00
41.8508 3810.00
41.916 2412.00
41.9812 1715.00
42.0464 1689.00
42.1116 1589.00
42.1768 1603.00
42.242 1640.00
42.3072 1613.00
42.3724 1635.00
42.4376 1780.00
42.5028 1903.00
42.568 1945.00
42.6332 2078.00
42.6983 2114.00
42.7635 1928.00
42.8287 1920.00
42.8939 1934.00
42.9591 1741.00
43.0243 1767.00
43.0895 1667.00
43.1547 1746.00
43.2199 1620.00
43.2851 1730.00
43.3503 1624.00
43.4155 1680.00
43.4807 1621.00
43.5459 1572.00
43.6111 1558.00
43.6763 1514.00
43.7415 1508.00
43.8067 1449.00
43.8719 1488.00
43.9371 1504.00
44.0023 1459.00
44.0675 1557.00
44.1327 1550.00
44.1979 1530.00
44.2631 1590.00
44.3283 1581.00
44.3935 1795.00
44.4587 1993.00
44.5239 2223.00
44.5891 2371.00
44.6543 2720.00
44.7195 2930.00
44.7847 2836.00
44.8499 2397.00
44.9151 1963.00
44.9803 1581.00
45.0455 1395.00
45.1107 1381.00
45.1759 1365.00
45.2411 1303.00
45.3063 1292.00
45.3715 1342.00
45.4367 1264.00
45.5019 1333.00
45.5671 1318.00
45.6323 1258.00
45.6975 1228.00
45.7627 1273.00
45.8279 1258.00
45.8931 1209.00
45.9583 1240.00
46.0235 1264.00
46.0887 1286.00
46.1539 1385.00
46.2191 1410.00
46.2843 1601.00
46.3495 1974.00
46.4147 2417.00
46.4799 2858.00
46.5451 3445.00
46.6103 3809.00
46.6755 4110.00
46.7407 4330.00
46.8059 4048.00
46.8711 2908.00
46.9363 2384.00
47.0015 1670.00
47.0667 1665.00
47.1319 1805.00
47.1971 1866.00
47.2623 2009.00
47.3275 1984.00
47.3927 1719.00
47.4579 1451.00
47.523 1204.00
47.5882 1141.00
47.6534 1242.00
47.7186 1112.00
47.7838 1200.00
47.849 1187.00
47.9142 1216.00
47.9794 1290.00
48.0446 1463.00
48.1098 1736.00
48.175 2224.00
48.2402 2693.00
48.3054 3212.00
48.3706 3766.00
48.4358 4421.00
48.501 4709.00
48.5662 3666.00
48.6314 2804.00
48.6966 1902.00
48.7618 1355.00
48.827 1298.00
48.8922 1139.00
48.9574 1128.00
49.0226 1127.00
49.0878 1105.00
49.153 1059.00
49.2182 1150.00
49.2834 1115.00
49.3486 1212.00
49.4138 1292.00
49.479 1359.00
49.5442 1307.00
49.6094 1281.00
49.6746 1179.00
49.7398 1090.00
49.805 1051.00
49.8702 1025.00
49.9354 983.00
50.0006 999.00
50.0658 1002.00
50.131 984.00
50.1962 959.00
50.2614 1025.00
50.3266 961.00
50.3918 998.00
50.457 1024.00
50.5222 1086.00
50.5874 1131.00
50.6526 1107.00
50.7178 1128.00
50.783 1168.00
50.8482 1261.00
50.9134 1350.00
50.9786 1429.00
51.0438 1416.00
51.109 1284.00
51.1742 1218.00
51.2394 1227.00
51.3046 1163.00
51.3698 1148.00
51.435 1087.00
51.5002 1092.00
51.5654 1017.00
51.6306 982.00
51.6958 1023.00
51.761 1010.00
51.8262 969.00
51.8914 913.00
51.9566 1006.00
52.0218 979.00
52.087 950.00
52.1522 912.00
52.2174 995.00
52.2826 959.00
52.3477 1055.00
52.4129 1006.00
52.4781 1065.00
52.5433 1092.00
52.6085 1085.00
52.6737 1097.00
52.7389 1186.00
52.8041 1231.00
52.8693 1200.00
52.9345 1086.00
52.9997 1097.00
53.0649 1083.00
53.1301 1071.00
53.1953 1186.00
53.2605 1176.00
53.3257 1354.00
53.3909 1475.00
53.4561 1775.00
53.5213 1897.00
53.5865 2339.00
53.6517 2652.00
53.7169 2742.00
53.7821 2940.00
53.8473 2770.00
53.9125 2142.00
53.9777 1840.00
54.0429 1404.00
54.1081 1181.00
54.1733 1120.00
54.2385 1176.00
54.3037 1149.00
54.3689 1193.00
54.4341 1374.00
54.4993 1528.00
54.5645 1724.00
54.6297 1986.00
54.6949 2096.00
54.7601 2251.00
54.8253 2349.00
54.8905 2194.00
54.9557 1937.00
55.0209 1505.00
55.0861 1313.00
55.1513 1176.00
55.2165 1032.00
55.2817 1028.00
55.3469 1096.00
55.4121 1245.00
55.4773 1325.00
55.5425 1377.00
55.6077 1431.00
55.6729 1402.00
55.7381 1170.00
55.8033 1206.00
55.8685 1039.00
55.9337 1058.00
55.9989 1050.00
56.0641 1041.00
56.1293 1118.00
56.1945 1159.00
56.2597 1218.00
56.3249 1363.00
56.3901 1448.00
56.4553 1852.00
56.5205 1851.00
56.5857 1690.00
56.6509 1430.00
56.7161 1323.00
56.7813 1160.00
56.8465 1097.00
56.9117 1090.00
56.9769 1173.00
57.042 1199.00
57.1073 1371.00
57.1724 1428.00
57.2376 1596.00
57.3028 1575.00
57.368 1301.00
57.4332 1160.00
57.4984 1047.00
57.5636 965.00
57.6288 894.00
57.694 863.00
57.7592 832.00
57.8244 838.00
57.8896 865.00
57.9548 863.00
58.02 897.00
58.0852 940.00
58.1504 926.00
58.2156 1015.00
58.2808 1108.00
58.346 1194.00
58.4112 1332.00
58.4764 1517.00
58.5416 1574.00
58.6068 1668.00
58.672 1867.00
58.7372 1777.00
58.8024 1518.00
58.8676 1468.00
58.9328 1497.00
58.998 1399.00
59.0632 1522.00
59.1284 1733.00
59.1936 1805.00
59.2588 1683.00
59.324 1426.00
59.3892 1303.00
59.4544 1102.00
59.5196 957.00
59.5848 976.00
59.65 988.00
59.7152 870.00
59.7804 890.00
59.8456 848.00
59.9108 786.00
59.976 785.00
60.0412 747.00
60.1064 754.00
60.1716 781.00
60.2368 743.00
60.302 810.00
60.3672 835.00
60.4324 918.00
60.4976 1019.00
60.5628 1062.00
60.628 1268.00
60.6932 1417.00
60.7584 1380.00
60.8236 1377.00
60.8888 1404.00
60.954 1339.00
61.0192 1170.00
61.0844 1016.00
61.1496 918.00
61.2148 848.00
61.28 775.00
61.3452 744.00
61.4104 764.00
61.4756 781.00
61.5408 763.00
61.606 774.00
61.6712 757.00
61.7364 782.00
61.8016 846.00
61.8667 938.00
61.932 1115.00
61.9971 1191.00
62.0623 1298.00
62.1275 1495.00
62.1927 1380.00
62.2579 1361.00
62.3231 1225.00
62.3883 1063.00
62.4535 1043.00
62.5187 1230.00
62.5839 1390.00
62.6491 1407.00
62.7143 1706.00
62.7795 1904.00
62.8447 2032.00
62.9099 1959.00
62.9751 1567.00
63.0403 1300.00
63.1055 1129.00
63.1707 881.00
63.2359 865.00
63.3011 812.00
63.3663 801.00
63.4315 815.00
63.4967 750.00
63.5619 805.00
63.6271 824.00
63.6923 915.00
63.7575 961.00
63.8227 1082.00
63.8879 1209.00
63.9531 1326.00
64.0183 1441.00
64.0835 1375.00
64.1487 1351.00
64.2139 1093.00
64.2791 1039.00
64.3443 976.00
64.4095 826.00
64.4747 808.00
64.5399 757.00
64.6051 711.00
64.6703 676.00
64.7355 731.00
64.8007 734.00
64.8659 777.00
64.9311 798.00
64.9963 790.00
65.0615 778.00
65.1267 704.00
65.1919 705.00
65.2571 692.00
65.3223 665.00
65.3875 640.00
65.4527 697.00
65.5179 682.00
65.5831 678.00
65.6483 672.00
65.7135 694.00
65.7787 751.00
65.8439 710.00
65.9091 696.00
65.9743 754.00
66.0395 775.00
66.1047 691.00
66.1699 733.00
66.2351 733.00
66.3003 643.00
66.3655 624.00
66.4307 614.00
66.4959 638.00
66.561 625.00
66.6263 600.00
66.6915 588.00
66.7566 584.00
66.8218 619.00
66.887 600.00
66.9522 651.00
67.0174 618.00
67.0826 610.00
67.1478 644.00
67.213 647.00
67.2782 716.00
67.3434 840.00
67.4086 953.00
67.4738 1000.00
67.539 1108.00
67.6042 1243.00
67.6694 1142.00
67.7346 919.00
67.7998 862.00
67.865 776.00
67.9302 668.00
67.9954 657.00
68.0606 667.00
68.1258 606.00
68.191 665.00
68.2562 661.00
68.3214 635.00
68.3866 565.00
68.4518 593.00
68.517 646.00
68.5822 650.00
68.6474 628.00
68.7126 634.00
68.7778 543.00
68.843 553.00
68.9082 576.00
68.9734 610.00
69.0386 558.00
69.1038 629.00
69.169 593.00
69.2342 582.00
69.2994 607.00
69.3646 671.00
69.4298 604.00
69.495 671.00
69.5602 686.00
69.6254 648.00
69.6906 629.00
69.7558 709.00
69.821 674.00
69.8862 671.00
69.9514 672.00
70.0166 717.00
70.0818 847.00
70.147 846.00
70.2122 814.00
70.2774 721.00
70.3426 714.00
70.4078 670.00
70.473 631.00
70.5382 580.00
70.6034 603.00
70.6686 605.00
70.7338 547.00
70.799 534.00
70.8642 575.00
70.9294 549.00
70.9946 537.00
71.0598 567.00
71.125 532.00
71.1902 555.00
71.2554 506.00
71.3205 521.00
71.3858 524.00
71.451 558.00
71.5162 543.00
71.5813 590.00
71.6465 604.00
71.7117 653.00
71.7769 687.00
71.8421 733.00
71.9073 783.00
71.9725 833.00
72.0377 801.00
72.1029 788.00
72.1681 877.00
72.2333 888.00
72.2985 847.00
72.3637 862.00
72.4289 945.00
72.4941 983.00
72.5593 777.00
72.6245 722.00
72.6897 726.00
72.7549 646.00
72.8201 631.00
72.8853 560.00
72.9505 618.00
73.0157 585.00
73.0809 560.00
73.1461 628.00
73.2113 663.00
73.2765 697.00
73.3417 746.00
73.4069 831.00
73.4721 872.00
73.5373 866.00
73.6025 799.00
73.6677 781.00
73.7329 725.00
73.7981 729.00
73.8633 612.00
73.9285 585.00
73.9937 565.00
74.0589 531.00
74.1241 579.00
74.1893 578.00
74.2545 596.00
74.3197 545.00
74.3849 701.00
74.4501 725.00
74.5153 813.00
74.5805 939.00
74.6457 1034.00
74.7109 1072.00
74.7761 957.00
74.8413 821.00
74.9065 838.00
74.9717 701.00
75.0369 626.00
75.1021 569.00
75.1673 573.00
75.2325 533.00
75.2977 506.00
75.3629 585.00
75.4281 588.00
75.4933 547.00
75.5585 566.00
75.6237 608.00
75.6889 513.00
75.7541 632.00
75.8193 613.00
75.8845 558.00
75.9497 611.00
76.0149 612.00
76.0801 618.00
76.1452 598.00
76.2104 667.00
76.2756 719.00
76.3409 695.00
76.406 639.00
76.4712 603.00
76.5364 650.00
76.6016 614.00
76.6668 537.00
76.732 571.00
76.7972 607.00
76.8624 590.00
76.9276 585.00
76.9928 606.00
77.058 538.00
77.1232 580.00
77.1884 599.00
77.2536 608.00
77.3188 623.00
77.384 636.00
77.4492 576.00
77.5144 583.00
77.5796 620.00
77.6448 679.00
77.71 632.00
77.7752 647.00
77.8404 644.00
77.9056 725.00
77.9708 726.00
78.036 674.00
78.1012 654.00
78.1664 672.00
78.2316 688.00
78.2968 644.00
78.362 674.00
78.4272 671.00
78.4924 616.00
78.5576 695.00
78.6228 626.00
78.688 600.00
78.7532 591.00
78.8184 641.00
78.8836 677.00
78.9488 679.00
79.014 710.00
79.0792 738.00
79.1444 746.00
79.2096 775.00
79.2748 775.00
79.34 779.00
79.4052 835.00
79.4704 892.00
79.5356 842.00
79.6008 766.00
79.666 793.00
79.7312 741.00
79.7964 839.00
79.8616 814.00
79.9268 854.00
79.992 886.00
80.0572 929.00
80.1224 920.00
80.1876 987.00
80.2528 1128.00
80.318 1171.00
80.3832 1247.00
80.4484 1368.00
80.5136 1437.00
80.5788 1327.00
80.644 1081.00
80.7092 1028.00
80.7744 956.00
80.8396 752.00
80.9048 649.00
80.9699 646.00
81.0351 618.00
81.1003 627.00
81.1655 624.00
81.2307 581.00
81.2959 613.00
81.3611 630.00
81.4263 694.00
81.4915 638.00
81.5567 632.00
81.6219 648.00
81.6871 589.00
81.7523 623.00
81.8175 650.00
81.8827 645.00
81.9479 641.00
82.0131 649.00
82.0783 650.00
82.1435 595.00
82.2087 662.00
82.2739 643.00
82.3391 589.00
82.4043 635.00
82.4695 627.00
82.5347 662.00
82.5999 618.00
82.6651 665.00
82.7303 653.00
82.7955 663.00
82.8607 633.00
82.9259 632.00
82.9911 622.00
83.0563 614.00
83.1215 599.00
83.1867 631.00
83.2519 656.00
83.3171 651.00
83.3823 634.00
83.4475 689.00
83.5127 703.00
83.5779 772.00
83.6431 710.00
83.7083 722.00
83.7735 713.00
83.8387 670.00
83.9039 647.00
83.9691 601.00
84.0343 613.00
84.0995 626.00
84.1647 643.00
84.2299 642.00
84.2951 677.00
84.3603 644.00
84.4255 667.00
84.4907 689.00
84.5559 607.00
84.6211 618.00
84.6863 645.00
84.7515 634.00
84.8167 652.00
84.8819 623.00
84.9471 632.00
85.0123 605.00
85.0775 620.00
85.1427 658.00
85.2079 697.00
85.2731 688.00
85.3383 679.00
85.4035 628.00
85.4687 630.00
85.5339 680.00
85.5991 668.00
85.6643 617.00
85.7295 666.00
85.7946 594.00
85.8598 722.00
85.925 680.00
85.9903 624.00
86.0554 597.00
86.1206 614.00
86.1858 591.00
86.251 608.00
86.3162 561.00
86.3814 584.00
86.4466 548.00
86.5118 558.00
86.577 556.00
86.6422 538.00
86.7074 546.00
86.7726 548.00
86.8378 545.00
86.903 525.00
86.9682 527.00
87.0334 519.00
87.0986 567.00
87.1638 548.00
87.229 561.00
87.2942 557.00
87.3594 566.00
87.4246 577.00
87.4898 588.00
87.555 577.00
87.6202 583.00
87.6854 601.00
87.7506 611.00
87.8158 631.00
87.881 641.00
87.9462 640.00
88.0114 630.00
88.0766 620.00
88.1418 608.00
88.207 609.00
88.2722 581.00
88.3374 581.00
88.4026 564.00
88.4678 517.00
88.533 557.00
88.5982 509.00
88.6634 527.00
88.7286 514.00
88.7938 505.00
88.859 550.00
88.9242 466.00
88.9894 516.00
89.0546 550.00
89.1198 548.00
89.185 587.00
89.2502 592.00
89.3154 659.00
89.3806 691.00
89.4458 748.00
89.511 649.00
89.5762 671.00
89.6414 635.00
89.7066 726.00
89.7718 658.00
89.837 698.00
89.9022 621.00
89.9674 628.00
90.0326 595.00
90.0978 659.00
90.163 689.00
90.2282 668.00
90.2934 684.00
90.3586 706.00
90.4238 660.00
90.489 628.00
90.5542 586.00
90.6193 575.00
90.6845 602.00
90.7497 539.00
90.8149 551.00
90.8801 541.00
90.9453 539.00
91.0105 591.00
91.0757 636.00
91.1409 561.00
91.2061 628.00
91.2713 613.00
91.3365 610.00
91.4017 603.00
91.4669 575.00
91.5321 530.00
91.5973 564.00
91.6625 562.00
91.7277 533.00
91.7929 556.00
91.8581 531.00
91.9233 572.00
91.9885 549.00
92.0537 560.00
92.1189 545.00
92.1841 581.00
92.2493 552.00
92.3145 520.00
92.3797 493.00
92.4449 528.00
92.5101 493.00
92.5753 491.00
92.6405 515.00
92.7057 480.00
92.7709 502.00
92.8361 509.00
92.9013 504.00
92.9665 535.00
93.0317 577.00
93.0969 538.00
93.1621 598.00
93.2273 659.00
93.2925 768.00
93.3577 855.00
93.4229 915.00
93.4881 859.00
93.5533 801.00
93.6185 745.00
93.6837 772.00
93.7489 759.00
93.8141 802.00
93.8793 748.00
93.9445 698.00
94.0097 705.00
94.0749 693.00
94.1401 710.00
94.2053 692.00
94.2705 640.00
94.3357 621.00
94.4009 551.00
94.4661 619.00
94.5313 508.00
94.5965 563.00
94.6617 489.00
94.7269 473.00
94.7921 543.00
94.8573 508.00
94.9225 514.00
94.9877 524.00
95.0529 553.00
95.1181 545.00
95.1833 513.00
95.2485 510.00
95.3137 526.00
95.3789 573.00
95.444 536.00
95.5092 555.00
95.5744 559.00
95.6396 580.00
95.7048 600.00
95.77 564.00
95.8352 541.00
95.9004 589.00
95.9656 535.00
96.0308 555.00
96.096 507.00
96.1612 534.00
96.2264 531.00
96.2916 555.00
96.3568 522.00
96.422 506.00
96.4872 521.00
96.5524 518.00
96.6176 521.00
96.6828 464.00
96.748 494.00
96.8132 491.00
96.8784 535.00
96.9436 520.00
97.0088 459.00
97.074 503.00
97.1392 439.00
97.2044 481.00
97.2696 473.00
97.3348 474.00
97.4 464.00
97.4652 462.00
97.5304 524.00
97.5956 492.00
97.6608 492.00
97.726 505.00
97.7912 483.00
97.8564 521.00
97.9216 515.00
97.9868 495.00
98.052 517.00
98.1172 500.00
98.1824 496.00
98.2476 576.00
98.3128 589.00
98.378 584.00
98.4432 585.00
98.5084 559.00
98.5736 540.00
98.6388 590.00
98.704 581.00
98.7692 580.00
98.8344 561.00
98.8996 549.00
98.9648 555.00
99.03 585.00
99.0952 650.00
99.1604 704.00
99.2256 752.00
99.2908 787.00
99.356 798.00
99.4212 667.00
99.4864 668.00
99.5516 613.00
99.6168 638.00
99.682 641.00
99.7472 576.00
99.8124 567.00
99.8776 564.00
99.9428 544.00
100.008 560.00
100.073 542.00
100.095 552.00