File: data/xrd_creation/results/Na_38.xy
9.903433 2766.00
9.968632 2729.00
10.0338 2659.00
10.099 2681.00
10.1642 2724.00
10.2294 2515.00
10.2946 2625.00
10.3598 2768.00
10.425 2610.00
10.4902 2677.00
10.5554 2469.00
10.6206 2584.00
10.6858 2456.00
10.751 2505.00
10.8162 2420.00
10.8814 2390.00
10.9466 2389.00
11.0118 2319.00
11.077 2308.00
11.1422 2310.00
11.2074 2386.00
11.2726 2254.00
11.3378 2346.00
11.403 2209.00
11.4682 2241.00
11.5334 2188.00
11.5986 2205.00
11.6638 2122.00
11.729 2120.00
11.7942 2171.00
11.8594 2169.00
11.9246 2108.00
11.9898 2036.00
12.055 2098.00
12.1202 2081.00
12.1854 2159.00
12.2506 2035.00
12.3158 1968.00
12.381 2002.00
12.4462 1965.00
12.5114 2090.00
12.5766 2008.00
12.6418 1980.00
12.707 2035.00
12.7722 1941.00
12.8374 1990.00
12.9026 2022.00
12.9678 1873.00
13.033 2002.00
13.0982 2061.00
13.1634 2094.00
13.2286 1865.00
13.2938 1920.00
13.359 2069.00
13.4242 1879.00
13.4894 1928.00
13.5546 1816.00
13.6198 1806.00
13.685 1795.00
13.7502 1817.00
13.8154 1722.00
13.8805 1754.00
13.9457 1741.00
14.0109 1784.00
14.0761 1674.00
14.1413 1748.00
14.2065 1637.00
14.2717 1737.00
14.3369 1670.00
14.4021 1733.00
14.4673 1694.00
14.5325 1660.00
14.5977 1686.00
14.6629 1724.00
14.7281 1651.00
14.7933 1616.00
14.8585 1476.00
14.9237 1685.00
14.9889 1632.00
15.0541 1661.00
15.1193 1579.00
15.1845 1547.00
15.2497 1514.00
15.3149 1600.00
15.3801 1516.00
15.4453 1608.00
15.5105 1568.00
15.5757 1474.00
15.6409 1544.00
15.7061 1552.00
15.7713 1546.00
15.8365 1515.00
15.9017 1529.00
15.9669 1491.00
16.0321 1467.00
16.0973 1551.00
16.1625 1425.00
16.2277 1504.00
16.2929 1499.00
16.3581 1440.00
16.4233 1516.00
16.4885 1525.00
16.5537 1484.00
16.6189 1455.00
16.6841 1424.00
16.7493 1463.00
16.8145 1398.00
16.8797 1451.00
16.9449 1401.00
17.0101 1450.00
17.0753 1449.00
17.1405 1425.00
17.2057 1379.00
17.2709 1405.00
17.3361 1421.00
17.4013 1405.00
17.4665 1370.00
17.5317 1367.00
17.5969 1451.00
17.6621 1419.00
17.7273 1339.00
17.7925 1350.00
17.8577 1383.00
17.9229 1340.00
17.9881 1304.00
18.0533 1327.00
18.1185 1290.00
18.1837 1349.00
18.2489 1321.00
18.3141 1329.00
18.3793 1355.00
18.4445 1364.00
18.5097 1367.00
18.5749 1276.00
18.6401 1344.00
18.7052 1335.00
18.7704 1321.00
18.8356 1320.00
18.9008 1291.00
18.966 1350.00
19.0312 1328.00
19.0964 1407.00
19.1616 1443.00
19.2268 1457.00
19.292 1478.00
19.3572 1537.00
19.4224 1518.00
19.4876 1556.00
19.5528 1651.00
19.618 1748.00
19.6832 1926.00
19.7484 2059.00
19.8136 2241.00
19.8788 2263.00
19.944 2579.00
20.0092 2692.00
20.0744 2972.00
20.1396 2840.00
20.2048 2954.00
20.27 2774.00
20.3352 2513.00
20.4004 2318.00
20.4656 1937.00
20.5308 1812.00
20.596 1733.00
20.6612 1573.00
20.7264 1475.00
20.7916 1561.00
20.8568 1657.00
20.922 1830.00
20.9872 2000.00
21.0524 2103.00
21.1176 2446.00
21.1828 2539.00
21.248 2688.00
21.3132 2850.00
21.3784 2590.00
21.4436 2486.00
21.5088 2504.00
21.574 2295.00
21.6392 2224.00
21.7044 2087.00
21.7696 1838.00
21.8348 1527.00
21.9 1505.00
21.9652 1412.00
22.0304 1339.00
22.0956 1346.00
22.1608 1303.00
22.226 1318.00
22.2912 1282.00
22.3564 1312.00
22.4216 1341.00
22.4868 1349.00
22.552 1443.00
22.6172 1391.00
22.6824 1456.00
22.7476 1406.00
22.8128 1318.00
22.878 1441.00
22.9432 1580.00
23.0084 1693.00
23.0736 1877.00
23.1388 1909.00
23.204 2032.00
23.2692 1956.00
23.3344 1948.00
23.3996 1753.00
23.4647 1638.00
23.5299 1542.00
23.5951 1543.00
23.6603 1538.00
23.7255 1579.00
23.7907 1628.00
23.8559 1436.00
23.9211 1414.00
23.9863 1301.00
24.0515 1307.00
24.1167 1276.00
24.1819 1267.00
24.2471 1235.00
24.3123 1133.00
24.3775 1116.00
24.4427 1129.00
24.5079 1153.00
24.5731 1070.00
24.6383 1079.00
24.7035 1008.00
24.7687 982.00
24.8339 1027.00
24.8991 1021.00
24.9643 1051.00
25.0295 930.00
25.0947 1043.00
25.1599 1052.00
25.2251 1053.00
25.2903 1103.00
25.3555 1115.00
25.4207 1131.00
25.4859 1085.00
25.5511 1067.00
25.6163 1030.00
25.6815 1092.00
25.7467 1185.00
25.8119 1134.00
25.8771 1158.00
25.9423 1172.00
26.0075 1180.00
26.0727 1234.00
26.1379 1172.00
26.2031 1167.00
26.2683 1230.00
26.3335 1316.00
26.3987 1290.00
26.4639 1306.00
26.5291 1411.00
26.5943 1437.00
26.6595 1471.00
26.7247 1479.00
26.7899 1492.00
26.8551 1416.00
26.9203 1331.00
26.9855 1453.00
27.0507 1404.00
27.1159 1338.00
27.1811 1334.00
27.2463 1303.00
27.3115 1191.00
27.3767 1057.00
27.4419 1051.00
27.5071 1072.00
27.5723 1089.00
27.6375 1053.00
27.7027 1053.00
27.7679 1106.00
27.8331 1142.00
27.8983 1166.00
27.9635 1220.00
28.0287 1202.00
28.0939 1179.00
28.1591 1085.00
28.2243 1068.00
28.2894 1049.00
28.3546 990.00
28.4198 947.00
28.485 968.00
28.5502 956.00
28.6154 985.00
28.6806 952.00
28.7458 1048.00
28.811 935.00
28.8762 1084.00
28.9414 1097.00
29.0066 1195.00
29.0718 1201.00
29.137 1377.00
29.2022 1688.00
29.2674 2124.00
29.3326 2666.00
29.3978 3372.00
29.463 4063.00
29.5282 4691.00
29.5934 4933.00
29.6586 4683.00
29.7238 2970.00
29.789 1855.00
29.8542 1507.00
29.9194 1596.00
29.9846 1610.00
30.0498 1647.00
30.115 1445.00
30.1802 1388.00
30.2454 1431.00
30.3106 1477.00
30.3758 1502.00
30.441 1535.00
30.5062 1673.00
30.5714 1753.00
30.6366 1824.00
30.7018 1878.00
30.767 1765.00
30.8322 1634.00
30.8974 1503.00
30.9626 1472.00
31.0278 1565.00
31.093 1596.00
31.1582 1709.00
31.2234 1650.00
31.2886 1619.00
31.3538 1595.00
31.419 1430.00
31.4842 1409.00
31.5494 1358.00
31.6146 1359.00
31.6798 1323.00
31.745 1304.00
31.8102 1374.00
31.8754 1414.00
31.9406 1469.00
32.0058 1441.00
32.071 1443.00
32.1362 1441.00
32.2014 1465.00
32.2666 1423.00
32.3318 1435.00
32.397 1402.00
32.4622 1525.00
32.5274 1591.00
32.5926 1672.00
32.6578 1726.00
32.723 1829.00
32.7882 1968.00
32.8534 2144.00
32.9186 2312.00
32.9838 2458.00
33.0489 2900.00
33.1141 3150.00
33.1793 3439.00
33.2445 3607.00
33.3097 3751.00
33.3749 3165.00
33.4401 2737.00
33.5053 2054.00
33.5705 1703.00
33.6357 1592.00
33.7009 1557.00
33.7661 1653.00
33.8313 1601.00
33.8965 1631.00
33.9617 1429.00
34.0269 1280.00
34.0921 1190.00
34.1573 1129.00
34.2225 1147.00
34.2877 1153.00
34.3529 1173.00
34.4181 1216.00
34.4833 1118.00
34.5485 1170.00
34.6137 1044.00
34.6789 1093.00
34.7441 1124.00
34.8093 1180.00
34.8745 1260.00
34.9397 1337.00
35.0049 1333.00
35.0701 1272.00
35.1353 1136.00
35.2005 1196.00
35.2657 1108.00
35.3309 1059.00
35.3961 1085.00
35.4613 1140.00
35.5265 1057.00
35.5917 1120.00
35.6569 1111.00
35.7221 1060.00
35.7873 1042.00
35.8525 1044.00
35.9177 1091.00
35.9829 1147.00
36.0481 1235.00
36.1133 1328.00
36.1785 1455.00
36.2437 1269.00
36.3089 1098.00
36.3741 1024.00
36.4393 936.00
36.5045 874.00
36.5697 838.00
36.6349 850.00
36.7001 870.00
36.7653 887.00
36.8305 830.00
36.8957 866.00
36.9609 874.00
37.0261 804.00
37.0913 815.00
37.1565 849.00
37.2217 822.00
37.2869 849.00
37.3521 886.00
37.4173 891.00
37.4825 968.00
37.5477 920.00
37.6129 919.00
37.6781 963.00
37.7433 864.00
37.8085 858.00
37.8736 870.00
37.9388 875.00
38.004 913.00
38.0692 917.00
38.1344 951.00
38.1996 994.00
38.2648 1018.00
38.33 967.00
38.3952 1022.00
38.4604 1013.00
38.5256 914.00
38.5908 905.00
38.656 958.00
38.7212 921.00
38.7864 951.00
38.8516 797.00
38.9168 808.00
38.982 816.00
39.0472 776.00
39.1124 868.00
39.1776 809.00
39.2428 859.00
39.308 1025.00
39.3732 1084.00
39.4384 1256.00
39.5036 1375.00
39.5688 1462.00
39.634 1597.00
39.6992 1222.00
39.7644 1024.00
39.8296 807.00
39.8948 720.00
39.96 697.00
40.0252 704.00
40.0904 694.00
40.1556 599.00
40.2208 662.00
40.286 673.00
40.3512 644.00
40.4164 623.00
40.4816 587.00
40.5468 628.00
40.612 633.00
40.6772 602.00
40.7424 610.00
40.8076 683.00
40.8728 781.00
40.938 806.00
41.0032 890.00
41.0684 985.00
41.1336 1007.00
41.1988 992.00
41.264 918.00
41.3292 760.00
41.3944 805.00
41.4596 797.00
41.5248 806.00
41.59 813.00
41.6552 767.00
41.7204 781.00
41.7856 834.00
41.8508 744.00
41.916 709.00
41.9812 701.00
42.0464 691.00
42.1116 773.00
42.1768 743.00
42.242 765.00
42.3072 777.00
42.3724 723.00
42.4376 733.00
42.5028 707.00
42.568 743.00
42.6332 751.00
42.6983 775.00
42.7635 839.00
42.8287 905.00
42.8939 967.00
42.9591 963.00
43.0243 1004.00
43.0895 1082.00
43.1547 1163.00
43.2199 1271.00
43.2851 1364.00
43.3503 1425.00
43.4155 1458.00
43.4807 1161.00
43.5459 1102.00
43.6111 947.00
43.6763 1002.00
43.7415 1023.00
43.8067 919.00
43.8719 878.00
43.9371 853.00
44.0023 896.00
44.0675 801.00
44.1327 831.00
44.1979 821.00
44.2631 777.00
44.3283 833.00
44.3935 769.00
44.4587 829.00
44.5239 796.00
44.5891 790.00
44.6543 760.00
44.7195 815.00
44.7847 782.00
44.8499 822.00
44.9151 871.00
44.9803 843.00
45.0455 817.00
45.1107 807.00
45.1759 781.00
45.2411 711.00
45.3063 765.00
45.3715 808.00
45.4367 759.00
45.5019 742.00
45.5671 744.00
45.6323 732.00
45.6975 789.00
45.7627 832.00
45.8279 821.00
45.8931 797.00
45.9583 840.00
46.0235 788.00
46.0887 852.00
46.1539 808.00
46.2191 822.00
46.2843 756.00
46.3495 823.00
46.4147 792.00
46.4799 720.00
46.5451 777.00
46.6103 743.00
46.6755 845.00
46.7407 741.00
46.8059 753.00
46.8711 802.00
46.9363 844.00
47.0015 855.00
47.0667 892.00
47.1319 954.00
47.1971 1122.00
47.2623 1145.00
47.3275 1269.00
47.3927 1231.00
47.4579 1288.00
47.523 1330.00
47.5882 1530.00
47.6534 1559.00
47.7186 1591.00
47.7838 1290.00
47.849 1137.00
47.9142 869.00
47.9794 776.00
48.0446 741.00
48.1098 695.00
48.175 721.00
48.2402 725.00
48.3054 760.00
48.3706 840.00
48.4358 901.00
48.501 992.00
48.5662 1197.00
48.6314 1386.00
48.6966 1486.00
48.7618 1292.00
48.827 1015.00
48.8922 884.00
48.9574 739.00
49.0226 681.00
49.0878 595.00
49.153 533.00
49.2182 619.00
49.2834 588.00
49.3486 606.00
49.4138 532.00
49.479 512.00
49.5442 552.00
49.6094 537.00
49.6746 473.00
49.7398 535.00
49.805 485.00
49.8702 507.00
49.9354 511.00
50.0006 531.00
50.0658 523.00
50.131 484.00
50.1962 519.00
50.2614 492.00
50.3266 514.00
50.3918 497.00
50.457 503.00
50.5222 529.00
50.5874 501.00
50.6526 551.00
50.7178 501.00
50.783 500.00
50.8482 507.00
50.9134 511.00
50.9786 521.00
51.0438 531.00
51.109 509.00
51.1742 557.00
51.2394 515.00
51.3046 565.00
51.3698 589.00
51.435 580.00
51.5002 649.00
51.5654 595.00
51.6306 688.00
51.6958 672.00
51.761 677.00
51.8262 671.00
51.8914 744.00
51.9566 703.00
52.0218 689.00
52.087 698.00
52.1522 678.00
52.2174 727.00
52.2826 759.00
52.3477 727.00
52.4129 770.00
52.4781 773.00
52.5433 811.00
52.6085 699.00
52.6737 750.00
52.7389 686.00
52.8041 713.00
52.8693 697.00
52.9345 645.00
52.9997 681.00
53.0649 694.00
53.1301 633.00
53.1953 644.00
53.2605 702.00
53.3257 681.00
53.3909 674.00
53.4561 685.00
53.5213 655.00
53.5865 678.00
53.6517 610.00
53.7169 647.00
53.7821 631.00
53.8473 568.00
53.9125 613.00
53.9777 619.00
54.0429 618.00
54.1081 586.00
54.1733 496.00
54.2385 556.00
54.3037 510.00
54.3689 509.00
54.4341 543.00
54.4993 555.00
54.5645 543.00
54.6297 567.00
54.6949 604.00
54.7601 610.00
54.8253 631.00
54.8905 687.00
54.9557 685.00
55.0209 615.00
55.0861 602.00
55.1513 598.00
55.2165 616.00
55.2817 601.00
55.3469 596.00
55.4121 639.00
55.4773 595.00
55.5425 618.00
55.6077 630.00
55.6729 578.00
55.7381 635.00
55.8033 615.00
55.8685 607.00
55.9337 587.00
55.9989 611.00
56.0641 587.00
56.1293 579.00
56.1945 574.00
56.2597 580.00
56.3249 578.00
56.3901 603.00
56.4553 619.00
56.5205 628.00
56.5857 645.00
56.6509 693.00
56.7161 665.00
56.7813 662.00
56.8465 674.00
56.9117 653.00
56.9769 599.00
57.042 601.00
57.1073 562.00
57.1724 592.00
57.2376 652.00
57.3028 639.00
57.368 699.00
57.4332 787.00
57.4984 838.00
57.5636 930.00
57.6288 876.00
57.694 796.00
57.7592 681.00
57.8244 692.00
57.8896 585.00
57.9548 634.00
58.02 601.00
58.0852 554.00
58.1504 615.00
58.2156 566.00
58.2808 597.00
58.346 596.00
58.4112 579.00
58.4764 545.00
58.5416 530.00
58.6068 561.00
58.672 534.00
58.7372 587.00
58.8024 654.00
58.8676 648.00
58.9328 678.00
58.998 703.00
59.0632 755.00
59.1284 776.00
59.1936 761.00
59.2588 765.00
59.324 763.00
59.3892 733.00
59.4544 773.00
59.5196 757.00
59.5848 767.00
59.65 791.00
59.7152 775.00
59.7804 754.00
59.8456 735.00
59.9108 688.00
59.976 648.00
60.0412 649.00
60.1064 629.00
60.1716 585.00
60.2368 587.00
60.302 577.00
60.3672 597.00
60.4324 574.00
60.4976 638.00
60.5628 645.00
60.628 694.00
60.6932 740.00
60.7584 793.00
60.8236 805.00
60.8888 803.00
60.954 708.00
61.0192 699.00
61.0844 688.00
61.1496 639.00
61.2148 623.00
61.28 648.00
61.3452 610.00
61.4104 597.00
61.4756 612.00
61.5408 621.00
61.606 553.00
61.6712 569.00
61.7364 510.00
61.8016 548.00
61.8667 505.00
61.932 500.00
61.9971 537.00
62.0623 546.00
62.1275 491.00
62.1927 525.00
62.2579 517.00
62.3231 516.00
62.3883 450.00
62.4535 547.00
62.5187 498.00
62.5839 488.00
62.6491 514.00
62.7143 509.00
62.7795 552.00
62.8447 591.00
62.9099 577.00
62.9751 587.00
63.0403 638.00
63.1055 620.00
63.1707 622.00
63.2359 626.00
63.3011 580.00
63.3663 606.00
63.4315 605.00
63.4967 553.00
63.5619 572.00
63.6271 501.00
63.6923 537.00
63.7575 534.00
63.8227 484.00
63.8879 514.00
63.9531 472.00
64.0183 436.00
64.0835 461.00
64.1487 487.00
64.2139 475.00
64.2791 483.00
64.3443 416.00
64.4095 472.00
64.4747 425.00
64.5399 485.00
64.6051 537.00
64.6703 546.00
64.7355 589.00
64.8007 682.00
64.8659 660.00
64.9311 617.00
64.9963 571.00
65.0615 576.00
65.1267 529.00
65.1919 496.00
65.2571 516.00
65.3223 501.00
65.3875 564.00
65.4527 568.00
65.5179 595.00
65.5831 591.00
65.6483 613.00
65.7135 668.00
65.7787 688.00
65.8439 603.00
65.9091 565.00
65.9743 534.00
66.0395 491.00
66.1047 488.00
66.1699 473.00
66.2351 481.00
66.3003 475.00
66.3655 494.00
66.4307 487.00
66.4959 448.00
66.561 467.00
66.6263 502.00
66.6915 538.00
66.7566 506.00
66.8218 465.00
66.887 471.00
66.9522 524.00
67.0174 506.00
67.0826 479.00
67.1478 459.00
67.213 440.00
67.2782 457.00
67.3434 432.00
67.4086 404.00
67.4738 442.00
67.539 426.00
67.6042 489.00
67.6694 460.00
67.7346 431.00
67.7998 446.00
67.865 414.00
67.9302 417.00
67.9954 430.00
68.0606 416.00
68.1258 366.00
68.191 403.00
68.2562 395.00
68.3214 405.00
68.3866 349.00
68.4518 410.00
68.517 340.00
68.5822 333.00
68.6474 347.00
68.7126 383.00
68.7778 349.00
68.843 389.00
68.9082 363.00
68.9734 360.00
69.0386 393.00
69.1038 412.00
69.169 433.00
69.2342 458.00
69.2994 447.00
69.3646 528.00
69.4298 519.00
69.495 477.00
69.5602 560.00
69.6254 533.00
69.6906 536.00
69.7558 525.00
69.821 449.00
69.8862 474.00
69.9514 460.00
70.0166 459.00
70.0818 470.00
70.147 492.00
70.2122 487.00
70.2774 504.00
70.3426 513.00
70.4078 476.00
70.473 493.00
70.5382 450.00
70.6034 459.00
70.6686 421.00
70.7338 444.00
70.799 458.00
70.8642 454.00
70.9294 381.00
70.9946 411.00
71.0598 388.00
71.125 420.00
71.1902 396.00
71.2554 424.00
71.3205 415.00
71.3858 395.00
71.451 383.00
71.5162 399.00
71.5813 371.00
71.6465 416.00
71.7117 407.00
71.7769 417.00
71.8421 409.00
71.9073 385.00
71.9725 428.00
72.0377 421.00
72.1029 402.00
72.1681 420.00
72.2333 395.00
72.2985 371.00
72.3637 407.00
72.4289 415.00
72.4941 422.00
72.5593 395.00
72.6245 396.00
72.6897 413.00
72.7549 431.00
72.8201 432.00
72.8853 465.00
72.9505 503.00
73.0157 490.00
73.0809 481.00
73.1461 459.00
73.2113 408.00
73.2765 441.00
73.3417 396.00
73.4069 392.00
73.4721 381.00
73.5373 368.00
73.6025 379.00
73.6677 393.00
73.7329 368.00
73.7981 324.00
73.8633 390.00
73.9285 357.00
73.9937 349.00
74.0589 341.00
74.1241 344.00
74.1893 312.00
74.2545 335.00
74.3197 340.00
74.3849 332.00
74.4501 359.00
74.5153 334.00
74.5805 345.00
74.6457 330.00
74.7109 330.00
74.7761 344.00
74.8413 382.00
74.9065 337.00
74.9717 337.00
75.0369 325.00
75.1021 365.00
75.1673 354.00
75.2325 354.00
75.2977 391.00
75.3629 356.00
75.4281 355.00
75.4933 429.00
75.5585 385.00
75.6237 352.00
75.6889 368.00
75.7541 364.00
75.8193 396.00
75.8845 417.00
75.9497 388.00
76.0149 372.00
76.0801 376.00
76.1452 394.00
76.2104 407.00
76.2756 408.00
76.3409 356.00
76.406 410.00
76.4712 473.00
76.5364 430.00
76.6016 409.00
76.6668 415.00
76.732 427.00
76.7972 407.00
76.8624 373.00
76.9276 465.00
76.9928 420.00
77.058 425.00
77.1232 460.00
77.1884 420.00
77.2536 472.00
77.3188 494.00
77.384 476.00
77.4492 408.00
77.5144 411.00
77.5796 368.00
77.6448 397.00
77.71 367.00
77.7752 349.00
77.8404 378.00
77.9056 381.00
77.9708 358.00
78.036 399.00
78.1012 400.00
78.1664 361.00
78.2316 384.00
78.2968 341.00
78.362 368.00
78.4272 398.00
78.4924 364.00
78.5576 383.00
78.6228 412.00
78.688 352.00
78.7532 368.00
78.8184 367.00
78.8836 386.00
78.9488 415.00
79.014 380.00
79.0792 398.00
79.1444 417.00
79.2096 352.00
79.2748 424.00
79.34 380.00
79.4052 351.00
79.4704 384.00
79.5356 331.00
79.6008 348.00
79.666 316.00
79.7312 332.00
79.7964 341.00
79.8616 306.00
79.9268 328.00
79.992 325.00
80.0572 363.00
80.1224 314.00
80.1876 327.00
80.2528 349.00
80.318 344.00
80.3832 308.00
80.4484 337.00
80.5136 356.00
80.5788 321.00
80.644 369.00
80.7092 334.00
80.7744 326.00
80.8396 337.00
80.9048 356.00
80.9699 345.00
81.0351 340.00
81.1003 339.00
81.1655 359.00
81.2307 336.00
81.2959 395.00
81.3611 405.00
81.4263 376.00
81.4915 384.00
81.5567 450.00
81.6219 448.00
81.6871 408.00
81.7523 423.00
81.8175 403.00
81.8827 379.00
81.9479 403.00
82.0131 359.00
82.0783 349.00
82.1435 348.00
82.2087 303.00
82.2739 309.00
82.3391 376.00
82.4043 340.00
82.4695 339.00
82.5347 328.00
82.5999 401.00
82.6651 354.00
82.7303 354.00
82.7955 332.00
82.8607 307.00
82.9259 341.00
82.9911 339.00
83.0563 369.00
83.1215 331.00
83.1867 382.00
83.2519 340.00
83.3171 368.00
83.3823 392.00
83.4475 400.00
83.5127 365.00
83.5779 377.00
83.6431 421.00
83.7083 435.00
83.7735 506.00
83.8387 539.00
83.9039 528.00
83.9691 490.00
84.0343 494.00
84.0995 448.00
84.1647 419.00
84.2299 457.00
84.2951 408.00
84.3603 375.00
84.4255 398.00
84.4907 383.00
84.5559 437.00
84.6211 395.00
84.6863 383.00
84.7515 419.00
84.8167 431.00
84.8819 435.00
84.9471 436.00
85.0123 420.00
85.0775 408.00
85.1427 392.00
85.2079 378.00
85.2731 391.00
85.3383 337.00
85.4035 348.00
85.4687 339.00
85.5339 327.00
85.5991 331.00
85.6643 368.00
85.7295 347.00
85.7946 366.00
85.8598 359.00
85.925 322.00
85.9903 352.00
86.0554 363.00
86.1206 358.00
86.1858 371.00
86.251 359.00
86.3162 373.00
86.3814 418.00
86.4466 380.00
86.5118 384.00
86.577 411.00
86.6422 372.00
86.7074 349.00
86.7726 370.00
86.8378 376.00
86.903 359.00
86.9682 380.00
87.0334 351.00
87.0986 339.00
87.1638 366.00
87.229 321.00
87.2942 357.00
87.3594 383.00
87.4246 369.00
87.4898 342.00
87.555 327.00
87.6202 317.00
87.6854 336.00
87.7506 289.00
87.8158 323.00
87.881 312.00
87.9462 348.00
88.0114 328.00
88.0766 307.00
88.1418 316.00
88.207 291.00
88.2722 353.00
88.3374 339.00
88.4026 295.00
88.4678 316.00
88.533 319.00
88.5982 318.00
88.6634 319.00
88.7286 294.00
88.7938 326.00
88.859 334.00
88.9242 337.00
88.9894 370.00
89.0546 304.00
89.1198 329.00
89.185 329.00
89.2502 352.00
89.3154 302.00
89.3806 337.00
89.4458 314.00
89.511 306.00
89.5762 294.00
89.6414 296.00
89.7066 302.00
89.7718 299.00
89.837 338.00
89.9022 321.00
89.9674 308.00
90.0326 297.00
90.0978 307.00
90.163 281.00
90.2282 307.00
90.2934 298.00
90.3586 300.00
90.4238 281.00
90.489 286.00
90.5542 305.00
90.6193 296.00
90.6845 326.00
90.7497 312.00
90.8149 282.00
90.8801 322.00
90.9453 286.00
91.0105 313.00
91.0757 324.00
91.1409 315.00
91.2061 277.00
91.2713 350.00
91.3365 354.00
91.4017 296.00
91.4669 352.00
91.5321 357.00
91.5973 356.00
91.6625 337.00
91.7277 351.00
91.7929 328.00
91.8581 376.00
91.9233 383.00
91.9885 344.00
92.0537 326.00
92.1189 351.00
92.1841 366.00
92.2493 340.00
92.3145 301.00
92.3797 358.00
92.4449 326.00
92.5101 323.00
92.5753 322.00
92.6405 286.00
92.7057 298.00
92.7709 306.00
92.8361 299.00
92.9013 314.00
92.9665 294.00
93.0317 338.00
93.0969 344.00
93.1621 363.00
93.2273 355.00
93.2925 309.00
93.3577 374.00
93.4229 356.00
93.4881 346.00
93.5533 309.00
93.6185 326.00
93.6837 316.00
93.7489 317.00
93.8141 316.00
93.8793 350.00
93.9445 304.00
94.0097 293.00
94.0749 315.00
94.1401 334.00
94.2053 315.00
94.2705 338.00
94.3357 340.00
94.4009 346.00
94.4661 314.00
94.5313 348.00
94.5965 315.00
94.6617 400.00
94.7269 406.00
94.7921 458.00
94.8573 437.00
94.9225 395.00
94.9877 438.00
95.0529 449.00
95.1181 491.00
95.1833 451.00
95.2485 354.00
95.3137 402.00
95.3789 382.00
95.444 392.00
95.5092 351.00
95.5744 318.00
95.6396 333.00
95.7048 331.00
95.77 306.00
95.8352 353.00
95.9004 369.00
95.9656 338.00
96.0308 314.00
96.096 378.00
96.1612 333.00
96.2264 363.00
96.2916 346.00
96.3568 322.00
96.422 349.00
96.4872 335.00
96.5524 335.00
96.6176 335.00
96.6828 323.00
96.748 319.00
96.8132 308.00
96.8784 312.00
96.9436 298.00
97.0088 335.00
97.074 322.00
97.1392 304.00
97.2044 312.00
97.2696 331.00
97.3348 307.00
97.4 313.00
97.4652 273.00
97.5304 358.00
97.5956 324.00
97.6608 333.00
97.726 353.00
97.7912 329.00
97.8564 313.00
97.9216 368.00
97.9868 376.00
98.052 327.00
98.1172 292.00
98.1824 356.00
98.2476 329.00
98.3128 364.00
98.378 332.00
98.4432 326.00
98.5084 380.00
98.5736 324.00
98.6388 331.00
98.704 374.00
98.7692 370.00
98.8344 273.00
98.8996 332.00
98.9648 326.00
99.03 381.00
99.0952 378.00
99.1604 425.00
99.2256 411.00
99.2908 375.00
99.356 317.00
99.4212 364.00
99.4864 329.00
99.5516 348.00
99.6168 311.00
99.682 322.00
99.7472 331.00
99.8124 307.00
99.8776 311.00
99.9428 313.00
100.008 326.00
100.073 325.00
100.095 316.00