File: data/xrd_creation/results/Na_306.xy
9.903433 2889.00
9.968632 2945.00
10.0338 2978.00
10.099 2909.00
10.1642 2899.00
10.2294 2905.00
10.2946 2940.00
10.3598 2907.00
10.425 3042.00
10.4902 3212.00
10.5554 3342.00
10.6206 3678.00
10.6858 3985.00
10.751 3250.00
10.8162 2728.00
10.8814 2840.00
10.9466 2713.00
11.0118 2754.00
11.077 2756.00
11.1422 2728.00
11.2074 2797.00
11.2726 2712.00
11.3378 2768.00
11.403 2803.00
11.4682 2661.00
11.5334 2654.00
11.5986 2605.00
11.6638 2671.00
11.729 2710.00
11.7942 2784.00
11.8594 2842.00
11.9246 3079.00
11.9898 3399.00
12.055 4040.00
12.1202 4841.00
12.1854 6131.00
12.2506 4978.00
12.3158 2957.00
12.381 2598.00
12.4462 2517.00
12.5114 2385.00
12.5766 2430.00
12.6418 2411.00
12.707 2482.00
12.7722 2400.00
12.8374 2381.00
12.9026 2436.00
12.9678 2460.00
13.033 2518.00
13.0982 2466.00
13.1634 2433.00
13.2286 2408.00
13.2938 2401.00
13.359 2305.00
13.4242 2355.00
13.4894 2240.00
13.5546 2375.00
13.6198 2239.00
13.685 2250.00
13.7502 2298.00
13.8154 2275.00
13.8805 2348.00
13.9457 2400.00
14.0109 2474.00
14.0761 2753.00
14.1413 2906.00
14.2065 2680.00
14.2717 2341.00
14.3369 2395.00
14.4021 2191.00
14.4673 2242.00
14.5325 2282.00
14.5977 2229.00
14.6629 2177.00
14.7281 2257.00
14.7933 2224.00
14.8585 2154.00
14.9237 2140.00
14.9889 2195.00
15.0541 2212.00
15.1193 2150.00
15.1845 2175.00
15.2497 2126.00
15.3149 2179.00
15.3801 2175.00
15.4453 2179.00
15.5105 2187.00
15.5757 2220.00
15.6409 2178.00
15.7061 2114.00
15.7713 2255.00
15.8365 2240.00
15.9017 2196.00
15.9669 2260.00
16.0321 2266.00
16.0973 2193.00
16.1625 2251.00
16.2277 2115.00
16.2929 2161.00
16.3581 2210.00
16.4233 2184.00
16.4885 2161.00
16.5537 2247.00
16.6189 2141.00
16.6841 2186.00
16.7493 2153.00
16.8145 2148.00
16.8797 2194.00
16.9449 2164.00
17.0101 2150.00
17.0753 2038.00
17.1405 2167.00
17.2057 2044.00
17.2709 2156.00
17.3361 2076.00
17.4013 2100.00
17.4665 2178.00
17.5317 2140.00
17.5969 2173.00
17.6621 2299.00
17.7273 2427.00
17.7925 2498.00
17.8577 2275.00
17.9229 2177.00
17.9881 2094.00
18.0533 2177.00
18.1185 2101.00
18.1837 1972.00
18.2489 2043.00
18.3141 2068.00
18.3793 2006.00
18.4445 1945.00
18.5097 2134.00
18.5749 2018.00
18.6401 2004.00
18.7052 1985.00
18.7704 2136.00
18.8356 2012.00
18.9008 2047.00
18.966 2030.00
19.0312 1994.00
19.0964 2038.00
19.1616 1952.00
19.2268 2092.00
19.292 2033.00
19.3572 2119.00
19.4224 2153.00
19.4876 2185.00
19.5528 2257.00
19.618 2660.00
19.6832 2729.00
19.7484 2969.00
19.8136 2799.00
19.8788 2918.00
19.944 3792.00
20.0092 4238.00
20.0744 3993.00
20.1396 2836.00
20.2048 2265.00
20.27 2097.00
20.3352 2075.00
20.4004 2064.00
20.4656 2073.00
20.5308 2049.00
20.596 2186.00
20.6612 2336.00
20.7264 2607.00
20.7916 3070.00
20.8568 3726.00
20.922 4239.00
20.9872 3618.00
21.0524 3354.00
21.1176 3243.00
21.1828 2475.00
21.248 1979.00
21.3132 2046.00
21.3784 2000.00
21.4436 1932.00
21.5088 1958.00
21.574 1906.00
21.6392 2021.00
21.7044 1905.00
21.7696 1976.00
21.8348 2027.00
21.9 2006.00
21.9652 2011.00
22.0304 1942.00
22.0956 1967.00
22.1608 2010.00
22.226 1986.00
22.2912 1964.00
22.3564 2083.00
22.4216 1983.00
22.4868 1943.00
22.552 2097.00
22.6172 1935.00
22.6824 2080.00
22.7476 2010.00
22.8128 2143.00
22.878 2435.00
22.9432 2441.00
23.0084 2918.00
23.0736 3625.00
23.1388 4230.00
23.204 4790.00
23.2692 5216.00
23.3344 4172.00
23.3996 2910.00
23.4647 2960.00
23.5299 3170.00
23.5951 3119.00
23.6603 2673.00
23.7255 2287.00
23.7907 2173.00
23.8559 2257.00
23.9211 2337.00
23.9863 2675.00
24.0515 3321.00
24.1167 4353.00
24.1819 5317.00
24.2471 4394.00
24.3123 3646.00
24.3775 3896.00
24.4427 3130.00
24.5079 2604.00
24.5731 2436.00
24.6383 2643.00
24.7035 3223.00
24.7687 3567.00
24.8339 3077.00
24.8991 2376.00
24.9643 2138.00
25.0295 1974.00
25.0947 2035.00
25.1599 2077.00
25.2251 1893.00
25.2903 1997.00
25.3555 2072.00
25.4207 2055.00
25.4859 2036.00
25.5511 2024.00
25.6163 1970.00
25.6815 1984.00
25.7467 1977.00
25.8119 1931.00
25.8771 2030.00
25.9423 1964.00
26.0075 2037.00
26.0727 1982.00
26.1379 2044.00
26.2031 1984.00
26.2683 2010.00
26.3335 1963.00
26.3987 2114.00
26.4639 1955.00
26.5291 1962.00
26.5943 1903.00
26.6595 1858.00
26.7247 1893.00
26.7899 1906.00
26.8551 1903.00
26.9203 1917.00
26.9855 1924.00
27.0507 1925.00
27.1159 1979.00
27.1811 1993.00
27.2463 1989.00
27.3115 2039.00
27.3767 1990.00
27.4419 1975.00
27.5071 1861.00
27.5723 1933.00
27.6375 1909.00
27.7027 1849.00
27.7679 1958.00
27.8331 2019.00
27.8983 2078.00
27.9635 2271.00
28.0287 2463.00
28.0939 2649.00
28.1591 2726.00
28.2243 2800.00
28.2894 3260.00
28.3546 4743.00
28.4198 7992.00
28.485 11639.00
28.5502 10262.00
28.6154 5632.00
28.6806 3212.00
28.7458 2493.00
28.811 2228.00
28.8762 2032.00
28.9414 1922.00
29.0066 1938.00
29.0718 1961.00
29.137 1916.00
29.2022 1899.00
29.2674 1935.00
29.3326 1819.00
29.3978 1889.00
29.463 1931.00
29.5282 1839.00
29.5934 1948.00
29.6586 1879.00
29.7238 1993.00
29.789 1852.00
29.8542 1855.00
29.9194 1908.00
29.9846 1924.00
30.0498 1931.00
30.115 1915.00
30.1802 2097.00
30.2454 2339.00
30.3106 2737.00
30.3758 2953.00
30.441 2996.00
30.5062 2569.00
30.5714 2290.00
30.6366 2493.00
30.7018 2777.00
30.767 3027.00
30.8322 2567.00
30.8974 2262.00
30.9626 2049.00
31.0278 2090.00
31.093 2295.00
31.1582 2420.00
31.2234 2469.00
31.2886 2548.00
31.3538 2630.00
31.419 3041.00
31.4842 3982.00
31.5494 5705.00
31.6146 8191.00
31.6798 11716.00
31.745 14072.00
31.8102 12158.00
31.8754 7207.00
31.9406 3731.00
32.0058 2554.00
32.071 2240.00
32.1362 2152.00
32.2014 1994.00
32.2666 1921.00
32.3318 1950.00
32.397 1898.00
32.4622 1871.00
32.5274 1798.00
32.5926 1820.00
32.6578 1794.00
32.723 1758.00
32.7882 1840.00
32.8534 1772.00
32.9186 1829.00
32.9838 1809.00
33.0489 1769.00
33.1141 1737.00
33.1793 1762.00
33.2445 1837.00
33.3097 1769.00
33.3749 1827.00
33.4401 1780.00
33.5053 1830.00
33.5705 1940.00
33.6357 1838.00
33.7009 1978.00
33.7661 2026.00
33.8313 2121.00
33.8965 2435.00
33.9617 3082.00
34.0269 4467.00
34.0921 7314.00
34.1573 10914.00
34.2225 10779.00
34.2877 9446.00
34.3529 9090.00
34.4181 9881.00
34.4833 8884.00
34.5485 6283.00
34.6137 4261.00
34.6789 3870.00
34.7441 3227.00
34.8093 2766.00
34.8745 2126.00
34.9397 1941.00
35.0049 1923.00
35.0701 1795.00
35.1353 1787.00
35.2005 1768.00
35.2657 1816.00
35.3309 1822.00
35.3961 1855.00
35.4613 2036.00
35.5265 2471.00
35.5917 3113.00
35.6569 2991.00
35.7221 2551.00
35.7873 2138.00
35.8525 1901.00
35.9177 1822.00
35.9829 1677.00
36.0481 1826.00
36.1133 1754.00
36.1785 1920.00
36.2437 1890.00
36.3089 1923.00
36.3741 1762.00
36.4393 1849.00
36.5045 1876.00
36.5697 1829.00
36.6349 1732.00
36.7001 1739.00
36.7653 1752.00
36.8305 1661.00
36.8957 1641.00
36.9609 1640.00
37.0261 1587.00
37.0913 1633.00
37.1565 1701.00
37.2217 1633.00
37.2869 1705.00
37.3521 1643.00
37.4173 1674.00
37.4825 1725.00
37.5477 1564.00
37.6129 1621.00
37.6781 1519.00
37.7433 1539.00
37.8085 1609.00
37.8736 1593.00
37.9388 1522.00
38.004 1617.00
38.0692 1508.00
38.1344 1543.00
38.1996 1514.00
38.2648 1563.00
38.33 1572.00
38.3952 1666.00
38.4604 1566.00
38.5256 1587.00
38.5908 1615.00
38.656 1598.00
38.7212 1685.00
38.7864 1928.00
38.8516 2201.00
38.9168 2003.00
38.982 1842.00
39.0472 1645.00
39.1124 1583.00
39.1776 1580.00
39.2428 1604.00
39.308 1527.00
39.3732 1565.00
39.4384 1566.00
39.5036 1600.00
39.5688 1613.00
39.634 1600.00
39.6992 1665.00
39.7644 1699.00
39.8296 1720.00
39.8948 1611.00
39.96 1565.00
40.0252 1573.00
40.0904 1601.00
40.1556 1688.00
40.2208 1672.00
40.286 1654.00
40.3512 1606.00
40.4164 1640.00
40.4816 1688.00
40.5468 1655.00
40.612 1652.00
40.6772 1695.00
40.7424 1652.00
40.8076 1794.00
40.8728 1848.00
40.938 2181.00
41.0032 2647.00
41.0684 2849.00
41.1336 2380.00
41.1988 1960.00
41.264 1876.00
41.3292 1874.00
41.3944 2132.00
41.4596 2274.00
41.5248 2467.00
41.59 2345.00
41.6552 2523.00
41.7204 2475.00
41.7856 2119.00
41.8508 1886.00
41.916 1629.00
41.9812 1736.00
42.0464 1696.00
42.1116 1858.00
42.1768 1963.00
42.242 1874.00
42.3072 1774.00
42.3724 1735.00
42.4376 1712.00
42.5028 1679.00
42.568 1738.00
42.6332 1525.00
42.6983 1509.00
42.7635 1458.00
42.8287 1522.00
42.8939 1532.00
42.9591 1488.00
43.0243 1547.00
43.0895 1583.00
43.1547 1551.00
43.2199 1620.00
43.2851 1676.00
43.3503 1651.00
43.4155 1711.00
43.4807 1728.00
43.5459 1779.00
43.6111 1767.00
43.6763 1679.00
43.7415 1627.00
43.8067 1551.00
43.8719 1531.00
43.9371 1610.00
44.0023 1578.00
44.0675 1646.00
44.1327 1500.00
44.1979 1514.00
44.2631 1411.00
44.3283 1501.00
44.3935 1614.00
44.4587 1437.00
44.5239 1594.00
44.5891 1575.00
44.6543 1663.00
44.7195 1584.00
44.7847 1549.00
44.8499 1619.00
44.9151 1613.00
44.9803 1713.00
45.0455 1978.00
45.1107 2241.00
45.1759 2218.00
45.2411 2071.00
45.3063 1766.00
45.3715 1641.00
45.4367 1549.00
45.5019 1484.00
45.5671 1598.00
45.6323 1598.00
45.6975 1776.00
45.7627 2003.00
45.8279 2255.00
45.8931 2132.00
45.9583 1982.00
46.0235 1651.00
46.0887 1655.00
46.1539 1651.00
46.2191 1689.00
46.2843 1754.00
46.3495 1832.00
46.4147 1880.00
46.4799 1957.00
46.5451 1974.00
46.6103 1917.00
46.6755 1703.00
46.7407 1656.00
46.8059 1650.00
46.8711 1757.00
46.9363 2084.00
47.0015 2654.00
47.0667 3123.00
47.1319 3472.00
47.1971 3708.00
47.2623 3369.00
47.3275 2668.00
47.3927 2279.00
47.4579 1823.00
47.523 1787.00
47.5882 1687.00
47.6534 1659.00
47.7186 1590.00
47.7838 1685.00
47.849 1632.00
47.9142 1609.00
47.9794 1589.00
48.0446 1526.00
48.1098 1521.00
48.175 1469.00
48.2402 1557.00
48.3054 1552.00
48.3706 1528.00
48.4358 1467.00
48.501 1501.00
48.5662 1453.00
48.6314 1519.00
48.6966 1519.00
48.7618 1637.00
48.827 1542.00
48.8922 1710.00
48.9574 1850.00
49.0226 2290.00
49.0878 2890.00
49.153 3207.00
49.2182 2927.00
49.2834 2545.00
49.3486 2298.00
49.4138 2303.00
49.479 2780.00
49.5442 3520.00
49.6094 2897.00
49.6746 2560.00
49.7398 2192.00
49.805 1734.00
49.8702 1634.00
49.9354 1585.00
50.0006 1524.00
50.0658 1624.00
50.131 1645.00
50.1962 1858.00
50.2614 2188.00
50.3266 3049.00
50.3918 4239.00
50.457 3820.00
50.5222 3372.00
50.5874 2592.00
50.6526 2205.00
50.7178 2207.00
50.783 2500.00
50.8482 2997.00
50.9134 2673.00
50.9786 2404.00
51.0438 2136.00
51.109 1793.00
51.1742 1735.00
51.2394 1715.00
51.3046 1671.00
51.3698 1841.00
51.435 2053.00
51.5002 2170.00
51.5654 1855.00
51.6306 1852.00
51.6958 1710.00
51.761 1611.00
51.8262 1606.00
51.8914 1571.00
51.9566 1635.00
52.0218 1826.00
52.087 1776.00
52.1522 1780.00
52.2174 1694.00
52.2826 1543.00
52.3477 1557.00
52.4129 1548.00
52.4781 1592.00
52.5433 1437.00
52.6085 1435.00
52.6737 1434.00
52.7389 1502.00
52.8041 1399.00
52.8693 1513.00
52.9345 1412.00
52.9997 1620.00
53.0649 1745.00
53.1301 1799.00
53.1953 1864.00
53.2605 1817.00
53.3257 1864.00
53.3909 1776.00
53.4561 1725.00
53.5213 1682.00
53.5865 1568.00
53.6517 1579.00
53.7169 1589.00
53.7821 1672.00
53.8473 1679.00
53.9125 1680.00
53.9777 1560.00
54.0429 1578.00
54.1081 1536.00
54.1733 1568.00
54.2385 1835.00
54.3037 2136.00
54.3689 2605.00
54.4341 2598.00
54.4993 2238.00
54.5645 2094.00
54.6297 1820.00
54.6949 1687.00
54.7601 1605.00
54.8253 1550.00
54.8905 1576.00
54.9557 1590.00
55.0209 1613.00
55.0861 1616.00
55.1513 1578.00
55.2165 1545.00
55.2817 1578.00
55.3469 1552.00
55.4121 1666.00
55.4773 1872.00
55.5425 2112.00
55.6077 2468.00
55.6729 2679.00
55.7381 2573.00
55.8033 2435.00
55.8685 2553.00
55.9337 2200.00
55.9989 2083.00
56.0641 2114.00
56.1293 2188.00
56.1945 2190.00
56.2597 1964.00
56.3249 1946.00
56.3901 1629.00
56.4553 1517.00
56.5205 1439.00
56.5857 1372.00
56.6509 1389.00
56.7161 1387.00
56.7813 1322.00
56.8465 1406.00
56.9117 1404.00
56.9769 1408.00
57.042 1311.00
57.1073 1315.00
57.1724 1344.00
57.2376 1424.00
57.3028 1498.00
57.368 1795.00
57.4332 2033.00
57.4984 1940.00
57.5636 1845.00
57.6288 1716.00
57.694 1486.00
57.7592 1414.00
57.8244 1429.00
57.8896 1495.00
57.9548 1416.00
58.02 1494.00
58.0852 1630.00
58.1504 1810.00
58.2156 1689.00
58.2808 1717.00
58.346 1646.00
58.4112 1538.00
58.4764 1723.00
58.5416 1805.00
58.6068 1672.00
58.672 1543.00
58.7372 1506.00
58.8024 1463.00
58.8676 1468.00
58.9328 1440.00
58.998 1483.00
59.0632 1542.00
59.1284 1662.00
59.1936 1856.00
59.2588 2140.00
59.324 2185.00
59.3892 2139.00
59.4544 2033.00
59.5196 1816.00
59.5848 1823.00
59.65 1709.00
59.7152 1596.00
59.7804 1610.00
59.8456 1591.00
59.9108 1741.00
59.976 1933.00
60.0412 2281.00
60.1064 2106.00
60.1716 2032.00
60.2368 2032.00
60.302 2060.00
60.3672 2060.00
60.4324 1807.00
60.4976 1797.00
60.5628 1592.00
60.628 1595.00
60.6932 1759.00
60.7584 1749.00
60.8236 1827.00
60.8888 2021.00
60.954 2156.00
61.0192 2250.00
61.0844 2306.00
61.1496 2024.00
61.2148 1906.00
61.28 1713.00
61.3452 1673.00
61.4104 1665.00
61.4756 1790.00
61.5408 2000.00
61.606 1960.00
61.6712 2065.00
61.7364 1836.00
61.8016 1710.00
61.8667 1676.00
61.932 1627.00
61.9971 1649.00
62.0623 1838.00
62.1275 2002.00
62.1927 2210.00
62.2579 2318.00
62.3231 2118.00
62.3883 1991.00
62.4535 1885.00
62.5187 1706.00
62.5839 1518.00
62.6491 1574.00
62.7143 1423.00
62.7795 1428.00
62.8447 1391.00
62.9099 1500.00
62.9751 1600.00
63.0403 1831.00
63.1055 2319.00
63.1707 2124.00
63.2359 1865.00
63.3011 1823.00
63.3663 1603.00
63.4315 1435.00
63.4967 1364.00
63.5619 1404.00
63.6271 1352.00
63.6923 1358.00
63.7575 1326.00
63.8227 1280.00
63.8879 1303.00
63.9531 1276.00
64.0183 1233.00
64.0835 1227.00
64.1487 1300.00
64.2139 1353.00
64.2791 1413.00
64.3443 1344.00
64.4095 1454.00
64.4747 1425.00
64.5399 1558.00
64.6051 1488.00
64.6703 1533.00
64.7355 1452.00
64.8007 1398.00
64.8659 1366.00
64.9311 1339.00
64.9963 1331.00
65.0615 1444.00
65.1267 1487.00
65.1919 1494.00
65.2571 1451.00
65.3223 1393.00
65.3875 1361.00
65.4527 1372.00
65.5179 1431.00
65.5831 1521.00
65.6483 1453.00
65.7135 1462.00
65.7787 1525.00
65.8439 1628.00
65.9091 1802.00
65.9743 2037.00
66.0395 1744.00
66.1047 1755.00
66.1699 1783.00
66.2351 1624.00
66.3003 1482.00
66.3655 1405.00
66.4307 1330.00
66.4959 1437.00
66.561 1337.00
66.6263 1388.00
66.6915 1348.00
66.7566 1301.00
66.8218 1304.00
66.887 1372.00
66.9522 1318.00
67.0174 1276.00
67.0826 1318.00
67.1478 1280.00
67.213 1311.00
67.2782 1187.00
67.3434 1222.00
67.4086 1220.00
67.4738 1280.00
67.539 1231.00
67.6042 1171.00
67.6694 1258.00
67.7346 1214.00
67.7998 1285.00
67.865 1246.00
67.9302 1257.00
67.9954 1239.00
68.0606 1258.00
68.1258 1288.00
68.191 1197.00
68.2562 1273.00
68.3214 1259.00
68.3866 1321.00
68.4518 1236.00
68.517 1213.00
68.5822 1213.00
68.6474 1230.00
68.7126 1187.00
68.7778 1085.00
68.843 1122.00
68.9082 1240.00
68.9734 1177.00
69.0386 1160.00
69.1038 1375.00
69.169 1388.00
69.2342 1371.00
69.2994 1229.00
69.3646 1338.00
69.4298 1350.00
69.495 1289.00
69.5602 1332.00
69.6254 1192.00
69.6906 1186.00
69.7558 1188.00
69.821 1233.00
69.8862 1281.00
69.9514 1261.00
70.0166 1201.00
70.0818 1186.00
70.147 1245.00
70.2122 1217.00
70.2774 1178.00
70.3426 1198.00
70.4078 1184.00
70.473 1295.00
70.5382 1237.00
70.6034 1195.00
70.6686 1198.00
70.7338 1254.00
70.799 1184.00
70.8642 1211.00
70.9294 1176.00
70.9946 1229.00
71.0598 1128.00
71.125 1222.00
71.1902 1341.00
71.2554 1413.00
71.3205 1467.00
71.3858 1610.00
71.451 1726.00
71.5162 1774.00
71.5813 1895.00
71.6465 1681.00
71.7117 1619.00
71.7769 1529.00
71.8421 1344.00
71.9073 1331.00
71.9725 1332.00
72.0377 1302.00
72.1029 1288.00
72.1681 1356.00
72.2333 1363.00
72.2985 1402.00
72.3637 1334.00
72.4289 1310.00
72.4941 1314.00
72.5593 1292.00
72.6245 1260.00
72.6897 1263.00
72.7549 1260.00
72.8201 1294.00
72.8853 1255.00
72.9505 1270.00
73.0157 1282.00
73.0809 1183.00
73.1461 1147.00
73.2113 1182.00
73.2765 1227.00
73.3417 1112.00
73.4069 1193.00
73.4721 1113.00
73.5373 1177.00
73.6025 1204.00
73.6677 1174.00
73.7329 1200.00
73.7981 1151.00
73.8633 1140.00
73.9285 1141.00
73.9937 1109.00
74.0589 1128.00
74.1241 1112.00
74.1893 1072.00
74.2545 1111.00
74.3197 1089.00
74.3849 1118.00
74.4501 1126.00
74.5153 1066.00
74.5805 1062.00
74.6457 1074.00
74.7109 1226.00
74.7761 1180.00
74.8413 1191.00
74.9065 1303.00
74.9717 1289.00
75.0369 1274.00
75.1021 1251.00
75.1673 1310.00
75.2325 1514.00
75.2977 1605.00
75.3629 1448.00
75.4281 1449.00
75.4933 1270.00
75.5585 1294.00
75.6237 1223.00
75.6889 1304.00
75.7541 1213.00
75.8193 1143.00
75.8845 1071.00
75.9497 1095.00
76.0149 1106.00
76.0801 1145.00
76.1452 1160.00
76.2104 1103.00
76.2756 1225.00
76.3409 1122.00
76.406 1156.00
76.4712 1152.00
76.5364 1189.00
76.6016 1228.00
76.6668 1265.00
76.732 1277.00
76.7972 1270.00
76.8624 1257.00
76.9276 1272.00
76.9928 1264.00
77.058 1168.00
77.1232 1112.00
77.1884 1217.00
77.2536 1106.00
77.3188 1177.00
77.384 1203.00
77.4492 1198.00
77.5144 1180.00
77.5796 1172.00
77.6448 1145.00
77.71 1177.00
77.7752 1176.00
77.8404 1224.00
77.9056 1194.00
77.9708 1137.00
78.036 1046.00
78.1012 1134.00
78.1664 1128.00
78.2316 1143.00
78.2968 1181.00
78.362 1148.00
78.4272 1199.00
78.4924 1160.00
78.5576 1124.00
78.6228 1101.00
78.688 1143.00
78.7532 1092.00
78.8184 1061.00
78.8836 1187.00
78.9488 1116.00
79.014 1133.00
79.0792 1287.00
79.1444 1307.00
79.2096 1316.00
79.2748 1219.00
79.34 1139.00
79.4052 1181.00
79.4704 1128.00
79.5356 1155.00
79.6008 1096.00
79.666 1128.00
79.7312 1180.00
79.7964 1148.00
79.8616 1123.00
79.9268 1148.00
79.992 1158.00
80.0572 1233.00
80.1224 1223.00
80.1876 1221.00
80.2528 1248.00
80.318 1225.00
80.3832 1217.00
80.4484 1255.00
80.5136 1208.00
80.5788 1223.00
80.644 1182.00
80.7092 1144.00
80.7744 1161.00
80.8396 1100.00
80.9048 1164.00
80.9699 1101.00
81.0351 1120.00
81.1003 1095.00
81.1655 1106.00
81.2307 1021.00
81.2959 1082.00
81.3611 1092.00
81.4263 1170.00
81.4915 1156.00
81.5567 1202.00
81.6219 1299.00
81.6871 1390.00
81.7523 1322.00
81.8175 1311.00
81.8827 1296.00
81.9479 1295.00
82.0131 1264.00
82.0783 1337.00
82.1435 1283.00
82.2087 1189.00
82.2739 1193.00
82.3391 1197.00
82.4043 1278.00
82.4695 1265.00
82.5347 1259.00
82.5999 1222.00
82.6651 1303.00
82.7303 1349.00
82.7955 1385.00
82.8607 1306.00
82.9259 1176.00
82.9911 1178.00
83.0563 1269.00
83.1215 1193.00
83.1867 1352.00
83.2519 1249.00
83.3171 1429.00
83.3823 1330.00
83.4475 1260.00
83.5127 1361.00
83.5779 1295.00
83.6431 1252.00
83.7083 1162.00
83.7735 1083.00
83.8387 1184.00
83.9039 1134.00
83.9691 1236.00
84.0343 1211.00
84.0995 1268.00
84.1647 1261.00
84.2299 1242.00
84.2951 1237.00
84.3603 1261.00
84.4255 1198.00
84.4907 1231.00
84.5559 1173.00
84.6211 1199.00
84.6863 1160.00
84.7515 1091.00
84.8167 1063.00
84.8819 1122.00
84.9471 1159.00
85.0123 1101.00
85.0775 1182.00
85.1427 1244.00
85.2079 1115.00
85.2731 1132.00
85.3383 1113.00
85.4035 1165.00
85.4687 1099.00
85.5339 1131.00
85.5991 1050.00
85.6643 1102.00
85.7295 1128.00
85.7946 1120.00
85.8598 1073.00
85.925 1077.00
85.9903 1038.00
86.0554 1107.00
86.1206 1123.00
86.1858 1181.00
86.251 1221.00
86.3162 1172.00
86.3814 1208.00
86.4466 1213.00
86.5118 1184.00
86.577 1144.00
86.6422 1203.00
86.7074 1182.00
86.7726 1106.00
86.8378 1132.00
86.903 1209.00
86.9682 1168.00
87.0334 1097.00
87.0986 1152.00
87.1638 1146.00
87.229 1043.00
87.2942 1177.00
87.3594 1136.00
87.4246 1090.00
87.4898 1142.00
87.555 1223.00
87.6202 1255.00
87.6854 1324.00
87.7506 1173.00
87.8158 1191.00
87.881 1217.00
87.9462 1166.00
88.0114 1169.00
88.0766 1203.00
88.1418 1225.00
88.207 1179.00
88.2722 1203.00
88.3374 1204.00
88.4026 1284.00
88.4678 1252.00
88.533 1193.00
88.5982 1291.00
88.6634 1301.00
88.7286 1354.00
88.7938 1343.00
88.859 1263.00
88.9242 1169.00
88.9894 1180.00
89.0546 1207.00
89.1198 1146.00
89.185 1150.00
89.2502 1077.00
89.3154 1045.00
89.3806 1099.00
89.4458 1119.00
89.511 1124.00
89.5762 1175.00
89.6414 1120.00
89.7066 1195.00
89.7718 1117.00
89.837 1256.00
89.9022 1291.00
89.9674 1380.00
90.0326 1374.00
90.0978 1360.00
90.163 1344.00
90.2282 1254.00
90.2934 1207.00
90.3586 1171.00
90.4238 1150.00
90.489 1146.00
90.5542 1066.00
90.6193 1106.00
90.6845 1132.00
90.7497 1153.00
90.8149 1145.00
90.8801 1102.00
90.9453 1094.00
91.0105 1081.00
91.0757 1129.00
91.1409 1096.00
91.2061 1095.00
91.2713 1136.00
91.3365 1164.00
91.4017 1154.00
91.4669 1139.00
91.5321 1150.00
91.5973 1176.00
91.6625 1052.00
91.7277 1136.00
91.7929 1121.00
91.8581 1123.00
91.9233 1013.00
91.9885 1076.00
92.0537 1093.00
92.1189 1129.00
92.1841 1161.00
92.2493 1159.00
92.3145 1181.00
92.3797 1162.00
92.4449 1096.00
92.5101 1105.00
92.5753 1072.00
92.6405 1074.00
92.7057 1075.00
92.7709 1127.00
92.8361 1025.00
92.9013 1021.00
92.9665 1093.00
93.0317 1097.00
93.0969 1063.00
93.1621 1063.00
93.2273 1049.00
93.2925 974.00
93.3577 1020.00
93.4229 1052.00
93.4881 1069.00
93.5533 1069.00
93.6185 1090.00
93.6837 1071.00
93.7489 1025.00
93.8141 1135.00
93.8793 1137.00
93.9445 1186.00
94.0097 1205.00
94.0749 1187.00
94.1401 1171.00
94.2053 1134.00
94.2705 1127.00
94.3357 1115.00
94.4009 1094.00
94.4661 1102.00
94.5313 1040.00
94.5965 1098.00
94.6617 1056.00
94.7269 1068.00
94.7921 1130.00
94.8573 1052.00
94.9225 1093.00
94.9877 1176.00
95.0529 1163.00
95.1181 1141.00
95.1833 1210.00
95.2485 1209.00
95.3137 1207.00
95.3789 1176.00
95.444 1232.00
95.5092 1146.00
95.5744 1176.00
95.6396 1121.00
95.7048 1117.00
95.77 1132.00
95.8352 1056.00
95.9004 1149.00
95.9656 1099.00
96.0308 1097.00
96.096 1076.00
96.1612 1077.00
96.2264 1165.00
96.2916 1161.00
96.3568 1242.00
96.422 1319.00
96.4872 1251.00
96.5524 1179.00
96.6176 1276.00
96.6828 1388.00
96.748 1337.00
96.8132 1255.00
96.8784 1230.00
96.9436 1215.00
97.0088 1337.00
97.074 1193.00
97.1392 1132.00
97.2044 1269.00
97.2696 1234.00
97.3348 1129.00
97.4 1148.00
97.4652 1066.00
97.5304 1102.00
97.5956 1133.00
97.6608 1123.00
97.726 1040.00
97.7912 998.00
97.8564 1036.00
97.9216 1001.00
97.9868 1081.00
98.052 1083.00
98.1172 1143.00
98.1824 1150.00
98.2476 1094.00
98.3128 1141.00
98.378 1079.00
98.4432 1130.00
98.5084 1152.00
98.5736 1010.00
98.6388 1088.00
98.704 1067.00
98.7692 1065.00
98.8344 1099.00
98.8996 1162.00
98.9648 1072.00
99.03 1087.00
99.0952 1192.00
99.1604 1070.00
99.2256 1088.00
99.2908 1101.00
99.356 1159.00
99.4212 1204.00
99.4864 1227.00
99.5516 1309.00
99.6168 1392.00
99.682 1303.00
99.7472 1220.00
99.8124 1215.00
99.8776 1248.00
99.9428 1186.00
100.008 1254.00
100.073 1192.00
100.095 1156.00