File: data/xrd_creation/results/Na_303.xy
9.903433 3336.00
9.968632 3428.00
10.0338 3404.00
10.099 3409.00
10.1642 3469.00
10.2294 3247.00
10.2946 3342.00
10.3598 3348.00
10.425 3265.00
10.4902 3207.00
10.5554 3224.00
10.6206 3258.00
10.6858 3293.00
10.751 3204.00
10.8162 3241.00
10.8814 3349.00
10.9466 3132.00
11.0118 3263.00
11.077 3164.00
11.1422 3232.00
11.2074 3038.00
11.2726 3149.00
11.3378 3094.00
11.403 3215.00
11.4682 3017.00
11.5334 3145.00
11.5986 3157.00
11.6638 3018.00
11.729 3205.00
11.7942 3152.00
11.8594 3132.00
11.9246 3083.00
11.9898 3117.00
12.055 3120.00
12.1202 3049.00
12.1854 3083.00
12.2506 3164.00
12.3158 2983.00
12.381 3099.00
12.4462 3030.00
12.5114 3010.00
12.5766 3053.00
12.6418 3018.00
12.707 3053.00
12.7722 3087.00
12.8374 3063.00
12.9026 3134.00
12.9678 3242.00
13.033 3280.00
13.0982 3257.00
13.1634 3179.00
13.2286 3213.00
13.2938 3176.00
13.359 3268.00
13.4242 3213.00
13.4894 3209.00
13.5546 3038.00
13.6198 2949.00
13.685 2902.00
13.7502 2886.00
13.8154 2957.00
13.8805 2950.00
13.9457 2912.00
14.0109 2918.00
14.0761 2967.00
14.1413 3003.00
14.2065 2868.00
14.2717 2859.00
14.3369 2990.00
14.4021 2862.00
14.4673 2969.00
14.5325 2912.00
14.5977 2902.00
14.6629 2900.00
14.7281 3045.00
14.7933 2894.00
14.8585 2875.00
14.9237 2953.00
14.9889 2979.00
15.0541 2984.00
15.1193 3003.00
15.1845 2906.00
15.2497 2947.00
15.3149 2930.00
15.3801 2980.00
15.4453 2918.00
15.5105 2965.00
15.5757 3036.00
15.6409 2921.00
15.7061 2885.00
15.7713 2942.00
15.8365 2980.00
15.9017 2882.00
15.9669 2981.00
16.0321 2965.00
16.0973 3052.00
16.1625 2962.00
16.2277 2922.00
16.2929 3026.00
16.3581 2924.00
16.4233 3084.00
16.4885 3014.00
16.5537 2859.00
16.6189 2953.00
16.6841 2995.00
16.7493 2916.00
16.8145 3076.00
16.8797 3034.00
16.9449 2847.00
17.0101 3035.00
17.0753 3029.00
17.1405 2924.00
17.2057 2964.00
17.2709 2985.00
17.3361 2938.00
17.4013 2941.00
17.4665 2942.00
17.5317 2907.00
17.5969 2992.00
17.6621 2982.00
17.7273 3013.00
17.7925 2987.00
17.8577 2965.00
17.9229 3005.00
17.9881 3019.00
18.0533 2880.00
18.1185 3009.00
18.1837 2801.00
18.2489 2986.00
18.3141 2884.00
18.3793 2907.00
18.4445 3001.00
18.5097 2981.00
18.5749 2905.00
18.6401 2895.00
18.7052 2997.00
18.7704 2929.00
18.8356 2937.00
18.9008 2888.00
18.966 2844.00
19.0312 2832.00
19.0964 3030.00
19.1616 2921.00
19.2268 2954.00
19.292 2910.00
19.3572 2874.00
19.4224 3004.00
19.4876 2934.00
19.5528 2976.00
19.618 2909.00
19.6832 2897.00
19.7484 2994.00
19.8136 2971.00
19.8788 2880.00
19.944 2966.00
20.0092 2906.00
20.0744 3015.00
20.1396 2953.00
20.2048 3109.00
20.27 3032.00
20.3352 3028.00
20.4004 2946.00
20.4656 3044.00
20.5308 3058.00
20.596 3130.00
20.6612 3175.00
20.7264 3437.00
20.7916 3895.00
20.8568 4441.00
20.922 5287.00
20.9872 6753.00
21.0524 7490.00
21.1176 5767.00
21.1828 3757.00
21.248 3088.00
21.3132 3022.00
21.3784 2978.00
21.4436 3035.00
21.5088 3056.00
21.574 3027.00
21.6392 2980.00
21.7044 3108.00
21.7696 3065.00
21.8348 3086.00
21.9 2946.00
21.9652 2906.00
22.0304 2991.00
22.0956 3102.00
22.1608 2989.00
22.226 2897.00
22.2912 2994.00
22.3564 2908.00
22.4216 2952.00
22.4868 2963.00
22.552 2907.00
22.6172 2909.00
22.6824 2919.00
22.7476 2882.00
22.8128 2952.00
22.878 2896.00
22.9432 2982.00
23.0084 2889.00
23.0736 2912.00
23.1388 2890.00
23.204 2839.00
23.2692 2877.00
23.3344 2912.00
23.3996 2988.00
23.4647 3012.00
23.5299 2951.00
23.5951 3145.00
23.6603 3295.00
23.7255 3364.00
23.7907 3281.00
23.8559 3199.00
23.9211 3366.00
23.9863 3485.00
24.0515 3507.00
24.1167 3461.00
24.1819 3295.00
24.2471 3410.00
24.3123 3467.00
24.3775 3478.00
24.4427 3491.00
24.5079 3221.00
24.5731 3161.00
24.6383 2960.00
24.7035 2970.00
24.7687 2845.00
24.8339 2905.00
24.8991 2833.00
24.9643 2838.00
25.0295 2868.00
25.0947 2822.00
25.1599 2858.00
25.2251 2789.00
25.2903 2793.00
25.3555 2819.00
25.4207 2810.00
25.4859 2895.00
25.5511 2957.00
25.6163 2747.00
25.6815 2836.00
25.7467 2868.00
25.8119 2809.00
25.8771 2953.00
25.9423 2972.00
26.0075 2919.00
26.0727 2883.00
26.1379 2848.00
26.2031 2916.00
26.2683 2842.00
26.3335 2834.00
26.3987 2784.00
26.4639 2830.00
26.5291 2827.00
26.5943 2901.00
26.6595 2867.00
26.7247 2722.00
26.7899 2905.00
26.8551 2962.00
26.9203 2788.00
26.9855 2790.00
27.0507 2882.00
27.1159 2779.00
27.1811 2850.00
27.2463 2800.00
27.3115 2845.00
27.3767 2732.00
27.4419 2815.00
27.5071 2857.00
27.5723 2816.00
27.6375 2788.00
27.7027 2831.00
27.7679 2690.00
27.8331 2769.00
27.8983 2866.00
27.9635 2790.00
28.0287 2876.00
28.0939 2868.00
28.1591 2754.00
28.2243 2729.00
28.2894 2744.00
28.3546 2866.00
28.4198 2783.00
28.485 2833.00
28.5502 2746.00
28.6154 2785.00
28.6806 2724.00
28.7458 2771.00
28.811 2791.00
28.8762 2810.00
28.9414 2775.00
29.0066 2800.00
29.0718 2829.00
29.137 2735.00
29.2022 2812.00
29.2674 2898.00
29.3326 2756.00
29.3978 2812.00
29.463 2748.00
29.5282 2871.00
29.5934 2941.00
29.6586 2996.00
29.7238 2915.00
29.789 2880.00
29.8542 2926.00
29.9194 2755.00
29.9846 2877.00
30.0498 2746.00
30.115 2894.00
30.1802 2724.00
30.2454 2763.00
30.3106 2740.00
30.3758 2761.00
30.441 2796.00
30.5062 2704.00
30.5714 2792.00
30.6366 2803.00
30.7018 2806.00
30.767 2698.00
30.8322 2779.00
30.8974 2770.00
30.9626 2850.00
31.0278 2918.00
31.093 2948.00
31.1582 2765.00
31.2234 2756.00
31.2886 2797.00
31.3538 2740.00
31.419 2676.00
31.4842 2892.00
31.5494 2866.00
31.6146 2880.00
31.6798 2908.00
31.745 2956.00
31.8102 3081.00
31.8754 3520.00
31.9406 3536.00
32.0058 3327.00
32.071 3200.00
32.1362 2851.00
32.2014 2836.00
32.2666 2920.00
32.3318 3022.00
32.397 3067.00
32.4622 2836.00
32.5274 2818.00
32.5926 2889.00
32.6578 2732.00
32.723 2913.00
32.7882 3072.00
32.8534 3288.00
32.9186 3335.00
32.9838 3143.00
33.0489 3259.00
33.1141 3204.00
33.1793 3193.00
33.2445 3411.00
33.3097 3982.00
33.3749 4706.00
33.4401 4762.00
33.5053 4062.00
33.5705 3266.00
33.6357 2955.00
33.7009 2852.00
33.7661 2952.00
33.8313 2933.00
33.8965 2915.00
33.9617 2960.00
34.0269 2950.00
34.0921 2979.00
34.1573 3162.00
34.2225 3331.00
34.2877 4357.00
34.3529 5952.00
34.4181 8879.00
34.4833 10813.00
34.5485 9197.00
34.6137 5964.00
34.6789 4123.00
34.7441 3835.00
34.8093 3779.00
34.8745 3605.00
34.9397 3206.00
35.0049 2999.00
35.0701 3003.00
35.1353 3032.00
35.2005 3325.00
35.2657 3413.00
35.3309 3306.00
35.3961 3037.00
35.4613 2933.00
35.5265 2823.00
35.5917 2828.00
35.6569 2962.00
35.7221 3142.00
35.7873 3612.00
35.8525 4395.00
35.9177 4312.00
35.9829 3726.00
36.0481 3127.00
36.1133 2802.00
36.1785 2889.00
36.2437 2742.00
36.3089 2757.00
36.3741 2789.00
36.4393 2772.00
36.5045 2810.00
36.5697 2777.00
36.6349 2704.00
36.7001 2706.00
36.7653 2838.00
36.8305 2817.00
36.8957 2782.00
36.9609 2774.00
37.0261 2774.00
37.0913 2687.00
37.1565 2834.00
37.2217 2713.00
37.2869 2777.00
37.3521 2783.00
37.4173 2647.00
37.4825 2718.00
37.5477 2747.00
37.6129 2806.00
37.6781 2662.00
37.7433 2765.00
37.8085 2776.00
37.8736 2623.00
37.9388 2696.00
38.004 2816.00
38.0692 2715.00
38.1344 2935.00
38.1996 2879.00
38.2648 2907.00
38.33 2917.00
38.3952 2964.00
38.4604 2899.00
38.5256 2765.00
38.5908 2737.00
38.656 2756.00
38.7212 2716.00
38.7864 2775.00
38.8516 2757.00
38.9168 2732.00
38.982 2662.00
39.0472 2765.00
39.1124 2773.00
39.1776 2741.00
39.2428 2780.00
39.308 2693.00
39.3732 2710.00
39.4384 2794.00
39.5036 2853.00
39.5688 2840.00
39.634 2804.00
39.6992 2893.00
39.7644 2949.00
39.8296 2850.00
39.8948 2748.00
39.96 2782.00
40.0252 2826.00
40.0904 2828.00
40.1556 2846.00
40.2208 2788.00
40.286 2706.00
40.3512 2897.00
40.4164 2824.00
40.4816 2796.00
40.5468 2843.00
40.612 2840.00
40.6772 2817.00
40.7424 2840.00
40.8076 2848.00
40.8728 2765.00
40.938 2895.00
41.0032 3123.00
41.0684 3184.00
41.1336 3203.00
41.1988 3080.00
41.264 2971.00
41.3292 2893.00
41.3944 2778.00
41.4596 2801.00
41.5248 2819.00
41.59 2898.00
41.6552 2912.00
41.7204 2835.00
41.7856 2916.00
41.8508 2855.00
41.916 2804.00
41.9812 2895.00
42.0464 2754.00
42.1116 2825.00
42.1768 2694.00
42.242 2842.00
42.3072 2808.00
42.3724 2897.00
42.4376 3108.00
42.5028 3174.00
42.568 3033.00
42.6332 2982.00
42.6983 2872.00
42.7635 2873.00
42.8287 2810.00
42.8939 2844.00
42.9591 2797.00
43.0243 2791.00
43.0895 2745.00
43.1547 2771.00
43.2199 2754.00
43.2851 2807.00
43.3503 2753.00
43.4155 2791.00
43.4807 2837.00
43.5459 2840.00
43.6111 2849.00
43.6763 2792.00
43.7415 2741.00
43.8067 2745.00
43.8719 2738.00
43.9371 2746.00
44.0023 2663.00
44.0675 2761.00
44.1327 2764.00
44.1979 2722.00
44.2631 2765.00
44.3283 2806.00
44.3935 2809.00
44.4587 2777.00
44.5239 2741.00
44.5891 2671.00
44.6543 2789.00
44.7195 2800.00
44.7847 2799.00
44.8499 2706.00
44.9151 2750.00
44.9803 2670.00
45.0455 2656.00
45.1107 2702.00
45.1759 2696.00
45.2411 2675.00
45.3063 2839.00
45.3715 2671.00
45.4367 2773.00
45.5019 2698.00
45.5671 2799.00
45.6323 2729.00
45.6975 2717.00
45.7627 2730.00
45.8279 2721.00
45.8931 2714.00
45.9583 2758.00
46.0235 2827.00
46.0887 2766.00
46.1539 2761.00
46.2191 2668.00
46.2843 2695.00
46.3495 2664.00
46.4147 2701.00
46.4799 2740.00
46.5451 2708.00
46.6103 2725.00
46.6755 2748.00
46.7407 2690.00
46.8059 2707.00
46.8711 2733.00
46.9363 2718.00
47.0015 2712.00
47.0667 2736.00
47.1319 2769.00
47.1971 2741.00
47.2623 2671.00
47.3275 2656.00
47.3927 2713.00
47.4579 2767.00
47.523 2713.00
47.5882 2678.00
47.6534 2772.00
47.7186 2683.00
47.7838 2779.00
47.849 2747.00
47.9142 2671.00
47.9794 2748.00
48.0446 2874.00
48.1098 2964.00
48.175 2969.00
48.2402 3085.00
48.3054 2942.00
48.3706 2803.00
48.4358 2866.00
48.501 2794.00
48.5662 2761.00
48.6314 2920.00
48.6966 3002.00
48.7618 3037.00
48.827 2979.00
48.8922 3054.00
48.9574 2917.00
49.0226 2805.00
49.0878 2875.00
49.153 2848.00
49.2182 2951.00
49.2834 3301.00
49.3486 3890.00
49.4138 4323.00
49.479 4099.00
49.5442 3987.00
49.6094 3745.00
49.6746 3708.00
49.7398 3552.00
49.805 3262.00
49.8702 2946.00
49.9354 2943.00
50.0006 2817.00
50.0658 2856.00
50.131 2809.00
50.1962 2749.00
50.2614 2728.00
50.3266 2696.00
50.3918 2699.00
50.457 2860.00
50.5222 2756.00
50.5874 2760.00
50.6526 2682.00
50.7178 2789.00
50.783 2788.00
50.8482 2728.00
50.9134 2772.00
50.9786 2699.00
51.0438 2720.00
51.109 2712.00
51.1742 2670.00
51.2394 2636.00
51.3046 2718.00
51.3698 2763.00
51.435 2724.00
51.5002 2676.00
51.5654 2643.00
51.6306 2788.00
51.6958 2640.00
51.761 2729.00
51.8262 2641.00
51.8914 2753.00
51.9566 2668.00
52.0218 2601.00
52.087 2747.00
52.1522 2690.00
52.2174 2707.00
52.2826 2735.00
52.3477 2690.00
52.4129 2750.00
52.4781 2766.00
52.5433 2783.00
52.6085 2755.00
52.6737 2674.00
52.7389 2791.00
52.8041 2773.00
52.8693 2732.00
52.9345 2741.00
52.9997 2754.00
53.0649 2794.00
53.1301 2827.00
53.1953 2718.00
53.2605 2781.00
53.3257 2729.00
53.3909 2844.00
53.4561 2812.00
53.5213 2716.00
53.5865 2720.00
53.6517 2707.00
53.7169 2796.00
53.7821 2781.00
53.8473 2778.00
53.9125 2939.00
53.9777 2830.00
54.0429 2816.00
54.1081 2981.00
54.1733 3090.00
54.2385 3517.00
54.3037 3652.00
54.3689 3424.00
54.4341 3301.00
54.4993 3082.00
54.5645 2929.00
54.6297 2757.00
54.6949 2771.00
54.7601 2732.00
54.8253 2861.00
54.8905 2775.00
54.9557 2666.00
55.0209 2763.00
55.0861 2692.00
55.1513 2735.00
55.2165 2729.00
55.2817 2765.00
55.3469 2695.00
55.4121 2689.00
55.4773 2803.00
55.5425 2689.00
55.6077 2845.00
55.6729 2732.00
55.7381 2760.00
55.8033 2785.00
55.8685 2836.00
55.9337 2782.00
55.9989 2768.00
56.0641 2755.00
56.1293 2796.00
56.1945 2685.00
56.2597 2717.00
56.3249 2667.00
56.3901 2770.00
56.4553 2789.00
56.5205 2784.00
56.5857 2685.00
56.6509 2819.00
56.7161 2777.00
56.7813 2762.00
56.8465 2752.00
56.9117 2776.00
56.9769 2721.00
57.042 2684.00
57.1073 2744.00
57.1724 2771.00
57.2376 2685.00
57.3028 2796.00
57.368 2854.00
57.4332 2766.00
57.4984 2937.00
57.5636 2814.00
57.6288 2872.00
57.694 2833.00
57.7592 2988.00
57.8244 2976.00
57.8896 2839.00
57.9548 2902.00
58.02 2753.00
58.0852 2727.00
58.1504 2779.00
58.2156 2722.00
58.2808 2753.00
58.346 2776.00
58.4112 2675.00
58.4764 2736.00
58.5416 2637.00
58.6068 2599.00
58.672 2693.00
58.7372 2701.00
58.8024 2646.00
58.8676 2655.00
58.9328 2728.00
58.998 2731.00
59.0632 2636.00
59.1284 2779.00
59.1936 2565.00
59.2588 2829.00
59.324 2744.00
59.3892 2736.00
59.4544 2649.00
59.5196 2770.00
59.5848 2752.00
59.65 2696.00
59.7152 2773.00
59.7804 2766.00
59.8456 2683.00
59.9108 2778.00
59.976 2717.00
60.0412 2836.00
60.1064 2693.00
60.1716 2672.00
60.2368 2703.00
60.302 2789.00
60.3672 2739.00
60.4324 2621.00
60.4976 2764.00
60.5628 2853.00
60.628 2841.00
60.6932 2795.00
60.7584 2778.00
60.8236 2951.00
60.8888 2981.00
60.954 2915.00
61.0192 2981.00
61.0844 2944.00
61.1496 3043.00
61.2148 2970.00
61.28 3116.00
61.3452 3260.00
61.4104 3706.00
61.4756 4332.00
61.5408 4169.00
61.606 3881.00
61.6712 3710.00
61.7364 3360.00
61.8016 3039.00
61.8667 2877.00
61.932 2926.00
61.9971 2826.00
62.0623 2745.00
62.1275 2787.00
62.1927 2764.00
62.2579 2786.00
62.3231 2773.00
62.3883 2950.00
62.4535 2855.00
62.5187 3135.00
62.5839 3289.00
62.6491 3320.00
62.7143 3219.00
62.7795 3286.00
62.8447 2926.00
62.9099 2858.00
62.9751 2747.00
63.0403 2820.00
63.1055 2831.00
63.1707 2731.00
63.2359 2769.00
63.3011 2752.00
63.3663 2723.00
63.4315 2772.00
63.4967 2750.00
63.5619 2810.00
63.6271 2747.00
63.6923 2797.00
63.7575 2847.00
63.8227 2792.00
63.8879 2859.00
63.9531 2684.00
64.0183 2812.00
64.0835 2896.00
64.1487 3310.00
64.2139 3323.00
64.2791 3093.00
64.3443 3031.00
64.4095 3009.00
64.4747 3016.00
64.5399 2742.00
64.6051 2862.00
64.6703 2775.00
64.7355 2664.00
64.8007 2746.00
64.8659 2770.00
64.9311 2805.00
64.9963 2770.00
65.0615 2751.00
65.1267 2732.00
65.1919 2738.00
65.2571 2737.00
65.3223 2753.00
65.3875 2805.00
65.4527 2748.00
65.5179 2882.00
65.5831 2895.00
65.6483 2943.00
65.7135 2944.00
65.7787 2819.00
65.8439 2849.00
65.9091 2816.00
65.9743 2803.00
66.0395 2803.00
66.1047 2697.00
66.1699 2662.00
66.2351 2749.00
66.3003 2650.00
66.3655 2806.00
66.4307 2775.00
66.4959 2775.00
66.561 2676.00
66.6263 2713.00
66.6915 2777.00
66.7566 2651.00
66.8218 2608.00
66.887 2667.00
66.9522 2745.00
67.0174 2739.00
67.0826 2830.00
67.1478 2728.00
67.213 2672.00
67.2782 2699.00
67.3434 2738.00
67.4086 2788.00
67.4738 2789.00
67.539 2812.00
67.6042 2763.00
67.6694 2782.00
67.7346 2763.00
67.7998 2638.00
67.865 2812.00
67.9302 2692.00
67.9954 2679.00
68.0606 2687.00
68.1258 2796.00
68.191 2697.00
68.2562 2783.00
68.3214 2862.00
68.3866 2792.00
68.4518 2761.00
68.517 2625.00
68.5822 2785.00
68.6474 2689.00
68.7126 2630.00
68.7778 2678.00
68.843 2695.00
68.9082 2779.00
68.9734 2740.00
69.0386 2691.00
69.1038 2640.00
69.169 2658.00
69.2342 2684.00
69.2994 2731.00
69.3646 2650.00
69.4298 2808.00
69.495 2749.00
69.5602 2691.00
69.6254 2736.00
69.6906 2781.00
69.7558 2702.00
69.821 2705.00
69.8862 2796.00
69.9514 2786.00
70.0166 2781.00
70.0818 2679.00
70.147 2697.00
70.2122 2690.00
70.2774 2657.00
70.3426 2795.00
70.4078 2746.00
70.473 2767.00
70.5382 2716.00
70.6034 2739.00
70.6686 2805.00
70.7338 2789.00
70.799 2685.00
70.8642 2745.00
70.9294 2717.00
70.9946 2795.00
71.0598 2666.00
71.125 2730.00
71.1902 2785.00
71.2554 2753.00
71.3205 2793.00
71.3858 2775.00
71.451 2731.00
71.5162 2748.00
71.5813 2772.00
71.6465 2711.00
71.7117 2763.00
71.7769 2701.00
71.8421 2705.00
71.9073 2741.00
71.9725 2751.00
72.0377 2859.00
72.1029 3049.00
72.1681 3120.00
72.2333 3062.00
72.2985 3239.00
72.3637 3210.00
72.4289 3060.00
72.4941 3167.00
72.5593 2988.00
72.6245 2846.00
72.6897 2827.00
72.7549 2890.00
72.8201 2798.00
72.8853 2769.00
72.9505 2770.00
73.0157 2744.00
73.0809 2712.00
73.1461 2762.00
73.2113 2658.00
73.2765 2796.00
73.3417 2803.00
73.4069 2791.00
73.4721 2624.00
73.5373 2634.00
73.6025 2763.00
73.6677 2767.00
73.7329 2811.00
73.7981 2625.00
73.8633 2697.00
73.9285 2838.00
73.9937 2712.00
74.0589 2646.00
74.1241 2713.00
74.1893 2725.00
74.2545 2659.00
74.3197 2784.00
74.3849 2754.00
74.4501 2646.00
74.5153 2724.00
74.5805 2700.00
74.6457 2851.00
74.7109 2785.00
74.7761 2777.00
74.8413 2795.00
74.9065 2791.00
74.9717 2807.00
75.0369 2767.00
75.1021 2727.00
75.1673 2716.00
75.2325 2619.00
75.2977 2684.00
75.3629 2735.00
75.4281 2687.00
75.4933 2639.00
75.5585 2771.00
75.6237 2829.00
75.6889 2805.00
75.7541 2855.00
75.8193 2787.00
75.8845 2775.00
75.9497 2747.00
76.0149 2827.00
76.0801 2819.00
76.1452 2825.00
76.2104 2767.00
76.2756 2636.00
76.3409 2816.00
76.406 2790.00
76.4712 2785.00
76.5364 2775.00
76.6016 2652.00
76.6668 2772.00
76.732 2653.00
76.7972 2648.00
76.8624 2746.00
76.9276 2732.00
76.9928 2740.00
77.058 2697.00
77.1232 2714.00
77.1884 2787.00
77.2536 2752.00
77.3188 2686.00
77.384 2724.00
77.4492 2782.00
77.5144 2655.00
77.5796 2732.00
77.6448 2734.00
77.71 2845.00
77.7752 2755.00
77.8404 2746.00
77.9056 2752.00
77.9708 2753.00
78.036 2687.00
78.1012 2665.00
78.1664 2709.00
78.2316 2686.00
78.2968 2673.00
78.362 2745.00
78.4272 2643.00
78.4924 2741.00
78.5576 2748.00
78.6228 2806.00
78.688 2733.00
78.7532 2687.00
78.8184 2662.00
78.8836 2790.00
78.9488 2810.00
79.014 2808.00
79.0792 2654.00
79.1444 2878.00
79.2096 2798.00
79.2748 2815.00
79.34 2680.00
79.4052 2696.00
79.4704 2763.00
79.5356 2673.00
79.6008 2757.00
79.666 2773.00
79.7312 2694.00
79.7964 2722.00
79.8616 2715.00
79.9268 2696.00
79.992 2682.00
80.0572 2676.00
80.1224 2762.00
80.1876 2710.00
80.2528 2716.00
80.318 2713.00
80.3832 2728.00
80.4484 2786.00
80.5136 2704.00
80.5788 2699.00
80.644 2753.00
80.7092 2710.00
80.7744 2919.00
80.8396 2842.00
80.9048 2763.00
80.9699 2837.00
81.0351 2830.00
81.1003 2774.00
81.1655 2806.00
81.2307 2736.00
81.2959 2717.00
81.3611 2798.00
81.4263 2730.00
81.4915 2858.00
81.5567 2774.00
81.6219 2703.00
81.6871 2754.00
81.7523 2707.00
81.8175 2735.00
81.8827 2729.00
81.9479 2781.00
82.0131 2763.00
82.0783 2778.00
82.1435 2778.00
82.2087 2795.00
82.2739 2737.00
82.3391 2908.00
82.4043 2854.00
82.4695 2977.00
82.5347 3030.00
82.5999 2862.00
82.6651 2856.00
82.7303 2769.00
82.7955 2906.00
82.8607 2857.00
82.9259 2699.00
82.9911 2830.00
83.0563 2843.00
83.1215 2869.00
83.1867 2840.00
83.2519 2845.00
83.3171 2837.00
83.3823 2801.00
83.4475 2786.00
83.5127 2716.00
83.5779 2747.00
83.6431 2752.00
83.7083 2739.00
83.7735 2801.00
83.8387 2777.00
83.9039 2669.00
83.9691 2727.00
84.0343 2752.00
84.0995 2661.00
84.1647 2821.00
84.2299 2790.00
84.2951 2697.00
84.3603 2786.00
84.4255 2670.00
84.4907 2796.00
84.5559 2773.00
84.6211 2773.00
84.6863 2666.00
84.7515 2779.00
84.8167 2758.00
84.8819 2798.00
84.9471 2772.00
85.0123 2822.00
85.0775 2825.00
85.1427 2948.00
85.2079 2817.00
85.2731 2865.00
85.3383 2780.00
85.4035 2806.00
85.4687 2801.00
85.5339 2765.00
85.5991 2710.00
85.6643 2757.00
85.7295 2710.00
85.7946 2830.00
85.8598 2881.00
85.925 2751.00
85.9903 2744.00
86.0554 2903.00
86.1206 2790.00
86.1858 2758.00
86.251 2676.00
86.3162 2727.00
86.3814 2766.00
86.4466 2822.00
86.5118 2803.00
86.577 2737.00
86.6422 2727.00
86.7074 2841.00
86.7726 2776.00
86.8378 2713.00
86.903 2806.00
86.9682 2831.00
87.0334 2716.00
87.0986 2761.00
87.1638 2728.00
87.229 2774.00
87.2942 2731.00
87.3594 2701.00
87.4246 2776.00
87.4898 2692.00
87.555 2862.00
87.6202 2775.00
87.6854 2811.00
87.7506 2882.00
87.8158 2869.00
87.881 2769.00
87.9462 2775.00
88.0114 2887.00
88.0766 2773.00
88.1418 2780.00
88.207 2711.00
88.2722 2804.00
88.3374 2718.00
88.4026 2753.00
88.4678 2762.00
88.533 2844.00
88.5982 2771.00
88.6634 2849.00
88.7286 3002.00
88.7938 2896.00
88.859 2896.00
88.9242 2856.00
88.9894 2849.00
89.0546 2807.00
89.1198 2909.00
89.185 2808.00
89.2502 2702.00
89.3154 2760.00
89.3806 2727.00
89.4458 2830.00
89.511 2789.00
89.5762 2657.00
89.6414 2815.00
89.7066 2767.00
89.7718 2836.00
89.837 2756.00
89.9022 2794.00
89.9674 2874.00
90.0326 2640.00
90.0978 2734.00
90.163 2793.00
90.2282 2722.00
90.2934 2764.00
90.3586 2727.00
90.4238 2738.00
90.489 2849.00
90.5542 2814.00
90.6193 2807.00
90.6845 2709.00
90.7497 2810.00
90.8149 2791.00
90.8801 2731.00
90.9453 2707.00
91.0105 2772.00
91.0757 2702.00
91.1409 2852.00
91.2061 2815.00
91.2713 2851.00
91.3365 2728.00
91.4017 2754.00
91.4669 2809.00
91.5321 2769.00
91.5973 2663.00
91.6625 2857.00
91.7277 2778.00
91.7929 2820.00
91.8581 2775.00
91.9233 2773.00
91.9885 2768.00
92.0537 2827.00
92.1189 2777.00
92.1841 2769.00
92.2493 2752.00
92.3145 2832.00
92.3797 2831.00
92.4449 2817.00
92.5101 2792.00
92.5753 2918.00
92.6405 2730.00
92.7057 2762.00
92.7709 2895.00
92.8361 2817.00
92.9013 2671.00
92.9665 2852.00
93.0317 2759.00
93.0969 2744.00
93.1621 2685.00
93.2273 2864.00
93.2925 2721.00
93.3577 2793.00
93.4229 2787.00
93.4881 2750.00
93.5533 2862.00
93.6185 2839.00
93.6837 2721.00
93.7489 2898.00
93.8141 2832.00
93.8793 2925.00
93.9445 2931.00
94.0097 2846.00
94.0749 2812.00
94.1401 2804.00
94.2053 2896.00
94.2705 2781.00
94.3357 2811.00
94.4009 2772.00
94.4661 2887.00
94.5313 2827.00
94.5965 2894.00
94.6617 2768.00
94.7269 2734.00
94.7921 2794.00
94.8573 2793.00
94.9225 2747.00
94.9877 2751.00
95.0529 2810.00
95.1181 2706.00
95.1833 2860.00
95.2485 2724.00
95.3137 2774.00
95.3789 2827.00
95.444 2772.00
95.5092 2872.00
95.5744 2734.00
95.6396 2775.00
95.7048 2835.00
95.77 2806.00
95.8352 2887.00
95.9004 2823.00
95.9656 2835.00
96.0308 2910.00
96.096 2875.00
96.1612 2873.00
96.2264 2802.00
96.2916 2790.00
96.3568 2842.00
96.422 2859.00
96.4872 2746.00
96.5524 2826.00
96.6176 2718.00
96.6828 2744.00
96.748 2765.00
96.8132 2776.00
96.8784 2803.00
96.9436 2913.00
97.0088 2689.00
97.074 2851.00
97.1392 2786.00
97.2044 2689.00
97.2696 2728.00
97.3348 2749.00
97.4 2712.00
97.4652 2798.00
97.5304 2686.00
97.5956 2794.00
97.6608 2787.00
97.726 2755.00
97.7912 2728.00
97.8564 2821.00
97.9216 2883.00
97.9868 2859.00
98.052 2694.00
98.1172 2865.00
98.1824 2817.00
98.2476 2792.00
98.3128 2760.00
98.378 2811.00
98.4432 2792.00
98.5084 2736.00
98.5736 2825.00
98.6388 2895.00
98.704 2701.00
98.7692 2747.00
98.8344 2841.00
98.8996 2854.00
98.9648 2879.00
99.03 2899.00
99.0952 2712.00
99.1604 2868.00
99.2256 2747.00
99.2908 2773.00
99.356 2740.00
99.4212 2859.00
99.4864 2730.00
99.5516 2828.00
99.6168 2854.00
99.682 2787.00
99.7472 2703.00
99.8124 2854.00
99.8776 2804.00
99.9428 2773.00
100.008 2838.00
100.073 2839.00
100.095 2908.00