File: data/xrd_creation/results/Na_308.xy
9.903433 2850.00
9.968632 2766.00
10.0338 2852.00
10.099 2761.00
10.1642 2900.00
10.2294 2892.00
10.2946 2971.00
10.3598 3108.00
10.425 3156.00
10.4902 3587.00
10.5554 4013.00
10.6206 4726.00
10.6858 4341.00
10.751 2893.00
10.8162 2760.00
10.8814 2664.00
10.9466 2753.00
11.0118 2757.00
11.077 2725.00
11.1422 2951.00
11.2074 3072.00
11.2726 3305.00
11.3378 3209.00
11.403 2720.00
11.4682 2633.00
11.5334 2668.00
11.5986 2734.00
11.6638 2879.00
11.729 3023.00
11.7942 3108.00
11.8594 3441.00
11.9246 3812.00
11.9898 4618.00
12.055 5977.00
12.1202 7930.00
12.1854 7292.00
12.2506 3957.00
12.3158 2762.00
12.381 2526.00
12.4462 2494.00
12.5114 2332.00
12.5766 2304.00
12.6418 2319.00
12.707 2336.00
12.7722 2338.00
12.8374 2463.00
12.9026 2484.00
12.9678 2683.00
13.033 2825.00
13.0982 2687.00
13.1634 2513.00
13.2286 2308.00
13.2938 2317.00
13.359 2272.00
13.4242 2133.00
13.4894 2237.00
13.5546 2158.00
13.6198 2155.00
13.685 2178.00
13.7502 2250.00
13.8154 2389.00
13.8805 2504.00
13.9457 2818.00
14.0109 3189.00
14.0761 2982.00
14.1413 2850.00
14.2065 2599.00
14.2717 2280.00
14.3369 2108.00
14.4021 2001.00
14.4673 1998.00
14.5325 2056.00
14.5977 1958.00
14.6629 1907.00
14.7281 1993.00
14.7933 2011.00
14.8585 1953.00
14.9237 1960.00
14.9889 1846.00
15.0541 1971.00
15.1193 1889.00
15.1845 1992.00
15.2497 1852.00
15.3149 1837.00
15.3801 1947.00
15.4453 1935.00
15.5105 1908.00
15.5757 1902.00
15.6409 1915.00
15.7061 1982.00
15.7713 2011.00
15.8365 2021.00
15.9017 1954.00
15.9669 1974.00
16.0321 1905.00
16.0973 1965.00
16.1625 1929.00
16.2277 1917.00
16.2929 1889.00
16.3581 1954.00
16.4233 1993.00
16.4885 2071.00
16.5537 2107.00
16.6189 2116.00
16.6841 1920.00
16.7493 1847.00
16.8145 1846.00
16.8797 1745.00
16.9449 1821.00
17.0101 1852.00
17.0753 1770.00
17.1405 1708.00
17.2057 1798.00
17.2709 1821.00
17.3361 1831.00
17.4013 1711.00
17.4665 1766.00
17.5317 1822.00
17.5969 1918.00
17.6621 2007.00
17.7273 2168.00
17.7925 2340.00
17.8577 2520.00
17.9229 2316.00
17.9881 1944.00
18.0533 1790.00
18.1185 1700.00
18.1837 1768.00
18.2489 1688.00
18.3141 1667.00
18.3793 1678.00
18.4445 1616.00
18.5097 1706.00
18.5749 1658.00
18.6401 1659.00
18.7052 1696.00
18.7704 1661.00
18.8356 1641.00
18.9008 1652.00
18.966 1689.00
19.0312 1749.00
19.0964 1740.00
19.1616 1772.00
19.2268 1855.00
19.292 1958.00
19.3572 2049.00
19.4224 2161.00
19.4876 2596.00
19.5528 3512.00
19.618 4645.00
19.6832 6215.00
19.7484 5640.00
19.8136 4824.00
19.8788 4415.00
19.944 3971.00
20.0092 2766.00
20.0744 1992.00
20.1396 1871.00
20.2048 1741.00
20.27 1698.00
20.3352 1716.00
20.4004 1677.00
20.4656 1662.00
20.5308 1736.00
20.596 1668.00
20.6612 1886.00
20.7264 2008.00
20.7916 2122.00
20.8568 2070.00
20.922 1866.00
20.9872 1849.00
21.0524 1803.00
21.1176 1727.00
21.1828 1567.00
21.248 1716.00
21.3132 1551.00
21.3784 1584.00
21.4436 1589.00
21.5088 1639.00
21.574 1529.00
21.6392 1574.00
21.7044 1616.00
21.7696 1620.00
21.8348 1595.00
21.9 1588.00
21.9652 1622.00
22.0304 1687.00
22.0956 1741.00
22.1608 1867.00
22.226 1780.00
22.2912 1721.00
22.3564 1749.00
22.4216 1701.00
22.4868 1690.00
22.552 1706.00
22.6172 1832.00
22.6824 1928.00
22.7476 2001.00
22.8128 2254.00
22.878 2695.00
22.9432 3662.00
23.0084 5255.00
23.0736 7001.00
23.1388 6848.00
23.204 5212.00
23.2692 3454.00
23.3344 2305.00
23.3996 1910.00
23.4647 1807.00
23.5299 1679.00
23.5951 1706.00
23.6603 1753.00
23.7255 1810.00
23.7907 1886.00
23.8559 2033.00
23.9211 2370.00
23.9863 3273.00
24.0515 4668.00
24.1167 5294.00
24.1819 3915.00
24.2471 2512.00
24.3123 2332.00
24.3775 2800.00
24.4427 3645.00
24.5079 4283.00
24.5731 3451.00
24.6383 2414.00
24.7035 2209.00
24.7687 2340.00
24.8339 2848.00
24.8991 3586.00
24.9643 3095.00
25.0295 2219.00
25.0947 1774.00
25.1599 1716.00
25.2251 1821.00
25.2903 1757.00
25.3555 1745.00
25.4207 1669.00
25.4859 1526.00
25.5511 1508.00
25.6163 1530.00
25.6815 1505.00
25.7467 1631.00
25.8119 1591.00
25.8771 1686.00
25.9423 1799.00
26.0075 1819.00
26.0727 1762.00
26.1379 1719.00
26.2031 1944.00
26.2683 1913.00
26.3335 2145.00
26.3987 1857.00
26.4639 1581.00
26.5291 1493.00
26.5943 1543.00
26.6595 1466.00
26.7247 1511.00
26.7899 1580.00
26.8551 1628.00
26.9203 1796.00
26.9855 1629.00
27.0507 1726.00
27.1159 1758.00
27.1811 1801.00
27.2463 1758.00
27.3115 1646.00
27.3767 1546.00
27.4419 1621.00
27.5071 1626.00
27.5723 1678.00
27.6375 1773.00
27.7027 1790.00
27.7679 2129.00
27.8331 2583.00
27.8983 2999.00
27.9635 2694.00
28.0287 2129.00
28.0939 2009.00
28.1591 2064.00
28.2243 2097.00
28.2894 2345.00
28.3546 2878.00
28.4198 3983.00
28.485 5891.00
28.5502 9803.00
28.6154 14875.00
28.6806 15348.00
28.7458 10405.00
28.811 5836.00
28.8762 3741.00
28.9414 2788.00
29.0066 2435.00
29.0718 2113.00
29.137 1897.00
29.2022 1803.00
29.2674 1726.00
29.3326 1707.00
29.3978 1681.00
29.463 1807.00
29.5282 1769.00
29.5934 1829.00
29.6586 1788.00
29.7238 1691.00
29.789 1629.00
29.8542 1692.00
29.9194 1876.00
29.9846 1906.00
30.0498 1853.00
30.115 1944.00
30.1802 2242.00
30.2454 2984.00
30.3106 4334.00
30.3758 5057.00
30.441 4634.00
30.5062 3547.00
30.5714 2704.00
30.6366 2145.00
30.7018 1985.00
30.767 1927.00
30.8322 1936.00
30.8974 2045.00
30.9626 2076.00
31.0278 2387.00
31.093 3114.00
31.1582 4192.00
31.2234 6197.00
31.2886 8587.00
31.3538 8063.00
31.419 6104.00
31.4842 4454.00
31.5494 3626.00
31.6146 3097.00
31.6798 3316.00
31.745 3932.00
31.8102 5856.00
31.8754 8814.00
31.9406 12345.00
32.0058 11551.00
32.071 7985.00
32.1362 4684.00
32.2014 3125.00
32.2666 2410.00
32.3318 2027.00
32.397 1904.00
32.4622 1871.00
32.5274 1660.00
32.5926 1584.00
32.6578 1535.00
32.723 1542.00
32.7882 1457.00
32.8534 1474.00
32.9186 1544.00
32.9838 1518.00
33.0489 1516.00
33.1141 1447.00
33.1793 1499.00
33.2445 1495.00
33.3097 1447.00
33.3749 1457.00
33.4401 1587.00
33.5053 1550.00
33.5705 1541.00
33.6357 1654.00
33.7009 1714.00
33.7661 1864.00
33.8313 2194.00
33.8965 2935.00
33.9617 4659.00
34.0269 7388.00
34.0921 9673.00
34.1573 11056.00
34.2225 9700.00
34.2877 8741.00
34.3529 7902.00
34.4181 5649.00
34.4833 4316.00
34.5485 4257.00
34.6137 5241.00
34.6789 5162.00
34.7441 4235.00
34.8093 3868.00
34.8745 4661.00
34.9397 4660.00
35.0049 3723.00
35.0701 2665.00
35.1353 1938.00
35.2005 1709.00
35.2657 1652.00
35.3309 1628.00
35.3961 1644.00
35.4613 1547.00
35.5265 1651.00
35.5917 1991.00
35.6569 2504.00
35.7221 3571.00
35.7873 4808.00
35.8525 5007.00
35.9177 3763.00
35.9829 2455.00
36.0481 1912.00
36.1133 1653.00
36.1785 2006.00
36.2437 2235.00
36.3089 2820.00
36.3741 3279.00
36.4393 2911.00
36.5045 2395.00
36.5697 1858.00
36.6349 1624.00
36.7001 1473.00
36.7653 1400.00
36.8305 1304.00
36.8957 1278.00
36.9609 1319.00
37.0261 1272.00
37.0913 1271.00
37.1565 1247.00
37.2217 1264.00
37.2869 1232.00
37.3521 1264.00
37.4173 1247.00
37.4825 1284.00
37.5477 1253.00
37.6129 1248.00
37.6781 1279.00
37.7433 1332.00
37.8085 1210.00
37.8736 1195.00
37.9388 1189.00
38.004 1221.00
38.0692 1196.00
38.1344 1161.00
38.1996 1231.00
38.2648 1244.00
38.33 1267.00
38.3952 1170.00
38.4604 1196.00
38.5256 1192.00
38.5908 1194.00
38.656 1266.00
38.7212 1242.00
38.7864 1286.00
38.8516 1297.00
38.9168 1509.00
38.982 1753.00
39.0472 2299.00
39.1124 2494.00
39.1776 2211.00
39.2428 1780.00
39.308 1429.00
39.3732 1399.00
39.4384 1389.00
39.5036 1356.00
39.5688 1466.00
39.634 1445.00
39.6992 1407.00
39.7644 1430.00
39.8296 1441.00
39.8948 1441.00
39.96 1347.00
40.0252 1458.00
40.0904 1493.00
40.1556 1418.00
40.2208 1481.00
40.286 1453.00
40.3512 1418.00
40.4164 1382.00
40.4816 1545.00
40.5468 1476.00
40.612 1417.00
40.6772 1376.00
40.7424 1358.00
40.8076 1276.00
40.8728 1341.00
40.938 1412.00
41.0032 1519.00
41.0684 1695.00
41.1336 2096.00
41.1988 2562.00
41.264 3121.00
41.3292 2951.00
41.3944 2888.00
41.4596 2650.00
41.5248 2626.00
41.59 2412.00
41.6552 2484.00
41.7204 2343.00
41.7856 2194.00
41.8508 2092.00
41.916 2160.00
41.9812 2017.00
42.0464 1957.00
42.1116 1887.00
42.1768 1823.00
42.242 1801.00
42.3072 1661.00
42.3724 1594.00
42.4376 1491.00
42.5028 1445.00
42.568 1271.00
42.6332 1205.00
42.6983 1147.00
42.7635 1185.00
42.8287 1173.00
42.8939 1180.00
42.9591 1186.00
43.0243 1198.00
43.0895 1205.00
43.1547 1240.00
43.2199 1288.00
43.2851 1360.00
43.3503 1528.00
43.4155 1608.00
43.4807 1505.00
43.5459 1480.00
43.6111 1341.00
43.6763 1307.00
43.7415 1355.00
43.8067 1215.00
43.8719 1219.00
43.9371 1190.00
44.0023 1135.00
44.0675 1114.00
44.1327 1130.00
44.1979 1174.00
44.2631 1205.00
44.3283 1237.00
44.3935 1379.00
44.4587 1389.00
44.5239 1570.00
44.5891 1595.00
44.6543 1500.00
44.7195 1413.00
44.7847 1376.00
44.8499 1289.00
44.9151 1246.00
44.9803 1228.00
45.0455 1257.00
45.1107 1344.00
45.1759 1268.00
45.2411 1458.00
45.3063 1643.00
45.3715 1716.00
45.4367 1773.00
45.5019 1664.00
45.5671 1468.00
45.6323 1387.00
45.6975 1382.00
45.7627 1352.00
45.8279 1517.00
45.8931 1666.00
45.9583 1871.00
46.0235 2137.00
46.0887 2327.00
46.1539 2636.00
46.2191 2774.00
46.2843 2557.00
46.3495 2100.00
46.4147 1861.00
46.4799 1637.00
46.5451 1714.00
46.6103 1744.00
46.6755 1901.00
46.7407 2456.00
46.8059 3440.00
46.8711 4167.00
46.9363 3419.00
47.0015 2898.00
47.0667 2278.00
47.1319 1831.00
47.1971 1566.00
47.2623 1355.00
47.3275 1253.00
47.3927 1257.00
47.4579 1208.00
47.523 1158.00
47.5882 1231.00
47.6534 1207.00
47.7186 1100.00
47.7838 1195.00
47.849 1173.00
47.9142 1211.00
47.9794 1231.00
48.0446 1329.00
48.1098 1263.00
48.175 1241.00
48.2402 1170.00
48.3054 1194.00
48.3706 1174.00
48.4358 1144.00
48.501 1184.00
48.5662 1155.00
48.6314 1284.00
48.6966 1295.00
48.7618 1334.00
48.827 1579.00
48.8922 2093.00
48.9574 2567.00
49.0226 2731.00
49.0878 2313.00
49.153 2061.00
49.2182 1684.00
49.2834 1507.00
49.3486 1514.00
49.4138 1594.00
49.479 1601.00
49.5442 1639.00
49.6094 1831.00
49.6746 2070.00
49.7398 2672.00
49.805 3554.00
49.8702 3731.00
49.9354 3233.00
50.0006 2740.00
50.0658 2000.00
50.131 1625.00
50.1962 1562.00
50.2614 1499.00
50.3266 1480.00
50.3918 1605.00
50.457 1883.00
50.5222 2332.00
50.5874 2950.00
50.6526 4140.00
50.7178 5228.00
50.783 4558.00
50.8482 4088.00
50.9134 3247.00
50.9786 2635.00
51.0438 2556.00
51.109 2992.00
51.1742 3041.00
51.2394 2852.00
51.3046 2672.00
51.3698 2438.00
51.435 2015.00
51.5002 1758.00
51.5654 1664.00
51.6306 1520.00
51.6958 1649.00
51.761 1865.00
51.8262 1848.00
51.8914 1761.00
51.9566 1585.00
52.0218 1379.00
52.087 1363.00
52.1522 1218.00
52.2174 1244.00
52.2826 1261.00
52.3477 1251.00
52.4129 1259.00
52.4781 1202.00
52.5433 1275.00
52.6085 1220.00
52.6737 1166.00
52.7389 1144.00
52.8041 1225.00
52.8693 1256.00
52.9345 1395.00
52.9997 1760.00
53.0649 2196.00
53.1301 2666.00
53.1953 2354.00
53.2605 2199.00
53.3257 1805.00
53.3909 1567.00
53.4561 1443.00
53.5213 1426.00
53.5865 1366.00
53.6517 1352.00
53.7169 1427.00
53.7821 1473.00
53.8473 1383.00
53.9125 1300.00
53.9777 1280.00
54.0429 1268.00
54.1081 1299.00
54.1733 1254.00
54.2385 1315.00
54.3037 1313.00
54.3689 1271.00
54.4341 1394.00
54.4993 1668.00
54.5645 1962.00
54.6297 2649.00
54.6949 3192.00
54.7601 3212.00
54.8253 2850.00
54.8905 2594.00
54.9557 2223.00
55.0209 1934.00
55.0861 1768.00
55.1513 1686.00
55.2165 1526.00
55.2817 1536.00
55.3469 1511.00
55.4121 1535.00
55.4773 1370.00
55.5425 1338.00
55.6077 1400.00
55.6729 1415.00
55.7381 1572.00
55.8033 1836.00
55.8685 2332.00
55.9337 2789.00
55.9989 3014.00
56.0641 3006.00
56.1293 3005.00
56.1945 2753.00
56.2597 2274.00
56.3249 2086.00
56.3901 1911.00
56.4553 2148.00
56.5205 2351.00
56.5857 2255.00
56.6509 2100.00
56.7161 1977.00
56.7813 1635.00
56.8465 1404.00
56.9117 1296.00
56.9769 1256.00
57.042 1257.00
57.1073 1199.00
57.1724 1180.00
57.2376 1173.00
57.3028 1154.00
57.368 1209.00
57.4332 1209.00
57.4984 1243.00
57.5636 1291.00
57.6288 1400.00
57.694 1603.00
57.7592 1965.00
57.8244 2158.00
57.8896 1960.00
57.9548 1914.00
58.02 1627.00
58.0852 1507.00
58.1504 1326.00
58.2156 1328.00
58.2808 1308.00
58.346 1423.00
58.4112 1643.00
58.4764 2010.00
58.5416 2213.00
58.6068 2060.00
58.672 2007.00
58.7372 1870.00
58.8024 1831.00
58.8676 2014.00
58.9328 2219.00
58.998 2467.00
59.0632 2959.00
59.1284 2867.00
59.1936 2477.00
59.2588 2323.00
59.324 1891.00
59.3892 1553.00
59.4544 1419.00
59.5196 1303.00
59.5848 1248.00
59.65 1222.00
59.7152 1144.00
59.7804 1130.00
59.8456 1107.00
59.9108 1196.00
59.976 1192.00
60.0412 1217.00
60.1064 1250.00
60.1716 1292.00
60.2368 1395.00
60.302 1584.00
60.3672 1920.00
60.4324 2447.00
60.4976 2476.00
60.5628 2700.00
60.628 2900.00
60.6932 2879.00
60.7584 2891.00
60.8236 3113.00
60.8888 3039.00
60.954 2444.00
61.0192 2218.00
61.0844 1857.00
61.1496 1751.00
61.2148 1658.00
61.28 1800.00
61.3452 1687.00
61.4104 1742.00
61.4756 1510.00
61.5408 1479.00
61.606 1356.00
61.6712 1304.00
61.7364 1383.00
61.8016 1444.00
61.8667 1579.00
61.932 1860.00
61.9971 2057.00
62.0623 2001.00
62.1275 1970.00
62.1927 1922.00
62.2579 2003.00
62.3231 1799.00
62.3883 1851.00
62.4535 1989.00
62.5187 2171.00
62.5839 2307.00
62.6491 2261.00
62.7143 2134.00
62.7795 1823.00
62.8447 1716.00
62.9099 1494.00
62.9751 1391.00
63.0403 1326.00
63.1055 1288.00
63.1707 1357.00
63.2359 1404.00
63.3011 1459.00
63.3663 1647.00
63.4315 1992.00
63.4967 2194.00
63.5619 2115.00
63.6271 2098.00
63.6923 1867.00
63.7575 1681.00
63.8227 1431.00
63.8879 1233.00
63.9531 1228.00
64.0183 1105.00
64.0835 1170.00
64.1487 1092.00
64.2139 1084.00
64.2791 1200.00
64.3443 1086.00
64.4095 1163.00
64.4747 1165.00
64.5399 1254.00
64.6051 1240.00
64.6703 1315.00
64.7355 1447.00
64.8007 1439.00
64.8659 1531.00
64.9311 1766.00
64.9963 1731.00
65.0615 1618.00
65.1267 1471.00
65.1919 1441.00
65.2571 1337.00
65.3223 1203.00
65.3875 1119.00
65.4527 1130.00
65.5179 1134.00
65.5831 1107.00
65.6483 1217.00
65.7135 1295.00
65.7787 1378.00
65.8439 1497.00
65.9091 1539.00
65.9743 1810.00
66.0395 1883.00
66.1047 1993.00
66.1699 1873.00
66.2351 2029.00
66.3003 2242.00
66.3655 2391.00
66.4307 2390.00
66.4959 2251.00
66.561 2167.00
66.6263 1949.00
66.6915 1733.00
66.7566 1491.00
66.8218 1434.00
66.887 1242.00
66.9522 1265.00
67.0174 1147.00
67.0826 995.00
67.1478 1043.00
67.213 1060.00
67.2782 1034.00
67.3434 1070.00
67.4086 1007.00
67.4738 1064.00
67.539 1062.00
67.6042 1041.00
67.6694 1058.00
67.7346 1019.00
67.7998 996.00
67.865 1086.00
67.9302 1081.00
67.9954 1052.00
68.0606 1126.00
68.1258 1192.00
68.191 1167.00
68.2562 1107.00
68.3214 1076.00
68.3866 1042.00
68.4518 1011.00
68.517 986.00
68.5822 1025.00
68.6474 998.00
68.7126 1025.00
68.7778 1015.00
68.843 985.00
68.9082 1031.00
68.9734 1020.00
69.0386 998.00
69.1038 1012.00
69.169 1013.00
69.2342 1018.00
69.2994 1148.00
69.3646 1202.00
69.4298 1301.00
69.495 1372.00
69.5602 1495.00
69.6254 1625.00
69.6906 1562.00
69.7558 1410.00
69.821 1349.00
69.8862 1276.00
69.9514 1138.00
70.0166 1062.00
70.0818 1034.00
70.147 1021.00
70.2122 1041.00
70.2774 1079.00
70.3426 1122.00
70.4078 1039.00
70.473 1045.00
70.5382 1004.00
70.6034 976.00
70.6686 926.00
70.7338 1008.00
70.799 1007.00
70.8642 1042.00
70.9294 1034.00
70.9946 1059.00
71.0598 1051.00
71.125 1098.00
71.1902 1174.00
71.2554 1237.00
71.3205 1145.00
71.3858 1304.00
71.451 1410.00
71.5162 1450.00
71.5813 1505.00
71.6465 1489.00
71.7117 1612.00
71.7769 1696.00
71.8421 1773.00
71.9073 1743.00
71.9725 1809.00
72.0377 1608.00
72.1029 1570.00
72.1681 1434.00
72.2333 1345.00
72.2985 1196.00
72.3637 1142.00
72.4289 1163.00
72.4941 1105.00
72.5593 1151.00
72.6245 1153.00
72.6897 1224.00
72.7549 1318.00
72.8201 1383.00
72.8853 1357.00
72.9505 1337.00
73.0157 1349.00
73.0809 1305.00
73.1461 1294.00
73.2113 1365.00
73.2765 1251.00
73.3417 1326.00
73.4069 1259.00
73.4721 1261.00
73.5373 1203.00
73.6025 1122.00
73.6677 1097.00
73.7329 1119.00
73.7981 1026.00
73.8633 1062.00
73.9285 981.00
73.9937 971.00
74.0589 1067.00
74.1241 963.00
74.1893 975.00
74.2545 975.00
74.3197 978.00
74.3849 946.00
74.4501 982.00
74.5153 995.00
74.5805 974.00
74.6457 992.00
74.7109 997.00
74.7761 1019.00
74.8413 1118.00
74.9065 1143.00
74.9717 1120.00
75.0369 1053.00
75.1021 1082.00
75.1673 1096.00
75.2325 1105.00
75.2977 1206.00
75.3629 1248.00
75.4281 1254.00
75.4933 1295.00
75.5585 1209.00
75.6237 1183.00
75.6889 1251.00
75.7541 1371.00
75.8193 1529.00
75.8845 1492.00
75.9497 1374.00
76.0149 1425.00
76.0801 1394.00
76.1452 1318.00
76.2104 1242.00
76.2756 1210.00
76.3409 1145.00
76.406 1064.00
76.4712 1133.00
76.5364 1062.00
76.6016 1127.00
76.6668 1110.00
76.732 1166.00
76.7972 1136.00
76.8624 1123.00
76.9276 1068.00
76.9928 1164.00
77.058 1240.00
77.1232 1207.00
77.1884 1234.00
77.2536 1286.00
77.3188 1192.00
77.384 1140.00
77.4492 1080.00
77.5144 1109.00
77.5796 989.00
77.6448 1067.00
77.71 1005.00
77.7752 1028.00
77.8404 1022.00
77.9056 1021.00
77.9708 1054.00
78.036 1089.00
78.1012 1066.00
78.1664 1090.00
78.2316 1038.00
78.2968 1142.00
78.362 1102.00
78.4272 1063.00
78.4924 1008.00
78.5576 1060.00
78.6228 1040.00
78.688 1058.00
78.7532 1100.00
78.8184 1131.00
78.8836 1092.00
78.9488 1005.00
79.014 1104.00
79.0792 1052.00
79.1444 999.00
79.2096 1024.00
79.2748 1061.00
79.34 1030.00
79.4052 1070.00
79.4704 1195.00
79.5356 1215.00
79.6008 1266.00
79.666 1428.00
79.7312 1551.00
79.7964 1428.00
79.8616 1512.00
79.9268 1631.00
79.992 1553.00
80.0572 1349.00
80.1224 1236.00
80.1876 1226.00
80.2528 1143.00
80.318 988.00
80.3832 1055.00
80.4484 948.00
80.5136 981.00
80.5788 1026.00
80.644 929.00
80.7092 926.00
80.7744 891.00
80.8396 985.00
80.9048 938.00
80.9699 938.00
81.0351 979.00
81.1003 1036.00
81.1655 1056.00
81.2307 1116.00
81.2959 1104.00
81.3611 1106.00
81.4263 1075.00
81.4915 1180.00
81.5567 1182.00
81.6219 1190.00
81.6871 1187.00
81.7523 1214.00
81.8175 1182.00
81.8827 1230.00
81.9479 1196.00
82.0131 1164.00
82.0783 1231.00
82.1435 1206.00
82.2087 1229.00
82.2739 1245.00
82.3391 1343.00
82.4043 1322.00
82.4695 1154.00
82.5347 1176.00
82.5999 1251.00
82.6651 1118.00
82.7303 1117.00
82.7955 1120.00
82.8607 1079.00
82.9259 1118.00
82.9911 1107.00
83.0563 1068.00
83.1215 1064.00
83.1867 1071.00
83.2519 1135.00
83.3171 1257.00
83.3823 1239.00
83.4475 1208.00
83.5127 1210.00
83.5779 1219.00
83.6431 1251.00
83.7083 1171.00
83.7735 1216.00
83.8387 1300.00
83.9039 1285.00
83.9691 1275.00
84.0343 1250.00
84.0995 1250.00
84.1647 1284.00
84.2299 1155.00
84.2951 1110.00
84.3603 1177.00
84.4255 1118.00
84.4907 1166.00
84.5559 1107.00
84.6211 1203.00
84.6863 1266.00
84.7515 1392.00
84.8167 1312.00
84.8819 1277.00
84.9471 1331.00
85.0123 1454.00
85.0775 1330.00
85.1427 1298.00
85.2079 1224.00
85.2731 1140.00
85.3383 1143.00
85.4035 1160.00
85.4687 1048.00
85.5339 1032.00
85.5991 1065.00
85.6643 1186.00
85.7295 1190.00
85.7946 1188.00
85.8598 1165.00
85.925 1173.00
85.9903 1221.00
86.0554 1223.00
86.1206 1195.00
86.1858 1087.00
86.251 1186.00
86.3162 1156.00
86.3814 1124.00
86.4466 1202.00
86.5118 1141.00
86.577 1232.00
86.6422 1144.00
86.7074 1129.00
86.7726 1148.00
86.8378 1250.00
86.903 1201.00
86.9682 1224.00
87.0334 1150.00
87.0986 1067.00
87.1638 1098.00
87.229 1110.00
87.2942 1010.00
87.3594 1031.00
87.4246 992.00
87.4898 985.00
87.555 940.00
87.6202 966.00
87.6854 973.00
87.7506 951.00
87.8158 987.00
87.881 955.00
87.9462 1033.00
88.0114 1060.00
88.0766 1084.00
88.1418 1086.00
88.207 1209.00
88.2722 1195.00
88.3374 1269.00
88.4026 1214.00
88.4678 1202.00
88.533 1252.00
88.5982 1188.00
88.6634 1203.00
88.7286 1186.00
88.7938 1200.00
88.859 1160.00
88.9242 1165.00
88.9894 1258.00
89.0546 1341.00
89.1198 1310.00
89.185 1311.00
89.2502 1352.00
89.3154 1437.00
89.3806 1453.00
89.4458 1403.00
89.511 1400.00
89.5762 1352.00
89.6414 1367.00
89.7066 1360.00
89.7718 1306.00
89.837 1172.00
89.9022 1141.00
89.9674 1198.00
90.0326 1165.00
90.0978 1183.00
90.163 1193.00
90.2282 1177.00
90.2934 1158.00
90.3586 1202.00
90.4238 1227.00
90.489 1190.00
90.5542 1253.00
90.6193 1331.00
90.6845 1349.00
90.7497 1304.00
90.8149 1235.00
90.8801 1288.00
90.9453 1242.00
91.0105 1153.00
91.0757 1164.00
91.1409 1135.00
91.2061 1071.00
91.2713 1112.00
91.3365 1045.00
91.4017 1066.00
91.4669 1124.00
91.5321 1128.00
91.5973 1087.00
91.6625 1072.00
91.7277 1038.00
91.7929 994.00
91.8581 1015.00
91.9233 1076.00
91.9885 1034.00
92.0537 1041.00
92.1189 1071.00
92.1841 1130.00
92.2493 1115.00
92.3145 1093.00
92.3797 1068.00
92.4449 1112.00
92.5101 1115.00
92.5753 1134.00
92.6405 1023.00
92.7057 1083.00
92.7709 1022.00
92.8361 1113.00
92.9013 1043.00
92.9665 1040.00
93.0317 1033.00
93.0969 1021.00
93.1621 983.00
93.2273 1055.00
93.2925 997.00
93.3577 971.00
93.4229 1018.00
93.4881 1001.00
93.5533 963.00
93.6185 935.00
93.6837 927.00
93.7489 992.00
93.8141 947.00
93.8793 985.00
93.9445 961.00
94.0097 952.00
94.0749 917.00
94.1401 891.00
94.2053 941.00
94.2705 981.00
94.3357 956.00
94.4009 976.00
94.4661 1055.00
94.5313 1025.00
94.5965 1085.00
94.6617 1188.00
94.7269 1147.00
94.7921 1217.00
94.8573 1099.00
94.9225 1124.00
94.9877 1072.00
95.0529 1075.00
95.1181 1109.00
95.1833 1078.00
95.2485 1054.00
95.3137 1027.00
95.3789 972.00
95.444 1076.00
95.5092 1048.00
95.5744 1140.00
95.6396 1154.00
95.7048 1198.00
95.77 1166.00
95.8352 1219.00
95.9004 1223.00
95.9656 1260.00
96.0308 1273.00
96.096 1283.00
96.1612 1249.00
96.2264 1206.00
96.2916 1170.00
96.3568 1137.00
96.422 1147.00
96.4872 1073.00
96.5524 1050.00
96.6176 1150.00
96.6828 1055.00
96.748 1019.00
96.8132 1097.00
96.8784 1119.00
96.9436 1149.00
97.0088 1235.00
97.074 1150.00
97.1392 1152.00
97.2044 1231.00
97.2696 1241.00
97.3348 1308.00
97.4 1353.00
97.4652 1375.00
97.5304 1448.00
97.5956 1365.00
97.6608 1241.00
97.726 1298.00
97.7912 1344.00
97.8564 1470.00
97.9216 1378.00
97.9868 1382.00
98.052 1245.00
98.1172 1209.00
98.1824 1199.00
98.2476 1110.00
98.3128 1131.00
98.378 1106.00
98.4432 1107.00
98.5084 1030.00
98.5736 1034.00
98.6388 988.00
98.704 1039.00
98.7692 1002.00
98.8344 1086.00
98.8996 1132.00
98.9648 1170.00
99.03 1177.00
99.0952 1185.00
99.1604 1208.00
99.2256 1250.00
99.2908 1193.00
99.356 1299.00
99.4212 1363.00
99.4864 1283.00
99.5516 1266.00
99.6168 1289.00
99.682 1354.00
99.7472 1368.00
99.8124 1304.00
99.8776 1256.00
99.9428 1279.00
100.008 1285.00
100.073 1235.00
100.095 1266.00