File: data/xrd_creation/results/Na_309.xy
9.903433 2663.00
9.968632 2692.00
10.0338 2626.00
10.099 2607.00
10.1642 2615.00
10.2294 2504.00
10.2946 2654.00
10.3598 2515.00
10.425 2613.00
10.4902 2488.00
10.5554 2547.00
10.6206 2343.00
10.6858 2465.00
10.751 2363.00
10.8162 2341.00
10.8814 2324.00
10.9466 2320.00
11.0118 2325.00
11.077 2225.00
11.1422 2120.00
11.2074 2146.00
11.2726 2265.00
11.3378 2199.00
11.403 2161.00
11.4682 2213.00
11.5334 2146.00
11.5986 2255.00
11.6638 2155.00
11.729 2278.00
11.7942 2346.00
11.8594 2273.00
11.9246 2411.00
11.9898 2351.00
12.055 2327.00
12.1202 2290.00
12.1854 2199.00
12.2506 1970.00
12.3158 1950.00
12.381 1854.00
12.4462 1892.00
12.5114 1880.00
12.5766 1843.00
12.6418 1856.00
12.707 1723.00
12.7722 1829.00
12.8374 1905.00
12.9026 1826.00
12.9678 1801.00
13.033 1751.00
13.0982 1779.00
13.1634 1745.00
13.2286 1789.00
13.2938 1665.00
13.359 1741.00
13.4242 1635.00
13.4894 1664.00
13.5546 1676.00
13.6198 1706.00
13.685 1601.00
13.7502 1658.00
13.8154 1629.00
13.8805 1591.00
13.9457 1681.00
14.0109 1707.00
14.0761 1534.00
14.1413 1603.00
14.2065 1572.00
14.2717 1595.00
14.3369 1528.00
14.4021 1587.00
14.4673 1564.00
14.5325 1474.00
14.5977 1527.00
14.6629 1463.00
14.7281 1505.00
14.7933 1442.00
14.8585 1522.00
14.9237 1494.00
14.9889 1503.00
15.0541 1445.00
15.1193 1488.00
15.1845 1506.00
15.2497 1453.00
15.3149 1438.00
15.3801 1482.00
15.4453 1489.00
15.5105 1434.00
15.5757 1487.00
15.6409 1503.00
15.7061 1413.00
15.7713 1332.00
15.8365 1464.00
15.9017 1396.00
15.9669 1361.00
16.0321 1451.00
16.0973 1471.00
16.1625 1341.00
16.2277 1361.00
16.2929 1327.00
16.3581 1294.00
16.4233 1360.00
16.4885 1341.00
16.5537 1351.00
16.6189 1374.00
16.6841 1298.00
16.7493 1334.00
16.8145 1338.00
16.8797 1318.00
16.9449 1308.00
17.0101 1347.00
17.0753 1320.00
17.1405 1290.00
17.2057 1289.00
17.2709 1238.00
17.3361 1339.00
17.4013 1327.00
17.4665 1279.00
17.5317 1298.00
17.5969 1188.00
17.6621 1282.00
17.7273 1172.00
17.7925 1217.00
17.8577 1228.00
17.9229 1204.00
17.9881 1246.00
18.0533 1151.00
18.1185 1207.00
18.1837 1135.00
18.2489 1225.00
18.3141 1117.00
18.3793 1157.00
18.4445 1154.00
18.5097 1202.00
18.5749 1119.00
18.6401 1165.00
18.7052 1152.00
18.7704 1176.00
18.8356 1213.00
18.9008 1172.00
18.966 1081.00
19.0312 1129.00
19.0964 1058.00
19.1616 1115.00
19.2268 1136.00
19.292 1094.00
19.3572 1098.00
19.4224 1148.00
19.4876 1186.00
19.5528 1301.00
19.618 1184.00
19.6832 1278.00
19.7484 1232.00
19.8136 1201.00
19.8788 1231.00
19.944 1193.00
20.0092 1191.00
20.0744 1052.00
20.1396 1137.00
20.2048 1104.00
20.27 1072.00
20.3352 1067.00
20.4004 1150.00
20.4656 1101.00
20.5308 1108.00
20.596 1170.00
20.6612 1151.00
20.7264 1185.00
20.7916 1226.00
20.8568 1169.00
20.922 1046.00
20.9872 1056.00
21.0524 973.00
21.1176 1049.00
21.1828 1066.00
21.248 958.00
21.3132 1025.00
21.3784 958.00
21.4436 981.00
21.5088 935.00
21.574 945.00
21.6392 972.00
21.7044 973.00
21.7696 958.00
21.8348 978.00
21.9 953.00
21.9652 1018.00
22.0304 949.00
22.0956 1015.00
22.1608 967.00
22.226 951.00
22.2912 1010.00
22.3564 950.00
22.4216 984.00
22.4868 1062.00
22.552 997.00
22.6172 907.00
22.6824 1049.00
22.7476 1033.00
22.8128 1174.00
22.878 1181.00
22.9432 1184.00
23.0084 1179.00
23.0736 1225.00
23.1388 1267.00
23.204 1151.00
23.2692 1119.00
23.3344 1029.00
23.3996 993.00
23.4647 1003.00
23.5299 1037.00
23.5951 975.00
23.6603 966.00
23.7255 963.00
23.7907 1025.00
23.8559 1052.00
23.9211 1127.00
23.9863 1138.00
24.0515 1080.00
24.1167 1112.00
24.1819 1048.00
24.2471 1007.00
24.3123 1086.00
24.3775 967.00
24.4427 959.00
24.5079 958.00
24.5731 971.00
24.6383 906.00
24.7035 872.00
24.7687 898.00
24.8339 882.00
24.8991 885.00
24.9643 802.00
25.0295 856.00
25.0947 867.00
25.1599 818.00
25.2251 828.00
25.2903 795.00
25.3555 776.00
25.4207 838.00
25.4859 824.00
25.5511 802.00
25.6163 793.00
25.6815 774.00
25.7467 807.00
25.8119 802.00
25.8771 814.00
25.9423 783.00
26.0075 827.00
26.0727 875.00
26.1379 807.00
26.2031 900.00
26.2683 805.00
26.3335 851.00
26.3987 848.00
26.4639 842.00
26.5291 827.00
26.5943 775.00
26.6595 814.00
26.7247 793.00
26.7899 822.00
26.8551 782.00
26.9203 785.00
26.9855 806.00
27.0507 808.00
27.1159 836.00
27.1811 774.00
27.2463 708.00
27.3115 772.00
27.3767 765.00
27.4419 754.00
27.5071 757.00
27.5723 749.00
27.6375 764.00
27.7027 842.00
27.7679 810.00
27.8331 852.00
27.8983 865.00
27.9635 930.00
28.0287 1029.00
28.0939 1104.00
28.1591 1206.00
28.2243 1192.00
28.2894 1242.00
28.3546 1179.00
28.4198 1095.00
28.485 1083.00
28.5502 923.00
28.6154 859.00
28.6806 798.00
28.7458 782.00
28.811 748.00
28.8762 760.00
28.9414 764.00
29.0066 737.00
29.0718 717.00
29.137 734.00
29.2022 660.00
29.2674 759.00
29.3326 689.00
29.3978 723.00
29.463 673.00
29.5282 670.00
29.5934 755.00
29.6586 692.00
29.7238 683.00
29.789 698.00
29.8542 684.00
29.9194 722.00
29.9846 703.00
30.0498 710.00
30.115 772.00
30.1802 783.00
30.2454 749.00
30.3106 813.00
30.3758 889.00
30.441 909.00
30.5062 812.00
30.5714 773.00
30.6366 702.00
30.7018 734.00
30.767 691.00
30.8322 691.00
30.8974 703.00
30.9626 730.00
31.0278 756.00
31.093 746.00
31.1582 797.00
31.2234 924.00
31.2886 1042.00
31.3538 1148.00
31.419 1235.00
31.4842 1261.00
31.5494 1326.00
31.6146 1251.00
31.6798 1155.00
31.745 997.00
31.8102 918.00
31.8754 724.00
31.9406 657.00
32.0058 647.00
32.071 623.00
32.1362 629.00
32.2014 655.00
32.2666 601.00
32.3318 615.00
32.397 615.00
32.4622 596.00
32.5274 611.00
32.5926 577.00
32.6578 627.00
32.723 582.00
32.7882 641.00
32.8534 592.00
32.9186 613.00
32.9838 606.00
33.0489 561.00
33.1141 563.00
33.1793 568.00
33.2445 585.00
33.3097 633.00
33.3749 554.00
33.4401 553.00
33.5053 577.00
33.5705 658.00
33.6357 649.00
33.7009 697.00
33.7661 834.00
33.8313 949.00
33.8965 1034.00
33.9617 1147.00
34.0269 1162.00
34.0921 1218.00
34.1573 1128.00
34.2225 1049.00
34.2877 999.00
34.3529 887.00
34.4181 795.00
34.4833 718.00
34.5485 624.00
34.6137 601.00
34.6789 617.00
34.7441 562.00
34.8093 561.00
34.8745 572.00
34.9397 564.00
35.0049 542.00
35.0701 575.00
35.1353 570.00
35.2005 576.00
35.2657 619.00
35.3309 580.00
35.3961 593.00
35.4613 595.00
35.5265 639.00
35.5917 612.00
35.6569 552.00
35.7221 537.00
35.7873 509.00
35.8525 522.00
35.9177 559.00
35.9829 507.00
36.0481 525.00
36.1133 552.00
36.1785 514.00
36.2437 576.00
36.3089 548.00
36.3741 539.00
36.4393 509.00
36.5045 512.00
36.5697 457.00
36.6349 480.00
36.7001 435.00
36.7653 451.00
36.8305 477.00
36.8957 502.00
36.9609 524.00
37.0261 456.00
37.0913 525.00
37.1565 499.00
37.2217 442.00
37.2869 502.00
37.3521 467.00
37.4173 458.00
37.4825 484.00
37.5477 445.00
37.6129 477.00
37.6781 529.00
37.7433 406.00
37.8085 428.00
37.8736 446.00
37.9388 491.00
38.004 488.00
38.0692 460.00
38.1344 417.00
38.1996 491.00
38.2648 448.00
38.33 478.00
38.3952 453.00
38.4604 420.00
38.5256 445.00
38.5908 433.00
38.656 452.00
38.7212 440.00
38.7864 489.00
38.8516 463.00
38.9168 437.00
38.982 453.00
39.0472 426.00
39.1124 475.00
39.1776 443.00
39.2428 468.00
39.308 484.00
39.3732 419.00
39.4384 471.00
39.5036 434.00
39.5688 409.00
39.634 407.00
39.6992 400.00
39.7644 438.00
39.8296 457.00
39.8948 455.00
39.96 474.00
40.0252 419.00
40.0904 445.00
40.1556 464.00
40.2208 437.00
40.286 428.00
40.3512 423.00
40.4164 463.00
40.4816 392.00
40.5468 447.00
40.612 418.00
40.6772 488.00
40.7424 444.00
40.8076 425.00
40.8728 436.00
40.938 429.00
41.0032 465.00
41.0684 434.00
41.1336 512.00
41.1988 416.00
41.264 430.00
41.3292 449.00
41.3944 388.00
41.4596 432.00
41.5248 435.00
41.59 432.00
41.6552 438.00
41.7204 470.00
41.7856 442.00
41.8508 422.00
41.916 404.00
41.9812 433.00
42.0464 403.00
42.1116 465.00
42.1768 447.00
42.242 429.00
42.3072 421.00
42.3724 403.00
42.4376 413.00
42.5028 375.00
42.568 427.00
42.6332 413.00
42.6983 412.00
42.7635 370.00
42.8287 404.00
42.8939 402.00
42.9591 388.00
43.0243 385.00
43.0895 401.00
43.1547 403.00
43.2199 406.00
43.2851 427.00
43.3503 411.00
43.4155 410.00
43.4807 393.00
43.5459 370.00
43.6111 406.00
43.6763 386.00
43.7415 386.00
43.8067 353.00
43.8719 401.00
43.9371 332.00
44.0023 403.00
44.0675 410.00
44.1327 373.00
44.1979 361.00
44.2631 411.00
44.3283 402.00
44.3935 379.00
44.4587 426.00
44.5239 380.00
44.5891 391.00
44.6543 367.00
44.7195 385.00
44.7847 374.00
44.8499 388.00
44.9151 380.00
44.9803 383.00
45.0455 357.00
45.1107 376.00
45.1759 390.00
45.2411 321.00
45.3063 337.00
45.3715 375.00
45.4367 388.00
45.5019 361.00
45.5671 383.00
45.6323 380.00
45.6975 373.00
45.7627 395.00
45.8279 367.00
45.8931 378.00
45.9583 411.00
46.0235 384.00
46.0887 391.00
46.1539 385.00
46.2191 396.00
46.2843 415.00
46.3495 404.00
46.4147 391.00
46.4799 412.00
46.5451 417.00
46.6103 366.00
46.6755 409.00
46.7407 344.00
46.8059 455.00
46.8711 410.00
46.9363 471.00
47.0015 499.00
47.0667 429.00
47.1319 408.00
47.1971 377.00
47.2623 376.00
47.3275 362.00
47.3927 380.00
47.4579 368.00
47.523 353.00
47.5882 390.00
47.6534 391.00
47.7186 318.00
47.7838 328.00
47.849 356.00
47.9142 325.00
47.9794 336.00
48.0446 365.00
48.1098 348.00
48.175 323.00
48.2402 330.00
48.3054 352.00
48.3706 336.00
48.4358 389.00
48.501 339.00
48.5662 367.00
48.6314 330.00
48.6966 358.00
48.7618 354.00
48.827 387.00
48.8922 419.00
48.9574 407.00
49.0226 383.00
49.0878 398.00
49.153 394.00
49.2182 389.00
49.2834 370.00
49.3486 387.00
49.4138 443.00
49.479 368.00
49.5442 349.00
49.6094 381.00
49.6746 364.00
49.7398 351.00
49.805 377.00
49.8702 341.00
49.9354 362.00
50.0006 377.00
50.0658 384.00
50.131 389.00
50.1962 398.00
50.2614 398.00
50.3266 407.00
50.3918 405.00
50.457 451.00
50.5222 439.00
50.5874 359.00
50.6526 361.00
50.7178 365.00
50.783 384.00
50.8482 402.00
50.9134 408.00
50.9786 370.00
51.0438 343.00
51.109 318.00
51.1742 376.00
51.2394 334.00
51.3046 323.00
51.3698 383.00
51.435 314.00
51.5002 344.00
51.5654 330.00
51.6306 402.00
51.6958 333.00
51.761 353.00
51.8262 367.00
51.8914 352.00
51.9566 354.00
52.0218 344.00
52.087 326.00
52.1522 341.00
52.2174 304.00
52.2826 342.00
52.3477 321.00
52.4129 300.00
52.4781 309.00
52.5433 332.00
52.6085 354.00
52.6737 346.00
52.7389 344.00
52.8041 269.00
52.8693 347.00
52.9345 328.00
52.9997 345.00
53.0649 319.00
53.1301 343.00
53.1953 335.00
53.2605 314.00
53.3257 330.00
53.3909 299.00
53.4561 330.00
53.5213 311.00
53.5865 297.00
53.6517 298.00
53.7169 279.00
53.7821 297.00
53.8473 316.00
53.9125 314.00
53.9777 321.00
54.0429 369.00
54.1081 319.00
54.1733 310.00
54.2385 338.00
54.3037 333.00
54.3689 335.00
54.4341 332.00
54.4993 315.00
54.5645 326.00
54.6297 305.00
54.6949 342.00
54.7601 288.00
54.8253 318.00
54.8905 308.00
54.9557 267.00
55.0209 310.00
55.0861 272.00
55.1513 307.00
55.2165 325.00
55.2817 313.00
55.3469 326.00
55.4121 319.00
55.4773 321.00
55.5425 305.00
55.6077 323.00
55.6729 362.00
55.7381 335.00
55.8033 323.00
55.8685 325.00
55.9337 325.00
55.9989 327.00
56.0641 307.00
56.1293 295.00
56.1945 305.00
56.2597 305.00
56.3249 284.00
56.3901 288.00
56.4553 297.00
56.5205 303.00
56.5857 293.00
56.6509 309.00
56.7161 270.00
56.7813 264.00
56.8465 293.00
56.9117 297.00
56.9769 260.00
57.042 299.00
57.1073 283.00
57.1724 288.00
57.2376 296.00
57.3028 299.00
57.368 310.00
57.4332 301.00
57.4984 261.00
57.5636 278.00
57.6288 274.00
57.694 281.00
57.7592 263.00
57.8244 296.00
57.8896 284.00
57.9548 280.00
58.02 281.00
58.0852 291.00
58.1504 294.00
58.2156 283.00
58.2808 306.00
58.346 286.00
58.4112 306.00
58.4764 309.00
58.5416 273.00
58.6068 298.00
58.672 257.00
58.7372 297.00
58.8024 284.00
58.8676 333.00
58.9328 301.00
58.998 281.00
59.0632 283.00
59.1284 290.00
59.1936 279.00
59.2588 279.00
59.324 306.00
59.3892 297.00
59.4544 267.00
59.5196 287.00
59.5848 292.00
59.65 285.00
59.7152 284.00
59.7804 281.00
59.8456 274.00
59.9108 332.00
59.976 281.00
60.0412 264.00
60.1064 292.00
60.1716 243.00
60.2368 287.00
60.302 287.00
60.3672 248.00
60.4324 314.00
60.4976 302.00
60.5628 284.00
60.628 291.00
60.6932 340.00
60.7584 278.00
60.8236 274.00
60.8888 292.00
60.954 332.00
61.0192 308.00
61.0844 279.00
61.1496 239.00
61.2148 256.00
61.28 281.00
61.3452 294.00
61.4104 294.00
61.4756 272.00
61.5408 262.00
61.606 287.00
61.6712 277.00
61.7364 318.00
61.8016 244.00
61.8667 282.00
61.932 319.00
61.9971 297.00
62.0623 298.00
62.1275 268.00
62.1927 294.00
62.2579 265.00
62.3231 261.00
62.3883 239.00
62.4535 272.00
62.5187 249.00
62.5839 259.00
62.6491 286.00
62.7143 306.00
62.7795 259.00
62.8447 301.00
62.9099 309.00
62.9751 283.00
63.0403 284.00
63.1055 312.00
63.1707 264.00
63.2359 248.00
63.3011 276.00
63.3663 221.00
63.4315 281.00
63.4967 231.00
63.5619 288.00
63.6271 242.00
63.6923 234.00
63.7575 221.00
63.8227 237.00
63.8879 249.00
63.9531 258.00
64.0183 240.00
64.0835 274.00
64.1487 248.00
64.2139 216.00
64.2791 244.00
64.3443 256.00
64.4095 236.00
64.4747 269.00
64.5399 260.00
64.6051 287.00
64.6703 234.00
64.7355 226.00
64.8007 243.00
64.8659 222.00
64.9311 236.00
64.9963 269.00
65.0615 244.00
65.1267 227.00
65.1919 241.00
65.2571 241.00
65.3223 239.00
65.3875 233.00
65.4527 262.00
65.5179 287.00
65.5831 223.00
65.6483 230.00
65.7135 286.00
65.7787 240.00
65.8439 259.00
65.9091 256.00
65.9743 233.00
66.0395 246.00
66.1047 246.00
66.1699 244.00
66.2351 229.00
66.3003 250.00
66.3655 245.00
66.4307 243.00
66.4959 203.00
66.561 232.00
66.6263 249.00
66.6915 275.00
66.7566 229.00
66.8218 189.00
66.887 225.00
66.9522 214.00
67.0174 204.00
67.0826 259.00
67.1478 208.00
67.213 211.00
67.2782 226.00
67.3434 214.00
67.4086 236.00
67.4738 203.00
67.539 231.00
67.6042 248.00
67.6694 239.00
67.7346 220.00
67.7998 227.00
67.865 262.00
67.9302 214.00
67.9954 259.00
68.0606 217.00
68.1258 223.00
68.191 216.00
68.2562 245.00
68.3214 224.00
68.3866 196.00
68.4518 202.00
68.517 200.00
68.5822 218.00
68.6474 231.00
68.7126 220.00
68.7778 234.00
68.843 221.00
68.9082 240.00
68.9734 239.00
69.0386 218.00
69.1038 243.00
69.169 213.00
69.2342 214.00
69.2994 241.00
69.3646 235.00
69.4298 238.00
69.495 242.00
69.5602 213.00
69.6254 227.00
69.6906 221.00
69.7558 228.00
69.821 247.00
69.8862 218.00
69.9514 211.00
70.0166 208.00
70.0818 238.00
70.147 242.00
70.2122 237.00
70.2774 204.00
70.3426 233.00
70.4078 243.00
70.473 220.00
70.5382 227.00
70.6034 204.00
70.6686 241.00
70.7338 197.00
70.799 260.00
70.8642 243.00
70.9294 232.00
70.9946 241.00
71.0598 220.00
71.125 231.00
71.1902 226.00
71.2554 245.00
71.3205 271.00
71.3858 223.00
71.451 242.00
71.5162 261.00
71.5813 222.00
71.6465 212.00
71.7117 236.00
71.7769 224.00
71.8421 241.00
71.9073 259.00
71.9725 230.00
72.0377 279.00
72.1029 232.00
72.1681 242.00
72.2333 256.00
72.2985 229.00
72.3637 216.00
72.4289 250.00
72.4941 240.00
72.5593 221.00
72.6245 211.00
72.6897 285.00
72.7549 222.00
72.8201 284.00
72.8853 218.00
72.9505 261.00
73.0157 249.00
73.0809 257.00
73.1461 214.00
73.2113 241.00
73.2765 269.00
73.3417 245.00
73.4069 256.00
73.4721 231.00
73.5373 224.00
73.6025 200.00
73.6677 267.00
73.7329 219.00
73.7981 213.00
73.8633 238.00
73.9285 232.00
73.9937 264.00
74.0589 234.00
74.1241 250.00
74.1893 215.00
74.2545 250.00
74.3197 250.00
74.3849 256.00
74.4501 224.00
74.5153 229.00
74.5805 231.00
74.6457 239.00
74.7109 246.00
74.7761 211.00
74.8413 245.00
74.9065 233.00
74.9717 242.00
75.0369 261.00
75.1021 240.00
75.1673 259.00
75.2325 238.00
75.2977 233.00
75.3629 239.00
75.4281 279.00
75.4933 236.00
75.5585 248.00
75.6237 263.00
75.6889 236.00
75.7541 238.00
75.8193 220.00
75.8845 231.00
75.9497 215.00
76.0149 257.00
76.0801 238.00
76.1452 233.00
76.2104 237.00
76.2756 266.00
76.3409 231.00
76.406 238.00
76.4712 264.00
76.5364 240.00
76.6016 270.00
76.6668 243.00
76.732 262.00
76.7972 260.00
76.8624 265.00
76.9276 214.00
76.9928 200.00
77.058 233.00
77.1232 242.00
77.1884 228.00
77.2536 224.00
77.3188 225.00
77.384 239.00
77.4492 244.00
77.5144 239.00
77.5796 231.00
77.6448 230.00
77.71 250.00
77.7752 242.00
77.8404 245.00
77.9056 241.00
77.9708 240.00
78.036 242.00
78.1012 225.00
78.1664 260.00
78.2316 249.00
78.2968 251.00
78.362 249.00
78.4272 247.00
78.4924 247.00
78.5576 260.00
78.6228 262.00
78.688 299.00
78.7532 237.00
78.8184 231.00
78.8836 249.00
78.9488 221.00
79.014 265.00
79.0792 244.00
79.1444 260.00
79.2096 246.00
79.2748 262.00
79.34 273.00
79.4052 239.00
79.4704 242.00
79.5356 280.00
79.6008 268.00
79.666 224.00
79.7312 243.00
79.7964 259.00
79.8616 234.00
79.9268 260.00
79.992 265.00
80.0572 236.00
80.1224 236.00
80.1876 265.00
80.2528 256.00
80.318 245.00
80.3832 245.00
80.4484 263.00
80.5136 237.00
80.5788 259.00
80.644 229.00
80.7092 242.00
80.7744 237.00
80.8396 267.00
80.9048 234.00
80.9699 230.00
81.0351 289.00
81.1003 260.00
81.1655 234.00
81.2307 249.00
81.2959 211.00
81.3611 274.00
81.4263 232.00
81.4915 270.00
81.5567 268.00
81.6219 278.00
81.6871 246.00
81.7523 263.00
81.8175 264.00
81.8827 271.00
81.9479 260.00
82.0131 290.00
82.0783 267.00
82.1435 250.00
82.2087 239.00
82.2739 225.00
82.3391 260.00
82.4043 262.00
82.4695 245.00
82.5347 234.00
82.5999 249.00
82.6651 283.00
82.7303 246.00
82.7955 279.00
82.8607 257.00
82.9259 244.00
82.9911 264.00
83.0563 242.00
83.1215 274.00
83.1867 239.00
83.2519 268.00
83.3171 259.00
83.3823 242.00
83.4475 266.00
83.5127 260.00
83.5779 275.00
83.6431 260.00
83.7083 264.00
83.7735 244.00
83.8387 282.00
83.9039 210.00
83.9691 274.00
84.0343 279.00
84.0995 242.00
84.1647 296.00
84.2299 269.00
84.2951 292.00
84.3603 258.00
84.4255 270.00
84.4907 240.00
84.5559 268.00
84.6211 269.00
84.6863 268.00
84.7515 230.00
84.8167 238.00
84.8819 235.00
84.9471 200.00
85.0123 266.00
85.0775 233.00
85.1427 217.00
85.2079 238.00
85.2731 258.00
85.3383 256.00
85.4035 218.00
85.4687 233.00
85.5339 225.00
85.5991 230.00
85.6643 225.00
85.7295 234.00
85.7946 266.00
85.8598 250.00
85.925 206.00
85.9903 239.00
86.0554 214.00
86.1206 231.00
86.1858 249.00
86.251 247.00
86.3162 250.00
86.3814 229.00
86.4466 230.00
86.5118 219.00
86.577 205.00
86.6422 207.00
86.7074 198.00
86.7726 218.00
86.8378 231.00
86.903 248.00
86.9682 218.00
87.0334 246.00
87.0986 248.00
87.1638 238.00
87.229 247.00
87.2942 224.00
87.3594 235.00
87.4246 258.00
87.4898 225.00
87.555 262.00
87.6202 217.00
87.6854 223.00
87.7506 220.00
87.8158 269.00
87.881 206.00
87.9462 240.00
88.0114 242.00
88.0766 207.00
88.1418 226.00
88.207 246.00
88.2722 201.00
88.3374 239.00
88.4026 267.00
88.4678 215.00
88.533 227.00
88.5982 243.00
88.6634 237.00
88.7286 203.00
88.7938 240.00
88.859 229.00
88.9242 244.00
88.9894 199.00
89.0546 204.00
89.1198 191.00
89.185 207.00
89.2502 225.00
89.3154 223.00
89.3806 208.00
89.4458 218.00
89.511 199.00
89.5762 198.00
89.6414 216.00
89.7066 224.00
89.7718 256.00
89.837 214.00
89.9022 184.00
89.9674 257.00
90.0326 261.00
90.0978 229.00
90.163 210.00
90.2282 232.00
90.2934 212.00
90.3586 207.00
90.4238 229.00
90.489 197.00
90.5542 197.00
90.6193 206.00
90.6845 212.00
90.7497 190.00
90.8149 228.00
90.8801 203.00
90.9453 198.00
91.0105 226.00
91.0757 211.00
91.1409 205.00
91.2061 209.00
91.2713 209.00
91.3365 240.00
91.4017 185.00
91.4669 226.00
91.5321 187.00
91.5973 207.00
91.6625 217.00
91.7277 186.00
91.7929 226.00
91.8581 188.00
91.9233 192.00
91.9885 212.00
92.0537 226.00
92.1189 215.00
92.1841 249.00
92.2493 232.00
92.3145 204.00
92.3797 212.00
92.4449 216.00
92.5101 219.00
92.5753 216.00
92.6405 215.00
92.7057 218.00
92.7709 194.00
92.8361 216.00
92.9013 223.00
92.9665 239.00
93.0317 219.00
93.0969 225.00
93.1621 211.00
93.2273 233.00
93.2925 222.00
93.3577 218.00
93.4229 234.00
93.4881 187.00
93.5533 210.00
93.6185 217.00
93.6837 210.00
93.7489 224.00
93.8141 215.00
93.8793 197.00
93.9445 186.00
94.0097 216.00
94.0749 197.00
94.1401 202.00
94.2053 203.00
94.2705 208.00
94.3357 209.00
94.4009 189.00
94.4661 229.00
94.5313 190.00
94.5965 217.00
94.6617 224.00
94.7269 212.00
94.7921 222.00
94.8573 212.00
94.9225 204.00
94.9877 194.00
95.0529 218.00
95.1181 227.00
95.1833 220.00
95.2485 184.00
95.3137 190.00
95.3789 190.00
95.444 222.00
95.5092 210.00
95.5744 221.00
95.6396 201.00
95.7048 228.00
95.77 199.00
95.8352 200.00
95.9004 205.00
95.9656 214.00
96.0308 209.00
96.096 221.00
96.1612 207.00
96.2264 230.00
96.2916 210.00
96.3568 225.00
96.422 237.00
96.4872 230.00
96.5524 226.00
96.6176 192.00
96.6828 210.00
96.748 206.00
96.8132 200.00
96.8784 232.00
96.9436 228.00
97.0088 244.00
97.074 217.00
97.1392 213.00
97.2044 203.00
97.2696 206.00
97.3348 169.00
97.4 201.00
97.4652 225.00
97.5304 194.00
97.5956 224.00
97.6608 211.00
97.726 205.00
97.7912 205.00
97.8564 209.00
97.9216 200.00
97.9868 202.00
98.052 221.00
98.1172 230.00
98.1824 202.00
98.2476 207.00
98.3128 208.00
98.378 204.00
98.4432 207.00
98.5084 216.00
98.5736 216.00
98.6388 237.00
98.704 223.00
98.7692 189.00
98.8344 216.00
98.8996 198.00
98.9648 212.00
99.03 224.00
99.0952 224.00
99.1604 220.00
99.2256 198.00
99.2908 233.00
99.356 199.00
99.4212 219.00
99.4864 201.00
99.5516 226.00
99.6168 187.00
99.682 204.00
99.7472 236.00
99.8124 204.00
99.8776 218.00
99.9428 174.00
100.008 180.00
100.073 200.00
100.095 196.00