File: data/xrd_creation/results/Na_305.xy
9.903433 2805.00
9.968632 2807.00
10.0338 2852.00
10.099 2784.00
10.1642 2878.00
10.2294 2862.00
10.2946 3001.00
10.3598 3159.00
10.425 3320.00
10.4902 3596.00
10.5554 4024.00
10.6206 4713.00
10.6858 4848.00
10.751 3168.00
10.8162 2640.00
10.8814 2643.00
10.9466 2741.00
11.0118 2788.00
11.077 2706.00
11.1422 2899.00
11.2074 2926.00
11.2726 3191.00
11.3378 3152.00
11.403 3107.00
11.4682 2998.00
11.5334 2762.00
11.5986 2914.00
11.6638 2933.00
11.729 3170.00
11.7942 3407.00
11.8594 3545.00
11.9246 3960.00
11.9898 4712.00
12.055 6109.00
12.1202 8031.00
12.1854 7797.00
12.2506 3823.00
12.3158 2632.00
12.381 2588.00
12.4462 2501.00
12.5114 2409.00
12.5766 2478.00
12.6418 2413.00
12.707 2473.00
12.7722 2503.00
12.8374 2550.00
12.9026 2746.00
12.9678 2837.00
13.033 2670.00
13.0982 2414.00
13.1634 2379.00
13.2286 2346.00
13.2938 2307.00
13.359 2285.00
13.4242 2116.00
13.4894 2265.00
13.5546 2280.00
13.6198 2257.00
13.685 2253.00
13.7502 2390.00
13.8154 2396.00
13.8805 2671.00
13.9457 2860.00
14.0109 3231.00
14.0761 2752.00
14.1413 2620.00
14.2065 2452.00
14.2717 2266.00
14.3369 2186.00
14.4021 2194.00
14.4673 2030.00
14.5325 2042.00
14.5977 2084.00
14.6629 1942.00
14.7281 1957.00
14.7933 1968.00
14.8585 1981.00
14.9237 1938.00
14.9889 1954.00
15.0541 1901.00
15.1193 2005.00
15.1845 1908.00
15.2497 1928.00
15.3149 1951.00
15.3801 2003.00
15.4453 1884.00
15.5105 1917.00
15.5757 1941.00
15.6409 1953.00
15.7061 1907.00
15.7713 1960.00
15.8365 2005.00
15.9017 1982.00
15.9669 1979.00
16.0321 1935.00
16.0973 1873.00
16.1625 1898.00
16.2277 1934.00
16.2929 1896.00
16.3581 2025.00
16.4233 2007.00
16.4885 2083.00
16.5537 2011.00
16.6189 2171.00
16.6841 1929.00
16.7493 1917.00
16.8145 1846.00
16.8797 1732.00
16.9449 1773.00
17.0101 1829.00
17.0753 1805.00
17.1405 1873.00
17.2057 1810.00
17.2709 1758.00
17.3361 1822.00
17.4013 1750.00
17.4665 1777.00
17.5317 1847.00
17.5969 1974.00
17.6621 1988.00
17.7273 2064.00
17.7925 2355.00
17.8577 2454.00
17.9229 2212.00
17.9881 1803.00
18.0533 1801.00
18.1185 1723.00
18.1837 1770.00
18.2489 1706.00
18.3141 1672.00
18.3793 1766.00
18.4445 1590.00
18.5097 1704.00
18.5749 1690.00
18.6401 1654.00
18.7052 1642.00
18.7704 1654.00
18.8356 1693.00
18.9008 1611.00
18.966 1707.00
19.0312 1665.00
19.0964 1782.00
19.1616 1720.00
19.2268 1741.00
19.292 1913.00
19.3572 2017.00
19.4224 2144.00
19.4876 2693.00
19.5528 3472.00
19.618 4718.00
19.6832 6228.00
19.7484 6014.00
19.8136 5430.00
19.8788 4396.00
19.944 4345.00
20.0092 3151.00
20.0744 2049.00
20.1396 1772.00
20.2048 1758.00
20.27 1625.00
20.3352 1619.00
20.4004 1564.00
20.4656 1566.00
20.5308 1622.00
20.596 1771.00
20.6612 1731.00
20.7264 1873.00
20.7916 1914.00
20.8568 2098.00
20.922 1892.00
20.9872 1838.00
21.0524 1788.00
21.1176 1747.00
21.1828 1577.00
21.248 1577.00
21.3132 1634.00
21.3784 1596.00
21.4436 1609.00
21.5088 1602.00
21.574 1553.00
21.6392 1585.00
21.7044 1566.00
21.7696 1543.00
21.8348 1545.00
21.9 1551.00
21.9652 1647.00
22.0304 1709.00
22.0956 1665.00
22.1608 1688.00
22.226 1699.00
22.2912 1736.00
22.3564 1678.00
22.4216 1719.00
22.4868 1706.00
22.552 1648.00
22.6172 1755.00
22.6824 1788.00
22.7476 1945.00
22.8128 2275.00
22.878 2643.00
22.9432 3486.00
23.0084 4996.00
23.0736 7047.00
23.1388 7055.00
23.204 5584.00
23.2692 3716.00
23.3344 2220.00
23.3996 1799.00
23.4647 1800.00
23.5299 1729.00
23.5951 1632.00
23.6603 1656.00
23.7255 1776.00
23.7907 1814.00
23.8559 1903.00
23.9211 2267.00
23.9863 2869.00
24.0515 4085.00
24.1167 5113.00
24.1819 4514.00
24.2471 2816.00
24.3123 2432.00
24.3775 2717.00
24.4427 3580.00
24.5079 4231.00
24.5731 3374.00
24.6383 2411.00
24.7035 2102.00
24.7687 2305.00
24.8339 2836.00
24.8991 3441.00
24.9643 2989.00
25.0295 2046.00
25.0947 1762.00
25.1599 1719.00
25.2251 1739.00
25.2903 1669.00
25.3555 1752.00
25.4207 1606.00
25.4859 1581.00
25.5511 1599.00
25.6163 1501.00
25.6815 1500.00
25.7467 1530.00
25.8119 1572.00
25.8771 1673.00
25.9423 1653.00
26.0075 1718.00
26.0727 1720.00
26.1379 1668.00
26.2031 1713.00
26.2683 1881.00
26.3335 2274.00
26.3987 1926.00
26.4639 1590.00
26.5291 1490.00
26.5943 1468.00
26.6595 1511.00
26.7247 1504.00
26.7899 1509.00
26.8551 1548.00
26.9203 1522.00
26.9855 1563.00
27.0507 1507.00
27.1159 1643.00
27.1811 1727.00
27.2463 1779.00
27.3115 1625.00
27.3767 1562.00
27.4419 1602.00
27.5071 1719.00
27.5723 1588.00
27.6375 1652.00
27.7027 1818.00
27.7679 2080.00
27.8331 2636.00
27.8983 3392.00
27.9635 2736.00
28.0287 2027.00
28.0939 1924.00
28.1591 1940.00
28.2243 2066.00
28.2894 2246.00
28.3546 2695.00
28.4198 3617.00
28.485 5676.00
28.5502 9341.00
28.6154 14760.00
28.6806 15410.00
28.7458 10065.00
28.811 5043.00
28.8762 3199.00
28.9414 2586.00
29.0066 2236.00
29.0718 1916.00
29.137 1697.00
29.2022 1737.00
29.2674 1602.00
29.3326 1594.00
29.3978 1595.00
29.463 1673.00
29.5282 1752.00
29.5934 1681.00
29.6586 1712.00
29.7238 1690.00
29.789 1706.00
29.8542 1762.00
29.9194 1753.00
29.9846 1844.00
30.0498 1841.00
30.115 1776.00
30.1802 2116.00
30.2454 2748.00
30.3106 4031.00
30.3758 5175.00
30.441 5016.00
30.5062 3734.00
30.5714 2657.00
30.6366 1999.00
30.7018 1934.00
30.767 1834.00
30.8322 1909.00
30.8974 1883.00
30.9626 1969.00
31.0278 2222.00
31.093 2644.00
31.1582 3970.00
31.2234 6015.00
31.2886 9531.00
31.3538 8925.00
31.419 5870.00
31.4842 4161.00
31.5494 3717.00
31.6146 3373.00
31.6798 3182.00
31.745 3506.00
31.8102 5142.00
31.8754 8363.00
31.9406 12427.00
32.0058 12082.00
32.071 7844.00
32.1362 4474.00
32.2014 2933.00
32.2666 2316.00
32.3318 1978.00
32.397 1840.00
32.4622 1673.00
32.5274 1573.00
32.5926 1578.00
32.6578 1539.00
32.723 1506.00
32.7882 1463.00
32.8534 1461.00
32.9186 1433.00
32.9838 1484.00
33.0489 1521.00
33.1141 1489.00
33.1793 1393.00
33.2445 1465.00
33.3097 1469.00
33.3749 1405.00
33.4401 1490.00
33.5053 1474.00
33.5705 1460.00
33.6357 1539.00
33.7009 1670.00
33.7661 1783.00
33.8313 2064.00
33.8965 2567.00
33.9617 3920.00
34.0269 6339.00
34.0921 9525.00
34.1573 12254.00
34.2225 9740.00
34.2877 7784.00
34.3529 6932.00
34.4181 6345.00
34.4833 4813.00
34.5485 4474.00
34.6137 5442.00
34.6789 5572.00
34.7441 4637.00
34.8093 3959.00
34.8745 4907.00
34.9397 4640.00
35.0049 3504.00
35.0701 2262.00
35.1353 1819.00
35.2005 1623.00
35.2657 1546.00
35.3309 1535.00
35.3961 1484.00
35.4613 1517.00
35.5265 1640.00
35.5917 1816.00
35.6569 2340.00
35.7221 3409.00
35.7873 4914.00
35.8525 5118.00
35.9177 3785.00
35.9829 2368.00
36.0481 1745.00
36.1133 1686.00
36.1785 1701.00
36.2437 2051.00
36.3089 2654.00
36.3741 3504.00
36.4393 3114.00
36.5045 2536.00
36.5697 1801.00
36.6349 1612.00
36.7001 1412.00
36.7653 1428.00
36.8305 1347.00
36.8957 1259.00
36.9609 1240.00
37.0261 1283.00
37.0913 1285.00
37.1565 1194.00
37.2217 1201.00
37.2869 1199.00
37.3521 1242.00
37.4173 1223.00
37.4825 1183.00
37.5477 1239.00
37.6129 1325.00
37.6781 1300.00
37.7433 1241.00
37.8085 1259.00
37.8736 1254.00
37.9388 1221.00
38.004 1176.00
38.0692 1165.00
38.1344 1169.00
38.1996 1075.00
38.2648 1161.00
38.33 1191.00
38.3952 1231.00
38.4604 1201.00
38.5256 1225.00
38.5908 1183.00
38.656 1196.00
38.7212 1273.00
38.7864 1228.00
38.8516 1300.00
38.9168 1446.00
38.982 1782.00
39.0472 2401.00
39.1124 2415.00
39.1776 2020.00
39.2428 1598.00
39.308 1410.00
39.3732 1323.00
39.4384 1237.00
39.5036 1251.00
39.5688 1439.00
39.634 1496.00
39.6992 1487.00
39.7644 1410.00
39.8296 1422.00
39.8948 1391.00
39.96 1383.00
40.0252 1400.00
40.0904 1388.00
40.1556 1432.00
40.2208 1438.00
40.286 1423.00
40.3512 1436.00
40.4164 1435.00
40.4816 1497.00
40.5468 1477.00
40.612 1422.00
40.6772 1270.00
40.7424 1277.00
40.8076 1375.00
40.8728 1360.00
40.938 1399.00
41.0032 1460.00
41.0684 1637.00
41.1336 1960.00
41.1988 2672.00
41.264 3209.00
41.3292 3025.00
41.3944 2721.00
41.4596 2618.00
41.5248 2537.00
41.59 2313.00
41.6552 2435.00
41.7204 2472.00
41.7856 2372.00
41.8508 2247.00
41.916 2173.00
41.9812 2042.00
42.0464 1833.00
42.1116 1845.00
42.1768 1884.00
42.242 1772.00
42.3072 1662.00
42.3724 1495.00
42.4376 1557.00
42.5028 1386.00
42.568 1378.00
42.6332 1264.00
42.6983 1196.00
42.7635 1231.00
42.8287 1157.00
42.8939 1172.00
42.9591 1176.00
43.0243 1198.00
43.0895 1248.00
43.1547 1157.00
43.2199 1221.00
43.2851 1306.00
43.3503 1489.00
43.4155 1580.00
43.4807 1623.00
43.5459 1530.00
43.6111 1492.00
43.6763 1265.00
43.7415 1254.00
43.8067 1261.00
43.8719 1240.00
43.9371 1251.00
44.0023 1151.00
44.0675 1181.00
44.1327 1122.00
44.1979 1146.00
44.2631 1087.00
44.3283 1184.00
44.3935 1231.00
44.4587 1476.00
44.5239 1736.00
44.5891 1549.00
44.6543 1512.00
44.7195 1462.00
44.7847 1303.00
44.8499 1255.00
44.9151 1201.00
44.9803 1157.00
45.0455 1172.00
45.1107 1202.00
45.1759 1247.00
45.2411 1330.00
45.3063 1574.00
45.3715 1796.00
45.4367 1804.00
45.5019 1640.00
45.5671 1457.00
45.6323 1383.00
45.6975 1302.00
45.7627 1374.00
45.8279 1434.00
45.8931 1488.00
45.9583 1711.00
46.0235 2119.00
46.0887 2330.00
46.1539 2611.00
46.2191 2905.00
46.2843 2756.00
46.3495 2135.00
46.4147 1904.00
46.4799 1548.00
46.5451 1591.00
46.6103 1656.00
46.6755 1765.00
46.7407 2286.00
46.8059 3481.00
46.8711 4447.00
46.9363 3436.00
47.0015 3249.00
47.0667 2548.00
47.1319 2006.00
47.1971 1651.00
47.2623 1431.00
47.3275 1284.00
47.3927 1223.00
47.4579 1271.00
47.523 1215.00
47.5882 1242.00
47.6534 1252.00
47.7186 1161.00
47.7838 1160.00
47.849 1185.00
47.9142 1217.00
47.9794 1187.00
48.0446 1327.00
48.1098 1258.00
48.175 1207.00
48.2402 1231.00
48.3054 1188.00
48.3706 1223.00
48.4358 1117.00
48.501 1167.00
48.5662 1224.00
48.6314 1166.00
48.6966 1269.00
48.7618 1346.00
48.827 1534.00
48.8922 1814.00
48.9574 2231.00
49.0226 2631.00
49.0878 2526.00
49.153 2197.00
49.2182 1891.00
49.2834 1639.00
49.3486 1631.00
49.4138 1663.00
49.479 1743.00
49.5442 1776.00
49.6094 1715.00
49.6746 1872.00
49.7398 2454.00
49.805 3722.00
49.8702 3875.00
49.9354 3149.00
50.0006 2506.00
50.0658 1828.00
50.131 1510.00
50.1962 1438.00
50.2614 1427.00
50.3266 1452.00
50.3918 1529.00
50.457 1756.00
50.5222 2300.00
50.5874 2789.00
50.6526 4321.00
50.7178 5532.00
50.783 4564.00
50.8482 3954.00
50.9134 3107.00
50.9786 2402.00
51.0438 2454.00
51.109 3087.00
51.1742 3094.00
51.2394 2797.00
51.3046 2749.00
51.3698 2613.00
51.435 2047.00
51.5002 1839.00
51.5654 1714.00
51.6306 1481.00
51.6958 1573.00
51.761 1786.00
51.8262 1794.00
51.8914 1674.00
51.9566 1628.00
52.0218 1371.00
52.087 1264.00
52.1522 1178.00
52.2174 1177.00
52.2826 1250.00
52.3477 1265.00
52.4129 1234.00
52.4781 1159.00
52.5433 1229.00
52.6085 1180.00
52.6737 1175.00
52.7389 1212.00
52.8041 1275.00
52.8693 1232.00
52.9345 1401.00
52.9997 1536.00
53.0649 2266.00
53.1301 2911.00
53.1953 2449.00
53.2605 2296.00
53.3257 1933.00
53.3909 1487.00
53.4561 1429.00
53.5213 1403.00
53.5865 1356.00
53.6517 1356.00
53.7169 1395.00
53.7821 1347.00
53.8473 1372.00
53.9125 1398.00
53.9777 1319.00
54.0429 1301.00
54.1081 1325.00
54.1733 1195.00
54.2385 1239.00
54.3037 1233.00
54.3689 1290.00
54.4341 1371.00
54.4993 1429.00
54.5645 1781.00
54.6297 2464.00
54.6949 3296.00
54.7601 3352.00
54.8253 2980.00
54.8905 2829.00
54.9557 2293.00
55.0209 2069.00
55.0861 1783.00
55.1513 1651.00
55.2165 1555.00
55.2817 1490.00
55.3469 1455.00
55.4121 1451.00
55.4773 1417.00
55.5425 1391.00
55.6077 1326.00
55.6729 1339.00
55.7381 1478.00
55.8033 1700.00
55.8685 2136.00
55.9337 2931.00
55.9989 3246.00
56.0641 2867.00
56.1293 3163.00
56.1945 2795.00
56.2597 2418.00
56.3249 2095.00
56.3901 1999.00
56.4553 2188.00
56.5205 2568.00
56.5857 2224.00
56.6509 2051.00
56.7161 1857.00
56.7813 1403.00
56.8465 1284.00
56.9117 1294.00
56.9769 1182.00
57.042 1140.00
57.1073 1148.00
57.1724 1164.00
57.2376 1118.00
57.3028 1174.00
57.368 1143.00
57.4332 1196.00
57.4984 1130.00
57.5636 1235.00
57.6288 1359.00
57.694 1672.00
57.7592 2036.00
57.8244 2227.00
57.8896 1968.00
57.9548 1876.00
58.02 1643.00
58.0852 1429.00
58.1504 1265.00
58.2156 1271.00
58.2808 1288.00
58.346 1356.00
58.4112 1623.00
58.4764 2136.00
58.5416 2125.00
58.6068 2010.00
58.672 1990.00
58.7372 1748.00
58.8024 1762.00
58.8676 2001.00
58.9328 2125.00
58.998 2456.00
59.0632 3247.00
59.1284 3007.00
59.1936 2415.00
59.2588 2579.00
59.324 1940.00
59.3892 1569.00
59.4544 1422.00
59.5196 1404.00
59.5848 1279.00
59.65 1191.00
59.7152 1228.00
59.7804 1143.00
59.8456 1159.00
59.9108 1152.00
59.976 1150.00
60.0412 1219.00
60.1064 1249.00
60.1716 1294.00
60.2368 1376.00
60.302 1544.00
60.3672 2082.00
60.4324 2490.00
60.4976 2472.00
60.5628 2587.00
60.628 2798.00
60.6932 2726.00
60.7584 2715.00
60.8236 3097.00
60.8888 3047.00
60.954 2597.00
61.0192 2362.00
61.0844 1940.00
61.1496 1822.00
61.2148 1786.00
61.28 1799.00
61.3452 1660.00
61.4104 1742.00
61.4756 1684.00
61.5408 1485.00
61.606 1402.00
61.6712 1412.00
61.7364 1344.00
61.8016 1361.00
61.8667 1475.00
61.932 1757.00
61.9971 2102.00
62.0623 2102.00
62.1275 1936.00
62.1927 2064.00
62.2579 1960.00
62.3231 1867.00
62.3883 1745.00
62.4535 1923.00
62.5187 2076.00
62.5839 2523.00
62.6491 2308.00
62.7143 2092.00
62.7795 1886.00
62.8447 1654.00
62.9099 1543.00
62.9751 1505.00
63.0403 1368.00
63.1055 1365.00
63.1707 1443.00
63.2359 1357.00
63.3011 1385.00
63.3663 1479.00
63.4315 1898.00
63.4967 2199.00
63.5619 2328.00
63.6271 2060.00
63.6923 1860.00
63.7575 1639.00
63.8227 1405.00
63.8879 1179.00
63.9531 1181.00
64.0183 1125.00
64.0835 1116.00
64.1487 1093.00
64.2139 1005.00
64.2791 1157.00
64.3443 1118.00
64.4095 1129.00
64.4747 1191.00
64.5399 1261.00
64.6051 1253.00
64.6703 1283.00
64.7355 1442.00
64.8007 1443.00
64.8659 1564.00
64.9311 1739.00
64.9963 1618.00
65.0615 1560.00
65.1267 1526.00
65.1919 1440.00
65.2571 1309.00
65.3223 1267.00
65.3875 1177.00
65.4527 1110.00
65.5179 1162.00
65.5831 1136.00
65.6483 1201.00
65.7135 1218.00
65.7787 1307.00
65.8439 1497.00
65.9091 1602.00
65.9743 1751.00
66.0395 2054.00
66.1047 1969.00
66.1699 1871.00
66.2351 1915.00
66.3003 2065.00
66.3655 2554.00
66.4307 2526.00
66.4959 2220.00
66.561 2293.00
66.6263 1997.00
66.6915 1741.00
66.7566 1563.00
66.8218 1383.00
66.887 1312.00
66.9522 1218.00
67.0174 1070.00
67.0826 1071.00
67.1478 1031.00
67.213 995.00
67.2782 1063.00
67.3434 1060.00
67.4086 1062.00
67.4738 1016.00
67.539 1035.00
67.6042 1074.00
67.6694 1070.00
67.7346 937.00
67.7998 1007.00
67.865 1035.00
67.9302 1084.00
67.9954 1046.00
68.0606 1176.00
68.1258 1247.00
68.191 1102.00
68.2562 1093.00
68.3214 1142.00
68.3866 1002.00
68.4518 1020.00
68.517 982.00
68.5822 967.00
68.6474 990.00
68.7126 1000.00
68.7778 983.00
68.843 993.00
68.9082 1050.00
68.9734 1024.00
69.0386 977.00
69.1038 939.00
69.169 985.00
69.2342 1067.00
69.2994 1077.00
69.3646 1239.00
69.4298 1378.00
69.495 1391.00
69.5602 1473.00
69.6254 1638.00
69.6906 1504.00
69.7558 1369.00
69.821 1296.00
69.8862 1166.00
69.9514 1127.00
70.0166 1127.00
70.0818 981.00
70.147 983.00
70.2122 1043.00
70.2774 1071.00
70.3426 1022.00
70.4078 1014.00
70.473 1008.00
70.5382 1028.00
70.6034 979.00
70.6686 1002.00
70.7338 1018.00
70.799 1070.00
70.8642 1009.00
70.9294 1008.00
70.9946 1040.00
71.0598 1080.00
71.125 1035.00
71.1902 1124.00
71.2554 1113.00
71.3205 1235.00
71.3858 1282.00
71.451 1382.00
71.5162 1586.00
71.5813 1380.00
71.6465 1365.00
71.7117 1588.00
71.7769 1545.00
71.8421 1629.00
71.9073 1770.00
71.9725 1847.00
72.0377 1724.00
72.1029 1557.00
72.1681 1550.00
72.2333 1370.00
72.2985 1207.00
72.3637 1129.00
72.4289 1080.00
72.4941 1173.00
72.5593 1040.00
72.6245 1177.00
72.6897 1240.00
72.7549 1328.00
72.8201 1442.00
72.8853 1406.00
72.9505 1241.00
73.0157 1284.00
73.0809 1343.00
73.1461 1322.00
73.2113 1295.00
73.2765 1256.00
73.3417 1372.00
73.4069 1406.00
73.4721 1342.00
73.5373 1192.00
73.6025 1188.00
73.6677 1156.00
73.7329 1128.00
73.7981 1005.00
73.8633 939.00
73.9285 1038.00
73.9937 935.00
74.0589 963.00
74.1241 984.00
74.1893 962.00
74.2545 1017.00
74.3197 1004.00
74.3849 1023.00
74.4501 1008.00
74.5153 950.00
74.5805 933.00
74.6457 932.00
74.7109 937.00
74.7761 991.00
74.8413 1048.00
74.9065 1167.00
74.9717 1057.00
75.0369 1079.00
75.1021 1062.00
75.1673 1082.00
75.2325 1086.00
75.2977 1108.00
75.3629 1185.00
75.4281 1210.00
75.4933 1293.00
75.5585 1250.00
75.6237 1287.00
75.6889 1263.00
75.7541 1453.00
75.8193 1582.00
75.8845 1477.00
75.9497 1353.00
76.0149 1330.00
76.0801 1316.00
76.1452 1207.00
76.2104 1222.00
76.2756 1152.00
76.3409 1112.00
76.406 1099.00
76.4712 1103.00
76.5364 1065.00
76.6016 1101.00
76.6668 1125.00
76.732 1115.00
76.7972 1186.00
76.8624 1215.00
76.9276 1165.00
76.9928 1148.00
77.058 1180.00
77.1232 1225.00
77.1884 1193.00
77.2536 1211.00
77.3188 1229.00
77.384 1096.00
77.4492 1154.00
77.5144 1126.00
77.5796 1092.00
77.6448 1010.00
77.71 960.00
77.7752 976.00
77.8404 984.00
77.9056 1004.00
77.9708 1061.00
78.036 1094.00
78.1012 1161.00
78.1664 1129.00
78.2316 1164.00
78.2968 1168.00
78.362 1049.00
78.4272 1007.00
78.4924 1010.00
78.5576 977.00
78.6228 953.00
78.688 993.00
78.7532 1039.00
78.8184 1034.00
78.8836 1095.00
78.9488 1064.00
79.014 1057.00
79.0792 1102.00
79.1444 1022.00
79.2096 992.00
79.2748 992.00
79.34 1045.00
79.4052 1089.00
79.4704 1143.00
79.5356 1154.00
79.6008 1291.00
79.666 1480.00
79.7312 1486.00
79.7964 1450.00
79.8616 1549.00
79.9268 1582.00
79.992 1520.00
80.0572 1350.00
80.1224 1270.00
80.1876 1263.00
80.2528 1140.00
80.318 1116.00
80.3832 1076.00
80.4484 991.00
80.5136 931.00
80.5788 909.00
80.644 965.00
80.7092 937.00
80.7744 936.00
80.8396 931.00
80.9048 947.00
80.9699 969.00
81.0351 1014.00
81.1003 1003.00
81.1655 970.00
81.2307 1025.00
81.2959 997.00
81.3611 1134.00
81.4263 1131.00
81.4915 1184.00
81.5567 1155.00
81.6219 1052.00
81.6871 1098.00
81.7523 1129.00
81.8175 1181.00
81.8827 1218.00
81.9479 1239.00
82.0131 1192.00
82.0783 1266.00
82.1435 1241.00
82.2087 1219.00
82.2739 1261.00
82.3391 1394.00
82.4043 1240.00
82.4695 1135.00
82.5347 1180.00
82.5999 1139.00
82.6651 1162.00
82.7303 1120.00
82.7955 1055.00
82.8607 982.00
82.9259 1131.00
82.9911 1130.00
83.0563 1164.00
83.1215 1152.00
83.1867 1029.00
83.2519 1100.00
83.3171 1253.00
83.3823 1210.00
83.4475 1256.00
83.5127 1194.00
83.5779 1201.00
83.6431 1222.00
83.7083 1182.00
83.7735 1130.00
83.8387 1244.00
83.9039 1354.00
83.9691 1250.00
84.0343 1239.00
84.0995 1306.00
84.1647 1224.00
84.2299 1150.00
84.2951 1129.00
84.3603 1114.00
84.4255 1120.00
84.4907 1143.00
84.5559 1111.00
84.6211 1210.00
84.6863 1325.00
84.7515 1286.00
84.8167 1249.00
84.8819 1359.00
84.9471 1386.00
85.0123 1416.00
85.0775 1284.00
85.1427 1202.00
85.2079 1187.00
85.2731 1152.00
85.3383 1134.00
85.4035 1093.00
85.4687 998.00
85.5339 1021.00
85.5991 1085.00
85.6643 1223.00
85.7295 1143.00
85.7946 1238.00
85.8598 1113.00
85.925 1254.00
85.9903 1264.00
86.0554 1236.00
86.1206 1175.00
86.1858 1208.00
86.251 1158.00
86.3162 1167.00
86.3814 1060.00
86.4466 1178.00
86.5118 1173.00
86.577 1162.00
86.6422 1174.00
86.7074 1213.00
86.7726 1107.00
86.8378 1146.00
86.903 1214.00
86.9682 1210.00
87.0334 1199.00
87.0986 1071.00
87.1638 1134.00
87.229 1095.00
87.2942 1039.00
87.3594 1074.00
87.4246 1031.00
87.4898 949.00
87.555 960.00
87.6202 1002.00
87.6854 1050.00
87.7506 995.00
87.8158 1038.00
87.881 980.00
87.9462 991.00
88.0114 1031.00
88.0766 1089.00
88.1418 1109.00
88.207 1213.00
88.2722 1383.00
88.3374 1207.00
88.4026 1137.00
88.4678 1128.00
88.533 1255.00
88.5982 1202.00
88.6634 1180.00
88.7286 1085.00
88.7938 1056.00
88.859 1134.00
88.9242 1252.00
88.9894 1325.00
89.0546 1354.00
89.1198 1266.00
89.185 1279.00
89.2502 1323.00
89.3154 1375.00
89.3806 1462.00
89.4458 1458.00
89.511 1429.00
89.5762 1298.00
89.6414 1295.00
89.7066 1330.00
89.7718 1229.00
89.837 1244.00
89.9022 1139.00
89.9674 1135.00
90.0326 1152.00
90.0978 1125.00
90.163 1157.00
90.2282 1104.00
90.2934 1128.00
90.3586 1117.00
90.4238 1145.00
90.489 1177.00
90.5542 1223.00
90.6193 1335.00
90.6845 1340.00
90.7497 1273.00
90.8149 1210.00
90.8801 1238.00
90.9453 1224.00
91.0105 1175.00
91.0757 1140.00
91.1409 1079.00
91.2061 1077.00
91.2713 1015.00
91.3365 1037.00
91.4017 1040.00
91.4669 1085.00
91.5321 1110.00
91.5973 1134.00
91.6625 1121.00
91.7277 1010.00
91.7929 983.00
91.8581 972.00
91.9233 1005.00
91.9885 998.00
92.0537 961.00
92.1189 1070.00
92.1841 1135.00
92.2493 1131.00
92.3145 1042.00
92.3797 1083.00
92.4449 1149.00
92.5101 1107.00
92.5753 1074.00
92.6405 1040.00
92.7057 1051.00
92.7709 1076.00
92.8361 1029.00
92.9013 987.00
92.9665 1035.00
93.0317 1068.00
93.0969 987.00
93.1621 1035.00
93.2273 1002.00
93.2925 1022.00
93.3577 1011.00
93.4229 961.00
93.4881 962.00
93.5533 962.00
93.6185 966.00
93.6837 951.00
93.7489 908.00
93.8141 981.00
93.8793 879.00
93.9445 931.00
94.0097 957.00
94.0749 969.00
94.1401 977.00
94.2053 899.00
94.2705 966.00
94.3357 1017.00
94.4009 995.00
94.4661 991.00
94.5313 1070.00
94.5965 1117.00
94.6617 1171.00
94.7269 1193.00
94.7921 1145.00
94.8573 1160.00
94.9225 1098.00
94.9877 1117.00
95.0529 1156.00
95.1181 1126.00
95.1833 1026.00
95.2485 979.00
95.3137 1038.00
95.3789 1023.00
95.444 1093.00
95.5092 1009.00
95.5744 1040.00
95.6396 1137.00
95.7048 1212.00
95.77 1197.00
95.8352 1252.00
95.9004 1265.00
95.9656 1300.00
96.0308 1326.00
96.096 1279.00
96.1612 1208.00
96.2264 1189.00
96.2916 1130.00
96.3568 1102.00
96.422 1082.00
96.4872 1017.00
96.5524 1011.00
96.6176 1032.00
96.6828 999.00
96.748 1035.00
96.8132 981.00
96.8784 1034.00
96.9436 1139.00
97.0088 1258.00
97.074 1293.00
97.1392 1239.00
97.2044 1219.00
97.2696 1151.00
97.3348 1244.00
97.4 1362.00
97.4652 1405.00
97.5304 1352.00
97.5956 1304.00
97.6608 1235.00
97.726 1275.00
97.7912 1324.00
97.8564 1378.00
97.9216 1346.00
97.9868 1303.00
98.052 1202.00
98.1172 1140.00
98.1824 1175.00
98.2476 1109.00
98.3128 1065.00
98.378 1080.00
98.4432 1052.00
98.5084 1087.00
98.5736 1012.00
98.6388 998.00
98.704 1055.00
98.7692 1121.00
98.8344 1113.00
98.8996 1290.00
98.9648 1196.00
99.03 1170.00
99.0952 1087.00
99.1604 1112.00
99.2256 1140.00
99.2908 1242.00
99.356 1116.00
99.4212 1206.00
99.4864 1254.00
99.5516 1306.00
99.6168 1410.00
99.682 1348.00
99.7472 1339.00
99.8124 1220.00
99.8776 1297.00
99.9428 1239.00
100.008 1140.00
100.073 1232.00
100.095 1215.00