File: data/xrd_creation/results/Na_36.xy
9.903433 2656.00
9.968632 2587.00
10.0338 2593.00
10.099 2489.00
10.1642 2537.00
10.2294 2549.00
10.2946 2505.00
10.3598 2541.00
10.425 2445.00
10.4902 2413.00
10.5554 2408.00
10.6206 2399.00
10.6858 2415.00
10.751 2320.00
10.8162 2265.00
10.8814 2303.00
10.9466 2291.00
11.0118 2290.00
11.077 2222.00
11.1422 2276.00
11.2074 2173.00
11.2726 2199.00
11.3378 2166.00
11.403 2133.00
11.4682 2136.00
11.5334 2007.00
11.5986 2136.00
11.6638 2145.00
11.729 2062.00
11.7942 2023.00
11.8594 2022.00
11.9246 1893.00
11.9898 2000.00
12.055 1933.00
12.1202 1945.00
12.1854 1966.00
12.2506 1884.00
12.3158 1978.00
12.381 1785.00
12.4462 1783.00
12.5114 1901.00
12.5766 1856.00
12.6418 1855.00
12.707 1783.00
12.7722 1817.00
12.8374 1828.00
12.9026 1722.00
12.9678 1669.00
13.033 1722.00
13.0982 1704.00
13.1634 1666.00
13.2286 1684.00
13.2938 1705.00
13.359 1733.00
13.4242 1569.00
13.4894 1601.00
13.5546 1676.00
13.6198 1702.00
13.685 1680.00
13.7502 1668.00
13.8154 1561.00
13.8805 1576.00
13.9457 1532.00
14.0109 1496.00
14.0761 1535.00
14.1413 1549.00
14.2065 1546.00
14.2717 1500.00
14.3369 1442.00
14.4021 1506.00
14.4673 1528.00
14.5325 1482.00
14.5977 1512.00
14.6629 1472.00
14.7281 1511.00
14.7933 1430.00
14.8585 1467.00
14.9237 1440.00
14.9889 1417.00
15.0541 1474.00
15.1193 1400.00
15.1845 1364.00
15.2497 1477.00
15.3149 1365.00
15.3801 1351.00
15.4453 1440.00
15.5105 1410.00
15.5757 1410.00
15.6409 1375.00
15.7061 1403.00
15.7713 1419.00
15.8365 1397.00
15.9017 1362.00
15.9669 1359.00
16.0321 1321.00
16.0973 1284.00
16.1625 1344.00
16.2277 1390.00
16.2929 1351.00
16.3581 1370.00
16.4233 1338.00
16.4885 1305.00
16.5537 1258.00
16.6189 1342.00
16.6841 1281.00
16.7493 1328.00
16.8145 1289.00
16.8797 1180.00
16.9449 1210.00
17.0101 1256.00
17.0753 1235.00
17.1405 1250.00
17.2057 1264.00
17.2709 1226.00
17.3361 1208.00
17.4013 1203.00
17.4665 1216.00
17.5317 1201.00
17.5969 1202.00
17.6621 1180.00
17.7273 1197.00
17.7925 1194.00
17.8577 1182.00
17.9229 1193.00
17.9881 1177.00
18.0533 1145.00
18.1185 1192.00
18.1837 1141.00
18.2489 1198.00
18.3141 1181.00
18.3793 1059.00
18.4445 1109.00
18.5097 1092.00
18.5749 1079.00
18.6401 1170.00
18.7052 1104.00
18.7704 1103.00
18.8356 1037.00
18.9008 1113.00
18.966 1057.00
19.0312 1153.00
19.0964 1015.00
19.1616 1110.00
19.2268 1134.00
19.292 1029.00
19.3572 1117.00
19.4224 1105.00
19.4876 1015.00
19.5528 1057.00
19.618 1101.00
19.6832 1023.00
19.7484 1095.00
19.8136 1015.00
19.8788 1064.00
19.944 973.00
20.0092 998.00
20.0744 1040.00
20.1396 1093.00
20.2048 1105.00
20.27 1140.00
20.3352 1202.00
20.4004 1189.00
20.4656 1028.00
20.5308 993.00
20.596 1002.00
20.6612 959.00
20.7264 999.00
20.7916 967.00
20.8568 867.00
20.922 952.00
20.9872 969.00
21.0524 964.00
21.1176 947.00
21.1828 978.00
21.248 957.00
21.3132 900.00
21.3784 915.00
21.4436 878.00
21.5088 920.00
21.574 953.00
21.6392 876.00
21.7044 875.00
21.7696 921.00
21.8348 923.00
21.9 928.00
21.9652 889.00
22.0304 940.00
22.0956 871.00
22.1608 909.00
22.226 855.00
22.2912 849.00
22.3564 867.00
22.4216 890.00
22.4868 861.00
22.552 884.00
22.6172 905.00
22.6824 840.00
22.7476 889.00
22.8128 917.00
22.878 870.00
22.9432 895.00
23.0084 932.00
23.0736 796.00
23.1388 798.00
23.204 809.00
23.2692 823.00
23.3344 845.00
23.3996 872.00
23.4647 853.00
23.5299 800.00
23.5951 735.00
23.6603 823.00
23.7255 794.00
23.7907 848.00
23.8559 827.00
23.9211 873.00
23.9863 808.00
24.0515 803.00
24.1167 801.00
24.1819 738.00
24.2471 774.00
24.3123 792.00
24.3775 786.00
24.4427 736.00
24.5079 798.00
24.5731 762.00
24.6383 731.00
24.7035 777.00
24.7687 817.00
24.8339 761.00
24.8991 733.00
24.9643 730.00
25.0295 758.00
25.0947 794.00
25.1599 732.00
25.2251 732.00
25.2903 809.00
25.3555 773.00
25.4207 703.00
25.4859 780.00
25.5511 750.00
25.6163 744.00
25.6815 726.00
25.7467 719.00
25.8119 746.00
25.8771 722.00
25.9423 706.00
26.0075 725.00
26.0727 741.00
26.1379 753.00
26.2031 713.00
26.2683 707.00
26.3335 647.00
26.3987 715.00
26.4639 782.00
26.5291 757.00
26.5943 706.00
26.6595 699.00
26.7247 695.00
26.7899 661.00
26.8551 696.00
26.9203 702.00
26.9855 722.00
27.0507 683.00
27.1159 712.00
27.1811 755.00
27.2463 742.00
27.3115 702.00
27.3767 709.00
27.4419 694.00
27.5071 709.00
27.5723 699.00
27.6375 691.00
27.7027 665.00
27.7679 687.00
27.8331 678.00
27.8983 702.00
27.9635 675.00
28.0287 666.00
28.0939 668.00
28.1591 618.00
28.2243 691.00
28.2894 675.00
28.3546 678.00
28.4198 704.00
28.485 672.00
28.5502 692.00
28.6154 679.00
28.6806 764.00
28.7458 816.00
28.811 942.00
28.8762 1290.00
28.9414 1945.00
29.0066 2686.00
29.0718 2126.00
29.137 1277.00
29.2022 873.00
29.2674 759.00
29.3326 708.00
29.3978 704.00
29.463 638.00
29.5282 636.00
29.5934 647.00
29.6586 688.00
29.7238 651.00
29.789 664.00
29.8542 636.00
29.9194 639.00
29.9846 680.00
30.0498 638.00
30.115 595.00
30.1802 630.00
30.2454 620.00
30.3106 611.00
30.3758 621.00
30.441 619.00
30.5062 616.00
30.5714 622.00
30.6366 602.00
30.7018 589.00
30.767 598.00
30.8322 581.00
30.8974 536.00
30.9626 585.00
31.0278 597.00
31.093 572.00
31.1582 564.00
31.2234 604.00
31.2886 638.00
31.3538 648.00
31.419 706.00
31.4842 1054.00
31.5494 1571.00
31.6146 1420.00
31.6798 960.00
31.745 691.00
31.8102 613.00
31.8754 553.00
31.9406 568.00
32.0058 550.00
32.071 545.00
32.1362 541.00
32.2014 552.00
32.2666 563.00
32.3318 585.00
32.397 524.00
32.4622 556.00
32.5274 480.00
32.5926 522.00
32.6578 544.00
32.723 578.00
32.7882 515.00
32.8534 518.00
32.9186 513.00
32.9838 513.00
33.0489 529.00
33.1141 580.00
33.1793 538.00
33.2445 502.00
33.3097 523.00
33.3749 544.00
33.4401 564.00
33.5053 667.00
33.5705 850.00
33.6357 1082.00
33.7009 993.00
33.7661 742.00
33.8313 666.00
33.8965 537.00
33.9617 552.00
34.0269 500.00
34.0921 515.00
34.1573 542.00
34.2225 470.00
34.2877 501.00
34.3529 508.00
34.4181 501.00
34.4833 520.00
34.5485 450.00
34.6137 484.00
34.6789 470.00
34.7441 463.00
34.8093 498.00
34.8745 448.00
34.9397 472.00
35.0049 509.00
35.0701 442.00
35.1353 520.00
35.2005 495.00
35.2657 480.00
35.3309 480.00
35.3961 491.00
35.4613 511.00
35.5265 437.00
35.5917 475.00
35.6569 483.00
35.7221 512.00
35.7873 573.00
35.8525 511.00
35.9177 544.00
35.9829 460.00
36.0481 453.00
36.1133 437.00
36.1785 436.00
36.2437 467.00
36.3089 466.00
36.3741 459.00
36.4393 444.00
36.5045 471.00
36.5697 475.00
36.6349 443.00
36.7001 426.00
36.7653 486.00
36.8305 429.00
36.8957 470.00
36.9609 447.00
37.0261 407.00
37.0913 421.00
37.1565 455.00
37.2217 431.00
37.2869 453.00
37.3521 422.00
37.4173 451.00
37.4825 444.00
37.5477 491.00
37.6129 387.00
37.6781 479.00
37.7433 444.00
37.8085 445.00
37.8736 436.00
37.9388 401.00
38.004 423.00
38.0692 366.00
38.1344 386.00
38.1996 430.00
38.2648 417.00
38.33 449.00
38.3952 381.00
38.4604 457.00
38.5256 412.00
38.5908 440.00
38.656 368.00
38.7212 412.00
38.7864 390.00
38.8516 403.00
38.9168 462.00
38.982 413.00
39.0472 422.00
39.1124 410.00
39.1776 402.00
39.2428 410.00
39.308 384.00
39.3732 413.00
39.4384 384.00
39.5036 419.00
39.5688 419.00
39.634 467.00
39.6992 425.00
39.7644 479.00
39.8296 462.00
39.8948 413.00
39.96 403.00
40.0252 408.00
40.0904 392.00
40.1556 405.00
40.2208 397.00
40.286 389.00
40.3512 399.00
40.4164 373.00
40.4816 375.00
40.5468 373.00
40.612 385.00
40.6772 374.00
40.7424 379.00
40.8076 396.00
40.8728 388.00
40.938 354.00
41.0032 378.00
41.0684 386.00
41.1336 369.00
41.1988 349.00
41.264 365.00
41.3292 388.00
41.3944 358.00
41.4596 341.00
41.5248 360.00
41.59 396.00
41.6552 385.00
41.7204 373.00
41.7856 346.00
41.8508 372.00
41.916 373.00
41.9812 368.00
42.0464 372.00
42.1116 383.00
42.1768 384.00
42.242 334.00
42.3072 376.00
42.3724 358.00
42.4376 345.00
42.5028 359.00
42.568 354.00
42.6332 344.00
42.6983 350.00
42.7635 352.00
42.8287 350.00
42.8939 391.00
42.9591 328.00
43.0243 358.00
43.0895 348.00
43.1547 383.00
43.2199 381.00
43.2851 470.00
43.3503 503.00
43.4155 445.00
43.4807 444.00
43.5459 379.00
43.6111 362.00
43.6763 384.00
43.7415 369.00
43.8067 366.00
43.8719 361.00
43.9371 356.00
44.0023 379.00
44.0675 362.00
44.1327 331.00
44.1979 343.00
44.2631 344.00
44.3283 370.00
44.3935 357.00
44.4587 309.00
44.5239 311.00
44.5891 316.00
44.6543 374.00
44.7195 326.00
44.7847 365.00
44.8499 343.00
44.9151 354.00
44.9803 361.00
45.0455 385.00
45.1107 391.00
45.1759 426.00
45.2411 530.00
45.3063 648.00
45.3715 565.00
45.4367 512.00
45.5019 413.00
45.5671 387.00
45.6323 348.00
45.6975 333.00
45.7627 372.00
45.8279 355.00
45.8931 312.00
45.9583 330.00
46.0235 351.00
46.0887 324.00
46.1539 345.00
46.2191 325.00
46.2843 333.00
46.3495 323.00
46.4147 330.00
46.4799 339.00
46.5451 348.00
46.6103 277.00
46.6755 325.00
46.7407 335.00
46.8059 389.00
46.8711 353.00
46.9363 317.00
47.0015 307.00
47.0667 277.00
47.1319 333.00
47.1971 320.00
47.2623 321.00
47.3275 341.00
47.3927 334.00
47.4579 364.00
47.523 343.00
47.5882 346.00
47.6534 303.00
47.7186 329.00
47.7838 313.00
47.849 330.00
47.9142 308.00
47.9794 323.00
48.0446 328.00
48.1098 356.00
48.175 341.00
48.2402 409.00
48.3054 606.00
48.3706 854.00
48.4358 774.00
48.501 694.00
48.5662 492.00
48.6314 383.00
48.6966 363.00
48.7618 310.00
48.827 318.00
48.8922 310.00
48.9574 300.00
49.0226 313.00
49.0878 314.00
49.153 330.00
49.2182 327.00
49.2834 318.00
49.3486 305.00
49.4138 316.00
49.479 302.00
49.5442 297.00
49.6094 361.00
49.6746 316.00
49.7398 338.00
49.805 313.00
49.8702 342.00
49.9354 351.00
50.0006 321.00
50.0658 349.00
50.131 360.00
50.1962 347.00
50.2614 321.00
50.3266 312.00
50.3918 318.00
50.457 342.00
50.5222 265.00
50.5874 295.00
50.6526 297.00
50.7178 280.00
50.783 319.00
50.8482 317.00
50.9134 320.00
50.9786 297.00
51.0438 310.00
51.109 304.00
51.1742 292.00
51.2394 289.00
51.3046 292.00
51.3698 315.00
51.435 311.00
51.5002 296.00
51.5654 285.00
51.6306 312.00
51.6958 285.00
51.761 306.00
51.8262 296.00
51.8914 328.00
51.9566 298.00
52.0218 271.00
52.087 308.00
52.1522 267.00
52.2174 301.00
52.2826 325.00
52.3477 320.00
52.4129 324.00
52.4781 277.00
52.5433 302.00
52.6085 299.00
52.6737 271.00
52.7389 303.00
52.8041 284.00
52.8693 295.00
52.9345 284.00
52.9997 318.00
53.0649 344.00
53.1301 339.00
53.1953 309.00
53.2605 298.00
53.3257 292.00
53.3909 273.00
53.4561 270.00
53.5213 273.00
53.5865 279.00
53.6517 318.00
53.7169 281.00
53.7821 264.00
53.8473 316.00
53.9125 286.00
53.9777 272.00
54.0429 315.00
54.1081 302.00
54.1733 283.00
54.2385 267.00
54.3037 291.00
54.3689 287.00
54.4341 286.00
54.4993 281.00
54.5645 265.00
54.6297 299.00
54.6949 272.00
54.7601 278.00
54.8253 283.00
54.8905 249.00
54.9557 260.00
55.0209 306.00
55.0861 272.00
55.1513 286.00
55.2165 304.00
55.2817 265.00
55.3469 284.00
55.4121 302.00
55.4773 291.00
55.5425 302.00
55.6077 291.00
55.6729 265.00
55.7381 261.00
55.8033 269.00
55.8685 307.00
55.9337 280.00
55.9989 287.00
56.0641 275.00
56.1293 309.00
56.1945 309.00
56.2597 321.00
56.3249 351.00
56.3901 330.00
56.4553 328.00
56.5205 276.00
56.5857 269.00
56.6509 258.00
56.7161 260.00
56.7813 277.00
56.8465 281.00
56.9117 276.00
56.9769 268.00
57.042 231.00
57.1073 278.00
57.1724 281.00
57.2376 288.00
57.3028 308.00
57.368 379.00
57.4332 510.00
57.4984 571.00
57.5636 443.00
57.6288 441.00
57.694 353.00
57.7592 288.00
57.8244 275.00
57.8896 286.00
57.9548 249.00
58.02 262.00
58.0852 256.00
58.1504 285.00
58.2156 247.00
58.2808 237.00
58.346 231.00
58.4112 228.00
58.4764 237.00
58.5416 248.00
58.6068 221.00
58.672 291.00
58.7372 281.00
58.8024 287.00
58.8676 315.00
58.9328 290.00
58.998 289.00
59.0632 275.00
59.1284 244.00
59.1936 243.00
59.2588 257.00
59.324 277.00
59.3892 247.00
59.4544 260.00
59.5196 243.00
59.5848 277.00
59.65 217.00
59.7152 240.00
59.7804 241.00
59.8456 239.00
59.9108 262.00
59.976 273.00
60.0412 221.00
60.1064 234.00
60.1716 286.00
60.2368 280.00
60.302 281.00
60.3672 263.00
60.4324 267.00
60.4976 273.00
60.5628 258.00
60.628 231.00
60.6932 250.00
60.7584 223.00
60.8236 221.00
60.8888 212.00
60.954 238.00
61.0192 233.00
61.0844 247.00
61.1496 224.00
61.2148 227.00
61.28 244.00
61.3452 244.00
61.4104 243.00
61.4756 222.00
61.5408 231.00
61.606 242.00
61.6712 264.00
61.7364 227.00
61.8016 221.00
61.8667 218.00
61.932 236.00
61.9971 225.00
62.0623 232.00
62.1275 221.00
62.1927 249.00
62.2579 244.00
62.3231 243.00
62.3883 207.00
62.4535 240.00
62.5187 249.00
62.5839 227.00
62.6491 225.00
62.7143 241.00
62.7795 221.00
62.8447 205.00
62.9099 244.00
62.9751 234.00
63.0403 250.00
63.1055 231.00
63.1707 206.00
63.2359 244.00
63.3011 227.00
63.3663 232.00
63.4315 249.00
63.4967 213.00
63.5619 243.00
63.6271 229.00
63.6923 235.00
63.7575 241.00
63.8227 222.00
63.8879 225.00
63.9531 233.00
64.0183 239.00
64.0835 207.00
64.1487 229.00
64.2139 212.00
64.2791 237.00
64.3443 273.00
64.4095 245.00
64.4747 262.00
64.5399 224.00
64.6051 230.00
64.6703 227.00
64.7355 244.00
64.8007 247.00
64.8659 211.00
64.9311 219.00
64.9963 239.00
65.0615 233.00
65.1267 229.00
65.1919 195.00
65.2571 223.00
65.3223 214.00
65.3875 231.00
65.4527 221.00
65.5179 243.00
65.5831 207.00
65.6483 249.00
65.7135 240.00
65.7787 210.00
65.8439 233.00
65.9091 229.00
65.9743 281.00
66.0395 262.00
66.1047 282.00
66.1699 241.00
66.2351 216.00
66.3003 242.00
66.3655 211.00
66.4307 212.00
66.4959 230.00
66.561 219.00
66.6263 222.00
66.6915 210.00
66.7566 235.00
66.8218 205.00
66.887 245.00
66.9522 230.00
67.0174 228.00
67.0826 217.00
67.1478 216.00
67.213 239.00
67.2782 248.00
67.3434 203.00
67.4086 227.00
67.4738 235.00
67.539 234.00
67.6042 213.00
67.6694 205.00
67.7346 223.00
67.7998 238.00
67.865 226.00
67.9302 246.00
67.9954 236.00
68.0606 249.00
68.1258 237.00
68.191 258.00
68.2562 233.00
68.3214 229.00
68.3866 237.00
68.4518 198.00
68.517 224.00
68.5822 223.00
68.6474 236.00
68.7126 200.00
68.7778 261.00
68.843 205.00
68.9082 222.00
68.9734 217.00
69.0386 241.00
69.1038 233.00
69.169 208.00
69.2342 198.00
69.2994 184.00
69.3646 235.00
69.4298 192.00
69.495 225.00
69.5602 226.00
69.6254 237.00
69.6906 233.00
69.7558 225.00
69.821 213.00
69.8862 224.00
69.9514 217.00
70.0166 231.00
70.0818 218.00
70.147 199.00
70.2122 245.00
70.2774 221.00
70.3426 214.00
70.4078 223.00
70.473 219.00
70.5382 242.00
70.6034 242.00
70.6686 229.00
70.7338 237.00
70.799 233.00
70.8642 232.00
70.9294 263.00
70.9946 247.00
71.0598 264.00
71.125 249.00
71.1902 210.00
71.2554 216.00
71.3205 213.00
71.3858 201.00
71.451 234.00
71.5162 212.00
71.5813 214.00
71.6465 243.00
71.7117 242.00
71.7769 195.00
71.8421 223.00
71.9073 244.00
71.9725 218.00
72.0377 222.00
72.1029 267.00
72.1681 241.00
72.2333 273.00
72.2985 233.00
72.3637 224.00
72.4289 232.00
72.4941 240.00
72.5593 232.00
72.6245 236.00
72.6897 215.00
72.7549 200.00
72.8201 228.00
72.8853 215.00
72.9505 228.00
73.0157 227.00
73.0809 250.00
73.1461 239.00
73.2113 209.00
73.2765 245.00
73.3417 219.00
73.4069 220.00
73.4721 270.00
73.5373 249.00
73.6025 227.00
73.6677 217.00
73.7329 206.00
73.7981 225.00
73.8633 226.00
73.9285 223.00
73.9937 209.00
74.0589 228.00
74.1241 263.00
74.1893 235.00
74.2545 238.00
74.3197 243.00
74.3849 233.00
74.4501 258.00
74.5153 242.00
74.5805 228.00
74.6457 218.00
74.7109 250.00
74.7761 229.00
74.8413 244.00
74.9065 240.00
74.9717 277.00
75.0369 275.00
75.1021 290.00
75.1673 326.00
75.2325 296.00
75.2977 264.00
75.3629 285.00
75.4281 266.00
75.4933 243.00
75.5585 258.00
75.6237 262.00
75.6889 219.00
75.7541 226.00
75.8193 249.00
75.8845 237.00
75.9497 242.00
76.0149 234.00
76.0801 273.00
76.1452 250.00
76.2104 235.00
76.2756 271.00
76.3409 263.00
76.406 236.00
76.4712 227.00
76.5364 229.00
76.6016 210.00
76.6668 240.00
76.732 237.00
76.7972 224.00
76.8624 198.00
76.9276 275.00
76.9928 277.00
77.058 220.00
77.1232 264.00
77.1884 269.00
77.2536 267.00
77.3188 276.00
77.384 269.00
77.4492 285.00
77.5144 230.00
77.5796 246.00
77.6448 224.00
77.71 221.00
77.7752 268.00
77.8404 229.00
77.9056 268.00
77.9708 221.00
78.036 237.00
78.1012 297.00
78.1664 262.00
78.2316 272.00
78.2968 295.00
78.362 287.00
78.4272 292.00
78.4924 311.00
78.5576 285.00
78.6228 326.00
78.688 257.00
78.7532 251.00
78.8184 283.00
78.8836 247.00
78.9488 259.00
79.014 235.00
79.0792 275.00
79.1444 250.00
79.2096 215.00
79.2748 247.00
79.34 267.00
79.4052 273.00
79.4704 231.00
79.5356 260.00
79.6008 265.00
79.666 249.00
79.7312 228.00
79.7964 267.00
79.8616 269.00
79.9268 224.00
79.992 275.00
80.0572 264.00
80.1224 235.00
80.1876 216.00
80.2528 276.00
80.318 230.00
80.3832 216.00
80.4484 266.00
80.5136 292.00
80.5788 261.00
80.644 258.00
80.7092 242.00
80.7744 238.00
80.8396 302.00
80.9048 273.00
80.9699 288.00
81.0351 294.00
81.1003 259.00
81.1655 283.00
81.2307 240.00
81.2959 299.00
81.3611 280.00
81.4263 286.00
81.4915 236.00
81.5567 260.00
81.6219 249.00
81.6871 247.00
81.7523 247.00
81.8175 295.00
81.8827 240.00
81.9479 247.00
82.0131 249.00
82.0783 270.00
82.1435 273.00
82.2087 228.00
82.2739 239.00
82.3391 265.00
82.4043 239.00
82.4695 256.00
82.5347 221.00
82.5999 268.00
82.6651 273.00
82.7303 225.00
82.7955 236.00
82.8607 244.00
82.9259 281.00
82.9911 263.00
83.0563 250.00
83.1215 275.00
83.1867 270.00
83.2519 261.00
83.3171 281.00
83.3823 268.00
83.4475 249.00
83.5127 247.00
83.5779 249.00
83.6431 274.00
83.7083 277.00
83.7735 245.00
83.8387 284.00
83.9039 277.00
83.9691 273.00
84.0343 256.00
84.0995 271.00
84.1647 243.00
84.2299 231.00
84.2951 234.00
84.3603 234.00
84.4255 229.00
84.4907 233.00
84.5559 225.00
84.6211 210.00
84.6863 223.00
84.7515 260.00
84.8167 239.00
84.8819 233.00
84.9471 271.00
85.0123 247.00
85.0775 260.00
85.1427 234.00
85.2079 267.00
85.2731 267.00
85.3383 256.00
85.4035 217.00
85.4687 223.00
85.5339 270.00
85.5991 219.00
85.6643 241.00
85.7295 261.00
85.7946 231.00
85.8598 234.00
85.925 226.00
85.9903 228.00
86.0554 231.00
86.1206 215.00
86.1858 222.00
86.251 205.00
86.3162 233.00
86.3814 228.00
86.4466 246.00
86.5118 229.00
86.577 232.00
86.6422 257.00
86.7074 243.00
86.7726 227.00
86.8378 214.00
86.903 217.00
86.9682 268.00
87.0334 239.00
87.0986 258.00
87.1638 267.00
87.229 223.00
87.2942 236.00
87.3594 263.00
87.4246 235.00
87.4898 244.00
87.555 229.00
87.6202 219.00
87.6854 241.00
87.7506 209.00
87.8158 201.00
87.881 226.00
87.9462 240.00
88.0114 210.00
88.0766 216.00
88.1418 205.00
88.207 210.00
88.2722 236.00
88.3374 235.00
88.4026 217.00
88.4678 233.00
88.533 204.00
88.5982 213.00
88.6634 227.00
88.7286 232.00
88.7938 202.00
88.859 198.00
88.9242 205.00
88.9894 219.00
89.0546 206.00
89.1198 225.00
89.185 230.00
89.2502 224.00
89.3154 223.00
89.3806 237.00
89.4458 214.00
89.511 224.00
89.5762 220.00
89.6414 219.00
89.7066 230.00
89.7718 264.00
89.837 227.00
89.9022 235.00
89.9674 229.00
90.0326 211.00
90.0978 214.00
90.163 238.00
90.2282 223.00
90.2934 235.00
90.3586 234.00
90.4238 215.00
90.489 230.00
90.5542 280.00
90.6193 237.00
90.6845 206.00
90.7497 215.00
90.8149 220.00
90.8801 227.00
90.9453 213.00
91.0105 230.00
91.0757 213.00
91.1409 240.00
91.2061 227.00
91.2713 210.00
91.3365 212.00
91.4017 175.00
91.4669 200.00
91.5321 242.00
91.5973 198.00
91.6625 210.00
91.7277 227.00
91.7929 229.00
91.8581 236.00
91.9233 236.00
91.9885 193.00
92.0537 237.00
92.1189 231.00
92.1841 231.00
92.2493 217.00
92.3145 209.00
92.3797 213.00
92.4449 231.00
92.5101 234.00
92.5753 200.00
92.6405 232.00
92.7057 234.00
92.7709 219.00
92.8361 211.00
92.9013 220.00
92.9665 251.00
93.0317 190.00
93.0969 230.00
93.1621 185.00
93.2273 234.00
93.2925 218.00
93.3577 216.00
93.4229 235.00
93.4881 182.00
93.5533 194.00
93.6185 233.00
93.6837 216.00
93.7489 203.00
93.8141 191.00
93.8793 227.00
93.9445 234.00
94.0097 209.00
94.0749 204.00
94.1401 207.00
94.2053 236.00
94.2705 209.00
94.3357 198.00
94.4009 212.00
94.4661 228.00
94.5313 216.00
94.5965 224.00
94.6617 245.00
94.7269 219.00
94.7921 227.00
94.8573 219.00
94.9225 216.00
94.9877 185.00
95.0529 200.00
95.1181 226.00
95.1833 213.00
95.2485 229.00
95.3137 261.00
95.3789 211.00
95.444 231.00
95.5092 214.00
95.5744 200.00
95.6396 196.00
95.7048 239.00
95.77 188.00
95.8352 198.00
95.9004 222.00
95.9656 205.00
96.0308 213.00
96.096 196.00
96.1612 189.00
96.2264 220.00
96.2916 208.00
96.3568 192.00
96.422 214.00
96.4872 189.00
96.5524 242.00
96.6176 236.00
96.6828 211.00
96.748 209.00
96.8132 195.00
96.8784 202.00
96.9436 232.00
97.0088 212.00
97.074 220.00
97.1392 207.00
97.2044 211.00
97.2696 224.00
97.3348 237.00
97.4 209.00
97.4652 196.00
97.5304 215.00
97.5956 227.00
97.6608 243.00
97.726 218.00
97.7912 228.00
97.8564 234.00
97.9216 257.00
97.9868 215.00
98.052 228.00
98.1172 243.00
98.1824 205.00
98.2476 229.00
98.3128 225.00
98.378 221.00
98.4432 223.00
98.5084 191.00
98.5736 209.00
98.6388 213.00
98.704 192.00
98.7692 182.00
98.8344 192.00
98.8996 216.00
98.9648 248.00
99.03 236.00
99.0952 208.00
99.1604 199.00
99.2256 236.00
99.2908 224.00
99.356 232.00
99.4212 197.00
99.4864 223.00
99.5516 219.00
99.6168 207.00
99.682 204.00
99.7472 181.00
99.8124 218.00
99.8776 192.00
99.9428 197.00
100.008 205.00
100.073 218.00
100.095 206.00