File: data/xrd_creation/results/Na_304.xy
9.903433 2647.00
9.968632 2792.00
10.0338 2689.00
10.099 2675.00
10.1642 2659.00
10.2294 2664.00
10.2946 2545.00
10.3598 2663.00
10.425 2603.00
10.4902 2605.00
10.5554 2600.00
10.6206 2549.00
10.6858 2530.00
10.751 2560.00
10.8162 2524.00
10.8814 2363.00
10.9466 2430.00
11.0118 2407.00
11.077 2547.00
11.1422 2406.00
11.2074 2509.00
11.2726 2453.00
11.3378 2694.00
11.403 2815.00
11.4682 3101.00
11.5334 3595.00
11.5986 4720.00
11.6638 6398.00
11.729 6976.00
11.7942 4618.00
11.8594 2826.00
11.9246 2366.00
11.9898 2341.00
12.055 2212.00
12.1202 2137.00
12.1854 2148.00
12.2506 2166.00
12.3158 2057.00
12.381 2103.00
12.4462 2047.00
12.5114 2049.00
12.5766 2034.00
12.6418 1936.00
12.707 1994.00
12.7722 2061.00
12.8374 1961.00
12.9026 1980.00
12.9678 1909.00
13.033 1893.00
13.0982 1896.00
13.1634 1871.00
13.2286 1988.00
13.2938 1914.00
13.359 1878.00
13.4242 1877.00
13.4894 1889.00
13.5546 1769.00
13.6198 1741.00
13.685 1800.00
13.7502 1768.00
13.8154 1760.00
13.8805 1806.00
13.9457 1757.00
14.0109 1802.00
14.0761 1774.00
14.1413 1822.00
14.2065 1802.00
14.2717 1996.00
14.3369 2217.00
14.4021 2355.00
14.4673 2170.00
14.5325 1901.00
14.5977 1748.00
14.6629 1720.00
14.7281 1656.00
14.7933 1740.00
14.8585 1768.00
14.9237 1632.00
14.9889 1695.00
15.0541 1683.00
15.1193 1544.00
15.1845 1745.00
15.2497 1569.00
15.3149 1569.00
15.3801 1692.00
15.4453 1689.00
15.5105 1642.00
15.5757 1577.00
15.6409 1549.00
15.7061 1619.00
15.7713 1597.00
15.8365 1505.00
15.9017 1593.00
15.9669 1525.00
16.0321 1666.00
16.0973 1656.00
16.1625 1546.00
16.2277 1551.00
16.2929 1544.00
16.3581 1503.00
16.4233 1612.00
16.4885 1597.00
16.5537 1477.00
16.6189 1668.00
16.6841 1629.00
16.7493 1587.00
16.8145 1633.00
16.8797 1709.00
16.9449 1832.00
17.0101 2122.00
17.0753 2299.00
17.1405 2119.00
17.2057 1717.00
17.2709 1613.00
17.3361 1519.00
17.4013 1540.00
17.4665 1617.00
17.5317 1781.00
17.5969 1845.00
17.6621 1622.00
17.7273 1475.00
17.7925 1414.00
17.8577 1448.00
17.9229 1413.00
17.9881 1415.00
18.0533 1440.00
18.1185 1499.00
18.1837 1527.00
18.2489 1641.00
18.3141 1932.00
18.3793 2239.00
18.4445 2778.00
18.5097 2229.00
18.5749 1689.00
18.6401 1448.00
18.7052 1399.00
18.7704 1377.00
18.8356 1376.00
18.9008 1456.00
18.966 1438.00
19.0312 1436.00
19.0964 1422.00
19.1616 1383.00
19.2268 1339.00
19.292 1347.00
19.3572 1326.00
19.4224 1275.00
19.4876 1276.00
19.5528 1355.00
19.618 1369.00
19.6832 1419.00
19.7484 1491.00
19.8136 1564.00
19.8788 1600.00
19.944 1460.00
20.0092 1439.00
20.0744 1396.00
20.1396 1519.00
20.2048 1613.00
20.27 1992.00
20.3352 2686.00
20.4004 3629.00
20.4656 3345.00
20.5308 2103.00
20.596 1619.00
20.6612 1415.00
20.7264 1378.00
20.7916 1435.00
20.8568 1394.00
20.922 1325.00
20.9872 1467.00
21.0524 1632.00
21.1176 2013.00
21.1828 2760.00
21.248 3350.00
21.3132 3380.00
21.3784 3018.00
21.4436 2730.00
21.5088 2403.00
21.574 1865.00
21.6392 1530.00
21.7044 1450.00
21.7696 1395.00
21.8348 1431.00
21.9 1326.00
21.9652 1340.00
22.0304 1437.00
22.0956 1334.00
22.1608 1275.00
22.226 1296.00
22.2912 1368.00
22.3564 1289.00
22.4216 1269.00
22.4868 1248.00
22.552 1298.00
22.6172 1258.00
22.6824 1241.00
22.7476 1363.00
22.8128 1283.00
22.878 1306.00
22.9432 1267.00
23.0084 1243.00
23.0736 1298.00
23.1388 1271.00
23.204 1327.00
23.2692 1183.00
23.3344 1252.00
23.3996 1203.00
23.4647 1357.00
23.5299 1494.00
23.5951 1791.00
23.6603 1964.00
23.7255 1915.00
23.7907 1891.00
23.8559 1848.00
23.9211 1803.00
23.9863 1759.00
24.0515 1785.00
24.1167 1766.00
24.1819 1842.00
24.2471 1852.00
24.3123 2023.00
24.3775 2063.00
24.4427 1948.00
24.5079 1785.00
24.5731 2004.00
24.6383 2631.00
24.7035 3320.00
24.7687 2641.00
24.8339 1638.00
24.8991 1298.00
24.9643 1209.00
25.0295 1147.00
25.0947 1170.00
25.1599 1173.00
25.2251 1216.00
25.2903 1172.00
25.3555 1202.00
25.4207 1217.00
25.4859 1163.00
25.5511 1180.00
25.6163 1134.00
25.6815 1098.00
25.7467 1228.00
25.8119 1179.00
25.8771 1319.00
25.9423 1255.00
26.0075 1253.00
26.0727 1139.00
26.1379 1107.00
26.2031 1131.00
26.2683 1146.00
26.3335 1234.00
26.3987 1236.00
26.4639 1286.00
26.5291 1492.00
26.5943 1515.00
26.6595 1434.00
26.7247 1359.00
26.7899 1228.00
26.8551 1232.00
26.9203 1221.00
26.9855 1311.00
27.0507 1383.00
27.1159 1515.00
27.1811 1872.00
27.2463 2032.00
27.3115 2109.00
27.3767 2129.00
27.4419 2148.00
27.5071 1953.00
27.5723 1910.00
27.6375 1869.00
27.7027 1752.00
27.7679 1720.00
27.8331 1549.00
27.8983 1607.00
27.9635 1634.00
28.0287 1496.00
28.0939 1403.00
28.1591 1305.00
28.2243 1148.00
28.2894 1184.00
28.3546 1171.00
28.4198 1104.00
28.485 1140.00
28.5502 1058.00
28.6154 1049.00
28.6806 1121.00
28.7458 1079.00
28.811 1060.00
28.8762 1092.00
28.9414 1187.00
29.0066 1323.00
29.0718 1626.00
29.137 2017.00
29.2022 1920.00
29.2674 1564.00
29.3326 1359.00
29.3978 1549.00
29.463 1785.00
29.5282 2386.00
29.5934 2860.00
29.6586 2368.00
29.7238 1856.00
29.789 1662.00
29.8542 1724.00
29.9194 1840.00
29.9846 1823.00
30.0498 1680.00
30.115 1681.00
30.1802 1660.00
30.2454 1619.00
30.3106 1579.00
30.3758 1633.00
30.441 1585.00
30.5062 1630.00
30.5714 1592.00
30.6366 1504.00
30.7018 1457.00
30.767 1431.00
30.8322 1274.00
30.8974 1220.00
30.9626 1230.00
31.0278 1572.00
31.093 1563.00
31.1582 1492.00
31.2234 1403.00
31.2886 1298.00
31.3538 1694.00
31.419 2239.00
31.4842 2635.00
31.5494 2217.00
31.6146 1603.00
31.6798 1289.00
31.745 1436.00
31.8102 1509.00
31.8754 2096.00
31.9406 3038.00
32.0058 3853.00
32.071 3971.00
32.1362 3880.00
32.2014 3978.00
32.2666 3952.00
32.3318 3099.00
32.397 2254.00
32.4622 1864.00
32.5274 1676.00
32.5926 1564.00
32.6578 1565.00
32.723 1467.00
32.7882 1297.00
32.8534 1275.00
32.9186 1215.00
32.9838 1174.00
33.0489 1270.00
33.1141 1324.00
33.1793 1421.00
33.2445 1380.00
33.3097 1281.00
33.3749 1391.00
33.4401 1418.00
33.5053 1368.00
33.5705 1219.00
33.6357 1158.00
33.7009 1134.00
33.7661 1029.00
33.8313 1017.00
33.8965 1049.00
33.9617 1028.00
34.0269 1106.00
34.0921 1054.00
34.1573 1018.00
34.2225 1025.00
34.2877 983.00
34.3529 992.00
34.4181 928.00
34.4833 944.00
34.5485 936.00
34.6137 1053.00
34.6789 1068.00
34.7441 1030.00
34.8093 968.00
34.8745 955.00
34.9397 925.00
35.0049 834.00
35.0701 922.00
35.1353 869.00
35.2005 877.00
35.2657 874.00
35.3309 903.00
35.3961 832.00
35.4613 921.00
35.5265 876.00
35.5917 893.00
35.6569 929.00
35.7221 1126.00
35.7873 1441.00
35.8525 1492.00
35.9177 1434.00
35.9829 1119.00
36.0481 995.00
36.1133 1023.00
36.1785 1096.00
36.2437 1521.00
36.3089 1706.00
36.3741 1888.00
36.4393 1958.00
36.5045 1734.00
36.5697 1718.00
36.6349 1504.00
36.7001 1471.00
36.7653 1356.00
36.8305 1316.00
36.8957 1365.00
36.9609 1287.00
37.0261 1387.00
37.0913 1297.00
37.1565 1367.00
37.2217 1296.00
37.2869 1181.00
37.3521 1043.00
37.4173 1038.00
37.4825 1115.00
37.5477 1013.00
37.6129 925.00
37.6781 797.00
37.7433 842.00
37.8085 837.00
37.8736 873.00
37.9388 852.00
38.004 789.00
38.0692 868.00
38.1344 875.00
38.1996 843.00
38.2648 820.00
38.33 755.00
38.3952 743.00
38.4604 776.00
38.5256 715.00
38.5908 775.00
38.656 746.00
38.7212 792.00
38.7864 840.00
38.8516 786.00
38.9168 767.00
38.982 806.00
39.0472 907.00
39.1124 825.00
39.1776 836.00
39.2428 766.00
39.308 865.00
39.3732 806.00
39.4384 791.00
39.5036 716.00
39.5688 753.00
39.634 757.00
39.6992 783.00
39.7644 721.00
39.8296 767.00
39.8948 843.00
39.96 925.00
40.0252 966.00
40.0904 957.00
40.1556 968.00
40.2208 951.00
40.286 924.00
40.3512 900.00
40.4164 897.00
40.4816 857.00
40.5468 897.00
40.612 971.00
40.6772 854.00
40.7424 840.00
40.8076 859.00
40.8728 825.00
40.938 838.00
41.0032 860.00
41.0684 833.00
41.1336 735.00
41.1988 792.00
41.264 715.00
41.3292 689.00
41.3944 685.00
41.4596 703.00
41.5248 739.00
41.59 817.00
41.6552 801.00
41.7204 769.00
41.7856 710.00
41.8508 716.00
41.916 741.00
41.9812 815.00
42.0464 914.00
42.1116 876.00
42.1768 847.00
42.242 819.00
42.3072 790.00
42.3724 786.00
42.4376 762.00
42.5028 725.00
42.568 731.00
42.6332 691.00
42.6983 726.00
42.7635 705.00
42.8287 711.00
42.8939 696.00
42.9591 708.00
43.0243 730.00
43.0895 770.00
43.1547 786.00
43.2199 757.00
43.2851 834.00
43.3503 1019.00
43.4155 989.00
43.4807 1069.00
43.5459 896.00
43.6111 870.00
43.6763 806.00
43.7415 768.00
43.8067 838.00
43.8719 788.00
43.9371 810.00
44.0023 943.00
44.0675 1013.00
44.1327 881.00
44.1979 831.00
44.2631 893.00
44.3283 952.00
44.3935 963.00
44.4587 1012.00
44.5239 962.00
44.5891 914.00
44.6543 841.00
44.7195 860.00
44.7847 815.00
44.8499 845.00
44.9151 763.00
44.9803 799.00
45.0455 814.00
45.1107 838.00
45.1759 817.00
45.2411 831.00
45.3063 857.00
45.3715 927.00
45.4367 938.00
45.5019 895.00
45.5671 939.00
45.6323 949.00
45.6975 870.00
45.7627 860.00
45.8279 899.00
45.8931 789.00
45.9583 784.00
46.0235 794.00
46.0887 786.00
46.1539 778.00
46.2191 815.00
46.2843 922.00
46.3495 787.00
46.4147 777.00
46.4799 788.00
46.5451 706.00
46.6103 704.00
46.6755 689.00
46.7407 732.00
46.8059 747.00
46.8711 638.00
46.9363 688.00
47.0015 735.00
47.0667 713.00
47.1319 879.00
47.1971 962.00
47.2623 1133.00
47.3275 1036.00
47.3927 878.00
47.4579 793.00
47.523 749.00
47.5882 676.00
47.6534 698.00
47.7186 728.00
47.7838 688.00
47.849 733.00
47.9142 705.00
47.9794 686.00
48.0446 696.00
48.1098 709.00
48.175 683.00
48.2402 781.00
48.3054 800.00
48.3706 1139.00
48.4358 1440.00
48.501 1584.00
48.5662 1427.00
48.6314 1251.00
48.6966 1098.00
48.7618 944.00
48.827 959.00
48.8922 991.00
48.9574 999.00
49.0226 960.00
49.0878 977.00
49.153 971.00
49.2182 903.00
49.2834 898.00
49.3486 853.00
49.4138 859.00
49.479 833.00
49.5442 832.00
49.6094 844.00
49.6746 788.00
49.7398 783.00
49.805 882.00
49.8702 797.00
49.9354 851.00
50.0006 792.00
50.0658 852.00
50.131 773.00
50.1962 815.00
50.2614 858.00
50.3266 886.00
50.3918 824.00
50.457 821.00
50.5222 798.00
50.5874 821.00
50.6526 840.00
50.7178 986.00
50.783 1344.00
50.8482 1339.00
50.9134 1200.00
50.9786 1084.00
51.0438 899.00
51.109 785.00
51.1742 756.00
51.2394 746.00
51.3046 779.00
51.3698 727.00
51.435 730.00
51.5002 693.00
51.5654 688.00
51.6306 723.00
51.6958 717.00
51.761 679.00
51.8262 719.00
51.8914 845.00
51.9566 801.00
52.0218 864.00
52.087 855.00
52.1522 826.00
52.2174 815.00
52.2826 798.00
52.3477 836.00
52.4129 868.00
52.4781 822.00
52.5433 807.00
52.6085 782.00
52.6737 751.00
52.7389 752.00
52.8041 807.00
52.8693 860.00
52.9345 730.00
52.9997 892.00
53.0649 970.00
53.1301 1136.00
53.1953 998.00
53.2605 994.00
53.3257 985.00
53.3909 988.00
53.4561 1022.00
53.5213 1063.00
53.5865 1031.00
53.6517 1117.00
53.7169 1187.00
53.7821 1226.00
53.8473 1122.00
53.9125 1004.00
53.9777 838.00
54.0429 798.00
54.1081 757.00
54.1733 759.00
54.2385 776.00
54.3037 775.00
54.3689 893.00
54.4341 960.00
54.4993 913.00
54.5645 1000.00
54.6297 1084.00
54.6949 1098.00
54.7601 1194.00
54.8253 1183.00
54.8905 1052.00
54.9557 1131.00
55.0209 1082.00
55.0861 1000.00
55.1513 1005.00
55.2165 999.00
55.2817 959.00
55.3469 988.00
55.4121 995.00
55.4773 1011.00
55.5425 1030.00
55.6077 1004.00
55.6729 1035.00
55.7381 1058.00
55.8033 1089.00
55.8685 1011.00
55.9337 1021.00
55.9989 1044.00
56.0641 1168.00
56.1293 1236.00
56.1945 1149.00
56.2597 1074.00
56.3249 1004.00
56.3901 981.00
56.4553 977.00
56.5205 916.00
56.5857 960.00
56.6509 884.00
56.7161 876.00
56.7813 812.00
56.8465 804.00
56.9117 794.00
56.9769 728.00
57.042 784.00
57.1073 825.00
57.1724 798.00
57.2376 785.00
57.3028 794.00
57.368 776.00
57.4332 838.00
57.4984 805.00
57.5636 757.00
57.6288 773.00
57.694 879.00
57.7592 734.00
57.8244 745.00
57.8896 773.00
57.9548 765.00
58.02 775.00
58.0852 731.00
58.1504 742.00
58.2156 712.00
58.2808 807.00
58.346 778.00
58.4112 744.00
58.4764 794.00
58.5416 761.00
58.6068 681.00
58.672 733.00
58.7372 747.00
58.8024 769.00
58.8676 783.00
58.9328 839.00
58.998 860.00
59.0632 859.00
59.1284 869.00
59.1936 848.00
59.2588 862.00
59.324 846.00
59.3892 829.00
59.4544 886.00
59.5196 845.00
59.5848 896.00
59.65 1012.00
59.7152 1219.00
59.7804 1082.00
59.8456 1053.00
59.9108 1040.00
59.976 900.00
60.0412 882.00
60.1064 837.00
60.1716 809.00
60.2368 748.00
60.302 807.00
60.3672 792.00
60.4324 814.00
60.4976 812.00
60.5628 817.00
60.628 750.00
60.6932 780.00
60.7584 871.00
60.8236 855.00
60.8888 820.00
60.954 739.00
61.0192 708.00
61.0844 764.00
61.1496 735.00
61.2148 723.00
61.28 702.00
61.3452 742.00
61.4104 772.00
61.4756 837.00
61.5408 808.00
61.606 854.00
61.6712 866.00
61.7364 981.00
61.8016 980.00
61.8667 927.00
61.932 861.00
61.9971 789.00
62.0623 789.00
62.1275 759.00
62.1927 809.00
62.2579 797.00
62.3231 792.00
62.3883 858.00
62.4535 792.00
62.5187 772.00
62.5839 697.00
62.6491 656.00
62.7143 671.00
62.7795 678.00
62.8447 702.00
62.9099 659.00
62.9751 622.00
63.0403 610.00
63.1055 675.00
63.1707 646.00
63.2359 566.00
63.3011 564.00
63.3663 603.00
63.4315 644.00
63.4967 609.00
63.5619 633.00
63.6271 579.00
63.6923 616.00
63.7575 642.00
63.8227 579.00
63.8879 612.00
63.9531 652.00
64.0183 671.00
64.0835 720.00
64.1487 633.00
64.2139 672.00
64.2791 647.00
64.3443 652.00
64.4095 599.00
64.4747 604.00
64.5399 625.00
64.6051 644.00
64.6703 656.00
64.7355 652.00
64.8007 646.00
64.8659 659.00
64.9311 667.00
64.9963 677.00
65.0615 601.00
65.1267 608.00
65.1919 563.00
65.2571 528.00
65.3223 547.00
65.3875 577.00
65.4527 565.00
65.5179 572.00
65.5831 559.00
65.6483 527.00
65.7135 573.00
65.7787 557.00
65.8439 614.00
65.9091 644.00
65.9743 603.00
66.0395 663.00
66.1047 643.00
66.1699 557.00
66.2351 590.00
66.3003 593.00
66.3655 618.00
66.4307 566.00
66.4959 579.00
66.561 597.00
66.6263 597.00
66.6915 548.00
66.7566 579.00
66.8218 583.00
66.887 626.00
66.9522 645.00
67.0174 676.00
67.0826 668.00
67.1478 664.00
67.213 644.00
67.2782 663.00
67.3434 658.00
67.4086 688.00
67.4738 652.00
67.539 689.00
67.6042 700.00
67.6694 697.00
67.7346 636.00
67.7998 648.00
67.865 682.00
67.9302 701.00
67.9954 652.00
68.0606 630.00
68.1258 631.00
68.191 586.00
68.2562 567.00
68.3214 608.00
68.3866 600.00
68.4518 651.00
68.517 609.00
68.5822 648.00
68.6474 695.00
68.7126 632.00
68.7778 708.00
68.843 711.00
68.9082 688.00
68.9734 657.00
69.0386 627.00
69.1038 612.00
69.169 611.00
69.2342 578.00
69.2994 579.00
69.3646 625.00
69.4298 551.00
69.495 587.00
69.5602 615.00
69.6254 608.00
69.6906 626.00
69.7558 674.00
69.821 716.00
69.8862 681.00
69.9514 709.00
70.0166 754.00
70.0818 739.00
70.147 691.00
70.2122 662.00
70.2774 696.00
70.3426 617.00
70.4078 604.00
70.473 576.00
70.5382 603.00
70.6034 602.00
70.6686 596.00
70.7338 601.00
70.799 622.00
70.8642 596.00
70.9294 587.00
70.9946 565.00
71.0598 557.00
71.125 581.00
71.1902 622.00
71.2554 589.00
71.3205 577.00
71.3858 534.00
71.451 599.00
71.5162 584.00
71.5813 605.00
71.6465 537.00
71.7117 551.00
71.7769 519.00
71.8421 587.00
71.9073 615.00
71.9725 609.00
72.0377 546.00
72.1029 573.00
72.1681 570.00
72.2333 686.00
72.2985 649.00
72.3637 574.00
72.4289 659.00
72.4941 654.00
72.5593 636.00
72.6245 628.00
72.6897 646.00
72.7549 613.00
72.8201 594.00
72.8853 633.00
72.9505 564.00
73.0157 660.00
73.0809 575.00
73.1461 580.00
73.2113 623.00
73.2765 591.00
73.3417 615.00
73.4069 656.00
73.4721 615.00
73.5373 625.00
73.6025 588.00
73.6677 541.00
73.7329 578.00
73.7981 567.00
73.8633 559.00
73.9285 507.00
73.9937 550.00
74.0589 570.00
74.1241 520.00
74.1893 482.00
74.2545 506.00
74.3197 550.00
74.3849 537.00
74.4501 566.00
74.5153 540.00
74.5805 524.00
74.6457 477.00
74.7109 551.00
74.7761 566.00
74.8413 564.00
74.9065 549.00
74.9717 508.00
75.0369 533.00
75.1021 561.00
75.1673 504.00
75.2325 516.00
75.2977 514.00
75.3629 514.00
75.4281 559.00
75.4933 588.00
75.5585 510.00
75.6237 563.00
75.6889 525.00
75.7541 522.00
75.8193 579.00
75.8845 566.00
75.9497 643.00
76.0149 558.00
76.0801 526.00
76.1452 545.00
76.2104 561.00
76.2756 571.00
76.3409 606.00
76.406 538.00
76.4712 571.00
76.5364 538.00
76.6016 598.00
76.6668 519.00
76.732 534.00
76.7972 584.00
76.8624 544.00
76.9276 545.00
76.9928 562.00
77.058 555.00
77.1232 565.00
77.1884 622.00
77.2536 641.00
77.3188 588.00
77.384 622.00
77.4492 610.00
77.5144 573.00
77.5796 561.00
77.6448 546.00
77.71 580.00
77.7752 579.00
77.8404 584.00
77.9056 555.00
77.9708 551.00
78.036 565.00
78.1012 556.00
78.1664 584.00
78.2316 552.00
78.2968 581.00
78.362 538.00
78.4272 521.00
78.4924 546.00
78.5576 499.00
78.6228 536.00
78.688 521.00
78.7532 518.00
78.8184 526.00
78.8836 551.00
78.9488 528.00
79.014 501.00
79.0792 494.00
79.1444 541.00
79.2096 502.00
79.2748 510.00
79.34 499.00
79.4052 536.00
79.4704 523.00
79.5356 494.00
79.6008 534.00
79.666 524.00
79.7312 543.00
79.7964 584.00
79.8616 546.00
79.9268 601.00
79.992 594.00
80.0572 589.00
80.1224 569.00
80.1876 608.00
80.2528 589.00
80.318 587.00
80.3832 601.00
80.4484 577.00
80.5136 649.00
80.5788 596.00
80.644 617.00
80.7092 515.00
80.7744 635.00
80.8396 515.00
80.9048 538.00
80.9699 526.00
81.0351 517.00
81.1003 514.00
81.1655 520.00
81.2307 520.00
81.2959 530.00
81.3611 517.00
81.4263 521.00
81.4915 534.00
81.5567 506.00
81.6219 540.00
81.6871 556.00
81.7523 499.00
81.8175 577.00
81.8827 585.00
81.9479 544.00
82.0131 547.00
82.0783 537.00
82.1435 569.00
82.2087 566.00
82.2739 568.00
82.3391 604.00
82.4043 584.00
82.4695 592.00
82.5347 617.00
82.5999 618.00
82.6651 622.00
82.7303 615.00
82.7955 594.00
82.8607 620.00
82.9259 632.00
82.9911 715.00
83.0563 673.00
83.1215 645.00
83.1867 578.00
83.2519 645.00
83.3171 582.00
83.3823 602.00
83.4475 605.00
83.5127 604.00
83.5779 551.00
83.6431 553.00
83.7083 550.00
83.7735 588.00
83.8387 574.00
83.9039 622.00
83.9691 612.00
84.0343 595.00
84.0995 577.00
84.1647 572.00
84.2299 569.00
84.2951 560.00
84.3603 566.00
84.4255 572.00
84.4907 569.00
84.5559 581.00
84.6211 614.00
84.6863 639.00
84.7515 642.00
84.8167 657.00
84.8819 671.00
84.9471 679.00
85.0123 643.00
85.0775 594.00
85.1427 637.00
85.2079 647.00
85.2731 641.00
85.3383 671.00
85.4035 569.00
85.4687 610.00
85.5339 642.00
85.5991 605.00
85.6643 630.00
85.7295 602.00
85.7946 599.00
85.8598 552.00
85.925 584.00
85.9903 541.00
86.0554 591.00
86.1206 616.00
86.1858 597.00
86.251 556.00
86.3162 544.00
86.3814 584.00
86.4466 573.00
86.5118 523.00
86.577 535.00
86.6422 528.00
86.7074 548.00
86.7726 554.00
86.8378 520.00
86.903 534.00
86.9682 523.00
87.0334 492.00
87.0986 540.00
87.1638 560.00
87.229 576.00
87.2942 598.00
87.3594 593.00
87.4246 554.00
87.4898 598.00
87.555 618.00
87.6202 628.00
87.6854 637.00
87.7506 631.00
87.8158 569.00
87.881 612.00
87.9462 600.00
88.0114 586.00
88.0766 573.00
88.1418 551.00
88.207 574.00
88.2722 522.00
88.3374 537.00
88.4026 516.00
88.4678 563.00
88.533 546.00
88.5982 525.00
88.6634 514.00
88.7286 505.00
88.7938 496.00
88.859 514.00
88.9242 567.00
88.9894 538.00
89.0546 551.00
89.1198 557.00
89.185 539.00
89.2502 519.00
89.3154 562.00
89.3806 537.00
89.4458 536.00
89.511 584.00
89.5762 534.00
89.6414 500.00
89.7066 570.00
89.7718 537.00
89.837 514.00
89.9022 495.00
89.9674 509.00
90.0326 530.00
90.0978 535.00
90.163 523.00
90.2282 574.00
90.2934 476.00
90.3586 559.00
90.4238 540.00
90.489 532.00
90.5542 532.00
90.6193 553.00
90.6845 581.00
90.7497 560.00
90.8149 535.00
90.8801 627.00
90.9453 554.00
91.0105 568.00
91.0757 533.00
91.1409 537.00
91.2061 529.00
91.2713 514.00
91.3365 528.00
91.4017 489.00
91.4669 536.00
91.5321 506.00
91.5973 451.00
91.6625 490.00
91.7277 501.00
91.7929 471.00
91.8581 568.00
91.9233 498.00
91.9885 502.00
92.0537 543.00
92.1189 540.00
92.1841 487.00
92.2493 536.00
92.3145 475.00
92.3797 526.00
92.4449 528.00
92.5101 481.00
92.5753 510.00
92.6405 562.00
92.7057 458.00
92.7709 478.00
92.8361 541.00
92.9013 516.00
92.9665 517.00
93.0317 481.00
93.0969 512.00
93.1621 510.00
93.2273 501.00
93.2925 560.00
93.3577 559.00
93.4229 511.00
93.4881 526.00
93.5533 509.00
93.6185 560.00
93.6837 500.00
93.7489 508.00
93.8141 500.00
93.8793 536.00
93.9445 488.00
94.0097 507.00
94.0749 474.00
94.1401 493.00
94.2053 515.00
94.2705 475.00
94.3357 484.00
94.4009 496.00
94.4661 503.00
94.5313 519.00
94.5965 537.00
94.6617 535.00
94.7269 480.00
94.7921 470.00
94.8573 507.00
94.9225 574.00
94.9877 531.00
95.0529 504.00
95.1181 517.00
95.1833 517.00
95.2485 488.00
95.3137 562.00
95.3789 498.00
95.444 532.00
95.5092 488.00
95.5744 501.00
95.6396 444.00
95.7048 480.00
95.77 506.00
95.8352 505.00
95.9004 513.00
95.9656 515.00
96.0308 544.00
96.096 513.00
96.1612 543.00
96.2264 498.00
96.2916 532.00
96.3568 529.00
96.422 498.00
96.4872 512.00
96.5524 481.00
96.6176 518.00
96.6828 472.00
96.748 505.00
96.8132 510.00
96.8784 490.00
96.9436 530.00
97.0088 533.00
97.074 486.00
97.1392 485.00
97.2044 497.00
97.2696 492.00
97.3348 485.00
97.4 442.00
97.4652 451.00
97.5304 518.00
97.5956 524.00
97.6608 496.00
97.726 503.00
97.7912 523.00
97.8564 550.00
97.9216 505.00
97.9868 574.00
98.052 517.00
98.1172 534.00
98.1824 508.00
98.2476 489.00
98.3128 536.00
98.378 511.00
98.4432 572.00
98.5084 531.00
98.5736 512.00
98.6388 502.00
98.704 543.00
98.7692 561.00
98.8344 498.00
98.8996 550.00
98.9648 478.00
99.03 477.00
99.0952 497.00
99.1604 457.00
99.2256 464.00
99.2908 502.00
99.356 468.00
99.4212 505.00
99.4864 517.00
99.5516 508.00
99.6168 506.00
99.682 500.00
99.7472 470.00
99.8124 522.00
99.8776 510.00
99.9428 510.00
100.008 472.00
100.073 497.00
100.095 487.00