File: data/xrd_creation/results/Na_300.xy
9.903433 3274.00
9.968632 3270.00
10.0338 2949.00
10.099 2749.00
10.1642 2743.00
10.2294 2842.00
10.2946 2736.00
10.3598 2841.00
10.425 2824.00
10.4902 2910.00
10.5554 2956.00
10.6206 2637.00
10.6858 2492.00
10.751 2534.00
10.8162 2498.00
10.8814 2508.00
10.9466 2509.00
11.0118 2513.00
11.077 2435.00
11.1422 2369.00
11.2074 2414.00
11.2726 2478.00
11.3378 2359.00
11.403 2265.00
11.4682 2452.00
11.5334 2309.00
11.5986 2244.00
11.6638 2365.00
11.729 2298.00
11.7942 2234.00
11.8594 2259.00
11.9246 2202.00
11.9898 2178.00
12.055 2297.00
12.1202 2206.00
12.1854 2233.00
12.2506 2224.00
12.3158 2212.00
12.381 2180.00
12.4462 2063.00
12.5114 2151.00
12.5766 2157.00
12.6418 2080.00
12.707 2065.00
12.7722 2091.00
12.8374 2071.00
12.9026 2101.00
12.9678 2043.00
13.033 2049.00
13.0982 2104.00
13.1634 2063.00
13.2286 1963.00
13.2938 2064.00
13.359 2077.00
13.4242 2020.00
13.4894 1944.00
13.5546 2102.00
13.6198 2248.00
13.685 2314.00
13.7502 2529.00
13.8154 2452.00
13.8805 2058.00
13.9457 1989.00
14.0109 1962.00
14.0761 2013.00
14.1413 1964.00
14.2065 1906.00
14.2717 1872.00
14.3369 1900.00
14.4021 1980.00
14.4673 1912.00
14.5325 1919.00
14.5977 1964.00
14.6629 1939.00
14.7281 1899.00
14.7933 1939.00
14.8585 1880.00
14.9237 1899.00
14.9889 1871.00
15.0541 1904.00
15.1193 1795.00
15.1845 1956.00
15.2497 1858.00
15.3149 1941.00
15.3801 1953.00
15.4453 1939.00
15.5105 1995.00
15.5757 2062.00
15.6409 2193.00
15.7061 2412.00
15.7713 2546.00
15.8365 2954.00
15.9017 3273.00
15.9669 3610.00
16.0321 3431.00
16.0973 2902.00
16.1625 2284.00
16.2277 2045.00
16.2929 1891.00
16.3581 1900.00
16.4233 1818.00
16.4885 1820.00
16.5537 1741.00
16.6189 1764.00
16.6841 1780.00
16.7493 1638.00
16.8145 1713.00
16.8797 1692.00
16.9449 1682.00
17.0101 1650.00
17.0753 1732.00
17.1405 1796.00
17.2057 1659.00
17.2709 1715.00
17.3361 1598.00
17.4013 1638.00
17.4665 1725.00
17.5317 1568.00
17.5969 1631.00
17.6621 1694.00
17.7273 1574.00
17.7925 1629.00
17.8577 1655.00
17.9229 1620.00
17.9881 1563.00
18.0533 1627.00
18.1185 1542.00
18.1837 1568.00
18.2489 1535.00
18.3141 1519.00
18.3793 1571.00
18.4445 1573.00
18.5097 1536.00
18.5749 1545.00
18.6401 1527.00
18.7052 1546.00
18.7704 1456.00
18.8356 1531.00
18.9008 1560.00
18.966 1472.00
19.0312 1498.00
19.0964 1503.00
19.1616 1627.00
19.2268 1793.00
19.292 1922.00
19.3572 1862.00
19.4224 1875.00
19.4876 1709.00
19.5528 1512.00
19.618 1526.00
19.6832 1493.00
19.7484 1482.00
19.8136 1482.00
19.8788 1390.00
19.944 1376.00
20.0092 1401.00
20.0744 1512.00
20.1396 1470.00
20.2048 1505.00
20.27 1605.00
20.3352 1560.00
20.4004 1525.00
20.4656 1432.00
20.5308 1571.00
20.596 1575.00
20.6612 1635.00
20.7264 1708.00
20.7916 1640.00
20.8568 1825.00
20.922 2542.00
20.9872 3614.00
21.0524 4540.00
21.1176 3081.00
21.1828 1704.00
21.248 1474.00
21.3132 1455.00
21.3784 1466.00
21.4436 1370.00
21.5088 1373.00
21.574 1352.00
21.6392 1470.00
21.7044 1518.00
21.7696 1548.00
21.8348 1454.00
21.9 1450.00
21.9652 1313.00
22.0304 1287.00
22.0956 1252.00
22.1608 1266.00
22.226 1215.00
22.2912 1267.00
22.3564 1267.00
22.4216 1227.00
22.4868 1284.00
22.552 1248.00
22.6172 1240.00
22.6824 1230.00
22.7476 1221.00
22.8128 1221.00
22.878 1259.00
22.9432 1275.00
23.0084 1325.00
23.0736 1397.00
23.1388 1412.00
23.204 1486.00
23.2692 1457.00
23.3344 1419.00
23.3996 1190.00
23.4647 1262.00
23.5299 1196.00
23.5951 1238.00
23.6603 1174.00
23.7255 1180.00
23.7907 1190.00
23.8559 1180.00
23.9211 1133.00
23.9863 1126.00
24.0515 1198.00
24.1167 1330.00
24.1819 1607.00
24.2471 2079.00
24.3123 2407.00
24.3775 1661.00
24.4427 1318.00
24.5079 1178.00
24.5731 1160.00
24.6383 1207.00
24.7035 1147.00
24.7687 1137.00
24.8339 1202.00
24.8991 1285.00
24.9643 1128.00
25.0295 1103.00
25.0947 1127.00
25.1599 1096.00
25.2251 1074.00
25.2903 1082.00
25.3555 1077.00
25.4207 1173.00
25.4859 1219.00
25.5511 1475.00
25.6163 1703.00
25.6815 1483.00
25.7467 1234.00
25.8119 1139.00
25.8771 1137.00
25.9423 1158.00
26.0075 1077.00
26.0727 1060.00
26.1379 1092.00
26.2031 1046.00
26.2683 1052.00
26.3335 1138.00
26.3987 1180.00
26.4639 1141.00
26.5291 1153.00
26.5943 1073.00
26.6595 1060.00
26.7247 1101.00
26.7899 1133.00
26.8551 1185.00
26.9203 1198.00
26.9855 1157.00
27.0507 1140.00
27.1159 1265.00
27.1811 1356.00
27.2463 1504.00
27.3115 1793.00
27.3767 2084.00
27.4419 3234.00
27.5071 5508.00
27.5723 9077.00
27.6375 7922.00
27.7027 4738.00
27.7679 4087.00
27.8331 5753.00
27.8983 8162.00
27.9635 5130.00
28.0287 2513.00
28.0939 2101.00
28.1591 2438.00
28.2243 2983.00
28.2894 3674.00
28.3546 3452.00
28.4198 2736.00
28.485 2187.00
28.5502 1740.00
28.6154 1403.00
28.6806 1325.00
28.7458 1174.00
28.811 1067.00
28.8762 1108.00
28.9414 1089.00
29.0066 1079.00
29.0718 1090.00
29.137 1060.00
29.2022 1005.00
29.2674 1077.00
29.3326 1192.00
29.3978 1322.00
29.463 1372.00
29.5282 1186.00
29.5934 1014.00
29.6586 1040.00
29.7238 1044.00
29.789 1241.00
29.8542 1122.00
29.9194 1009.00
29.9846 1026.00
30.0498 1173.00
30.115 1321.00
30.1802 1832.00
30.2454 2125.00
30.3106 1663.00
30.3758 1260.00
30.441 1162.00
30.5062 1197.00
30.5714 1252.00
30.6366 1900.00
30.7018 2669.00
30.767 2216.00
30.8322 1586.00
30.8974 1075.00
30.9626 1019.00
31.0278 1112.00
31.093 1082.00
31.1582 1117.00
31.2234 1232.00
31.2886 1216.00
31.3538 1096.00
31.419 1110.00
31.4842 1082.00
31.5494 1179.00
31.6146 1177.00
31.6798 1382.00
31.745 1580.00
31.8102 1538.00
31.8754 1479.00
31.9406 1472.00
32.0058 1663.00
32.071 2032.00
32.1362 2650.00
32.2014 3079.00
32.2666 2310.00
32.3318 1702.00
32.397 1642.00
32.4622 1476.00
32.5274 1308.00
32.5926 1043.00
32.6578 1039.00
32.723 988.00
32.7882 953.00
32.8534 1005.00
32.9186 1009.00
32.9838 1052.00
33.0489 1149.00
33.1141 1408.00
33.1793 1652.00
33.2445 1867.00
33.3097 1796.00
33.3749 1516.00
33.4401 1319.00
33.5053 1708.00
33.5705 1789.00
33.6357 1452.00
33.7009 1378.00
33.7661 1452.00
33.8313 1495.00
33.8965 1211.00
33.9617 1099.00
34.0269 1105.00
34.0921 1098.00
34.1573 1094.00
34.2225 1269.00
34.2877 1693.00
34.3529 2958.00
34.4181 6165.00
34.4833 7530.00
34.5485 4603.00
34.6137 1910.00
34.6789 1243.00
34.7441 1261.00
34.8093 1358.00
34.8745 1201.00
34.9397 1020.00
35.0049 968.00
35.0701 944.00
35.1353 959.00
35.2005 983.00
35.2657 1027.00
35.3309 996.00
35.3961 948.00
35.4613 930.00
35.5265 936.00
35.5917 968.00
35.6569 980.00
35.7221 1055.00
35.7873 1013.00
35.8525 987.00
35.9177 1009.00
35.9829 997.00
36.0481 966.00
36.1133 926.00
36.1785 929.00
36.2437 964.00
36.3089 1047.00
36.3741 1019.00
36.4393 960.00
36.5045 996.00
36.5697 931.00
36.6349 927.00
36.7001 845.00
36.7653 811.00
36.8305 883.00
36.8957 850.00
36.9609 852.00
37.0261 794.00
37.0913 803.00
37.1565 838.00
37.2217 811.00
37.2869 797.00
37.3521 766.00
37.4173 763.00
37.4825 776.00
37.5477 756.00
37.6129 733.00
37.6781 768.00
37.7433 772.00
37.8085 770.00
37.8736 809.00
37.9388 911.00
38.004 898.00
38.0692 858.00
38.1344 900.00
38.1996 822.00
38.2648 819.00
38.33 815.00
38.3952 818.00
38.4604 793.00
38.5256 814.00
38.5908 824.00
38.656 911.00
38.7212 857.00
38.7864 869.00
38.8516 832.00
38.9168 970.00
38.982 935.00
39.0472 978.00
39.1124 956.00
39.1776 927.00
39.2428 889.00
39.308 951.00
39.3732 985.00
39.4384 1164.00
39.5036 1393.00
39.5688 1337.00
39.634 1682.00
39.6992 1884.00
39.7644 2281.00
39.8296 2421.00
39.8948 2123.00
39.96 1703.00
40.0252 1543.00
40.0904 1472.00
40.1556 1181.00
40.2208 1117.00
40.286 927.00
40.3512 882.00
40.4164 901.00
40.4816 800.00
40.5468 762.00
40.612 744.00
40.6772 748.00
40.7424 742.00
40.8076 781.00
40.8728 726.00
40.938 792.00
41.0032 786.00
41.0684 753.00
41.1336 753.00
41.1988 791.00
41.264 740.00
41.3292 767.00
41.3944 820.00
41.4596 736.00
41.5248 725.00
41.59 761.00
41.6552 782.00
41.7204 848.00
41.7856 790.00
41.8508 787.00
41.916 770.00
41.9812 751.00
42.0464 751.00
42.1116 766.00
42.1768 771.00
42.242 774.00
42.3072 800.00
42.3724 941.00
42.4376 1195.00
42.5028 1250.00
42.568 1124.00
42.6332 1074.00
42.6983 912.00
42.7635 923.00
42.8287 1002.00
42.8939 1049.00
42.9591 912.00
43.0243 888.00
43.0895 895.00
43.1547 1038.00
43.2199 929.00
43.2851 847.00
43.3503 761.00
43.4155 753.00
43.4807 707.00
43.5459 695.00
43.6111 731.00
43.6763 654.00
43.7415 724.00
43.8067 785.00
43.8719 721.00
43.9371 726.00
44.0023 726.00
44.0675 766.00
44.1327 851.00
44.1979 924.00
44.2631 779.00
44.3283 791.00
44.3935 670.00
44.4587 690.00
44.5239 712.00
44.5891 610.00
44.6543 715.00
44.7195 778.00
44.7847 981.00
44.8499 1459.00
44.9151 2391.00
44.9803 1834.00
45.0455 1703.00
45.1107 1012.00
45.1759 750.00
45.2411 809.00
45.3063 828.00
45.3715 780.00
45.4367 710.00
45.5019 780.00
45.5671 890.00
45.6323 1186.00
45.6975 2129.00
45.7627 2439.00
45.8279 1762.00
45.8931 1365.00
45.9583 808.00
46.0235 775.00
46.0887 704.00
46.1539 721.00
46.2191 750.00
46.2843 847.00
46.3495 1118.00
46.4147 1390.00
46.4799 1231.00
46.5451 1144.00
46.6103 857.00
46.6755 742.00
46.7407 737.00
46.8059 795.00
46.8711 885.00
46.9363 836.00
47.0015 879.00
47.0667 1083.00
47.1319 1478.00
47.1971 1657.00
47.2623 1275.00
47.3275 1245.00
47.3927 984.00
47.4579 1009.00
47.523 920.00
47.5882 897.00
47.6534 812.00
47.7186 746.00
47.7838 754.00
47.849 715.00
47.9142 757.00
47.9794 749.00
48.0446 670.00
48.1098 749.00
48.175 794.00
48.2402 835.00
48.3054 910.00
48.3706 983.00
48.4358 1128.00
48.501 1231.00
48.5662 1295.00
48.6314 1312.00
48.6966 1368.00
48.7618 1556.00
48.827 1646.00
48.8922 1969.00
48.9574 2017.00
49.0226 1969.00
49.0878 1796.00
49.153 1604.00
49.2182 1545.00
49.2834 1776.00
49.3486 2306.00
49.4138 1845.00
49.479 1602.00
49.5442 1134.00
49.6094 868.00
49.6746 699.00
49.7398 778.00
49.805 812.00
49.8702 758.00
49.9354 770.00
50.0006 769.00
50.0658 751.00
50.131 731.00
50.1962 710.00
50.2614 731.00
50.3266 697.00
50.3918 694.00
50.457 685.00
50.5222 683.00
50.5874 749.00
50.6526 861.00
50.7178 788.00
50.783 803.00
50.8482 712.00
50.9134 611.00
50.9786 547.00
51.0438 592.00
51.109 544.00
51.1742 565.00
51.2394 541.00
51.3046 566.00
51.3698 514.00
51.435 549.00
51.5002 564.00
51.5654 583.00
51.6306 566.00
51.6958 551.00
51.761 539.00
51.8262 526.00
51.8914 534.00
51.9566 558.00
52.0218 575.00
52.087 580.00
52.1522 696.00
52.2174 776.00
52.2826 857.00
52.3477 1329.00
52.4129 1639.00
52.4781 1345.00
52.5433 1820.00
52.6085 1541.00
52.6737 1154.00
52.7389 1084.00
52.8041 801.00
52.8693 708.00
52.9345 577.00
52.9997 608.00
53.0649 628.00
53.1301 547.00
53.1953 543.00
53.2605 504.00
53.3257 561.00
53.3909 513.00
53.4561 565.00
53.5213 519.00
53.5865 558.00
53.6517 577.00
53.7169 649.00
53.7821 602.00
53.8473 613.00
53.9125 707.00
53.9777 751.00
54.0429 683.00
54.1081 997.00
54.1733 1039.00
54.2385 958.00
54.3037 1018.00
54.3689 807.00
54.4341 697.00
54.4993 687.00
54.5645 708.00
54.6297 873.00
54.6949 959.00
54.7601 814.00
54.8253 837.00
54.8905 742.00
54.9557 692.00
55.0209 646.00
55.0861 671.00
55.1513 613.00
55.2165 651.00
55.2817 671.00
55.3469 683.00
55.4121 811.00
55.4773 960.00
55.5425 1298.00
55.6077 1185.00
55.6729 1051.00
55.7381 1076.00
55.8033 876.00
55.8685 876.00
55.9337 855.00
55.9989 993.00
56.0641 1150.00
56.1293 963.00
56.1945 882.00
56.2597 802.00
56.3249 681.00
56.3901 761.00
56.4553 845.00
56.5205 1070.00
56.5857 843.00
56.6509 843.00
56.7161 723.00
56.7813 629.00
56.8465 645.00
56.9117 626.00
56.9769 573.00
57.042 577.00
57.1073 651.00
57.1724 852.00
57.2376 658.00
57.3028 624.00
57.368 666.00
57.4332 508.00
57.4984 514.00
57.5636 507.00
57.6288 539.00
57.694 480.00
57.7592 499.00
57.8244 553.00
57.8896 582.00
57.9548 548.00
58.02 550.00
58.0852 560.00
58.1504 541.00
58.2156 535.00
58.2808 543.00
58.346 605.00
58.4112 600.00
58.4764 498.00
58.5416 577.00
58.6068 568.00
58.672 588.00
58.7372 591.00
58.8024 552.00
58.8676 606.00
58.9328 505.00
58.998 585.00
59.0632 610.00
59.1284 707.00
59.1936 699.00
59.2588 683.00
59.324 623.00
59.3892 599.00
59.4544 624.00
59.5196 521.00
59.5848 521.00
59.65 527.00
59.7152 501.00
59.7804 518.00
59.8456 489.00
59.9108 549.00
59.976 507.00
60.0412 456.00
60.1064 516.00
60.1716 572.00
60.2368 591.00
60.302 701.00
60.3672 727.00
60.4324 633.00
60.4976 610.00
60.5628 568.00
60.628 500.00
60.6932 492.00
60.7584 464.00
60.8236 506.00
60.8888 460.00
60.954 463.00
61.0192 458.00
61.0844 514.00
61.1496 481.00
61.2148 503.00
61.28 680.00
61.3452 1156.00
61.4104 1286.00
61.4756 894.00
61.5408 895.00
61.606 756.00
61.6712 506.00
61.7364 485.00
61.8016 465.00
61.8667 480.00
61.932 466.00
61.9971 514.00
62.0623 547.00
62.1275 491.00
62.1927 523.00
62.2579 463.00
62.3231 480.00
62.3883 500.00
62.4535 521.00
62.5187 458.00
62.5839 489.00
62.6491 458.00
62.7143 424.00
62.7795 505.00
62.8447 509.00
62.9099 475.00
62.9751 470.00
63.0403 459.00
63.1055 452.00
63.1707 458.00
63.2359 467.00
63.3011 559.00
63.3663 534.00
63.4315 674.00
63.4967 824.00
63.5619 580.00
63.6271 610.00
63.6923 633.00
63.7575 514.00
63.8227 546.00
63.8879 499.00
63.9531 525.00
64.0183 565.00
64.0835 534.00
64.1487 584.00
64.2139 664.00
64.2791 707.00
64.3443 791.00
64.4095 818.00
64.4747 756.00
64.5399 648.00
64.6051 654.00
64.6703 616.00
64.7355 553.00
64.8007 511.00
64.8659 591.00
64.9311 523.00
64.9963 484.00
65.0615 490.00
65.1267 494.00
65.1919 500.00
65.2571 487.00
65.3223 520.00
65.3875 547.00
65.4527 553.00
65.5179 580.00
65.5831 585.00
65.6483 546.00
65.7135 487.00
65.7787 476.00
65.8439 438.00
65.9091 463.00
65.9743 432.00
66.0395 447.00
66.1047 464.00
66.1699 450.00
66.2351 425.00
66.3003 456.00
66.3655 412.00
66.4307 453.00
66.4959 434.00
66.561 428.00
66.6263 405.00
66.6915 435.00
66.7566 499.00
66.8218 520.00
66.887 548.00
66.9522 533.00
67.0174 482.00
67.0826 466.00
67.1478 422.00
67.213 408.00
67.2782 383.00
67.3434 421.00
67.4086 379.00
67.4738 394.00
67.539 448.00
67.6042 429.00
67.6694 403.00
67.7346 476.00
67.7998 384.00
67.865 408.00
67.9302 366.00
67.9954 387.00
68.0606 357.00
68.1258 384.00
68.191 373.00
68.2562 413.00
68.3214 374.00
68.3866 375.00
68.4518 364.00
68.517 430.00
68.5822 418.00
68.6474 380.00
68.7126 401.00
68.7778 422.00
68.843 458.00
68.9082 423.00
68.9734 407.00
69.0386 414.00
69.1038 405.00
69.169 414.00
69.2342 427.00
69.2994 446.00
69.3646 491.00
69.4298 494.00
69.495 476.00
69.5602 478.00
69.6254 457.00
69.6906 493.00
69.7558 474.00
69.821 535.00
69.8862 542.00
69.9514 658.00
70.0166 611.00
70.0818 590.00
70.147 610.00
70.2122 553.00
70.2774 519.00
70.3426 498.00
70.4078 439.00
70.473 465.00
70.5382 413.00
70.6034 456.00
70.6686 426.00
70.7338 430.00
70.799 467.00
70.8642 399.00
70.9294 453.00
70.9946 475.00
71.0598 417.00
71.125 409.00
71.1902 480.00
71.2554 486.00
71.3205 464.00
71.3858 431.00
71.451 468.00
71.5162 469.00
71.5813 436.00
71.6465 464.00
71.7117 478.00
71.7769 476.00
71.8421 601.00
71.9073 606.00
71.9725 581.00
72.0377 653.00
72.1029 713.00
72.1681 741.00
72.2333 688.00
72.2985 721.00
72.3637 725.00
72.4289 593.00
72.4941 568.00
72.5593 534.00
72.6245 458.00
72.6897 458.00
72.7549 549.00
72.8201 572.00
72.8853 558.00
72.9505 573.00
73.0157 574.00
73.0809 617.00
73.1461 614.00
73.2113 505.00
73.2765 564.00
73.3417 613.00
73.4069 667.00
73.4721 609.00
73.5373 638.00
73.6025 576.00
73.6677 511.00
73.7329 464.00
73.7981 417.00
73.8633 420.00
73.9285 369.00
73.9937 409.00
74.0589 387.00
74.1241 424.00
74.1893 477.00
74.2545 519.00
74.3197 510.00
74.3849 436.00
74.4501 433.00
74.5153 487.00
74.5805 348.00
74.6457 374.00
74.7109 332.00
74.7761 345.00
74.8413 371.00
74.9065 413.00
74.9717 410.00
75.0369 382.00
75.1021 362.00
75.1673 396.00
75.2325 456.00
75.2977 390.00
75.3629 398.00
75.4281 442.00
75.4933 506.00
75.5585 555.00
75.6237 512.00
75.6889 431.00
75.7541 466.00
75.8193 491.00
75.8845 527.00
75.9497 562.00
76.0149 538.00
76.0801 589.00
76.1452 516.00
76.2104 533.00
76.2756 492.00
76.3409 519.00
76.406 480.00
76.4712 506.00
76.5364 563.00
76.6016 526.00
76.6668 522.00
76.732 513.00
76.7972 505.00
76.8624 507.00
76.9276 486.00
76.9928 488.00
77.058 510.00
77.1232 502.00
77.1884 594.00
77.2536 619.00
77.3188 620.00
77.384 621.00
77.4492 660.00
77.5144 722.00
77.5796 693.00
77.6448 692.00
77.71 674.00
77.7752 766.00
77.8404 816.00
77.9056 699.00
77.9708 634.00
78.036 650.00
78.1012 599.00
78.1664 592.00
78.2316 565.00
78.2968 482.00
78.362 482.00
78.4272 469.00
78.4924 426.00
78.5576 429.00
78.6228 434.00
78.688 472.00
78.7532 442.00
78.8184 440.00
78.8836 454.00
78.9488 471.00
79.014 446.00
79.0792 469.00
79.1444 461.00
79.2096 389.00
79.2748 421.00
79.34 399.00
79.4052 417.00
79.4704 430.00
79.5356 403.00
79.6008 402.00
79.666 425.00
79.7312 448.00
79.7964 382.00
79.8616 386.00
79.9268 356.00
79.992 406.00
80.0572 357.00
80.1224 382.00
80.1876 349.00
80.2528 378.00
80.318 405.00
80.3832 376.00
80.4484 375.00
80.5136 375.00
80.5788 354.00
80.644 346.00
80.7092 353.00
80.7744 377.00
80.8396 358.00
80.9048 397.00
80.9699 391.00
81.0351 411.00
81.1003 366.00
81.1655 360.00
81.2307 391.00
81.2959 425.00
81.3611 360.00
81.4263 348.00
81.4915 367.00
81.5567 373.00
81.6219 363.00
81.6871 386.00
81.7523 378.00
81.8175 382.00
81.8827 400.00
81.9479 537.00
82.0131 464.00
82.0783 437.00
82.1435 461.00
82.2087 560.00
82.2739 599.00
82.3391 557.00
82.4043 523.00
82.4695 575.00
82.5347 666.00
82.5999 622.00
82.6651 533.00
82.7303 461.00
82.7955 476.00
82.8607 454.00
82.9259 420.00
82.9911 407.00
83.0563 410.00
83.1215 377.00
83.1867 387.00
83.2519 420.00
83.3171 398.00
83.3823 412.00
83.4475 398.00
83.5127 439.00
83.5779 390.00
83.6431 410.00
83.7083 373.00
83.7735 406.00
83.8387 401.00
83.9039 428.00
83.9691 466.00
84.0343 476.00
84.0995 431.00
84.1647 418.00
84.2299 455.00
84.2951 472.00
84.3603 397.00
84.4255 430.00
84.4907 396.00
84.5559 402.00
84.6211 361.00
84.6863 361.00
84.7515 373.00
84.8167 385.00
84.8819 425.00
84.9471 405.00
85.0123 425.00
85.0775 451.00
85.1427 513.00
85.2079 416.00
85.2731 469.00
85.3383 377.00
85.4035 492.00
85.4687 411.00
85.5339 400.00
85.5991 434.00
85.6643 452.00
85.7295 467.00
85.7946 500.00
85.8598 481.00
85.925 460.00
85.9903 502.00
86.0554 427.00
86.1206 427.00
86.1858 440.00
86.251 461.00
86.3162 460.00
86.3814 454.00
86.4466 535.00
86.5118 537.00
86.577 546.00
86.6422 562.00
86.7074 615.00
86.7726 572.00
86.8378 608.00
86.903 543.00
86.9682 467.00
87.0334 476.00
87.0986 405.00
87.1638 412.00
87.229 375.00
87.2942 382.00
87.3594 367.00
87.4246 358.00
87.4898 385.00
87.555 412.00
87.6202 357.00
87.6854 344.00
87.7506 399.00
87.8158 379.00
87.881 365.00
87.9462 354.00
88.0114 384.00
88.0766 386.00
88.1418 388.00
88.207 377.00
88.2722 340.00
88.3374 372.00
88.4026 359.00
88.4678 400.00
88.533 409.00
88.5982 392.00
88.6634 375.00
88.7286 408.00
88.7938 458.00
88.859 438.00
88.9242 441.00
88.9894 466.00
89.0546 470.00
89.1198 436.00
89.185 431.00
89.2502 469.00
89.3154 440.00
89.3806 389.00
89.4458 440.00
89.511 382.00
89.5762 406.00
89.6414 388.00
89.7066 363.00
89.7718 384.00
89.837 345.00
89.9022 353.00
89.9674 384.00
90.0326 398.00
90.0978 478.00
90.163 477.00
90.2282 514.00
90.2934 477.00
90.3586 461.00
90.4238 516.00
90.489 551.00
90.5542 453.00
90.6193 451.00
90.6845 447.00
90.7497 482.00
90.8149 505.00
90.8801 495.00
90.9453 479.00
91.0105 508.00
91.0757 446.00
91.1409 401.00
91.2061 421.00
91.2713 429.00
91.3365 413.00
91.4017 468.00
91.4669 427.00
91.5321 391.00
91.5973 415.00
91.6625 483.00
91.7277 452.00
91.7929 411.00
91.8581 394.00
91.9233 386.00
91.9885 349.00
92.0537 375.00
92.1189 425.00
92.1841 393.00
92.2493 325.00
92.3145 350.00
92.3797 362.00
92.4449 392.00
92.5101 372.00
92.5753 358.00
92.6405 366.00
92.7057 348.00
92.7709 369.00
92.8361 344.00
92.9013 365.00
92.9665 367.00
93.0317 342.00
93.0969 391.00
93.1621 342.00
93.2273 337.00
93.2925 362.00
93.3577 329.00
93.4229 341.00
93.4881 393.00
93.5533 336.00
93.6185 394.00
93.6837 350.00
93.7489 371.00
93.8141 334.00
93.8793 334.00
93.9445 344.00
94.0097 352.00
94.0749 364.00
94.1401 344.00
94.2053 325.00
94.2705 385.00
94.3357 376.00
94.4009 401.00
94.4661 395.00
94.5313 362.00
94.5965 378.00
94.6617 353.00
94.7269 436.00
94.7921 350.00
94.8573 361.00
94.9225 373.00
94.9877 445.00
95.0529 386.00
95.1181 401.00
95.1833 366.00
95.2485 394.00
95.3137 356.00
95.3789 385.00
95.444 410.00
95.5092 381.00
95.5744 361.00
95.6396 400.00
95.7048 437.00
95.77 475.00
95.8352 461.00
95.9004 433.00
95.9656 416.00
96.0308 447.00
96.096 424.00
96.1612 453.00
96.2264 446.00
96.2916 429.00
96.3568 403.00
96.422 377.00
96.4872 367.00
96.5524 395.00
96.6176 401.00
96.6828 413.00
96.748 424.00
96.8132 440.00
96.8784 441.00
96.9436 432.00
97.0088 386.00
97.074 426.00
97.1392 416.00
97.2044 435.00
97.2696 408.00
97.3348 390.00
97.4 336.00
97.4652 368.00
97.5304 354.00
97.5956 361.00
97.6608 321.00
97.726 342.00
97.7912 296.00
97.8564 338.00
97.9216 369.00
97.9868 327.00
98.052 356.00
98.1172 348.00
98.1824 348.00
98.2476 319.00
98.3128 363.00
98.378 333.00
98.4432 314.00
98.5084 393.00
98.5736 349.00
98.6388 350.00
98.704 320.00
98.7692 324.00
98.8344 341.00
98.8996 351.00
98.9648 383.00
99.03 387.00
99.0952 327.00
99.1604 357.00
99.2256 332.00
99.2908 322.00
99.356 374.00
99.4212 372.00
99.4864 306.00
99.5516 349.00
99.6168 336.00
99.682 334.00
99.7472 316.00
99.8124 362.00
99.8776 369.00
99.9428 419.00
100.008 392.00
100.073 380.00
100.095 347.00