File: data/xrd_creation/results/Na_39.xy
9.903433 2590.00
9.968632 2575.00
10.0338 2516.00
10.099 2538.00
10.1642 2550.00
10.2294 2473.00
10.2946 2440.00
10.3598 2381.00
10.425 2445.00
10.4902 2387.00
10.5554 2323.00
10.6206 2378.00
10.6858 2300.00
10.751 2286.00
10.8162 2247.00
10.8814 2052.00
10.9466 2262.00
11.0118 2208.00
11.077 2157.00
11.1422 2161.00
11.2074 2045.00
11.2726 2083.00
11.3378 2107.00
11.403 2027.00
11.4682 2084.00
11.5334 2028.00
11.5986 1994.00
11.6638 1958.00
11.729 1926.00
11.7942 1937.00
11.8594 1930.00
11.9246 1937.00
11.9898 1875.00
12.055 1896.00
12.1202 1876.00
12.1854 1822.00
12.2506 1805.00
12.3158 1814.00
12.381 1849.00
12.4462 1753.00
12.5114 1740.00
12.5766 1718.00
12.6418 1762.00
12.707 1754.00
12.7722 1616.00
12.8374 1791.00
12.9026 1636.00
12.9678 1659.00
13.033 1559.00
13.0982 1571.00
13.1634 1498.00
13.2286 1700.00
13.2938 1578.00
13.359 1705.00
13.4242 1505.00
13.4894 1581.00
13.5546 1587.00
13.6198 1547.00
13.685 1461.00
13.7502 1448.00
13.8154 1496.00
13.8805 1496.00
13.9457 1544.00
14.0109 1434.00
14.0761 1463.00
14.1413 1465.00
14.2065 1354.00
14.2717 1312.00
14.3369 1354.00
14.4021 1383.00
14.4673 1434.00
14.5325 1360.00
14.5977 1353.00
14.6629 1395.00
14.7281 1372.00
14.7933 1414.00
14.8585 1405.00
14.9237 1307.00
14.9889 1317.00
15.0541 1343.00
15.1193 1296.00
15.1845 1271.00
15.2497 1331.00
15.3149 1327.00
15.3801 1293.00
15.4453 1313.00
15.5105 1301.00
15.5757 1271.00
15.6409 1313.00
15.7061 1323.00
15.7713 1271.00
15.8365 1340.00
15.9017 1258.00
15.9669 1226.00
16.0321 1237.00
16.0973 1171.00
16.1625 1198.00
16.2277 1328.00
16.2929 1226.00
16.3581 1252.00
16.4233 1221.00
16.4885 1248.00
16.5537 1155.00
16.6189 1193.00
16.6841 1168.00
16.7493 1222.00
16.8145 1195.00
16.8797 1195.00
16.9449 1179.00
17.0101 1172.00
17.0753 1133.00
17.1405 1161.00
17.2057 1119.00
17.2709 1129.00
17.3361 1143.00
17.4013 1173.00
17.4665 1177.00
17.5317 1107.00
17.5969 1126.00
17.6621 1122.00
17.7273 1099.00
17.7925 1104.00
17.8577 1059.00
17.9229 1107.00
17.9881 1031.00
18.0533 1109.00
18.1185 1034.00
18.1837 1062.00
18.2489 1084.00
18.3141 1040.00
18.3793 1004.00
18.4445 999.00
18.5097 1041.00
18.5749 1044.00
18.6401 947.00
18.7052 1028.00
18.7704 1006.00
18.8356 1066.00
18.9008 1019.00
18.966 1029.00
19.0312 1027.00
19.0964 961.00
19.1616 983.00
19.2268 994.00
19.292 973.00
19.3572 999.00
19.4224 953.00
19.4876 1012.00
19.5528 938.00
19.618 959.00
19.6832 948.00
19.7484 987.00
19.8136 980.00
19.8788 874.00
19.944 914.00
20.0092 874.00
20.0744 901.00
20.1396 913.00
20.2048 942.00
20.27 954.00
20.3352 920.00
20.4004 906.00
20.4656 875.00
20.5308 862.00
20.596 920.00
20.6612 925.00
20.7264 873.00
20.7916 866.00
20.8568 880.00
20.922 890.00
20.9872 858.00
21.0524 902.00
21.1176 817.00
21.1828 878.00
21.248 877.00
21.3132 793.00
21.3784 829.00
21.4436 942.00
21.5088 908.00
21.574 799.00
21.6392 818.00
21.7044 820.00
21.7696 840.00
21.8348 805.00
21.9 859.00
21.9652 825.00
22.0304 792.00
22.0956 780.00
22.1608 879.00
22.226 788.00
22.2912 819.00
22.3564 735.00
22.4216 793.00
22.4868 767.00
22.552 784.00
22.6172 793.00
22.6824 850.00
22.7476 748.00
22.8128 804.00
22.878 768.00
22.9432 800.00
23.0084 737.00
23.0736 771.00
23.1388 805.00
23.204 738.00
23.2692 761.00
23.3344 762.00
23.3996 691.00
23.4647 760.00
23.5299 778.00
23.5951 759.00
23.6603 729.00
23.7255 745.00
23.7907 830.00
23.8559 732.00
23.9211 673.00
23.9863 695.00
24.0515 711.00
24.1167 744.00
24.1819 730.00
24.2471 680.00
24.3123 740.00
24.3775 721.00
24.4427 747.00
24.5079 712.00
24.5731 727.00
24.6383 687.00
24.7035 684.00
24.7687 748.00
24.8339 713.00
24.8991 688.00
24.9643 727.00
25.0295 741.00
25.0947 689.00
25.1599 755.00
25.2251 715.00
25.2903 724.00
25.3555 719.00
25.4207 664.00
25.4859 692.00
25.5511 723.00
25.6163 642.00
25.6815 638.00
25.7467 682.00
25.8119 677.00
25.8771 650.00
25.9423 673.00
26.0075 717.00
26.0727 714.00
26.1379 651.00
26.2031 693.00
26.2683 659.00
26.3335 656.00
26.3987 689.00
26.4639 636.00
26.5291 625.00
26.5943 642.00
26.6595 693.00
26.7247 622.00
26.7899 661.00
26.8551 646.00
26.9203 620.00
26.9855 631.00
27.0507 604.00
27.1159 626.00
27.1811 664.00
27.2463 694.00
27.3115 618.00
27.3767 639.00
27.4419 655.00
27.5071 648.00
27.5723 639.00
27.6375 637.00
27.7027 584.00
27.7679 661.00
27.8331 650.00
27.8983 641.00
27.9635 632.00
28.0287 629.00
28.0939 687.00
28.1591 679.00
28.2243 664.00
28.2894 641.00
28.3546 649.00
28.4198 673.00
28.485 633.00
28.5502 667.00
28.6154 671.00
28.6806 623.00
28.7458 643.00
28.811 590.00
28.8762 642.00
28.9414 630.00
29.0066 674.00
29.0718 698.00
29.137 674.00
29.2022 645.00
29.2674 651.00
29.3326 624.00
29.3978 630.00
29.463 611.00
29.5282 582.00
29.5934 589.00
29.6586 577.00
29.7238 583.00
29.789 602.00
29.8542 581.00
29.9194 579.00
29.9846 680.00
30.0498 642.00
30.115 580.00
30.1802 553.00
30.2454 544.00
30.3106 552.00
30.3758 522.00
30.441 566.00
30.5062 529.00
30.5714 547.00
30.6366 552.00
30.7018 524.00
30.767 516.00
30.8322 525.00
30.8974 513.00
30.9626 483.00
31.0278 529.00
31.093 555.00
31.1582 576.00
31.2234 556.00
31.2886 502.00
31.3538 487.00
31.419 552.00
31.4842 527.00
31.5494 509.00
31.6146 524.00
31.6798 568.00
31.745 527.00
31.8102 478.00
31.8754 515.00
31.9406 525.00
32.0058 513.00
32.071 492.00
32.1362 503.00
32.2014 532.00
32.2666 539.00
32.3318 514.00
32.397 508.00
32.4622 503.00
32.5274 501.00
32.5926 467.00
32.6578 489.00
32.723 511.00
32.7882 477.00
32.8534 486.00
32.9186 506.00
32.9838 472.00
33.0489 458.00
33.1141 523.00
33.1793 500.00
33.2445 478.00
33.3097 500.00
33.3749 518.00
33.4401 460.00
33.5053 501.00
33.5705 509.00
33.6357 521.00
33.7009 482.00
33.7661 518.00
33.8313 476.00
33.8965 495.00
33.9617 431.00
34.0269 492.00
34.0921 448.00
34.1573 444.00
34.2225 432.00
34.2877 457.00
34.3529 428.00
34.4181 428.00
34.4833 461.00
34.5485 404.00
34.6137 420.00
34.6789 451.00
34.7441 397.00
34.8093 431.00
34.8745 438.00
34.9397 419.00
35.0049 442.00
35.0701 438.00
35.1353 437.00
35.2005 424.00
35.2657 408.00
35.3309 402.00
35.3961 429.00
35.4613 408.00
35.5265 407.00
35.5917 407.00
35.6569 416.00
35.7221 433.00
35.7873 422.00
35.8525 482.00
35.9177 409.00
35.9829 408.00
36.0481 384.00
36.1133 406.00
36.1785 381.00
36.2437 392.00
36.3089 419.00
36.3741 408.00
36.4393 462.00
36.5045 448.00
36.5697 467.00
36.6349 446.00
36.7001 396.00
36.7653 388.00
36.8305 380.00
36.8957 425.00
36.9609 436.00
37.0261 398.00
37.0913 388.00
37.1565 372.00
37.2217 391.00
37.2869 386.00
37.3521 401.00
37.4173 424.00
37.4825 381.00
37.5477 400.00
37.6129 369.00
37.6781 400.00
37.7433 377.00
37.8085 372.00
37.8736 349.00
37.9388 354.00
38.004 374.00
38.0692 363.00
38.1344 378.00
38.1996 366.00
38.2648 369.00
38.33 349.00
38.3952 329.00
38.4604 380.00
38.5256 353.00
38.5908 356.00
38.656 336.00
38.7212 361.00
38.7864 384.00
38.8516 366.00
38.9168 338.00
38.982 396.00
39.0472 349.00
39.1124 327.00
39.1776 371.00
39.2428 359.00
39.308 328.00
39.3732 368.00
39.4384 356.00
39.5036 320.00
39.5688 353.00
39.634 370.00
39.6992 355.00
39.7644 365.00
39.8296 413.00
39.8948 436.00
39.96 398.00
40.0252 342.00
40.0904 362.00
40.1556 353.00
40.2208 367.00
40.286 319.00
40.3512 354.00
40.4164 348.00
40.4816 356.00
40.5468 312.00
40.612 308.00
40.6772 363.00
40.7424 332.00
40.8076 357.00
40.8728 349.00
40.938 291.00
41.0032 319.00
41.0684 353.00
41.1336 328.00
41.1988 274.00
41.264 295.00
41.3292 363.00
41.3944 327.00
41.4596 357.00
41.5248 352.00
41.59 351.00
41.6552 343.00
41.7204 303.00
41.7856 352.00
41.8508 380.00
41.916 328.00
41.9812 353.00
42.0464 327.00
42.1116 328.00
42.1768 294.00
42.242 350.00
42.3072 341.00
42.3724 325.00
42.4376 313.00
42.5028 302.00
42.568 328.00
42.6332 290.00
42.6983 294.00
42.7635 287.00
42.8287 300.00
42.8939 339.00
42.9591 340.00
43.0243 332.00
43.0895 348.00
43.1547 320.00
43.2199 324.00
43.2851 330.00
43.3503 354.00
43.4155 332.00
43.4807 320.00
43.5459 294.00
43.6111 309.00
43.6763 326.00
43.7415 305.00
43.8067 279.00
43.8719 305.00
43.9371 319.00
44.0023 313.00
44.0675 310.00
44.1327 322.00
44.1979 337.00
44.2631 263.00
44.3283 302.00
44.3935 307.00
44.4587 294.00
44.5239 308.00
44.5891 289.00
44.6543 312.00
44.7195 305.00
44.7847 320.00
44.8499 269.00
44.9151 288.00
44.9803 280.00
45.0455 295.00
45.1107 292.00
45.1759 302.00
45.2411 305.00
45.3063 310.00
45.3715 275.00
45.4367 290.00
45.5019 320.00
45.5671 300.00
45.6323 320.00
45.6975 313.00
45.7627 294.00
45.8279 295.00
45.8931 289.00
45.9583 332.00
46.0235 311.00
46.0887 309.00
46.1539 297.00
46.2191 309.00
46.2843 286.00
46.3495 269.00
46.4147 304.00
46.4799 305.00
46.5451 293.00
46.6103 328.00
46.6755 298.00
46.7407 271.00
46.8059 256.00
46.8711 311.00
46.9363 285.00
47.0015 293.00
47.0667 290.00
47.1319 291.00
47.1971 293.00
47.2623 288.00
47.3275 314.00
47.3927 304.00
47.4579 282.00
47.523 273.00
47.5882 294.00
47.6534 250.00
47.7186 272.00
47.7838 271.00
47.849 248.00
47.9142 287.00
47.9794 257.00
48.0446 300.00
48.1098 265.00
48.175 273.00
48.2402 295.00
48.3054 261.00
48.3706 289.00
48.4358 313.00
48.501 280.00
48.5662 279.00
48.6314 349.00
48.6966 331.00
48.7618 360.00
48.827 315.00
48.8922 300.00
48.9574 274.00
49.0226 277.00
49.0878 288.00
49.153 289.00
49.2182 285.00
49.2834 280.00
49.3486 235.00
49.4138 279.00
49.479 295.00
49.5442 309.00
49.6094 285.00
49.6746 261.00
49.7398 294.00
49.805 302.00
49.8702 247.00
49.9354 259.00
50.0006 278.00
50.0658 271.00
50.131 259.00
50.1962 267.00
50.2614 243.00
50.3266 239.00
50.3918 250.00
50.457 231.00
50.5222 239.00
50.5874 272.00
50.6526 251.00
50.7178 260.00
50.783 264.00
50.8482 277.00
50.9134 246.00
50.9786 272.00
51.0438 272.00
51.109 238.00
51.1742 244.00
51.2394 280.00
51.3046 248.00
51.3698 257.00
51.435 269.00
51.5002 240.00
51.5654 278.00
51.6306 268.00
51.6958 301.00
51.761 246.00
51.8262 257.00
51.8914 273.00
51.9566 235.00
52.0218 284.00
52.087 265.00
52.1522 277.00
52.2174 228.00
52.2826 291.00
52.3477 276.00
52.4129 241.00
52.4781 242.00
52.5433 241.00
52.6085 264.00
52.6737 246.00
52.7389 241.00
52.8041 244.00
52.8693 262.00
52.9345 229.00
52.9997 223.00
53.0649 275.00
53.1301 248.00
53.1953 218.00
53.2605 281.00
53.3257 259.00
53.3909 230.00
53.4561 246.00
53.5213 248.00
53.5865 257.00
53.6517 256.00
53.7169 259.00
53.7821 267.00
53.8473 232.00
53.9125 239.00
53.9777 249.00
54.0429 240.00
54.1081 236.00
54.1733 247.00
54.2385 214.00
54.3037 216.00
54.3689 247.00
54.4341 259.00
54.4993 228.00
54.5645 216.00
54.6297 263.00
54.6949 238.00
54.7601 244.00
54.8253 233.00
54.8905 227.00
54.9557 256.00
55.0209 222.00
55.0861 229.00
55.1513 276.00
55.2165 256.00
55.2817 278.00
55.3469 236.00
55.4121 235.00
55.4773 218.00
55.5425 228.00
55.6077 226.00
55.6729 225.00
55.7381 246.00
55.8033 221.00
55.8685 224.00
55.9337 215.00
55.9989 234.00
56.0641 214.00
56.1293 233.00
56.1945 230.00
56.2597 258.00
56.3249 246.00
56.3901 234.00
56.4553 205.00
56.5205 220.00
56.5857 206.00
56.6509 246.00
56.7161 256.00
56.7813 184.00
56.8465 213.00
56.9117 226.00
56.9769 218.00
57.042 194.00
57.1073 245.00
57.1724 204.00
57.2376 236.00
57.3028 224.00
57.368 241.00
57.4332 222.00
57.4984 215.00
57.5636 241.00
57.6288 228.00
57.694 212.00
57.7592 224.00
57.8244 266.00
57.8896 216.00
57.9548 245.00
58.02 239.00
58.0852 229.00
58.1504 207.00
58.2156 243.00
58.2808 218.00
58.346 211.00
58.4112 221.00
58.4764 192.00
58.5416 204.00
58.6068 238.00
58.672 224.00
58.7372 235.00
58.8024 246.00
58.8676 220.00
58.9328 210.00
58.998 217.00
59.0632 225.00
59.1284 217.00
59.1936 224.00
59.2588 199.00
59.324 228.00
59.3892 211.00
59.4544 177.00
59.5196 211.00
59.5848 215.00
59.65 182.00
59.7152 223.00
59.7804 220.00
59.8456 215.00
59.9108 224.00
59.976 187.00
60.0412 191.00
60.1064 220.00
60.1716 220.00
60.2368 201.00
60.302 225.00
60.3672 197.00
60.4324 205.00
60.4976 190.00
60.5628 186.00
60.628 208.00
60.6932 224.00
60.7584 239.00
60.8236 197.00
60.8888 199.00
60.954 213.00
61.0192 217.00
61.0844 189.00
61.1496 203.00
61.2148 180.00
61.28 195.00
61.3452 217.00
61.4104 176.00
61.4756 196.00
61.5408 199.00
61.606 188.00
61.6712 186.00
61.7364 200.00
61.8016 204.00
61.8667 211.00
61.932 184.00
61.9971 194.00
62.0623 180.00
62.1275 183.00
62.1927 177.00
62.2579 196.00
62.3231 202.00
62.3883 213.00
62.4535 203.00
62.5187 187.00
62.5839 202.00
62.6491 216.00
62.7143 194.00
62.7795 167.00
62.8447 192.00
62.9099 201.00
62.9751 177.00
63.0403 219.00
63.1055 204.00
63.1707 201.00
63.2359 207.00
63.3011 188.00
63.3663 198.00
63.4315 183.00
63.4967 194.00
63.5619 214.00
63.6271 195.00
63.6923 195.00
63.7575 201.00
63.8227 180.00
63.8879 185.00
63.9531 236.00
64.0183 202.00
64.0835 199.00
64.1487 185.00
64.2139 210.00
64.2791 187.00
64.3443 183.00
64.4095 205.00
64.4747 194.00
64.5399 214.00
64.6051 184.00
64.6703 173.00
64.7355 186.00
64.8007 197.00
64.8659 225.00
64.9311 179.00
64.9963 169.00
65.0615 191.00
65.1267 189.00
65.1919 215.00
65.2571 197.00
65.3223 163.00
65.3875 220.00
65.4527 185.00
65.5179 178.00
65.5831 200.00
65.6483 167.00
65.7135 187.00
65.7787 210.00
65.8439 202.00
65.9091 169.00
65.9743 193.00
66.0395 175.00
66.1047 171.00
66.1699 200.00
66.2351 190.00
66.3003 175.00
66.3655 179.00
66.4307 177.00
66.4959 182.00
66.561 180.00
66.6263 176.00
66.6915 195.00
66.7566 189.00
66.8218 182.00
66.887 197.00
66.9522 156.00
67.0174 191.00
67.0826 192.00
67.1478 222.00
67.213 205.00
67.2782 202.00
67.3434 187.00
67.4086 197.00
67.4738 182.00
67.539 212.00
67.6042 180.00
67.6694 185.00
67.7346 214.00
67.7998 207.00
67.865 187.00
67.9302 181.00
67.9954 179.00
68.0606 208.00
68.1258 177.00
68.191 195.00
68.2562 189.00
68.3214 205.00
68.3866 203.00
68.4518 198.00
68.517 195.00
68.5822 209.00
68.6474 188.00
68.7126 196.00
68.7778 180.00
68.843 217.00
68.9082 166.00
68.9734 218.00
69.0386 171.00
69.1038 186.00
69.169 166.00
69.2342 194.00
69.2994 195.00
69.3646 205.00
69.4298 184.00
69.495 176.00
69.5602 195.00
69.6254 196.00
69.6906 211.00
69.7558 186.00
69.821 158.00
69.8862 164.00
69.9514 173.00
70.0166 178.00
70.0818 184.00
70.147 185.00
70.2122 216.00
70.2774 182.00
70.3426 209.00
70.4078 198.00
70.473 204.00
70.5382 195.00
70.6034 192.00
70.6686 197.00
70.7338 206.00
70.799 171.00
70.8642 210.00
70.9294 202.00
70.9946 214.00
71.0598 201.00
71.125 189.00
71.1902 182.00
71.2554 161.00
71.3205 196.00
71.3858 219.00
71.451 216.00
71.5162 190.00
71.5813 206.00
71.6465 189.00
71.7117 179.00
71.7769 176.00
71.8421 205.00
71.9073 178.00
71.9725 190.00
72.0377 178.00
72.1029 182.00
72.1681 200.00
72.2333 201.00
72.2985 190.00
72.3637 184.00
72.4289 200.00
72.4941 186.00
72.5593 196.00
72.6245 206.00
72.6897 221.00
72.7549 191.00
72.8201 183.00
72.8853 187.00
72.9505 187.00
73.0157 214.00
73.0809 184.00
73.1461 179.00
73.2113 217.00
73.2765 208.00
73.3417 185.00
73.4069 190.00
73.4721 194.00
73.5373 159.00
73.6025 194.00
73.6677 223.00
73.7329 178.00
73.7981 195.00
73.8633 217.00
73.9285 196.00
73.9937 197.00
74.0589 205.00
74.1241 199.00
74.1893 228.00
74.2545 209.00
74.3197 170.00
74.3849 223.00
74.4501 209.00
74.5153 194.00
74.5805 200.00
74.6457 179.00
74.7109 211.00
74.7761 197.00
74.8413 206.00
74.9065 185.00
74.9717 200.00
75.0369 210.00
75.1021 197.00
75.1673 224.00
75.2325 205.00
75.2977 205.00
75.3629 221.00
75.4281 197.00
75.4933 230.00
75.5585 216.00
75.6237 206.00
75.6889 191.00
75.7541 223.00
75.8193 206.00
75.8845 199.00
75.9497 194.00
76.0149 195.00
76.0801 189.00
76.1452 174.00
76.2104 226.00
76.2756 193.00
76.3409 180.00
76.406 211.00
76.4712 206.00
76.5364 223.00
76.6016 206.00
76.6668 211.00
76.732 192.00
76.7972 208.00
76.8624 229.00
76.9276 222.00
76.9928 206.00
77.058 197.00
77.1232 181.00
77.1884 211.00
77.2536 225.00
77.3188 218.00
77.384 205.00
77.4492 198.00
77.5144 195.00
77.5796 221.00
77.6448 203.00
77.71 197.00
77.7752 202.00
77.8404 193.00
77.9056 218.00
77.9708 226.00
78.036 204.00
78.1012 205.00
78.1664 195.00
78.2316 215.00
78.2968 238.00
78.362 227.00
78.4272 221.00
78.4924 223.00
78.5576 227.00
78.6228 202.00
78.688 202.00
78.7532 208.00
78.8184 195.00
78.8836 222.00
78.9488 212.00
79.014 226.00
79.0792 219.00
79.1444 193.00
79.2096 194.00
79.2748 208.00
79.34 199.00
79.4052 225.00
79.4704 198.00
79.5356 226.00
79.6008 223.00
79.666 205.00
79.7312 222.00
79.7964 217.00
79.8616 236.00
79.9268 197.00
79.992 229.00
80.0572 236.00
80.1224 222.00
80.1876 238.00
80.2528 236.00
80.318 232.00
80.3832 236.00
80.4484 220.00
80.5136 226.00
80.5788 199.00
80.644 214.00
80.7092 209.00
80.7744 227.00
80.8396 223.00
80.9048 225.00
80.9699 220.00
81.0351 247.00
81.1003 217.00
81.1655 230.00
81.2307 246.00
81.2959 234.00
81.3611 264.00
81.4263 227.00
81.4915 239.00
81.5567 222.00
81.6219 227.00
81.6871 211.00
81.7523 210.00
81.8175 250.00
81.8827 229.00
81.9479 223.00
82.0131 249.00
82.0783 231.00
82.1435 197.00
82.2087 209.00
82.2739 230.00
82.3391 213.00
82.4043 230.00
82.4695 233.00
82.5347 209.00
82.5999 260.00
82.6651 226.00
82.7303 217.00
82.7955 218.00
82.8607 221.00
82.9259 222.00
82.9911 257.00
83.0563 224.00
83.1215 211.00
83.1867 216.00
83.2519 250.00
83.3171 228.00
83.3823 199.00
83.4475 215.00
83.5127 221.00
83.5779 202.00
83.6431 243.00
83.7083 225.00
83.7735 235.00
83.8387 244.00
83.9039 242.00
83.9691 221.00
84.0343 198.00
84.0995 202.00
84.1647 197.00
84.2299 204.00
84.2951 186.00
84.3603 204.00
84.4255 227.00
84.4907 201.00
84.5559 259.00
84.6211 210.00
84.6863 212.00
84.7515 210.00
84.8167 218.00
84.8819 209.00
84.9471 228.00
85.0123 196.00
85.0775 235.00
85.1427 222.00
85.2079 208.00
85.2731 223.00
85.3383 218.00
85.4035 228.00
85.4687 219.00
85.5339 234.00
85.5991 207.00
85.6643 173.00
85.7295 223.00
85.7946 233.00
85.8598 197.00
85.925 206.00
85.9903 208.00
86.0554 190.00
86.1206 212.00
86.1858 235.00
86.251 240.00
86.3162 195.00
86.3814 201.00
86.4466 218.00
86.5118 220.00
86.577 209.00
86.6422 235.00
86.7074 209.00
86.7726 226.00
86.8378 198.00
86.903 207.00
86.9682 193.00
87.0334 183.00
87.0986 195.00
87.1638 202.00
87.229 215.00
87.2942 193.00
87.3594 173.00
87.4246 198.00
87.4898 193.00
87.555 176.00
87.6202 200.00
87.6854 211.00
87.7506 203.00
87.8158 187.00
87.881 211.00
87.9462 191.00
88.0114 192.00
88.0766 209.00
88.1418 203.00
88.207 199.00
88.2722 217.00
88.3374 203.00
88.4026 193.00
88.4678 185.00
88.533 195.00
88.5982 210.00
88.6634 190.00
88.7286 187.00
88.7938 210.00
88.859 199.00
88.9242 188.00
88.9894 202.00
89.0546 208.00
89.1198 192.00
89.185 189.00
89.2502 187.00
89.3154 199.00
89.3806 179.00
89.4458 203.00
89.511 168.00
89.5762 199.00
89.6414 210.00
89.7066 215.00
89.7718 204.00
89.837 190.00
89.9022 209.00
89.9674 171.00
90.0326 198.00
90.0978 186.00
90.163 207.00
90.2282 210.00
90.2934 189.00
90.3586 173.00
90.4238 188.00
90.489 185.00
90.5542 185.00
90.6193 210.00
90.6845 192.00
90.7497 176.00
90.8149 181.00
90.8801 186.00
90.9453 195.00
91.0105 186.00
91.0757 208.00
91.1409 194.00
91.2061 185.00
91.2713 207.00
91.3365 192.00
91.4017 191.00
91.4669 192.00
91.5321 184.00
91.5973 181.00
91.6625 185.00
91.7277 200.00
91.7929 190.00
91.8581 207.00
91.9233 183.00
91.9885 182.00
92.0537 179.00
92.1189 178.00
92.1841 208.00
92.2493 182.00
92.3145 176.00
92.3797 215.00
92.4449 188.00
92.5101 174.00
92.5753 208.00
92.6405 188.00
92.7057 192.00
92.7709 185.00
92.8361 167.00
92.9013 189.00
92.9665 183.00
93.0317 175.00
93.0969 205.00
93.1621 178.00
93.2273 175.00
93.2925 179.00
93.3577 198.00
93.4229 189.00
93.4881 168.00
93.5533 189.00
93.6185 172.00
93.6837 173.00
93.7489 172.00
93.8141 174.00
93.8793 178.00
93.9445 161.00
94.0097 185.00
94.0749 194.00
94.1401 192.00
94.2053 165.00
94.2705 202.00
94.3357 184.00
94.4009 178.00
94.4661 185.00
94.5313 189.00
94.5965 187.00
94.6617 196.00
94.7269 203.00
94.7921 186.00
94.8573 176.00
94.9225 186.00
94.9877 163.00
95.0529 199.00
95.1181 162.00
95.1833 186.00
95.2485 186.00
95.3137 184.00
95.3789 199.00
95.444 195.00
95.5092 175.00
95.5744 190.00
95.6396 184.00
95.7048 190.00
95.77 163.00
95.8352 196.00
95.9004 203.00
95.9656 192.00
96.0308 199.00
96.096 191.00
96.1612 167.00
96.2264 174.00
96.2916 167.00
96.3568 213.00
96.422 215.00
96.4872 181.00
96.5524 187.00
96.6176 200.00
96.6828 218.00
96.748 200.00
96.8132 180.00
96.8784 191.00
96.9436 192.00
97.0088 181.00
97.074 199.00
97.1392 200.00
97.2044 199.00
97.2696 170.00
97.3348 174.00
97.4 193.00
97.4652 179.00
97.5304 181.00
97.5956 189.00
97.6608 195.00
97.726 203.00
97.7912 183.00
97.8564 162.00
97.9216 160.00
97.9868 192.00
98.052 185.00
98.1172 172.00
98.1824 186.00
98.2476 200.00
98.3128 193.00
98.378 198.00
98.4432 196.00
98.5084 194.00
98.5736 181.00
98.6388 196.00
98.704 191.00
98.7692 167.00
98.8344 187.00
98.8996 184.00
98.9648 170.00
99.03 196.00
99.0952 159.00
99.1604 197.00
99.2256 187.00
99.2908 162.00
99.356 195.00
99.4212 179.00
99.4864 169.00
99.5516 185.00
99.6168 164.00
99.682 169.00
99.7472 176.00
99.8124 196.00
99.8776 188.00
99.9428 167.00
100.008 160.00
100.073 184.00
100.095 184.00