File: data/xrd_creation/results/Na_33.xy
9.903433 2639.00
9.968632 2590.00
10.0338 2599.00
10.099 2502.00
10.1642 2524.00
10.2294 2452.00
10.2946 2481.00
10.3598 2392.00
10.425 2345.00
10.4902 2370.00
10.5554 2367.00
10.6206 2309.00
10.6858 2386.00
10.751 2260.00
10.8162 2263.00
10.8814 2274.00
10.9466 2243.00
11.0118 2198.00
11.077 2248.00
11.1422 2210.00
11.2074 2165.00
11.2726 2166.00
11.3378 2109.00
11.403 2132.00
11.4682 2085.00
11.5334 2015.00
11.5986 2168.00
11.6638 1999.00
11.729 1960.00
11.7942 2129.00
11.8594 2124.00
11.9246 2046.00
11.9898 2006.00
12.055 1947.00
12.1202 1870.00
12.1854 1843.00
12.2506 1933.00
12.3158 1903.00
12.381 1805.00
12.4462 1809.00
12.5114 1822.00
12.5766 1756.00
12.6418 1729.00
12.707 1832.00
12.7722 1697.00
12.8374 1722.00
12.9026 1772.00
12.9678 1710.00
13.033 1653.00
13.0982 1631.00
13.1634 1659.00
13.2286 1638.00
13.2938 1537.00
13.359 1633.00
13.4242 1593.00
13.4894 1608.00
13.5546 1579.00
13.6198 1560.00
13.685 1496.00
13.7502 1585.00
13.8154 1597.00
13.8805 1495.00
13.9457 1423.00
14.0109 1504.00
14.0761 1508.00
14.1413 1504.00
14.2065 1471.00
14.2717 1417.00
14.3369 1513.00
14.4021 1406.00
14.4673 1475.00
14.5325 1436.00
14.5977 1433.00
14.6629 1439.00
14.7281 1412.00
14.7933 1419.00
14.8585 1413.00
14.9237 1375.00
14.9889 1399.00
15.0541 1387.00
15.1193 1342.00
15.1845 1349.00
15.2497 1347.00
15.3149 1380.00
15.3801 1308.00
15.4453 1375.00
15.5105 1370.00
15.5757 1220.00
15.6409 1295.00
15.7061 1295.00
15.7713 1330.00
15.8365 1227.00
15.9017 1211.00
15.9669 1253.00
16.0321 1310.00
16.0973 1271.00
16.1625 1251.00
16.2277 1226.00
16.2929 1279.00
16.3581 1214.00
16.4233 1367.00
16.4885 1236.00
16.5537 1239.00
16.6189 1206.00
16.6841 1187.00
16.7493 1184.00
16.8145 1191.00
16.8797 1182.00
16.9449 1205.00
17.0101 1195.00
17.0753 1190.00
17.1405 1141.00
17.2057 1213.00
17.2709 1171.00
17.3361 1135.00
17.4013 1117.00
17.4665 1142.00
17.5317 1118.00
17.5969 1123.00
17.6621 1112.00
17.7273 1121.00
17.7925 1105.00
17.8577 1138.00
17.9229 1084.00
17.9881 1099.00
18.0533 1157.00
18.1185 1114.00
18.1837 1140.00
18.2489 1069.00
18.3141 1080.00
18.3793 1096.00
18.4445 1069.00
18.5097 1129.00
18.5749 1025.00
18.6401 1050.00
18.7052 1000.00
18.7704 1002.00
18.8356 1064.00
18.9008 1044.00
18.966 1083.00
19.0312 1105.00
19.0964 1041.00
19.1616 1025.00
19.2268 1013.00
19.292 995.00
19.3572 973.00
19.4224 1031.00
19.4876 944.00
19.5528 907.00
19.618 1007.00
19.6832 978.00
19.7484 935.00
19.8136 1017.00
19.8788 993.00
19.944 918.00
20.0092 962.00
20.0744 924.00
20.1396 946.00
20.2048 910.00
20.27 964.00
20.3352 905.00
20.4004 900.00
20.4656 924.00
20.5308 900.00
20.596 882.00
20.6612 928.00
20.7264 922.00
20.7916 865.00
20.8568 919.00
20.922 922.00
20.9872 899.00
21.0524 971.00
21.1176 840.00
21.1828 927.00
21.248 881.00
21.3132 906.00
21.3784 897.00
21.4436 850.00
21.5088 865.00
21.574 869.00
21.6392 851.00
21.7044 819.00
21.7696 884.00
21.8348 860.00
21.9 809.00
21.9652 884.00
22.0304 821.00
22.0956 863.00
22.1608 850.00
22.226 861.00
22.2912 858.00
22.3564 852.00
22.4216 827.00
22.4868 804.00
22.552 831.00
22.6172 832.00
22.6824 837.00
22.7476 862.00
22.8128 817.00
22.878 831.00
22.9432 844.00
23.0084 789.00
23.0736 776.00
23.1388 774.00
23.204 736.00
23.2692 767.00
23.3344 742.00
23.3996 758.00
23.4647 778.00
23.5299 673.00
23.5951 822.00
23.6603 738.00
23.7255 747.00
23.7907 747.00
23.8559 774.00
23.9211 798.00
23.9863 810.00
24.0515 860.00
24.1167 755.00
24.1819 723.00
24.2471 758.00
24.3123 705.00
24.3775 744.00
24.4427 757.00
24.5079 740.00
24.5731 741.00
24.6383 704.00
24.7035 670.00
24.7687 757.00
24.8339 670.00
24.8991 700.00
24.9643 692.00
25.0295 647.00
25.0947 735.00
25.1599 678.00
25.2251 660.00
25.2903 708.00
25.3555 713.00
25.4207 770.00
25.4859 685.00
25.5511 738.00
25.6163 735.00
25.6815 783.00
25.7467 770.00
25.8119 764.00
25.8771 737.00
25.9423 671.00
26.0075 685.00
26.0727 679.00
26.1379 689.00
26.2031 658.00
26.2683 680.00
26.3335 652.00
26.3987 650.00
26.4639 649.00
26.5291 686.00
26.5943 695.00
26.6595 670.00
26.7247 613.00
26.7899 670.00
26.8551 628.00
26.9203 653.00
26.9855 675.00
27.0507 636.00
27.1159 606.00
27.1811 629.00
27.2463 672.00
27.3115 588.00
27.3767 603.00
27.4419 642.00
27.5071 700.00
27.5723 666.00
27.6375 680.00
27.7027 593.00
27.7679 626.00
27.8331 590.00
27.8983 634.00
27.9635 613.00
28.0287 665.00
28.0939 677.00
28.1591 651.00
28.2243 605.00
28.2894 634.00
28.3546 595.00
28.4198 641.00
28.485 649.00
28.5502 602.00
28.6154 597.00
28.6806 604.00
28.7458 629.00
28.811 612.00
28.8762 572.00
28.9414 611.00
29.0066 618.00
29.0718 587.00
29.137 561.00
29.2022 615.00
29.2674 591.00
29.3326 620.00
29.3978 563.00
29.463 548.00
29.5282 568.00
29.5934 568.00
29.6586 572.00
29.7238 607.00
29.789 609.00
29.8542 568.00
29.9194 534.00
29.9846 568.00
30.0498 591.00
30.115 530.00
30.1802 536.00
30.2454 602.00
30.3106 575.00
30.3758 565.00
30.441 591.00
30.5062 594.00
30.5714 549.00
30.6366 512.00
30.7018 549.00
30.767 573.00
30.8322 484.00
30.8974 515.00
30.9626 498.00
31.0278 522.00
31.093 559.00
31.1582 511.00
31.2234 498.00
31.2886 504.00
31.3538 552.00
31.419 517.00
31.4842 558.00
31.5494 550.00
31.6146 515.00
31.6798 544.00
31.745 541.00
31.8102 496.00
31.8754 519.00
31.9406 548.00
32.0058 524.00
32.071 505.00
32.1362 550.00
32.2014 532.00
32.2666 577.00
32.3318 548.00
32.397 555.00
32.4622 488.00
32.5274 490.00
32.5926 491.00
32.6578 505.00
32.723 578.00
32.7882 517.00
32.8534 462.00
32.9186 492.00
32.9838 438.00
33.0489 508.00
33.1141 508.00
33.1793 523.00
33.2445 556.00
33.3097 617.00
33.3749 623.00
33.4401 553.00
33.5053 533.00
33.5705 468.00
33.6357 537.00
33.7009 476.00
33.7661 410.00
33.8313 427.00
33.8965 490.00
33.9617 468.00
34.0269 462.00
34.0921 430.00
34.1573 493.00
34.2225 451.00
34.2877 449.00
34.3529 407.00
34.4181 462.00
34.4833 444.00
34.5485 419.00
34.6137 448.00
34.6789 438.00
34.7441 436.00
34.8093 420.00
34.8745 425.00
34.9397 449.00
35.0049 442.00
35.0701 438.00
35.1353 437.00
35.2005 467.00
35.2657 478.00
35.3309 409.00
35.3961 433.00
35.4613 426.00
35.5265 428.00
35.5917 418.00
35.6569 463.00
35.7221 411.00
35.7873 429.00
35.8525 412.00
35.9177 442.00
35.9829 431.00
36.0481 429.00
36.1133 414.00
36.1785 461.00
36.2437 426.00
36.3089 434.00
36.3741 383.00
36.4393 444.00
36.5045 423.00
36.5697 405.00
36.6349 383.00
36.7001 414.00
36.7653 428.00
36.8305 380.00
36.8957 391.00
36.9609 407.00
37.0261 429.00
37.0913 403.00
37.1565 414.00
37.2217 409.00
37.2869 391.00
37.3521 402.00
37.4173 384.00
37.4825 414.00
37.5477 411.00
37.6129 396.00
37.6781 372.00
37.7433 405.00
37.8085 382.00
37.8736 384.00
37.9388 384.00
38.004 357.00
38.0692 371.00
38.1344 380.00
38.1996 388.00
38.2648 386.00
38.33 351.00
38.3952 359.00
38.4604 338.00
38.5256 384.00
38.5908 382.00
38.656 397.00
38.7212 381.00
38.7864 368.00
38.8516 334.00
38.9168 360.00
38.982 360.00
39.0472 361.00
39.1124 372.00
39.1776 349.00
39.2428 385.00
39.308 362.00
39.3732 371.00
39.4384 394.00
39.5036 356.00
39.5688 366.00
39.634 340.00
39.6992 345.00
39.7644 340.00
39.8296 363.00
39.8948 326.00
39.96 383.00
40.0252 373.00
40.0904 332.00
40.1556 348.00
40.2208 387.00
40.286 351.00
40.3512 340.00
40.4164 356.00
40.4816 348.00
40.5468 351.00
40.612 385.00
40.6772 357.00
40.7424 358.00
40.8076 372.00
40.8728 349.00
40.938 357.00
41.0032 364.00
41.0684 345.00
41.1336 339.00
41.1988 340.00
41.264 343.00
41.3292 344.00
41.3944 347.00
41.4596 370.00
41.5248 368.00
41.59 358.00
41.6552 299.00
41.7204 347.00
41.7856 334.00
41.8508 299.00
41.916 328.00
41.9812 315.00
42.0464 340.00
42.1116 346.00
42.1768 326.00
42.242 305.00
42.3072 317.00
42.3724 342.00
42.4376 290.00
42.5028 319.00
42.568 299.00
42.6332 327.00
42.6983 362.00
42.7635 333.00
42.8287 341.00
42.8939 299.00
42.9591 314.00
43.0243 306.00
43.0895 320.00
43.1547 328.00
43.2199 340.00
43.2851 320.00
43.3503 341.00
43.4155 302.00
43.4807 331.00
43.5459 340.00
43.6111 338.00
43.6763 325.00
43.7415 319.00
43.8067 327.00
43.8719 324.00
43.9371 317.00
44.0023 293.00
44.0675 310.00
44.1327 302.00
44.1979 326.00
44.2631 315.00
44.3283 324.00
44.3935 271.00
44.4587 320.00
44.5239 323.00
44.5891 241.00
44.6543 309.00
44.7195 323.00
44.7847 301.00
44.8499 288.00
44.9151 309.00
44.9803 310.00
45.0455 290.00
45.1107 274.00
45.1759 305.00
45.2411 285.00
45.3063 281.00
45.3715 326.00
45.4367 284.00
45.5019 286.00
45.5671 321.00
45.6323 315.00
45.6975 312.00
45.7627 290.00
45.8279 297.00
45.8931 289.00
45.9583 288.00
46.0235 258.00
46.0887 308.00
46.1539 314.00
46.2191 265.00
46.2843 281.00
46.3495 312.00
46.4147 298.00
46.4799 291.00
46.5451 304.00
46.6103 305.00
46.6755 279.00
46.7407 310.00
46.8059 319.00
46.8711 294.00
46.9363 290.00
47.0015 270.00
47.0667 271.00
47.1319 295.00
47.1971 279.00
47.2623 292.00
47.3275 266.00
47.3927 292.00
47.4579 293.00
47.523 261.00
47.5882 286.00
47.6534 291.00
47.7186 301.00
47.7838 264.00
47.849 296.00
47.9142 266.00
47.9794 279.00
48.0446 290.00
48.1098 296.00
48.175 290.00
48.2402 270.00
48.3054 295.00
48.3706 291.00
48.4358 236.00
48.501 267.00
48.5662 279.00
48.6314 269.00
48.6966 283.00
48.7618 279.00
48.827 287.00
48.8922 284.00
48.9574 284.00
49.0226 301.00
49.0878 281.00
49.153 287.00
49.2182 287.00
49.2834 284.00
49.3486 306.00
49.4138 293.00
49.479 303.00
49.5442 307.00
49.6094 305.00
49.6746 309.00
49.7398 275.00
49.805 267.00
49.8702 277.00
49.9354 262.00
50.0006 239.00
50.0658 275.00
50.131 261.00
50.1962 294.00
50.2614 297.00
50.3266 290.00
50.3918 276.00
50.457 247.00
50.5222 263.00
50.5874 285.00
50.6526 286.00
50.7178 233.00
50.783 261.00
50.8482 240.00
50.9134 275.00
50.9786 275.00
51.0438 246.00
51.109 275.00
51.1742 263.00
51.2394 298.00
51.3046 291.00
51.3698 291.00
51.435 295.00
51.5002 234.00
51.5654 245.00
51.6306 263.00
51.6958 273.00
51.761 244.00
51.8262 278.00
51.8914 271.00
51.9566 260.00
52.0218 289.00
52.087 280.00
52.1522 218.00
52.2174 278.00
52.2826 270.00
52.3477 274.00
52.4129 256.00
52.4781 261.00
52.5433 238.00
52.6085 244.00
52.6737 240.00
52.7389 250.00
52.8041 258.00
52.8693 271.00
52.9345 222.00
52.9997 272.00
53.0649 276.00
53.1301 230.00
53.1953 266.00
53.2605 263.00
53.3257 246.00
53.3909 217.00
53.4561 208.00
53.5213 249.00
53.5865 270.00
53.6517 263.00
53.7169 283.00
53.7821 283.00
53.8473 285.00
53.9125 260.00
53.9777 277.00
54.0429 266.00
54.1081 268.00
54.1733 240.00
54.2385 242.00
54.3037 246.00
54.3689 241.00
54.4341 266.00
54.4993 225.00
54.5645 245.00
54.6297 258.00
54.6949 241.00
54.7601 229.00
54.8253 281.00
54.8905 236.00
54.9557 265.00
55.0209 294.00
55.0861 279.00
55.1513 276.00
55.2165 248.00
55.2817 247.00
55.3469 270.00
55.4121 247.00
55.4773 238.00
55.5425 240.00
55.6077 241.00
55.6729 220.00
55.7381 228.00
55.8033 232.00
55.8685 222.00
55.9337 229.00
55.9989 242.00
56.0641 264.00
56.1293 237.00
56.1945 218.00
56.2597 227.00
56.3249 211.00
56.3901 245.00
56.4553 226.00
56.5205 239.00
56.5857 216.00
56.6509 234.00
56.7161 216.00
56.7813 205.00
56.8465 250.00
56.9117 197.00
56.9769 242.00
57.042 245.00
57.1073 235.00
57.1724 204.00
57.2376 235.00
57.3028 234.00
57.368 221.00
57.4332 220.00
57.4984 212.00
57.5636 214.00
57.6288 219.00
57.694 226.00
57.7592 178.00
57.8244 217.00
57.8896 236.00
57.9548 204.00
58.02 219.00
58.0852 234.00
58.1504 171.00
58.2156 239.00
58.2808 213.00
58.346 263.00
58.4112 224.00
58.4764 238.00
58.5416 234.00
58.6068 214.00
58.672 233.00
58.7372 201.00
58.8024 257.00
58.8676 235.00
58.9328 226.00
58.998 220.00
59.0632 236.00
59.1284 231.00
59.1936 199.00
59.2588 207.00
59.324 209.00
59.3892 187.00
59.4544 195.00
59.5196 197.00
59.5848 199.00
59.65 196.00
59.7152 219.00
59.7804 197.00
59.8456 194.00
59.9108 217.00
59.976 207.00
60.0412 197.00
60.1064 195.00
60.1716 199.00
60.2368 237.00
60.302 237.00
60.3672 227.00
60.4324 220.00
60.4976 192.00
60.5628 218.00
60.628 197.00
60.6932 218.00
60.7584 203.00
60.8236 214.00
60.8888 218.00
60.954 187.00
61.0192 194.00
61.0844 185.00
61.1496 220.00
61.2148 184.00
61.28 200.00
61.3452 201.00
61.4104 210.00
61.4756 214.00
61.5408 213.00
61.606 178.00
61.6712 167.00
61.7364 173.00
61.8016 194.00
61.8667 201.00
61.932 221.00
61.9971 208.00
62.0623 186.00
62.1275 209.00
62.1927 191.00
62.2579 212.00
62.3231 210.00
62.3883 218.00
62.4535 189.00
62.5187 215.00
62.5839 191.00
62.6491 200.00
62.7143 223.00
62.7795 198.00
62.8447 222.00
62.9099 187.00
62.9751 199.00
63.0403 190.00
63.1055 178.00
63.1707 205.00
63.2359 193.00
63.3011 200.00
63.3663 217.00
63.4315 183.00
63.4967 201.00
63.5619 187.00
63.6271 188.00
63.6923 184.00
63.7575 213.00
63.8227 191.00
63.8879 227.00
63.9531 195.00
64.0183 210.00
64.0835 188.00
64.1487 190.00
64.2139 191.00
64.2791 186.00
64.3443 156.00
64.4095 207.00
64.4747 184.00
64.5399 194.00
64.6051 193.00
64.6703 208.00
64.7355 187.00
64.8007 170.00
64.8659 187.00
64.9311 223.00
64.9963 220.00
65.0615 200.00
65.1267 207.00
65.1919 177.00
65.2571 192.00
65.3223 208.00
65.3875 165.00
65.4527 185.00
65.5179 197.00
65.5831 192.00
65.6483 208.00
65.7135 203.00
65.7787 204.00
65.8439 166.00
65.9091 199.00
65.9743 212.00
66.0395 215.00
66.1047 224.00
66.1699 190.00
66.2351 202.00
66.3003 185.00
66.3655 192.00
66.4307 168.00
66.4959 172.00
66.561 202.00
66.6263 189.00
66.6915 208.00
66.7566 189.00
66.8218 168.00
66.887 220.00
66.9522 180.00
67.0174 186.00
67.0826 194.00
67.1478 185.00
67.213 197.00
67.2782 170.00
67.3434 157.00
67.4086 193.00
67.4738 194.00
67.539 189.00
67.6042 182.00
67.6694 232.00
67.7346 185.00
67.7998 176.00
67.865 191.00
67.9302 191.00
67.9954 207.00
68.0606 197.00
68.1258 193.00
68.191 177.00
68.2562 211.00
68.3214 204.00
68.3866 211.00
68.4518 203.00
68.517 173.00
68.5822 169.00
68.6474 191.00
68.7126 185.00
68.7778 183.00
68.843 181.00
68.9082 196.00
68.9734 165.00
69.0386 194.00
69.1038 187.00
69.169 190.00
69.2342 192.00
69.2994 179.00
69.3646 184.00
69.4298 187.00
69.495 186.00
69.5602 175.00
69.6254 200.00
69.6906 209.00
69.7558 205.00
69.821 161.00
69.8862 195.00
69.9514 187.00
70.0166 195.00
70.0818 206.00
70.147 230.00
70.2122 199.00
70.2774 185.00
70.3426 178.00
70.4078 201.00
70.473 189.00
70.5382 195.00
70.6034 202.00
70.6686 160.00
70.7338 232.00
70.799 196.00
70.8642 207.00
70.9294 177.00
70.9946 216.00
71.0598 193.00
71.125 208.00
71.1902 181.00
71.2554 222.00
71.3205 218.00
71.3858 182.00
71.451 200.00
71.5162 197.00
71.5813 195.00
71.6465 191.00
71.7117 183.00
71.7769 192.00
71.8421 208.00
71.9073 178.00
71.9725 204.00
72.0377 159.00
72.1029 189.00
72.1681 203.00
72.2333 198.00
72.2985 201.00
72.3637 194.00
72.4289 204.00
72.4941 201.00
72.5593 186.00
72.6245 202.00
72.6897 221.00
72.7549 183.00
72.8201 186.00
72.8853 207.00
72.9505 202.00
73.0157 192.00
73.0809 182.00
73.1461 202.00
73.2113 200.00
73.2765 192.00
73.3417 194.00
73.4069 192.00
73.4721 188.00
73.5373 190.00
73.6025 180.00
73.6677 196.00
73.7329 205.00
73.7981 203.00
73.8633 202.00
73.9285 173.00
73.9937 203.00
74.0589 192.00
74.1241 203.00
74.1893 210.00
74.2545 197.00
74.3197 186.00
74.3849 193.00
74.4501 179.00
74.5153 184.00
74.5805 186.00
74.6457 182.00
74.7109 211.00
74.7761 202.00
74.8413 194.00
74.9065 247.00
74.9717 212.00
75.0369 177.00
75.1021 199.00
75.1673 209.00
75.2325 192.00
75.2977 201.00
75.3629 180.00
75.4281 228.00
75.4933 230.00
75.5585 212.00
75.6237 185.00
75.6889 211.00
75.7541 198.00
75.8193 207.00
75.8845 225.00
75.9497 185.00
76.0149 235.00
76.0801 214.00
76.1452 182.00
76.2104 227.00
76.2756 198.00
76.3409 231.00
76.406 184.00
76.4712 234.00
76.5364 197.00
76.6016 226.00
76.6668 205.00
76.732 202.00
76.7972 178.00
76.8624 196.00
76.9276 226.00
76.9928 212.00
77.058 234.00
77.1232 207.00
77.1884 208.00
77.2536 221.00
77.3188 194.00
77.384 214.00
77.4492 239.00
77.5144 249.00
77.5796 212.00
77.6448 217.00
77.71 242.00
77.7752 217.00
77.8404 206.00
77.9056 216.00
77.9708 243.00
78.036 201.00
78.1012 196.00
78.1664 217.00
78.2316 209.00
78.2968 204.00
78.362 197.00
78.4272 204.00
78.4924 227.00
78.5576 225.00
78.6228 201.00
78.688 207.00
78.7532 229.00
78.8184 237.00
78.8836 216.00
78.9488 232.00
79.014 206.00
79.0792 215.00
79.1444 205.00
79.2096 225.00
79.2748 194.00
79.34 229.00
79.4052 226.00
79.4704 193.00
79.5356 232.00
79.6008 220.00
79.666 218.00
79.7312 239.00
79.7964 232.00
79.8616 263.00
79.9268 244.00
79.992 211.00
80.0572 221.00
80.1224 219.00
80.1876 231.00
80.2528 231.00
80.318 205.00
80.3832 229.00
80.4484 201.00
80.5136 208.00
80.5788 229.00
80.644 236.00
80.7092 238.00
80.7744 220.00
80.8396 202.00
80.9048 232.00
80.9699 240.00
81.0351 224.00
81.1003 208.00
81.1655 210.00
81.2307 238.00
81.2959 219.00
81.3611 220.00
81.4263 247.00
81.4915 236.00
81.5567 211.00
81.6219 224.00
81.6871 257.00
81.7523 221.00
81.8175 223.00
81.8827 236.00
81.9479 195.00
82.0131 221.00
82.0783 228.00
82.1435 233.00
82.2087 260.00
82.2739 239.00
82.3391 198.00
82.4043 232.00
82.4695 207.00
82.5347 213.00
82.5999 237.00
82.6651 231.00
82.7303 235.00
82.7955 259.00
82.8607 221.00
82.9259 273.00
82.9911 239.00
83.0563 194.00
83.1215 246.00
83.1867 266.00
83.2519 227.00
83.3171 209.00
83.3823 232.00
83.4475 230.00
83.5127 194.00
83.5779 234.00
83.6431 226.00
83.7083 205.00
83.7735 229.00
83.8387 220.00
83.9039 238.00
83.9691 196.00
84.0343 228.00
84.0995 204.00
84.1647 214.00
84.2299 205.00
84.2951 239.00
84.3603 201.00
84.4255 241.00
84.4907 209.00
84.5559 212.00
84.6211 222.00
84.6863 176.00
84.7515 205.00
84.8167 207.00
84.8819 212.00
84.9471 235.00
85.0123 241.00
85.0775 208.00
85.1427 232.00
85.2079 212.00
85.2731 195.00
85.3383 248.00
85.4035 214.00
85.4687 219.00
85.5339 230.00
85.5991 195.00
85.6643 245.00
85.7295 193.00
85.7946 189.00
85.8598 219.00
85.925 186.00
85.9903 212.00
86.0554 190.00
86.1206 222.00
86.1858 199.00
86.251 207.00
86.3162 183.00
86.3814 225.00
86.4466 205.00
86.5118 224.00
86.577 216.00
86.6422 213.00
86.7074 204.00
86.7726 248.00
86.8378 211.00
86.903 219.00
86.9682 203.00
87.0334 199.00
87.0986 227.00
87.1638 209.00
87.229 200.00
87.2942 220.00
87.3594 199.00
87.4246 210.00
87.4898 212.00
87.555 228.00
87.6202 193.00
87.6854 189.00
87.7506 222.00
87.8158 198.00
87.881 179.00
87.9462 209.00
88.0114 194.00
88.0766 200.00
88.1418 230.00
88.207 175.00
88.2722 207.00
88.3374 209.00
88.4026 185.00
88.4678 202.00
88.533 187.00
88.5982 204.00
88.6634 191.00
88.7286 209.00
88.7938 203.00
88.859 194.00
88.9242 180.00
88.9894 207.00
89.0546 178.00
89.1198 205.00
89.185 198.00
89.2502 205.00
89.3154 178.00
89.3806 179.00
89.4458 158.00
89.511 193.00
89.5762 176.00
89.6414 200.00
89.7066 196.00
89.7718 209.00
89.837 217.00
89.9022 205.00
89.9674 197.00
90.0326 222.00
90.0978 163.00
90.163 190.00
90.2282 201.00
90.2934 174.00
90.3586 190.00
90.4238 182.00
90.489 180.00
90.5542 173.00
90.6193 200.00
90.6845 194.00
90.7497 176.00
90.8149 178.00
90.8801 207.00
90.9453 200.00
91.0105 183.00
91.0757 170.00
91.1409 212.00
91.2061 176.00
91.2713 200.00
91.3365 197.00
91.4017 210.00
91.4669 176.00
91.5321 194.00
91.5973 174.00
91.6625 184.00
91.7277 210.00
91.7929 162.00
91.8581 183.00
91.9233 175.00
91.9885 191.00
92.0537 181.00
92.1189 183.00
92.1841 183.00
92.2493 190.00
92.3145 208.00
92.3797 175.00
92.4449 193.00
92.5101 182.00
92.5753 165.00
92.6405 171.00
92.7057 165.00
92.7709 162.00
92.8361 191.00
92.9013 167.00
92.9665 204.00
93.0317 183.00
93.0969 219.00
93.1621 243.00
93.2273 195.00
93.2925 202.00
93.3577 179.00
93.4229 181.00
93.4881 177.00
93.5533 217.00
93.6185 175.00
93.6837 154.00
93.7489 189.00
93.8141 167.00
93.8793 207.00
93.9445 188.00
94.0097 169.00
94.0749 214.00
94.1401 173.00
94.2053 184.00
94.2705 158.00
94.3357 161.00
94.4009 180.00
94.4661 185.00
94.5313 187.00
94.5965 180.00
94.6617 191.00
94.7269 200.00
94.7921 170.00
94.8573 207.00
94.9225 190.00
94.9877 192.00
95.0529 155.00
95.1181 194.00
95.1833 200.00
95.2485 168.00
95.3137 189.00
95.3789 154.00
95.444 206.00
95.5092 229.00
95.5744 186.00
95.6396 212.00
95.7048 194.00
95.77 194.00
95.8352 211.00
95.9004 168.00
95.9656 196.00
96.0308 182.00
96.096 190.00
96.1612 195.00
96.2264 200.00
96.2916 204.00
96.3568 169.00
96.422 206.00
96.4872 190.00
96.5524 171.00
96.6176 204.00
96.6828 170.00
96.748 178.00
96.8132 188.00
96.8784 185.00
96.9436 172.00
97.0088 182.00
97.074 171.00
97.1392 166.00
97.2044 211.00
97.2696 177.00
97.3348 175.00
97.4 180.00
97.4652 183.00
97.5304 186.00
97.5956 171.00
97.6608 168.00
97.726 189.00
97.7912 183.00
97.8564 191.00
97.9216 198.00
97.9868 178.00
98.052 165.00
98.1172 177.00
98.1824 177.00
98.2476 214.00
98.3128 207.00
98.378 197.00
98.4432 169.00
98.5084 179.00
98.5736 182.00
98.6388 176.00
98.704 170.00
98.7692 198.00
98.8344 179.00
98.8996 190.00
98.9648 187.00
99.03 169.00
99.0952 187.00
99.1604 197.00
99.2256 174.00
99.2908 169.00
99.356 182.00
99.4212 171.00
99.4864 148.00
99.5516 196.00
99.6168 192.00
99.682 181.00
99.7472 194.00
99.8124 173.00
99.8776 181.00
99.9428 192.00
100.008 196.00
100.073 182.00
100.095 192.00