File: data/xrd_creation/results/Na_307.xy
9.903433 2466.00
9.968632 2612.00
10.0338 2530.00
10.099 2420.00
10.1642 2484.00
10.2294 2403.00
10.2946 2417.00
10.3598 2383.00
10.425 2406.00
10.4902 2339.00
10.5554 2261.00
10.6206 2328.00
10.6858 2288.00
10.751 2312.00
10.8162 2406.00
10.8814 2314.00
10.9466 2266.00
11.0118 2271.00
11.077 2190.00
11.1422 2319.00
11.2074 2239.00
11.2726 2275.00
11.3378 2154.00
11.403 2104.00
11.4682 2180.00
11.5334 2334.00
11.5986 2472.00
11.6638 2551.00
11.729 2726.00
11.7942 3016.00
11.8594 3279.00
11.9246 3736.00
11.9898 4420.00
12.055 5704.00
12.1202 6387.00
12.1854 5563.00
12.2506 3656.00
12.3158 2454.00
12.381 2116.00
12.4462 2047.00
12.5114 2051.00
12.5766 1997.00
12.6418 2062.00
12.707 2024.00
12.7722 1880.00
12.8374 1808.00
12.9026 1835.00
12.9678 1826.00
13.033 1794.00
13.0982 1794.00
13.1634 1794.00
13.2286 1780.00
13.2938 1871.00
13.359 1737.00
13.4242 1818.00
13.4894 1811.00
13.5546 1824.00
13.6198 1770.00
13.685 1658.00
13.7502 1784.00
13.8154 1657.00
13.8805 1711.00
13.9457 1644.00
14.0109 1722.00
14.0761 1654.00
14.1413 1639.00
14.2065 1603.00
14.2717 1665.00
14.3369 1608.00
14.4021 1630.00
14.4673 1658.00
14.5325 1662.00
14.5977 1590.00
14.6629 1636.00
14.7281 1588.00
14.7933 1637.00
14.8585 1566.00
14.9237 1549.00
14.9889 1576.00
15.0541 1554.00
15.1193 1543.00
15.1845 1544.00
15.2497 1552.00
15.3149 1560.00
15.3801 1584.00
15.4453 1520.00
15.5105 1515.00
15.5757 1495.00
15.6409 1500.00
15.7061 1506.00
15.7713 1402.00
15.8365 1547.00
15.9017 1511.00
15.9669 1429.00
16.0321 1523.00
16.0973 1514.00
16.1625 1478.00
16.2277 1420.00
16.2929 1501.00
16.3581 1422.00
16.4233 1464.00
16.4885 1368.00
16.5537 1406.00
16.6189 1396.00
16.6841 1442.00
16.7493 1425.00
16.8145 1499.00
16.8797 1391.00
16.9449 1433.00
17.0101 1513.00
17.0753 1557.00
17.1405 1479.00
17.2057 1445.00
17.2709 1453.00
17.3361 1496.00
17.4013 1467.00
17.4665 1405.00
17.5317 1546.00
17.5969 1439.00
17.6621 1475.00
17.7273 1408.00
17.7925 1433.00
17.8577 1333.00
17.9229 1392.00
17.9881 1354.00
18.0533 1369.00
18.1185 1367.00
18.1837 1340.00
18.2489 1228.00
18.3141 1339.00
18.3793 1363.00
18.4445 1444.00
18.5097 1475.00
18.5749 1550.00
18.6401 1617.00
18.7052 1905.00
18.7704 2282.00
18.8356 2761.00
18.9008 2382.00
18.966 1529.00
19.0312 1321.00
19.0964 1303.00
19.1616 1328.00
19.2268 1406.00
19.292 1412.00
19.3572 1320.00
19.4224 1334.00
19.4876 1245.00
19.5528 1261.00
19.618 1282.00
19.6832 1289.00
19.7484 1280.00
19.8136 1285.00
19.8788 1243.00
19.944 1304.00
20.0092 1302.00
20.0744 1354.00
20.1396 1323.00
20.2048 1400.00
20.27 1594.00
20.3352 1929.00
20.4004 2148.00
20.4656 2095.00
20.5308 1853.00
20.596 1909.00
20.6612 2342.00
20.7264 2803.00
20.7916 3077.00
20.8568 3083.00
20.922 2749.00
20.9872 2110.00
21.0524 1714.00
21.1176 1492.00
21.1828 1432.00
21.248 1507.00
21.3132 1544.00
21.3784 1720.00
21.4436 2128.00
21.5088 2548.00
21.574 3222.00
21.6392 3660.00
21.7044 3030.00
21.7696 2528.00
21.8348 2066.00
21.9 2064.00
21.9652 2174.00
22.0304 2027.00
22.0956 1824.00
22.1608 1549.00
22.226 1378.00
22.2912 1266.00
22.3564 1305.00
22.4216 1207.00
22.4868 1236.00
22.552 1302.00
22.6172 1270.00
22.6824 1216.00
22.7476 1234.00
22.8128 1279.00
22.878 1210.00
22.9432 1233.00
23.0084 1286.00
23.0736 1280.00
23.1388 1359.00
23.204 1320.00
23.2692 1312.00
23.3344 1317.00
23.3996 1343.00
23.4647 1314.00
23.5299 1253.00
23.5951 1219.00
23.6603 1235.00
23.7255 1283.00
23.7907 1338.00
23.8559 1532.00
23.9211 1634.00
23.9863 1991.00
24.0515 2020.00
24.1167 1932.00
24.1819 1880.00
24.2471 1846.00
24.3123 1627.00
24.3775 1692.00
24.4427 1576.00
24.5079 1726.00
24.5731 1844.00
24.6383 2177.00
24.7035 2465.00
24.7687 2470.00
24.8339 2336.00
24.8991 2129.00
24.9643 2250.00
25.0295 3068.00
25.0947 3664.00
25.1599 2903.00
25.2251 1655.00
25.2903 1208.00
25.3555 1197.00
25.4207 1083.00
25.4859 1083.00
25.5511 1057.00
25.6163 1061.00
25.6815 1048.00
25.7467 1089.00
25.8119 1070.00
25.8771 1025.00
25.9423 1052.00
26.0075 1052.00
26.0727 1044.00
26.1379 1092.00
26.2031 1055.00
26.2683 1026.00
26.3335 1012.00
26.3987 1149.00
26.4639 1070.00
26.5291 1111.00
26.5943 1237.00
26.6595 1395.00
26.7247 1691.00
26.7899 1481.00
26.8551 1126.00
26.9203 1020.00
26.9855 1104.00
27.0507 1147.00
27.1159 1154.00
27.1811 1169.00
27.2463 1368.00
27.3115 1492.00
27.3767 1788.00
27.4419 2220.00
27.5071 2403.00
27.5723 2518.00
27.6375 2617.00
27.7027 2553.00
27.7679 2063.00
27.8331 1884.00
27.8983 1833.00
27.9635 1816.00
28.0287 1791.00
28.0939 1675.00
28.1591 1493.00
28.2243 1476.00
28.2894 1491.00
28.3546 1401.00
28.4198 1327.00
28.485 1406.00
28.5502 1519.00
28.6154 1439.00
28.6806 1218.00
28.7458 1198.00
28.811 1114.00
28.8762 1026.00
28.9414 1008.00
29.0066 963.00
29.0718 1025.00
29.137 1198.00
29.2022 1311.00
29.2674 1072.00
29.3326 974.00
29.3978 948.00
29.463 1007.00
29.5282 1024.00
29.5934 1059.00
29.6586 971.00
29.7238 1057.00
29.789 1123.00
29.8542 1196.00
29.9194 1393.00
29.9846 1581.00
30.0498 1928.00
30.115 2090.00
30.1802 2213.00
30.2454 2134.00
30.3106 1858.00
30.3758 1624.00
30.441 1539.00
30.5062 1353.00
30.5714 1238.00
30.6366 1418.00
30.7018 1511.00
30.767 1674.00
30.8322 1729.00
30.8974 1596.00
30.9626 1404.00
31.0278 1351.00
31.093 1254.00
31.1582 1464.00
31.2234 1411.00
31.2886 1454.00
31.3538 1651.00
31.419 1872.00
31.4842 1654.00
31.5494 1525.00
31.6146 1651.00
31.6798 1866.00
31.745 1923.00
31.8102 2016.00
31.8754 2319.00
31.9406 2321.00
32.0058 2306.00
32.071 2242.00
32.1362 2689.00
32.2014 3170.00
32.2666 3760.00
32.3318 4139.00
32.397 4100.00
32.4622 3446.00
32.5274 2924.00
32.5926 2775.00
32.6578 2568.00
32.723 2534.00
32.7882 2309.00
32.8534 2199.00
32.9186 2261.00
32.9838 2389.00
33.0489 2339.00
33.1141 2110.00
33.1793 2030.00
33.2445 2223.00
33.3097 2360.00
33.3749 2486.00
33.4401 2423.00
33.5053 2086.00
33.5705 1655.00
33.6357 1183.00
33.7009 1161.00
33.7661 1174.00
33.8313 1314.00
33.8965 1336.00
33.9617 1301.00
34.0269 1375.00
34.0921 1406.00
34.1573 1285.00
34.2225 1141.00
34.2877 1055.00
34.3529 948.00
34.4181 938.00
34.4833 976.00
34.5485 943.00
34.6137 857.00
34.6789 933.00
34.7441 915.00
34.8093 945.00
34.8745 1018.00
34.9397 1037.00
35.0049 979.00
35.0701 1029.00
35.1353 984.00
35.2005 1023.00
35.2657 1028.00
35.3309 898.00
35.3961 861.00
35.4613 893.00
35.5265 927.00
35.5917 926.00
35.6569 924.00
35.7221 931.00
35.7873 943.00
35.8525 992.00
35.9177 994.00
35.9829 1156.00
36.0481 1259.00
36.1133 1394.00
36.1785 1472.00
36.2437 1377.00
36.3089 1350.00
36.3741 1381.00
36.4393 1449.00
36.5045 1598.00
36.5697 1773.00
36.6349 2016.00
36.7001 2506.00
36.7653 2429.00
36.8305 2137.00
36.8957 1776.00
36.9609 1618.00
37.0261 1530.00
37.0913 1487.00
37.1565 1432.00
37.2217 1321.00
37.2869 1227.00
37.3521 1171.00
37.4173 1132.00
37.4825 1167.00
37.5477 1270.00
37.6129 1324.00
37.6781 1349.00
37.7433 1522.00
37.8085 1620.00
37.8736 1596.00
37.9388 1506.00
38.004 1233.00
38.0692 1067.00
38.1344 1027.00
38.1996 879.00
38.2648 874.00
38.33 903.00
38.3952 844.00
38.4604 854.00
38.5256 885.00
38.5908 944.00
38.656 969.00
38.7212 1053.00
38.7864 1132.00
38.8516 1062.00
38.9168 990.00
38.982 865.00
39.0472 809.00
39.1124 816.00
39.1776 749.00
39.2428 805.00
39.308 803.00
39.3732 840.00
39.4384 894.00
39.5036 829.00
39.5688 866.00
39.634 791.00
39.6992 735.00
39.7644 793.00
39.8296 807.00
39.8948 820.00
39.96 866.00
40.0252 876.00
40.0904 952.00
40.1556 1096.00
40.2208 1257.00
40.286 1251.00
40.3512 1206.00
40.4164 1137.00
40.4816 1092.00
40.5468 1027.00
40.612 1036.00
40.6772 954.00
40.7424 922.00
40.8076 908.00
40.8728 899.00
40.938 909.00
41.0032 869.00
41.0684 839.00
41.1336 846.00
41.1988 886.00
41.264 854.00
41.3292 801.00
41.3944 905.00
41.4596 866.00
41.5248 914.00
41.59 872.00
41.6552 908.00
41.7204 939.00
41.7856 887.00
41.8508 833.00
41.916 834.00
41.9812 868.00
42.0464 872.00
42.1116 889.00
42.1768 902.00
42.242 968.00
42.3072 948.00
42.3724 944.00
42.4376 974.00
42.5028 883.00
42.568 846.00
42.6332 813.00
42.6983 839.00
42.7635 895.00
42.8287 874.00
42.8939 906.00
42.9591 895.00
43.0243 814.00
43.0895 771.00
43.1547 876.00
43.2199 804.00
43.2851 748.00
43.3503 811.00
43.4155 906.00
43.4807 905.00
43.5459 965.00
43.6111 1025.00
43.6763 1043.00
43.7415 1140.00
43.8067 1134.00
43.8719 1089.00
43.9371 1125.00
44.0023 1079.00
44.0675 1103.00
44.1327 1001.00
44.1979 1031.00
44.2631 1034.00
44.3283 1130.00
44.3935 1289.00
44.4587 1341.00
44.5239 1258.00
44.5891 1138.00
44.6543 1066.00
44.7195 981.00
44.7847 934.00
44.8499 982.00
44.9151 992.00
44.9803 931.00
45.0455 974.00
45.1107 917.00
45.1759 920.00
45.2411 955.00
45.3063 890.00
45.3715 849.00
45.4367 901.00
45.5019 938.00
45.5671 987.00
45.6323 995.00
45.6975 1063.00
45.7627 1152.00
45.8279 1296.00
45.8931 1219.00
45.9583 1215.00
46.0235 1205.00
46.0887 1104.00
46.1539 995.00
46.2191 971.00
46.2843 900.00
46.3495 929.00
46.4147 906.00
46.4799 868.00
46.5451 820.00
46.6103 763.00
46.6755 772.00
46.7407 817.00
46.8059 848.00
46.8711 854.00
46.9363 901.00
47.0015 938.00
47.0667 904.00
47.1319 850.00
47.1971 865.00
47.2623 846.00
47.3275 820.00
47.3927 850.00
47.4579 936.00
47.523 975.00
47.5882 919.00
47.6534 969.00
47.7186 895.00
47.7838 801.00
47.849 762.00
47.9142 759.00
47.9794 760.00
48.0446 718.00
48.1098 762.00
48.175 768.00
48.2402 798.00
48.3054 866.00
48.3706 864.00
48.4358 937.00
48.501 1050.00
48.5662 1162.00
48.6314 1414.00
48.6966 1633.00
48.7618 1661.00
48.827 1641.00
48.8922 1530.00
48.9574 1388.00
49.0226 1448.00
49.0878 1427.00
49.153 1521.00
49.2182 1539.00
49.2834 1525.00
49.3486 1441.00
49.4138 1265.00
49.479 1184.00
49.5442 1140.00
49.6094 1030.00
49.6746 994.00
49.7398 1049.00
49.805 1074.00
49.8702 996.00
49.9354 1060.00
50.0006 1078.00
50.0658 1107.00
50.131 1090.00
50.1962 1133.00
50.2614 1175.00
50.3266 1228.00
50.3918 1248.00
50.457 1143.00
50.5222 1142.00
50.5874 1046.00
50.6526 1000.00
50.7178 954.00
50.783 979.00
50.8482 980.00
50.9134 950.00
50.9786 977.00
51.0438 1081.00
51.109 1136.00
51.1742 1131.00
51.2394 1076.00
51.3046 910.00
51.3698 882.00
51.435 842.00
51.5002 815.00
51.5654 854.00
51.6306 823.00
51.6958 841.00
51.761 780.00
51.8262 857.00
51.8914 802.00
51.9566 864.00
52.0218 897.00
52.087 969.00
52.1522 1080.00
52.2174 1081.00
52.2826 1170.00
52.3477 1187.00
52.4129 1072.00
52.4781 1054.00
52.5433 1001.00
52.6085 924.00
52.6737 918.00
52.7389 904.00
52.8041 942.00
52.8693 957.00
52.9345 966.00
52.9997 905.00
53.0649 927.00
53.1301 968.00
53.1953 973.00
53.2605 976.00
53.3257 970.00
53.3909 1081.00
53.4561 1148.00
53.5213 1287.00
53.5865 1375.00
53.6517 1309.00
53.7169 1395.00
53.7821 1329.00
53.8473 1349.00
53.9125 1323.00
53.9777 1328.00
54.0429 1207.00
54.1081 1230.00
54.1733 1151.00
54.2385 1228.00
54.3037 1174.00
54.3689 1160.00
54.4341 1193.00
54.4993 1278.00
54.5645 1410.00
54.6297 1529.00
54.6949 1503.00
54.7601 1582.00
54.8253 1653.00
54.8905 1819.00
54.9557 1784.00
55.0209 1700.00
55.0861 1540.00
55.1513 1391.00
55.2165 1384.00
55.2817 1267.00
55.3469 1255.00
55.4121 1243.00
55.4773 1205.00
55.5425 1284.00
55.6077 1269.00
55.6729 1314.00
55.7381 1316.00
55.8033 1389.00
55.8685 1364.00
55.9337 1381.00
55.9989 1443.00
56.0641 1454.00
56.1293 1558.00
56.1945 1565.00
56.2597 1718.00
56.3249 1912.00
56.3901 1839.00
56.4553 1913.00
56.5205 1929.00
56.5857 1910.00
56.6509 2012.00
56.7161 1985.00
56.7813 1872.00
56.8465 1663.00
56.9117 1606.00
56.9769 1429.00
57.042 1214.00
57.1073 1136.00
57.1724 1061.00
57.2376 944.00
57.3028 899.00
57.368 930.00
57.4332 955.00
57.4984 1015.00
57.5636 1030.00
57.6288 1119.00
57.694 1097.00
57.7592 1004.00
57.8244 1089.00
57.8896 1069.00
57.9548 1180.00
58.02 1080.00
58.0852 1161.00
58.1504 1143.00
58.2156 1145.00
58.2808 1119.00
58.346 1123.00
58.4112 1058.00
58.4764 1038.00
58.5416 1019.00
58.6068 976.00
58.672 1020.00
58.7372 964.00
58.8024 965.00
58.8676 1031.00
58.9328 1071.00
58.998 1140.00
59.0632 1202.00
59.1284 1191.00
59.1936 1302.00
59.2588 1274.00
59.324 1287.00
59.3892 1286.00
59.4544 1372.00
59.5196 1218.00
59.5848 1213.00
59.65 1155.00
59.7152 1135.00
59.7804 1066.00
59.8456 1060.00
59.9108 1089.00
59.976 913.00
60.0412 1035.00
60.1064 955.00
60.1716 987.00
60.2368 1062.00
60.302 1222.00
60.3672 1207.00
60.4324 1241.00
60.4976 1194.00
60.5628 1168.00
60.628 1130.00
60.6932 1060.00
60.7584 1095.00
60.8236 1069.00
60.8888 1083.00
60.954 1051.00
61.0192 1022.00
61.0844 1016.00
61.1496 1006.00
61.2148 928.00
61.28 974.00
61.3452 959.00
61.4104 964.00
61.4756 1020.00
61.5408 1046.00
61.606 1044.00
61.6712 1051.00
61.7364 1043.00
61.8016 1139.00
61.8667 1185.00
61.932 1231.00
61.9971 1233.00
62.0623 1316.00
62.1275 1251.00
62.1927 1258.00
62.2579 1166.00
62.3231 1190.00
62.3883 1134.00
62.4535 1084.00
62.5187 1106.00
62.5839 1030.00
62.6491 1005.00
62.7143 1032.00
62.7795 981.00
62.8447 901.00
62.9099 930.00
62.9751 839.00
63.0403 896.00
63.1055 924.00
63.1707 939.00
63.2359 851.00
63.3011 823.00
63.3663 848.00
63.4315 857.00
63.4967 780.00
63.5619 765.00
63.6271 778.00
63.6923 847.00
63.7575 805.00
63.8227 816.00
63.8879 773.00
63.9531 820.00
64.0183 760.00
64.0835 760.00
64.1487 761.00
64.2139 845.00
64.2791 772.00
64.3443 830.00
64.4095 827.00
64.4747 871.00
64.5399 863.00
64.6051 853.00
64.6703 889.00
64.7355 887.00
64.8007 876.00
64.8659 861.00
64.9311 921.00
64.9963 975.00
65.0615 952.00
65.1267 910.00
65.1919 892.00
65.2571 864.00
65.3223 902.00
65.3875 886.00
65.4527 898.00
65.5179 891.00
65.5831 891.00
65.6483 900.00
65.7135 876.00
65.7787 877.00
65.8439 850.00
65.9091 898.00
65.9743 904.00
66.0395 832.00
66.1047 833.00
66.1699 887.00
66.2351 904.00
66.3003 886.00
66.3655 935.00
66.4307 946.00
66.4959 869.00
66.561 867.00
66.6263 849.00
66.6915 863.00
66.7566 897.00
66.8218 883.00
66.887 905.00
66.9522 917.00
67.0174 950.00
67.0826 915.00
67.1478 920.00
67.213 981.00
67.2782 921.00
67.3434 942.00
67.4086 941.00
67.4738 958.00
67.539 951.00
67.6042 958.00
67.6694 910.00
67.7346 926.00
67.7998 908.00
67.865 863.00
67.9302 875.00
67.9954 888.00
68.0606 804.00
68.1258 845.00
68.191 828.00
68.2562 838.00
68.3214 866.00
68.3866 853.00
68.4518 853.00
68.517 896.00
68.5822 908.00
68.6474 968.00
68.7126 951.00
68.7778 995.00
68.843 961.00
68.9082 1042.00
68.9734 1040.00
69.0386 1003.00
69.1038 961.00
69.169 949.00
69.2342 907.00
69.2994 918.00
69.3646 898.00
69.4298 883.00
69.495 931.00
69.5602 899.00
69.6254 897.00
69.6906 958.00
69.7558 977.00
69.821 1099.00
69.8862 1050.00
69.9514 1120.00
70.0166 1038.00
70.0818 1115.00
70.147 1088.00
70.2122 1101.00
70.2774 1042.00
70.3426 1050.00
70.4078 989.00
70.473 1028.00
70.5382 1021.00
70.6034 1000.00
70.6686 1012.00
70.7338 997.00
70.799 974.00
70.8642 923.00
70.9294 917.00
70.9946 770.00
71.0598 878.00
71.125 861.00
71.1902 820.00
71.2554 843.00
71.3205 855.00
71.3858 955.00
71.451 872.00
71.5162 866.00
71.5813 845.00
71.6465 854.00
71.7117 828.00
71.7769 838.00
71.8421 875.00
71.9073 831.00
71.9725 790.00
72.0377 858.00
72.1029 845.00
72.1681 822.00
72.2333 779.00
72.2985 852.00
72.3637 816.00
72.4289 909.00
72.4941 965.00
72.5593 961.00
72.6245 896.00
72.6897 962.00
72.7549 880.00
72.8201 958.00
72.8853 951.00
72.9505 921.00
73.0157 894.00
73.0809 870.00
73.1461 944.00
73.2113 907.00
73.2765 850.00
73.3417 936.00
73.4069 882.00
73.4721 887.00
73.5373 907.00
73.6025 897.00
73.6677 908.00
73.7329 889.00
73.7981 939.00
73.8633 873.00
73.9285 915.00
73.9937 881.00
74.0589 864.00
74.1241 833.00
74.1893 882.00
74.2545 807.00
74.3197 726.00
74.3849 794.00
74.4501 777.00
74.5153 761.00
74.5805 802.00
74.6457 792.00
74.7109 831.00
74.7761 833.00
74.8413 816.00
74.9065 821.00
74.9717 847.00
75.0369 859.00
75.1021 787.00
75.1673 800.00
75.2325 800.00
75.2977 789.00
75.3629 797.00
75.4281 776.00
75.4933 777.00
75.5585 810.00
75.6237 788.00
75.6889 795.00
75.7541 831.00
75.8193 796.00
75.8845 780.00
75.9497 780.00
76.0149 753.00
76.0801 795.00
76.1452 812.00
76.2104 772.00
76.2756 753.00
76.3409 736.00
76.406 811.00
76.4712 790.00
76.5364 812.00
76.6016 818.00
76.6668 798.00
76.732 822.00
76.7972 798.00
76.8624 805.00
76.9276 802.00
76.9928 753.00
77.058 816.00
77.1232 793.00
77.1884 811.00
77.2536 870.00
77.3188 843.00
77.384 792.00
77.4492 731.00
77.5144 797.00
77.5796 790.00
77.6448 744.00
77.71 775.00
77.7752 776.00
77.8404 831.00
77.9056 847.00
77.9708 816.00
78.036 820.00
78.1012 823.00
78.1664 824.00
78.2316 823.00
78.2968 783.00
78.362 773.00
78.4272 835.00
78.4924 782.00
78.5576 835.00
78.6228 752.00
78.688 769.00
78.7532 764.00
78.8184 816.00
78.8836 761.00
78.9488 784.00
79.014 743.00
79.0792 789.00
79.1444 732.00
79.2096 764.00
79.2748 850.00
79.34 764.00
79.4052 801.00
79.4704 807.00
79.5356 783.00
79.6008 810.00
79.666 830.00
79.7312 829.00
79.7964 837.00
79.8616 848.00
79.9268 835.00
79.992 893.00
80.0572 906.00
80.1224 913.00
80.1876 892.00
80.2528 866.00
80.318 937.00
80.3832 957.00
80.4484 1005.00
80.5136 937.00
80.5788 938.00
80.644 947.00
80.7092 895.00
80.7744 902.00
80.8396 819.00
80.9048 941.00
80.9699 950.00
81.0351 832.00
81.1003 814.00
81.1655 854.00
81.2307 837.00
81.2959 842.00
81.3611 816.00
81.4263 775.00
81.4915 824.00
81.5567 772.00
81.6219 779.00
81.6871 773.00
81.7523 803.00
81.8175 804.00
81.8827 797.00
81.9479 771.00
82.0131 777.00
82.0783 762.00
82.1435 804.00
82.2087 811.00
82.2739 800.00
82.3391 814.00
82.4043 817.00
82.4695 829.00
82.5347 821.00
82.5999 867.00
82.6651 898.00
82.7303 871.00
82.7955 898.00
82.8607 857.00
82.9259 910.00
82.9911 842.00
83.0563 834.00
83.1215 883.00
83.1867 796.00
83.2519 821.00
83.3171 831.00
83.3823 861.00
83.4475 842.00
83.5127 801.00
83.5779 801.00
83.6431 801.00
83.7083 838.00
83.7735 808.00
83.8387 866.00
83.9039 812.00
83.9691 880.00
84.0343 872.00
84.0995 875.00
84.1647 860.00
84.2299 875.00
84.2951 920.00
84.3603 907.00
84.4255 903.00
84.4907 894.00
84.5559 949.00
84.6211 938.00
84.6863 972.00
84.7515 1030.00
84.8167 1061.00
84.8819 1085.00
84.9471 1120.00
85.0123 1158.00
85.0775 1093.00
85.1427 1106.00
85.2079 1060.00
85.2731 1030.00
85.3383 1049.00
85.4035 985.00
85.4687 967.00
85.5339 991.00
85.5991 967.00
85.6643 937.00
85.7295 967.00
85.7946 854.00
85.8598 927.00
85.925 880.00
85.9903 922.00
86.0554 939.00
86.1206 906.00
86.1858 806.00
86.251 889.00
86.3162 902.00
86.3814 870.00
86.4466 908.00
86.5118 926.00
86.577 852.00
86.6422 914.00
86.7074 879.00
86.7726 863.00
86.8378 822.00
86.903 842.00
86.9682 827.00
87.0334 875.00
87.0986 902.00
87.1638 898.00
87.229 933.00
87.2942 932.00
87.3594 964.00
87.4246 1036.00
87.4898 1006.00
87.555 1042.00
87.6202 1019.00
87.6854 1087.00
87.7506 1039.00
87.8158 1014.00
87.881 968.00
87.9462 930.00
88.0114 996.00
88.0766 889.00
88.1418 943.00
88.207 896.00
88.2722 930.00
88.3374 921.00
88.4026 959.00
88.4678 955.00
88.533 923.00
88.5982 949.00
88.6634 918.00
88.7286 923.00
88.7938 906.00
88.859 920.00
88.9242 895.00
88.9894 891.00
89.0546 876.00
89.1198 870.00
89.185 886.00
89.2502 877.00
89.3154 869.00
89.3806 934.00
89.4458 900.00
89.511 872.00
89.5762 926.00
89.6414 941.00
89.7066 908.00
89.7718 917.00
89.837 903.00
89.9022 908.00
89.9674 900.00
90.0326 922.00
90.0978 859.00
90.163 858.00
90.2282 919.00
90.2934 920.00
90.3586 915.00
90.4238 944.00
90.489 960.00
90.5542 942.00
90.6193 901.00
90.6845 955.00
90.7497 871.00
90.8149 927.00
90.8801 931.00
90.9453 920.00
91.0105 864.00
91.0757 887.00
91.1409 871.00
91.2061 941.00
91.2713 966.00
91.3365 829.00
91.4017 850.00
91.4669 883.00
91.5321 889.00
91.5973 872.00
91.6625 814.00
91.7277 892.00
91.7929 823.00
91.8581 831.00
91.9233 862.00
91.9885 843.00
92.0537 793.00
92.1189 874.00
92.1841 832.00
92.2493 907.00
92.3145 842.00
92.3797 832.00
92.4449 870.00
92.5101 823.00
92.5753 814.00
92.6405 853.00
92.7057 765.00
92.7709 888.00
92.8361 816.00
92.9013 807.00
92.9665 761.00
93.0317 794.00
93.0969 800.00
93.1621 870.00
93.2273 836.00
93.2925 856.00
93.3577 849.00
93.4229 799.00
93.4881 839.00
93.5533 821.00
93.6185 808.00
93.6837 831.00
93.7489 809.00
93.8141 877.00
93.8793 849.00
93.9445 864.00
94.0097 820.00
94.0749 829.00
94.1401 840.00
94.2053 845.00
94.2705 877.00
94.3357 808.00
94.4009 899.00
94.4661 819.00
94.5313 822.00
94.5965 862.00
94.6617 805.00
94.7269 863.00
94.7921 893.00
94.8573 949.00
94.9225 837.00
94.9877 867.00
95.0529 867.00
95.1181 869.00
95.1833 886.00
95.2485 898.00
95.3137 911.00
95.3789 909.00
95.444 865.00
95.5092 880.00
95.5744 916.00
95.6396 859.00
95.7048 902.00
95.77 889.00
95.8352 865.00
95.9004 883.00
95.9656 881.00
96.0308 824.00
96.096 849.00
96.1612 813.00
96.2264 843.00
96.2916 743.00
96.3568 769.00
96.422 815.00
96.4872 809.00
96.5524 785.00
96.6176 824.00
96.6828 801.00
96.748 861.00
96.8132 872.00
96.8784 882.00
96.9436 836.00
97.0088 911.00
97.074 861.00
97.1392 809.00
97.2044 851.00
97.2696 780.00
97.3348 801.00
97.4 806.00
97.4652 785.00
97.5304 854.00
97.5956 850.00
97.6608 844.00
97.726 821.00
97.7912 887.00
97.8564 834.00
97.9216 813.00
97.9868 834.00
98.052 864.00
98.1172 888.00
98.1824 869.00
98.2476 854.00
98.3128 873.00
98.378 892.00
98.4432 879.00
98.5084 886.00
98.5736 906.00
98.6388 811.00
98.704 856.00
98.7692 841.00
98.8344 847.00
98.8996 767.00
98.9648 889.00
99.03 807.00
99.0952 831.00
99.1604 830.00
99.2256 832.00
99.2908 796.00
99.356 889.00
99.4212 866.00
99.4864 846.00
99.5516 844.00
99.6168 886.00
99.682 895.00
99.7472 835.00
99.8124 912.00
99.8776 844.00
99.9428 904.00
100.008 838.00
100.073 882.00
100.095 896.00