File: data/xrd_creation/results/Na_35.xy
9.903433 2561.00
9.968632 2564.00
10.0338 2526.00
10.099 2586.00
10.1642 2481.00
10.2294 2468.00
10.2946 2399.00
10.3598 2396.00
10.425 2399.00
10.4902 2257.00
10.5554 2357.00
10.6206 2344.00
10.6858 2256.00
10.751 2306.00
10.8162 2243.00
10.8814 2270.00
10.9466 2164.00
11.0118 2179.00
11.077 2189.00
11.1422 2206.00
11.2074 2155.00
11.2726 2054.00
11.3378 2134.00
11.403 2069.00
11.4682 2087.00
11.5334 2051.00
11.5986 2062.00
11.6638 1996.00
11.729 1984.00
11.7942 1979.00
11.8594 1926.00
11.9246 1931.00
11.9898 1923.00
12.055 1912.00
12.1202 1875.00
12.1854 1821.00
12.2506 1880.00
12.3158 1929.00
12.381 1860.00
12.4462 1857.00
12.5114 1729.00
12.5766 1744.00
12.6418 1775.00
12.707 1726.00
12.7722 1717.00
12.8374 1714.00
12.9026 1700.00
12.9678 1661.00
13.033 1673.00
13.0982 1634.00
13.1634 1674.00
13.2286 1625.00
13.2938 1611.00
13.359 1515.00
13.4242 1623.00
13.4894 1663.00
13.5546 1512.00
13.6198 1539.00
13.685 1493.00
13.7502 1512.00
13.8154 1532.00
13.8805 1472.00
13.9457 1497.00
14.0109 1517.00
14.0761 1521.00
14.1413 1452.00
14.2065 1454.00
14.2717 1408.00
14.3369 1484.00
14.4021 1456.00
14.4673 1455.00
14.5325 1370.00
14.5977 1413.00
14.6629 1455.00
14.7281 1340.00
14.7933 1460.00
14.8585 1481.00
14.9237 1387.00
14.9889 1446.00
15.0541 1387.00
15.1193 1435.00
15.1845 1347.00
15.2497 1383.00
15.3149 1343.00
15.3801 1346.00
15.4453 1293.00
15.5105 1417.00
15.5757 1310.00
15.6409 1329.00
15.7061 1349.00
15.7713 1266.00
15.8365 1281.00
15.9017 1274.00
15.9669 1277.00
16.0321 1279.00
16.0973 1274.00
16.1625 1244.00
16.2277 1235.00
16.2929 1192.00
16.3581 1259.00
16.4233 1239.00
16.4885 1199.00
16.5537 1245.00
16.6189 1241.00
16.6841 1273.00
16.7493 1186.00
16.8145 1211.00
16.8797 1223.00
16.9449 1232.00
17.0101 1174.00
17.0753 1197.00
17.1405 1213.00
17.2057 1193.00
17.2709 1125.00
17.3361 1145.00
17.4013 1148.00
17.4665 1127.00
17.5317 1151.00
17.5969 1091.00
17.6621 1120.00
17.7273 1128.00
17.7925 1174.00
17.8577 1150.00
17.9229 1071.00
17.9881 1100.00
18.0533 1102.00
18.1185 1108.00
18.1837 1040.00
18.2489 1149.00
18.3141 1006.00
18.3793 1086.00
18.4445 1067.00
18.5097 1055.00
18.5749 977.00
18.6401 1087.00
18.7052 1081.00
18.7704 1064.00
18.8356 1059.00
18.9008 1044.00
18.966 1029.00
19.0312 944.00
19.0964 995.00
19.1616 1042.00
19.2268 1030.00
19.292 1016.00
19.3572 970.00
19.4224 1050.00
19.4876 990.00
19.5528 934.00
19.618 1001.00
19.6832 958.00
19.7484 958.00
19.8136 963.00
19.8788 942.00
19.944 931.00
20.0092 904.00
20.0744 896.00
20.1396 963.00
20.2048 919.00
20.27 923.00
20.3352 929.00
20.4004 915.00
20.4656 911.00
20.5308 877.00
20.596 945.00
20.6612 936.00
20.7264 885.00
20.7916 904.00
20.8568 845.00
20.922 875.00
20.9872 871.00
21.0524 899.00
21.1176 896.00
21.1828 796.00
21.248 902.00
21.3132 837.00
21.3784 882.00
21.4436 841.00
21.5088 948.00
21.574 810.00
21.6392 791.00
21.7044 826.00
21.7696 866.00
21.8348 811.00
21.9 835.00
21.9652 808.00
22.0304 822.00
22.0956 852.00
22.1608 819.00
22.226 877.00
22.2912 855.00
22.3564 836.00
22.4216 790.00
22.4868 808.00
22.552 829.00
22.6172 828.00
22.6824 803.00
22.7476 884.00
22.8128 779.00
22.878 763.00
22.9432 793.00
23.0084 811.00
23.0736 753.00
23.1388 831.00
23.204 780.00
23.2692 754.00
23.3344 768.00
23.3996 737.00
23.4647 778.00
23.5299 807.00
23.5951 767.00
23.6603 742.00
23.7255 708.00
23.7907 801.00
23.8559 707.00
23.9211 783.00
23.9863 711.00
24.0515 772.00
24.1167 723.00
24.1819 694.00
24.2471 701.00
24.3123 731.00
24.3775 721.00
24.4427 761.00
24.5079 770.00
24.5731 762.00
24.6383 739.00
24.7035 689.00
24.7687 773.00
24.8339 703.00
24.8991 702.00
24.9643 706.00
25.0295 635.00
25.0947 755.00
25.1599 737.00
25.2251 711.00
25.2903 693.00
25.3555 670.00
25.4207 681.00
25.4859 680.00
25.5511 661.00
25.6163 691.00
25.6815 714.00
25.7467 669.00
25.8119 694.00
25.8771 660.00
25.9423 688.00
26.0075 667.00
26.0727 689.00
26.1379 674.00
26.2031 661.00
26.2683 673.00
26.3335 632.00
26.3987 652.00
26.4639 690.00
26.5291 647.00
26.5943 673.00
26.6595 640.00
26.7247 687.00
26.7899 642.00
26.8551 673.00
26.9203 612.00
26.9855 658.00
27.0507 645.00
27.1159 626.00
27.1811 679.00
27.2463 699.00
27.3115 614.00
27.3767 656.00
27.4419 615.00
27.5071 640.00
27.5723 682.00
27.6375 653.00
27.7027 641.00
27.7679 643.00
27.8331 639.00
27.8983 647.00
27.9635 679.00
28.0287 595.00
28.0939 668.00
28.1591 679.00
28.2243 647.00
28.2894 630.00
28.3546 666.00
28.4198 678.00
28.485 641.00
28.5502 667.00
28.6154 656.00
28.6806 656.00
28.7458 643.00
28.811 594.00
28.8762 604.00
28.9414 631.00
29.0066 645.00
29.0718 643.00
29.137 730.00
29.2022 664.00
29.2674 616.00
29.3326 658.00
29.3978 592.00
29.463 601.00
29.5282 603.00
29.5934 541.00
29.6586 587.00
29.7238 607.00
29.789 560.00
29.8542 598.00
29.9194 564.00
29.9846 585.00
30.0498 565.00
30.115 548.00
30.1802 610.00
30.2454 557.00
30.3106 579.00
30.3758 544.00
30.441 540.00
30.5062 632.00
30.5714 582.00
30.6366 541.00
30.7018 538.00
30.767 521.00
30.8322 541.00
30.8974 514.00
30.9626 537.00
31.0278 504.00
31.093 532.00
31.1582 475.00
31.2234 530.00
31.2886 493.00
31.3538 572.00
31.419 530.00
31.4842 595.00
31.5494 704.00
31.6146 765.00
31.6798 664.00
31.745 619.00
31.8102 558.00
31.8754 528.00
31.9406 519.00
32.0058 488.00
32.071 517.00
32.1362 544.00
32.2014 509.00
32.2666 469.00
32.3318 486.00
32.397 520.00
32.4622 514.00
32.5274 490.00
32.5926 508.00
32.6578 501.00
32.723 543.00
32.7882 508.00
32.8534 518.00
32.9186 528.00
32.9838 493.00
33.0489 530.00
33.1141 502.00
33.1793 479.00
33.2445 476.00
33.3097 466.00
33.3749 465.00
33.4401 500.00
33.5053 514.00
33.5705 531.00
33.6357 458.00
33.7009 507.00
33.7661 496.00
33.8313 490.00
33.8965 472.00
33.9617 495.00
34.0269 462.00
34.0921 448.00
34.1573 489.00
34.2225 443.00
34.2877 499.00
34.3529 486.00
34.4181 435.00
34.4833 460.00
34.5485 435.00
34.6137 460.00
34.6789 433.00
34.7441 466.00
34.8093 475.00
34.8745 433.00
34.9397 433.00
35.0049 447.00
35.0701 444.00
35.1353 387.00
35.2005 462.00
35.2657 436.00
35.3309 422.00
35.3961 424.00
35.4613 406.00
35.5265 426.00
35.5917 413.00
35.6569 385.00
35.7221 450.00
35.7873 450.00
35.8525 442.00
35.9177 439.00
35.9829 421.00
36.0481 405.00
36.1133 429.00
36.1785 387.00
36.2437 416.00
36.3089 410.00
36.3741 415.00
36.4393 455.00
36.5045 465.00
36.5697 436.00
36.6349 450.00
36.7001 416.00
36.7653 416.00
36.8305 408.00
36.8957 434.00
36.9609 444.00
37.0261 431.00
37.0913 445.00
37.1565 388.00
37.2217 411.00
37.2869 418.00
37.3521 408.00
37.4173 394.00
37.4825 399.00
37.5477 396.00
37.6129 403.00
37.6781 387.00
37.7433 410.00
37.8085 440.00
37.8736 385.00
37.9388 356.00
38.004 397.00
38.0692 357.00
38.1344 390.00
38.1996 368.00
38.2648 391.00
38.33 387.00
38.3952 415.00
38.4604 368.00
38.5256 371.00
38.5908 353.00
38.656 355.00
38.7212 375.00
38.7864 373.00
38.8516 346.00
38.9168 356.00
38.982 408.00
39.0472 363.00
39.1124 364.00
39.1776 351.00
39.2428 353.00
39.308 345.00
39.3732 347.00
39.4384 393.00
39.5036 352.00
39.5688 358.00
39.634 363.00
39.6992 381.00
39.7644 385.00
39.8296 346.00
39.8948 379.00
39.96 368.00
40.0252 395.00
40.0904 332.00
40.1556 324.00
40.2208 344.00
40.286 318.00
40.3512 371.00
40.4164 329.00
40.4816 347.00
40.5468 365.00
40.612 373.00
40.6772 322.00
40.7424 337.00
40.8076 355.00
40.8728 347.00
40.938 364.00
41.0032 373.00
41.0684 341.00
41.1336 326.00
41.1988 343.00
41.264 369.00
41.3292 311.00
41.3944 316.00
41.4596 321.00
41.5248 383.00
41.59 323.00
41.6552 309.00
41.7204 358.00
41.7856 315.00
41.8508 337.00
41.916 323.00
41.9812 336.00
42.0464 341.00
42.1116 321.00
42.1768 344.00
42.242 320.00
42.3072 333.00
42.3724 336.00
42.4376 308.00
42.5028 320.00
42.568 341.00
42.6332 310.00
42.6983 302.00
42.7635 310.00
42.8287 297.00
42.8939 324.00
42.9591 319.00
43.0243 342.00
43.0895 326.00
43.1547 371.00
43.2199 320.00
43.2851 289.00
43.3503 343.00
43.4155 304.00
43.4807 340.00
43.5459 294.00
43.6111 312.00
43.6763 286.00
43.7415 314.00
43.8067 294.00
43.8719 309.00
43.9371 361.00
44.0023 288.00
44.0675 326.00
44.1327 289.00
44.1979 309.00
44.2631 338.00
44.3283 311.00
44.3935 296.00
44.4587 312.00
44.5239 272.00
44.5891 282.00
44.6543 314.00
44.7195 331.00
44.7847 326.00
44.8499 288.00
44.9151 298.00
44.9803 308.00
45.0455 297.00
45.1107 322.00
45.1759 300.00
45.2411 342.00
45.3063 372.00
45.3715 415.00
45.4367 385.00
45.5019 340.00
45.5671 332.00
45.6323 326.00
45.6975 299.00
45.7627 318.00
45.8279 302.00
45.8931 267.00
45.9583 312.00
46.0235 276.00
46.0887 283.00
46.1539 329.00
46.2191 303.00
46.2843 274.00
46.3495 299.00
46.4147 312.00
46.4799 299.00
46.5451 324.00
46.6103 308.00
46.6755 297.00
46.7407 318.00
46.8059 275.00
46.8711 295.00
46.9363 292.00
47.0015 302.00
47.0667 269.00
47.1319 297.00
47.1971 280.00
47.2623 282.00
47.3275 292.00
47.3927 300.00
47.4579 273.00
47.523 269.00
47.5882 235.00
47.6534 259.00
47.7186 277.00
47.7838 278.00
47.849 282.00
47.9142 313.00
47.9794 307.00
48.0446 272.00
48.1098 301.00
48.175 286.00
48.2402 302.00
48.3054 262.00
48.3706 303.00
48.4358 313.00
48.501 300.00
48.5662 327.00
48.6314 289.00
48.6966 333.00
48.7618 315.00
48.827 323.00
48.8922 268.00
48.9574 301.00
49.0226 243.00
49.0878 294.00
49.153 303.00
49.2182 269.00
49.2834 305.00
49.3486 267.00
49.4138 269.00
49.479 295.00
49.5442 290.00
49.6094 263.00
49.6746 298.00
49.7398 280.00
49.805 272.00
49.8702 263.00
49.9354 258.00
50.0006 294.00
50.0658 269.00
50.131 256.00
50.1962 259.00
50.2614 281.00
50.3266 273.00
50.3918 267.00
50.457 233.00
50.5222 287.00
50.5874 260.00
50.6526 273.00
50.7178 286.00
50.783 269.00
50.8482 267.00
50.9134 273.00
50.9786 241.00
51.0438 280.00
51.109 271.00
51.1742 275.00
51.2394 241.00
51.3046 279.00
51.3698 276.00
51.435 276.00
51.5002 269.00
51.5654 262.00
51.6306 261.00
51.6958 285.00
51.761 263.00
51.8262 262.00
51.8914 242.00
51.9566 274.00
52.0218 246.00
52.087 267.00
52.1522 256.00
52.2174 212.00
52.2826 240.00
52.3477 266.00
52.4129 241.00
52.4781 262.00
52.5433 274.00
52.6085 234.00
52.6737 259.00
52.7389 272.00
52.8041 261.00
52.8693 294.00
52.9345 272.00
52.9997 241.00
53.0649 250.00
53.1301 263.00
53.1953 230.00
53.2605 234.00
53.3257 242.00
53.3909 275.00
53.4561 243.00
53.5213 276.00
53.5865 259.00
53.6517 261.00
53.7169 237.00
53.7821 256.00
53.8473 259.00
53.9125 261.00
53.9777 257.00
54.0429 214.00
54.1081 280.00
54.1733 261.00
54.2385 227.00
54.3037 258.00
54.3689 219.00
54.4341 235.00
54.4993 261.00
54.5645 231.00
54.6297 238.00
54.6949 250.00
54.7601 266.00
54.8253 221.00
54.8905 195.00
54.9557 244.00
55.0209 233.00
55.0861 226.00
55.1513 260.00
55.2165 224.00
55.2817 278.00
55.3469 250.00
55.4121 238.00
55.4773 196.00
55.5425 202.00
55.6077 240.00
55.6729 220.00
55.7381 282.00
55.8033 269.00
55.8685 238.00
55.9337 219.00
55.9989 238.00
56.0641 204.00
56.1293 242.00
56.1945 269.00
56.2597 202.00
56.3249 285.00
56.3901 214.00
56.4553 237.00
56.5205 256.00
56.5857 236.00
56.6509 213.00
56.7161 250.00
56.7813 216.00
56.8465 250.00
56.9117 236.00
56.9769 216.00
57.042 243.00
57.1073 265.00
57.1724 224.00
57.2376 234.00
57.3028 246.00
57.368 272.00
57.4332 216.00
57.4984 244.00
57.5636 209.00
57.6288 239.00
57.694 247.00
57.7592 241.00
57.8244 264.00
57.8896 244.00
57.9548 191.00
58.02 244.00
58.0852 247.00
58.1504 219.00
58.2156 233.00
58.2808 203.00
58.346 228.00
58.4112 210.00
58.4764 212.00
58.5416 207.00
58.6068 184.00
58.672 184.00
58.7372 183.00
58.8024 208.00
58.8676 213.00
58.9328 238.00
58.998 205.00
59.0632 192.00
59.1284 182.00
59.1936 249.00
59.2588 230.00
59.324 192.00
59.3892 216.00
59.4544 218.00
59.5196 209.00
59.5848 198.00
59.65 212.00
59.7152 203.00
59.7804 206.00
59.8456 206.00
59.9108 200.00
59.976 204.00
60.0412 223.00
60.1064 208.00
60.1716 198.00
60.2368 204.00
60.302 215.00
60.3672 214.00
60.4324 208.00
60.4976 207.00
60.5628 222.00
60.628 197.00
60.6932 220.00
60.7584 222.00
60.8236 246.00
60.8888 213.00
60.954 210.00
61.0192 195.00
61.0844 188.00
61.1496 193.00
61.2148 205.00
61.28 210.00
61.3452 215.00
61.4104 222.00
61.4756 198.00
61.5408 246.00
61.606 210.00
61.6712 201.00
61.7364 191.00
61.8016 235.00
61.8667 206.00
61.932 175.00
61.9971 192.00
62.0623 227.00
62.1275 212.00
62.1927 210.00
62.2579 217.00
62.3231 205.00
62.3883 212.00
62.4535 191.00
62.5187 189.00
62.5839 196.00
62.6491 188.00
62.7143 238.00
62.7795 185.00
62.8447 194.00
62.9099 184.00
62.9751 190.00
63.0403 221.00
63.1055 186.00
63.1707 186.00
63.2359 226.00
63.3011 196.00
63.3663 219.00
63.4315 196.00
63.4967 200.00
63.5619 196.00
63.6271 184.00
63.6923 214.00
63.7575 217.00
63.8227 214.00
63.8879 167.00
63.9531 194.00
64.0183 185.00
64.0835 202.00
64.1487 179.00
64.2139 184.00
64.2791 209.00
64.3443 184.00
64.4095 206.00
64.4747 204.00
64.5399 196.00
64.6051 199.00
64.6703 172.00
64.7355 186.00
64.8007 186.00
64.8659 201.00
64.9311 200.00
64.9963 167.00
65.0615 186.00
65.1267 192.00
65.1919 209.00
65.2571 179.00
65.3223 199.00
65.3875 187.00
65.4527 217.00
65.5179 195.00
65.5831 167.00
65.6483 199.00
65.7135 177.00
65.7787 213.00
65.8439 204.00
65.9091 196.00
65.9743 198.00
66.0395 197.00
66.1047 182.00
66.1699 185.00
66.2351 217.00
66.3003 219.00
66.3655 185.00
66.4307 216.00
66.4959 168.00
66.561 198.00
66.6263 152.00
66.6915 159.00
66.7566 214.00
66.8218 189.00
66.887 191.00
66.9522 168.00
67.0174 188.00
67.0826 188.00
67.1478 204.00
67.213 177.00
67.2782 198.00
67.3434 191.00
67.4086 177.00
67.4738 189.00
67.539 217.00
67.6042 198.00
67.6694 217.00
67.7346 173.00
67.7998 202.00
67.865 183.00
67.9302 193.00
67.9954 179.00
68.0606 215.00
68.1258 193.00
68.191 194.00
68.2562 203.00
68.3214 184.00
68.3866 208.00
68.4518 180.00
68.517 200.00
68.5822 189.00
68.6474 217.00
68.7126 218.00
68.7778 194.00
68.843 199.00
68.9082 188.00
68.9734 192.00
69.0386 191.00
69.1038 193.00
69.169 216.00
69.2342 168.00
69.2994 197.00
69.3646 180.00
69.4298 187.00
69.495 200.00
69.5602 174.00
69.6254 169.00
69.6906 194.00
69.7558 215.00
69.821 213.00
69.8862 183.00
69.9514 184.00
70.0166 202.00
70.0818 174.00
70.147 202.00
70.2122 194.00
70.2774 196.00
70.3426 204.00
70.4078 198.00
70.473 194.00
70.5382 199.00
70.6034 188.00
70.6686 173.00
70.7338 186.00
70.799 192.00
70.8642 161.00
70.9294 202.00
70.9946 195.00
71.0598 214.00
71.125 169.00
71.1902 182.00
71.2554 207.00
71.3205 178.00
71.3858 190.00
71.451 208.00
71.5162 210.00
71.5813 189.00
71.6465 201.00
71.7117 209.00
71.7769 215.00
71.8421 193.00
71.9073 196.00
71.9725 212.00
72.0377 200.00
72.1029 205.00
72.1681 185.00
72.2333 193.00
72.2985 184.00
72.3637 186.00
72.4289 176.00
72.4941 200.00
72.5593 169.00
72.6245 212.00
72.6897 192.00
72.7549 213.00
72.8201 200.00
72.8853 184.00
72.9505 195.00
73.0157 215.00
73.0809 212.00
73.1461 191.00
73.2113 203.00
73.2765 197.00
73.3417 198.00
73.4069 190.00
73.4721 184.00
73.5373 199.00
73.6025 196.00
73.6677 178.00
73.7329 168.00
73.7981 211.00
73.8633 211.00
73.9285 211.00
73.9937 206.00
74.0589 195.00
74.1241 190.00
74.1893 191.00
74.2545 182.00
74.3197 212.00
74.3849 200.00
74.4501 201.00
74.5153 192.00
74.5805 201.00
74.6457 211.00
74.7109 205.00
74.7761 195.00
74.8413 185.00
74.9065 210.00
74.9717 213.00
75.0369 187.00
75.1021 211.00
75.1673 206.00
75.2325 216.00
75.2977 190.00
75.3629 210.00
75.4281 200.00
75.4933 211.00
75.5585 211.00
75.6237 224.00
75.6889 199.00
75.7541 191.00
75.8193 220.00
75.8845 204.00
75.9497 187.00
76.0149 231.00
76.0801 192.00
76.1452 214.00
76.2104 207.00
76.2756 214.00
76.3409 193.00
76.406 198.00
76.4712 205.00
76.5364 217.00
76.6016 210.00
76.6668 227.00
76.732 199.00
76.7972 217.00
76.8624 212.00
76.9276 211.00
76.9928 232.00
77.058 203.00
77.1232 207.00
77.1884 203.00
77.2536 191.00
77.3188 221.00
77.384 214.00
77.4492 198.00
77.5144 210.00
77.5796 237.00
77.6448 180.00
77.71 199.00
77.7752 191.00
77.8404 214.00
77.9056 201.00
77.9708 241.00
78.036 208.00
78.1012 206.00
78.1664 187.00
78.2316 215.00
78.2968 189.00
78.362 208.00
78.4272 197.00
78.4924 199.00
78.5576 218.00
78.6228 218.00
78.688 222.00
78.7532 240.00
78.8184 208.00
78.8836 218.00
78.9488 222.00
79.014 223.00
79.0792 239.00
79.1444 240.00
79.2096 204.00
79.2748 210.00
79.34 206.00
79.4052 226.00
79.4704 215.00
79.5356 206.00
79.6008 225.00
79.666 242.00
79.7312 190.00
79.7964 207.00
79.8616 227.00
79.9268 226.00
79.992 231.00
80.0572 231.00
80.1224 223.00
80.1876 214.00
80.2528 228.00
80.318 243.00
80.3832 235.00
80.4484 224.00
80.5136 214.00
80.5788 207.00
80.644 221.00
80.7092 196.00
80.7744 225.00
80.8396 210.00
80.9048 215.00
80.9699 229.00
81.0351 220.00
81.1003 209.00
81.1655 222.00
81.2307 232.00
81.2959 241.00
81.3611 221.00
81.4263 243.00
81.4915 233.00
81.5567 204.00
81.6219 238.00
81.6871 241.00
81.7523 248.00
81.8175 200.00
81.8827 235.00
81.9479 232.00
82.0131 226.00
82.0783 210.00
82.1435 219.00
82.2087 234.00
82.2739 213.00
82.3391 216.00
82.4043 229.00
82.4695 216.00
82.5347 230.00
82.5999 243.00
82.6651 226.00
82.7303 214.00
82.7955 227.00
82.8607 228.00
82.9259 216.00
82.9911 218.00
83.0563 230.00
83.1215 260.00
83.1867 229.00
83.2519 219.00
83.3171 247.00
83.3823 197.00
83.4475 237.00
83.5127 230.00
83.5779 212.00
83.6431 217.00
83.7083 262.00
83.7735 225.00
83.8387 198.00
83.9039 232.00
83.9691 205.00
84.0343 215.00
84.0995 205.00
84.1647 250.00
84.2299 215.00
84.2951 221.00
84.3603 191.00
84.4255 214.00
84.4907 218.00
84.5559 219.00
84.6211 211.00
84.6863 245.00
84.7515 260.00
84.8167 198.00
84.8819 279.00
84.9471 244.00
85.0123 208.00
85.0775 218.00
85.1427 193.00
85.2079 198.00
85.2731 155.00
85.3383 180.00
85.4035 236.00
85.4687 219.00
85.5339 193.00
85.5991 213.00
85.6643 209.00
85.7295 213.00
85.7946 194.00
85.8598 222.00
85.925 195.00
85.9903 198.00
86.0554 185.00
86.1206 203.00
86.1858 207.00
86.251 198.00
86.3162 212.00
86.3814 204.00
86.4466 192.00
86.5118 194.00
86.577 227.00
86.6422 166.00
86.7074 227.00
86.7726 194.00
86.8378 239.00
86.903 199.00
86.9682 212.00
87.0334 190.00
87.0986 193.00
87.1638 200.00
87.229 206.00
87.2942 185.00
87.3594 190.00
87.4246 189.00
87.4898 225.00
87.555 199.00
87.6202 204.00
87.6854 188.00
87.7506 190.00
87.8158 187.00
87.881 196.00
87.9462 204.00
88.0114 193.00
88.0766 196.00
88.1418 174.00
88.207 200.00
88.2722 213.00
88.3374 213.00
88.4026 172.00
88.4678 205.00
88.533 197.00
88.5982 192.00
88.6634 196.00
88.7286 202.00
88.7938 213.00
88.859 201.00
88.9242 178.00
88.9894 210.00
89.0546 192.00
89.1198 196.00
89.185 182.00
89.2502 184.00
89.3154 211.00
89.3806 237.00
89.4458 194.00
89.511 185.00
89.5762 191.00
89.6414 198.00
89.7066 179.00
89.7718 170.00
89.837 154.00
89.9022 215.00
89.9674 165.00
90.0326 203.00
90.0978 180.00
90.163 196.00
90.2282 223.00
90.2934 177.00
90.3586 166.00
90.4238 192.00
90.489 170.00
90.5542 187.00
90.6193 212.00
90.6845 169.00
90.7497 200.00
90.8149 198.00
90.8801 205.00
90.9453 196.00
91.0105 179.00
91.0757 192.00
91.1409 207.00
91.2061 213.00
91.2713 208.00
91.3365 173.00
91.4017 183.00
91.4669 161.00
91.5321 180.00
91.5973 191.00
91.6625 194.00
91.7277 168.00
91.7929 162.00
91.8581 192.00
91.9233 192.00
91.9885 182.00
92.0537 195.00
92.1189 191.00
92.1841 190.00
92.2493 156.00
92.3145 214.00
92.3797 176.00
92.4449 201.00
92.5101 205.00
92.5753 194.00
92.6405 180.00
92.7057 197.00
92.7709 200.00
92.8361 191.00
92.9013 174.00
92.9665 178.00
93.0317 162.00
93.0969 182.00
93.1621 213.00
93.2273 176.00
93.2925 190.00
93.3577 198.00
93.4229 183.00
93.4881 185.00
93.5533 188.00
93.6185 214.00
93.6837 198.00
93.7489 199.00
93.8141 175.00
93.8793 211.00
93.9445 209.00
94.0097 182.00
94.0749 191.00
94.1401 182.00
94.2053 164.00
94.2705 197.00
94.3357 185.00
94.4009 184.00
94.4661 186.00
94.5313 161.00
94.5965 202.00
94.6617 157.00
94.7269 187.00
94.7921 195.00
94.8573 190.00
94.9225 174.00
94.9877 182.00
95.0529 164.00
95.1181 209.00
95.1833 163.00
95.2485 201.00
95.3137 162.00
95.3789 196.00
95.444 187.00
95.5092 211.00
95.5744 183.00
95.6396 175.00
95.7048 204.00
95.77 197.00
95.8352 218.00
95.9004 196.00
95.9656 188.00
96.0308 225.00
96.096 195.00
96.1612 166.00
96.2264 201.00
96.2916 208.00
96.3568 201.00
96.422 194.00
96.4872 205.00
96.5524 204.00
96.6176 174.00
96.6828 183.00
96.748 186.00
96.8132 178.00
96.8784 178.00
96.9436 201.00
97.0088 188.00
97.074 171.00
97.1392 207.00
97.2044 185.00
97.2696 166.00
97.3348 207.00
97.4 162.00
97.4652 156.00
97.5304 217.00
97.5956 195.00
97.6608 198.00
97.726 180.00
97.7912 172.00
97.8564 170.00
97.9216 212.00
97.9868 200.00
98.052 188.00
98.1172 167.00
98.1824 186.00
98.2476 198.00
98.3128 184.00
98.378 173.00
98.4432 205.00
98.5084 214.00
98.5736 186.00
98.6388 180.00
98.704 184.00
98.7692 177.00
98.8344 196.00
98.8996 177.00
98.9648 196.00
99.03 167.00
99.0952 203.00
99.1604 166.00
99.2256 176.00
99.2908 189.00
99.356 166.00
99.4212 180.00
99.4864 180.00
99.5516 183.00
99.6168 163.00
99.682 144.00
99.7472 183.00
99.8124 197.00
99.8776 210.00
99.9428 196.00
100.008 198.00
100.073 199.00
100.095 188.00