File: data/xrd_creation/results/Na_32.xy
9.903433 2470.00
9.968632 2614.00
10.0338 2495.00
10.099 2525.00
10.1642 2445.00
10.2294 2485.00
10.2946 2459.00
10.3598 2352.00
10.425 2440.00
10.4902 2423.00
10.5554 2384.00
10.6206 2317.00
10.6858 2315.00
10.751 2259.00
10.8162 2293.00
10.8814 2266.00
10.9466 2173.00
11.0118 2133.00
11.077 2209.00
11.1422 2249.00
11.2074 2157.00
11.2726 2132.00
11.3378 2106.00
11.403 2009.00
11.4682 2005.00
11.5334 1986.00
11.5986 2056.00
11.6638 1997.00
11.729 1900.00
11.7942 1947.00
11.8594 1954.00
11.9246 1911.00
11.9898 1820.00
12.055 1844.00
12.1202 1745.00
12.1854 1793.00
12.2506 1816.00
12.3158 1796.00
12.381 1829.00
12.4462 1820.00
12.5114 1706.00
12.5766 1746.00
12.6418 1818.00
12.707 1721.00
12.7722 1672.00
12.8374 1660.00
12.9026 1679.00
12.9678 1645.00
13.033 1647.00
13.0982 1671.00
13.1634 1547.00
13.2286 1626.00
13.2938 1555.00
13.359 1546.00
13.4242 1523.00
13.4894 1510.00
13.5546 1522.00
13.6198 1576.00
13.685 1494.00
13.7502 1481.00
13.8154 1481.00
13.8805 1497.00
13.9457 1545.00
14.0109 1463.00
14.0761 1493.00
14.1413 1421.00
14.2065 1470.00
14.2717 1495.00
14.3369 1443.00
14.4021 1510.00
14.4673 1339.00
14.5325 1352.00
14.5977 1350.00
14.6629 1401.00
14.7281 1395.00
14.7933 1437.00
14.8585 1347.00
14.9237 1405.00
14.9889 1330.00
15.0541 1340.00
15.1193 1325.00
15.1845 1336.00
15.2497 1290.00
15.3149 1335.00
15.3801 1290.00
15.4453 1313.00
15.5105 1285.00
15.5757 1357.00
15.6409 1298.00
15.7061 1210.00
15.7713 1282.00
15.8365 1279.00
15.9017 1282.00
15.9669 1205.00
16.0321 1172.00
16.0973 1300.00
16.1625 1274.00
16.2277 1218.00
16.2929 1243.00
16.3581 1239.00
16.4233 1196.00
16.4885 1173.00
16.5537 1254.00
16.6189 1225.00
16.6841 1178.00
16.7493 1158.00
16.8145 1151.00
16.8797 1135.00
16.9449 1172.00
17.0101 1173.00
17.0753 1204.00
17.1405 1148.00
17.2057 1163.00
17.2709 1139.00
17.3361 1154.00
17.4013 1187.00
17.4665 1055.00
17.5317 1135.00
17.5969 1133.00
17.6621 1110.00
17.7273 1078.00
17.7925 1077.00
17.8577 1093.00
17.9229 1040.00
17.9881 1024.00
18.0533 1139.00
18.1185 1094.00
18.1837 1107.00
18.2489 1047.00
18.3141 1082.00
18.3793 1083.00
18.4445 1085.00
18.5097 1082.00
18.5749 1012.00
18.6401 963.00
18.7052 980.00
18.7704 1005.00
18.8356 967.00
18.9008 969.00
18.966 994.00
19.0312 972.00
19.0964 993.00
19.1616 1012.00
19.2268 916.00
19.292 945.00
19.3572 915.00
19.4224 954.00
19.4876 979.00
19.5528 902.00
19.618 938.00
19.6832 939.00
19.7484 955.00
19.8136 932.00
19.8788 936.00
19.944 927.00
20.0092 925.00
20.0744 922.00
20.1396 946.00
20.2048 955.00
20.27 869.00
20.3352 949.00
20.4004 877.00
20.4656 907.00
20.5308 921.00
20.596 877.00
20.6612 875.00
20.7264 836.00
20.7916 899.00
20.8568 860.00
20.922 869.00
20.9872 829.00
21.0524 843.00
21.1176 843.00
21.1828 834.00
21.248 862.00
21.3132 845.00
21.3784 826.00
21.4436 803.00
21.5088 843.00
21.574 841.00
21.6392 812.00
21.7044 826.00
21.7696 822.00
21.8348 848.00
21.9 820.00
21.9652 850.00
22.0304 800.00
22.0956 847.00
22.1608 789.00
22.226 820.00
22.2912 755.00
22.3564 776.00
22.4216 838.00
22.4868 771.00
22.552 755.00
22.6172 820.00
22.6824 778.00
22.7476 770.00
22.8128 708.00
22.878 762.00
22.9432 714.00
23.0084 781.00
23.0736 741.00
23.1388 730.00
23.204 717.00
23.2692 754.00
23.3344 716.00
23.3996 703.00
23.4647 752.00
23.5299 741.00
23.5951 752.00
23.6603 770.00
23.7255 734.00
23.7907 673.00
23.8559 732.00
23.9211 728.00
23.9863 712.00
24.0515 694.00
24.1167 694.00
24.1819 781.00
24.2471 683.00
24.3123 658.00
24.3775 669.00
24.4427 711.00
24.5079 726.00
24.5731 690.00
24.6383 637.00
24.7035 669.00
24.7687 730.00
24.8339 655.00
24.8991 702.00
24.9643 706.00
25.0295 667.00
25.0947 651.00
25.1599 639.00
25.2251 687.00
25.2903 707.00
25.3555 699.00
25.4207 712.00
25.4859 625.00
25.5511 672.00
25.6163 682.00
25.6815 637.00
25.7467 679.00
25.8119 666.00
25.8771 681.00
25.9423 609.00
26.0075 623.00
26.0727 654.00
26.1379 635.00
26.2031 626.00
26.2683 650.00
26.3335 569.00
26.3987 674.00
26.4639 602.00
26.5291 637.00
26.5943 618.00
26.6595 652.00
26.7247 622.00
26.7899 628.00
26.8551 643.00
26.9203 647.00
26.9855 600.00
27.0507 636.00
27.1159 585.00
27.1811 626.00
27.2463 607.00
27.3115 621.00
27.3767 658.00
27.4419 627.00
27.5071 629.00
27.5723 603.00
27.6375 617.00
27.7027 620.00
27.7679 593.00
27.8331 597.00
27.8983 565.00
27.9635 596.00
28.0287 627.00
28.0939 568.00
28.1591 615.00
28.2243 645.00
28.2894 616.00
28.3546 578.00
28.4198 617.00
28.485 579.00
28.5502 583.00
28.6154 608.00
28.6806 639.00
28.7458 558.00
28.811 594.00
28.8762 561.00
28.9414 587.00
29.0066 601.00
29.0718 557.00
29.137 593.00
29.2022 542.00
29.2674 525.00
29.3326 552.00
29.3978 557.00
29.463 558.00
29.5282 558.00
29.5934 540.00
29.6586 571.00
29.7238 606.00
29.789 539.00
29.8542 537.00
29.9194 535.00
29.9846 592.00
30.0498 606.00
30.115 610.00
30.1802 505.00
30.2454 523.00
30.3106 521.00
30.3758 571.00
30.441 556.00
30.5062 512.00
30.5714 538.00
30.6366 488.00
30.7018 469.00
30.767 506.00
30.8322 494.00
30.8974 533.00
30.9626 469.00
31.0278 458.00
31.093 488.00
31.1582 488.00
31.2234 514.00
31.2886 522.00
31.3538 508.00
31.419 519.00
31.4842 513.00
31.5494 473.00
31.6146 512.00
31.6798 471.00
31.745 473.00
31.8102 495.00
31.8754 502.00
31.9406 479.00
32.0058 479.00
32.071 494.00
32.1362 495.00
32.2014 430.00
32.2666 460.00
32.3318 478.00
32.397 474.00
32.4622 493.00
32.5274 419.00
32.5926 486.00
32.6578 427.00
32.723 491.00
32.7882 447.00
32.8534 448.00
32.9186 457.00
32.9838 456.00
33.0489 467.00
33.1141 468.00
33.1793 464.00
33.2445 416.00
33.3097 440.00
33.3749 420.00
33.4401 504.00
33.5053 452.00
33.5705 398.00
33.6357 479.00
33.7009 438.00
33.7661 438.00
33.8313 413.00
33.8965 450.00
33.9617 433.00
34.0269 457.00
34.0921 459.00
34.1573 439.00
34.2225 422.00
34.2877 453.00
34.3529 451.00
34.4181 405.00
34.4833 395.00
34.5485 403.00
34.6137 420.00
34.6789 409.00
34.7441 425.00
34.8093 404.00
34.8745 465.00
34.9397 399.00
35.0049 435.00
35.0701 412.00
35.1353 445.00
35.2005 403.00
35.2657 433.00
35.3309 396.00
35.3961 365.00
35.4613 440.00
35.5265 404.00
35.5917 431.00
35.6569 446.00
35.7221 357.00
35.7873 372.00
35.8525 418.00
35.9177 373.00
35.9829 401.00
36.0481 387.00
36.1133 404.00
36.1785 364.00
36.2437 367.00
36.3089 384.00
36.3741 366.00
36.4393 379.00
36.5045 414.00
36.5697 369.00
36.6349 394.00
36.7001 366.00
36.7653 377.00
36.8305 415.00
36.8957 391.00
36.9609 358.00
37.0261 344.00
37.0913 346.00
37.1565 385.00
37.2217 389.00
37.2869 383.00
37.3521 381.00
37.4173 385.00
37.4825 365.00
37.5477 351.00
37.6129 355.00
37.6781 354.00
37.7433 366.00
37.8085 346.00
37.8736 373.00
37.9388 373.00
38.004 344.00
38.0692 360.00
38.1344 343.00
38.1996 399.00
38.2648 371.00
38.33 337.00
38.3952 373.00
38.4604 365.00
38.5256 363.00
38.5908 357.00
38.656 335.00
38.7212 328.00
38.7864 358.00
38.8516 342.00
38.9168 344.00
38.982 336.00
39.0472 349.00
39.1124 338.00
39.1776 350.00
39.2428 329.00
39.308 338.00
39.3732 333.00
39.4384 339.00
39.5036 344.00
39.5688 332.00
39.634 371.00
39.6992 357.00
39.7644 352.00
39.8296 337.00
39.8948 379.00
39.96 360.00
40.0252 314.00
40.0904 334.00
40.1556 356.00
40.2208 334.00
40.286 340.00
40.3512 318.00
40.4164 324.00
40.4816 304.00
40.5468 347.00
40.612 339.00
40.6772 326.00
40.7424 357.00
40.8076 325.00
40.8728 331.00
40.938 306.00
41.0032 325.00
41.0684 317.00
41.1336 317.00
41.1988 343.00
41.264 334.00
41.3292 315.00
41.3944 280.00
41.4596 292.00
41.5248 303.00
41.59 323.00
41.6552 311.00
41.7204 339.00
41.7856 300.00
41.8508 352.00
41.916 250.00
41.9812 307.00
42.0464 321.00
42.1116 288.00
42.1768 285.00
42.242 310.00
42.3072 320.00
42.3724 305.00
42.4376 308.00
42.5028 311.00
42.568 296.00
42.6332 292.00
42.6983 345.00
42.7635 280.00
42.8287 286.00
42.8939 305.00
42.9591 296.00
43.0243 305.00
43.0895 333.00
43.1547 308.00
43.2199 300.00
43.2851 322.00
43.3503 281.00
43.4155 309.00
43.4807 314.00
43.5459 287.00
43.6111 304.00
43.6763 305.00
43.7415 300.00
43.8067 269.00
43.8719 341.00
43.9371 299.00
44.0023 334.00
44.0675 272.00
44.1327 278.00
44.1979 288.00
44.2631 276.00
44.3283 287.00
44.3935 277.00
44.4587 292.00
44.5239 282.00
44.5891 282.00
44.6543 290.00
44.7195 272.00
44.7847 274.00
44.8499 241.00
44.9151 297.00
44.9803 284.00
45.0455 277.00
45.1107 310.00
45.1759 248.00
45.2411 284.00
45.3063 287.00
45.3715 290.00
45.4367 288.00
45.5019 258.00
45.5671 268.00
45.6323 277.00
45.6975 290.00
45.7627 309.00
45.8279 242.00
45.8931 294.00
45.9583 286.00
46.0235 305.00
46.0887 306.00
46.1539 286.00
46.2191 256.00
46.2843 274.00
46.3495 248.00
46.4147 266.00
46.4799 307.00
46.5451 280.00
46.6103 277.00
46.6755 279.00
46.7407 312.00
46.8059 271.00
46.8711 269.00
46.9363 267.00
47.0015 298.00
47.0667 279.00
47.1319 275.00
47.1971 271.00
47.2623 277.00
47.3275 263.00
47.3927 244.00
47.4579 271.00
47.523 270.00
47.5882 264.00
47.6534 239.00
47.7186 283.00
47.7838 246.00
47.849 278.00
47.9142 280.00
47.9794 257.00
48.0446 275.00
48.1098 269.00
48.175 248.00
48.2402 271.00
48.3054 270.00
48.3706 246.00
48.4358 309.00
48.501 249.00
48.5662 288.00
48.6314 258.00
48.6966 260.00
48.7618 264.00
48.827 291.00
48.8922 230.00
48.9574 274.00
49.0226 256.00
49.0878 285.00
49.153 244.00
49.2182 278.00
49.2834 245.00
49.3486 274.00
49.4138 269.00
49.479 274.00
49.5442 249.00
49.6094 258.00
49.6746 260.00
49.7398 280.00
49.805 259.00
49.8702 263.00
49.9354 284.00
50.0006 274.00
50.0658 292.00
50.131 264.00
50.1962 273.00
50.2614 260.00
50.3266 250.00
50.3918 238.00
50.457 241.00
50.5222 245.00
50.5874 261.00
50.6526 290.00
50.7178 234.00
50.783 256.00
50.8482 242.00
50.9134 231.00
50.9786 275.00
51.0438 240.00
51.109 240.00
51.1742 227.00
51.2394 270.00
51.3046 238.00
51.3698 210.00
51.435 247.00
51.5002 229.00
51.5654 276.00
51.6306 238.00
51.6958 250.00
51.761 242.00
51.8262 245.00
51.8914 245.00
51.9566 235.00
52.0218 268.00
52.087 261.00
52.1522 264.00
52.2174 237.00
52.2826 226.00
52.3477 237.00
52.4129 224.00
52.4781 245.00
52.5433 257.00
52.6085 238.00
52.6737 230.00
52.7389 269.00
52.8041 215.00
52.8693 242.00
52.9345 249.00
52.9997 258.00
53.0649 228.00
53.1301 216.00
53.1953 209.00
53.2605 248.00
53.3257 214.00
53.3909 220.00
53.4561 228.00
53.5213 220.00
53.5865 221.00
53.6517 249.00
53.7169 207.00
53.7821 268.00
53.8473 265.00
53.9125 214.00
53.9777 247.00
54.0429 229.00
54.1081 224.00
54.1733 235.00
54.2385 235.00
54.3037 232.00
54.3689 247.00
54.4341 222.00
54.4993 208.00
54.5645 233.00
54.6297 260.00
54.6949 204.00
54.7601 227.00
54.8253 211.00
54.8905 229.00
54.9557 213.00
55.0209 224.00
55.0861 213.00
55.1513 230.00
55.2165 223.00
55.2817 207.00
55.3469 257.00
55.4121 203.00
55.4773 196.00
55.5425 210.00
55.6077 240.00
55.6729 206.00
55.7381 216.00
55.8033 207.00
55.8685 247.00
55.9337 206.00
55.9989 206.00
56.0641 227.00
56.1293 216.00
56.1945 193.00
56.2597 188.00
56.3249 222.00
56.3901 198.00
56.4553 208.00
56.5205 211.00
56.5857 181.00
56.6509 203.00
56.7161 225.00
56.7813 222.00
56.8465 211.00
56.9117 198.00
56.9769 211.00
57.042 214.00
57.1073 219.00
57.1724 187.00
57.2376 207.00
57.3028 214.00
57.368 198.00
57.4332 227.00
57.4984 214.00
57.5636 217.00
57.6288 192.00
57.694 178.00
57.7592 206.00
57.8244 189.00
57.8896 208.00
57.9548 206.00
58.02 221.00
58.0852 222.00
58.1504 225.00
58.2156 214.00
58.2808 202.00
58.346 195.00
58.4112 192.00
58.4764 208.00
58.5416 217.00
58.6068 197.00
58.672 207.00
58.7372 209.00
58.8024 203.00
58.8676 218.00
58.9328 222.00
58.998 197.00
59.0632 191.00
59.1284 199.00
59.1936 197.00
59.2588 167.00
59.324 163.00
59.3892 161.00
59.4544 209.00
59.5196 165.00
59.5848 197.00
59.65 191.00
59.7152 206.00
59.7804 179.00
59.8456 173.00
59.9108 201.00
59.976 208.00
60.0412 197.00
60.1064 202.00
60.1716 187.00
60.2368 220.00
60.302 194.00
60.3672 187.00
60.4324 192.00
60.4976 168.00
60.5628 191.00
60.628 211.00
60.6932 183.00
60.7584 203.00
60.8236 170.00
60.8888 187.00
60.954 186.00
61.0192 196.00
61.0844 202.00
61.1496 192.00
61.2148 195.00
61.28 173.00
61.3452 203.00
61.4104 198.00
61.4756 226.00
61.5408 187.00
61.606 207.00
61.6712 180.00
61.7364 181.00
61.8016 208.00
61.8667 175.00
61.932 177.00
61.9971 192.00
62.0623 176.00
62.1275 178.00
62.1927 197.00
62.2579 188.00
62.3231 180.00
62.3883 186.00
62.4535 207.00
62.5187 198.00
62.5839 181.00
62.6491 187.00
62.7143 175.00
62.7795 184.00
62.8447 172.00
62.9099 190.00
62.9751 178.00
63.0403 188.00
63.1055 190.00
63.1707 187.00
63.2359 178.00
63.3011 170.00
63.3663 184.00
63.4315 214.00
63.4967 205.00
63.5619 206.00
63.6271 190.00
63.6923 177.00
63.7575 192.00
63.8227 168.00
63.8879 170.00
63.9531 172.00
64.0183 182.00
64.0835 198.00
64.1487 197.00
64.2139 181.00
64.2791 201.00
64.3443 205.00
64.4095 177.00
64.4747 173.00
64.5399 203.00
64.6051 175.00
64.6703 198.00
64.7355 174.00
64.8007 200.00
64.8659 162.00
64.9311 177.00
64.9963 171.00
65.0615 179.00
65.1267 165.00
65.1919 161.00
65.2571 174.00
65.3223 171.00
65.3875 156.00
65.4527 170.00
65.5179 184.00
65.5831 177.00
65.6483 186.00
65.7135 177.00
65.7787 157.00
65.8439 160.00
65.9091 190.00
65.9743 188.00
66.0395 174.00
66.1047 205.00
66.1699 177.00
66.2351 182.00
66.3003 189.00
66.3655 183.00
66.4307 210.00
66.4959 187.00
66.561 179.00
66.6263 192.00
66.6915 194.00
66.7566 166.00
66.8218 188.00
66.887 148.00
66.9522 211.00
67.0174 185.00
67.0826 174.00
67.1478 172.00
67.213 176.00
67.2782 186.00
67.3434 164.00
67.4086 172.00
67.4738 186.00
67.539 165.00
67.6042 178.00
67.6694 205.00
67.7346 180.00
67.7998 172.00
67.865 174.00
67.9302 178.00
67.9954 169.00
68.0606 187.00
68.1258 167.00
68.191 174.00
68.2562 184.00
68.3214 193.00
68.3866 175.00
68.4518 191.00
68.517 156.00
68.5822 162.00
68.6474 199.00
68.7126 176.00
68.7778 166.00
68.843 164.00
68.9082 178.00
68.9734 176.00
69.0386 181.00
69.1038 162.00
69.169 175.00
69.2342 189.00
69.2994 160.00
69.3646 180.00
69.4298 211.00
69.495 194.00
69.5602 211.00
69.6254 174.00
69.6906 177.00
69.7558 165.00
69.821 187.00
69.8862 181.00
69.9514 201.00
70.0166 174.00
70.0818 211.00
70.147 204.00
70.2122 181.00
70.2774 180.00
70.3426 190.00
70.4078 181.00
70.473 178.00
70.5382 185.00
70.6034 150.00
70.6686 165.00
70.7338 187.00
70.799 206.00
70.8642 204.00
70.9294 172.00
70.9946 166.00
71.0598 198.00
71.125 200.00
71.1902 175.00
71.2554 182.00
71.3205 164.00
71.3858 178.00
71.451 170.00
71.5162 192.00
71.5813 161.00
71.6465 193.00
71.7117 179.00
71.7769 193.00
71.8421 189.00
71.9073 179.00
71.9725 185.00
72.0377 171.00
72.1029 180.00
72.1681 147.00
72.2333 205.00
72.2985 188.00
72.3637 187.00
72.4289 178.00
72.4941 190.00
72.5593 171.00
72.6245 174.00
72.6897 186.00
72.7549 172.00
72.8201 182.00
72.8853 187.00
72.9505 173.00
73.0157 169.00
73.0809 211.00
73.1461 206.00
73.2113 180.00
73.2765 189.00
73.3417 177.00
73.4069 196.00
73.4721 178.00
73.5373 192.00
73.6025 166.00
73.6677 186.00
73.7329 174.00
73.7981 182.00
73.8633 181.00
73.9285 183.00
73.9937 179.00
74.0589 213.00
74.1241 185.00
74.1893 212.00
74.2545 185.00
74.3197 170.00
74.3849 194.00
74.4501 195.00
74.5153 191.00
74.5805 182.00
74.6457 183.00
74.7109 182.00
74.7761 211.00
74.8413 160.00
74.9065 175.00
74.9717 203.00
75.0369 205.00
75.1021 175.00
75.1673 179.00
75.2325 198.00
75.2977 224.00
75.3629 178.00
75.4281 216.00
75.4933 196.00
75.5585 196.00
75.6237 203.00
75.6889 198.00
75.7541 220.00
75.8193 217.00
75.8845 218.00
75.9497 205.00
76.0149 210.00
76.0801 202.00
76.1452 217.00
76.2104 205.00
76.2756 197.00
76.3409 202.00
76.406 214.00
76.4712 192.00
76.5364 226.00
76.6016 200.00
76.6668 203.00
76.732 193.00
76.7972 177.00
76.8624 181.00
76.9276 196.00
76.9928 188.00
77.058 189.00
77.1232 190.00
77.1884 182.00
77.2536 197.00
77.3188 200.00
77.384 200.00
77.4492 201.00
77.5144 206.00
77.5796 188.00
77.6448 229.00
77.71 189.00
77.7752 220.00
77.8404 189.00
77.9056 186.00
77.9708 217.00
78.036 211.00
78.1012 193.00
78.1664 185.00
78.2316 212.00
78.2968 209.00
78.362 206.00
78.4272 186.00
78.4924 197.00
78.5576 215.00
78.6228 173.00
78.688 222.00
78.7532 202.00
78.8184 241.00
78.8836 203.00
78.9488 183.00
79.014 195.00
79.0792 218.00
79.1444 230.00
79.2096 222.00
79.2748 212.00
79.34 230.00
79.4052 216.00
79.4704 201.00
79.5356 214.00
79.6008 219.00
79.666 220.00
79.7312 242.00
79.7964 227.00
79.8616 216.00
79.9268 224.00
79.992 199.00
80.0572 237.00
80.1224 194.00
80.1876 221.00
80.2528 212.00
80.318 237.00
80.3832 222.00
80.4484 210.00
80.5136 201.00
80.5788 208.00
80.644 216.00
80.7092 209.00
80.7744 244.00
80.8396 212.00
80.9048 222.00
80.9699 226.00
81.0351 214.00
81.1003 215.00
81.1655 241.00
81.2307 197.00
81.2959 200.00
81.3611 218.00
81.4263 206.00
81.4915 218.00
81.5567 207.00
81.6219 207.00
81.6871 213.00
81.7523 208.00
81.8175 196.00
81.8827 211.00
81.9479 213.00
82.0131 191.00
82.0783 227.00
82.1435 195.00
82.2087 193.00
82.2739 216.00
82.3391 230.00
82.4043 259.00
82.4695 222.00
82.5347 225.00
82.5999 201.00
82.6651 219.00
82.7303 223.00
82.7955 220.00
82.8607 227.00
82.9259 227.00
82.9911 208.00
83.0563 233.00
83.1215 207.00
83.1867 234.00
83.2519 190.00
83.3171 211.00
83.3823 239.00
83.4475 213.00
83.5127 213.00
83.5779 211.00
83.6431 195.00
83.7083 226.00
83.7735 236.00
83.8387 209.00
83.9039 215.00
83.9691 186.00
84.0343 212.00
84.0995 228.00
84.1647 203.00
84.2299 198.00
84.2951 225.00
84.3603 205.00
84.4255 198.00
84.4907 188.00
84.5559 169.00
84.6211 204.00
84.6863 201.00
84.7515 239.00
84.8167 217.00
84.8819 186.00
84.9471 200.00
85.0123 201.00
85.0775 215.00
85.1427 201.00
85.2079 207.00
85.2731 196.00
85.3383 227.00
85.4035 214.00
85.4687 200.00
85.5339 212.00
85.5991 234.00
85.6643 190.00
85.7295 217.00
85.7946 205.00
85.8598 208.00
85.925 202.00
85.9903 191.00
86.0554 220.00
86.1206 198.00
86.1858 242.00
86.251 187.00
86.3162 198.00
86.3814 200.00
86.4466 201.00
86.5118 209.00
86.577 181.00
86.6422 202.00
86.7074 200.00
86.7726 223.00
86.8378 185.00
86.903 194.00
86.9682 200.00
87.0334 190.00
87.0986 172.00
87.1638 191.00
87.229 182.00
87.2942 187.00
87.3594 173.00
87.4246 177.00
87.4898 182.00
87.555 186.00
87.6202 201.00
87.6854 193.00
87.7506 150.00
87.8158 172.00
87.881 178.00
87.9462 206.00
88.0114 191.00
88.0766 195.00
88.1418 208.00
88.207 186.00
88.2722 189.00
88.3374 177.00
88.4026 200.00
88.4678 202.00
88.533 164.00
88.5982 174.00
88.6634 198.00
88.7286 200.00
88.7938 180.00
88.859 172.00
88.9242 183.00
88.9894 187.00
89.0546 198.00
89.1198 181.00
89.185 176.00
89.2502 193.00
89.3154 186.00
89.3806 176.00
89.4458 174.00
89.511 180.00
89.5762 192.00
89.6414 179.00
89.7066 187.00
89.7718 171.00
89.837 185.00
89.9022 194.00
89.9674 167.00
90.0326 180.00
90.0978 177.00
90.163 194.00
90.2282 169.00
90.2934 154.00
90.3586 210.00
90.4238 162.00
90.489 196.00
90.5542 195.00
90.6193 198.00
90.6845 195.00
90.7497 181.00
90.8149 178.00
90.8801 196.00
90.9453 165.00
91.0105 184.00
91.0757 183.00
91.1409 176.00
91.2061 172.00
91.2713 174.00
91.3365 191.00
91.4017 188.00
91.4669 175.00
91.5321 164.00
91.5973 183.00
91.6625 180.00
91.7277 179.00
91.7929 173.00
91.8581 177.00
91.9233 201.00
91.9885 187.00
92.0537 182.00
92.1189 170.00
92.1841 175.00
92.2493 153.00
92.3145 203.00
92.3797 183.00
92.4449 185.00
92.5101 177.00
92.5753 168.00
92.6405 170.00
92.7057 187.00
92.7709 201.00
92.8361 179.00
92.9013 185.00
92.9665 162.00
93.0317 159.00
93.0969 168.00
93.1621 171.00
93.2273 178.00
93.2925 174.00
93.3577 185.00
93.4229 183.00
93.4881 190.00
93.5533 201.00
93.6185 162.00
93.6837 181.00
93.7489 172.00
93.8141 181.00
93.8793 165.00
93.9445 172.00
94.0097 195.00
94.0749 186.00
94.1401 163.00
94.2053 175.00
94.2705 210.00
94.3357 170.00
94.4009 171.00
94.4661 136.00
94.5313 197.00
94.5965 185.00
94.6617 171.00
94.7269 179.00
94.7921 151.00
94.8573 196.00
94.9225 178.00
94.9877 173.00
95.0529 172.00
95.1181 183.00
95.1833 184.00
95.2485 176.00
95.3137 185.00
95.3789 180.00
95.444 175.00
95.5092 168.00
95.5744 164.00
95.6396 190.00
95.7048 156.00
95.77 167.00
95.8352 202.00
95.9004 187.00
95.9656 184.00
96.0308 166.00
96.096 172.00
96.1612 180.00
96.2264 173.00
96.2916 200.00
96.3568 159.00
96.422 166.00
96.4872 181.00
96.5524 158.00
96.6176 195.00
96.6828 159.00
96.748 147.00
96.8132 191.00
96.8784 173.00
96.9436 164.00
97.0088 185.00
97.074 165.00
97.1392 152.00
97.2044 153.00
97.2696 166.00
97.3348 205.00
97.4 157.00
97.4652 186.00
97.5304 190.00
97.5956 146.00
97.6608 168.00
97.726 214.00
97.7912 168.00
97.8564 165.00
97.9216 174.00
97.9868 170.00
98.052 186.00
98.1172 146.00
98.1824 175.00
98.2476 171.00
98.3128 169.00
98.378 182.00
98.4432 155.00
98.5084 173.00
98.5736 173.00
98.6388 160.00
98.704 201.00
98.7692 185.00
98.8344 182.00
98.8996 206.00
98.9648 143.00
99.03 162.00
99.0952 167.00
99.1604 153.00
99.2256 152.00
99.2908 185.00
99.356 166.00
99.4212 146.00
99.4864 154.00
99.5516 164.00
99.6168 165.00
99.682 174.00
99.7472 154.00
99.8124 151.00
99.8776 181.00
99.9428 169.00
100.008 172.00
100.073 164.00
100.095 181.00