File: data/xrd_creation/results/Na_31.xy
9.903433 2776.00
9.968632 2598.00
10.0338 2625.00
10.099 2642.00
10.1642 2554.00
10.2294 2499.00
10.2946 2508.00
10.3598 2539.00
10.425 2430.00
10.4902 2532.00
10.5554 2430.00
10.6206 2379.00
10.6858 2345.00
10.751 2343.00
10.8162 2380.00
10.8814 2351.00
10.9466 2284.00
11.0118 2170.00
11.077 2199.00
11.1422 2203.00
11.2074 2181.00
11.2726 2138.00
11.3378 2113.00
11.403 2129.00
11.4682 2085.00
11.5334 2060.00
11.5986 2024.00
11.6638 2020.00
11.729 2058.00
11.7942 1934.00
11.8594 1996.00
11.9246 1811.00
11.9898 1900.00
12.055 1891.00
12.1202 1899.00
12.1854 1879.00
12.2506 1827.00
12.3158 1909.00
12.381 1803.00
12.4462 1755.00
12.5114 1759.00
12.5766 1876.00
12.6418 1786.00
12.707 1708.00
12.7722 1735.00
12.8374 1806.00
12.9026 1730.00
12.9678 1775.00
13.033 1660.00
13.0982 1633.00
13.1634 1660.00
13.2286 1602.00
13.2938 1632.00
13.359 1597.00
13.4242 1613.00
13.4894 1624.00
13.5546 1636.00
13.6198 1558.00
13.685 1503.00
13.7502 1542.00
13.8154 1613.00
13.8805 1526.00
13.9457 1528.00
14.0109 1504.00
14.0761 1548.00
14.1413 1533.00
14.2065 1455.00
14.2717 1479.00
14.3369 1484.00
14.4021 1463.00
14.4673 1505.00
14.5325 1447.00
14.5977 1468.00
14.6629 1496.00
14.7281 1436.00
14.7933 1447.00
14.8585 1370.00
14.9237 1379.00
14.9889 1387.00
15.0541 1401.00
15.1193 1365.00
15.1845 1418.00
15.2497 1420.00
15.3149 1350.00
15.3801 1419.00
15.4453 1308.00
15.5105 1320.00
15.5757 1310.00
15.6409 1324.00
15.7061 1329.00
15.7713 1320.00
15.8365 1288.00
15.9017 1302.00
15.9669 1257.00
16.0321 1303.00
16.0973 1274.00
16.1625 1331.00
16.2277 1260.00
16.2929 1236.00
16.3581 1301.00
16.4233 1218.00
16.4885 1216.00
16.5537 1310.00
16.6189 1255.00
16.6841 1307.00
16.7493 1222.00
16.8145 1253.00
16.8797 1221.00
16.9449 1228.00
17.0101 1225.00
17.0753 1229.00
17.1405 1244.00
17.2057 1246.00
17.2709 1154.00
17.3361 1238.00
17.4013 1224.00
17.4665 1165.00
17.5317 1142.00
17.5969 1195.00
17.6621 1182.00
17.7273 1174.00
17.7925 1184.00
17.8577 1129.00
17.9229 1176.00
17.9881 1145.00
18.0533 1104.00
18.1185 1090.00
18.1837 1051.00
18.2489 1177.00
18.3141 1139.00
18.3793 1092.00
18.4445 1125.00
18.5097 1054.00
18.5749 1119.00
18.6401 1027.00
18.7052 1088.00
18.7704 1055.00
18.8356 1098.00
18.9008 1089.00
18.966 993.00
19.0312 1051.00
19.0964 1019.00
19.1616 1019.00
19.2268 1015.00
19.292 1072.00
19.3572 1016.00
19.4224 988.00
19.4876 974.00
19.5528 1007.00
19.618 986.00
19.6832 1022.00
19.7484 1042.00
19.8136 948.00
19.8788 996.00
19.944 989.00
20.0092 1019.00
20.0744 976.00
20.1396 1047.00
20.2048 953.00
20.27 882.00
20.3352 965.00
20.4004 924.00
20.4656 969.00
20.5308 976.00
20.596 956.00
20.6612 980.00
20.7264 927.00
20.7916 938.00
20.8568 975.00
20.922 926.00
20.9872 931.00
21.0524 943.00
21.1176 879.00
21.1828 903.00
21.248 947.00
21.3132 914.00
21.3784 963.00
21.4436 904.00
21.5088 815.00
21.574 928.00
21.6392 914.00
21.7044 882.00
21.7696 860.00
21.8348 864.00
21.9 871.00
21.9652 901.00
22.0304 874.00
22.0956 906.00
22.1608 869.00
22.226 918.00
22.2912 890.00
22.3564 856.00
22.4216 806.00
22.4868 812.00
22.552 910.00
22.6172 918.00
22.6824 846.00
22.7476 861.00
22.8128 810.00
22.878 879.00
22.9432 803.00
23.0084 799.00
23.0736 896.00
23.1388 825.00
23.204 855.00
23.2692 810.00
23.3344 813.00
23.3996 852.00
23.4647 827.00
23.5299 829.00
23.5951 806.00
23.6603 731.00
23.7255 841.00
23.7907 733.00
23.8559 747.00
23.9211 801.00
23.9863 807.00
24.0515 746.00
24.1167 790.00
24.1819 786.00
24.2471 803.00
24.3123 755.00
24.3775 773.00
24.4427 795.00
24.5079 812.00
24.5731 732.00
24.6383 792.00
24.7035 778.00
24.7687 777.00
24.8339 740.00
24.8991 726.00
24.9643 766.00
25.0295 737.00
25.0947 769.00
25.1599 741.00
25.2251 739.00
25.2903 708.00
25.3555 762.00
25.4207 768.00
25.4859 753.00
25.5511 709.00
25.6163 745.00
25.6815 759.00
25.7467 749.00
25.8119 719.00
25.8771 741.00
25.9423 688.00
26.0075 709.00
26.0727 772.00
26.1379 735.00
26.2031 748.00
26.2683 836.00
26.3335 994.00
26.3987 1131.00
26.4639 1117.00
26.5291 840.00
26.5943 750.00
26.6595 712.00
26.7247 723.00
26.7899 686.00
26.8551 679.00
26.9203 670.00
26.9855 711.00
27.0507 671.00
27.1159 623.00
27.1811 674.00
27.2463 686.00
27.3115 694.00
27.3767 705.00
27.4419 693.00
27.5071 757.00
27.5723 770.00
27.6375 661.00
27.7027 705.00
27.7679 689.00
27.8331 677.00
27.8983 664.00
27.9635 717.00
28.0287 695.00
28.0939 682.00
28.1591 706.00
28.2243 695.00
28.2894 736.00
28.3546 733.00
28.4198 758.00
28.485 689.00
28.5502 697.00
28.6154 797.00
28.6806 793.00
28.7458 963.00
28.811 1106.00
28.8762 1107.00
28.9414 1017.00
29.0066 877.00
29.0718 728.00
29.137 666.00
29.2022 665.00
29.2674 604.00
29.3326 648.00
29.3978 651.00
29.463 596.00
29.5282 594.00
29.5934 616.00
29.6586 639.00
29.7238 647.00
29.789 650.00
29.8542 636.00
29.9194 636.00
29.9846 661.00
30.0498 664.00
30.115 633.00
30.1802 647.00
30.2454 669.00
30.3106 682.00
30.3758 706.00
30.441 671.00
30.5062 639.00
30.5714 640.00
30.6366 613.00
30.7018 582.00
30.767 549.00
30.8322 575.00
30.8974 511.00
30.9626 552.00
31.0278 567.00
31.093 541.00
31.1582 596.00
31.2234 574.00
31.2886 595.00
31.3538 594.00
31.419 587.00
31.4842 602.00
31.5494 623.00
31.6146 598.00
31.6798 630.00
31.745 565.00
31.8102 580.00
31.8754 615.00
31.9406 536.00
32.0058 568.00
32.071 608.00
32.1362 547.00
32.2014 519.00
32.2666 545.00
32.3318 577.00
32.397 542.00
32.4622 522.00
32.5274 534.00
32.5926 548.00
32.6578 590.00
32.723 586.00
32.7882 648.00
32.8534 554.00
32.9186 592.00
32.9838 514.00
33.0489 550.00
33.1141 533.00
33.1793 570.00
33.2445 564.00
33.3097 539.00
33.3749 665.00
33.4401 728.00
33.5053 680.00
33.5705 721.00
33.6357 807.00
33.7009 865.00
33.7661 704.00
33.8313 579.00
33.8965 520.00
33.9617 519.00
34.0269 524.00
34.0921 573.00
34.1573 506.00
34.2225 493.00
34.2877 517.00
34.3529 460.00
34.4181 544.00
34.4833 515.00
34.5485 473.00
34.6137 508.00
34.6789 500.00
34.7441 460.00
34.8093 423.00
34.8745 505.00
34.9397 475.00
35.0049 443.00
35.0701 451.00
35.1353 469.00
35.2005 517.00
35.2657 480.00
35.3309 502.00
35.3961 495.00
35.4613 468.00
35.5265 424.00
35.5917 481.00
35.6569 502.00
35.7221 418.00
35.7873 449.00
35.8525 425.00
35.9177 479.00
35.9829 460.00
36.0481 422.00
36.1133 426.00
36.1785 475.00
36.2437 432.00
36.3089 436.00
36.3741 432.00
36.4393 464.00
36.5045 433.00
36.5697 474.00
36.6349 470.00
36.7001 478.00
36.7653 431.00
36.8305 475.00
36.8957 417.00
36.9609 428.00
37.0261 413.00
37.0913 446.00
37.1565 471.00
37.2217 448.00
37.2869 443.00
37.3521 408.00
37.4173 456.00
37.4825 447.00
37.5477 414.00
37.6129 430.00
37.6781 451.00
37.7433 494.00
37.8085 544.00
37.8736 413.00
37.9388 468.00
38.004 390.00
38.0692 395.00
38.1344 409.00
38.1996 433.00
38.2648 389.00
38.33 406.00
38.3952 398.00
38.4604 398.00
38.5256 398.00
38.5908 394.00
38.656 376.00
38.7212 417.00
38.7864 454.00
38.8516 427.00
38.9168 387.00
38.982 409.00
39.0472 396.00
39.1124 375.00
39.1776 387.00
39.2428 404.00
39.308 421.00
39.3732 365.00
39.4384 407.00
39.5036 361.00
39.5688 386.00
39.634 386.00
39.6992 367.00
39.7644 374.00
39.8296 361.00
39.8948 358.00
39.96 370.00
40.0252 401.00
40.0904 393.00
40.1556 356.00
40.2208 381.00
40.286 419.00
40.3512 368.00
40.4164 376.00
40.4816 384.00
40.5468 398.00
40.612 324.00
40.6772 363.00
40.7424 371.00
40.8076 348.00
40.8728 380.00
40.938 391.00
41.0032 386.00
41.0684 347.00
41.1336 383.00
41.1988 356.00
41.264 348.00
41.3292 338.00
41.3944 384.00
41.4596 372.00
41.5248 384.00
41.59 396.00
41.6552 394.00
41.7204 357.00
41.7856 356.00
41.8508 371.00
41.916 338.00
41.9812 349.00
42.0464 351.00
42.1116 341.00
42.1768 339.00
42.242 349.00
42.3072 349.00
42.3724 338.00
42.4376 360.00
42.5028 375.00
42.568 366.00
42.6332 395.00
42.6983 364.00
42.7635 377.00
42.8287 345.00
42.8939 376.00
42.9591 350.00
43.0243 355.00
43.0895 395.00
43.1547 329.00
43.2199 346.00
43.2851 317.00
43.3503 389.00
43.4155 357.00
43.4807 358.00
43.5459 347.00
43.6111 360.00
43.6763 334.00
43.7415 341.00
43.8067 349.00
43.8719 337.00
43.9371 341.00
44.0023 316.00
44.0675 350.00
44.1327 315.00
44.1979 361.00
44.2631 340.00
44.3283 326.00
44.3935 308.00
44.4587 316.00
44.5239 330.00
44.5891 295.00
44.6543 331.00
44.7195 337.00
44.7847 345.00
44.8499 362.00
44.9151 338.00
44.9803 318.00
45.0455 344.00
45.1107 345.00
45.1759 320.00
45.2411 314.00
45.3063 308.00
45.3715 301.00
45.4367 340.00
45.5019 336.00
45.5671 355.00
45.6323 321.00
45.6975 350.00
45.7627 280.00
45.8279 310.00
45.8931 315.00
45.9583 363.00
46.0235 330.00
46.0887 324.00
46.1539 315.00
46.2191 342.00
46.2843 315.00
46.3495 322.00
46.4147 319.00
46.4799 328.00
46.5451 327.00
46.6103 324.00
46.6755 349.00
46.7407 332.00
46.8059 338.00
46.8711 301.00
46.9363 314.00
47.0015 326.00
47.0667 322.00
47.1319 340.00
47.1971 330.00
47.2623 317.00
47.3275 317.00
47.3927 327.00
47.4579 316.00
47.523 307.00
47.5882 337.00
47.6534 286.00
47.7186 339.00
47.7838 319.00
47.849 290.00
47.9142 318.00
47.9794 305.00
48.0446 390.00
48.1098 395.00
48.175 396.00
48.2402 397.00
48.3054 371.00
48.3706 352.00
48.4358 341.00
48.501 337.00
48.5662 313.00
48.6314 300.00
48.6966 298.00
48.7618 314.00
48.827 325.00
48.8922 318.00
48.9574 293.00
49.0226 290.00
49.0878 314.00
49.153 311.00
49.2182 309.00
49.2834 325.00
49.3486 288.00
49.4138 322.00
49.479 308.00
49.5442 307.00
49.6094 302.00
49.6746 282.00
49.7398 303.00
49.805 269.00
49.8702 280.00
49.9354 324.00
50.0006 277.00
50.0658 288.00
50.131 310.00
50.1962 285.00
50.2614 297.00
50.3266 328.00
50.3918 295.00
50.457 289.00
50.5222 289.00
50.5874 332.00
50.6526 295.00
50.7178 284.00
50.783 297.00
50.8482 327.00
50.9134 324.00
50.9786 311.00
51.0438 297.00
51.109 307.00
51.1742 284.00
51.2394 300.00
51.3046 317.00
51.3698 295.00
51.435 340.00
51.5002 345.00
51.5654 476.00
51.6306 453.00
51.6958 419.00
51.761 375.00
51.8262 367.00
51.8914 341.00
51.9566 289.00
52.0218 285.00
52.087 286.00
52.1522 278.00
52.2174 299.00
52.2826 271.00
52.3477 327.00
52.4129 300.00
52.4781 259.00
52.5433 257.00
52.6085 287.00
52.6737 264.00
52.7389 296.00
52.8041 264.00
52.8693 274.00
52.9345 311.00
52.9997 278.00
53.0649 310.00
53.1301 264.00
53.1953 247.00
53.2605 297.00
53.3257 317.00
53.3909 250.00
53.4561 262.00
53.5213 267.00
53.5865 279.00
53.6517 283.00
53.7169 234.00
53.7821 263.00
53.8473 237.00
53.9125 279.00
53.9777 261.00
54.0429 285.00
54.1081 270.00
54.1733 244.00
54.2385 248.00
54.3037 273.00
54.3689 272.00
54.4341 309.00
54.4993 276.00
54.5645 294.00
54.6297 332.00
54.6949 292.00
54.7601 295.00
54.8253 258.00
54.8905 263.00
54.9557 306.00
55.0209 232.00
55.0861 271.00
55.1513 254.00
55.2165 288.00
55.2817 302.00
55.3469 231.00
55.4121 272.00
55.4773 257.00
55.5425 264.00
55.6077 273.00
55.6729 239.00
55.7381 260.00
55.8033 237.00
55.8685 264.00
55.9337 232.00
55.9989 232.00
56.0641 249.00
56.1293 245.00
56.1945 270.00
56.2597 271.00
56.3249 260.00
56.3901 264.00
56.4553 245.00
56.5205 274.00
56.5857 247.00
56.6509 268.00
56.7161 287.00
56.7813 249.00
56.8465 238.00
56.9117 248.00
56.9769 273.00
57.042 285.00
57.1073 314.00
57.1724 355.00
57.2376 342.00
57.3028 328.00
57.368 296.00
57.4332 288.00
57.4984 265.00
57.5636 261.00
57.6288 231.00
57.694 236.00
57.7592 251.00
57.8244 257.00
57.8896 229.00
57.9548 233.00
58.02 256.00
58.0852 244.00
58.1504 230.00
58.2156 227.00
58.2808 222.00
58.346 235.00
58.4112 231.00
58.4764 225.00
58.5416 209.00
58.6068 221.00
58.672 235.00
58.7372 221.00
58.8024 248.00
58.8676 232.00
58.9328 217.00
58.998 226.00
59.0632 242.00
59.1284 224.00
59.1936 228.00
59.2588 240.00
59.324 218.00
59.3892 238.00
59.4544 218.00
59.5196 212.00
59.5848 233.00
59.65 197.00
59.7152 218.00
59.7804 233.00
59.8456 258.00
59.9108 231.00
59.976 237.00
60.0412 259.00
60.1064 246.00
60.1716 246.00
60.2368 223.00
60.302 246.00
60.3672 226.00
60.4324 217.00
60.4976 227.00
60.5628 217.00
60.628 203.00
60.6932 214.00
60.7584 247.00
60.8236 204.00
60.8888 203.00
60.954 220.00
61.0192 231.00
61.0844 220.00
61.1496 227.00
61.2148 208.00
61.28 213.00
61.3452 213.00
61.4104 223.00
61.4756 201.00
61.5408 240.00
61.606 250.00
61.6712 258.00
61.7364 244.00
61.8016 220.00
61.8667 238.00
61.932 264.00
61.9971 273.00
62.0623 218.00
62.1275 261.00
62.1927 212.00
62.2579 222.00
62.3231 244.00
62.3883 214.00
62.4535 227.00
62.5187 211.00
62.5839 195.00
62.6491 206.00
62.7143 205.00
62.7795 215.00
62.8447 230.00
62.9099 212.00
62.9751 227.00
63.0403 204.00
63.1055 210.00
63.1707 216.00
63.2359 222.00
63.3011 233.00
63.3663 228.00
63.4315 207.00
63.4967 217.00
63.5619 246.00
63.6271 195.00
63.6923 222.00
63.7575 226.00
63.8227 213.00
63.8879 206.00
63.9531 204.00
64.0183 215.00
64.0835 237.00
64.1487 204.00
64.2139 218.00
64.2791 215.00
64.3443 215.00
64.4095 229.00
64.4747 240.00
64.5399 205.00
64.6051 247.00
64.6703 233.00
64.7355 233.00
64.8007 226.00
64.8659 205.00
64.9311 207.00
64.9963 227.00
65.0615 203.00
65.1267 227.00
65.1919 249.00
65.2571 217.00
65.3223 228.00
65.3875 258.00
65.4527 216.00
65.5179 214.00
65.5831 185.00
65.6483 227.00
65.7135 228.00
65.7787 245.00
65.8439 234.00
65.9091 245.00
65.9743 221.00
66.0395 228.00
66.1047 206.00
66.1699 193.00
66.2351 213.00
66.3003 201.00
66.3655 193.00
66.4307 172.00
66.4959 204.00
66.561 191.00
66.6263 190.00
66.6915 187.00
66.7566 181.00
66.8218 194.00
66.887 216.00
66.9522 204.00
67.0174 218.00
67.0826 205.00
67.1478 199.00
67.213 211.00
67.2782 194.00
67.3434 209.00
67.4086 197.00
67.4738 204.00
67.539 220.00
67.6042 210.00
67.6694 200.00
67.7346 204.00
67.7998 200.00
67.865 229.00
67.9302 220.00
67.9954 210.00
68.0606 206.00
68.1258 203.00
68.191 208.00
68.2562 197.00
68.3214 184.00
68.3866 197.00
68.4518 185.00
68.517 173.00
68.5822 210.00
68.6474 204.00
68.7126 199.00
68.7778 216.00
68.843 185.00
68.9082 199.00
68.9734 187.00
69.0386 203.00
69.1038 205.00
69.169 193.00
69.2342 192.00
69.2994 204.00
69.3646 181.00
69.4298 205.00
69.495 213.00
69.5602 213.00
69.6254 181.00
69.6906 195.00
69.7558 202.00
69.821 178.00
69.8862 219.00
69.9514 203.00
70.0166 209.00
70.0818 201.00
70.147 204.00
70.2122 219.00
70.2774 205.00
70.3426 202.00
70.4078 191.00
70.473 217.00
70.5382 191.00
70.6034 221.00
70.6686 209.00
70.7338 220.00
70.799 215.00
70.8642 223.00
70.9294 210.00
70.9946 208.00
71.0598 227.00
71.125 221.00
71.1902 264.00
71.2554 241.00
71.3205 207.00
71.3858 220.00
71.451 208.00
71.5162 195.00
71.5813 212.00
71.6465 194.00
71.7117 222.00
71.7769 194.00
71.8421 259.00
71.9073 200.00
71.9725 193.00
72.0377 219.00
72.1029 217.00
72.1681 193.00
72.2333 230.00
72.2985 214.00
72.3637 212.00
72.4289 194.00
72.4941 227.00
72.5593 216.00
72.6245 208.00
72.6897 205.00
72.7549 200.00
72.8201 236.00
72.8853 206.00
72.9505 190.00
73.0157 204.00
73.0809 207.00
73.1461 212.00
73.2113 217.00
73.2765 224.00
73.3417 204.00
73.4069 208.00
73.4721 215.00
73.5373 224.00
73.6025 207.00
73.6677 198.00
73.7329 214.00
73.7981 224.00
73.8633 225.00
73.9285 188.00
73.9937 221.00
74.0589 225.00
74.1241 217.00
74.1893 227.00
74.2545 224.00
74.3197 216.00
74.3849 213.00
74.4501 198.00
74.5153 231.00
74.5805 216.00
74.6457 205.00
74.7109 209.00
74.7761 223.00
74.8413 205.00
74.9065 213.00
74.9717 224.00
75.0369 225.00
75.1021 223.00
75.1673 212.00
75.2325 209.00
75.2977 215.00
75.3629 219.00
75.4281 218.00
75.4933 212.00
75.5585 233.00
75.6237 180.00
75.6889 209.00
75.7541 226.00
75.8193 213.00
75.8845 234.00
75.9497 247.00
76.0149 214.00
76.0801 233.00
76.1452 211.00
76.2104 196.00
76.2756 226.00
76.3409 230.00
76.406 264.00
76.4712 211.00
76.5364 227.00
76.6016 228.00
76.6668 239.00
76.732 207.00
76.7972 210.00
76.8624 238.00
76.9276 202.00
76.9928 240.00
77.058 216.00
77.1232 205.00
77.1884 232.00
77.2536 227.00
77.3188 194.00
77.384 230.00
77.4492 257.00
77.5144 216.00
77.5796 231.00
77.6448 237.00
77.71 232.00
77.7752 242.00
77.8404 232.00
77.9056 250.00
77.9708 243.00
78.036 233.00
78.1012 256.00
78.1664 224.00
78.2316 248.00
78.2968 272.00
78.362 242.00
78.4272 246.00
78.4924 301.00
78.5576 284.00
78.6228 249.00
78.688 273.00
78.7532 258.00
78.8184 224.00
78.8836 262.00
78.9488 257.00
79.014 258.00
79.0792 233.00
79.1444 228.00
79.2096 221.00
79.2748 246.00
79.34 281.00
79.4052 224.00
79.4704 228.00
79.5356 246.00
79.6008 225.00
79.666 242.00
79.7312 232.00
79.7964 263.00
79.8616 263.00
79.9268 239.00
79.992 242.00
80.0572 239.00
80.1224 241.00
80.1876 249.00
80.2528 225.00
80.318 262.00
80.3832 281.00
80.4484 261.00
80.5136 281.00
80.5788 277.00
80.644 285.00
80.7092 275.00
80.7744 225.00
80.8396 262.00
80.9048 233.00
80.9699 229.00
81.0351 264.00
81.1003 270.00
81.1655 237.00
81.2307 248.00
81.2959 228.00
81.3611 214.00
81.4263 270.00
81.4915 228.00
81.5567 270.00
81.6219 215.00
81.6871 213.00
81.7523 230.00
81.8175 262.00
81.8827 230.00
81.9479 228.00
82.0131 223.00
82.0783 262.00
82.1435 268.00
82.2087 236.00
82.2739 248.00
82.3391 210.00
82.4043 210.00
82.4695 258.00
82.5347 239.00
82.5999 244.00
82.6651 256.00
82.7303 224.00
82.7955 236.00
82.8607 249.00
82.9259 264.00
82.9911 257.00
83.0563 243.00
83.1215 234.00
83.1867 277.00
83.2519 187.00
83.3171 220.00
83.3823 221.00
83.4475 266.00
83.5127 227.00
83.5779 216.00
83.6431 284.00
83.7083 227.00
83.7735 235.00
83.8387 232.00
83.9039 259.00
83.9691 217.00
84.0343 238.00
84.0995 233.00
84.1647 209.00
84.2299 216.00
84.2951 228.00
84.3603 206.00
84.4255 214.00
84.4907 218.00
84.5559 200.00
84.6211 267.00
84.6863 211.00
84.7515 225.00
84.8167 228.00
84.8819 220.00
84.9471 226.00
85.0123 229.00
85.0775 210.00
85.1427 226.00
85.2079 217.00
85.2731 215.00
85.3383 228.00
85.4035 230.00
85.4687 226.00
85.5339 209.00
85.5991 213.00
85.6643 217.00
85.7295 230.00
85.7946 194.00
85.8598 190.00
85.925 198.00
85.9903 238.00
86.0554 204.00
86.1206 220.00
86.1858 208.00
86.251 213.00
86.3162 227.00
86.3814 235.00
86.4466 219.00
86.5118 207.00
86.577 213.00
86.6422 206.00
86.7074 224.00
86.7726 217.00
86.8378 189.00
86.903 193.00
86.9682 202.00
87.0334 217.00
87.0986 197.00
87.1638 177.00
87.229 200.00
87.2942 224.00
87.3594 187.00
87.4246 217.00
87.4898 186.00
87.555 192.00
87.6202 207.00
87.6854 228.00
87.7506 226.00
87.8158 218.00
87.881 220.00
87.9462 209.00
88.0114 210.00
88.0766 202.00
88.1418 189.00
88.207 204.00
88.2722 187.00
88.3374 214.00
88.4026 218.00
88.4678 203.00
88.533 198.00
88.5982 185.00
88.6634 173.00
88.7286 175.00
88.7938 184.00
88.859 229.00
88.9242 178.00
88.9894 208.00
89.0546 190.00
89.1198 189.00
89.185 225.00
89.2502 189.00
89.3154 186.00
89.3806 196.00
89.4458 191.00
89.511 205.00
89.5762 185.00
89.6414 212.00
89.7066 220.00
89.7718 196.00
89.837 214.00
89.9022 219.00
89.9674 218.00
90.0326 230.00
90.0978 201.00
90.163 199.00
90.2282 199.00
90.2934 192.00
90.3586 180.00
90.4238 195.00
90.489 195.00
90.5542 174.00
90.6193 196.00
90.6845 185.00
90.7497 217.00
90.8149 208.00
90.8801 154.00
90.9453 194.00
91.0105 184.00
91.0757 196.00
91.1409 191.00
91.2061 180.00
91.2713 196.00
91.3365 202.00
91.4017 190.00
91.4669 195.00
91.5321 178.00
91.5973 221.00
91.6625 171.00
91.7277 202.00
91.7929 171.00
91.8581 178.00
91.9233 190.00
91.9885 160.00
92.0537 199.00
92.1189 193.00
92.1841 208.00
92.2493 195.00
92.3145 176.00
92.3797 208.00
92.4449 192.00
92.5101 195.00
92.5753 207.00
92.6405 189.00
92.7057 177.00
92.7709 211.00
92.8361 182.00
92.9013 208.00
92.9665 193.00
93.0317 183.00
93.0969 179.00
93.1621 176.00
93.2273 192.00
93.2925 201.00
93.3577 198.00
93.4229 190.00
93.4881 193.00
93.5533 197.00
93.6185 198.00
93.6837 194.00
93.7489 193.00
93.8141 186.00
93.8793 175.00
93.9445 204.00
94.0097 204.00
94.0749 177.00
94.1401 203.00
94.2053 202.00
94.2705 196.00
94.3357 180.00
94.4009 174.00
94.4661 205.00
94.5313 193.00
94.5965 189.00
94.6617 217.00
94.7269 170.00
94.7921 218.00
94.8573 184.00
94.9225 174.00
94.9877 176.00
95.0529 176.00
95.1181 195.00
95.1833 190.00
95.2485 185.00
95.3137 173.00
95.3789 185.00
95.444 162.00
95.5092 204.00
95.5744 172.00
95.6396 188.00
95.7048 172.00
95.77 197.00
95.8352 173.00
95.9004 167.00
95.9656 180.00
96.0308 195.00
96.096 202.00
96.1612 176.00
96.2264 196.00
96.2916 182.00
96.3568 205.00
96.422 180.00
96.4872 192.00
96.5524 213.00
96.6176 199.00
96.6828 179.00
96.748 195.00
96.8132 180.00
96.8784 193.00
96.9436 170.00
97.0088 221.00
97.074 209.00
97.1392 177.00
97.2044 156.00
97.2696 181.00
97.3348 207.00
97.4 188.00
97.4652 192.00
97.5304 179.00
97.5956 175.00
97.6608 206.00
97.726 200.00
97.7912 194.00
97.8564 195.00
97.9216 217.00
97.9868 172.00
98.052 209.00
98.1172 175.00
98.1824 199.00
98.2476 182.00
98.3128 193.00
98.378 175.00
98.4432 190.00
98.5084 189.00
98.5736 176.00
98.6388 176.00
98.704 187.00
98.7692 188.00
98.8344 198.00
98.8996 155.00
98.9648 191.00
99.03 204.00
99.0952 192.00
99.1604 191.00
99.2256 201.00
99.2908 184.00
99.356 191.00
99.4212 208.00
99.4864 175.00
99.5516 198.00
99.6168 181.00
99.682 210.00
99.7472 211.00
99.8124 192.00
99.8776 172.00
99.9428 189.00
100.008 189.00
100.073 175.00
100.095 181.00