File: data/xrd_creation/results/Na_310.xy
9.903433 3005.00
9.968632 2952.00
10.0338 3051.00
10.099 2882.00
10.1642 2883.00
10.2294 2891.00
10.2946 2986.00
10.3598 2914.00
10.425 2799.00
10.4902 2856.00
10.5554 2915.00
10.6206 2938.00
10.6858 2865.00
10.751 2803.00
10.8162 2827.00
10.8814 2769.00
10.9466 2938.00
11.0118 2844.00
11.077 2754.00
11.1422 2762.00
11.2074 2753.00
11.2726 2741.00
11.3378 2785.00
11.403 2755.00
11.4682 2743.00
11.5334 2672.00
11.5986 2734.00
11.6638 2711.00
11.729 2785.00
11.7942 2704.00
11.8594 2700.00
11.9246 2702.00
11.9898 2621.00
12.055 2663.00
12.1202 2686.00
12.1854 2646.00
12.2506 2727.00
12.3158 2621.00
12.381 2622.00
12.4462 2543.00
12.5114 2508.00
12.5766 2625.00
12.6418 2564.00
12.707 2623.00
12.7722 2623.00
12.8374 2574.00
12.9026 2606.00
12.9678 2592.00
13.033 2627.00
13.0982 2496.00
13.1634 2536.00
13.2286 2583.00
13.2938 2609.00
13.359 2516.00
13.4242 2586.00
13.4894 2616.00
13.5546 2516.00
13.6198 2546.00
13.685 2565.00
13.7502 2468.00
13.8154 2476.00
13.8805 2547.00
13.9457 2576.00
14.0109 2422.00
14.0761 2540.00
14.1413 2486.00
14.2065 2456.00
14.2717 2442.00
14.3369 2558.00
14.4021 2636.00
14.4673 2491.00
14.5325 2499.00
14.5977 2553.00
14.6629 2516.00
14.7281 2541.00
14.7933 2495.00
14.8585 2478.00
14.9237 2482.00
14.9889 2595.00
15.0541 2601.00
15.1193 2608.00
15.1845 2508.00
15.2497 2455.00
15.3149 2550.00
15.3801 2602.00
15.4453 2574.00
15.5105 2681.00
15.5757 2539.00
15.6409 2586.00
15.7061 2501.00
15.7713 2546.00
15.8365 2517.00
15.9017 2525.00
15.9669 2391.00
16.0321 2560.00
16.0973 2437.00
16.1625 2628.00
16.2277 2549.00
16.2929 2590.00
16.3581 2557.00
16.4233 2584.00
16.4885 2578.00
16.5537 2623.00
16.6189 2632.00
16.6841 2629.00
16.7493 2645.00
16.8145 2508.00
16.8797 2640.00
16.9449 2627.00
17.0101 2574.00
17.0753 2624.00
17.1405 2588.00
17.2057 2690.00
17.2709 2608.00
17.3361 2598.00
17.4013 2661.00
17.4665 2622.00
17.5317 2600.00
17.5969 2588.00
17.6621 2592.00
17.7273 2671.00
17.7925 2677.00
17.8577 2743.00
17.9229 2666.00
17.9881 2669.00
18.0533 2662.00
18.1185 2693.00
18.1837 2686.00
18.2489 2647.00
18.3141 2732.00
18.3793 2811.00
18.4445 2745.00
18.5097 2678.00
18.5749 2764.00
18.6401 2782.00
18.7052 2773.00
18.7704 2779.00
18.8356 2598.00
18.9008 2709.00
18.966 2750.00
19.0312 2835.00
19.0964 2872.00
19.1616 2894.00
19.2268 2773.00
19.292 2840.00
19.3572 2794.00
19.4224 2889.00
19.4876 2789.00
19.5528 2892.00
19.618 2829.00
19.6832 2915.00
19.7484 2951.00
19.8136 2913.00
19.8788 2903.00
19.944 2914.00
20.0092 2937.00
20.0744 2973.00
20.1396 3038.00
20.2048 3101.00
20.27 2943.00
20.3352 3155.00
20.4004 3081.00
20.4656 3153.00
20.5308 3090.00
20.596 3095.00
20.6612 3189.00
20.7264 3087.00
20.7916 3145.00
20.8568 3100.00
20.922 2987.00
20.9872 3183.00
21.0524 3101.00
21.1176 3126.00
21.1828 3152.00
21.248 3220.00
21.3132 3189.00
21.3784 3249.00
21.4436 3222.00
21.5088 3155.00
21.574 3098.00
21.6392 3112.00
21.7044 3039.00
21.7696 3147.00
21.8348 3186.00
21.9 3037.00
21.9652 3128.00
22.0304 3064.00
22.0956 3108.00
22.1608 3094.00
22.226 3006.00
22.2912 3057.00
22.3564 3076.00
22.4216 3032.00
22.4868 3120.00
22.552 2991.00
22.6172 2998.00
22.6824 2980.00
22.7476 2949.00
22.8128 2962.00
22.878 2955.00
22.9432 2996.00
23.0084 2949.00
23.0736 2912.00
23.1388 2844.00
23.204 2951.00
23.2692 2851.00
23.3344 2964.00
23.3996 2959.00
23.4647 2909.00
23.5299 2857.00
23.5951 2764.00
23.6603 2934.00
23.7255 3010.00
23.7907 2932.00
23.8559 2918.00
23.9211 2875.00
23.9863 2918.00
24.0515 2903.00
24.1167 2797.00
24.1819 2958.00
24.2471 2832.00
24.3123 2802.00
24.3775 2854.00
24.4427 2891.00
24.5079 2836.00
24.5731 2888.00
24.6383 2797.00
24.7035 2970.00
24.7687 2828.00
24.8339 2990.00
24.8991 2814.00
24.9643 2914.00
25.0295 2849.00
25.0947 2873.00
25.1599 2933.00
25.2251 2746.00
25.2903 2750.00
25.3555 2805.00
25.4207 2801.00
25.4859 2816.00
25.5511 2995.00
25.6163 2773.00
25.6815 2959.00
25.7467 2921.00
25.8119 2913.00
25.8771 2890.00
25.9423 2844.00
26.0075 2968.00
26.0727 2954.00
26.1379 2899.00
26.2031 2930.00
26.2683 2974.00
26.3335 2983.00
26.3987 2915.00
26.4639 2925.00
26.5291 2912.00
26.5943 2964.00
26.6595 2856.00
26.7247 2934.00
26.7899 2986.00
26.8551 3010.00
26.9203 2903.00
26.9855 2991.00
27.0507 2931.00
27.1159 2943.00
27.1811 2932.00
27.2463 2952.00
27.3115 2995.00
27.3767 2926.00
27.4419 3027.00
27.5071 2965.00
27.5723 2975.00
27.6375 2911.00
27.7027 2942.00
27.7679 2885.00
27.8331 2930.00
27.8983 2961.00
27.9635 3040.00
28.0287 2912.00
28.0939 2948.00
28.1591 2928.00
28.2243 2946.00
28.2894 3016.00
28.3546 2975.00
28.4198 3020.00
28.485 3064.00
28.5502 3052.00
28.6154 3132.00
28.6806 2977.00
28.7458 3023.00
28.811 3038.00
28.8762 3049.00
28.9414 3028.00
29.0066 2935.00
29.0718 2984.00
29.137 2871.00
29.2022 2976.00
29.2674 2961.00
29.3326 2973.00
29.3978 2972.00
29.463 3025.00
29.5282 3011.00
29.5934 2901.00
29.6586 2968.00
29.7238 2947.00
29.789 3050.00
29.8542 2983.00
29.9194 3051.00
29.9846 3091.00
30.0498 2926.00
30.115 3093.00
30.1802 3100.00
30.2454 3096.00
30.3106 3002.00
30.3758 3186.00
30.441 2973.00
30.5062 3050.00
30.5714 3070.00
30.6366 3013.00
30.7018 3038.00
30.767 2915.00
30.8322 2996.00
30.8974 2956.00
30.9626 3034.00
31.0278 3020.00
31.093 2940.00
31.1582 2916.00
31.2234 2934.00
31.2886 2958.00
31.3538 2767.00
31.419 2920.00
31.4842 2946.00
31.5494 2871.00
31.6146 2981.00
31.6798 2839.00
31.745 2902.00
31.8102 2814.00
31.8754 2823.00
31.9406 2675.00
32.0058 2816.00
32.071 2807.00
32.1362 2784.00
32.2014 2823.00
32.2666 2784.00
32.3318 2740.00
32.397 2725.00
32.4622 2775.00
32.5274 2737.00
32.5926 2717.00
32.6578 2672.00
32.723 2652.00
32.7882 2690.00
32.8534 2636.00
32.9186 2695.00
32.9838 2556.00
33.0489 2573.00
33.1141 2580.00
33.1793 2595.00
33.2445 2552.00
33.3097 2472.00
33.3749 2504.00
33.4401 2549.00
33.5053 2511.00
33.5705 2526.00
33.6357 2494.00
33.7009 2500.00
33.7661 2377.00
33.8313 2462.00
33.8965 2398.00
33.9617 2397.00
34.0269 2430.00
34.0921 2402.00
34.1573 2368.00
34.2225 2325.00
34.2877 2371.00
34.3529 2330.00
34.4181 2326.00
34.4833 2297.00
34.5485 2338.00
34.6137 2232.00
34.6789 2330.00
34.7441 2248.00
34.8093 2313.00
34.8745 2227.00
34.9397 2202.00
35.0049 2335.00
35.0701 2118.00
35.1353 2169.00
35.2005 2228.00
35.2657 2092.00
35.3309 2165.00
35.3961 2119.00
35.4613 2159.00
35.5265 2189.00
35.5917 2129.00
35.6569 2099.00
35.7221 2138.00
35.7873 2053.00
35.8525 2074.00
35.9177 2093.00
35.9829 2073.00
36.0481 1966.00
36.1133 2059.00
36.1785 2014.00
36.2437 2032.00
36.3089 2021.00
36.3741 2014.00
36.4393 2046.00
36.5045 2062.00
36.5697 2015.00
36.6349 1903.00
36.7001 2012.00
36.7653 1887.00
36.8305 1925.00
36.8957 2010.00
36.9609 1952.00
37.0261 1937.00
37.0913 1892.00
37.1565 1919.00
37.2217 1851.00
37.2869 2029.00
37.3521 1952.00
37.4173 1926.00
37.4825 1847.00
37.5477 1948.00
37.6129 1938.00
37.6781 1855.00
37.7433 1881.00
37.8085 1854.00
37.8736 1824.00
37.9388 1823.00
38.004 1892.00
38.0692 1921.00
38.1344 1875.00
38.1996 1860.00
38.2648 1940.00
38.33 1921.00
38.3952 1916.00
38.4604 1853.00
38.5256 1864.00
38.5908 1866.00
38.656 1823.00
38.7212 1856.00
38.7864 1855.00
38.8516 1866.00
38.9168 1776.00
38.982 1819.00
39.0472 1849.00
39.1124 1880.00
39.1776 1835.00
39.2428 1800.00
39.308 1853.00
39.3732 1864.00
39.4384 1809.00
39.5036 1819.00
39.5688 1775.00
39.634 1806.00
39.6992 1837.00
39.7644 1854.00
39.8296 1847.00
39.8948 1824.00
39.96 1815.00
40.0252 1755.00
40.0904 1888.00
40.1556 1787.00
40.2208 1773.00
40.286 1840.00
40.3512 1796.00
40.4164 1716.00
40.4816 1808.00
40.5468 1719.00
40.612 1774.00
40.6772 1788.00
40.7424 1816.00
40.8076 1838.00
40.8728 1753.00
40.938 1736.00
41.0032 1764.00
41.0684 1759.00
41.1336 1752.00
41.1988 1812.00
41.264 1768.00
41.3292 1735.00
41.3944 1778.00
41.4596 1750.00
41.5248 1716.00
41.59 1765.00
41.6552 1721.00
41.7204 1790.00
41.7856 1833.00
41.8508 1831.00
41.916 1784.00
41.9812 1824.00
42.0464 1745.00
42.1116 1794.00
42.1768 1750.00
42.242 1781.00
42.3072 1736.00
42.3724 1801.00
42.4376 1769.00
42.5028 1739.00
42.568 1853.00
42.6332 1770.00
42.6983 1809.00
42.7635 1707.00
42.8287 1881.00
42.8939 1707.00
42.9591 1762.00
43.0243 1912.00
43.0895 1816.00
43.1547 1772.00
43.2199 1803.00
43.2851 1784.00
43.3503 1759.00
43.4155 1763.00
43.4807 1730.00
43.5459 1812.00
43.6111 1771.00
43.6763 1725.00
43.7415 1799.00
43.8067 1799.00
43.8719 1787.00
43.9371 1764.00
44.0023 1752.00
44.0675 1741.00
44.1327 1828.00
44.1979 1811.00
44.2631 1796.00
44.3283 1808.00
44.3935 1720.00
44.4587 1699.00
44.5239 1750.00
44.5891 1823.00
44.6543 1769.00
44.7195 1800.00
44.7847 1719.00
44.8499 1806.00
44.9151 1843.00
44.9803 1833.00
45.0455 1794.00
45.1107 1840.00
45.1759 1832.00
45.2411 1745.00
45.3063 1834.00
45.3715 1748.00
45.4367 1753.00
45.5019 1842.00
45.5671 1877.00
45.6323 1717.00
45.6975 1778.00
45.7627 1786.00
45.8279 1708.00
45.8931 1736.00
45.9583 1743.00
46.0235 1792.00
46.0887 1753.00
46.1539 1768.00
46.2191 1754.00
46.2843 1842.00
46.3495 1853.00
46.4147 1756.00
46.4799 1820.00
46.5451 1874.00
46.6103 1766.00
46.6755 1776.00
46.7407 1780.00
46.8059 1687.00
46.8711 1804.00
46.9363 1767.00
47.0015 1830.00
47.0667 1806.00
47.1319 1759.00
47.1971 1732.00
47.2623 1744.00
47.3275 1669.00
47.3927 1757.00
47.4579 1808.00
47.523 1752.00
47.5882 1676.00
47.6534 1762.00
47.7186 1801.00
47.7838 1744.00
47.849 1834.00
47.9142 1744.00
47.9794 1845.00
48.0446 1789.00
48.1098 1690.00
48.175 1752.00
48.2402 1764.00
48.3054 1782.00
48.3706 1746.00
48.4358 1814.00
48.501 1769.00
48.5662 1762.00
48.6314 1735.00
48.6966 1818.00
48.7618 1770.00
48.827 1756.00
48.8922 1696.00
48.9574 1754.00
49.0226 1806.00
49.0878 1665.00
49.153 1709.00
49.2182 1710.00
49.2834 1758.00
49.3486 1808.00
49.4138 1703.00
49.479 1711.00
49.5442 1753.00
49.6094 1752.00
49.6746 1799.00
49.7398 1811.00
49.805 1818.00
49.8702 1638.00
49.9354 1704.00
50.0006 1705.00
50.0658 1717.00
50.131 1794.00
50.1962 1708.00
50.2614 1847.00
50.3266 1726.00
50.3918 1847.00
50.457 1769.00
50.5222 1706.00
50.5874 1789.00
50.6526 1801.00
50.7178 1723.00
50.783 1760.00
50.8482 1675.00
50.9134 1671.00
50.9786 1802.00
51.0438 1759.00
51.109 1817.00
51.1742 1754.00
51.2394 1709.00
51.3046 1789.00
51.3698 1777.00
51.435 1722.00
51.5002 1674.00
51.5654 1673.00
51.6306 1807.00
51.6958 1669.00
51.761 1814.00
51.8262 1751.00
51.8914 1749.00
51.9566 1718.00
52.0218 1800.00
52.087 1681.00
52.1522 1690.00
52.2174 1705.00
52.2826 1684.00
52.3477 1768.00
52.4129 1740.00
52.4781 1748.00
52.5433 1752.00
52.6085 1754.00
52.6737 1844.00
52.7389 1690.00
52.8041 1780.00
52.8693 1676.00
52.9345 1857.00
52.9997 1730.00
53.0649 1728.00
53.1301 1764.00
53.1953 1780.00
53.2605 1690.00
53.3257 1685.00
53.3909 1713.00
53.4561 1707.00
53.5213 1716.00
53.5865 1598.00
53.6517 1716.00
53.7169 1691.00
53.7821 1712.00
53.8473 1728.00
53.9125 1701.00
53.9777 1733.00
54.0429 1826.00
54.1081 1730.00
54.1733 1685.00
54.2385 1689.00
54.3037 1653.00
54.3689 1697.00
54.4341 1703.00
54.4993 1720.00
54.5645 1707.00
54.6297 1612.00
54.6949 1678.00
54.7601 1684.00
54.8253 1643.00
54.8905 1706.00
54.9557 1663.00
55.0209 1689.00
55.0861 1682.00
55.1513 1630.00
55.2165 1605.00
55.2817 1645.00
55.3469 1621.00
55.4121 1677.00
55.4773 1749.00
55.5425 1679.00
55.6077 1626.00
55.6729 1686.00
55.7381 1659.00
55.8033 1621.00
55.8685 1696.00
55.9337 1719.00
55.9989 1687.00
56.0641 1694.00
56.1293 1576.00
56.1945 1629.00
56.2597 1646.00
56.3249 1657.00
56.3901 1597.00
56.4553 1697.00
56.5205 1611.00
56.5857 1603.00
56.6509 1688.00
56.7161 1677.00
56.7813 1644.00
56.8465 1670.00
56.9117 1656.00
56.9769 1638.00
57.042 1618.00
57.1073 1731.00
57.1724 1609.00
57.2376 1633.00
57.3028 1583.00
57.368 1605.00
57.4332 1537.00
57.4984 1613.00
57.5636 1683.00
57.6288 1650.00
57.694 1535.00
57.7592 1696.00
57.8244 1629.00
57.8896 1614.00
57.9548 1560.00
58.02 1585.00
58.0852 1612.00
58.1504 1687.00
58.2156 1589.00
58.2808 1600.00
58.346 1546.00
58.4112 1633.00
58.4764 1644.00
58.5416 1611.00
58.6068 1618.00
58.672 1591.00
58.7372 1612.00
58.8024 1508.00
58.8676 1642.00
58.9328 1531.00
58.998 1677.00
59.0632 1601.00
59.1284 1673.00
59.1936 1582.00
59.2588 1610.00
59.324 1589.00
59.3892 1656.00
59.4544 1625.00
59.5196 1575.00
59.5848 1606.00
59.65 1614.00
59.7152 1608.00
59.7804 1543.00
59.8456 1579.00
59.9108 1667.00
59.976 1583.00
60.0412 1515.00
60.1064 1668.00
60.1716 1604.00
60.2368 1570.00
60.302 1571.00
60.3672 1667.00
60.4324 1580.00
60.4976 1535.00
60.5628 1519.00
60.628 1608.00
60.6932 1558.00
60.7584 1583.00
60.8236 1571.00
60.8888 1576.00
60.954 1536.00
61.0192 1571.00
61.0844 1673.00
61.1496 1620.00
61.2148 1577.00
61.28 1581.00
61.3452 1554.00
61.4104 1484.00
61.4756 1516.00
61.5408 1578.00
61.606 1540.00
61.6712 1608.00
61.7364 1544.00
61.8016 1485.00
61.8667 1498.00
61.932 1581.00
61.9971 1542.00
62.0623 1490.00
62.1275 1566.00
62.1927 1531.00
62.2579 1534.00
62.3231 1565.00
62.3883 1512.00
62.4535 1525.00
62.5187 1597.00
62.5839 1390.00
62.6491 1512.00
62.7143 1527.00
62.7795 1562.00
62.8447 1560.00
62.9099 1547.00
62.9751 1522.00
63.0403 1525.00
63.1055 1492.00
63.1707 1520.00
63.2359 1574.00
63.3011 1478.00
63.3663 1533.00
63.4315 1511.00
63.4967 1522.00
63.5619 1547.00
63.6271 1445.00
63.6923 1568.00
63.7575 1540.00
63.8227 1484.00
63.8879 1483.00
63.9531 1522.00
64.0183 1493.00
64.0835 1459.00
64.1487 1521.00
64.2139 1444.00
64.2791 1511.00
64.3443 1445.00
64.4095 1447.00
64.4747 1481.00
64.5399 1485.00
64.6051 1522.00
64.6703 1472.00
64.7355 1489.00
64.8007 1456.00
64.8659 1442.00
64.9311 1504.00
64.9963 1444.00
65.0615 1489.00
65.1267 1452.00
65.1919 1473.00
65.2571 1536.00
65.3223 1503.00
65.3875 1431.00
65.4527 1415.00
65.5179 1414.00
65.5831 1440.00
65.6483 1421.00
65.7135 1528.00
65.7787 1486.00
65.8439 1459.00
65.9091 1442.00
65.9743 1519.00
66.0395 1417.00
66.1047 1507.00
66.1699 1465.00
66.2351 1484.00
66.3003 1452.00
66.3655 1507.00
66.4307 1535.00
66.4959 1425.00
66.561 1435.00
66.6263 1432.00
66.6915 1441.00
66.7566 1443.00
66.8218 1471.00
66.887 1441.00
66.9522 1430.00
67.0174 1456.00
67.0826 1442.00
67.1478 1399.00
67.213 1401.00
67.2782 1434.00
67.3434 1440.00
67.4086 1338.00
67.4738 1423.00
67.539 1410.00
67.6042 1382.00
67.6694 1442.00
67.7346 1438.00
67.7998 1399.00
67.865 1476.00
67.9302 1447.00
67.9954 1384.00
68.0606 1371.00
68.1258 1350.00
68.191 1436.00
68.2562 1362.00
68.3214 1394.00
68.3866 1446.00
68.4518 1410.00
68.517 1362.00
68.5822 1398.00
68.6474 1389.00
68.7126 1433.00
68.7778 1417.00
68.843 1383.00
68.9082 1423.00
68.9734 1418.00
69.0386 1370.00
69.1038 1311.00
69.169 1451.00
69.2342 1348.00
69.2994 1451.00
69.3646 1363.00
69.4298 1384.00
69.495 1380.00
69.5602 1334.00
69.6254 1389.00
69.6906 1375.00
69.7558 1371.00
69.821 1283.00
69.8862 1366.00
69.9514 1422.00
70.0166 1311.00
70.0818 1391.00
70.147 1317.00
70.2122 1440.00
70.2774 1344.00
70.3426 1377.00
70.4078 1315.00
70.473 1373.00
70.5382 1364.00
70.6034 1387.00
70.6686 1327.00
70.7338 1380.00
70.799 1346.00
70.8642 1347.00
70.9294 1400.00
70.9946 1391.00
71.0598 1326.00
71.125 1281.00
71.1902 1292.00
71.2554 1343.00
71.3205 1315.00
71.3858 1389.00
71.451 1335.00
71.5162 1318.00
71.5813 1330.00
71.6465 1312.00
71.7117 1396.00
71.7769 1300.00
71.8421 1307.00
71.9073 1300.00
71.9725 1270.00
72.0377 1326.00
72.1029 1273.00
72.1681 1357.00
72.2333 1397.00
72.2985 1374.00
72.3637 1238.00
72.4289 1338.00
72.4941 1372.00
72.5593 1272.00
72.6245 1305.00
72.6897 1268.00
72.7549 1344.00
72.8201 1300.00
72.8853 1319.00
72.9505 1359.00
73.0157 1296.00
73.0809 1348.00
73.1461 1324.00
73.2113 1271.00
73.2765 1274.00
73.3417 1261.00
73.4069 1256.00
73.4721 1256.00
73.5373 1323.00
73.6025 1250.00
73.6677 1288.00
73.7329 1287.00
73.7981 1237.00
73.8633 1301.00
73.9285 1230.00
73.9937 1279.00
74.0589 1225.00
74.1241 1293.00
74.1893 1257.00
74.2545 1317.00
74.3197 1290.00
74.3849 1293.00
74.4501 1341.00
74.5153 1259.00
74.5805 1324.00
74.6457 1289.00
74.7109 1300.00
74.7761 1261.00
74.8413 1227.00
74.9065 1285.00
74.9717 1222.00
75.0369 1208.00
75.1021 1236.00
75.1673 1170.00
75.2325 1276.00
75.2977 1305.00
75.3629 1290.00
75.4281 1248.00
75.4933 1340.00
75.5585 1337.00
75.6237 1238.00
75.6889 1227.00
75.7541 1239.00
75.8193 1229.00
75.8845 1270.00
75.9497 1279.00
76.0149 1328.00
76.0801 1265.00
76.1452 1265.00
76.2104 1286.00
76.2756 1214.00
76.3409 1240.00
76.406 1278.00
76.4712 1236.00
76.5364 1289.00
76.6016 1257.00
76.6668 1262.00
76.732 1226.00
76.7972 1228.00
76.8624 1301.00
76.9276 1255.00
76.9928 1205.00
77.058 1266.00
77.1232 1333.00
77.1884 1254.00
77.2536 1298.00
77.3188 1232.00
77.384 1251.00
77.4492 1262.00
77.5144 1202.00
77.5796 1227.00
77.6448 1164.00
77.71 1240.00
77.7752 1186.00
77.8404 1225.00
77.9056 1306.00
77.9708 1233.00
78.036 1298.00
78.1012 1189.00
78.1664 1172.00
78.2316 1214.00
78.2968 1195.00
78.362 1274.00
78.4272 1173.00
78.4924 1262.00
78.5576 1256.00
78.6228 1261.00
78.688 1219.00
78.7532 1226.00
78.8184 1163.00
78.8836 1212.00
78.9488 1147.00
79.014 1165.00
79.0792 1241.00
79.1444 1190.00
79.2096 1214.00
79.2748 1218.00
79.34 1312.00
79.4052 1192.00
79.4704 1215.00
79.5356 1200.00
79.6008 1215.00
79.666 1231.00
79.7312 1256.00
79.7964 1185.00
79.8616 1180.00
79.9268 1236.00
79.992 1271.00
80.0572 1237.00
80.1224 1227.00
80.1876 1184.00
80.2528 1239.00
80.318 1283.00
80.3832 1267.00
80.4484 1183.00
80.5136 1165.00
80.5788 1182.00
80.644 1201.00
80.7092 1222.00
80.7744 1196.00
80.8396 1161.00
80.9048 1154.00
80.9699 1191.00
81.0351 1216.00
81.1003 1216.00
81.1655 1194.00
81.2307 1230.00
81.2959 1205.00
81.3611 1146.00
81.4263 1182.00
81.4915 1189.00
81.5567 1187.00
81.6219 1299.00
81.6871 1233.00
81.7523 1270.00
81.8175 1172.00
81.8827 1241.00
81.9479 1228.00
82.0131 1189.00
82.0783 1174.00
82.1435 1276.00
82.2087 1192.00
82.2739 1208.00
82.3391 1225.00
82.4043 1166.00
82.4695 1240.00
82.5347 1241.00
82.5999 1174.00
82.6651 1184.00
82.7303 1165.00
82.7955 1083.00
82.8607 1142.00
82.9259 1130.00
82.9911 1135.00
83.0563 1190.00
83.1215 1244.00
83.1867 1207.00
83.2519 1164.00
83.3171 1217.00
83.3823 1230.00
83.4475 1228.00
83.5127 1205.00
83.5779 1251.00
83.6431 1123.00
83.7083 1215.00
83.7735 1193.00
83.8387 1180.00
83.9039 1145.00
83.9691 1119.00
84.0343 1154.00
84.0995 1165.00
84.1647 1236.00
84.2299 1123.00
84.2951 1268.00
84.3603 1179.00
84.4255 1264.00
84.4907 1227.00
84.5559 1162.00
84.6211 1115.00
84.6863 1168.00
84.7515 1241.00
84.8167 1108.00
84.8819 1218.00
84.9471 1236.00
85.0123 1259.00
85.0775 1168.00
85.1427 1243.00
85.2079 1278.00
85.2731 1186.00
85.3383 1175.00
85.4035 1159.00
85.4687 1159.00
85.5339 1144.00
85.5991 1140.00
85.6643 1166.00
85.7295 1193.00
85.7946 1152.00
85.8598 1136.00
85.925 1207.00
85.9903 1237.00
86.0554 1168.00
86.1206 1214.00
86.1858 1137.00
86.251 1121.00
86.3162 1103.00
86.3814 1160.00
86.4466 1139.00
86.5118 1068.00
86.577 1148.00
86.6422 1156.00
86.7074 1175.00
86.7726 1143.00
86.8378 1123.00
86.903 1150.00
86.9682 1148.00
87.0334 1195.00
87.0986 1131.00
87.1638 1098.00
87.229 1206.00
87.2942 1144.00
87.3594 1170.00
87.4246 1151.00
87.4898 1147.00
87.555 1151.00
87.6202 1154.00
87.6854 1188.00
87.7506 1154.00
87.8158 1167.00
87.881 1214.00
87.9462 1179.00
88.0114 1178.00
88.0766 1127.00
88.1418 1188.00
88.207 1118.00
88.2722 1129.00
88.3374 1184.00
88.4026 1090.00
88.4678 1191.00
88.533 1142.00
88.5982 1133.00
88.6634 1105.00
88.7286 1138.00
88.7938 1153.00
88.859 1115.00
88.9242 1114.00
88.9894 1177.00
89.0546 1136.00
89.1198 1193.00
89.185 1149.00
89.2502 1163.00
89.3154 1153.00
89.3806 1134.00
89.4458 1141.00
89.511 1155.00
89.5762 1068.00
89.6414 1118.00
89.7066 1105.00
89.7718 1068.00
89.837 1158.00
89.9022 1113.00
89.9674 1114.00
90.0326 1073.00
90.0978 1153.00
90.163 1127.00
90.2282 1088.00
90.2934 1145.00
90.3586 1127.00
90.4238 1141.00
90.489 1077.00
90.5542 1143.00
90.6193 1163.00
90.6845 1067.00
90.7497 1073.00
90.8149 1108.00
90.8801 1136.00
90.9453 1084.00
91.0105 1123.00
91.0757 1131.00
91.1409 1184.00
91.2061 1133.00
91.2713 1182.00
91.3365 1162.00
91.4017 1123.00
91.4669 1136.00
91.5321 1162.00
91.5973 1090.00
91.6625 1171.00
91.7277 1155.00
91.7929 1066.00
91.8581 1161.00
91.9233 1039.00
91.9885 1038.00
92.0537 1079.00
92.1189 1148.00
92.1841 1070.00
92.2493 1103.00
92.3145 1125.00
92.3797 1199.00
92.4449 1143.00
92.5101 1144.00
92.5753 1123.00
92.6405 1091.00
92.7057 1121.00
92.7709 1117.00
92.8361 1140.00
92.9013 1161.00
92.9665 1082.00
93.0317 1122.00
93.0969 1082.00
93.1621 1113.00
93.2273 1007.00
93.2925 1111.00
93.3577 1170.00
93.4229 1126.00
93.4881 1112.00
93.5533 1185.00
93.6185 1189.00
93.6837 1115.00
93.7489 1104.00
93.8141 1119.00
93.8793 1144.00
93.9445 1136.00
94.0097 1102.00
94.0749 1086.00
94.1401 1073.00
94.2053 1141.00
94.2705 1124.00
94.3357 1106.00
94.4009 1163.00
94.4661 1133.00
94.5313 1059.00
94.5965 1101.00
94.6617 1103.00
94.7269 1143.00
94.7921 1128.00
94.8573 1140.00
94.9225 1099.00
94.9877 1095.00
95.0529 1161.00
95.1181 1108.00
95.1833 1097.00
95.2485 1065.00
95.3137 1050.00
95.3789 1198.00
95.444 1142.00
95.5092 1123.00
95.5744 1113.00
95.6396 1133.00
95.7048 1099.00
95.77 1128.00
95.8352 1119.00
95.9004 1150.00
95.9656 1101.00
96.0308 1127.00
96.096 1051.00
96.1612 1057.00
96.2264 1108.00
96.2916 1075.00
96.3568 1127.00
96.422 1149.00
96.4872 1108.00
96.5524 1100.00
96.6176 1066.00
96.6828 1100.00
96.748 1092.00
96.8132 1146.00
96.8784 1070.00
96.9436 1158.00
97.0088 1112.00
97.074 1060.00
97.1392 1104.00
97.2044 1088.00
97.2696 1100.00
97.3348 1038.00
97.4 1143.00
97.4652 1103.00
97.5304 1059.00
97.5956 1101.00
97.6608 1124.00
97.726 1126.00
97.7912 1062.00
97.8564 1132.00
97.9216 1044.00
97.9868 1033.00
98.052 1088.00
98.1172 1118.00
98.1824 1141.00
98.2476 1085.00
98.3128 1099.00
98.378 1084.00
98.4432 1112.00
98.5084 1068.00
98.5736 1149.00
98.6388 1090.00
98.704 1153.00
98.7692 1123.00
98.8344 1080.00
98.8996 1097.00
98.9648 1161.00
99.03 1051.00
99.0952 1100.00
99.1604 1110.00
99.2256 1076.00
99.2908 1080.00
99.356 1054.00
99.4212 1036.00
99.4864 1050.00
99.5516 1038.00
99.6168 1088.00
99.682 1058.00
99.7472 1135.00
99.8124 1074.00
99.8776 1075.00
99.9428 1103.00
100.008 1122.00
100.073 1156.00
100.095 1083.00