File: data/xrd_creation/results/Na_40.xy
9.903433 2614.00
9.968632 2529.00
10.0338 2504.00
10.099 2546.00
10.1642 2537.00
10.2294 2603.00
10.2946 2428.00
10.3598 2404.00
10.425 2389.00
10.4902 2398.00
10.5554 2372.00
10.6206 2327.00
10.6858 2324.00
10.751 2383.00
10.8162 2286.00
10.8814 2281.00
10.9466 2313.00
11.0118 2155.00
11.077 2141.00
11.1422 2185.00
11.2074 2205.00
11.2726 2125.00
11.3378 2125.00
11.403 2114.00
11.4682 2077.00
11.5334 1950.00
11.5986 2085.00
11.6638 2077.00
11.729 2005.00
11.7942 1939.00
11.8594 1945.00
11.9246 1942.00
11.9898 1865.00
12.055 1892.00
12.1202 1820.00
12.1854 1866.00
12.2506 1786.00
12.3158 1787.00
12.381 1764.00
12.4462 1784.00
12.5114 1794.00
12.5766 1742.00
12.6418 1745.00
12.707 1695.00
12.7722 1761.00
12.8374 1662.00
12.9026 1715.00
12.9678 1637.00
13.033 1569.00
13.0982 1586.00
13.1634 1652.00
13.2286 1687.00
13.2938 1575.00
13.359 1614.00
13.4242 1556.00
13.4894 1603.00
13.5546 1552.00
13.6198 1620.00
13.685 1603.00
13.7502 1533.00
13.8154 1541.00
13.8805 1464.00
13.9457 1436.00
14.0109 1536.00
14.0761 1453.00
14.1413 1434.00
14.2065 1411.00
14.2717 1483.00
14.3369 1463.00
14.4021 1436.00
14.4673 1363.00
14.5325 1426.00
14.5977 1451.00
14.6629 1418.00
14.7281 1395.00
14.7933 1313.00
14.8585 1344.00
14.9237 1447.00
14.9889 1311.00
15.0541 1379.00
15.1193 1314.00
15.1845 1366.00
15.2497 1330.00
15.3149 1329.00
15.3801 1232.00
15.4453 1276.00
15.5105 1381.00
15.5757 1276.00
15.6409 1316.00
15.7061 1366.00
15.7713 1307.00
15.8365 1256.00
15.9017 1300.00
15.9669 1249.00
16.0321 1279.00
16.0973 1214.00
16.1625 1218.00
16.2277 1259.00
16.2929 1204.00
16.3581 1222.00
16.4233 1216.00
16.4885 1202.00
16.5537 1182.00
16.6189 1219.00
16.6841 1241.00
16.7493 1180.00
16.8145 1154.00
16.8797 1136.00
16.9449 1154.00
17.0101 1240.00
17.0753 1149.00
17.1405 1118.00
17.2057 1152.00
17.2709 1139.00
17.3361 1141.00
17.4013 1105.00
17.4665 1195.00
17.5317 1155.00
17.5969 1118.00
17.6621 1106.00
17.7273 1110.00
17.7925 1028.00
17.8577 1140.00
17.9229 1122.00
17.9881 1053.00
18.0533 974.00
18.1185 1083.00
18.1837 1148.00
18.2489 1175.00
18.3141 1035.00
18.3793 1078.00
18.4445 1066.00
18.5097 1058.00
18.5749 1030.00
18.6401 1067.00
18.7052 1050.00
18.7704 1018.00
18.8356 1003.00
18.9008 1065.00
18.966 906.00
19.0312 957.00
19.0964 1013.00
19.1616 984.00
19.2268 1005.00
19.292 1002.00
19.3572 964.00
19.4224 948.00
19.4876 949.00
19.5528 921.00
19.618 919.00
19.6832 999.00
19.7484 978.00
19.8136 1006.00
19.8788 914.00
19.944 1046.00
20.0092 906.00
20.0744 975.00
20.1396 938.00
20.2048 900.00
20.27 970.00
20.3352 922.00
20.4004 910.00
20.4656 904.00
20.5308 856.00
20.596 895.00
20.6612 940.00
20.7264 881.00
20.7916 837.00
20.8568 861.00
20.922 916.00
20.9872 896.00
21.0524 865.00
21.1176 817.00
21.1828 823.00
21.248 821.00
21.3132 835.00
21.3784 879.00
21.4436 891.00
21.5088 932.00
21.574 833.00
21.6392 877.00
21.7044 851.00
21.7696 844.00
21.8348 837.00
21.9 860.00
21.9652 839.00
22.0304 849.00
22.0956 806.00
22.1608 789.00
22.226 842.00
22.2912 782.00
22.3564 780.00
22.4216 788.00
22.4868 795.00
22.552 775.00
22.6172 744.00
22.6824 773.00
22.7476 823.00
22.8128 774.00
22.878 750.00
22.9432 791.00
23.0084 840.00
23.0736 780.00
23.1388 744.00
23.204 761.00
23.2692 795.00
23.3344 696.00
23.3996 809.00
23.4647 728.00
23.5299 772.00
23.5951 792.00
23.6603 731.00
23.7255 767.00
23.7907 754.00
23.8559 707.00
23.9211 727.00
23.9863 710.00
24.0515 768.00
24.1167 704.00
24.1819 689.00
24.2471 734.00
24.3123 694.00
24.3775 680.00
24.4427 733.00
24.5079 704.00
24.5731 700.00
24.6383 727.00
24.7035 727.00
24.7687 709.00
24.8339 705.00
24.8991 679.00
24.9643 724.00
25.0295 714.00
25.0947 690.00
25.1599 690.00
25.2251 663.00
25.2903 721.00
25.3555 684.00
25.4207 699.00
25.4859 664.00
25.5511 697.00
25.6163 698.00
25.6815 703.00
25.7467 715.00
25.8119 638.00
25.8771 694.00
25.9423 709.00
26.0075 670.00
26.0727 664.00
26.1379 692.00
26.2031 666.00
26.2683 661.00
26.3335 660.00
26.3987 663.00
26.4639 623.00
26.5291 638.00
26.5943 655.00
26.6595 618.00
26.7247 633.00
26.7899 634.00
26.8551 655.00
26.9203 651.00
26.9855 662.00
27.0507 607.00
27.1159 668.00
27.1811 655.00
27.2463 578.00
27.3115 646.00
27.3767 680.00
27.4419 679.00
27.5071 691.00
27.5723 650.00
27.6375 590.00
27.7027 610.00
27.7679 653.00
27.8331 646.00
27.8983 645.00
27.9635 619.00
28.0287 666.00
28.0939 650.00
28.1591 611.00
28.2243 609.00
28.2894 587.00
28.3546 651.00
28.4198 632.00
28.485 649.00
28.5502 608.00
28.6154 598.00
28.6806 603.00
28.7458 608.00
28.811 591.00
28.8762 628.00
28.9414 577.00
29.0066 633.00
29.0718 602.00
29.137 629.00
29.2022 592.00
29.2674 585.00
29.3326 590.00
29.3978 580.00
29.463 553.00
29.5282 566.00
29.5934 576.00
29.6586 600.00
29.7238 583.00
29.789 544.00
29.8542 533.00
29.9194 560.00
29.9846 644.00
30.0498 522.00
30.115 564.00
30.1802 576.00
30.2454 479.00
30.3106 557.00
30.3758 541.00
30.441 552.00
30.5062 564.00
30.5714 485.00
30.6366 549.00
30.7018 521.00
30.767 556.00
30.8322 526.00
30.8974 553.00
30.9626 525.00
31.0278 519.00
31.093 581.00
31.1582 554.00
31.2234 539.00
31.2886 585.00
31.3538 535.00
31.419 532.00
31.4842 541.00
31.5494 527.00
31.6146 555.00
31.6798 521.00
31.745 501.00
31.8102 560.00
31.8754 521.00
31.9406 499.00
32.0058 549.00
32.071 518.00
32.1362 475.00
32.2014 486.00
32.2666 513.00
32.3318 522.00
32.397 516.00
32.4622 481.00
32.5274 505.00
32.5926 529.00
32.6578 472.00
32.723 478.00
32.7882 476.00
32.8534 484.00
32.9186 453.00
32.9838 421.00
33.0489 460.00
33.1141 490.00
33.1793 489.00
33.2445 485.00
33.3097 417.00
33.3749 477.00
33.4401 429.00
33.5053 476.00
33.5705 405.00
33.6357 452.00
33.7009 455.00
33.7661 475.00
33.8313 461.00
33.8965 468.00
33.9617 460.00
34.0269 457.00
34.0921 454.00
34.1573 439.00
34.2225 446.00
34.2877 472.00
34.3529 466.00
34.4181 385.00
34.4833 443.00
34.5485 428.00
34.6137 426.00
34.6789 434.00
34.7441 452.00
34.8093 425.00
34.8745 428.00
34.9397 407.00
35.0049 445.00
35.0701 426.00
35.1353 409.00
35.2005 421.00
35.2657 429.00
35.3309 419.00
35.3961 437.00
35.4613 412.00
35.5265 391.00
35.5917 418.00
35.6569 402.00
35.7221 427.00
35.7873 406.00
35.8525 430.00
35.9177 354.00
35.9829 413.00
36.0481 388.00
36.1133 391.00
36.1785 404.00
36.2437 450.00
36.3089 384.00
36.3741 429.00
36.4393 424.00
36.5045 418.00
36.5697 422.00
36.6349 416.00
36.7001 419.00
36.7653 375.00
36.8305 390.00
36.8957 390.00
36.9609 439.00
37.0261 390.00
37.0913 427.00
37.1565 413.00
37.2217 400.00
37.2869 382.00
37.3521 378.00
37.4173 352.00
37.4825 402.00
37.5477 425.00
37.6129 370.00
37.6781 406.00
37.7433 404.00
37.8085 424.00
37.8736 443.00
37.9388 494.00
38.004 461.00
38.0692 444.00
38.1344 445.00
38.1996 391.00
38.2648 398.00
38.33 362.00
38.3952 410.00
38.4604 361.00
38.5256 360.00
38.5908 397.00
38.656 344.00
38.7212 347.00
38.7864 352.00
38.8516 378.00
38.9168 348.00
38.982 366.00
39.0472 371.00
39.1124 347.00
39.1776 326.00
39.2428 346.00
39.308 388.00
39.3732 360.00
39.4384 342.00
39.5036 344.00
39.5688 345.00
39.634 318.00
39.6992 344.00
39.7644 344.00
39.8296 355.00
39.8948 366.00
39.96 379.00
40.0252 374.00
40.0904 322.00
40.1556 352.00
40.2208 363.00
40.286 347.00
40.3512 333.00
40.4164 320.00
40.4816 342.00
40.5468 336.00
40.612 340.00
40.6772 316.00
40.7424 353.00
40.8076 336.00
40.8728 312.00
40.938 370.00
41.0032 328.00
41.0684 337.00
41.1336 326.00
41.1988 313.00
41.264 323.00
41.3292 332.00
41.3944 307.00
41.4596 323.00
41.5248 331.00
41.59 306.00
41.6552 344.00
41.7204 321.00
41.7856 307.00
41.8508 314.00
41.916 325.00
41.9812 307.00
42.0464 328.00
42.1116 323.00
42.1768 315.00
42.242 303.00
42.3072 347.00
42.3724 301.00
42.4376 321.00
42.5028 350.00
42.568 305.00
42.6332 336.00
42.6983 339.00
42.7635 318.00
42.8287 354.00
42.8939 319.00
42.9591 309.00
43.0243 317.00
43.0895 299.00
43.1547 336.00
43.2199 280.00
43.2851 330.00
43.3503 335.00
43.4155 308.00
43.4807 316.00
43.5459 332.00
43.6111 332.00
43.6763 325.00
43.7415 324.00
43.8067 293.00
43.8719 346.00
43.9371 309.00
44.0023 323.00
44.0675 310.00
44.1327 339.00
44.1979 349.00
44.2631 353.00
44.3283 343.00
44.3935 320.00
44.4587 331.00
44.5239 288.00
44.5891 310.00
44.6543 316.00
44.7195 313.00
44.7847 286.00
44.8499 318.00
44.9151 318.00
44.9803 280.00
45.0455 336.00
45.1107 318.00
45.1759 303.00
45.2411 294.00
45.3063 301.00
45.3715 333.00
45.4367 300.00
45.5019 291.00
45.5671 326.00
45.6323 280.00
45.6975 316.00
45.7627 312.00
45.8279 303.00
45.8931 298.00
45.9583 284.00
46.0235 298.00
46.0887 307.00
46.1539 245.00
46.2191 290.00
46.2843 292.00
46.3495 275.00
46.4147 300.00
46.4799 270.00
46.5451 262.00
46.6103 295.00
46.6755 232.00
46.7407 277.00
46.8059 262.00
46.8711 274.00
46.9363 261.00
47.0015 300.00
47.0667 290.00
47.1319 275.00
47.1971 277.00
47.2623 279.00
47.3275 277.00
47.3927 267.00
47.4579 292.00
47.523 299.00
47.5882 277.00
47.6534 310.00
47.7186 256.00
47.7838 295.00
47.849 273.00
47.9142 282.00
47.9794 275.00
48.0446 312.00
48.1098 322.00
48.175 242.00
48.2402 274.00
48.3054 287.00
48.3706 250.00
48.4358 290.00
48.501 272.00
48.5662 276.00
48.6314 257.00
48.6966 270.00
48.7618 271.00
48.827 268.00
48.8922 266.00
48.9574 259.00
49.0226 264.00
49.0878 270.00
49.153 284.00
49.2182 271.00
49.2834 264.00
49.3486 286.00
49.4138 236.00
49.479 268.00
49.5442 232.00
49.6094 242.00
49.6746 233.00
49.7398 302.00
49.805 270.00
49.8702 264.00
49.9354 299.00
50.0006 271.00
50.0658 271.00
50.131 257.00
50.1962 296.00
50.2614 262.00
50.3266 272.00
50.3918 250.00
50.457 258.00
50.5222 289.00
50.5874 256.00
50.6526 292.00
50.7178 263.00
50.783 260.00
50.8482 257.00
50.9134 282.00
50.9786 274.00
51.0438 278.00
51.109 268.00
51.1742 257.00
51.2394 285.00
51.3046 257.00
51.3698 281.00
51.435 229.00
51.5002 270.00
51.5654 286.00
51.6306 258.00
51.6958 259.00
51.761 290.00
51.8262 248.00
51.8914 273.00
51.9566 290.00
52.0218 264.00
52.087 236.00
52.1522 277.00
52.2174 221.00
52.2826 220.00
52.3477 250.00
52.4129 245.00
52.4781 229.00
52.5433 245.00
52.6085 265.00
52.6737 269.00
52.7389 257.00
52.8041 237.00
52.8693 273.00
52.9345 259.00
52.9997 227.00
53.0649 265.00
53.1301 265.00
53.1953 247.00
53.2605 268.00
53.3257 236.00
53.3909 241.00
53.4561 219.00
53.5213 227.00
53.5865 242.00
53.6517 257.00
53.7169 260.00
53.7821 230.00
53.8473 223.00
53.9125 224.00
53.9777 217.00
54.0429 237.00
54.1081 249.00
54.1733 219.00
54.2385 208.00
54.3037 237.00
54.3689 224.00
54.4341 244.00
54.4993 245.00
54.5645 220.00
54.6297 211.00
54.6949 214.00
54.7601 259.00
54.8253 212.00
54.8905 246.00
54.9557 262.00
55.0209 231.00
55.0861 230.00
55.1513 223.00
55.2165 242.00
55.2817 261.00
55.3469 244.00
55.4121 233.00
55.4773 240.00
55.5425 210.00
55.6077 241.00
55.6729 221.00
55.7381 261.00
55.8033 241.00
55.8685 256.00
55.9337 210.00
55.9989 208.00
56.0641 211.00
56.1293 214.00
56.1945 213.00
56.2597 218.00
56.3249 218.00
56.3901 213.00
56.4553 256.00
56.5205 209.00
56.5857 264.00
56.6509 231.00
56.7161 232.00
56.7813 202.00
56.8465 221.00
56.9117 242.00
56.9769 228.00
57.042 211.00
57.1073 233.00
57.1724 221.00
57.2376 206.00
57.3028 213.00
57.368 232.00
57.4332 195.00
57.4984 188.00
57.5636 226.00
57.6288 199.00
57.694 209.00
57.7592 229.00
57.8244 201.00
57.8896 203.00
57.9548 221.00
58.02 207.00
58.0852 207.00
58.1504 206.00
58.2156 208.00
58.2808 210.00
58.346 196.00
58.4112 196.00
58.4764 195.00
58.5416 201.00
58.6068 201.00
58.672 213.00
58.7372 180.00
58.8024 199.00
58.8676 213.00
58.9328 183.00
58.998 232.00
59.0632 199.00
59.1284 212.00
59.1936 194.00
59.2588 209.00
59.324 197.00
59.3892 204.00
59.4544 197.00
59.5196 223.00
59.5848 189.00
59.65 195.00
59.7152 187.00
59.7804 193.00
59.8456 189.00
59.9108 194.00
59.976 194.00
60.0412 197.00
60.1064 188.00
60.1716 202.00
60.2368 186.00
60.302 191.00
60.3672 200.00
60.4324 203.00
60.4976 215.00
60.5628 191.00
60.628 196.00
60.6932 216.00
60.7584 177.00
60.8236 178.00
60.8888 186.00
60.954 215.00
61.0192 224.00
61.0844 206.00
61.1496 188.00
61.2148 225.00
61.28 194.00
61.3452 200.00
61.4104 182.00
61.4756 208.00
61.5408 209.00
61.606 208.00
61.6712 195.00
61.7364 210.00
61.8016 188.00
61.8667 201.00
61.932 218.00
61.9971 171.00
62.0623 194.00
62.1275 194.00
62.1927 199.00
62.2579 194.00
62.3231 176.00
62.3883 215.00
62.4535 195.00
62.5187 190.00
62.5839 188.00
62.6491 182.00
62.7143 203.00
62.7795 182.00
62.8447 187.00
62.9099 187.00
62.9751 216.00
63.0403 187.00
63.1055 186.00
63.1707 212.00
63.2359 185.00
63.3011 192.00
63.3663 186.00
63.4315 215.00
63.4967 153.00
63.5619 173.00
63.6271 175.00
63.6923 180.00
63.7575 203.00
63.8227 233.00
63.8879 192.00
63.9531 185.00
64.0183 206.00
64.0835 190.00
64.1487 201.00
64.2139 181.00
64.2791 199.00
64.3443 221.00
64.4095 223.00
64.4747 205.00
64.5399 182.00
64.6051 246.00
64.6703 190.00
64.7355 189.00
64.8007 205.00
64.8659 175.00
64.9311 187.00
64.9963 180.00
65.0615 172.00
65.1267 209.00
65.1919 216.00
65.2571 184.00
65.3223 201.00
65.3875 165.00
65.4527 201.00
65.5179 178.00
65.5831 188.00
65.6483 174.00
65.7135 180.00
65.7787 196.00
65.8439 186.00
65.9091 164.00
65.9743 202.00
66.0395 191.00
66.1047 160.00
66.1699 183.00
66.2351 199.00
66.3003 185.00
66.3655 171.00
66.4307 207.00
66.4959 188.00
66.561 188.00
66.6263 172.00
66.6915 215.00
66.7566 186.00
66.8218 185.00
66.887 196.00
66.9522 160.00
67.0174 189.00
67.0826 177.00
67.1478 195.00
67.213 204.00
67.2782 182.00
67.3434 191.00
67.4086 197.00
67.4738 199.00
67.539 194.00
67.6042 195.00
67.6694 175.00
67.7346 189.00
67.7998 184.00
67.865 158.00
67.9302 197.00
67.9954 191.00
68.0606 189.00
68.1258 197.00
68.191 175.00
68.2562 171.00
68.3214 171.00
68.3866 190.00
68.4518 212.00
68.517 195.00
68.5822 205.00
68.6474 173.00
68.7126 197.00
68.7778 191.00
68.843 177.00
68.9082 180.00
68.9734 170.00
69.0386 193.00
69.1038 197.00
69.169 192.00
69.2342 200.00
69.2994 164.00
69.3646 206.00
69.4298 211.00
69.495 174.00
69.5602 172.00
69.6254 201.00
69.6906 178.00
69.7558 191.00
69.821 206.00
69.8862 183.00
69.9514 225.00
70.0166 186.00
70.0818 169.00
70.147 221.00
70.2122 190.00
70.2774 178.00
70.3426 224.00
70.4078 183.00
70.473 156.00
70.5382 190.00
70.6034 201.00
70.6686 177.00
70.7338 182.00
70.799 178.00
70.8642 207.00
70.9294 200.00
70.9946 192.00
71.0598 179.00
71.125 191.00
71.1902 189.00
71.2554 186.00
71.3205 187.00
71.3858 200.00
71.451 185.00
71.5162 191.00
71.5813 176.00
71.6465 173.00
71.7117 218.00
71.7769 181.00
71.8421 206.00
71.9073 159.00
71.9725 188.00
72.0377 194.00
72.1029 207.00
72.1681 192.00
72.2333 208.00
72.2985 174.00
72.3637 217.00
72.4289 194.00
72.4941 192.00
72.5593 196.00
72.6245 197.00
72.6897 186.00
72.7549 184.00
72.8201 201.00
72.8853 196.00
72.9505 183.00
73.0157 207.00
73.0809 182.00
73.1461 188.00
73.2113 161.00
73.2765 199.00
73.3417 195.00
73.4069 196.00
73.4721 213.00
73.5373 206.00
73.6025 186.00
73.6677 208.00
73.7329 176.00
73.7981 185.00
73.8633 167.00
73.9285 215.00
73.9937 212.00
74.0589 182.00
74.1241 208.00
74.1893 195.00
74.2545 241.00
74.3197 194.00
74.3849 207.00
74.4501 202.00
74.5153 194.00
74.5805 177.00
74.6457 203.00
74.7109 199.00
74.7761 207.00
74.8413 179.00
74.9065 231.00
74.9717 185.00
75.0369 182.00
75.1021 207.00
75.1673 188.00
75.2325 184.00
75.2977 192.00
75.3629 198.00
75.4281 202.00
75.4933 195.00
75.5585 220.00
75.6237 187.00
75.6889 202.00
75.7541 199.00
75.8193 174.00
75.8845 195.00
75.9497 231.00
76.0149 189.00
76.0801 188.00
76.1452 199.00
76.2104 178.00
76.2756 208.00
76.3409 195.00
76.406 219.00
76.4712 175.00
76.5364 176.00
76.6016 215.00
76.6668 213.00
76.732 227.00
76.7972 210.00
76.8624 200.00
76.9276 178.00
76.9928 225.00
77.058 214.00
77.1232 233.00
77.1884 231.00
77.2536 195.00
77.3188 247.00
77.384 212.00
77.4492 207.00
77.5144 188.00
77.5796 224.00
77.6448 238.00
77.71 199.00
77.7752 196.00
77.8404 234.00
77.9056 235.00
77.9708 212.00
78.036 204.00
78.1012 224.00
78.1664 218.00
78.2316 221.00
78.2968 203.00
78.362 188.00
78.4272 206.00
78.4924 225.00
78.5576 205.00
78.6228 194.00
78.688 197.00
78.7532 199.00
78.8184 219.00
78.8836 210.00
78.9488 212.00
79.014 218.00
79.0792 215.00
79.1444 219.00
79.2096 211.00
79.2748 205.00
79.34 221.00
79.4052 200.00
79.4704 213.00
79.5356 244.00
79.6008 235.00
79.666 234.00
79.7312 226.00
79.7964 228.00
79.8616 236.00
79.9268 207.00
79.992 227.00
80.0572 231.00
80.1224 220.00
80.1876 180.00
80.2528 231.00
80.318 195.00
80.3832 225.00
80.4484 172.00
80.5136 217.00
80.5788 216.00
80.644 226.00
80.7092 237.00
80.7744 230.00
80.8396 232.00
80.9048 223.00
80.9699 236.00
81.0351 208.00
81.1003 226.00
81.1655 224.00
81.2307 225.00
81.2959 220.00
81.3611 218.00
81.4263 240.00
81.4915 259.00
81.5567 221.00
81.6219 229.00
81.6871 221.00
81.7523 235.00
81.8175 260.00
81.8827 228.00
81.9479 224.00
82.0131 222.00
82.0783 290.00
82.1435 239.00
82.2087 200.00
82.2739 199.00
82.3391 226.00
82.4043 229.00
82.4695 235.00
82.5347 214.00
82.5999 224.00
82.6651 196.00
82.7303 214.00
82.7955 241.00
82.8607 219.00
82.9259 218.00
82.9911 219.00
83.0563 236.00
83.1215 237.00
83.1867 225.00
83.2519 206.00
83.3171 198.00
83.3823 219.00
83.4475 244.00
83.5127 214.00
83.5779 224.00
83.6431 204.00
83.7083 244.00
83.7735 197.00
83.8387 230.00
83.9039 210.00
83.9691 224.00
84.0343 245.00
84.0995 225.00
84.1647 270.00
84.2299 231.00
84.2951 204.00
84.3603 227.00
84.4255 212.00
84.4907 209.00
84.5559 213.00
84.6211 225.00
84.6863 181.00
84.7515 207.00
84.8167 211.00
84.8819 217.00
84.9471 218.00
85.0123 168.00
85.0775 200.00
85.1427 184.00
85.2079 202.00
85.2731 210.00
85.3383 178.00
85.4035 210.00
85.4687 194.00
85.5339 211.00
85.5991 209.00
85.6643 213.00
85.7295 199.00
85.7946 226.00
85.8598 188.00
85.925 205.00
85.9903 214.00
86.0554 221.00
86.1206 194.00
86.1858 215.00
86.251 202.00
86.3162 208.00
86.3814 207.00
86.4466 220.00
86.5118 225.00
86.577 205.00
86.6422 220.00
86.7074 206.00
86.7726 184.00
86.8378 224.00
86.903 185.00
86.9682 207.00
87.0334 203.00
87.0986 194.00
87.1638 205.00
87.229 209.00
87.2942 195.00
87.3594 182.00
87.4246 217.00
87.4898 184.00
87.555 205.00
87.6202 151.00
87.6854 184.00
87.7506 216.00
87.8158 211.00
87.881 188.00
87.9462 221.00
88.0114 207.00
88.0766 195.00
88.1418 174.00
88.207 194.00
88.2722 192.00
88.3374 197.00
88.4026 196.00
88.4678 209.00
88.533 200.00
88.5982 209.00
88.6634 171.00
88.7286 182.00
88.7938 177.00
88.859 176.00
88.9242 199.00
88.9894 174.00
89.0546 190.00
89.1198 198.00
89.185 196.00
89.2502 171.00
89.3154 175.00
89.3806 178.00
89.4458 200.00
89.511 203.00
89.5762 178.00
89.6414 210.00
89.7066 186.00
89.7718 191.00
89.837 193.00
89.9022 199.00
89.9674 217.00
90.0326 187.00
90.0978 193.00
90.163 201.00
90.2282 174.00
90.2934 181.00
90.3586 190.00
90.4238 180.00
90.489 189.00
90.5542 200.00
90.6193 198.00
90.6845 157.00
90.7497 198.00
90.8149 195.00
90.8801 178.00
90.9453 189.00
91.0105 183.00
91.0757 196.00
91.1409 194.00
91.2061 180.00
91.2713 196.00
91.3365 191.00
91.4017 176.00
91.4669 167.00
91.5321 180.00
91.5973 191.00
91.6625 178.00
91.7277 190.00
91.7929 190.00
91.8581 191.00
91.9233 173.00
91.9885 175.00
92.0537 186.00
92.1189 172.00
92.1841 188.00
92.2493 184.00
92.3145 213.00
92.3797 189.00
92.4449 177.00
92.5101 201.00
92.5753 181.00
92.6405 171.00
92.7057 199.00
92.7709 182.00
92.8361 191.00
92.9013 169.00
92.9665 201.00
93.0317 179.00
93.0969 179.00
93.1621 177.00
93.2273 171.00
93.2925 181.00
93.3577 207.00
93.4229 169.00
93.4881 176.00
93.5533 187.00
93.6185 195.00
93.6837 197.00
93.7489 203.00
93.8141 186.00
93.8793 159.00
93.9445 188.00
94.0097 174.00
94.0749 174.00
94.1401 157.00
94.2053 183.00
94.2705 168.00
94.3357 170.00
94.4009 168.00
94.4661 168.00
94.5313 204.00
94.5965 188.00
94.6617 200.00
94.7269 193.00
94.7921 204.00
94.8573 200.00
94.9225 175.00
94.9877 196.00
95.0529 198.00
95.1181 183.00
95.1833 187.00
95.2485 169.00
95.3137 199.00
95.3789 204.00
95.444 193.00
95.5092 176.00
95.5744 179.00
95.6396 197.00
95.7048 174.00
95.77 206.00
95.8352 183.00
95.9004 163.00
95.9656 166.00
96.0308 149.00
96.096 194.00
96.1612 190.00
96.2264 198.00
96.2916 181.00
96.3568 159.00
96.422 194.00
96.4872 163.00
96.5524 181.00
96.6176 188.00
96.6828 182.00
96.748 186.00
96.8132 162.00
96.8784 145.00
96.9436 182.00
97.0088 182.00
97.074 173.00
97.1392 176.00
97.2044 186.00
97.2696 198.00
97.3348 195.00
97.4 178.00
97.4652 163.00
97.5304 173.00
97.5956 205.00
97.6608 159.00
97.726 181.00
97.7912 173.00
97.8564 204.00
97.9216 199.00
97.9868 155.00
98.052 159.00
98.1172 167.00
98.1824 196.00
98.2476 155.00
98.3128 202.00
98.378 201.00
98.4432 190.00
98.5084 175.00
98.5736 205.00
98.6388 186.00
98.704 178.00
98.7692 187.00
98.8344 195.00
98.8996 177.00
98.9648 202.00
99.03 188.00
99.0952 200.00
99.1604 184.00
99.2256 177.00
99.2908 171.00
99.356 193.00
99.4212 181.00
99.4864 171.00
99.5516 189.00
99.6168 199.00
99.682 174.00
99.7472 174.00
99.8124 139.00
99.8776 181.00
99.9428 194.00
100.008 169.00
100.073 170.00
100.095 174.00