File: data/xrd_creation/results/Na_47.xy
9.903433 2631.00
9.968632 2609.00
10.0338 2710.00
10.099 2577.00
10.1642 2628.00
10.2294 2539.00
10.2946 2475.00
10.3598 2669.00
10.425 2453.00
10.4902 2544.00
10.5554 2486.00
10.6206 2382.00
10.6858 2437.00
10.751 2359.00
10.8162 2321.00
10.8814 2404.00
10.9466 2440.00
11.0118 2291.00
11.077 2308.00
11.1422 2352.00
11.2074 2308.00
11.2726 2258.00
11.3378 2196.00
11.403 2218.00
11.4682 2246.00
11.5334 2294.00
11.5986 2214.00
11.6638 2205.00
11.729 2168.00
11.7942 2169.00
11.8594 2167.00
11.9246 2049.00
11.9898 2099.00
12.055 2068.00
12.1202 2050.00
12.1854 2129.00
12.2506 2062.00
12.3158 2068.00
12.381 2026.00
12.4462 2078.00
12.5114 1981.00
12.5766 2032.00
12.6418 2020.00
12.707 1937.00
12.7722 1981.00
12.8374 2002.00
12.9026 1961.00
12.9678 1948.00
13.033 1922.00
13.0982 1928.00
13.1634 1847.00
13.2286 1921.00
13.2938 1831.00
13.359 1863.00
13.4242 1948.00
13.4894 1846.00
13.5546 1935.00
13.6198 1826.00
13.685 1802.00
13.7502 1868.00
13.8154 1866.00
13.8805 1885.00
13.9457 1893.00
14.0109 1824.00
14.0761 1847.00
14.1413 1928.00
14.2065 2025.00
14.2717 1994.00
14.3369 2004.00
14.4021 2127.00
14.4673 2245.00
14.5325 2315.00
14.5977 2174.00
14.6629 2096.00
14.7281 1904.00
14.7933 1934.00
14.8585 1840.00
14.9237 1932.00
14.9889 1813.00
15.0541 1755.00
15.1193 1759.00
15.1845 1736.00
15.2497 1753.00
15.3149 1716.00
15.3801 1711.00
15.4453 1773.00
15.5105 1774.00
15.5757 1730.00
15.6409 1763.00
15.7061 1736.00
15.7713 1701.00
15.8365 1706.00
15.9017 1756.00
15.9669 1734.00
16.0321 1649.00
16.0973 1680.00
16.1625 1752.00
16.2277 1656.00
16.2929 1637.00
16.3581 1645.00
16.4233 1698.00
16.4885 1746.00
16.5537 1731.00
16.6189 1717.00
16.6841 1713.00
16.7493 1701.00
16.8145 1642.00
16.8797 1615.00
16.9449 1699.00
17.0101 1723.00
17.0753 1608.00
17.1405 1590.00
17.2057 1661.00
17.2709 1565.00
17.3361 1624.00
17.4013 1669.00
17.4665 1593.00
17.5317 1639.00
17.5969 1626.00
17.6621 1576.00
17.7273 1533.00
17.7925 1567.00
17.8577 1615.00
17.9229 1561.00
17.9881 1611.00
18.0533 1544.00
18.1185 1657.00
18.1837 1491.00
18.2489 1603.00
18.3141 1630.00
18.3793 1579.00
18.4445 1605.00
18.5097 1545.00
18.5749 1543.00
18.6401 1540.00
18.7052 1634.00
18.7704 1604.00
18.8356 1603.00
18.9008 1554.00
18.966 1542.00
19.0312 1512.00
19.0964 1506.00
19.1616 1581.00
19.2268 1524.00
19.292 1607.00
19.3572 1536.00
19.4224 1494.00
19.4876 1526.00
19.5528 1526.00
19.618 1539.00
19.6832 1480.00
19.7484 1513.00
19.8136 1434.00
19.8788 1465.00
19.944 1490.00
20.0092 1486.00
20.0744 1459.00
20.1396 1438.00
20.2048 1437.00
20.27 1481.00
20.3352 1445.00
20.4004 1444.00
20.4656 1476.00
20.5308 1536.00
20.596 1544.00
20.6612 1459.00
20.7264 1488.00
20.7916 1528.00
20.8568 1527.00
20.922 1562.00
20.9872 1471.00
21.0524 1513.00
21.1176 1467.00
21.1828 1437.00
21.248 1382.00
21.3132 1392.00
21.3784 1433.00
21.4436 1495.00
21.5088 1471.00
21.574 1426.00
21.6392 1460.00
21.7044 1449.00
21.7696 1464.00
21.8348 1446.00
21.9 1469.00
21.9652 1561.00
22.0304 1536.00
22.0956 1507.00
22.1608 1600.00
22.226 1640.00
22.2912 1626.00
22.3564 1723.00
22.4216 1779.00
22.4868 1927.00
22.552 1983.00
22.6172 2302.00
22.6824 2542.00
22.7476 3197.00
22.8128 4560.00
22.878 6840.00
22.9432 11739.00
23.0084 21272.00
23.0736 38519.00
23.1388 44214.00
23.204 20678.00
23.2692 6428.00
23.3344 3631.00
23.3996 2749.00
23.4647 2432.00
23.5299 2092.00
23.5951 1846.00
23.6603 1749.00
23.7255 1708.00
23.7907 1640.00
23.8559 1725.00
23.9211 1560.00
23.9863 1616.00
24.0515 1532.00
24.1167 1510.00
24.1819 1527.00
24.2471 1571.00
24.3123 1527.00
24.3775 1517.00
24.4427 1469.00
24.5079 1428.00
24.5731 1472.00
24.6383 1483.00
24.7035 1430.00
24.7687 1458.00
24.8339 1409.00
24.8991 1440.00
24.9643 1426.00
25.0295 1391.00
25.0947 1377.00
25.1599 1422.00
25.2251 1419.00
25.2903 1393.00
25.3555 1371.00
25.4207 1308.00
25.4859 1334.00
25.5511 1341.00
25.6163 1386.00
25.6815 1367.00
25.7467 1367.00
25.8119 1342.00
25.8771 1316.00
25.9423 1356.00
26.0075 1304.00
26.0727 1291.00
26.1379 1283.00
26.2031 1289.00
26.2683 1326.00
26.3335 1267.00
26.3987 1327.00
26.4639 1297.00
26.5291 1369.00
26.5943 1377.00
26.6595 1314.00
26.7247 1259.00
26.7899 1392.00
26.8551 1384.00
26.9203 1354.00
26.9855 1328.00
27.0507 1307.00
27.1159 1355.00
27.1811 1292.00
27.2463 1320.00
27.3115 1242.00
27.3767 1286.00
27.4419 1366.00
27.5071 1391.00
27.5723 1360.00
27.6375 1395.00
27.7027 1433.00
27.7679 1518.00
27.8331 1622.00
27.8983 1654.00
27.9635 1645.00
28.0287 1657.00
28.0939 1573.00
28.1591 1711.00
28.2243 1844.00
28.2894 1663.00
28.3546 1443.00
28.4198 1480.00
28.485 1461.00
28.5502 1544.00
28.6154 1475.00
28.6806 1586.00
28.7458 1567.00
28.811 1899.00
28.8762 2202.00
28.9414 2717.00
29.0066 3310.00
29.0718 3351.00
29.137 2822.00
29.2022 2504.00
29.2674 2434.00
29.3326 2431.00
29.3978 2704.00
29.463 3117.00
29.5282 3432.00
29.5934 3050.00
29.6586 2415.00
29.7238 1744.00
29.789 1497.00
29.8542 1424.00
29.9194 1325.00
29.9846 1296.00
30.0498 1261.00
30.115 1234.00
30.1802 1232.00
30.2454 1215.00
30.3106 1206.00
30.3758 1243.00
30.441 1232.00
30.5062 1179.00
30.5714 1207.00
30.6366 1180.00
30.7018 1192.00
30.767 1211.00
30.8322 1190.00
30.8974 1218.00
30.9626 1167.00
31.0278 1227.00
31.093 1191.00
31.1582 1192.00
31.2234 1216.00
31.2886 1191.00
31.3538 1199.00
31.419 1266.00
31.4842 1171.00
31.5494 1255.00
31.6146 1357.00
31.6798 1423.00
31.745 1388.00
31.8102 1393.00
31.8754 1423.00
31.9406 1606.00
32.0058 1511.00
32.071 1559.00
32.1362 1628.00
32.2014 1856.00
32.2666 2013.00
32.3318 2293.00
32.397 2670.00
32.4622 3435.00
32.5274 5054.00
32.5926 8929.00
32.6578 18055.00
32.723 36739.00
32.7882 49689.00
32.8534 32938.00
32.9186 14917.00
32.9838 7028.00
33.0489 4257.00
33.1141 3014.00
33.1793 2462.00
33.2445 1963.00
33.3097 1740.00
33.3749 1584.00
33.4401 1539.00
33.5053 1478.00
33.5705 1547.00
33.6357 1551.00
33.7009 1733.00
33.7661 2156.00
33.8313 2560.00
33.8965 2777.00
33.9617 2466.00
34.0269 2008.00
34.0921 1640.00
34.1573 1398.00
34.2225 1351.00
34.2877 1270.00
34.3529 1204.00
34.4181 1164.00
34.4833 1196.00
34.5485 1309.00
34.6137 1228.00
34.6789 1214.00
34.7441 1163.00
34.8093 1106.00
34.8745 1105.00
34.9397 1199.00
35.0049 1115.00
35.0701 1130.00
35.1353 1110.00
35.2005 1137.00
35.2657 1127.00
35.3309 1102.00
35.3961 1071.00
35.4613 1148.00
35.5265 1098.00
35.5917 1168.00
35.6569 1114.00
35.7221 1095.00
35.7873 1132.00
35.8525 1126.00
35.9177 1095.00
35.9829 991.00
36.0481 1106.00
36.1133 1105.00
36.1785 1115.00
36.2437 1098.00
36.3089 1164.00
36.3741 1158.00
36.4393 1133.00
36.5045 1141.00
36.5697 1127.00
36.6349 1115.00
36.7001 1203.00
36.7653 1170.00
36.8305 1150.00
36.8957 1170.00
36.9609 1206.00
37.0261 1186.00
37.0913 1090.00
37.1565 1132.00
37.2217 1142.00
37.2869 1135.00
37.3521 1041.00
37.4173 1086.00
37.4825 1024.00
37.5477 1067.00
37.6129 1095.00
37.6781 1041.00
37.7433 1005.00
37.8085 1071.00
37.8736 1064.00
37.9388 1102.00
38.004 1005.00
38.0692 1035.00
38.1344 1080.00
38.1996 1038.00
38.2648 1088.00
38.33 1046.00
38.3952 1127.00
38.4604 1181.00
38.5256 1316.00
38.5908 1322.00
38.656 1254.00
38.7212 1197.00
38.7864 1095.00
38.8516 1115.00
38.9168 994.00
38.982 1156.00
39.0472 1064.00
39.1124 1039.00
39.1776 1044.00
39.2428 1012.00
39.308 1059.00
39.3732 1037.00
39.4384 1051.00
39.5036 1084.00
39.5688 1033.00
39.634 1013.00
39.6992 1064.00
39.7644 1159.00
39.8296 1142.00
39.8948 1156.00
39.96 1095.00
40.0252 1289.00
40.0904 1481.00
40.1556 1867.00
40.2208 2981.00
40.286 4726.00
40.3512 6324.00
40.4164 5502.00
40.4816 3981.00
40.5468 2464.00
40.612 1717.00
40.6772 1430.00
40.7424 1286.00
40.8076 1151.00
40.8728 1037.00
40.938 1044.00
41.0032 1068.00
41.0684 1042.00
41.1336 1020.00
41.1988 1079.00
41.264 985.00
41.3292 997.00
41.3944 990.00
41.4596 1011.00
41.5248 987.00
41.59 993.00
41.6552 944.00
41.7204 979.00
41.7856 989.00
41.8508 957.00
41.916 1017.00
41.9812 993.00
42.0464 927.00
42.1116 1045.00
42.1768 1088.00
42.242 1003.00
42.3072 938.00
42.3724 1004.00
42.4376 928.00
42.5028 942.00
42.568 976.00
42.6332 982.00
42.6983 996.00
42.7635 963.00
42.8287 983.00
42.8939 970.00
42.9591 862.00
43.0243 962.00
43.0895 976.00
43.1547 925.00
43.2199 926.00
43.2851 1004.00
43.3503 976.00
43.4155 954.00
43.4807 1007.00
43.5459 957.00
43.6111 1051.00
43.6763 1054.00
43.7415 1046.00
43.8067 1080.00
43.8719 1079.00
43.9371 1020.00
44.0023 1059.00
44.0675 1038.00
44.1327 1086.00
44.1979 1037.00
44.2631 1059.00
44.3283 988.00
44.3935 1017.00
44.4587 1005.00
44.5239 982.00
44.5891 982.00
44.6543 992.00
44.7195 957.00
44.7847 962.00
44.8499 939.00
44.9151 946.00
44.9803 920.00
45.0455 977.00
45.1107 977.00
45.1759 967.00
45.2411 1006.00
45.3063 1043.00
45.3715 1036.00
45.4367 983.00
45.5019 1024.00
45.5671 987.00
45.6323 1006.00
45.6975 1006.00
45.7627 1093.00
45.8279 1043.00
45.8931 1041.00
45.9583 1016.00
46.0235 1053.00
46.0887 1030.00
46.1539 1050.00
46.2191 1050.00
46.2843 1124.00
46.3495 1183.00
46.4147 1238.00
46.4799 1332.00
46.5451 1505.00
46.6103 1825.00
46.6755 2479.00
46.7407 4432.00
46.8059 9522.00
46.8711 14333.00
46.9363 13978.00
47.0015 9736.00
47.0667 6114.00
47.1319 2772.00
47.1971 1916.00
47.2623 1634.00
47.3275 1371.00
47.3927 1258.00
47.4579 1280.00
47.523 1203.00
47.5882 1124.00
47.6534 1145.00
47.7186 1185.00
47.7838 1164.00
47.849 1230.00
47.9142 1183.00
47.9794 1202.00
48.0446 1187.00
48.1098 1196.00
48.175 1167.00
48.2402 1203.00
48.3054 1286.00
48.3706 1517.00
48.4358 1672.00
48.501 1886.00
48.5662 1992.00
48.6314 1812.00
48.6966 1680.00
48.7618 1464.00
48.827 1373.00
48.8922 1210.00
48.9574 1232.00
49.0226 1187.00
49.0878 1195.00
49.153 1195.00
49.2182 1267.00
49.2834 1190.00
49.3486 1152.00
49.4138 1090.00
49.479 1111.00
49.5442 1000.00
49.6094 977.00
49.6746 963.00
49.7398 1047.00
49.805 997.00
49.8702 1011.00
49.9354 962.00
50.0006 974.00
50.0658 1017.00
50.131 1018.00
50.1962 1032.00
50.2614 983.00
50.3266 1037.00
50.3918 1013.00
50.457 992.00
50.5222 1050.00
50.5874 1049.00
50.6526 1011.00
50.7178 1079.00
50.783 1090.00
50.8482 1090.00
50.9134 1132.00
50.9786 1168.00
51.0438 1106.00
51.109 1071.00
51.1742 1177.00
51.2394 1125.00
51.3046 1124.00
51.3698 1165.00
51.435 1185.00
51.5002 1170.00
51.5654 1274.00
51.6306 1185.00
51.6958 1110.00
51.761 1123.00
51.8262 1050.00
51.8914 1109.00
51.9566 1134.00
52.0218 1233.00
52.087 1266.00
52.1522 1282.00
52.2174 1345.00
52.2826 1463.00
52.3477 1644.00
52.4129 1883.00
52.4781 2282.00
52.5433 3223.00
52.6085 5256.00
52.6737 10568.00
52.7389 17673.00
52.8041 16333.00
52.8693 13036.00
52.9345 9836.00
52.9997 5489.00
53.0649 3342.00
53.1301 2467.00
53.1953 1893.00
53.2605 1542.00
53.3257 1406.00
53.3909 1290.00
53.4561 1159.00
53.5213 1086.00
53.5865 1087.00
53.6517 1093.00
53.7169 1104.00
53.7821 1030.00
53.8473 1019.00
53.9125 1025.00
53.9777 987.00
54.0429 970.00
54.1081 1002.00
54.1733 991.00
54.2385 982.00
54.3037 986.00
54.3689 1035.00
54.4341 960.00
54.4993 957.00
54.5645 936.00
54.6297 913.00
54.6949 985.00
54.7601 931.00
54.8253 997.00
54.8905 963.00
54.9557 990.00
55.0209 974.00
55.0861 919.00
55.1513 916.00
55.2165 951.00
55.2817 956.00
55.3469 923.00
55.4121 974.00
55.4773 1019.00
55.5425 989.00
55.6077 947.00
55.6729 945.00
55.7381 946.00
55.8033 998.00
55.8685 989.00
55.9337 981.00
55.9989 1047.00
56.0641 1047.00
56.1293 1004.00
56.1945 1006.00
56.2597 1014.00
56.3249 1039.00
56.3901 1055.00
56.4553 1048.00
56.5205 1095.00
56.5857 1118.00
56.6509 1123.00
56.7161 1091.00
56.7813 1097.00
56.8465 1139.00
56.9117 1196.00
56.9769 1250.00
57.042 1450.00
57.1073 1437.00
57.1724 1502.00
57.2376 1412.00
57.3028 1563.00
57.368 1551.00
57.4332 1543.00
57.4984 1643.00
57.5636 1620.00
57.6288 1770.00
57.694 1718.00
57.7592 1978.00
57.8244 2187.00
57.8896 2641.00
57.9548 3377.00
58.02 4777.00
58.0852 7891.00
58.1504 12129.00
58.2156 14740.00
58.2808 12868.00
58.346 11364.00
58.4112 8941.00
58.4764 5894.00
58.5416 4010.00
58.6068 2982.00
58.672 2067.00
58.7372 1643.00
58.8024 1442.00
58.8676 1247.00
58.9328 1219.00
58.998 1119.00
59.0632 1026.00
59.1284 1062.00
59.1936 1022.00
59.2588 1076.00
59.324 1076.00
59.3892 999.00
59.4544 1052.00
59.5196 1073.00
59.5848 1075.00
59.65 1081.00
59.7152 1076.00
59.7804 1081.00
59.8456 1068.00
59.9108 1127.00
59.976 1050.00
60.0412 1006.00
60.1064 1076.00
60.1716 992.00
60.2368 996.00
60.302 945.00
60.3672 984.00
60.4324 953.00
60.4976 948.00
60.5628 980.00
60.628 979.00
60.6932 1007.00
60.7584 1014.00
60.8236 1087.00
60.8888 1124.00
60.954 1116.00
61.0192 1086.00
61.0844 1012.00
61.1496 1007.00
61.2148 973.00
61.28 971.00
61.3452 934.00
61.4104 1021.00
61.4756 926.00
61.5408 889.00
61.606 969.00
61.6712 913.00
61.7364 958.00
61.8016 916.00
61.8667 926.00
61.932 992.00
61.9971 905.00
62.0623 935.00
62.1275 1014.00
62.1927 954.00
62.2579 966.00
62.3231 896.00
62.3883 943.00
62.4535 991.00
62.5187 914.00
62.5839 945.00
62.6491 959.00
62.7143 956.00
62.7795 952.00
62.8447 916.00
62.9099 959.00
62.9751 939.00
63.0403 943.00
63.1055 880.00
63.1707 896.00
63.2359 904.00
63.3011 907.00
63.3663 878.00
63.4315 892.00
63.4967 953.00
63.5619 923.00
63.6271 963.00
63.6923 888.00
63.7575 935.00
63.8227 850.00
63.8879 907.00
63.9531 932.00
64.0183 848.00
64.0835 907.00
64.1487 962.00
64.2139 925.00
64.2791 953.00
64.3443 943.00
64.4095 902.00
64.4747 837.00
64.5399 879.00
64.6051 935.00
64.6703 867.00
64.7355 877.00
64.8007 911.00
64.8659 895.00
64.9311 846.00
64.9963 905.00
65.0615 903.00
65.1267 841.00
65.1919 911.00
65.2571 927.00
65.3223 957.00
65.3875 968.00
65.4527 868.00
65.5179 889.00
65.5831 844.00
65.6483 943.00
65.7135 888.00
65.7787 898.00
65.8439 942.00
65.9091 891.00
65.9743 880.00
66.0395 915.00
66.1047 898.00
66.1699 859.00
66.2351 888.00
66.3003 900.00
66.3655 910.00
66.4307 942.00
66.4959 900.00
66.561 933.00
66.6263 916.00
66.6915 880.00
66.7566 969.00
66.8218 962.00
66.887 917.00
66.9522 965.00
67.0174 949.00
67.0826 987.00
67.1478 893.00
67.213 923.00
67.2782 918.00
67.3434 954.00
67.4086 943.00
67.4738 944.00
67.539 949.00
67.6042 994.00
67.6694 1016.00
67.7346 1135.00
67.7998 1219.00
67.865 1327.00
67.9302 1474.00
67.9954 1721.00
68.0606 2092.00
68.1258 2762.00
68.191 4447.00
68.2562 6722.00
68.3214 5506.00
68.3866 4384.00
68.4518 4334.00
68.517 3488.00
68.5822 2270.00
68.6474 1863.00
68.7126 1556.00
68.7778 1337.00
68.843 1302.00
68.9082 1052.00
68.9734 1117.00
69.0386 1030.00
69.1038 911.00
69.169 936.00
69.2342 897.00
69.2994 968.00
69.3646 947.00
69.4298 883.00
69.495 962.00
69.5602 882.00
69.6254 930.00
69.6906 899.00
69.7558 884.00
69.821 888.00
69.8862 905.00
69.9514 890.00
70.0166 863.00
70.0818 886.00
70.147 900.00
70.2122 894.00
70.2774 950.00
70.3426 937.00
70.4078 961.00
70.473 944.00
70.5382 931.00
70.6034 923.00
70.6686 1021.00
70.7338 966.00
70.799 1034.00
70.8642 977.00
70.9294 1014.00
70.9946 1039.00
71.0598 947.00
71.125 961.00
71.1902 960.00
71.2554 973.00
71.3205 950.00
71.3858 942.00
71.451 975.00
71.5162 927.00
71.5813 928.00
71.6465 910.00
71.7117 927.00
71.7769 966.00
71.8421 967.00
71.9073 957.00
71.9725 948.00
72.0377 896.00
72.1029 935.00
72.1681 1002.00
72.2333 1003.00
72.2985 1037.00
72.3637 1027.00
72.4289 1096.00
72.4941 1135.00
72.5593 1235.00
72.6245 1316.00
72.6897 1515.00
72.7549 1949.00
72.8201 2524.00
72.8853 3517.00
72.9505 4826.00
73.0157 5594.00
73.0809 5529.00
73.1461 4917.00
73.2113 4436.00
73.2765 3756.00
73.3417 2939.00
73.4069 2326.00
73.4721 1700.00
73.5373 1520.00
73.6025 1379.00
73.6677 1203.00
73.7329 1137.00
73.7981 995.00
73.8633 1035.00
73.9285 998.00
73.9937 982.00
74.0589 953.00
74.1241 898.00
74.1893 903.00
74.2545 896.00
74.3197 931.00
74.3849 850.00
74.4501 908.00
74.5153 909.00
74.5805 927.00
74.6457 886.00
74.7109 904.00
74.7761 866.00
74.8413 907.00
74.9065 906.00
74.9717 864.00
75.0369 967.00
75.1021 911.00
75.1673 886.00
75.2325 908.00
75.2977 896.00
75.3629 911.00
75.4281 1002.00
75.4933 846.00
75.5585 883.00
75.6237 876.00
75.6889 917.00
75.7541 894.00
75.8193 875.00
75.8845 891.00
75.9497 827.00
76.0149 937.00
76.0801 911.00
76.1452 883.00
76.2104 917.00
76.2756 902.00
76.3409 833.00
76.406 916.00
76.4712 912.00
76.5364 950.00
76.6016 857.00
76.6668 922.00
76.732 923.00
76.7972 922.00
76.8624 903.00
76.9276 941.00
76.9928 957.00
77.058 1034.00
77.1232 1096.00
77.1884 1110.00
77.2536 1196.00
77.3188 1334.00
77.384 1537.00
77.4492 2032.00
77.5144 2981.00
77.5796 4489.00
77.6448 4943.00
77.71 4774.00
77.7752 4435.00
77.8404 4079.00
77.9056 3594.00
77.9708 2959.00
78.036 2164.00
78.1012 1674.00
78.1664 1535.00
78.2316 1283.00
78.2968 1220.00
78.362 1164.00
78.4272 1070.00
78.4924 1026.00
78.5576 992.00
78.6228 1031.00
78.688 1083.00
78.7532 1010.00
78.8184 1044.00
78.8836 1026.00
78.9488 1003.00
79.014 964.00
79.0792 970.00
79.1444 970.00
79.2096 957.00
79.2748 941.00
79.34 1011.00
79.4052 987.00
79.4704 958.00
79.5356 994.00
79.6008 947.00
79.666 976.00
79.7312 972.00
79.7964 942.00
79.8616 938.00
79.9268 900.00
79.992 933.00
80.0572 864.00
80.1224 870.00
80.1876 971.00
80.2528 934.00
80.318 992.00
80.3832 972.00
80.4484 1012.00
80.5136 979.00
80.5788 993.00
80.644 942.00
80.7092 954.00
80.7744 999.00
80.8396 1058.00
80.9048 1018.00
80.9699 995.00
81.0351 1018.00
81.1003 949.00
81.1655 1011.00
81.2307 949.00
81.2959 951.00
81.3611 952.00
81.4263 949.00
81.4915 997.00
81.5567 1000.00
81.6219 976.00
81.6871 1035.00
81.7523 1080.00
81.8175 1089.00
81.8827 1171.00
81.9479 1373.00
82.0131 1750.00
82.0783 2231.00
82.1435 2678.00
82.2087 2756.00
82.2739 2564.00
82.3391 2409.00
82.4043 2400.00
82.4695 2240.00
82.5347 1828.00
82.5999 1568.00
82.6651 1322.00
82.7303 1178.00
82.7955 1202.00
82.8607 1045.00
82.9259 977.00
82.9911 942.00
83.0563 902.00
83.1215 937.00
83.1867 948.00
83.2519 892.00
83.3171 935.00
83.3823 921.00
83.4475 858.00
83.5127 891.00
83.5779 898.00
83.6431 940.00
83.7083 893.00
83.7735 846.00
83.8387 904.00
83.9039 937.00
83.9691 899.00
84.0343 886.00
84.0995 861.00
84.1647 878.00
84.2299 808.00
84.2951 882.00
84.3603 911.00
84.4255 895.00
84.4907 900.00
84.5559 875.00
84.6211 870.00
84.6863 861.00
84.7515 854.00
84.8167 816.00
84.8819 903.00
84.9471 849.00
85.0123 844.00
85.0775 793.00
85.1427 876.00
85.2079 932.00
85.2731 868.00
85.3383 833.00
85.4035 877.00
85.4687 861.00
85.5339 854.00
85.5991 816.00
85.6643 843.00
85.7295 911.00
85.7946 875.00
85.8598 874.00
85.925 894.00
85.9903 877.00
86.0554 870.00
86.1206 932.00
86.1858 954.00
86.251 997.00
86.3162 1061.00
86.3814 1149.00
86.4466 1339.00
86.5118 1461.00
86.577 1545.00
86.6422 1692.00
86.7074 1772.00
86.7726 1822.00
86.8378 1630.00
86.903 1581.00
86.9682 1597.00
87.0334 1485.00
87.0986 1281.00
87.1638 1181.00
87.229 1191.00
87.2942 1118.00
87.3594 1051.00
87.4246 894.00
87.4898 930.00
87.555 963.00
87.6202 956.00
87.6854 942.00
87.7506 909.00
87.8158 941.00
87.881 895.00
87.9462 906.00
88.0114 867.00
88.0766 864.00
88.1418 899.00
88.207 896.00
88.2722 909.00
88.3374 775.00
88.4026 906.00
88.4678 885.00
88.533 833.00
88.5982 878.00
88.6634 881.00
88.7286 815.00
88.7938 814.00
88.859 897.00
88.9242 900.00
88.9894 919.00
89.0546 872.00
89.1198 889.00
89.185 915.00
89.2502 826.00
89.3154 911.00
89.3806 853.00
89.4458 895.00
89.511 857.00
89.5762 904.00
89.6414 857.00
89.7066 920.00
89.7718 886.00
89.837 886.00
89.9022 877.00
89.9674 972.00
90.0326 990.00
90.0978 970.00
90.163 926.00
90.2282 927.00
90.2934 929.00
90.3586 902.00
90.4238 970.00
90.489 968.00
90.5542 982.00
90.6193 991.00
90.6845 1034.00
90.7497 1162.00
90.8149 1208.00
90.8801 1252.00
90.9453 1459.00
91.0105 1715.00
91.0757 2195.00
91.1409 2780.00
91.2061 2708.00
91.2713 2303.00
91.3365 2025.00
91.4017 2037.00
91.4669 2085.00
91.5321 1892.00
91.5973 1561.00
91.6625 1219.00
91.7277 1176.00
91.7929 1058.00
91.8581 1113.00
91.9233 1045.00
91.9885 1018.00
92.0537 1001.00
92.1189 931.00
92.1841 916.00
92.2493 890.00
92.3145 891.00
92.3797 930.00
92.4449 960.00
92.5101 916.00
92.5753 853.00
92.6405 877.00
92.7057 855.00
92.7709 927.00
92.8361 876.00
92.9013 926.00
92.9665 894.00
93.0317 825.00
93.0969 920.00
93.1621 870.00
93.2273 930.00
93.2925 874.00
93.3577 889.00
93.4229 875.00
93.4881 880.00
93.5533 902.00
93.6185 868.00
93.6837 878.00
93.7489 883.00
93.8141 892.00
93.8793 855.00
93.9445 902.00
94.0097 906.00
94.0749 901.00
94.1401 920.00
94.2053 883.00
94.2705 906.00
94.3357 889.00
94.4009 869.00
94.4661 899.00
94.5313 859.00
94.5965 927.00
94.6617 902.00
94.7269 934.00
94.7921 1017.00
94.8573 1002.00
94.9225 1038.00
94.9877 1076.00
95.0529 1182.00
95.1181 1202.00
95.1833 1366.00
95.2485 1631.00
95.3137 1813.00
95.3789 2205.00
95.444 2776.00
95.5092 3442.00
95.5744 4188.00
95.6396 4438.00
95.7048 4332.00
95.77 4177.00
95.8352 3850.00
95.9004 3805.00
95.9656 3381.00
96.0308 3003.00
96.096 2638.00
96.1612 2311.00
96.2264 2046.00
96.2916 1692.00
96.3568 1567.00
96.422 1440.00
96.4872 1360.00
96.5524 1266.00
96.6176 1168.00
96.6828 1065.00
96.748 996.00
96.8132 1090.00
96.8784 1050.00
96.9436 1014.00
97.0088 929.00
97.074 1001.00
97.1392 868.00
97.2044 943.00
97.2696 939.00
97.3348 888.00
97.4 952.00
97.4652 896.00
97.5304 874.00
97.5956 885.00
97.6608 966.00
97.726 868.00
97.7912 899.00
97.8564 935.00
97.9216 934.00
97.9868 915.00
98.052 952.00
98.1172 913.00
98.1824 899.00
98.2476 895.00
98.3128 915.00
98.378 885.00
98.4432 872.00
98.5084 965.00
98.5736 935.00
98.6388 867.00
98.704 969.00
98.7692 903.00
98.8344 904.00
98.8996 903.00
98.9648 895.00
99.03 870.00
99.0952 901.00
99.1604 881.00
99.2256 881.00
99.2908 912.00
99.356 917.00
99.4212 826.00
99.4864 897.00
99.5516 874.00
99.6168 909.00
99.682 818.00
99.7472 910.00
99.8124 878.00
99.8776 896.00
99.9428 854.00
100.008 841.00
100.073 909.00
100.095 877.00