File: data/xrd_creation/results/Na_44.xy
9.903433 2674.00
9.968632 2603.00
10.0338 2653.00
10.099 2559.00
10.1642 2572.00
10.2294 2562.00
10.2946 2599.00
10.3598 2498.00
10.425 2525.00
10.4902 2545.00
10.5554 2360.00
10.6206 2443.00
10.6858 2427.00
10.751 2420.00
10.8162 2385.00
10.8814 2377.00
10.9466 2413.00
11.0118 2327.00
11.077 2421.00
11.1422 2210.00
11.2074 2260.00
11.2726 2325.00
11.3378 2147.00
11.403 2160.00
11.4682 2176.00
11.5334 2174.00
11.5986 2129.00
11.6638 2041.00
11.729 2168.00
11.7942 2085.00
11.8594 2030.00
11.9246 2039.00
11.9898 2048.00
12.055 2035.00
12.1202 2029.00
12.1854 1910.00
12.2506 1972.00
12.3158 1881.00
12.381 1947.00
12.4462 1834.00
12.5114 1899.00
12.5766 1883.00
12.6418 1882.00
12.707 1867.00
12.7722 1830.00
12.8374 1859.00
12.9026 1797.00
12.9678 1800.00
13.033 1813.00
13.0982 1721.00
13.1634 1690.00
13.2286 1848.00
13.2938 1700.00
13.359 1711.00
13.4242 1751.00
13.4894 1735.00
13.5546 1663.00
13.6198 1669.00
13.685 1542.00
13.7502 1675.00
13.8154 1610.00
13.8805 1554.00
13.9457 1607.00
14.0109 1545.00
14.0761 1533.00
14.1413 1566.00
14.2065 1521.00
14.2717 1517.00
14.3369 1490.00
14.4021 1490.00
14.4673 1538.00
14.5325 1483.00
14.5977 1500.00
14.6629 1407.00
14.7281 1431.00
14.7933 1438.00
14.8585 1464.00
14.9237 1494.00
14.9889 1460.00
15.0541 1452.00
15.1193 1427.00
15.1845 1443.00
15.2497 1380.00
15.3149 1409.00
15.3801 1454.00
15.4453 1369.00
15.5105 1381.00
15.5757 1390.00
15.6409 1358.00
15.7061 1340.00
15.7713 1372.00
15.8365 1368.00
15.9017 1389.00
15.9669 1350.00
16.0321 1363.00
16.0973 1274.00
16.1625 1261.00
16.2277 1313.00
16.2929 1302.00
16.3581 1311.00
16.4233 1367.00
16.4885 1305.00
16.5537 1244.00
16.6189 1304.00
16.6841 1253.00
16.7493 1193.00
16.8145 1217.00
16.8797 1304.00
16.9449 1313.00
17.0101 1220.00
17.0753 1257.00
17.1405 1314.00
17.2057 1260.00
17.2709 1221.00
17.3361 1238.00
17.4013 1251.00
17.4665 1118.00
17.5317 1188.00
17.5969 1166.00
17.6621 1189.00
17.7273 1219.00
17.7925 1210.00
17.8577 1166.00
17.9229 1151.00
17.9881 1137.00
18.0533 1171.00
18.1185 1149.00
18.1837 1189.00
18.2489 1060.00
18.3141 1149.00
18.3793 1117.00
18.4445 1144.00
18.5097 1090.00
18.5749 1152.00
18.6401 1142.00
18.7052 1067.00
18.7704 1103.00
18.8356 1028.00
18.9008 1164.00
18.966 1121.00
19.0312 1100.00
19.0964 1121.00
19.1616 1071.00
19.2268 1068.00
19.292 1053.00
19.3572 1076.00
19.4224 1042.00
19.4876 1058.00
19.5528 1009.00
19.618 1062.00
19.6832 1041.00
19.7484 1044.00
19.8136 998.00
19.8788 1025.00
19.944 994.00
20.0092 996.00
20.0744 986.00
20.1396 1002.00
20.2048 1050.00
20.27 974.00
20.3352 964.00
20.4004 977.00
20.4656 976.00
20.5308 968.00
20.596 1014.00
20.6612 998.00
20.7264 995.00
20.7916 975.00
20.8568 995.00
20.922 959.00
20.9872 986.00
21.0524 913.00
21.1176 868.00
21.1828 903.00
21.248 892.00
21.3132 978.00
21.3784 984.00
21.4436 944.00
21.5088 982.00
21.574 908.00
21.6392 880.00
21.7044 957.00
21.7696 919.00
21.8348 958.00
21.9 931.00
21.9652 913.00
22.0304 906.00
22.0956 894.00
22.1608 876.00
22.226 910.00
22.2912 843.00
22.3564 851.00
22.4216 896.00
22.4868 853.00
22.552 858.00
22.6172 905.00
22.6824 940.00
22.7476 863.00
22.8128 818.00
22.878 837.00
22.9432 804.00
23.0084 837.00
23.0736 831.00
23.1388 806.00
23.204 841.00
23.2692 865.00
23.3344 817.00
23.3996 856.00
23.4647 802.00
23.5299 874.00
23.5951 826.00
23.6603 896.00
23.7255 886.00
23.7907 833.00
23.8559 893.00
23.9211 862.00
23.9863 769.00
24.0515 854.00
24.1167 861.00
24.1819 835.00
24.2471 780.00
24.3123 792.00
24.3775 804.00
24.4427 774.00
24.5079 831.00
24.5731 734.00
24.6383 736.00
24.7035 768.00
24.7687 764.00
24.8339 770.00
24.8991 824.00
24.9643 795.00
25.0295 806.00
25.0947 813.00
25.1599 814.00
25.2251 783.00
25.2903 768.00
25.3555 802.00
25.4207 807.00
25.4859 779.00
25.5511 809.00
25.6163 828.00
25.6815 933.00
25.7467 918.00
25.8119 879.00
25.8771 795.00
25.9423 742.00
26.0075 848.00
26.0727 786.00
26.1379 721.00
26.2031 766.00
26.2683 674.00
26.3335 710.00
26.3987 776.00
26.4639 743.00
26.5291 691.00
26.5943 685.00
26.6595 717.00
26.7247 728.00
26.7899 770.00
26.8551 700.00
26.9203 729.00
26.9855 772.00
27.0507 707.00
27.1159 721.00
27.1811 767.00
27.2463 763.00
27.3115 726.00
27.3767 685.00
27.4419 755.00
27.5071 697.00
27.5723 715.00
27.6375 712.00
27.7027 698.00
27.7679 703.00
27.8331 734.00
27.8983 770.00
27.9635 842.00
28.0287 832.00
28.0939 816.00
28.1591 790.00
28.2243 853.00
28.2894 877.00
28.3546 690.00
28.4198 722.00
28.485 734.00
28.5502 720.00
28.6154 666.00
28.6806 684.00
28.7458 718.00
28.811 688.00
28.8762 688.00
28.9414 752.00
29.0066 709.00
29.0718 729.00
29.137 673.00
29.2022 712.00
29.2674 676.00
29.3326 710.00
29.3978 619.00
29.463 678.00
29.5282 644.00
29.5934 670.00
29.6586 653.00
29.7238 670.00
29.789 677.00
29.8542 681.00
29.9194 712.00
29.9846 719.00
30.0498 763.00
30.115 714.00
30.1802 673.00
30.2454 646.00
30.3106 633.00
30.3758 666.00
30.441 655.00
30.5062 687.00
30.5714 628.00
30.6366 646.00
30.7018 642.00
30.767 599.00
30.8322 613.00
30.8974 612.00
30.9626 627.00
31.0278 634.00
31.093 645.00
31.1582 633.00
31.2234 668.00
31.2886 702.00
31.3538 675.00
31.419 615.00
31.4842 599.00
31.5494 648.00
31.6146 620.00
31.6798 637.00
31.745 582.00
31.8102 568.00
31.8754 619.00
31.9406 622.00
32.0058 614.00
32.071 594.00
32.1362 604.00
32.2014 608.00
32.2666 603.00
32.3318 623.00
32.397 626.00
32.4622 581.00
32.5274 631.00
32.5926 669.00
32.6578 619.00
32.723 612.00
32.7882 559.00
32.8534 576.00
32.9186 550.00
32.9838 552.00
33.0489 583.00
33.1141 539.00
33.1793 498.00
33.2445 575.00
33.3097 566.00
33.3749 524.00
33.4401 573.00
33.5053 535.00
33.5705 514.00
33.6357 545.00
33.7009 510.00
33.7661 522.00
33.8313 504.00
33.8965 551.00
33.9617 565.00
34.0269 550.00
34.0921 522.00
34.1573 527.00
34.2225 561.00
34.2877 513.00
34.3529 561.00
34.4181 503.00
34.4833 511.00
34.5485 505.00
34.6137 540.00
34.6789 515.00
34.7441 511.00
34.8093 572.00
34.8745 601.00
34.9397 579.00
35.0049 563.00
35.0701 519.00
35.1353 516.00
35.2005 545.00
35.2657 558.00
35.3309 500.00
35.3961 576.00
35.4613 498.00
35.5265 474.00
35.5917 490.00
35.6569 466.00
35.7221 483.00
35.7873 442.00
35.8525 503.00
35.9177 443.00
35.9829 510.00
36.0481 480.00
36.1133 452.00
36.1785 490.00
36.2437 465.00
36.3089 479.00
36.3741 433.00
36.4393 419.00
36.5045 442.00
36.5697 448.00
36.6349 490.00
36.7001 465.00
36.7653 438.00
36.8305 466.00
36.8957 460.00
36.9609 454.00
37.0261 461.00
37.0913 478.00
37.1565 445.00
37.2217 412.00
37.2869 403.00
37.3521 427.00
37.4173 491.00
37.4825 429.00
37.5477 416.00
37.6129 412.00
37.6781 466.00
37.7433 454.00
37.8085 488.00
37.8736 451.00
37.9388 427.00
38.004 470.00
38.0692 461.00
38.1344 413.00
38.1996 380.00
38.2648 433.00
38.33 408.00
38.3952 469.00
38.4604 441.00
38.5256 429.00
38.5908 460.00
38.656 423.00
38.7212 445.00
38.7864 416.00
38.8516 430.00
38.9168 418.00
38.982 398.00
39.0472 458.00
39.1124 403.00
39.1776 401.00
39.2428 373.00
39.308 419.00
39.3732 431.00
39.4384 405.00
39.5036 397.00
39.5688 417.00
39.634 384.00
39.6992 405.00
39.7644 474.00
39.8296 386.00
39.8948 435.00
39.96 386.00
40.0252 432.00
40.0904 410.00
40.1556 419.00
40.2208 376.00
40.286 411.00
40.3512 398.00
40.4164 400.00
40.4816 394.00
40.5468 411.00
40.612 420.00
40.6772 389.00
40.7424 411.00
40.8076 389.00
40.8728 401.00
40.938 410.00
41.0032 374.00
41.0684 362.00
41.1336 389.00
41.1988 374.00
41.264 405.00
41.3292 359.00
41.3944 376.00
41.4596 391.00
41.5248 392.00
41.59 366.00
41.6552 364.00
41.7204 426.00
41.7856 388.00
41.8508 355.00
41.916 409.00
41.9812 407.00
42.0464 382.00
42.1116 379.00
42.1768 374.00
42.242 365.00
42.3072 410.00
42.3724 379.00
42.4376 330.00
42.5028 361.00
42.568 342.00
42.6332 346.00
42.6983 372.00
42.7635 344.00
42.8287 407.00
42.8939 395.00
42.9591 379.00
43.0243 402.00
43.0895 373.00
43.1547 368.00
43.2199 384.00
43.2851 368.00
43.3503 351.00
43.4155 376.00
43.4807 368.00
43.5459 355.00
43.6111 366.00
43.6763 376.00
43.7415 371.00
43.8067 352.00
43.8719 393.00
43.9371 367.00
44.0023 365.00
44.0675 365.00
44.1327 308.00
44.1979 357.00
44.2631 338.00
44.3283 366.00
44.3935 345.00
44.4587 359.00
44.5239 342.00
44.5891 342.00
44.6543 355.00
44.7195 365.00
44.7847 318.00
44.8499 327.00
44.9151 341.00
44.9803 333.00
45.0455 371.00
45.1107 363.00
45.1759 319.00
45.2411 314.00
45.3063 321.00
45.3715 329.00
45.4367 360.00
45.5019 322.00
45.5671 327.00
45.6323 369.00
45.6975 351.00
45.7627 356.00
45.8279 375.00
45.8931 347.00
45.9583 345.00
46.0235 329.00
46.0887 341.00
46.1539 346.00
46.2191 329.00
46.2843 332.00
46.3495 324.00
46.4147 326.00
46.4799 366.00
46.5451 356.00
46.6103 327.00
46.6755 356.00
46.7407 379.00
46.8059 308.00
46.8711 331.00
46.9363 333.00
47.0015 355.00
47.0667 322.00
47.1319 355.00
47.1971 329.00
47.2623 364.00
47.3275 349.00
47.3927 314.00
47.4579 323.00
47.523 329.00
47.5882 342.00
47.6534 362.00
47.7186 328.00
47.7838 308.00
47.849 321.00
47.9142 352.00
47.9794 306.00
48.0446 325.00
48.1098 316.00
48.175 320.00
48.2402 305.00
48.3054 318.00
48.3706 326.00
48.4358 311.00
48.501 322.00
48.5662 327.00
48.6314 348.00
48.6966 378.00
48.7618 306.00
48.827 377.00
48.8922 338.00
48.9574 330.00
49.0226 345.00
49.0878 313.00
49.153 341.00
49.2182 362.00
49.2834 314.00
49.3486 335.00
49.4138 328.00
49.479 301.00
49.5442 313.00
49.6094 303.00
49.6746 335.00
49.7398 330.00
49.805 292.00
49.8702 301.00
49.9354 344.00
50.0006 330.00
50.0658 312.00
50.131 343.00
50.1962 324.00
50.2614 313.00
50.3266 285.00
50.3918 263.00
50.457 304.00
50.5222 307.00
50.5874 292.00
50.6526 300.00
50.7178 307.00
50.783 289.00
50.8482 293.00
50.9134 296.00
50.9786 299.00
51.0438 298.00
51.109 279.00
51.1742 315.00
51.2394 314.00
51.3046 284.00
51.3698 311.00
51.435 293.00
51.5002 329.00
51.5654 316.00
51.6306 335.00
51.6958 303.00
51.761 315.00
51.8262 330.00
51.8914 326.00
51.9566 305.00
52.0218 314.00
52.087 303.00
52.1522 266.00
52.2174 294.00
52.2826 302.00
52.3477 262.00
52.4129 280.00
52.4781 306.00
52.5433 285.00
52.6085 286.00
52.6737 280.00
52.7389 307.00
52.8041 314.00
52.8693 287.00
52.9345 267.00
52.9997 279.00
53.0649 320.00
53.1301 278.00
53.1953 287.00
53.2605 301.00
53.3257 325.00
53.3909 264.00
53.4561 279.00
53.5213 266.00
53.5865 288.00
53.6517 286.00
53.7169 260.00
53.7821 295.00
53.8473 248.00
53.9125 294.00
53.9777 275.00
54.0429 318.00
54.1081 267.00
54.1733 324.00
54.2385 304.00
54.3037 300.00
54.3689 260.00
54.4341 269.00
54.4993 266.00
54.5645 296.00
54.6297 273.00
54.6949 274.00
54.7601 256.00
54.8253 227.00
54.8905 303.00
54.9557 283.00
55.0209 274.00
55.0861 267.00
55.1513 290.00
55.2165 281.00
55.2817 273.00
55.3469 314.00
55.4121 261.00
55.4773 291.00
55.5425 263.00
55.6077 279.00
55.6729 266.00
55.7381 261.00
55.8033 281.00
55.8685 292.00
55.9337 291.00
55.9989 285.00
56.0641 246.00
56.1293 281.00
56.1945 250.00
56.2597 279.00
56.3249 241.00
56.3901 239.00
56.4553 237.00
56.5205 269.00
56.5857 269.00
56.6509 238.00
56.7161 263.00
56.7813 244.00
56.8465 272.00
56.9117 256.00
56.9769 271.00
57.042 265.00
57.1073 256.00
57.1724 287.00
57.2376 256.00
57.3028 269.00
57.368 264.00
57.4332 249.00
57.4984 238.00
57.5636 269.00
57.6288 274.00
57.694 259.00
57.7592 244.00
57.8244 239.00
57.8896 243.00
57.9548 263.00
58.02 228.00
58.0852 268.00
58.1504 242.00
58.2156 260.00
58.2808 224.00
58.346 256.00
58.4112 257.00
58.4764 261.00
58.5416 272.00
58.6068 261.00
58.672 242.00
58.7372 271.00
58.8024 229.00
58.8676 228.00
58.9328 247.00
58.998 242.00
59.0632 232.00
59.1284 239.00
59.1936 243.00
59.2588 227.00
59.324 233.00
59.3892 249.00
59.4544 258.00
59.5196 228.00
59.5848 224.00
59.65 245.00
59.7152 223.00
59.7804 228.00
59.8456 248.00
59.9108 256.00
59.976 257.00
60.0412 212.00
60.1064 227.00
60.1716 230.00
60.2368 226.00
60.302 247.00
60.3672 238.00
60.4324 232.00
60.4976 233.00
60.5628 214.00
60.628 238.00
60.6932 265.00
60.7584 224.00
60.8236 209.00
60.8888 239.00
60.954 227.00
61.0192 241.00
61.0844 246.00
61.1496 240.00
61.2148 270.00
61.28 249.00
61.3452 248.00
61.4104 249.00
61.4756 245.00
61.5408 223.00
61.606 203.00
61.6712 237.00
61.7364 237.00
61.8016 236.00
61.8667 231.00
61.932 225.00
61.9971 267.00
62.0623 244.00
62.1275 240.00
62.1927 231.00
62.2579 227.00
62.3231 243.00
62.3883 229.00
62.4535 213.00
62.5187 221.00
62.5839 235.00
62.6491 229.00
62.7143 288.00
62.7795 212.00
62.8447 229.00
62.9099 210.00
62.9751 227.00
63.0403 231.00
63.1055 225.00
63.1707 213.00
63.2359 221.00
63.3011 219.00
63.3663 258.00
63.4315 216.00
63.4967 227.00
63.5619 220.00
63.6271 238.00
63.6923 215.00
63.7575 230.00
63.8227 222.00
63.8879 260.00
63.9531 216.00
64.0183 259.00
64.0835 234.00
64.1487 208.00
64.2139 237.00
64.2791 208.00
64.3443 213.00
64.4095 221.00
64.4747 219.00
64.5399 244.00
64.6051 225.00
64.6703 207.00
64.7355 206.00
64.8007 213.00
64.8659 227.00
64.9311 208.00
64.9963 215.00
65.0615 201.00
65.1267 245.00
65.1919 223.00
65.2571 218.00
65.3223 265.00
65.3875 243.00
65.4527 226.00
65.5179 229.00
65.5831 217.00
65.6483 227.00
65.7135 261.00
65.7787 287.00
65.8439 244.00
65.9091 212.00
65.9743 208.00
66.0395 228.00
66.1047 236.00
66.1699 182.00
66.2351 227.00
66.3003 210.00
66.3655 206.00
66.4307 236.00
66.4959 240.00
66.561 213.00
66.6263 210.00
66.6915 191.00
66.7566 218.00
66.8218 230.00
66.887 243.00
66.9522 230.00
67.0174 222.00
67.0826 216.00
67.1478 213.00
67.213 219.00
67.2782 232.00
67.3434 215.00
67.4086 210.00
67.4738 197.00
67.539 198.00
67.6042 226.00
67.6694 222.00
67.7346 258.00
67.7998 258.00
67.865 240.00
67.9302 237.00
67.9954 280.00
68.0606 211.00
68.1258 227.00
68.191 239.00
68.2562 261.00
68.3214 212.00
68.3866 240.00
68.4518 217.00
68.517 256.00
68.5822 228.00
68.6474 209.00
68.7126 231.00
68.7778 219.00
68.843 219.00
68.9082 239.00
68.9734 210.00
69.0386 219.00
69.1038 241.00
69.169 211.00
69.2342 198.00
69.2994 212.00
69.3646 204.00
69.4298 212.00
69.495 214.00
69.5602 222.00
69.6254 228.00
69.6906 217.00
69.7558 230.00
69.821 214.00
69.8862 194.00
69.9514 219.00
70.0166 216.00
70.0818 220.00
70.147 192.00
70.2122 227.00
70.2774 227.00
70.3426 223.00
70.4078 178.00
70.473 193.00
70.5382 241.00
70.6034 221.00
70.6686 181.00
70.7338 197.00
70.799 213.00
70.8642 209.00
70.9294 208.00
70.9946 241.00
71.0598 203.00
71.125 192.00
71.1902 222.00
71.2554 226.00
71.3205 203.00
71.3858 241.00
71.451 242.00
71.5162 238.00
71.5813 218.00
71.6465 236.00
71.7117 223.00
71.7769 212.00
71.8421 195.00
71.9073 228.00
71.9725 206.00
72.0377 192.00
72.1029 226.00
72.1681 199.00
72.2333 234.00
72.2985 193.00
72.3637 225.00
72.4289 220.00
72.4941 201.00
72.5593 246.00
72.6245 219.00
72.6897 217.00
72.7549 223.00
72.8201 224.00
72.8853 212.00
72.9505 244.00
73.0157 194.00
73.0809 215.00
73.1461 230.00
73.2113 249.00
73.2765 198.00
73.3417 220.00
73.4069 218.00
73.4721 208.00
73.5373 203.00
73.6025 228.00
73.6677 225.00
73.7329 196.00
73.7981 257.00
73.8633 247.00
73.9285 227.00
73.9937 239.00
74.0589 219.00
74.1241 214.00
74.1893 211.00
74.2545 219.00
74.3197 227.00
74.3849 221.00
74.4501 219.00
74.5153 244.00
74.5805 207.00
74.6457 217.00
74.7109 188.00
74.7761 235.00
74.8413 228.00
74.9065 221.00
74.9717 221.00
75.0369 245.00
75.1021 209.00
75.1673 243.00
75.2325 246.00
75.2977 233.00
75.3629 215.00
75.4281 224.00
75.4933 204.00
75.5585 212.00
75.6237 206.00
75.6889 216.00
75.7541 250.00
75.8193 224.00
75.8845 203.00
75.9497 229.00
76.0149 224.00
76.0801 196.00
76.1452 247.00
76.2104 209.00
76.2756 228.00
76.3409 212.00
76.406 210.00
76.4712 243.00
76.5364 217.00
76.6016 238.00
76.6668 222.00
76.732 193.00
76.7972 234.00
76.8624 245.00
76.9276 231.00
76.9928 215.00
77.058 200.00
77.1232 235.00
77.1884 241.00
77.2536 218.00
77.3188 239.00
77.384 228.00
77.4492 208.00
77.5144 232.00
77.5796 226.00
77.6448 223.00
77.71 227.00
77.7752 238.00
77.8404 211.00
77.9056 246.00
77.9708 205.00
78.036 242.00
78.1012 229.00
78.1664 233.00
78.2316 214.00
78.2968 219.00
78.362 237.00
78.4272 223.00
78.4924 226.00
78.5576 228.00
78.6228 248.00
78.688 223.00
78.7532 231.00
78.8184 239.00
78.8836 215.00
78.9488 229.00
79.014 228.00
79.0792 225.00
79.1444 285.00
79.2096 196.00
79.2748 225.00
79.34 227.00
79.4052 218.00
79.4704 233.00
79.5356 226.00
79.6008 262.00
79.666 207.00
79.7312 238.00
79.7964 235.00
79.8616 234.00
79.9268 239.00
79.992 239.00
80.0572 241.00
80.1224 215.00
80.1876 226.00
80.2528 231.00
80.318 244.00
80.3832 242.00
80.4484 226.00
80.5136 205.00
80.5788 200.00
80.644 208.00
80.7092 248.00
80.7744 244.00
80.8396 231.00
80.9048 221.00
80.9699 231.00
81.0351 222.00
81.1003 246.00
81.1655 228.00
81.2307 217.00
81.2959 248.00
81.3611 249.00
81.4263 208.00
81.4915 242.00
81.5567 239.00
81.6219 244.00
81.6871 233.00
81.7523 232.00
81.8175 250.00
81.8827 275.00
81.9479 211.00
82.0131 258.00
82.0783 236.00
82.1435 228.00
82.2087 239.00
82.2739 248.00
82.3391 228.00
82.4043 249.00
82.4695 225.00
82.5347 228.00
82.5999 223.00
82.6651 225.00
82.7303 225.00
82.7955 273.00
82.8607 237.00
82.9259 246.00
82.9911 277.00
83.0563 241.00
83.1215 238.00
83.1867 224.00
83.2519 221.00
83.3171 230.00
83.3823 238.00
83.4475 256.00
83.5127 236.00
83.5779 262.00
83.6431 223.00
83.7083 247.00
83.7735 244.00
83.8387 214.00
83.9039 211.00
83.9691 211.00
84.0343 263.00
84.0995 236.00
84.1647 223.00
84.2299 237.00
84.2951 199.00
84.3603 268.00
84.4255 231.00
84.4907 242.00
84.5559 217.00
84.6211 222.00
84.6863 221.00
84.7515 232.00
84.8167 228.00
84.8819 236.00
84.9471 231.00
85.0123 246.00
85.0775 230.00
85.1427 262.00
85.2079 233.00
85.2731 233.00
85.3383 207.00
85.4035 237.00
85.4687 270.00
85.5339 227.00
85.5991 213.00
85.6643 259.00
85.7295 219.00
85.7946 226.00
85.8598 278.00
85.925 228.00
85.9903 228.00
86.0554 204.00
86.1206 229.00
86.1858 229.00
86.251 196.00
86.3162 205.00
86.3814 219.00
86.4466 192.00
86.5118 231.00
86.577 183.00
86.6422 205.00
86.7074 226.00
86.7726 200.00
86.8378 218.00
86.903 211.00
86.9682 249.00
87.0334 222.00
87.0986 227.00
87.1638 206.00
87.229 222.00
87.2942 243.00
87.3594 238.00
87.4246 214.00
87.4898 221.00
87.555 199.00
87.6202 209.00
87.6854 199.00
87.7506 200.00
87.8158 239.00
87.881 229.00
87.9462 231.00
88.0114 211.00
88.0766 204.00
88.1418 212.00
88.207 261.00
88.2722 203.00
88.3374 197.00
88.4026 209.00
88.4678 187.00
88.533 202.00
88.5982 195.00
88.6634 209.00
88.7286 195.00
88.7938 227.00
88.859 230.00
88.9242 200.00
88.9894 199.00
89.0546 192.00
89.1198 211.00
89.185 204.00
89.2502 213.00
89.3154 213.00
89.3806 194.00
89.4458 204.00
89.511 199.00
89.5762 214.00
89.6414 228.00
89.7066 170.00
89.7718 188.00
89.837 209.00
89.9022 202.00
89.9674 196.00
90.0326 186.00
90.0978 187.00
90.163 203.00
90.2282 220.00
90.2934 215.00
90.3586 203.00
90.4238 172.00
90.489 196.00
90.5542 228.00
90.6193 193.00
90.6845 196.00
90.7497 224.00
90.8149 184.00
90.8801 190.00
90.9453 196.00
91.0105 227.00
91.0757 207.00
91.1409 204.00
91.2061 221.00
91.2713 173.00
91.3365 201.00
91.4017 199.00
91.4669 207.00
91.5321 180.00
91.5973 199.00
91.6625 208.00
91.7277 207.00
91.7929 219.00
91.8581 185.00
91.9233 226.00
91.9885 201.00
92.0537 189.00
92.1189 195.00
92.1841 195.00
92.2493 191.00
92.3145 190.00
92.3797 204.00
92.4449 192.00
92.5101 205.00
92.5753 206.00
92.6405 181.00
92.7057 190.00
92.7709 201.00
92.8361 210.00
92.9013 193.00
92.9665 190.00
93.0317 191.00
93.0969 224.00
93.1621 200.00
93.2273 185.00
93.2925 198.00
93.3577 189.00
93.4229 185.00
93.4881 201.00
93.5533 213.00
93.6185 197.00
93.6837 202.00
93.7489 180.00
93.8141 200.00
93.8793 197.00
93.9445 210.00
94.0097 226.00
94.0749 194.00
94.1401 198.00
94.2053 193.00
94.2705 188.00
94.3357 216.00
94.4009 200.00
94.4661 217.00
94.5313 181.00
94.5965 219.00
94.6617 178.00
94.7269 205.00
94.7921 169.00
94.8573 203.00
94.9225 201.00
94.9877 183.00
95.0529 171.00
95.1181 187.00
95.1833 224.00
95.2485 192.00
95.3137 208.00
95.3789 179.00
95.444 190.00
95.5092 195.00
95.5744 198.00
95.6396 154.00
95.7048 200.00
95.77 195.00
95.8352 203.00
95.9004 182.00
95.9656 179.00
96.0308 202.00
96.096 207.00
96.1612 198.00
96.2264 181.00
96.2916 205.00
96.3568 208.00
96.422 178.00
96.4872 208.00
96.5524 208.00
96.6176 194.00
96.6828 178.00
96.748 223.00
96.8132 193.00
96.8784 186.00
96.9436 207.00
97.0088 196.00
97.074 189.00
97.1392 210.00
97.2044 179.00
97.2696 192.00
97.3348 199.00
97.4 184.00
97.4652 219.00
97.5304 194.00
97.5956 168.00
97.6608 173.00
97.726 202.00
97.7912 196.00
97.8564 206.00
97.9216 187.00
97.9868 174.00
98.052 168.00
98.1172 200.00
98.1824 216.00
98.2476 175.00
98.3128 171.00
98.378 194.00
98.4432 193.00
98.5084 191.00
98.5736 187.00
98.6388 195.00
98.704 207.00
98.7692 224.00
98.8344 203.00
98.8996 208.00
98.9648 198.00
99.03 194.00
99.0952 214.00
99.1604 168.00
99.2256 193.00
99.2908 163.00
99.356 225.00
99.4212 194.00
99.4864 207.00
99.5516 204.00
99.6168 192.00
99.682 219.00
99.7472 211.00
99.8124 185.00
99.8776 185.00
99.9428 182.00
100.008 175.00
100.073 204.00
100.095 186.00