File: data/xrd_creation/results/Na_41.xy
9.903433 2659.00
9.968632 2595.00
10.0338 2443.00
10.099 2501.00
10.1642 2472.00
10.2294 2614.00
10.2946 2398.00
10.3598 2400.00
10.425 2421.00
10.4902 2474.00
10.5554 2370.00
10.6206 2367.00
10.6858 2321.00
10.751 2432.00
10.8162 2257.00
10.8814 2334.00
10.9466 2224.00
11.0118 2225.00
11.077 2114.00
11.1422 2149.00
11.2074 2159.00
11.2726 2126.00
11.3378 2131.00
11.403 2071.00
11.4682 2115.00
11.5334 1981.00
11.5986 1936.00
11.6638 2039.00
11.729 2050.00
11.7942 1982.00
11.8594 1919.00
11.9246 1910.00
11.9898 2007.00
12.055 1846.00
12.1202 1912.00
12.1854 1920.00
12.2506 1856.00
12.3158 1876.00
12.381 1923.00
12.4462 1798.00
12.5114 1850.00
12.5766 1845.00
12.6418 1737.00
12.707 1805.00
12.7722 1724.00
12.8374 1743.00
12.9026 1754.00
12.9678 1715.00
13.033 1723.00
13.0982 1701.00
13.1634 1704.00
13.2286 1659.00
13.2938 1648.00
13.359 1692.00
13.4242 1622.00
13.4894 1663.00
13.5546 1577.00
13.6198 1610.00
13.685 1688.00
13.7502 1554.00
13.8154 1485.00
13.8805 1542.00
13.9457 1492.00
14.0109 1555.00
14.0761 1489.00
14.1413 1539.00
14.2065 1522.00
14.2717 1517.00
14.3369 1473.00
14.4021 1559.00
14.4673 1444.00
14.5325 1465.00
14.5977 1466.00
14.6629 1447.00
14.7281 1470.00
14.7933 1438.00
14.8585 1448.00
14.9237 1400.00
14.9889 1404.00
15.0541 1352.00
15.1193 1385.00
15.1845 1386.00
15.2497 1355.00
15.3149 1403.00
15.3801 1316.00
15.4453 1406.00
15.5105 1400.00
15.5757 1335.00
15.6409 1320.00
15.7061 1395.00
15.7713 1379.00
15.8365 1384.00
15.9017 1381.00
15.9669 1356.00
16.0321 1291.00
16.0973 1272.00
16.1625 1356.00
16.2277 1313.00
16.2929 1258.00
16.3581 1278.00
16.4233 1259.00
16.4885 1195.00
16.5537 1231.00
16.6189 1226.00
16.6841 1209.00
16.7493 1270.00
16.8145 1235.00
16.8797 1214.00
16.9449 1216.00
17.0101 1263.00
17.0753 1194.00
17.1405 1259.00
17.2057 1213.00
17.2709 1197.00
17.3361 1258.00
17.4013 1196.00
17.4665 1185.00
17.5317 1220.00
17.5969 1220.00
17.6621 1201.00
17.7273 1117.00
17.7925 1200.00
17.8577 1148.00
17.9229 1202.00
17.9881 1166.00
18.0533 1125.00
18.1185 1139.00
18.1837 1142.00
18.2489 1181.00
18.3141 1114.00
18.3793 1161.00
18.4445 1226.00
18.5097 1122.00
18.5749 1154.00
18.6401 1086.00
18.7052 1116.00
18.7704 1053.00
18.8356 1116.00
18.9008 1106.00
18.966 1009.00
19.0312 1099.00
19.0964 1059.00
19.1616 1129.00
19.2268 1020.00
19.292 1008.00
19.3572 1065.00
19.4224 1040.00
19.4876 1066.00
19.5528 1003.00
19.618 1016.00
19.6832 1029.00
19.7484 1098.00
19.8136 1045.00
19.8788 1119.00
19.944 1152.00
20.0092 1094.00
20.0744 1085.00
20.1396 985.00
20.2048 1010.00
20.27 910.00
20.3352 1000.00
20.4004 1005.00
20.4656 1009.00
20.5308 993.00
20.596 932.00
20.6612 911.00
20.7264 988.00
20.7916 1030.00
20.8568 1004.00
20.922 952.00
20.9872 965.00
21.0524 963.00
21.1176 939.00
21.1828 956.00
21.248 1017.00
21.3132 1100.00
21.3784 1119.00
21.4436 1047.00
21.5088 1016.00
21.574 939.00
21.6392 917.00
21.7044 924.00
21.7696 923.00
21.8348 940.00
21.9 852.00
21.9652 881.00
22.0304 954.00
22.0956 862.00
22.1608 901.00
22.226 934.00
22.2912 890.00
22.3564 931.00
22.4216 843.00
22.4868 845.00
22.552 870.00
22.6172 900.00
22.6824 863.00
22.7476 872.00
22.8128 856.00
22.878 846.00
22.9432 864.00
23.0084 840.00
23.0736 824.00
23.1388 844.00
23.204 827.00
23.2692 839.00
23.3344 817.00
23.3996 856.00
23.4647 800.00
23.5299 796.00
23.5951 850.00
23.6603 837.00
23.7255 808.00
23.7907 816.00
23.8559 855.00
23.9211 773.00
23.9863 775.00
24.0515 729.00
24.1167 792.00
24.1819 701.00
24.2471 796.00
24.3123 750.00
24.3775 773.00
24.4427 773.00
24.5079 814.00
24.5731 801.00
24.6383 775.00
24.7035 785.00
24.7687 762.00
24.8339 747.00
24.8991 755.00
24.9643 736.00
25.0295 758.00
25.0947 729.00
25.1599 764.00
25.2251 810.00
25.2903 774.00
25.3555 814.00
25.4207 732.00
25.4859 722.00
25.5511 777.00
25.6163 704.00
25.6815 740.00
25.7467 692.00
25.8119 706.00
25.8771 734.00
25.9423 741.00
26.0075 750.00
26.0727 692.00
26.1379 789.00
26.2031 750.00
26.2683 871.00
26.3335 1033.00
26.3987 1099.00
26.4639 967.00
26.5291 863.00
26.5943 763.00
26.6595 710.00
26.7247 733.00
26.7899 686.00
26.8551 733.00
26.9203 701.00
26.9855 645.00
27.0507 687.00
27.1159 690.00
27.1811 695.00
27.2463 690.00
27.3115 659.00
27.3767 714.00
27.4419 772.00
27.5071 761.00
27.5723 768.00
27.6375 722.00
27.7027 660.00
27.7679 655.00
27.8331 667.00
27.8983 654.00
27.9635 722.00
28.0287 726.00
28.0939 700.00
28.1591 716.00
28.2243 760.00
28.2894 859.00
28.3546 809.00
28.4198 723.00
28.485 780.00
28.5502 703.00
28.6154 793.00
28.6806 747.00
28.7458 905.00
28.811 1028.00
28.8762 1151.00
28.9414 1033.00
29.0066 814.00
29.0718 773.00
29.137 693.00
29.2022 667.00
29.2674 687.00
29.3326 608.00
29.3978 642.00
29.463 680.00
29.5282 678.00
29.5934 655.00
29.6586 645.00
29.7238 685.00
29.789 686.00
29.8542 651.00
29.9194 704.00
29.9846 715.00
30.0498 705.00
30.115 697.00
30.1802 681.00
30.2454 736.00
30.3106 903.00
30.3758 1276.00
30.441 1942.00
30.5062 2226.00
30.5714 1618.00
30.6366 968.00
30.7018 697.00
30.767 688.00
30.8322 590.00
30.8974 638.00
30.9626 576.00
31.0278 594.00
31.093 627.00
31.1582 617.00
31.2234 608.00
31.2886 622.00
31.3538 578.00
31.419 588.00
31.4842 548.00
31.5494 583.00
31.6146 633.00
31.6798 630.00
31.745 611.00
31.8102 594.00
31.8754 600.00
31.9406 584.00
32.0058 628.00
32.071 573.00
32.1362 612.00
32.2014 603.00
32.2666 548.00
32.3318 558.00
32.397 565.00
32.4622 536.00
32.5274 565.00
32.5926 570.00
32.6578 632.00
32.723 681.00
32.7882 617.00
32.8534 652.00
32.9186 612.00
32.9838 693.00
33.0489 723.00
33.1141 651.00
33.1793 612.00
33.2445 577.00
33.3097 647.00
33.3749 706.00
33.4401 658.00
33.5053 738.00
33.5705 715.00
33.6357 755.00
33.7009 796.00
33.7661 746.00
33.8313 635.00
33.8965 574.00
33.9617 534.00
34.0269 576.00
34.0921 549.00
34.1573 516.00
34.2225 504.00
34.2877 468.00
34.3529 490.00
34.4181 495.00
34.4833 504.00
34.5485 515.00
34.6137 488.00
34.6789 478.00
34.7441 495.00
34.8093 461.00
34.8745 484.00
34.9397 521.00
35.0049 522.00
35.0701 519.00
35.1353 566.00
35.2005 574.00
35.2657 723.00
35.3309 918.00
35.3961 947.00
35.4613 741.00
35.5265 641.00
35.5917 518.00
35.6569 473.00
35.7221 472.00
35.7873 469.00
35.8525 466.00
35.9177 437.00
35.9829 456.00
36.0481 457.00
36.1133 462.00
36.1785 439.00
36.2437 425.00
36.3089 462.00
36.3741 453.00
36.4393 453.00
36.5045 442.00
36.5697 482.00
36.6349 446.00
36.7001 468.00
36.7653 430.00
36.8305 447.00
36.8957 440.00
36.9609 449.00
37.0261 406.00
37.0913 437.00
37.1565 452.00
37.2217 458.00
37.2869 458.00
37.3521 451.00
37.4173 430.00
37.4825 477.00
37.5477 527.00
37.6129 538.00
37.6781 522.00
37.7433 477.00
37.8085 485.00
37.8736 462.00
37.9388 477.00
38.004 438.00
38.0692 454.00
38.1344 434.00
38.1996 401.00
38.2648 423.00
38.33 427.00
38.3952 427.00
38.4604 420.00
38.5256 437.00
38.5908 431.00
38.656 445.00
38.7212 440.00
38.7864 411.00
38.8516 449.00
38.9168 400.00
38.982 417.00
39.0472 373.00
39.1124 435.00
39.1776 401.00
39.2428 395.00
39.308 460.00
39.3732 419.00
39.4384 448.00
39.5036 434.00
39.5688 385.00
39.634 402.00
39.6992 421.00
39.7644 423.00
39.8296 479.00
39.8948 544.00
39.96 513.00
40.0252 468.00
40.0904 398.00
40.1556 398.00
40.2208 391.00
40.286 393.00
40.3512 383.00
40.4164 366.00
40.4816 366.00
40.5468 373.00
40.612 363.00
40.6772 396.00
40.7424 401.00
40.8076 400.00
40.8728 338.00
40.938 373.00
41.0032 391.00
41.0684 355.00
41.1336 368.00
41.1988 382.00
41.264 401.00
41.3292 394.00
41.3944 408.00
41.4596 362.00
41.5248 364.00
41.59 382.00
41.6552 380.00
41.7204 426.00
41.7856 425.00
41.8508 408.00
41.916 380.00
41.9812 350.00
42.0464 350.00
42.1116 416.00
42.1768 359.00
42.242 387.00
42.3072 378.00
42.3724 366.00
42.4376 326.00
42.5028 371.00
42.568 369.00
42.6332 376.00
42.6983 390.00
42.7635 425.00
42.8287 389.00
42.8939 373.00
42.9591 401.00
43.0243 355.00
43.0895 371.00
43.1547 375.00
43.2199 374.00
43.2851 396.00
43.3503 361.00
43.4155 401.00
43.4807 359.00
43.5459 361.00
43.6111 384.00
43.6763 394.00
43.7415 373.00
43.8067 375.00
43.8719 399.00
43.9371 343.00
44.0023 361.00
44.0675 355.00
44.1327 332.00
44.1979 332.00
44.2631 339.00
44.3283 358.00
44.3935 324.00
44.4587 334.00
44.5239 322.00
44.5891 355.00
44.6543 354.00
44.7195 326.00
44.7847 359.00
44.8499 353.00
44.9151 325.00
44.9803 322.00
45.0455 342.00
45.1107 316.00
45.1759 349.00
45.2411 364.00
45.3063 321.00
45.3715 333.00
45.4367 353.00
45.5019 413.00
45.5671 460.00
45.6323 481.00
45.6975 426.00
45.7627 355.00
45.8279 333.00
45.8931 332.00
45.9583 340.00
46.0235 325.00
46.0887 322.00
46.1539 339.00
46.2191 345.00
46.2843 316.00
46.3495 356.00
46.4147 305.00
46.4799 330.00
46.5451 340.00
46.6103 326.00
46.6755 308.00
46.7407 332.00
46.8059 307.00
46.8711 358.00
46.9363 344.00
47.0015 329.00
47.0667 351.00
47.1319 364.00
47.1971 325.00
47.2623 331.00
47.3275 296.00
47.3927 327.00
47.4579 333.00
47.523 305.00
47.5882 337.00
47.6534 318.00
47.7186 354.00
47.7838 315.00
47.849 311.00
47.9142 359.00
47.9794 331.00
48.0446 363.00
48.1098 364.00
48.175 425.00
48.2402 406.00
48.3054 389.00
48.3706 387.00
48.4358 343.00
48.501 337.00
48.5662 366.00
48.6314 358.00
48.6966 304.00
48.7618 342.00
48.827 319.00
48.8922 353.00
48.9574 319.00
49.0226 314.00
49.0878 352.00
49.153 338.00
49.2182 349.00
49.2834 325.00
49.3486 309.00
49.4138 315.00
49.479 302.00
49.5442 305.00
49.6094 299.00
49.6746 301.00
49.7398 279.00
49.805 312.00
49.8702 319.00
49.9354 294.00
50.0006 297.00
50.0658 285.00
50.131 322.00
50.1962 323.00
50.2614 292.00
50.3266 279.00
50.3918 314.00
50.457 301.00
50.5222 323.00
50.5874 318.00
50.6526 332.00
50.7178 329.00
50.783 385.00
50.8482 568.00
50.9134 807.00
50.9786 693.00
51.0438 560.00
51.109 495.00
51.1742 404.00
51.2394 327.00
51.3046 331.00
51.3698 347.00
51.435 349.00
51.5002 394.00
51.5654 392.00
51.6306 443.00
51.6958 391.00
51.761 393.00
51.8262 364.00
51.8914 310.00
51.9566 313.00
52.0218 315.00
52.087 307.00
52.1522 341.00
52.2174 308.00
52.2826 308.00
52.3477 293.00
52.4129 310.00
52.4781 283.00
52.5433 312.00
52.6085 311.00
52.6737 324.00
52.7389 330.00
52.8041 283.00
52.8693 263.00
52.9345 271.00
52.9997 281.00
53.0649 295.00
53.1301 293.00
53.1953 297.00
53.2605 286.00
53.3257 256.00
53.3909 287.00
53.4561 282.00
53.5213 262.00
53.5865 242.00
53.6517 244.00
53.7169 310.00
53.7821 291.00
53.8473 288.00
53.9125 285.00
53.9777 282.00
54.0429 265.00
54.1081 268.00
54.1733 282.00
54.2385 266.00
54.3037 242.00
54.3689 287.00
54.4341 308.00
54.4993 310.00
54.5645 305.00
54.6297 270.00
54.6949 306.00
54.7601 302.00
54.8253 257.00
54.8905 261.00
54.9557 246.00
55.0209 277.00
55.0861 275.00
55.1513 278.00
55.2165 256.00
55.2817 272.00
55.3469 258.00
55.4121 258.00
55.4773 250.00
55.5425 246.00
55.6077 284.00
55.6729 242.00
55.7381 309.00
55.8033 297.00
55.8685 338.00
55.9337 302.00
55.9989 303.00
56.0641 306.00
56.1293 296.00
56.1945 273.00
56.2597 227.00
56.3249 289.00
56.3901 275.00
56.4553 298.00
56.5205 268.00
56.5857 268.00
56.6509 266.00
56.7161 268.00
56.7813 296.00
56.8465 292.00
56.9117 275.00
56.9769 279.00
57.042 285.00
57.1073 271.00
57.1724 314.00
57.2376 321.00
57.3028 335.00
57.368 316.00
57.4332 310.00
57.4984 331.00
57.5636 295.00
57.6288 283.00
57.694 248.00
57.7592 246.00
57.8244 228.00
57.8896 292.00
57.9548 230.00
58.02 241.00
58.0852 228.00
58.1504 244.00
58.2156 258.00
58.2808 240.00
58.346 225.00
58.4112 229.00
58.4764 210.00
58.5416 233.00
58.6068 264.00
58.672 270.00
58.7372 214.00
58.8024 227.00
58.8676 232.00
58.9328 286.00
58.998 286.00
59.0632 301.00
59.1284 293.00
59.1936 304.00
59.2588 271.00
59.324 256.00
59.3892 259.00
59.4544 236.00
59.5196 240.00
59.5848 228.00
59.65 221.00
59.7152 217.00
59.7804 238.00
59.8456 228.00
59.9108 276.00
59.976 288.00
60.0412 235.00
60.1064 238.00
60.1716 260.00
60.2368 284.00
60.302 248.00
60.3672 281.00
60.4324 325.00
60.4976 417.00
60.5628 529.00
60.628 481.00
60.6932 459.00
60.7584 405.00
60.8236 315.00
60.8888 236.00
60.954 223.00
61.0192 264.00
61.0844 244.00
61.1496 245.00
61.2148 230.00
61.28 227.00
61.3452 258.00
61.4104 226.00
61.4756 247.00
61.5408 222.00
61.606 264.00
61.6712 234.00
61.7364 249.00
61.8016 257.00
61.8667 246.00
61.932 250.00
61.9971 237.00
62.0623 300.00
62.1275 291.00
62.1927 298.00
62.2579 261.00
62.3231 265.00
62.3883 232.00
62.4535 238.00
62.5187 222.00
62.5839 222.00
62.6491 227.00
62.7143 228.00
62.7795 240.00
62.8447 226.00
62.9099 202.00
62.9751 212.00
63.0403 231.00
63.1055 199.00
63.1707 231.00
63.2359 226.00
63.3011 221.00
63.3663 264.00
63.4315 207.00
63.4967 238.00
63.5619 305.00
63.6271 264.00
63.6923 259.00
63.7575 259.00
63.8227 197.00
63.8879 236.00
63.9531 236.00
64.0183 247.00
64.0835 208.00
64.1487 232.00
64.2139 248.00
64.2791 239.00
64.3443 247.00
64.4095 247.00
64.4747 261.00
64.5399 232.00
64.6051 233.00
64.6703 243.00
64.7355 230.00
64.8007 196.00
64.8659 221.00
64.9311 236.00
64.9963 270.00
65.0615 245.00
65.1267 268.00
65.1919 224.00
65.2571 235.00
65.3223 222.00
65.3875 216.00
65.4527 221.00
65.5179 236.00
65.5831 214.00
65.6483 245.00
65.7135 240.00
65.7787 258.00
65.8439 233.00
65.9091 248.00
65.9743 234.00
66.0395 246.00
66.1047 208.00
66.1699 237.00
66.2351 216.00
66.3003 222.00
66.3655 228.00
66.4307 210.00
66.4959 261.00
66.561 197.00
66.6263 223.00
66.6915 230.00
66.7566 242.00
66.8218 204.00
66.887 216.00
66.9522 195.00
67.0174 204.00
67.0826 188.00
67.1478 238.00
67.213 203.00
67.2782 218.00
67.3434 206.00
67.4086 211.00
67.4738 224.00
67.539 230.00
67.6042 211.00
67.6694 183.00
67.7346 216.00
67.7998 221.00
67.865 244.00
67.9302 243.00
67.9954 230.00
68.0606 199.00
68.1258 228.00
68.191 220.00
68.2562 229.00
68.3214 221.00
68.3866 207.00
68.4518 220.00
68.517 224.00
68.5822 202.00
68.6474 205.00
68.7126 169.00
68.7778 195.00
68.843 201.00
68.9082 222.00
68.9734 209.00
69.0386 205.00
69.1038 203.00
69.169 209.00
69.2342 228.00
69.2994 216.00
69.3646 224.00
69.4298 220.00
69.495 208.00
69.5602 247.00
69.6254 219.00
69.6906 194.00
69.7558 238.00
69.821 221.00
69.8862 181.00
69.9514 194.00
70.0166 197.00
70.0818 195.00
70.147 215.00
70.2122 232.00
70.2774 172.00
70.3426 208.00
70.4078 239.00
70.473 226.00
70.5382 228.00
70.6034 227.00
70.6686 248.00
70.7338 190.00
70.799 216.00
70.8642 192.00
70.9294 182.00
70.9946 232.00
71.0598 203.00
71.125 204.00
71.1902 228.00
71.2554 228.00
71.3205 204.00
71.3858 233.00
71.451 211.00
71.5162 210.00
71.5813 195.00
71.6465 202.00
71.7117 212.00
71.7769 227.00
71.8421 210.00
71.9073 243.00
71.9725 205.00
72.0377 210.00
72.1029 227.00
72.1681 224.00
72.2333 192.00
72.2985 196.00
72.3637 211.00
72.4289 213.00
72.4941 181.00
72.5593 203.00
72.6245 231.00
72.6897 209.00
72.7549 219.00
72.8201 222.00
72.8853 233.00
72.9505 235.00
73.0157 220.00
73.0809 206.00
73.1461 195.00
73.2113 209.00
73.2765 213.00
73.3417 212.00
73.4069 218.00
73.4721 241.00
73.5373 238.00
73.6025 234.00
73.6677 229.00
73.7329 200.00
73.7981 205.00
73.8633 203.00
73.9285 226.00
73.9937 195.00
74.0589 206.00
74.1241 225.00
74.1893 183.00
74.2545 205.00
74.3197 240.00
74.3849 213.00
74.4501 208.00
74.5153 227.00
74.5805 218.00
74.6457 236.00
74.7109 203.00
74.7761 239.00
74.8413 222.00
74.9065 257.00
74.9717 282.00
75.0369 258.00
75.1021 233.00
75.1673 224.00
75.2325 232.00
75.2977 219.00
75.3629 242.00
75.4281 201.00
75.4933 195.00
75.5585 208.00
75.6237 201.00
75.6889 230.00
75.7541 228.00
75.8193 220.00
75.8845 227.00
75.9497 215.00
76.0149 239.00
76.0801 232.00
76.1452 241.00
76.2104 233.00
76.2756 288.00
76.3409 241.00
76.406 227.00
76.4712 256.00
76.5364 238.00
76.6016 220.00
76.6668 247.00
76.732 225.00
76.7972 229.00
76.8624 256.00
76.9276 214.00
76.9928 223.00
77.058 207.00
77.1232 226.00
77.1884 246.00
77.2536 247.00
77.3188 239.00
77.384 222.00
77.4492 238.00
77.5144 242.00
77.5796 247.00
77.6448 247.00
77.71 257.00
77.7752 238.00
77.8404 262.00
77.9056 238.00
77.9708 272.00
78.036 239.00
78.1012 272.00
78.1664 303.00
78.2316 227.00
78.2968 242.00
78.362 273.00
78.4272 267.00
78.4924 260.00
78.5576 271.00
78.6228 223.00
78.688 242.00
78.7532 228.00
78.8184 227.00
78.8836 236.00
78.9488 245.00
79.014 277.00
79.0792 233.00
79.1444 273.00
79.2096 228.00
79.2748 222.00
79.34 238.00
79.4052 229.00
79.4704 242.00
79.5356 258.00
79.6008 256.00
79.666 259.00
79.7312 278.00
79.7964 226.00
79.8616 239.00
79.9268 245.00
79.992 246.00
80.0572 266.00
80.1224 249.00
80.1876 239.00
80.2528 276.00
80.318 269.00
80.3832 265.00
80.4484 272.00
80.5136 278.00
80.5788 258.00
80.644 274.00
80.7092 262.00
80.7744 273.00
80.8396 273.00
80.9048 231.00
80.9699 243.00
81.0351 272.00
81.1003 261.00
81.1655 240.00
81.2307 264.00
81.2959 242.00
81.3611 249.00
81.4263 220.00
81.4915 233.00
81.5567 239.00
81.6219 280.00
81.6871 272.00
81.7523 278.00
81.8175 290.00
81.8827 217.00
81.9479 226.00
82.0131 243.00
82.0783 220.00
82.1435 262.00
82.2087 220.00
82.2739 229.00
82.3391 264.00
82.4043 237.00
82.4695 262.00
82.5347 200.00
82.5999 248.00
82.6651 229.00
82.7303 242.00
82.7955 260.00
82.8607 228.00
82.9259 210.00
82.9911 269.00
83.0563 321.00
83.1215 289.00
83.1867 271.00
83.2519 277.00
83.3171 280.00
83.3823 260.00
83.4475 248.00
83.5127 247.00
83.5779 222.00
83.6431 250.00
83.7083 212.00
83.7735 260.00
83.8387 227.00
83.9039 248.00
83.9691 265.00
84.0343 238.00
84.0995 227.00
84.1647 223.00
84.2299 224.00
84.2951 244.00
84.3603 233.00
84.4255 236.00
84.4907 224.00
84.5559 232.00
84.6211 207.00
84.6863 220.00
84.7515 193.00
84.8167 212.00
84.8819 226.00
84.9471 218.00
85.0123 229.00
85.0775 205.00
85.1427 208.00
85.2079 219.00
85.2731 229.00
85.3383 227.00
85.4035 225.00
85.4687 237.00
85.5339 225.00
85.5991 207.00
85.6643 232.00
85.7295 280.00
85.7946 264.00
85.8598 225.00
85.925 225.00
85.9903 225.00
86.0554 245.00
86.1206 237.00
86.1858 208.00
86.251 201.00
86.3162 195.00
86.3814 207.00
86.4466 210.00
86.5118 202.00
86.577 219.00
86.6422 214.00
86.7074 208.00
86.7726 213.00
86.8378 196.00
86.903 224.00
86.9682 218.00
87.0334 219.00
87.0986 234.00
87.1638 196.00
87.229 226.00
87.2942 245.00
87.3594 242.00
87.4246 223.00
87.4898 187.00
87.555 215.00
87.6202 203.00
87.6854 212.00
87.7506 183.00
87.8158 219.00
87.881 210.00
87.9462 196.00
88.0114 205.00
88.0766 215.00
88.1418 219.00
88.207 194.00
88.2722 201.00
88.3374 214.00
88.4026 217.00
88.4678 238.00
88.533 185.00
88.5982 204.00
88.6634 188.00
88.7286 218.00
88.7938 199.00
88.859 205.00
88.9242 216.00
88.9894 213.00
89.0546 204.00
89.1198 243.00
89.185 218.00
89.2502 201.00
89.3154 209.00
89.3806 192.00
89.4458 190.00
89.511 210.00
89.5762 200.00
89.6414 208.00
89.7066 203.00
89.7718 263.00
89.837 219.00
89.9022 205.00
89.9674 207.00
90.0326 196.00
90.0978 225.00
90.163 240.00
90.2282 185.00
90.2934 200.00
90.3586 211.00
90.4238 186.00
90.489 210.00
90.5542 219.00
90.6193 205.00
90.6845 210.00
90.7497 215.00
90.8149 201.00
90.8801 194.00
90.9453 197.00
91.0105 201.00
91.0757 178.00
91.1409 212.00
91.2061 174.00
91.2713 185.00
91.3365 194.00
91.4017 175.00
91.4669 201.00
91.5321 197.00
91.5973 213.00
91.6625 185.00
91.7277 163.00
91.7929 191.00
91.8581 211.00
91.9233 224.00
91.9885 185.00
92.0537 177.00
92.1189 189.00
92.1841 207.00
92.2493 204.00
92.3145 177.00
92.3797 216.00
92.4449 212.00
92.5101 184.00
92.5753 165.00
92.6405 192.00
92.7057 187.00
92.7709 216.00
92.8361 185.00
92.9013 200.00
92.9665 183.00
93.0317 177.00
93.0969 173.00
93.1621 210.00
93.2273 181.00
93.2925 201.00
93.3577 176.00
93.4229 186.00
93.4881 195.00
93.5533 207.00
93.6185 199.00
93.6837 168.00
93.7489 180.00
93.8141 180.00
93.8793 178.00
93.9445 187.00
94.0097 200.00
94.0749 176.00
94.1401 203.00
94.2053 186.00
94.2705 193.00
94.3357 178.00
94.4009 194.00
94.4661 193.00
94.5313 181.00
94.5965 188.00
94.6617 181.00
94.7269 214.00
94.7921 179.00
94.8573 177.00
94.9225 202.00
94.9877 188.00
95.0529 192.00
95.1181 209.00
95.1833 212.00
95.2485 190.00
95.3137 190.00
95.3789 208.00
95.444 192.00
95.5092 202.00
95.5744 192.00
95.6396 209.00
95.7048 195.00
95.77 189.00
95.8352 211.00
95.9004 204.00
95.9656 208.00
96.0308 197.00
96.096 175.00
96.1612 196.00
96.2264 224.00
96.2916 193.00
96.3568 216.00
96.422 236.00
96.4872 215.00
96.5524 220.00
96.6176 211.00
96.6828 198.00
96.748 191.00
96.8132 192.00
96.8784 176.00
96.9436 216.00
97.0088 178.00
97.074 200.00
97.1392 208.00
97.2044 218.00
97.2696 186.00
97.3348 194.00
97.4 207.00
97.4652 230.00
97.5304 191.00
97.5956 201.00
97.6608 198.00
97.726 231.00
97.7912 197.00
97.8564 211.00
97.9216 189.00
97.9868 212.00
98.052 186.00
98.1172 186.00
98.1824 189.00
98.2476 217.00
98.3128 189.00
98.378 190.00
98.4432 171.00
98.5084 217.00
98.5736 214.00
98.6388 206.00
98.704 196.00
98.7692 187.00
98.8344 199.00
98.8996 187.00
98.9648 197.00
99.03 199.00
99.0952 201.00
99.1604 184.00
99.2256 189.00
99.2908 187.00
99.356 222.00
99.4212 199.00
99.4864 225.00
99.5516 174.00
99.6168 185.00
99.682 201.00
99.7472 183.00
99.8124 194.00
99.8776 195.00
99.9428 203.00
100.008 175.00
100.073 208.00
100.095 188.00