File: data/xrd_creation/results/Na_49.xy
9.903433 4395.00
9.968632 4110.00
10.0338 3679.00
10.099 3475.00
10.1642 3406.00
10.2294 3383.00
10.2946 3373.00
10.3598 3251.00
10.425 3175.00
10.4902 3228.00
10.5554 3048.00
10.6206 3036.00
10.6858 3069.00
10.751 2989.00
10.8162 2992.00
10.8814 3106.00
10.9466 2996.00
11.0118 2971.00
11.077 2932.00
11.1422 2941.00
11.2074 2916.00
11.2726 2870.00
11.3378 2889.00
11.403 2823.00
11.4682 2884.00
11.5334 2782.00
11.5986 2849.00
11.6638 2929.00
11.729 2738.00
11.7942 2823.00
11.8594 2673.00
11.9246 2718.00
11.9898 2717.00
12.055 2578.00
12.1202 2751.00
12.1854 2744.00
12.2506 2759.00
12.3158 2771.00
12.381 2730.00
12.4462 2712.00
12.5114 2774.00
12.5766 2771.00
12.6418 2620.00
12.707 2605.00
12.7722 2621.00
12.8374 2608.00
12.9026 2619.00
12.9678 2636.00
13.033 2707.00
13.0982 2860.00
13.1634 2785.00
13.2286 3004.00
13.2938 3110.00
13.359 3386.00
13.4242 3691.00
13.4894 4074.00
13.5546 4574.00
13.6198 4797.00
13.685 4782.00
13.7502 4525.00
13.8154 3848.00
13.8805 3268.00
13.9457 2910.00
14.0109 2813.00
14.0761 2646.00
14.1413 2593.00
14.2065 2536.00
14.2717 2520.00
14.3369 2457.00
14.4021 2499.00
14.4673 2474.00
14.5325 2492.00
14.5977 2440.00
14.6629 2380.00
14.7281 2389.00
14.7933 2416.00
14.8585 2349.00
14.9237 2405.00
14.9889 2381.00
15.0541 2312.00
15.1193 2407.00
15.1845 2304.00
15.2497 2338.00
15.3149 2341.00
15.3801 2304.00
15.4453 2431.00
15.5105 2312.00
15.5757 2356.00
15.6409 2278.00
15.7061 2366.00
15.7713 2218.00
15.8365 2291.00
15.9017 2225.00
15.9669 2308.00
16.0321 2250.00
16.0973 2286.00
16.1625 2263.00
16.2277 2250.00
16.2929 2265.00
16.3581 2238.00
16.4233 2301.00
16.4885 2292.00
16.5537 2275.00
16.6189 2208.00
16.6841 2217.00
16.7493 2145.00
16.8145 2195.00
16.8797 2072.00
16.9449 2200.00
17.0101 2241.00
17.0753 2159.00
17.1405 2043.00
17.2057 2213.00
17.2709 2188.00
17.3361 2235.00
17.4013 2200.00
17.4665 2195.00
17.5317 2180.00
17.5969 2230.00
17.6621 2168.00
17.7273 1990.00
17.7925 2104.00
17.8577 2060.00
17.9229 2106.00
17.9881 2073.00
18.0533 2054.00
18.1185 2110.00
18.1837 2078.00
18.2489 2054.00
18.3141 2170.00
18.3793 2052.00
18.4445 2115.00
18.5097 2102.00
18.5749 2079.00
18.6401 2025.00
18.7052 2073.00
18.7704 2069.00
18.8356 2093.00
18.9008 2123.00
18.966 2121.00
19.0312 2238.00
19.0964 2356.00
19.1616 2465.00
19.2268 2430.00
19.292 2484.00
19.3572 2405.00
19.4224 2383.00
19.4876 2048.00
19.5528 2134.00
19.618 2041.00
19.6832 2001.00
19.7484 2005.00
19.8136 2063.00
19.8788 1996.00
19.944 1948.00
20.0092 2058.00
20.0744 1969.00
20.1396 1979.00
20.2048 1970.00
20.27 1910.00
20.3352 1911.00
20.4004 1939.00
20.4656 1898.00
20.5308 1895.00
20.596 1888.00
20.6612 1887.00
20.7264 1906.00
20.7916 1884.00
20.8568 1866.00
20.922 1848.00
20.9872 1923.00
21.0524 1907.00
21.1176 1852.00
21.1828 1829.00
21.248 1861.00
21.3132 1789.00
21.3784 1792.00
21.4436 1820.00
21.5088 1829.00
21.574 1921.00
21.6392 1872.00
21.7044 1867.00
21.7696 1767.00
21.8348 1839.00
21.9 1918.00
21.9652 1828.00
22.0304 1868.00
22.0956 1829.00
22.1608 1846.00
22.226 1800.00
22.2912 1807.00
22.3564 1906.00
22.4216 1860.00
22.4868 1816.00
22.552 1887.00
22.6172 1849.00
22.6824 1797.00
22.7476 1811.00
22.8128 1833.00
22.878 1771.00
22.9432 1755.00
23.0084 1834.00
23.0736 1810.00
23.1388 1780.00
23.204 1743.00
23.2692 1658.00
23.3344 1777.00
23.3996 1709.00
23.4647 1772.00
23.5299 1862.00
23.5951 1751.00
23.6603 1745.00
23.7255 1780.00
23.7907 1806.00
23.8559 1677.00
23.9211 1708.00
23.9863 1816.00
24.0515 1728.00
24.1167 1739.00
24.1819 1711.00
24.2471 1705.00
24.3123 1781.00
24.3775 1743.00
24.4427 1653.00
24.5079 1782.00
24.5731 1752.00
24.6383 1730.00
24.7035 1773.00
24.7687 1749.00
24.8339 1778.00
24.8991 1727.00
24.9643 1686.00
25.0295 1705.00
25.0947 1653.00
25.1599 1728.00
25.2251 1652.00
25.2903 1569.00
25.3555 1685.00
25.4207 1690.00
25.4859 1691.00
25.5511 1753.00
25.6163 1704.00
25.6815 1768.00
25.7467 1702.00
25.8119 1663.00
25.8771 1701.00
25.9423 1823.00
26.0075 1820.00
26.0727 1773.00
26.1379 1801.00
26.2031 1869.00
26.2683 2014.00
26.3335 2043.00
26.3987 2195.00
26.4639 2251.00
26.5291 2659.00
26.5943 3308.00
26.6595 4338.00
26.7247 6361.00
26.7899 8717.00
26.8551 9873.00
26.9203 8090.00
26.9855 5406.00
27.0507 3957.00
27.1159 3053.00
27.1811 2879.00
27.2463 2675.00
27.3115 2628.00
27.3767 2653.00
27.4419 2993.00
27.5071 3249.00
27.5723 3488.00
27.6375 3931.00
27.7027 3295.00
27.7679 2847.00
27.8331 2794.00
27.8983 2862.00
27.9635 2967.00
28.0287 2893.00
28.0939 2858.00
28.1591 2724.00
28.2243 2649.00
28.2894 2653.00
28.3546 2451.00
28.4198 2266.00
28.485 2235.00
28.5502 2221.00
28.6154 2141.00
28.6806 2208.00
28.7458 2244.00
28.811 2221.00
28.8762 2346.00
28.9414 2385.00
29.0066 2372.00
29.0718 2345.00
29.137 2171.00
29.2022 2126.00
29.2674 2029.00
29.3326 2048.00
29.3978 2130.00
29.463 2101.00
29.5282 2033.00
29.5934 1932.00
29.6586 1967.00
29.7238 1954.00
29.789 2105.00
29.8542 1963.00
29.9194 2023.00
29.9846 2044.00
30.0498 2087.00
30.115 2020.00
30.1802 2165.00
30.2454 2258.00
30.3106 2517.00
30.3758 2896.00
30.441 2959.00
30.5062 2645.00
30.5714 2372.00
30.6366 2289.00
30.7018 2382.00
30.767 2435.00
30.8322 2431.00
30.8974 2335.00
30.9626 2373.00
31.0278 2385.00
31.093 2420.00
31.1582 2353.00
31.2234 2388.00
31.2886 2427.00
31.3538 2467.00
31.419 2443.00
31.4842 2444.00
31.5494 2482.00
31.6146 2572.00
31.6798 2691.00
31.745 3336.00
31.8102 4902.00
31.8754 9447.00
31.9406 16633.00
32.0058 13640.00
32.071 7459.00
32.1362 3303.00
32.2014 2546.00
32.2666 2403.00
32.3318 2401.00
32.397 2337.00
32.4622 2482.00
32.5274 2733.00
32.5926 3611.00
32.6578 5538.00
32.723 9015.00
32.7882 11198.00
32.8534 8778.00
32.9186 5444.00
32.9838 3386.00
33.0489 2680.00
33.1141 2277.00
33.1793 2089.00
33.2445 2142.00
33.3097 2052.00
33.3749 1986.00
33.4401 1805.00
33.5053 1790.00
33.5705 1723.00
33.6357 1673.00
33.7009 1726.00
33.7661 1758.00
33.8313 1711.00
33.8965 1739.00
33.9617 1738.00
34.0269 1694.00
34.0921 1683.00
34.1573 1691.00
34.2225 1749.00
34.2877 1700.00
34.3529 1690.00
34.4181 1909.00
34.4833 2175.00
34.5485 1969.00
34.6137 1850.00
34.6789 1901.00
34.7441 2066.00
34.8093 2082.00
34.8745 1980.00
34.9397 1880.00
35.0049 1874.00
35.0701 1853.00
35.1353 1866.00
35.2005 1985.00
35.2657 2019.00
35.3309 2177.00
35.3961 2534.00
35.4613 3210.00
35.5265 3873.00
35.5917 4107.00
35.6569 4507.00
35.7221 5801.00
35.7873 7765.00
35.8525 9950.00
35.9177 10859.00
35.9829 9696.00
36.0481 7330.00
36.1133 5071.00
36.1785 3780.00
36.2437 2983.00
36.3089 2471.00
36.3741 2354.00
36.4393 2061.00
36.5045 1986.00
36.5697 1902.00
36.6349 1818.00
36.7001 1820.00
36.7653 1843.00
36.8305 1799.00
36.8957 1771.00
36.9609 1681.00
37.0261 1768.00
37.0913 1698.00
37.1565 1678.00
37.2217 1672.00
37.2869 1621.00
37.3521 1685.00
37.4173 1652.00
37.4825 1568.00
37.5477 1605.00
37.6129 1648.00
37.6781 1546.00
37.7433 1617.00
37.8085 1676.00
37.8736 1607.00
37.9388 1586.00
38.004 1686.00
38.0692 1765.00
38.1344 1890.00
38.1996 2127.00
38.2648 2317.00
38.33 2266.00
38.3952 2027.00
38.4604 1752.00
38.5256 1650.00
38.5908 1642.00
38.656 1700.00
38.7212 1736.00
38.7864 1779.00
38.8516 1879.00
38.9168 1751.00
38.982 1780.00
39.0472 1640.00
39.1124 1509.00
39.1776 1487.00
39.2428 1522.00
39.308 1388.00
39.3732 1421.00
39.4384 1481.00
39.5036 1436.00
39.5688 1393.00
39.634 1428.00
39.6992 1351.00
39.7644 1441.00
39.8296 1448.00
39.8948 1555.00
39.96 1509.00
40.0252 1582.00
40.0904 1613.00
40.1556 1704.00
40.2208 1744.00
40.286 1674.00
40.3512 1519.00
40.4164 1395.00
40.4816 1381.00
40.5468 1364.00
40.612 1322.00
40.6772 1347.00
40.7424 1379.00
40.8076 1420.00
40.8728 1419.00
40.938 1425.00
41.0032 1574.00
41.0684 1575.00
41.1336 1606.00
41.1988 1768.00
41.264 1755.00
41.3292 1925.00
41.3944 1943.00
41.4596 1738.00
41.5248 1619.00
41.59 1569.00
41.6552 1602.00
41.7204 1817.00
41.7856 1764.00
41.8508 1589.00
41.916 1505.00
41.9812 1442.00
42.0464 1417.00
42.1116 1320.00
42.1768 1378.00
42.242 1377.00
42.3072 1427.00
42.3724 1421.00
42.4376 1425.00
42.5028 1442.00
42.568 1533.00
42.6332 1562.00
42.6983 1609.00
42.7635 1819.00
42.8287 2194.00
42.8939 2538.00
42.9591 3048.00
43.0243 3254.00
43.0895 3016.00
43.1547 2600.00
43.2199 2001.00
43.2851 1746.00
43.3503 1603.00
43.4155 1614.00
43.4807 1532.00
43.5459 1500.00
43.6111 1503.00
43.6763 1464.00
43.7415 1361.00
43.8067 1428.00
43.8719 1423.00
43.9371 1444.00
44.0023 1378.00
44.0675 1361.00
44.1327 1347.00
44.1979 1362.00
44.2631 1369.00
44.3283 1384.00
44.3935 1302.00
44.4587 1339.00
44.5239 1425.00
44.5891 1379.00
44.6543 1464.00
44.7195 1469.00
44.7847 1529.00
44.8499 1527.00
44.9151 1513.00
44.9803 1395.00
45.0455 1412.00
45.1107 1428.00
45.1759 1489.00
45.2411 1513.00
45.3063 1516.00
45.3715 1574.00
45.4367 1784.00
45.5019 2412.00
45.5671 4162.00
45.6323 7847.00
45.6975 8911.00
45.7627 6114.00
45.8279 4424.00
45.8931 2147.00
45.9583 1782.00
46.0235 1566.00
46.0887 1461.00
46.1539 1450.00
46.2191 1435.00
46.2843 1431.00
46.3495 1415.00
46.4147 1462.00
46.4799 1619.00
46.5451 1627.00
46.6103 1768.00
46.6755 2031.00
46.7407 2837.00
46.8059 4270.00
46.8711 5439.00
46.9363 4852.00
47.0015 4048.00
47.0667 3061.00
47.1319 2110.00
47.1971 1826.00
47.2623 1640.00
47.3275 1622.00
47.3927 1529.00
47.4579 1490.00
47.523 1449.00
47.5882 1462.00
47.6534 1504.00
47.7186 1484.00
47.7838 1442.00
47.849 1442.00
47.9142 1486.00
47.9794 1567.00
48.0446 1502.00
48.1098 1767.00
48.175 2172.00
48.2402 2706.00
48.3054 3103.00
48.3706 2903.00
48.4358 2694.00
48.501 2406.00
48.5662 2034.00
48.6314 1817.00
48.6966 1748.00
48.7618 1661.00
48.827 1735.00
48.8922 1786.00
48.9574 1970.00
49.0226 2007.00
49.0878 1864.00
49.153 1822.00
49.2182 1788.00
49.2834 1665.00
49.3486 1671.00
49.4138 1657.00
49.479 1603.00
49.5442 1492.00
49.6094 1406.00
49.6746 1353.00
49.7398 1304.00
49.805 1211.00
49.8702 1378.00
49.9354 1253.00
50.0006 1253.00
50.0658 1291.00
50.131 1219.00
50.1962 1218.00
50.2614 1197.00
50.3266 1241.00
50.3918 1172.00
50.457 1282.00
50.5222 1302.00
50.5874 1184.00
50.6526 1240.00
50.7178 1240.00
50.783 1246.00
50.8482 1236.00
50.9134 1199.00
50.9786 1235.00
51.0438 1288.00
51.109 1300.00
51.1742 1273.00
51.2394 1266.00
51.3046 1262.00
51.3698 1271.00
51.435 1265.00
51.5002 1321.00
51.5654 1193.00
51.6306 1232.00
51.6958 1273.00
51.761 1270.00
51.8262 1296.00
51.8914 1277.00
51.9566 1397.00
52.0218 1341.00
52.087 1351.00
52.1522 1317.00
52.2174 1304.00
52.2826 1386.00
52.3477 1464.00
52.4129 1408.00
52.4781 1424.00
52.5433 1401.00
52.6085 1392.00
52.6737 1338.00
52.7389 1356.00
52.8041 1377.00
52.8693 1386.00
52.9345 1398.00
52.9997 1443.00
53.0649 1381.00
53.1301 1483.00
53.1953 1548.00
53.2605 1716.00
53.3257 1862.00
53.3909 2263.00
53.4561 2500.00
53.5213 2606.00
53.5865 2613.00
53.6517 2438.00
53.7169 2129.00
53.7821 1796.00
53.8473 1705.00
53.9125 1562.00
53.9777 1575.00
54.0429 1682.00
54.1081 1626.00
54.1733 1541.00
54.2385 1544.00
54.3037 1425.00
54.3689 1486.00
54.4341 1493.00
54.4993 1674.00
54.5645 2084.00
54.6297 2527.00
54.6949 3098.00
54.7601 2997.00
54.8253 2920.00
54.8905 2755.00
54.9557 2219.00
55.0209 1860.00
55.0861 1660.00
55.1513 1500.00
55.2165 1375.00
55.2817 1444.00
55.3469 1358.00
55.4121 1300.00
55.4773 1340.00
55.5425 1288.00
55.6077 1331.00
55.6729 1313.00
55.7381 1370.00
55.8033 1409.00
55.8685 1346.00
55.9337 1365.00
55.9989 1360.00
56.0641 1339.00
56.1293 1362.00
56.1945 1291.00
56.2597 1333.00
56.3249 1398.00
56.3901 1483.00
56.4553 1571.00
56.5205 1965.00
56.5857 2453.00
56.6509 3508.00
56.7161 3144.00
56.7813 2702.00
56.8465 2367.00
56.9117 1788.00
56.9769 1640.00
57.042 1514.00
57.1073 1536.00
57.1724 1531.00
57.2376 1608.00
57.3028 1521.00
57.368 1506.00
57.4332 1444.00
57.4984 1399.00
57.5636 1345.00
57.6288 1414.00
57.694 1296.00
57.7592 1351.00
57.8244 1365.00
57.8896 1344.00
57.9548 1373.00
58.02 1365.00
58.0852 1383.00
58.1504 1297.00
58.2156 1395.00
58.2808 1378.00
58.346 1395.00
58.4112 1372.00
58.4764 1433.00
58.5416 1396.00
58.6068 1320.00
58.672 1502.00
58.7372 1404.00
58.8024 1479.00
58.8676 1436.00
58.9328 1395.00
58.998 1384.00
59.0632 1391.00
59.1284 1380.00
59.1936 1392.00
59.2588 1407.00
59.324 1375.00
59.3892 1465.00
59.4544 1339.00
59.5196 1389.00
59.5848 1448.00
59.65 1454.00
59.7152 1472.00
59.7804 1514.00
59.8456 1680.00
59.9108 1735.00
59.976 1764.00
60.0412 2057.00
60.1064 2530.00
60.1716 3336.00
60.2368 3920.00
60.302 4195.00
60.3672 3919.00
60.4324 3372.00
60.4976 2743.00
60.5628 2217.00
60.628 1818.00
60.6932 1638.00
60.7584 1691.00
60.8236 1640.00
60.8888 1614.00
60.954 1655.00
61.0192 1773.00
61.0844 1883.00
61.1496 1926.00
61.2148 1971.00
61.28 1979.00
61.3452 1803.00
61.4104 1731.00
61.4756 1501.00
61.5408 1452.00
61.606 1382.00
61.6712 1383.00
61.7364 1273.00
61.8016 1273.00
61.8667 1303.00
61.932 1357.00
61.9971 1235.00
62.0623 1333.00
62.1275 1326.00
62.1927 1286.00
62.2579 1309.00
62.3231 1329.00
62.3883 1237.00
62.4535 1225.00
62.5187 1282.00
62.5839 1304.00
62.6491 1331.00
62.7143 1295.00
62.7795 1279.00
62.8447 1347.00
62.9099 1356.00
62.9751 1376.00
63.0403 1344.00
63.1055 1350.00
63.1707 1330.00
63.2359 1309.00
63.3011 1363.00
63.3663 1421.00
63.4315 1408.00
63.4967 1484.00
63.5619 1407.00
63.6271 1452.00
63.6923 1403.00
63.7575 1432.00
63.8227 1387.00
63.8879 1501.00
63.9531 1671.00
64.0183 1605.00
64.0835 1561.00
64.1487 1566.00
64.2139 1478.00
64.2791 1438.00
64.3443 1279.00
64.4095 1217.00
64.4747 1259.00
64.5399 1266.00
64.6051 1182.00
64.6703 1174.00
64.7355 1289.00
64.8007 1241.00
64.8659 1209.00
64.9311 1241.00
64.9963 1217.00
65.0615 1242.00
65.1267 1166.00
65.1919 1128.00
65.2571 1145.00
65.3223 1164.00
65.3875 1124.00
65.4527 1135.00
65.5179 1160.00
65.5831 1182.00
65.6483 1186.00
65.7135 1301.00
65.7787 1230.00
65.8439 1202.00
65.9091 1330.00
65.9743 1336.00
66.0395 1526.00
66.1047 1632.00
66.1699 1613.00
66.2351 1711.00
66.3003 1800.00
66.3655 2133.00
66.4307 2101.00
66.4959 1716.00
66.561 1656.00
66.6263 1580.00
66.6915 1254.00
66.7566 1195.00
66.8218 1272.00
66.887 1195.00
66.9522 1144.00
67.0174 1152.00
67.0826 1158.00
67.1478 1127.00
67.213 1200.00
67.2782 1142.00
67.3434 1166.00
67.4086 1158.00
67.4738 1164.00
67.539 1167.00
67.6042 1228.00
67.6694 1224.00
67.7346 1191.00
67.7998 1208.00
67.865 1209.00
67.9302 1165.00
67.9954 1304.00
68.0606 1306.00
68.1258 1393.00
68.191 1611.00
68.2562 1851.00
68.3214 1739.00
68.3866 1675.00
68.4518 1677.00
68.517 1516.00
68.5822 1415.00
68.6474 1266.00
68.7126 1171.00
68.7778 1197.00
68.843 1146.00
68.9082 1209.00
68.9734 1261.00
69.0386 1169.00
69.1038 1179.00
69.169 1126.00
69.2342 1178.00
69.2994 1178.00
69.3646 1146.00
69.4298 1100.00
69.495 1129.00
69.5602 1124.00
69.6254 1179.00
69.6906 1143.00
69.7558 1161.00
69.821 1208.00
69.8862 1167.00
69.9514 1181.00
70.0166 1221.00
70.0818 1130.00
70.147 1243.00
70.2122 1098.00
70.2774 1113.00
70.3426 1142.00
70.4078 1111.00
70.473 1146.00
70.5382 1143.00
70.6034 1172.00
70.6686 1095.00
70.7338 1144.00
70.799 1135.00
70.8642 1133.00
70.9294 1099.00
70.9946 1112.00
71.0598 1163.00
71.125 1083.00
71.1902 1126.00
71.2554 1180.00
71.3205 1120.00
71.3858 1152.00
71.451 1165.00
71.5162 1160.00
71.5813 1191.00
71.6465 1135.00
71.7117 1176.00
71.7769 1178.00
71.8421 1159.00
71.9073 1176.00
71.9725 1129.00
72.0377 1196.00
72.1029 1140.00
72.1681 1117.00
72.2333 1085.00
72.2985 1150.00
72.3637 1063.00
72.4289 1161.00
72.4941 1186.00
72.5593 1166.00
72.6245 1129.00
72.6897 1184.00
72.7549 1106.00
72.8201 1102.00
72.8853 1096.00
72.9505 1095.00
73.0157 1115.00
73.0809 1129.00
73.1461 1207.00
73.2113 1160.00
73.2765 1218.00
73.3417 1169.00
73.4069 1213.00
73.4721 1195.00
73.5373 1140.00
73.6025 1168.00
73.6677 1134.00
73.7329 1170.00
73.7981 1139.00
73.8633 1115.00
73.9285 1127.00
73.9937 1106.00
74.0589 1134.00
74.1241 1091.00
74.1893 1099.00
74.2545 1195.00
74.3197 1151.00
74.3849 1172.00
74.4501 1205.00
74.5153 1258.00
74.5805 1334.00
74.6457 1430.00
74.7109 1472.00
74.7761 1437.00
74.8413 1398.00
74.9065 1412.00
74.9717 1364.00
75.0369 1271.00
75.1021 1374.00
75.1673 1343.00
75.2325 1512.00
75.2977 1740.00
75.3629 2229.00
75.4281 2883.00
75.4933 2482.00
75.5585 1963.00
75.6237 2142.00
75.6889 2017.00
75.7541 1652.00
75.8193 1440.00
75.8845 1343.00
75.9497 1343.00
76.0149 1265.00
76.0801 1293.00
76.1452 1221.00
76.2104 1260.00
76.2756 1226.00
76.3409 1215.00
76.406 1275.00
76.4712 1200.00
76.5364 1148.00
76.6016 1143.00
76.6668 1108.00
76.732 1132.00
76.7972 1171.00
76.8624 1151.00
76.9276 1182.00
76.9928 1188.00
77.058 1186.00
77.1232 1208.00
77.1884 1149.00
77.2536 1214.00
77.3188 1228.00
77.384 1343.00
77.4492 1358.00
77.5144 1459.00
77.5796 1616.00
77.6448 1738.00
77.71 1725.00
77.7752 1653.00
77.8404 1647.00
77.9056 1596.00
77.9708 1477.00
78.036 1424.00
78.1012 1382.00
78.1664 1346.00
78.2316 1248.00
78.2968 1225.00
78.362 1136.00
78.4272 1244.00
78.4924 1211.00
78.5576 1217.00
78.6228 1203.00
78.688 1224.00
78.7532 1263.00
78.8184 1243.00
78.8836 1207.00
78.9488 1281.00
79.014 1327.00
79.0792 1312.00
79.1444 1360.00
79.2096 1434.00
79.2748 1467.00
79.34 1546.00
79.4052 1705.00
79.4704 1736.00
79.5356 1671.00
79.6008 1711.00
79.666 1495.00
79.7312 1573.00
79.7964 1522.00
79.8616 1386.00
79.9268 1471.00
79.992 1491.00
80.0572 1447.00
80.1224 1576.00
80.1876 1694.00
80.2528 1765.00
80.318 1781.00
80.3832 1642.00
80.4484 1677.00
80.5136 1599.00
80.5788 1505.00
80.644 1436.00
80.7092 1394.00
80.7744 1380.00
80.8396 1343.00
80.9048 1246.00
80.9699 1264.00
81.0351 1252.00
81.1003 1232.00
81.1655 1229.00
81.2307 1202.00
81.2959 1240.00
81.3611 1183.00
81.4263 1236.00
81.4915 1183.00
81.5567 1183.00
81.6219 1166.00
81.6871 1204.00
81.7523 1170.00
81.8175 1153.00
81.8827 1169.00
81.9479 1173.00
82.0131 1147.00
82.0783 1158.00
82.1435 1156.00
82.2087 1130.00
82.2739 1150.00
82.3391 1177.00
82.4043 1149.00
82.4695 1105.00
82.5347 1164.00
82.5999 1216.00
82.6651 1191.00
82.7303 1181.00
82.7955 1303.00
82.8607 1216.00
82.9259 1238.00
82.9911 1245.00
83.0563 1236.00
83.1215 1167.00
83.1867 1148.00
83.2519 1140.00
83.3171 1098.00
83.3823 1133.00
83.4475 1158.00
83.5127 1160.00
83.5779 1175.00
83.6431 1175.00
83.7083 1284.00
83.7735 1216.00
83.8387 1349.00
83.9039 1524.00
83.9691 1656.00
84.0343 1930.00
84.0995 2331.00
84.1647 2057.00
84.2299 1841.00
84.2951 1694.00
84.3603 1737.00
84.4255 1551.00
84.4907 1340.00
84.5559 1203.00
84.6211 1190.00
84.6863 1166.00
84.7515 1143.00
84.8167 1121.00
84.8819 1116.00
84.9471 1081.00
85.0123 1143.00
85.0775 1159.00
85.1427 1096.00
85.2079 1142.00
85.2731 1105.00
85.3383 1031.00
85.4035 1118.00
85.4687 1121.00
85.5339 1150.00
85.5991 1138.00
85.6643 1120.00
85.7295 1093.00
85.7946 1082.00
85.8598 1109.00
85.925 1082.00
85.9903 1101.00
86.0554 1050.00
86.1206 1107.00
86.1858 1141.00
86.251 1139.00
86.3162 1075.00
86.3814 1058.00
86.4466 1049.00
86.5118 1150.00
86.577 1141.00
86.6422 1006.00
86.7074 1089.00
86.7726 1122.00
86.8378 1096.00
86.903 1136.00
86.9682 1104.00
87.0334 1100.00
87.0986 1078.00
87.1638 1069.00
87.229 1075.00
87.2942 1121.00
87.3594 1126.00
87.4246 1097.00
87.4898 1115.00
87.555 1014.00
87.6202 1081.00
87.6854 1128.00
87.7506 1077.00
87.8158 1076.00
87.881 1117.00
87.9462 1036.00
88.0114 1078.00
88.0766 1112.00
88.1418 1109.00
88.207 1036.00
88.2722 1045.00
88.3374 1103.00
88.4026 1123.00
88.4678 1113.00
88.533 1069.00
88.5982 1084.00
88.6634 1079.00
88.7286 1060.00
88.7938 1103.00
88.859 1108.00
88.9242 1137.00
88.9894 1118.00
89.0546 1124.00
89.1198 1168.00
89.185 1150.00
89.2502 1142.00
89.3154 1119.00
89.3806 1053.00
89.4458 1181.00
89.511 1143.00
89.5762 1190.00
89.6414 1192.00
89.7066 1368.00
89.7718 1286.00
89.837 1322.00
89.9022 1316.00
89.9674 1290.00
90.0326 1283.00
90.0978 1247.00
90.163 1269.00
90.2282 1191.00
90.2934 1242.00
90.3586 1277.00
90.4238 1201.00
90.489 1226.00
90.5542 1220.00
90.6193 1183.00
90.6845 1191.00
90.7497 1163.00
90.8149 1178.00
90.8801 1124.00
90.9453 1135.00
91.0105 1117.00
91.0757 1147.00
91.1409 1144.00
91.2061 1119.00
91.2713 1130.00
91.3365 1157.00
91.4017 1175.00
91.4669 1171.00
91.5321 1188.00
91.5973 1253.00
91.6625 1324.00
91.7277 1376.00
91.7929 1393.00
91.8581 1377.00
91.9233 1353.00
91.9885 1335.00
92.0537 1345.00
92.1189 1294.00
92.1841 1192.00
92.2493 1256.00
92.3145 1147.00
92.3797 1132.00
92.4449 1163.00
92.5101 1158.00
92.5753 1242.00
92.6405 1225.00
92.7057 1260.00
92.7709 1270.00
92.8361 1269.00
92.9013 1284.00
92.9665 1299.00
93.0317 1314.00
93.0969 1237.00
93.1621 1160.00
93.2273 1154.00
93.2925 1135.00
93.3577 1149.00
93.4229 1146.00
93.4881 1195.00
93.5533 1108.00
93.6185 1221.00
93.6837 1241.00
93.7489 1162.00
93.8141 1206.00
93.8793 1259.00
93.9445 1194.00
94.0097 1208.00
94.0749 1174.00
94.1401 1211.00
94.2053 1176.00
94.2705 1192.00
94.3357 1274.00
94.4009 1195.00
94.4661 1175.00
94.5313 1183.00
94.5965 1191.00
94.6617 1130.00
94.7269 1149.00
94.7921 1165.00
94.8573 1131.00
94.9225 1133.00
94.9877 1179.00
95.0529 1092.00
95.1181 1074.00
95.1833 1037.00
95.2485 1137.00
95.3137 1073.00
95.3789 1075.00
95.444 1102.00
95.5092 1106.00
95.5744 1073.00
95.6396 1063.00
95.7048 1004.00
95.77 1113.00
95.8352 1118.00
95.9004 1093.00
95.9656 1114.00
96.0308 1073.00
96.096 1069.00
96.1612 1102.00
96.2264 1088.00
96.2916 1142.00
96.3568 1147.00
96.422 1101.00
96.4872 1037.00
96.5524 1139.00
96.6176 1117.00
96.6828 1083.00
96.748 1121.00
96.8132 1132.00
96.8784 1192.00
96.9436 1158.00
97.0088 1165.00
97.074 1207.00
97.1392 1204.00
97.2044 1279.00
97.2696 1351.00
97.3348 1387.00
97.4 1475.00
97.4652 1547.00
97.5304 1488.00
97.5956 1405.00
97.6608 1446.00
97.726 1478.00
97.7912 1348.00
97.8564 1407.00
97.9216 1322.00
97.9868 1365.00
98.052 1285.00
98.1172 1310.00
98.1824 1333.00
98.2476 1309.00
98.3128 1364.00
98.378 1209.00
98.4432 1239.00
98.5084 1228.00
98.5736 1212.00
98.6388 1240.00
98.704 1106.00
98.7692 1123.00
98.8344 1069.00
98.8996 1169.00
98.9648 1127.00
99.03 1111.00
99.0952 1080.00
99.1604 1149.00
99.2256 1092.00
99.2908 1108.00
99.356 1149.00
99.4212 1079.00
99.4864 1099.00
99.5516 1070.00
99.6168 1044.00
99.682 1085.00
99.7472 1120.00
99.8124 1059.00
99.8776 1061.00
99.9428 1080.00
100.008 1125.00
100.073 1049.00
100.095 1039.00