File: data/xrd_creation/results/Na_45.xy
9.903433 2616.00
9.968632 2561.00
10.0338 2622.00
10.099 2459.00
10.1642 2562.00
10.2294 2611.00
10.2946 2425.00
10.3598 2451.00
10.425 2499.00
10.4902 2472.00
10.5554 2355.00
10.6206 2345.00
10.6858 2464.00
10.751 2345.00
10.8162 2251.00
10.8814 2229.00
10.9466 2176.00
11.0118 2131.00
11.077 2246.00
11.1422 2247.00
11.2074 2182.00
11.2726 2234.00
11.3378 2137.00
11.403 2176.00
11.4682 2175.00
11.5334 2028.00
11.5986 2152.00
11.6638 2095.00
11.729 2115.00
11.7942 2071.00
11.8594 1995.00
11.9246 2037.00
11.9898 2044.00
12.055 1997.00
12.1202 2014.00
12.1854 1969.00
12.2506 1970.00
12.3158 1828.00
12.381 1995.00
12.4462 1862.00
12.5114 1899.00
12.5766 1866.00
12.6418 1861.00
12.707 1830.00
12.7722 1763.00
12.8374 1817.00
12.9026 1783.00
12.9678 1807.00
13.033 1828.00
13.0982 1800.00
13.1634 1845.00
13.2286 1762.00
13.2938 1766.00
13.359 1766.00
13.4242 1748.00
13.4894 1679.00
13.5546 1635.00
13.6198 1705.00
13.685 1631.00
13.7502 1752.00
13.8154 1733.00
13.8805 1709.00
13.9457 1681.00
14.0109 1649.00
14.0761 1675.00
14.1413 1652.00
14.2065 1689.00
14.2717 1668.00
14.3369 1626.00
14.4021 1703.00
14.4673 1689.00
14.5325 1617.00
14.5977 1588.00
14.6629 1708.00
14.7281 1642.00
14.7933 1664.00
14.8585 1624.00
14.9237 1630.00
14.9889 1683.00
15.0541 1595.00
15.1193 1627.00
15.1845 1572.00
15.2497 1606.00
15.3149 1556.00
15.3801 1568.00
15.4453 1591.00
15.5105 1632.00
15.5757 1704.00
15.6409 1633.00
15.7061 1634.00
15.7713 1576.00
15.8365 1573.00
15.9017 1485.00
15.9669 1499.00
16.0321 1554.00
16.0973 1473.00
16.1625 1457.00
16.2277 1395.00
16.2929 1483.00
16.3581 1439.00
16.4233 1528.00
16.4885 1503.00
16.5537 1470.00
16.6189 1487.00
16.6841 1582.00
16.7493 1541.00
16.8145 1609.00
16.8797 1566.00
16.9449 1458.00
17.0101 1441.00
17.0753 1380.00
17.1405 1410.00
17.2057 1432.00
17.2709 1431.00
17.3361 1487.00
17.4013 1551.00
17.4665 1493.00
17.5317 1395.00
17.5969 1370.00
17.6621 1387.00
17.7273 1386.00
17.7925 1271.00
17.8577 1314.00
17.9229 1315.00
17.9881 1386.00
18.0533 1403.00
18.1185 1379.00
18.1837 1351.00
18.2489 1326.00
18.3141 1255.00
18.3793 1316.00
18.4445 1282.00
18.5097 1302.00
18.5749 1320.00
18.6401 1282.00
18.7052 1269.00
18.7704 1325.00
18.8356 1292.00
18.9008 1278.00
18.966 1215.00
19.0312 1277.00
19.0964 1343.00
19.1616 1327.00
19.2268 1203.00
19.292 1299.00
19.3572 1290.00
19.4224 1312.00
19.4876 1408.00
19.5528 1397.00
19.618 1421.00
19.6832 1517.00
19.7484 1366.00
19.8136 1289.00
19.8788 1206.00
19.944 1260.00
20.0092 1273.00
20.0744 1255.00
20.1396 1433.00
20.2048 1275.00
20.27 1232.00
20.3352 1193.00
20.4004 1179.00
20.4656 1243.00
20.5308 1287.00
20.596 1200.00
20.6612 1261.00
20.7264 1151.00
20.7916 1230.00
20.8568 1224.00
20.922 1242.00
20.9872 1228.00
21.0524 1211.00
21.1176 1167.00
21.1828 1203.00
21.248 1176.00
21.3132 1201.00
21.3784 1230.00
21.4436 1187.00
21.5088 1156.00
21.574 1213.00
21.6392 1303.00
21.7044 1480.00
21.7696 1612.00
21.8348 1396.00
21.9 1246.00
21.9652 1182.00
22.0304 1098.00
22.0956 1137.00
22.1608 1043.00
22.226 1092.00
22.2912 1039.00
22.3564 1065.00
22.4216 1083.00
22.4868 1053.00
22.552 1064.00
22.6172 1084.00
22.6824 1041.00
22.7476 1036.00
22.8128 1115.00
22.878 1068.00
22.9432 1039.00
23.0084 1014.00
23.0736 1030.00
23.1388 1105.00
23.204 1144.00
23.2692 1201.00
23.3344 1132.00
23.3996 1078.00
23.4647 1054.00
23.5299 1098.00
23.5951 1108.00
23.6603 1171.00
23.7255 1176.00
23.7907 1131.00
23.8559 1060.00
23.9211 1024.00
23.9863 1092.00
24.0515 1068.00
24.1167 1075.00
24.1819 1178.00
24.2471 1194.00
24.3123 1254.00
24.3775 1195.00
24.4427 1047.00
24.5079 993.00
24.5731 1053.00
24.6383 1009.00
24.7035 1047.00
24.7687 1106.00
24.8339 1048.00
24.8991 1069.00
24.9643 1114.00
25.0295 1167.00
25.0947 990.00
25.1599 1038.00
25.2251 950.00
25.2903 989.00
25.3555 914.00
25.4207 954.00
25.4859 971.00
25.5511 917.00
25.6163 959.00
25.6815 904.00
25.7467 961.00
25.8119 941.00
25.8771 947.00
25.9423 948.00
26.0075 967.00
26.0727 954.00
26.1379 1035.00
26.2031 955.00
26.2683 969.00
26.3335 897.00
26.3987 873.00
26.4639 931.00
26.5291 878.00
26.5943 919.00
26.6595 881.00
26.7247 866.00
26.7899 902.00
26.8551 923.00
26.9203 899.00
26.9855 880.00
27.0507 928.00
27.1159 839.00
27.1811 929.00
27.2463 982.00
27.3115 984.00
27.3767 1010.00
27.4419 1014.00
27.5071 1006.00
27.5723 1119.00
27.6375 1161.00
27.7027 1403.00
27.7679 1885.00
27.8331 2247.00
27.8983 1766.00
27.9635 1344.00
28.0287 1079.00
28.0939 1026.00
28.1591 948.00
28.2243 936.00
28.2894 913.00
28.3546 880.00
28.4198 903.00
28.485 902.00
28.5502 963.00
28.6154 963.00
28.6806 966.00
28.7458 974.00
28.811 997.00
28.8762 983.00
28.9414 1017.00
29.0066 861.00
29.0718 947.00
29.137 928.00
29.2022 994.00
29.2674 891.00
29.3326 907.00
29.3978 973.00
29.463 933.00
29.5282 896.00
29.5934 927.00
29.6586 928.00
29.7238 971.00
29.789 1069.00
29.8542 1293.00
29.9194 1719.00
29.9846 2419.00
30.0498 2905.00
30.115 3551.00
30.1802 3384.00
30.2454 2913.00
30.3106 2625.00
30.3758 1731.00
30.441 1195.00
30.5062 1016.00
30.5714 886.00
30.6366 996.00
30.7018 964.00
30.767 975.00
30.8322 917.00
30.8974 869.00
30.9626 825.00
31.0278 831.00
31.093 931.00
31.1582 941.00
31.2234 936.00
31.2886 938.00
31.3538 980.00
31.419 1018.00
31.4842 954.00
31.5494 879.00
31.6146 943.00
31.6798 897.00
31.745 899.00
31.8102 1042.00
31.8754 1181.00
31.9406 1113.00
32.0058 1034.00
32.071 865.00
32.1362 846.00
32.2014 804.00
32.2666 818.00
32.3318 852.00
32.397 775.00
32.4622 812.00
32.5274 792.00
32.5926 773.00
32.6578 760.00
32.723 720.00
32.7882 716.00
32.8534 638.00
32.9186 705.00
32.9838 702.00
33.0489 664.00
33.1141 706.00
33.1793 662.00
33.2445 687.00
33.3097 646.00
33.3749 689.00
33.4401 712.00
33.5053 706.00
33.5705 642.00
33.6357 679.00
33.7009 645.00
33.7661 662.00
33.8313 684.00
33.8965 648.00
33.9617 624.00
34.0269 615.00
34.0921 694.00
34.1573 599.00
34.2225 642.00
34.2877 660.00
34.3529 597.00
34.4181 634.00
34.4833 729.00
34.5485 695.00
34.6137 859.00
34.6789 894.00
34.7441 1026.00
34.8093 1038.00
34.8745 1025.00
34.9397 1018.00
35.0049 850.00
35.0701 783.00
35.1353 749.00
35.2005 682.00
35.2657 696.00
35.3309 739.00
35.3961 819.00
35.4613 677.00
35.5265 604.00
35.5917 540.00
35.6569 578.00
35.7221 528.00
35.7873 581.00
35.8525 607.00
35.9177 601.00
35.9829 606.00
36.0481 558.00
36.1133 594.00
36.1785 570.00
36.2437 598.00
36.3089 665.00
36.3741 710.00
36.4393 798.00
36.5045 813.00
36.5697 699.00
36.6349 742.00
36.7001 619.00
36.7653 582.00
36.8305 524.00
36.8957 577.00
36.9609 652.00
37.0261 741.00
37.0913 858.00
37.1565 990.00
37.2217 1032.00
37.2869 827.00
37.3521 716.00
37.4173 622.00
37.4825 611.00
37.5477 625.00
37.6129 582.00
37.6781 564.00
37.7433 579.00
37.8085 639.00
37.8736 639.00
37.9388 585.00
38.004 628.00
38.0692 664.00
38.1344 596.00
38.1996 708.00
38.2648 707.00
38.33 810.00
38.3952 867.00
38.4604 1032.00
38.5256 1151.00
38.5908 1012.00
38.656 815.00
38.7212 642.00
38.7864 566.00
38.8516 569.00
38.9168 525.00
38.982 532.00
39.0472 495.00
39.1124 518.00
39.1776 510.00
39.2428 503.00
39.308 471.00
39.3732 520.00
39.4384 528.00
39.5036 489.00
39.5688 491.00
39.634 449.00
39.6992 424.00
39.7644 495.00
39.8296 519.00
39.8948 540.00
39.96 523.00
40.0252 547.00
40.0904 541.00
40.1556 505.00
40.2208 536.00
40.286 583.00
40.3512 562.00
40.4164 594.00
40.4816 681.00
40.5468 751.00
40.612 783.00
40.6772 846.00
40.7424 789.00
40.8076 698.00
40.8728 637.00
40.938 543.00
41.0032 521.00
41.0684 495.00
41.1336 519.00
41.1988 514.00
41.264 501.00
41.3292 519.00
41.3944 529.00
41.4596 524.00
41.5248 491.00
41.59 531.00
41.6552 521.00
41.7204 502.00
41.7856 540.00
41.8508 516.00
41.916 552.00
41.9812 508.00
42.0464 495.00
42.1116 467.00
42.1768 463.00
42.242 467.00
42.3072 449.00
42.3724 468.00
42.4376 525.00
42.5028 483.00
42.568 496.00
42.6332 550.00
42.6983 521.00
42.7635 507.00
42.8287 496.00
42.8939 491.00
42.9591 489.00
43.0243 506.00
43.0895 466.00
43.1547 528.00
43.2199 504.00
43.2851 495.00
43.3503 510.00
43.4155 550.00
43.4807 524.00
43.5459 557.00
43.6111 550.00
43.6763 526.00
43.7415 494.00
43.8067 443.00
43.8719 470.00
43.9371 487.00
44.0023 481.00
44.0675 439.00
44.1327 447.00
44.1979 517.00
44.2631 440.00
44.3283 497.00
44.3935 481.00
44.4587 455.00
44.5239 521.00
44.5891 514.00
44.6543 495.00
44.7195 485.00
44.7847 488.00
44.8499 483.00
44.9151 507.00
44.9803 439.00
45.0455 449.00
45.1107 463.00
45.1759 464.00
45.2411 444.00
45.3063 486.00
45.3715 471.00
45.4367 492.00
45.5019 468.00
45.5671 494.00
45.6323 491.00
45.6975 486.00
45.7627 457.00
45.8279 486.00
45.8931 484.00
45.9583 478.00
46.0235 496.00
46.0887 516.00
46.1539 588.00
46.2191 546.00
46.2843 513.00
46.3495 477.00
46.4147 459.00
46.4799 439.00
46.5451 460.00
46.6103 448.00
46.6755 449.00
46.7407 456.00
46.8059 461.00
46.8711 468.00
46.9363 425.00
47.0015 474.00
47.0667 466.00
47.1319 466.00
47.1971 447.00
47.2623 465.00
47.3275 455.00
47.3927 516.00
47.4579 565.00
47.523 561.00
47.5882 516.00
47.6534 555.00
47.7186 475.00
47.7838 540.00
47.849 545.00
47.9142 471.00
47.9794 515.00
48.0446 504.00
48.1098 483.00
48.175 505.00
48.2402 522.00
48.3054 462.00
48.3706 475.00
48.4358 451.00
48.501 447.00
48.5662 436.00
48.6314 453.00
48.6966 444.00
48.7618 424.00
48.827 475.00
48.8922 424.00
48.9574 430.00
49.0226 440.00
49.0878 434.00
49.153 450.00
49.2182 468.00
49.2834 487.00
49.3486 566.00
49.4138 650.00
49.479 585.00
49.5442 618.00
49.6094 492.00
49.6746 578.00
49.7398 612.00
49.805 811.00
49.8702 910.00
49.9354 931.00
50.0006 1077.00
50.0658 1324.00
50.131 1340.00
50.1962 1370.00
50.2614 1246.00
50.3266 1008.00
50.3918 826.00
50.457 641.00
50.5222 593.00
50.5874 496.00
50.6526 481.00
50.7178 482.00
50.783 465.00
50.8482 467.00
50.9134 412.00
50.9786 450.00
51.0438 424.00
51.109 428.00
51.1742 446.00
51.2394 434.00
51.3046 406.00
51.3698 452.00
51.435 467.00
51.5002 487.00
51.5654 472.00
51.6306 446.00
51.6958 449.00
51.761 487.00
51.8262 404.00
51.8914 470.00
51.9566 462.00
52.0218 446.00
52.087 475.00
52.1522 499.00
52.2174 553.00
52.2826 607.00
52.3477 619.00
52.4129 636.00
52.4781 647.00
52.5433 636.00
52.6085 639.00
52.6737 554.00
52.7389 557.00
52.8041 525.00
52.8693 528.00
52.9345 490.00
52.9997 551.00
53.0649 549.00
53.1301 498.00
53.1953 540.00
53.2605 522.00
53.3257 561.00
53.3909 582.00
53.4561 672.00
53.5213 612.00
53.5865 589.00
53.6517 558.00
53.7169 468.00
53.7821 504.00
53.8473 418.00
53.9125 429.00
53.9777 418.00
54.0429 416.00
54.1081 434.00
54.1733 462.00
54.2385 437.00
54.3037 414.00
54.3689 389.00
54.4341 433.00
54.4993 458.00
54.5645 401.00
54.6297 439.00
54.6949 410.00
54.7601 418.00
54.8253 432.00
54.8905 417.00
54.9557 415.00
55.0209 403.00
55.0861 400.00
55.1513 400.00
55.2165 393.00
55.2817 395.00
55.3469 424.00
55.4121 405.00
55.4773 423.00
55.5425 408.00
55.6077 424.00
55.6729 417.00
55.7381 387.00
55.8033 367.00
55.8685 359.00
55.9337 377.00
55.9989 380.00
56.0641 394.00
56.1293 383.00
56.1945 412.00
56.2597 417.00
56.3249 424.00
56.3901 392.00
56.4553 399.00
56.5205 490.00
56.5857 481.00
56.6509 416.00
56.7161 448.00
56.7813 386.00
56.8465 441.00
56.9117 452.00
56.9769 452.00
57.042 488.00
57.1073 510.00
57.1724 472.00
57.2376 497.00
57.3028 469.00
57.368 528.00
57.4332 518.00
57.4984 491.00
57.5636 483.00
57.6288 389.00
57.694 408.00
57.7592 412.00
57.8244 391.00
57.8896 410.00
57.9548 390.00
58.02 403.00
58.0852 378.00
58.1504 417.00
58.2156 390.00
58.2808 439.00
58.346 384.00
58.4112 416.00
58.4764 422.00
58.5416 400.00
58.6068 422.00
58.672 491.00
58.7372 530.00
58.8024 562.00
58.8676 595.00
58.9328 635.00
58.998 609.00
59.0632 640.00
59.1284 663.00
59.1936 677.00
59.2588 754.00
59.324 774.00
59.3892 813.00
59.4544 813.00
59.5196 788.00
59.5848 681.00
59.65 621.00
59.7152 593.00
59.7804 540.00
59.8456 563.00
59.9108 529.00
59.976 544.00
60.0412 647.00
60.1064 643.00
60.1716 611.00
60.2368 596.00
60.302 581.00
60.3672 519.00
60.4324 515.00
60.4976 468.00
60.5628 463.00
60.628 446.00
60.6932 420.00
60.7584 389.00
60.8236 346.00
60.8888 378.00
60.954 391.00
61.0192 368.00
61.0844 351.00
61.1496 357.00
61.2148 366.00
61.28 331.00
61.3452 348.00
61.4104 331.00
61.4756 350.00
61.5408 392.00
61.606 414.00
61.6712 383.00
61.7364 386.00
61.8016 360.00
61.8667 421.00
61.932 424.00
61.9971 481.00
62.0623 442.00
62.1275 464.00
62.1927 487.00
62.2579 483.00
62.3231 472.00
62.3883 481.00
62.4535 511.00
62.5187 494.00
62.5839 509.00
62.6491 521.00
62.7143 480.00
62.7795 455.00
62.8447 453.00
62.9099 507.00
62.9751 486.00
63.0403 511.00
63.1055 513.00
63.1707 500.00
63.2359 499.00
63.3011 404.00
63.3663 395.00
63.4315 442.00
63.4967 380.00
63.5619 369.00
63.6271 395.00
63.6923 387.00
63.7575 390.00
63.8227 424.00
63.8879 407.00
63.9531 433.00
64.0183 446.00
64.0835 433.00
64.1487 394.00
64.2139 416.00
64.2791 379.00
64.3443 458.00
64.4095 375.00
64.4747 413.00
64.5399 354.00
64.6051 378.00
64.6703 364.00
64.7355 398.00
64.8007 371.00
64.8659 362.00
64.9311 345.00
64.9963 406.00
65.0615 444.00
65.1267 424.00
65.1919 436.00
65.2571 442.00
65.3223 445.00
65.3875 402.00
65.4527 372.00
65.5179 361.00
65.5831 347.00
65.6483 369.00
65.7135 351.00
65.7787 401.00
65.8439 397.00
65.9091 396.00
65.9743 378.00
66.0395 416.00
66.1047 405.00
66.1699 421.00
66.2351 416.00
66.3003 394.00
66.3655 419.00
66.4307 393.00
66.4959 418.00
66.561 445.00
66.6263 348.00
66.6915 324.00
66.7566 336.00
66.8218 341.00
66.887 319.00
66.9522 284.00
67.0174 319.00
67.0826 344.00
67.1478 334.00
67.213 323.00
67.2782 286.00
67.3434 313.00
67.4086 314.00
67.4738 349.00
67.539 343.00
67.6042 327.00
67.6694 369.00
67.7346 318.00
67.7998 403.00
67.865 416.00
67.9302 457.00
67.9954 413.00
68.0606 432.00
68.1258 434.00
68.191 432.00
68.2562 411.00
68.3214 405.00
68.3866 375.00
68.4518 363.00
68.517 359.00
68.5822 322.00
68.6474 374.00
68.7126 365.00
68.7778 373.00
68.843 351.00
68.9082 389.00
68.9734 380.00
69.0386 348.00
69.1038 361.00
69.169 362.00
69.2342 376.00
69.2994 329.00
69.3646 341.00
69.4298 337.00
69.495 357.00
69.5602 377.00
69.6254 345.00
69.6906 343.00
69.7558 353.00
69.821 366.00
69.8862 341.00
69.9514 366.00
70.0166 386.00
70.0818 352.00
70.147 332.00
70.2122 320.00
70.2774 355.00
70.3426 348.00
70.4078 366.00
70.473 334.00
70.5382 309.00
70.6034 323.00
70.6686 343.00
70.7338 321.00
70.799 317.00
70.8642 336.00
70.9294 325.00
70.9946 364.00
71.0598 351.00
71.125 358.00
71.1902 367.00
71.2554 387.00
71.3205 340.00
71.3858 366.00
71.451 358.00
71.5162 345.00
71.5813 357.00
71.6465 335.00
71.7117 337.00
71.7769 312.00
71.8421 363.00
71.9073 351.00
71.9725 338.00
72.0377 318.00
72.1029 351.00
72.1681 361.00
72.2333 384.00
72.2985 350.00
72.3637 333.00
72.4289 305.00
72.4941 342.00
72.5593 350.00
72.6245 371.00
72.6897 349.00
72.7549 341.00
72.8201 322.00
72.8853 357.00
72.9505 347.00
73.0157 358.00
73.0809 339.00
73.1461 345.00
73.2113 377.00
73.2765 373.00
73.3417 344.00
73.4069 363.00
73.4721 360.00
73.5373 373.00
73.6025 341.00
73.6677 321.00
73.7329 336.00
73.7981 339.00
73.8633 338.00
73.9285 303.00
73.9937 291.00
74.0589 281.00
74.1241 302.00
74.1893 300.00
74.2545 320.00
74.3197 379.00
74.3849 336.00
74.4501 323.00
74.5153 326.00
74.5805 339.00
74.6457 343.00
74.7109 340.00
74.7761 302.00
74.8413 309.00
74.9065 316.00
74.9717 325.00
75.0369 363.00
75.1021 329.00
75.1673 335.00
75.2325 318.00
75.2977 371.00
75.3629 320.00
75.4281 302.00
75.4933 372.00
75.5585 362.00
75.6237 345.00
75.6889 294.00
75.7541 304.00
75.8193 335.00
75.8845 315.00
75.9497 290.00
76.0149 293.00
76.0801 312.00
76.1452 256.00
76.2104 236.00
76.2756 306.00
76.3409 300.00
76.406 260.00
76.4712 295.00
76.5364 265.00
76.6016 277.00
76.6668 302.00
76.732 285.00
76.7972 293.00
76.8624 306.00
76.9276 315.00
76.9928 319.00
77.058 282.00
77.1232 297.00
77.1884 285.00
77.2536 307.00
77.3188 309.00
77.384 343.00
77.4492 292.00
77.5144 325.00
77.5796 303.00
77.6448 260.00
77.71 296.00
77.7752 313.00
77.8404 282.00
77.9056 273.00
77.9708 273.00
78.036 284.00
78.1012 275.00
78.1664 302.00
78.2316 272.00
78.2968 269.00
78.362 278.00
78.4272 292.00
78.4924 324.00
78.5576 243.00
78.6228 346.00
78.688 263.00
78.7532 302.00
78.8184 321.00
78.8836 315.00
78.9488 316.00
79.014 300.00
79.0792 288.00
79.1444 279.00
79.2096 329.00
79.2748 320.00
79.34 330.00
79.4052 290.00
79.4704 270.00
79.5356 312.00
79.6008 318.00
79.666 329.00
79.7312 262.00
79.7964 283.00
79.8616 292.00
79.9268 288.00
79.992 335.00
80.0572 305.00
80.1224 325.00
80.1876 349.00
80.2528 336.00
80.318 333.00
80.3832 340.00
80.4484 355.00
80.5136 364.00
80.5788 349.00
80.644 357.00
80.7092 369.00
80.7744 394.00
80.8396 384.00
80.9048 350.00
80.9699 382.00
81.0351 391.00
81.1003 416.00
81.1655 421.00
81.2307 355.00
81.2959 407.00
81.3611 455.00
81.4263 418.00
81.4915 427.00
81.5567 390.00
81.6219 402.00
81.6871 389.00
81.7523 385.00
81.8175 395.00
81.8827 350.00
81.9479 374.00
82.0131 368.00
82.0783 378.00
82.1435 381.00
82.2087 396.00
82.2739 371.00
82.3391 373.00
82.4043 360.00
82.4695 351.00
82.5347 319.00
82.5999 303.00
82.6651 322.00
82.7303 286.00
82.7955 314.00
82.8607 337.00
82.9259 314.00
82.9911 321.00
83.0563 342.00
83.1215 357.00
83.1867 289.00
83.2519 328.00
83.3171 349.00
83.3823 321.00
83.4475 323.00
83.5127 385.00
83.5779 317.00
83.6431 381.00
83.7083 382.00
83.7735 350.00
83.8387 347.00
83.9039 326.00
83.9691 316.00
84.0343 360.00
84.0995 291.00
84.1647 328.00
84.2299 309.00
84.2951 324.00
84.3603 302.00
84.4255 287.00
84.4907 300.00
84.5559 298.00
84.6211 336.00
84.6863 322.00
84.7515 350.00
84.8167 312.00
84.8819 328.00
84.9471 287.00
85.0123 336.00
85.0775 301.00
85.1427 324.00
85.2079 331.00
85.2731 322.00
85.3383 297.00
85.4035 285.00
85.4687 331.00
85.5339 316.00
85.5991 313.00
85.6643 347.00
85.7295 387.00
85.7946 381.00
85.8598 359.00
85.925 341.00
85.9903 361.00
86.0554 319.00
86.1206 311.00
86.1858 320.00
86.251 322.00
86.3162 369.00
86.3814 291.00
86.4466 320.00
86.5118 318.00
86.577 282.00
86.6422 271.00
86.7074 307.00
86.7726 286.00
86.8378 302.00
86.903 273.00
86.9682 287.00
87.0334 320.00
87.0986 297.00
87.1638 328.00
87.229 300.00
87.2942 354.00
87.3594 313.00
87.4246 336.00
87.4898 352.00
87.555 315.00
87.6202 315.00
87.6854 308.00
87.7506 313.00
87.8158 315.00
87.881 327.00
87.9462 328.00
88.0114 284.00
88.0766 289.00
88.1418 291.00
88.207 284.00
88.2722 295.00
88.3374 260.00
88.4026 311.00
88.4678 281.00
88.533 299.00
88.5982 303.00
88.6634 265.00
88.7286 301.00
88.7938 292.00
88.859 243.00
88.9242 304.00
88.9894 272.00
89.0546 270.00
89.1198 285.00
89.185 308.00
89.2502 296.00
89.3154 280.00
89.3806 288.00
89.4458 333.00
89.511 308.00
89.5762 248.00
89.6414 295.00
89.7066 342.00
89.7718 285.00
89.837 316.00
89.9022 304.00
89.9674 314.00
90.0326 313.00
90.0978 304.00
90.163 299.00
90.2282 338.00
90.2934 316.00
90.3586 284.00
90.4238 317.00
90.489 301.00
90.5542 306.00
90.6193 335.00
90.6845 290.00
90.7497 309.00
90.8149 291.00
90.8801 285.00
90.9453 285.00
91.0105 317.00
91.0757 257.00
91.1409 332.00
91.2061 285.00
91.2713 300.00
91.3365 282.00
91.4017 297.00
91.4669 295.00
91.5321 325.00
91.5973 256.00
91.6625 311.00
91.7277 277.00
91.7929 303.00
91.8581 316.00
91.9233 287.00
91.9885 310.00
92.0537 308.00
92.1189 301.00
92.1841 280.00
92.2493 300.00
92.3145 291.00
92.3797 282.00
92.4449 298.00
92.5101 321.00
92.5753 283.00
92.6405 287.00
92.7057 277.00
92.7709 320.00
92.8361 303.00
92.9013 301.00
92.9665 286.00
93.0317 296.00
93.0969 286.00
93.1621 308.00
93.2273 281.00
93.2925 301.00
93.3577 281.00
93.4229 285.00
93.4881 286.00
93.5533 323.00
93.6185 296.00
93.6837 298.00
93.7489 315.00
93.8141 315.00
93.8793 366.00
93.9445 370.00
94.0097 366.00
94.0749 346.00
94.1401 386.00
94.2053 385.00
94.2705 321.00
94.3357 355.00
94.4009 357.00
94.4661 309.00
94.5313 351.00
94.5965 320.00
94.6617 313.00
94.7269 329.00
94.7921 282.00
94.8573 296.00
94.9225 305.00
94.9877 274.00
95.0529 307.00
95.1181 294.00
95.1833 299.00
95.2485 314.00
95.3137 325.00
95.3789 296.00
95.444 282.00
95.5092 298.00
95.5744 341.00
95.6396 336.00
95.7048 319.00
95.77 329.00
95.8352 312.00
95.9004 347.00
95.9656 331.00
96.0308 329.00
96.096 333.00
96.1612 334.00
96.2264 307.00
96.2916 276.00
96.3568 295.00
96.422 272.00
96.4872 281.00
96.5524 287.00
96.6176 311.00
96.6828 297.00
96.748 259.00
96.8132 285.00
96.8784 238.00
96.9436 285.00
97.0088 269.00
97.074 300.00
97.1392 304.00
97.2044 354.00
97.2696 289.00
97.3348 288.00
97.4 256.00
97.4652 276.00
97.5304 265.00
97.5956 294.00
97.6608 239.00
97.726 290.00
97.7912 272.00
97.8564 289.00
97.9216 218.00
97.9868 257.00
98.052 262.00
98.1172 240.00
98.1824 285.00
98.2476 263.00
98.3128 266.00
98.378 269.00
98.4432 256.00
98.5084 249.00
98.5736 217.00
98.6388 275.00
98.704 245.00
98.7692 280.00
98.8344 287.00
98.8996 278.00
98.9648 290.00
99.03 275.00
99.0952 286.00
99.1604 262.00
99.2256 287.00
99.2908 312.00
99.356 262.00
99.4212 284.00
99.4864 286.00
99.5516 283.00
99.6168 303.00
99.682 314.00
99.7472 315.00
99.8124 307.00
99.8776 324.00
99.9428 315.00
100.008 312.00
100.073 307.00
100.095 374.00