File: data/xrd_creation/results/Na_43.xy
9.903433 2534.00
9.968632 2495.00
10.0338 2575.00
10.099 2452.00
10.1642 2451.00
10.2294 2439.00
10.2946 2443.00
10.3598 2410.00
10.425 2359.00
10.4902 2285.00
10.5554 2338.00
10.6206 2337.00
10.6858 2219.00
10.751 2274.00
10.8162 2265.00
10.8814 2228.00
10.9466 2212.00
11.0118 2277.00
11.077 2171.00
11.1422 2064.00
11.2074 2116.00
11.2726 2133.00
11.3378 2097.00
11.403 2174.00
11.4682 2066.00
11.5334 1938.00
11.5986 2040.00
11.6638 1885.00
11.729 1932.00
11.7942 1890.00
11.8594 1872.00
11.9246 1859.00
11.9898 1859.00
12.055 1858.00
12.1202 1870.00
12.1854 1850.00
12.2506 1768.00
12.3158 1778.00
12.381 1839.00
12.4462 1801.00
12.5114 1749.00
12.5766 1734.00
12.6418 1721.00
12.707 1634.00
12.7722 1757.00
12.8374 1706.00
12.9026 1725.00
12.9678 1625.00
13.033 1575.00
13.0982 1621.00
13.1634 1621.00
13.2286 1592.00
13.2938 1593.00
13.359 1562.00
13.4242 1627.00
13.4894 1503.00
13.5546 1565.00
13.6198 1540.00
13.685 1530.00
13.7502 1570.00
13.8154 1568.00
13.8805 1467.00
13.9457 1519.00
14.0109 1464.00
14.0761 1454.00
14.1413 1432.00
14.2065 1417.00
14.2717 1474.00
14.3369 1439.00
14.4021 1421.00
14.4673 1443.00
14.5325 1401.00
14.5977 1444.00
14.6629 1336.00
14.7281 1403.00
14.7933 1345.00
14.8585 1402.00
14.9237 1383.00
14.9889 1347.00
15.0541 1408.00
15.1193 1349.00
15.1845 1367.00
15.2497 1383.00
15.3149 1318.00
15.3801 1281.00
15.4453 1336.00
15.5105 1258.00
15.5757 1246.00
15.6409 1278.00
15.7061 1267.00
15.7713 1347.00
15.8365 1290.00
15.9017 1297.00
15.9669 1291.00
16.0321 1263.00
16.0973 1248.00
16.1625 1243.00
16.2277 1258.00
16.2929 1311.00
16.3581 1246.00
16.4233 1204.00
16.4885 1207.00
16.5537 1185.00
16.6189 1315.00
16.6841 1199.00
16.7493 1147.00
16.8145 1243.00
16.8797 1193.00
16.9449 1251.00
17.0101 1241.00
17.0753 1158.00
17.1405 1211.00
17.2057 1114.00
17.2709 1147.00
17.3361 1164.00
17.4013 1115.00
17.4665 1068.00
17.5317 1141.00
17.5969 1132.00
17.6621 1083.00
17.7273 1179.00
17.7925 1111.00
17.8577 1124.00
17.9229 1112.00
17.9881 1161.00
18.0533 1078.00
18.1185 1064.00
18.1837 1120.00
18.2489 1111.00
18.3141 998.00
18.3793 1073.00
18.4445 1047.00
18.5097 1021.00
18.5749 1125.00
18.6401 1040.00
18.7052 1043.00
18.7704 1025.00
18.8356 1057.00
18.9008 1118.00
18.966 1034.00
19.0312 969.00
19.0964 1034.00
19.1616 1041.00
19.2268 942.00
19.292 992.00
19.3572 1003.00
19.4224 991.00
19.4876 1043.00
19.5528 947.00
19.618 975.00
19.6832 906.00
19.7484 920.00
19.8136 950.00
19.8788 940.00
19.944 945.00
20.0092 974.00
20.0744 964.00
20.1396 908.00
20.2048 884.00
20.27 864.00
20.3352 966.00
20.4004 924.00
20.4656 912.00
20.5308 934.00
20.596 968.00
20.6612 931.00
20.7264 909.00
20.7916 900.00
20.8568 938.00
20.922 852.00
20.9872 927.00
21.0524 909.00
21.1176 895.00
21.1828 821.00
21.248 887.00
21.3132 919.00
21.3784 923.00
21.4436 899.00
21.5088 893.00
21.574 880.00
21.6392 809.00
21.7044 873.00
21.7696 855.00
21.8348 939.00
21.9 839.00
21.9652 905.00
22.0304 850.00
22.0956 862.00
22.1608 825.00
22.226 848.00
22.2912 847.00
22.3564 864.00
22.4216 826.00
22.4868 827.00
22.552 789.00
22.6172 867.00
22.6824 844.00
22.7476 809.00
22.8128 823.00
22.878 759.00
22.9432 817.00
23.0084 792.00
23.0736 749.00
23.1388 800.00
23.204 798.00
23.2692 763.00
23.3344 743.00
23.3996 770.00
23.4647 761.00
23.5299 761.00
23.5951 808.00
23.6603 766.00
23.7255 732.00
23.7907 798.00
23.8559 770.00
23.9211 733.00
23.9863 791.00
24.0515 746.00
24.1167 766.00
24.1819 749.00
24.2471 748.00
24.3123 708.00
24.3775 703.00
24.4427 773.00
24.5079 718.00
24.5731 732.00
24.6383 724.00
24.7035 705.00
24.7687 730.00
24.8339 766.00
24.8991 710.00
24.9643 718.00
25.0295 734.00
25.0947 689.00
25.1599 744.00
25.2251 733.00
25.2903 672.00
25.3555 742.00
25.4207 709.00
25.4859 680.00
25.5511 703.00
25.6163 703.00
25.6815 716.00
25.7467 673.00
25.8119 680.00
25.8771 633.00
25.9423 700.00
26.0075 719.00
26.0727 700.00
26.1379 655.00
26.2031 699.00
26.2683 656.00
26.3335 651.00
26.3987 648.00
26.4639 656.00
26.5291 688.00
26.5943 634.00
26.6595 622.00
26.7247 668.00
26.7899 647.00
26.8551 625.00
26.9203 596.00
26.9855 623.00
27.0507 649.00
27.1159 624.00
27.1811 666.00
27.2463 630.00
27.3115 679.00
27.3767 628.00
27.4419 623.00
27.5071 670.00
27.5723 686.00
27.6375 613.00
27.7027 684.00
27.7679 618.00
27.8331 658.00
27.8983 639.00
27.9635 658.00
28.0287 662.00
28.0939 636.00
28.1591 650.00
28.2243 626.00
28.2894 686.00
28.3546 722.00
28.4198 671.00
28.485 638.00
28.5502 586.00
28.6154 580.00
28.6806 590.00
28.7458 604.00
28.811 618.00
28.8762 585.00
28.9414 622.00
29.0066 615.00
29.0718 616.00
29.137 566.00
29.2022 615.00
29.2674 563.00
29.3326 595.00
29.3978 560.00
29.463 628.00
29.5282 588.00
29.5934 588.00
29.6586 576.00
29.7238 638.00
29.789 585.00
29.8542 591.00
29.9194 591.00
29.9846 565.00
30.0498 609.00
30.115 585.00
30.1802 588.00
30.2454 577.00
30.3106 598.00
30.3758 592.00
30.441 543.00
30.5062 586.00
30.5714 581.00
30.6366 555.00
30.7018 540.00
30.767 598.00
30.8322 526.00
30.8974 498.00
30.9626 528.00
31.0278 549.00
31.093 538.00
31.1582 503.00
31.2234 571.00
31.2886 522.00
31.3538 574.00
31.419 541.00
31.4842 505.00
31.5494 569.00
31.6146 519.00
31.6798 529.00
31.745 518.00
31.8102 508.00
31.8754 508.00
31.9406 521.00
32.0058 530.00
32.071 501.00
32.1362 508.00
32.2014 530.00
32.2666 474.00
32.3318 537.00
32.397 488.00
32.4622 553.00
32.5274 502.00
32.5926 487.00
32.6578 548.00
32.723 503.00
32.7882 514.00
32.8534 490.00
32.9186 549.00
32.9838 468.00
33.0489 485.00
33.1141 452.00
33.1793 506.00
33.2445 485.00
33.3097 496.00
33.3749 509.00
33.4401 520.00
33.5053 497.00
33.5705 475.00
33.6357 505.00
33.7009 451.00
33.7661 472.00
33.8313 504.00
33.8965 478.00
33.9617 514.00
34.0269 448.00
34.0921 476.00
34.1573 506.00
34.2225 438.00
34.2877 458.00
34.3529 472.00
34.4181 476.00
34.4833 397.00
34.5485 438.00
34.6137 468.00
34.6789 486.00
34.7441 457.00
34.8093 466.00
34.8745 446.00
34.9397 451.00
35.0049 481.00
35.0701 439.00
35.1353 431.00
35.2005 424.00
35.2657 423.00
35.3309 418.00
35.3961 414.00
35.4613 444.00
35.5265 461.00
35.5917 423.00
35.6569 387.00
35.7221 411.00
35.7873 426.00
35.8525 428.00
35.9177 426.00
35.9829 442.00
36.0481 421.00
36.1133 414.00
36.1785 444.00
36.2437 398.00
36.3089 419.00
36.3741 429.00
36.4393 371.00
36.5045 424.00
36.5697 393.00
36.6349 400.00
36.7001 426.00
36.7653 379.00
36.8305 418.00
36.8957 378.00
36.9609 381.00
37.0261 448.00
37.0913 461.00
37.1565 438.00
37.2217 418.00
37.2869 388.00
37.3521 382.00
37.4173 406.00
37.4825 389.00
37.5477 403.00
37.6129 399.00
37.6781 412.00
37.7433 382.00
37.8085 385.00
37.8736 380.00
37.9388 355.00
38.004 343.00
38.0692 378.00
38.1344 385.00
38.1996 360.00
38.2648 397.00
38.33 378.00
38.3952 405.00
38.4604 396.00
38.5256 349.00
38.5908 366.00
38.656 379.00
38.7212 345.00
38.7864 408.00
38.8516 361.00
38.9168 387.00
38.982 398.00
39.0472 386.00
39.1124 371.00
39.1776 358.00
39.2428 357.00
39.308 378.00
39.3732 364.00
39.4384 349.00
39.5036 342.00
39.5688 349.00
39.634 373.00
39.6992 360.00
39.7644 371.00
39.8296 382.00
39.8948 354.00
39.96 369.00
40.0252 373.00
40.0904 334.00
40.1556 355.00
40.2208 360.00
40.286 329.00
40.3512 353.00
40.4164 354.00
40.4816 359.00
40.5468 372.00
40.612 350.00
40.6772 357.00
40.7424 354.00
40.8076 367.00
40.8728 367.00
40.938 340.00
41.0032 326.00
41.0684 358.00
41.1336 318.00
41.1988 328.00
41.264 353.00
41.3292 328.00
41.3944 361.00
41.4596 332.00
41.5248 323.00
41.59 351.00
41.6552 319.00
41.7204 324.00
41.7856 344.00
41.8508 319.00
41.916 309.00
41.9812 294.00
42.0464 315.00
42.1116 343.00
42.1768 317.00
42.242 345.00
42.3072 329.00
42.3724 346.00
42.4376 339.00
42.5028 298.00
42.568 300.00
42.6332 306.00
42.6983 318.00
42.7635 341.00
42.8287 356.00
42.8939 326.00
42.9591 313.00
43.0243 348.00
43.0895 322.00
43.1547 424.00
43.2199 368.00
43.2851 350.00
43.3503 340.00
43.4155 340.00
43.4807 341.00
43.5459 351.00
43.6111 308.00
43.6763 330.00
43.7415 358.00
43.8067 346.00
43.8719 319.00
43.9371 298.00
44.0023 339.00
44.0675 291.00
44.1327 306.00
44.1979 319.00
44.2631 306.00
44.3283 285.00
44.3935 287.00
44.4587 320.00
44.5239 310.00
44.5891 305.00
44.6543 285.00
44.7195 298.00
44.7847 319.00
44.8499 320.00
44.9151 308.00
44.9803 288.00
45.0455 314.00
45.1107 333.00
45.1759 317.00
45.2411 318.00
45.3063 316.00
45.3715 302.00
45.4367 316.00
45.5019 302.00
45.5671 323.00
45.6323 332.00
45.6975 307.00
45.7627 320.00
45.8279 332.00
45.8931 338.00
45.9583 300.00
46.0235 280.00
46.0887 330.00
46.1539 301.00
46.2191 288.00
46.2843 273.00
46.3495 302.00
46.4147 281.00
46.4799 321.00
46.5451 304.00
46.6103 295.00
46.6755 281.00
46.7407 317.00
46.8059 279.00
46.8711 271.00
46.9363 285.00
47.0015 279.00
47.0667 326.00
47.1319 293.00
47.1971 308.00
47.2623 310.00
47.3275 303.00
47.3927 289.00
47.4579 297.00
47.523 297.00
47.5882 311.00
47.6534 305.00
47.7186 267.00
47.7838 279.00
47.849 291.00
47.9142 291.00
47.9794 297.00
48.0446 298.00
48.1098 312.00
48.175 264.00
48.2402 292.00
48.3054 256.00
48.3706 279.00
48.4358 277.00
48.501 289.00
48.5662 289.00
48.6314 290.00
48.6966 276.00
48.7618 270.00
48.827 285.00
48.8922 278.00
48.9574 269.00
49.0226 270.00
49.0878 292.00
49.153 277.00
49.2182 272.00
49.2834 281.00
49.3486 283.00
49.4138 268.00
49.479 286.00
49.5442 278.00
49.6094 262.00
49.6746 280.00
49.7398 288.00
49.805 294.00
49.8702 266.00
49.9354 276.00
50.0006 263.00
50.0658 304.00
50.131 280.00
50.1962 275.00
50.2614 265.00
50.3266 302.00
50.3918 270.00
50.457 305.00
50.5222 234.00
50.5874 237.00
50.6526 266.00
50.7178 286.00
50.783 302.00
50.8482 294.00
50.9134 278.00
50.9786 285.00
51.0438 233.00
51.109 244.00
51.1742 288.00
51.2394 257.00
51.3046 244.00
51.3698 279.00
51.435 279.00
51.5002 260.00
51.5654 232.00
51.6306 283.00
51.6958 262.00
51.761 297.00
51.8262 257.00
51.8914 268.00
51.9566 270.00
52.0218 273.00
52.087 248.00
52.1522 237.00
52.2174 278.00
52.2826 268.00
52.3477 278.00
52.4129 292.00
52.4781 292.00
52.5433 246.00
52.6085 261.00
52.6737 260.00
52.7389 259.00
52.8041 273.00
52.8693 280.00
52.9345 237.00
52.9997 240.00
53.0649 274.00
53.1301 249.00
53.1953 257.00
53.2605 230.00
53.3257 261.00
53.3909 288.00
53.4561 261.00
53.5213 222.00
53.5865 280.00
53.6517 268.00
53.7169 234.00
53.7821 233.00
53.8473 269.00
53.9125 258.00
53.9777 263.00
54.0429 260.00
54.1081 270.00
54.1733 284.00
54.2385 258.00
54.3037 263.00
54.3689 261.00
54.4341 246.00
54.4993 213.00
54.5645 260.00
54.6297 237.00
54.6949 211.00
54.7601 229.00
54.8253 235.00
54.8905 244.00
54.9557 241.00
55.0209 258.00
55.0861 263.00
55.1513 294.00
55.2165 230.00
55.2817 260.00
55.3469 244.00
55.4121 238.00
55.4773 260.00
55.5425 277.00
55.6077 199.00
55.6729 270.00
55.7381 234.00
55.8033 204.00
55.8685 257.00
55.9337 223.00
55.9989 248.00
56.0641 249.00
56.1293 230.00
56.1945 221.00
56.2597 266.00
56.3249 246.00
56.3901 195.00
56.4553 277.00
56.5205 227.00
56.5857 222.00
56.6509 220.00
56.7161 205.00
56.7813 231.00
56.8465 214.00
56.9117 239.00
56.9769 228.00
57.042 209.00
57.1073 217.00
57.1724 224.00
57.2376 227.00
57.3028 231.00
57.368 222.00
57.4332 239.00
57.4984 207.00
57.5636 230.00
57.6288 242.00
57.694 240.00
57.7592 235.00
57.8244 233.00
57.8896 199.00
57.9548 220.00
58.02 235.00
58.0852 218.00
58.1504 212.00
58.2156 199.00
58.2808 236.00
58.346 221.00
58.4112 227.00
58.4764 210.00
58.5416 222.00
58.6068 247.00
58.672 248.00
58.7372 213.00
58.8024 233.00
58.8676 206.00
58.9328 227.00
58.998 250.00
59.0632 223.00
59.1284 230.00
59.1936 211.00
59.2588 210.00
59.324 217.00
59.3892 229.00
59.4544 246.00
59.5196 202.00
59.5848 224.00
59.65 196.00
59.7152 238.00
59.7804 195.00
59.8456 227.00
59.9108 272.00
59.976 225.00
60.0412 225.00
60.1064 204.00
60.1716 206.00
60.2368 207.00
60.302 206.00
60.3672 205.00
60.4324 230.00
60.4976 236.00
60.5628 219.00
60.628 223.00
60.6932 181.00
60.7584 228.00
60.8236 232.00
60.8888 240.00
60.954 186.00
61.0192 193.00
61.0844 181.00
61.1496 214.00
61.2148 210.00
61.28 216.00
61.3452 208.00
61.4104 205.00
61.4756 204.00
61.5408 226.00
61.606 242.00
61.6712 212.00
61.7364 222.00
61.8016 184.00
61.8667 219.00
61.932 211.00
61.9971 180.00
62.0623 159.00
62.1275 201.00
62.1927 211.00
62.2579 203.00
62.3231 203.00
62.3883 200.00
62.4535 201.00
62.5187 203.00
62.5839 206.00
62.6491 212.00
62.7143 181.00
62.7795 264.00
62.8447 216.00
62.9099 211.00
62.9751 200.00
63.0403 212.00
63.1055 193.00
63.1707 227.00
63.2359 227.00
63.3011 229.00
63.3663 209.00
63.4315 222.00
63.4967 212.00
63.5619 199.00
63.6271 175.00
63.6923 212.00
63.7575 194.00
63.8227 188.00
63.8879 217.00
63.9531 203.00
64.0183 225.00
64.0835 221.00
64.1487 220.00
64.2139 204.00
64.2791 185.00
64.3443 200.00
64.4095 207.00
64.4747 192.00
64.5399 187.00
64.6051 196.00
64.6703 223.00
64.7355 212.00
64.8007 207.00
64.8659 183.00
64.9311 187.00
64.9963 216.00
65.0615 209.00
65.1267 225.00
65.1919 219.00
65.2571 190.00
65.3223 204.00
65.3875 197.00
65.4527 206.00
65.5179 186.00
65.5831 194.00
65.6483 197.00
65.7135 206.00
65.7787 200.00
65.8439 210.00
65.9091 194.00
65.9743 191.00
66.0395 240.00
66.1047 209.00
66.1699 180.00
66.2351 196.00
66.3003 207.00
66.3655 217.00
66.4307 224.00
66.4959 189.00
66.561 206.00
66.6263 213.00
66.6915 207.00
66.7566 196.00
66.8218 201.00
66.887 171.00
66.9522 190.00
67.0174 218.00
67.0826 214.00
67.1478 171.00
67.213 171.00
67.2782 175.00
67.3434 194.00
67.4086 189.00
67.4738 227.00
67.539 175.00
67.6042 222.00
67.6694 191.00
67.7346 196.00
67.7998 202.00
67.865 205.00
67.9302 205.00
67.9954 197.00
68.0606 204.00
68.1258 202.00
68.191 182.00
68.2562 178.00
68.3214 181.00
68.3866 190.00
68.4518 197.00
68.517 167.00
68.5822 194.00
68.6474 174.00
68.7126 194.00
68.7778 206.00
68.843 219.00
68.9082 214.00
68.9734 173.00
69.0386 189.00
69.1038 202.00
69.169 189.00
69.2342 195.00
69.2994 193.00
69.3646 177.00
69.4298 187.00
69.495 212.00
69.5602 178.00
69.6254 173.00
69.6906 191.00
69.7558 202.00
69.821 166.00
69.8862 206.00
69.9514 190.00
70.0166 197.00
70.0818 206.00
70.147 170.00
70.2122 193.00
70.2774 203.00
70.3426 206.00
70.4078 217.00
70.473 216.00
70.5382 202.00
70.6034 195.00
70.6686 209.00
70.7338 188.00
70.799 200.00
70.8642 178.00
70.9294 200.00
70.9946 196.00
71.0598 210.00
71.125 217.00
71.1902 195.00
71.2554 205.00
71.3205 235.00
71.3858 208.00
71.451 201.00
71.5162 189.00
71.5813 164.00
71.6465 188.00
71.7117 196.00
71.7769 209.00
71.8421 209.00
71.9073 236.00
71.9725 199.00
72.0377 207.00
72.1029 176.00
72.1681 197.00
72.2333 197.00
72.2985 193.00
72.3637 205.00
72.4289 187.00
72.4941 197.00
72.5593 190.00
72.6245 205.00
72.6897 190.00
72.7549 232.00
72.8201 197.00
72.8853 183.00
72.9505 192.00
73.0157 187.00
73.0809 200.00
73.1461 207.00
73.2113 225.00
73.2765 205.00
73.3417 193.00
73.4069 228.00
73.4721 168.00
73.5373 212.00
73.6025 222.00
73.6677 193.00
73.7329 197.00
73.7981 218.00
73.8633 204.00
73.9285 204.00
73.9937 203.00
74.0589 223.00
74.1241 236.00
74.1893 179.00
74.2545 201.00
74.3197 192.00
74.3849 207.00
74.4501 191.00
74.5153 221.00
74.5805 210.00
74.6457 215.00
74.7109 212.00
74.7761 204.00
74.8413 216.00
74.9065 217.00
74.9717 203.00
75.0369 232.00
75.1021 205.00
75.1673 227.00
75.2325 226.00
75.2977 214.00
75.3629 208.00
75.4281 213.00
75.4933 222.00
75.5585 231.00
75.6237 187.00
75.6889 208.00
75.7541 206.00
75.8193 208.00
75.8845 218.00
75.9497 230.00
76.0149 208.00
76.0801 227.00
76.1452 225.00
76.2104 228.00
76.2756 201.00
76.3409 206.00
76.406 189.00
76.4712 208.00
76.5364 236.00
76.6016 206.00
76.6668 204.00
76.732 204.00
76.7972 201.00
76.8624 234.00
76.9276 204.00
76.9928 234.00
77.058 196.00
77.1232 201.00
77.1884 209.00
77.2536 224.00
77.3188 227.00
77.384 218.00
77.4492 205.00
77.5144 204.00
77.5796 219.00
77.6448 228.00
77.71 218.00
77.7752 223.00
77.8404 212.00
77.9056 218.00
77.9708 209.00
78.036 213.00
78.1012 260.00
78.1664 228.00
78.2316 210.00
78.2968 221.00
78.362 237.00
78.4272 198.00
78.4924 215.00
78.5576 180.00
78.6228 213.00
78.688 234.00
78.7532 234.00
78.8184 245.00
78.8836 223.00
78.9488 210.00
79.014 240.00
79.0792 241.00
79.1444 217.00
79.2096 219.00
79.2748 209.00
79.34 200.00
79.4052 222.00
79.4704 244.00
79.5356 211.00
79.6008 237.00
79.666 222.00
79.7312 218.00
79.7964 222.00
79.8616 216.00
79.9268 228.00
79.992 246.00
80.0572 209.00
80.1224 213.00
80.1876 235.00
80.2528 229.00
80.318 241.00
80.3832 259.00
80.4484 221.00
80.5136 222.00
80.5788 229.00
80.644 224.00
80.7092 220.00
80.7744 210.00
80.8396 256.00
80.9048 237.00
80.9699 233.00
81.0351 216.00
81.1003 211.00
81.1655 256.00
81.2307 220.00
81.2959 237.00
81.3611 233.00
81.4263 217.00
81.4915 259.00
81.5567 206.00
81.6219 221.00
81.6871 221.00
81.7523 234.00
81.8175 245.00
81.8827 223.00
81.9479 224.00
82.0131 263.00
82.0783 238.00
82.1435 230.00
82.2087 231.00
82.2739 223.00
82.3391 233.00
82.4043 259.00
82.4695 195.00
82.5347 232.00
82.5999 231.00
82.6651 236.00
82.7303 212.00
82.7955 242.00
82.8607 237.00
82.9259 240.00
82.9911 243.00
83.0563 200.00
83.1215 245.00
83.1867 216.00
83.2519 240.00
83.3171 227.00
83.3823 226.00
83.4475 220.00
83.5127 238.00
83.5779 213.00
83.6431 208.00
83.7083 224.00
83.7735 241.00
83.8387 219.00
83.9039 228.00
83.9691 232.00
84.0343 241.00
84.0995 203.00
84.1647 224.00
84.2299 219.00
84.2951 213.00
84.3603 225.00
84.4255 224.00
84.4907 236.00
84.5559 231.00
84.6211 227.00
84.6863 206.00
84.7515 222.00
84.8167 215.00
84.8819 205.00
84.9471 218.00
85.0123 244.00
85.0775 215.00
85.1427 219.00
85.2079 221.00
85.2731 224.00
85.3383 233.00
85.4035 234.00
85.4687 226.00
85.5339 200.00
85.5991 180.00
85.6643 222.00
85.7295 182.00
85.7946 235.00
85.8598 211.00
85.925 245.00
85.9903 220.00
86.0554 236.00
86.1206 207.00
86.1858 218.00
86.251 190.00
86.3162 215.00
86.3814 218.00
86.4466 219.00
86.5118 214.00
86.577 221.00
86.6422 210.00
86.7074 224.00
86.7726 226.00
86.8378 216.00
86.903 210.00
86.9682 215.00
87.0334 211.00
87.0986 207.00
87.1638 223.00
87.229 216.00
87.2942 204.00
87.3594 194.00
87.4246 174.00
87.4898 169.00
87.555 193.00
87.6202 188.00
87.6854 184.00
87.7506 222.00
87.8158 213.00
87.881 205.00
87.9462 190.00
88.0114 186.00
88.0766 219.00
88.1418 182.00
88.207 216.00
88.2722 200.00
88.3374 211.00
88.4026 211.00
88.4678 198.00
88.533 200.00
88.5982 222.00
88.6634 194.00
88.7286 198.00
88.7938 179.00
88.859 213.00
88.9242 178.00
88.9894 196.00
89.0546 182.00
89.1198 213.00
89.185 201.00
89.2502 175.00
89.3154 172.00
89.3806 197.00
89.4458 212.00
89.511 175.00
89.5762 194.00
89.6414 229.00
89.7066 199.00
89.7718 190.00
89.837 175.00
89.9022 194.00
89.9674 203.00
90.0326 200.00
90.0978 176.00
90.163 206.00
90.2282 186.00
90.2934 201.00
90.3586 182.00
90.4238 191.00
90.489 191.00
90.5542 184.00
90.6193 203.00
90.6845 201.00
90.7497 200.00
90.8149 204.00
90.8801 226.00
90.9453 190.00
91.0105 178.00
91.0757 201.00
91.1409 189.00
91.2061 191.00
91.2713 180.00
91.3365 172.00
91.4017 204.00
91.4669 182.00
91.5321 174.00
91.5973 154.00
91.6625 196.00
91.7277 185.00
91.7929 168.00
91.8581 231.00
91.9233 172.00
91.9885 200.00
92.0537 177.00
92.1189 180.00
92.1841 210.00
92.2493 192.00
92.3145 168.00
92.3797 198.00
92.4449 183.00
92.5101 208.00
92.5753 174.00
92.6405 210.00
92.7057 200.00
92.7709 202.00
92.8361 174.00
92.9013 197.00
92.9665 211.00
93.0317 170.00
93.0969 205.00
93.1621 209.00
93.2273 194.00
93.2925 213.00
93.3577 191.00
93.4229 189.00
93.4881 188.00
93.5533 167.00
93.6185 199.00
93.6837 209.00
93.7489 160.00
93.8141 183.00
93.8793 177.00
93.9445 198.00
94.0097 207.00
94.0749 219.00
94.1401 166.00
94.2053 188.00
94.2705 192.00
94.3357 199.00
94.4009 206.00
94.4661 207.00
94.5313 190.00
94.5965 199.00
94.6617 195.00
94.7269 194.00
94.7921 203.00
94.8573 200.00
94.9225 198.00
94.9877 193.00
95.0529 180.00
95.1181 197.00
95.1833 185.00
95.2485 147.00
95.3137 203.00
95.3789 190.00
95.444 175.00
95.5092 224.00
95.5744 195.00
95.6396 194.00
95.7048 152.00
95.77 182.00
95.8352 185.00
95.9004 190.00
95.9656 184.00
96.0308 193.00
96.096 188.00
96.1612 194.00
96.2264 199.00
96.2916 190.00
96.3568 199.00
96.422 172.00
96.4872 190.00
96.5524 212.00
96.6176 217.00
96.6828 197.00
96.748 192.00
96.8132 186.00
96.8784 196.00
96.9436 172.00
97.0088 184.00
97.074 171.00
97.1392 196.00
97.2044 237.00
97.2696 179.00
97.3348 193.00
97.4 172.00
97.4652 190.00
97.5304 199.00
97.5956 182.00
97.6608 193.00
97.726 176.00
97.7912 211.00
97.8564 218.00
97.9216 200.00
97.9868 188.00
98.052 183.00
98.1172 188.00
98.1824 183.00
98.2476 188.00
98.3128 179.00
98.378 191.00
98.4432 178.00
98.5084 168.00
98.5736 181.00
98.6388 206.00
98.704 208.00
98.7692 194.00
98.8344 203.00
98.8996 168.00
98.9648 184.00
99.03 205.00
99.0952 185.00
99.1604 214.00
99.2256 182.00
99.2908 186.00
99.356 194.00
99.4212 182.00
99.4864 186.00
99.5516 204.00
99.6168 186.00
99.682 180.00
99.7472 197.00
99.8124 169.00
99.8776 180.00
99.9428 184.00
100.008 181.00
100.073 163.00
100.095 186.00