File: data/xrd_creation/results/Na_42.xy
9.903433 2658.00
9.968632 2620.00
10.0338 2498.00
10.099 2615.00
10.1642 2563.00
10.2294 2517.00
10.2946 2493.00
10.3598 2574.00
10.425 2396.00
10.4902 2366.00
10.5554 2390.00
10.6206 2357.00
10.6858 2351.00
10.751 2228.00
10.8162 2271.00
10.8814 2221.00
10.9466 2277.00
11.0118 2286.00
11.077 2214.00
11.1422 2188.00
11.2074 2149.00
11.2726 2076.00
11.3378 2113.00
11.403 2120.00
11.4682 2080.00
11.5334 2073.00
11.5986 2082.00
11.6638 2038.00
11.729 2044.00
11.7942 2037.00
11.8594 1985.00
11.9246 2007.00
11.9898 2015.00
12.055 1924.00
12.1202 1977.00
12.1854 1770.00
12.2506 1828.00
12.3158 1866.00
12.381 1944.00
12.4462 1848.00
12.5114 1799.00
12.5766 1866.00
12.6418 1789.00
12.707 1797.00
12.7722 1820.00
12.8374 1778.00
12.9026 1693.00
12.9678 1726.00
13.033 1784.00
13.0982 1773.00
13.1634 1703.00
13.2286 1612.00
13.2938 1657.00
13.359 1689.00
13.4242 1582.00
13.4894 1645.00
13.5546 1627.00
13.6198 1614.00
13.685 1629.00
13.7502 1575.00
13.8154 1509.00
13.8805 1538.00
13.9457 1517.00
14.0109 1544.00
14.0761 1534.00
14.1413 1503.00
14.2065 1467.00
14.2717 1492.00
14.3369 1562.00
14.4021 1359.00
14.4673 1496.00
14.5325 1489.00
14.5977 1472.00
14.6629 1391.00
14.7281 1462.00
14.7933 1449.00
14.8585 1403.00
14.9237 1490.00
14.9889 1353.00
15.0541 1349.00
15.1193 1444.00
15.1845 1448.00
15.2497 1400.00
15.3149 1383.00
15.3801 1308.00
15.4453 1363.00
15.5105 1356.00
15.5757 1379.00
15.6409 1336.00
15.7061 1305.00
15.7713 1374.00
15.8365 1302.00
15.9017 1297.00
15.9669 1372.00
16.0321 1300.00
16.0973 1271.00
16.1625 1317.00
16.2277 1323.00
16.2929 1237.00
16.3581 1264.00
16.4233 1246.00
16.4885 1277.00
16.5537 1232.00
16.6189 1314.00
16.6841 1163.00
16.7493 1230.00
16.8145 1203.00
16.8797 1287.00
16.9449 1272.00
17.0101 1225.00
17.0753 1242.00
17.1405 1245.00
17.2057 1184.00
17.2709 1207.00
17.3361 1215.00
17.4013 1201.00
17.4665 1271.00
17.5317 1199.00
17.5969 1175.00
17.6621 1175.00
17.7273 1147.00
17.7925 1134.00
17.8577 1092.00
17.9229 1141.00
17.9881 1101.00
18.0533 1145.00
18.1185 1120.00
18.1837 1153.00
18.2489 1091.00
18.3141 1125.00
18.3793 1122.00
18.4445 1124.00
18.5097 1133.00
18.5749 1165.00
18.6401 1120.00
18.7052 1143.00
18.7704 1159.00
18.8356 1132.00
18.9008 1119.00
18.966 1163.00
19.0312 1092.00
19.0964 1092.00
19.1616 1215.00
19.2268 1132.00
19.292 1094.00
19.3572 1080.00
19.4224 1063.00
19.4876 1051.00
19.5528 1035.00
19.618 1151.00
19.6832 1227.00
19.7484 1161.00
19.8136 1220.00
19.8788 1248.00
19.944 1241.00
20.0092 1230.00
20.0744 1181.00
20.1396 1152.00
20.2048 1028.00
20.27 977.00
20.3352 1019.00
20.4004 977.00
20.4656 1011.00
20.5308 988.00
20.596 936.00
20.6612 969.00
20.7264 986.00
20.7916 948.00
20.8568 969.00
20.922 955.00
20.9872 937.00
21.0524 896.00
21.1176 969.00
21.1828 1002.00
21.248 1048.00
21.3132 1112.00
21.3784 1413.00
21.4436 1438.00
21.5088 1325.00
21.574 1140.00
21.6392 1037.00
21.7044 951.00
21.7696 960.00
21.8348 950.00
21.9 913.00
21.9652 857.00
22.0304 911.00
22.0956 857.00
22.1608 863.00
22.226 824.00
22.2912 881.00
22.3564 854.00
22.4216 856.00
22.4868 833.00
22.552 807.00
22.6172 826.00
22.6824 812.00
22.7476 810.00
22.8128 827.00
22.878 869.00
22.9432 846.00
23.0084 851.00
23.0736 832.00
23.1388 835.00
23.204 843.00
23.2692 797.00
23.3344 770.00
23.3996 818.00
23.4647 835.00
23.5299 798.00
23.5951 852.00
23.6603 770.00
23.7255 767.00
23.7907 831.00
23.8559 793.00
23.9211 763.00
23.9863 798.00
24.0515 730.00
24.1167 740.00
24.1819 770.00
24.2471 739.00
24.3123 760.00
24.3775 718.00
24.4427 795.00
24.5079 756.00
24.5731 718.00
24.6383 691.00
24.7035 718.00
24.7687 722.00
24.8339 701.00
24.8991 701.00
24.9643 745.00
25.0295 705.00
25.0947 776.00
25.1599 691.00
25.2251 661.00
25.2903 718.00
25.3555 690.00
25.4207 705.00
25.4859 685.00
25.5511 739.00
25.6163 730.00
25.6815 755.00
25.7467 752.00
25.8119 671.00
25.8771 730.00
25.9423 659.00
26.0075 689.00
26.0727 688.00
26.1379 716.00
26.2031 690.00
26.2683 669.00
26.3335 749.00
26.3987 694.00
26.4639 734.00
26.5291 720.00
26.5943 642.00
26.6595 701.00
26.7247 604.00
26.7899 637.00
26.8551 676.00
26.9203 634.00
26.9855 665.00
27.0507 648.00
27.1159 696.00
27.1811 660.00
27.2463 691.00
27.3115 667.00
27.3767 630.00
27.4419 684.00
27.5071 625.00
27.5723 659.00
27.6375 637.00
27.7027 646.00
27.7679 685.00
27.8331 634.00
27.8983 633.00
27.9635 680.00
28.0287 602.00
28.0939 633.00
28.1591 636.00
28.2243 664.00
28.2894 614.00
28.3546 620.00
28.4198 674.00
28.485 600.00
28.5502 585.00
28.6154 566.00
28.6806 619.00
28.7458 607.00
28.811 637.00
28.8762 615.00
28.9414 729.00
29.0066 683.00
29.0718 707.00
29.137 647.00
29.2022 614.00
29.2674 623.00
29.3326 583.00
29.3978 620.00
29.463 635.00
29.5282 630.00
29.5934 652.00
29.6586 660.00
29.7238 640.00
29.789 644.00
29.8542 721.00
29.9194 695.00
29.9846 702.00
30.0498 670.00
30.115 702.00
30.1802 777.00
30.2454 875.00
30.3106 1188.00
30.3758 2074.00
30.441 3679.00
30.5062 5118.00
30.5714 5031.00
30.6366 3418.00
30.7018 1987.00
30.767 1094.00
30.8322 757.00
30.8974 709.00
30.9626 664.00
31.0278 628.00
31.093 597.00
31.1582 633.00
31.2234 610.00
31.2886 568.00
31.3538 604.00
31.419 564.00
31.4842 572.00
31.5494 599.00
31.6146 621.00
31.6798 545.00
31.745 569.00
31.8102 573.00
31.8754 558.00
31.9406 523.00
32.0058 589.00
32.071 555.00
32.1362 549.00
32.2014 551.00
32.2666 589.00
32.3318 643.00
32.397 737.00
32.4622 783.00
32.5274 729.00
32.5926 675.00
32.6578 720.00
32.723 618.00
32.7882 609.00
32.8534 618.00
32.9186 684.00
32.9838 774.00
33.0489 783.00
33.1141 782.00
33.1793 764.00
33.2445 663.00
33.3097 619.00
33.3749 586.00
33.4401 545.00
33.5053 554.00
33.5705 512.00
33.6357 522.00
33.7009 546.00
33.7661 507.00
33.8313 542.00
33.8965 532.00
33.9617 496.00
34.0269 472.00
34.0921 485.00
34.1573 476.00
34.2225 478.00
34.2877 509.00
34.3529 526.00
34.4181 525.00
34.4833 482.00
34.5485 512.00
34.6137 512.00
34.6789 457.00
34.7441 546.00
34.8093 536.00
34.8745 495.00
34.9397 504.00
35.0049 477.00
35.0701 489.00
35.1353 556.00
35.2005 662.00
35.2657 898.00
35.3309 1410.00
35.3961 1763.00
35.4613 1690.00
35.5265 1287.00
35.5917 839.00
35.6569 576.00
35.7221 518.00
35.7873 532.00
35.8525 470.00
35.9177 520.00
35.9829 444.00
36.0481 435.00
36.1133 447.00
36.1785 441.00
36.2437 425.00
36.3089 497.00
36.3741 456.00
36.4393 456.00
36.5045 463.00
36.5697 495.00
36.6349 448.00
36.7001 451.00
36.7653 406.00
36.8305 410.00
36.8957 400.00
36.9609 371.00
37.0261 398.00
37.0913 419.00
37.1565 477.00
37.2217 390.00
37.2869 394.00
37.3521 397.00
37.4173 432.00
37.4825 450.00
37.5477 565.00
37.6129 604.00
37.6781 618.00
37.7433 584.00
37.8085 477.00
37.8736 405.00
37.9388 398.00
38.004 410.00
38.0692 441.00
38.1344 469.00
38.1996 408.00
38.2648 446.00
38.33 445.00
38.3952 431.00
38.4604 384.00
38.5256 415.00
38.5908 423.00
38.656 441.00
38.7212 441.00
38.7864 413.00
38.8516 372.00
38.9168 353.00
38.982 395.00
39.0472 391.00
39.1124 400.00
39.1776 385.00
39.2428 365.00
39.308 376.00
39.3732 392.00
39.4384 349.00
39.5036 337.00
39.5688 372.00
39.634 362.00
39.6992 382.00
39.7644 392.00
39.8296 390.00
39.8948 380.00
39.96 407.00
40.0252 346.00
40.0904 354.00
40.1556 364.00
40.2208 377.00
40.286 331.00
40.3512 360.00
40.4164 346.00
40.4816 352.00
40.5468 415.00
40.612 382.00
40.6772 339.00
40.7424 407.00
40.8076 345.00
40.8728 338.00
40.938 354.00
41.0032 321.00
41.0684 347.00
41.1336 331.00
41.1988 374.00
41.264 299.00
41.3292 355.00
41.3944 323.00
41.4596 360.00
41.5248 333.00
41.59 401.00
41.6552 408.00
41.7204 493.00
41.7856 521.00
41.8508 511.00
41.916 472.00
41.9812 406.00
42.0464 389.00
42.1116 350.00
42.1768 332.00
42.242 369.00
42.3072 321.00
42.3724 341.00
42.4376 342.00
42.5028 318.00
42.568 315.00
42.6332 396.00
42.6983 318.00
42.7635 326.00
42.8287 343.00
42.8939 323.00
42.9591 328.00
43.0243 378.00
43.0895 308.00
43.1547 305.00
43.2199 312.00
43.2851 335.00
43.3503 346.00
43.4155 349.00
43.4807 355.00
43.5459 324.00
43.6111 354.00
43.6763 353.00
43.7415 372.00
43.8067 358.00
43.8719 389.00
43.9371 372.00
44.0023 358.00
44.0675 333.00
44.1327 328.00
44.1979 368.00
44.2631 344.00
44.3283 378.00
44.3935 344.00
44.4587 352.00
44.5239 326.00
44.5891 316.00
44.6543 385.00
44.7195 299.00
44.7847 336.00
44.8499 340.00
44.9151 317.00
44.9803 352.00
45.0455 346.00
45.1107 302.00
45.1759 340.00
45.2411 304.00
45.3063 350.00
45.3715 325.00
45.4367 387.00
45.5019 437.00
45.5671 547.00
45.6323 583.00
45.6975 589.00
45.7627 525.00
45.8279 420.00
45.8931 374.00
45.9583 339.00
46.0235 298.00
46.0887 314.00
46.1539 282.00
46.2191 288.00
46.2843 294.00
46.3495 347.00
46.4147 347.00
46.4799 268.00
46.5451 280.00
46.6103 312.00
46.6755 290.00
46.7407 303.00
46.8059 288.00
46.8711 285.00
46.9363 315.00
47.0015 310.00
47.0667 319.00
47.1319 363.00
47.1971 334.00
47.2623 326.00
47.3275 331.00
47.3927 333.00
47.4579 271.00
47.523 315.00
47.5882 279.00
47.6534 297.00
47.7186 324.00
47.7838 305.00
47.849 285.00
47.9142 297.00
47.9794 302.00
48.0446 307.00
48.1098 280.00
48.175 288.00
48.2402 264.00
48.3054 294.00
48.3706 295.00
48.4358 265.00
48.501 279.00
48.5662 269.00
48.6314 280.00
48.6966 312.00
48.7618 292.00
48.827 301.00
48.8922 310.00
48.9574 294.00
49.0226 280.00
49.0878 325.00
49.153 365.00
49.2182 346.00
49.2834 368.00
49.3486 374.00
49.4138 346.00
49.479 298.00
49.5442 317.00
49.6094 280.00
49.6746 273.00
49.7398 238.00
49.805 271.00
49.8702 291.00
49.9354 277.00
50.0006 296.00
50.0658 300.00
50.131 281.00
50.1962 283.00
50.2614 274.00
50.3266 324.00
50.3918 326.00
50.457 323.00
50.5222 314.00
50.5874 353.00
50.6526 360.00
50.7178 387.00
50.783 478.00
50.8482 762.00
50.9134 1305.00
50.9786 1581.00
51.0438 1457.00
51.109 1129.00
51.1742 819.00
51.2394 549.00
51.3046 462.00
51.3698 335.00
51.435 320.00
51.5002 346.00
51.5654 295.00
51.6306 286.00
51.6958 273.00
51.761 290.00
51.8262 297.00
51.8914 288.00
51.9566 307.00
52.0218 328.00
52.087 308.00
52.1522 294.00
52.2174 315.00
52.2826 245.00
52.3477 272.00
52.4129 265.00
52.4781 258.00
52.5433 276.00
52.6085 326.00
52.6737 333.00
52.7389 336.00
52.8041 319.00
52.8693 315.00
52.9345 316.00
52.9997 291.00
53.0649 266.00
53.1301 273.00
53.1953 264.00
53.2605 281.00
53.3257 247.00
53.3909 320.00
53.4561 232.00
53.5213 259.00
53.5865 274.00
53.6517 275.00
53.7169 248.00
53.7821 264.00
53.8473 238.00
53.9125 245.00
53.9777 277.00
54.0429 262.00
54.1081 276.00
54.1733 269.00
54.2385 279.00
54.3037 264.00
54.3689 256.00
54.4341 256.00
54.4993 242.00
54.5645 239.00
54.6297 280.00
54.6949 261.00
54.7601 281.00
54.8253 224.00
54.8905 256.00
54.9557 270.00
55.0209 244.00
55.0861 267.00
55.1513 246.00
55.2165 259.00
55.2817 274.00
55.3469 257.00
55.4121 263.00
55.4773 257.00
55.5425 222.00
55.6077 243.00
55.6729 250.00
55.7381 278.00
55.8033 320.00
55.8685 356.00
55.9337 373.00
55.9989 356.00
56.0641 412.00
56.1293 308.00
56.1945 258.00
56.2597 236.00
56.3249 235.00
56.3901 207.00
56.4553 222.00
56.5205 220.00
56.5857 228.00
56.6509 223.00
56.7161 223.00
56.7813 229.00
56.8465 228.00
56.9117 260.00
56.9769 258.00
57.042 227.00
57.1073 271.00
57.1724 238.00
57.2376 261.00
57.3028 286.00
57.368 245.00
57.4332 268.00
57.4984 301.00
57.5636 289.00
57.6288 238.00
57.694 277.00
57.7592 220.00
57.8244 241.00
57.8896 240.00
57.9548 234.00
58.02 240.00
58.0852 244.00
58.1504 218.00
58.2156 237.00
58.2808 226.00
58.346 197.00
58.4112 240.00
58.4764 239.00
58.5416 211.00
58.6068 215.00
58.672 225.00
58.7372 267.00
58.8024 271.00
58.8676 273.00
58.9328 293.00
58.998 360.00
59.0632 388.00
59.1284 351.00
59.1936 358.00
59.2588 348.00
59.324 323.00
59.3892 290.00
59.4544 320.00
59.5196 276.00
59.5848 245.00
59.65 245.00
59.7152 211.00
59.7804 233.00
59.8456 246.00
59.9108 233.00
59.976 236.00
60.0412 242.00
60.1064 275.00
60.1716 249.00
60.2368 266.00
60.302 295.00
60.3672 346.00
60.4324 381.00
60.4976 583.00
60.5628 914.00
60.628 1031.00
60.6932 872.00
60.7584 781.00
60.8236 622.00
60.8888 485.00
60.954 327.00
61.0192 294.00
61.0844 269.00
61.1496 280.00
61.2148 222.00
61.28 210.00
61.3452 218.00
61.4104 217.00
61.4756 224.00
61.5408 196.00
61.606 244.00
61.6712 215.00
61.7364 239.00
61.8016 247.00
61.8667 247.00
61.932 234.00
61.9971 276.00
62.0623 350.00
62.1275 367.00
62.1927 353.00
62.2579 336.00
62.3231 300.00
62.3883 283.00
62.4535 249.00
62.5187 209.00
62.5839 214.00
62.6491 233.00
62.7143 202.00
62.7795 234.00
62.8447 214.00
62.9099 187.00
62.9751 225.00
63.0403 197.00
63.1055 266.00
63.1707 221.00
63.2359 228.00
63.3011 177.00
63.3663 225.00
63.4315 245.00
63.4967 243.00
63.5619 359.00
63.6271 330.00
63.6923 352.00
63.7575 335.00
63.8227 260.00
63.8879 232.00
63.9531 197.00
64.0183 190.00
64.0835 230.00
64.1487 201.00
64.2139 192.00
64.2791 182.00
64.3443 207.00
64.4095 186.00
64.4747 186.00
64.5399 226.00
64.6051 189.00
64.6703 191.00
64.7355 196.00
64.8007 210.00
64.8659 241.00
64.9311 214.00
64.9963 225.00
65.0615 261.00
65.1267 272.00
65.1919 257.00
65.2571 240.00
65.3223 282.00
65.3875 203.00
65.4527 218.00
65.5179 211.00
65.5831 227.00
65.6483 222.00
65.7135 209.00
65.7787 227.00
65.8439 231.00
65.9091 194.00
65.9743 198.00
66.0395 213.00
66.1047 176.00
66.1699 195.00
66.2351 220.00
66.3003 198.00
66.3655 231.00
66.4307 214.00
66.4959 220.00
66.561 240.00
66.6263 245.00
66.6915 196.00
66.7566 191.00
66.8218 225.00
66.887 204.00
66.9522 211.00
67.0174 199.00
67.0826 184.00
67.1478 195.00
67.213 213.00
67.2782 184.00
67.3434 198.00
67.4086 185.00
67.4738 180.00
67.539 204.00
67.6042 195.00
67.6694 197.00
67.7346 243.00
67.7998 210.00
67.865 231.00
67.9302 262.00
67.9954 289.00
68.0606 233.00
68.1258 285.00
68.191 265.00
68.2562 241.00
68.3214 212.00
68.3866 218.00
68.4518 202.00
68.517 187.00
68.5822 207.00
68.6474 194.00
68.7126 198.00
68.7778 191.00
68.843 177.00
68.9082 171.00
68.9734 201.00
69.0386 192.00
69.1038 193.00
69.169 221.00
69.2342 211.00
69.2994 202.00
69.3646 225.00
69.4298 261.00
69.495 244.00
69.5602 248.00
69.6254 207.00
69.6906 217.00
69.7558 193.00
69.821 196.00
69.8862 208.00
69.9514 204.00
70.0166 196.00
70.0818 193.00
70.147 162.00
70.2122 174.00
70.2774 177.00
70.3426 207.00
70.4078 200.00
70.473 188.00
70.5382 193.00
70.6034 208.00
70.6686 224.00
70.7338 191.00
70.799 192.00
70.8642 161.00
70.9294 207.00
70.9946 188.00
71.0598 195.00
71.125 196.00
71.1902 222.00
71.2554 187.00
71.3205 199.00
71.3858 201.00
71.451 207.00
71.5162 199.00
71.5813 205.00
71.6465 181.00
71.7117 221.00
71.7769 171.00
71.8421 185.00
71.9073 172.00
71.9725 199.00
72.0377 203.00
72.1029 215.00
72.1681 201.00
72.2333 209.00
72.2985 227.00
72.3637 178.00
72.4289 187.00
72.4941 215.00
72.5593 192.00
72.6245 182.00
72.6897 179.00
72.7549 197.00
72.8201 206.00
72.8853 180.00
72.9505 217.00
73.0157 188.00
73.0809 212.00
73.1461 209.00
73.2113 221.00
73.2765 222.00
73.3417 215.00
73.4069 219.00
73.4721 234.00
73.5373 258.00
73.6025 245.00
73.6677 207.00
73.7329 244.00
73.7981 211.00
73.8633 257.00
73.9285 200.00
73.9937 211.00
74.0589 213.00
74.1241 209.00
74.1893 211.00
74.2545 221.00
74.3197 204.00
74.3849 196.00
74.4501 218.00
74.5153 180.00
74.5805 204.00
74.6457 199.00
74.7109 219.00
74.7761 224.00
74.8413 209.00
74.9065 271.00
74.9717 257.00
75.0369 290.00
75.1021 256.00
75.1673 242.00
75.2325 236.00
75.2977 263.00
75.3629 229.00
75.4281 225.00
75.4933 220.00
75.5585 187.00
75.6237 200.00
75.6889 208.00
75.7541 185.00
75.8193 214.00
75.8845 215.00
75.9497 193.00
76.0149 205.00
76.0801 207.00
76.1452 208.00
76.2104 213.00
76.2756 262.00
76.3409 297.00
76.406 276.00
76.4712 231.00
76.5364 249.00
76.6016 239.00
76.6668 273.00
76.732 227.00
76.7972 207.00
76.8624 218.00
76.9276 208.00
76.9928 219.00
77.058 196.00
77.1232 194.00
77.1884 209.00
77.2536 203.00
77.3188 172.00
77.384 234.00
77.4492 205.00
77.5144 209.00
77.5796 246.00
77.6448 258.00
77.71 261.00
77.7752 257.00
77.8404 284.00
77.9056 281.00
77.9708 260.00
78.036 248.00
78.1012 230.00
78.1664 222.00
78.2316 215.00
78.2968 216.00
78.362 202.00
78.4272 214.00
78.4924 203.00
78.5576 201.00
78.6228 203.00
78.688 224.00
78.7532 211.00
78.8184 206.00
78.8836 233.00
78.9488 209.00
79.014 263.00
79.0792 263.00
79.1444 260.00
79.2096 246.00
79.2748 267.00
79.34 236.00
79.4052 228.00
79.4704 239.00
79.5356 201.00
79.6008 186.00
79.666 199.00
79.7312 224.00
79.7964 216.00
79.8616 237.00
79.9268 219.00
79.992 259.00
80.0572 209.00
80.1224 225.00
80.1876 214.00
80.2528 224.00
80.318 205.00
80.3832 249.00
80.4484 218.00
80.5136 235.00
80.5788 203.00
80.644 221.00
80.7092 213.00
80.7744 207.00
80.8396 240.00
80.9048 203.00
80.9699 227.00
81.0351 215.00
81.1003 246.00
81.1655 218.00
81.2307 225.00
81.2959 198.00
81.3611 224.00
81.4263 261.00
81.4915 207.00
81.5567 261.00
81.6219 247.00
81.6871 266.00
81.7523 300.00
81.8175 296.00
81.8827 296.00
81.9479 257.00
82.0131 270.00
82.0783 236.00
82.1435 227.00
82.2087 221.00
82.2739 228.00
82.3391 240.00
82.4043 217.00
82.4695 250.00
82.5347 206.00
82.5999 222.00
82.6651 226.00
82.7303 235.00
82.7955 225.00
82.8607 245.00
82.9259 244.00
82.9911 250.00
83.0563 308.00
83.1215 331.00
83.1867 351.00
83.2519 309.00
83.3171 339.00
83.3823 301.00
83.4475 300.00
83.5127 249.00
83.5779 257.00
83.6431 211.00
83.7083 209.00
83.7735 219.00
83.8387 245.00
83.9039 214.00
83.9691 218.00
84.0343 204.00
84.0995 165.00
84.1647 238.00
84.2299 199.00
84.2951 220.00
84.3603 213.00
84.4255 267.00
84.4907 194.00
84.5559 212.00
84.6211 234.00
84.6863 212.00
84.7515 207.00
84.8167 222.00
84.8819 214.00
84.9471 218.00
85.0123 186.00
85.0775 205.00
85.1427 232.00
85.2079 214.00
85.2731 212.00
85.3383 213.00
85.4035 197.00
85.4687 236.00
85.5339 201.00
85.5991 242.00
85.6643 219.00
85.7295 297.00
85.7946 317.00
85.8598 282.00
85.925 272.00
85.9903 238.00
86.0554 297.00
86.1206 257.00
86.1858 248.00
86.251 209.00
86.3162 195.00
86.3814 193.00
86.4466 188.00
86.5118 184.00
86.577 206.00
86.6422 192.00
86.7074 207.00
86.7726 214.00
86.8378 194.00
86.903 204.00
86.9682 208.00
87.0334 211.00
87.0986 226.00
87.1638 223.00
87.229 188.00
87.2942 219.00
87.3594 194.00
87.4246 212.00
87.4898 222.00
87.555 208.00
87.6202 193.00
87.6854 198.00
87.7506 216.00
87.8158 203.00
87.881 178.00
87.9462 196.00
88.0114 188.00
88.0766 206.00
88.1418 188.00
88.207 223.00
88.2722 176.00
88.3374 198.00
88.4026 203.00
88.4678 235.00
88.533 207.00
88.5982 218.00
88.6634 217.00
88.7286 196.00
88.7938 210.00
88.859 181.00
88.9242 203.00
88.9894 189.00
89.0546 202.00
89.1198 194.00
89.185 195.00
89.2502 193.00
89.3154 207.00
89.3806 194.00
89.4458 169.00
89.511 207.00
89.5762 217.00
89.6414 248.00
89.7066 221.00
89.7718 251.00
89.837 257.00
89.9022 193.00
89.9674 205.00
90.0326 219.00
90.0978 213.00
90.163 229.00
90.2282 192.00
90.2934 165.00
90.3586 172.00
90.4238 183.00
90.489 185.00
90.5542 185.00
90.6193 197.00
90.6845 194.00
90.7497 175.00
90.8149 179.00
90.8801 179.00
90.9453 192.00
91.0105 175.00
91.0757 201.00
91.1409 183.00
91.2061 177.00
91.2713 174.00
91.3365 188.00
91.4017 202.00
91.4669 190.00
91.5321 174.00
91.5973 184.00
91.6625 200.00
91.7277 195.00
91.7929 198.00
91.8581 184.00
91.9233 174.00
91.9885 203.00
92.0537 211.00
92.1189 192.00
92.1841 189.00
92.2493 187.00
92.3145 207.00
92.3797 243.00
92.4449 220.00
92.5101 227.00
92.5753 219.00
92.6405 221.00
92.7057 214.00
92.7709 201.00
92.8361 224.00
92.9013 216.00
92.9665 193.00
93.0317 182.00
93.0969 207.00
93.1621 161.00
93.2273 205.00
93.2925 201.00
93.3577 188.00
93.4229 198.00
93.4881 178.00
93.5533 190.00
93.6185 198.00
93.6837 163.00
93.7489 171.00
93.8141 166.00
93.8793 198.00
93.9445 175.00
94.0097 184.00
94.0749 158.00
94.1401 189.00
94.2053 203.00
94.2705 183.00
94.3357 198.00
94.4009 210.00
94.4661 187.00
94.5313 207.00
94.5965 192.00
94.6617 203.00
94.7269 170.00
94.7921 188.00
94.8573 189.00
94.9225 192.00
94.9877 249.00
95.0529 224.00
95.1181 263.00
95.1833 197.00
95.2485 210.00
95.3137 217.00
95.3789 199.00
95.444 196.00
95.5092 260.00
95.5744 220.00
95.6396 238.00
95.7048 183.00
95.77 203.00
95.8352 206.00
95.9004 192.00
95.9656 173.00
96.0308 186.00
96.096 188.00
96.1612 190.00
96.2264 214.00
96.2916 212.00
96.3568 256.00
96.422 280.00
96.4872 274.00
96.5524 225.00
96.6176 208.00
96.6828 259.00
96.748 257.00
96.8132 218.00
96.8784 223.00
96.9436 219.00
97.0088 176.00
97.074 197.00
97.1392 186.00
97.2044 215.00
97.2696 188.00
97.3348 188.00
97.4 194.00
97.4652 185.00
97.5304 198.00
97.5956 199.00
97.6608 227.00
97.726 229.00
97.7912 210.00
97.8564 229.00
97.9216 232.00
97.9868 210.00
98.052 215.00
98.1172 226.00
98.1824 198.00
98.2476 219.00
98.3128 221.00
98.378 186.00
98.4432 205.00
98.5084 165.00
98.5736 190.00
98.6388 170.00
98.704 162.00
98.7692 179.00
98.8344 200.00
98.8996 175.00
98.9648 185.00
99.03 200.00
99.0952 225.00
99.1604 229.00
99.2256 213.00
99.2908 179.00
99.356 182.00
99.4212 227.00
99.4864 167.00
99.5516 185.00
99.6168 198.00
99.682 190.00
99.7472 194.00
99.8124 161.00
99.8776 163.00
99.9428 174.00
100.008 171.00
100.073 199.00
100.095 201.00