File: data/xrd_creation/results/Na_46.xy
9.903433 2612.00
9.968632 2482.00
10.0338 2536.00
10.099 2447.00
10.1642 2469.00
10.2294 2458.00
10.2946 2448.00
10.3598 2472.00
10.425 2467.00
10.4902 2412.00
10.5554 2433.00
10.6206 2323.00
10.6858 2399.00
10.751 2361.00
10.8162 2333.00
10.8814 2332.00
10.9466 2373.00
11.0118 2260.00
11.077 2247.00
11.1422 2225.00
11.2074 2262.00
11.2726 2205.00
11.3378 2056.00
11.403 2148.00
11.4682 2150.00
11.5334 2118.00
11.5986 2145.00
11.6638 2044.00
11.729 2084.00
11.7942 1963.00
11.8594 1986.00
11.9246 2053.00
11.9898 2052.00
12.055 2016.00
12.1202 2041.00
12.1854 2160.00
12.2506 1999.00
12.3158 1960.00
12.381 1891.00
12.4462 1910.00
12.5114 1945.00
12.5766 1870.00
12.6418 1826.00
12.707 1825.00
12.7722 1777.00
12.8374 1757.00
12.9026 1785.00
12.9678 1790.00
13.033 1834.00
13.0982 1831.00
13.1634 1768.00
13.2286 1748.00
13.2938 1699.00
13.359 1741.00
13.4242 1703.00
13.4894 1699.00
13.5546 1712.00
13.6198 1627.00
13.685 1691.00
13.7502 1754.00
13.8154 1663.00
13.8805 1658.00
13.9457 1725.00
14.0109 1670.00
14.0761 1640.00
14.1413 1668.00
14.2065 1634.00
14.2717 1665.00
14.3369 1723.00
14.4021 1694.00
14.4673 1688.00
14.5325 1700.00
14.5977 1590.00
14.6629 1545.00
14.7281 1501.00
14.7933 1644.00
14.8585 1588.00
14.9237 1597.00
14.9889 1564.00
15.0541 1514.00
15.1193 1607.00
15.1845 1586.00
15.2497 1630.00
15.3149 1591.00
15.3801 1547.00
15.4453 1711.00
15.5105 1750.00
15.5757 1729.00
15.6409 1676.00
15.7061 1752.00
15.7713 1903.00
15.8365 1806.00
15.9017 1541.00
15.9669 1498.00
16.0321 1566.00
16.0973 1583.00
16.1625 1519.00
16.2277 1490.00
16.2929 1534.00
16.3581 1338.00
16.4233 1455.00
16.4885 1428.00
16.5537 1501.00
16.6189 1547.00
16.6841 1476.00
16.7493 1538.00
16.8145 1652.00
16.8797 1677.00
16.9449 1492.00
17.0101 1487.00
17.0753 1392.00
17.1405 1487.00
17.2057 1488.00
17.2709 1489.00
17.3361 1514.00
17.4013 1670.00
17.4665 1816.00
17.5317 1600.00
17.5969 1459.00
17.6621 1393.00
17.7273 1377.00
17.7925 1400.00
17.8577 1392.00
17.9229 1399.00
17.9881 1368.00
18.0533 1362.00
18.1185 1422.00
18.1837 1301.00
18.2489 1352.00
18.3141 1330.00
18.3793 1302.00
18.4445 1215.00
18.5097 1284.00
18.5749 1261.00
18.6401 1259.00
18.7052 1326.00
18.7704 1314.00
18.8356 1249.00
18.9008 1298.00
18.966 1395.00
19.0312 1359.00
19.0964 1367.00
19.1616 1365.00
19.2268 1329.00
19.292 1277.00
19.3572 1223.00
19.4224 1258.00
19.4876 1285.00
19.5528 1408.00
19.618 1554.00
19.6832 1699.00
19.7484 1557.00
19.8136 1354.00
19.8788 1216.00
19.944 1268.00
20.0092 1373.00
20.0744 1497.00
20.1396 1529.00
20.2048 1518.00
20.27 1256.00
20.3352 1237.00
20.4004 1164.00
20.4656 1202.00
20.5308 1093.00
20.596 1160.00
20.6612 1204.00
20.7264 1208.00
20.7916 1251.00
20.8568 1261.00
20.922 1346.00
20.9872 1313.00
21.0524 1249.00
21.1176 1304.00
21.1828 1354.00
21.248 1338.00
21.3132 1282.00
21.3784 1145.00
21.4436 1210.00
21.5088 1219.00
21.574 1332.00
21.6392 1461.00
21.7044 1743.00
21.7696 2236.00
21.8348 2509.00
21.9 1610.00
21.9652 1383.00
22.0304 1263.00
22.0956 1225.00
22.1608 1167.00
22.226 1143.00
22.2912 1117.00
22.3564 1066.00
22.4216 1094.00
22.4868 1079.00
22.552 1059.00
22.6172 1095.00
22.6824 1056.00
22.7476 1096.00
22.8128 1063.00
22.878 1137.00
22.9432 1132.00
23.0084 1137.00
23.0736 1150.00
23.1388 1161.00
23.204 1102.00
23.2692 1108.00
23.3344 1116.00
23.3996 1083.00
23.4647 1105.00
23.5299 1228.00
23.5951 1349.00
23.6603 1654.00
23.7255 1796.00
23.7907 1321.00
23.8559 1098.00
23.9211 989.00
23.9863 971.00
24.0515 1024.00
24.1167 1088.00
24.1819 1201.00
24.2471 1434.00
24.3123 1922.00
24.3775 2164.00
24.4427 1679.00
24.5079 1153.00
24.5731 1093.00
24.6383 1088.00
24.7035 1149.00
24.7687 1275.00
24.8339 1254.00
24.8991 1129.00
24.9643 1116.00
25.0295 1157.00
25.0947 1104.00
25.1599 962.00
25.2251 905.00
25.2903 931.00
25.3555 922.00
25.4207 929.00
25.4859 951.00
25.5511 927.00
25.6163 875.00
25.6815 884.00
25.7467 917.00
25.8119 945.00
25.8771 969.00
25.9423 942.00
26.0075 995.00
26.0727 1081.00
26.1379 1169.00
26.2031 1242.00
26.2683 1076.00
26.3335 1001.00
26.3987 858.00
26.4639 819.00
26.5291 862.00
26.5943 846.00
26.6595 852.00
26.7247 836.00
26.7899 817.00
26.8551 877.00
26.9203 960.00
26.9855 920.00
27.0507 869.00
27.1159 874.00
27.1811 925.00
27.2463 911.00
27.3115 934.00
27.3767 1053.00
27.4419 974.00
27.5071 1079.00
27.5723 1156.00
27.6375 1244.00
27.7027 1377.00
27.7679 1698.00
27.8331 2197.00
27.8983 1969.00
27.9635 1408.00
28.0287 1198.00
28.0939 1096.00
28.1591 1041.00
28.2243 914.00
28.2894 840.00
28.3546 827.00
28.4198 788.00
28.485 833.00
28.5502 799.00
28.6154 873.00
28.6806 854.00
28.7458 962.00
28.811 922.00
28.8762 1034.00
28.9414 901.00
29.0066 828.00
29.0718 840.00
29.137 778.00
29.2022 831.00
29.2674 893.00
29.3326 882.00
29.3978 944.00
29.463 905.00
29.5282 913.00
29.5934 920.00
29.6586 878.00
29.7238 841.00
29.789 881.00
29.8542 1131.00
29.9194 1408.00
29.9846 1976.00
30.0498 2429.00
30.115 2761.00
30.1802 2361.00
30.2454 2268.00
30.3106 2769.00
30.3758 2315.00
30.441 1569.00
30.5062 1067.00
30.5714 941.00
30.6366 963.00
30.7018 978.00
30.767 1008.00
30.8322 979.00
30.8974 943.00
30.9626 769.00
31.0278 812.00
31.093 849.00
31.1582 876.00
31.2234 928.00
31.2886 1049.00
31.3538 1273.00
31.419 1546.00
31.4842 1361.00
31.5494 1211.00
31.6146 1165.00
31.6798 1264.00
31.745 1428.00
31.8102 1563.00
31.8754 1793.00
31.9406 1940.00
32.0058 1538.00
32.071 1063.00
32.1362 840.00
32.2014 758.00
32.2666 786.00
32.3318 921.00
32.397 984.00
32.4622 1105.00
32.5274 1123.00
32.5926 972.00
32.6578 973.00
32.723 999.00
32.7882 884.00
32.8534 706.00
32.9186 713.00
32.9838 697.00
33.0489 725.00
33.1141 713.00
33.1793 672.00
33.2445 694.00
33.3097 697.00
33.3749 715.00
33.4401 718.00
33.5053 744.00
33.5705 778.00
33.6357 874.00
33.7009 806.00
33.7661 739.00
33.8313 686.00
33.8965 650.00
33.9617 687.00
34.0269 601.00
34.0921 620.00
34.1573 609.00
34.2225 581.00
34.2877 592.00
34.3529 605.00
34.4181 622.00
34.4833 625.00
34.5485 702.00
34.6137 850.00
34.6789 866.00
34.7441 913.00
34.8093 925.00
34.8745 842.00
34.9397 770.00
35.0049 701.00
35.0701 704.00
35.1353 638.00
35.2005 612.00
35.2657 690.00
35.3309 747.00
35.3961 795.00
35.4613 693.00
35.5265 619.00
35.5917 600.00
35.6569 560.00
35.7221 574.00
35.7873 608.00
35.8525 612.00
35.9177 578.00
35.9829 637.00
36.0481 688.00
36.1133 638.00
36.1785 695.00
36.2437 639.00
36.3089 731.00
36.3741 871.00
36.4393 1168.00
36.5045 1574.00
36.5697 1579.00
36.6349 1247.00
36.7001 820.00
36.7653 658.00
36.8305 644.00
36.8957 685.00
36.9609 782.00
37.0261 887.00
37.0913 1227.00
37.1565 1742.00
37.2217 2437.00
37.2869 1878.00
37.3521 1359.00
37.4173 874.00
37.4825 809.00
37.5477 777.00
37.6129 676.00
37.6781 655.00
37.7433 587.00
37.8085 636.00
37.8736 644.00
37.9388 612.00
38.004 636.00
38.0692 531.00
38.1344 536.00
38.1996 581.00
38.2648 666.00
38.33 725.00
38.3952 815.00
38.4604 832.00
38.5256 891.00
38.5908 889.00
38.656 878.00
38.7212 670.00
38.7864 576.00
38.8516 560.00
38.9168 542.00
38.982 516.00
39.0472 542.00
39.1124 478.00
39.1776 497.00
39.2428 488.00
39.308 523.00
39.3732 513.00
39.4384 584.00
39.5036 511.00
39.5688 503.00
39.634 495.00
39.6992 494.00
39.7644 490.00
39.8296 486.00
39.8948 520.00
39.96 481.00
40.0252 499.00
40.0904 530.00
40.1556 501.00
40.2208 548.00
40.286 602.00
40.3512 669.00
40.4164 655.00
40.4816 810.00
40.5468 999.00
40.612 1043.00
40.6772 959.00
40.7424 801.00
40.8076 633.00
40.8728 575.00
40.938 603.00
41.0032 510.00
41.0684 484.00
41.1336 529.00
41.1988 517.00
41.264 502.00
41.3292 537.00
41.3944 492.00
41.4596 557.00
41.5248 541.00
41.59 584.00
41.6552 609.00
41.7204 579.00
41.7856 556.00
41.8508 556.00
41.916 576.00
41.9812 605.00
42.0464 612.00
42.1116 576.00
42.1768 561.00
42.242 453.00
42.3072 518.00
42.3724 558.00
42.4376 644.00
42.5028 580.00
42.568 475.00
42.6332 492.00
42.6983 582.00
42.7635 574.00
42.8287 537.00
42.8939 471.00
42.9591 505.00
43.0243 482.00
43.0895 516.00
43.1547 551.00
43.2199 653.00
43.2851 564.00
43.3503 533.00
43.4155 489.00
43.4807 537.00
43.5459 587.00
43.6111 608.00
43.6763 554.00
43.7415 514.00
43.8067 446.00
43.8719 447.00
43.9371 469.00
44.0023 439.00
44.0675 490.00
44.1327 484.00
44.1979 496.00
44.2631 451.00
44.3283 456.00
44.3935 494.00
44.4587 577.00
44.5239 552.00
44.5891 575.00
44.6543 471.00
44.7195 484.00
44.7847 442.00
44.8499 395.00
44.9151 437.00
44.9803 452.00
45.0455 457.00
45.1107 461.00
45.1759 463.00
45.2411 486.00
45.3063 470.00
45.3715 462.00
45.4367 502.00
45.5019 499.00
45.5671 463.00
45.6323 473.00
45.6975 491.00
45.7627 449.00
45.8279 472.00
45.8931 433.00
45.9583 477.00
46.0235 474.00
46.0887 554.00
46.1539 628.00
46.2191 545.00
46.2843 564.00
46.3495 507.00
46.4147 473.00
46.4799 420.00
46.5451 435.00
46.6103 491.00
46.6755 455.00
46.7407 536.00
46.8059 555.00
46.8711 516.00
46.9363 490.00
47.0015 453.00
47.0667 415.00
47.1319 435.00
47.1971 410.00
47.2623 452.00
47.3275 449.00
47.3927 440.00
47.4579 485.00
47.523 563.00
47.5882 560.00
47.6534 549.00
47.7186 503.00
47.7838 476.00
47.849 564.00
47.9142 545.00
47.9794 583.00
48.0446 525.00
48.1098 561.00
48.175 474.00
48.2402 427.00
48.3054 445.00
48.3706 441.00
48.4358 415.00
48.501 451.00
48.5662 438.00
48.6314 416.00
48.6966 454.00
48.7618 511.00
48.827 556.00
48.8922 533.00
48.9574 520.00
49.0226 508.00
49.0878 437.00
49.153 404.00
49.2182 488.00
49.2834 506.00
49.3486 586.00
49.4138 668.00
49.479 661.00
49.5442 608.00
49.6094 567.00
49.6746 602.00
49.7398 659.00
49.805 752.00
49.8702 828.00
49.9354 778.00
50.0006 769.00
50.0658 1082.00
50.131 1089.00
50.1962 1148.00
50.2614 1261.00
50.3266 1127.00
50.3918 1087.00
50.457 824.00
50.5222 649.00
50.5874 508.00
50.6526 513.00
50.7178 446.00
50.783 403.00
50.8482 431.00
50.9134 383.00
50.9786 426.00
51.0438 414.00
51.109 402.00
51.1742 420.00
51.2394 372.00
51.3046 420.00
51.3698 437.00
51.435 468.00
51.5002 487.00
51.5654 414.00
51.6306 423.00
51.6958 433.00
51.761 435.00
51.8262 422.00
51.8914 420.00
51.9566 439.00
52.0218 432.00
52.087 494.00
52.1522 554.00
52.2174 671.00
52.2826 970.00
52.3477 991.00
52.4129 810.00
52.4781 799.00
52.5433 615.00
52.6085 568.00
52.6737 484.00
52.7389 488.00
52.8041 509.00
52.8693 503.00
52.9345 566.00
52.9997 589.00
53.0649 565.00
53.1301 513.00
53.1953 521.00
53.2605 460.00
53.3257 511.00
53.3909 637.00
53.4561 872.00
53.5213 1032.00
53.5865 862.00
53.6517 964.00
53.7169 854.00
53.7821 665.00
53.8473 592.00
53.9125 459.00
53.9777 451.00
54.0429 419.00
54.1081 432.00
54.1733 481.00
54.2385 486.00
54.3037 521.00
54.3689 438.00
54.4341 497.00
54.4993 440.00
54.5645 475.00
54.6297 462.00
54.6949 484.00
54.7601 454.00
54.8253 408.00
54.8905 398.00
54.9557 424.00
55.0209 409.00
55.0861 412.00
55.1513 418.00
55.2165 440.00
55.2817 403.00
55.3469 342.00
55.4121 377.00
55.4773 402.00
55.5425 418.00
55.6077 402.00
55.6729 471.00
55.7381 419.00
55.8033 379.00
55.8685 412.00
55.9337 406.00
55.9989 431.00
56.0641 436.00
56.1293 463.00
56.1945 471.00
56.2597 468.00
56.3249 498.00
56.3901 498.00
56.4553 504.00
56.5205 667.00
56.5857 633.00
56.6509 559.00
56.7161 483.00
56.7813 475.00
56.8465 417.00
56.9117 381.00
56.9769 437.00
57.042 429.00
57.1073 525.00
57.1724 464.00
57.2376 443.00
57.3028 508.00
57.368 484.00
57.4332 563.00
57.4984 590.00
57.5636 573.00
57.6288 518.00
57.694 474.00
57.7592 477.00
57.8244 496.00
57.8896 453.00
57.9548 432.00
58.02 411.00
58.0852 424.00
58.1504 377.00
58.2156 401.00
58.2808 396.00
58.346 377.00
58.4112 394.00
58.4764 428.00
58.5416 432.00
58.6068 415.00
58.672 469.00
58.7372 494.00
58.8024 607.00
58.8676 758.00
58.9328 694.00
58.998 686.00
59.0632 651.00
59.1284 638.00
59.1936 589.00
59.2588 637.00
59.324 668.00
59.3892 598.00
59.4544 631.00
59.5196 585.00
59.5848 581.00
59.65 461.00
59.7152 502.00
59.7804 505.00
59.8456 580.00
59.9108 577.00
59.976 571.00
60.0412 737.00
60.1064 756.00
60.1716 733.00
60.2368 667.00
60.302 733.00
60.3672 756.00
60.4324 662.00
60.4976 673.00
60.5628 636.00
60.628 598.00
60.6932 550.00
60.7584 532.00
60.8236 455.00
60.8888 456.00
60.954 422.00
61.0192 378.00
61.0844 370.00
61.1496 364.00
61.2148 348.00
61.28 345.00
61.3452 359.00
61.4104 351.00
61.4756 356.00
61.5408 342.00
61.606 449.00
61.6712 411.00
61.7364 424.00
61.8016 432.00
61.8667 391.00
61.932 393.00
61.9971 378.00
62.0623 432.00
62.1275 440.00
62.1927 482.00
62.2579 462.00
62.3231 401.00
62.3883 407.00
62.4535 423.00
62.5187 448.00
62.5839 555.00
62.6491 581.00
62.7143 555.00
62.7795 505.00
62.8447 481.00
62.9099 472.00
62.9751 518.00
63.0403 536.00
63.1055 546.00
63.1707 537.00
63.2359 600.00
63.3011 529.00
63.3663 496.00
63.4315 528.00
63.4967 511.00
63.5619 443.00
63.6271 427.00
63.6923 430.00
63.7575 426.00
63.8227 526.00
63.8879 509.00
63.9531 453.00
64.0183 475.00
64.0835 486.00
64.1487 462.00
64.2139 434.00
64.2791 411.00
64.3443 420.00
64.4095 408.00
64.4747 406.00
64.5399 417.00
64.6051 345.00
64.6703 339.00
64.7355 362.00
64.8007 363.00
64.8659 373.00
64.9311 336.00
64.9963 411.00
65.0615 377.00
65.1267 396.00
65.1919 416.00
65.2571 399.00
65.3223 386.00
65.3875 384.00
65.4527 336.00
65.5179 366.00
65.5831 370.00
65.6483 354.00
65.7135 347.00
65.7787 360.00
65.8439 417.00
65.9091 406.00
65.9743 394.00
66.0395 426.00
66.1047 403.00
66.1699 425.00
66.2351 451.00
66.3003 561.00
66.3655 603.00
66.4307 453.00
66.4959 467.00
66.561 458.00
66.6263 348.00
66.6915 332.00
66.7566 339.00
66.8218 269.00
66.887 331.00
66.9522 311.00
67.0174 287.00
67.0826 315.00
67.1478 313.00
67.213 324.00
67.2782 333.00
67.3434 336.00
67.4086 316.00
67.4738 339.00
67.539 349.00
67.6042 332.00
67.6694 377.00
67.7346 375.00
67.7998 438.00
67.865 446.00
67.9302 427.00
67.9954 463.00
68.0606 525.00
68.1258 493.00
68.191 478.00
68.2562 410.00
68.3214 371.00
68.3866 368.00
68.4518 358.00
68.517 348.00
68.5822 354.00
68.6474 372.00
68.7126 359.00
68.7778 362.00
68.843 321.00
68.9082 356.00
68.9734 373.00
69.0386 376.00
69.1038 327.00
69.169 350.00
69.2342 379.00
69.2994 349.00
69.3646 298.00
69.4298 331.00
69.495 359.00
69.5602 351.00
69.6254 341.00
69.6906 379.00
69.7558 390.00
69.821 339.00
69.8862 346.00
69.9514 356.00
70.0166 348.00
70.0818 321.00
70.147 329.00
70.2122 303.00
70.2774 302.00
70.3426 320.00
70.4078 327.00
70.473 298.00
70.5382 317.00
70.6034 329.00
70.6686 310.00
70.7338 308.00
70.799 329.00
70.8642 327.00
70.9294 311.00
70.9946 326.00
71.0598 357.00
71.125 378.00
71.1902 382.00
71.2554 395.00
71.3205 410.00
71.3858 423.00
71.451 401.00
71.5162 440.00
71.5813 390.00
71.6465 382.00
71.7117 406.00
71.7769 387.00
71.8421 432.00
71.9073 398.00
71.9725 383.00
72.0377 369.00
72.1029 381.00
72.1681 363.00
72.2333 320.00
72.2985 328.00
72.3637 377.00
72.4289 311.00
72.4941 338.00
72.5593 350.00
72.6245 379.00
72.6897 415.00
72.7549 366.00
72.8201 397.00
72.8853 362.00
72.9505 349.00
73.0157 383.00
73.0809 364.00
73.1461 340.00
73.2113 334.00
73.2765 347.00
73.3417 356.00
73.4069 352.00
73.4721 348.00
73.5373 369.00
73.6025 417.00
73.6677 368.00
73.7329 343.00
73.7981 325.00
73.8633 341.00
73.9285 285.00
73.9937 304.00
74.0589 282.00
74.1241 307.00
74.1893 295.00
74.2545 325.00
74.3197 326.00
74.3849 372.00
74.4501 408.00
74.5153 358.00
74.5805 391.00
74.6457 418.00
74.7109 382.00
74.7761 355.00
74.8413 347.00
74.9065 321.00
74.9717 333.00
75.0369 339.00
75.1021 347.00
75.1673 321.00
75.2325 325.00
75.2977 331.00
75.3629 295.00
75.4281 301.00
75.4933 326.00
75.5585 332.00
75.6237 313.00
75.6889 269.00
75.7541 295.00
75.8193 268.00
75.8845 315.00
75.9497 337.00
76.0149 293.00
76.0801 301.00
76.1452 282.00
76.2104 279.00
76.2756 283.00
76.3409 294.00
76.406 292.00
76.4712 257.00
76.5364 287.00
76.6016 316.00
76.6668 274.00
76.732 276.00
76.7972 297.00
76.8624 269.00
76.9276 290.00
76.9928 295.00
77.058 319.00
77.1232 354.00
77.1884 356.00
77.2536 287.00
77.3188 334.00
77.384 290.00
77.4492 300.00
77.5144 302.00
77.5796 285.00
77.6448 299.00
77.71 287.00
77.7752 306.00
77.8404 283.00
77.9056 274.00
77.9708 241.00
78.036 266.00
78.1012 279.00
78.1664 265.00
78.2316 267.00
78.2968 298.00
78.362 275.00
78.4272 295.00
78.4924 318.00
78.5576 313.00
78.6228 290.00
78.688 337.00
78.7532 322.00
78.8184 328.00
78.8836 350.00
78.9488 367.00
79.014 307.00
79.0792 340.00
79.1444 356.00
79.2096 309.00
79.2748 307.00
79.34 285.00
79.4052 295.00
79.4704 300.00
79.5356 297.00
79.6008 339.00
79.666 354.00
79.7312 324.00
79.7964 317.00
79.8616 311.00
79.9268 295.00
79.992 322.00
80.0572 337.00
80.1224 316.00
80.1876 301.00
80.2528 333.00
80.318 315.00
80.3832 328.00
80.4484 329.00
80.5136 331.00
80.5788 341.00
80.644 374.00
80.7092 339.00
80.7744 359.00
80.8396 326.00
80.9048 341.00
80.9699 336.00
81.0351 379.00
81.1003 402.00
81.1655 422.00
81.2307 401.00
81.2959 393.00
81.3611 405.00
81.4263 406.00
81.4915 401.00
81.5567 401.00
81.6219 445.00
81.6871 447.00
81.7523 435.00
81.8175 399.00
81.8827 395.00
81.9479 380.00
82.0131 422.00
82.0783 409.00
82.1435 400.00
82.2087 381.00
82.2739 393.00
82.3391 380.00
82.4043 428.00
82.4695 379.00
82.5347 381.00
82.5999 368.00
82.6651 368.00
82.7303 329.00
82.7955 349.00
82.8607 340.00
82.9259 358.00
82.9911 308.00
83.0563 289.00
83.1215 292.00
83.1867 311.00
83.2519 297.00
83.3171 302.00
83.3823 307.00
83.4475 326.00
83.5127 293.00
83.5779 332.00
83.6431 305.00
83.7083 349.00
83.7735 340.00
83.8387 320.00
83.9039 337.00
83.9691 308.00
84.0343 317.00
84.0995 292.00
84.1647 276.00
84.2299 299.00
84.2951 314.00
84.3603 279.00
84.4255 311.00
84.4907 316.00
84.5559 331.00
84.6211 382.00
84.6863 375.00
84.7515 376.00
84.8167 355.00
84.8819 371.00
84.9471 355.00
85.0123 352.00
85.0775 332.00
85.1427 323.00
85.2079 310.00
85.2731 306.00
85.3383 314.00
85.4035 272.00
85.4687 315.00
85.5339 318.00
85.5991 316.00
85.6643 353.00
85.7295 373.00
85.7946 338.00
85.8598 401.00
85.925 358.00
85.9903 363.00
86.0554 350.00
86.1206 357.00
86.1858 324.00
86.251 343.00
86.3162 303.00
86.3814 323.00
86.4466 319.00
86.5118 286.00
86.577 301.00
86.6422 275.00
86.7074 264.00
86.7726 310.00
86.8378 311.00
86.903 307.00
86.9682 311.00
87.0334 300.00
87.0986 331.00
87.1638 354.00
87.229 387.00
87.2942 376.00
87.3594 403.00
87.4246 411.00
87.4898 449.00
87.555 399.00
87.6202 402.00
87.6854 381.00
87.7506 371.00
87.8158 368.00
87.881 329.00
87.9462 336.00
88.0114 313.00
88.0766 292.00
88.1418 280.00
88.207 287.00
88.2722 300.00
88.3374 291.00
88.4026 275.00
88.4678 293.00
88.533 285.00
88.5982 328.00
88.6634 346.00
88.7286 300.00
88.7938 283.00
88.859 305.00
88.9242 309.00
88.9894 313.00
89.0546 283.00
89.1198 347.00
89.185 316.00
89.2502 304.00
89.3154 310.00
89.3806 291.00
89.4458 339.00
89.511 306.00
89.5762 309.00
89.6414 299.00
89.7066 303.00
89.7718 294.00
89.837 345.00
89.9022 324.00
89.9674 298.00
90.0326 304.00
90.0978 299.00
90.163 338.00
90.2282 281.00
90.2934 328.00
90.3586 305.00
90.4238 342.00
90.489 326.00
90.5542 327.00
90.6193 301.00
90.6845 326.00
90.7497 300.00
90.8149 266.00
90.8801 299.00
90.9453 274.00
91.0105 298.00
91.0757 296.00
91.1409 307.00
91.2061 278.00
91.2713 288.00
91.3365 294.00
91.4017 296.00
91.4669 297.00
91.5321 275.00
91.5973 273.00
91.6625 292.00
91.7277 316.00
91.7929 293.00
91.8581 271.00
91.9233 306.00
91.9885 258.00
92.0537 286.00
92.1189 313.00
92.1841 277.00
92.2493 314.00
92.3145 304.00
92.3797 335.00
92.4449 313.00
92.5101 267.00
92.5753 272.00
92.6405 305.00
92.7057 323.00
92.7709 289.00
92.8361 265.00
92.9013 299.00
92.9665 303.00
93.0317 287.00
93.0969 272.00
93.1621 313.00
93.2273 274.00
93.2925 315.00
93.3577 270.00
93.4229 293.00
93.4881 303.00
93.5533 287.00
93.6185 290.00
93.6837 314.00
93.7489 318.00
93.8141 313.00
93.8793 320.00
93.9445 356.00
94.0097 337.00
94.0749 376.00
94.1401 369.00
94.2053 385.00
94.2705 353.00
94.3357 311.00
94.4009 357.00
94.4661 357.00
94.5313 327.00
94.5965 323.00
94.6617 324.00
94.7269 297.00
94.7921 287.00
94.8573 294.00
94.9225 299.00
94.9877 283.00
95.0529 305.00
95.1181 266.00
95.1833 311.00
95.2485 317.00
95.3137 317.00
95.3789 285.00
95.444 325.00
95.5092 296.00
95.5744 292.00
95.6396 281.00
95.7048 282.00
95.77 281.00
95.8352 281.00
95.9004 290.00
95.9656 334.00
96.0308 296.00
96.096 288.00
96.1612 308.00
96.2264 307.00
96.2916 272.00
96.3568 284.00
96.422 276.00
96.4872 291.00
96.5524 268.00
96.6176 299.00
96.6828 311.00
96.748 259.00
96.8132 297.00
96.8784 282.00
96.9436 271.00
97.0088 281.00
97.074 282.00
97.1392 280.00
97.2044 286.00
97.2696 299.00
97.3348 304.00
97.4 281.00
97.4652 277.00
97.5304 279.00
97.5956 275.00
97.6608 261.00
97.726 300.00
97.7912 281.00
97.8564 282.00
97.9216 275.00
97.9868 294.00
98.052 280.00
98.1172 284.00
98.1824 250.00
98.2476 240.00
98.3128 274.00
98.378 285.00
98.4432 214.00
98.5084 230.00
98.5736 261.00
98.6388 263.00
98.704 243.00
98.7692 267.00
98.8344 257.00
98.8996 263.00
98.9648 288.00
99.03 234.00
99.0952 235.00
99.1604 284.00
99.2256 240.00
99.2908 285.00
99.356 260.00
99.4212 267.00
99.4864 283.00
99.5516 288.00
99.6168 326.00
99.682 306.00
99.7472 289.00
99.8124 322.00
99.8776 339.00
99.9428 326.00
100.008 328.00
100.073 326.00
100.095 312.00