File: data/xrd_creation/results/Na_48.xy
9.903433 2711.00
9.968632 2597.00
10.0338 2675.00
10.099 2682.00
10.1642 2578.00
10.2294 2657.00
10.2946 2577.00
10.3598 2539.00
10.425 2408.00
10.4902 2513.00
10.5554 2445.00
10.6206 2428.00
10.6858 2455.00
10.751 2418.00
10.8162 2326.00
10.8814 2314.00
10.9466 2355.00
11.0118 2404.00
11.077 2287.00
11.1422 2316.00
11.2074 2277.00
11.2726 2294.00
11.3378 2250.00
11.403 2226.00
11.4682 2173.00
11.5334 2104.00
11.5986 2079.00
11.6638 2092.00
11.729 2088.00
11.7942 2054.00
11.8594 2155.00
11.9246 2081.00
11.9898 2055.00
12.055 2061.00
12.1202 2010.00
12.1854 1931.00
12.2506 1970.00
12.3158 1943.00
12.381 1986.00
12.4462 1850.00
12.5114 1859.00
12.5766 1876.00
12.6418 1881.00
12.707 1879.00
12.7722 1820.00
12.8374 1868.00
12.9026 1945.00
12.9678 1722.00
13.033 1759.00
13.0982 1759.00
13.1634 1776.00
13.2286 1684.00
13.2938 1614.00
13.359 1740.00
13.4242 1750.00
13.4894 1693.00
13.5546 1707.00
13.6198 1669.00
13.685 1603.00
13.7502 1687.00
13.8154 1589.00
13.8805 1766.00
13.9457 1690.00
14.0109 1694.00
14.0761 1587.00
14.1413 1663.00
14.2065 1560.00
14.2717 1590.00
14.3369 1542.00
14.4021 1613.00
14.4673 1612.00
14.5325 1609.00
14.5977 1624.00
14.6629 1535.00
14.7281 1509.00
14.7933 1591.00
14.8585 1598.00
14.9237 1560.00
14.9889 1582.00
15.0541 1600.00
15.1193 1504.00
15.1845 1504.00
15.2497 1433.00
15.3149 1431.00
15.3801 1446.00
15.4453 1492.00
15.5105 1485.00
15.5757 1550.00
15.6409 1498.00
15.7061 1526.00
15.7713 1455.00
15.8365 1512.00
15.9017 1483.00
15.9669 1461.00
16.0321 1424.00
16.0973 1414.00
16.1625 1408.00
16.2277 1454.00
16.2929 1402.00
16.3581 1394.00
16.4233 1444.00
16.4885 1416.00
16.5537 1380.00
16.6189 1342.00
16.6841 1351.00
16.7493 1393.00
16.8145 1382.00
16.8797 1435.00
16.9449 1334.00
17.0101 1292.00
17.0753 1277.00
17.1405 1353.00
17.2057 1395.00
17.2709 1298.00
17.3361 1298.00
17.4013 1298.00
17.4665 1306.00
17.5317 1322.00
17.5969 1311.00
17.6621 1286.00
17.7273 1315.00
17.7925 1298.00
17.8577 1337.00
17.9229 1339.00
17.9881 1277.00
18.0533 1244.00
18.1185 1227.00
18.1837 1182.00
18.2489 1282.00
18.3141 1250.00
18.3793 1251.00
18.4445 1207.00
18.5097 1289.00
18.5749 1188.00
18.6401 1231.00
18.7052 1325.00
18.7704 1231.00
18.8356 1186.00
18.9008 1268.00
18.966 1176.00
19.0312 1179.00
19.0964 1206.00
19.1616 1132.00
19.2268 1188.00
19.292 1184.00
19.3572 1149.00
19.4224 1188.00
19.4876 1176.00
19.5528 1140.00
19.618 1148.00
19.6832 1100.00
19.7484 1179.00
19.8136 1199.00
19.8788 1207.00
19.944 1137.00
20.0092 1199.00
20.0744 1135.00
20.1396 1178.00
20.2048 1174.00
20.27 1171.00
20.3352 1129.00
20.4004 1115.00
20.4656 1079.00
20.5308 1177.00
20.596 1134.00
20.6612 1045.00
20.7264 1067.00
20.7916 1147.00
20.8568 1118.00
20.922 1086.00
20.9872 1095.00
21.0524 1054.00
21.1176 1084.00
21.1828 1105.00
21.248 1068.00
21.3132 1066.00
21.3784 1030.00
21.4436 1062.00
21.5088 1086.00
21.574 1088.00
21.6392 1009.00
21.7044 1011.00
21.7696 1017.00
21.8348 1001.00
21.9 1067.00
21.9652 1053.00
22.0304 1030.00
22.0956 1031.00
22.1608 1016.00
22.226 1065.00
22.2912 1042.00
22.3564 1010.00
22.4216 956.00
22.4868 1004.00
22.552 1001.00
22.6172 991.00
22.6824 977.00
22.7476 1010.00
22.8128 959.00
22.878 1023.00
22.9432 1126.00
23.0084 1107.00
23.0736 1084.00
23.1388 1091.00
23.204 973.00
23.2692 981.00
23.3344 998.00
23.3996 972.00
23.4647 986.00
23.5299 935.00
23.5951 1004.00
23.6603 884.00
23.7255 934.00
23.7907 964.00
23.8559 931.00
23.9211 972.00
23.9863 918.00
24.0515 931.00
24.1167 877.00
24.1819 958.00
24.2471 867.00
24.3123 936.00
24.3775 962.00
24.4427 932.00
24.5079 919.00
24.5731 945.00
24.6383 944.00
24.7035 847.00
24.7687 892.00
24.8339 956.00
24.8991 888.00
24.9643 895.00
25.0295 922.00
25.0947 979.00
25.1599 935.00
25.2251 972.00
25.2903 1037.00
25.3555 993.00
25.4207 997.00
25.4859 1155.00
25.5511 1442.00
25.6163 2248.00
25.6815 3906.00
25.7467 4942.00
25.8119 4545.00
25.8771 2733.00
25.9423 1470.00
26.0075 1079.00
26.0727 974.00
26.1379 964.00
26.2031 901.00
26.2683 901.00
26.3335 945.00
26.3987 941.00
26.4639 926.00
26.5291 904.00
26.5943 916.00
26.6595 845.00
26.7247 893.00
26.7899 870.00
26.8551 884.00
26.9203 866.00
26.9855 883.00
27.0507 858.00
27.1159 813.00
27.1811 817.00
27.2463 899.00
27.3115 813.00
27.3767 807.00
27.4419 815.00
27.5071 873.00
27.5723 807.00
27.6375 893.00
27.7027 850.00
27.7679 881.00
27.8331 827.00
27.8983 851.00
27.9635 863.00
28.0287 890.00
28.0939 860.00
28.1591 864.00
28.2243 816.00
28.2894 823.00
28.3546 806.00
28.4198 798.00
28.485 795.00
28.5502 795.00
28.6154 857.00
28.6806 770.00
28.7458 851.00
28.811 839.00
28.8762 870.00
28.9414 860.00
29.0066 888.00
29.0718 921.00
29.137 996.00
29.2022 1327.00
29.2674 1907.00
29.3326 2499.00
29.3978 2405.00
29.463 1649.00
29.5282 1192.00
29.5934 1275.00
29.6586 2083.00
29.7238 3820.00
29.789 7034.00
29.8542 8401.00
29.9194 6051.00
29.9846 2947.00
30.0498 1295.00
30.115 956.00
30.1802 811.00
30.2454 852.00
30.3106 806.00
30.3758 816.00
30.441 712.00
30.5062 722.00
30.5714 751.00
30.6366 725.00
30.7018 770.00
30.767 776.00
30.8322 750.00
30.8974 696.00
30.9626 725.00
31.0278 722.00
31.093 734.00
31.1582 729.00
31.2234 745.00
31.2886 767.00
31.3538 838.00
31.419 759.00
31.4842 745.00
31.5494 763.00
31.6146 777.00
31.6798 677.00
31.745 693.00
31.8102 715.00
31.8754 659.00
31.9406 649.00
32.0058 663.00
32.071 723.00
32.1362 693.00
32.2014 689.00
32.2666 747.00
32.3318 641.00
32.397 670.00
32.4622 654.00
32.5274 691.00
32.5926 641.00
32.6578 639.00
32.723 572.00
32.7882 683.00
32.8534 658.00
32.9186 652.00
32.9838 630.00
33.0489 635.00
33.1141 631.00
33.1793 640.00
33.2445 654.00
33.3097 632.00
33.3749 713.00
33.4401 654.00
33.5053 669.00
33.5705 630.00
33.6357 570.00
33.7009 586.00
33.7661 620.00
33.8313 622.00
33.8965 606.00
33.9617 635.00
34.0269 593.00
34.0921 604.00
34.1573 636.00
34.2225 645.00
34.2877 680.00
34.3529 566.00
34.4181 602.00
34.4833 613.00
34.5485 631.00
34.6137 611.00
34.6789 613.00
34.7441 602.00
34.8093 603.00
34.8745 575.00
34.9397 596.00
35.0049 593.00
35.0701 563.00
35.1353 631.00
35.2005 614.00
35.2657 552.00
35.3309 599.00
35.3961 641.00
35.4613 638.00
35.5265 616.00
35.5917 641.00
35.6569 607.00
35.7221 604.00
35.7873 663.00
35.8525 709.00
35.9177 814.00
35.9829 749.00
36.0481 709.00
36.1133 676.00
36.1785 566.00
36.2437 532.00
36.3089 557.00
36.3741 546.00
36.4393 556.00
36.5045 563.00
36.5697 558.00
36.6349 580.00
36.7001 535.00
36.7653 540.00
36.8305 534.00
36.8957 567.00
36.9609 524.00
37.0261 530.00
37.0913 575.00
37.1565 584.00
37.2217 552.00
37.2869 547.00
37.3521 549.00
37.4173 501.00
37.4825 520.00
37.5477 525.00
37.6129 485.00
37.6781 557.00
37.7433 515.00
37.8085 549.00
37.8736 526.00
37.9388 519.00
38.004 516.00
38.0692 565.00
38.1344 529.00
38.1996 526.00
38.2648 530.00
38.33 529.00
38.3952 519.00
38.4604 523.00
38.5256 487.00
38.5908 524.00
38.656 507.00
38.7212 480.00
38.7864 545.00
38.8516 527.00
38.9168 502.00
38.982 493.00
39.0472 557.00
39.1124 525.00
39.1776 558.00
39.2428 590.00
39.308 700.00
39.3732 804.00
39.4384 714.00
39.5036 585.00
39.5688 516.00
39.634 524.00
39.6992 538.00
39.7644 494.00
39.8296 527.00
39.8948 507.00
39.96 512.00
40.0252 453.00
40.0904 458.00
40.1556 449.00
40.2208 461.00
40.286 501.00
40.3512 472.00
40.4164 489.00
40.4816 523.00
40.5468 497.00
40.612 484.00
40.6772 532.00
40.7424 462.00
40.8076 499.00
40.8728 498.00
40.938 518.00
41.0032 443.00
41.0684 482.00
41.1336 491.00
41.1988 520.00
41.264 502.00
41.3292 478.00
41.3944 490.00
41.4596 562.00
41.5248 465.00
41.59 494.00
41.6552 491.00
41.7204 492.00
41.7856 501.00
41.8508 502.00
41.916 523.00
41.9812 496.00
42.0464 506.00
42.1116 531.00
42.1768 527.00
42.242 560.00
42.3072 571.00
42.3724 587.00
42.4376 596.00
42.5028 702.00
42.568 1164.00
42.6332 2393.00
42.6983 3922.00
42.7635 4394.00
42.8287 3361.00
42.8939 2068.00
42.9591 999.00
43.0243 788.00
43.0895 770.00
43.1547 728.00
43.2199 664.00
43.2851 603.00
43.3503 486.00
43.4155 530.00
43.4807 495.00
43.5459 504.00
43.6111 490.00
43.6763 494.00
43.7415 460.00
43.8067 484.00
43.8719 475.00
43.9371 515.00
44.0023 487.00
44.0675 478.00
44.1327 480.00
44.1979 494.00
44.2631 453.00
44.3283 457.00
44.3935 457.00
44.4587 474.00
44.5239 431.00
44.5891 420.00
44.6543 471.00
44.7195 439.00
44.7847 424.00
44.8499 452.00
44.9151 408.00
44.9803 435.00
45.0455 427.00
45.1107 440.00
45.1759 455.00
45.2411 430.00
45.3063 430.00
45.3715 447.00
45.4367 424.00
45.5019 455.00
45.5671 433.00
45.6323 417.00
45.6975 430.00
45.7627 457.00
45.8279 411.00
45.8931 436.00
45.9583 449.00
46.0235 445.00
46.0887 391.00
46.1539 411.00
46.2191 436.00
46.2843 438.00
46.3495 412.00
46.4147 393.00
46.4799 414.00
46.5451 455.00
46.6103 435.00
46.6755 413.00
46.7407 398.00
46.8059 413.00
46.8711 439.00
46.9363 454.00
47.0015 471.00
47.0667 504.00
47.1319 536.00
47.1971 462.00
47.2623 465.00
47.3275 511.00
47.3927 585.00
47.4579 674.00
47.523 592.00
47.5882 582.00
47.6534 472.00
47.7186 439.00
47.7838 442.00
47.849 386.00
47.9142 422.00
47.9794 426.00
48.0446 399.00
48.1098 467.00
48.175 435.00
48.2402 417.00
48.3054 465.00
48.3706 568.00
48.4358 677.00
48.501 640.00
48.5662 573.00
48.6314 527.00
48.6966 413.00
48.7618 411.00
48.827 381.00
48.8922 388.00
48.9574 420.00
49.0226 393.00
49.0878 429.00
49.153 382.00
49.2182 391.00
49.2834 388.00
49.3486 442.00
49.4138 397.00
49.479 340.00
49.5442 397.00
49.6094 344.00
49.6746 399.00
49.7398 405.00
49.805 443.00
49.8702 418.00
49.9354 409.00
50.0006 421.00
50.0658 418.00
50.131 439.00
50.1962 413.00
50.2614 433.00
50.3266 436.00
50.3918 543.00
50.457 686.00
50.5222 1192.00
50.5874 1607.00
50.6526 1501.00
50.7178 1056.00
50.783 850.00
50.8482 527.00
50.9134 400.00
50.9786 424.00
51.0438 441.00
51.109 409.00
51.1742 384.00
51.2394 395.00
51.3046 450.00
51.3698 396.00
51.435 396.00
51.5002 375.00
51.5654 373.00
51.6306 397.00
51.6958 401.00
51.761 400.00
51.8262 360.00
51.8914 384.00
51.9566 350.00
52.0218 391.00
52.087 414.00
52.1522 384.00
52.2174 366.00
52.2826 377.00
52.3477 356.00
52.4129 360.00
52.4781 399.00
52.5433 355.00
52.6085 387.00
52.6737 413.00
52.7389 411.00
52.8041 511.00
52.8693 581.00
52.9345 1013.00
52.9997 1347.00
53.0649 1326.00
53.1301 1016.00
53.1953 850.00
53.2605 535.00
53.3257 392.00
53.3909 423.00
53.4561 392.00
53.5213 384.00
53.5865 397.00
53.6517 380.00
53.7169 381.00
53.7821 388.00
53.8473 390.00
53.9125 397.00
53.9777 402.00
54.0429 377.00
54.1081 375.00
54.1733 367.00
54.2385 368.00
54.3037 367.00
54.3689 365.00
54.4341 347.00
54.4993 384.00
54.5645 379.00
54.6297 390.00
54.6949 348.00
54.7601 353.00
54.8253 358.00
54.8905 407.00
54.9557 349.00
55.0209 384.00
55.0861 380.00
55.1513 377.00
55.2165 392.00
55.2817 345.00
55.3469 385.00
55.4121 364.00
55.4773 379.00
55.5425 339.00
55.6077 403.00
55.6729 376.00
55.7381 355.00
55.8033 353.00
55.8685 344.00
55.9337 360.00
55.9989 341.00
56.0641 320.00
56.1293 322.00
56.1945 335.00
56.2597 341.00
56.3249 362.00
56.3901 308.00
56.4553 386.00
56.5205 402.00
56.5857 385.00
56.6509 355.00
56.7161 355.00
56.7813 306.00
56.8465 378.00
56.9117 366.00
56.9769 316.00
57.042 338.00
57.1073 325.00
57.1724 363.00
57.2376 361.00
57.3028 445.00
57.368 426.00
57.4332 436.00
57.4984 416.00
57.5636 384.00
57.6288 354.00
57.694 323.00
57.7592 316.00
57.8244 325.00
57.8896 320.00
57.9548 309.00
58.02 366.00
58.0852 326.00
58.1504 321.00
58.2156 349.00
58.2808 367.00
58.346 338.00
58.4112 314.00
58.4764 332.00
58.5416 332.00
58.6068 306.00
58.672 368.00
58.7372 340.00
58.8024 329.00
58.8676 317.00
58.9328 349.00
58.998 339.00
59.0632 351.00
59.1284 305.00
59.1936 322.00
59.2588 300.00
59.324 292.00
59.3892 323.00
59.4544 344.00
59.5196 367.00
59.5848 327.00
59.65 356.00
59.7152 324.00
59.7804 308.00
59.8456 339.00
59.9108 292.00
59.976 331.00
60.0412 307.00
60.1064 354.00
60.1716 356.00
60.2368 308.00
60.302 321.00
60.3672 333.00
60.4324 301.00
60.4976 334.00
60.5628 358.00
60.628 401.00
60.6932 369.00
60.7584 366.00
60.8236 341.00
60.8888 345.00
60.954 320.00
61.0192 364.00
61.0844 278.00
61.1496 337.00
61.2148 356.00
61.28 343.00
61.3452 351.00
61.4104 365.00
61.4756 353.00
61.5408 331.00
61.606 345.00
61.6712 320.00
61.7364 340.00
61.8016 340.00
61.8667 378.00
61.932 460.00
61.9971 662.00
62.0623 748.00
62.1275 621.00
62.1927 625.00
62.2579 516.00
62.3231 402.00
62.3883 357.00
62.4535 327.00
62.5187 336.00
62.5839 310.00
62.6491 335.00
62.7143 329.00
62.7795 338.00
62.8447 326.00
62.9099 326.00
62.9751 347.00
63.0403 350.00
63.1055 331.00
63.1707 339.00
63.2359 340.00
63.3011 309.00
63.3663 296.00
63.4315 317.00
63.4967 313.00
63.5619 285.00
63.6271 295.00
63.6923 274.00
63.7575 319.00
63.8227 277.00
63.8879 294.00
63.9531 303.00
64.0183 320.00
64.0835 319.00
64.1487 272.00
64.2139 261.00
64.2791 299.00
64.3443 261.00
64.4095 282.00
64.4747 336.00
64.5399 344.00
64.6051 396.00
64.6703 323.00
64.7355 344.00
64.8007 332.00
64.8659 326.00
64.9311 332.00
64.9963 336.00
65.0615 292.00
65.1267 315.00
65.1919 295.00
65.2571 292.00
65.3223 276.00
65.3875 333.00
65.4527 326.00
65.5179 326.00
65.5831 348.00
65.6483 331.00
65.7135 332.00
65.7787 290.00
65.8439 321.00
65.9091 321.00
65.9743 309.00
66.0395 312.00
66.1047 293.00
66.1699 287.00
66.2351 318.00
66.3003 284.00
66.3655 265.00
66.4307 309.00
66.4959 264.00
66.561 304.00
66.6263 281.00
66.6915 294.00
66.7566 295.00
66.8218 315.00
66.887 325.00
66.9522 295.00
67.0174 271.00
67.0826 288.00
67.1478 282.00
67.213 288.00
67.2782 288.00
67.3434 278.00
67.4086 303.00
67.4738 311.00
67.539 306.00
67.6042 309.00
67.6694 309.00
67.7346 279.00
67.7998 288.00
67.865 363.00
67.9302 294.00
67.9954 336.00
68.0606 319.00
68.1258 320.00
68.191 346.00
68.2562 476.00
68.3214 596.00
68.3866 580.00
68.4518 466.00
68.517 478.00
68.5822 457.00
68.6474 393.00
68.7126 317.00
68.7778 345.00
68.843 324.00
68.9082 325.00
68.9734 309.00
69.0386 297.00
69.1038 312.00
69.169 317.00
69.2342 314.00
69.2994 290.00
69.3646 313.00
69.4298 297.00
69.495 316.00
69.5602 280.00
69.6254 316.00
69.6906 279.00
69.7558 317.00
69.821 322.00
69.8862 308.00
69.9514 293.00
70.0166 361.00
70.0818 390.00
70.147 392.00
70.2122 481.00
70.2774 736.00
70.3426 1086.00
70.4078 1135.00
70.473 867.00
70.5382 756.00
70.6034 776.00
70.6686 557.00
70.7338 399.00
70.799 364.00
70.8642 299.00
70.9294 321.00
70.9946 298.00
71.0598 314.00
71.125 347.00
71.1902 276.00
71.2554 330.00
71.3205 283.00
71.3858 311.00
71.451 298.00
71.5162 314.00
71.5813 292.00
71.6465 309.00
71.7117 308.00
71.7769 300.00
71.8421 286.00
71.9073 270.00
71.9725 279.00
72.0377 279.00
72.1029 312.00
72.1681 301.00
72.2333 290.00
72.2985 284.00
72.3637 284.00
72.4289 270.00
72.4941 275.00
72.5593 271.00
72.6245 284.00
72.6897 323.00
72.7549 301.00
72.8201 291.00
72.8853 347.00
72.9505 278.00
73.0157 284.00
73.0809 299.00
73.1461 287.00
73.2113 292.00
73.2765 260.00
73.3417 271.00
73.4069 323.00
73.4721 294.00
73.5373 237.00
73.6025 299.00
73.6677 340.00
73.7329 286.00
73.7981 331.00
73.8633 292.00
73.9285 295.00
73.9937 279.00
74.0589 299.00
74.1241 265.00
74.1893 301.00
74.2545 277.00
74.3197 299.00
74.3849 300.00
74.4501 296.00
74.5153 285.00
74.5805 276.00
74.6457 272.00
74.7109 307.00
74.7761 281.00
74.8413 293.00
74.9065 317.00
74.9717 314.00
75.0369 318.00
75.1021 305.00
75.1673 279.00
75.2325 297.00
75.2977 299.00
75.3629 325.00
75.4281 308.00
75.4933 315.00
75.5585 310.00
75.6237 324.00
75.6889 299.00
75.7541 295.00
75.8193 292.00
75.8845 302.00
75.9497 293.00
76.0149 286.00
76.0801 292.00
76.1452 281.00
76.2104 311.00
76.2756 296.00
76.3409 304.00
76.406 296.00
76.4712 349.00
76.5364 296.00
76.6016 316.00
76.6668 308.00
76.732 303.00
76.7972 288.00
76.8624 343.00
76.9276 328.00
76.9928 328.00
77.058 312.00
77.1232 321.00
77.1884 300.00
77.2536 330.00
77.3188 306.00
77.384 303.00
77.4492 323.00
77.5144 313.00
77.5796 315.00
77.6448 318.00
77.71 276.00
77.7752 314.00
77.8404 317.00
77.9056 332.00
77.9708 331.00
78.036 367.00
78.1012 437.00
78.1664 480.00
78.2316 665.00
78.2968 862.00
78.362 693.00
78.4272 579.00
78.4924 574.00
78.5576 554.00
78.6228 443.00
78.688 383.00
78.7532 348.00
78.8184 275.00
78.8836 334.00
78.9488 344.00
79.014 312.00
79.0792 302.00
79.1444 260.00
79.2096 285.00
79.2748 292.00
79.34 301.00
79.4052 322.00
79.4704 343.00
79.5356 302.00
79.6008 313.00
79.666 312.00
79.7312 319.00
79.7964 318.00
79.8616 348.00
79.9268 304.00
79.992 329.00
80.0572 327.00
80.1224 299.00
80.1876 310.00
80.2528 339.00
80.318 307.00
80.3832 296.00
80.4484 286.00
80.5136 315.00
80.5788 291.00
80.644 294.00
80.7092 300.00
80.7744 322.00
80.8396 305.00
80.9048 320.00
80.9699 311.00
81.0351 335.00
81.1003 324.00
81.1655 311.00
81.2307 290.00
81.2959 335.00
81.3611 329.00
81.4263 306.00
81.4915 348.00
81.5567 315.00
81.6219 311.00
81.6871 307.00
81.7523 347.00
81.8175 319.00
81.8827 311.00
81.9479 300.00
82.0131 305.00
82.0783 291.00
82.1435 342.00
82.2087 307.00
82.2739 335.00
82.3391 365.00
82.4043 325.00
82.4695 335.00
82.5347 326.00
82.5999 339.00
82.6651 257.00
82.7303 328.00
82.7955 308.00
82.8607 313.00
82.9259 318.00
82.9911 352.00
83.0563 311.00
83.1215 324.00
83.1867 299.00
83.2519 337.00
83.3171 313.00
83.3823 324.00
83.4475 332.00
83.5127 301.00
83.5779 317.00
83.6431 335.00
83.7083 389.00
83.7735 346.00
83.8387 352.00
83.9039 394.00
83.9691 406.00
84.0343 477.00
84.0995 502.00
84.1647 433.00
84.2299 394.00
84.2951 400.00
84.3603 382.00
84.4255 363.00
84.4907 341.00
84.5559 338.00
84.6211 314.00
84.6863 340.00
84.7515 330.00
84.8167 359.00
84.8819 298.00
84.9471 298.00
85.0123 328.00
85.0775 332.00
85.1427 342.00
85.2079 284.00
85.2731 280.00
85.3383 308.00
85.4035 283.00
85.4687 315.00
85.5339 324.00
85.5991 286.00
85.6643 325.00
85.7295 326.00
85.7946 293.00
85.8598 283.00
85.925 296.00
85.9903 316.00
86.0554 302.00
86.1206 263.00
86.1858 319.00
86.251 292.00
86.3162 302.00
86.3814 300.00
86.4466 323.00
86.5118 291.00
86.577 300.00
86.6422 298.00
86.7074 286.00
86.7726 290.00
86.8378 297.00
86.903 309.00
86.9682 290.00
87.0334 270.00
87.0986 299.00
87.1638 294.00
87.229 310.00
87.2942 288.00
87.3594 312.00
87.4246 322.00
87.4898 298.00
87.555 257.00
87.6202 299.00
87.6854 276.00
87.7506 303.00
87.8158 311.00
87.881 303.00
87.9462 291.00
88.0114 294.00
88.0766 304.00
88.1418 275.00
88.207 308.00
88.2722 297.00
88.3374 271.00
88.4026 293.00
88.4678 294.00
88.533 309.00
88.5982 240.00
88.6634 305.00
88.7286 331.00
88.7938 281.00
88.859 276.00
88.9242 287.00
88.9894 319.00
89.0546 278.00
89.1198 276.00
89.185 296.00
89.2502 243.00
89.3154 281.00
89.3806 268.00
89.4458 304.00
89.511 308.00
89.5762 285.00
89.6414 284.00
89.7066 306.00
89.7718 321.00
89.837 288.00
89.9022 317.00
89.9674 288.00
90.0326 291.00
90.0978 305.00
90.163 325.00
90.2282 284.00
90.2934 264.00
90.3586 291.00
90.4238 271.00
90.489 305.00
90.5542 300.00
90.6193 277.00
90.6845 301.00
90.7497 302.00
90.8149 280.00
90.8801 319.00
90.9453 256.00
91.0105 289.00
91.0757 289.00
91.1409 278.00
91.2061 272.00
91.2713 257.00
91.3365 313.00
91.4017 295.00
91.4669 285.00
91.5321 257.00
91.5973 290.00
91.6625 278.00
91.7277 266.00
91.7929 269.00
91.8581 291.00
91.9233 293.00
91.9885 283.00
92.0537 265.00
92.1189 263.00
92.1841 286.00
92.2493 295.00
92.3145 296.00
92.3797 298.00
92.4449 285.00
92.5101 300.00
92.5753 276.00
92.6405 291.00
92.7057 283.00
92.7709 296.00
92.8361 284.00
92.9013 320.00
92.9665 276.00
93.0317 282.00
93.0969 296.00
93.1621 341.00
93.2273 298.00
93.2925 292.00
93.3577 262.00
93.4229 302.00
93.4881 319.00
93.5533 407.00
93.6185 391.00
93.6837 360.00
93.7489 344.00
93.8141 342.00
93.8793 350.00
93.9445 351.00
94.0097 338.00
94.0749 291.00
94.1401 282.00
94.2053 282.00
94.2705 292.00
94.3357 295.00
94.4009 278.00
94.4661 298.00
94.5313 281.00
94.5965 306.00
94.6617 297.00
94.7269 300.00
94.7921 283.00
94.8573 270.00
94.9225 294.00
94.9877 316.00
95.0529 287.00
95.1181 270.00
95.1833 261.00
95.2485 316.00
95.3137 302.00
95.3789 293.00
95.444 284.00
95.5092 302.00
95.5744 313.00
95.6396 280.00
95.7048 280.00
95.77 314.00
95.8352 263.00
95.9004 247.00
95.9656 309.00
96.0308 290.00
96.096 277.00
96.1612 314.00
96.2264 281.00
96.2916 282.00
96.3568 276.00
96.422 264.00
96.4872 279.00
96.5524 247.00
96.6176 282.00
96.6828 266.00
96.748 275.00
96.8132 324.00
96.8784 266.00
96.9436 270.00
97.0088 273.00
97.074 285.00
97.1392 278.00
97.2044 277.00
97.2696 271.00
97.3348 273.00
97.4 287.00
97.4652 258.00
97.5304 272.00
97.5956 246.00
97.6608 283.00
97.726 265.00
97.7912 269.00
97.8564 257.00
97.9216 245.00
97.9868 274.00
98.052 264.00
98.1172 301.00
98.1824 264.00
98.2476 277.00
98.3128 274.00
98.378 279.00
98.4432 249.00
98.5084 248.00
98.5736 269.00
98.6388 267.00
98.704 305.00
98.7692 266.00
98.8344 288.00
98.8996 269.00
98.9648 294.00
99.03 277.00
99.0952 320.00
99.1604 374.00
99.2256 307.00
99.2908 387.00
99.356 423.00
99.4212 445.00
99.4864 396.00
99.5516 323.00
99.6168 319.00
99.682 331.00
99.7472 344.00
99.8124 360.00
99.8776 303.00
99.9428 296.00
100.008 271.00
100.073 287.00
100.095 288.00