File: data/xrd_creation/results/Na_51.xy
9.903433 2570.00
9.968632 2662.00
10.0338 2535.00
10.099 2524.00
10.1642 2605.00
10.2294 2496.00
10.2946 2555.00
10.3598 2501.00
10.425 2535.00
10.4902 2438.00
10.5554 2417.00
10.6206 2331.00
10.6858 2339.00
10.751 2236.00
10.8162 2322.00
10.8814 2208.00
10.9466 2326.00
11.0118 2307.00
11.077 2188.00
11.1422 2227.00
11.2074 2186.00
11.2726 2160.00
11.3378 2220.00
11.403 2183.00
11.4682 2186.00
11.5334 2132.00
11.5986 2076.00
11.6638 2076.00
11.729 2176.00
11.7942 2067.00
11.8594 2180.00
11.9246 2025.00
11.9898 2137.00
12.055 2104.00
12.1202 2170.00
12.1854 2198.00
12.2506 2235.00
12.3158 2123.00
12.381 2073.00
12.4462 1951.00
12.5114 1993.00
12.5766 1921.00
12.6418 1901.00
12.707 1912.00
12.7722 1913.00
12.8374 1884.00
12.9026 1872.00
12.9678 1796.00
13.033 1816.00
13.0982 1901.00
13.1634 1771.00
13.2286 1908.00
13.2938 1853.00
13.359 1737.00
13.4242 1876.00
13.4894 1808.00
13.5546 1803.00
13.6198 1723.00
13.685 1787.00
13.7502 1694.00
13.8154 1759.00
13.8805 1717.00
13.9457 1751.00
14.0109 1771.00
14.0761 1674.00
14.1413 1719.00
14.2065 1625.00
14.2717 1735.00
14.3369 1715.00
14.4021 1721.00
14.4673 1698.00
14.5325 1638.00
14.5977 1668.00
14.6629 1631.00
14.7281 1667.00
14.7933 1615.00
14.8585 1641.00
14.9237 1643.00
14.9889 1644.00
15.0541 1622.00
15.1193 1615.00
15.1845 1636.00
15.2497 1603.00
15.3149 1550.00
15.3801 1587.00
15.4453 1603.00
15.5105 1554.00
15.5757 1663.00
15.6409 1578.00
15.7061 1585.00
15.7713 1607.00
15.8365 1520.00
15.9017 1570.00
15.9669 1563.00
16.0321 1608.00
16.0973 1574.00
16.1625 1591.00
16.2277 1512.00
16.2929 1539.00
16.3581 1504.00
16.4233 1552.00
16.4885 1538.00
16.5537 1530.00
16.6189 1558.00
16.6841 1473.00
16.7493 1567.00
16.8145 1511.00
16.8797 1481.00
16.9449 1458.00
17.0101 1472.00
17.0753 1517.00
17.1405 1506.00
17.2057 1397.00
17.2709 1501.00
17.3361 1425.00
17.4013 1514.00
17.4665 1455.00
17.5317 1529.00
17.5969 1418.00
17.6621 1369.00
17.7273 1484.00
17.7925 1471.00
17.8577 1394.00
17.9229 1477.00
17.9881 1416.00
18.0533 1449.00
18.1185 1390.00
18.1837 1407.00
18.2489 1369.00
18.3141 1388.00
18.3793 1294.00
18.4445 1412.00
18.5097 1362.00
18.5749 1337.00
18.6401 1352.00
18.7052 1335.00
18.7704 1370.00
18.8356 1322.00
18.9008 1318.00
18.966 1351.00
19.0312 1306.00
19.0964 1300.00
19.1616 1328.00
19.2268 1276.00
19.292 1397.00
19.3572 1323.00
19.4224 1324.00
19.4876 1315.00
19.5528 1284.00
19.618 1258.00
19.6832 1259.00
19.7484 1270.00
19.8136 1246.00
19.8788 1233.00
19.944 1191.00
20.0092 1296.00
20.0744 1297.00
20.1396 1207.00
20.2048 1188.00
20.27 1190.00
20.3352 1168.00
20.4004 1202.00
20.4656 1282.00
20.5308 1173.00
20.596 1206.00
20.6612 1252.00
20.7264 1198.00
20.7916 1226.00
20.8568 1149.00
20.922 1216.00
20.9872 1203.00
21.0524 1111.00
21.1176 1125.00
21.1828 1167.00
21.248 1123.00
21.3132 1151.00
21.3784 1190.00
21.4436 1108.00
21.5088 1166.00
21.574 1162.00
21.6392 1141.00
21.7044 1196.00
21.7696 1088.00
21.8348 1114.00
21.9 1103.00
21.9652 1229.00
22.0304 1100.00
22.0956 1100.00
22.1608 1091.00
22.226 1082.00
22.2912 1116.00
22.3564 1147.00
22.4216 1164.00
22.4868 1145.00
22.552 1218.00
22.6172 1429.00
22.6824 1821.00
22.7476 2460.00
22.8128 2286.00
22.878 1420.00
22.9432 1166.00
23.0084 1104.00
23.0736 1078.00
23.1388 1094.00
23.204 1032.00
23.2692 1115.00
23.3344 1016.00
23.3996 1067.00
23.4647 1125.00
23.5299 1082.00
23.5951 1153.00
23.6603 1024.00
23.7255 1013.00
23.7907 1036.00
23.8559 1104.00
23.9211 1107.00
23.9863 1276.00
24.0515 1513.00
24.1167 1459.00
24.1819 1230.00
24.2471 1141.00
24.3123 1135.00
24.3775 1176.00
24.4427 1174.00
24.5079 1136.00
24.5731 1109.00
24.6383 1040.00
24.7035 1018.00
24.7687 1090.00
24.8339 1145.00
24.8991 989.00
24.9643 976.00
25.0295 961.00
25.0947 1018.00
25.1599 1046.00
25.2251 981.00
25.2903 1008.00
25.3555 896.00
25.4207 998.00
25.4859 963.00
25.5511 1009.00
25.6163 984.00
25.6815 971.00
25.7467 1050.00
25.8119 945.00
25.8771 1060.00
25.9423 964.00
26.0075 1078.00
26.0727 1226.00
26.1379 1300.00
26.2031 1295.00
26.2683 1116.00
26.3335 998.00
26.3987 1019.00
26.4639 1006.00
26.5291 1088.00
26.5943 1042.00
26.6595 1099.00
26.7247 1107.00
26.7899 1121.00
26.8551 1210.00
26.9203 1248.00
26.9855 1249.00
27.0507 1308.00
27.1159 1537.00
27.1811 1928.00
27.2463 2970.00
27.3115 6331.00
27.3767 14156.00
27.4419 26909.00
27.5071 21267.00
27.5723 9254.00
27.6375 5032.00
27.7027 3644.00
27.7679 2139.00
27.8331 1476.00
27.8983 1242.00
27.9635 1106.00
28.0287 1086.00
28.0939 1172.00
28.1591 1283.00
28.2243 1338.00
28.2894 1424.00
28.3546 1218.00
28.4198 1039.00
28.485 1019.00
28.5502 1005.00
28.6154 948.00
28.6806 996.00
28.7458 946.00
28.811 1033.00
28.8762 962.00
28.9414 935.00
29.0066 962.00
29.0718 971.00
29.137 907.00
29.2022 920.00
29.2674 948.00
29.3326 961.00
29.3978 967.00
29.463 937.00
29.5282 983.00
29.5934 935.00
29.6586 911.00
29.7238 896.00
29.789 824.00
29.8542 898.00
29.9194 934.00
29.9846 911.00
30.0498 921.00
30.115 886.00
30.1802 890.00
30.2454 903.00
30.3106 874.00
30.3758 959.00
30.441 905.00
30.5062 886.00
30.5714 857.00
30.6366 893.00
30.7018 888.00
30.767 850.00
30.8322 921.00
30.8974 917.00
30.9626 945.00
31.0278 1003.00
31.093 941.00
31.1582 985.00
31.2234 1001.00
31.2886 984.00
31.3538 1019.00
31.419 1083.00
31.4842 1112.00
31.5494 1238.00
31.6146 1397.00
31.6798 1710.00
31.745 2340.00
31.8102 4083.00
31.8754 9402.00
31.9406 20609.00
32.0058 26131.00
32.071 14262.00
32.1362 4012.00
32.2014 1785.00
32.2666 1417.00
32.3318 1192.00
32.397 1105.00
32.4622 1027.00
32.5274 940.00
32.5926 967.00
32.6578 952.00
32.723 1165.00
32.7882 1231.00
32.8534 1172.00
32.9186 1120.00
32.9838 989.00
33.0489 959.00
33.1141 925.00
33.1793 874.00
33.2445 923.00
33.3097 910.00
33.3749 878.00
33.4401 949.00
33.5053 847.00
33.5705 1007.00
33.6357 961.00
33.7009 1044.00
33.7661 1098.00
33.8313 976.00
33.8965 865.00
33.9617 820.00
34.0269 787.00
34.0921 826.00
34.1573 798.00
34.2225 778.00
34.2877 804.00
34.3529 734.00
34.4181 795.00
34.4833 799.00
34.5485 756.00
34.6137 707.00
34.6789 805.00
34.7441 751.00
34.8093 772.00
34.8745 759.00
34.9397 776.00
35.0049 773.00
35.0701 740.00
35.1353 723.00
35.2005 749.00
35.2657 690.00
35.3309 739.00
35.3961 761.00
35.4613 805.00
35.5265 758.00
35.5917 749.00
35.6569 745.00
35.7221 689.00
35.7873 720.00
35.8525 734.00
35.9177 709.00
35.9829 710.00
36.0481 681.00
36.1133 688.00
36.1785 732.00
36.2437 721.00
36.3089 730.00
36.3741 791.00
36.4393 681.00
36.5045 722.00
36.5697 716.00
36.6349 728.00
36.7001 728.00
36.7653 805.00
36.8305 804.00
36.8957 800.00
36.9609 776.00
37.0261 706.00
37.0913 728.00
37.1565 780.00
37.2217 727.00
37.2869 704.00
37.3521 732.00
37.4173 736.00
37.4825 700.00
37.5477 764.00
37.6129 816.00
37.6781 799.00
37.7433 784.00
37.8085 840.00
37.8736 865.00
37.9388 1015.00
38.004 1202.00
38.0692 1756.00
38.1344 3565.00
38.1996 7655.00
38.2648 8935.00
38.33 6151.00
38.3952 2948.00
38.4604 1391.00
38.5256 1073.00
38.5908 921.00
38.656 792.00
38.7212 814.00
38.7864 820.00
38.8516 798.00
38.9168 770.00
38.982 713.00
39.0472 752.00
39.1124 767.00
39.1776 683.00
39.2428 703.00
39.308 757.00
39.3732 776.00
39.4384 766.00
39.5036 850.00
39.5688 944.00
39.634 1013.00
39.6992 1335.00
39.7644 2424.00
39.8296 5914.00
39.8948 10984.00
39.96 7156.00
40.0252 4975.00
40.0904 1694.00
40.1556 1118.00
40.2208 940.00
40.286 870.00
40.3512 749.00
40.4164 758.00
40.4816 694.00
40.5468 726.00
40.612 674.00
40.6772 719.00
40.7424 690.00
40.8076 721.00
40.8728 734.00
40.938 723.00
41.0032 690.00
41.0684 754.00
41.1336 786.00
41.1988 780.00
41.264 724.00
41.3292 697.00
41.3944 683.00
41.4596 656.00
41.5248 686.00
41.59 715.00
41.6552 671.00
41.7204 690.00
41.7856 677.00
41.8508 657.00
41.916 631.00
41.9812 624.00
42.0464 647.00
42.1116 622.00
42.1768 636.00
42.242 585.00
42.3072 583.00
42.3724 614.00
42.4376 615.00
42.5028 638.00
42.568 646.00
42.6332 603.00
42.6983 634.00
42.7635 623.00
42.8287 577.00
42.8939 644.00
42.9591 643.00
43.0243 621.00
43.0895 598.00
43.1547 607.00
43.2199 635.00
43.2851 561.00
43.3503 618.00
43.4155 603.00
43.4807 618.00
43.5459 666.00
43.6111 660.00
43.6763 612.00
43.7415 662.00
43.8067 602.00
43.8719 630.00
43.9371 704.00
44.0023 624.00
44.0675 679.00
44.1327 650.00
44.1979 683.00
44.2631 659.00
44.3283 709.00
44.3935 746.00
44.4587 689.00
44.5239 762.00
44.5891 708.00
44.6543 810.00
44.7195 1140.00
44.7847 1844.00
44.8499 2209.00
44.9151 1623.00
44.9803 1275.00
45.0455 953.00
45.1107 855.00
45.1759 888.00
45.2411 919.00
45.3063 993.00
45.3715 1097.00
45.4367 1356.00
45.5019 1973.00
45.5671 3149.00
45.6323 7325.00
45.6975 14967.00
45.7627 9861.00
45.8279 8537.00
45.8931 3371.00
45.9583 1693.00
46.0235 1498.00
46.0887 2082.00
46.1539 2433.00
46.2191 2169.00
46.2843 2581.00
46.3495 1720.00
46.4147 1425.00
46.4799 1027.00
46.5451 859.00
46.6103 805.00
46.6755 773.00
46.7407 668.00
46.8059 684.00
46.8711 747.00
46.9363 763.00
47.0015 785.00
47.0667 747.00
47.1319 727.00
47.1971 681.00
47.2623 642.00
47.3275 699.00
47.3927 606.00
47.4579 655.00
47.523 639.00
47.5882 602.00
47.6534 664.00
47.7186 598.00
47.7838 576.00
47.849 596.00
47.9142 610.00
47.9794 635.00
48.0446 609.00
48.1098 591.00
48.175 652.00
48.2402 613.00
48.3054 621.00
48.3706 624.00
48.4358 621.00
48.501 656.00
48.5662 707.00
48.6314 753.00
48.6966 867.00
48.7618 943.00
48.827 1386.00
48.8922 2801.00
48.9574 4699.00
49.0226 3437.00
49.0878 2998.00
49.153 1783.00
49.2182 921.00
49.2834 786.00
49.3486 738.00
49.4138 675.00
49.479 627.00
49.5442 613.00
49.6094 629.00
49.6746 578.00
49.7398 627.00
49.805 598.00
49.8702 657.00
49.9354 645.00
50.0006 657.00
50.0658 594.00
50.131 589.00
50.1962 575.00
50.2614 536.00
50.3266 553.00
50.3918 560.00
50.457 555.00
50.5222 557.00
50.5874 574.00
50.6526 552.00
50.7178 524.00
50.783 534.00
50.8482 588.00
50.9134 562.00
50.9786 544.00
51.0438 576.00
51.109 497.00
51.1742 535.00
51.2394 524.00
51.3046 580.00
51.3698 499.00
51.435 508.00
51.5002 556.00
51.5654 524.00
51.6306 521.00
51.6958 519.00
51.761 531.00
51.8262 539.00
51.8914 550.00
51.9566 507.00
52.0218 489.00
52.087 502.00
52.1522 539.00
52.2174 532.00
52.2826 522.00
52.3477 524.00
52.4129 516.00
52.4781 574.00
52.5433 516.00
52.6085 508.00
52.6737 531.00
52.7389 534.00
52.8041 517.00
52.8693 473.00
52.9345 539.00
52.9997 517.00
53.0649 483.00
53.1301 486.00
53.1953 504.00
53.2605 515.00
53.3257 540.00
53.3909 525.00
53.4561 581.00
53.5213 580.00
53.5865 534.00
53.6517 585.00
53.7169 568.00
53.7821 565.00
53.8473 570.00
53.9125 563.00
53.9777 609.00
54.0429 824.00
54.1081 1089.00
54.1733 783.00
54.2385 864.00
54.3037 811.00
54.3689 693.00
54.4341 676.00
54.4993 664.00
54.5645 606.00
54.6297 588.00
54.6949 608.00
54.7601 573.00
54.8253 596.00
54.8905 599.00
54.9557 550.00
55.0209 535.00
55.0861 572.00
55.1513 560.00
55.2165 535.00
55.2817 611.00
55.3469 603.00
55.4121 596.00
55.4773 589.00
55.5425 593.00
55.6077 606.00
55.6729 631.00
55.7381 622.00
55.8033 648.00
55.8685 704.00
55.9337 656.00
55.9989 662.00
56.0641 706.00
56.1293 881.00
56.1945 1413.00
56.2597 2786.00
56.3249 2382.00
56.3901 1881.00
56.4553 1972.00
56.5205 1284.00
56.5857 1519.00
56.6509 2937.00
56.7161 4242.00
56.7813 2533.00
56.8465 2661.00
56.9117 1674.00
56.9769 935.00
57.042 753.00
57.1073 630.00
57.1724 627.00
57.2376 576.00
57.3028 561.00
57.368 540.00
57.4332 572.00
57.4984 561.00
57.5636 526.00
57.6288 557.00
57.694 513.00
57.7592 549.00
57.8244 510.00
57.8896 521.00
57.9548 598.00
58.02 605.00
58.0852 577.00
58.1504 557.00
58.2156 544.00
58.2808 550.00
58.346 504.00
58.4112 551.00
58.4764 568.00
58.5416 549.00
58.6068 615.00
58.672 562.00
58.7372 550.00
58.8024 642.00
58.8676 664.00
58.9328 603.00
58.998 612.00
59.0632 619.00
59.1284 551.00
59.1936 572.00
59.2588 591.00
59.324 589.00
59.3892 657.00
59.4544 748.00
59.5196 1122.00
59.5848 1499.00
59.65 1081.00
59.7152 1124.00
59.7804 932.00
59.8456 634.00
59.9108 612.00
59.976 525.00
60.0412 553.00
60.1064 491.00
60.1716 531.00
60.2368 571.00
60.302 528.00
60.3672 521.00
60.4324 526.00
60.4976 540.00
60.5628 533.00
60.628 555.00
60.6932 569.00
60.7584 566.00
60.8236 509.00
60.8888 550.00
60.954 566.00
61.0192 576.00
61.0844 576.00
61.1496 576.00
61.2148 613.00
61.28 703.00
61.3452 881.00
61.4104 896.00
61.4756 820.00
61.5408 750.00
61.606 655.00
61.6712 559.00
61.7364 576.00
61.8016 518.00
61.8667 578.00
61.932 540.00
61.9971 580.00
62.0623 599.00
62.1275 592.00
62.1927 672.00
62.2579 890.00
62.3231 1371.00
62.3883 2557.00
62.4535 2764.00
62.5187 1881.00
62.5839 1947.00
62.6491 1488.00
62.7143 838.00
62.7795 655.00
62.8447 661.00
62.9099 624.00
62.9751 567.00
63.0403 553.00
63.1055 610.00
63.1707 566.00
63.2359 576.00
63.3011 594.00
63.3663 553.00
63.4315 539.00
63.4967 537.00
63.5619 550.00
63.6271 515.00
63.6923 558.00
63.7575 560.00
63.8227 543.00
63.8879 561.00
63.9531 511.00
64.0183 534.00
64.0835 541.00
64.1487 543.00
64.2139 570.00
64.2791 580.00
64.3443 597.00
64.4095 643.00
64.4747 686.00
64.5399 759.00
64.6051 946.00
64.6703 1774.00
64.7355 3672.00
64.8007 2700.00
64.8659 1823.00
64.9311 2337.00
64.9963 1322.00
65.0615 794.00
65.1267 653.00
65.1919 603.00
65.2571 611.00
65.3223 544.00
65.3875 530.00
65.4527 575.00
65.5179 530.00
65.5831 543.00
65.6483 535.00
65.7135 447.00
65.7787 532.00
65.8439 569.00
65.9091 571.00
65.9743 599.00
66.0395 553.00
66.1047 570.00
66.1699 627.00
66.2351 628.00
66.3003 724.00
66.3655 1159.00
66.4307 1836.00
66.4959 1397.00
66.561 1058.00
66.6263 1303.00
66.6915 832.00
66.7566 636.00
66.8218 555.00
66.887 572.00
66.9522 520.00
67.0174 510.00
67.0826 489.00
67.1478 545.00
67.213 479.00
67.2782 478.00
67.3434 552.00
67.4086 570.00
67.4738 593.00
67.539 672.00
67.6042 765.00
67.6694 1178.00
67.7346 889.00
67.7998 844.00
67.865 911.00
67.9302 706.00
67.9954 622.00
68.0606 501.00
68.1258 528.00
68.191 546.00
68.2562 537.00
68.3214 513.00
68.3866 516.00
68.4518 512.00
68.517 529.00
68.5822 528.00
68.6474 482.00
68.7126 482.00
68.7778 520.00
68.843 503.00
68.9082 513.00
68.9734 501.00
69.0386 523.00
69.1038 502.00
69.169 460.00
69.2342 513.00
69.2994 555.00
69.3646 498.00
69.4298 490.00
69.495 512.00
69.5602 501.00
69.6254 535.00
69.6906 481.00
69.7558 511.00
69.821 473.00
69.8862 525.00
69.9514 509.00
70.0166 468.00
70.0818 502.00
70.147 519.00
70.2122 516.00
70.2774 514.00
70.3426 498.00
70.4078 542.00
70.473 563.00
70.5382 539.00
70.6034 520.00
70.6686 608.00
70.7338 556.00
70.799 675.00
70.8642 832.00
70.9294 1323.00
70.9946 2160.00
71.0598 1778.00
71.125 1351.00
71.1902 1462.00
71.2554 1204.00
71.3205 830.00
71.3858 737.00
71.451 665.00
71.5162 607.00
71.5813 602.00
71.6465 626.00
71.7117 717.00
71.7769 841.00
71.8421 674.00
71.9073 738.00
71.9725 797.00
72.0377 1156.00
72.1029 1619.00
72.1681 1150.00
72.2333 912.00
72.2985 1096.00
72.3637 834.00
72.4289 609.00
72.4941 597.00
72.5593 593.00
72.6245 524.00
72.6897 545.00
72.7549 552.00
72.8201 516.00
72.8853 503.00
72.9505 558.00
73.0157 554.00
73.0809 556.00
73.1461 558.00
73.2113 620.00
73.2765 732.00
73.3417 636.00
73.4069 540.00
73.4721 597.00
73.5373 574.00
73.6025 569.00
73.6677 582.00
73.7329 523.00
73.7981 596.00
73.8633 701.00
73.9285 864.00
73.9937 753.00
74.0589 671.00
74.1241 684.00
74.1893 696.00
74.2545 577.00
74.3197 539.00
74.3849 544.00
74.4501 538.00
74.5153 541.00
74.5805 526.00
74.6457 535.00
74.7109 566.00
74.7761 535.00
74.8413 574.00
74.9065 635.00
74.9717 662.00
75.0369 696.00
75.1021 723.00
75.1673 783.00
75.2325 869.00
75.2977 967.00
75.3629 1368.00
75.4281 2517.00
75.4933 3947.00
75.5585 2445.00
75.6237 1856.00
75.6889 2213.00
75.7541 1826.00
75.8193 1116.00
75.8845 720.00
75.9497 717.00
76.0149 653.00
76.0801 632.00
76.1452 566.00
76.2104 555.00
76.2756 561.00
76.3409 478.00
76.406 513.00
76.4712 554.00
76.5364 549.00
76.6016 673.00
76.6668 588.00
76.732 579.00
76.7972 560.00
76.8624 589.00
76.9276 522.00
76.9928 508.00
77.058 504.00
77.1232 471.00
77.1884 521.00
77.2536 495.00
77.3188 522.00
77.384 522.00
77.4492 452.00
77.5144 498.00
77.5796 465.00
77.6448 515.00
77.71 521.00
77.7752 475.00
77.8404 537.00
77.9056 491.00
77.9708 509.00
78.036 487.00
78.1012 514.00
78.1664 485.00
78.2316 525.00
78.2968 488.00
78.362 479.00
78.4272 523.00
78.4924 536.00
78.5576 498.00
78.6228 469.00
78.688 453.00
78.7532 492.00
78.8184 456.00
78.8836 479.00
78.9488 492.00
79.014 463.00
79.0792 475.00
79.1444 474.00
79.2096 440.00
79.2748 441.00
79.34 456.00
79.4052 455.00
79.4704 468.00
79.5356 460.00
79.6008 464.00
79.666 475.00
79.7312 490.00
79.7964 483.00
79.8616 485.00
79.9268 476.00
79.992 506.00
80.0572 477.00
80.1224 453.00
80.1876 484.00
80.2528 456.00
80.318 465.00
80.3832 472.00
80.4484 473.00
80.5136 451.00
80.5788 465.00
80.644 434.00
80.7092 482.00
80.7744 465.00
80.8396 434.00
80.9048 480.00
80.9699 501.00
81.0351 464.00
81.1003 522.00
81.1655 491.00
81.2307 567.00
81.2959 634.00
81.3611 731.00
81.4263 624.00
81.4915 569.00
81.5567 579.00
81.6219 556.00
81.6871 558.00
81.7523 516.00
81.8175 453.00
81.8827 484.00
81.9479 463.00
82.0131 481.00
82.0783 468.00
82.1435 495.00
82.2087 465.00
82.2739 460.00
82.3391 485.00
82.4043 478.00
82.4695 457.00
82.5347 456.00
82.5999 484.00
82.6651 405.00
82.7303 463.00
82.7955 495.00
82.8607 462.00
82.9259 489.00
82.9911 461.00
83.0563 482.00
83.1215 466.00
83.1867 509.00
83.2519 463.00
83.3171 517.00
83.3823 496.00
83.4475 489.00
83.5127 556.00
83.5779 487.00
83.6431 572.00
83.7083 580.00
83.7735 559.00
83.8387 623.00
83.9039 698.00
83.9691 827.00
84.0343 1040.00
84.0995 1552.00
84.1647 2318.00
84.2299 1612.00
84.2951 1210.00
84.3603 1233.00
84.4255 1492.00
84.4907 1019.00
84.5559 751.00
84.6211 646.00
84.6863 589.00
84.7515 527.00
84.8167 544.00
84.8819 606.00
84.9471 549.00
85.0123 687.00
85.0775 825.00
85.1427 1057.00
85.2079 1290.00
85.2731 979.00
85.3383 908.00
85.4035 1001.00
85.4687 1218.00
85.5339 1250.00
85.5991 1198.00
85.6643 877.00
85.7295 804.00
85.7946 875.00
85.8598 795.00
85.925 697.00
85.9903 540.00
86.0554 527.00
86.1206 554.00
86.1858 473.00
86.251 517.00
86.3162 510.00
86.3814 479.00
86.4466 516.00
86.5118 498.00
86.577 450.00
86.6422 473.00
86.7074 480.00
86.7726 520.00
86.8378 485.00
86.903 528.00
86.9682 531.00
87.0334 556.00
87.0986 535.00
87.1638 613.00
87.229 708.00
87.2942 810.00
87.3594 735.00
87.4246 555.00
87.4898 618.00
87.555 644.00
87.6202 605.00
87.6854 548.00
87.7506 521.00
87.8158 535.00
87.881 485.00
87.9462 499.00
88.0114 483.00
88.0766 490.00
88.1418 437.00
88.207 500.00
88.2722 433.00
88.3374 470.00
88.4026 429.00
88.4678 506.00
88.533 488.00
88.5982 443.00
88.6634 448.00
88.7286 466.00
88.7938 478.00
88.859 486.00
88.9242 486.00
88.9894 497.00
89.0546 509.00
89.1198 474.00
89.185 475.00
89.2502 530.00
89.3154 485.00
89.3806 530.00
89.4458 481.00
89.511 546.00
89.5762 575.00
89.6414 638.00
89.7066 772.00
89.7718 987.00
89.837 872.00
89.9022 782.00
89.9674 736.00
90.0326 798.00
90.0978 767.00
90.163 652.00
90.2282 579.00
90.2934 558.00
90.3586 537.00
90.4238 553.00
90.489 592.00
90.5542 555.00
90.6193 581.00
90.6845 502.00
90.7497 546.00
90.8149 469.00
90.8801 554.00
90.9453 557.00
91.0105 528.00
91.0757 505.00
91.1409 518.00
91.2061 458.00
91.2713 501.00
91.3365 516.00
91.4017 511.00
91.4669 501.00
91.5321 517.00
91.5973 562.00
91.6625 551.00
91.7277 665.00
91.7929 958.00
91.8581 1101.00
91.9233 885.00
91.9885 779.00
92.0537 813.00
92.1189 855.00
92.1841 739.00
92.2493 675.00
92.3145 585.00
92.3797 540.00
92.4449 529.00
92.5101 478.00
92.5753 459.00
92.6405 507.00
92.7057 509.00
92.7709 497.00
92.8361 513.00
92.9013 490.00
92.9665 432.00
93.0317 481.00
93.0969 524.00
93.1621 462.00
93.2273 473.00
93.2925 465.00
93.3577 470.00
93.4229 475.00
93.4881 440.00
93.5533 449.00
93.6185 476.00
93.6837 479.00
93.7489 473.00
93.8141 458.00
93.8793 493.00
93.9445 461.00
94.0097 497.00
94.0749 480.00
94.1401 500.00
94.2053 504.00
94.2705 486.00
94.3357 522.00
94.4009 597.00
94.4661 686.00
94.5313 842.00
94.5965 669.00
94.6617 645.00
94.7269 624.00
94.7921 587.00
94.8573 640.00
94.9225 575.00
94.9877 535.00
95.0529 501.00
95.1181 490.00
95.1833 534.00
95.2485 517.00
95.3137 482.00
95.3789 520.00
95.444 509.00
95.5092 503.00
95.5744 538.00
95.6396 591.00
95.7048 703.00
95.77 644.00
95.8352 611.00
95.9004 541.00
95.9656 537.00
96.0308 576.00
96.096 636.00
96.1612 544.00
96.2264 526.00
96.2916 523.00
96.3568 493.00
96.422 487.00
96.4872 475.00
96.5524 489.00
96.6176 519.00
96.6828 503.00
96.748 493.00
96.8132 510.00
96.8784 454.00
96.9436 491.00
97.0088 516.00
97.074 492.00
97.1392 483.00
97.2044 518.00
97.2696 465.00
97.3348 548.00
97.4 502.00
97.4652 515.00
97.5304 673.00
97.5956 870.00
97.6608 1024.00
97.726 823.00
97.7912 697.00
97.8564 654.00
97.9216 720.00
97.9868 721.00
98.052 675.00
98.1172 555.00
98.1824 511.00
98.2476 545.00
98.3128 508.00
98.378 488.00
98.4432 496.00
98.5084 495.00
98.5736 501.00
98.6388 500.00
98.704 505.00
98.7692 564.00
98.8344 548.00
98.8996 514.00
98.9648 517.00
99.03 534.00
99.0952 542.00
99.1604 528.00
99.2256 498.00
99.2908 504.00
99.356 445.00
99.4212 495.00
99.4864 465.00
99.5516 385.00
99.6168 515.00
99.682 477.00
99.7472 441.00
99.8124 452.00
99.8776 463.00
99.9428 473.00
100.008 438.00
100.073 456.00
100.095 450.00