File: data/xrd_creation/results/Na_55.xy
9.903433 2954.00
9.968632 2922.00
10.0338 2826.00
10.099 2819.00
10.1642 2834.00
10.2294 2778.00
10.2946 2737.00
10.3598 2719.00
10.425 2754.00
10.4902 2639.00
10.5554 2752.00
10.6206 2556.00
10.6858 2633.00
10.751 2681.00
10.8162 2618.00
10.8814 2690.00
10.9466 2548.00
11.0118 2574.00
11.077 2547.00
11.1422 2484.00
11.2074 2581.00
11.2726 2456.00
11.3378 2484.00
11.403 2485.00
11.4682 2438.00
11.5334 2410.00
11.5986 2360.00
11.6638 2385.00
11.729 2377.00
11.7942 2340.00
11.8594 2401.00
11.9246 2307.00
11.9898 2364.00
12.055 2370.00
12.1202 2351.00
12.1854 2296.00
12.2506 2255.00
12.3158 2346.00
12.381 2279.00
12.4462 2251.00
12.5114 2225.00
12.5766 2245.00
12.6418 2259.00
12.707 2130.00
12.7722 2164.00
12.8374 2162.00
12.9026 2075.00
12.9678 2154.00
13.033 2155.00
13.0982 2106.00
13.1634 2113.00
13.2286 2158.00
13.2938 2046.00
13.359 2137.00
13.4242 2071.00
13.4894 2027.00
13.5546 2073.00
13.6198 2092.00
13.685 2044.00
13.7502 2090.00
13.8154 2046.00
13.8805 2102.00
13.9457 2073.00
14.0109 2025.00
14.0761 1990.00
14.1413 2054.00
14.2065 1956.00
14.2717 1963.00
14.3369 1975.00
14.4021 2013.00
14.4673 1993.00
14.5325 2019.00
14.5977 2009.00
14.6629 2002.00
14.7281 1991.00
14.7933 1892.00
14.8585 1847.00
14.9237 1963.00
14.9889 1998.00
15.0541 2008.00
15.1193 1935.00
15.1845 1969.00
15.2497 1989.00
15.3149 1956.00
15.3801 1965.00
15.4453 1970.00
15.5105 2022.00
15.5757 1927.00
15.6409 1985.00
15.7061 1927.00
15.7713 1935.00
15.8365 1988.00
15.9017 1930.00
15.9669 1849.00
16.0321 1926.00
16.0973 1912.00
16.1625 1875.00
16.2277 1951.00
16.2929 1896.00
16.3581 1958.00
16.4233 1965.00
16.4885 1920.00
16.5537 1967.00
16.6189 1888.00
16.6841 1928.00
16.7493 1981.00
16.8145 1994.00
16.8797 1882.00
16.9449 1916.00
17.0101 1918.00
17.0753 1871.00
17.1405 1873.00
17.2057 1848.00
17.2709 1961.00
17.3361 1937.00
17.4013 1918.00
17.4665 1951.00
17.5317 1911.00
17.5969 1840.00
17.6621 1846.00
17.7273 1895.00
17.7925 1873.00
17.8577 1946.00
17.9229 1891.00
17.9881 1895.00
18.0533 1889.00
18.1185 1814.00
18.1837 1909.00
18.2489 1837.00
18.3141 1878.00
18.3793 1907.00
18.4445 1914.00
18.5097 1883.00
18.5749 1942.00
18.6401 1902.00
18.7052 1861.00
18.7704 1869.00
18.8356 1897.00
18.9008 1916.00
18.966 1905.00
19.0312 1889.00
19.0964 1859.00
19.1616 1875.00
19.2268 1942.00
19.292 1930.00
19.3572 1908.00
19.4224 1899.00
19.4876 1906.00
19.5528 1883.00
19.618 1941.00
19.6832 1867.00
19.7484 1939.00
19.8136 1887.00
19.8788 1913.00
19.944 1951.00
20.0092 1857.00
20.0744 1911.00
20.1396 1836.00
20.2048 1917.00
20.27 1821.00
20.3352 1958.00
20.4004 1938.00
20.4656 1925.00
20.5308 1863.00
20.596 1893.00
20.6612 1945.00
20.7264 1854.00
20.7916 1869.00
20.8568 1927.00
20.922 1919.00
20.9872 1889.00
21.0524 1860.00
21.1176 1862.00
21.1828 1898.00
21.248 1949.00
21.3132 1818.00
21.3784 1877.00
21.4436 1937.00
21.5088 2006.00
21.574 2173.00
21.6392 2492.00
21.7044 3024.00
21.7696 3677.00
21.8348 3882.00
21.9 3202.00
21.9652 2669.00
22.0304 2105.00
22.0956 1980.00
22.1608 1841.00
22.226 1901.00
22.2912 1864.00
22.3564 1956.00
22.4216 1891.00
22.4868 1847.00
22.552 1838.00
22.6172 1822.00
22.6824 1748.00
22.7476 1909.00
22.8128 1839.00
22.878 1867.00
22.9432 1714.00
23.0084 1821.00
23.0736 1789.00
23.1388 1770.00
23.204 1755.00
23.2692 1779.00
23.3344 1763.00
23.3996 1755.00
23.4647 1735.00
23.5299 1712.00
23.5951 1737.00
23.6603 1727.00
23.7255 1771.00
23.7907 1723.00
23.8559 1739.00
23.9211 1735.00
23.9863 1827.00
24.0515 1777.00
24.1167 1748.00
24.1819 1769.00
24.2471 1817.00
24.3123 1815.00
24.3775 1791.00
24.4427 1706.00
24.5079 1735.00
24.5731 1706.00
24.6383 1770.00
24.7035 1802.00
24.7687 1723.00
24.8339 1697.00
24.8991 1738.00
24.9643 1683.00
25.0295 1660.00
25.0947 1728.00
25.1599 1691.00
25.2251 1699.00
25.2903 1811.00
25.3555 1740.00
25.4207 1709.00
25.4859 1690.00
25.5511 1724.00
25.6163 1714.00
25.6815 1719.00
25.7467 1752.00
25.8119 1820.00
25.8771 2053.00
25.9423 2252.00
26.0075 2366.00
26.0727 2408.00
26.1379 2271.00
26.2031 2050.00
26.2683 1888.00
26.3335 1770.00
26.3987 1748.00
26.4639 1710.00
26.5291 1815.00
26.5943 1753.00
26.6595 1823.00
26.7247 2007.00
26.7899 2034.00
26.8551 1996.00
26.9203 1996.00
26.9855 1941.00
27.0507 1871.00
27.1159 1759.00
27.1811 1750.00
27.2463 1639.00
27.3115 1597.00
27.3767 1742.00
27.4419 1689.00
27.5071 1632.00
27.5723 1655.00
27.6375 1649.00
27.7027 1700.00
27.7679 1599.00
27.8331 1685.00
27.8983 1716.00
27.9635 1650.00
28.0287 1733.00
28.0939 1708.00
28.1591 1785.00
28.2243 1663.00
28.2894 1699.00
28.3546 1622.00
28.4198 1739.00
28.485 1642.00
28.5502 1613.00
28.6154 1674.00
28.6806 1619.00
28.7458 1680.00
28.811 1695.00
28.8762 1629.00
28.9414 1659.00
29.0066 1702.00
29.0718 1636.00
29.137 1718.00
29.2022 1655.00
29.2674 1730.00
29.3326 1677.00
29.3978 1677.00
29.463 1667.00
29.5282 1655.00
29.5934 1626.00
29.6586 1781.00
29.7238 1712.00
29.789 1799.00
29.8542 1877.00
29.9194 2184.00
29.9846 2448.00
30.0498 2692.00
30.115 2972.00
30.1802 3033.00
30.2454 2921.00
30.3106 2636.00
30.3758 2381.00
30.441 2181.00
30.5062 1933.00
30.5714 2015.00
30.6366 1914.00
30.7018 2001.00
30.767 2126.00
30.8322 2453.00
30.8974 3367.00
30.9626 5246.00
31.0278 7499.00
31.093 7986.00
31.1582 6217.00
31.2234 4179.00
31.2886 3002.00
31.3538 2119.00
31.419 1923.00
31.4842 1750.00
31.5494 1721.00
31.6146 1643.00
31.6798 1626.00
31.745 1602.00
31.8102 1596.00
31.8754 1624.00
31.9406 1576.00
32.0058 1551.00
32.071 1625.00
32.1362 1573.00
32.2014 1597.00
32.2666 1572.00
32.3318 1543.00
32.397 1636.00
32.4622 1633.00
32.5274 1563.00
32.5926 1528.00
32.6578 1573.00
32.723 1639.00
32.7882 1495.00
32.8534 1490.00
32.9186 1532.00
32.9838 1552.00
33.0489 1504.00
33.1141 1523.00
33.1793 1507.00
33.2445 1554.00
33.3097 1459.00
33.3749 1511.00
33.4401 1575.00
33.5053 1502.00
33.5705 1517.00
33.6357 1507.00
33.7009 1512.00
33.7661 1506.00
33.8313 1446.00
33.8965 1443.00
33.9617 1500.00
34.0269 1473.00
34.0921 1413.00
34.1573 1434.00
34.2225 1442.00
34.2877 1447.00
34.3529 1400.00
34.4181 1415.00
34.4833 1470.00
34.5485 1389.00
34.6137 1433.00
34.6789 1393.00
34.7441 1420.00
34.8093 1424.00
34.8745 1447.00
34.9397 1429.00
35.0049 1454.00
35.0701 1394.00
35.1353 1432.00
35.2005 1363.00
35.2657 1428.00
35.3309 1469.00
35.3961 1368.00
35.4613 1338.00
35.5265 1450.00
35.5917 1368.00
35.6569 1356.00
35.7221 1358.00
35.7873 1318.00
35.8525 1350.00
35.9177 1376.00
35.9829 1361.00
36.0481 1436.00
36.1133 1387.00
36.1785 1393.00
36.2437 1362.00
36.3089 1284.00
36.3741 1331.00
36.4393 1407.00
36.5045 1339.00
36.5697 1382.00
36.6349 1319.00
36.7001 1350.00
36.7653 1422.00
36.8305 1352.00
36.8957 1279.00
36.9609 1329.00
37.0261 1332.00
37.0913 1388.00
37.1565 1316.00
37.2217 1301.00
37.2869 1250.00
37.3521 1377.00
37.4173 1326.00
37.4825 1319.00
37.5477 1326.00
37.6129 1357.00
37.6781 1337.00
37.7433 1341.00
37.8085 1318.00
37.8736 1341.00
37.9388 1352.00
38.004 1302.00
38.0692 1391.00
38.1344 1460.00
38.1996 1672.00
38.2648 2007.00
38.33 2069.00
38.3952 1880.00
38.4604 1600.00
38.5256 1418.00
38.5908 1287.00
38.656 1382.00
38.7212 1297.00
38.7864 1299.00
38.8516 1330.00
38.9168 1350.00
38.982 1299.00
39.0472 1230.00
39.1124 1225.00
39.1776 1227.00
39.2428 1231.00
39.308 1254.00
39.3732 1257.00
39.4384 1178.00
39.5036 1262.00
39.5688 1287.00
39.634 1227.00
39.6992 1340.00
39.7644 1247.00
39.8296 1273.00
39.8948 1183.00
39.96 1270.00
40.0252 1257.00
40.0904 1234.00
40.1556 1337.00
40.2208 1303.00
40.286 1234.00
40.3512 1281.00
40.4164 1289.00
40.4816 1247.00
40.5468 1273.00
40.612 1252.00
40.6772 1279.00
40.7424 1230.00
40.8076 1300.00
40.8728 1251.00
40.938 1243.00
41.0032 1251.00
41.0684 1280.00
41.1336 1237.00
41.1988 1233.00
41.264 1233.00
41.3292 1260.00
41.3944 1243.00
41.4596 1225.00
41.5248 1151.00
41.59 1253.00
41.6552 1233.00
41.7204 1233.00
41.7856 1145.00
41.8508 1148.00
41.916 1239.00
41.9812 1247.00
42.0464 1264.00
42.1116 1190.00
42.1768 1218.00
42.242 1219.00
42.3072 1217.00
42.3724 1181.00
42.4376 1167.00
42.5028 1205.00
42.568 1152.00
42.6332 1161.00
42.6983 1269.00
42.7635 1287.00
42.8287 1224.00
42.8939 1286.00
42.9591 1314.00
43.0243 1631.00
43.0895 1675.00
43.1547 1915.00
43.2199 1986.00
43.2851 1949.00
43.3503 1797.00
43.4155 1696.00
43.4807 1547.00
43.5459 1424.00
43.6111 1346.00
43.6763 1340.00
43.7415 1229.00
43.8067 1230.00
43.8719 1257.00
43.9371 1253.00
44.0023 1167.00
44.0675 1269.00
44.1327 1265.00
44.1979 1323.00
44.2631 1325.00
44.3283 1434.00
44.3935 1648.00
44.4587 1935.00
44.5239 2382.00
44.5891 2207.00
44.6543 2209.00
44.7195 1810.00
44.7847 1603.00
44.8499 1410.00
44.9151 1356.00
44.9803 1263.00
45.0455 1174.00
45.1107 1174.00
45.1759 1082.00
45.2411 1161.00
45.3063 1124.00
45.3715 1100.00
45.4367 1144.00
45.5019 1079.00
45.5671 1119.00
45.6323 1041.00
45.6975 1048.00
45.7627 1042.00
45.8279 1090.00
45.8931 1068.00
45.9583 1012.00
46.0235 1093.00
46.0887 1080.00
46.1539 1032.00
46.2191 1083.00
46.2843 1071.00
46.3495 1104.00
46.4147 1013.00
46.4799 1049.00
46.5451 1112.00
46.6103 1084.00
46.6755 1052.00
46.7407 1079.00
46.8059 1053.00
46.8711 1016.00
46.9363 1066.00
47.0015 1101.00
47.0667 1061.00
47.1319 1037.00
47.1971 999.00
47.2623 1091.00
47.3275 1012.00
47.3927 1059.00
47.4579 1013.00
47.523 1009.00
47.5882 1005.00
47.6534 1011.00
47.7186 1064.00
47.7838 1068.00
47.849 1024.00
47.9142 978.00
47.9794 1028.00
48.0446 1017.00
48.1098 1059.00
48.175 1015.00
48.2402 1043.00
48.3054 940.00
48.3706 1059.00
48.4358 1024.00
48.501 1006.00
48.5662 969.00
48.6314 1011.00
48.6966 951.00
48.7618 1041.00
48.827 983.00
48.8922 1018.00
48.9574 979.00
49.0226 1054.00
49.0878 1066.00
49.153 1019.00
49.2182 1038.00
49.2834 1066.00
49.3486 1018.00
49.4138 1014.00
49.479 988.00
49.5442 1017.00
49.6094 991.00
49.6746 1041.00
49.7398 1020.00
49.805 1033.00
49.8702 1071.00
49.9354 989.00
50.0006 1262.00
50.0658 1699.00
50.131 1912.00
50.1962 1814.00
50.2614 1633.00
50.3266 1296.00
50.3918 1178.00
50.457 1063.00
50.5222 960.00
50.5874 1010.00
50.6526 1012.00
50.7178 1095.00
50.783 1088.00
50.8482 1088.00
50.9134 1077.00
50.9786 1121.00
51.0438 1170.00
51.109 1134.00
51.1742 1180.00
51.2394 1222.00
51.3046 1145.00
51.3698 1186.00
51.435 1120.00
51.5002 1070.00
51.5654 1042.00
51.6306 1038.00
51.6958 970.00
51.761 954.00
51.8262 979.00
51.8914 1036.00
51.9566 965.00
52.0218 1038.00
52.087 1044.00
52.1522 932.00
52.2174 1018.00
52.2826 953.00
52.3477 985.00
52.4129 958.00
52.4781 1056.00
52.5433 1029.00
52.6085 1003.00
52.6737 1043.00
52.7389 1048.00
52.8041 1079.00
52.8693 1036.00
52.9345 1016.00
52.9997 1061.00
53.0649 986.00
53.1301 978.00
53.1953 1024.00
53.2605 988.00
53.3257 983.00
53.3909 1045.00
53.4561 1047.00
53.5213 1139.00
53.5865 1156.00
53.6517 1145.00
53.7169 1146.00
53.7821 1111.00
53.8473 1111.00
53.9125 1103.00
53.9777 1070.00
54.0429 1023.00
54.1081 1032.00
54.1733 987.00
54.2385 1041.00
54.3037 996.00
54.3689 996.00
54.4341 986.00
54.4993 987.00
54.5645 943.00
54.6297 1057.00
54.6949 956.00
54.7601 988.00
54.8253 1014.00
54.8905 1006.00
54.9557 1013.00
55.0209 1045.00
55.0861 1102.00
55.1513 1179.00
55.2165 1601.00
55.2817 2052.00
55.3469 2091.00
55.4121 1991.00
55.4773 1870.00
55.5425 1396.00
55.6077 1180.00
55.6729 1109.00
55.7381 1062.00
55.8033 1005.00
55.8685 940.00
55.9337 966.00
55.9989 980.00
56.0641 945.00
56.1293 923.00
56.1945 1018.00
56.2597 865.00
56.3249 941.00
56.3901 910.00
56.4553 978.00
56.5205 919.00
56.5857 926.00
56.6509 956.00
56.7161 965.00
56.7813 953.00
56.8465 919.00
56.9117 948.00
56.9769 956.00
57.042 947.00
57.1073 881.00
57.1724 936.00
57.2376 955.00
57.3028 933.00
57.368 943.00
57.4332 911.00
57.4984 998.00
57.5636 941.00
57.6288 954.00
57.694 910.00
57.7592 926.00
57.8244 940.00
57.8896 900.00
57.9548 910.00
58.02 969.00
58.0852 930.00
58.1504 929.00
58.2156 939.00
58.2808 909.00
58.346 856.00
58.4112 971.00
58.4764 888.00
58.5416 871.00
58.6068 942.00
58.672 900.00
58.7372 890.00
58.8024 926.00
58.8676 887.00
58.9328 909.00
58.998 892.00
59.0632 893.00
59.1284 934.00
59.1936 952.00
59.2588 885.00
59.324 905.00
59.3892 958.00
59.4544 902.00
59.5196 957.00
59.5848 952.00
59.65 944.00
59.7152 901.00
59.7804 960.00
59.8456 941.00
59.9108 919.00
59.976 921.00
60.0412 924.00
60.1064 870.00
60.1716 814.00
60.2368 955.00
60.302 967.00
60.3672 982.00
60.4324 953.00
60.4976 896.00
60.5628 915.00
60.628 934.00
60.6932 930.00
60.7584 886.00
60.8236 928.00
60.8888 901.00
60.954 923.00
61.0192 921.00
61.0844 919.00
61.1496 940.00
61.2148 909.00
61.28 907.00
61.3452 869.00
61.4104 898.00
61.4756 857.00
61.5408 915.00
61.606 869.00
61.6712 864.00
61.7364 910.00
61.8016 895.00
61.8667 878.00
61.932 922.00
61.9971 893.00
62.0623 888.00
62.1275 901.00
62.1927 890.00
62.2579 943.00
62.3231 925.00
62.3883 937.00
62.4535 966.00
62.5187 910.00
62.5839 907.00
62.6491 952.00
62.7143 949.00
62.7795 931.00
62.8447 951.00
62.9099 924.00
62.9751 965.00
63.0403 881.00
63.1055 957.00
63.1707 933.00
63.2359 846.00
63.3011 896.00
63.3663 931.00
63.4315 893.00
63.4967 921.00
63.5619 896.00
63.6271 904.00
63.6923 938.00
63.7575 815.00
63.8227 831.00
63.8879 894.00
63.9531 926.00
64.0183 907.00
64.0835 895.00
64.1487 884.00
64.2139 870.00
64.2791 894.00
64.3443 922.00
64.4095 880.00
64.4747 894.00
64.5399 899.00
64.6051 874.00
64.6703 929.00
64.7355 1059.00
64.8007 1224.00
64.8659 1313.00
64.9311 1145.00
64.9963 1140.00
65.0615 999.00
65.1267 991.00
65.1919 944.00
65.2571 907.00
65.3223 873.00
65.3875 934.00
65.4527 853.00
65.5179 872.00
65.5831 813.00
65.6483 845.00
65.7135 860.00
65.7787 875.00
65.8439 836.00
65.9091 858.00
65.9743 848.00
66.0395 817.00
66.1047 886.00
66.1699 850.00
66.2351 850.00
66.3003 784.00
66.3655 804.00
66.4307 827.00
66.4959 859.00
66.561 883.00
66.6263 826.00
66.6915 826.00
66.7566 845.00
66.8218 888.00
66.887 888.00
66.9522 804.00
67.0174 836.00
67.0826 832.00
67.1478 798.00
67.213 843.00
67.2782 878.00
67.3434 841.00
67.4086 870.00
67.4738 869.00
67.539 819.00
67.6042 833.00
67.6694 841.00
67.7346 835.00
67.7998 878.00
67.865 822.00
67.9302 815.00
67.9954 925.00
68.0606 777.00
68.1258 773.00
68.191 798.00
68.2562 852.00
68.3214 803.00
68.3866 827.00
68.4518 822.00
68.517 859.00
68.5822 865.00
68.6474 849.00
68.7126 814.00
68.7778 882.00
68.843 874.00
68.9082 841.00
68.9734 885.00
69.0386 855.00
69.1038 884.00
69.169 947.00
69.2342 1073.00
69.2994 1222.00
69.3646 1178.00
69.4298 1106.00
69.495 1099.00
69.5602 1025.00
69.6254 1075.00
69.6906 881.00
69.7558 890.00
69.821 853.00
69.8862 902.00
69.9514 813.00
70.0166 813.00
70.0818 819.00
70.147 879.00
70.2122 833.00
70.2774 742.00
70.3426 847.00
70.4078 784.00
70.473 853.00
70.5382 817.00
70.6034 843.00
70.6686 812.00
70.7338 830.00
70.799 854.00
70.8642 860.00
70.9294 907.00
70.9946 896.00
71.0598 911.00
71.125 1019.00
71.1902 975.00
71.2554 941.00
71.3205 973.00
71.3858 999.00
71.451 980.00
71.5162 920.00
71.5813 952.00
71.6465 844.00
71.7117 919.00
71.7769 889.00
71.8421 865.00
71.9073 878.00
71.9725 891.00
72.0377 790.00
72.1029 810.00
72.1681 788.00
72.2333 861.00
72.2985 846.00
72.3637 856.00
72.4289 842.00
72.4941 789.00
72.5593 819.00
72.6245 858.00
72.6897 797.00
72.7549 819.00
72.8201 848.00
72.8853 828.00
72.9505 792.00
73.0157 854.00
73.0809 856.00
73.1461 788.00
73.2113 777.00
73.2765 875.00
73.3417 853.00
73.4069 859.00
73.4721 933.00
73.5373 934.00
73.6025 1110.00
73.6677 1257.00
73.7329 1157.00
73.7981 1048.00
73.8633 1014.00
73.9285 1048.00
73.9937 924.00
74.0589 929.00
74.1241 877.00
74.1893 811.00
74.2545 822.00
74.3197 859.00
74.3849 801.00
74.4501 786.00
74.5153 815.00
74.5805 716.00
74.6457 770.00
74.7109 824.00
74.7761 812.00
74.8413 756.00
74.9065 795.00
74.9717 785.00
75.0369 820.00
75.1021 778.00
75.1673 759.00
75.2325 747.00
75.2977 701.00
75.3629 784.00
75.4281 826.00
75.4933 805.00
75.5585 805.00
75.6237 759.00
75.6889 797.00
75.7541 890.00
75.8193 794.00
75.8845 767.00
75.9497 791.00
76.0149 807.00
76.0801 785.00
76.1452 807.00
76.2104 789.00
76.2756 793.00
76.3409 775.00
76.406 758.00
76.4712 798.00
76.5364 804.00
76.6016 748.00
76.6668 791.00
76.732 833.00
76.7972 805.00
76.8624 830.00
76.9276 809.00
76.9928 828.00
77.058 785.00
77.1232 788.00
77.1884 809.00
77.2536 811.00
77.3188 783.00
77.384 831.00
77.4492 743.00
77.5144 802.00
77.5796 778.00
77.6448 786.00
77.71 818.00
77.7752 867.00
77.8404 889.00
77.9056 932.00
77.9708 954.00
78.036 859.00
78.1012 896.00
78.1664 849.00
78.2316 850.00
78.2968 805.00
78.362 836.00
78.4272 779.00
78.4924 788.00
78.5576 811.00
78.6228 841.00
78.688 826.00
78.7532 808.00
78.8184 814.00
78.8836 826.00
78.9488 795.00
79.014 812.00
79.0792 817.00
79.1444 800.00
79.2096 846.00
79.2748 899.00
79.34 893.00
79.4052 908.00
79.4704 876.00
79.5356 933.00
79.6008 812.00
79.666 797.00
79.7312 863.00
79.7964 834.00
79.8616 841.00
79.9268 816.00
79.992 819.00
80.0572 837.00
80.1224 761.00
80.1876 809.00
80.2528 833.00
80.318 814.00
80.3832 777.00
80.4484 794.00
80.5136 830.00
80.5788 861.00
80.644 784.00
80.7092 796.00
80.7744 764.00
80.8396 789.00
80.9048 784.00
80.9699 839.00
81.0351 774.00
81.1003 760.00
81.1655 796.00
81.2307 815.00
81.2959 802.00
81.3611 728.00
81.4263 781.00
81.4915 736.00
81.5567 774.00
81.6219 812.00
81.6871 805.00
81.7523 797.00
81.8175 820.00
81.8827 799.00
81.9479 859.00
82.0131 914.00
82.0783 863.00
82.1435 899.00
82.2087 846.00
82.2739 838.00
82.3391 819.00
82.4043 845.00
82.4695 866.00
82.5347 778.00
82.5999 766.00
82.6651 835.00
82.7303 728.00
82.7955 802.00
82.8607 826.00
82.9259 763.00
82.9911 794.00
83.0563 754.00
83.1215 790.00
83.1867 776.00
83.2519 786.00
83.3171 774.00
83.3823 758.00
83.4475 732.00
83.5127 748.00
83.5779 695.00
83.6431 745.00
83.7083 732.00
83.7735 766.00
83.8387 722.00
83.9039 780.00
83.9691 769.00
84.0343 828.00
84.0995 745.00
84.1647 783.00
84.2299 751.00
84.2951 808.00
84.3603 759.00
84.4255 782.00
84.4907 744.00
84.5559 757.00
84.6211 756.00
84.6863 737.00
84.7515 729.00
84.8167 729.00
84.8819 789.00
84.9471 772.00
85.0123 738.00
85.0775 760.00
85.1427 814.00
85.2079 814.00
85.2731 782.00
85.3383 826.00
85.4035 833.00
85.4687 774.00
85.5339 764.00
85.5991 785.00
85.6643 808.00
85.7295 845.00
85.7946 759.00
85.8598 735.00
85.925 794.00
85.9903 800.00
86.0554 728.00
86.1206 792.00
86.1858 782.00
86.251 867.00
86.3162 863.00
86.3814 833.00
86.4466 840.00
86.5118 797.00
86.577 810.00
86.6422 770.00
86.7074 822.00
86.7726 795.00
86.8378 790.00
86.903 773.00
86.9682 730.00
87.0334 736.00
87.0986 746.00
87.1638 773.00
87.229 781.00
87.2942 764.00
87.3594 770.00
87.4246 688.00
87.4898 808.00
87.555 744.00
87.6202 731.00
87.6854 741.00
87.7506 781.00
87.8158 805.00
87.881 768.00
87.9462 701.00
88.0114 793.00
88.0766 735.00
88.1418 773.00
88.207 697.00
88.2722 741.00
88.3374 784.00
88.4026 780.00
88.4678 781.00
88.533 750.00
88.5982 749.00
88.6634 775.00
88.7286 761.00
88.7938 813.00
88.859 723.00
88.9242 719.00
88.9894 751.00
89.0546 787.00
89.1198 719.00
89.185 712.00
89.2502 719.00
89.3154 703.00
89.3806 759.00
89.4458 790.00
89.511 791.00
89.5762 750.00
89.6414 758.00
89.7066 731.00
89.7718 754.00
89.837 694.00
89.9022 760.00
89.9674 733.00
90.0326 804.00
90.0978 770.00
90.163 792.00
90.2282 756.00
90.2934 851.00
90.3586 988.00
90.4238 1001.00
90.489 992.00
90.5542 774.00
90.6193 853.00
90.6845 918.00
90.7497 819.00
90.8149 745.00
90.8801 774.00
90.9453 747.00
91.0105 770.00
91.0757 774.00
91.1409 771.00
91.2061 783.00
91.2713 734.00
91.3365 758.00
91.4017 710.00
91.4669 749.00
91.5321 712.00
91.5973 767.00
91.6625 720.00
91.7277 743.00
91.7929 717.00
91.8581 758.00
91.9233 749.00
91.9885 773.00
92.0537 809.00
92.1189 664.00
92.1841 699.00
92.2493 755.00
92.3145 732.00
92.3797 701.00
92.4449 725.00
92.5101 682.00
92.5753 723.00
92.6405 701.00
92.7057 698.00
92.7709 731.00
92.8361 736.00
92.9013 716.00
92.9665 763.00
93.0317 784.00
93.0969 738.00
93.1621 719.00
93.2273 775.00
93.2925 757.00
93.3577 711.00
93.4229 738.00
93.4881 748.00
93.5533 701.00
93.6185 740.00
93.6837 729.00
93.7489 739.00
93.8141 764.00
93.8793 716.00
93.9445 784.00
94.0097 771.00
94.0749 695.00
94.1401 749.00
94.2053 754.00
94.2705 720.00
94.3357 783.00
94.4009 793.00
94.4661 815.00
94.5313 713.00
94.5965 750.00
94.6617 774.00
94.7269 733.00
94.7921 707.00
94.8573 779.00
94.9225 777.00
94.9877 763.00
95.0529 713.00
95.1181 753.00
95.1833 797.00
95.2485 723.00
95.3137 803.00
95.3789 732.00
95.444 785.00
95.5092 792.00
95.5744 725.00
95.6396 792.00
95.7048 724.00
95.77 800.00
95.8352 780.00
95.9004 783.00
95.9656 720.00
96.0308 756.00
96.096 762.00
96.1612 768.00
96.2264 705.00
96.2916 715.00
96.3568 783.00
96.422 714.00
96.4872 770.00
96.5524 743.00
96.6176 725.00
96.6828 791.00
96.748 754.00
96.8132 720.00
96.8784 767.00
96.9436 734.00
97.0088 731.00
97.074 682.00
97.1392 723.00
97.2044 636.00
97.2696 737.00
97.3348 726.00
97.4 682.00
97.4652 732.00
97.5304 738.00
97.5956 711.00
97.6608 745.00
97.726 702.00
97.7912 764.00
97.8564 656.00
97.9216 732.00
97.9868 763.00
98.052 747.00
98.1172 700.00
98.1824 711.00
98.2476 776.00
98.3128 746.00
98.378 736.00
98.4432 741.00
98.5084 738.00
98.5736 774.00
98.6388 779.00
98.704 811.00
98.7692 749.00
98.8344 754.00
98.8996 722.00
98.9648 709.00
99.03 754.00
99.0952 736.00
99.1604 746.00
99.2256 743.00
99.2908 691.00
99.356 704.00
99.4212 723.00
99.4864 735.00
99.5516 697.00
99.6168 766.00
99.682 714.00
99.7472 720.00
99.8124 705.00
99.8776 768.00
99.9428 714.00
100.008 696.00
100.073 737.00
100.095 786.00