File: data/xrd_creation/results/Na_53.xy
9.903433 3158.00
9.968632 3154.00
10.0338 3083.00
10.099 3163.00
10.1642 3028.00
10.2294 3230.00
10.2946 3102.00
10.3598 2991.00
10.425 2967.00
10.4902 2954.00
10.5554 2900.00
10.6206 2941.00
10.6858 2926.00
10.751 2926.00
10.8162 2919.00
10.8814 2956.00
10.9466 2781.00
11.0118 2851.00
11.077 2905.00
11.1422 2761.00
11.2074 2784.00
11.2726 2792.00
11.3378 2824.00
11.403 2746.00
11.4682 2751.00
11.5334 2723.00
11.5986 2673.00
11.6638 2743.00
11.729 2547.00
11.7942 2694.00
11.8594 2678.00
11.9246 2674.00
11.9898 2652.00
12.055 2505.00
12.1202 2517.00
12.1854 2598.00
12.2506 2637.00
12.3158 2644.00
12.381 2418.00
12.4462 2546.00
12.5114 2556.00
12.5766 2564.00
12.6418 2566.00
12.707 2447.00
12.7722 2481.00
12.8374 2502.00
12.9026 2411.00
12.9678 2484.00
13.033 2448.00
13.0982 2421.00
13.1634 2546.00
13.2286 2440.00
13.2938 2404.00
13.359 2451.00
13.4242 2415.00
13.4894 2477.00
13.5546 2535.00
13.6198 2574.00
13.685 2769.00
13.7502 2952.00
13.8154 3492.00
13.8805 3935.00
13.9457 4392.00
14.0109 4422.00
14.0761 3590.00
14.1413 3196.00
14.2065 3726.00
14.2717 4451.00
14.3369 5468.00
14.4021 6924.00
14.4673 7529.00
14.5325 5443.00
14.5977 3242.00
14.6629 2693.00
14.7281 2570.00
14.7933 2516.00
14.8585 2669.00
14.9237 2702.00
14.9889 2744.00
15.0541 3041.00
15.1193 3484.00
15.1845 4316.00
15.2497 5626.00
15.3149 7191.00
15.3801 8241.00
15.4453 6270.00
15.5105 3322.00
15.5757 2745.00
15.6409 2517.00
15.7061 2468.00
15.7713 2310.00
15.8365 2364.00
15.9017 2408.00
15.9669 2302.00
16.0321 2340.00
16.0973 2310.00
16.1625 2318.00
16.2277 2308.00
16.2929 2412.00
16.3581 2577.00
16.4233 2590.00
16.4885 2635.00
16.5537 2985.00
16.6189 3393.00
16.6841 4457.00
16.7493 5541.00
16.8145 6611.00
16.8797 5905.00
16.9449 3428.00
17.0101 2603.00
17.0753 2386.00
17.1405 2404.00
17.2057 2359.00
17.2709 2200.00
17.3361 2234.00
17.4013 2182.00
17.4665 2229.00
17.5317 2278.00
17.5969 2316.00
17.6621 2389.00
17.7273 2525.00
17.7925 2778.00
17.8577 3261.00
17.9229 4266.00
17.9881 5307.00
18.0533 6604.00
18.1185 5517.00
18.1837 3245.00
18.2489 2509.00
18.3141 2375.00
18.3793 2359.00
18.4445 2371.00
18.5097 2480.00
18.5749 2499.00
18.6401 3028.00
18.7052 3754.00
18.7704 4847.00
18.8356 5661.00
18.9008 5131.00
18.966 3269.00
19.0312 2329.00
19.0964 2308.00
19.1616 2163.00
19.2268 2144.00
19.292 2094.00
19.3572 2121.00
19.4224 2070.00
19.4876 2032.00
19.5528 2076.00
19.618 2097.00
19.6832 2153.00
19.7484 2324.00
19.8136 2709.00
19.8788 3290.00
19.944 4078.00
20.0092 4661.00
20.0744 3957.00
20.1396 2672.00
20.2048 2198.00
20.27 2274.00
20.3352 2219.00
20.4004 2360.00
20.4656 2535.00
20.5308 3240.00
20.596 4015.00
20.6612 4948.00
20.7264 4920.00
20.7916 3310.00
20.8568 2406.00
20.922 2151.00
20.9872 1972.00
21.0524 1984.00
21.1176 2061.00
21.1828 2056.00
21.248 1957.00
21.3132 1962.00
21.3784 1936.00
21.4436 1937.00
21.5088 1965.00
21.574 1920.00
21.6392 1879.00
21.7044 1965.00
21.7696 1871.00
21.8348 1791.00
21.9 1939.00
21.9652 1893.00
22.0304 1956.00
22.0956 1907.00
22.1608 1977.00
22.226 1950.00
22.2912 1987.00
22.3564 1962.00
22.4216 1911.00
22.4868 1927.00
22.552 2031.00
22.6172 1992.00
22.6824 2175.00
22.7476 2544.00
22.8128 3358.00
22.878 4445.00
22.9432 6367.00
23.0084 6876.00
23.0736 4567.00
23.1388 2661.00
23.204 2268.00
23.2692 2130.00
23.3344 2439.00
23.3996 2544.00
23.4647 2270.00
23.5299 2030.00
23.5951 1887.00
23.6603 1900.00
23.7255 1913.00
23.7907 1875.00
23.8559 1929.00
23.9211 1814.00
23.9863 1844.00
24.0515 1862.00
24.1167 1853.00
24.1819 1806.00
24.2471 1756.00
24.3123 1871.00
24.3775 1801.00
24.4427 1870.00
24.5079 1842.00
24.5731 1838.00
24.6383 1780.00
24.7035 1867.00
24.7687 1873.00
24.8339 1907.00
24.8991 1905.00
24.9643 1855.00
25.0295 1912.00
25.0947 1925.00
25.1599 2063.00
25.2251 2180.00
25.2903 2495.00
25.3555 3246.00
25.4207 4898.00
25.4859 7415.00
25.5511 8347.00
25.6163 5623.00
25.6815 2995.00
25.7467 2392.00
25.8119 2146.00
25.8771 2017.00
25.9423 2054.00
26.0075 1877.00
26.0727 1950.00
26.1379 1887.00
26.2031 1958.00
26.2683 2091.00
26.3335 2340.00
26.3987 2683.00
26.4639 3763.00
26.5291 5701.00
26.5943 7661.00
26.6595 6490.00
26.7247 3944.00
26.7899 3132.00
26.8551 3153.00
26.9203 2894.00
26.9855 2244.00
27.0507 2002.00
27.1159 1881.00
27.1811 1862.00
27.2463 1903.00
27.3115 1772.00
27.3767 1787.00
27.4419 1816.00
27.5071 1893.00
27.5723 1894.00
27.6375 2042.00
27.7027 2324.00
27.7679 2252.00
27.8331 2169.00
27.8983 1930.00
27.9635 1788.00
28.0287 1746.00
28.0939 1721.00
28.1591 1679.00
28.2243 1715.00
28.2894 1707.00
28.3546 1721.00
28.4198 1780.00
28.485 1699.00
28.5502 1754.00
28.6154 1850.00
28.6806 1927.00
28.7458 2224.00
28.811 2289.00
28.8762 2212.00
28.9414 2266.00
29.0066 2184.00
29.0718 1948.00
29.137 2035.00
29.2022 2271.00
29.2674 2847.00
29.3326 3790.00
29.3978 3929.00
29.463 2893.00
29.5282 2056.00
29.5934 1901.00
29.6586 1870.00
29.7238 1817.00
29.789 1803.00
29.8542 1901.00
29.9194 1838.00
29.9846 1754.00
30.0498 1759.00
30.115 1708.00
30.1802 1675.00
30.2454 1658.00
30.3106 1609.00
30.3758 1686.00
30.441 1674.00
30.5062 1794.00
30.5714 2004.00
30.6366 2165.00
30.7018 2245.00
30.767 1954.00
30.8322 1758.00
30.8974 1635.00
30.9626 1613.00
31.0278 1797.00
31.093 1944.00
31.1582 2105.00
31.2234 2364.00
31.2886 2259.00
31.3538 2174.00
31.419 2389.00
31.4842 2975.00
31.5494 3332.00
31.6146 2940.00
31.6798 2843.00
31.745 3228.00
31.8102 3572.00
31.8754 3586.00
31.9406 4359.00
32.0058 6734.00
32.071 6348.00
32.1362 4061.00
32.2014 2307.00
32.2666 1902.00
32.3318 1728.00
32.397 1665.00
32.4622 1611.00
32.5274 1610.00
32.5926 1618.00
32.6578 1549.00
32.723 1558.00
32.7882 1630.00
32.8534 1688.00
32.9186 1916.00
32.9838 1884.00
33.0489 1799.00
33.1141 1585.00
33.1793 1570.00
33.2445 1630.00
33.3097 1522.00
33.3749 1598.00
33.4401 1595.00
33.5053 1484.00
33.5705 1614.00
33.6357 1748.00
33.7009 1712.00
33.7661 1669.00
33.8313 1640.00
33.8965 1593.00
33.9617 1615.00
34.0269 1607.00
34.0921 1786.00
34.1573 1935.00
34.2225 2107.00
34.2877 2083.00
34.3529 1788.00
34.4181 1576.00
34.4833 1591.00
34.5485 1533.00
34.6137 1510.00
34.6789 1532.00
34.7441 1540.00
34.8093 1580.00
34.8745 1572.00
34.9397 1646.00
35.0049 1805.00
35.0701 2109.00
35.1353 2666.00
35.2005 3374.00
35.2657 3207.00
35.3309 2548.00
35.3961 2006.00
35.4613 1714.00
35.5265 1699.00
35.5917 1635.00
35.6569 1635.00
35.7221 1635.00
35.7873 1724.00
35.8525 1942.00
35.9177 2292.00
35.9829 2973.00
36.0481 3368.00
36.1133 3005.00
36.1785 2896.00
36.2437 2819.00
36.3089 2410.00
36.3741 2185.00
36.4393 2360.00
36.5045 2296.00
36.5697 2023.00
36.6349 1798.00
36.7001 1684.00
36.7653 1689.00
36.8305 1729.00
36.8957 1818.00
36.9609 2151.00
37.0261 2815.00
37.0913 3126.00
37.1565 2465.00
37.2217 2045.00
37.2869 1840.00
37.3521 1780.00
37.4173 1824.00
37.4825 1680.00
37.5477 1624.00
37.6129 1788.00
37.6781 1982.00
37.7433 2723.00
37.8085 3597.00
37.8736 4347.00
37.9388 4630.00
38.004 5248.00
38.0692 4997.00
38.1344 4297.00
38.1996 2987.00
38.2648 2073.00
38.33 1804.00
38.3952 1678.00
38.4604 1668.00
38.5256 1609.00
38.5908 1644.00
38.656 1692.00
38.7212 1528.00
38.7864 1649.00
38.8516 1614.00
38.9168 1672.00
38.982 2058.00
39.0472 2786.00
39.1124 3562.00
39.1776 3287.00
39.2428 2749.00
39.308 1956.00
39.3732 1781.00
39.4384 1729.00
39.5036 1712.00
39.5688 1843.00
39.634 1825.00
39.6992 2182.00
39.7644 2949.00
39.8296 4488.00
39.8948 5824.00
39.96 4795.00
40.0252 3611.00
40.0904 2337.00
40.1556 2036.00
40.2208 2218.00
40.286 2668.00
40.3512 2816.00
40.4164 2741.00
40.4816 2318.00
40.5468 1942.00
40.612 1752.00
40.6772 1702.00
40.7424 1795.00
40.8076 1989.00
40.8728 2642.00
40.938 3791.00
41.0032 3667.00
41.0684 2912.00
41.1336 2126.00
41.1988 1918.00
41.264 1971.00
41.3292 2285.00
41.3944 2885.00
41.4596 2681.00
41.5248 2413.00
41.59 1988.00
41.6552 1954.00
41.7204 2001.00
41.7856 1901.00
41.8508 1718.00
41.916 1709.00
41.9812 1893.00
42.0464 2068.00
42.1116 1890.00
42.1768 1764.00
42.242 1593.00
42.3072 1566.00
42.3724 1567.00
42.4376 1500.00
42.5028 1514.00
42.568 1460.00
42.6332 1558.00
42.6983 1675.00
42.7635 1905.00
42.8287 1992.00
42.8939 2094.00
42.9591 2459.00
43.0243 3366.00
43.0895 3472.00
43.1547 3299.00
43.2199 3131.00
43.2851 2679.00
43.3503 2195.00
43.4155 1906.00
43.4807 1717.00
43.5459 1801.00
43.6111 1670.00
43.6763 1687.00
43.7415 1548.00
43.8067 1543.00
43.8719 1524.00
43.9371 1468.00
44.0023 1465.00
44.0675 1494.00
44.1327 1482.00
44.1979 1464.00
44.2631 1520.00
44.3283 1486.00
44.3935 1655.00
44.4587 2015.00
44.5239 2691.00
44.5891 3043.00
44.6543 2677.00
44.7195 2519.00
44.7847 2262.00
44.8499 2574.00
44.9151 2713.00
44.9803 2295.00
45.0455 2119.00
45.1107 1729.00
45.1759 1666.00
45.2411 1631.00
45.3063 1985.00
45.3715 2358.00
45.4367 2318.00
45.5019 2190.00
45.5671 2117.00
45.6323 2184.00
45.6975 3125.00
45.7627 3612.00
45.8279 3300.00
45.8931 2845.00
45.9583 2165.00
46.0235 1833.00
46.0887 1594.00
46.1539 1537.00
46.2191 1589.00
46.2843 1685.00
46.3495 1655.00
46.4147 1801.00
46.4799 2047.00
46.5451 2349.00
46.6103 2094.00
46.6755 1919.00
46.7407 1641.00
46.8059 1510.00
46.8711 1504.00
46.9363 1510.00
47.0015 1519.00
47.0667 1551.00
47.1319 1533.00
47.1971 1825.00
47.2623 2421.00
47.3275 3223.00
47.3927 3120.00
47.4579 2949.00
47.523 2472.00
47.5882 2084.00
47.6534 1826.00
47.7186 1694.00
47.7838 1730.00
47.849 1930.00
47.9142 2106.00
47.9794 2045.00
48.0446 1989.00
48.1098 1775.00
48.175 2005.00
48.2402 2501.00
48.3054 2883.00
48.3706 2727.00
48.4358 2694.00
48.501 2197.00
48.5662 1945.00
48.6314 1758.00
48.6966 2040.00
48.7618 2112.00
48.827 1745.00
48.8922 1692.00
48.9574 1528.00
49.0226 1441.00
49.0878 1526.00
49.153 1539.00
49.2182 1573.00
49.2834 1708.00
49.3486 1678.00
49.4138 1599.00
49.479 1726.00
49.5442 1839.00
49.6094 1792.00
49.6746 1784.00
49.7398 1899.00
49.805 1898.00
49.8702 1828.00
49.9354 1818.00
50.0006 1614.00
50.0658 1507.00
50.131 1490.00
50.1962 1380.00
50.2614 1363.00
50.3266 1394.00
50.3918 1417.00
50.457 1561.00
50.5222 1851.00
50.5874 1956.00
50.6526 1824.00
50.7178 1655.00
50.783 1448.00
50.8482 1388.00
50.9134 1389.00
50.9786 1319.00
51.0438 1226.00
51.109 1372.00
51.1742 1339.00
51.2394 1265.00
51.3046 1288.00
51.3698 1396.00
51.435 1418.00
51.5002 1470.00
51.5654 1553.00
51.6306 1586.00
51.6958 1723.00
51.761 1651.00
51.8262 1530.00
51.8914 1578.00
51.9566 1630.00
52.0218 1775.00
52.087 1842.00
52.1522 1843.00
52.2174 1936.00
52.2826 1952.00
52.3477 1853.00
52.4129 1676.00
52.4781 1533.00
52.5433 1333.00
52.6085 1371.00
52.6737 1321.00
52.7389 1354.00
52.8041 1290.00
52.8693 1248.00
52.9345 1366.00
52.9997 1456.00
53.0649 1561.00
53.1301 1498.00
53.1953 1447.00
53.2605 1452.00
53.3257 1367.00
53.3909 1259.00
53.4561 1293.00
53.5213 1247.00
53.5865 1280.00
53.6517 1194.00
53.7169 1276.00
53.7821 1281.00
53.8473 1323.00
53.9125 1333.00
53.9777 1270.00
54.0429 1352.00
54.1081 1396.00
54.1733 1408.00
54.2385 1343.00
54.3037 1354.00
54.3689 1283.00
54.4341 1376.00
54.4993 1264.00
54.5645 1277.00
54.6297 1244.00
54.6949 1270.00
54.7601 1336.00
54.8253 1306.00
54.8905 1347.00
54.9557 1294.00
55.0209 1421.00
55.0861 1389.00
55.1513 1538.00
55.2165 1806.00
55.2817 2080.00
55.3469 1848.00
55.4121 2171.00
55.4773 1843.00
55.5425 1676.00
55.6077 1675.00
55.6729 1738.00
55.7381 2018.00
55.8033 2172.00
55.8685 1999.00
55.9337 1992.00
55.9989 1816.00
56.0641 1556.00
56.1293 1530.00
56.1945 1400.00
56.2597 1444.00
56.3249 1501.00
56.3901 1613.00
56.4553 1570.00
56.5205 1706.00
56.5857 1923.00
56.6509 2186.00
56.7161 2077.00
56.7813 2166.00
56.8465 1991.00
56.9117 1917.00
56.9769 1761.00
57.042 1519.00
57.1073 1469.00
57.1724 1447.00
57.2376 1299.00
57.3028 1338.00
57.368 1318.00
57.4332 1385.00
57.4984 1309.00
57.5636 1349.00
57.6288 1409.00
57.694 1419.00
57.7592 1308.00
57.8244 1512.00
57.8896 1544.00
57.9548 1958.00
58.02 2037.00
58.0852 1765.00
58.1504 1716.00
58.2156 1550.00
58.2808 1433.00
58.346 1406.00
58.4112 1384.00
58.4764 1302.00
58.5416 1293.00
58.6068 1369.00
58.672 1507.00
58.7372 1638.00
58.8024 1698.00
58.8676 1588.00
58.9328 1659.00
58.998 1523.00
59.0632 1555.00
59.1284 1665.00
59.1936 1662.00
59.2588 1596.00
59.324 1538.00
59.3892 1511.00
59.4544 1288.00
59.5196 1354.00
59.5848 1329.00
59.65 1282.00
59.7152 1303.00
59.7804 1392.00
59.8456 1567.00
59.9108 1534.00
59.976 1531.00
60.0412 1446.00
60.1064 1378.00
60.1716 1322.00
60.2368 1340.00
60.302 1348.00
60.3672 1386.00
60.4324 1464.00
60.4976 1381.00
60.5628 1430.00
60.628 1428.00
60.6932 1308.00
60.7584 1319.00
60.8236 1359.00
60.8888 1384.00
60.954 1478.00
61.0192 1505.00
61.0844 1741.00
61.1496 2018.00
61.2148 1812.00
61.28 1776.00
61.3452 1783.00
61.4104 1951.00
61.4756 1866.00
61.5408 1709.00
61.606 1707.00
61.6712 1665.00
61.7364 1553.00
61.8016 1467.00
61.8667 1583.00
61.932 1815.00
61.9971 1791.00
62.0623 1937.00
62.1275 1952.00
62.1927 1702.00
62.2579 1616.00
62.3231 1565.00
62.3883 1486.00
62.4535 1454.00
62.5187 1438.00
62.5839 1395.00
62.6491 1504.00
62.7143 1509.00
62.7795 1442.00
62.8447 1486.00
62.9099 1561.00
62.9751 1582.00
63.0403 1562.00
63.1055 1433.00
63.1707 1493.00
63.2359 1336.00
63.3011 1391.00
63.3663 1404.00
63.4315 1438.00
63.4967 1386.00
63.5619 1354.00
63.6271 1328.00
63.6923 1254.00
63.7575 1442.00
63.8227 1445.00
63.8879 1513.00
63.9531 1475.00
64.0183 1436.00
64.0835 1379.00
64.1487 1379.00
64.2139 1521.00
64.2791 1836.00
64.3443 1759.00
64.4095 1604.00
64.4747 1690.00
64.5399 1684.00
64.6051 1742.00
64.6703 1689.00
64.7355 1481.00
64.8007 1507.00
64.8659 1448.00
64.9311 1377.00
64.9963 1297.00
65.0615 1297.00
65.1267 1289.00
65.1919 1205.00
65.2571 1358.00
65.3223 1366.00
65.3875 1346.00
65.4527 1312.00
65.5179 1423.00
65.5831 1443.00
65.6483 1340.00
65.7135 1455.00
65.7787 1612.00
65.8439 1542.00
65.9091 1484.00
65.9743 1445.00
66.0395 1406.00
66.1047 1408.00
66.1699 1259.00
66.2351 1233.00
66.3003 1297.00
66.3655 1294.00
66.4307 1520.00
66.4959 1567.00
66.561 1471.00
66.6263 1366.00
66.6915 1436.00
66.7566 1338.00
66.8218 1269.00
66.887 1260.00
66.9522 1358.00
67.0174 1402.00
67.0826 1519.00
67.1478 1391.00
67.213 1387.00
67.2782 1394.00
67.3434 1322.00
67.4086 1219.00
67.4738 1179.00
67.539 1180.00
67.6042 1224.00
67.6694 1226.00
67.7346 1253.00
67.7998 1184.00
67.865 1157.00
67.9302 1146.00
67.9954 1180.00
68.0606 1200.00
68.1258 1177.00
68.191 1242.00
68.2562 1365.00
68.3214 1287.00
68.3866 1269.00
68.4518 1366.00
68.517 1352.00
68.5822 1319.00
68.6474 1405.00
68.7126 1443.00
68.7778 1367.00
68.843 1334.00
68.9082 1271.00
68.9734 1198.00
69.0386 1214.00
69.1038 1125.00
69.169 1182.00
69.2342 1150.00
69.2994 1208.00
69.3646 1222.00
69.4298 1203.00
69.495 1205.00
69.5602 1181.00
69.6254 1200.00
69.6906 1152.00
69.7558 1161.00
69.821 1121.00
69.8862 1232.00
69.9514 1186.00
70.0166 1240.00
70.0818 1269.00
70.147 1302.00
70.2122 1382.00
70.2774 1370.00
70.3426 1318.00
70.4078 1311.00
70.473 1365.00
70.5382 1299.00
70.6034 1345.00
70.6686 1333.00
70.7338 1322.00
70.799 1343.00
70.8642 1386.00
70.9294 1258.00
70.9946 1290.00
71.0598 1241.00
71.125 1230.00
71.1902 1217.00
71.2554 1186.00
71.3205 1158.00
71.3858 1287.00
71.451 1205.00
71.5162 1182.00
71.5813 1256.00
71.6465 1213.00
71.7117 1187.00
71.7769 1143.00
71.8421 1224.00
71.9073 1211.00
71.9725 1160.00
72.0377 1156.00
72.1029 1220.00
72.1681 1183.00
72.2333 1215.00
72.2985 1252.00
72.3637 1254.00
72.4289 1372.00
72.4941 1334.00
72.5593 1198.00
72.6245 1331.00
72.6897 1275.00
72.7549 1196.00
72.8201 1228.00
72.8853 1206.00
72.9505 1211.00
73.0157 1219.00
73.0809 1261.00
73.1461 1202.00
73.2113 1247.00
73.2765 1214.00
73.3417 1235.00
73.4069 1229.00
73.4721 1175.00
73.5373 1214.00
73.6025 1206.00
73.6677 1241.00
73.7329 1269.00
73.7981 1302.00
73.8633 1406.00
73.9285 1554.00
73.9937 1656.00
74.0589 1564.00
74.1241 1631.00
74.1893 1650.00
74.2545 1546.00
74.3197 1493.00
74.3849 1338.00
74.4501 1339.00
74.5153 1306.00
74.5805 1259.00
74.6457 1282.00
74.7109 1171.00
74.7761 1195.00
74.8413 1189.00
74.9065 1206.00
74.9717 1266.00
75.0369 1296.00
75.1021 1418.00
75.1673 1349.00
75.2325 1279.00
75.2977 1359.00
75.3629 1410.00
75.4281 1412.00
75.4933 1667.00
75.5585 1790.00
75.6237 1654.00
75.6889 1520.00
75.7541 1638.00
75.8193 1580.00
75.8845 1362.00
75.9497 1391.00
76.0149 1375.00
76.0801 1423.00
76.1452 1460.00
76.2104 1536.00
76.2756 1772.00
76.3409 1558.00
76.406 1422.00
76.4712 1448.00
76.5364 1408.00
76.6016 1401.00
76.6668 1271.00
76.732 1256.00
76.7972 1339.00
76.8624 1324.00
76.9276 1279.00
76.9928 1457.00
77.058 1563.00
77.1232 1405.00
77.1884 1394.00
77.2536 1331.00
77.3188 1337.00
77.384 1374.00
77.4492 1370.00
77.5144 1588.00
77.5796 1623.00
77.6448 1583.00
77.71 1561.00
77.7752 1551.00
77.8404 1443.00
77.9056 1272.00
77.9708 1329.00
78.036 1296.00
78.1012 1306.00
78.1664 1224.00
78.2316 1238.00
78.2968 1250.00
78.362 1314.00
78.4272 1356.00
78.4924 1328.00
78.5576 1335.00
78.6228 1347.00
78.688 1349.00
78.7532 1342.00
78.8184 1338.00
78.8836 1260.00
78.9488 1277.00
79.014 1241.00
79.0792 1303.00
79.1444 1363.00
79.2096 1183.00
79.2748 1206.00
79.34 1253.00
79.4052 1293.00
79.4704 1159.00
79.5356 1225.00
79.6008 1142.00
79.666 1189.00
79.7312 1171.00
79.7964 1218.00
79.8616 1265.00
79.9268 1381.00
79.992 1392.00
80.0572 1357.00
80.1224 1323.00
80.1876 1330.00
80.2528 1271.00
80.318 1214.00
80.3832 1202.00
80.4484 1220.00
80.5136 1241.00
80.5788 1296.00
80.644 1181.00
80.7092 1173.00
80.7744 1209.00
80.8396 1194.00
80.9048 1173.00
80.9699 1151.00
81.0351 1154.00
81.1003 1159.00
81.1655 1220.00
81.2307 1184.00
81.2959 1226.00
81.3611 1220.00
81.4263 1187.00
81.4915 1161.00
81.5567 1264.00
81.6219 1319.00
81.6871 1289.00
81.7523 1316.00
81.8175 1273.00
81.8827 1333.00
81.9479 1312.00
82.0131 1283.00
82.0783 1332.00
82.1435 1349.00
82.2087 1214.00
82.2739 1264.00
82.3391 1229.00
82.4043 1257.00
82.4695 1176.00
82.5347 1159.00
82.5999 1235.00
82.6651 1192.00
82.7303 1162.00
82.7955 1184.00
82.8607 1226.00
82.9259 1177.00
82.9911 1208.00
83.0563 1198.00
83.1215 1228.00
83.1867 1232.00
83.2519 1226.00
83.3171 1221.00
83.3823 1257.00
83.4475 1290.00
83.5127 1269.00
83.5779 1258.00
83.6431 1416.00
83.7083 1420.00
83.7735 1333.00
83.8387 1341.00
83.9039 1337.00
83.9691 1427.00
84.0343 1429.00
84.0995 1415.00
84.1647 1462.00
84.2299 1537.00
84.2951 1436.00
84.3603 1355.00
84.4255 1363.00
84.4907 1379.00
84.5559 1320.00
84.6211 1236.00
84.6863 1243.00
84.7515 1249.00
84.8167 1146.00
84.8819 1176.00
84.9471 1224.00
85.0123 1184.00
85.0775 1212.00
85.1427 1308.00
85.2079 1281.00
85.2731 1351.00
85.3383 1358.00
85.4035 1371.00
85.4687 1431.00
85.5339 1409.00
85.5991 1355.00
85.6643 1334.00
85.7295 1352.00
85.7946 1260.00
85.8598 1271.00
85.925 1203.00
85.9903 1212.00
86.0554 1165.00
86.1206 1222.00
86.1858 1153.00
86.251 1242.00
86.3162 1234.00
86.3814 1228.00
86.4466 1263.00
86.5118 1252.00
86.577 1278.00
86.6422 1321.00
86.7074 1348.00
86.7726 1307.00
86.8378 1338.00
86.903 1387.00
86.9682 1338.00
87.0334 1284.00
87.0986 1237.00
87.1638 1319.00
87.229 1323.00
87.2942 1346.00
87.3594 1201.00
87.4246 1262.00
87.4898 1245.00
87.555 1249.00
87.6202 1179.00
87.6854 1200.00
87.7506 1227.00
87.8158 1203.00
87.881 1205.00
87.9462 1295.00
88.0114 1243.00
88.0766 1306.00
88.1418 1193.00
88.207 1275.00
88.2722 1220.00
88.3374 1265.00
88.4026 1316.00
88.4678 1324.00
88.533 1256.00
88.5982 1309.00
88.6634 1308.00
88.7286 1260.00
88.7938 1297.00
88.859 1294.00
88.9242 1363.00
88.9894 1283.00
89.0546 1287.00
89.1198 1299.00
89.185 1255.00
89.2502 1209.00
89.3154 1264.00
89.3806 1313.00
89.4458 1245.00
89.511 1181.00
89.5762 1202.00
89.6414 1133.00
89.7066 1146.00
89.7718 1223.00
89.837 1172.00
89.9022 1238.00
89.9674 1269.00
90.0326 1306.00
90.0978 1299.00
90.163 1349.00
90.2282 1283.00
90.2934 1337.00
90.3586 1285.00
90.4238 1298.00
90.489 1305.00
90.5542 1213.00
90.6193 1333.00
90.6845 1270.00
90.7497 1273.00
90.8149 1256.00
90.8801 1222.00
90.9453 1297.00
91.0105 1222.00
91.0757 1252.00
91.1409 1213.00
91.2061 1249.00
91.2713 1237.00
91.3365 1239.00
91.4017 1234.00
91.4669 1174.00
91.5321 1215.00
91.5973 1189.00
91.6625 1226.00
91.7277 1154.00
91.7929 1196.00
91.8581 1198.00
91.9233 1136.00
91.9885 1149.00
92.0537 1122.00
92.1189 1138.00
92.1841 1213.00
92.2493 1141.00
92.3145 1103.00
92.3797 1222.00
92.4449 1152.00
92.5101 1128.00
92.5753 1162.00
92.6405 1223.00
92.7057 1147.00
92.7709 1214.00
92.8361 1137.00
92.9013 1229.00
92.9665 1165.00
93.0317 1230.00
93.0969 1219.00
93.1621 1189.00
93.2273 1259.00
93.2925 1283.00
93.3577 1206.00
93.4229 1116.00
93.4881 1162.00
93.5533 1195.00
93.6185 1189.00
93.6837 1144.00
93.7489 1156.00
93.8141 1125.00
93.8793 1182.00
93.9445 1211.00
94.0097 1158.00
94.0749 1129.00
94.1401 1196.00
94.2053 1186.00
94.2705 1112.00
94.3357 1181.00
94.4009 1146.00
94.4661 1167.00
94.5313 1301.00
94.5965 1314.00
94.6617 1332.00
94.7269 1259.00
94.7921 1243.00
94.8573 1245.00
94.9225 1281.00
94.9877 1283.00
95.0529 1351.00
95.1181 1198.00
95.1833 1275.00
95.2485 1207.00
95.3137 1231.00
95.3789 1227.00
95.444 1287.00
95.5092 1207.00
95.5744 1181.00
95.6396 1158.00
95.7048 1142.00
95.77 1268.00
95.8352 1169.00
95.9004 1124.00
95.9656 1178.00
96.0308 1222.00
96.096 1211.00
96.1612 1213.00
96.2264 1297.00
96.2916 1228.00
96.3568 1209.00
96.422 1254.00
96.4872 1371.00
96.5524 1278.00
96.6176 1271.00
96.6828 1200.00
96.748 1237.00
96.8132 1245.00
96.8784 1169.00
96.9436 1262.00
97.0088 1233.00
97.074 1201.00
97.1392 1118.00
97.2044 1230.00
97.2696 1131.00
97.3348 1150.00
97.4 1218.00
97.4652 1159.00
97.5304 1171.00
97.5956 1168.00
97.6608 1156.00
97.726 1153.00
97.7912 1176.00
97.8564 1171.00
97.9216 1227.00
97.9868 1185.00
98.052 1209.00
98.1172 1187.00
98.1824 1120.00
98.2476 1123.00
98.3128 1172.00
98.378 1228.00
98.4432 1150.00
98.5084 1236.00
98.5736 1149.00
98.6388 1138.00
98.704 1120.00
98.7692 1132.00
98.8344 1237.00
98.8996 1255.00
98.9648 1203.00
99.03 1223.00
99.0952 1158.00
99.1604 1175.00
99.2256 1132.00
99.2908 1245.00
99.356 1177.00
99.4212 1229.00
99.4864 1144.00
99.5516 1181.00
99.6168 1212.00
99.682 1137.00
99.7472 1162.00
99.8124 1143.00
99.8776 1221.00
99.9428 1163.00
100.008 1045.00
100.073 1191.00
100.095 1201.00