File: data/xrd_creation/results/Na_50.xy
9.903433 3783.00
9.968632 3471.00
10.0338 3436.00
10.099 3329.00
10.1642 3216.00
10.2294 3340.00
10.2946 3149.00
10.3598 3139.00
10.425 3150.00
10.4902 3084.00
10.5554 3086.00
10.6206 3032.00
10.6858 3048.00
10.751 3006.00
10.8162 2916.00
10.8814 2899.00
10.9466 2892.00
11.0118 2918.00
11.077 2917.00
11.1422 2927.00
11.2074 2788.00
11.2726 2871.00
11.3378 2850.00
11.403 2807.00
11.4682 2897.00
11.5334 2751.00
11.5986 2728.00
11.6638 2687.00
11.729 2712.00
11.7942 2732.00
11.8594 2669.00
11.9246 2656.00
11.9898 2755.00
12.055 2692.00
12.1202 2613.00
12.1854 2748.00
12.2506 2597.00
12.3158 2719.00
12.381 2718.00
12.4462 2702.00
12.5114 2602.00
12.5766 2590.00
12.6418 2592.00
12.707 2573.00
12.7722 2537.00
12.8374 2653.00
12.9026 2569.00
12.9678 2679.00
13.033 2680.00
13.0982 2755.00
13.1634 2783.00
13.2286 2977.00
13.2938 3078.00
13.359 3316.00
13.4242 3640.00
13.4894 4017.00
13.5546 4231.00
13.6198 4558.00
13.685 4442.00
13.7502 4209.00
13.8154 3663.00
13.8805 3266.00
13.9457 2866.00
14.0109 2721.00
14.0761 2550.00
14.1413 2496.00
14.2065 2422.00
14.2717 2486.00
14.3369 2434.00
14.4021 2377.00
14.4673 2483.00
14.5325 2326.00
14.5977 2325.00
14.6629 2355.00
14.7281 2356.00
14.7933 2371.00
14.8585 2253.00
14.9237 2251.00
14.9889 2307.00
15.0541 2155.00
15.1193 2211.00
15.1845 2198.00
15.2497 2262.00
15.3149 2227.00
15.3801 2331.00
15.4453 2234.00
15.5105 2313.00
15.5757 2183.00
15.6409 2180.00
15.7061 2211.00
15.7713 2111.00
15.8365 2209.00
15.9017 2121.00
15.9669 2190.00
16.0321 2153.00
16.0973 2183.00
16.1625 2156.00
16.2277 2124.00
16.2929 2176.00
16.3581 2081.00
16.4233 2102.00
16.4885 2134.00
16.5537 2160.00
16.6189 2116.00
16.6841 1994.00
16.7493 2072.00
16.8145 2095.00
16.8797 2013.00
16.9449 2090.00
17.0101 2061.00
17.0753 2075.00
17.1405 2114.00
17.2057 2108.00
17.2709 2075.00
17.3361 2141.00
17.4013 2043.00
17.4665 1992.00
17.5317 2077.00
17.5969 2035.00
17.6621 2042.00
17.7273 1996.00
17.7925 2037.00
17.8577 1923.00
17.9229 1963.00
17.9881 1948.00
18.0533 1942.00
18.1185 1953.00
18.1837 2055.00
18.2489 1917.00
18.3141 2021.00
18.3793 1864.00
18.4445 1936.00
18.5097 1892.00
18.5749 1938.00
18.6401 1873.00
18.7052 1887.00
18.7704 1999.00
18.8356 1938.00
18.9008 1909.00
18.966 2005.00
19.0312 1901.00
19.0964 2029.00
19.1616 1917.00
19.2268 2087.00
19.292 2034.00
19.3572 2034.00
19.4224 1975.00
19.4876 1937.00
19.5528 1923.00
19.618 1877.00
19.6832 1790.00
19.7484 1801.00
19.8136 1886.00
19.8788 1819.00
19.944 1807.00
20.0092 1787.00
20.0744 1749.00
20.1396 1820.00
20.2048 1697.00
20.27 1716.00
20.3352 1698.00
20.4004 1744.00
20.4656 1790.00
20.5308 1720.00
20.596 1814.00
20.6612 1750.00
20.7264 1726.00
20.7916 1741.00
20.8568 1751.00
20.922 1706.00
20.9872 1670.00
21.0524 1808.00
21.1176 1707.00
21.1828 1680.00
21.248 1666.00
21.3132 1678.00
21.3784 1800.00
21.4436 1676.00
21.5088 1650.00
21.574 1734.00
21.6392 1723.00
21.7044 1735.00
21.7696 1695.00
21.8348 1747.00
21.9 1733.00
21.9652 1688.00
22.0304 1659.00
22.0956 1634.00
22.1608 1642.00
22.226 1676.00
22.2912 1658.00
22.3564 1687.00
22.4216 1639.00
22.4868 1753.00
22.552 1659.00
22.6172 1641.00
22.6824 1668.00
22.7476 1637.00
22.8128 1579.00
22.878 1610.00
22.9432 1635.00
23.0084 1668.00
23.0736 1544.00
23.1388 1684.00
23.204 1660.00
23.2692 1610.00
23.3344 1561.00
23.3996 1579.00
23.4647 1666.00
23.5299 1489.00
23.5951 1541.00
23.6603 1505.00
23.7255 1572.00
23.7907 1627.00
23.8559 1573.00
23.9211 1542.00
23.9863 1533.00
24.0515 1514.00
24.1167 1582.00
24.1819 1541.00
24.2471 1584.00
24.3123 1603.00
24.3775 1489.00
24.4427 1549.00
24.5079 1557.00
24.5731 1554.00
24.6383 1469.00
24.7035 1536.00
24.7687 1557.00
24.8339 1594.00
24.8991 1506.00
24.9643 1558.00
25.0295 1523.00
25.0947 1497.00
25.1599 1443.00
25.2251 1560.00
25.2903 1561.00
25.3555 1470.00
25.4207 1550.00
25.4859 1503.00
25.5511 1512.00
25.6163 1561.00
25.6815 1481.00
25.7467 1507.00
25.8119 1505.00
25.8771 1574.00
25.9423 1561.00
26.0075 1597.00
26.0727 1624.00
26.1379 1594.00
26.2031 1654.00
26.2683 1834.00
26.3335 1820.00
26.3987 1903.00
26.4639 2111.00
26.5291 2398.00
26.5943 3119.00
26.6595 4142.00
26.7247 5714.00
26.7899 7468.00
26.8551 8008.00
26.9203 6531.00
26.9855 4743.00
27.0507 3450.00
27.1159 2829.00
27.1811 2563.00
27.2463 2407.00
27.3115 2227.00
27.3767 2204.00
27.4419 2396.00
27.5071 2820.00
27.5723 3869.00
27.6375 4853.00
27.7027 3518.00
27.7679 2396.00
27.8331 2104.00
27.8983 2095.00
27.9635 2175.00
28.0287 2100.00
28.0939 2010.00
28.1591 2064.00
28.2243 1939.00
28.2894 1896.00
28.3546 1822.00
28.4198 1786.00
28.485 1803.00
28.5502 1709.00
28.6154 1802.00
28.6806 1725.00
28.7458 1758.00
28.811 1758.00
28.8762 1824.00
28.9414 1795.00
29.0066 1813.00
29.0718 1755.00
29.137 1664.00
29.2022 1667.00
29.2674 1682.00
29.3326 1730.00
29.3978 1787.00
29.463 1817.00
29.5282 1670.00
29.5934 1649.00
29.6586 1656.00
29.7238 1619.00
29.789 1524.00
29.8542 1625.00
29.9194 1552.00
29.9846 1615.00
30.0498 1637.00
30.115 1659.00
30.1802 1713.00
30.2454 1586.00
30.3106 1705.00
30.3758 1651.00
30.441 1728.00
30.5062 1688.00
30.5714 1723.00
30.6366 1707.00
30.7018 1817.00
30.767 1790.00
30.8322 1852.00
30.8974 1849.00
30.9626 1841.00
31.0278 1885.00
31.093 1827.00
31.1582 1874.00
31.2234 1867.00
31.2886 1885.00
31.3538 1957.00
31.419 2033.00
31.4842 2006.00
31.5494 2128.00
31.6146 2254.00
31.6798 2610.00
31.745 3535.00
31.8102 6551.00
31.8754 15185.00
31.9406 29205.00
32.0058 23818.00
32.071 11814.00
32.1362 3727.00
32.2014 2465.00
32.2666 2293.00
32.3318 2260.00
32.397 2151.00
32.4622 2257.00
32.5274 2725.00
32.5926 3466.00
32.6578 5164.00
32.723 7842.00
32.7882 9020.00
32.8534 7138.00
32.9186 4501.00
32.9838 2939.00
33.0489 2342.00
33.1141 1984.00
33.1793 1868.00
33.2445 1721.00
33.3097 1676.00
33.3749 1581.00
33.4401 1538.00
33.5053 1573.00
33.5705 1517.00
33.6357 1519.00
33.7009 1505.00
33.7661 1528.00
33.8313 1460.00
33.8965 1445.00
33.9617 1471.00
34.0269 1465.00
34.0921 1460.00
34.1573 1410.00
34.2225 1493.00
34.2877 1405.00
34.3529 1444.00
34.4181 1448.00
34.4833 1465.00
34.5485 1505.00
34.6137 1497.00
34.6789 1550.00
34.7441 1431.00
34.8093 1514.00
34.8745 1536.00
34.9397 1566.00
35.0049 1579.00
35.0701 1591.00
35.1353 1663.00
35.2005 1720.00
35.2657 1809.00
35.3309 1942.00
35.3961 2037.00
35.4613 2275.00
35.5265 2627.00
35.5917 3088.00
35.6569 3959.00
35.7221 5166.00
35.7873 6848.00
35.8525 8595.00
35.9177 8765.00
35.9829 7706.00
36.0481 5950.00
36.1133 4532.00
36.1785 3257.00
36.2437 2622.00
36.3089 2093.00
36.3741 1996.00
36.4393 1690.00
36.5045 1710.00
36.5697 1630.00
36.6349 1661.00
36.7001 1560.00
36.7653 1443.00
36.8305 1424.00
36.8957 1548.00
36.9609 1466.00
37.0261 1408.00
37.0913 1403.00
37.1565 1465.00
37.2217 1425.00
37.2869 1407.00
37.3521 1372.00
37.4173 1397.00
37.4825 1379.00
37.5477 1368.00
37.6129 1283.00
37.6781 1341.00
37.7433 1345.00
37.8085 1343.00
37.8736 1318.00
37.9388 1238.00
38.004 1350.00
38.0692 1330.00
38.1344 1329.00
38.1996 1328.00
38.2648 1243.00
38.33 1325.00
38.3952 1310.00
38.4604 1242.00
38.5256 1302.00
38.5908 1355.00
38.656 1357.00
38.7212 1406.00
38.7864 1362.00
38.8516 1400.00
38.9168 1350.00
38.982 1307.00
39.0472 1276.00
39.1124 1205.00
39.1776 1255.00
39.2428 1182.00
39.308 1210.00
39.3732 1199.00
39.4384 1228.00
39.5036 1162.00
39.5688 1150.00
39.634 1207.00
39.6992 1180.00
39.7644 1190.00
39.8296 1139.00
39.8948 1215.00
39.96 1234.00
40.0252 1168.00
40.0904 1160.00
40.1556 1164.00
40.2208 1187.00
40.286 1124.00
40.3512 1167.00
40.4164 1222.00
40.4816 1197.00
40.5468 1215.00
40.612 1216.00
40.6772 1221.00
40.7424 1181.00
40.8076 1196.00
40.8728 1184.00
40.938 1247.00
41.0032 1304.00
41.0684 1350.00
41.1336 1495.00
41.1988 1462.00
41.264 1439.00
41.3292 1428.00
41.3944 1463.00
41.4596 1296.00
41.5248 1244.00
41.59 1273.00
41.6552 1222.00
41.7204 1134.00
41.7856 1156.00
41.8508 1216.00
41.916 1201.00
41.9812 1150.00
42.0464 1194.00
42.1116 1147.00
42.1768 1125.00
42.242 1177.00
42.3072 1183.00
42.3724 1159.00
42.4376 1228.00
42.5028 1163.00
42.568 1316.00
42.6332 1278.00
42.6983 1392.00
42.7635 1583.00
42.8287 1863.00
42.8939 2216.00
42.9591 2638.00
43.0243 2711.00
43.0895 2580.00
43.1547 2099.00
43.2199 1772.00
43.2851 1511.00
43.3503 1448.00
43.4155 1263.00
43.4807 1316.00
43.5459 1309.00
43.6111 1253.00
43.6763 1196.00
43.7415 1233.00
43.8067 1260.00
43.8719 1153.00
43.9371 1222.00
44.0023 1195.00
44.0675 1160.00
44.1327 1200.00
44.1979 1236.00
44.2631 1213.00
44.3283 1182.00
44.3935 1181.00
44.4587 1207.00
44.5239 1198.00
44.5891 1203.00
44.6543 1207.00
44.7195 1234.00
44.7847 1246.00
44.8499 1213.00
44.9151 1208.00
44.9803 1230.00
45.0455 1236.00
45.1107 1298.00
45.1759 1263.00
45.2411 1413.00
45.3063 1427.00
45.3715 1605.00
45.4367 1897.00
45.5019 2937.00
45.5671 5760.00
45.6323 12380.00
45.6975 14799.00
45.7627 9339.00
45.8279 6701.00
45.8931 2585.00
45.9583 1719.00
46.0235 1586.00
46.0887 1383.00
46.1539 1370.00
46.2191 1297.00
46.2843 1244.00
46.3495 1277.00
46.4147 1288.00
46.4799 1424.00
46.5451 1496.00
46.6103 1607.00
46.6755 1930.00
46.7407 2340.00
46.8059 3469.00
46.8711 4269.00
46.9363 4041.00
47.0015 3451.00
47.0667 2525.00
47.1319 1911.00
47.1971 1560.00
47.2623 1405.00
47.3275 1391.00
47.3927 1281.00
47.4579 1275.00
47.523 1259.00
47.5882 1312.00
47.6534 1264.00
47.7186 1252.00
47.7838 1271.00
47.849 1260.00
47.9142 1274.00
47.9794 1247.00
48.0446 1290.00
48.1098 1425.00
48.175 1513.00
48.2402 1891.00
48.3054 1945.00
48.3706 1791.00
48.4358 1713.00
48.501 1496.00
48.5662 1416.00
48.6314 1323.00
48.6966 1314.00
48.7618 1373.00
48.827 1376.00
48.8922 1498.00
48.9574 1591.00
49.0226 1677.00
49.0878 1517.00
49.153 1407.00
49.2182 1399.00
49.2834 1277.00
49.3486 1328.00
49.4138 1244.00
49.479 1213.00
49.5442 1176.00
49.6094 1177.00
49.6746 1060.00
49.7398 1126.00
49.805 1063.00
49.8702 1105.00
49.9354 1064.00
50.0006 1096.00
50.0658 1084.00
50.131 1068.00
50.1962 1095.00
50.2614 1013.00
50.3266 1040.00
50.3918 1043.00
50.457 1132.00
50.5222 1079.00
50.5874 1031.00
50.6526 1069.00
50.7178 1111.00
50.783 1093.00
50.8482 1078.00
50.9134 1011.00
50.9786 1057.00
51.0438 1113.00
51.109 1107.00
51.1742 1101.00
51.2394 1089.00
51.3046 1073.00
51.3698 1023.00
51.435 1076.00
51.5002 1061.00
51.5654 1069.00
51.6306 1027.00
51.6958 1139.00
51.761 1049.00
51.8262 1088.00
51.8914 1058.00
51.9566 1105.00
52.0218 1116.00
52.087 1071.00
52.1522 1117.00
52.2174 1121.00
52.2826 1150.00
52.3477 1165.00
52.4129 1147.00
52.4781 1140.00
52.5433 1151.00
52.6085 1127.00
52.6737 1171.00
52.7389 1115.00
52.8041 1112.00
52.8693 1211.00
52.9345 1147.00
52.9997 1164.00
53.0649 1234.00
53.1301 1313.00
53.1953 1470.00
53.2605 1493.00
53.3257 1702.00
53.3909 1985.00
53.4561 2080.00
53.5213 2121.00
53.5865 2106.00
53.6517 1841.00
53.7169 1728.00
53.7821 1502.00
53.8473 1379.00
53.9125 1261.00
53.9777 1420.00
54.0429 1619.00
54.1081 1594.00
54.1733 1463.00
54.2385 1442.00
54.3037 1302.00
54.3689 1304.00
54.4341 1406.00
54.4993 1553.00
54.5645 1840.00
54.6297 2172.00
54.6949 2549.00
54.7601 2476.00
54.8253 2407.00
54.8905 2170.00
54.9557 1840.00
55.0209 1594.00
55.0861 1436.00
55.1513 1357.00
55.2165 1338.00
55.2817 1189.00
55.3469 1172.00
55.4121 1078.00
55.4773 1149.00
55.5425 1153.00
55.6077 1137.00
55.6729 1184.00
55.7381 1158.00
55.8033 1153.00
55.8685 1120.00
55.9337 1144.00
55.9989 1146.00
56.0641 1223.00
56.1293 1195.00
56.1945 1179.00
56.2597 1096.00
56.3249 1152.00
56.3901 1319.00
56.4553 1382.00
56.5205 1821.00
56.5857 2841.00
56.6509 4446.00
56.7161 4270.00
56.7813 3090.00
56.8465 2934.00
56.9117 1837.00
56.9769 1425.00
57.042 1308.00
57.1073 1242.00
57.1724 1240.00
57.2376 1247.00
57.3028 1132.00
57.368 1170.00
57.4332 1113.00
57.4984 1213.00
57.5636 1102.00
57.6288 1098.00
57.694 1111.00
57.7592 1117.00
57.8244 1098.00
57.8896 1154.00
57.9548 1119.00
58.02 1150.00
58.0852 1155.00
58.1504 1134.00
58.2156 1071.00
58.2808 1125.00
58.346 1163.00
58.4112 1152.00
58.4764 1093.00
58.5416 1098.00
58.6068 1134.00
58.672 1047.00
58.7372 1110.00
58.8024 1104.00
58.8676 1061.00
58.9328 1098.00
58.998 1100.00
59.0632 1088.00
59.1284 1057.00
59.1936 1065.00
59.2588 1092.00
59.324 1117.00
59.3892 1096.00
59.4544 1143.00
59.5196 1182.00
59.5848 1130.00
59.65 1135.00
59.7152 1309.00
59.7804 1329.00
59.8456 1343.00
59.9108 1528.00
59.976 1604.00
60.0412 1808.00
60.1064 2255.00
60.1716 2876.00
60.2368 3413.00
60.302 3550.00
60.3672 3109.00
60.4324 2764.00
60.4976 2306.00
60.5628 1840.00
60.628 1584.00
60.6932 1438.00
60.7584 1421.00
60.8236 1414.00
60.8888 1409.00
60.954 1482.00
61.0192 1537.00
61.0844 1596.00
61.1496 1690.00
61.2148 1607.00
61.28 1541.00
61.3452 1476.00
61.4104 1381.00
61.4756 1281.00
61.5408 1223.00
61.606 1175.00
61.6712 1145.00
61.7364 1076.00
61.8016 1166.00
61.8667 1059.00
61.932 1096.00
61.9971 1070.00
62.0623 1072.00
62.1275 1050.00
62.1927 1021.00
62.2579 1059.00
62.3231 1042.00
62.3883 1063.00
62.4535 1005.00
62.5187 1032.00
62.5839 1026.00
62.6491 996.00
62.7143 1058.00
62.7795 1057.00
62.8447 1066.00
62.9099 1051.00
62.9751 1018.00
63.0403 1008.00
63.1055 1009.00
63.1707 1059.00
63.2359 1057.00
63.3011 1106.00
63.3663 1072.00
63.4315 1118.00
63.4967 1053.00
63.5619 1096.00
63.6271 1138.00
63.6923 1115.00
63.7575 1151.00
63.8227 1181.00
63.8879 1188.00
63.9531 1290.00
64.0183 1411.00
64.0835 1389.00
64.1487 1311.00
64.2139 1123.00
64.2791 1181.00
64.3443 1109.00
64.4095 1108.00
64.4747 1019.00
64.5399 1074.00
64.6051 1026.00
64.6703 961.00
64.7355 1039.00
64.8007 990.00
64.8659 1000.00
64.9311 1004.00
64.9963 936.00
65.0615 1018.00
65.1267 926.00
65.1919 1024.00
65.2571 1002.00
65.3223 959.00
65.3875 972.00
65.4527 1037.00
65.5179 999.00
65.5831 1048.00
65.6483 984.00
65.7135 1023.00
65.7787 1112.00
65.8439 1067.00
65.9091 1148.00
65.9743 1187.00
66.0395 1328.00
66.1047 1347.00
66.1699 1446.00
66.2351 1632.00
66.3003 1868.00
66.3655 2365.00
66.4307 2511.00
66.4959 1880.00
66.561 1747.00
66.6263 1647.00
66.6915 1307.00
66.7566 1078.00
66.8218 1083.00
66.887 979.00
66.9522 963.00
67.0174 962.00
67.0826 1032.00
67.1478 1018.00
67.213 1008.00
67.2782 1023.00
67.3434 930.00
67.4086 960.00
67.4738 1018.00
67.539 1027.00
67.6042 914.00
67.6694 953.00
67.7346 976.00
67.7998 1037.00
67.865 1102.00
67.9302 1055.00
67.9954 1095.00
68.0606 1141.00
68.1258 1320.00
68.191 1441.00
68.2562 1577.00
68.3214 1550.00
68.3866 1433.00
68.4518 1437.00
68.517 1331.00
68.5822 1143.00
68.6474 1050.00
68.7126 1076.00
68.7778 1047.00
68.843 1069.00
68.9082 1007.00
68.9734 1000.00
69.0386 1022.00
69.1038 1010.00
69.169 1006.00
69.2342 961.00
69.2994 991.00
69.3646 998.00
69.4298 916.00
69.495 914.00
69.5602 970.00
69.6254 984.00
69.6906 982.00
69.7558 975.00
69.821 969.00
69.8862 1030.00
69.9514 1037.00
70.0166 1068.00
70.0818 1004.00
70.147 951.00
70.2122 1000.00
70.2774 921.00
70.3426 1010.00
70.4078 952.00
70.473 961.00
70.5382 946.00
70.6034 958.00
70.6686 980.00
70.7338 958.00
70.799 924.00
70.8642 893.00
70.9294 956.00
70.9946 960.00
71.0598 949.00
71.125 930.00
71.1902 991.00
71.2554 928.00
71.3205 986.00
71.3858 945.00
71.451 944.00
71.5162 1000.00
71.5813 938.00
71.6465 930.00
71.7117 987.00
71.7769 980.00
71.8421 982.00
71.9073 940.00
71.9725 993.00
72.0377 944.00
72.1029 922.00
72.1681 964.00
72.2333 915.00
72.2985 944.00
72.3637 908.00
72.4289 940.00
72.4941 966.00
72.5593 931.00
72.6245 931.00
72.6897 970.00
72.7549 908.00
72.8201 963.00
72.8853 1028.00
72.9505 992.00
73.0157 963.00
73.0809 1068.00
73.1461 1055.00
73.2113 1155.00
73.2765 1093.00
73.3417 1030.00
73.4069 1067.00
73.4721 976.00
73.5373 990.00
73.6025 953.00
73.6677 996.00
73.7329 945.00
73.7981 923.00
73.8633 953.00
73.9285 976.00
73.9937 969.00
74.0589 982.00
74.1241 939.00
74.1893 1045.00
74.2545 977.00
74.3197 996.00
74.3849 1015.00
74.4501 1042.00
74.5153 1099.00
74.5805 1142.00
74.6457 1203.00
74.7109 1188.00
74.7761 1228.00
74.8413 1231.00
74.9065 1268.00
74.9717 1224.00
75.0369 1168.00
75.1021 1266.00
75.1673 1308.00
75.2325 1529.00
75.2977 1920.00
75.3629 2670.00
75.4281 3767.00
75.4933 3406.00
75.5585 2467.00
75.6237 2473.00
75.6889 2494.00
75.7541 1799.00
75.8193 1315.00
75.8845 1167.00
75.9497 1190.00
76.0149 1122.00
76.0801 1146.00
76.1452 1065.00
76.2104 1110.00
76.2756 1068.00
76.3409 1076.00
76.406 1064.00
76.4712 1041.00
76.5364 1031.00
76.6016 998.00
76.6668 1036.00
76.732 988.00
76.7972 935.00
76.8624 977.00
76.9276 1014.00
76.9928 988.00
77.058 983.00
77.1232 1046.00
77.1884 1031.00
77.2536 1108.00
77.3188 1082.00
77.384 1076.00
77.4492 1149.00
77.5144 1293.00
77.5796 1440.00
77.6448 1492.00
77.71 1451.00
77.7752 1427.00
77.8404 1337.00
77.9056 1288.00
77.9708 1242.00
78.036 1128.00
78.1012 1065.00
78.1664 1096.00
78.2316 1065.00
78.2968 1003.00
78.362 1034.00
78.4272 1031.00
78.4924 982.00
78.5576 1142.00
78.6228 1012.00
78.688 1078.00
78.7532 1039.00
78.8184 1125.00
78.8836 1105.00
78.9488 1090.00
79.014 1078.00
79.0792 1064.00
79.1444 1175.00
79.2096 1169.00
79.2748 1269.00
79.34 1235.00
79.4052 1408.00
79.4704 1416.00
79.5356 1436.00
79.6008 1375.00
79.666 1313.00
79.7312 1270.00
79.7964 1298.00
79.8616 1290.00
79.9268 1230.00
79.992 1226.00
80.0572 1282.00
80.1224 1290.00
80.1876 1495.00
80.2528 1464.00
80.318 1420.00
80.3832 1349.00
80.4484 1300.00
80.5136 1310.00
80.5788 1344.00
80.644 1192.00
80.7092 1160.00
80.7744 1096.00
80.8396 1117.00
80.9048 1166.00
80.9699 1043.00
81.0351 1088.00
81.1003 1057.00
81.1655 1064.00
81.2307 1039.00
81.2959 1054.00
81.3611 949.00
81.4263 1032.00
81.4915 992.00
81.5567 982.00
81.6219 994.00
81.6871 989.00
81.7523 986.00
81.8175 959.00
81.8827 979.00
81.9479 988.00
82.0131 981.00
82.0783 966.00
82.1435 1049.00
82.2087 991.00
82.2739 1010.00
82.3391 973.00
82.4043 963.00
82.4695 1013.00
82.5347 1005.00
82.5999 1010.00
82.6651 1056.00
82.7303 1150.00
82.7955 1154.00
82.8607 1066.00
82.9259 1035.00
82.9911 1024.00
83.0563 1047.00
83.1215 972.00
83.1867 1013.00
83.2519 1000.00
83.3171 1000.00
83.3823 1034.00
83.4475 988.00
83.5127 1020.00
83.5779 1040.00
83.6431 1089.00
83.7083 1107.00
83.7735 1180.00
83.8387 1254.00
83.9039 1424.00
83.9691 1796.00
84.0343 2240.00
84.0995 2763.00
84.1647 2632.00
84.2299 2010.00
84.2951 1759.00
84.3603 1945.00
84.4255 1701.00
84.4907 1339.00
84.5559 1083.00
84.6211 1061.00
84.6863 952.00
84.7515 989.00
84.8167 1028.00
84.8819 976.00
84.9471 899.00
85.0123 953.00
85.0775 919.00
85.1427 943.00
85.2079 943.00
85.2731 919.00
85.3383 935.00
85.4035 901.00
85.4687 914.00
85.5339 917.00
85.5991 903.00
85.6643 955.00
85.7295 992.00
85.7946 890.00
85.8598 930.00
85.925 883.00
85.9903 914.00
86.0554 985.00
86.1206 912.00
86.1858 935.00
86.251 938.00
86.3162 977.00
86.3814 923.00
86.4466 913.00
86.5118 896.00
86.577 939.00
86.6422 918.00
86.7074 938.00
86.7726 899.00
86.8378 938.00
86.903 901.00
86.9682 899.00
87.0334 944.00
87.0986 902.00
87.1638 1008.00
87.229 958.00
87.2942 930.00
87.3594 962.00
87.4246 909.00
87.4898 922.00
87.555 921.00
87.6202 910.00
87.6854 919.00
87.7506 959.00
87.8158 888.00
87.881 937.00
87.9462 950.00
88.0114 953.00
88.0766 904.00
88.1418 983.00
88.207 905.00
88.2722 983.00
88.3374 948.00
88.4026 952.00
88.4678 935.00
88.533 924.00
88.5982 937.00
88.6634 917.00
88.7286 924.00
88.7938 979.00
88.859 936.00
88.9242 1030.00
88.9894 954.00
89.0546 940.00
89.1198 935.00
89.185 963.00
89.2502 946.00
89.3154 961.00
89.3806 986.00
89.4458 992.00
89.511 973.00
89.5762 972.00
89.6414 998.00
89.7066 1071.00
89.7718 1072.00
89.837 1111.00
89.9022 1066.00
89.9674 1100.00
90.0326 1080.00
90.0978 1088.00
90.163 1008.00
90.2282 1079.00
90.2934 1054.00
90.3586 1049.00
90.4238 1034.00
90.489 1115.00
90.5542 1080.00
90.6193 1037.00
90.6845 972.00
90.7497 1010.00
90.8149 1110.00
90.8801 983.00
90.9453 906.00
91.0105 945.00
91.0757 877.00
91.1409 935.00
91.2061 953.00
91.2713 962.00
91.3365 933.00
91.4017 963.00
91.4669 977.00
91.5321 1000.00
91.5973 1095.00
91.6625 1121.00
91.7277 1142.00
91.7929 1214.00
91.8581 1095.00
91.9233 1150.00
91.9885 1178.00
92.0537 1148.00
92.1189 1118.00
92.1841 1004.00
92.2493 992.00
92.3145 1014.00
92.3797 1006.00
92.4449 995.00
92.5101 1012.00
92.5753 991.00
92.6405 1060.00
92.7057 1123.00
92.7709 1081.00
92.8361 1063.00
92.9013 1069.00
92.9665 1041.00
93.0317 1080.00
93.0969 995.00
93.1621 1054.00
93.2273 1019.00
93.2925 1044.00
93.3577 1071.00
93.4229 1004.00
93.4881 997.00
93.5533 935.00
93.6185 1017.00
93.6837 1044.00
93.7489 1045.00
93.8141 1021.00
93.8793 1053.00
93.9445 1053.00
94.0097 1050.00
94.0749 978.00
94.1401 1021.00
94.2053 1020.00
94.2705 1090.00
94.3357 1046.00
94.4009 1028.00
94.4661 987.00
94.5313 942.00
94.5965 1005.00
94.6617 931.00
94.7269 954.00
94.7921 1003.00
94.8573 954.00
94.9225 943.00
94.9877 893.00
95.0529 910.00
95.1181 950.00
95.1833 912.00
95.2485 875.00
95.3137 941.00
95.3789 926.00
95.444 973.00
95.5092 933.00
95.5744 947.00
95.6396 917.00
95.7048 971.00
95.77 871.00
95.8352 924.00
95.9004 914.00
95.9656 937.00
96.0308 962.00
96.096 920.00
96.1612 867.00
96.2264 925.00
96.2916 941.00
96.3568 912.00
96.422 973.00
96.4872 968.00
96.5524 966.00
96.6176 922.00
96.6828 951.00
96.748 946.00
96.8132 995.00
96.8784 947.00
96.9436 1027.00
97.0088 973.00
97.074 982.00
97.1392 1026.00
97.2044 1135.00
97.2696 1156.00
97.3348 1258.00
97.4 1343.00
97.4652 1306.00
97.5304 1278.00
97.5956 1244.00
97.6608 1243.00
97.726 1223.00
97.7912 1221.00
97.8564 1152.00
97.9216 1163.00
97.9868 1091.00
98.052 1187.00
98.1172 1110.00
98.1824 1141.00
98.2476 1153.00
98.3128 1031.00
98.378 1097.00
98.4432 1010.00
98.5084 988.00
98.5736 1006.00
98.6388 947.00
98.704 1031.00
98.7692 950.00
98.8344 935.00
98.8996 949.00
98.9648 956.00
99.03 932.00
99.0952 944.00
99.1604 935.00
99.2256 932.00
99.2908 914.00
99.356 952.00
99.4212 952.00
99.4864 926.00
99.5516 925.00
99.6168 963.00
99.682 928.00
99.7472 991.00
99.8124 952.00
99.8776 943.00
99.9428 977.00
100.008 880.00
100.073 919.00
100.095 939.00