File: data/xrd_creation/results/Na_57.xy
9.903433 2601.00
9.968632 2546.00
10.0338 2524.00
10.099 2562.00
10.1642 2470.00
10.2294 2522.00
10.2946 2396.00
10.3598 2359.00
10.425 2395.00
10.4902 2395.00
10.5554 2296.00
10.6206 2360.00
10.6858 2359.00
10.751 2303.00
10.8162 2312.00
10.8814 2260.00
10.9466 2255.00
11.0118 2247.00
11.077 2234.00
11.1422 2193.00
11.2074 2201.00
11.2726 2155.00
11.3378 2161.00
11.403 2145.00
11.4682 2094.00
11.5334 2135.00
11.5986 2104.00
11.6638 2003.00
11.729 2116.00
11.7942 1994.00
11.8594 2067.00
11.9246 1973.00
11.9898 1997.00
12.055 2083.00
12.1202 1958.00
12.1854 1898.00
12.2506 1988.00
12.3158 1964.00
12.381 1958.00
12.4462 2030.00
12.5114 1862.00
12.5766 2036.00
12.6418 1991.00
12.707 1967.00
12.7722 1927.00
12.8374 1919.00
12.9026 1903.00
12.9678 1862.00
13.033 1934.00
13.0982 1896.00
13.1634 2038.00
13.2286 1972.00
13.2938 1967.00
13.359 1971.00
13.4242 1924.00
13.4894 2017.00
13.5546 2159.00
13.6198 2060.00
13.685 1814.00
13.7502 1737.00
13.8154 1780.00
13.8805 1692.00
13.9457 1656.00
14.0109 1750.00
14.0761 1761.00
14.1413 1692.00
14.2065 1670.00
14.2717 1653.00
14.3369 1632.00
14.4021 1613.00
14.4673 1539.00
14.5325 1569.00
14.5977 1660.00
14.6629 1555.00
14.7281 1571.00
14.7933 1638.00
14.8585 1658.00
14.9237 1600.00
14.9889 1654.00
15.0541 1554.00
15.1193 1565.00
15.1845 1459.00
15.2497 1534.00
15.3149 1495.00
15.3801 1508.00
15.4453 1515.00
15.5105 1524.00
15.5757 1488.00
15.6409 1535.00
15.7061 1449.00
15.7713 1487.00
15.8365 1454.00
15.9017 1494.00
15.9669 1376.00
16.0321 1423.00
16.0973 1492.00
16.1625 1394.00
16.2277 1433.00
16.2929 1386.00
16.3581 1447.00
16.4233 1388.00
16.4885 1450.00
16.5537 1445.00
16.6189 1367.00
16.6841 1439.00
16.7493 1382.00
16.8145 1352.00
16.8797 1311.00
16.9449 1386.00
17.0101 1314.00
17.0753 1523.00
17.1405 1432.00
17.2057 1295.00
17.2709 1307.00
17.3361 1300.00
17.4013 1332.00
17.4665 1409.00
17.5317 1332.00
17.5969 1310.00
17.6621 1241.00
17.7273 1276.00
17.7925 1328.00
17.8577 1367.00
17.9229 1342.00
17.9881 1414.00
18.0533 1349.00
18.1185 1398.00
18.1837 1421.00
18.2489 1455.00
18.3141 1480.00
18.3793 1597.00
18.4445 1622.00
18.5097 1783.00
18.5749 1788.00
18.6401 1819.00
18.7052 1810.00
18.7704 1830.00
18.8356 1913.00
18.9008 1740.00
18.966 1481.00
19.0312 1226.00
19.0964 1203.00
19.1616 1249.00
19.2268 1221.00
19.292 1217.00
19.3572 1183.00
19.4224 1212.00
19.4876 1182.00
19.5528 1195.00
19.618 1198.00
19.6832 1203.00
19.7484 1280.00
19.8136 1188.00
19.8788 1184.00
19.944 1158.00
20.0092 1150.00
20.0744 1210.00
20.1396 1242.00
20.2048 1156.00
20.27 1113.00
20.3352 1130.00
20.4004 1110.00
20.4656 1165.00
20.5308 1171.00
20.596 1181.00
20.6612 1170.00
20.7264 1210.00
20.7916 1133.00
20.8568 1081.00
20.922 1095.00
20.9872 1091.00
21.0524 1118.00
21.1176 1062.00
21.1828 1105.00
21.248 1106.00
21.3132 1081.00
21.3784 1001.00
21.4436 1033.00
21.5088 1014.00
21.574 1009.00
21.6392 1076.00
21.7044 1011.00
21.7696 1008.00
21.8348 1002.00
21.9 1052.00
21.9652 1076.00
22.0304 1070.00
22.0956 1029.00
22.1608 1080.00
22.226 1096.00
22.2912 1024.00
22.3564 1074.00
22.4216 1054.00
22.4868 982.00
22.552 1006.00
22.6172 959.00
22.6824 978.00
22.7476 1029.00
22.8128 1011.00
22.878 935.00
22.9432 952.00
23.0084 958.00
23.0736 941.00
23.1388 990.00
23.204 985.00
23.2692 960.00
23.3344 1038.00
23.3996 1125.00
23.4647 1092.00
23.5299 1195.00
23.5951 1166.00
23.6603 1120.00
23.7255 1181.00
23.7907 1305.00
23.8559 1423.00
23.9211 1280.00
23.9863 1187.00
24.0515 990.00
24.1167 984.00
24.1819 956.00
24.2471 889.00
24.3123 917.00
24.3775 915.00
24.4427 922.00
24.5079 917.00
24.5731 901.00
24.6383 918.00
24.7035 945.00
24.7687 892.00
24.8339 997.00
24.8991 944.00
24.9643 904.00
25.0295 920.00
25.0947 993.00
25.1599 1009.00
25.2251 1051.00
25.2903 1090.00
25.3555 1039.00
25.4207 1119.00
25.4859 1100.00
25.5511 1206.00
25.6163 1306.00
25.6815 1418.00
25.7467 1277.00
25.8119 1060.00
25.8771 851.00
25.9423 922.00
26.0075 889.00
26.0727 940.00
26.1379 985.00
26.2031 974.00
26.2683 1056.00
26.3335 1112.00
26.3987 1160.00
26.4639 1275.00
26.5291 1535.00
26.5943 1524.00
26.6595 1167.00
26.7247 1055.00
26.7899 987.00
26.8551 1148.00
26.9203 1156.00
26.9855 1085.00
27.0507 984.00
27.1159 882.00
27.1811 871.00
27.2463 882.00
27.3115 898.00
27.3767 841.00
27.4419 895.00
27.5071 809.00
27.5723 864.00
27.6375 910.00
27.7027 883.00
27.7679 999.00
27.8331 1011.00
27.8983 992.00
27.9635 864.00
28.0287 782.00
28.0939 829.00
28.1591 804.00
28.2243 863.00
28.2894 862.00
28.3546 906.00
28.4198 893.00
28.485 918.00
28.5502 978.00
28.6154 1101.00
28.6806 1224.00
28.7458 1338.00
28.811 1390.00
28.8762 1520.00
28.9414 1559.00
29.0066 1599.00
29.0718 1838.00
29.137 2020.00
29.2022 2117.00
29.2674 2133.00
29.3326 1866.00
29.3978 1617.00
29.463 1331.00
29.5282 1233.00
29.5934 1192.00
29.6586 1156.00
29.7238 1325.00
29.789 1358.00
29.8542 1384.00
29.9194 1350.00
29.9846 1294.00
30.0498 1305.00
30.115 1411.00
30.1802 1723.00
30.2454 1943.00
30.3106 1886.00
30.3758 1639.00
30.441 1223.00
30.5062 1078.00
30.5714 1044.00
30.6366 1032.00
30.7018 1075.00
30.767 1102.00
30.8322 1111.00
30.8974 1052.00
30.9626 1039.00
31.0278 1208.00
31.093 1249.00
31.1582 1240.00
31.2234 990.00
31.2886 916.00
31.3538 791.00
31.419 752.00
31.4842 695.00
31.5494 714.00
31.6146 776.00
31.6798 787.00
31.745 864.00
31.8102 896.00
31.8754 922.00
31.9406 968.00
32.0058 966.00
32.071 1041.00
32.1362 972.00
32.2014 962.00
32.2666 876.00
32.3318 939.00
32.397 827.00
32.4622 758.00
32.5274 704.00
32.5926 656.00
32.6578 715.00
32.723 699.00
32.7882 645.00
32.8534 704.00
32.9186 659.00
32.9838 663.00
33.0489 683.00
33.1141 761.00
33.1793 767.00
33.2445 725.00
33.3097 724.00
33.3749 707.00
33.4401 682.00
33.5053 727.00
33.5705 667.00
33.6357 701.00
33.7009 703.00
33.7661 678.00
33.8313 689.00
33.8965 666.00
33.9617 740.00
34.0269 745.00
34.0921 736.00
34.1573 792.00
34.2225 678.00
34.2877 680.00
34.3529 715.00
34.4181 711.00
34.4833 770.00
34.5485 792.00
34.6137 855.00
34.6789 811.00
34.7441 917.00
34.8093 918.00
34.8745 943.00
34.9397 882.00
35.0049 970.00
35.0701 881.00
35.1353 815.00
35.2005 699.00
35.2657 689.00
35.3309 618.00
35.3961 665.00
35.4613 693.00
35.5265 664.00
35.5917 637.00
35.6569 593.00
35.7221 597.00
35.7873 529.00
35.8525 545.00
35.9177 582.00
35.9829 597.00
36.0481 597.00
36.1133 545.00
36.1785 554.00
36.2437 548.00
36.3089 572.00
36.3741 615.00
36.4393 603.00
36.5045 706.00
36.5697 783.00
36.6349 756.00
36.7001 812.00
36.7653 714.00
36.8305 703.00
36.8957 539.00
36.9609 534.00
37.0261 558.00
37.0913 597.00
37.1565 610.00
37.2217 645.00
37.2869 681.00
37.3521 682.00
37.4173 689.00
37.4825 700.00
37.5477 713.00
37.6129 690.00
37.6781 664.00
37.7433 665.00
37.8085 633.00
37.8736 571.00
37.9388 617.00
38.004 628.00
38.0692 660.00
38.1344 695.00
38.1996 638.00
38.2648 608.00
38.33 541.00
38.3952 554.00
38.4604 519.00
38.5256 527.00
38.5908 453.00
38.656 482.00
38.7212 519.00
38.7864 449.00
38.8516 529.00
38.9168 560.00
38.982 520.00
39.0472 512.00
39.1124 483.00
39.1776 499.00
39.2428 555.00
39.308 534.00
39.3732 532.00
39.4384 546.00
39.5036 551.00
39.5688 578.00
39.634 584.00
39.6992 606.00
39.7644 615.00
39.8296 624.00
39.8948 574.00
39.96 611.00
40.0252 618.00
40.0904 524.00
40.1556 511.00
40.2208 515.00
40.286 533.00
40.3512 537.00
40.4164 528.00
40.4816 566.00
40.5468 544.00
40.612 569.00
40.6772 532.00
40.7424 539.00
40.8076 625.00
40.8728 566.00
40.938 549.00
41.0032 506.00
41.0684 546.00
41.1336 549.00
41.1988 582.00
41.264 600.00
41.3292 537.00
41.3944 533.00
41.4596 498.00
41.5248 521.00
41.59 515.00
41.6552 495.00
41.7204 493.00
41.7856 545.00
41.8508 513.00
41.916 536.00
41.9812 517.00
42.0464 540.00
42.1116 524.00
42.1768 504.00
42.242 575.00
42.3072 544.00
42.3724 540.00
42.4376 460.00
42.5028 454.00
42.568 461.00
42.6332 446.00
42.6983 448.00
42.7635 436.00
42.8287 424.00
42.8939 433.00
42.9591 405.00
43.0243 423.00
43.0895 395.00
43.1547 446.00
43.2199 405.00
43.2851 455.00
43.3503 416.00
43.4155 468.00
43.4807 414.00
43.5459 455.00
43.6111 434.00
43.6763 450.00
43.7415 421.00
43.8067 417.00
43.8719 443.00
43.9371 447.00
44.0023 424.00
44.0675 454.00
44.1327 444.00
44.1979 421.00
44.2631 460.00
44.3283 412.00
44.3935 468.00
44.4587 386.00
44.5239 446.00
44.5891 405.00
44.6543 390.00
44.7195 409.00
44.7847 422.00
44.8499 416.00
44.9151 395.00
44.9803 442.00
45.0455 435.00
45.1107 402.00
45.1759 447.00
45.2411 446.00
45.3063 418.00
45.3715 471.00
45.4367 444.00
45.5019 442.00
45.5671 470.00
45.6323 438.00
45.6975 419.00
45.7627 436.00
45.8279 409.00
45.8931 425.00
45.9583 410.00
46.0235 420.00
46.0887 464.00
46.1539 417.00
46.2191 433.00
46.2843 455.00
46.3495 414.00
46.4147 466.00
46.4799 476.00
46.5451 516.00
46.6103 477.00
46.6755 514.00
46.7407 527.00
46.8059 555.00
46.8711 573.00
46.9363 576.00
47.0015 620.00
47.0667 624.00
47.1319 561.00
47.1971 566.00
47.2623 535.00
47.3275 544.00
47.3927 601.00
47.4579 621.00
47.523 717.00
47.5882 714.00
47.6534 756.00
47.7186 746.00
47.7838 784.00
47.849 665.00
47.9142 621.00
47.9794 589.00
48.0446 630.00
48.1098 663.00
48.175 631.00
48.2402 664.00
48.3054 650.00
48.3706 745.00
48.4358 714.00
48.501 703.00
48.5662 680.00
48.6314 628.00
48.6966 617.00
48.7618 792.00
48.827 783.00
48.8922 897.00
48.9574 866.00
49.0226 810.00
49.0878 639.00
49.153 534.00
49.2182 478.00
49.2834 476.00
49.3486 476.00
49.4138 495.00
49.479 550.00
49.5442 517.00
49.6094 447.00
49.6746 464.00
49.7398 455.00
49.805 442.00
49.8702 435.00
49.9354 447.00
50.0006 404.00
50.0658 420.00
50.131 467.00
50.1962 450.00
50.2614 433.00
50.3266 479.00
50.3918 475.00
50.457 479.00
50.5222 483.00
50.5874 516.00
50.6526 538.00
50.7178 467.00
50.783 548.00
50.8482 519.00
50.9134 492.00
50.9786 468.00
51.0438 550.00
51.109 553.00
51.1742 628.00
51.2394 654.00
51.3046 597.00
51.3698 635.00
51.435 618.00
51.5002 667.00
51.5654 654.00
51.6306 620.00
51.6958 550.00
51.761 525.00
51.8262 497.00
51.8914 459.00
51.9566 436.00
52.0218 427.00
52.087 400.00
52.1522 396.00
52.2174 435.00
52.2826 480.00
52.3477 446.00
52.4129 481.00
52.4781 488.00
52.5433 466.00
52.6085 473.00
52.6737 473.00
52.7389 492.00
52.8041 462.00
52.8693 504.00
52.9345 534.00
52.9997 533.00
53.0649 555.00
53.1301 511.00
53.1953 545.00
53.2605 549.00
53.3257 526.00
53.3909 575.00
53.4561 505.00
53.5213 511.00
53.5865 471.00
53.6517 506.00
53.7169 506.00
53.7821 447.00
53.8473 474.00
53.9125 495.00
53.9777 490.00
54.0429 512.00
54.1081 570.00
54.1733 664.00
54.2385 704.00
54.3037 594.00
54.3689 534.00
54.4341 557.00
54.4993 504.00
54.5645 510.00
54.6297 513.00
54.6949 532.00
54.7601 479.00
54.8253 500.00
54.8905 482.00
54.9557 462.00
55.0209 502.00
55.0861 495.00
55.1513 561.00
55.2165 493.00
55.2817 550.00
55.3469 552.00
55.4121 662.00
55.4773 612.00
55.5425 655.00
55.6077 666.00
55.6729 631.00
55.7381 573.00
55.8033 492.00
55.8685 468.00
55.9337 494.00
55.9989 472.00
56.0641 467.00
56.1293 430.00
56.1945 518.00
56.2597 561.00
56.3249 537.00
56.3901 505.00
56.4553 590.00
56.5205 572.00
56.5857 576.00
56.6509 543.00
56.7161 491.00
56.7813 476.00
56.8465 471.00
56.9117 478.00
56.9769 416.00
57.042 403.00
57.1073 442.00
57.1724 449.00
57.2376 434.00
57.3028 448.00
57.368 440.00
57.4332 395.00
57.4984 413.00
57.5636 398.00
57.6288 396.00
57.694 380.00
57.7592 395.00
57.8244 388.00
57.8896 387.00
57.9548 383.00
58.02 411.00
58.0852 384.00
58.1504 400.00
58.2156 428.00
58.2808 406.00
58.346 413.00
58.4112 471.00
58.4764 478.00
58.5416 374.00
58.6068 436.00
58.672 456.00
58.7372 488.00
58.8024 487.00
58.8676 465.00
58.9328 539.00
58.998 508.00
59.0632 510.00
59.1284 519.00
59.1936 452.00
59.2588 486.00
59.324 419.00
59.3892 463.00
59.4544 440.00
59.5196 429.00
59.5848 393.00
59.65 411.00
59.7152 432.00
59.7804 474.00
59.8456 431.00
59.9108 435.00
59.976 432.00
60.0412 459.00
60.1064 450.00
60.1716 448.00
60.2368 477.00
60.302 497.00
60.3672 458.00
60.4324 403.00
60.4976 446.00
60.5628 461.00
60.628 437.00
60.6932 490.00
60.7584 440.00
60.8236 485.00
60.8888 485.00
60.954 501.00
61.0192 495.00
61.0844 533.00
61.1496 526.00
61.2148 516.00
61.28 484.00
61.3452 460.00
61.4104 462.00
61.4756 451.00
61.5408 423.00
61.606 455.00
61.6712 387.00
61.7364 418.00
61.8016 422.00
61.8667 432.00
61.932 402.00
61.9971 391.00
62.0623 360.00
62.1275 385.00
62.1927 437.00
62.2579 459.00
62.3231 491.00
62.3883 533.00
62.4535 519.00
62.5187 570.00
62.5839 555.00
62.6491 497.00
62.7143 468.00
62.7795 478.00
62.8447 484.00
62.9099 506.00
62.9751 509.00
63.0403 537.00
63.1055 537.00
63.1707 530.00
63.2359 486.00
63.3011 396.00
63.3663 463.00
63.4315 451.00
63.4967 417.00
63.5619 363.00
63.6271 399.00
63.6923 375.00
63.7575 347.00
63.8227 373.00
63.8879 386.00
63.9531 360.00
64.0183 316.00
64.0835 357.00
64.1487 323.00
64.2139 362.00
64.2791 357.00
64.3443 338.00
64.4095 343.00
64.4747 364.00
64.5399 326.00
64.6051 330.00
64.6703 339.00
64.7355 328.00
64.8007 401.00
64.8659 314.00
64.9311 388.00
64.9963 347.00
65.0615 377.00
65.1267 344.00
65.1919 369.00
65.2571 359.00
65.3223 384.00
65.3875 333.00
65.4527 400.00
65.5179 372.00
65.5831 366.00
65.6483 334.00
65.7135 332.00
65.7787 327.00
65.8439 340.00
65.9091 327.00
65.9743 309.00
66.0395 345.00
66.1047 362.00
66.1699 336.00
66.2351 353.00
66.3003 345.00
66.3655 366.00
66.4307 368.00
66.4959 378.00
66.561 317.00
66.6263 393.00
66.6915 347.00
66.7566 342.00
66.8218 357.00
66.887 369.00
66.9522 347.00
67.0174 350.00
67.0826 350.00
67.1478 339.00
67.213 342.00
67.2782 349.00
67.3434 312.00
67.4086 359.00
67.4738 347.00
67.539 313.00
67.6042 381.00
67.6694 350.00
67.7346 355.00
67.7998 343.00
67.865 352.00
67.9302 334.00
67.9954 312.00
68.0606 348.00
68.1258 362.00
68.191 306.00
68.2562 315.00
68.3214 298.00
68.3866 295.00
68.4518 266.00
68.517 297.00
68.5822 309.00
68.6474 300.00
68.7126 295.00
68.7778 309.00
68.843 340.00
68.9082 317.00
68.9734 348.00
69.0386 339.00
69.1038 366.00
69.169 315.00
69.2342 325.00
69.2994 347.00
69.3646 314.00
69.4298 331.00
69.495 329.00
69.5602 329.00
69.6254 291.00
69.6906 305.00
69.7558 326.00
69.821 327.00
69.8862 311.00
69.9514 315.00
70.0166 305.00
70.0818 327.00
70.147 345.00
70.2122 323.00
70.2774 354.00
70.3426 361.00
70.4078 333.00
70.473 334.00
70.5382 337.00
70.6034 358.00
70.6686 362.00
70.7338 333.00
70.799 341.00
70.8642 294.00
70.9294 276.00
70.9946 303.00
71.0598 290.00
71.125 304.00
71.1902 294.00
71.2554 302.00
71.3205 317.00
71.3858 292.00
71.451 293.00
71.5162 299.00
71.5813 310.00
71.6465 302.00
71.7117 329.00
71.7769 313.00
71.8421 308.00
71.9073 300.00
71.9725 358.00
72.0377 366.00
72.1029 314.00
72.1681 352.00
72.2333 336.00
72.2985 322.00
72.3637 330.00
72.4289 322.00
72.4941 297.00
72.5593 324.00
72.6245 327.00
72.6897 314.00
72.7549 359.00
72.8201 344.00
72.8853 364.00
72.9505 335.00
73.0157 327.00
73.0809 306.00
73.1461 315.00
73.2113 324.00
73.2765 301.00
73.3417 334.00
73.4069 321.00
73.4721 341.00
73.5373 323.00
73.6025 313.00
73.6677 305.00
73.7329 297.00
73.7981 348.00
73.8633 363.00
73.9285 354.00
73.9937 352.00
74.0589 334.00
74.1241 320.00
74.1893 337.00
74.2545 356.00
74.3197 348.00
74.3849 320.00
74.4501 331.00
74.5153 372.00
74.5805 316.00
74.6457 291.00
74.7109 276.00
74.7761 287.00
74.8413 307.00
74.9065 334.00
74.9717 351.00
75.0369 368.00
75.1021 366.00
75.1673 376.00
75.2325 383.00
75.2977 472.00
75.3629 404.00
75.4281 352.00
75.4933 382.00
75.5585 400.00
75.6237 397.00
75.6889 365.00
75.7541 341.00
75.8193 399.00
75.8845 352.00
75.9497 354.00
76.0149 338.00
76.0801 289.00
76.1452 318.00
76.2104 329.00
76.2756 310.00
76.3409 346.00
76.406 295.00
76.4712 335.00
76.5364 310.00
76.6016 296.00
76.6668 298.00
76.732 287.00
76.7972 344.00
76.8624 297.00
76.9276 303.00
76.9928 305.00
77.058 332.00
77.1232 286.00
77.1884 299.00
77.2536 304.00
77.3188 315.00
77.384 310.00
77.4492 304.00
77.5144 318.00
77.5796 306.00
77.6448 264.00
77.71 328.00
77.7752 309.00
77.8404 319.00
77.9056 325.00
77.9708 329.00
78.036 333.00
78.1012 394.00
78.1664 335.00
78.2316 335.00
78.2968 306.00
78.362 322.00
78.4272 350.00
78.4924 326.00
78.5576 307.00
78.6228 311.00
78.688 314.00
78.7532 316.00
78.8184 283.00
78.8836 323.00
78.9488 319.00
79.014 318.00
79.0792 310.00
79.1444 329.00
79.2096 299.00
79.2748 313.00
79.34 316.00
79.4052 293.00
79.4704 308.00
79.5356 297.00
79.6008 272.00
79.666 277.00
79.7312 305.00
79.7964 278.00
79.8616 303.00
79.9268 324.00
79.992 322.00
80.0572 293.00
80.1224 299.00
80.1876 303.00
80.2528 317.00
80.318 301.00
80.3832 326.00
80.4484 285.00
80.5136 294.00
80.5788 325.00
80.644 285.00
80.7092 294.00
80.7744 322.00
80.8396 342.00
80.9048 334.00
80.9699 340.00
81.0351 366.00
81.1003 361.00
81.1655 358.00
81.2307 365.00
81.2959 384.00
81.3611 314.00
81.4263 331.00
81.4915 287.00
81.5567 310.00
81.6219 307.00
81.6871 267.00
81.7523 313.00
81.8175 296.00
81.8827 329.00
81.9479 287.00
82.0131 316.00
82.0783 296.00
82.1435 312.00
82.2087 291.00
82.2739 290.00
82.3391 277.00
82.4043 304.00
82.4695 303.00
82.5347 334.00
82.5999 373.00
82.6651 279.00
82.7303 273.00
82.7955 356.00
82.8607 325.00
82.9259 343.00
82.9911 341.00
83.0563 340.00
83.1215 347.00
83.1867 332.00
83.2519 308.00
83.3171 333.00
83.3823 338.00
83.4475 294.00
83.5127 300.00
83.5779 313.00
83.6431 318.00
83.7083 316.00
83.7735 273.00
83.8387 309.00
83.9039 311.00
83.9691 304.00
84.0343 319.00
84.0995 348.00
84.1647 343.00
84.2299 365.00
84.2951 322.00
84.3603 290.00
84.4255 330.00
84.4907 305.00
84.5559 320.00
84.6211 316.00
84.6863 274.00
84.7515 325.00
84.8167 302.00
84.8819 291.00
84.9471 332.00
85.0123 294.00
85.0775 280.00
85.1427 286.00
85.2079 250.00
85.2731 246.00
85.3383 302.00
85.4035 284.00
85.4687 264.00
85.5339 293.00
85.5991 285.00
85.6643 287.00
85.7295 293.00
85.7946 343.00
85.8598 309.00
85.925 308.00
85.9903 301.00
86.0554 267.00
86.1206 309.00
86.1858 271.00
86.251 262.00
86.3162 265.00
86.3814 299.00
86.4466 287.00
86.5118 311.00
86.577 278.00
86.6422 282.00
86.7074 307.00
86.7726 291.00
86.8378 287.00
86.903 300.00
86.9682 327.00
87.0334 284.00
87.0986 311.00
87.1638 305.00
87.229 289.00
87.2942 312.00
87.3594 279.00
87.4246 319.00
87.4898 344.00
87.555 303.00
87.6202 312.00
87.6854 329.00
87.7506 336.00
87.8158 347.00
87.881 318.00
87.9462 313.00
88.0114 345.00
88.0766 320.00
88.1418 303.00
88.207 304.00
88.2722 308.00
88.3374 300.00
88.4026 316.00
88.4678 307.00
88.533 297.00
88.5982 280.00
88.6634 291.00
88.7286 266.00
88.7938 283.00
88.859 307.00
88.9242 285.00
88.9894 271.00
89.0546 280.00
89.1198 283.00
89.185 287.00
89.2502 315.00
89.3154 283.00
89.3806 301.00
89.4458 339.00
89.511 283.00
89.5762 256.00
89.6414 284.00
89.7066 272.00
89.7718 318.00
89.837 352.00
89.9022 322.00
89.9674 317.00
90.0326 334.00
90.0978 336.00
90.163 324.00
90.2282 283.00
90.2934 336.00
90.3586 310.00
90.4238 318.00
90.489 283.00
90.5542 278.00
90.6193 290.00
90.6845 322.00
90.7497 295.00
90.8149 305.00
90.8801 287.00
90.9453 295.00
91.0105 288.00
91.0757 279.00
91.1409 279.00
91.2061 272.00
91.2713 265.00
91.3365 237.00
91.4017 272.00
91.4669 303.00
91.5321 311.00
91.5973 309.00
91.6625 310.00
91.7277 249.00
91.7929 318.00
91.8581 281.00
91.9233 298.00
91.9885 272.00
92.0537 293.00
92.1189 272.00
92.1841 247.00
92.2493 285.00
92.3145 287.00
92.3797 287.00
92.4449 237.00
92.5101 302.00
92.5753 286.00
92.6405 264.00
92.7057 281.00
92.7709 274.00
92.8361 324.00
92.9013 297.00
92.9665 305.00
93.0317 279.00
93.0969 318.00
93.1621 324.00
93.2273 282.00
93.2925 312.00
93.3577 288.00
93.4229 288.00
93.4881 299.00
93.5533 276.00
93.6185 300.00
93.6837 294.00
93.7489 274.00
93.8141 279.00
93.8793 295.00
93.9445 249.00
94.0097 271.00
94.0749 262.00
94.1401 277.00
94.2053 287.00
94.2705 266.00
94.3357 267.00
94.4009 260.00
94.4661 257.00
94.5313 278.00
94.5965 269.00
94.6617 296.00
94.7269 286.00
94.7921 305.00
94.8573 219.00
94.9225 270.00
94.9877 275.00
95.0529 294.00
95.1181 282.00
95.1833 235.00
95.2485 271.00
95.3137 275.00
95.3789 308.00
95.444 295.00
95.5092 299.00
95.5744 300.00
95.6396 280.00
95.7048 297.00
95.77 301.00
95.8352 284.00
95.9004 320.00
95.9656 317.00
96.0308 283.00
96.096 280.00
96.1612 267.00
96.2264 276.00
96.2916 299.00
96.3568 315.00
96.422 300.00
96.4872 264.00
96.5524 316.00
96.6176 265.00
96.6828 292.00
96.748 299.00
96.8132 301.00
96.8784 296.00
96.9436 270.00
97.0088 268.00
97.074 267.00
97.1392 281.00
97.2044 241.00
97.2696 298.00
97.3348 272.00
97.4 281.00
97.4652 260.00
97.5304 287.00
97.5956 251.00
97.6608 248.00
97.726 264.00
97.7912 256.00
97.8564 260.00
97.9216 258.00
97.9868 264.00
98.052 260.00
98.1172 283.00
98.1824 277.00
98.2476 297.00
98.3128 288.00
98.378 265.00
98.4432 303.00
98.5084 236.00
98.5736 299.00
98.6388 269.00
98.704 286.00
98.7692 280.00
98.8344 289.00
98.8996 299.00
98.9648 276.00
99.03 287.00
99.0952 274.00
99.1604 276.00
99.2256 260.00
99.2908 279.00
99.356 320.00
99.4212 302.00
99.4864 276.00
99.5516 287.00
99.6168 287.00
99.682 243.00
99.7472 236.00
99.8124 282.00
99.8776 267.00
99.9428 290.00
100.008 276.00
100.073 271.00
100.095 260.00