File: data/xrd_creation/results/Na_54.xy
9.903433 2880.00
9.968632 2955.00
10.0338 2888.00
10.099 2738.00
10.1642 2844.00
10.2294 2832.00
10.2946 2759.00
10.3598 2565.00
10.425 2607.00
10.4902 2683.00
10.5554 2701.00
10.6206 2630.00
10.6858 2568.00
10.751 2570.00
10.8162 2580.00
10.8814 2528.00
10.9466 2540.00
11.0118 2524.00
11.077 2520.00
11.1422 2402.00
11.2074 2412.00
11.2726 2439.00
11.3378 2465.00
11.403 2313.00
11.4682 2485.00
11.5334 2370.00
11.5986 2285.00
11.6638 2354.00
11.729 2319.00
11.7942 2326.00
11.8594 2356.00
11.9246 2275.00
11.9898 2239.00
12.055 2319.00
12.1202 2190.00
12.1854 2168.00
12.2506 2249.00
12.3158 2120.00
12.381 2225.00
12.4462 2295.00
12.5114 2139.00
12.5766 2181.00
12.6418 2165.00
12.707 2156.00
12.7722 2114.00
12.8374 2083.00
12.9026 2193.00
12.9678 2146.00
13.033 2164.00
13.0982 2079.00
13.1634 2173.00
13.2286 2046.00
13.2938 2148.00
13.359 2124.00
13.4242 2192.00
13.4894 2161.00
13.5546 2206.00
13.6198 2311.00
13.685 2283.00
13.7502 2358.00
13.8154 2336.00
13.8805 2344.00
13.9457 2441.00
14.0109 2432.00
14.0761 2477.00
14.1413 2560.00
14.2065 2509.00
14.2717 2527.00
14.3369 2365.00
14.4021 2504.00
14.4673 2322.00
14.5325 2428.00
14.5977 2281.00
14.6629 2226.00
14.7281 2232.00
14.7933 2250.00
14.8585 2193.00
14.9237 2138.00
14.9889 2174.00
15.0541 2099.00
15.1193 2066.00
15.1845 2183.00
15.2497 1992.00
15.3149 2052.00
15.3801 2054.00
15.4453 1974.00
15.5105 2054.00
15.5757 1963.00
15.6409 2117.00
15.7061 1966.00
15.7713 1963.00
15.8365 2016.00
15.9017 1967.00
15.9669 2034.00
16.0321 2046.00
16.0973 1931.00
16.1625 2023.00
16.2277 1972.00
16.2929 1994.00
16.3581 1952.00
16.4233 2004.00
16.4885 2016.00
16.5537 2064.00
16.6189 2055.00
16.6841 2100.00
16.7493 2038.00
16.8145 2105.00
16.8797 2154.00
16.9449 2143.00
17.0101 2152.00
17.0753 2077.00
17.1405 2151.00
17.2057 2103.00
17.2709 2100.00
17.3361 2070.00
17.4013 2028.00
17.4665 1972.00
17.5317 1958.00
17.5969 1988.00
17.6621 1888.00
17.7273 1923.00
17.7925 1933.00
17.8577 1909.00
17.9229 1810.00
17.9881 1928.00
18.0533 1884.00
18.1185 1888.00
18.1837 1903.00
18.2489 1886.00
18.3141 1913.00
18.3793 1859.00
18.4445 2012.00
18.5097 1949.00
18.5749 1900.00
18.6401 1965.00
18.7052 1908.00
18.7704 1886.00
18.8356 1892.00
18.9008 1837.00
18.966 1787.00
19.0312 1829.00
19.0964 1889.00
19.1616 1764.00
19.2268 1787.00
19.292 1756.00
19.3572 1715.00
19.4224 1735.00
19.4876 1667.00
19.5528 1819.00
19.618 1763.00
19.6832 1743.00
19.7484 1673.00
19.8136 1789.00
19.8788 1778.00
19.944 1837.00
20.0092 1718.00
20.0744 1775.00
20.1396 1706.00
20.2048 1705.00
20.27 1719.00
20.3352 1656.00
20.4004 1652.00
20.4656 1674.00
20.5308 1778.00
20.596 1638.00
20.6612 1681.00
20.7264 1689.00
20.7916 1736.00
20.8568 1754.00
20.922 1806.00
20.9872 1865.00
21.0524 1811.00
21.1176 1941.00
21.1828 1891.00
21.248 1850.00
21.3132 1817.00
21.3784 1819.00
21.4436 1909.00
21.5088 1987.00
21.574 2039.00
21.6392 2067.00
21.7044 1926.00
21.7696 2017.00
21.8348 2040.00
21.9 1906.00
21.9652 2016.00
22.0304 2012.00
22.0956 1814.00
22.1608 1872.00
22.226 1850.00
22.2912 1805.00
22.3564 1731.00
22.4216 1707.00
22.4868 1778.00
22.552 1724.00
22.6172 1747.00
22.6824 1760.00
22.7476 1815.00
22.8128 1864.00
22.878 1887.00
22.9432 1932.00
23.0084 1819.00
23.0736 1775.00
23.1388 1685.00
23.204 1645.00
23.2692 1648.00
23.3344 1712.00
23.3996 1686.00
23.4647 1866.00
23.5299 1984.00
23.5951 1967.00
23.6603 2050.00
23.7255 2218.00
23.7907 2202.00
23.8559 2177.00
23.9211 1854.00
23.9863 1736.00
24.0515 1734.00
24.1167 1691.00
24.1819 1831.00
24.2471 1860.00
24.3123 1820.00
24.3775 1789.00
24.4427 1857.00
24.5079 1916.00
24.5731 1889.00
24.6383 1949.00
24.7035 2004.00
24.7687 2003.00
24.8339 2036.00
24.8991 2139.00
24.9643 2014.00
25.0295 2121.00
25.0947 2181.00
25.1599 2191.00
25.2251 2292.00
25.2903 2268.00
25.3555 2372.00
25.4207 2443.00
25.4859 2345.00
25.5511 2449.00
25.6163 2391.00
25.6815 2505.00
25.7467 2564.00
25.8119 2557.00
25.8771 2789.00
25.9423 2938.00
26.0075 3239.00
26.0727 3325.00
26.1379 3404.00
26.2031 3530.00
26.2683 3641.00
26.3335 3091.00
26.3987 2465.00
26.4639 2196.00
26.5291 2092.00
26.5943 1974.00
26.6595 1882.00
26.7247 1805.00
26.7899 1785.00
26.8551 1759.00
26.9203 1714.00
26.9855 1683.00
27.0507 1547.00
27.1159 1557.00
27.1811 1526.00
27.2463 1515.00
27.3115 1601.00
27.3767 1595.00
27.4419 1777.00
27.5071 1954.00
27.5723 2240.00
27.6375 2453.00
27.7027 2633.00
27.7679 2833.00
27.8331 2865.00
27.8983 2607.00
27.9635 1974.00
28.0287 1535.00
28.0939 1283.00
28.1591 1261.00
28.2243 1215.00
28.2894 1193.00
28.3546 1207.00
28.4198 1129.00
28.485 1138.00
28.5502 1185.00
28.6154 1136.00
28.6806 1157.00
28.7458 1119.00
28.811 1151.00
28.8762 1082.00
28.9414 1069.00
29.0066 1105.00
29.0718 1073.00
29.137 1151.00
29.2022 1093.00
29.2674 1187.00
29.3326 1100.00
29.3978 1160.00
29.463 1065.00
29.5282 1050.00
29.5934 1177.00
29.6586 1184.00
29.7238 1212.00
29.789 1368.00
29.8542 1641.00
29.9194 2151.00
29.9846 3356.00
30.0498 4683.00
30.115 5995.00
30.1802 7225.00
30.2454 8077.00
30.3106 9029.00
30.3758 8549.00
30.441 5954.00
30.5062 3242.00
30.5714 1869.00
30.6366 1595.00
30.7018 1445.00
30.767 1241.00
30.8322 1157.00
30.8974 1147.00
30.9626 1047.00
31.0278 1134.00
31.093 1051.00
31.1582 1041.00
31.2234 1184.00
31.2886 1050.00
31.3538 980.00
31.419 982.00
31.4842 981.00
31.5494 960.00
31.6146 976.00
31.6798 976.00
31.745 1006.00
31.8102 1004.00
31.8754 956.00
31.9406 979.00
32.0058 1003.00
32.071 977.00
32.1362 949.00
32.2014 934.00
32.2666 979.00
32.3318 937.00
32.397 933.00
32.4622 949.00
32.5274 968.00
32.5926 941.00
32.6578 974.00
32.723 1040.00
32.7882 1130.00
32.8534 1358.00
32.9186 1718.00
32.9838 2076.00
33.0489 2412.00
33.1141 2814.00
33.1793 3097.00
33.2445 3131.00
33.3097 2738.00
33.3749 2012.00
33.4401 1413.00
33.5053 1096.00
33.5705 1100.00
33.6357 1033.00
33.7009 1014.00
33.7661 1049.00
33.8313 1079.00
33.8965 1165.00
33.9617 1356.00
34.0269 1832.00
34.0921 2641.00
34.1573 3344.00
34.2225 3918.00
34.2877 4666.00
34.3529 5776.00
34.4181 6497.00
34.4833 6170.00
34.5485 5389.00
34.6137 5156.00
34.6789 5336.00
34.7441 5196.00
34.8093 4140.00
34.8745 2918.00
34.9397 2072.00
35.0049 2049.00
35.0701 2718.00
35.1353 3992.00
35.2005 5219.00
35.2657 6014.00
35.3309 6742.00
35.3961 7612.00
35.4613 7577.00
35.5265 5654.00
35.5917 3249.00
35.6569 1715.00
35.7221 1407.00
35.7873 1136.00
35.8525 1172.00
35.9177 1092.00
35.9829 1111.00
36.0481 1069.00
36.1133 1055.00
36.1785 978.00
36.2437 1000.00
36.3089 953.00
36.3741 965.00
36.4393 949.00
36.5045 959.00
36.5697 1016.00
36.6349 1000.00
36.7001 1035.00
36.7653 1113.00
36.8305 1199.00
36.8957 1143.00
36.9609 1239.00
37.0261 1216.00
37.0913 1198.00
37.1565 1223.00
37.2217 1077.00
37.2869 1064.00
37.3521 1218.00
37.4173 1274.00
37.4825 1358.00
37.5477 1564.00
37.6129 1723.00
37.6781 2006.00
37.7433 2367.00
37.8085 3095.00
37.8736 4405.00
37.9388 5901.00
38.004 7442.00
38.0692 8667.00
38.1344 9636.00
38.1996 10027.00
38.2648 8726.00
38.33 5903.00
38.3952 3752.00
38.4604 2395.00
38.5256 1941.00
38.5908 1773.00
38.656 1686.00
38.7212 1608.00
38.7864 1569.00
38.8516 1369.00
38.9168 1174.00
38.982 1051.00
39.0472 1022.00
39.1124 1015.00
39.1776 1022.00
39.2428 1043.00
39.308 1065.00
39.3732 1005.00
39.4384 1029.00
39.5036 1059.00
39.5688 1096.00
39.634 1168.00
39.6992 1347.00
39.7644 1759.00
39.8296 2557.00
39.8948 3372.00
39.96 3895.00
40.0252 4295.00
40.0904 4911.00
40.1556 5053.00
40.2208 4378.00
40.286 3122.00
40.3512 2047.00
40.4164 1367.00
40.4816 1177.00
40.5468 1082.00
40.612 1105.00
40.6772 1042.00
40.7424 978.00
40.8076 1078.00
40.8728 1214.00
40.938 1511.00
41.0032 2120.00
41.0684 2595.00
41.1336 3222.00
41.1988 3678.00
41.264 4211.00
41.3292 5056.00
41.3944 5431.00
41.4596 5102.00
41.5248 4945.00
41.59 5133.00
41.6552 5079.00
41.7204 4975.00
41.7856 3482.00
41.8508 2334.00
41.916 1573.00
41.9812 1255.00
42.0464 1163.00
42.1116 1072.00
42.1768 1139.00
42.242 1175.00
42.3072 1185.00
42.3724 1334.00
42.4376 1397.00
42.5028 1560.00
42.568 1542.00
42.6332 1652.00
42.6983 1535.00
42.7635 1495.00
42.8287 1438.00
42.8939 1384.00
42.9591 1285.00
43.0243 1271.00
43.0895 1193.00
43.1547 1180.00
43.2199 1214.00
43.2851 1093.00
43.3503 1132.00
43.4155 1091.00
43.4807 1097.00
43.5459 1031.00
43.6111 1046.00
43.6763 984.00
43.7415 940.00
43.8067 964.00
43.8719 977.00
43.9371 932.00
44.0023 1027.00
44.0675 1023.00
44.1327 1032.00
44.1979 1035.00
44.2631 1038.00
44.3283 1105.00
44.3935 1379.00
44.4587 1607.00
44.5239 1746.00
44.5891 1908.00
44.6543 2027.00
44.7195 1971.00
44.7847 1775.00
44.8499 1425.00
44.9151 1170.00
44.9803 1013.00
45.0455 920.00
45.1107 878.00
45.1759 913.00
45.2411 875.00
45.3063 853.00
45.3715 871.00
45.4367 914.00
45.5019 884.00
45.5671 833.00
45.6323 837.00
45.6975 751.00
45.7627 844.00
45.8279 843.00
45.8931 888.00
45.9583 794.00
46.0235 906.00
46.0887 892.00
46.1539 1031.00
46.2191 1202.00
46.2843 1435.00
46.3495 1755.00
46.4147 2328.00
46.4799 2865.00
46.5451 3283.00
46.6103 3344.00
46.6755 3338.00
46.7407 3400.00
46.8059 2684.00
46.8711 2072.00
46.9363 1546.00
47.0015 1290.00
47.0667 1225.00
47.1319 1269.00
47.1971 1307.00
47.2623 1292.00
47.3275 1178.00
47.3927 1027.00
47.4579 894.00
47.523 863.00
47.5882 851.00
47.6534 788.00
47.7186 814.00
47.7838 783.00
47.849 852.00
47.9142 933.00
47.9794 1008.00
48.0446 1174.00
48.1098 1662.00
48.175 2164.00
48.2402 2696.00
48.3054 3085.00
48.3706 3473.00
48.4358 3610.00
48.501 3303.00
48.5662 2442.00
48.6314 1854.00
48.6966 1235.00
48.7618 919.00
48.827 846.00
48.8922 862.00
48.9574 764.00
49.0226 783.00
49.0878 795.00
49.153 837.00
49.2182 894.00
49.2834 866.00
49.3486 910.00
49.4138 921.00
49.479 908.00
49.5442 859.00
49.6094 835.00
49.6746 789.00
49.7398 725.00
49.805 695.00
49.8702 707.00
49.9354 693.00
50.0006 663.00
50.0658 631.00
50.131 694.00
50.1962 703.00
50.2614 696.00
50.3266 686.00
50.3918 711.00
50.457 683.00
50.5222 704.00
50.5874 666.00
50.6526 782.00
50.7178 844.00
50.783 927.00
50.8482 929.00
50.9134 1004.00
50.9786 971.00
51.0438 980.00
51.109 824.00
51.1742 861.00
51.2394 774.00
51.3046 790.00
51.3698 761.00
51.435 727.00
51.5002 736.00
51.5654 659.00
51.6306 715.00
51.6958 706.00
51.761 659.00
51.8262 659.00
51.8914 670.00
51.9566 630.00
52.0218 682.00
52.087 647.00
52.1522 644.00
52.2174 671.00
52.2826 704.00
52.3477 660.00
52.4129 702.00
52.4781 725.00
52.5433 753.00
52.6085 761.00
52.6737 764.00
52.7389 722.00
52.8041 769.00
52.8693 749.00
52.9345 717.00
52.9997 711.00
53.0649 760.00
53.1301 820.00
53.1953 854.00
53.2605 954.00
53.3257 1065.00
53.3909 1205.00
53.4561 1494.00
53.5213 1689.00
53.5865 1918.00
53.6517 2089.00
53.7169 2123.00
53.7821 1974.00
53.8473 1735.00
53.9125 1294.00
53.9777 1153.00
54.0429 873.00
54.1081 829.00
54.1733 793.00
54.2385 852.00
54.3037 859.00
54.3689 896.00
54.4341 1025.00
54.4993 1305.00
54.5645 1418.00
54.6297 1657.00
54.6949 1703.00
54.7601 1742.00
54.8253 1619.00
54.8905 1560.00
54.9557 1239.00
55.0209 946.00
55.0861 849.00
55.1513 783.00
55.2165 701.00
55.2817 823.00
55.3469 853.00
55.4121 859.00
55.4773 978.00
55.5425 1012.00
55.6077 975.00
55.6729 984.00
55.7381 848.00
55.8033 819.00
55.8685 684.00
55.9337 736.00
55.9989 705.00
56.0641 687.00
56.1293 805.00
56.1945 949.00
56.2597 1033.00
56.3249 1185.00
56.3901 1325.00
56.4553 1379.00
56.5205 1379.00
56.5857 1102.00
56.6509 1023.00
56.7161 816.00
56.7813 748.00
56.8465 765.00
56.9117 809.00
56.9769 875.00
57.042 911.00
57.1073 994.00
57.1724 1034.00
57.2376 1054.00
57.3028 912.00
57.368 801.00
57.4332 720.00
57.4984 659.00
57.5636 590.00
57.6288 556.00
57.694 595.00
57.7592 589.00
57.8244 600.00
57.8896 601.00
57.9548 617.00
58.02 624.00
58.0852 614.00
58.1504 696.00
58.2156 739.00
58.2808 808.00
58.346 955.00
58.4112 1099.00
58.4764 1188.00
58.5416 1326.00
58.6068 1315.00
58.672 1337.00
58.7372 1210.00
58.8024 1058.00
58.8676 1183.00
58.9328 1132.00
58.998 1222.00
59.0632 1333.00
59.1284 1374.00
59.1936 1391.00
59.2588 1132.00
59.324 1010.00
59.3892 911.00
59.4544 753.00
59.5196 715.00
59.5848 695.00
59.65 648.00
59.7152 633.00
59.7804 597.00
59.8456 582.00
59.9108 538.00
59.976 567.00
60.0412 515.00
60.1064 555.00
60.1716 599.00
60.2368 595.00
60.302 646.00
60.3672 679.00
60.4324 735.00
60.4976 800.00
60.5628 903.00
60.628 1043.00
60.6932 1073.00
60.7584 1032.00
60.8236 958.00
60.8888 974.00
60.954 806.00
61.0192 741.00
61.0844 645.00
61.1496 622.00
61.2148 570.00
61.28 562.00
61.3452 553.00
61.4104 509.00
61.4756 548.00
61.5408 543.00
61.606 527.00
61.6712 569.00
61.7364 598.00
61.8016 694.00
61.8667 839.00
61.932 882.00
61.9971 1008.00
62.0623 1047.00
62.1275 1068.00
62.1927 968.00
62.2579 857.00
62.3231 825.00
62.3883 830.00
62.4535 857.00
62.5187 985.00
62.5839 1096.00
62.6491 1184.00
62.7143 1332.00
62.7795 1398.00
62.8447 1389.00
62.9099 1158.00
62.9751 923.00
63.0403 810.00
63.1055 681.00
63.1707 637.00
63.2359 609.00
63.3011 526.00
63.3663 610.00
63.4315 539.00
63.4967 535.00
63.5619 583.00
63.6271 681.00
63.6923 698.00
63.7575 814.00
63.8227 878.00
63.8879 967.00
63.9531 1031.00
64.0183 1002.00
64.0835 970.00
64.1487 862.00
64.2139 771.00
64.2791 654.00
64.3443 658.00
64.4095 558.00
64.4747 486.00
64.5399 474.00
64.6051 488.00
64.6703 503.00
64.7355 568.00
64.8007 510.00
64.8659 512.00
64.9311 547.00
64.9963 487.00
65.0615 512.00
65.1267 474.00
65.1919 478.00
65.2571 472.00
65.3223 477.00
65.3875 492.00
65.4527 460.00
65.5179 450.00
65.5831 467.00
65.6483 473.00
65.7135 478.00
65.7787 488.00
65.8439 561.00
65.9091 534.00
65.9743 561.00
66.0395 525.00
66.1047 473.00
66.1699 523.00
66.2351 467.00
66.3003 469.00
66.3655 467.00
66.4307 455.00
66.4959 435.00
66.561 457.00
66.6263 432.00
66.6915 482.00
66.7566 473.00
66.8218 391.00
66.887 444.00
66.9522 467.00
67.0174 437.00
67.0826 491.00
67.1478 485.00
67.213 519.00
67.2782 568.00
67.3434 685.00
67.4086 839.00
67.4738 775.00
67.539 926.00
67.6042 857.00
67.6694 776.00
67.7346 694.00
67.7998 654.00
67.865 565.00
67.9302 498.00
67.9954 452.00
68.0606 445.00
68.1258 453.00
68.191 454.00
68.2562 466.00
68.3214 423.00
68.3866 452.00
68.4518 456.00
68.517 421.00
68.5822 457.00
68.6474 414.00
68.7126 412.00
68.7778 437.00
68.843 436.00
68.9082 400.00
68.9734 406.00
69.0386 432.00
69.1038 439.00
69.169 451.00
69.2342 426.00
69.2994 460.00
69.3646 459.00
69.4298 490.00
69.495 515.00
69.5602 474.00
69.6254 483.00
69.6906 444.00
69.7558 478.00
69.821 493.00
69.8862 523.00
69.9514 525.00
70.0166 558.00
70.0818 549.00
70.147 560.00
70.2122 500.00
70.2774 524.00
70.3426 505.00
70.4078 432.00
70.473 451.00
70.5382 435.00
70.6034 392.00
70.6686 439.00
70.7338 379.00
70.799 394.00
70.8642 393.00
70.9294 393.00
70.9946 383.00
71.0598 376.00
71.125 427.00
71.1902 378.00
71.2554 417.00
71.3205 416.00
71.3858 419.00
71.451 446.00
71.5162 402.00
71.5813 452.00
71.6465 523.00
71.7117 501.00
71.7769 489.00
71.8421 555.00
71.9073 601.00
71.9725 573.00
72.0377 598.00
72.1029 656.00
72.1681 676.00
72.2333 734.00
72.2985 689.00
72.3637 730.00
72.4289 724.00
72.4941 702.00
72.5593 564.00
72.6245 592.00
72.6897 521.00
72.7549 461.00
72.8201 479.00
72.8853 455.00
72.9505 456.00
73.0157 452.00
73.0809 450.00
73.1461 456.00
73.2113 533.00
73.2765 606.00
73.3417 585.00
73.4069 634.00
73.4721 604.00
73.5373 650.00
73.6025 598.00
73.6677 539.00
73.7329 536.00
73.7981 496.00
73.8633 463.00
73.9285 454.00
73.9937 404.00
74.0589 386.00
74.1241 413.00
74.1893 399.00
74.2545 430.00
74.3197 470.00
74.3849 547.00
74.4501 596.00
74.5153 674.00
74.5805 676.00
74.6457 762.00
74.7109 785.00
74.7761 661.00
74.8413 593.00
74.9065 587.00
74.9717 509.00
75.0369 498.00
75.1021 446.00
75.1673 416.00
75.2325 464.00
75.2977 402.00
75.3629 419.00
75.4281 415.00
75.4933 431.00
75.5585 426.00
75.6237 438.00
75.6889 432.00
75.7541 414.00
75.8193 423.00
75.8845 427.00
75.9497 417.00
76.0149 455.00
76.0801 485.00
76.1452 503.00
76.2104 514.00
76.2756 510.00
76.3409 492.00
76.406 467.00
76.4712 467.00
76.5364 447.00
76.6016 401.00
76.6668 416.00
76.732 443.00
76.7972 407.00
76.8624 414.00
76.9276 407.00
76.9928 386.00
77.058 457.00
77.1232 411.00
77.1884 454.00
77.2536 465.00
77.3188 445.00
77.384 413.00
77.4492 390.00
77.5144 435.00
77.5796 460.00
77.6448 493.00
77.71 452.00
77.7752 485.00
77.8404 535.00
77.9056 473.00
77.9708 491.00
78.036 528.00
78.1012 496.00
78.1664 505.00
78.2316 485.00
78.2968 458.00
78.362 455.00
78.4272 467.00
78.4924 478.00
78.5576 469.00
78.6228 467.00
78.688 440.00
78.7532 428.00
78.8184 454.00
78.8836 485.00
78.9488 472.00
79.014 509.00
79.0792 502.00
79.1444 501.00
79.2096 563.00
79.2748 609.00
79.34 557.00
79.4052 625.00
79.4704 660.00
79.5356 625.00
79.6008 641.00
79.666 582.00
79.7312 608.00
79.7964 633.00
79.8616 601.00
79.9268 644.00
79.992 642.00
80.0572 664.00
80.1224 662.00
80.1876 761.00
80.2528 778.00
80.318 896.00
80.3832 919.00
80.4484 936.00
80.5136 932.00
80.5788 736.00
80.644 708.00
80.7092 646.00
80.7744 593.00
80.8396 490.00
80.9048 457.00
80.9699 488.00
81.0351 478.00
81.1003 468.00
81.1655 487.00
81.2307 460.00
81.2959 461.00
81.3611 441.00
81.4263 457.00
81.4915 471.00
81.5567 495.00
81.6219 475.00
81.6871 505.00
81.7523 498.00
81.8175 484.00
81.8827 454.00
81.9479 481.00
82.0131 490.00
82.0783 412.00
82.1435 464.00
82.2087 511.00
82.2739 475.00
82.3391 478.00
82.4043 490.00
82.4695 506.00
82.5347 481.00
82.5999 489.00
82.6651 486.00
82.7303 488.00
82.7955 458.00
82.8607 440.00
82.9259 493.00
82.9911 446.00
83.0563 408.00
83.1215 455.00
83.1867 413.00
83.2519 455.00
83.3171 486.00
83.3823 510.00
83.4475 490.00
83.5127 532.00
83.5779 515.00
83.6431 550.00
83.7083 509.00
83.7735 479.00
83.8387 473.00
83.9039 452.00
83.9691 439.00
84.0343 493.00
84.0995 472.00
84.1647 488.00
84.2299 485.00
84.2951 515.00
84.3603 528.00
84.4255 499.00
84.4907 497.00
84.5559 473.00
84.6211 505.00
84.6863 441.00
84.7515 472.00
84.8167 478.00
84.8819 486.00
84.9471 457.00
85.0123 451.00
85.0775 474.00
85.1427 520.00
85.2079 488.00
85.2731 475.00
85.3383 478.00
85.4035 442.00
85.4687 447.00
85.5339 445.00
85.5991 448.00
85.6643 414.00
85.7295 489.00
85.7946 495.00
85.8598 459.00
85.925 488.00
85.9903 475.00
86.0554 476.00
86.1206 483.00
86.1858 401.00
86.251 420.00
86.3162 427.00
86.3814 417.00
86.4466 431.00
86.5118 400.00
86.577 370.00
86.6422 369.00
86.7074 402.00
86.7726 407.00
86.8378 417.00
86.903 381.00
86.9682 395.00
87.0334 402.00
87.0986 380.00
87.1638 391.00
87.229 385.00
87.2942 411.00
87.3594 421.00
87.4246 463.00
87.4898 419.00
87.555 409.00
87.6202 438.00
87.6854 456.00
87.7506 446.00
87.8158 488.00
87.881 496.00
87.9462 480.00
88.0114 469.00
88.0766 418.00
88.1418 447.00
88.207 423.00
88.2722 415.00
88.3374 415.00
88.4026 383.00
88.4678 369.00
88.533 422.00
88.5982 420.00
88.6634 359.00
88.7286 373.00
88.7938 388.00
88.859 409.00
88.9242 408.00
88.9894 390.00
89.0546 396.00
89.1198 420.00
89.185 462.00
89.2502 503.00
89.3154 472.00
89.3806 478.00
89.4458 531.00
89.511 513.00
89.5762 439.00
89.6414 525.00
89.7066 496.00
89.7718 445.00
89.837 535.00
89.9022 463.00
89.9674 479.00
90.0326 513.00
90.0978 464.00
90.163 558.00
90.2282 509.00
90.2934 516.00
90.3586 529.00
90.4238 479.00
90.489 442.00
90.5542 424.00
90.6193 422.00
90.6845 400.00
90.7497 411.00
90.8149 376.00
90.8801 440.00
90.9453 378.00
91.0105 424.00
91.0757 432.00
91.1409 462.00
91.2061 445.00
91.2713 437.00
91.3365 425.00
91.4017 452.00
91.4669 464.00
91.5321 401.00
91.5973 418.00
91.6625 414.00
91.7277 425.00
91.7929 418.00
91.8581 429.00
91.9233 406.00
91.9885 390.00
92.0537 412.00
92.1189 364.00
92.1841 427.00
92.2493 373.00
92.3145 412.00
92.3797 338.00
92.4449 351.00
92.5101 351.00
92.5753 390.00
92.6405 354.00
92.7057 348.00
92.7709 334.00
92.8361 367.00
92.9013 392.00
92.9665 409.00
93.0317 392.00
93.0969 422.00
93.1621 485.00
93.2273 544.00
93.2925 590.00
93.3577 696.00
93.4229 689.00
93.4881 610.00
93.5533 568.00
93.6185 598.00
93.6837 629.00
93.7489 595.00
93.8141 502.00
93.8793 542.00
93.9445 520.00
94.0097 442.00
94.0749 422.00
94.1401 461.00
94.2053 430.00
94.2705 455.00
94.3357 406.00
94.4009 388.00
94.4661 372.00
94.5313 382.00
94.5965 414.00
94.6617 381.00
94.7269 387.00
94.7921 361.00
94.8573 369.00
94.9225 359.00
94.9877 409.00
95.0529 349.00
95.1181 347.00
95.1833 382.00
95.2485 405.00
95.3137 404.00
95.3789 425.00
95.444 428.00
95.5092 458.00
95.5744 404.00
95.6396 445.00
95.7048 402.00
95.77 434.00
95.8352 397.00
95.9004 427.00
95.9656 363.00
96.0308 426.00
96.096 429.00
96.1612 374.00
96.2264 384.00
96.2916 379.00
96.3568 373.00
96.422 411.00
96.4872 392.00
96.5524 404.00
96.6176 371.00
96.6828 397.00
96.748 361.00
96.8132 374.00
96.8784 369.00
96.9436 375.00
97.0088 334.00
97.074 393.00
97.1392 358.00
97.2044 376.00
97.2696 353.00
97.3348 342.00
97.4 381.00
97.4652 383.00
97.5304 342.00
97.5956 384.00
97.6608 371.00
97.726 369.00
97.7912 341.00
97.8564 381.00
97.9216 374.00
97.9868 361.00
98.052 396.00
98.1172 382.00
98.1824 407.00
98.2476 429.00
98.3128 365.00
98.378 413.00
98.4432 404.00
98.5084 432.00
98.5736 437.00
98.6388 414.00
98.704 444.00
98.7692 420.00
98.8344 446.00
98.8996 477.00
98.9648 455.00
99.03 427.00
99.0952 504.00
99.1604 527.00
99.2256 563.00
99.2908 557.00
99.356 580.00
99.4212 541.00
99.4864 491.00
99.5516 505.00
99.6168 487.00
99.682 487.00
99.7472 412.00
99.8124 404.00
99.8776 409.00
99.9428 405.00
100.008 418.00
100.073 398.00
100.095 424.00