File: data/xrd_creation/results/Na_56.xy
9.903433 2641.00
9.968632 2600.00
10.0338 2733.00
10.099 2538.00
10.1642 2538.00
10.2294 2562.00
10.2946 2434.00
10.3598 2493.00
10.425 2457.00
10.4902 2378.00
10.5554 2364.00
10.6206 2364.00
10.6858 2372.00
10.751 2276.00
10.8162 2257.00
10.8814 2417.00
10.9466 2337.00
11.0118 2198.00
11.077 2230.00
11.1422 2196.00
11.2074 2208.00
11.2726 2152.00
11.3378 2129.00
11.403 2149.00
11.4682 2127.00
11.5334 2121.00
11.5986 2078.00
11.6638 2106.00
11.729 2076.00
11.7942 2030.00
11.8594 2081.00
11.9246 1998.00
11.9898 1923.00
12.055 1896.00
12.1202 1869.00
12.1854 1920.00
12.2506 1899.00
12.3158 1902.00
12.381 1852.00
12.4462 1902.00
12.5114 1767.00
12.5766 1886.00
12.6418 1800.00
12.707 1723.00
12.7722 1842.00
12.8374 1691.00
12.9026 1747.00
12.9678 1676.00
13.033 1650.00
13.0982 1766.00
13.1634 1773.00
13.2286 1699.00
13.2938 1687.00
13.359 1595.00
13.4242 1686.00
13.4894 1613.00
13.5546 1658.00
13.6198 1598.00
13.685 1601.00
13.7502 1616.00
13.8154 1567.00
13.8805 1571.00
13.9457 1593.00
14.0109 1504.00
14.0761 1569.00
14.1413 1503.00
14.2065 1545.00
14.2717 1532.00
14.3369 1506.00
14.4021 1548.00
14.4673 1529.00
14.5325 1457.00
14.5977 1450.00
14.6629 1574.00
14.7281 1442.00
14.7933 1375.00
14.8585 1466.00
14.9237 1439.00
14.9889 1369.00
15.0541 1418.00
15.1193 1440.00
15.1845 1302.00
15.2497 1363.00
15.3149 1385.00
15.3801 1304.00
15.4453 1399.00
15.5105 1351.00
15.5757 1373.00
15.6409 1383.00
15.7061 1366.00
15.7713 1376.00
15.8365 1339.00
15.9017 1334.00
15.9669 1232.00
16.0321 1350.00
16.0973 1366.00
16.1625 1310.00
16.2277 1296.00
16.2929 1352.00
16.3581 1302.00
16.4233 1320.00
16.4885 1266.00
16.5537 1324.00
16.6189 1304.00
16.6841 1309.00
16.7493 1235.00
16.8145 1283.00
16.8797 1279.00
16.9449 1287.00
17.0101 1211.00
17.0753 1211.00
17.1405 1248.00
17.2057 1250.00
17.2709 1272.00
17.3361 1227.00
17.4013 1196.00
17.4665 1211.00
17.5317 1183.00
17.5969 1176.00
17.6621 1184.00
17.7273 1210.00
17.7925 1135.00
17.8577 1121.00
17.9229 1160.00
17.9881 1168.00
18.0533 1182.00
18.1185 1212.00
18.1837 1178.00
18.2489 1179.00
18.3141 1190.00
18.3793 1144.00
18.4445 1194.00
18.5097 1101.00
18.5749 1188.00
18.6401 1098.00
18.7052 1145.00
18.7704 1055.00
18.8356 1139.00
18.9008 1080.00
18.966 1073.00
19.0312 1072.00
19.0964 1040.00
19.1616 1127.00
19.2268 1085.00
19.292 1023.00
19.3572 1109.00
19.4224 1017.00
19.4876 1014.00
19.5528 1035.00
19.618 1048.00
19.6832 1003.00
19.7484 1024.00
19.8136 977.00
19.8788 1035.00
19.944 1006.00
20.0092 982.00
20.0744 1093.00
20.1396 952.00
20.2048 991.00
20.27 989.00
20.3352 1010.00
20.4004 959.00
20.4656 935.00
20.5308 952.00
20.596 996.00
20.6612 942.00
20.7264 962.00
20.7916 958.00
20.8568 997.00
20.922 997.00
20.9872 911.00
21.0524 908.00
21.1176 1000.00
21.1828 941.00
21.248 1000.00
21.3132 929.00
21.3784 998.00
21.4436 1002.00
21.5088 941.00
21.574 951.00
21.6392 936.00
21.7044 963.00
21.7696 937.00
21.8348 932.00
21.9 902.00
21.9652 938.00
22.0304 890.00
22.0956 952.00
22.1608 962.00
22.226 936.00
22.2912 967.00
22.3564 904.00
22.4216 916.00
22.4868 873.00
22.552 906.00
22.6172 885.00
22.6824 917.00
22.7476 978.00
22.8128 994.00
22.878 941.00
22.9432 879.00
23.0084 839.00
23.0736 840.00
23.1388 852.00
23.204 832.00
23.2692 807.00
23.3344 815.00
23.3996 863.00
23.4647 828.00
23.5299 849.00
23.5951 756.00
23.6603 810.00
23.7255 797.00
23.7907 772.00
23.8559 823.00
23.9211 801.00
23.9863 868.00
24.0515 840.00
24.1167 854.00
24.1819 737.00
24.2471 789.00
24.3123 783.00
24.3775 810.00
24.4427 755.00
24.5079 779.00
24.5731 798.00
24.6383 783.00
24.7035 737.00
24.7687 779.00
24.8339 824.00
24.8991 766.00
24.9643 735.00
25.0295 842.00
25.0947 790.00
25.1599 775.00
25.2251 724.00
25.2903 801.00
25.3555 724.00
25.4207 762.00
25.4859 764.00
25.5511 733.00
25.6163 734.00
25.6815 765.00
25.7467 817.00
25.8119 760.00
25.8771 744.00
25.9423 757.00
26.0075 715.00
26.0727 711.00
26.1379 740.00
26.2031 760.00
26.2683 731.00
26.3335 682.00
26.3987 668.00
26.4639 752.00
26.5291 756.00
26.5943 740.00
26.6595 749.00
26.7247 750.00
26.7899 708.00
26.8551 707.00
26.9203 716.00
26.9855 750.00
27.0507 649.00
27.1159 691.00
27.1811 689.00
27.2463 774.00
27.3115 696.00
27.3767 707.00
27.4419 676.00
27.5071 712.00
27.5723 726.00
27.6375 654.00
27.7027 674.00
27.7679 717.00
27.8331 717.00
27.8983 675.00
27.9635 707.00
28.0287 742.00
28.0939 694.00
28.1591 718.00
28.2243 792.00
28.2894 733.00
28.3546 769.00
28.4198 759.00
28.485 700.00
28.5502 643.00
28.6154 735.00
28.6806 694.00
28.7458 661.00
28.811 650.00
28.8762 652.00
28.9414 686.00
29.0066 659.00
29.0718 690.00
29.137 656.00
29.2022 618.00
29.2674 700.00
29.3326 707.00
29.3978 626.00
29.463 655.00
29.5282 643.00
29.5934 703.00
29.6586 641.00
29.7238 722.00
29.789 684.00
29.8542 672.00
29.9194 680.00
29.9846 615.00
30.0498 690.00
30.115 665.00
30.1802 655.00
30.2454 668.00
30.3106 737.00
30.3758 840.00
30.441 1054.00
30.5062 1038.00
30.5714 885.00
30.6366 736.00
30.7018 620.00
30.767 610.00
30.8322 633.00
30.8974 630.00
30.9626 599.00
31.0278 638.00
31.093 567.00
31.1582 605.00
31.2234 643.00
31.2886 578.00
31.3538 611.00
31.419 608.00
31.4842 647.00
31.5494 750.00
31.6146 758.00
31.6798 686.00
31.745 647.00
31.8102 582.00
31.8754 598.00
31.9406 601.00
32.0058 551.00
32.071 557.00
32.1362 556.00
32.2014 526.00
32.2666 640.00
32.3318 597.00
32.397 592.00
32.4622 714.00
32.5274 851.00
32.5926 773.00
32.6578 693.00
32.723 589.00
32.7882 550.00
32.8534 539.00
32.9186 581.00
32.9838 547.00
33.0489 593.00
33.1141 552.00
33.1793 525.00
33.2445 526.00
33.3097 495.00
33.3749 536.00
33.4401 553.00
33.5053 537.00
33.5705 481.00
33.6357 566.00
33.7009 590.00
33.7661 555.00
33.8313 561.00
33.8965 518.00
33.9617 542.00
34.0269 502.00
34.0921 528.00
34.1573 542.00
34.2225 513.00
34.2877 488.00
34.3529 508.00
34.4181 484.00
34.4833 520.00
34.5485 532.00
34.6137 496.00
34.6789 480.00
34.7441 467.00
34.8093 512.00
34.8745 492.00
34.9397 509.00
35.0049 499.00
35.0701 536.00
35.1353 500.00
35.2005 566.00
35.2657 508.00
35.3309 596.00
35.3961 581.00
35.4613 544.00
35.5265 514.00
35.5917 480.00
35.6569 504.00
35.7221 460.00
35.7873 450.00
35.8525 449.00
35.9177 469.00
35.9829 474.00
36.0481 441.00
36.1133 491.00
36.1785 486.00
36.2437 452.00
36.3089 447.00
36.3741 414.00
36.4393 421.00
36.5045 484.00
36.5697 486.00
36.6349 471.00
36.7001 454.00
36.7653 491.00
36.8305 488.00
36.8957 519.00
36.9609 467.00
37.0261 476.00
37.0913 440.00
37.1565 480.00
37.2217 468.00
37.2869 487.00
37.3521 488.00
37.4173 436.00
37.4825 470.00
37.5477 460.00
37.6129 454.00
37.6781 453.00
37.7433 461.00
37.8085 471.00
37.8736 413.00
37.9388 440.00
38.004 422.00
38.0692 413.00
38.1344 431.00
38.1996 477.00
38.2648 447.00
38.33 446.00
38.3952 457.00
38.4604 404.00
38.5256 422.00
38.5908 406.00
38.656 421.00
38.7212 430.00
38.7864 408.00
38.8516 419.00
38.9168 379.00
38.982 410.00
39.0472 415.00
39.1124 395.00
39.1776 435.00
39.2428 377.00
39.308 430.00
39.3732 426.00
39.4384 394.00
39.5036 422.00
39.5688 440.00
39.634 409.00
39.6992 412.00
39.7644 394.00
39.8296 398.00
39.8948 436.00
39.96 439.00
40.0252 429.00
40.0904 409.00
40.1556 389.00
40.2208 419.00
40.286 422.00
40.3512 383.00
40.4164 404.00
40.4816 410.00
40.5468 421.00
40.612 412.00
40.6772 350.00
40.7424 439.00
40.8076 414.00
40.8728 367.00
40.938 382.00
41.0032 352.00
41.0684 385.00
41.1336 398.00
41.1988 399.00
41.264 389.00
41.3292 355.00
41.3944 338.00
41.4596 403.00
41.5248 436.00
41.59 375.00
41.6552 332.00
41.7204 392.00
41.7856 395.00
41.8508 407.00
41.916 378.00
41.9812 376.00
42.0464 361.00
42.1116 380.00
42.1768 390.00
42.242 370.00
42.3072 344.00
42.3724 373.00
42.4376 384.00
42.5028 378.00
42.568 398.00
42.6332 410.00
42.6983 419.00
42.7635 375.00
42.8287 411.00
42.8939 419.00
42.9591 382.00
43.0243 414.00
43.0895 357.00
43.1547 358.00
43.2199 407.00
43.2851 402.00
43.3503 336.00
43.4155 367.00
43.4807 370.00
43.5459 410.00
43.6111 385.00
43.6763 353.00
43.7415 407.00
43.8067 398.00
43.8719 409.00
43.9371 350.00
44.0023 378.00
44.0675 373.00
44.1327 379.00
44.1979 361.00
44.2631 385.00
44.3283 364.00
44.3935 347.00
44.4587 377.00
44.5239 354.00
44.5891 371.00
44.6543 367.00
44.7195 372.00
44.7847 335.00
44.8499 374.00
44.9151 354.00
44.9803 352.00
45.0455 368.00
45.1107 344.00
45.1759 328.00
45.2411 385.00
45.3063 380.00
45.3715 415.00
45.4367 379.00
45.5019 377.00
45.5671 375.00
45.6323 383.00
45.6975 373.00
45.7627 315.00
45.8279 344.00
45.8931 327.00
45.9583 340.00
46.0235 327.00
46.0887 337.00
46.1539 340.00
46.2191 362.00
46.2843 340.00
46.3495 327.00
46.4147 365.00
46.4799 336.00
46.5451 324.00
46.6103 347.00
46.6755 365.00
46.7407 370.00
46.8059 337.00
46.8711 349.00
46.9363 348.00
47.0015 356.00
47.0667 335.00
47.1319 370.00
47.1971 358.00
47.2623 343.00
47.3275 330.00
47.3927 329.00
47.4579 336.00
47.523 315.00
47.5882 309.00
47.6534 326.00
47.7186 366.00
47.7838 347.00
47.849 349.00
47.9142 343.00
47.9794 344.00
48.0446 313.00
48.1098 309.00
48.175 345.00
48.2402 323.00
48.3054 360.00
48.3706 317.00
48.4358 340.00
48.501 337.00
48.5662 317.00
48.6314 342.00
48.6966 331.00
48.7618 327.00
48.827 332.00
48.8922 310.00
48.9574 323.00
49.0226 348.00
49.0878 338.00
49.153 376.00
49.2182 342.00
49.2834 333.00
49.3486 314.00
49.4138 349.00
49.479 333.00
49.5442 325.00
49.6094 281.00
49.6746 296.00
49.7398 338.00
49.805 340.00
49.8702 316.00
49.9354 313.00
50.0006 311.00
50.0658 305.00
50.131 317.00
50.1962 314.00
50.2614 346.00
50.3266 290.00
50.3918 335.00
50.457 312.00
50.5222 294.00
50.5874 343.00
50.6526 286.00
50.7178 323.00
50.783 325.00
50.8482 352.00
50.9134 387.00
50.9786 390.00
51.0438 366.00
51.109 362.00
51.1742 345.00
51.2394 324.00
51.3046 333.00
51.3698 351.00
51.435 330.00
51.5002 342.00
51.5654 293.00
51.6306 310.00
51.6958 318.00
51.761 323.00
51.8262 312.00
51.8914 312.00
51.9566 290.00
52.0218 322.00
52.087 332.00
52.1522 318.00
52.2174 284.00
52.2826 333.00
52.3477 323.00
52.4129 310.00
52.4781 284.00
52.5433 282.00
52.6085 299.00
52.6737 322.00
52.7389 317.00
52.8041 319.00
52.8693 343.00
52.9345 303.00
52.9997 305.00
53.0649 336.00
53.1301 305.00
53.1953 288.00
53.2605 268.00
53.3257 333.00
53.3909 288.00
53.4561 278.00
53.5213 337.00
53.5865 278.00
53.6517 331.00
53.7169 304.00
53.7821 293.00
53.8473 272.00
53.9125 300.00
53.9777 323.00
54.0429 315.00
54.1081 272.00
54.1733 304.00
54.2385 306.00
54.3037 297.00
54.3689 305.00
54.4341 309.00
54.4993 308.00
54.5645 318.00
54.6297 279.00
54.6949 286.00
54.7601 275.00
54.8253 337.00
54.8905 297.00
54.9557 299.00
55.0209 283.00
55.0861 291.00
55.1513 298.00
55.2165 280.00
55.2817 297.00
55.3469 294.00
55.4121 284.00
55.4773 289.00
55.5425 269.00
55.6077 312.00
55.6729 259.00
55.7381 257.00
55.8033 284.00
55.8685 303.00
55.9337 300.00
55.9989 313.00
56.0641 265.00
56.1293 298.00
56.1945 278.00
56.2597 286.00
56.3249 289.00
56.3901 294.00
56.4553 302.00
56.5205 293.00
56.5857 299.00
56.6509 258.00
56.7161 288.00
56.7813 306.00
56.8465 280.00
56.9117 299.00
56.9769 276.00
57.042 287.00
57.1073 304.00
57.1724 280.00
57.2376 270.00
57.3028 283.00
57.368 288.00
57.4332 290.00
57.4984 284.00
57.5636 290.00
57.6288 291.00
57.694 287.00
57.7592 284.00
57.8244 316.00
57.8896 288.00
57.9548 266.00
58.02 263.00
58.0852 281.00
58.1504 270.00
58.2156 294.00
58.2808 293.00
58.346 281.00
58.4112 277.00
58.4764 279.00
58.5416 285.00
58.6068 285.00
58.672 242.00
58.7372 259.00
58.8024 256.00
58.8676 268.00
58.9328 264.00
58.998 262.00
59.0632 279.00
59.1284 244.00
59.1936 272.00
59.2588 275.00
59.324 272.00
59.3892 248.00
59.4544 280.00
59.5196 286.00
59.5848 247.00
59.65 261.00
59.7152 260.00
59.7804 271.00
59.8456 275.00
59.9108 269.00
59.976 275.00
60.0412 285.00
60.1064 234.00
60.1716 267.00
60.2368 264.00
60.302 263.00
60.3672 269.00
60.4324 269.00
60.4976 292.00
60.5628 299.00
60.628 238.00
60.6932 239.00
60.7584 273.00
60.8236 289.00
60.8888 274.00
60.954 239.00
61.0192 272.00
61.0844 273.00
61.1496 271.00
61.2148 281.00
61.28 258.00
61.3452 259.00
61.4104 226.00
61.4756 249.00
61.5408 280.00
61.606 237.00
61.6712 256.00
61.7364 231.00
61.8016 230.00
61.8667 286.00
61.932 274.00
61.9971 282.00
62.0623 279.00
62.1275 264.00
62.1927 264.00
62.2579 289.00
62.3231 242.00
62.3883 287.00
62.4535 284.00
62.5187 245.00
62.5839 231.00
62.6491 265.00
62.7143 286.00
62.7795 268.00
62.8447 268.00
62.9099 217.00
62.9751 243.00
63.0403 270.00
63.1055 260.00
63.1707 227.00
63.2359 265.00
63.3011 213.00
63.3663 256.00
63.4315 266.00
63.4967 297.00
63.5619 275.00
63.6271 296.00
63.6923 270.00
63.7575 251.00
63.8227 271.00
63.8879 262.00
63.9531 243.00
64.0183 245.00
64.0835 238.00
64.1487 260.00
64.2139 256.00
64.2791 245.00
64.3443 256.00
64.4095 246.00
64.4747 220.00
64.5399 274.00
64.6051 259.00
64.6703 237.00
64.7355 284.00
64.8007 244.00
64.8659 227.00
64.9311 217.00
64.9963 261.00
65.0615 240.00
65.1267 269.00
65.1919 244.00
65.2571 232.00
65.3223 259.00
65.3875 236.00
65.4527 240.00
65.5179 270.00
65.5831 224.00
65.6483 264.00
65.7135 269.00
65.7787 266.00
65.8439 219.00
65.9091 219.00
65.9743 264.00
66.0395 233.00
66.1047 261.00
66.1699 229.00
66.2351 215.00
66.3003 264.00
66.3655 229.00
66.4307 237.00
66.4959 247.00
66.561 263.00
66.6263 240.00
66.6915 220.00
66.7566 219.00
66.8218 230.00
66.887 221.00
66.9522 230.00
67.0174 243.00
67.0826 237.00
67.1478 246.00
67.213 239.00
67.2782 236.00
67.3434 213.00
67.4086 263.00
67.4738 243.00
67.539 239.00
67.6042 241.00
67.6694 236.00
67.7346 227.00
67.7998 243.00
67.865 259.00
67.9302 262.00
67.9954 237.00
68.0606 262.00
68.1258 263.00
68.191 236.00
68.2562 228.00
68.3214 267.00
68.3866 243.00
68.4518 247.00
68.517 226.00
68.5822 217.00
68.6474 227.00
68.7126 230.00
68.7778 242.00
68.843 248.00
68.9082 235.00
68.9734 211.00
69.0386 237.00
69.1038 225.00
69.169 220.00
69.2342 245.00
69.2994 233.00
69.3646 223.00
69.4298 248.00
69.495 236.00
69.5602 261.00
69.6254 218.00
69.6906 250.00
69.7558 216.00
69.821 219.00
69.8862 232.00
69.9514 221.00
70.0166 239.00
70.0818 239.00
70.147 235.00
70.2122 257.00
70.2774 210.00
70.3426 236.00
70.4078 272.00
70.473 208.00
70.5382 251.00
70.6034 229.00
70.6686 244.00
70.7338 223.00
70.799 264.00
70.8642 231.00
70.9294 240.00
70.9946 217.00
71.0598 241.00
71.125 242.00
71.1902 214.00
71.2554 243.00
71.3205 220.00
71.3858 261.00
71.451 277.00
71.5162 238.00
71.5813 214.00
71.6465 230.00
71.7117 230.00
71.7769 223.00
71.8421 266.00
71.9073 244.00
71.9725 247.00
72.0377 224.00
72.1029 222.00
72.1681 228.00
72.2333 221.00
72.2985 217.00
72.3637 238.00
72.4289 258.00
72.4941 230.00
72.5593 241.00
72.6245 233.00
72.6897 246.00
72.7549 233.00
72.8201 241.00
72.8853 256.00
72.9505 233.00
73.0157 228.00
73.0809 231.00
73.1461 236.00
73.2113 225.00
73.2765 232.00
73.3417 267.00
73.4069 221.00
73.4721 243.00
73.5373 223.00
73.6025 249.00
73.6677 230.00
73.7329 211.00
73.7981 235.00
73.8633 241.00
73.9285 259.00
73.9937 245.00
74.0589 250.00
74.1241 242.00
74.1893 238.00
74.2545 213.00
74.3197 217.00
74.3849 233.00
74.4501 226.00
74.5153 273.00
74.5805 241.00
74.6457 217.00
74.7109 235.00
74.7761 262.00
74.8413 282.00
74.9065 265.00
74.9717 256.00
75.0369 257.00
75.1021 236.00
75.1673 247.00
75.2325 217.00
75.2977 272.00
75.3629 257.00
75.4281 225.00
75.4933 248.00
75.5585 272.00
75.6237 264.00
75.6889 237.00
75.7541 237.00
75.8193 245.00
75.8845 231.00
75.9497 260.00
76.0149 231.00
76.0801 241.00
76.1452 240.00
76.2104 243.00
76.2756 276.00
76.3409 249.00
76.406 272.00
76.4712 276.00
76.5364 250.00
76.6016 239.00
76.6668 265.00
76.732 271.00
76.7972 285.00
76.8624 234.00
76.9276 219.00
76.9928 270.00
77.058 245.00
77.1232 223.00
77.1884 242.00
77.2536 271.00
77.3188 242.00
77.384 228.00
77.4492 273.00
77.5144 249.00
77.5796 269.00
77.6448 264.00
77.71 280.00
77.7752 271.00
77.8404 272.00
77.9056 248.00
77.9708 257.00
78.036 241.00
78.1012 282.00
78.1664 244.00
78.2316 272.00
78.2968 266.00
78.362 244.00
78.4272 231.00
78.4924 261.00
78.5576 249.00
78.6228 261.00
78.688 272.00
78.7532 260.00
78.8184 312.00
78.8836 262.00
78.9488 247.00
79.014 267.00
79.0792 269.00
79.1444 280.00
79.2096 246.00
79.2748 273.00
79.34 258.00
79.4052 270.00
79.4704 235.00
79.5356 258.00
79.6008 296.00
79.666 263.00
79.7312 256.00
79.7964 266.00
79.8616 236.00
79.9268 262.00
79.992 306.00
80.0572 263.00
80.1224 246.00
80.1876 246.00
80.2528 285.00
80.318 277.00
80.3832 263.00
80.4484 251.00
80.5136 285.00
80.5788 296.00
80.644 266.00
80.7092 257.00
80.7744 245.00
80.8396 245.00
80.9048 282.00
80.9699 264.00
81.0351 291.00
81.1003 257.00
81.1655 301.00
81.2307 265.00
81.2959 274.00
81.3611 304.00
81.4263 282.00
81.4915 272.00
81.5567 273.00
81.6219 249.00
81.6871 241.00
81.7523 244.00
81.8175 244.00
81.8827 258.00
81.9479 283.00
82.0131 248.00
82.0783 278.00
82.1435 282.00
82.2087 285.00
82.2739 265.00
82.3391 295.00
82.4043 264.00
82.4695 294.00
82.5347 247.00
82.5999 267.00
82.6651 287.00
82.7303 241.00
82.7955 273.00
82.8607 223.00
82.9259 250.00
82.9911 262.00
83.0563 262.00
83.1215 276.00
83.1867 263.00
83.2519 293.00
83.3171 277.00
83.3823 274.00
83.4475 248.00
83.5127 245.00
83.5779 269.00
83.6431 262.00
83.7083 294.00
83.7735 256.00
83.8387 261.00
83.9039 257.00
83.9691 243.00
84.0343 261.00
84.0995 305.00
84.1647 267.00
84.2299 250.00
84.2951 261.00
84.3603 227.00
84.4255 269.00
84.4907 220.00
84.5559 257.00
84.6211 270.00
84.6863 256.00
84.7515 271.00
84.8167 266.00
84.8819 266.00
84.9471 267.00
85.0123 268.00
85.0775 276.00
85.1427 236.00
85.2079 271.00
85.2731 241.00
85.3383 244.00
85.4035 271.00
85.4687 266.00
85.5339 224.00
85.5991 239.00
85.6643 240.00
85.7295 248.00
85.7946 233.00
85.8598 272.00
85.925 248.00
85.9903 236.00
86.0554 262.00
86.1206 259.00
86.1858 259.00
86.251 247.00
86.3162 264.00
86.3814 246.00
86.4466 260.00
86.5118 249.00
86.577 244.00
86.6422 242.00
86.7074 242.00
86.7726 265.00
86.8378 223.00
86.903 245.00
86.9682 284.00
87.0334 270.00
87.0986 264.00
87.1638 282.00
87.229 273.00
87.2942 245.00
87.3594 214.00
87.4246 237.00
87.4898 261.00
87.555 260.00
87.6202 226.00
87.6854 241.00
87.7506 240.00
87.8158 228.00
87.881 219.00
87.9462 240.00
88.0114 234.00
88.0766 242.00
88.1418 230.00
88.207 261.00
88.2722 233.00
88.3374 264.00
88.4026 272.00
88.4678 271.00
88.533 249.00
88.5982 232.00
88.6634 238.00
88.7286 208.00
88.7938 226.00
88.859 233.00
88.9242 202.00
88.9894 218.00
89.0546 261.00
89.1198 256.00
89.185 237.00
89.2502 243.00
89.3154 235.00
89.3806 235.00
89.4458 235.00
89.511 247.00
89.5762 215.00
89.6414 250.00
89.7066 212.00
89.7718 231.00
89.837 226.00
89.9022 209.00
89.9674 224.00
90.0326 237.00
90.0978 217.00
90.163 186.00
90.2282 214.00
90.2934 244.00
90.3586 231.00
90.4238 220.00
90.489 220.00
90.5542 235.00
90.6193 212.00
90.6845 242.00
90.7497 265.00
90.8149 221.00
90.8801 235.00
90.9453 223.00
91.0105 215.00
91.0757 220.00
91.1409 218.00
91.2061 222.00
91.2713 240.00
91.3365 230.00
91.4017 216.00
91.4669 229.00
91.5321 222.00
91.5973 195.00
91.6625 220.00
91.7277 237.00
91.7929 235.00
91.8581 206.00
91.9233 220.00
91.9885 226.00
92.0537 230.00
92.1189 242.00
92.1841 264.00
92.2493 265.00
92.3145 231.00
92.3797 241.00
92.4449 236.00
92.5101 238.00
92.5753 222.00
92.6405 239.00
92.7057 225.00
92.7709 195.00
92.8361 234.00
92.9013 221.00
92.9665 201.00
93.0317 197.00
93.0969 228.00
93.1621 236.00
93.2273 208.00
93.2925 229.00
93.3577 218.00
93.4229 222.00
93.4881 229.00
93.5533 271.00
93.6185 240.00
93.6837 227.00
93.7489 200.00
93.8141 228.00
93.8793 209.00
93.9445 214.00
94.0097 206.00
94.0749 208.00
94.1401 217.00
94.2053 214.00
94.2705 221.00
94.3357 216.00
94.4009 244.00
94.4661 227.00
94.5313 209.00
94.5965 197.00
94.6617 228.00
94.7269 245.00
94.7921 206.00
94.8573 215.00
94.9225 234.00
94.9877 215.00
95.0529 213.00
95.1181 206.00
95.1833 185.00
95.2485 224.00
95.3137 219.00
95.3789 213.00
95.444 181.00
95.5092 237.00
95.5744 224.00
95.6396 236.00
95.7048 221.00
95.77 215.00
95.8352 219.00
95.9004 234.00
95.9656 234.00
96.0308 242.00
96.096 212.00
96.1612 216.00
96.2264 213.00
96.2916 208.00
96.3568 235.00
96.422 238.00
96.4872 238.00
96.5524 203.00
96.6176 198.00
96.6828 229.00
96.748 214.00
96.8132 247.00
96.8784 258.00
96.9436 234.00
97.0088 232.00
97.074 207.00
97.1392 256.00
97.2044 243.00
97.2696 212.00
97.3348 210.00
97.4 208.00
97.4652 220.00
97.5304 224.00
97.5956 203.00
97.6608 213.00
97.726 231.00
97.7912 216.00
97.8564 209.00
97.9216 213.00
97.9868 198.00
98.052 220.00
98.1172 234.00
98.1824 217.00
98.2476 229.00
98.3128 225.00
98.378 223.00
98.4432 211.00
98.5084 205.00
98.5736 203.00
98.6388 202.00
98.704 206.00
98.7692 211.00
98.8344 218.00
98.8996 241.00
98.9648 215.00
99.03 211.00
99.0952 227.00
99.1604 217.00
99.2256 262.00
99.2908 192.00
99.356 194.00
99.4212 222.00
99.4864 221.00
99.5516 218.00
99.6168 228.00
99.682 236.00
99.7472 230.00
99.8124 205.00
99.8776 232.00
99.9428 217.00
100.008 226.00
100.073 264.00
100.095 205.00