File: data/xrd_creation/results/Na_58.xy
9.903433 2614.00
9.968632 2617.00
10.0338 2583.00
10.099 2668.00
10.1642 2565.00
10.2294 2551.00
10.2946 2502.00
10.3598 2491.00
10.425 2505.00
10.4902 2434.00
10.5554 2407.00
10.6206 2305.00
10.6858 2434.00
10.751 2408.00
10.8162 2358.00
10.8814 2301.00
10.9466 2291.00
11.0118 2304.00
11.077 2339.00
11.1422 2247.00
11.2074 2288.00
11.2726 2187.00
11.3378 2238.00
11.403 2223.00
11.4682 2194.00
11.5334 2232.00
11.5986 2147.00
11.6638 2133.00
11.729 2049.00
11.7942 2031.00
11.8594 1964.00
11.9246 2004.00
11.9898 2052.00
12.055 2058.00
12.1202 1971.00
12.1854 1983.00
12.2506 2011.00
12.3158 2017.00
12.381 1977.00
12.4462 2012.00
12.5114 2046.00
12.5766 1951.00
12.6418 1937.00
12.707 1849.00
12.7722 1829.00
12.8374 1886.00
12.9026 1865.00
12.9678 1924.00
13.033 1797.00
13.0982 1859.00
13.1634 1823.00
13.2286 1765.00
13.2938 1856.00
13.359 1828.00
13.4242 1769.00
13.4894 1846.00
13.5546 1664.00
13.6198 1698.00
13.685 1765.00
13.7502 1706.00
13.8154 1648.00
13.8805 1651.00
13.9457 1685.00
14.0109 1648.00
14.0761 1647.00
14.1413 1690.00
14.2065 1695.00
14.2717 1609.00
14.3369 1587.00
14.4021 1670.00
14.4673 1648.00
14.5325 1641.00
14.5977 1590.00
14.6629 1632.00
14.7281 1608.00
14.7933 1576.00
14.8585 1549.00
14.9237 1551.00
14.9889 1596.00
15.0541 1473.00
15.1193 1524.00
15.1845 1466.00
15.2497 1516.00
15.3149 1524.00
15.3801 1530.00
15.4453 1544.00
15.5105 1447.00
15.5757 1502.00
15.6409 1477.00
15.7061 1525.00
15.7713 1449.00
15.8365 1482.00
15.9017 1485.00
15.9669 1504.00
16.0321 1443.00
16.0973 1504.00
16.1625 1486.00
16.2277 1478.00
16.2929 1521.00
16.3581 1484.00
16.4233 1455.00
16.4885 1429.00
16.5537 1404.00
16.6189 1432.00
16.6841 1458.00
16.7493 1384.00
16.8145 1450.00
16.8797 1390.00
16.9449 1442.00
17.0101 1455.00
17.0753 1439.00
17.1405 1421.00
17.2057 1397.00
17.2709 1542.00
17.3361 1448.00
17.4013 1458.00
17.4665 1428.00
17.5317 1383.00
17.5969 1363.00
17.6621 1342.00
17.7273 1375.00
17.7925 1365.00
17.8577 1339.00
17.9229 1299.00
17.9881 1364.00
18.0533 1343.00
18.1185 1381.00
18.1837 1486.00
18.2489 1586.00
18.3141 1679.00
18.3793 1698.00
18.4445 1776.00
18.5097 1729.00
18.5749 1699.00
18.6401 1644.00
18.7052 1464.00
18.7704 1434.00
18.8356 1330.00
18.9008 1300.00
18.966 1226.00
19.0312 1204.00
19.0964 1209.00
19.1616 1215.00
19.2268 1179.00
19.292 1186.00
19.3572 1206.00
19.4224 1192.00
19.4876 1287.00
19.5528 1222.00
19.618 1183.00
19.6832 1189.00
19.7484 1246.00
19.8136 1221.00
19.8788 1249.00
19.944 1172.00
20.0092 1148.00
20.0744 1179.00
20.1396 1142.00
20.2048 1193.00
20.27 1152.00
20.3352 1221.00
20.4004 1191.00
20.4656 1114.00
20.5308 1178.00
20.596 1138.00
20.6612 1082.00
20.7264 1054.00
20.7916 1154.00
20.8568 1086.00
20.922 1095.00
20.9872 1062.00
21.0524 1108.00
21.1176 1095.00
21.1828 1144.00
21.248 1067.00
21.3132 1081.00
21.3784 1009.00
21.4436 1043.00
21.5088 1066.00
21.574 1014.00
21.6392 1051.00
21.7044 1047.00
21.7696 1026.00
21.8348 1030.00
21.9 1075.00
21.9652 964.00
22.0304 996.00
22.0956 1020.00
22.1608 986.00
22.226 983.00
22.2912 944.00
22.3564 984.00
22.4216 1021.00
22.4868 987.00
22.552 996.00
22.6172 971.00
22.6824 1053.00
22.7476 996.00
22.8128 997.00
22.878 899.00
22.9432 942.00
23.0084 962.00
23.0736 968.00
23.1388 931.00
23.204 1012.00
23.2692 1055.00
23.3344 1013.00
23.3996 995.00
23.4647 1049.00
23.5299 1121.00
23.5951 1268.00
23.6603 1189.00
23.7255 1216.00
23.7907 1140.00
23.8559 1192.00
23.9211 1048.00
23.9863 1055.00
24.0515 951.00
24.1167 998.00
24.1819 922.00
24.2471 973.00
24.3123 951.00
24.3775 851.00
24.4427 912.00
24.5079 876.00
24.5731 881.00
24.6383 963.00
24.7035 958.00
24.7687 943.00
24.8339 956.00
24.8991 1015.00
24.9643 1021.00
25.0295 954.00
25.0947 948.00
25.1599 903.00
25.2251 841.00
25.2903 857.00
25.3555 843.00
25.4207 907.00
25.4859 885.00
25.5511 834.00
25.6163 822.00
25.6815 843.00
25.7467 849.00
25.8119 861.00
25.8771 781.00
25.9423 830.00
26.0075 913.00
26.0727 815.00
26.1379 894.00
26.2031 941.00
26.2683 1071.00
26.3335 1130.00
26.3987 1081.00
26.4639 1087.00
26.5291 962.00
26.5943 946.00
26.6595 961.00
26.7247 898.00
26.7899 913.00
26.8551 901.00
26.9203 805.00
26.9855 853.00
27.0507 806.00
27.1159 820.00
27.1811 825.00
27.2463 737.00
27.3115 827.00
27.3767 886.00
27.4419 865.00
27.5071 929.00
27.5723 961.00
27.6375 1036.00
27.7027 975.00
27.7679 959.00
27.8331 990.00
27.8983 847.00
27.9635 824.00
28.0287 741.00
28.0939 782.00
28.1591 754.00
28.2243 769.00
28.2894 766.00
28.3546 745.00
28.4198 795.00
28.485 837.00
28.5502 872.00
28.6154 896.00
28.6806 1095.00
28.7458 1342.00
28.811 1621.00
28.8762 1844.00
28.9414 2243.00
29.0066 2354.00
29.0718 2044.00
29.137 1789.00
29.2022 1521.00
29.2674 1197.00
29.3326 1043.00
29.3978 925.00
29.463 898.00
29.5282 840.00
29.5934 968.00
29.6586 943.00
29.7238 978.00
29.789 925.00
29.8542 979.00
29.9194 1070.00
29.9846 1207.00
30.0498 1293.00
30.115 1401.00
30.1802 1341.00
30.2454 1246.00
30.3106 984.00
30.3758 995.00
30.441 920.00
30.5062 1008.00
30.5714 988.00
30.6366 974.00
30.7018 1016.00
30.767 962.00
30.8322 1026.00
30.8974 1040.00
30.9626 901.00
31.0278 906.00
31.093 886.00
31.1582 775.00
31.2234 721.00
31.2886 630.00
31.3538 692.00
31.419 601.00
31.4842 614.00
31.5494 616.00
31.6146 621.00
31.6798 635.00
31.745 589.00
31.8102 600.00
31.8754 596.00
31.9406 634.00
32.0058 618.00
32.071 653.00
32.1362 631.00
32.2014 650.00
32.2666 610.00
32.3318 609.00
32.397 594.00
32.4622 631.00
32.5274 592.00
32.5926 572.00
32.6578 598.00
32.723 571.00
32.7882 612.00
32.8534 689.00
32.9186 706.00
32.9838 795.00
33.0489 886.00
33.1141 905.00
33.1793 808.00
33.2445 808.00
33.3097 688.00
33.3749 638.00
33.4401 573.00
33.5053 593.00
33.5705 584.00
33.6357 603.00
33.7009 615.00
33.7661 620.00
33.8313 691.00
33.8965 751.00
33.9617 719.00
34.0269 659.00
34.0921 685.00
34.1573 692.00
34.2225 739.00
34.2877 735.00
34.3529 829.00
34.4181 863.00
34.4833 893.00
34.5485 859.00
34.6137 809.00
34.6789 794.00
34.7441 797.00
34.8093 888.00
34.8745 843.00
34.9397 805.00
35.0049 795.00
35.0701 750.00
35.1353 712.00
35.2005 604.00
35.2657 672.00
35.3309 677.00
35.3961 621.00
35.4613 608.00
35.5265 585.00
35.5917 556.00
35.6569 573.00
35.7221 524.00
35.7873 538.00
35.8525 521.00
35.9177 492.00
35.9829 509.00
36.0481 508.00
36.1133 520.00
36.1785 540.00
36.2437 539.00
36.3089 571.00
36.3741 598.00
36.4393 653.00
36.5045 673.00
36.5697 638.00
36.6349 596.00
36.7001 552.00
36.7653 497.00
36.8305 541.00
36.8957 533.00
36.9609 544.00
37.0261 552.00
37.0913 544.00
37.1565 598.00
37.2217 552.00
37.2869 611.00
37.3521 576.00
37.4173 537.00
37.4825 579.00
37.5477 546.00
37.6129 563.00
37.6781 523.00
37.7433 480.00
37.8085 454.00
37.8736 503.00
37.9388 504.00
38.004 508.00
38.0692 454.00
38.1344 485.00
38.1996 472.00
38.2648 425.00
38.33 474.00
38.3952 436.00
38.4604 428.00
38.5256 473.00
38.5908 454.00
38.656 473.00
38.7212 478.00
38.7864 465.00
38.8516 430.00
38.9168 470.00
38.982 482.00
39.0472 443.00
39.1124 468.00
39.1776 473.00
39.2428 438.00
39.308 470.00
39.3732 448.00
39.4384 504.00
39.5036 486.00
39.5688 490.00
39.634 493.00
39.6992 459.00
39.7644 468.00
39.8296 449.00
39.8948 439.00
39.96 407.00
40.0252 412.00
40.0904 452.00
40.1556 432.00
40.2208 434.00
40.286 455.00
40.3512 503.00
40.4164 566.00
40.4816 554.00
40.5468 559.00
40.612 547.00
40.6772 546.00
40.7424 478.00
40.8076 469.00
40.8728 438.00
40.938 540.00
41.0032 522.00
41.0684 505.00
41.1336 454.00
41.1988 519.00
41.264 436.00
41.3292 459.00
41.3944 477.00
41.4596 473.00
41.5248 424.00
41.59 444.00
41.6552 403.00
41.7204 460.00
41.7856 424.00
41.8508 415.00
41.916 431.00
41.9812 449.00
42.0464 457.00
42.1116 467.00
42.1768 450.00
42.242 502.00
42.3072 459.00
42.3724 467.00
42.4376 434.00
42.5028 442.00
42.568 388.00
42.6332 381.00
42.6983 420.00
42.7635 393.00
42.8287 365.00
42.8939 385.00
42.9591 381.00
43.0243 394.00
43.0895 350.00
43.1547 392.00
43.2199 407.00
43.2851 398.00
43.3503 398.00
43.4155 381.00
43.4807 383.00
43.5459 403.00
43.6111 406.00
43.6763 409.00
43.7415 426.00
43.8067 431.00
43.8719 453.00
43.9371 418.00
44.0023 380.00
44.0675 353.00
44.1327 412.00
44.1979 354.00
44.2631 362.00
44.3283 330.00
44.3935 330.00
44.4587 348.00
44.5239 372.00
44.5891 398.00
44.6543 393.00
44.7195 398.00
44.7847 362.00
44.8499 353.00
44.9151 350.00
44.9803 402.00
45.0455 355.00
45.1107 361.00
45.1759 381.00
45.2411 357.00
45.3063 350.00
45.3715 348.00
45.4367 403.00
45.5019 352.00
45.5671 378.00
45.6323 379.00
45.6975 384.00
45.7627 392.00
45.8279 371.00
45.8931 385.00
45.9583 377.00
46.0235 345.00
46.0887 377.00
46.1539 356.00
46.2191 356.00
46.2843 393.00
46.3495 414.00
46.4147 392.00
46.4799 426.00
46.5451 467.00
46.6103 425.00
46.6755 469.00
46.7407 455.00
46.8059 451.00
46.8711 481.00
46.9363 505.00
47.0015 447.00
47.0667 442.00
47.1319 488.00
47.1971 484.00
47.2623 577.00
47.3275 627.00
47.3927 700.00
47.4579 692.00
47.523 647.00
47.5882 622.00
47.6534 583.00
47.7186 546.00
47.7838 526.00
47.849 515.00
47.9142 520.00
47.9794 496.00
48.0446 481.00
48.1098 496.00
48.175 563.00
48.2402 709.00
48.3054 756.00
48.3706 751.00
48.4358 788.00
48.501 675.00
48.5662 658.00
48.6314 621.00
48.6966 683.00
48.7618 656.00
48.827 633.00
48.8922 612.00
48.9574 555.00
49.0226 451.00
49.0878 433.00
49.153 396.00
49.2182 326.00
49.2834 379.00
49.3486 408.00
49.4138 386.00
49.479 430.00
49.5442 402.00
49.6094 379.00
49.6746 406.00
49.7398 373.00
49.805 310.00
49.8702 357.00
49.9354 351.00
50.0006 336.00
50.0658 322.00
50.131 358.00
50.1962 344.00
50.2614 349.00
50.3266 316.00
50.3918 346.00
50.457 381.00
50.5222 374.00
50.5874 371.00
50.6526 417.00
50.7178 354.00
50.783 389.00
50.8482 397.00
50.9134 407.00
50.9786 415.00
51.0438 428.00
51.109 419.00
51.1742 473.00
51.2394 474.00
51.3046 494.00
51.3698 568.00
51.435 542.00
51.5002 568.00
51.5654 482.00
51.6306 439.00
51.6958 437.00
51.761 377.00
51.8262 340.00
51.8914 358.00
51.9566 360.00
52.0218 350.00
52.087 360.00
52.1522 353.00
52.2174 392.00
52.2826 391.00
52.3477 350.00
52.4129 380.00
52.4781 360.00
52.5433 348.00
52.6085 393.00
52.6737 409.00
52.7389 393.00
52.8041 401.00
52.8693 409.00
52.9345 439.00
52.9997 400.00
53.0649 377.00
53.1301 369.00
53.1953 396.00
53.2605 381.00
53.3257 385.00
53.3909 433.00
53.4561 411.00
53.5213 458.00
53.5865 405.00
53.6517 484.00
53.7169 481.00
53.7821 463.00
53.8473 503.00
53.9125 556.00
53.9777 514.00
54.0429 515.00
54.1081 470.00
54.1733 425.00
54.2385 406.00
54.3037 408.00
54.3689 415.00
54.4341 417.00
54.4993 426.00
54.5645 414.00
54.6297 393.00
54.6949 379.00
54.7601 413.00
54.8253 434.00
54.8905 414.00
54.9557 389.00
55.0209 408.00
55.0861 403.00
55.1513 399.00
55.2165 423.00
55.2817 421.00
55.3469 426.00
55.4121 508.00
55.4773 553.00
55.5425 533.00
55.6077 495.00
55.6729 455.00
55.7381 445.00
55.8033 399.00
55.8685 415.00
55.9337 393.00
55.9989 392.00
56.0641 410.00
56.1293 443.00
56.1945 497.00
56.2597 542.00
56.3249 557.00
56.3901 607.00
56.4553 583.00
56.5205 566.00
56.5857 464.00
56.6509 471.00
56.7161 393.00
56.7813 377.00
56.8465 383.00
56.9117 357.00
56.9769 369.00
57.042 357.00
57.1073 359.00
57.1724 357.00
57.2376 374.00
57.3028 328.00
57.368 317.00
57.4332 322.00
57.4984 318.00
57.5636 344.00
57.6288 331.00
57.694 377.00
57.7592 348.00
57.8244 353.00
57.8896 352.00
57.9548 377.00
58.02 455.00
58.0852 492.00
58.1504 544.00
58.2156 481.00
58.2808 483.00
58.346 414.00
58.4112 398.00
58.4764 356.00
58.5416 327.00
58.6068 376.00
58.672 345.00
58.7372 332.00
58.8024 382.00
58.8676 358.00
58.9328 374.00
58.998 409.00
59.0632 392.00
59.1284 345.00
59.1936 345.00
59.2588 341.00
59.324 353.00
59.3892 361.00
59.4544 328.00
59.5196 381.00
59.5848 406.00
59.65 388.00
59.7152 410.00
59.7804 454.00
59.8456 454.00
59.9108 421.00
59.976 468.00
60.0412 485.00
60.1064 451.00
60.1716 442.00
60.2368 413.00
60.302 405.00
60.3672 354.00
60.4324 337.00
60.4976 399.00
60.5628 384.00
60.628 413.00
60.6932 383.00
60.7584 419.00
60.8236 409.00
60.8888 383.00
60.954 393.00
61.0192 419.00
61.0844 439.00
61.1496 388.00
61.2148 340.00
61.28 378.00
61.3452 365.00
61.4104 391.00
61.4756 365.00
61.5408 347.00
61.606 384.00
61.6712 350.00
61.7364 331.00
61.8016 300.00
61.8667 316.00
61.932 325.00
61.9971 321.00
62.0623 354.00
62.1275 366.00
62.1927 426.00
62.2579 393.00
62.3231 445.00
62.3883 428.00
62.4535 460.00
62.5187 422.00
62.5839 428.00
62.6491 417.00
62.7143 354.00
62.7795 350.00
62.8447 358.00
62.9099 338.00
62.9751 356.00
63.0403 347.00
63.1055 382.00
63.1707 359.00
63.2359 344.00
63.3011 336.00
63.3663 339.00
63.4315 351.00
63.4967 356.00
63.5619 364.00
63.6271 331.00
63.6923 301.00
63.7575 270.00
63.8227 331.00
63.8879 317.00
63.9531 295.00
64.0183 315.00
64.0835 286.00
64.1487 326.00
64.2139 324.00
64.2791 358.00
64.3443 339.00
64.4095 356.00
64.4747 320.00
64.5399 334.00
64.6051 288.00
64.6703 328.00
64.7355 333.00
64.8007 305.00
64.8659 348.00
64.9311 321.00
64.9963 324.00
65.0615 301.00
65.1267 296.00
65.1919 293.00
65.2571 298.00
65.3223 331.00
65.3875 294.00
65.4527 331.00
65.5179 285.00
65.5831 290.00
65.6483 285.00
65.7135 289.00
65.7787 269.00
65.8439 300.00
65.9091 285.00
65.9743 350.00
66.0395 313.00
66.1047 339.00
66.1699 335.00
66.2351 331.00
66.3003 328.00
66.3655 323.00
66.4307 306.00
66.4959 281.00
66.561 277.00
66.6263 261.00
66.6915 297.00
66.7566 286.00
66.8218 289.00
66.887 290.00
66.9522 289.00
67.0174 277.00
67.0826 300.00
67.1478 268.00
67.213 304.00
67.2782 274.00
67.3434 257.00
67.4086 257.00
67.4738 306.00
67.539 296.00
67.6042 289.00
67.6694 298.00
67.7346 287.00
67.7998 281.00
67.865 271.00
67.9302 334.00
67.9954 286.00
68.0606 298.00
68.1258 284.00
68.191 261.00
68.2562 251.00
68.3214 260.00
68.3866 257.00
68.4518 275.00
68.517 246.00
68.5822 291.00
68.6474 263.00
68.7126 262.00
68.7778 247.00
68.843 270.00
68.9082 256.00
68.9734 276.00
69.0386 304.00
69.1038 272.00
69.169 314.00
69.2342 298.00
69.2994 290.00
69.3646 264.00
69.4298 284.00
69.495 267.00
69.5602 275.00
69.6254 276.00
69.6906 290.00
69.7558 274.00
69.821 282.00
69.8862 245.00
69.9514 295.00
70.0166 285.00
70.0818 310.00
70.147 272.00
70.2122 297.00
70.2774 268.00
70.3426 270.00
70.4078 305.00
70.473 267.00
70.5382 268.00
70.6034 275.00
70.6686 240.00
70.7338 240.00
70.799 238.00
70.8642 225.00
70.9294 239.00
70.9946 242.00
71.0598 239.00
71.125 263.00
71.1902 220.00
71.2554 241.00
71.3205 262.00
71.3858 298.00
71.451 283.00
71.5162 276.00
71.5813 296.00
71.6465 261.00
71.7117 298.00
71.7769 264.00
71.8421 297.00
71.9073 292.00
71.9725 284.00
72.0377 323.00
72.1029 281.00
72.1681 320.00
72.2333 330.00
72.2985 307.00
72.3637 332.00
72.4289 299.00
72.4941 324.00
72.5593 344.00
72.6245 330.00
72.6897 270.00
72.7549 329.00
72.8201 286.00
72.8853 287.00
72.9505 285.00
73.0157 250.00
73.0809 265.00
73.1461 270.00
73.2113 279.00
73.2765 292.00
73.3417 286.00
73.4069 251.00
73.4721 260.00
73.5373 260.00
73.6025 266.00
73.6677 277.00
73.7329 299.00
73.7981 288.00
73.8633 246.00
73.9285 308.00
73.9937 270.00
74.0589 318.00
74.1241 309.00
74.1893 268.00
74.2545 321.00
74.3197 337.00
74.3849 302.00
74.4501 313.00
74.5153 265.00
74.5805 311.00
74.6457 299.00
74.7109 293.00
74.7761 261.00
74.8413 311.00
74.9065 290.00
74.9717 282.00
75.0369 272.00
75.1021 300.00
75.1673 279.00
75.2325 296.00
75.2977 289.00
75.3629 247.00
75.4281 248.00
75.4933 299.00
75.5585 322.00
75.6237 279.00
75.6889 312.00
75.7541 270.00
75.8193 300.00
75.8845 247.00
75.9497 241.00
76.0149 277.00
76.0801 234.00
76.1452 229.00
76.2104 239.00
76.2756 245.00
76.3409 278.00
76.406 258.00
76.4712 277.00
76.5364 287.00
76.6016 308.00
76.6668 264.00
76.732 264.00
76.7972 266.00
76.8624 250.00
76.9276 257.00
76.9928 224.00
77.058 241.00
77.1232 295.00
77.1884 272.00
77.2536 248.00
77.3188 272.00
77.384 267.00
77.4492 246.00
77.5144 231.00
77.5796 244.00
77.6448 262.00
77.71 248.00
77.7752 240.00
77.8404 265.00
77.9056 307.00
77.9708 333.00
78.036 346.00
78.1012 301.00
78.1664 372.00
78.2316 367.00
78.2968 308.00
78.362 292.00
78.4272 289.00
78.4924 280.00
78.5576 281.00
78.6228 271.00
78.688 249.00
78.7532 264.00
78.8184 288.00
78.8836 275.00
78.9488 271.00
79.014 275.00
79.0792 302.00
79.1444 286.00
79.2096 311.00
79.2748 304.00
79.34 268.00
79.4052 325.00
79.4704 320.00
79.5356 262.00
79.6008 297.00
79.666 263.00
79.7312 300.00
79.7964 299.00
79.8616 278.00
79.9268 270.00
79.992 219.00
80.0572 230.00
80.1224 263.00
80.1876 240.00
80.2528 242.00
80.318 235.00
80.3832 246.00
80.4484 213.00
80.5136 250.00
80.5788 249.00
80.644 235.00
80.7092 261.00
80.7744 276.00
80.8396 275.00
80.9048 300.00
80.9699 308.00
81.0351 320.00
81.1003 299.00
81.1655 237.00
81.2307 288.00
81.2959 267.00
81.3611 265.00
81.4263 269.00
81.4915 279.00
81.5567 321.00
81.6219 359.00
81.6871 305.00
81.7523 333.00
81.8175 343.00
81.8827 330.00
81.9479 282.00
82.0131 302.00
82.0783 300.00
82.1435 243.00
82.2087 258.00
82.2739 274.00
82.3391 224.00
82.4043 276.00
82.4695 234.00
82.5347 229.00
82.5999 218.00
82.6651 269.00
82.7303 274.00
82.7955 249.00
82.8607 256.00
82.9259 260.00
82.9911 265.00
83.0563 259.00
83.1215 285.00
83.1867 265.00
83.2519 269.00
83.3171 283.00
83.3823 292.00
83.4475 269.00
83.5127 289.00
83.5779 240.00
83.6431 261.00
83.7083 261.00
83.7735 257.00
83.8387 287.00
83.9039 270.00
83.9691 298.00
84.0343 267.00
84.0995 277.00
84.1647 277.00
84.2299 257.00
84.2951 287.00
84.3603 293.00
84.4255 267.00
84.4907 265.00
84.5559 288.00
84.6211 232.00
84.6863 277.00
84.7515 278.00
84.8167 270.00
84.8819 261.00
84.9471 262.00
85.0123 263.00
85.0775 257.00
85.1427 243.00
85.2079 282.00
85.2731 263.00
85.3383 248.00
85.4035 269.00
85.4687 236.00
85.5339 231.00
85.5991 241.00
85.6643 272.00
85.7295 234.00
85.7946 237.00
85.8598 268.00
85.925 233.00
85.9903 226.00
86.0554 281.00
86.1206 267.00
86.1858 279.00
86.251 257.00
86.3162 233.00
86.3814 247.00
86.4466 273.00
86.5118 284.00
86.577 237.00
86.6422 239.00
86.7074 236.00
86.7726 249.00
86.8378 268.00
86.903 274.00
86.9682 260.00
87.0334 308.00
87.0986 264.00
87.1638 285.00
87.229 271.00
87.2942 279.00
87.3594 278.00
87.4246 300.00
87.4898 295.00
87.555 276.00
87.6202 278.00
87.6854 290.00
87.7506 260.00
87.8158 276.00
87.881 309.00
87.9462 247.00
88.0114 283.00
88.0766 291.00
88.1418 247.00
88.207 250.00
88.2722 256.00
88.3374 263.00
88.4026 247.00
88.4678 223.00
88.533 240.00
88.5982 244.00
88.6634 285.00
88.7286 275.00
88.7938 307.00
88.859 289.00
88.9242 268.00
88.9894 291.00
89.0546 278.00
89.1198 262.00
89.185 266.00
89.2502 259.00
89.3154 280.00
89.3806 243.00
89.4458 232.00
89.511 241.00
89.5762 245.00
89.6414 242.00
89.7066 283.00
89.7718 293.00
89.837 314.00
89.9022 270.00
89.9674 267.00
90.0326 260.00
90.0978 260.00
90.163 259.00
90.2282 267.00
90.2934 265.00
90.3586 246.00
90.4238 220.00
90.489 238.00
90.5542 243.00
90.6193 246.00
90.6845 285.00
90.7497 242.00
90.8149 298.00
90.8801 291.00
90.9453 295.00
91.0105 272.00
91.0757 281.00
91.1409 266.00
91.2061 297.00
91.2713 228.00
91.3365 248.00
91.4017 235.00
91.4669 258.00
91.5321 259.00
91.5973 237.00
91.6625 235.00
91.7277 242.00
91.7929 267.00
91.8581 217.00
91.9233 235.00
91.9885 275.00
92.0537 223.00
92.1189 236.00
92.1841 265.00
92.2493 265.00
92.3145 235.00
92.3797 239.00
92.4449 226.00
92.5101 242.00
92.5753 271.00
92.6405 274.00
92.7057 274.00
92.7709 277.00
92.8361 288.00
92.9013 261.00
92.9665 292.00
93.0317 281.00
93.0969 235.00
93.1621 285.00
93.2273 271.00
93.2925 284.00
93.3577 281.00
93.4229 248.00
93.4881 250.00
93.5533 249.00
93.6185 219.00
93.6837 269.00
93.7489 226.00
93.8141 275.00
93.8793 258.00
93.9445 238.00
94.0097 258.00
94.0749 217.00
94.1401 239.00
94.2053 222.00
94.2705 212.00
94.3357 228.00
94.4009 242.00
94.4661 237.00
94.5313 248.00
94.5965 233.00
94.6617 268.00
94.7269 226.00
94.7921 234.00
94.8573 232.00
94.9225 237.00
94.9877 237.00
95.0529 248.00
95.1181 224.00
95.1833 232.00
95.2485 243.00
95.3137 263.00
95.3789 244.00
95.444 257.00
95.5092 216.00
95.5744 244.00
95.6396 229.00
95.7048 280.00
95.77 232.00
95.8352 261.00
95.9004 234.00
95.9656 246.00
96.0308 274.00
96.096 266.00
96.1612 242.00
96.2264 242.00
96.2916 245.00
96.3568 270.00
96.422 238.00
96.4872 264.00
96.5524 247.00
96.6176 282.00
96.6828 263.00
96.748 267.00
96.8132 272.00
96.8784 236.00
96.9436 221.00
97.0088 266.00
97.074 240.00
97.1392 220.00
97.2044 286.00
97.2696 239.00
97.3348 220.00
97.4 279.00
97.4652 234.00
97.5304 239.00
97.5956 235.00
97.6608 244.00
97.726 207.00
97.7912 235.00
97.8564 222.00
97.9216 227.00
97.9868 229.00
98.052 248.00
98.1172 270.00
98.1824 238.00
98.2476 222.00
98.3128 274.00
98.378 237.00
98.4432 243.00
98.5084 231.00
98.5736 228.00
98.6388 235.00
98.704 257.00
98.7692 240.00
98.8344 257.00
98.8996 271.00
98.9648 249.00
99.03 262.00
99.0952 237.00
99.1604 251.00
99.2256 243.00
99.2908 261.00
99.356 262.00
99.4212 265.00
99.4864 295.00
99.5516 249.00
99.6168 268.00
99.682 281.00
99.7472 268.00
99.8124 296.00
99.8776 268.00
99.9428 245.00
100.008 290.00
100.073 289.00
100.095 246.00