File: data/xrd_creation/results/Na_52.xy
9.903433 2559.00
9.968632 2571.00
10.0338 2480.00
10.099 2565.00
10.1642 2538.00
10.2294 2437.00
10.2946 2460.00
10.3598 2412.00
10.425 2417.00
10.4902 2405.00
10.5554 2361.00
10.6206 2279.00
10.6858 2210.00
10.751 2306.00
10.8162 2312.00
10.8814 2187.00
10.9466 2263.00
11.0118 2225.00
11.077 2210.00
11.1422 2211.00
11.2074 2121.00
11.2726 2086.00
11.3378 2103.00
11.403 2144.00
11.4682 2124.00
11.5334 2043.00
11.5986 2042.00
11.6638 1957.00
11.729 1950.00
11.7942 1883.00
11.8594 1930.00
11.9246 1908.00
11.9898 1859.00
12.055 1873.00
12.1202 1863.00
12.1854 1892.00
12.2506 1770.00
12.3158 1741.00
12.381 1783.00
12.4462 1767.00
12.5114 1713.00
12.5766 1801.00
12.6418 1731.00
12.707 1745.00
12.7722 1786.00
12.8374 1712.00
12.9026 1642.00
12.9678 1654.00
13.033 1713.00
13.0982 1651.00
13.1634 1652.00
13.2286 1642.00
13.2938 1620.00
13.359 1587.00
13.4242 1614.00
13.4894 1631.00
13.5546 1565.00
13.6198 1549.00
13.685 1467.00
13.7502 1562.00
13.8154 1541.00
13.8805 1533.00
13.9457 1452.00
14.0109 1565.00
14.0761 1425.00
14.1413 1444.00
14.2065 1434.00
14.2717 1403.00
14.3369 1489.00
14.4021 1444.00
14.4673 1505.00
14.5325 1449.00
14.5977 1412.00
14.6629 1427.00
14.7281 1385.00
14.7933 1348.00
14.8585 1407.00
14.9237 1374.00
14.9889 1313.00
15.0541 1409.00
15.1193 1350.00
15.1845 1344.00
15.2497 1410.00
15.3149 1269.00
15.3801 1291.00
15.4453 1353.00
15.5105 1336.00
15.5757 1257.00
15.6409 1260.00
15.7061 1214.00
15.7713 1272.00
15.8365 1351.00
15.9017 1301.00
15.9669 1327.00
16.0321 1204.00
16.0973 1259.00
16.1625 1240.00
16.2277 1300.00
16.2929 1248.00
16.3581 1187.00
16.4233 1231.00
16.4885 1257.00
16.5537 1210.00
16.6189 1231.00
16.6841 1237.00
16.7493 1188.00
16.8145 1180.00
16.8797 1190.00
16.9449 1224.00
17.0101 1169.00
17.0753 1195.00
17.1405 1207.00
17.2057 1206.00
17.2709 1147.00
17.3361 1176.00
17.4013 1140.00
17.4665 1173.00
17.5317 1151.00
17.5969 1071.00
17.6621 1091.00
17.7273 1106.00
17.7925 1067.00
17.8577 1135.00
17.9229 1108.00
17.9881 1123.00
18.0533 1130.00
18.1185 1034.00
18.1837 1176.00
18.2489 1064.00
18.3141 1124.00
18.3793 1103.00
18.4445 1091.00
18.5097 1092.00
18.5749 1075.00
18.6401 1066.00
18.7052 1097.00
18.7704 1106.00
18.8356 1042.00
18.9008 1022.00
18.966 1121.00
19.0312 992.00
19.0964 976.00
19.1616 977.00
19.2268 1005.00
19.292 1028.00
19.3572 1052.00
19.4224 1021.00
19.4876 1001.00
19.5528 990.00
19.618 1016.00
19.6832 967.00
19.7484 961.00
19.8136 1024.00
19.8788 998.00
19.944 923.00
20.0092 926.00
20.0744 956.00
20.1396 987.00
20.2048 931.00
20.27 911.00
20.3352 940.00
20.4004 923.00
20.4656 948.00
20.5308 902.00
20.596 948.00
20.6612 887.00
20.7264 871.00
20.7916 924.00
20.8568 926.00
20.922 853.00
20.9872 884.00
21.0524 899.00
21.1176 897.00
21.1828 933.00
21.248 909.00
21.3132 891.00
21.3784 874.00
21.4436 915.00
21.5088 836.00
21.574 847.00
21.6392 870.00
21.7044 829.00
21.7696 905.00
21.8348 897.00
21.9 864.00
21.9652 854.00
22.0304 815.00
22.0956 854.00
22.1608 860.00
22.226 835.00
22.2912 817.00
22.3564 817.00
22.4216 798.00
22.4868 808.00
22.552 842.00
22.6172 858.00
22.6824 885.00
22.7476 842.00
22.8128 824.00
22.878 836.00
22.9432 776.00
23.0084 799.00
23.0736 813.00
23.1388 818.00
23.204 781.00
23.2692 824.00
23.3344 784.00
23.3996 789.00
23.4647 758.00
23.5299 837.00
23.5951 777.00
23.6603 789.00
23.7255 785.00
23.7907 731.00
23.8559 805.00
23.9211 731.00
23.9863 748.00
24.0515 723.00
24.1167 771.00
24.1819 744.00
24.2471 738.00
24.3123 724.00
24.3775 728.00
24.4427 737.00
24.5079 716.00
24.5731 764.00
24.6383 733.00
24.7035 707.00
24.7687 721.00
24.8339 739.00
24.8991 739.00
24.9643 743.00
25.0295 731.00
25.0947 705.00
25.1599 721.00
25.2251 757.00
25.2903 690.00
25.3555 677.00
25.4207 649.00
25.4859 704.00
25.5511 695.00
25.6163 673.00
25.6815 680.00
25.7467 697.00
25.8119 696.00
25.8771 721.00
25.9423 719.00
26.0075 756.00
26.0727 775.00
26.1379 728.00
26.2031 739.00
26.2683 722.00
26.3335 739.00
26.3987 671.00
26.4639 716.00
26.5291 733.00
26.5943 688.00
26.6595 669.00
26.7247 685.00
26.7899 682.00
26.8551 647.00
26.9203 653.00
26.9855 719.00
27.0507 634.00
27.1159 691.00
27.1811 698.00
27.2463 672.00
27.3115 626.00
27.3767 650.00
27.4419 643.00
27.5071 644.00
27.5723 630.00
27.6375 682.00
27.7027 633.00
27.7679 631.00
27.8331 662.00
27.8983 673.00
27.9635 648.00
28.0287 668.00
28.0939 697.00
28.1591 699.00
28.2243 694.00
28.2894 689.00
28.3546 641.00
28.4198 655.00
28.485 661.00
28.5502 635.00
28.6154 609.00
28.6806 617.00
28.7458 650.00
28.811 606.00
28.8762 647.00
28.9414 622.00
29.0066 671.00
29.0718 657.00
29.137 670.00
29.2022 653.00
29.2674 634.00
29.3326 624.00
29.3978 626.00
29.463 582.00
29.5282 535.00
29.5934 597.00
29.6586 569.00
29.7238 612.00
29.789 581.00
29.8542 599.00
29.9194 594.00
29.9846 612.00
30.0498 579.00
30.115 683.00
30.1802 661.00
30.2454 759.00
30.3106 707.00
30.3758 646.00
30.441 665.00
30.5062 672.00
30.5714 577.00
30.6366 575.00
30.7018 572.00
30.767 596.00
30.8322 591.00
30.8974 571.00
30.9626 591.00
31.0278 564.00
31.093 580.00
31.1582 558.00
31.2234 546.00
31.2886 549.00
31.3538 550.00
31.419 571.00
31.4842 541.00
31.5494 559.00
31.6146 519.00
31.6798 510.00
31.745 484.00
31.8102 515.00
31.8754 499.00
31.9406 523.00
32.0058 510.00
32.071 560.00
32.1362 521.00
32.2014 499.00
32.2666 504.00
32.3318 492.00
32.397 515.00
32.4622 515.00
32.5274 515.00
32.5926 458.00
32.6578 528.00
32.723 491.00
32.7882 514.00
32.8534 511.00
32.9186 459.00
32.9838 459.00
33.0489 516.00
33.1141 461.00
33.1793 472.00
33.2445 476.00
33.3097 522.00
33.3749 471.00
33.4401 498.00
33.5053 492.00
33.5705 499.00
33.6357 540.00
33.7009 557.00
33.7661 486.00
33.8313 528.00
33.8965 482.00
33.9617 480.00
34.0269 507.00
34.0921 444.00
34.1573 466.00
34.2225 460.00
34.2877 454.00
34.3529 468.00
34.4181 485.00
34.4833 445.00
34.5485 478.00
34.6137 475.00
34.6789 448.00
34.7441 493.00
34.8093 488.00
34.8745 451.00
34.9397 446.00
35.0049 484.00
35.0701 447.00
35.1353 473.00
35.2005 444.00
35.2657 459.00
35.3309 456.00
35.3961 432.00
35.4613 459.00
35.5265 416.00
35.5917 422.00
35.6569 389.00
35.7221 458.00
35.7873 426.00
35.8525 425.00
35.9177 428.00
35.9829 481.00
36.0481 443.00
36.1133 441.00
36.1785 432.00
36.2437 404.00
36.3089 444.00
36.3741 475.00
36.4393 431.00
36.5045 444.00
36.5697 487.00
36.6349 459.00
36.7001 380.00
36.7653 419.00
36.8305 424.00
36.8957 444.00
36.9609 412.00
37.0261 449.00
37.0913 436.00
37.1565 391.00
37.2217 373.00
37.2869 423.00
37.3521 416.00
37.4173 406.00
37.4825 454.00
37.5477 416.00
37.6129 379.00
37.6781 375.00
37.7433 426.00
37.8085 438.00
37.8736 377.00
37.9388 418.00
38.004 398.00
38.0692 400.00
38.1344 391.00
38.1996 369.00
38.2648 383.00
38.33 406.00
38.3952 390.00
38.4604 384.00
38.5256 399.00
38.5908 382.00
38.656 388.00
38.7212 352.00
38.7864 382.00
38.8516 358.00
38.9168 358.00
38.982 393.00
39.0472 388.00
39.1124 374.00
39.1776 358.00
39.2428 367.00
39.308 352.00
39.3732 374.00
39.4384 361.00
39.5036 340.00
39.5688 389.00
39.634 367.00
39.6992 357.00
39.7644 368.00
39.8296 368.00
39.8948 363.00
39.96 370.00
40.0252 411.00
40.0904 335.00
40.1556 355.00
40.2208 381.00
40.286 353.00
40.3512 357.00
40.4164 368.00
40.4816 362.00
40.5468 381.00
40.612 353.00
40.6772 353.00
40.7424 359.00
40.8076 342.00
40.8728 352.00
40.938 338.00
41.0032 323.00
41.0684 390.00
41.1336 346.00
41.1988 322.00
41.264 338.00
41.3292 353.00
41.3944 374.00
41.4596 373.00
41.5248 334.00
41.59 346.00
41.6552 349.00
41.7204 373.00
41.7856 334.00
41.8508 334.00
41.916 330.00
41.9812 348.00
42.0464 324.00
42.1116 339.00
42.1768 316.00
42.242 332.00
42.3072 316.00
42.3724 326.00
42.4376 345.00
42.5028 337.00
42.568 316.00
42.6332 346.00
42.6983 306.00
42.7635 307.00
42.8287 328.00
42.8939 304.00
42.9591 363.00
43.0243 307.00
43.0895 364.00
43.1547 311.00
43.2199 360.00
43.2851 339.00
43.3503 420.00
43.4155 396.00
43.4807 431.00
43.5459 419.00
43.6111 393.00
43.6763 393.00
43.7415 386.00
43.8067 368.00
43.8719 339.00
43.9371 308.00
44.0023 336.00
44.0675 314.00
44.1327 349.00
44.1979 323.00
44.2631 349.00
44.3283 349.00
44.3935 318.00
44.4587 354.00
44.5239 355.00
44.5891 317.00
44.6543 335.00
44.7195 328.00
44.7847 313.00
44.8499 333.00
44.9151 363.00
44.9803 345.00
45.0455 321.00
45.1107 300.00
45.1759 338.00
45.2411 312.00
45.3063 337.00
45.3715 346.00
45.4367 337.00
45.5019 320.00
45.5671 325.00
45.6323 304.00
45.6975 314.00
45.7627 315.00
45.8279 294.00
45.8931 319.00
45.9583 301.00
46.0235 315.00
46.0887 291.00
46.1539 297.00
46.2191 272.00
46.2843 296.00
46.3495 287.00
46.4147 317.00
46.4799 309.00
46.5451 292.00
46.6103 301.00
46.6755 287.00
46.7407 296.00
46.8059 299.00
46.8711 296.00
46.9363 266.00
47.0015 299.00
47.0667 292.00
47.1319 285.00
47.1971 300.00
47.2623 277.00
47.3275 272.00
47.3927 343.00
47.4579 289.00
47.523 311.00
47.5882 302.00
47.6534 279.00
47.7186 302.00
47.7838 286.00
47.849 319.00
47.9142 313.00
47.9794 307.00
48.0446 320.00
48.1098 314.00
48.175 294.00
48.2402 304.00
48.3054 258.00
48.3706 313.00
48.4358 320.00
48.501 307.00
48.5662 310.00
48.6314 359.00
48.6966 316.00
48.7618 332.00
48.827 298.00
48.8922 306.00
48.9574 283.00
49.0226 303.00
49.0878 266.00
49.153 280.00
49.2182 304.00
49.2834 283.00
49.3486 297.00
49.4138 248.00
49.479 264.00
49.5442 294.00
49.6094 275.00
49.6746 315.00
49.7398 303.00
49.805 295.00
49.8702 293.00
49.9354 272.00
50.0006 278.00
50.0658 265.00
50.131 276.00
50.1962 257.00
50.2614 288.00
50.3266 243.00
50.3918 267.00
50.457 294.00
50.5222 302.00
50.5874 304.00
50.6526 262.00
50.7178 265.00
50.783 276.00
50.8482 285.00
50.9134 264.00
50.9786 275.00
51.0438 276.00
51.109 269.00
51.1742 313.00
51.2394 294.00
51.3046 278.00
51.3698 286.00
51.435 306.00
51.5002 311.00
51.5654 297.00
51.6306 317.00
51.6958 280.00
51.761 296.00
51.8262 279.00
51.8914 293.00
51.9566 263.00
52.0218 285.00
52.087 249.00
52.1522 295.00
52.2174 305.00
52.2826 271.00
52.3477 282.00
52.4129 249.00
52.4781 282.00
52.5433 264.00
52.6085 265.00
52.6737 229.00
52.7389 267.00
52.8041 263.00
52.8693 274.00
52.9345 268.00
52.9997 298.00
53.0649 241.00
53.1301 232.00
53.1953 272.00
53.2605 264.00
53.3257 292.00
53.3909 236.00
53.4561 243.00
53.5213 279.00
53.5865 248.00
53.6517 234.00
53.7169 297.00
53.7821 286.00
53.8473 271.00
53.9125 287.00
53.9777 280.00
54.0429 267.00
54.1081 285.00
54.1733 266.00
54.2385 257.00
54.3037 248.00
54.3689 279.00
54.4341 259.00
54.4993 244.00
54.5645 243.00
54.6297 274.00
54.6949 267.00
54.7601 265.00
54.8253 292.00
54.8905 242.00
54.9557 257.00
55.0209 229.00
55.0861 244.00
55.1513 272.00
55.2165 293.00
55.2817 274.00
55.3469 263.00
55.4121 266.00
55.4773 247.00
55.5425 301.00
55.6077 247.00
55.6729 258.00
55.7381 270.00
55.8033 256.00
55.8685 259.00
55.9337 242.00
55.9989 259.00
56.0641 238.00
56.1293 230.00
56.1945 214.00
56.2597 298.00
56.3249 248.00
56.3901 230.00
56.4553 232.00
56.5205 225.00
56.5857 243.00
56.6509 230.00
56.7161 201.00
56.7813 244.00
56.8465 234.00
56.9117 238.00
56.9769 230.00
57.042 215.00
57.1073 230.00
57.1724 235.00
57.2376 225.00
57.3028 245.00
57.368 221.00
57.4332 217.00
57.4984 213.00
57.5636 237.00
57.6288 248.00
57.694 238.00
57.7592 242.00
57.8244 265.00
57.8896 222.00
57.9548 272.00
58.02 239.00
58.0852 226.00
58.1504 275.00
58.2156 275.00
58.2808 261.00
58.346 236.00
58.4112 230.00
58.4764 214.00
58.5416 210.00
58.6068 231.00
58.672 229.00
58.7372 242.00
58.8024 247.00
58.8676 227.00
58.9328 224.00
58.998 205.00
59.0632 195.00
59.1284 207.00
59.1936 201.00
59.2588 219.00
59.324 215.00
59.3892 232.00
59.4544 195.00
59.5196 237.00
59.5848 223.00
59.65 189.00
59.7152 225.00
59.7804 203.00
59.8456 218.00
59.9108 216.00
59.976 225.00
60.0412 226.00
60.1064 205.00
60.1716 218.00
60.2368 202.00
60.302 258.00
60.3672 233.00
60.4324 228.00
60.4976 210.00
60.5628 228.00
60.628 270.00
60.6932 238.00
60.7584 206.00
60.8236 192.00
60.8888 236.00
60.954 214.00
61.0192 226.00
61.0844 200.00
61.1496 214.00
61.2148 204.00
61.28 215.00
61.3452 194.00
61.4104 227.00
61.4756 228.00
61.5408 212.00
61.606 229.00
61.6712 219.00
61.7364 215.00
61.8016 196.00
61.8667 219.00
61.932 203.00
61.9971 214.00
62.0623 197.00
62.1275 221.00
62.1927 202.00
62.2579 213.00
62.3231 222.00
62.3883 211.00
62.4535 200.00
62.5187 223.00
62.5839 239.00
62.6491 204.00
62.7143 203.00
62.7795 203.00
62.8447 220.00
62.9099 220.00
62.9751 217.00
63.0403 210.00
63.1055 204.00
63.1707 219.00
63.2359 219.00
63.3011 233.00
63.3663 191.00
63.4315 214.00
63.4967 201.00
63.5619 225.00
63.6271 228.00
63.6923 206.00
63.7575 207.00
63.8227 233.00
63.8879 223.00
63.9531 198.00
64.0183 223.00
64.0835 220.00
64.1487 202.00
64.2139 242.00
64.2791 211.00
64.3443 208.00
64.4095 213.00
64.4747 198.00
64.5399 159.00
64.6051 181.00
64.6703 233.00
64.7355 201.00
64.8007 197.00
64.8659 209.00
64.9311 196.00
64.9963 214.00
65.0615 223.00
65.1267 199.00
65.1919 219.00
65.2571 194.00
65.3223 208.00
65.3875 217.00
65.4527 188.00
65.5179 204.00
65.5831 184.00
65.6483 210.00
65.7135 185.00
65.7787 190.00
65.8439 228.00
65.9091 215.00
65.9743 171.00
66.0395 215.00
66.1047 225.00
66.1699 180.00
66.2351 213.00
66.3003 194.00
66.3655 171.00
66.4307 199.00
66.4959 212.00
66.561 181.00
66.6263 193.00
66.6915 180.00
66.7566 208.00
66.8218 207.00
66.887 215.00
66.9522 194.00
67.0174 164.00
67.0826 192.00
67.1478 204.00
67.213 208.00
67.2782 161.00
67.3434 210.00
67.4086 228.00
67.4738 217.00
67.539 207.00
67.6042 221.00
67.6694 180.00
67.7346 203.00
67.7998 205.00
67.865 200.00
67.9302 199.00
67.9954 212.00
68.0606 183.00
68.1258 190.00
68.191 216.00
68.2562 168.00
68.3214 200.00
68.3866 195.00
68.4518 196.00
68.517 204.00
68.5822 202.00
68.6474 197.00
68.7126 197.00
68.7778 204.00
68.843 199.00
68.9082 191.00
68.9734 205.00
69.0386 206.00
69.1038 207.00
69.169 188.00
69.2342 219.00
69.2994 213.00
69.3646 206.00
69.4298 221.00
69.495 175.00
69.5602 204.00
69.6254 224.00
69.6906 220.00
69.7558 210.00
69.821 185.00
69.8862 212.00
69.9514 222.00
70.0166 197.00
70.0818 230.00
70.147 215.00
70.2122 204.00
70.2774 178.00
70.3426 207.00
70.4078 203.00
70.473 214.00
70.5382 229.00
70.6034 205.00
70.6686 203.00
70.7338 208.00
70.799 215.00
70.8642 228.00
70.9294 213.00
70.9946 178.00
71.0598 177.00
71.125 211.00
71.1902 207.00
71.2554 204.00
71.3205 202.00
71.3858 211.00
71.451 206.00
71.5162 221.00
71.5813 200.00
71.6465 229.00
71.7117 239.00
71.7769 209.00
71.8421 188.00
71.9073 209.00
71.9725 214.00
72.0377 223.00
72.1029 212.00
72.1681 199.00
72.2333 216.00
72.2985 215.00
72.3637 207.00
72.4289 201.00
72.4941 214.00
72.5593 194.00
72.6245 209.00
72.6897 227.00
72.7549 228.00
72.8201 233.00
72.8853 234.00
72.9505 198.00
73.0157 225.00
73.0809 210.00
73.1461 186.00
73.2113 200.00
73.2765 208.00
73.3417 212.00
73.4069 212.00
73.4721 219.00
73.5373 231.00
73.6025 196.00
73.6677 223.00
73.7329 203.00
73.7981 237.00
73.8633 193.00
73.9285 200.00
73.9937 225.00
74.0589 187.00
74.1241 204.00
74.1893 215.00
74.2545 229.00
74.3197 174.00
74.3849 245.00
74.4501 183.00
74.5153 206.00
74.5805 194.00
74.6457 192.00
74.7109 218.00
74.7761 195.00
74.8413 220.00
74.9065 231.00
74.9717 194.00
75.0369 195.00
75.1021 198.00
75.1673 219.00
75.2325 199.00
75.2977 205.00
75.3629 196.00
75.4281 226.00
75.4933 214.00
75.5585 210.00
75.6237 222.00
75.6889 220.00
75.7541 209.00
75.8193 216.00
75.8845 194.00
75.9497 229.00
76.0149 221.00
76.0801 209.00
76.1452 244.00
76.2104 221.00
76.2756 179.00
76.3409 214.00
76.406 197.00
76.4712 218.00
76.5364 204.00
76.6016 222.00
76.6668 227.00
76.732 227.00
76.7972 226.00
76.8624 237.00
76.9276 226.00
76.9928 227.00
77.058 198.00
77.1232 206.00
77.1884 202.00
77.2536 240.00
77.3188 195.00
77.384 193.00
77.4492 234.00
77.5144 227.00
77.5796 211.00
77.6448 202.00
77.71 235.00
77.7752 212.00
77.8404 216.00
77.9056 234.00
77.9708 262.00
78.036 212.00
78.1012 216.00
78.1664 230.00
78.2316 230.00
78.2968 240.00
78.362 211.00
78.4272 236.00
78.4924 232.00
78.5576 273.00
78.6228 235.00
78.688 245.00
78.7532 256.00
78.8184 234.00
78.8836 242.00
78.9488 265.00
79.014 242.00
79.0792 217.00
79.1444 227.00
79.2096 240.00
79.2748 228.00
79.34 238.00
79.4052 245.00
79.4704 240.00
79.5356 234.00
79.6008 230.00
79.666 310.00
79.7312 242.00
79.7964 227.00
79.8616 237.00
79.9268 236.00
79.992 261.00
80.0572 245.00
80.1224 244.00
80.1876 239.00
80.2528 246.00
80.318 222.00
80.3832 268.00
80.4484 272.00
80.5136 266.00
80.5788 227.00
80.644 225.00
80.7092 213.00
80.7744 240.00
80.8396 234.00
80.9048 228.00
80.9699 250.00
81.0351 259.00
81.1003 259.00
81.1655 249.00
81.2307 278.00
81.2959 217.00
81.3611 235.00
81.4263 231.00
81.4915 241.00
81.5567 232.00
81.6219 256.00
81.6871 241.00
81.7523 249.00
81.8175 273.00
81.8827 224.00
81.9479 260.00
82.0131 212.00
82.0783 218.00
82.1435 220.00
82.2087 261.00
82.2739 236.00
82.3391 229.00
82.4043 236.00
82.4695 214.00
82.5347 275.00
82.5999 227.00
82.6651 231.00
82.7303 232.00
82.7955 225.00
82.8607 232.00
82.9259 236.00
82.9911 215.00
83.0563 227.00
83.1215 223.00
83.1867 203.00
83.2519 230.00
83.3171 205.00
83.3823 248.00
83.4475 218.00
83.5127 219.00
83.5779 233.00
83.6431 221.00
83.7083 238.00
83.7735 237.00
83.8387 245.00
83.9039 232.00
83.9691 235.00
84.0343 214.00
84.0995 214.00
84.1647 256.00
84.2299 225.00
84.2951 272.00
84.3603 245.00
84.4255 214.00
84.4907 267.00
84.5559 247.00
84.6211 245.00
84.6863 243.00
84.7515 235.00
84.8167 240.00
84.8819 220.00
84.9471 220.00
85.0123 199.00
85.0775 217.00
85.1427 222.00
85.2079 223.00
85.2731 221.00
85.3383 243.00
85.4035 236.00
85.4687 220.00
85.5339 198.00
85.5991 208.00
85.6643 240.00
85.7295 213.00
85.7946 200.00
85.8598 203.00
85.925 210.00
85.9903 224.00
86.0554 229.00
86.1206 214.00
86.1858 202.00
86.251 228.00
86.3162 197.00
86.3814 223.00
86.4466 215.00
86.5118 242.00
86.577 198.00
86.6422 214.00
86.7074 209.00
86.7726 257.00
86.8378 205.00
86.903 207.00
86.9682 225.00
87.0334 198.00
87.0986 211.00
87.1638 217.00
87.229 222.00
87.2942 245.00
87.3594 215.00
87.4246 197.00
87.4898 201.00
87.555 219.00
87.6202 234.00
87.6854 210.00
87.7506 191.00
87.8158 199.00
87.881 219.00
87.9462 197.00
88.0114 215.00
88.0766 204.00
88.1418 208.00
88.207 191.00
88.2722 202.00
88.3374 220.00
88.4026 189.00
88.4678 213.00
88.533 184.00
88.5982 225.00
88.6634 174.00
88.7286 197.00
88.7938 201.00
88.859 195.00
88.9242 205.00
88.9894 185.00
89.0546 192.00
89.1198 248.00
89.185 207.00
89.2502 213.00
89.3154 227.00
89.3806 203.00
89.4458 199.00
89.511 212.00
89.5762 182.00
89.6414 187.00
89.7066 200.00
89.7718 195.00
89.837 227.00
89.9022 181.00
89.9674 209.00
90.0326 208.00
90.0978 214.00
90.163 214.00
90.2282 216.00
90.2934 219.00
90.3586 216.00
90.4238 184.00
90.489 191.00
90.5542 191.00
90.6193 202.00
90.6845 205.00
90.7497 198.00
90.8149 205.00
90.8801 211.00
90.9453 196.00
91.0105 192.00
91.0757 196.00
91.1409 189.00
91.2061 214.00
91.2713 209.00
91.3365 236.00
91.4017 190.00
91.4669 214.00
91.5321 199.00
91.5973 233.00
91.6625 197.00
91.7277 215.00
91.7929 176.00
91.8581 179.00
91.9233 203.00
91.9885 191.00
92.0537 188.00
92.1189 186.00
92.1841 184.00
92.2493 186.00
92.3145 205.00
92.3797 188.00
92.4449 206.00
92.5101 206.00
92.5753 194.00
92.6405 216.00
92.7057 187.00
92.7709 197.00
92.8361 212.00
92.9013 185.00
92.9665 196.00
93.0317 191.00
93.0969 206.00
93.1621 204.00
93.2273 223.00
93.2925 215.00
93.3577 191.00
93.4229 207.00
93.4881 174.00
93.5533 189.00
93.6185 223.00
93.6837 187.00
93.7489 201.00
93.8141 181.00
93.8793 205.00
93.9445 199.00
94.0097 211.00
94.0749 166.00
94.1401 172.00
94.2053 177.00
94.2705 191.00
94.3357 206.00
94.4009 222.00
94.4661 201.00
94.5313 171.00
94.5965 201.00
94.6617 192.00
94.7269 183.00
94.7921 180.00
94.8573 203.00
94.9225 220.00
94.9877 206.00
95.0529 209.00
95.1181 178.00
95.1833 201.00
95.2485 194.00
95.3137 195.00
95.3789 198.00
95.444 214.00
95.5092 197.00
95.5744 177.00
95.6396 190.00
95.7048 210.00
95.77 203.00
95.8352 204.00
95.9004 212.00
95.9656 200.00
96.0308 191.00
96.096 213.00
96.1612 172.00
96.2264 164.00
96.2916 209.00
96.3568 191.00
96.422 208.00
96.4872 186.00
96.5524 193.00
96.6176 192.00
96.6828 192.00
96.748 180.00
96.8132 191.00
96.8784 196.00
96.9436 197.00
97.0088 200.00
97.074 166.00
97.1392 184.00
97.2044 194.00
97.2696 203.00
97.3348 186.00
97.4 199.00
97.4652 197.00
97.5304 200.00
97.5956 178.00
97.6608 209.00
97.726 209.00
97.7912 196.00
97.8564 209.00
97.9216 201.00
97.9868 197.00
98.052 196.00
98.1172 208.00
98.1824 180.00
98.2476 209.00
98.3128 172.00
98.378 202.00
98.4432 189.00
98.5084 192.00
98.5736 195.00
98.6388 205.00
98.704 185.00
98.7692 181.00
98.8344 174.00
98.8996 175.00
98.9648 183.00
99.03 195.00
99.0952 210.00
99.1604 179.00
99.2256 182.00
99.2908 183.00
99.356 196.00
99.4212 179.00
99.4864 203.00
99.5516 191.00
99.6168 187.00
99.682 218.00
99.7472 200.00
99.8124 157.00
99.8776 193.00
99.9428 214.00
100.008 187.00
100.073 157.00
100.095 186.00