File: data/xrd_creation/results/Na_59.xy
9.903433 2599.00
9.968632 2651.00
10.0338 2538.00
10.099 2571.00
10.1642 2505.00
10.2294 2552.00
10.2946 2426.00
10.3598 2548.00
10.425 2498.00
10.4902 2444.00
10.5554 2405.00
10.6206 2376.00
10.6858 2322.00
10.751 2362.00
10.8162 2293.00
10.8814 2230.00
10.9466 2198.00
11.0118 2281.00
11.077 2249.00
11.1422 2205.00
11.2074 2169.00
11.2726 2176.00
11.3378 2184.00
11.403 2095.00
11.4682 2124.00
11.5334 2078.00
11.5986 2045.00
11.6638 2091.00
11.729 2100.00
11.7942 1946.00
11.8594 2002.00
11.9246 2066.00
11.9898 1965.00
12.055 1915.00
12.1202 1976.00
12.1854 1953.00
12.2506 1967.00
12.3158 1896.00
12.381 1917.00
12.4462 1821.00
12.5114 1918.00
12.5766 1882.00
12.6418 1836.00
12.707 1821.00
12.7722 1850.00
12.8374 1877.00
12.9026 1843.00
12.9678 2059.00
13.033 2158.00
13.0982 2411.00
13.1634 2560.00
13.2286 2661.00
13.2938 2387.00
13.359 1934.00
13.4242 1792.00
13.4894 1698.00
13.5546 1620.00
13.6198 1630.00
13.685 1606.00
13.7502 1665.00
13.8154 1608.00
13.8805 1579.00
13.9457 1603.00
14.0109 1561.00
14.0761 1567.00
14.1413 1518.00
14.2065 1598.00
14.2717 1563.00
14.3369 1523.00
14.4021 1506.00
14.4673 1616.00
14.5325 1649.00
14.5977 1578.00
14.6629 1589.00
14.7281 1498.00
14.7933 1511.00
14.8585 1500.00
14.9237 1470.00
14.9889 1553.00
15.0541 1487.00
15.1193 1435.00
15.1845 1492.00
15.2497 1485.00
15.3149 1384.00
15.3801 1391.00
15.4453 1409.00
15.5105 1443.00
15.5757 1383.00
15.6409 1403.00
15.7061 1412.00
15.7713 1410.00
15.8365 1342.00
15.9017 1337.00
15.9669 1371.00
16.0321 1392.00
16.0973 1358.00
16.1625 1341.00
16.2277 1421.00
16.2929 1395.00
16.3581 1331.00
16.4233 1320.00
16.4885 1353.00
16.5537 1383.00
16.6189 1380.00
16.6841 1290.00
16.7493 1428.00
16.8145 1325.00
16.8797 1283.00
16.9449 1348.00
17.0101 1291.00
17.0753 1346.00
17.1405 1252.00
17.2057 1262.00
17.2709 1273.00
17.3361 1361.00
17.4013 1233.00
17.4665 1306.00
17.5317 1298.00
17.5969 1318.00
17.6621 1276.00
17.7273 1224.00
17.7925 1301.00
17.8577 1256.00
17.9229 1218.00
17.9881 1215.00
18.0533 1275.00
18.1185 1256.00
18.1837 1309.00
18.2489 1269.00
18.3141 1267.00
18.3793 1288.00
18.4445 1228.00
18.5097 1158.00
18.5749 1182.00
18.6401 1171.00
18.7052 1176.00
18.7704 1075.00
18.8356 1112.00
18.9008 1102.00
18.966 1143.00
19.0312 1146.00
19.0964 1125.00
19.1616 1167.00
19.2268 1123.00
19.292 1112.00
19.3572 1025.00
19.4224 1142.00
19.4876 1086.00
19.5528 1095.00
19.618 1113.00
19.6832 1128.00
19.7484 1049.00
19.8136 1104.00
19.8788 1109.00
19.944 1067.00
20.0092 1031.00
20.0744 1012.00
20.1396 1092.00
20.2048 1032.00
20.27 1001.00
20.3352 1006.00
20.4004 984.00
20.4656 1056.00
20.5308 1025.00
20.596 1013.00
20.6612 999.00
20.7264 1074.00
20.7916 998.00
20.8568 1056.00
20.922 1023.00
20.9872 1069.00
21.0524 1073.00
21.1176 1007.00
21.1828 974.00
21.248 1002.00
21.3132 1013.00
21.3784 1017.00
21.4436 950.00
21.5088 935.00
21.574 971.00
21.6392 992.00
21.7044 950.00
21.7696 983.00
21.8348 1007.00
21.9 1012.00
21.9652 957.00
22.0304 1004.00
22.0956 995.00
22.1608 953.00
22.226 899.00
22.2912 938.00
22.3564 998.00
22.4216 1017.00
22.4868 1084.00
22.552 1164.00
22.6172 1398.00
22.6824 1856.00
22.7476 2455.00
22.8128 3047.00
22.878 2953.00
22.9432 2463.00
23.0084 1698.00
23.0736 1273.00
23.1388 1115.00
23.204 926.00
23.2692 941.00
23.3344 978.00
23.3996 941.00
23.4647 879.00
23.5299 997.00
23.5951 922.00
23.6603 853.00
23.7255 897.00
23.7907 959.00
23.8559 871.00
23.9211 912.00
23.9863 882.00
24.0515 899.00
24.1167 868.00
24.1819 845.00
24.2471 848.00
24.3123 877.00
24.3775 880.00
24.4427 884.00
24.5079 809.00
24.5731 842.00
24.6383 804.00
24.7035 828.00
24.7687 859.00
24.8339 893.00
24.8991 872.00
24.9643 832.00
25.0295 841.00
25.0947 815.00
25.1599 763.00
25.2251 819.00
25.2903 858.00
25.3555 912.00
25.4207 854.00
25.4859 909.00
25.5511 815.00
25.6163 819.00
25.6815 822.00
25.7467 824.00
25.8119 873.00
25.8771 843.00
25.9423 833.00
26.0075 861.00
26.0727 939.00
26.1379 897.00
26.2031 930.00
26.2683 892.00
26.3335 916.00
26.3987 990.00
26.4639 1173.00
26.5291 1196.00
26.5943 1303.00
26.6595 1212.00
26.7247 972.00
26.7899 813.00
26.8551 866.00
26.9203 787.00
26.9855 819.00
27.0507 828.00
27.1159 799.00
27.1811 802.00
27.2463 804.00
27.3115 794.00
27.3767 804.00
27.4419 884.00
27.5071 842.00
27.5723 824.00
27.6375 867.00
27.7027 894.00
27.7679 778.00
27.8331 913.00
27.8983 910.00
27.9635 948.00
28.0287 1149.00
28.0939 1527.00
28.1591 2143.00
28.2243 2698.00
28.2894 3125.00
28.3546 2908.00
28.4198 2384.00
28.485 1876.00
28.5502 1548.00
28.6154 1580.00
28.6806 1838.00
28.7458 2238.00
28.811 2569.00
28.8762 2385.00
28.9414 1931.00
29.0066 1452.00
29.0718 1115.00
29.137 938.00
29.2022 829.00
29.2674 791.00
29.3326 786.00
29.3978 747.00
29.463 813.00
29.5282 768.00
29.5934 776.00
29.6586 759.00
29.7238 837.00
29.789 775.00
29.8542 805.00
29.9194 954.00
29.9846 961.00
30.0498 811.00
30.115 808.00
30.1802 803.00
30.2454 747.00
30.3106 740.00
30.3758 735.00
30.441 715.00
30.5062 720.00
30.5714 678.00
30.6366 747.00
30.7018 739.00
30.767 770.00
30.8322 754.00
30.8974 746.00
30.9626 721.00
31.0278 700.00
31.093 720.00
31.1582 683.00
31.2234 707.00
31.2886 718.00
31.3538 731.00
31.419 816.00
31.4842 918.00
31.5494 977.00
31.6146 1030.00
31.6798 1128.00
31.745 1238.00
31.8102 1247.00
31.8754 1201.00
31.9406 1133.00
32.0058 1090.00
32.071 1004.00
32.1362 923.00
32.2014 863.00
32.2666 716.00
32.3318 703.00
32.397 654.00
32.4622 591.00
32.5274 635.00
32.5926 638.00
32.6578 726.00
32.723 644.00
32.7882 673.00
32.8534 680.00
32.9186 646.00
32.9838 675.00
33.0489 679.00
33.1141 661.00
33.1793 604.00
33.2445 573.00
33.3097 597.00
33.3749 635.00
33.4401 603.00
33.5053 633.00
33.5705 664.00
33.6357 663.00
33.7009 692.00
33.7661 716.00
33.8313 654.00
33.8965 693.00
33.9617 633.00
34.0269 641.00
34.0921 652.00
34.1573 631.00
34.2225 602.00
34.2877 607.00
34.3529 650.00
34.4181 626.00
34.4833 603.00
34.5485 586.00
34.6137 612.00
34.6789 598.00
34.7441 562.00
34.8093 571.00
34.8745 601.00
34.9397 623.00
35.0049 588.00
35.0701 635.00
35.1353 654.00
35.2005 607.00
35.2657 667.00
35.3309 659.00
35.3961 691.00
35.4613 612.00
35.5265 662.00
35.5917 604.00
35.6569 596.00
35.7221 611.00
35.7873 572.00
35.8525 644.00
35.9177 514.00
35.9829 569.00
36.0481 558.00
36.1133 553.00
36.1785 605.00
36.2437 603.00
36.3089 674.00
36.3741 745.00
36.4393 849.00
36.5045 1270.00
36.5697 1763.00
36.6349 2181.00
36.7001 2127.00
36.7653 1958.00
36.8305 1548.00
36.8957 1299.00
36.9609 1274.00
37.0261 1451.00
37.0913 1408.00
37.1565 1346.00
37.2217 1087.00
37.2869 885.00
37.3521 664.00
37.4173 614.00
37.4825 564.00
37.5477 534.00
37.6129 555.00
37.6781 545.00
37.7433 573.00
37.8085 585.00
37.8736 615.00
37.9388 631.00
38.004 593.00
38.0692 592.00
38.1344 523.00
38.1996 540.00
38.2648 528.00
38.33 495.00
38.3952 488.00
38.4604 533.00
38.5256 506.00
38.5908 494.00
38.656 497.00
38.7212 454.00
38.7864 550.00
38.8516 498.00
38.9168 524.00
38.982 509.00
39.0472 563.00
39.1124 608.00
39.1776 634.00
39.2428 593.00
39.308 583.00
39.3732 576.00
39.4384 623.00
39.5036 626.00
39.5688 637.00
39.634 667.00
39.6992 652.00
39.7644 558.00
39.8296 585.00
39.8948 522.00
39.96 553.00
40.0252 592.00
40.0904 598.00
40.1556 518.00
40.2208 544.00
40.286 555.00
40.3512 514.00
40.4164 521.00
40.4816 513.00
40.5468 519.00
40.612 501.00
40.6772 469.00
40.7424 503.00
40.8076 497.00
40.8728 455.00
40.938 464.00
41.0032 478.00
41.0684 492.00
41.1336 472.00
41.1988 482.00
41.264 483.00
41.3292 428.00
41.3944 470.00
41.4596 498.00
41.5248 449.00
41.59 460.00
41.6552 475.00
41.7204 422.00
41.7856 416.00
41.8508 463.00
41.916 440.00
41.9812 464.00
42.0464 428.00
42.1116 426.00
42.1768 440.00
42.242 436.00
42.3072 487.00
42.3724 457.00
42.4376 464.00
42.5028 441.00
42.568 456.00
42.6332 451.00
42.6983 489.00
42.7635 462.00
42.8287 493.00
42.8939 454.00
42.9591 458.00
43.0243 457.00
43.0895 489.00
43.1547 450.00
43.2199 485.00
43.2851 451.00
43.3503 441.00
43.4155 438.00
43.4807 461.00
43.5459 440.00
43.6111 443.00
43.6763 456.00
43.7415 453.00
43.8067 437.00
43.8719 447.00
43.9371 444.00
44.0023 459.00
44.0675 459.00
44.1327 497.00
44.1979 490.00
44.2631 499.00
44.3283 498.00
44.3935 500.00
44.4587 528.00
44.5239 531.00
44.5891 539.00
44.6543 550.00
44.7195 538.00
44.7847 586.00
44.8499 502.00
44.9151 569.00
44.9803 562.00
45.0455 561.00
45.1107 450.00
45.1759 542.00
45.2411 455.00
45.3063 511.00
45.3715 491.00
45.4367 430.00
45.5019 460.00
45.5671 445.00
45.6323 461.00
45.6975 450.00
45.7627 408.00
45.8279 436.00
45.8931 419.00
45.9583 456.00
46.0235 416.00
46.0887 410.00
46.1539 456.00
46.2191 441.00
46.2843 472.00
46.3495 471.00
46.4147 464.00
46.4799 565.00
46.5451 686.00
46.6103 999.00
46.6755 1086.00
46.7407 1093.00
46.8059 855.00
46.8711 730.00
46.9363 583.00
47.0015 488.00
47.0667 440.00
47.1319 453.00
47.1971 449.00
47.2623 492.00
47.3275 455.00
47.3927 407.00
47.4579 452.00
47.523 473.00
47.5882 400.00
47.6534 479.00
47.7186 424.00
47.7838 434.00
47.849 392.00
47.9142 449.00
47.9794 439.00
48.0446 464.00
48.1098 408.00
48.175 457.00
48.2402 427.00
48.3054 441.00
48.3706 483.00
48.4358 433.00
48.501 518.00
48.5662 520.00
48.6314 537.00
48.6966 466.00
48.7618 503.00
48.827 446.00
48.8922 426.00
48.9574 430.00
49.0226 464.00
49.0878 472.00
49.153 540.00
49.2182 589.00
49.2834 521.00
49.3486 535.00
49.4138 517.00
49.479 567.00
49.5442 611.00
49.6094 800.00
49.6746 1000.00
49.7398 1014.00
49.805 971.00
49.8702 888.00
49.9354 761.00
50.0006 672.00
50.0658 636.00
50.131 576.00
50.1962 595.00
50.2614 672.00
50.3266 669.00
50.3918 647.00
50.457 691.00
50.5222 650.00
50.5874 751.00
50.6526 841.00
50.7178 812.00
50.783 852.00
50.8482 884.00
50.9134 797.00
50.9786 826.00
51.0438 699.00
51.109 706.00
51.1742 626.00
51.2394 586.00
51.3046 557.00
51.3698 524.00
51.435 544.00
51.5002 477.00
51.5654 541.00
51.6306 476.00
51.6958 538.00
51.761 557.00
51.8262 543.00
51.8914 537.00
51.9566 562.00
52.0218 482.00
52.087 472.00
52.1522 473.00
52.2174 460.00
52.2826 460.00
52.3477 447.00
52.4129 487.00
52.4781 410.00
52.5433 486.00
52.6085 475.00
52.6737 510.00
52.7389 489.00
52.8041 525.00
52.8693 529.00
52.9345 573.00
52.9997 522.00
53.0649 485.00
53.1301 509.00
53.1953 552.00
53.2605 518.00
53.3257 498.00
53.3909 455.00
53.4561 405.00
53.5213 453.00
53.5865 406.00
53.6517 423.00
53.7169 420.00
53.7821 394.00
53.8473 432.00
53.9125 415.00
53.9777 433.00
54.0429 467.00
54.1081 426.00
54.1733 419.00
54.2385 436.00
54.3037 419.00
54.3689 439.00
54.4341 440.00
54.4993 484.00
54.5645 482.00
54.6297 474.00
54.6949 496.00
54.7601 506.00
54.8253 451.00
54.8905 475.00
54.9557 472.00
55.0209 522.00
55.0861 589.00
55.1513 608.00
55.2165 748.00
55.2817 1021.00
55.3469 1381.00
55.4121 1574.00
55.4773 1602.00
55.5425 1483.00
55.6077 1313.00
55.6729 1198.00
55.7381 1090.00
55.8033 1024.00
55.8685 833.00
55.9337 766.00
55.9989 659.00
56.0641 663.00
56.1293 649.00
56.1945 628.00
56.2597 681.00
56.3249 769.00
56.3901 620.00
56.4553 698.00
56.5205 583.00
56.5857 573.00
56.6509 585.00
56.7161 520.00
56.7813 499.00
56.8465 497.00
56.9117 479.00
56.9769 438.00
57.042 477.00
57.1073 501.00
57.1724 546.00
57.2376 508.00
57.3028 549.00
57.368 512.00
57.4332 502.00
57.4984 466.00
57.5636 463.00
57.6288 424.00
57.694 458.00
57.7592 403.00
57.8244 448.00
57.8896 458.00
57.9548 446.00
58.02 460.00
58.0852 472.00
58.1504 460.00
58.2156 504.00
58.2808 539.00
58.346 627.00
58.4112 614.00
58.4764 609.00
58.5416 591.00
58.6068 632.00
58.672 571.00
58.7372 577.00
58.8024 552.00
58.8676 549.00
58.9328 510.00
58.998 485.00
59.0632 491.00
59.1284 467.00
59.1936 469.00
59.2588 488.00
59.324 510.00
59.3892 503.00
59.4544 511.00
59.5196 542.00
59.5848 491.00
59.65 558.00
59.7152 585.00
59.7804 535.00
59.8456 541.00
59.9108 495.00
59.976 451.00
60.0412 458.00
60.1064 439.00
60.1716 467.00
60.2368 444.00
60.302 409.00
60.3672 427.00
60.4324 414.00
60.4976 411.00
60.5628 421.00
60.628 433.00
60.6932 453.00
60.7584 444.00
60.8236 411.00
60.8888 452.00
60.954 435.00
61.0192 443.00
61.0844 444.00
61.1496 395.00
61.2148 461.00
61.28 484.00
61.3452 469.00
61.4104 499.00
61.4756 479.00
61.5408 460.00
61.606 490.00
61.6712 511.00
61.7364 517.00
61.8016 478.00
61.8667 510.00
61.932 485.00
61.9971 480.00
62.0623 460.00
62.1275 475.00
62.1927 496.00
62.2579 450.00
62.3231 432.00
62.3883 479.00
62.4535 480.00
62.5187 458.00
62.5839 476.00
62.6491 519.00
62.7143 452.00
62.7795 517.00
62.8447 431.00
62.9099 416.00
62.9751 417.00
63.0403 436.00
63.1055 460.00
63.1707 443.00
63.2359 432.00
63.3011 511.00
63.3663 515.00
63.4315 542.00
63.4967 595.00
63.5619 620.00
63.6271 636.00
63.6923 645.00
63.7575 629.00
63.8227 596.00
63.8879 516.00
63.9531 498.00
64.0183 473.00
64.0835 425.00
64.1487 439.00
64.2139 430.00
64.2791 488.00
64.3443 418.00
64.4095 430.00
64.4747 436.00
64.5399 440.00
64.6051 419.00
64.6703 477.00
64.7355 482.00
64.8007 524.00
64.8659 518.00
64.9311 444.00
64.9963 458.00
65.0615 436.00
65.1267 411.00
65.1919 418.00
65.2571 429.00
65.3223 420.00
65.3875 408.00
65.4527 412.00
65.5179 405.00
65.5831 416.00
65.6483 382.00
65.7135 432.00
65.7787 442.00
65.8439 402.00
65.9091 411.00
65.9743 406.00
66.0395 447.00
66.1047 438.00
66.1699 479.00
66.2351 441.00
66.3003 469.00
66.3655 484.00
66.4307 550.00
66.4959 475.00
66.561 492.00
66.6263 495.00
66.6915 486.00
66.7566 495.00
66.8218 471.00
66.887 432.00
66.9522 458.00
67.0174 440.00
67.0826 450.00
67.1478 435.00
67.213 449.00
67.2782 430.00
67.3434 407.00
67.4086 486.00
67.4738 445.00
67.539 472.00
67.6042 452.00
67.6694 479.00
67.7346 428.00
67.7998 477.00
67.865 435.00
67.9302 442.00
67.9954 377.00
68.0606 400.00
68.1258 359.00
68.191 392.00
68.2562 387.00
68.3214 399.00
68.3866 414.00
68.4518 421.00
68.517 380.00
68.5822 399.00
68.6474 381.00
68.7126 376.00
68.7778 336.00
68.843 381.00
68.9082 386.00
68.9734 389.00
69.0386 402.00
69.1038 375.00
69.169 366.00
69.2342 380.00
69.2994 399.00
69.3646 346.00
69.4298 348.00
69.495 363.00
69.5602 362.00
69.6254 373.00
69.6906 371.00
69.7558 376.00
69.821 403.00
69.8862 400.00
69.9514 392.00
70.0166 417.00
70.0818 376.00
70.147 385.00
70.2122 377.00
70.2774 389.00
70.3426 452.00
70.4078 515.00
70.473 601.00
70.5382 606.00
70.6034 562.00
70.6686 589.00
70.7338 563.00
70.799 530.00
70.8642 527.00
70.9294 476.00
70.9946 466.00
71.0598 477.00
71.125 438.00
71.1902 452.00
71.2554 505.00
71.3205 564.00
71.3858 549.00
71.451 499.00
71.5162 476.00
71.5813 490.00
71.6465 454.00
71.7117 428.00
71.7769 419.00
71.8421 398.00
71.9073 392.00
71.9725 425.00
72.0377 406.00
72.1029 424.00
72.1681 441.00
72.2333 403.00
72.2985 436.00
72.3637 437.00
72.4289 400.00
72.4941 360.00
72.5593 416.00
72.6245 339.00
72.6897 382.00
72.7549 450.00
72.8201 448.00
72.8853 434.00
72.9505 447.00
73.0157 413.00
73.0809 411.00
73.1461 398.00
73.2113 430.00
73.2765 383.00
73.3417 379.00
73.4069 399.00
73.4721 375.00
73.5373 393.00
73.6025 387.00
73.6677 382.00
73.7329 375.00
73.7981 378.00
73.8633 382.00
73.9285 387.00
73.9937 396.00
74.0589 351.00
74.1241 433.00
74.1893 362.00
74.2545 425.00
74.3197 341.00
74.3849 396.00
74.4501 387.00
74.5153 417.00
74.5805 404.00
74.6457 343.00
74.7109 378.00
74.7761 384.00
74.8413 361.00
74.9065 382.00
74.9717 380.00
75.0369 392.00
75.1021 380.00
75.1673 372.00
75.2325 377.00
75.2977 349.00
75.3629 384.00
75.4281 410.00
75.4933 423.00
75.5585 373.00
75.6237 402.00
75.6889 376.00
75.7541 396.00
75.8193 388.00
75.8845 390.00
75.9497 356.00
76.0149 369.00
76.0801 359.00
76.1452 362.00
76.2104 407.00
76.2756 398.00
76.3409 404.00
76.406 411.00
76.4712 391.00
76.5364 402.00
76.6016 397.00
76.6668 406.00
76.732 394.00
76.7972 393.00
76.8624 415.00
76.9276 401.00
76.9928 410.00
77.058 381.00
77.1232 384.00
77.1884 436.00
77.2536 410.00
77.3188 445.00
77.384 427.00
77.4492 453.00
77.5144 439.00
77.5796 439.00
77.6448 454.00
77.71 404.00
77.7752 456.00
77.8404 502.00
77.9056 501.00
77.9708 513.00
78.036 485.00
78.1012 501.00
78.1664 479.00
78.2316 440.00
78.2968 428.00
78.362 446.00
78.4272 414.00
78.4924 429.00
78.5576 424.00
78.6228 393.00
78.688 447.00
78.7532 444.00
78.8184 426.00
78.8836 481.00
78.9488 489.00
79.014 472.00
79.0792 473.00
79.1444 485.00
79.2096 449.00
79.2748 390.00
79.34 434.00
79.4052 416.00
79.4704 444.00
79.5356 457.00
79.6008 424.00
79.666 448.00
79.7312 475.00
79.7964 581.00
79.8616 565.00
79.9268 596.00
79.992 587.00
80.0572 645.00
80.1224 622.00
80.1876 581.00
80.2528 581.00
80.318 520.00
80.3832 496.00
80.4484 496.00
80.5136 467.00
80.5788 435.00
80.644 450.00
80.7092 407.00
80.7744 424.00
80.8396 443.00
80.9048 437.00
80.9699 440.00
81.0351 413.00
81.1003 449.00
81.1655 410.00
81.2307 402.00
81.2959 455.00
81.3611 474.00
81.4263 477.00
81.4915 395.00
81.5567 450.00
81.6219 467.00
81.6871 419.00
81.7523 473.00
81.8175 427.00
81.8827 425.00
81.9479 414.00
82.0131 440.00
82.0783 436.00
82.1435 406.00
82.2087 390.00
82.2739 451.00
82.3391 440.00
82.4043 458.00
82.4695 436.00
82.5347 405.00
82.5999 431.00
82.6651 432.00
82.7303 444.00
82.7955 393.00
82.8607 398.00
82.9259 401.00
82.9911 430.00
83.0563 418.00
83.1215 375.00
83.1867 419.00
83.2519 432.00
83.3171 409.00
83.3823 436.00
83.4475 400.00
83.5127 423.00
83.5779 386.00
83.6431 408.00
83.7083 414.00
83.7735 390.00
83.8387 406.00
83.9039 446.00
83.9691 429.00
84.0343 429.00
84.0995 450.00
84.1647 441.00
84.2299 406.00
84.2951 457.00
84.3603 464.00
84.4255 524.00
84.4907 478.00
84.5559 469.00
84.6211 489.00
84.6863 477.00
84.7515 445.00
84.8167 423.00
84.8819 438.00
84.9471 396.00
85.0123 420.00
85.0775 404.00
85.1427 402.00
85.2079 432.00
85.2731 384.00
85.3383 403.00
85.4035 418.00
85.4687 393.00
85.5339 419.00
85.5991 440.00
85.6643 409.00
85.7295 441.00
85.7946 384.00
85.8598 432.00
85.925 386.00
85.9903 421.00
86.0554 414.00
86.1206 405.00
86.1858 375.00
86.251 427.00
86.3162 368.00
86.3814 400.00
86.4466 361.00
86.5118 393.00
86.577 382.00
86.6422 372.00
86.7074 373.00
86.7726 410.00
86.8378 388.00
86.903 388.00
86.9682 373.00
87.0334 387.00
87.0986 409.00
87.1638 363.00
87.229 395.00
87.2942 429.00
87.3594 445.00
87.4246 442.00
87.4898 438.00
87.555 422.00
87.6202 406.00
87.6854 363.00
87.7506 379.00
87.8158 384.00
87.881 391.00
87.9462 400.00
88.0114 417.00
88.0766 409.00
88.1418 383.00
88.207 411.00
88.2722 377.00
88.3374 368.00
88.4026 424.00
88.4678 376.00
88.533 401.00
88.5982 407.00
88.6634 418.00
88.7286 387.00
88.7938 382.00
88.859 408.00
88.9242 372.00
88.9894 379.00
89.0546 346.00
89.1198 377.00
89.185 394.00
89.2502 374.00
89.3154 351.00
89.3806 362.00
89.4458 398.00
89.511 417.00
89.5762 437.00
89.6414 398.00
89.7066 370.00
89.7718 436.00
89.837 410.00
89.9022 408.00
89.9674 417.00
90.0326 375.00
90.0978 381.00
90.163 346.00
90.2282 362.00
90.2934 388.00
90.3586 354.00
90.4238 377.00
90.489 305.00
90.5542 389.00
90.6193 361.00
90.6845 358.00
90.7497 348.00
90.8149 330.00
90.8801 362.00
90.9453 349.00
91.0105 349.00
91.0757 387.00
91.1409 394.00
91.2061 400.00
91.2713 370.00
91.3365 348.00
91.4017 378.00
91.4669 362.00
91.5321 393.00
91.5973 372.00
91.6625 365.00
91.7277 390.00
91.7929 385.00
91.8581 398.00
91.9233 411.00
91.9885 426.00
92.0537 363.00
92.1189 430.00
92.1841 414.00
92.2493 396.00
92.3145 400.00
92.3797 365.00
92.4449 417.00
92.5101 371.00
92.5753 404.00
92.6405 400.00
92.7057 374.00
92.7709 397.00
92.8361 415.00
92.9013 347.00
92.9665 444.00
93.0317 390.00
93.0969 396.00
93.1621 396.00
93.2273 404.00
93.2925 486.00
93.3577 466.00
93.4229 448.00
93.4881 475.00
93.5533 470.00
93.6185 447.00
93.6837 464.00
93.7489 448.00
93.8141 406.00
93.8793 433.00
93.9445 415.00
94.0097 403.00
94.0749 433.00
94.1401 422.00
94.2053 433.00
94.2705 446.00
94.3357 446.00
94.4009 451.00
94.4661 443.00
94.5313 427.00
94.5965 398.00
94.6617 436.00
94.7269 436.00
94.7921 400.00
94.8573 418.00
94.9225 424.00
94.9877 426.00
95.0529 422.00
95.1181 437.00
95.1833 434.00
95.2485 402.00
95.3137 395.00
95.3789 415.00
95.444 444.00
95.5092 389.00
95.5744 373.00
95.6396 447.00
95.7048 397.00
95.77 383.00
95.8352 387.00
95.9004 402.00
95.9656 394.00
96.0308 400.00
96.096 430.00
96.1612 434.00
96.2264 407.00
96.2916 494.00
96.3568 468.00
96.422 452.00
96.4872 463.00
96.5524 407.00
96.6176 427.00
96.6828 478.00
96.748 435.00
96.8132 374.00
96.8784 437.00
96.9436 394.00
97.0088 420.00
97.074 413.00
97.1392 388.00
97.2044 410.00
97.2696 403.00
97.3348 392.00
97.4 407.00
97.4652 372.00
97.5304 386.00
97.5956 447.00
97.6608 409.00
97.726 448.00
97.7912 444.00
97.8564 473.00
97.9216 449.00
97.9868 494.00
98.052 465.00
98.1172 482.00
98.1824 497.00
98.2476 478.00
98.3128 491.00
98.378 493.00
98.4432 428.00
98.5084 439.00
98.5736 452.00
98.6388 434.00
98.704 459.00
98.7692 464.00
98.8344 497.00
98.8996 454.00
98.9648 424.00
99.03 447.00
99.0952 436.00
99.1604 430.00
99.2256 457.00
99.2908 380.00
99.356 461.00
99.4212 419.00
99.4864 419.00
99.5516 401.00
99.6168 384.00
99.682 412.00
99.7472 364.00
99.8124 443.00
99.8776 395.00
99.9428 393.00
100.008 434.00
100.073 393.00
100.095 398.00