File: data/xrd_creation/results/Na_66.xy
9.903433 2702.00
9.968632 2650.00
10.0338 2664.00
10.099 2758.00
10.1642 2708.00
10.2294 2594.00
10.2946 2540.00
10.3598 2673.00
10.425 2610.00
10.4902 2647.00
10.5554 2545.00
10.6206 2637.00
10.6858 2556.00
10.751 2472.00
10.8162 2559.00
10.8814 2466.00
10.9466 2422.00
11.0118 2516.00
11.077 2460.00
11.1422 2498.00
11.2074 2359.00
11.2726 2325.00
11.3378 2447.00
11.403 2255.00
11.4682 2386.00
11.5334 2179.00
11.5986 2223.00
11.6638 2178.00
11.729 2206.00
11.7942 2298.00
11.8594 2247.00
11.9246 2196.00
11.9898 2131.00
12.055 2150.00
12.1202 2086.00
12.1854 2109.00
12.2506 2124.00
12.3158 2090.00
12.381 2108.00
12.4462 2090.00
12.5114 2006.00
12.5766 1911.00
12.6418 2048.00
12.707 1918.00
12.7722 2011.00
12.8374 2030.00
12.9026 1895.00
12.9678 1999.00
13.033 1979.00
13.0982 1926.00
13.1634 1895.00
13.2286 1989.00
13.2938 2003.00
13.359 1942.00
13.4242 1887.00
13.4894 1841.00
13.5546 1849.00
13.6198 1864.00
13.685 1836.00
13.7502 1852.00
13.8154 1901.00
13.8805 1867.00
13.9457 1752.00
14.0109 1966.00
14.0761 1898.00
14.1413 2075.00
14.2065 2105.00
14.2717 1989.00
14.3369 1852.00
14.4021 1741.00
14.4673 1754.00
14.5325 1697.00
14.5977 1722.00
14.6629 1762.00
14.7281 1718.00
14.7933 1761.00
14.8585 1759.00
14.9237 1666.00
14.9889 1721.00
15.0541 1589.00
15.1193 1738.00
15.1845 1744.00
15.2497 1701.00
15.3149 1569.00
15.3801 1718.00
15.4453 1662.00
15.5105 1617.00
15.5757 1660.00
15.6409 1612.00
15.7061 1623.00
15.7713 1653.00
15.8365 1675.00
15.9017 1600.00
15.9669 1661.00
16.0321 1617.00
16.0973 1663.00
16.1625 1757.00
16.2277 1710.00
16.2929 1690.00
16.3581 1665.00
16.4233 1618.00
16.4885 1581.00
16.5537 1527.00
16.6189 1599.00
16.6841 1553.00
16.7493 1642.00
16.8145 1622.00
16.8797 1521.00
16.9449 1502.00
17.0101 1605.00
17.0753 1554.00
17.1405 1593.00
17.2057 1507.00
17.2709 1567.00
17.3361 1533.00
17.4013 1534.00
17.4665 1505.00
17.5317 1538.00
17.5969 1555.00
17.6621 1552.00
17.7273 1558.00
17.7925 1489.00
17.8577 1519.00
17.9229 1512.00
17.9881 1549.00
18.0533 1553.00
18.1185 1506.00
18.1837 1463.00
18.2489 1542.00
18.3141 1492.00
18.3793 1509.00
18.4445 1490.00
18.5097 1374.00
18.5749 1433.00
18.6401 1428.00
18.7052 1490.00
18.7704 1430.00
18.8356 1475.00
18.9008 1459.00
18.966 1538.00
19.0312 1521.00
19.0964 1513.00
19.1616 1502.00
19.2268 1542.00
19.292 1600.00
19.3572 1678.00
19.4224 1691.00
19.4876 1632.00
19.5528 1497.00
19.618 1491.00
19.6832 1512.00
19.7484 1413.00
19.8136 1451.00
19.8788 1419.00
19.944 1438.00
20.0092 1452.00
20.0744 1413.00
20.1396 1555.00
20.2048 1748.00
20.27 1820.00
20.3352 1945.00
20.4004 1637.00
20.4656 1438.00
20.5308 1540.00
20.596 1571.00
20.6612 1754.00
20.7264 1683.00
20.7916 1736.00
20.8568 1841.00
20.922 1746.00
20.9872 1709.00
21.0524 1621.00
21.1176 1698.00
21.1828 1605.00
21.248 1581.00
21.3132 1618.00
21.3784 1668.00
21.4436 1836.00
21.5088 1986.00
21.574 2205.00
21.6392 2065.00
21.7044 1893.00
21.7696 1765.00
21.8348 1748.00
21.9 1795.00
21.9652 2012.00
22.0304 2178.00
22.0956 1980.00
22.1608 1556.00
22.226 1369.00
22.2912 1328.00
22.3564 1338.00
22.4216 1383.00
22.4868 1419.00
22.552 1617.00
22.6172 1942.00
22.6824 2579.00
22.7476 3531.00
22.8128 3737.00
22.878 2685.00
22.9432 1722.00
23.0084 1372.00
23.0736 1236.00
23.1388 1232.00
23.204 1321.00
23.2692 1300.00
23.3344 1331.00
23.3996 1368.00
23.4647 1429.00
23.5299 1493.00
23.5951 1607.00
23.6603 1562.00
23.7255 1738.00
23.7907 1832.00
23.8559 2088.00
23.9211 2523.00
23.9863 3052.00
24.0515 2686.00
24.1167 2046.00
24.1819 1882.00
24.2471 2103.00
24.3123 2536.00
24.3775 2944.00
24.4427 2502.00
24.5079 1933.00
24.5731 1511.00
24.6383 1446.00
24.7035 1363.00
24.7687 1268.00
24.8339 1172.00
24.8991 1218.00
24.9643 1229.00
25.0295 1224.00
25.0947 1226.00
25.1599 1228.00
25.2251 1195.00
25.2903 1166.00
25.3555 1166.00
25.4207 1236.00
25.4859 1176.00
25.5511 1228.00
25.6163 1276.00
25.6815 1286.00
25.7467 1305.00
25.8119 1359.00
25.8771 1405.00
25.9423 1586.00
26.0075 1662.00
26.0727 1862.00
26.1379 2201.00
26.2031 2988.00
26.2683 4491.00
26.3335 5476.00
26.3987 5451.00
26.4639 4229.00
26.5291 3261.00
26.5943 2494.00
26.6595 2097.00
26.7247 1904.00
26.7899 1930.00
26.8551 2078.00
26.9203 2005.00
26.9855 1800.00
27.0507 1874.00
27.1159 1910.00
27.1811 2059.00
27.2463 2476.00
27.3115 3176.00
27.3767 3804.00
27.4419 5059.00
27.5071 6234.00
27.5723 6178.00
27.6375 4109.00
27.7027 2554.00
27.7679 1970.00
27.8331 1935.00
27.8983 1889.00
27.9635 1618.00
28.0287 1453.00
28.0939 1372.00
28.1591 1200.00
28.2243 1240.00
28.2894 1288.00
28.3546 1276.00
28.4198 1211.00
28.485 1226.00
28.5502 1114.00
28.6154 1179.00
28.6806 1140.00
28.7458 1183.00
28.811 1189.00
28.8762 1172.00
28.9414 1316.00
29.0066 1398.00
29.0718 1469.00
29.137 1410.00
29.2022 1395.00
29.2674 1207.00
29.3326 1108.00
29.3978 1133.00
29.463 1160.00
29.5282 1174.00
29.5934 1199.00
29.6586 1166.00
29.7238 1199.00
29.789 1248.00
29.8542 1111.00
29.9194 1032.00
29.9846 1082.00
30.0498 1158.00
30.115 1143.00
30.1802 1193.00
30.2454 1194.00
30.3106 1246.00
30.3758 1306.00
30.441 1384.00
30.5062 1402.00
30.5714 1496.00
30.6366 1589.00
30.7018 1837.00
30.767 1953.00
30.8322 2160.00
30.8974 2606.00
30.9626 2288.00
31.0278 1701.00
31.093 1189.00
31.1582 1057.00
31.2234 1026.00
31.2886 1094.00
31.3538 1071.00
31.419 1210.00
31.4842 1258.00
31.5494 1367.00
31.6146 1495.00
31.6798 1484.00
31.745 1293.00
31.8102 1114.00
31.8754 1056.00
31.9406 1042.00
32.0058 1069.00
32.071 1192.00
32.1362 1253.00
32.2014 1557.00
32.2666 2270.00
32.3318 2403.00
32.397 1647.00
32.4622 1140.00
32.5274 1023.00
32.5926 949.00
32.6578 935.00
32.723 975.00
32.7882 965.00
32.8534 914.00
32.9186 981.00
32.9838 1003.00
33.0489 978.00
33.1141 973.00
33.1793 1005.00
33.2445 1027.00
33.3097 1075.00
33.3749 1047.00
33.4401 1166.00
33.5053 1210.00
33.5705 1453.00
33.6357 1517.00
33.7009 1453.00
33.7661 1230.00
33.8313 1194.00
33.8965 1268.00
33.9617 1283.00
34.0269 1317.00
34.0921 1344.00
34.1573 1479.00
34.2225 1384.00
34.2877 1250.00
34.3529 1150.00
34.4181 1199.00
34.4833 1114.00
34.5485 1088.00
34.6137 1049.00
34.6789 990.00
34.7441 950.00
34.8093 978.00
34.8745 956.00
34.9397 956.00
35.0049 933.00
35.0701 866.00
35.1353 912.00
35.2005 912.00
35.2657 973.00
35.3309 962.00
35.3961 1024.00
35.4613 1031.00
35.5265 989.00
35.5917 983.00
35.6569 848.00
35.7221 879.00
35.7873 943.00
35.8525 857.00
35.9177 866.00
35.9829 831.00
36.0481 817.00
36.1133 858.00
36.1785 952.00
36.2437 994.00
36.3089 1067.00
36.3741 1258.00
36.4393 1362.00
36.5045 1289.00
36.5697 1116.00
36.6349 998.00
36.7001 958.00
36.7653 1068.00
36.8305 1177.00
36.8957 1296.00
36.9609 1186.00
37.0261 1161.00
37.0913 956.00
37.1565 936.00
37.2217 966.00
37.2869 1062.00
37.3521 1452.00
37.4173 1675.00
37.4825 1772.00
37.5477 1324.00
37.6129 1113.00
37.6781 972.00
37.7433 1010.00
37.8085 1016.00
37.8736 1120.00
37.9388 1305.00
38.004 1562.00
38.0692 1882.00
38.1344 2024.00
38.1996 1678.00
38.2648 1374.00
38.33 1206.00
38.3952 1244.00
38.4604 1253.00
38.5256 1459.00
38.5908 1507.00
38.656 1435.00
38.7212 1313.00
38.7864 1085.00
38.8516 945.00
38.9168 927.00
38.982 941.00
39.0472 874.00
39.1124 948.00
39.1776 912.00
39.2428 862.00
39.308 801.00
39.3732 859.00
39.4384 944.00
39.5036 1114.00
39.5688 1109.00
39.634 1106.00
39.6992 1077.00
39.7644 1118.00
39.8296 1038.00
39.8948 999.00
39.96 899.00
40.0252 921.00
40.0904 895.00
40.1556 873.00
40.2208 815.00
40.286 812.00
40.3512 798.00
40.4164 835.00
40.4816 828.00
40.5468 735.00
40.612 810.00
40.6772 843.00
40.7424 819.00
40.8076 958.00
40.8728 1214.00
40.938 1260.00
41.0032 1132.00
41.0684 1037.00
41.1336 920.00
41.1988 897.00
41.264 862.00
41.3292 922.00
41.3944 974.00
41.4596 966.00
41.5248 952.00
41.59 820.00
41.6552 806.00
41.7204 807.00
41.7856 797.00
41.8508 705.00
41.916 718.00
41.9812 727.00
42.0464 750.00
42.1116 766.00
42.1768 739.00
42.242 691.00
42.3072 710.00
42.3724 640.00
42.4376 723.00
42.5028 697.00
42.568 751.00
42.6332 722.00
42.6983 749.00
42.7635 759.00
42.8287 835.00
42.8939 823.00
42.9591 773.00
43.0243 773.00
43.0895 811.00
43.1547 800.00
43.2199 921.00
43.2851 1038.00
43.3503 1073.00
43.4155 1047.00
43.4807 905.00
43.5459 922.00
43.6111 869.00
43.6763 869.00
43.7415 846.00
43.8067 824.00
43.8719 798.00
43.9371 886.00
44.0023 1026.00
44.0675 1293.00
44.1327 1666.00
44.1979 1488.00
44.2631 1384.00
44.3283 1067.00
44.3935 814.00
44.4587 867.00
44.5239 898.00
44.5891 1045.00
44.6543 1057.00
44.7195 1139.00
44.7847 1076.00
44.8499 1154.00
44.9151 1026.00
44.9803 1041.00
45.0455 1205.00
45.1107 1462.00
45.1759 1982.00
45.2411 1447.00
45.3063 1386.00
45.3715 978.00
45.4367 820.00
45.5019 751.00
45.5671 703.00
45.6323 704.00
45.6975 792.00
45.7627 865.00
45.8279 880.00
45.8931 929.00
45.9583 1015.00
46.0235 1049.00
46.0887 1060.00
46.1539 1025.00
46.2191 1043.00
46.2843 1026.00
46.3495 937.00
46.4147 838.00
46.4799 773.00
46.5451 741.00
46.6103 677.00
46.6755 783.00
46.7407 790.00
46.8059 888.00
46.8711 959.00
46.9363 1098.00
47.0015 1183.00
47.0667 1190.00
47.1319 1123.00
47.1971 1002.00
47.2623 939.00
47.3275 905.00
47.3927 948.00
47.4579 982.00
47.523 888.00
47.5882 930.00
47.6534 760.00
47.7186 668.00
47.7838 730.00
47.849 624.00
47.9142 680.00
47.9794 618.00
48.0446 655.00
48.1098 697.00
48.175 672.00
48.2402 712.00
48.3054 643.00
48.3706 702.00
48.4358 729.00
48.501 777.00
48.5662 767.00
48.6314 876.00
48.6966 939.00
48.7618 1058.00
48.827 1049.00
48.8922 990.00
48.9574 922.00
49.0226 979.00
49.0878 916.00
49.153 1016.00
49.2182 991.00
49.2834 1063.00
49.3486 972.00
49.4138 922.00
49.479 812.00
49.5442 943.00
49.6094 888.00
49.6746 919.00
49.7398 857.00
49.805 805.00
49.8702 720.00
49.9354 698.00
50.0006 580.00
50.0658 651.00
50.131 692.00
50.1962 740.00
50.2614 658.00
50.3266 701.00
50.3918 714.00
50.457 658.00
50.5222 677.00
50.5874 707.00
50.6526 661.00
50.7178 654.00
50.783 684.00
50.8482 703.00
50.9134 705.00
50.9786 711.00
51.0438 696.00
51.109 760.00
51.1742 748.00
51.2394 755.00
51.3046 740.00
51.3698 756.00
51.435 817.00
51.5002 845.00
51.5654 876.00
51.6306 865.00
51.6958 932.00
51.761 945.00
51.8262 942.00
51.8914 981.00
51.9566 1019.00
52.0218 1136.00
52.087 1030.00
52.1522 1086.00
52.2174 996.00
52.2826 1043.00
52.3477 1035.00
52.4129 1014.00
52.4781 960.00
52.5433 962.00
52.6085 961.00
52.6737 867.00
52.7389 812.00
52.8041 830.00
52.8693 788.00
52.9345 766.00
52.9997 759.00
53.0649 765.00
53.1301 847.00
53.1953 849.00
53.2605 923.00
53.3257 896.00
53.3909 922.00
53.4561 843.00
53.5213 784.00
53.5865 785.00
53.6517 686.00
53.7169 735.00
53.7821 765.00
53.8473 826.00
53.9125 823.00
53.9777 776.00
54.0429 816.00
54.1081 779.00
54.1733 690.00
54.2385 742.00
54.3037 700.00
54.3689 660.00
54.4341 723.00
54.4993 700.00
54.5645 693.00
54.6297 729.00
54.6949 714.00
54.7601 748.00
54.8253 769.00
54.8905 785.00
54.9557 685.00
55.0209 724.00
55.0861 722.00
55.1513 688.00
55.2165 711.00
55.2817 734.00
55.3469 737.00
55.4121 753.00
55.4773 790.00
55.5425 774.00
55.6077 853.00
55.6729 760.00
55.7381 730.00
55.8033 689.00
55.8685 618.00
55.9337 646.00
55.9989 637.00
56.0641 698.00
56.1293 697.00
56.1945 672.00
56.2597 682.00
56.3249 710.00
56.3901 757.00
56.4553 724.00
56.5205 713.00
56.5857 701.00
56.6509 790.00
56.7161 769.00
56.7813 732.00
56.8465 729.00
56.9117 713.00
56.9769 735.00
57.042 660.00
57.1073 708.00
57.1724 717.00
57.2376 791.00
57.3028 818.00
57.368 889.00
57.4332 871.00
57.4984 889.00
57.5636 888.00
57.6288 858.00
57.694 779.00
57.7592 786.00
57.8244 802.00
57.8896 793.00
57.9548 840.00
58.02 818.00
58.0852 844.00
58.1504 887.00
58.2156 885.00
58.2808 833.00
58.346 789.00
58.4112 826.00
58.4764 911.00
58.5416 855.00
58.6068 838.00
58.672 731.00
58.7372 808.00
58.8024 801.00
58.8676 763.00
58.9328 706.00
58.998 666.00
59.0632 694.00
59.1284 649.00
59.1936 648.00
59.2588 650.00
59.324 667.00
59.3892 611.00
59.4544 681.00
59.5196 654.00
59.5848 659.00
59.65 634.00
59.7152 670.00
59.7804 706.00
59.8456 777.00
59.9108 739.00
59.976 715.00
60.0412 736.00
60.1064 672.00
60.1716 621.00
60.2368 651.00
60.302 651.00
60.3672 590.00
60.4324 594.00
60.4976 614.00
60.5628 611.00
60.628 651.00
60.6932 650.00
60.7584 686.00
60.8236 719.00
60.8888 735.00
60.954 755.00
61.0192 872.00
61.0844 833.00
61.1496 821.00
61.2148 800.00
61.28 836.00
61.3452 773.00
61.4104 717.00
61.4756 739.00
61.5408 703.00
61.606 729.00
61.6712 684.00
61.7364 689.00
61.8016 692.00
61.8667 758.00
61.932 716.00
61.9971 720.00
62.0623 736.00
62.1275 741.00
62.1927 822.00
62.2579 794.00
62.3231 771.00
62.3883 781.00
62.4535 805.00
62.5187 847.00
62.5839 835.00
62.6491 754.00
62.7143 905.00
62.7795 947.00
62.8447 793.00
62.9099 838.00
62.9751 828.00
63.0403 669.00
63.1055 725.00
63.1707 734.00
63.2359 714.00
63.3011 649.00
63.3663 733.00
63.4315 690.00
63.4967 751.00
63.5619 664.00
63.6271 702.00
63.6923 710.00
63.7575 707.00
63.8227 635.00
63.8879 641.00
63.9531 710.00
64.0183 721.00
64.0835 717.00
64.1487 690.00
64.2139 614.00
64.2791 685.00
64.3443 570.00
64.4095 640.00
64.4747 684.00
64.5399 609.00
64.6051 657.00
64.6703 696.00
64.7355 732.00
64.8007 891.00
64.8659 831.00
64.9311 720.00
64.9963 810.00
65.0615 753.00
65.1267 721.00
65.1919 692.00
65.2571 683.00
65.3223 696.00
65.3875 644.00
65.4527 616.00
65.5179 641.00
65.5831 605.00
65.6483 640.00
65.7135 636.00
65.7787 673.00
65.8439 723.00
65.9091 639.00
65.9743 600.00
66.0395 616.00
66.1047 697.00
66.1699 708.00
66.2351 615.00
66.3003 651.00
66.3655 653.00
66.4307 655.00
66.4959 669.00
66.561 644.00
66.6263 673.00
66.6915 614.00
66.7566 584.00
66.8218 614.00
66.887 630.00
66.9522 585.00
67.0174 635.00
67.0826 554.00
67.1478 530.00
67.213 572.00
67.2782 576.00
67.3434 635.00
67.4086 613.00
67.4738 624.00
67.539 578.00
67.6042 622.00
67.6694 663.00
67.7346 624.00
67.7998 596.00
67.865 628.00
67.9302 567.00
67.9954 602.00
68.0606 643.00
68.1258 673.00
68.191 554.00
68.2562 540.00
68.3214 584.00
68.3866 558.00
68.4518 568.00
68.517 554.00
68.5822 505.00
68.6474 546.00
68.7126 485.00
68.7778 509.00
68.843 533.00
68.9082 518.00
68.9734 569.00
69.0386 556.00
69.1038 549.00
69.169 498.00
69.2342 553.00
69.2994 566.00
69.3646 499.00
69.4298 571.00
69.495 549.00
69.5602 518.00
69.6254 472.00
69.6906 506.00
69.7558 500.00
69.821 518.00
69.8862 528.00
69.9514 501.00
70.0166 511.00
70.0818 489.00
70.147 500.00
70.2122 489.00
70.2774 506.00
70.3426 487.00
70.4078 485.00
70.473 524.00
70.5382 491.00
70.6034 533.00
70.6686 518.00
70.7338 530.00
70.799 468.00
70.8642 521.00
70.9294 510.00
70.9946 559.00
71.0598 532.00
71.125 549.00
71.1902 599.00
71.2554 603.00
71.3205 610.00
71.3858 602.00
71.451 588.00
71.5162 645.00
71.5813 603.00
71.6465 581.00
71.7117 646.00
71.7769 581.00
71.8421 562.00
71.9073 592.00
71.9725 581.00
72.0377 555.00
72.1029 560.00
72.1681 554.00
72.2333 521.00
72.2985 495.00
72.3637 504.00
72.4289 499.00
72.4941 528.00
72.5593 571.00
72.6245 719.00
72.6897 592.00
72.7549 565.00
72.8201 677.00
72.8853 635.00
72.9505 595.00
73.0157 623.00
73.0809 631.00
73.1461 607.00
73.2113 569.00
73.2765 597.00
73.3417 665.00
73.4069 685.00
73.4721 574.00
73.5373 587.00
73.6025 603.00
73.6677 532.00
73.7329 481.00
73.7981 501.00
73.8633 445.00
73.9285 442.00
73.9937 456.00
74.0589 458.00
74.1241 471.00
74.1893 469.00
74.2545 460.00
74.3197 474.00
74.3849 462.00
74.4501 447.00
74.5153 480.00
74.5805 498.00
74.6457 455.00
74.7109 447.00
74.7761 455.00
74.8413 452.00
74.9065 472.00
74.9717 487.00
75.0369 503.00
75.1021 505.00
75.1673 460.00
75.2325 489.00
75.2977 480.00
75.3629 482.00
75.4281 550.00
75.4933 504.00
75.5585 516.00
75.6237 526.00
75.6889 503.00
75.7541 479.00
75.8193 517.00
75.8845 537.00
75.9497 497.00
76.0149 476.00
76.0801 527.00
76.1452 479.00
76.2104 514.00
76.2756 478.00
76.3409 467.00
76.406 486.00
76.4712 497.00
76.5364 444.00
76.6016 433.00
76.6668 464.00
76.732 460.00
76.7972 497.00
76.8624 460.00
76.9276 488.00
76.9928 453.00
77.058 426.00
77.1232 452.00
77.1884 420.00
77.2536 456.00
77.3188 465.00
77.384 438.00
77.4492 434.00
77.5144 399.00
77.5796 443.00
77.6448 488.00
77.71 446.00
77.7752 449.00
77.8404 477.00
77.9056 508.00
77.9708 426.00
78.036 473.00
78.1012 466.00
78.1664 451.00
78.2316 452.00
78.2968 461.00
78.362 503.00
78.4272 506.00
78.4924 496.00
78.5576 581.00
78.6228 509.00
78.688 497.00
78.7532 535.00
78.8184 541.00
78.8836 571.00
78.9488 566.00
79.014 572.00
79.0792 540.00
79.1444 527.00
79.2096 546.00
79.2748 518.00
79.34 503.00
79.4052 530.00
79.4704 513.00
79.5356 501.00
79.6008 550.00
79.666 626.00
79.7312 662.00
79.7964 587.00
79.8616 499.00
79.9268 603.00
79.992 583.00
80.0572 481.00
80.1224 474.00
80.1876 493.00
80.2528 479.00
80.318 491.00
80.3832 497.00
80.4484 503.00
80.5136 538.00
80.5788 540.00
80.644 496.00
80.7092 510.00
80.7744 569.00
80.8396 578.00
80.9048 522.00
80.9699 515.00
81.0351 543.00
81.1003 505.00
81.1655 492.00
81.2307 515.00
81.2959 499.00
81.3611 511.00
81.4263 504.00
81.4915 496.00
81.5567 442.00
81.6219 513.00
81.6871 479.00
81.7523 440.00
81.8175 484.00
81.8827 476.00
81.9479 490.00
82.0131 489.00
82.0783 496.00
82.1435 462.00
82.2087 503.00
82.2739 462.00
82.3391 482.00
82.4043 446.00
82.4695 470.00
82.5347 473.00
82.5999 473.00
82.6651 461.00
82.7303 490.00
82.7955 471.00
82.8607 423.00
82.9259 465.00
82.9911 457.00
83.0563 450.00
83.1215 441.00
83.1867 437.00
83.2519 449.00
83.3171 444.00
83.3823 463.00
83.4475 479.00
83.5127 503.00
83.5779 498.00
83.6431 538.00
83.7083 515.00
83.7735 482.00
83.8387 485.00
83.9039 528.00
83.9691 520.00
84.0343 522.00
84.0995 481.00
84.1647 490.00
84.2299 499.00
84.2951 457.00
84.3603 499.00
84.4255 469.00
84.4907 457.00
84.5559 459.00
84.6211 487.00
84.6863 445.00
84.7515 436.00
84.8167 413.00
84.8819 428.00
84.9471 458.00
85.0123 447.00
85.0775 466.00
85.1427 446.00
85.2079 515.00
85.2731 466.00
85.3383 474.00
85.4035 489.00
85.4687 433.00
85.5339 424.00
85.5991 493.00
85.6643 460.00
85.7295 428.00
85.7946 452.00
85.8598 454.00
85.925 491.00
85.9903 440.00
86.0554 503.00
86.1206 501.00
86.1858 447.00
86.251 469.00
86.3162 447.00
86.3814 443.00
86.4466 459.00
86.5118 481.00
86.577 466.00
86.6422 464.00
86.7074 436.00
86.7726 427.00
86.8378 432.00
86.903 442.00
86.9682 461.00
87.0334 440.00
87.0986 475.00
87.1638 469.00
87.229 477.00
87.2942 441.00
87.3594 469.00
87.4246 447.00
87.4898 466.00
87.555 438.00
87.6202 501.00
87.6854 464.00
87.7506 477.00
87.8158 454.00
87.881 486.00
87.9462 511.00
88.0114 474.00
88.0766 501.00
88.1418 496.00
88.207 561.00
88.2722 520.00
88.3374 502.00
88.4026 537.00
88.4678 497.00
88.533 539.00
88.5982 477.00
88.6634 508.00
88.7286 483.00
88.7938 476.00
88.859 445.00
88.9242 494.00
88.9894 484.00
89.0546 503.00
89.1198 488.00
89.185 559.00
89.2502 558.00
89.3154 509.00
89.3806 511.00
89.4458 536.00
89.511 598.00
89.5762 619.00
89.6414 611.00
89.7066 568.00
89.7718 551.00
89.837 550.00
89.9022 614.00
89.9674 544.00
90.0326 546.00
90.0978 524.00
90.163 549.00
90.2282 534.00
90.2934 547.00
90.3586 483.00
90.4238 498.00
90.489 506.00
90.5542 484.00
90.6193 476.00
90.6845 473.00
90.7497 511.00
90.8149 467.00
90.8801 496.00
90.9453 453.00
91.0105 481.00
91.0757 560.00
91.1409 536.00
91.2061 464.00
91.2713 542.00
91.3365 510.00
91.4017 486.00
91.4669 516.00
91.5321 464.00
91.5973 486.00
91.6625 503.00
91.7277 522.00
91.7929 493.00
91.8581 431.00
91.9233 448.00
91.9885 463.00
92.0537 455.00
92.1189 385.00
92.1841 472.00
92.2493 449.00
92.3145 477.00
92.3797 466.00
92.4449 479.00
92.5101 474.00
92.5753 456.00
92.6405 438.00
92.7057 478.00
92.7709 463.00
92.8361 435.00
92.9013 497.00
92.9665 431.00
93.0317 432.00
93.0969 438.00
93.1621 482.00
93.2273 482.00
93.2925 476.00
93.3577 446.00
93.4229 481.00
93.4881 476.00
93.5533 432.00
93.6185 462.00
93.6837 413.00
93.7489 408.00
93.8141 433.00
93.8793 413.00
93.9445 428.00
94.0097 450.00
94.0749 473.00
94.1401 418.00
94.2053 443.00
94.2705 384.00
94.3357 463.00
94.4009 426.00
94.4661 469.00
94.5313 461.00
94.5965 422.00
94.6617 452.00
94.7269 437.00
94.7921 454.00
94.8573 427.00
94.9225 479.00
94.9877 442.00
95.0529 431.00
95.1181 476.00
95.1833 471.00
95.2485 470.00
95.3137 483.00
95.3789 498.00
95.444 414.00
95.5092 494.00
95.5744 479.00
95.6396 514.00
95.7048 487.00
95.77 482.00
95.8352 508.00
95.9004 467.00
95.9656 496.00
96.0308 544.00
96.096 543.00
96.1612 481.00
96.2264 495.00
96.2916 482.00
96.3568 524.00
96.422 495.00
96.4872 494.00
96.5524 460.00
96.6176 471.00
96.6828 505.00
96.748 492.00
96.8132 478.00
96.8784 522.00
96.9436 507.00
97.0088 461.00
97.074 470.00
97.1392 456.00
97.2044 422.00
97.2696 469.00
97.3348 469.00
97.4 454.00
97.4652 471.00
97.5304 461.00
97.5956 529.00
97.6608 468.00
97.726 459.00
97.7912 494.00
97.8564 494.00
97.9216 521.00
97.9868 480.00
98.052 438.00
98.1172 458.00
98.1824 461.00
98.2476 420.00
98.3128 419.00
98.378 424.00
98.4432 489.00
98.5084 443.00
98.5736 467.00
98.6388 439.00
98.704 388.00
98.7692 441.00
98.8344 479.00
98.8996 398.00
98.9648 404.00
99.03 387.00
99.0952 430.00
99.1604 425.00
99.2256 407.00
99.2908 410.00
99.356 434.00
99.4212 435.00
99.4864 403.00
99.5516 466.00
99.6168 403.00
99.682 450.00
99.7472 374.00
99.8124 410.00
99.8776 448.00
99.9428 419.00
100.008 475.00
100.073 413.00
100.095 429.00