File: data/xrd_creation/results/Na_60.xy
9.903433 2568.00
9.968632 2703.00
10.0338 2581.00
10.099 2540.00
10.1642 2501.00
10.2294 2549.00
10.2946 2533.00
10.3598 2475.00
10.425 2427.00
10.4902 2492.00
10.5554 2445.00
10.6206 2362.00
10.6858 2379.00
10.751 2358.00
10.8162 2361.00
10.8814 2218.00
10.9466 2287.00
11.0118 2304.00
11.077 2330.00
11.1422 2253.00
11.2074 2192.00
11.2726 2208.00
11.3378 2110.00
11.403 2188.00
11.4682 2211.00
11.5334 2104.00
11.5986 2036.00
11.6638 2097.00
11.729 2004.00
11.7942 2103.00
11.8594 1992.00
11.9246 1990.00
11.9898 1914.00
12.055 1954.00
12.1202 1934.00
12.1854 1875.00
12.2506 1798.00
12.3158 1835.00
12.381 1824.00
12.4462 1851.00
12.5114 1779.00
12.5766 1765.00
12.6418 1855.00
12.707 1756.00
12.7722 1802.00
12.8374 1746.00
12.9026 1717.00
12.9678 1750.00
13.033 1677.00
13.0982 1660.00
13.1634 1752.00
13.2286 1667.00
13.2938 1658.00
13.359 1700.00
13.4242 1602.00
13.4894 1626.00
13.5546 1546.00
13.6198 1605.00
13.685 1574.00
13.7502 1626.00
13.8154 1541.00
13.8805 1545.00
13.9457 1578.00
14.0109 1603.00
14.0761 1525.00
14.1413 1486.00
14.2065 1469.00
14.2717 1495.00
14.3369 1491.00
14.4021 1515.00
14.4673 1506.00
14.5325 1493.00
14.5977 1486.00
14.6629 1465.00
14.7281 1384.00
14.7933 1388.00
14.8585 1506.00
14.9237 1436.00
14.9889 1367.00
15.0541 1439.00
15.1193 1434.00
15.1845 1387.00
15.2497 1411.00
15.3149 1431.00
15.3801 1395.00
15.4453 1434.00
15.5105 1338.00
15.5757 1418.00
15.6409 1430.00
15.7061 1287.00
15.7713 1336.00
15.8365 1365.00
15.9017 1279.00
15.9669 1339.00
16.0321 1391.00
16.0973 1322.00
16.1625 1230.00
16.2277 1309.00
16.2929 1272.00
16.3581 1301.00
16.4233 1320.00
16.4885 1276.00
16.5537 1306.00
16.6189 1353.00
16.6841 1273.00
16.7493 1219.00
16.8145 1278.00
16.8797 1224.00
16.9449 1227.00
17.0101 1245.00
17.0753 1304.00
17.1405 1250.00
17.2057 1227.00
17.2709 1171.00
17.3361 1200.00
17.4013 1225.00
17.4665 1259.00
17.5317 1273.00
17.5969 1203.00
17.6621 1204.00
17.7273 1192.00
17.7925 1205.00
17.8577 1145.00
17.9229 1141.00
17.9881 1145.00
18.0533 1140.00
18.1185 1119.00
18.1837 1169.00
18.2489 1210.00
18.3141 1129.00
18.3793 1156.00
18.4445 1132.00
18.5097 1132.00
18.5749 1073.00
18.6401 1125.00
18.7052 1115.00
18.7704 1121.00
18.8356 1084.00
18.9008 1084.00
18.966 1060.00
19.0312 1067.00
19.0964 1046.00
19.1616 1081.00
19.2268 1071.00
19.292 1096.00
19.3572 1078.00
19.4224 1004.00
19.4876 1090.00
19.5528 1001.00
19.618 1001.00
19.6832 1006.00
19.7484 1065.00
19.8136 1010.00
19.8788 1013.00
19.944 1021.00
20.0092 973.00
20.0744 1027.00
20.1396 990.00
20.2048 1030.00
20.27 983.00
20.3352 1057.00
20.4004 970.00
20.4656 1014.00
20.5308 1041.00
20.596 988.00
20.6612 997.00
20.7264 941.00
20.7916 999.00
20.8568 954.00
20.922 940.00
20.9872 987.00
21.0524 996.00
21.1176 973.00
21.1828 947.00
21.248 978.00
21.3132 919.00
21.3784 992.00
21.4436 985.00
21.5088 933.00
21.574 959.00
21.6392 908.00
21.7044 918.00
21.7696 975.00
21.8348 927.00
21.9 977.00
21.9652 957.00
22.0304 920.00
22.0956 882.00
22.1608 924.00
22.226 938.00
22.2912 975.00
22.3564 920.00
22.4216 961.00
22.4868 912.00
22.552 917.00
22.6172 889.00
22.6824 908.00
22.7476 873.00
22.8128 903.00
22.878 937.00
22.9432 911.00
23.0084 830.00
23.0736 874.00
23.1388 917.00
23.204 830.00
23.2692 841.00
23.3344 832.00
23.3996 881.00
23.4647 777.00
23.5299 836.00
23.5951 872.00
23.6603 881.00
23.7255 890.00
23.7907 866.00
23.8559 887.00
23.9211 873.00
23.9863 879.00
24.0515 877.00
24.1167 891.00
24.1819 834.00
24.2471 838.00
24.3123 845.00
24.3775 852.00
24.4427 826.00
24.5079 798.00
24.5731 860.00
24.6383 779.00
24.7035 771.00
24.7687 822.00
24.8339 823.00
24.8991 813.00
24.9643 829.00
25.0295 759.00
25.0947 834.00
25.1599 825.00
25.2251 784.00
25.2903 794.00
25.3555 807.00
25.4207 810.00
25.4859 786.00
25.5511 815.00
25.6163 837.00
25.6815 769.00
25.7467 778.00
25.8119 751.00
25.8771 825.00
25.9423 788.00
26.0075 762.00
26.0727 768.00
26.1379 739.00
26.2031 744.00
26.2683 757.00
26.3335 796.00
26.3987 809.00
26.4639 832.00
26.5291 818.00
26.5943 714.00
26.6595 724.00
26.7247 724.00
26.7899 693.00
26.8551 704.00
26.9203 771.00
26.9855 700.00
27.0507 780.00
27.1159 730.00
27.1811 706.00
27.2463 721.00
27.3115 744.00
27.3767 717.00
27.4419 737.00
27.5071 766.00
27.5723 763.00
27.6375 721.00
27.7027 712.00
27.7679 802.00
27.8331 767.00
27.8983 758.00
27.9635 856.00
28.0287 890.00
28.0939 850.00
28.1591 795.00
28.2243 779.00
28.2894 781.00
28.3546 856.00
28.4198 791.00
28.485 762.00
28.5502 764.00
28.6154 688.00
28.6806 697.00
28.7458 773.00
28.811 730.00
28.8762 770.00
28.9414 798.00
29.0066 832.00
29.0718 803.00
29.137 779.00
29.2022 746.00
29.2674 735.00
29.3326 685.00
29.3978 713.00
29.463 693.00
29.5282 691.00
29.5934 621.00
29.6586 711.00
29.7238 717.00
29.789 672.00
29.8542 697.00
29.9194 728.00
29.9846 665.00
30.0498 657.00
30.115 730.00
30.1802 662.00
30.2454 768.00
30.3106 760.00
30.3758 842.00
30.441 889.00
30.5062 795.00
30.5714 724.00
30.6366 721.00
30.7018 668.00
30.767 641.00
30.8322 646.00
30.8974 670.00
30.9626 676.00
31.0278 622.00
31.093 614.00
31.1582 643.00
31.2234 718.00
31.2886 716.00
31.3538 752.00
31.419 681.00
31.4842 587.00
31.5494 620.00
31.6146 640.00
31.6798 675.00
31.745 656.00
31.8102 631.00
31.8754 628.00
31.9406 615.00
32.0058 645.00
32.071 652.00
32.1362 611.00
32.2014 648.00
32.2666 621.00
32.3318 570.00
32.397 615.00
32.4622 589.00
32.5274 566.00
32.5926 617.00
32.6578 605.00
32.723 637.00
32.7882 632.00
32.8534 625.00
32.9186 627.00
32.9838 596.00
33.0489 598.00
33.1141 564.00
33.1793 555.00
33.2445 573.00
33.3097 574.00
33.3749 560.00
33.4401 576.00
33.5053 627.00
33.5705 564.00
33.6357 615.00
33.7009 608.00
33.7661 587.00
33.8313 583.00
33.8965 609.00
33.9617 588.00
34.0269 552.00
34.0921 535.00
34.1573 553.00
34.2225 546.00
34.2877 568.00
34.3529 514.00
34.4181 534.00
34.4833 505.00
34.5485 518.00
34.6137 494.00
34.6789 527.00
34.7441 470.00
34.8093 529.00
34.8745 558.00
34.9397 563.00
35.0049 527.00
35.0701 524.00
35.1353 556.00
35.2005 574.00
35.2657 548.00
35.3309 502.00
35.3961 552.00
35.4613 506.00
35.5265 516.00
35.5917 500.00
35.6569 471.00
35.7221 496.00
35.7873 464.00
35.8525 471.00
35.9177 447.00
35.9829 490.00
36.0481 497.00
36.1133 479.00
36.1785 466.00
36.2437 503.00
36.3089 462.00
36.3741 493.00
36.4393 419.00
36.5045 471.00
36.5697 444.00
36.6349 454.00
36.7001 442.00
36.7653 509.00
36.8305 533.00
36.8957 482.00
36.9609 563.00
37.0261 465.00
37.0913 524.00
37.1565 558.00
37.2217 513.00
37.2869 494.00
37.3521 467.00
37.4173 450.00
37.4825 445.00
37.5477 450.00
37.6129 480.00
37.6781 436.00
37.7433 483.00
37.8085 486.00
37.8736 466.00
37.9388 454.00
38.004 470.00
38.0692 453.00
38.1344 490.00
38.1996 436.00
38.2648 489.00
38.33 474.00
38.3952 452.00
38.4604 465.00
38.5256 475.00
38.5908 422.00
38.656 409.00
38.7212 435.00
38.7864 428.00
38.8516 426.00
38.9168 434.00
38.982 423.00
39.0472 435.00
39.1124 381.00
39.1776 427.00
39.2428 428.00
39.308 397.00
39.3732 381.00
39.4384 380.00
39.5036 433.00
39.5688 420.00
39.634 420.00
39.6992 420.00
39.7644 433.00
39.8296 419.00
39.8948 411.00
39.96 450.00
40.0252 436.00
40.0904 392.00
40.1556 451.00
40.2208 431.00
40.286 398.00
40.3512 416.00
40.4164 412.00
40.4816 423.00
40.5468 402.00
40.612 416.00
40.6772 404.00
40.7424 404.00
40.8076 423.00
40.8728 383.00
40.938 386.00
41.0032 415.00
41.0684 400.00
41.1336 408.00
41.1988 388.00
41.264 400.00
41.3292 405.00
41.3944 426.00
41.4596 451.00
41.5248 402.00
41.59 388.00
41.6552 420.00
41.7204 400.00
41.7856 447.00
41.8508 445.00
41.916 426.00
41.9812 369.00
42.0464 399.00
42.1116 377.00
42.1768 429.00
42.242 394.00
42.3072 426.00
42.3724 384.00
42.4376 439.00
42.5028 402.00
42.568 416.00
42.6332 403.00
42.6983 382.00
42.7635 414.00
42.8287 408.00
42.8939 384.00
42.9591 411.00
43.0243 405.00
43.0895 439.00
43.1547 441.00
43.2199 435.00
43.2851 460.00
43.3503 426.00
43.4155 402.00
43.4807 407.00
43.5459 396.00
43.6111 375.00
43.6763 366.00
43.7415 389.00
43.8067 364.00
43.8719 371.00
43.9371 374.00
44.0023 368.00
44.0675 345.00
44.1327 393.00
44.1979 333.00
44.2631 337.00
44.3283 362.00
44.3935 406.00
44.4587 373.00
44.5239 379.00
44.5891 348.00
44.6543 364.00
44.7195 375.00
44.7847 368.00
44.8499 338.00
44.9151 363.00
44.9803 335.00
45.0455 395.00
45.1107 366.00
45.1759 396.00
45.2411 336.00
45.3063 365.00
45.3715 339.00
45.4367 338.00
45.5019 372.00
45.5671 346.00
45.6323 352.00
45.6975 345.00
45.7627 370.00
45.8279 366.00
45.8931 337.00
45.9583 374.00
46.0235 310.00
46.0887 368.00
46.1539 329.00
46.2191 370.00
46.2843 327.00
46.3495 317.00
46.4147 365.00
46.4799 373.00
46.5451 341.00
46.6103 358.00
46.6755 347.00
46.7407 351.00
46.8059 334.00
46.8711 334.00
46.9363 346.00
47.0015 324.00
47.0667 330.00
47.1319 367.00
47.1971 347.00
47.2623 332.00
47.3275 320.00
47.3927 336.00
47.4579 370.00
47.523 313.00
47.5882 344.00
47.6534 340.00
47.7186 336.00
47.7838 322.00
47.849 344.00
47.9142 359.00
47.9794 344.00
48.0446 359.00
48.1098 295.00
48.175 332.00
48.2402 331.00
48.3054 332.00
48.3706 370.00
48.4358 372.00
48.501 350.00
48.5662 344.00
48.6314 359.00
48.6966 375.00
48.7618 337.00
48.827 345.00
48.8922 336.00
48.9574 304.00
49.0226 337.00
49.0878 347.00
49.153 334.00
49.2182 313.00
49.2834 325.00
49.3486 356.00
49.4138 362.00
49.479 341.00
49.5442 316.00
49.6094 347.00
49.6746 313.00
49.7398 323.00
49.805 338.00
49.8702 292.00
49.9354 372.00
50.0006 350.00
50.0658 332.00
50.131 327.00
50.1962 341.00
50.2614 298.00
50.3266 341.00
50.3918 367.00
50.457 329.00
50.5222 317.00
50.5874 296.00
50.6526 352.00
50.7178 329.00
50.783 362.00
50.8482 420.00
50.9134 321.00
50.9786 345.00
51.0438 360.00
51.109 283.00
51.1742 296.00
51.2394 323.00
51.3046 338.00
51.3698 333.00
51.435 313.00
51.5002 283.00
51.5654 342.00
51.6306 344.00
51.6958 351.00
51.761 321.00
51.8262 315.00
51.8914 311.00
51.9566 309.00
52.0218 287.00
52.087 281.00
52.1522 309.00
52.2174 295.00
52.2826 297.00
52.3477 301.00
52.4129 311.00
52.4781 337.00
52.5433 302.00
52.6085 326.00
52.6737 294.00
52.7389 295.00
52.8041 311.00
52.8693 307.00
52.9345 302.00
52.9997 312.00
53.0649 314.00
53.1301 305.00
53.1953 314.00
53.2605 265.00
53.3257 302.00
53.3909 331.00
53.4561 339.00
53.5213 308.00
53.5865 322.00
53.6517 282.00
53.7169 319.00
53.7821 304.00
53.8473 362.00
53.9125 331.00
53.9777 284.00
54.0429 337.00
54.1081 278.00
54.1733 305.00
54.2385 291.00
54.3037 256.00
54.3689 317.00
54.4341 304.00
54.4993 285.00
54.5645 284.00
54.6297 326.00
54.6949 276.00
54.7601 307.00
54.8253 285.00
54.8905 283.00
54.9557 296.00
55.0209 292.00
55.0861 290.00
55.1513 327.00
55.2165 293.00
55.2817 273.00
55.3469 275.00
55.4121 297.00
55.4773 302.00
55.5425 290.00
55.6077 285.00
55.6729 285.00
55.7381 318.00
55.8033 267.00
55.8685 261.00
55.9337 277.00
55.9989 284.00
56.0641 305.00
56.1293 262.00
56.1945 295.00
56.2597 261.00
56.3249 300.00
56.3901 247.00
56.4553 292.00
56.5205 281.00
56.5857 280.00
56.6509 276.00
56.7161 271.00
56.7813 280.00
56.8465 228.00
56.9117 259.00
56.9769 302.00
57.042 287.00
57.1073 257.00
57.1724 310.00
57.2376 291.00
57.3028 322.00
57.368 267.00
57.4332 302.00
57.4984 305.00
57.5636 298.00
57.6288 319.00
57.694 291.00
57.7592 262.00
57.8244 301.00
57.8896 269.00
57.9548 248.00
58.02 282.00
58.0852 268.00
58.1504 292.00
58.2156 282.00
58.2808 257.00
58.346 265.00
58.4112 306.00
58.4764 258.00
58.5416 274.00
58.6068 271.00
58.672 260.00
58.7372 267.00
58.8024 293.00
58.8676 283.00
58.9328 258.00
58.998 284.00
59.0632 260.00
59.1284 285.00
59.1936 269.00
59.2588 258.00
59.324 248.00
59.3892 273.00
59.4544 244.00
59.5196 248.00
59.5848 273.00
59.65 228.00
59.7152 259.00
59.7804 288.00
59.8456 210.00
59.9108 251.00
59.976 242.00
60.0412 247.00
60.1064 268.00
60.1716 290.00
60.2368 249.00
60.302 268.00
60.3672 284.00
60.4324 280.00
60.4976 316.00
60.5628 269.00
60.628 287.00
60.6932 273.00
60.7584 251.00
60.8236 271.00
60.8888 241.00
60.954 242.00
61.0192 226.00
61.0844 275.00
61.1496 239.00
61.2148 235.00
61.28 232.00
61.3452 227.00
61.4104 289.00
61.4756 282.00
61.5408 289.00
61.606 303.00
61.6712 232.00
61.7364 219.00
61.8016 259.00
61.8667 257.00
61.932 238.00
61.9971 242.00
62.0623 225.00
62.1275 233.00
62.1927 239.00
62.2579 230.00
62.3231 238.00
62.3883 231.00
62.4535 249.00
62.5187 219.00
62.5839 271.00
62.6491 225.00
62.7143 306.00
62.7795 267.00
62.8447 286.00
62.9099 272.00
62.9751 269.00
63.0403 250.00
63.1055 265.00
63.1707 241.00
63.2359 238.00
63.3011 263.00
63.3663 222.00
63.4315 264.00
63.4967 224.00
63.5619 265.00
63.6271 264.00
63.6923 231.00
63.7575 231.00
63.8227 261.00
63.8879 240.00
63.9531 269.00
64.0183 232.00
64.0835 235.00
64.1487 256.00
64.2139 215.00
64.2791 233.00
64.3443 219.00
64.4095 220.00
64.4747 231.00
64.5399 218.00
64.6051 243.00
64.6703 261.00
64.7355 257.00
64.8007 274.00
64.8659 248.00
64.9311 264.00
64.9963 228.00
65.0615 240.00
65.1267 230.00
65.1919 258.00
65.2571 218.00
65.3223 210.00
65.3875 247.00
65.4527 240.00
65.5179 264.00
65.5831 238.00
65.6483 231.00
65.7135 224.00
65.7787 234.00
65.8439 234.00
65.9091 250.00
65.9743 225.00
66.0395 187.00
66.1047 203.00
66.1699 231.00
66.2351 211.00
66.3003 234.00
66.3655 227.00
66.4307 245.00
66.4959 215.00
66.561 231.00
66.6263 228.00
66.6915 219.00
66.7566 256.00
66.8218 222.00
66.887 243.00
66.9522 182.00
67.0174 202.00
67.0826 247.00
67.1478 232.00
67.213 207.00
67.2782 228.00
67.3434 225.00
67.4086 236.00
67.4738 262.00
67.539 232.00
67.6042 224.00
67.6694 209.00
67.7346 280.00
67.7998 250.00
67.865 214.00
67.9302 235.00
67.9954 234.00
68.0606 203.00
68.1258 210.00
68.191 212.00
68.2562 226.00
68.3214 236.00
68.3866 219.00
68.4518 211.00
68.517 229.00
68.5822 218.00
68.6474 211.00
68.7126 220.00
68.7778 180.00
68.843 216.00
68.9082 214.00
68.9734 225.00
69.0386 241.00
69.1038 221.00
69.169 216.00
69.2342 222.00
69.2994 240.00
69.3646 239.00
69.4298 238.00
69.495 222.00
69.5602 225.00
69.6254 216.00
69.6906 226.00
69.7558 270.00
69.821 200.00
69.8862 222.00
69.9514 243.00
70.0166 270.00
70.0818 226.00
70.147 208.00
70.2122 226.00
70.2774 209.00
70.3426 213.00
70.4078 257.00
70.473 221.00
70.5382 248.00
70.6034 245.00
70.6686 240.00
70.7338 247.00
70.799 230.00
70.8642 240.00
70.9294 217.00
70.9946 228.00
71.0598 204.00
71.125 236.00
71.1902 272.00
71.2554 210.00
71.3205 248.00
71.3858 197.00
71.451 241.00
71.5162 234.00
71.5813 242.00
71.6465 225.00
71.7117 215.00
71.7769 212.00
71.8421 223.00
71.9073 230.00
71.9725 210.00
72.0377 224.00
72.1029 214.00
72.1681 261.00
72.2333 230.00
72.2985 276.00
72.3637 230.00
72.4289 208.00
72.4941 259.00
72.5593 260.00
72.6245 203.00
72.6897 223.00
72.7549 196.00
72.8201 242.00
72.8853 206.00
72.9505 227.00
73.0157 213.00
73.0809 228.00
73.1461 215.00
73.2113 220.00
73.2765 234.00
73.3417 232.00
73.4069 215.00
73.4721 240.00
73.5373 270.00
73.6025 220.00
73.6677 258.00
73.7329 237.00
73.7981 224.00
73.8633 220.00
73.9285 233.00
73.9937 229.00
74.0589 231.00
74.1241 229.00
74.1893 260.00
74.2545 264.00
74.3197 219.00
74.3849 241.00
74.4501 219.00
74.5153 237.00
74.5805 234.00
74.6457 226.00
74.7109 276.00
74.7761 229.00
74.8413 235.00
74.9065 241.00
74.9717 222.00
75.0369 218.00
75.1021 262.00
75.1673 215.00
75.2325 268.00
75.2977 232.00
75.3629 246.00
75.4281 260.00
75.4933 223.00
75.5585 223.00
75.6237 216.00
75.6889 226.00
75.7541 243.00
75.8193 225.00
75.8845 246.00
75.9497 238.00
76.0149 246.00
76.0801 246.00
76.1452 214.00
76.2104 220.00
76.2756 257.00
76.3409 235.00
76.406 247.00
76.4712 250.00
76.5364 236.00
76.6016 259.00
76.6668 214.00
76.732 243.00
76.7972 218.00
76.8624 251.00
76.9276 240.00
76.9928 244.00
77.058 240.00
77.1232 248.00
77.1884 244.00
77.2536 244.00
77.3188 266.00
77.384 235.00
77.4492 223.00
77.5144 238.00
77.5796 266.00
77.6448 214.00
77.71 233.00
77.7752 285.00
77.8404 231.00
77.9056 227.00
77.9708 241.00
78.036 246.00
78.1012 235.00
78.1664 257.00
78.2316 250.00
78.2968 228.00
78.362 259.00
78.4272 235.00
78.4924 236.00
78.5576 266.00
78.6228 281.00
78.688 248.00
78.7532 285.00
78.8184 242.00
78.8836 243.00
78.9488 211.00
79.014 241.00
79.0792 272.00
79.1444 244.00
79.2096 235.00
79.2748 246.00
79.34 274.00
79.4052 272.00
79.4704 233.00
79.5356 262.00
79.6008 286.00
79.666 240.00
79.7312 270.00
79.7964 230.00
79.8616 248.00
79.9268 215.00
79.992 285.00
80.0572 265.00
80.1224 216.00
80.1876 269.00
80.2528 249.00
80.318 262.00
80.3832 266.00
80.4484 241.00
80.5136 237.00
80.5788 281.00
80.644 267.00
80.7092 238.00
80.7744 256.00
80.8396 272.00
80.9048 257.00
80.9699 264.00
81.0351 286.00
81.1003 261.00
81.1655 272.00
81.2307 267.00
81.2959 282.00
81.3611 265.00
81.4263 249.00
81.4915 274.00
81.5567 256.00
81.6219 257.00
81.6871 240.00
81.7523 247.00
81.8175 285.00
81.8827 287.00
81.9479 235.00
82.0131 222.00
82.0783 231.00
82.1435 233.00
82.2087 259.00
82.2739 304.00
82.3391 248.00
82.4043 282.00
82.4695 266.00
82.5347 245.00
82.5999 292.00
82.6651 245.00
82.7303 292.00
82.7955 234.00
82.8607 268.00
82.9259 240.00
82.9911 226.00
83.0563 282.00
83.1215 257.00
83.1867 275.00
83.2519 302.00
83.3171 262.00
83.3823 271.00
83.4475 240.00
83.5127 267.00
83.5779 272.00
83.6431 260.00
83.7083 237.00
83.7735 302.00
83.8387 258.00
83.9039 267.00
83.9691 272.00
84.0343 268.00
84.0995 249.00
84.1647 237.00
84.2299 248.00
84.2951 247.00
84.3603 210.00
84.4255 229.00
84.4907 245.00
84.5559 243.00
84.6211 209.00
84.6863 258.00
84.7515 230.00
84.8167 229.00
84.8819 236.00
84.9471 226.00
85.0123 235.00
85.0775 290.00
85.1427 234.00
85.2079 242.00
85.2731 242.00
85.3383 257.00
85.4035 274.00
85.4687 272.00
85.5339 261.00
85.5991 233.00
85.6643 229.00
85.7295 212.00
85.7946 229.00
85.8598 222.00
85.925 248.00
85.9903 249.00
86.0554 244.00
86.1206 236.00
86.1858 241.00
86.251 225.00
86.3162 258.00
86.3814 275.00
86.4466 211.00
86.5118 234.00
86.577 237.00
86.6422 190.00
86.7074 247.00
86.7726 240.00
86.8378 228.00
86.903 247.00
86.9682 217.00
87.0334 244.00
87.0986 224.00
87.1638 240.00
87.229 230.00
87.2942 232.00
87.3594 251.00
87.4246 261.00
87.4898 218.00
87.555 264.00
87.6202 231.00
87.6854 199.00
87.7506 193.00
87.8158 206.00
87.881 261.00
87.9462 217.00
88.0114 214.00
88.0766 244.00
88.1418 227.00
88.207 231.00
88.2722 230.00
88.3374 210.00
88.4026 241.00
88.4678 220.00
88.533 245.00
88.5982 237.00
88.6634 201.00
88.7286 244.00
88.7938 237.00
88.859 212.00
88.9242 210.00
88.9894 209.00
89.0546 214.00
89.1198 212.00
89.185 214.00
89.2502 210.00
89.3154 234.00
89.3806 223.00
89.4458 228.00
89.511 270.00
89.5762 221.00
89.6414 259.00
89.7066 215.00
89.7718 237.00
89.837 238.00
89.9022 249.00
89.9674 229.00
90.0326 246.00
90.0978 233.00
90.163 204.00
90.2282 232.00
90.2934 223.00
90.3586 211.00
90.4238 207.00
90.489 212.00
90.5542 218.00
90.6193 239.00
90.6845 218.00
90.7497 236.00
90.8149 244.00
90.8801 217.00
90.9453 218.00
91.0105 211.00
91.0757 240.00
91.1409 213.00
91.2061 220.00
91.2713 203.00
91.3365 217.00
91.4017 206.00
91.4669 210.00
91.5321 228.00
91.5973 222.00
91.6625 223.00
91.7277 203.00
91.7929 261.00
91.8581 191.00
91.9233 208.00
91.9885 230.00
92.0537 199.00
92.1189 209.00
92.1841 220.00
92.2493 218.00
92.3145 208.00
92.3797 213.00
92.4449 209.00
92.5101 226.00
92.5753 198.00
92.6405 182.00
92.7057 198.00
92.7709 227.00
92.8361 173.00
92.9013 213.00
92.9665 227.00
93.0317 211.00
93.0969 211.00
93.1621 219.00
93.2273 228.00
93.2925 212.00
93.3577 202.00
93.4229 221.00
93.4881 228.00
93.5533 204.00
93.6185 211.00
93.6837 213.00
93.7489 203.00
93.8141 227.00
93.8793 210.00
93.9445 214.00
94.0097 231.00
94.0749 209.00
94.1401 209.00
94.2053 212.00
94.2705 180.00
94.3357 225.00
94.4009 232.00
94.4661 222.00
94.5313 196.00
94.5965 195.00
94.6617 220.00
94.7269 223.00
94.7921 203.00
94.8573 201.00
94.9225 217.00
94.9877 224.00
95.0529 212.00
95.1181 238.00
95.1833 216.00
95.2485 212.00
95.3137 233.00
95.3789 198.00
95.444 259.00
95.5092 213.00
95.5744 221.00
95.6396 194.00
95.7048 222.00
95.77 216.00
95.8352 197.00
95.9004 250.00
95.9656 216.00
96.0308 234.00
96.096 212.00
96.1612 201.00
96.2264 208.00
96.2916 217.00
96.3568 228.00
96.422 223.00
96.4872 212.00
96.5524 225.00
96.6176 216.00
96.6828 208.00
96.748 211.00
96.8132 227.00
96.8784 203.00
96.9436 212.00
97.0088 206.00
97.074 211.00
97.1392 233.00
97.2044 195.00
97.2696 200.00
97.3348 200.00
97.4 198.00
97.4652 222.00
97.5304 216.00
97.5956 216.00
97.6608 191.00
97.726 203.00
97.7912 222.00
97.8564 202.00
97.9216 223.00
97.9868 215.00
98.052 210.00
98.1172 211.00
98.1824 211.00
98.2476 236.00
98.3128 235.00
98.378 215.00
98.4432 220.00
98.5084 220.00
98.5736 197.00
98.6388 177.00
98.704 171.00
98.7692 210.00
98.8344 228.00
98.8996 210.00
98.9648 223.00
99.03 200.00
99.0952 213.00
99.1604 187.00
99.2256 193.00
99.2908 197.00
99.356 212.00
99.4212 184.00
99.4864 204.00
99.5516 190.00
99.6168 214.00
99.682 196.00
99.7472 193.00
99.8124 197.00
99.8776 214.00
99.9428 232.00
100.008 235.00
100.073 203.00
100.095 194.00