File: data/xrd_creation/results/Na_65.xy
9.903433 2778.00
9.968632 2756.00
10.0338 2663.00
10.099 2819.00
10.1642 2629.00
10.2294 2596.00
10.2946 2533.00
10.3598 2639.00
10.425 2709.00
10.4902 2606.00
10.5554 2540.00
10.6206 2526.00
10.6858 2551.00
10.751 2403.00
10.8162 2507.00
10.8814 2478.00
10.9466 2398.00
11.0118 2372.00
11.077 2364.00
11.1422 2316.00
11.2074 2415.00
11.2726 2387.00
11.3378 2343.00
11.403 2339.00
11.4682 2253.00
11.5334 2256.00
11.5986 2208.00
11.6638 2178.00
11.729 2265.00
11.7942 2183.00
11.8594 2124.00
11.9246 2235.00
11.9898 2153.00
12.055 2251.00
12.1202 2200.00
12.1854 2022.00
12.2506 2117.00
12.3158 2006.00
12.381 2065.00
12.4462 1971.00
12.5114 1958.00
12.5766 1956.00
12.6418 2042.00
12.707 1945.00
12.7722 1982.00
12.8374 2040.00
12.9026 1893.00
12.9678 2020.00
13.033 1956.00
13.0982 1943.00
13.1634 1972.00
13.2286 1882.00
13.2938 1962.00
13.359 1980.00
13.4242 1736.00
13.4894 1848.00
13.5546 1941.00
13.6198 1820.00
13.685 1877.00
13.7502 1843.00
13.8154 1866.00
13.8805 1777.00
13.9457 1775.00
14.0109 1845.00
14.0761 1940.00
14.1413 1818.00
14.2065 1753.00
14.2717 1720.00
14.3369 1770.00
14.4021 1741.00
14.4673 1765.00
14.5325 1686.00
14.5977 1821.00
14.6629 1749.00
14.7281 1730.00
14.7933 1586.00
14.8585 1748.00
14.9237 1734.00
14.9889 1693.00
15.0541 1722.00
15.1193 1703.00
15.1845 1727.00
15.2497 1605.00
15.3149 1606.00
15.3801 1686.00
15.4453 1724.00
15.5105 1698.00
15.5757 1701.00
15.6409 1613.00
15.7061 1614.00
15.7713 1661.00
15.8365 1649.00
15.9017 1699.00
15.9669 1635.00
16.0321 1681.00
16.0973 1623.00
16.1625 1578.00
16.2277 1634.00
16.2929 1671.00
16.3581 1619.00
16.4233 1593.00
16.4885 1592.00
16.5537 1533.00
16.6189 1628.00
16.6841 1598.00
16.7493 1597.00
16.8145 1553.00
16.8797 1506.00
16.9449 1535.00
17.0101 1561.00
17.0753 1617.00
17.1405 1477.00
17.2057 1569.00
17.2709 1524.00
17.3361 1543.00
17.4013 1580.00
17.4665 1480.00
17.5317 1572.00
17.5969 1542.00
17.6621 1503.00
17.7273 1543.00
17.7925 1484.00
17.8577 1504.00
17.9229 1425.00
17.9881 1481.00
18.0533 1487.00
18.1185 1549.00
18.1837 1428.00
18.2489 1444.00
18.3141 1391.00
18.3793 1468.00
18.4445 1456.00
18.5097 1493.00
18.5749 1419.00
18.6401 1498.00
18.7052 1467.00
18.7704 1416.00
18.8356 1415.00
18.9008 1441.00
18.966 1489.00
19.0312 1489.00
19.0964 1454.00
19.1616 1484.00
19.2268 1480.00
19.292 1440.00
19.3572 1382.00
19.4224 1370.00
19.4876 1354.00
19.5528 1374.00
19.618 1407.00
19.6832 1356.00
19.7484 1345.00
19.8136 1391.00
19.8788 1465.00
19.944 1646.00
20.0092 1753.00
20.0744 1906.00
20.1396 2153.00
20.2048 2520.00
20.27 2998.00
20.3352 3339.00
20.4004 3045.00
20.4656 2149.00
20.5308 1567.00
20.596 1385.00
20.6612 1330.00
20.7264 1348.00
20.7916 1330.00
20.8568 1241.00
20.922 1306.00
20.9872 1268.00
21.0524 1250.00
21.1176 1235.00
21.1828 1189.00
21.248 1161.00
21.3132 1202.00
21.3784 1225.00
21.4436 1248.00
21.5088 1284.00
21.574 1251.00
21.6392 1293.00
21.7044 1347.00
21.7696 1270.00
21.8348 1227.00
21.9 1196.00
21.9652 1181.00
22.0304 1203.00
22.0956 1203.00
22.1608 1183.00
22.226 1156.00
22.2912 1144.00
22.3564 1132.00
22.4216 1176.00
22.4868 1145.00
22.552 1138.00
22.6172 1131.00
22.6824 1173.00
22.7476 1168.00
22.8128 1147.00
22.878 1176.00
22.9432 1108.00
23.0084 1093.00
23.0736 1129.00
23.1388 1208.00
23.204 1161.00
23.2692 1209.00
23.3344 1246.00
23.3996 1160.00
23.4647 1142.00
23.5299 1221.00
23.5951 1139.00
23.6603 1077.00
23.7255 1117.00
23.7907 1056.00
23.8559 1068.00
23.9211 1055.00
23.9863 1060.00
24.0515 1072.00
24.1167 1124.00
24.1819 1094.00
24.2471 1098.00
24.3123 1087.00
24.3775 1085.00
24.4427 1088.00
24.5079 1064.00
24.5731 1026.00
24.6383 1005.00
24.7035 1005.00
24.7687 1044.00
24.8339 1042.00
24.8991 1009.00
24.9643 1074.00
25.0295 1062.00
25.0947 1072.00
25.1599 1084.00
25.2251 1032.00
25.2903 1038.00
25.3555 990.00
25.4207 1007.00
25.4859 1047.00
25.5511 1077.00
25.6163 993.00
25.6815 1015.00
25.7467 1028.00
25.8119 1074.00
25.8771 1085.00
25.9423 1158.00
26.0075 1219.00
26.0727 1225.00
26.1379 1272.00
26.2031 1364.00
26.2683 1465.00
26.3335 1603.00
26.3987 2027.00
26.4639 2519.00
26.5291 3379.00
26.5943 4849.00
26.6595 6809.00
26.7247 9235.00
26.7899 11959.00
26.8551 12586.00
26.9203 8728.00
26.9855 4595.00
27.0507 2710.00
27.1159 2018.00
27.1811 1684.00
27.2463 1378.00
27.3115 1375.00
27.3767 1163.00
27.4419 1177.00
27.5071 1134.00
27.5723 1044.00
27.6375 1017.00
27.7027 1033.00
27.7679 1075.00
27.8331 1040.00
27.8983 964.00
27.9635 1001.00
28.0287 975.00
28.0939 913.00
28.1591 933.00
28.2243 925.00
28.2894 955.00
28.3546 948.00
28.4198 932.00
28.485 958.00
28.5502 889.00
28.6154 881.00
28.6806 928.00
28.7458 862.00
28.811 875.00
28.8762 868.00
28.9414 880.00
29.0066 868.00
29.0718 803.00
29.137 835.00
29.2022 863.00
29.2674 821.00
29.3326 817.00
29.3978 840.00
29.463 841.00
29.5282 861.00
29.5934 903.00
29.6586 885.00
29.7238 878.00
29.789 798.00
29.8542 821.00
29.9194 848.00
29.9846 859.00
30.0498 800.00
30.115 855.00
30.1802 875.00
30.2454 868.00
30.3106 845.00
30.3758 814.00
30.441 845.00
30.5062 823.00
30.5714 855.00
30.6366 824.00
30.7018 786.00
30.767 814.00
30.8322 774.00
30.8974 811.00
30.9626 785.00
31.0278 746.00
31.093 795.00
31.1582 743.00
31.2234 771.00
31.2886 784.00
31.3538 804.00
31.419 754.00
31.4842 779.00
31.5494 823.00
31.6146 731.00
31.6798 786.00
31.745 742.00
31.8102 744.00
31.8754 793.00
31.9406 769.00
32.0058 685.00
32.071 709.00
32.1362 748.00
32.2014 821.00
32.2666 792.00
32.3318 818.00
32.397 788.00
32.4622 943.00
32.5274 903.00
32.5926 1009.00
32.6578 1004.00
32.723 1210.00
32.7882 1374.00
32.8534 1697.00
32.9186 2119.00
32.9838 2225.00
33.0489 2014.00
33.1141 1669.00
33.1793 1623.00
33.2445 2120.00
33.3097 2661.00
33.3749 3259.00
33.4401 3188.00
33.5053 2617.00
33.5705 1780.00
33.6357 1543.00
33.7009 1610.00
33.7661 1929.00
33.8313 2507.00
33.8965 3690.00
33.9617 5547.00
34.0269 8421.00
34.0921 11072.00
34.1573 10844.00
34.2225 7418.00
34.2877 3791.00
34.3529 2212.00
34.4181 1682.00
34.4833 1303.00
34.5485 1201.00
34.6137 1029.00
34.6789 922.00
34.7441 904.00
34.8093 921.00
34.8745 951.00
34.9397 872.00
35.0049 839.00
35.0701 825.00
35.1353 774.00
35.2005 791.00
35.2657 792.00
35.3309 818.00
35.3961 863.00
35.4613 827.00
35.5265 811.00
35.5917 811.00
35.6569 859.00
35.7221 866.00
35.7873 840.00
35.8525 734.00
35.9177 803.00
35.9829 770.00
36.0481 742.00
36.1133 760.00
36.1785 752.00
36.2437 658.00
36.3089 654.00
36.3741 660.00
36.4393 633.00
36.5045 667.00
36.5697 644.00
36.6349 667.00
36.7001 645.00
36.7653 683.00
36.8305 761.00
36.8957 696.00
36.9609 716.00
37.0261 827.00
37.0913 770.00
37.1565 775.00
37.2217 722.00
37.2869 768.00
37.3521 751.00
37.4173 768.00
37.4825 808.00
37.5477 842.00
37.6129 816.00
37.6781 807.00
37.7433 811.00
37.8085 893.00
37.8736 985.00
37.9388 1167.00
38.004 1547.00
38.0692 2186.00
38.1344 3158.00
38.1996 3644.00
38.2648 2996.00
38.33 2085.00
38.3952 1288.00
38.4604 1033.00
38.5256 1014.00
38.5908 1011.00
38.656 1186.00
38.7212 1183.00
38.7864 1097.00
38.8516 994.00
38.9168 838.00
38.982 871.00
39.0472 922.00
39.1124 988.00
39.1776 1281.00
39.2428 1361.00
39.308 1052.00
39.3732 951.00
39.4384 768.00
39.5036 726.00
39.5688 697.00
39.634 614.00
39.6992 631.00
39.7644 595.00
39.8296 585.00
39.8948 553.00
39.96 608.00
40.0252 567.00
40.0904 509.00
40.1556 551.00
40.2208 580.00
40.286 629.00
40.3512 593.00
40.4164 549.00
40.4816 587.00
40.5468 613.00
40.612 555.00
40.6772 529.00
40.7424 557.00
40.8076 485.00
40.8728 526.00
40.938 533.00
41.0032 556.00
41.0684 546.00
41.1336 561.00
41.1988 539.00
41.264 505.00
41.3292 552.00
41.3944 496.00
41.4596 578.00
41.5248 529.00
41.59 573.00
41.6552 539.00
41.7204 532.00
41.7856 576.00
41.8508 497.00
41.916 512.00
41.9812 496.00
42.0464 540.00
42.1116 535.00
42.1768 533.00
42.242 563.00
42.3072 537.00
42.3724 545.00
42.4376 542.00
42.5028 502.00
42.568 525.00
42.6332 582.00
42.6983 618.00
42.7635 674.00
42.8287 746.00
42.8939 748.00
42.9591 681.00
43.0243 627.00
43.0895 530.00
43.1547 535.00
43.2199 535.00
43.2851 496.00
43.3503 521.00
43.4155 519.00
43.4807 533.00
43.5459 598.00
43.6111 633.00
43.6763 683.00
43.7415 663.00
43.8067 754.00
43.8719 773.00
43.9371 706.00
44.0023 652.00
44.0675 560.00
44.1327 525.00
44.1979 535.00
44.2631 538.00
44.3283 505.00
44.3935 512.00
44.4587 516.00
44.5239 510.00
44.5891 492.00
44.6543 491.00
44.7195 489.00
44.7847 495.00
44.8499 503.00
44.9151 586.00
44.9803 588.00
45.0455 568.00
45.1107 556.00
45.1759 620.00
45.2411 571.00
45.3063 567.00
45.3715 515.00
45.4367 489.00
45.5019 517.00
45.5671 480.00
45.6323 448.00
45.6975 480.00
45.7627 469.00
45.8279 470.00
45.8931 514.00
45.9583 516.00
46.0235 503.00
46.0887 517.00
46.1539 458.00
46.2191 487.00
46.2843 480.00
46.3495 416.00
46.4147 473.00
46.4799 455.00
46.5451 480.00
46.6103 518.00
46.6755 482.00
46.7407 483.00
46.8059 506.00
46.8711 464.00
46.9363 434.00
47.0015 456.00
47.0667 505.00
47.1319 504.00
47.1971 542.00
47.2623 599.00
47.3275 641.00
47.3927 734.00
47.4579 929.00
47.523 970.00
47.5882 850.00
47.6534 716.00
47.7186 575.00
47.7838 601.00
47.849 531.00
47.9142 530.00
47.9794 489.00
48.0446 545.00
48.1098 492.00
48.175 520.00
48.2402 498.00
48.3054 473.00
48.3706 426.00
48.4358 399.00
48.501 454.00
48.5662 444.00
48.6314 453.00
48.6966 450.00
48.7618 463.00
48.827 477.00
48.8922 481.00
48.9574 438.00
49.0226 442.00
49.0878 435.00
49.153 483.00
49.2182 456.00
49.2834 453.00
49.3486 441.00
49.4138 455.00
49.479 446.00
49.5442 412.00
49.6094 455.00
49.6746 390.00
49.7398 385.00
49.805 413.00
49.8702 441.00
49.9354 416.00
50.0006 428.00
50.0658 422.00
50.131 457.00
50.1962 483.00
50.2614 470.00
50.3266 438.00
50.3918 458.00
50.457 468.00
50.5222 496.00
50.5874 511.00
50.6526 472.00
50.7178 491.00
50.783 467.00
50.8482 511.00
50.9134 484.00
50.9786 517.00
51.0438 478.00
51.109 505.00
51.1742 537.00
51.2394 542.00
51.3046 593.00
51.3698 571.00
51.435 699.00
51.5002 782.00
51.5654 928.00
51.6306 1098.00
51.6958 1433.00
51.761 2147.00
51.8262 3477.00
51.8914 5788.00
51.9566 8811.00
52.0218 9567.00
52.087 7053.00
52.1522 5516.00
52.2174 3378.00
52.2826 1947.00
52.3477 1366.00
52.4129 1081.00
52.4781 898.00
52.5433 778.00
52.6085 721.00
52.6737 628.00
52.7389 650.00
52.8041 543.00
52.8693 563.00
52.9345 534.00
52.9997 490.00
53.0649 478.00
53.1301 505.00
53.1953 549.00
53.2605 531.00
53.3257 492.00
53.3909 464.00
53.4561 456.00
53.5213 454.00
53.5865 466.00
53.6517 431.00
53.7169 508.00
53.7821 502.00
53.8473 497.00
53.9125 521.00
53.9777 472.00
54.0429 533.00
54.1081 461.00
54.1733 470.00
54.2385 472.00
54.3037 527.00
54.3689 497.00
54.4341 513.00
54.4993 554.00
54.5645 589.00
54.6297 667.00
54.6949 794.00
54.7601 977.00
54.8253 1327.00
54.8905 1975.00
54.9557 2514.00
55.0209 2414.00
55.0861 1911.00
55.1513 1495.00
55.2165 1022.00
55.2817 756.00
55.3469 604.00
55.4121 558.00
55.4773 579.00
55.5425 529.00
55.6077 458.00
55.6729 471.00
55.7381 458.00
55.8033 414.00
55.8685 460.00
55.9337 492.00
55.9989 489.00
56.0641 481.00
56.1293 483.00
56.1945 522.00
56.2597 462.00
56.3249 450.00
56.3901 443.00
56.4553 400.00
56.5205 470.00
56.5857 425.00
56.6509 441.00
56.7161 436.00
56.7813 449.00
56.8465 465.00
56.9117 455.00
56.9769 477.00
57.042 424.00
57.1073 458.00
57.1724 456.00
57.2376 418.00
57.3028 408.00
57.368 474.00
57.4332 444.00
57.4984 397.00
57.5636 509.00
57.6288 524.00
57.694 591.00
57.7592 578.00
57.8244 680.00
57.8896 834.00
57.9548 1060.00
58.02 1306.00
58.0852 1281.00
58.1504 1105.00
58.2156 990.00
58.2808 719.00
58.346 614.00
58.4112 587.00
58.4764 500.00
58.5416 459.00
58.6068 440.00
58.672 447.00
58.7372 438.00
58.8024 367.00
58.8676 449.00
58.9328 530.00
58.998 552.00
59.0632 544.00
59.1284 615.00
59.1936 681.00
59.2588 736.00
59.324 683.00
59.3892 698.00
59.4544 714.00
59.5196 667.00
59.5848 663.00
59.65 570.00
59.7152 586.00
59.7804 579.00
59.8456 550.00
59.9108 561.00
59.976 476.00
60.0412 513.00
60.1064 433.00
60.1716 444.00
60.2368 414.00
60.302 380.00
60.3672 474.00
60.4324 360.00
60.4976 390.00
60.5628 422.00
60.628 389.00
60.6932 402.00
60.7584 379.00
60.8236 408.00
60.8888 358.00
60.954 415.00
61.0192 388.00
61.0844 388.00
61.1496 438.00
61.2148 424.00
61.28 425.00
61.3452 386.00
61.4104 412.00
61.4756 424.00
61.5408 478.00
61.606 458.00
61.6712 481.00
61.7364 554.00
61.8016 596.00
61.8667 794.00
61.932 1063.00
61.9971 1558.00
62.0623 2031.00
62.1275 2203.00
62.1927 1629.00
62.2579 1469.00
62.3231 1119.00
62.3883 833.00
62.4535 613.00
62.5187 563.00
62.5839 499.00
62.6491 466.00
62.7143 478.00
62.7795 506.00
62.8447 506.00
62.9099 543.00
62.9751 558.00
63.0403 553.00
63.1055 589.00
63.1707 555.00
63.2359 499.00
63.3011 444.00
63.3663 482.00
63.4315 430.00
63.4967 404.00
63.5619 384.00
63.6271 375.00
63.6923 375.00
63.7575 398.00
63.8227 398.00
63.8879 433.00
63.9531 403.00
64.0183 377.00
64.0835 399.00
64.1487 396.00
64.2139 430.00
64.2791 413.00
64.3443 424.00
64.4095 504.00
64.4747 475.00
64.5399 524.00
64.6051 582.00
64.6703 713.00
64.7355 920.00
64.8007 1226.00
64.8659 1770.00
64.9311 2252.00
64.9963 1970.00
65.0615 1629.00
65.1267 1523.00
65.1919 1138.00
65.2571 849.00
65.3223 710.00
65.3875 780.00
65.4527 684.00
65.5179 692.00
65.5831 705.00
65.6483 727.00
65.7135 709.00
65.7787 736.00
65.8439 767.00
65.9091 875.00
65.9743 1096.00
66.0395 1499.00
66.1047 2239.00
66.1699 2644.00
66.2351 2290.00
66.3003 1927.00
66.3655 1708.00
66.4307 1247.00
66.4959 796.00
66.561 646.00
66.6263 548.00
66.6915 474.00
66.7566 409.00
66.8218 449.00
66.887 399.00
66.9522 387.00
67.0174 375.00
67.0826 377.00
67.1478 386.00
67.213 358.00
67.2782 357.00
67.3434 343.00
67.4086 370.00
67.4738 364.00
67.539 372.00
67.6042 341.00
67.6694 354.00
67.7346 367.00
67.7998 353.00
67.865 276.00
67.9302 341.00
67.9954 312.00
68.0606 323.00
68.1258 322.00
68.191 327.00
68.2562 312.00
68.3214 341.00
68.3866 343.00
68.4518 348.00
68.517 318.00
68.5822 350.00
68.6474 299.00
68.7126 344.00
68.7778 331.00
68.843 319.00
68.9082 325.00
68.9734 306.00
69.0386 281.00
69.1038 281.00
69.169 314.00
69.2342 308.00
69.2994 328.00
69.3646 332.00
69.4298 382.00
69.495 366.00
69.5602 402.00
69.6254 383.00
69.6906 411.00
69.7558 419.00
69.821 464.00
69.8862 470.00
69.9514 459.00
70.0166 440.00
70.0818 436.00
70.147 419.00
70.2122 391.00
70.2774 463.00
70.3426 434.00
70.4078 382.00
70.473 350.00
70.5382 343.00
70.6034 339.00
70.6686 361.00
70.7338 330.00
70.799 367.00
70.8642 339.00
70.9294 360.00
70.9946 340.00
71.0598 407.00
71.125 417.00
71.1902 461.00
71.2554 551.00
71.3205 684.00
71.3858 938.00
71.451 1226.00
71.5162 1172.00
71.5813 954.00
71.6465 915.00
71.7117 817.00
71.7769 572.00
71.8421 450.00
71.9073 416.00
71.9725 396.00
72.0377 354.00
72.1029 360.00
72.1681 322.00
72.2333 359.00
72.2985 346.00
72.3637 342.00
72.4289 332.00
72.4941 345.00
72.5593 305.00
72.6245 299.00
72.6897 298.00
72.7549 326.00
72.8201 356.00
72.8853 358.00
72.9505 351.00
73.0157 341.00
73.0809 346.00
73.1461 326.00
73.2113 368.00
73.2765 339.00
73.3417 318.00
73.4069 357.00
73.4721 346.00
73.5373 304.00
73.6025 288.00
73.6677 289.00
73.7329 333.00
73.7981 295.00
73.8633 307.00
73.9285 294.00
73.9937 344.00
74.0589 320.00
74.1241 302.00
74.1893 304.00
74.2545 309.00
74.3197 294.00
74.3849 297.00
74.4501 335.00
74.5153 329.00
74.5805 343.00
74.6457 350.00
74.7109 320.00
74.7761 310.00
74.8413 359.00
74.9065 328.00
74.9717 338.00
75.0369 307.00
75.1021 291.00
75.1673 293.00
75.2325 343.00
75.2977 347.00
75.3629 326.00
75.4281 343.00
75.4933 326.00
75.5585 334.00
75.6237 337.00
75.6889 312.00
75.7541 309.00
75.8193 331.00
75.8845 308.00
75.9497 291.00
76.0149 304.00
76.0801 309.00
76.1452 313.00
76.2104 329.00
76.2756 302.00
76.3409 343.00
76.406 304.00
76.4712 323.00
76.5364 298.00
76.6016 315.00
76.6668 309.00
76.732 326.00
76.7972 288.00
76.8624 315.00
76.9276 344.00
76.9928 312.00
77.058 349.00
77.1232 305.00
77.1884 322.00
77.2536 267.00
77.3188 293.00
77.384 317.00
77.4492 307.00
77.5144 290.00
77.5796 325.00
77.6448 303.00
77.71 291.00
77.7752 283.00
77.8404 316.00
77.9056 348.00
77.9708 313.00
78.036 293.00
78.1012 293.00
78.1664 339.00
78.2316 315.00
78.2968 344.00
78.362 375.00
78.4272 410.00
78.4924 394.00
78.5576 429.00
78.6228 595.00
78.688 711.00
78.7532 981.00
78.8184 1477.00
78.8836 1774.00
78.9488 1640.00
79.014 1173.00
79.0792 1219.00
79.1444 1081.00
79.2096 897.00
79.2748 661.00
79.34 579.00
79.4052 507.00
79.4704 475.00
79.5356 428.00
79.6008 377.00
79.666 351.00
79.7312 325.00
79.7964 350.00
79.8616 325.00
79.9268 319.00
79.992 302.00
80.0572 298.00
80.1224 310.00
80.1876 289.00
80.2528 316.00
80.318 338.00
80.3832 331.00
80.4484 265.00
80.5136 289.00
80.5788 293.00
80.644 325.00
80.7092 338.00
80.7744 264.00
80.8396 367.00
80.9048 368.00
80.9699 356.00
81.0351 376.00
81.1003 449.00
81.1655 470.00
81.2307 634.00
81.2959 751.00
81.3611 712.00
81.4263 626.00
81.4915 601.00
81.5567 582.00
81.6219 476.00
81.6871 423.00
81.7523 375.00
81.8175 336.00
81.8827 309.00
81.9479 335.00
82.0131 293.00
82.0783 335.00
82.1435 323.00
82.2087 292.00
82.2739 307.00
82.3391 308.00
82.4043 304.00
82.4695 334.00
82.5347 321.00
82.5999 313.00
82.6651 395.00
82.7303 316.00
82.7955 336.00
82.8607 317.00
82.9259 296.00
82.9911 297.00
83.0563 321.00
83.1215 336.00
83.1867 373.00
83.2519 340.00
83.3171 333.00
83.3823 317.00
83.4475 356.00
83.5127 408.00
83.5779 363.00
83.6431 523.00
83.7083 632.00
83.7735 865.00
83.8387 1173.00
83.9039 1335.00
83.9691 1064.00
84.0343 882.00
84.0995 917.00
84.1647 861.00
84.2299 617.00
84.2951 510.00
84.3603 466.00
84.4255 399.00
84.4907 354.00
84.5559 380.00
84.6211 405.00
84.6863 322.00
84.7515 349.00
84.8167 385.00
84.8819 351.00
84.9471 379.00
85.0123 367.00
85.0775 377.00
85.1427 330.00
85.2079 325.00
85.2731 322.00
85.3383 316.00
85.4035 304.00
85.4687 340.00
85.5339 294.00
85.5991 264.00
85.6643 314.00
85.7295 248.00
85.7946 298.00
85.8598 305.00
85.925 311.00
85.9903 297.00
86.0554 266.00
86.1206 276.00
86.1858 298.00
86.251 327.00
86.3162 298.00
86.3814 291.00
86.4466 327.00
86.5118 284.00
86.577 304.00
86.6422 311.00
86.7074 320.00
86.7726 319.00
86.8378 336.00
86.903 326.00
86.9682 322.00
87.0334 343.00
87.0986 361.00
87.1638 409.00
87.229 483.00
87.2942 602.00
87.3594 720.00
87.4246 764.00
87.4898 595.00
87.555 572.00
87.6202 553.00
87.6854 545.00
87.7506 467.00
87.8158 396.00
87.881 338.00
87.9462 348.00
88.0114 328.00
88.0766 306.00
88.1418 295.00
88.207 312.00
88.2722 336.00
88.3374 299.00
88.4026 312.00
88.4678 341.00
88.533 334.00
88.5982 351.00
88.6634 313.00
88.7286 357.00
88.7938 346.00
88.859 302.00
88.9242 314.00
88.9894 315.00
89.0546 332.00
89.1198 329.00
89.185 362.00
89.2502 316.00
89.3154 337.00
89.3806 360.00
89.4458 376.00
89.511 435.00
89.5762 450.00
89.6414 514.00
89.7066 592.00
89.7718 734.00
89.837 1020.00
89.9022 1363.00
89.9674 1411.00
90.0326 1143.00
90.0978 892.00
90.163 977.00
90.2282 922.00
90.2934 846.00
90.3586 633.00
90.4238 533.00
90.489 457.00
90.5542 454.00
90.6193 482.00
90.6845 445.00
90.7497 503.00
90.8149 627.00
90.8801 798.00
90.9453 1060.00
91.0105 1390.00
91.0757 1518.00
91.1409 1162.00
91.2061 1013.00
91.2713 924.00
91.3365 1042.00
91.4017 847.00
91.4669 603.00
91.5321 515.00
91.5973 454.00
91.6625 401.00
91.7277 392.00
91.7929 331.00
91.8581 316.00
91.9233 335.00
91.9885 361.00
92.0537 331.00
92.1189 361.00
92.1841 362.00
92.2493 331.00
92.3145 335.00
92.3797 338.00
92.4449 330.00
92.5101 298.00
92.5753 294.00
92.6405 331.00
92.7057 243.00
92.7709 340.00
92.8361 321.00
92.9013 306.00
92.9665 353.00
93.0317 333.00
93.0969 349.00
93.1621 374.00
93.2273 424.00
93.2925 542.00
93.3577 660.00
93.4229 826.00
93.4881 842.00
93.5533 651.00
93.6185 584.00
93.6837 625.00
93.7489 597.00
93.8141 562.00
93.8793 455.00
93.9445 370.00
94.0097 368.00
94.0749 286.00
94.1401 345.00
94.2053 331.00
94.2705 334.00
94.3357 318.00
94.4009 336.00
94.4661 318.00
94.5313 307.00
94.5965 308.00
94.6617 298.00
94.7269 314.00
94.7921 309.00
94.8573 308.00
94.9225 278.00
94.9877 331.00
95.0529 284.00
95.1181 283.00
95.1833 299.00
95.2485 300.00
95.3137 309.00
95.3789 339.00
95.444 293.00
95.5092 281.00
95.5744 325.00
95.6396 339.00
95.7048 313.00
95.77 338.00
95.8352 337.00
95.9004 404.00
95.9656 463.00
96.0308 607.00
96.096 705.00
96.1612 795.00
96.2264 693.00
96.2916 587.00
96.3568 490.00
96.422 563.00
96.4872 564.00
96.5524 491.00
96.6176 432.00
96.6828 376.00
96.748 334.00
96.8132 315.00
96.8784 313.00
96.9436 330.00
97.0088 311.00
97.074 286.00
97.1392 291.00
97.2044 311.00
97.2696 283.00
97.3348 321.00
97.4 278.00
97.4652 267.00
97.5304 216.00
97.5956 289.00
97.6608 293.00
97.726 288.00
97.7912 296.00
97.8564 305.00
97.9216 319.00
97.9868 332.00
98.052 315.00
98.1172 334.00
98.1824 304.00
98.2476 347.00
98.3128 337.00
98.378 297.00
98.4432 334.00
98.5084 333.00
98.5736 335.00
98.6388 329.00
98.704 326.00
98.7692 324.00
98.8344 331.00
98.8996 325.00
98.9648 313.00
99.03 324.00
99.0952 305.00
99.1604 285.00
99.2256 325.00
99.2908 283.00
99.356 305.00
99.4212 299.00
99.4864 294.00
99.5516 287.00
99.6168 311.00
99.682 279.00
99.7472 283.00
99.8124 312.00
99.8776 274.00
99.9428 257.00
100.008 280.00
100.073 272.00
100.095 266.00