File: data/xrd_creation/results/Na_67.xy
9.903433 2800.00
9.968632 2785.00
10.0338 2774.00
10.099 2798.00
10.1642 2742.00
10.2294 2765.00
10.2946 2707.00
10.3598 2670.00
10.425 2749.00
10.4902 2670.00
10.5554 2733.00
10.6206 2622.00
10.6858 2707.00
10.751 2639.00
10.8162 2580.00
10.8814 2646.00
10.9466 2540.00
11.0118 2562.00
11.077 2606.00
11.1422 2620.00
11.2074 2640.00
11.2726 2556.00
11.3378 2681.00
11.403 2658.00
11.4682 2758.00
11.5334 2673.00
11.5986 2863.00
11.6638 2748.00
11.729 2847.00
11.7942 2673.00
11.8594 2622.00
11.9246 2560.00
11.9898 2464.00
12.055 2467.00
12.1202 2319.00
12.1854 2314.00
12.2506 2348.00
12.3158 2242.00
12.381 2214.00
12.4462 2288.00
12.5114 2161.00
12.5766 2155.00
12.6418 2196.00
12.707 2208.00
12.7722 2139.00
12.8374 2112.00
12.9026 2105.00
12.9678 2111.00
13.033 2134.00
13.0982 2006.00
13.1634 2059.00
13.2286 2107.00
13.2938 2153.00
13.359 2087.00
13.4242 2095.00
13.4894 1981.00
13.5546 2075.00
13.6198 1981.00
13.685 1963.00
13.7502 1956.00
13.8154 1959.00
13.8805 2070.00
13.9457 1948.00
14.0109 1967.00
14.0761 1969.00
14.1413 2005.00
14.2065 1946.00
14.2717 1895.00
14.3369 1910.00
14.4021 1951.00
14.4673 1980.00
14.5325 1937.00
14.5977 1990.00
14.6629 1880.00
14.7281 1842.00
14.7933 1824.00
14.8585 1836.00
14.9237 1880.00
14.9889 1929.00
15.0541 1887.00
15.1193 1856.00
15.1845 1919.00
15.2497 1898.00
15.3149 1884.00
15.3801 1769.00
15.4453 1854.00
15.5105 1853.00
15.5757 1829.00
15.6409 1867.00
15.7061 1800.00
15.7713 1798.00
15.8365 1790.00
15.9017 1813.00
15.9669 1774.00
16.0321 1808.00
16.0973 1802.00
16.1625 1795.00
16.2277 1870.00
16.2929 1969.00
16.3581 1813.00
16.4233 1929.00
16.4885 1975.00
16.5537 1883.00
16.6189 1823.00
16.6841 1773.00
16.7493 1714.00
16.8145 1733.00
16.8797 1812.00
16.9449 1865.00
17.0101 1755.00
17.0753 1712.00
17.1405 1726.00
17.2057 1667.00
17.2709 1672.00
17.3361 1786.00
17.4013 1710.00
17.4665 1634.00
17.5317 1705.00
17.5969 1661.00
17.6621 1661.00
17.7273 1664.00
17.7925 1719.00
17.8577 1576.00
17.9229 1670.00
17.9881 1647.00
18.0533 1706.00
18.1185 1761.00
18.1837 1735.00
18.2489 1564.00
18.3141 1672.00
18.3793 1633.00
18.4445 1779.00
18.5097 1620.00
18.5749 1566.00
18.6401 1556.00
18.7052 1554.00
18.7704 1559.00
18.8356 1568.00
18.9008 1537.00
18.966 1594.00
19.0312 1664.00
19.0964 1652.00
19.1616 1795.00
19.2268 1867.00
19.292 1983.00
19.3572 1764.00
19.4224 1565.00
19.4876 1555.00
19.5528 1595.00
19.618 1557.00
19.6832 1608.00
19.7484 1521.00
19.8136 1540.00
19.8788 1575.00
19.944 1617.00
20.0092 1707.00
20.0744 1920.00
20.1396 2267.00
20.2048 2806.00
20.27 3949.00
20.3352 5571.00
20.4004 6459.00
20.4656 4788.00
20.5308 2839.00
20.596 2008.00
20.6612 1657.00
20.7264 1517.00
20.7916 1512.00
20.8568 1487.00
20.922 1468.00
20.9872 1456.00
21.0524 1450.00
21.1176 1449.00
21.1828 1396.00
21.248 1398.00
21.3132 1379.00
21.3784 1419.00
21.4436 1439.00
21.5088 1454.00
21.574 1455.00
21.6392 1469.00
21.7044 1471.00
21.7696 1348.00
21.8348 1398.00
21.9 1429.00
21.9652 1408.00
22.0304 1375.00
22.0956 1395.00
22.1608 1336.00
22.226 1339.00
22.2912 1352.00
22.3564 1288.00
22.4216 1279.00
22.4868 1268.00
22.552 1317.00
22.6172 1324.00
22.6824 1250.00
22.7476 1371.00
22.8128 1367.00
22.878 1258.00
22.9432 1287.00
23.0084 1298.00
23.0736 1321.00
23.1388 1333.00
23.204 1310.00
23.2692 1333.00
23.3344 1351.00
23.3996 1376.00
23.4647 1512.00
23.5299 1428.00
23.5951 1310.00
23.6603 1318.00
23.7255 1231.00
23.7907 1287.00
23.8559 1249.00
23.9211 1251.00
23.9863 1299.00
24.0515 1327.00
24.1167 1294.00
24.1819 1299.00
24.2471 1371.00
24.3123 1353.00
24.3775 1404.00
24.4427 1451.00
24.5079 1449.00
24.5731 1463.00
24.6383 1551.00
24.7035 1476.00
24.7687 1485.00
24.8339 1518.00
24.8991 1410.00
24.9643 1416.00
25.0295 1393.00
25.0947 1319.00
25.1599 1383.00
25.2251 1383.00
25.2903 1402.00
25.3555 1356.00
25.4207 1344.00
25.4859 1346.00
25.5511 1411.00
25.6163 1403.00
25.6815 1426.00
25.7467 1503.00
25.8119 1517.00
25.8771 1549.00
25.9423 1656.00
26.0075 1776.00
26.0727 1804.00
26.1379 1818.00
26.2031 1882.00
26.2683 1889.00
26.3335 1971.00
26.3987 2153.00
26.4639 2351.00
26.5291 2769.00
26.5943 3473.00
26.6595 4653.00
26.7247 6914.00
26.7899 9795.00
26.8551 14913.00
26.9203 14778.00
26.9855 7864.00
27.0507 4077.00
27.1159 3321.00
27.1811 2881.00
27.2463 2585.00
27.3115 2328.00
27.3767 2148.00
27.4419 1878.00
27.5071 1775.00
27.5723 1716.00
27.6375 1658.00
27.7027 1676.00
27.7679 1684.00
27.8331 1730.00
27.8983 1652.00
27.9635 1652.00
28.0287 1593.00
28.0939 1582.00
28.1591 1572.00
28.2243 1461.00
28.2894 1414.00
28.3546 1357.00
28.4198 1379.00
28.485 1253.00
28.5502 1239.00
28.6154 1204.00
28.6806 1247.00
28.7458 1203.00
28.811 1205.00
28.8762 1200.00
28.9414 1170.00
29.0066 1266.00
29.0718 1198.00
29.137 1223.00
29.2022 1204.00
29.2674 1261.00
29.3326 1222.00
29.3978 1218.00
29.463 1211.00
29.5282 1250.00
29.5934 1403.00
29.6586 1406.00
29.7238 1484.00
29.789 1740.00
29.8542 1769.00
29.9194 1879.00
29.9846 2053.00
30.0498 2336.00
30.115 2528.00
30.1802 2553.00
30.2454 2211.00
30.3106 1741.00
30.3758 1595.00
30.441 1442.00
30.5062 1369.00
30.5714 1309.00
30.6366 1323.00
30.7018 1298.00
30.767 1263.00
30.8322 1262.00
30.8974 1380.00
30.9626 1473.00
31.0278 1245.00
31.093 1221.00
31.1582 1165.00
31.2234 1128.00
31.2886 1078.00
31.3538 1152.00
31.419 1161.00
31.4842 1165.00
31.5494 1239.00
31.6146 1217.00
31.6798 1171.00
31.745 1132.00
31.8102 1142.00
31.8754 1195.00
31.9406 1262.00
32.0058 1158.00
32.071 1162.00
32.1362 1223.00
32.2014 1277.00
32.2666 1402.00
32.3318 1521.00
32.397 1392.00
32.4622 1386.00
32.5274 1368.00
32.5926 1518.00
32.6578 1516.00
32.723 1648.00
32.7882 1890.00
32.8534 2215.00
32.9186 2929.00
32.9838 3861.00
33.0489 3849.00
33.1141 3178.00
33.1793 2592.00
33.2445 2548.00
33.3097 3339.00
33.3749 4437.00
33.4401 5902.00
33.5053 5661.00
33.5705 4364.00
33.6357 3111.00
33.7009 2515.00
33.7661 2362.00
33.8313 2496.00
33.8965 2743.00
33.9617 3401.00
34.0269 4763.00
34.0921 8202.00
34.1573 12916.00
34.2225 9870.00
34.2877 6533.00
34.3529 3505.00
34.4181 3004.00
34.4833 2796.00
34.5485 2566.00
34.6137 2336.00
34.6789 2130.00
34.7441 1931.00
34.8093 1792.00
34.8745 1729.00
34.9397 1606.00
35.0049 1405.00
35.0701 1322.00
35.1353 1369.00
35.2005 1204.00
35.2657 1211.00
35.3309 1230.00
35.3961 1210.00
35.4613 1187.00
35.5265 1159.00
35.5917 1144.00
35.6569 1197.00
35.7221 1242.00
35.7873 1263.00
35.8525 1250.00
35.9177 1212.00
35.9829 1267.00
36.0481 1273.00
36.1133 1294.00
36.1785 1225.00
36.2437 1031.00
36.3089 1005.00
36.3741 1004.00
36.4393 984.00
36.5045 1034.00
36.5697 940.00
36.6349 925.00
36.7001 927.00
36.7653 946.00
36.8305 913.00
36.8957 985.00
36.9609 1080.00
37.0261 1122.00
37.0913 1254.00
37.1565 1191.00
37.2217 1229.00
37.2869 1126.00
37.3521 1130.00
37.4173 1136.00
37.4825 1219.00
37.5477 1267.00
37.6129 1127.00
37.6781 1116.00
37.7433 1123.00
37.8085 1155.00
37.8736 1233.00
37.9388 1212.00
38.004 1411.00
38.0692 1545.00
38.1344 2109.00
38.1996 3280.00
38.2648 3817.00
38.33 2918.00
38.3952 1946.00
38.4604 1440.00
38.5256 1350.00
38.5908 1296.00
38.656 1505.00
38.7212 1754.00
38.7864 1754.00
38.8516 1663.00
38.9168 1370.00
38.982 1211.00
39.0472 1118.00
39.1124 1074.00
39.1776 1251.00
39.2428 1520.00
39.308 1506.00
39.3732 1316.00
39.4384 1097.00
39.5036 974.00
39.5688 970.00
39.634 952.00
39.6992 851.00
39.7644 798.00
39.8296 766.00
39.8948 794.00
39.96 737.00
40.0252 708.00
40.0904 716.00
40.1556 717.00
40.2208 669.00
40.286 681.00
40.3512 801.00
40.4164 774.00
40.4816 735.00
40.5468 758.00
40.612 739.00
40.6772 701.00
40.7424 716.00
40.8076 645.00
40.8728 734.00
40.938 713.00
41.0032 731.00
41.0684 711.00
41.1336 759.00
41.1988 720.00
41.264 711.00
41.3292 763.00
41.3944 711.00
41.4596 748.00
41.5248 686.00
41.59 732.00
41.6552 737.00
41.7204 729.00
41.7856 729.00
41.8508 717.00
41.916 705.00
41.9812 693.00
42.0464 733.00
42.1116 702.00
42.1768 785.00
42.242 697.00
42.3072 816.00
42.3724 779.00
42.4376 809.00
42.5028 791.00
42.568 755.00
42.6332 807.00
42.6983 885.00
42.7635 806.00
42.8287 859.00
42.8939 1035.00
42.9591 1017.00
43.0243 865.00
43.0895 797.00
43.1547 754.00
43.2199 759.00
43.2851 698.00
43.3503 684.00
43.4155 702.00
43.4807 678.00
43.5459 699.00
43.6111 731.00
43.6763 787.00
43.7415 859.00
43.8067 921.00
43.8719 1106.00
43.9371 1141.00
44.0023 964.00
44.0675 914.00
44.1327 904.00
44.1979 866.00
44.2631 778.00
44.3283 722.00
44.3935 707.00
44.4587 694.00
44.5239 651.00
44.5891 609.00
44.6543 638.00
44.7195 692.00
44.7847 685.00
44.8499 657.00
44.9151 750.00
44.9803 847.00
45.0455 812.00
45.1107 864.00
45.1759 1070.00
45.2411 916.00
45.3063 861.00
45.3715 696.00
45.4367 713.00
45.5019 752.00
45.5671 689.00
45.6323 651.00
45.6975 647.00
45.7627 606.00
45.8279 651.00
45.8931 711.00
45.9583 680.00
46.0235 765.00
46.0887 705.00
46.1539 656.00
46.2191 622.00
46.2843 618.00
46.3495 650.00
46.4147 609.00
46.4799 651.00
46.5451 635.00
46.6103 617.00
46.6755 681.00
46.7407 717.00
46.8059 649.00
46.8711 693.00
46.9363 637.00
47.0015 649.00
47.0667 685.00
47.1319 696.00
47.1971 774.00
47.2623 845.00
47.3275 900.00
47.3927 993.00
47.4579 1144.00
47.523 1320.00
47.5882 1487.00
47.6534 1221.00
47.7186 1096.00
47.7838 888.00
47.849 827.00
47.9142 800.00
47.9794 779.00
48.0446 823.00
48.1098 833.00
48.175 798.00
48.2402 800.00
48.3054 744.00
48.3706 638.00
48.4358 667.00
48.501 620.00
48.5662 615.00
48.6314 660.00
48.6966 624.00
48.7618 622.00
48.827 623.00
48.8922 677.00
48.9574 619.00
49.0226 719.00
49.0878 656.00
49.153 637.00
49.2182 647.00
49.2834 656.00
49.3486 669.00
49.4138 634.00
49.479 653.00
49.5442 645.00
49.6094 615.00
49.6746 650.00
49.7398 700.00
49.805 672.00
49.8702 668.00
49.9354 645.00
50.0006 712.00
50.0658 731.00
50.131 767.00
50.1962 729.00
50.2614 762.00
50.3266 715.00
50.3918 681.00
50.457 758.00
50.5222 778.00
50.5874 754.00
50.6526 784.00
50.7178 799.00
50.783 784.00
50.8482 814.00
50.9134 868.00
50.9786 957.00
51.0438 880.00
51.109 919.00
51.1742 840.00
51.2394 845.00
51.3046 917.00
51.3698 943.00
51.435 1054.00
51.5002 1161.00
51.5654 1313.00
51.6306 1462.00
51.6958 1623.00
51.761 1849.00
51.8262 2360.00
51.8914 3029.00
51.9566 4862.00
52.0218 9298.00
52.087 7342.00
52.1522 6169.00
52.2174 4959.00
52.2826 2763.00
52.3477 2267.00
52.4129 2042.00
52.4781 1736.00
52.5433 1591.00
52.6085 1435.00
52.6737 1280.00
52.7389 1079.00
52.8041 1143.00
52.8693 989.00
52.9345 930.00
52.9997 871.00
53.0649 889.00
53.1301 872.00
53.1953 915.00
53.2605 901.00
53.3257 847.00
53.3909 857.00
53.4561 891.00
53.5213 891.00
53.5865 864.00
53.6517 804.00
53.7169 796.00
53.7821 838.00
53.8473 851.00
53.9125 811.00
53.9777 804.00
54.0429 773.00
54.1081 761.00
54.1733 774.00
54.2385 742.00
54.3037 771.00
54.3689 732.00
54.4341 743.00
54.4993 763.00
54.5645 822.00
54.6297 884.00
54.6949 926.00
54.7601 1008.00
54.8253 1072.00
54.8905 1303.00
54.9557 1809.00
55.0209 2932.00
55.0861 1889.00
55.1513 1838.00
55.2165 1402.00
55.2817 946.00
55.3469 935.00
55.4121 825.00
55.4773 789.00
55.5425 773.00
55.6077 816.00
55.6729 760.00
55.7381 717.00
55.8033 706.00
55.8685 652.00
55.9337 653.00
55.9989 639.00
56.0641 677.00
56.1293 707.00
56.1945 677.00
56.2597 669.00
56.3249 705.00
56.3901 672.00
56.4553 617.00
56.5205 618.00
56.5857 596.00
56.6509 612.00
56.7161 626.00
56.7813 607.00
56.8465 632.00
56.9117 657.00
56.9769 699.00
57.042 703.00
57.1073 620.00
57.1724 644.00
57.2376 625.00
57.3028 686.00
57.368 671.00
57.4332 663.00
57.4984 713.00
57.5636 788.00
57.6288 859.00
57.694 838.00
57.7592 857.00
57.8244 749.00
57.8896 729.00
57.9548 895.00
58.02 1130.00
58.0852 1592.00
58.1504 1105.00
58.2156 1224.00
58.2808 1111.00
58.346 827.00
58.4112 814.00
58.4764 798.00
58.5416 774.00
58.6068 778.00
58.672 769.00
58.7372 733.00
58.8024 755.00
58.8676 752.00
58.9328 753.00
58.998 830.00
59.0632 889.00
59.1284 898.00
59.1936 1079.00
59.2588 1080.00
59.324 1124.00
59.3892 1076.00
59.4544 1144.00
59.5196 1177.00
59.5848 1107.00
59.65 1040.00
59.7152 962.00
59.7804 865.00
59.8456 888.00
59.9108 897.00
59.976 822.00
60.0412 846.00
60.1064 768.00
60.1716 720.00
60.2368 684.00
60.302 592.00
60.3672 648.00
60.4324 622.00
60.4976 596.00
60.5628 594.00
60.628 595.00
60.6932 615.00
60.7584 584.00
60.8236 574.00
60.8888 556.00
60.954 548.00
61.0192 584.00
61.0844 614.00
61.1496 635.00
61.2148 590.00
61.28 606.00
61.3452 616.00
61.4104 660.00
61.4756 676.00
61.5408 683.00
61.606 663.00
61.6712 709.00
61.7364 725.00
61.8016 754.00
61.8667 815.00
61.932 859.00
61.9971 1075.00
62.0623 1501.00
62.1275 2269.00
62.1927 1733.00
62.2579 1514.00
62.3231 1706.00
62.3883 1122.00
62.4535 997.00
62.5187 918.00
62.5839 904.00
62.6491 943.00
62.7143 873.00
62.7795 930.00
62.8447 850.00
62.9099 824.00
62.9751 858.00
63.0403 940.00
63.1055 922.00
63.1707 933.00
63.2359 895.00
63.3011 765.00
63.3663 825.00
63.4315 754.00
63.4967 720.00
63.5619 728.00
63.6271 725.00
63.6923 712.00
63.7575 713.00
63.8227 726.00
63.8879 690.00
63.9531 695.00
64.0183 742.00
64.0835 683.00
64.1487 698.00
64.2139 665.00
64.2791 708.00
64.3443 717.00
64.4095 692.00
64.4747 745.00
64.5399 709.00
64.6051 742.00
64.6703 822.00
64.7355 833.00
64.8007 960.00
64.8659 1169.00
64.9311 1731.00
64.9963 2448.00
65.0615 1469.00
65.1267 1564.00
65.1919 1560.00
65.2571 1038.00
65.3223 989.00
65.3875 921.00
65.4527 960.00
65.5179 985.00
65.5831 1099.00
65.6483 1074.00
65.7135 1070.00
65.7787 1016.00
65.8439 940.00
65.9091 996.00
65.9743 998.00
66.0395 1070.00
66.1047 1312.00
66.1699 2164.00
66.2351 2585.00
66.3003 1597.00
66.3655 1756.00
66.4307 1540.00
66.4959 1032.00
66.561 828.00
66.6263 748.00
66.6915 716.00
66.7566 635.00
66.8218 601.00
66.887 615.00
66.9522 568.00
67.0174 559.00
67.0826 535.00
67.1478 548.00
67.213 569.00
67.2782 520.00
67.3434 506.00
67.4086 552.00
67.4738 521.00
67.539 538.00
67.6042 563.00
67.6694 499.00
67.7346 478.00
67.7998 513.00
67.865 498.00
67.9302 487.00
67.9954 515.00
68.0606 517.00
68.1258 498.00
68.191 518.00
68.2562 498.00
68.3214 488.00
68.3866 474.00
68.4518 451.00
68.517 465.00
68.5822 436.00
68.6474 452.00
68.7126 468.00
68.7778 453.00
68.843 470.00
68.9082 455.00
68.9734 494.00
69.0386 439.00
69.1038 446.00
69.169 411.00
69.2342 430.00
69.2994 476.00
69.3646 449.00
69.4298 439.00
69.495 476.00
69.5602 482.00
69.6254 519.00
69.6906 583.00
69.7558 558.00
69.821 613.00
69.8862 572.00
69.9514 661.00
70.0166 557.00
70.0818 552.00
70.147 591.00
70.2122 569.00
70.2774 622.00
70.3426 580.00
70.4078 552.00
70.473 480.00
70.5382 505.00
70.6034 466.00
70.6686 447.00
70.7338 477.00
70.799 457.00
70.8642 475.00
70.9294 443.00
70.9946 487.00
71.0598 520.00
71.125 507.00
71.1902 490.00
71.2554 507.00
71.3205 549.00
71.3858 676.00
71.451 984.00
71.5162 1246.00
71.5813 827.00
71.6465 768.00
71.7117 886.00
71.7769 721.00
71.8421 576.00
71.9073 508.00
71.9725 547.00
72.0377 477.00
72.1029 498.00
72.1681 490.00
72.2333 524.00
72.2985 477.00
72.3637 503.00
72.4289 543.00
72.4941 502.00
72.5593 459.00
72.6245 499.00
72.6897 489.00
72.7549 456.00
72.8201 474.00
72.8853 462.00
72.9505 457.00
73.0157 492.00
73.0809 490.00
73.1461 482.00
73.2113 491.00
73.2765 499.00
73.3417 509.00
73.4069 481.00
73.4721 454.00
73.5373 523.00
73.6025 484.00
73.6677 454.00
73.7329 432.00
73.7981 434.00
73.8633 459.00
73.9285 396.00
73.9937 378.00
74.0589 393.00
74.1241 386.00
74.1893 447.00
74.2545 416.00
74.3197 404.00
74.3849 427.00
74.4501 415.00
74.5153 408.00
74.5805 405.00
74.6457 443.00
74.7109 424.00
74.7761 451.00
74.8413 417.00
74.9065 447.00
74.9717 420.00
75.0369 410.00
75.1021 394.00
75.1673 390.00
75.2325 438.00
75.2977 446.00
75.3629 454.00
75.4281 453.00
75.4933 460.00
75.5585 468.00
75.6237 475.00
75.6889 468.00
75.7541 416.00
75.8193 414.00
75.8845 461.00
75.9497 442.00
76.0149 413.00
76.0801 398.00
76.1452 404.00
76.2104 430.00
76.2756 447.00
76.3409 392.00
76.406 463.00
76.4712 423.00
76.5364 467.00
76.6016 450.00
76.6668 424.00
76.732 433.00
76.7972 404.00
76.8624 429.00
76.9276 409.00
76.9928 406.00
77.058 407.00
77.1232 428.00
77.1884 402.00
77.2536 385.00
77.3188 438.00
77.384 422.00
77.4492 428.00
77.5144 399.00
77.5796 430.00
77.6448 442.00
77.71 488.00
77.7752 444.00
77.8404 427.00
77.9056 430.00
77.9708 431.00
78.036 465.00
78.1012 437.00
78.1664 456.00
78.2316 421.00
78.2968 494.00
78.362 491.00
78.4272 514.00
78.4924 487.00
78.5576 597.00
78.6228 567.00
78.688 618.00
78.7532 672.00
78.8184 927.00
78.8836 1410.00
78.9488 1783.00
79.014 1065.00
79.0792 981.00
79.1444 1157.00
79.2096 1053.00
79.2748 817.00
79.34 729.00
79.4052 665.00
79.4704 671.00
79.5356 638.00
79.6008 552.00
79.666 554.00
79.7312 581.00
79.7964 503.00
79.8616 490.00
79.9268 473.00
79.992 492.00
80.0572 451.00
80.1224 419.00
80.1876 454.00
80.2528 465.00
80.318 389.00
80.3832 439.00
80.4484 374.00
80.5136 493.00
80.5788 393.00
80.644 460.00
80.7092 455.00
80.7744 445.00
80.8396 468.00
80.9048 448.00
80.9699 500.00
81.0351 499.00
81.1003 510.00
81.1655 482.00
81.2307 567.00
81.2959 674.00
81.3611 772.00
81.4263 604.00
81.4915 570.00
81.5567 630.00
81.6219 592.00
81.6871 529.00
81.7523 471.00
81.8175 478.00
81.8827 432.00
81.9479 431.00
82.0131 464.00
82.0783 422.00
82.1435 418.00
82.2087 418.00
82.2739 439.00
82.3391 415.00
82.4043 468.00
82.4695 496.00
82.5347 509.00
82.5999 502.00
82.6651 537.00
82.7303 496.00
82.7955 494.00
82.8607 496.00
82.9259 502.00
82.9911 513.00
83.0563 461.00
83.1215 466.00
83.1867 453.00
83.2519 451.00
83.3171 458.00
83.3823 476.00
83.4475 476.00
83.5127 513.00
83.5779 506.00
83.6431 593.00
83.7083 562.00
83.7735 644.00
83.8387 849.00
83.9039 1238.00
83.9691 1120.00
84.0343 754.00
84.0995 740.00
84.1647 894.00
84.2299 834.00
84.2951 606.00
84.3603 589.00
84.4255 523.00
84.4907 537.00
84.5559 515.00
84.6211 532.00
84.6863 507.00
84.7515 516.00
84.8167 520.00
84.8819 528.00
84.9471 518.00
85.0123 523.00
85.0775 542.00
85.1427 525.00
85.2079 510.00
85.2731 502.00
85.3383 483.00
85.4035 445.00
85.4687 436.00
85.5339 406.00
85.5991 407.00
85.6643 422.00
85.7295 404.00
85.7946 420.00
85.8598 395.00
85.925 384.00
85.9903 487.00
86.0554 398.00
86.1206 379.00
86.1858 408.00
86.251 405.00
86.3162 406.00
86.3814 445.00
86.4466 398.00
86.5118 402.00
86.577 426.00
86.6422 435.00
86.7074 442.00
86.7726 468.00
86.8378 435.00
86.903 462.00
86.9682 454.00
87.0334 467.00
87.0986 475.00
87.1638 462.00
87.229 497.00
87.2942 521.00
87.3594 601.00
87.4246 820.00
87.4898 731.00
87.555 546.00
87.6202 585.00
87.6854 606.00
87.7506 632.00
87.8158 489.00
87.881 488.00
87.9462 453.00
88.0114 443.00
88.0766 421.00
88.1418 469.00
88.207 468.00
88.2722 487.00
88.3374 473.00
88.4026 487.00
88.4678 489.00
88.533 467.00
88.5982 489.00
88.6634 489.00
88.7286 493.00
88.7938 518.00
88.859 519.00
88.9242 485.00
88.9894 531.00
89.0546 446.00
89.1198 470.00
89.185 483.00
89.2502 489.00
89.3154 493.00
89.3806 474.00
89.4458 519.00
89.511 505.00
89.5762 508.00
89.6414 551.00
89.7066 576.00
89.7718 658.00
89.837 736.00
89.9022 926.00
89.9674 1318.00
90.0326 1200.00
90.0978 837.00
90.163 868.00
90.2282 890.00
90.2934 1055.00
90.3586 783.00
90.4238 664.00
90.489 615.00
90.5542 664.00
90.6193 681.00
90.6845 568.00
90.7497 614.00
90.8149 657.00
90.8801 694.00
90.9453 791.00
91.0105 1012.00
91.0757 1307.00
91.1409 1178.00
91.2061 912.00
91.2713 816.00
91.3365 930.00
91.4017 966.00
91.4669 803.00
91.5321 618.00
91.5973 628.00
91.6625 535.00
91.7277 539.00
91.7929 511.00
91.8581 504.00
91.9233 548.00
91.9885 505.00
92.0537 530.00
92.1189 513.00
92.1841 517.00
92.2493 516.00
92.3145 482.00
92.3797 479.00
92.4449 471.00
92.5101 446.00
92.5753 465.00
92.6405 454.00
92.7057 475.00
92.7709 457.00
92.8361 457.00
92.9013 453.00
92.9665 488.00
93.0317 441.00
93.0969 453.00
93.1621 511.00
93.2273 510.00
93.2925 533.00
93.3577 548.00
93.4229 690.00
93.4881 845.00
93.5533 654.00
93.6185 632.00
93.6837 550.00
93.7489 587.00
93.8141 672.00
93.8793 542.00
93.9445 467.00
94.0097 503.00
94.0749 440.00
94.1401 441.00
94.2053 423.00
94.2705 467.00
94.3357 428.00
94.4009 445.00
94.4661 438.00
94.5313 473.00
94.5965 413.00
94.6617 385.00
94.7269 403.00
94.7921 424.00
94.8573 404.00
94.9225 393.00
94.9877 447.00
95.0529 396.00
95.1181 397.00
95.1833 373.00
95.2485 405.00
95.3137 392.00
95.3789 389.00
95.444 437.00
95.5092 435.00
95.5744 428.00
95.6396 450.00
95.7048 473.00
95.77 465.00
95.8352 446.00
95.9004 422.00
95.9656 443.00
96.0308 483.00
96.096 518.00
96.1612 747.00
96.2264 764.00
96.2916 550.00
96.3568 523.00
96.422 526.00
96.4872 624.00
96.5524 610.00
96.6176 487.00
96.6828 439.00
96.748 434.00
96.8132 410.00
96.8784 451.00
96.9436 450.00
97.0088 443.00
97.074 458.00
97.1392 392.00
97.2044 439.00
97.2696 443.00
97.3348 385.00
97.4 461.00
97.4652 377.00
97.5304 355.00
97.5956 418.00
97.6608 410.00
97.726 400.00
97.7912 404.00
97.8564 443.00
97.9216 422.00
97.9868 406.00
98.052 449.00
98.1172 401.00
98.1824 406.00
98.2476 447.00
98.3128 450.00
98.378 452.00
98.4432 461.00
98.5084 464.00
98.5736 435.00
98.6388 455.00
98.704 454.00
98.7692 466.00
98.8344 481.00
98.8996 403.00
98.9648 425.00
99.03 439.00
99.0952 438.00
99.1604 439.00
99.2256 424.00
99.2908 418.00
99.356 387.00
99.4212 394.00
99.4864 389.00
99.5516 409.00
99.6168 352.00
99.682 463.00
99.7472 406.00
99.8124 389.00
99.8776 375.00
99.9428 394.00
100.008 389.00
100.073 418.00
100.095 369.00