File: data/xrd_creation/results/Na_69.xy
9.903433 2550.00
9.968632 2718.00
10.0338 2614.00
10.099 2615.00
10.1642 2633.00
10.2294 2521.00
10.2946 2478.00
10.3598 2448.00
10.425 2517.00
10.4902 2421.00
10.5554 2353.00
10.6206 2435.00
10.6858 2324.00
10.751 2420.00
10.8162 2331.00
10.8814 2329.00
10.9466 2330.00
11.0118 2263.00
11.077 2260.00
11.1422 2262.00
11.2074 2318.00
11.2726 2148.00
11.3378 2218.00
11.403 2184.00
11.4682 2130.00
11.5334 2155.00
11.5986 2088.00
11.6638 1999.00
11.729 2090.00
11.7942 2013.00
11.8594 1986.00
11.9246 1988.00
11.9898 1992.00
12.055 1974.00
12.1202 1952.00
12.1854 1930.00
12.2506 1911.00
12.3158 1977.00
12.381 1859.00
12.4462 1909.00
12.5114 1892.00
12.5766 1818.00
12.6418 1869.00
12.707 1898.00
12.7722 1734.00
12.8374 1849.00
12.9026 1706.00
12.9678 1855.00
13.033 1757.00
13.0982 1766.00
13.1634 1718.00
13.2286 1732.00
13.2938 1694.00
13.359 1697.00
13.4242 1720.00
13.4894 1754.00
13.5546 1635.00
13.6198 1671.00
13.685 1668.00
13.7502 1602.00
13.8154 1679.00
13.8805 1592.00
13.9457 1587.00
14.0109 1600.00
14.0761 1640.00
14.1413 1498.00
14.2065 1664.00
14.2717 1561.00
14.3369 1612.00
14.4021 1627.00
14.4673 1522.00
14.5325 1502.00
14.5977 1461.00
14.6629 1530.00
14.7281 1561.00
14.7933 1513.00
14.8585 1544.00
14.9237 1480.00
14.9889 1409.00
15.0541 1455.00
15.1193 1465.00
15.1845 1430.00
15.2497 1446.00
15.3149 1431.00
15.3801 1421.00
15.4453 1467.00
15.5105 1399.00
15.5757 1453.00
15.6409 1475.00
15.7061 1394.00
15.7713 1422.00
15.8365 1415.00
15.9017 1362.00
15.9669 1332.00
16.0321 1434.00
16.0973 1337.00
16.1625 1408.00
16.2277 1384.00
16.2929 1390.00
16.3581 1428.00
16.4233 1413.00
16.4885 1341.00
16.5537 1399.00
16.6189 1375.00
16.6841 1353.00
16.7493 1281.00
16.8145 1263.00
16.8797 1286.00
16.9449 1377.00
17.0101 1249.00
17.0753 1275.00
17.1405 1381.00
17.2057 1318.00
17.2709 1271.00
17.3361 1323.00
17.4013 1311.00
17.4665 1307.00
17.5317 1314.00
17.5969 1290.00
17.6621 1233.00
17.7273 1287.00
17.7925 1240.00
17.8577 1261.00
17.9229 1216.00
17.9881 1290.00
18.0533 1215.00
18.1185 1187.00
18.1837 1265.00
18.2489 1196.00
18.3141 1217.00
18.3793 1217.00
18.4445 1326.00
18.5097 1201.00
18.5749 1259.00
18.6401 1245.00
18.7052 1215.00
18.7704 1207.00
18.8356 1295.00
18.9008 1373.00
18.966 1448.00
19.0312 1371.00
19.0964 1414.00
19.1616 1491.00
19.2268 1409.00
19.292 1340.00
19.3572 1392.00
19.4224 1364.00
19.4876 1344.00
19.5528 1346.00
19.618 1318.00
19.6832 1428.00
19.7484 1505.00
19.8136 1735.00
19.8788 1888.00
19.944 2221.00
20.0092 2601.00
20.0744 3110.00
20.1396 3360.00
20.2048 3651.00
20.27 3667.00
20.3352 3401.00
20.4004 3119.00
20.4656 2687.00
20.5308 2349.00
20.596 2153.00
20.6612 1937.00
20.7264 1718.00
20.7916 1563.00
20.8568 1528.00
20.922 1480.00
20.9872 1514.00
21.0524 1489.00
21.1176 1611.00
21.1828 1584.00
21.248 1753.00
21.3132 1792.00
21.3784 1958.00
21.4436 2166.00
21.5088 2513.00
21.574 2660.00
21.6392 2786.00
21.7044 2825.00
21.7696 2694.00
21.8348 2409.00
21.9 2157.00
21.9652 1947.00
22.0304 1571.00
22.0956 1473.00
22.1608 1291.00
22.226 1225.00
22.2912 1180.00
22.3564 1154.00
22.4216 1151.00
22.4868 1179.00
22.552 1254.00
22.6172 1205.00
22.6824 1328.00
22.7476 1331.00
22.8128 1329.00
22.878 1469.00
22.9432 1647.00
23.0084 1780.00
23.0736 1877.00
23.1388 2031.00
23.204 1910.00
23.2692 1920.00
23.3344 1568.00
23.3996 1395.00
23.4647 1205.00
23.5299 1188.00
23.5951 1178.00
23.6603 1097.00
23.7255 1070.00
23.7907 1006.00
23.8559 986.00
23.9211 1047.00
23.9863 1004.00
24.0515 991.00
24.1167 1003.00
24.1819 944.00
24.2471 947.00
24.3123 958.00
24.3775 948.00
24.4427 937.00
24.5079 952.00
24.5731 959.00
24.6383 968.00
24.7035 912.00
24.7687 915.00
24.8339 928.00
24.8991 934.00
24.9643 966.00
25.0295 956.00
25.0947 941.00
25.1599 909.00
25.2251 968.00
25.2903 903.00
25.3555 1005.00
25.4207 944.00
25.4859 909.00
25.5511 944.00
25.6163 937.00
25.6815 970.00
25.7467 931.00
25.8119 1001.00
25.8771 924.00
25.9423 946.00
26.0075 960.00
26.0727 1001.00
26.1379 971.00
26.2031 953.00
26.2683 1047.00
26.3335 1133.00
26.3987 1351.00
26.4639 1338.00
26.5291 1533.00
26.5943 1572.00
26.6595 1643.00
26.7247 1482.00
26.7899 1404.00
26.8551 1198.00
26.9203 1061.00
26.9855 950.00
27.0507 1025.00
27.1159 997.00
27.1811 1004.00
27.2463 1019.00
27.3115 968.00
27.3767 948.00
27.4419 949.00
27.5071 945.00
27.5723 910.00
27.6375 944.00
27.7027 967.00
27.7679 973.00
27.8331 971.00
27.8983 906.00
27.9635 954.00
28.0287 964.00
28.0939 963.00
28.1591 946.00
28.2243 955.00
28.2894 974.00
28.3546 984.00
28.4198 864.00
28.485 909.00
28.5502 845.00
28.6154 894.00
28.6806 972.00
28.7458 941.00
28.811 997.00
28.8762 967.00
28.9414 986.00
29.0066 1004.00
29.0718 1112.00
29.137 1230.00
29.2022 1605.00
29.2674 2420.00
29.3326 3332.00
29.3978 4093.00
29.463 4587.00
29.5282 4803.00
29.5934 4634.00
29.6586 3557.00
29.7238 2187.00
29.789 1450.00
29.8542 1262.00
29.9194 1163.00
29.9846 1187.00
30.0498 1188.00
30.115 1080.00
30.1802 1083.00
30.2454 1032.00
30.3106 1077.00
30.3758 1103.00
30.441 1053.00
30.5062 1086.00
30.5714 1074.00
30.6366 1029.00
30.7018 995.00
30.767 1000.00
30.8322 1018.00
30.8974 1008.00
30.9626 1051.00
31.0278 1036.00
31.093 1061.00
31.1582 1062.00
31.2234 1054.00
31.2886 1024.00
31.3538 995.00
31.419 1062.00
31.4842 983.00
31.5494 1090.00
31.6146 981.00
31.6798 993.00
31.745 1000.00
31.8102 993.00
31.8754 931.00
31.9406 998.00
32.0058 994.00
32.071 1053.00
32.1362 1030.00
32.2014 1119.00
32.2666 1192.00
32.3318 1231.00
32.397 1414.00
32.4622 1464.00
32.5274 1561.00
32.5926 1719.00
32.6578 1803.00
32.723 1881.00
32.7882 1949.00
32.8534 2124.00
32.9186 2368.00
32.9838 2673.00
33.0489 3071.00
33.1141 3366.00
33.1793 3612.00
33.2445 3641.00
33.3097 3389.00
33.3749 2923.00
33.4401 2242.00
33.5053 1768.00
33.5705 1477.00
33.6357 1283.00
33.7009 1229.00
33.7661 1313.00
33.8313 1270.00
33.8965 1191.00
33.9617 1154.00
34.0269 1109.00
34.0921 1038.00
34.1573 947.00
34.2225 894.00
34.2877 880.00
34.3529 830.00
34.4181 877.00
34.4833 806.00
34.5485 822.00
34.6137 857.00
34.6789 863.00
34.7441 856.00
34.8093 788.00
34.8745 791.00
34.9397 781.00
35.0049 730.00
35.0701 812.00
35.1353 763.00
35.2005 779.00
35.2657 819.00
35.3309 918.00
35.3961 1002.00
35.4613 1112.00
35.5265 1157.00
35.5917 1228.00
35.6569 1227.00
35.7221 1272.00
35.7873 1374.00
35.8525 1342.00
35.9177 1335.00
35.9829 1363.00
36.0481 1347.00
36.1133 1238.00
36.1785 1235.00
36.2437 988.00
36.3089 830.00
36.3741 735.00
36.4393 645.00
36.5045 738.00
36.5697 702.00
36.6349 718.00
36.7001 707.00
36.7653 749.00
36.8305 724.00
36.8957 751.00
36.9609 747.00
37.0261 728.00
37.0913 711.00
37.1565 672.00
37.2217 706.00
37.2869 723.00
37.3521 677.00
37.4173 796.00
37.4825 799.00
37.5477 699.00
37.6129 723.00
37.6781 663.00
37.7433 656.00
37.8085 691.00
37.8736 610.00
37.9388 613.00
38.004 628.00
38.0692 649.00
38.1344 612.00
38.1996 739.00
38.2648 787.00
38.33 775.00
38.3952 767.00
38.4604 920.00
38.5256 962.00
38.5908 983.00
38.656 955.00
38.7212 882.00
38.7864 931.00
38.8516 841.00
38.9168 847.00
38.982 818.00
39.0472 835.00
39.1124 829.00
39.1776 785.00
39.2428 860.00
39.308 1047.00
39.3732 1207.00
39.4384 1301.00
39.5036 1389.00
39.5688 1435.00
39.634 1246.00
39.6992 1017.00
39.7644 762.00
39.8296 629.00
39.8948 593.00
39.96 562.00
40.0252 569.00
40.0904 569.00
40.1556 580.00
40.2208 579.00
40.286 565.00
40.3512 577.00
40.4164 545.00
40.4816 576.00
40.5468 570.00
40.612 594.00
40.6772 529.00
40.7424 563.00
40.8076 616.00
40.8728 621.00
40.938 667.00
41.0032 640.00
41.0684 682.00
41.1336 641.00
41.1988 648.00
41.264 609.00
41.3292 610.00
41.3944 587.00
41.4596 554.00
41.5248 581.00
41.59 638.00
41.6552 584.00
41.7204 576.00
41.7856 568.00
41.8508 629.00
41.916 611.00
41.9812 598.00
42.0464 600.00
42.1116 632.00
42.1768 673.00
42.242 631.00
42.3072 626.00
42.3724 626.00
42.4376 638.00
42.5028 604.00
42.568 666.00
42.6332 623.00
42.6983 633.00
42.7635 643.00
42.8287 611.00
42.8939 660.00
42.9591 701.00
43.0243 854.00
43.0895 1011.00
43.1547 1118.00
43.2199 1182.00
43.2851 1272.00
43.3503 1215.00
43.4155 1096.00
43.4807 934.00
43.5459 840.00
43.6111 771.00
43.6763 768.00
43.7415 742.00
43.8067 674.00
43.8719 708.00
43.9371 644.00
44.0023 665.00
44.0675 629.00
44.1327 560.00
44.1979 570.00
44.2631 580.00
44.3283 573.00
44.3935 600.00
44.4587 594.00
44.5239 566.00
44.5891 575.00
44.6543 612.00
44.7195 569.00
44.7847 665.00
44.8499 669.00
44.9151 602.00
44.9803 701.00
45.0455 637.00
45.1107 702.00
45.1759 658.00
45.2411 744.00
45.3063 621.00
45.3715 675.00
45.4367 635.00
45.5019 615.00
45.5671 619.00
45.6323 730.00
45.6975 626.00
45.7627 659.00
45.8279 665.00
45.8931 660.00
45.9583 681.00
46.0235 606.00
46.0887 597.00
46.1539 638.00
46.2191 486.00
46.2843 549.00
46.3495 603.00
46.4147 596.00
46.4799 580.00
46.5451 625.00
46.6103 614.00
46.6755 629.00
46.7407 622.00
46.8059 626.00
46.8711 655.00
46.9363 730.00
47.0015 778.00
47.0667 896.00
47.1319 957.00
47.1971 1150.00
47.2623 1110.00
47.3275 1281.00
47.3927 1319.00
47.4579 1446.00
47.523 1516.00
47.5882 1520.00
47.6534 1366.00
47.7186 1291.00
47.7838 1051.00
47.849 956.00
47.9142 832.00
47.9794 739.00
48.0446 667.00
48.1098 629.00
48.175 626.00
48.2402 614.00
48.3054 667.00
48.3706 800.00
48.4358 992.00
48.501 1129.00
48.5662 1261.00
48.6314 1376.00
48.6966 1225.00
48.7618 1005.00
48.827 821.00
48.8922 700.00
48.9574 577.00
49.0226 529.00
49.0878 468.00
49.153 428.00
49.2182 468.00
49.2834 477.00
49.3486 506.00
49.4138 485.00
49.479 456.00
49.5442 468.00
49.6094 448.00
49.6746 516.00
49.7398 432.00
49.805 485.00
49.8702 520.00
49.9354 462.00
50.0006 452.00
50.0658 483.00
50.131 489.00
50.1962 432.00
50.2614 458.00
50.3266 411.00
50.3918 443.00
50.457 455.00
50.5222 470.00
50.5874 492.00
50.6526 453.00
50.7178 437.00
50.783 488.00
50.8482 468.00
50.9134 446.00
50.9786 444.00
51.0438 435.00
51.109 442.00
51.1742 421.00
51.2394 458.00
51.3046 469.00
51.3698 444.00
51.435 457.00
51.5002 466.00
51.5654 535.00
51.6306 471.00
51.6958 536.00
51.761 622.00
51.8262 518.00
51.8914 529.00
51.9566 565.00
52.0218 614.00
52.087 546.00
52.1522 537.00
52.2174 570.00
52.2826 562.00
52.3477 543.00
52.4129 525.00
52.4781 573.00
52.5433 535.00
52.6085 486.00
52.6737 464.00
52.7389 502.00
52.8041 459.00
52.8693 460.00
52.9345 464.00
52.9997 491.00
53.0649 475.00
53.1301 472.00
53.1953 484.00
53.2605 479.00
53.3257 480.00
53.3909 468.00
53.4561 483.00
53.5213 518.00
53.5865 469.00
53.6517 541.00
53.7169 495.00
53.7821 483.00
53.8473 498.00
53.9125 484.00
53.9777 452.00
54.0429 463.00
54.1081 442.00
54.1733 456.00
54.2385 449.00
54.3037 467.00
54.3689 478.00
54.4341 467.00
54.4993 454.00
54.5645 422.00
54.6297 464.00
54.6949 489.00
54.7601 511.00
54.8253 493.00
54.8905 522.00
54.9557 507.00
55.0209 492.00
55.0861 440.00
55.1513 431.00
55.2165 481.00
55.2817 422.00
55.3469 431.00
55.4121 440.00
55.4773 392.00
55.5425 447.00
55.6077 455.00
55.6729 467.00
55.7381 417.00
55.8033 465.00
55.8685 436.00
55.9337 442.00
55.9989 457.00
56.0641 476.00
56.1293 425.00
56.1945 460.00
56.2597 453.00
56.3249 442.00
56.3901 523.00
56.4553 539.00
56.5205 570.00
56.5857 607.00
56.6509 573.00
56.7161 607.00
56.7813 544.00
56.8465 557.00
56.9117 501.00
56.9769 471.00
57.042 472.00
57.1073 447.00
57.1724 505.00
57.2376 504.00
57.3028 585.00
57.368 710.00
57.4332 774.00
57.4984 780.00
57.5636 798.00
57.6288 688.00
57.694 665.00
57.7592 558.00
57.8244 453.00
57.8896 464.00
57.9548 505.00
58.02 532.00
58.0852 496.00
58.1504 467.00
58.2156 520.00
58.2808 489.00
58.346 488.00
58.4112 481.00
58.4764 462.00
58.5416 488.00
58.6068 469.00
58.672 449.00
58.7372 444.00
58.8024 552.00
58.8676 531.00
58.9328 632.00
58.998 616.00
59.0632 614.00
59.1284 668.00
59.1936 691.00
59.2588 714.00
59.324 736.00
59.3892 699.00
59.4544 700.00
59.5196 693.00
59.5848 656.00
59.65 648.00
59.7152 619.00
59.7804 599.00
59.8456 583.00
59.9108 533.00
59.976 517.00
60.0412 492.00
60.1064 466.00
60.1716 450.00
60.2368 470.00
60.302 458.00
60.3672 439.00
60.4324 432.00
60.4976 454.00
60.5628 481.00
60.628 593.00
60.6932 596.00
60.7584 580.00
60.8236 646.00
60.8888 646.00
60.954 605.00
61.0192 561.00
61.0844 540.00
61.1496 471.00
61.2148 533.00
61.28 506.00
61.3452 530.00
61.4104 497.00
61.4756 522.00
61.5408 497.00
61.606 466.00
61.6712 489.00
61.7364 430.00
61.8016 423.00
61.8667 409.00
61.932 390.00
61.9971 409.00
62.0623 361.00
62.1275 438.00
62.1927 410.00
62.2579 373.00
62.3231 399.00
62.3883 392.00
62.4535 388.00
62.5187 391.00
62.5839 391.00
62.6491 393.00
62.7143 420.00
62.7795 445.00
62.8447 414.00
62.9099 488.00
62.9751 476.00
63.0403 510.00
63.1055 495.00
63.1707 513.00
63.2359 461.00
63.3011 436.00
63.3663 453.00
63.4315 440.00
63.4967 392.00
63.5619 388.00
63.6271 394.00
63.6923 403.00
63.7575 389.00
63.8227 370.00
63.8879 374.00
63.9531 372.00
64.0183 367.00
64.0835 353.00
64.1487 343.00
64.2139 347.00
64.2791 357.00
64.3443 356.00
64.4095 402.00
64.4747 397.00
64.5399 451.00
64.6051 549.00
64.6703 553.00
64.7355 605.00
64.8007 631.00
64.8659 576.00
64.9311 507.00
64.9963 485.00
65.0615 478.00
65.1267 456.00
65.1919 455.00
65.2571 463.00
65.3223 475.00
65.3875 518.00
65.4527 542.00
65.5179 591.00
65.5831 582.00
65.6483 542.00
65.7135 578.00
65.7787 561.00
65.8439 469.00
65.9091 487.00
65.9743 428.00
66.0395 425.00
66.1047 436.00
66.1699 388.00
66.2351 399.00
66.3003 367.00
66.3655 356.00
66.4307 354.00
66.4959 368.00
66.561 348.00
66.6263 359.00
66.6915 350.00
66.7566 328.00
66.8218 349.00
66.887 346.00
66.9522 348.00
67.0174 326.00
67.0826 341.00
67.1478 338.00
67.213 322.00
67.2782 319.00
67.3434 309.00
67.4086 337.00
67.4738 361.00
67.539 321.00
67.6042 359.00
67.6694 370.00
67.7346 346.00
67.7998 337.00
67.865 341.00
67.9302 364.00
67.9954 309.00
68.0606 347.00
68.1258 338.00
68.191 341.00
68.2562 344.00
68.3214 342.00
68.3866 315.00
68.4518 312.00
68.517 355.00
68.5822 326.00
68.6474 339.00
68.7126 318.00
68.7778 324.00
68.843 338.00
68.9082 306.00
68.9734 319.00
69.0386 356.00
69.1038 354.00
69.169 396.00
69.2342 390.00
69.2994 403.00
69.3646 408.00
69.4298 457.00
69.495 411.00
69.5602 432.00
69.6254 436.00
69.6906 462.00
69.7558 400.00
69.821 386.00
69.8862 396.00
69.9514 403.00
70.0166 346.00
70.0818 401.00
70.147 471.00
70.2122 399.00
70.2774 416.00
70.3426 388.00
70.4078 412.00
70.473 361.00
70.5382 349.00
70.6034 364.00
70.6686 347.00
70.7338 352.00
70.799 304.00
70.8642 312.00
70.9294 291.00
70.9946 330.00
71.0598 330.00
71.125 314.00
71.1902 295.00
71.2554 302.00
71.3205 300.00
71.3858 328.00
71.451 296.00
71.5162 283.00
71.5813 305.00
71.6465 315.00
71.7117 323.00
71.7769 340.00
71.8421 352.00
71.9073 298.00
71.9725 297.00
72.0377 315.00
72.1029 322.00
72.1681 329.00
72.2333 317.00
72.2985 328.00
72.3637 310.00
72.4289 311.00
72.4941 318.00
72.5593 370.00
72.6245 343.00
72.6897 331.00
72.7549 387.00
72.8201 387.00
72.8853 448.00
72.9505 453.00
73.0157 440.00
73.0809 435.00
73.1461 379.00
73.2113 373.00
73.2765 370.00
73.3417 350.00
73.4069 301.00
73.4721 337.00
73.5373 302.00
73.6025 328.00
73.6677 310.00
73.7329 326.00
73.7981 308.00
73.8633 307.00
73.9285 304.00
73.9937 302.00
74.0589 308.00
74.1241 283.00
74.1893 331.00
74.2545 298.00
74.3197 300.00
74.3849 302.00
74.4501 282.00
74.5153 318.00
74.5805 300.00
74.6457 297.00
74.7109 325.00
74.7761 305.00
74.8413 274.00
74.9065 267.00
74.9717 312.00
75.0369 314.00
75.1021 318.00
75.1673 318.00
75.2325 308.00
75.2977 277.00
75.3629 283.00
75.4281 324.00
75.4933 325.00
75.5585 297.00
75.6237 286.00
75.6889 285.00
75.7541 277.00
75.8193 279.00
75.8845 297.00
75.9497 290.00
76.0149 329.00
76.0801 322.00
76.1452 377.00
76.2104 346.00
76.2756 348.00
76.3409 348.00
76.406 370.00
76.4712 356.00
76.5364 400.00
76.6016 372.00
76.6668 331.00
76.732 342.00
76.7972 309.00
76.8624 325.00
76.9276 292.00
76.9928 358.00
77.058 378.00
77.1232 374.00
77.1884 363.00
77.2536 427.00
77.3188 393.00
77.384 367.00
77.4492 361.00
77.5144 325.00
77.5796 327.00
77.6448 319.00
77.71 336.00
77.7752 312.00
77.8404 313.00
77.9056 263.00
77.9708 324.00
78.036 308.00
78.1012 306.00
78.1664 297.00
78.2316 299.00
78.2968 354.00
78.362 314.00
78.4272 296.00
78.4924 308.00
78.5576 295.00
78.6228 295.00
78.688 300.00
78.7532 336.00
78.8184 319.00
78.8836 346.00
78.9488 346.00
79.014 371.00
79.0792 335.00
79.1444 337.00
79.2096 333.00
79.2748 327.00
79.34 312.00
79.4052 323.00
79.4704 330.00
79.5356 302.00
79.6008 324.00
79.666 315.00
79.7312 318.00
79.7964 318.00
79.8616 314.00
79.9268 314.00
79.992 294.00
80.0572 292.00
80.1224 282.00
80.1876 319.00
80.2528 322.00
80.318 288.00
80.3832 275.00
80.4484 285.00
80.5136 300.00
80.5788 308.00
80.644 310.00
80.7092 301.00
80.7744 300.00
80.8396 315.00
80.9048 310.00
80.9699 303.00
81.0351 325.00
81.1003 341.00
81.1655 343.00
81.2307 326.00
81.2959 342.00
81.3611 313.00
81.4263 364.00
81.4915 375.00
81.5567 325.00
81.6219 380.00
81.6871 375.00
81.7523 354.00
81.8175 324.00
81.8827 332.00
81.9479 329.00
82.0131 329.00
82.0783 346.00
82.1435 307.00
82.2087 302.00
82.2739 295.00
82.3391 330.00
82.4043 320.00
82.4695 318.00
82.5347 317.00
82.5999 314.00
82.6651 353.00
82.7303 342.00
82.7955 323.00
82.8607 310.00
82.9259 294.00
82.9911 324.00
83.0563 327.00
83.1215 321.00
83.1867 302.00
83.2519 328.00
83.3171 290.00
83.3823 321.00
83.4475 322.00
83.5127 347.00
83.5779 327.00
83.6431 360.00
83.7083 372.00
83.7735 468.00
83.8387 455.00
83.9039 437.00
83.9691 410.00
84.0343 374.00
84.0995 423.00
84.1647 392.00
84.2299 324.00
84.2951 331.00
84.3603 318.00
84.4255 333.00
84.4907 297.00
84.5559 318.00
84.6211 325.00
84.6863 370.00
84.7515 399.00
84.8167 411.00
84.8819 410.00
84.9471 367.00
85.0123 356.00
85.0775 314.00
85.1427 353.00
85.2079 290.00
85.2731 323.00
85.3383 294.00
85.4035 281.00
85.4687 305.00
85.5339 256.00
85.5991 270.00
85.6643 245.00
85.7295 281.00
85.7946 284.00
85.8598 281.00
85.925 286.00
85.9903 291.00
86.0554 312.00
86.1206 303.00
86.1858 333.00
86.251 290.00
86.3162 324.00
86.3814 277.00
86.4466 306.00
86.5118 307.00
86.577 297.00
86.6422 287.00
86.7074 264.00
86.7726 317.00
86.8378 278.00
86.903 266.00
86.9682 272.00
87.0334 295.00
87.0986 297.00
87.1638 298.00
87.229 280.00
87.2942 277.00
87.3594 284.00
87.4246 291.00
87.4898 244.00
87.555 267.00
87.6202 295.00
87.6854 278.00
87.7506 285.00
87.8158 256.00
87.881 260.00
87.9462 262.00
88.0114 305.00
88.0766 290.00
88.1418 283.00
88.207 273.00
88.2722 257.00
88.3374 301.00
88.4026 262.00
88.4678 272.00
88.533 263.00
88.5982 242.00
88.6634 284.00
88.7286 274.00
88.7938 258.00
88.859 313.00
88.9242 272.00
88.9894 284.00
89.0546 232.00
89.1198 272.00
89.185 239.00
89.2502 306.00
89.3154 263.00
89.3806 262.00
89.4458 245.00
89.511 251.00
89.5762 261.00
89.6414 286.00
89.7066 273.00
89.7718 236.00
89.837 244.00
89.9022 265.00
89.9674 282.00
90.0326 267.00
90.0978 261.00
90.163 285.00
90.2282 240.00
90.2934 273.00
90.3586 241.00
90.4238 238.00
90.489 248.00
90.5542 257.00
90.6193 279.00
90.6845 264.00
90.7497 228.00
90.8149 237.00
90.8801 280.00
90.9453 248.00
91.0105 241.00
91.0757 238.00
91.1409 248.00
91.2061 258.00
91.2713 264.00
91.3365 266.00
91.4017 268.00
91.4669 264.00
91.5321 270.00
91.5973 243.00
91.6625 269.00
91.7277 285.00
91.7929 272.00
91.8581 260.00
91.9233 262.00
91.9885 269.00
92.0537 258.00
92.1189 298.00
92.1841 299.00
92.2493 278.00
92.3145 284.00
92.3797 249.00
92.4449 281.00
92.5101 263.00
92.5753 237.00
92.6405 278.00
92.7057 320.00
92.7709 263.00
92.8361 270.00
92.9013 258.00
92.9665 289.00
93.0317 293.00
93.0969 264.00
93.1621 269.00
93.2273 299.00
93.2925 266.00
93.3577 291.00
93.4229 307.00
93.4881 288.00
93.5533 297.00
93.6185 279.00
93.6837 261.00
93.7489 260.00
93.8141 282.00
93.8793 273.00
93.9445 265.00
94.0097 265.00
94.0749 232.00
94.1401 219.00
94.2053 293.00
94.2705 275.00
94.3357 280.00
94.4009 270.00
94.4661 273.00
94.5313 277.00
94.5965 327.00
94.6617 302.00
94.7269 326.00
94.7921 361.00
94.8573 378.00
94.9225 409.00
94.9877 434.00
95.0529 381.00
95.1181 374.00
95.1833 352.00
95.2485 314.00
95.3137 327.00
95.3789 301.00
95.444 297.00
95.5092 287.00
95.5744 277.00
95.6396 265.00
95.7048 264.00
95.77 249.00
95.8352 238.00
95.9004 229.00
95.9656 281.00
96.0308 258.00
96.096 290.00
96.1612 317.00
96.2264 312.00
96.2916 305.00
96.3568 274.00
96.422 293.00
96.4872 265.00
96.5524 285.00
96.6176 260.00
96.6828 256.00
96.748 295.00
96.8132 241.00
96.8784 247.00
96.9436 262.00
97.0088 247.00
97.074 259.00
97.1392 271.00
97.2044 256.00
97.2696 244.00
97.3348 274.00
97.4 262.00
97.4652 275.00
97.5304 287.00
97.5956 286.00
97.6608 257.00
97.726 320.00
97.7912 300.00
97.8564 275.00
97.9216 319.00
97.9868 293.00
98.052 305.00
98.1172 279.00
98.1824 275.00
98.2476 290.00
98.3128 276.00
98.378 318.00
98.4432 279.00
98.5084 297.00
98.5736 269.00
98.6388 292.00
98.704 287.00
98.7692 294.00
98.8344 303.00
98.8996 294.00
98.9648 287.00
99.03 297.00
99.0952 372.00
99.1604 345.00
99.2256 343.00
99.2908 334.00
99.356 290.00
99.4212 349.00
99.4864 338.00
99.5516 263.00
99.6168 301.00
99.682 290.00
99.7472 282.00
99.8124 245.00
99.8776 234.00
99.9428 223.00
100.008 243.00
100.073 251.00
100.095 247.00