File: data/xrd_creation/results/Na_68.xy
9.903433 2865.00
9.968632 2740.00
10.0338 2845.00
10.099 2743.00
10.1642 2710.00
10.2294 2621.00
10.2946 2788.00
10.3598 2644.00
10.425 2681.00
10.4902 2595.00
10.5554 2658.00
10.6206 2685.00
10.6858 2679.00
10.751 2577.00
10.8162 2605.00
10.8814 2676.00
10.9466 2594.00
11.0118 2627.00
11.077 2592.00
11.1422 2539.00
11.2074 2521.00
11.2726 2612.00
11.3378 2724.00
11.403 2758.00
11.4682 2670.00
11.5334 2658.00
11.5986 2832.00
11.6638 2879.00
11.729 2888.00
11.7942 2757.00
11.8594 2681.00
11.9246 2562.00
11.9898 2430.00
12.055 2440.00
12.1202 2395.00
12.1854 2294.00
12.2506 2352.00
12.3158 2252.00
12.381 2277.00
12.4462 2240.00
12.5114 2197.00
12.5766 2203.00
12.6418 2159.00
12.707 2169.00
12.7722 2175.00
12.8374 2098.00
12.9026 2066.00
12.9678 2107.00
13.033 2065.00
13.0982 2034.00
13.1634 2084.00
13.2286 1991.00
13.2938 1983.00
13.359 2050.00
13.4242 1927.00
13.4894 2078.00
13.5546 1861.00
13.6198 1909.00
13.685 1947.00
13.7502 1873.00
13.8154 1971.00
13.8805 1966.00
13.9457 1919.00
14.0109 1959.00
14.0761 1961.00
14.1413 1869.00
14.2065 1870.00
14.2717 1907.00
14.3369 1956.00
14.4021 1927.00
14.4673 1888.00
14.5325 1862.00
14.5977 1958.00
14.6629 1822.00
14.7281 1932.00
14.7933 1816.00
14.8585 1954.00
14.9237 1877.00
14.9889 1860.00
15.0541 1781.00
15.1193 1874.00
15.1845 1766.00
15.2497 1878.00
15.3149 1821.00
15.3801 1865.00
15.4453 1826.00
15.5105 1765.00
15.5757 1770.00
15.6409 1837.00
15.7061 1868.00
15.7713 1834.00
15.8365 1812.00
15.9017 1851.00
15.9669 1772.00
16.0321 1844.00
16.0973 1908.00
16.1625 1872.00
16.2277 1853.00
16.2929 1864.00
16.3581 1796.00
16.4233 1897.00
16.4885 1905.00
16.5537 1827.00
16.6189 1767.00
16.6841 1787.00
16.7493 1761.00
16.8145 1729.00
16.8797 1657.00
16.9449 1707.00
17.0101 1728.00
17.0753 1687.00
17.1405 1661.00
17.2057 1738.00
17.2709 1670.00
17.3361 1689.00
17.4013 1715.00
17.4665 1679.00
17.5317 1720.00
17.5969 1678.00
17.6621 1646.00
17.7273 1624.00
17.7925 1546.00
17.8577 1656.00
17.9229 1669.00
17.9881 1644.00
18.0533 1692.00
18.1185 1635.00
18.1837 1649.00
18.2489 1723.00
18.3141 1616.00
18.3793 1583.00
18.4445 1472.00
18.5097 1599.00
18.5749 1563.00
18.6401 1650.00
18.7052 1565.00
18.7704 1610.00
18.8356 1563.00
18.9008 1565.00
18.966 1551.00
19.0312 1699.00
19.0964 1691.00
19.1616 1799.00
19.2268 1921.00
19.292 1975.00
19.3572 1699.00
19.4224 1637.00
19.4876 1606.00
19.5528 1607.00
19.618 1588.00
19.6832 1488.00
19.7484 1533.00
19.8136 1476.00
19.8788 1587.00
19.944 1588.00
20.0092 1715.00
20.0744 1899.00
20.1396 2271.00
20.2048 2844.00
20.27 4061.00
20.3352 5943.00
20.4004 6780.00
20.4656 4878.00
20.5308 2698.00
20.596 1982.00
20.6612 1658.00
20.7264 1529.00
20.7916 1525.00
20.8568 1475.00
20.922 1443.00
20.9872 1390.00
21.0524 1435.00
21.1176 1401.00
21.1828 1351.00
21.248 1448.00
21.3132 1378.00
21.3784 1416.00
21.4436 1376.00
21.5088 1396.00
21.574 1442.00
21.6392 1470.00
21.7044 1434.00
21.7696 1390.00
21.8348 1381.00
21.9 1469.00
21.9652 1327.00
22.0304 1364.00
22.0956 1326.00
22.1608 1318.00
22.226 1262.00
22.2912 1362.00
22.3564 1352.00
22.4216 1289.00
22.4868 1331.00
22.552 1336.00
22.6172 1272.00
22.6824 1332.00
22.7476 1308.00
22.8128 1286.00
22.878 1223.00
22.9432 1272.00
23.0084 1286.00
23.0736 1291.00
23.1388 1254.00
23.204 1300.00
23.2692 1305.00
23.3344 1374.00
23.3996 1486.00
23.4647 1439.00
23.5299 1390.00
23.5951 1328.00
23.6603 1340.00
23.7255 1306.00
23.7907 1265.00
23.8559 1267.00
23.9211 1295.00
23.9863 1275.00
24.0515 1307.00
24.1167 1297.00
24.1819 1418.00
24.2471 1416.00
24.3123 1404.00
24.3775 1475.00
24.4427 1407.00
24.5079 1501.00
24.5731 1600.00
24.6383 1599.00
24.7035 1550.00
24.7687 1561.00
24.8339 1528.00
24.8991 1472.00
24.9643 1523.00
25.0295 1398.00
25.0947 1358.00
25.1599 1374.00
25.2251 1415.00
25.2903 1392.00
25.3555 1386.00
25.4207 1365.00
25.4859 1360.00
25.5511 1408.00
25.6163 1397.00
25.6815 1395.00
25.7467 1457.00
25.8119 1506.00
25.8771 1511.00
25.9423 1603.00
26.0075 1749.00
26.0727 1742.00
26.1379 1785.00
26.2031 1821.00
26.2683 1912.00
26.3335 1938.00
26.3987 2201.00
26.4639 2452.00
26.5291 2764.00
26.5943 3452.00
26.6595 4874.00
26.7247 6610.00
26.7899 9572.00
26.8551 13964.00
26.9203 12683.00
26.9855 7017.00
27.0507 4009.00
27.1159 3210.00
27.1811 2691.00
27.2463 2575.00
27.3115 2345.00
27.3767 2048.00
27.4419 1799.00
27.5071 1800.00
27.5723 1761.00
27.6375 1622.00
27.7027 1597.00
27.7679 1720.00
27.8331 1755.00
27.8983 1688.00
27.9635 1659.00
28.0287 1591.00
28.0939 1603.00
28.1591 1523.00
28.2243 1445.00
28.2894 1347.00
28.3546 1358.00
28.4198 1320.00
28.485 1299.00
28.5502 1245.00
28.6154 1216.00
28.6806 1141.00
28.7458 1189.00
28.811 1219.00
28.8762 1178.00
28.9414 1167.00
29.0066 1183.00
29.0718 1230.00
29.137 1268.00
29.2022 1176.00
29.2674 1218.00
29.3326 1239.00
29.3978 1263.00
29.463 1236.00
29.5282 1353.00
29.5934 1382.00
29.6586 1535.00
29.7238 1569.00
29.789 1859.00
29.8542 2010.00
29.9194 2042.00
29.9846 2223.00
30.0498 2474.00
30.115 2492.00
30.1802 2420.00
30.2454 2138.00
30.3106 1889.00
30.3758 1709.00
30.441 1520.00
30.5062 1417.00
30.5714 1418.00
30.6366 1343.00
30.7018 1249.00
30.767 1285.00
30.8322 1319.00
30.8974 1347.00
30.9626 1316.00
31.0278 1252.00
31.093 1168.00
31.1582 1157.00
31.2234 1159.00
31.2886 1099.00
31.3538 1136.00
31.419 1168.00
31.4842 1170.00
31.5494 1187.00
31.6146 1196.00
31.6798 1195.00
31.745 1161.00
31.8102 1174.00
31.8754 1200.00
31.9406 1236.00
32.0058 1192.00
32.071 1132.00
32.1362 1107.00
32.2014 1110.00
32.2666 1295.00
32.3318 1345.00
32.397 1266.00
32.4622 1321.00
32.5274 1342.00
32.5926 1494.00
32.6578 1524.00
32.723 1642.00
32.7882 1805.00
32.8534 2273.00
32.9186 3113.00
32.9838 3919.00
33.0489 4125.00
33.1141 3288.00
33.1793 2672.00
33.2445 2709.00
33.3097 3470.00
33.3749 4937.00
33.4401 6324.00
33.5053 5845.00
33.5705 4110.00
33.6357 2853.00
33.7009 2359.00
33.7661 2355.00
33.8313 2491.00
33.8965 2844.00
33.9617 3462.00
34.0269 4643.00
34.0921 7819.00
34.1573 11963.00
34.2225 8731.00
34.2877 5726.00
34.3529 3357.00
34.4181 2998.00
34.4833 2741.00
34.5485 2598.00
34.6137 2369.00
34.6789 2083.00
34.7441 1887.00
34.8093 1820.00
34.8745 1741.00
34.9397 1608.00
35.0049 1483.00
35.0701 1361.00
35.1353 1247.00
35.2005 1233.00
35.2657 1164.00
35.3309 1197.00
35.3961 1146.00
35.4613 1189.00
35.5265 1234.00
35.5917 1209.00
35.6569 1230.00
35.7221 1195.00
35.7873 1313.00
35.8525 1243.00
35.9177 1333.00
35.9829 1385.00
36.0481 1472.00
36.1133 1393.00
36.1785 1309.00
36.2437 1179.00
36.3089 1060.00
36.3741 1004.00
36.4393 993.00
36.5045 992.00
36.5697 978.00
36.6349 921.00
36.7001 950.00
36.7653 932.00
36.8305 928.00
36.8957 991.00
36.9609 1032.00
37.0261 1138.00
37.0913 1163.00
37.1565 1236.00
37.2217 1126.00
37.2869 1029.00
37.3521 1109.00
37.4173 1102.00
37.4825 1186.00
37.5477 1181.00
37.6129 1161.00
37.6781 1092.00
37.7433 1089.00
37.8085 1179.00
37.8736 1151.00
37.9388 1267.00
38.004 1410.00
38.0692 1614.00
38.1344 2145.00
38.1996 3206.00
38.2648 3440.00
38.33 2697.00
38.3952 1827.00
38.4604 1408.00
38.5256 1375.00
38.5908 1359.00
38.656 1504.00
38.7212 1684.00
38.7864 1923.00
38.8516 1695.00
38.9168 1509.00
38.982 1240.00
39.0472 1128.00
39.1124 1125.00
39.1776 1260.00
39.2428 1499.00
39.308 1406.00
39.3732 1304.00
39.4384 991.00
39.5036 950.00
39.5688 998.00
39.634 953.00
39.6992 837.00
39.7644 829.00
39.8296 787.00
39.8948 747.00
39.96 831.00
40.0252 705.00
40.0904 736.00
40.1556 730.00
40.2208 744.00
40.286 801.00
40.3512 780.00
40.4164 781.00
40.4816 768.00
40.5468 765.00
40.612 718.00
40.6772 682.00
40.7424 703.00
40.8076 663.00
40.8728 676.00
40.938 689.00
41.0032 677.00
41.0684 743.00
41.1336 699.00
41.1988 696.00
41.264 708.00
41.3292 750.00
41.3944 703.00
41.4596 777.00
41.5248 701.00
41.59 721.00
41.6552 724.00
41.7204 732.00
41.7856 728.00
41.8508 700.00
41.916 755.00
41.9812 704.00
42.0464 727.00
42.1116 666.00
42.1768 711.00
42.242 734.00
42.3072 826.00
42.3724 774.00
42.4376 814.00
42.5028 773.00
42.568 769.00
42.6332 841.00
42.6983 808.00
42.7635 833.00
42.8287 892.00
42.8939 999.00
42.9591 914.00
43.0243 905.00
43.0895 785.00
43.1547 759.00
43.2199 761.00
43.2851 710.00
43.3503 733.00
43.4155 673.00
43.4807 746.00
43.5459 649.00
43.6111 687.00
43.6763 773.00
43.7415 850.00
43.8067 968.00
43.8719 1163.00
43.9371 1124.00
44.0023 999.00
44.0675 922.00
44.1327 820.00
44.1979 766.00
44.2631 767.00
44.3283 707.00
44.3935 760.00
44.4587 690.00
44.5239 673.00
44.5891 609.00
44.6543 639.00
44.7195 656.00
44.7847 669.00
44.8499 654.00
44.9151 780.00
44.9803 834.00
45.0455 810.00
45.1107 894.00
45.1759 982.00
45.2411 867.00
45.3063 780.00
45.3715 741.00
45.4367 675.00
45.5019 706.00
45.5671 675.00
45.6323 645.00
45.6975 604.00
45.7627 647.00
45.8279 669.00
45.8931 631.00
45.9583 673.00
46.0235 729.00
46.0887 729.00
46.1539 661.00
46.2191 663.00
46.2843 641.00
46.3495 673.00
46.4147 657.00
46.4799 611.00
46.5451 647.00
46.6103 614.00
46.6755 664.00
46.7407 684.00
46.8059 626.00
46.8711 633.00
46.9363 656.00
47.0015 680.00
47.0667 687.00
47.1319 738.00
47.1971 777.00
47.2623 790.00
47.3275 855.00
47.3927 991.00
47.4579 1155.00
47.523 1374.00
47.5882 1471.00
47.6534 1330.00
47.7186 1068.00
47.7838 960.00
47.849 823.00
47.9142 778.00
47.9794 865.00
48.0446 744.00
48.1098 789.00
48.175 728.00
48.2402 671.00
48.3054 672.00
48.3706 612.00
48.4358 596.00
48.501 619.00
48.5662 617.00
48.6314 625.00
48.6966 607.00
48.7618 586.00
48.827 597.00
48.8922 665.00
48.9574 673.00
49.0226 661.00
49.0878 602.00
49.153 667.00
49.2182 674.00
49.2834 709.00
49.3486 636.00
49.4138 689.00
49.479 590.00
49.5442 654.00
49.6094 705.00
49.6746 677.00
49.7398 691.00
49.805 645.00
49.8702 678.00
49.9354 645.00
50.0006 643.00
50.0658 711.00
50.131 754.00
50.1962 724.00
50.2614 771.00
50.3266 728.00
50.3918 725.00
50.457 797.00
50.5222 765.00
50.5874 765.00
50.6526 764.00
50.7178 745.00
50.783 759.00
50.8482 821.00
50.9134 828.00
50.9786 888.00
51.0438 790.00
51.109 893.00
51.1742 864.00
51.2394 891.00
51.3046 846.00
51.3698 990.00
51.435 1102.00
51.5002 1128.00
51.5654 1287.00
51.6306 1464.00
51.6958 1612.00
51.761 1918.00
51.8262 2328.00
51.8914 3229.00
51.9566 5058.00
52.0218 8411.00
52.087 6693.00
52.1522 5625.00
52.2174 4281.00
52.2826 2745.00
52.3477 2306.00
52.4129 2064.00
52.4781 1878.00
52.5433 1572.00
52.6085 1430.00
52.6737 1266.00
52.7389 1138.00
52.8041 1071.00
52.8693 1039.00
52.9345 1051.00
52.9997 967.00
53.0649 966.00
53.1301 909.00
53.1953 959.00
53.2605 992.00
53.3257 950.00
53.3909 915.00
53.4561 868.00
53.5213 920.00
53.5865 895.00
53.6517 871.00
53.7169 870.00
53.7821 872.00
53.8473 928.00
53.9125 879.00
53.9777 789.00
54.0429 749.00
54.1081 769.00
54.1733 790.00
54.2385 760.00
54.3037 739.00
54.3689 771.00
54.4341 760.00
54.4993 816.00
54.5645 841.00
54.6297 895.00
54.6949 973.00
54.7601 1031.00
54.8253 1124.00
54.8905 1325.00
54.9557 1834.00
55.0209 2686.00
55.0861 1761.00
55.1513 1788.00
55.2165 1278.00
55.2817 992.00
55.3469 868.00
55.4121 794.00
55.4773 809.00
55.5425 773.00
55.6077 791.00
55.6729 706.00
55.7381 685.00
55.8033 654.00
55.8685 691.00
55.9337 704.00
55.9989 707.00
56.0641 753.00
56.1293 671.00
56.1945 711.00
56.2597 642.00
56.3249 650.00
56.3901 601.00
56.4553 631.00
56.5205 586.00
56.5857 609.00
56.6509 604.00
56.7161 619.00
56.7813 690.00
56.8465 690.00
56.9117 624.00
56.9769 632.00
57.042 650.00
57.1073 615.00
57.1724 643.00
57.2376 680.00
57.3028 599.00
57.368 655.00
57.4332 714.00
57.4984 624.00
57.5636 701.00
57.6288 764.00
57.694 769.00
57.7592 777.00
57.8244 709.00
57.8896 762.00
57.9548 805.00
58.02 1020.00
58.0852 1440.00
58.1504 1048.00
58.2156 1078.00
58.2808 942.00
58.346 823.00
58.4112 788.00
58.4764 797.00
58.5416 769.00
58.6068 849.00
58.672 839.00
58.7372 751.00
58.8024 876.00
58.8676 778.00
58.9328 818.00
58.998 866.00
59.0632 878.00
59.1284 1010.00
59.1936 1109.00
59.2588 1162.00
59.324 1135.00
59.3892 1145.00
59.4544 1212.00
59.5196 1161.00
59.5848 1168.00
59.65 1016.00
59.7152 984.00
59.7804 886.00
59.8456 852.00
59.9108 823.00
59.976 836.00
60.0412 804.00
60.1064 771.00
60.1716 717.00
60.2368 671.00
60.302 586.00
60.3672 588.00
60.4324 599.00
60.4976 571.00
60.5628 557.00
60.628 593.00
60.6932 553.00
60.7584 585.00
60.8236 575.00
60.8888 551.00
60.954 588.00
61.0192 613.00
61.0844 579.00
61.1496 619.00
61.2148 584.00
61.28 618.00
61.3452 647.00
61.4104 601.00
61.4756 611.00
61.5408 648.00
61.606 665.00
61.6712 681.00
61.7364 777.00
61.8016 759.00
61.8667 839.00
61.932 893.00
61.9971 1086.00
62.0623 1410.00
62.1275 2097.00
62.1927 1600.00
62.2579 1517.00
62.3231 1448.00
62.3883 1102.00
62.4535 959.00
62.5187 946.00
62.5839 909.00
62.6491 907.00
62.7143 892.00
62.7795 857.00
62.8447 866.00
62.9099 894.00
62.9751 898.00
63.0403 987.00
63.1055 918.00
63.1707 960.00
63.2359 900.00
63.3011 942.00
63.3663 799.00
63.4315 818.00
63.4967 731.00
63.5619 750.00
63.6271 746.00
63.6923 756.00
63.7575 737.00
63.8227 731.00
63.8879 740.00
63.9531 767.00
64.0183 762.00
64.0835 771.00
64.1487 696.00
64.2139 713.00
64.2791 695.00
64.3443 707.00
64.4095 738.00
64.4747 749.00
64.5399 697.00
64.6051 783.00
64.6703 795.00
64.7355 883.00
64.8007 934.00
64.8659 1116.00
64.9311 1698.00
64.9963 2172.00
65.0615 1490.00
65.1267 1462.00
65.1919 1477.00
65.2571 1061.00
65.3223 992.00
65.3875 911.00
65.4527 1015.00
65.5179 1000.00
65.5831 1083.00
65.6483 1093.00
65.7135 1024.00
65.7787 1076.00
65.8439 957.00
65.9091 999.00
65.9743 985.00
66.0395 1074.00
66.1047 1411.00
66.1699 2121.00
66.2351 2248.00
66.3003 1505.00
66.3655 1546.00
66.4307 1303.00
66.4959 1046.00
66.561 786.00
66.6263 793.00
66.6915 688.00
66.7566 676.00
66.8218 591.00
66.887 543.00
66.9522 532.00
67.0174 568.00
67.0826 563.00
67.1478 552.00
67.213 527.00
67.2782 548.00
67.3434 503.00
67.4086 487.00
67.4738 555.00
67.539 514.00
67.6042 504.00
67.6694 516.00
67.7346 491.00
67.7998 502.00
67.865 495.00
67.9302 518.00
67.9954 466.00
68.0606 523.00
68.1258 512.00
68.191 525.00
68.2562 520.00
68.3214 464.00
68.3866 478.00
68.4518 430.00
68.517 462.00
68.5822 445.00
68.6474 462.00
68.7126 427.00
68.7778 469.00
68.843 442.00
68.9082 423.00
68.9734 432.00
69.0386 439.00
69.1038 462.00
69.169 431.00
69.2342 430.00
69.2994 422.00
69.3646 453.00
69.4298 401.00
69.495 495.00
69.5602 503.00
69.6254 504.00
69.6906 501.00
69.7558 573.00
69.821 588.00
69.8862 614.00
69.9514 622.00
70.0166 585.00
70.0818 572.00
70.147 553.00
70.2122 594.00
70.2774 536.00
70.3426 543.00
70.4078 542.00
70.473 510.00
70.5382 484.00
70.6034 453.00
70.6686 485.00
70.7338 486.00
70.799 410.00
70.8642 447.00
70.9294 463.00
70.9946 442.00
71.0598 470.00
71.125 491.00
71.1902 515.00
71.2554 530.00
71.3205 524.00
71.3858 677.00
71.451 907.00
71.5162 1196.00
71.5813 841.00
71.6465 777.00
71.7117 830.00
71.7769 636.00
71.8421 619.00
71.9073 573.00
71.9725 488.00
72.0377 527.00
72.1029 489.00
72.1681 492.00
72.2333 462.00
72.2985 469.00
72.3637 449.00
72.4289 421.00
72.4941 459.00
72.5593 430.00
72.6245 491.00
72.6897 410.00
72.7549 466.00
72.8201 506.00
72.8853 469.00
72.9505 502.00
73.0157 475.00
73.0809 486.00
73.1461 486.00
73.2113 438.00
73.2765 486.00
73.3417 492.00
73.4069 468.00
73.4721 443.00
73.5373 463.00
73.6025 444.00
73.6677 442.00
73.7329 449.00
73.7981 465.00
73.8633 388.00
73.9285 369.00
73.9937 374.00
74.0589 359.00
74.1241 405.00
74.1893 369.00
74.2545 389.00
74.3197 415.00
74.3849 364.00
74.4501 426.00
74.5153 440.00
74.5805 428.00
74.6457 427.00
74.7109 413.00
74.7761 435.00
74.8413 445.00
74.9065 428.00
74.9717 412.00
75.0369 407.00
75.1021 400.00
75.1673 406.00
75.2325 412.00
75.2977 422.00
75.3629 430.00
75.4281 410.00
75.4933 432.00
75.5585 446.00
75.6237 440.00
75.6889 454.00
75.7541 465.00
75.8193 431.00
75.8845 443.00
75.9497 421.00
76.0149 460.00
76.0801 434.00
76.1452 453.00
76.2104 432.00
76.2756 428.00
76.3409 380.00
76.406 431.00
76.4712 433.00
76.5364 399.00
76.6016 414.00
76.6668 423.00
76.732 421.00
76.7972 426.00
76.8624 397.00
76.9276 410.00
76.9928 391.00
77.058 408.00
77.1232 388.00
77.1884 404.00
77.2536 355.00
77.3188 405.00
77.384 375.00
77.4492 408.00
77.5144 412.00
77.5796 425.00
77.6448 418.00
77.71 439.00
77.7752 449.00
77.8404 431.00
77.9056 425.00
77.9708 424.00
78.036 415.00
78.1012 478.00
78.1664 468.00
78.2316 457.00
78.2968 455.00
78.362 468.00
78.4272 528.00
78.4924 561.00
78.5576 545.00
78.6228 598.00
78.688 601.00
78.7532 703.00
78.8184 925.00
78.8836 1308.00
78.9488 1567.00
79.014 1006.00
79.0792 922.00
79.1444 1168.00
79.2096 1004.00
79.2748 804.00
79.34 690.00
79.4052 661.00
79.4704 638.00
79.5356 654.00
79.6008 598.00
79.666 590.00
79.7312 512.00
79.7964 508.00
79.8616 470.00
79.9268 472.00
79.992 476.00
80.0572 494.00
80.1224 427.00
80.1876 441.00
80.2528 461.00
80.318 432.00
80.3832 417.00
80.4484 427.00
80.5136 415.00
80.5788 437.00
80.644 439.00
80.7092 476.00
80.7744 427.00
80.8396 490.00
80.9048 477.00
80.9699 507.00
81.0351 481.00
81.1003 488.00
81.1655 544.00
81.2307 544.00
81.2959 628.00
81.3611 694.00
81.4263 591.00
81.4915 596.00
81.5567 537.00
81.6219 619.00
81.6871 494.00
81.7523 450.00
81.8175 443.00
81.8827 482.00
81.9479 442.00
82.0131 428.00
82.0783 452.00
82.1435 443.00
82.2087 403.00
82.2739 438.00
82.3391 414.00
82.4043 466.00
82.4695 487.00
82.5347 484.00
82.5999 488.00
82.6651 487.00
82.7303 469.00
82.7955 491.00
82.8607 484.00
82.9259 457.00
82.9911 484.00
83.0563 464.00
83.1215 435.00
83.1867 469.00
83.2519 440.00
83.3171 469.00
83.3823 523.00
83.4475 484.00
83.5127 494.00
83.5779 537.00
83.6431 579.00
83.7083 564.00
83.7735 600.00
83.8387 814.00
83.9039 1123.00
83.9691 960.00
84.0343 716.00
84.0995 757.00
84.1647 917.00
84.2299 730.00
84.2951 633.00
84.3603 594.00
84.4255 538.00
84.4907 552.00
84.5559 533.00
84.6211 512.00
84.6863 507.00
84.7515 538.00
84.8167 498.00
84.8819 551.00
84.9471 577.00
85.0123 567.00
85.0775 530.00
85.1427 527.00
85.2079 504.00
85.2731 499.00
85.3383 463.00
85.4035 472.00
85.4687 440.00
85.5339 437.00
85.5991 410.00
85.6643 447.00
85.7295 384.00
85.7946 419.00
85.8598 419.00
85.925 406.00
85.9903 416.00
86.0554 386.00
86.1206 454.00
86.1858 410.00
86.251 436.00
86.3162 421.00
86.3814 428.00
86.4466 439.00
86.5118 390.00
86.577 450.00
86.6422 447.00
86.7074 447.00
86.7726 462.00
86.8378 416.00
86.903 465.00
86.9682 480.00
87.0334 430.00
87.0986 442.00
87.1638 481.00
87.229 487.00
87.2942 507.00
87.3594 596.00
87.4246 792.00
87.4898 644.00
87.555 495.00
87.6202 558.00
87.6854 610.00
87.7506 586.00
87.8158 482.00
87.881 523.00
87.9462 460.00
88.0114 458.00
88.0766 434.00
88.1418 448.00
88.207 428.00
88.2722 428.00
88.3374 396.00
88.4026 464.00
88.4678 444.00
88.533 478.00
88.5982 472.00
88.6634 467.00
88.7286 524.00
88.7938 493.00
88.859 473.00
88.9242 486.00
88.9894 508.00
89.0546 479.00
89.1198 447.00
89.185 463.00
89.2502 529.00
89.3154 510.00
89.3806 536.00
89.4458 529.00
89.511 586.00
89.5762 559.00
89.6414 588.00
89.7066 550.00
89.7718 645.00
89.837 745.00
89.9022 950.00
89.9674 1294.00
90.0326 1057.00
90.0978 828.00
90.163 814.00
90.2282 919.00
90.2934 961.00
90.3586 725.00
90.4238 644.00
90.489 585.00
90.5542 624.00
90.6193 566.00
90.6845 669.00
90.7497 649.00
90.8149 629.00
90.8801 664.00
90.9453 748.00
91.0105 923.00
91.0757 1155.00
91.1409 1081.00
91.2061 886.00
91.2713 816.00
91.3365 870.00
91.4017 841.00
91.4669 734.00
91.5321 595.00
91.5973 580.00
91.6625 566.00
91.7277 603.00
91.7929 523.00
91.8581 515.00
91.9233 524.00
91.9885 493.00
92.0537 542.00
92.1189 524.00
92.1841 492.00
92.2493 535.00
92.3145 511.00
92.3797 504.00
92.4449 496.00
92.5101 479.00
92.5753 483.00
92.6405 449.00
92.7057 439.00
92.7709 417.00
92.8361 497.00
92.9013 483.00
92.9665 465.00
93.0317 500.00
93.0969 441.00
93.1621 476.00
93.2273 516.00
93.2925 574.00
93.3577 555.00
93.4229 708.00
93.4881 815.00
93.5533 620.00
93.6185 538.00
93.6837 554.00
93.7489 615.00
93.8141 610.00
93.8793 531.00
93.9445 484.00
94.0097 452.00
94.0749 450.00
94.1401 422.00
94.2053 457.00
94.2705 427.00
94.3357 406.00
94.4009 411.00
94.4661 433.00
94.5313 422.00
94.5965 454.00
94.6617 429.00
94.7269 418.00
94.7921 413.00
94.8573 388.00
94.9225 428.00
94.9877 449.00
95.0529 402.00
95.1181 389.00
95.1833 361.00
95.2485 432.00
95.3137 435.00
95.3789 399.00
95.444 438.00
95.5092 419.00
95.5744 408.00
95.6396 444.00
95.7048 436.00
95.77 448.00
95.8352 432.00
95.9004 438.00
95.9656 459.00
96.0308 465.00
96.096 561.00
96.1612 711.00
96.2264 710.00
96.2916 510.00
96.3568 538.00
96.422 506.00
96.4872 566.00
96.5524 511.00
96.6176 486.00
96.6828 410.00
96.748 382.00
96.8132 401.00
96.8784 422.00
96.9436 396.00
97.0088 378.00
97.074 418.00
97.1392 398.00
97.2044 384.00
97.2696 407.00
97.3348 388.00
97.4 401.00
97.4652 379.00
97.5304 395.00
97.5956 357.00
97.6608 380.00
97.726 376.00
97.7912 397.00
97.8564 394.00
97.9216 417.00
97.9868 406.00
98.052 436.00
98.1172 408.00
98.1824 431.00
98.2476 429.00
98.3128 471.00
98.378 398.00
98.4432 452.00
98.5084 417.00
98.5736 427.00
98.6388 512.00
98.704 474.00
98.7692 451.00
98.8344 431.00
98.8996 386.00
98.9648 437.00
99.03 430.00
99.0952 417.00
99.1604 436.00
99.2256 371.00
99.2908 422.00
99.356 420.00
99.4212 417.00
99.4864 397.00
99.5516 433.00
99.6168 387.00
99.682 354.00
99.7472 414.00
99.8124 382.00
99.8776 419.00
99.9428 382.00
100.008 359.00
100.073 399.00
100.095 394.00