File: data/xrd_creation/results/Na_74.xy
9.903433 2884.00
9.968632 2857.00
10.0338 2838.00
10.099 2720.00
10.1642 2798.00
10.2294 2758.00
10.2946 2844.00
10.3598 2677.00
10.425 2630.00
10.4902 2580.00
10.5554 2552.00
10.6206 2587.00
10.6858 2656.00
10.751 2804.00
10.8162 2689.00
10.8814 2741.00
10.9466 2617.00
11.0118 2645.00
11.077 2556.00
11.1422 2541.00
11.2074 2527.00
11.2726 2512.00
11.3378 2482.00
11.403 2510.00
11.4682 2468.00
11.5334 2597.00
11.5986 2793.00
11.6638 2788.00
11.729 2917.00
11.7942 2558.00
11.8594 2340.00
11.9246 2250.00
11.9898 2304.00
12.055 2310.00
12.1202 2200.00
12.1854 2278.00
12.2506 2169.00
12.3158 2205.00
12.381 2171.00
12.4462 2215.00
12.5114 2157.00
12.5766 2348.00
12.6418 2189.00
12.707 2307.00
12.7722 2404.00
12.8374 2440.00
12.9026 2251.00
12.9678 2102.00
13.033 2066.00
13.0982 1968.00
13.1634 2057.00
13.2286 1995.00
13.2938 1979.00
13.359 2096.00
13.4242 2049.00
13.4894 2009.00
13.5546 1988.00
13.6198 2026.00
13.685 2055.00
13.7502 1977.00
13.8154 1972.00
13.8805 2077.00
13.9457 2041.00
14.0109 1996.00
14.0761 1920.00
14.1413 1929.00
14.2065 1848.00
14.2717 1946.00
14.3369 1895.00
14.4021 1884.00
14.4673 1934.00
14.5325 1940.00
14.5977 1906.00
14.6629 1998.00
14.7281 1852.00
14.7933 1798.00
14.8585 1849.00
14.9237 1890.00
14.9889 1792.00
15.0541 1729.00
15.1193 1818.00
15.1845 1871.00
15.2497 1696.00
15.3149 1754.00
15.3801 1702.00
15.4453 1793.00
15.5105 1796.00
15.5757 1729.00
15.6409 1690.00
15.7061 1743.00
15.7713 1687.00
15.8365 1762.00
15.9017 1669.00
15.9669 1736.00
16.0321 1654.00
16.0973 1723.00
16.1625 1743.00
16.2277 1727.00
16.2929 1777.00
16.3581 1759.00
16.4233 1614.00
16.4885 1598.00
16.5537 1695.00
16.6189 1700.00
16.6841 1704.00
16.7493 1613.00
16.8145 1685.00
16.8797 1601.00
16.9449 1550.00
17.0101 1627.00
17.0753 1650.00
17.1405 1653.00
17.2057 1791.00
17.2709 1928.00
17.3361 2050.00
17.4013 2141.00
17.4665 1990.00
17.5317 2004.00
17.5969 2157.00
17.6621 2743.00
17.7273 3606.00
17.7925 4035.00
17.8577 2662.00
17.9229 1855.00
17.9881 1585.00
18.0533 1559.00
18.1185 1541.00
18.1837 1601.00
18.2489 1687.00
18.3141 1628.00
18.3793 1636.00
18.4445 1510.00
18.5097 1597.00
18.5749 1735.00
18.6401 1861.00
18.7052 1919.00
18.7704 1652.00
18.8356 1559.00
18.9008 1532.00
18.966 1515.00
19.0312 1599.00
19.0964 1674.00
19.1616 1678.00
19.2268 1732.00
19.292 1669.00
19.3572 1740.00
19.4224 1602.00
19.4876 1525.00
19.5528 1407.00
19.618 1391.00
19.6832 1403.00
19.7484 1407.00
19.8136 1393.00
19.8788 1324.00
19.944 1423.00
20.0092 1462.00
20.0744 1656.00
20.1396 1975.00
20.2048 2577.00
20.27 3036.00
20.3352 3202.00
20.4004 2592.00
20.4656 1972.00
20.5308 1685.00
20.596 1623.00
20.6612 1521.00
20.7264 1625.00
20.7916 1585.00
20.8568 1370.00
20.922 1316.00
20.9872 1299.00
21.0524 1445.00
21.1176 1469.00
21.1828 1539.00
21.248 1531.00
21.3132 1376.00
21.3784 1423.00
21.4436 1498.00
21.5088 1660.00
21.574 1849.00
21.6392 1953.00
21.7044 1711.00
21.7696 1380.00
21.8348 1267.00
21.9 1301.00
21.9652 1187.00
22.0304 1221.00
22.0956 1239.00
22.1608 1373.00
22.226 1300.00
22.2912 1360.00
22.3564 1403.00
22.4216 1480.00
22.4868 1823.00
22.552 2530.00
22.6172 3888.00
22.6824 4876.00
22.7476 3227.00
22.8128 1681.00
22.878 1419.00
22.9432 1329.00
23.0084 1457.00
23.0736 1817.00
23.1388 2422.00
23.204 3581.00
23.2692 3982.00
23.3344 2879.00
23.3996 2409.00
23.4647 3118.00
23.5299 3699.00
23.5951 2550.00
23.6603 1841.00
23.7255 1832.00
23.7907 1617.00
23.8559 1210.00
23.9211 1103.00
23.9863 1089.00
24.0515 1124.00
24.1167 1043.00
24.1819 1034.00
24.2471 1060.00
24.3123 1101.00
24.3775 1069.00
24.4427 1076.00
24.5079 1117.00
24.5731 1069.00
24.6383 1069.00
24.7035 1045.00
24.7687 1085.00
24.8339 1087.00
24.8991 1071.00
24.9643 1100.00
25.0295 1059.00
25.0947 1135.00
25.1599 1184.00
25.2251 1236.00
25.2903 1586.00
25.3555 2270.00
25.4207 3662.00
25.4859 4404.00
25.5511 3190.00
25.6163 1998.00
25.6815 2108.00
25.7467 2854.00
25.8119 3624.00
25.8771 2642.00
25.9423 1827.00
26.0075 1539.00
26.0727 1434.00
26.1379 1317.00
26.2031 1159.00
26.2683 1172.00
26.3335 1283.00
26.3987 1272.00
26.4639 1308.00
26.5291 1292.00
26.5943 1240.00
26.6595 1312.00
26.7247 1439.00
26.7899 1413.00
26.8551 1453.00
26.9203 1842.00
26.9855 2428.00
27.0507 2244.00
27.1159 1471.00
27.1811 1231.00
27.2463 1263.00
27.3115 1490.00
27.3767 1475.00
27.4419 1299.00
27.5071 1209.00
27.5723 1010.00
27.6375 1060.00
27.7027 1024.00
27.7679 1024.00
27.8331 968.00
27.8983 999.00
27.9635 1093.00
28.0287 1217.00
28.0939 1493.00
28.1591 1454.00
28.2243 1292.00
28.2894 1109.00
28.3546 1056.00
28.4198 1039.00
28.485 972.00
28.5502 1019.00
28.6154 968.00
28.6806 968.00
28.7458 981.00
28.811 897.00
28.8762 1017.00
28.9414 1100.00
29.0066 1348.00
29.0718 1579.00
29.137 1941.00
29.2022 1895.00
29.2674 1729.00
29.3326 1547.00
29.3978 1415.00
29.463 1260.00
29.5282 1253.00
29.5934 1636.00
29.6586 2245.00
29.7238 3342.00
29.789 3372.00
29.8542 2232.00
29.9194 1299.00
29.9846 1044.00
30.0498 1054.00
30.115 1068.00
30.1802 1019.00
30.2454 1036.00
30.3106 1020.00
30.3758 972.00
30.441 847.00
30.5062 854.00
30.5714 861.00
30.6366 907.00
30.7018 850.00
30.767 863.00
30.8322 936.00
30.8974 1072.00
30.9626 1470.00
31.0278 1881.00
31.093 2388.00
31.1582 2366.00
31.2234 1889.00
31.2886 1703.00
31.3538 1893.00
31.419 1870.00
31.4842 1586.00
31.5494 1286.00
31.6146 1241.00
31.6798 1488.00
31.745 2356.00
31.8102 4455.00
31.8754 8070.00
31.9406 7893.00
32.0058 4492.00
32.071 2286.00
32.1362 1968.00
32.2014 2426.00
32.2666 3271.00
32.3318 4025.00
32.397 3568.00
32.4622 4410.00
32.5274 6464.00
32.5926 6880.00
32.6578 5464.00
32.723 3404.00
32.7882 2149.00
32.8534 2070.00
32.9186 2083.00
32.9838 2247.00
33.0489 2743.00
33.1141 4412.00
33.1793 6598.00
33.2445 6073.00
33.3097 4277.00
33.3749 2850.00
33.4401 2204.00
33.5053 1718.00
33.5705 1542.00
33.6357 1734.00
33.7009 2105.00
33.7661 2431.00
33.8313 1960.00
33.8965 1555.00
33.9617 1332.00
34.0269 1253.00
34.0921 1214.00
34.1573 1421.00
34.2225 1909.00
34.2877 2993.00
34.3529 5016.00
34.4181 5232.00
34.4833 3364.00
34.5485 1830.00
34.6137 1474.00
34.6789 1350.00
34.7441 1378.00
34.8093 1323.00
34.8745 1495.00
34.9397 1448.00
35.0049 1391.00
35.0701 1309.00
35.1353 1165.00
35.2005 965.00
35.2657 850.00
35.3309 874.00
35.3961 958.00
35.4613 994.00
35.5265 962.00
35.5917 1075.00
35.6569 1172.00
35.7221 1159.00
35.7873 1013.00
35.8525 929.00
35.9177 922.00
35.9829 871.00
36.0481 848.00
36.1133 919.00
36.1785 886.00
36.2437 866.00
36.3089 995.00
36.3741 1412.00
36.4393 1598.00
36.5045 1162.00
36.5697 857.00
36.6349 792.00
36.7001 827.00
36.7653 887.00
36.8305 868.00
36.8957 860.00
36.9609 767.00
37.0261 774.00
37.0913 843.00
37.1565 839.00
37.2217 834.00
37.2869 784.00
37.3521 875.00
37.4173 1100.00
37.4825 1557.00
37.5477 1779.00
37.6129 1607.00
37.6781 1275.00
37.7433 940.00
37.8085 817.00
37.8736 708.00
37.9388 643.00
38.004 660.00
38.0692 618.00
38.1344 683.00
38.1996 602.00
38.2648 639.00
38.33 696.00
38.3952 749.00
38.4604 740.00
38.5256 728.00
38.5908 834.00
38.656 814.00
38.7212 957.00
38.7864 891.00
38.8516 815.00
38.9168 885.00
38.982 891.00
39.0472 756.00
39.1124 687.00
39.1776 728.00
39.2428 754.00
39.308 800.00
39.3732 765.00
39.4384 831.00
39.5036 930.00
39.5688 913.00
39.634 849.00
39.6992 849.00
39.7644 785.00
39.8296 739.00
39.8948 652.00
39.96 690.00
40.0252 666.00
40.0904 782.00
40.1556 936.00
40.2208 1228.00
40.286 1241.00
40.3512 1039.00
40.4164 849.00
40.4816 673.00
40.5468 668.00
40.612 603.00
40.6772 593.00
40.7424 599.00
40.8076 670.00
40.8728 908.00
40.938 1003.00
41.0032 1236.00
41.0684 1562.00
41.1336 1763.00
41.1988 1521.00
41.264 1168.00
41.3292 805.00
41.3944 697.00
41.4596 679.00
41.5248 706.00
41.59 769.00
41.6552 905.00
41.7204 1212.00
41.7856 1356.00
41.8508 1432.00
41.916 1293.00
41.9812 1146.00
42.0464 833.00
42.1116 796.00
42.1768 701.00
42.242 835.00
42.3072 912.00
42.3724 1030.00
42.4376 912.00
42.5028 773.00
42.568 673.00
42.6332 677.00
42.6983 723.00
42.7635 754.00
42.8287 677.00
42.8939 686.00
42.9591 723.00
43.0243 650.00
43.0895 695.00
43.1547 723.00
43.2199 694.00
43.2851 762.00
43.3503 858.00
43.4155 943.00
43.4807 883.00
43.5459 890.00
43.6111 1017.00
43.6763 1418.00
43.7415 1698.00
43.8067 2007.00
43.8719 2240.00
43.9371 1977.00
44.0023 1509.00
44.0675 1056.00
44.1327 882.00
44.1979 804.00
44.2631 837.00
44.3283 846.00
44.3935 814.00
44.4587 719.00
44.5239 693.00
44.5891 627.00
44.6543 619.00
44.7195 614.00
44.7847 609.00
44.8499 633.00
44.9151 657.00
44.9803 648.00
45.0455 638.00
45.1107 576.00
45.1759 640.00
45.2411 616.00
45.3063 620.00
45.3715 754.00
45.4367 718.00
45.5019 785.00
45.5671 797.00
45.6323 812.00
45.6975 847.00
45.7627 849.00
45.8279 1015.00
45.8931 1559.00
45.9583 2030.00
46.0235 1757.00
46.0887 1396.00
46.1539 952.00
46.2191 808.00
46.2843 727.00
46.3495 760.00
46.4147 775.00
46.4799 721.00
46.5451 667.00
46.6103 634.00
46.6755 635.00
46.7407 704.00
46.8059 810.00
46.8711 768.00
46.9363 887.00
47.0015 1144.00
47.0667 1749.00
47.1319 2553.00
47.1971 2750.00
47.2623 2298.00
47.3275 1818.00
47.3927 1319.00
47.4579 1298.00
47.523 1527.00
47.5882 1542.00
47.6534 1970.00
47.7186 2705.00
47.7838 2635.00
47.849 2243.00
47.9142 1535.00
47.9794 1065.00
48.0446 819.00
48.1098 713.00
48.175 722.00
48.2402 689.00
48.3054 762.00
48.3706 726.00
48.4358 734.00
48.501 623.00
48.5662 633.00
48.6314 645.00
48.6966 623.00
48.7618 592.00
48.827 591.00
48.8922 644.00
48.9574 583.00
49.0226 583.00
49.0878 575.00
49.153 551.00
49.2182 525.00
49.2834 568.00
49.3486 543.00
49.4138 560.00
49.479 587.00
49.5442 575.00
49.6094 613.00
49.6746 665.00
49.7398 617.00
49.805 676.00
49.8702 695.00
49.9354 618.00
50.0006 646.00
50.0658 671.00
50.131 753.00
50.1962 700.00
50.2614 638.00
50.3266 565.00
50.3918 585.00
50.457 518.00
50.5222 532.00
50.5874 528.00
50.6526 478.00
50.7178 498.00
50.783 506.00
50.8482 567.00
50.9134 609.00
50.9786 772.00
51.0438 840.00
51.109 836.00
51.1742 772.00
51.2394 673.00
51.3046 639.00
51.3698 634.00
51.435 614.00
51.5002 647.00
51.5654 624.00
51.6306 644.00
51.6958 641.00
51.761 800.00
51.8262 807.00
51.8914 879.00
51.9566 831.00
52.0218 801.00
52.087 811.00
52.1522 750.00
52.2174 795.00
52.2826 769.00
52.3477 678.00
52.4129 703.00
52.4781 786.00
52.5433 991.00
52.6085 1456.00
52.6737 1883.00
52.7389 1598.00
52.8041 1390.00
52.8693 1091.00
52.9345 814.00
52.9997 709.00
53.0649 721.00
53.1301 812.00
53.1953 866.00
53.2605 1021.00
53.3257 1115.00
53.3909 1069.00
53.4561 956.00
53.5213 908.00
53.5865 836.00
53.6517 783.00
53.7169 803.00
53.7821 684.00
53.8473 701.00
53.9125 685.00
53.9777 756.00
54.0429 752.00
54.1081 762.00
54.1733 757.00
54.2385 702.00
54.3037 643.00
54.3689 702.00
54.4341 719.00
54.4993 789.00
54.5645 861.00
54.6297 856.00
54.6949 894.00
54.7601 857.00
54.8253 804.00
54.8905 801.00
54.9557 940.00
55.0209 1002.00
55.0861 861.00
55.1513 753.00
55.2165 679.00
55.2817 511.00
55.3469 517.00
55.4121 476.00
55.4773 500.00
55.5425 456.00
55.6077 437.00
55.6729 429.00
55.7381 420.00
55.8033 457.00
55.8685 492.00
55.9337 478.00
55.9989 539.00
56.0641 553.00
56.1293 565.00
56.1945 619.00
56.2597 666.00
56.3249 607.00
56.3901 615.00
56.4553 745.00
56.5205 889.00
56.5857 895.00
56.6509 884.00
56.7161 837.00
56.7813 704.00
56.8465 647.00
56.9117 651.00
56.9769 696.00
57.042 830.00
57.1073 1125.00
57.1724 1253.00
57.2376 1234.00
57.3028 1022.00
57.368 1098.00
57.4332 1070.00
57.4984 1077.00
57.5636 861.00
57.6288 826.00
57.694 749.00
57.7592 892.00
57.8244 956.00
57.8896 786.00
57.9548 781.00
58.02 715.00
58.0852 628.00
58.1504 552.00
58.2156 538.00
58.2808 497.00
58.346 461.00
58.4112 461.00
58.4764 462.00
58.5416 458.00
58.6068 517.00
58.672 651.00
58.7372 736.00
58.8024 778.00
58.8676 757.00
58.9328 759.00
58.998 679.00
59.0632 642.00
59.1284 627.00
59.1936 642.00
59.2588 596.00
59.324 644.00
59.3892 664.00
59.4544 685.00
59.5196 675.00
59.5848 728.00
59.65 728.00
59.7152 876.00
59.7804 977.00
59.8456 1042.00
59.9108 946.00
59.976 836.00
60.0412 750.00
60.1064 706.00
60.1716 695.00
60.2368 645.00
60.302 613.00
60.3672 568.00
60.4324 542.00
60.4976 512.00
60.5628 554.00
60.628 646.00
60.6932 775.00
60.7584 792.00
60.8236 813.00
60.8888 874.00
60.954 779.00
61.0192 693.00
61.0844 714.00
61.1496 650.00
61.2148 554.00
61.28 572.00
61.3452 496.00
61.4104 523.00
61.4756 502.00
61.5408 439.00
61.606 450.00
61.6712 507.00
61.7364 436.00
61.8016 461.00
61.8667 435.00
61.932 390.00
61.9971 415.00
62.0623 452.00
62.1275 437.00
62.1927 461.00
62.2579 509.00
62.3231 445.00
62.3883 510.00
62.4535 490.00
62.5187 490.00
62.5839 530.00
62.6491 526.00
62.7143 549.00
62.7795 476.00
62.8447 517.00
62.9099 489.00
62.9751 504.00
63.0403 554.00
63.1055 581.00
63.1707 649.00
63.2359 607.00
63.3011 622.00
63.3663 622.00
63.4315 582.00
63.4967 657.00
63.5619 705.00
63.6271 718.00
63.6923 701.00
63.7575 671.00
63.8227 649.00
63.8879 631.00
63.9531 608.00
64.0183 566.00
64.0835 541.00
64.1487 604.00
64.2139 626.00
64.2791 677.00
64.3443 617.00
64.4095 606.00
64.4747 563.00
64.5399 496.00
64.6051 526.00
64.6703 621.00
64.7355 651.00
64.8007 666.00
64.8659 673.00
64.9311 630.00
64.9963 572.00
65.0615 520.00
65.1267 503.00
65.1919 494.00
65.2571 456.00
65.3223 452.00
65.3875 498.00
65.4527 470.00
65.5179 549.00
65.5831 548.00
65.6483 618.00
65.7135 667.00
65.7787 703.00
65.8439 683.00
65.9091 657.00
65.9743 632.00
66.0395 569.00
66.1047 558.00
66.1699 640.00
66.2351 762.00
66.3003 799.00
66.3655 700.00
66.4307 707.00
66.4959 669.00
66.561 536.00
66.6263 509.00
66.6915 586.00
66.7566 576.00
66.8218 566.00
66.887 558.00
66.9522 539.00
67.0174 498.00
67.0826 502.00
67.1478 492.00
67.213 470.00
67.2782 461.00
67.3434 469.00
67.4086 463.00
67.4738 471.00
67.539 485.00
67.6042 568.00
67.6694 689.00
67.7346 701.00
67.7998 684.00
67.865 681.00
67.9302 717.00
67.9954 587.00
68.0606 556.00
68.1258 512.00
68.191 440.00
68.2562 360.00
68.3214 426.00
68.3866 354.00
68.4518 379.00
68.517 373.00
68.5822 320.00
68.6474 349.00
68.7126 396.00
68.7778 339.00
68.843 382.00
68.9082 343.00
68.9734 339.00
69.0386 438.00
69.1038 450.00
69.169 559.00
69.2342 630.00
69.2994 763.00
69.3646 741.00
69.4298 746.00
69.495 627.00
69.5602 588.00
69.6254 580.00
69.6906 500.00
69.7558 494.00
69.821 480.00
69.8862 470.00
69.9514 428.00
70.0166 408.00
70.0818 398.00
70.147 407.00
70.2122 415.00
70.2774 484.00
70.3426 579.00
70.4078 569.00
70.473 530.00
70.5382 560.00
70.6034 557.00
70.6686 572.00
70.7338 572.00
70.799 562.00
70.8642 523.00
70.9294 533.00
70.9946 460.00
71.0598 458.00
71.125 435.00
71.1902 418.00
71.2554 398.00
71.3205 397.00
71.3858 411.00
71.451 391.00
71.5162 417.00
71.5813 388.00
71.6465 455.00
71.7117 480.00
71.7769 604.00
71.8421 626.00
71.9073 646.00
71.9725 748.00
72.0377 757.00
72.1029 676.00
72.1681 582.00
72.2333 537.00
72.2985 472.00
72.3637 403.00
72.4289 407.00
72.4941 448.00
72.5593 497.00
72.6245 497.00
72.6897 503.00
72.7549 521.00
72.8201 531.00
72.8853 566.00
72.9505 568.00
73.0157 531.00
73.0809 495.00
73.1461 496.00
73.2113 468.00
73.2765 422.00
73.3417 398.00
73.4069 412.00
73.4721 371.00
73.5373 390.00
73.6025 389.00
73.6677 362.00
73.7329 395.00
73.7981 381.00
73.8633 367.00
73.9285 361.00
73.9937 377.00
74.0589 386.00
74.1241 374.00
74.1893 382.00
74.2545 394.00
74.3197 379.00
74.3849 371.00
74.4501 361.00
74.5153 368.00
74.5805 418.00
74.6457 375.00
74.7109 393.00
74.7761 349.00
74.8413 346.00
74.9065 388.00
74.9717 382.00
75.0369 360.00
75.1021 393.00
75.1673 440.00
75.2325 392.00
75.2977 455.00
75.3629 450.00
75.4281 462.00
75.4933 431.00
75.5585 429.00
75.6237 428.00
75.6889 420.00
75.7541 374.00
75.8193 393.00
75.8845 380.00
75.9497 387.00
76.0149 423.00
76.0801 465.00
76.1452 485.00
76.2104 453.00
76.2756 498.00
76.3409 456.00
76.406 444.00
76.4712 455.00
76.5364 449.00
76.6016 411.00
76.6668 390.00
76.732 390.00
76.7972 378.00
76.8624 394.00
76.9276 380.00
76.9928 427.00
77.058 481.00
77.1232 460.00
77.1884 460.00
77.2536 424.00
77.3188 419.00
77.384 386.00
77.4492 368.00
77.5144 387.00
77.5796 384.00
77.6448 366.00
77.71 418.00
77.7752 435.00
77.8404 497.00
77.9056 472.00
77.9708 443.00
78.036 467.00
78.1012 518.00
78.1664 450.00
78.2316 403.00
78.2968 423.00
78.362 442.00
78.4272 394.00
78.4924 398.00
78.5576 430.00
78.6228 365.00
78.688 373.00
78.7532 354.00
78.8184 351.00
78.8836 388.00
78.9488 389.00
79.014 351.00
79.0792 385.00
79.1444 412.00
79.2096 426.00
79.2748 407.00
79.34 399.00
79.4052 407.00
79.4704 425.00
79.5356 473.00
79.6008 443.00
79.666 528.00
79.7312 465.00
79.7964 432.00
79.8616 455.00
79.9268 402.00
79.992 381.00
80.0572 376.00
80.1224 425.00
80.1876 421.00
80.2528 512.00
80.318 594.00
80.3832 548.00
80.4484 513.00
80.5136 476.00
80.5788 519.00
80.644 480.00
80.7092 473.00
80.7744 445.00
80.8396 425.00
80.9048 432.00
80.9699 431.00
81.0351 442.00
81.1003 511.00
81.1655 507.00
81.2307 524.00
81.2959 585.00
81.3611 574.00
81.4263 530.00
81.4915 542.00
81.5567 522.00
81.6219 463.00
81.6871 429.00
81.7523 450.00
81.8175 399.00
81.8827 399.00
81.9479 363.00
82.0131 357.00
82.0783 356.00
82.1435 429.00
82.2087 370.00
82.2739 373.00
82.3391 347.00
82.4043 360.00
82.4695 367.00
82.5347 348.00
82.5999 359.00
82.6651 357.00
82.7303 316.00
82.7955 309.00
82.8607 317.00
82.9259 286.00
82.9911 316.00
83.0563 286.00
83.1215 310.00
83.1867 377.00
83.2519 391.00
83.3171 412.00
83.3823 414.00
83.4475 434.00
83.5127 433.00
83.5779 420.00
83.6431 402.00
83.7083 396.00
83.7735 371.00
83.8387 374.00
83.9039 379.00
83.9691 398.00
84.0343 401.00
84.0995 423.00
84.1647 400.00
84.2299 415.00
84.2951 399.00
84.3603 378.00
84.4255 391.00
84.4907 414.00
84.5559 393.00
84.6211 433.00
84.6863 391.00
84.7515 353.00
84.8167 359.00
84.8819 399.00
84.9471 365.00
85.0123 391.00
85.0775 406.00
85.1427 412.00
85.2079 392.00
85.2731 408.00
85.3383 423.00
85.4035 397.00
85.4687 390.00
85.5339 374.00
85.5991 335.00
85.6643 342.00
85.7295 368.00
85.7946 347.00
85.8598 375.00
85.925 405.00
85.9903 425.00
86.0554 436.00
86.1206 425.00
86.1858 379.00
86.251 455.00
86.3162 446.00
86.3814 418.00
86.4466 424.00
86.5118 408.00
86.577 355.00
86.6422 367.00
86.7074 420.00
86.7726 416.00
86.8378 432.00
86.903 454.00
86.9682 391.00
87.0334 415.00
87.0986 400.00
87.1638 423.00
87.229 412.00
87.2942 354.00
87.3594 402.00
87.4246 354.00
87.4898 397.00
87.555 379.00
87.6202 438.00
87.6854 410.00
87.7506 379.00
87.8158 391.00
87.881 356.00
87.9462 372.00
88.0114 348.00
88.0766 395.00
88.1418 421.00
88.207 465.00
88.2722 427.00
88.3374 440.00
88.4026 459.00
88.4678 426.00
88.533 469.00
88.5982 443.00
88.6634 443.00
88.7286 446.00
88.7938 421.00
88.859 417.00
88.9242 405.00
88.9894 376.00
89.0546 424.00
89.1198 409.00
89.185 410.00
89.2502 388.00
89.3154 352.00
89.3806 359.00
89.4458 375.00
89.511 356.00
89.5762 356.00
89.6414 335.00
89.7066 361.00
89.7718 342.00
89.837 358.00
89.9022 333.00
89.9674 335.00
90.0326 371.00
90.0978 345.00
90.163 349.00
90.2282 348.00
90.2934 380.00
90.3586 415.00
90.4238 438.00
90.489 420.00
90.5542 400.00
90.6193 408.00
90.6845 375.00
90.7497 403.00
90.8149 378.00
90.8801 382.00
90.9453 325.00
91.0105 379.00
91.0757 359.00
91.1409 308.00
91.2061 326.00
91.2713 336.00
91.3365 335.00
91.4017 317.00
91.4669 364.00
91.5321 391.00
91.5973 432.00
91.6625 397.00
91.7277 457.00
91.7929 404.00
91.8581 421.00
91.9233 458.00
91.9885 412.00
92.0537 435.00
92.1189 355.00
92.1841 338.00
92.2493 361.00
92.3145 356.00
92.3797 356.00
92.4449 379.00
92.5101 359.00
92.5753 434.00
92.6405 380.00
92.7057 409.00
92.7709 386.00
92.8361 388.00
92.9013 411.00
92.9665 381.00
93.0317 386.00
93.0969 404.00
93.1621 354.00
93.2273 368.00
93.2925 355.00
93.3577 349.00
93.4229 380.00
93.4881 403.00
93.5533 381.00
93.6185 345.00
93.6837 370.00
93.7489 395.00
93.8141 462.00
93.8793 377.00
93.9445 379.00
94.0097 392.00
94.0749 380.00
94.1401 407.00
94.2053 391.00
94.2705 393.00
94.3357 344.00
94.4009 356.00
94.4661 339.00
94.5313 312.00
94.5965 403.00
94.6617 375.00
94.7269 381.00
94.7921 388.00
94.8573 373.00
94.9225 393.00
94.9877 375.00
95.0529 410.00
95.1181 373.00
95.1833 440.00
95.2485 455.00
95.3137 504.00
95.3789 473.00
95.444 468.00
95.5092 463.00
95.5744 431.00
95.6396 494.00
95.7048 487.00
95.77 476.00
95.8352 472.00
95.9004 447.00
95.9656 429.00
96.0308 439.00
96.096 440.00
96.1612 400.00
96.2264 412.00
96.2916 415.00
96.3568 380.00
96.422 361.00
96.4872 375.00
96.5524 390.00
96.6176 321.00
96.6828 395.00
96.748 349.00
96.8132 285.00
96.8784 331.00
96.9436 371.00
97.0088 368.00
97.074 306.00
97.1392 312.00
97.2044 364.00
97.2696 311.00
97.3348 387.00
97.4 356.00
97.4652 316.00
97.5304 319.00
97.5956 327.00
97.6608 312.00
97.726 327.00
97.7912 333.00
97.8564 317.00
97.9216 339.00
97.9868 334.00
98.052 342.00
98.1172 339.00
98.1824 341.00
98.2476 319.00
98.3128 344.00
98.378 314.00
98.4432 305.00
98.5084 328.00
98.5736 364.00
98.6388 339.00
98.704 341.00
98.7692 347.00
98.8344 346.00
98.8996 355.00
98.9648 344.00
99.03 352.00
99.0952 339.00
99.1604 333.00
99.2256 339.00
99.2908 321.00
99.356 328.00
99.4212 339.00
99.4864 322.00
99.5516 321.00
99.6168 315.00
99.682 333.00
99.7472 315.00
99.8124 363.00
99.8776 365.00
99.9428 396.00
100.008 403.00
100.073 383.00
100.095 384.00