File: data/xrd_creation/results/Na_75.xy
9.903433 2565.00
9.968632 2478.00
10.0338 2501.00
10.099 2487.00
10.1642 2400.00
10.2294 2445.00
10.2946 2424.00
10.3598 2437.00
10.425 2379.00
10.4902 2372.00
10.5554 2396.00
10.6206 2356.00
10.6858 2345.00
10.751 2333.00
10.8162 2233.00
10.8814 2268.00
10.9466 2211.00
11.0118 2255.00
11.077 2109.00
11.1422 2009.00
11.2074 2101.00
11.2726 2123.00
11.3378 2122.00
11.403 2107.00
11.4682 2033.00
11.5334 2082.00
11.5986 2021.00
11.6638 1944.00
11.729 2008.00
11.7942 2008.00
11.8594 1991.00
11.9246 1884.00
11.9898 1903.00
12.055 1797.00
12.1202 1923.00
12.1854 1907.00
12.2506 1853.00
12.3158 1837.00
12.381 1747.00
12.4462 1774.00
12.5114 1766.00
12.5766 1708.00
12.6418 1684.00
12.707 1750.00
12.7722 1710.00
12.8374 1672.00
12.9026 1692.00
12.9678 1707.00
13.033 1682.00
13.0982 1692.00
13.1634 1678.00
13.2286 1534.00
13.2938 1648.00
13.359 1598.00
13.4242 1554.00
13.4894 1567.00
13.5546 1566.00
13.6198 1627.00
13.685 1559.00
13.7502 1529.00
13.8154 1516.00
13.8805 1515.00
13.9457 1493.00
14.0109 1550.00
14.0761 1482.00
14.1413 1503.00
14.2065 1486.00
14.2717 1570.00
14.3369 1458.00
14.4021 1490.00
14.4673 1491.00
14.5325 1385.00
14.5977 1425.00
14.6629 1478.00
14.7281 1423.00
14.7933 1432.00
14.8585 1397.00
14.9237 1356.00
14.9889 1402.00
15.0541 1360.00
15.1193 1378.00
15.1845 1334.00
15.2497 1327.00
15.3149 1366.00
15.3801 1312.00
15.4453 1281.00
15.5105 1287.00
15.5757 1302.00
15.6409 1277.00
15.7061 1317.00
15.7713 1359.00
15.8365 1312.00
15.9017 1338.00
15.9669 1247.00
16.0321 1299.00
16.0973 1291.00
16.1625 1308.00
16.2277 1212.00
16.2929 1235.00
16.3581 1195.00
16.4233 1292.00
16.4885 1216.00
16.5537 1278.00
16.6189 1160.00
16.6841 1252.00
16.7493 1259.00
16.8145 1205.00
16.8797 1242.00
16.9449 1301.00
17.0101 1192.00
17.0753 1213.00
17.1405 1159.00
17.2057 1264.00
17.2709 1272.00
17.3361 1239.00
17.4013 1264.00
17.4665 1222.00
17.5317 1156.00
17.5969 1137.00
17.6621 1095.00
17.7273 1151.00
17.7925 1144.00
17.8577 1128.00
17.9229 1112.00
17.9881 1098.00
18.0533 1134.00
18.1185 1067.00
18.1837 1083.00
18.2489 1099.00
18.3141 1157.00
18.3793 1094.00
18.4445 1129.00
18.5097 1083.00
18.5749 1057.00
18.6401 1046.00
18.7052 1041.00
18.7704 1028.00
18.8356 1047.00
18.9008 1017.00
18.966 1016.00
19.0312 1000.00
19.0964 1001.00
19.1616 1029.00
19.2268 1038.00
19.292 1021.00
19.3572 945.00
19.4224 924.00
19.4876 1034.00
19.5528 987.00
19.618 940.00
19.6832 1011.00
19.7484 997.00
19.8136 1031.00
19.8788 1034.00
19.944 1037.00
20.0092 936.00
20.0744 1008.00
20.1396 910.00
20.2048 996.00
20.27 976.00
20.3352 972.00
20.4004 973.00
20.4656 928.00
20.5308 986.00
20.596 957.00
20.6612 942.00
20.7264 936.00
20.7916 886.00
20.8568 940.00
20.922 941.00
20.9872 878.00
21.0524 905.00
21.1176 958.00
21.1828 920.00
21.248 923.00
21.3132 926.00
21.3784 944.00
21.4436 912.00
21.5088 846.00
21.574 873.00
21.6392 863.00
21.7044 833.00
21.7696 863.00
21.8348 868.00
21.9 830.00
21.9652 824.00
22.0304 886.00
22.0956 848.00
22.1608 908.00
22.226 911.00
22.2912 924.00
22.3564 917.00
22.4216 884.00
22.4868 854.00
22.552 873.00
22.6172 839.00
22.6824 840.00
22.7476 900.00
22.8128 936.00
22.878 887.00
22.9432 801.00
23.0084 856.00
23.0736 903.00
23.1388 892.00
23.204 809.00
23.2692 785.00
23.3344 797.00
23.3996 783.00
23.4647 791.00
23.5299 767.00
23.5951 773.00
23.6603 775.00
23.7255 780.00
23.7907 773.00
23.8559 777.00
23.9211 782.00
23.9863 752.00
24.0515 776.00
24.1167 756.00
24.1819 759.00
24.2471 801.00
24.3123 753.00
24.3775 761.00
24.4427 728.00
24.5079 780.00
24.5731 780.00
24.6383 724.00
24.7035 764.00
24.7687 732.00
24.8339 727.00
24.8991 745.00
24.9643 850.00
25.0295 858.00
25.0947 948.00
25.1599 908.00
25.2251 752.00
25.2903 784.00
25.3555 806.00
25.4207 866.00
25.4859 803.00
25.5511 744.00
25.6163 737.00
25.6815 731.00
25.7467 679.00
25.8119 670.00
25.8771 748.00
25.9423 714.00
26.0075 667.00
26.0727 711.00
26.1379 721.00
26.2031 686.00
26.2683 749.00
26.3335 747.00
26.3987 689.00
26.4639 697.00
26.5291 729.00
26.5943 693.00
26.6595 703.00
26.7247 677.00
26.7899 666.00
26.8551 676.00
26.9203 640.00
26.9855 669.00
27.0507 688.00
27.1159 665.00
27.1811 601.00
27.2463 667.00
27.3115 657.00
27.3767 673.00
27.4419 644.00
27.5071 669.00
27.5723 673.00
27.6375 661.00
27.7027 651.00
27.7679 663.00
27.8331 657.00
27.8983 612.00
27.9635 612.00
28.0287 661.00
28.0939 622.00
28.1591 642.00
28.2243 678.00
28.2894 723.00
28.3546 623.00
28.4198 651.00
28.485 627.00
28.5502 612.00
28.6154 622.00
28.6806 604.00
28.7458 664.00
28.811 634.00
28.8762 641.00
28.9414 632.00
29.0066 627.00
29.0718 626.00
29.137 631.00
29.2022 626.00
29.2674 648.00
29.3326 697.00
29.3978 659.00
29.463 659.00
29.5282 638.00
29.5934 604.00
29.6586 622.00
29.7238 647.00
29.789 613.00
29.8542 560.00
29.9194 585.00
29.9846 545.00
30.0498 559.00
30.115 613.00
30.1802 587.00
30.2454 560.00
30.3106 573.00
30.3758 557.00
30.441 578.00
30.5062 587.00
30.5714 579.00
30.6366 561.00
30.7018 593.00
30.767 576.00
30.8322 538.00
30.8974 566.00
30.9626 593.00
31.0278 624.00
31.093 570.00
31.1582 574.00
31.2234 550.00
31.2886 573.00
31.3538 594.00
31.419 678.00
31.4842 781.00
31.5494 784.00
31.6146 699.00
31.6798 597.00
31.745 575.00
31.8102 547.00
31.8754 626.00
31.9406 664.00
32.0058 699.00
32.071 682.00
32.1362 649.00
32.2014 715.00
32.2666 700.00
32.3318 605.00
32.397 574.00
32.4622 580.00
32.5274 574.00
32.5926 561.00
32.6578 628.00
32.723 669.00
32.7882 674.00
32.8534 658.00
32.9186 565.00
32.9838 561.00
33.0489 596.00
33.1141 539.00
33.1793 476.00
33.2445 546.00
33.3097 554.00
33.3749 578.00
33.4401 533.00
33.5053 505.00
33.5705 526.00
33.6357 523.00
33.7009 496.00
33.7661 507.00
33.8313 508.00
33.8965 553.00
33.9617 595.00
34.0269 611.00
34.0921 577.00
34.1573 564.00
34.2225 508.00
34.2877 521.00
34.3529 533.00
34.4181 490.00
34.4833 528.00
34.5485 505.00
34.6137 565.00
34.6789 487.00
34.7441 551.00
34.8093 466.00
34.8745 453.00
34.9397 476.00
35.0049 496.00
35.0701 441.00
35.1353 469.00
35.2005 421.00
35.2657 427.00
35.3309 458.00
35.3961 463.00
35.4613 440.00
35.5265 480.00
35.5917 462.00
35.6569 428.00
35.7221 443.00
35.7873 444.00
35.8525 450.00
35.9177 459.00
35.9829 445.00
36.0481 504.00
36.1133 457.00
36.1785 463.00
36.2437 433.00
36.3089 436.00
36.3741 415.00
36.4393 434.00
36.5045 434.00
36.5697 409.00
36.6349 413.00
36.7001 392.00
36.7653 427.00
36.8305 474.00
36.8957 450.00
36.9609 425.00
37.0261 416.00
37.0913 476.00
37.1565 488.00
37.2217 519.00
37.2869 457.00
37.3521 455.00
37.4173 413.00
37.4825 395.00
37.5477 411.00
37.6129 411.00
37.6781 441.00
37.7433 443.00
37.8085 394.00
37.8736 376.00
37.9388 392.00
38.004 403.00
38.0692 363.00
38.1344 390.00
38.1996 343.00
38.2648 394.00
38.33 407.00
38.3952 387.00
38.4604 391.00
38.5256 380.00
38.5908 377.00
38.656 401.00
38.7212 387.00
38.7864 411.00
38.8516 375.00
38.9168 377.00
38.982 391.00
39.0472 353.00
39.1124 370.00
39.1776 395.00
39.2428 372.00
39.308 391.00
39.3732 406.00
39.4384 399.00
39.5036 365.00
39.5688 424.00
39.634 354.00
39.6992 376.00
39.7644 387.00
39.8296 388.00
39.8948 384.00
39.96 368.00
40.0252 374.00
40.0904 375.00
40.1556 387.00
40.2208 359.00
40.286 379.00
40.3512 374.00
40.4164 374.00
40.4816 370.00
40.5468 372.00
40.612 367.00
40.6772 400.00
40.7424 390.00
40.8076 390.00
40.8728 381.00
40.938 386.00
41.0032 342.00
41.0684 360.00
41.1336 312.00
41.1988 355.00
41.264 388.00
41.3292 362.00
41.3944 355.00
41.4596 414.00
41.5248 349.00
41.59 356.00
41.6552 362.00
41.7204 400.00
41.7856 345.00
41.8508 346.00
41.916 328.00
41.9812 362.00
42.0464 340.00
42.1116 361.00
42.1768 339.00
42.242 324.00
42.3072 374.00
42.3724 346.00
42.4376 343.00
42.5028 361.00
42.568 309.00
42.6332 380.00
42.6983 353.00
42.7635 336.00
42.8287 380.00
42.8939 368.00
42.9591 378.00
43.0243 338.00
43.0895 353.00
43.1547 393.00
43.2199 363.00
43.2851 374.00
43.3503 402.00
43.4155 386.00
43.4807 383.00
43.5459 403.00
43.6111 403.00
43.6763 335.00
43.7415 358.00
43.8067 333.00
43.8719 333.00
43.9371 306.00
44.0023 331.00
44.0675 336.00
44.1327 317.00
44.1979 326.00
44.2631 335.00
44.3283 330.00
44.3935 330.00
44.4587 327.00
44.5239 316.00
44.5891 333.00
44.6543 314.00
44.7195 345.00
44.7847 280.00
44.8499 326.00
44.9151 310.00
44.9803 330.00
45.0455 309.00
45.1107 323.00
45.1759 310.00
45.2411 338.00
45.3063 333.00
45.3715 285.00
45.4367 310.00
45.5019 372.00
45.5671 393.00
45.6323 336.00
45.6975 344.00
45.7627 330.00
45.8279 303.00
45.8931 293.00
45.9583 353.00
46.0235 282.00
46.0887 333.00
46.1539 334.00
46.2191 299.00
46.2843 272.00
46.3495 310.00
46.4147 332.00
46.4799 357.00
46.5451 299.00
46.6103 299.00
46.6755 328.00
46.7407 341.00
46.8059 384.00
46.8711 387.00
46.9363 342.00
47.0015 325.00
47.0667 343.00
47.1319 328.00
47.1971 327.00
47.2623 391.00
47.3275 371.00
47.3927 391.00
47.4579 299.00
47.523 360.00
47.5882 277.00
47.6534 294.00
47.7186 289.00
47.7838 301.00
47.849 340.00
47.9142 314.00
47.9794 320.00
48.0446 329.00
48.1098 294.00
48.175 308.00
48.2402 240.00
48.3054 325.00
48.3706 304.00
48.4358 305.00
48.501 350.00
48.5662 257.00
48.6314 305.00
48.6966 277.00
48.7618 288.00
48.827 279.00
48.8922 273.00
48.9574 283.00
49.0226 327.00
49.0878 299.00
49.153 282.00
49.2182 308.00
49.2834 273.00
49.3486 292.00
49.4138 302.00
49.479 305.00
49.5442 263.00
49.6094 256.00
49.6746 302.00
49.7398 307.00
49.805 293.00
49.8702 264.00
49.9354 288.00
50.0006 300.00
50.0658 280.00
50.131 290.00
50.1962 283.00
50.2614 312.00
50.3266 274.00
50.3918 287.00
50.457 297.00
50.5222 282.00
50.5874 257.00
50.6526 317.00
50.7178 280.00
50.783 317.00
50.8482 302.00
50.9134 311.00
50.9786 290.00
51.0438 262.00
51.109 301.00
51.1742 314.00
51.2394 267.00
51.3046 240.00
51.3698 301.00
51.435 280.00
51.5002 270.00
51.5654 278.00
51.6306 263.00
51.6958 314.00
51.761 232.00
51.8262 274.00
51.8914 249.00
51.9566 291.00
52.0218 279.00
52.087 289.00
52.1522 277.00
52.2174 292.00
52.2826 303.00
52.3477 330.00
52.4129 303.00
52.4781 303.00
52.5433 278.00
52.6085 271.00
52.6737 261.00
52.7389 267.00
52.8041 287.00
52.8693 264.00
52.9345 314.00
52.9997 287.00
53.0649 286.00
53.1301 291.00
53.1953 318.00
53.2605 242.00
53.3257 261.00
53.3909 248.00
53.4561 302.00
53.5213 243.00
53.5865 304.00
53.6517 302.00
53.7169 292.00
53.7821 259.00
53.8473 273.00
53.9125 260.00
53.9777 269.00
54.0429 236.00
54.1081 293.00
54.1733 286.00
54.2385 285.00
54.3037 286.00
54.3689 289.00
54.4341 288.00
54.4993 239.00
54.5645 272.00
54.6297 242.00
54.6949 277.00
54.7601 246.00
54.8253 247.00
54.8905 267.00
54.9557 240.00
55.0209 272.00
55.0861 274.00
55.1513 247.00
55.2165 246.00
55.2817 237.00
55.3469 229.00
55.4121 270.00
55.4773 245.00
55.5425 277.00
55.6077 265.00
55.6729 280.00
55.7381 237.00
55.8033 248.00
55.8685 276.00
55.9337 230.00
55.9989 244.00
56.0641 258.00
56.1293 267.00
56.1945 277.00
56.2597 250.00
56.3249 256.00
56.3901 230.00
56.4553 237.00
56.5205 238.00
56.5857 268.00
56.6509 288.00
56.7161 222.00
56.7813 280.00
56.8465 268.00
56.9117 256.00
56.9769 237.00
57.042 264.00
57.1073 245.00
57.1724 286.00
57.2376 249.00
57.3028 249.00
57.368 273.00
57.4332 266.00
57.4984 229.00
57.5636 287.00
57.6288 210.00
57.694 243.00
57.7592 249.00
57.8244 247.00
57.8896 235.00
57.9548 215.00
58.02 245.00
58.0852 247.00
58.1504 240.00
58.2156 196.00
58.2808 229.00
58.346 222.00
58.4112 232.00
58.4764 240.00
58.5416 250.00
58.6068 206.00
58.672 261.00
58.7372 231.00
58.8024 266.00
58.8676 208.00
58.9328 235.00
58.998 268.00
59.0632 238.00
59.1284 228.00
59.1936 256.00
59.2588 217.00
59.324 230.00
59.3892 230.00
59.4544 250.00
59.5196 226.00
59.5848 251.00
59.65 210.00
59.7152 236.00
59.7804 207.00
59.8456 220.00
59.9108 237.00
59.976 230.00
60.0412 216.00
60.1064 207.00
60.1716 216.00
60.2368 212.00
60.302 225.00
60.3672 240.00
60.4324 239.00
60.4976 240.00
60.5628 229.00
60.628 246.00
60.6932 225.00
60.7584 202.00
60.8236 220.00
60.8888 236.00
60.954 205.00
61.0192 206.00
61.0844 193.00
61.1496 206.00
61.2148 199.00
61.28 232.00
61.3452 216.00
61.4104 209.00
61.4756 194.00
61.5408 218.00
61.606 232.00
61.6712 210.00
61.7364 239.00
61.8016 225.00
61.8667 194.00
61.932 228.00
61.9971 216.00
62.0623 214.00
62.1275 222.00
62.1927 244.00
62.2579 222.00
62.3231 233.00
62.3883 196.00
62.4535 237.00
62.5187 214.00
62.5839 190.00
62.6491 224.00
62.7143 199.00
62.7795 232.00
62.8447 244.00
62.9099 185.00
62.9751 228.00
63.0403 203.00
63.1055 195.00
63.1707 227.00
63.2359 235.00
63.3011 211.00
63.3663 216.00
63.4315 223.00
63.4967 213.00
63.5619 215.00
63.6271 241.00
63.6923 219.00
63.7575 225.00
63.8227 224.00
63.8879 244.00
63.9531 200.00
64.0183 190.00
64.0835 216.00
64.1487 190.00
64.2139 219.00
64.2791 206.00
64.3443 191.00
64.4095 230.00
64.4747 180.00
64.5399 225.00
64.6051 203.00
64.6703 205.00
64.7355 221.00
64.8007 202.00
64.8659 224.00
64.9311 223.00
64.9963 180.00
65.0615 214.00
65.1267 185.00
65.1919 199.00
65.2571 203.00
65.3223 211.00
65.3875 217.00
65.4527 208.00
65.5179 204.00
65.5831 182.00
65.6483 200.00
65.7135 217.00
65.7787 215.00
65.8439 237.00
65.9091 204.00
65.9743 201.00
66.0395 236.00
66.1047 178.00
66.1699 218.00
66.2351 216.00
66.3003 226.00
66.3655 210.00
66.4307 196.00
66.4959 210.00
66.561 197.00
66.6263 223.00
66.6915 201.00
66.7566 189.00
66.8218 180.00
66.887 208.00
66.9522 184.00
67.0174 222.00
67.0826 218.00
67.1478 223.00
67.213 224.00
67.2782 197.00
67.3434 208.00
67.4086 201.00
67.4738 194.00
67.539 175.00
67.6042 206.00
67.6694 181.00
67.7346 206.00
67.7998 203.00
67.865 197.00
67.9302 185.00
67.9954 209.00
68.0606 187.00
68.1258 197.00
68.191 180.00
68.2562 192.00
68.3214 228.00
68.3866 169.00
68.4518 212.00
68.517 200.00
68.5822 192.00
68.6474 186.00
68.7126 199.00
68.7778 187.00
68.843 217.00
68.9082 202.00
68.9734 203.00
69.0386 217.00
69.1038 192.00
69.169 201.00
69.2342 210.00
69.2994 195.00
69.3646 212.00
69.4298 202.00
69.495 191.00
69.5602 177.00
69.6254 180.00
69.6906 211.00
69.7558 202.00
69.821 198.00
69.8862 198.00
69.9514 208.00
70.0166 202.00
70.0818 222.00
70.147 203.00
70.2122 212.00
70.2774 211.00
70.3426 187.00
70.4078 221.00
70.473 198.00
70.5382 209.00
70.6034 196.00
70.6686 191.00
70.7338 217.00
70.799 201.00
70.8642 194.00
70.9294 223.00
70.9946 249.00
71.0598 171.00
71.125 196.00
71.1902 197.00
71.2554 214.00
71.3205 203.00
71.3858 179.00
71.451 189.00
71.5162 214.00
71.5813 223.00
71.6465 193.00
71.7117 205.00
71.7769 197.00
71.8421 215.00
71.9073 209.00
71.9725 189.00
72.0377 224.00
72.1029 209.00
72.1681 214.00
72.2333 210.00
72.2985 215.00
72.3637 190.00
72.4289 210.00
72.4941 190.00
72.5593 194.00
72.6245 224.00
72.6897 223.00
72.7549 187.00
72.8201 229.00
72.8853 226.00
72.9505 205.00
73.0157 177.00
73.0809 217.00
73.1461 212.00
73.2113 217.00
73.2765 235.00
73.3417 222.00
73.4069 237.00
73.4721 243.00
73.5373 221.00
73.6025 216.00
73.6677 214.00
73.7329 229.00
73.7981 208.00
73.8633 216.00
73.9285 216.00
73.9937 214.00
74.0589 224.00
74.1241 177.00
74.1893 200.00
74.2545 210.00
74.3197 211.00
74.3849 239.00
74.4501 200.00
74.5153 201.00
74.5805 234.00
74.6457 216.00
74.7109 161.00
74.7761 229.00
74.8413 245.00
74.9065 194.00
74.9717 209.00
75.0369 193.00
75.1021 169.00
75.1673 232.00
75.2325 218.00
75.2977 218.00
75.3629 214.00
75.4281 222.00
75.4933 204.00
75.5585 217.00
75.6237 203.00
75.6889 224.00
75.7541 230.00
75.8193 211.00
75.8845 197.00
75.9497 223.00
76.0149 218.00
76.0801 235.00
76.1452 235.00
76.2104 223.00
76.2756 222.00
76.3409 210.00
76.406 191.00
76.4712 183.00
76.5364 230.00
76.6016 223.00
76.6668 217.00
76.732 225.00
76.7972 229.00
76.8624 222.00
76.9276 241.00
76.9928 207.00
77.058 197.00
77.1232 212.00
77.1884 209.00
77.2536 213.00
77.3188 250.00
77.384 225.00
77.4492 214.00
77.5144 226.00
77.5796 222.00
77.6448 231.00
77.71 198.00
77.7752 216.00
77.8404 216.00
77.9056 193.00
77.9708 218.00
78.036 242.00
78.1012 225.00
78.1664 211.00
78.2316 210.00
78.2968 242.00
78.362 227.00
78.4272 231.00
78.4924 220.00
78.5576 204.00
78.6228 214.00
78.688 218.00
78.7532 203.00
78.8184 232.00
78.8836 227.00
78.9488 231.00
79.014 229.00
79.0792 230.00
79.1444 230.00
79.2096 232.00
79.2748 214.00
79.34 246.00
79.4052 242.00
79.4704 200.00
79.5356 209.00
79.6008 256.00
79.666 221.00
79.7312 246.00
79.7964 237.00
79.8616 230.00
79.9268 234.00
79.992 211.00
80.0572 259.00
80.1224 224.00
80.1876 249.00
80.2528 243.00
80.318 220.00
80.3832 223.00
80.4484 186.00
80.5136 258.00
80.5788 242.00
80.644 215.00
80.7092 216.00
80.7744 232.00
80.8396 227.00
80.9048 238.00
80.9699 236.00
81.0351 212.00
81.1003 224.00
81.1655 247.00
81.2307 246.00
81.2959 241.00
81.3611 270.00
81.4263 213.00
81.4915 224.00
81.5567 221.00
81.6219 219.00
81.6871 228.00
81.7523 227.00
81.8175 229.00
81.8827 228.00
81.9479 227.00
82.0131 221.00
82.0783 212.00
82.1435 235.00
82.2087 221.00
82.2739 232.00
82.3391 220.00
82.4043 265.00
82.4695 235.00
82.5347 226.00
82.5999 201.00
82.6651 240.00
82.7303 213.00
82.7955 237.00
82.8607 195.00
82.9259 245.00
82.9911 246.00
83.0563 224.00
83.1215 245.00
83.1867 220.00
83.2519 246.00
83.3171 256.00
83.3823 196.00
83.4475 216.00
83.5127 242.00
83.5779 223.00
83.6431 241.00
83.7083 221.00
83.7735 215.00
83.8387 203.00
83.9039 217.00
83.9691 256.00
84.0343 243.00
84.0995 244.00
84.1647 219.00
84.2299 203.00
84.2951 226.00
84.3603 205.00
84.4255 202.00
84.4907 231.00
84.5559 219.00
84.6211 217.00
84.6863 214.00
84.7515 217.00
84.8167 218.00
84.8819 233.00
84.9471 194.00
85.0123 225.00
85.0775 218.00
85.1427 210.00
85.2079 208.00
85.2731 207.00
85.3383 246.00
85.4035 195.00
85.4687 206.00
85.5339 208.00
85.5991 217.00
85.6643 215.00
85.7295 223.00
85.7946 211.00
85.8598 227.00
85.925 206.00
85.9903 232.00
86.0554 219.00
86.1206 210.00
86.1858 201.00
86.251 220.00
86.3162 193.00
86.3814 220.00
86.4466 207.00
86.5118 228.00
86.577 195.00
86.6422 209.00
86.7074 224.00
86.7726 224.00
86.8378 223.00
86.903 188.00
86.9682 176.00
87.0334 214.00
87.0986 183.00
87.1638 201.00
87.229 190.00
87.2942 214.00
87.3594 197.00
87.4246 234.00
87.4898 198.00
87.555 211.00
87.6202 206.00
87.6854 214.00
87.7506 226.00
87.8158 206.00
87.881 193.00
87.9462 212.00
88.0114 206.00
88.0766 196.00
88.1418 206.00
88.207 218.00
88.2722 196.00
88.3374 195.00
88.4026 194.00
88.4678 219.00
88.533 208.00
88.5982 191.00
88.6634 171.00
88.7286 205.00
88.7938 200.00
88.859 199.00
88.9242 219.00
88.9894 190.00
89.0546 191.00
89.1198 178.00
89.185 197.00
89.2502 210.00
89.3154 192.00
89.3806 196.00
89.4458 195.00
89.511 197.00
89.5762 225.00
89.6414 199.00
89.7066 201.00
89.7718 197.00
89.837 199.00
89.9022 198.00
89.9674 209.00
90.0326 190.00
90.0978 198.00
90.163 200.00
90.2282 182.00
90.2934 201.00
90.3586 191.00
90.4238 232.00
90.489 202.00
90.5542 181.00
90.6193 183.00
90.6845 205.00
90.7497 183.00
90.8149 202.00
90.8801 215.00
90.9453 191.00
91.0105 197.00
91.0757 225.00
91.1409 199.00
91.2061 195.00
91.2713 178.00
91.3365 236.00
91.4017 194.00
91.4669 196.00
91.5321 197.00
91.5973 193.00
91.6625 215.00
91.7277 176.00
91.7929 178.00
91.8581 193.00
91.9233 193.00
91.9885 206.00
92.0537 172.00
92.1189 207.00
92.1841 192.00
92.2493 176.00
92.3145 187.00
92.3797 203.00
92.4449 212.00
92.5101 199.00
92.5753 191.00
92.6405 187.00
92.7057 204.00
92.7709 177.00
92.8361 187.00
92.9013 204.00
92.9665 180.00
93.0317 189.00
93.0969 191.00
93.1621 207.00
93.2273 184.00
93.2925 170.00
93.3577 182.00
93.4229 201.00
93.4881 195.00
93.5533 185.00
93.6185 177.00
93.6837 192.00
93.7489 188.00
93.8141 205.00
93.8793 165.00
93.9445 178.00
94.0097 199.00
94.0749 211.00
94.1401 183.00
94.2053 191.00
94.2705 179.00
94.3357 200.00
94.4009 177.00
94.4661 200.00
94.5313 188.00
94.5965 204.00
94.6617 197.00
94.7269 198.00
94.7921 204.00
94.8573 207.00
94.9225 200.00
94.9877 176.00
95.0529 178.00
95.1181 169.00
95.1833 174.00
95.2485 178.00
95.3137 228.00
95.3789 181.00
95.444 196.00
95.5092 195.00
95.5744 179.00
95.6396 184.00
95.7048 175.00
95.77 220.00
95.8352 181.00
95.9004 193.00
95.9656 206.00
96.0308 192.00
96.096 180.00
96.1612 177.00
96.2264 186.00
96.2916 194.00
96.3568 189.00
96.422 196.00
96.4872 217.00
96.5524 188.00
96.6176 197.00
96.6828 193.00
96.748 185.00
96.8132 185.00
96.8784 178.00
96.9436 183.00
97.0088 191.00
97.074 184.00
97.1392 219.00
97.2044 217.00
97.2696 171.00
97.3348 192.00
97.4 184.00
97.4652 187.00
97.5304 222.00
97.5956 188.00
97.6608 198.00
97.726 185.00
97.7912 185.00
97.8564 215.00
97.9216 168.00
97.9868 208.00
98.052 203.00
98.1172 199.00
98.1824 179.00
98.2476 205.00
98.3128 195.00
98.378 194.00
98.4432 174.00
98.5084 201.00
98.5736 180.00
98.6388 185.00
98.704 203.00
98.7692 198.00
98.8344 210.00
98.8996 189.00
98.9648 190.00
99.03 204.00
99.0952 205.00
99.1604 198.00
99.2256 181.00
99.2908 180.00
99.356 184.00
99.4212 193.00
99.4864 190.00
99.5516 186.00
99.6168 182.00
99.682 171.00
99.7472 158.00
99.8124 186.00
99.8776 211.00
99.9428 195.00
100.008 203.00
100.073 192.00
100.095 173.00