File: data/xrd_creation/results/Na_71.xy
9.903433 2674.00
9.968632 2646.00
10.0338 2538.00
10.099 2471.00
10.1642 2423.00
10.2294 2408.00
10.2946 2502.00
10.3598 2502.00
10.425 2462.00
10.4902 2414.00
10.5554 2361.00
10.6206 2347.00
10.6858 2338.00
10.751 2348.00
10.8162 2276.00
10.8814 2334.00
10.9466 2214.00
11.0118 2223.00
11.077 2198.00
11.1422 2188.00
11.2074 2089.00
11.2726 2078.00
11.3378 2087.00
11.403 2121.00
11.4682 2092.00
11.5334 2068.00
11.5986 1999.00
11.6638 1873.00
11.729 1914.00
11.7942 2050.00
11.8594 1947.00
11.9246 1962.00
11.9898 1866.00
12.055 1903.00
12.1202 1826.00
12.1854 1876.00
12.2506 1758.00
12.3158 1762.00
12.381 1773.00
12.4462 1770.00
12.5114 1771.00
12.5766 1772.00
12.6418 1768.00
12.707 1828.00
12.7722 1692.00
12.8374 1747.00
12.9026 1655.00
12.9678 1615.00
13.033 1693.00
13.0982 1738.00
13.1634 1672.00
13.2286 1635.00
13.2938 1588.00
13.359 1609.00
13.4242 1589.00
13.4894 1548.00
13.5546 1587.00
13.6198 1597.00
13.685 1577.00
13.7502 1486.00
13.8154 1515.00
13.8805 1551.00
13.9457 1534.00
14.0109 1482.00
14.0761 1549.00
14.1413 1532.00
14.2065 1483.00
14.2717 1497.00
14.3369 1447.00
14.4021 1471.00
14.4673 1378.00
14.5325 1457.00
14.5977 1442.00
14.6629 1502.00
14.7281 1368.00
14.7933 1402.00
14.8585 1434.00
14.9237 1420.00
14.9889 1408.00
15.0541 1391.00
15.1193 1402.00
15.1845 1302.00
15.2497 1313.00
15.3149 1374.00
15.3801 1338.00
15.4453 1390.00
15.5105 1334.00
15.5757 1338.00
15.6409 1336.00
15.7061 1245.00
15.7713 1302.00
15.8365 1368.00
15.9017 1330.00
15.9669 1251.00
16.0321 1307.00
16.0973 1300.00
16.1625 1244.00
16.2277 1266.00
16.2929 1275.00
16.3581 1249.00
16.4233 1364.00
16.4885 1235.00
16.5537 1229.00
16.6189 1253.00
16.6841 1224.00
16.7493 1258.00
16.8145 1172.00
16.8797 1236.00
16.9449 1159.00
17.0101 1261.00
17.0753 1175.00
17.1405 1174.00
17.2057 1240.00
17.2709 1116.00
17.3361 1140.00
17.4013 1177.00
17.4665 1183.00
17.5317 1209.00
17.5969 1126.00
17.6621 1176.00
17.7273 1136.00
17.7925 1172.00
17.8577 1150.00
17.9229 1118.00
17.9881 1113.00
18.0533 1077.00
18.1185 1085.00
18.1837 1117.00
18.2489 1161.00
18.3141 1139.00
18.3793 1132.00
18.4445 1104.00
18.5097 1072.00
18.5749 1043.00
18.6401 1128.00
18.7052 1082.00
18.7704 1066.00
18.8356 1054.00
18.9008 991.00
18.966 1001.00
19.0312 1066.00
19.0964 1002.00
19.1616 1004.00
19.2268 1016.00
19.292 1029.00
19.3572 966.00
19.4224 1064.00
19.4876 947.00
19.5528 988.00
19.618 952.00
19.6832 959.00
19.7484 995.00
19.8136 1012.00
19.8788 977.00
19.944 1014.00
20.0092 991.00
20.0744 975.00
20.1396 951.00
20.2048 1030.00
20.27 962.00
20.3352 956.00
20.4004 1001.00
20.4656 961.00
20.5308 950.00
20.596 879.00
20.6612 959.00
20.7264 964.00
20.7916 954.00
20.8568 917.00
20.922 914.00
20.9872 935.00
21.0524 906.00
21.1176 911.00
21.1828 948.00
21.248 952.00
21.3132 933.00
21.3784 928.00
21.4436 883.00
21.5088 976.00
21.574 949.00
21.6392 898.00
21.7044 875.00
21.7696 871.00
21.8348 884.00
21.9 849.00
21.9652 871.00
22.0304 838.00
22.0956 936.00
22.1608 900.00
22.226 866.00
22.2912 902.00
22.3564 866.00
22.4216 866.00
22.4868 833.00
22.552 808.00
22.6172 865.00
22.6824 853.00
22.7476 813.00
22.8128 812.00
22.878 775.00
22.9432 842.00
23.0084 808.00
23.0736 773.00
23.1388 831.00
23.204 811.00
23.2692 783.00
23.3344 779.00
23.3996 773.00
23.4647 800.00
23.5299 789.00
23.5951 777.00
23.6603 747.00
23.7255 783.00
23.7907 811.00
23.8559 736.00
23.9211 766.00
23.9863 784.00
24.0515 820.00
24.1167 745.00
24.1819 777.00
24.2471 782.00
24.3123 739.00
24.3775 761.00
24.4427 785.00
24.5079 767.00
24.5731 768.00
24.6383 756.00
24.7035 731.00
24.7687 737.00
24.8339 758.00
24.8991 716.00
24.9643 754.00
25.0295 840.00
25.0947 838.00
25.1599 916.00
25.2251 813.00
25.2903 755.00
25.3555 759.00
25.4207 687.00
25.4859 772.00
25.5511 732.00
25.6163 743.00
25.6815 714.00
25.7467 686.00
25.8119 707.00
25.8771 706.00
25.9423 694.00
26.0075 709.00
26.0727 693.00
26.1379 714.00
26.2031 755.00
26.2683 731.00
26.3335 832.00
26.3987 950.00
26.4639 947.00
26.5291 752.00
26.5943 677.00
26.6595 657.00
26.7247 712.00
26.7899 641.00
26.8551 639.00
26.9203 683.00
26.9855 651.00
27.0507 648.00
27.1159 660.00
27.1811 671.00
27.2463 642.00
27.3115 699.00
27.3767 620.00
27.4419 669.00
27.5071 687.00
27.5723 660.00
27.6375 671.00
27.7027 629.00
27.7679 670.00
27.8331 653.00
27.8983 674.00
27.9635 649.00
28.0287 715.00
28.0939 686.00
28.1591 707.00
28.2243 756.00
28.2894 790.00
28.3546 809.00
28.4198 614.00
28.485 672.00
28.5502 636.00
28.6154 632.00
28.6806 690.00
28.7458 595.00
28.811 656.00
28.8762 659.00
28.9414 602.00
29.0066 623.00
29.0718 628.00
29.137 686.00
29.2022 631.00
29.2674 657.00
29.3326 593.00
29.3978 578.00
29.463 607.00
29.5282 597.00
29.5934 642.00
29.6586 606.00
29.7238 606.00
29.789 591.00
29.8542 587.00
29.9194 698.00
29.9846 679.00
30.0498 655.00
30.115 614.00
30.1802 621.00
30.2454 574.00
30.3106 627.00
30.3758 639.00
30.441 640.00
30.5062 549.00
30.5714 589.00
30.6366 583.00
30.7018 562.00
30.767 567.00
30.8322 559.00
30.8974 530.00
30.9626 555.00
31.0278 576.00
31.093 578.00
31.1582 598.00
31.2234 592.00
31.2886 584.00
31.3538 584.00
31.419 579.00
31.4842 575.00
31.5494 490.00
31.6146 555.00
31.6798 567.00
31.745 536.00
31.8102 569.00
31.8754 537.00
31.9406 504.00
32.0058 561.00
32.071 535.00
32.1362 512.00
32.2014 578.00
32.2666 542.00
32.3318 545.00
32.397 527.00
32.4622 508.00
32.5274 496.00
32.5926 529.00
32.6578 544.00
32.723 579.00
32.7882 500.00
32.8534 541.00
32.9186 540.00
32.9838 527.00
33.0489 546.00
33.1141 536.00
33.1793 556.00
33.2445 532.00
33.3097 585.00
33.3749 604.00
33.4401 640.00
33.5053 664.00
33.5705 609.00
33.6357 580.00
33.7009 549.00
33.7661 522.00
33.8313 496.00
33.8965 527.00
33.9617 461.00
34.0269 501.00
34.0921 491.00
34.1573 495.00
34.2225 497.00
34.2877 517.00
34.3529 472.00
34.4181 447.00
34.4833 449.00
34.5485 450.00
34.6137 424.00
34.6789 454.00
34.7441 498.00
34.8093 471.00
34.8745 467.00
34.9397 472.00
35.0049 465.00
35.0701 531.00
35.1353 499.00
35.2005 461.00
35.2657 515.00
35.3309 441.00
35.3961 441.00
35.4613 482.00
35.5265 467.00
35.5917 443.00
35.6569 470.00
35.7221 440.00
35.7873 467.00
35.8525 437.00
35.9177 425.00
35.9829 446.00
36.0481 431.00
36.1133 434.00
36.1785 448.00
36.2437 477.00
36.3089 434.00
36.3741 452.00
36.4393 427.00
36.5045 463.00
36.5697 418.00
36.6349 435.00
36.7001 430.00
36.7653 450.00
36.8305 445.00
36.8957 439.00
36.9609 413.00
37.0261 416.00
37.0913 470.00
37.1565 417.00
37.2217 423.00
37.2869 435.00
37.3521 393.00
37.4173 414.00
37.4825 422.00
37.5477 453.00
37.6129 478.00
37.6781 461.00
37.7433 439.00
37.8085 420.00
37.8736 426.00
37.9388 431.00
38.004 444.00
38.0692 417.00
38.1344 388.00
38.1996 418.00
38.2648 396.00
38.33 426.00
38.3952 417.00
38.4604 427.00
38.5256 385.00
38.5908 421.00
38.656 410.00
38.7212 412.00
38.7864 409.00
38.8516 376.00
38.9168 353.00
38.982 383.00
39.0472 388.00
39.1124 393.00
39.1776 383.00
39.2428 399.00
39.308 400.00
39.3732 400.00
39.4384 417.00
39.5036 355.00
39.5688 396.00
39.634 409.00
39.6992 381.00
39.7644 380.00
39.8296 347.00
39.8948 399.00
39.96 397.00
40.0252 371.00
40.0904 358.00
40.1556 384.00
40.2208 374.00
40.286 360.00
40.3512 355.00
40.4164 372.00
40.4816 375.00
40.5468 364.00
40.612 388.00
40.6772 369.00
40.7424 328.00
40.8076 337.00
40.8728 352.00
40.938 331.00
41.0032 339.00
41.0684 364.00
41.1336 351.00
41.1988 387.00
41.264 363.00
41.3292 347.00
41.3944 385.00
41.4596 366.00
41.5248 344.00
41.59 404.00
41.6552 352.00
41.7204 321.00
41.7856 330.00
41.8508 356.00
41.916 385.00
41.9812 382.00
42.0464 387.00
42.1116 358.00
42.1768 383.00
42.242 360.00
42.3072 326.00
42.3724 364.00
42.4376 334.00
42.5028 346.00
42.568 340.00
42.6332 339.00
42.6983 405.00
42.7635 404.00
42.8287 417.00
42.8939 371.00
42.9591 338.00
43.0243 374.00
43.0895 370.00
43.1547 351.00
43.2199 353.00
43.2851 362.00
43.3503 384.00
43.4155 362.00
43.4807 407.00
43.5459 420.00
43.6111 393.00
43.6763 364.00
43.7415 351.00
43.8067 371.00
43.8719 380.00
43.9371 353.00
44.0023 341.00
44.0675 325.00
44.1327 339.00
44.1979 333.00
44.2631 333.00
44.3283 351.00
44.3935 399.00
44.4587 342.00
44.5239 341.00
44.5891 349.00
44.6543 323.00
44.7195 333.00
44.7847 321.00
44.8499 319.00
44.9151 326.00
44.9803 327.00
45.0455 345.00
45.1107 321.00
45.1759 312.00
45.2411 334.00
45.3063 360.00
45.3715 313.00
45.4367 313.00
45.5019 326.00
45.5671 335.00
45.6323 321.00
45.6975 317.00
45.7627 330.00
45.8279 343.00
45.8931 323.00
45.9583 362.00
46.0235 323.00
46.0887 340.00
46.1539 322.00
46.2191 324.00
46.2843 319.00
46.3495 285.00
46.4147 328.00
46.4799 298.00
46.5451 313.00
46.6103 292.00
46.6755 299.00
46.7407 282.00
46.8059 322.00
46.8711 282.00
46.9363 331.00
47.0015 285.00
47.0667 314.00
47.1319 364.00
47.1971 323.00
47.2623 339.00
47.3275 304.00
47.3927 316.00
47.4579 309.00
47.523 277.00
47.5882 292.00
47.6534 303.00
47.7186 329.00
47.7838 300.00
47.849 328.00
47.9142 350.00
47.9794 361.00
48.0446 302.00
48.1098 298.00
48.175 263.00
48.2402 327.00
48.3054 308.00
48.3706 302.00
48.4358 288.00
48.501 346.00
48.5662 288.00
48.6314 313.00
48.6966 312.00
48.7618 330.00
48.827 327.00
48.8922 314.00
48.9574 299.00
49.0226 303.00
49.0878 316.00
49.153 311.00
49.2182 299.00
49.2834 303.00
49.3486 322.00
49.4138 305.00
49.479 295.00
49.5442 279.00
49.6094 294.00
49.6746 298.00
49.7398 327.00
49.805 315.00
49.8702 302.00
49.9354 310.00
50.0006 311.00
50.0658 298.00
50.131 318.00
50.1962 284.00
50.2614 334.00
50.3266 300.00
50.3918 312.00
50.457 262.00
50.5222 289.00
50.5874 270.00
50.6526 302.00
50.7178 296.00
50.783 303.00
50.8482 307.00
50.9134 321.00
50.9786 278.00
51.0438 283.00
51.109 338.00
51.1742 299.00
51.2394 303.00
51.3046 347.00
51.3698 367.00
51.435 352.00
51.5002 370.00
51.5654 355.00
51.6306 310.00
51.6958 315.00
51.761 352.00
51.8262 290.00
51.8914 286.00
51.9566 261.00
52.0218 284.00
52.087 281.00
52.1522 268.00
52.2174 294.00
52.2826 268.00
52.3477 270.00
52.4129 299.00
52.4781 286.00
52.5433 294.00
52.6085 262.00
52.6737 287.00
52.7389 242.00
52.8041 286.00
52.8693 309.00
52.9345 283.00
52.9997 238.00
53.0649 275.00
53.1301 265.00
53.1953 279.00
53.2605 258.00
53.3257 260.00
53.3909 294.00
53.4561 233.00
53.5213 220.00
53.5865 304.00
53.6517 240.00
53.7169 260.00
53.7821 287.00
53.8473 270.00
53.9125 241.00
53.9777 275.00
54.0429 282.00
54.1081 280.00
54.1733 291.00
54.2385 286.00
54.3037 239.00
54.3689 262.00
54.4341 267.00
54.4993 282.00
54.5645 290.00
54.6297 268.00
54.6949 260.00
54.7601 267.00
54.8253 223.00
54.8905 248.00
54.9557 280.00
55.0209 259.00
55.0861 260.00
55.1513 267.00
55.2165 263.00
55.2817 239.00
55.3469 281.00
55.4121 259.00
55.4773 273.00
55.5425 245.00
55.6077 237.00
55.6729 237.00
55.7381 225.00
55.8033 219.00
55.8685 230.00
55.9337 263.00
55.9989 231.00
56.0641 232.00
56.1293 214.00
56.1945 271.00
56.2597 266.00
56.3249 224.00
56.3901 258.00
56.4553 242.00
56.5205 265.00
56.5857 225.00
56.6509 236.00
56.7161 221.00
56.7813 239.00
56.8465 249.00
56.9117 264.00
56.9769 242.00
57.042 243.00
57.1073 233.00
57.1724 283.00
57.2376 232.00
57.3028 270.00
57.368 234.00
57.4332 227.00
57.4984 225.00
57.5636 246.00
57.6288 268.00
57.694 217.00
57.7592 275.00
57.8244 229.00
57.8896 220.00
57.9548 234.00
58.02 209.00
58.0852 224.00
58.1504 196.00
58.2156 271.00
58.2808 237.00
58.346 236.00
58.4112 260.00
58.4764 224.00
58.5416 249.00
58.6068 211.00
58.672 218.00
58.7372 231.00
58.8024 229.00
58.8676 224.00
58.9328 212.00
58.998 239.00
59.0632 201.00
59.1284 228.00
59.1936 212.00
59.2588 213.00
59.324 224.00
59.3892 231.00
59.4544 219.00
59.5196 217.00
59.5848 211.00
59.65 237.00
59.7152 214.00
59.7804 212.00
59.8456 204.00
59.9108 231.00
59.976 224.00
60.0412 230.00
60.1064 202.00
60.1716 222.00
60.2368 201.00
60.302 207.00
60.3672 204.00
60.4324 210.00
60.4976 223.00
60.5628 219.00
60.628 209.00
60.6932 214.00
60.7584 243.00
60.8236 221.00
60.8888 202.00
60.954 228.00
61.0192 208.00
61.0844 190.00
61.1496 218.00
61.2148 214.00
61.28 230.00
61.3452 232.00
61.4104 263.00
61.4756 226.00
61.5408 246.00
61.606 239.00
61.6712 211.00
61.7364 243.00
61.8016 214.00
61.8667 249.00
61.932 226.00
61.9971 229.00
62.0623 270.00
62.1275 228.00
62.1927 243.00
62.2579 219.00
62.3231 212.00
62.3883 228.00
62.4535 233.00
62.5187 258.00
62.5839 215.00
62.6491 223.00
62.7143 229.00
62.7795 240.00
62.8447 234.00
62.9099 231.00
62.9751 211.00
63.0403 222.00
63.1055 218.00
63.1707 236.00
63.2359 234.00
63.3011 227.00
63.3663 214.00
63.4315 211.00
63.4967 206.00
63.5619 211.00
63.6271 227.00
63.6923 205.00
63.7575 209.00
63.8227 213.00
63.8879 200.00
63.9531 198.00
64.0183 221.00
64.0835 242.00
64.1487 229.00
64.2139 233.00
64.2791 200.00
64.3443 201.00
64.4095 179.00
64.4747 184.00
64.5399 218.00
64.6051 182.00
64.6703 216.00
64.7355 207.00
64.8007 202.00
64.8659 212.00
64.9311 184.00
64.9963 215.00
65.0615 199.00
65.1267 194.00
65.1919 192.00
65.2571 185.00
65.3223 223.00
65.3875 208.00
65.4527 212.00
65.5179 215.00
65.5831 205.00
65.6483 192.00
65.7135 193.00
65.7787 204.00
65.8439 207.00
65.9091 215.00
65.9743 200.00
66.0395 202.00
66.1047 193.00
66.1699 217.00
66.2351 184.00
66.3003 217.00
66.3655 195.00
66.4307 163.00
66.4959 203.00
66.561 196.00
66.6263 203.00
66.6915 193.00
66.7566 205.00
66.8218 199.00
66.887 190.00
66.9522 199.00
67.0174 203.00
67.0826 194.00
67.1478 206.00
67.213 233.00
67.2782 193.00
67.3434 188.00
67.4086 224.00
67.4738 174.00
67.539 176.00
67.6042 210.00
67.6694 190.00
67.7346 180.00
67.7998 192.00
67.865 202.00
67.9302 209.00
67.9954 215.00
68.0606 203.00
68.1258 209.00
68.191 209.00
68.2562 171.00
68.3214 177.00
68.3866 173.00
68.4518 185.00
68.517 188.00
68.5822 196.00
68.6474 223.00
68.7126 209.00
68.7778 200.00
68.843 210.00
68.9082 213.00
68.9734 196.00
69.0386 214.00
69.1038 192.00
69.169 201.00
69.2342 197.00
69.2994 197.00
69.3646 172.00
69.4298 208.00
69.495 196.00
69.5602 205.00
69.6254 205.00
69.6906 186.00
69.7558 211.00
69.821 189.00
69.8862 206.00
69.9514 197.00
70.0166 202.00
70.0818 215.00
70.147 217.00
70.2122 201.00
70.2774 192.00
70.3426 187.00
70.4078 206.00
70.473 182.00
70.5382 209.00
70.6034 223.00
70.6686 190.00
70.7338 199.00
70.799 187.00
70.8642 211.00
70.9294 204.00
70.9946 213.00
71.0598 207.00
71.125 218.00
71.1902 198.00
71.2554 173.00
71.3205 208.00
71.3858 231.00
71.451 213.00
71.5162 198.00
71.5813 208.00
71.6465 204.00
71.7117 209.00
71.7769 237.00
71.8421 192.00
71.9073 206.00
71.9725 198.00
72.0377 182.00
72.1029 208.00
72.1681 215.00
72.2333 213.00
72.2985 205.00
72.3637 189.00
72.4289 200.00
72.4941 212.00
72.5593 181.00
72.6245 231.00
72.6897 194.00
72.7549 228.00
72.8201 212.00
72.8853 185.00
72.9505 214.00
73.0157 181.00
73.0809 208.00
73.1461 180.00
73.2113 204.00
73.2765 190.00
73.3417 204.00
73.4069 202.00
73.4721 194.00
73.5373 211.00
73.6025 214.00
73.6677 210.00
73.7329 202.00
73.7981 223.00
73.8633 208.00
73.9285 224.00
73.9937 190.00
74.0589 190.00
74.1241 210.00
74.1893 224.00
74.2545 198.00
74.3197 170.00
74.3849 195.00
74.4501 232.00
74.5153 213.00
74.5805 206.00
74.6457 203.00
74.7109 226.00
74.7761 208.00
74.8413 229.00
74.9065 235.00
74.9717 215.00
75.0369 218.00
75.1021 241.00
75.1673 197.00
75.2325 205.00
75.2977 215.00
75.3629 191.00
75.4281 231.00
75.4933 201.00
75.5585 238.00
75.6237 214.00
75.6889 210.00
75.7541 202.00
75.8193 207.00
75.8845 213.00
75.9497 225.00
76.0149 218.00
76.0801 261.00
76.1452 276.00
76.2104 236.00
76.2756 247.00
76.3409 225.00
76.406 203.00
76.4712 218.00
76.5364 209.00
76.6016 207.00
76.6668 234.00
76.732 208.00
76.7972 213.00
76.8624 224.00
76.9276 219.00
76.9928 203.00
77.058 226.00
77.1232 237.00
77.1884 216.00
77.2536 246.00
77.3188 227.00
77.384 232.00
77.4492 248.00
77.5144 226.00
77.5796 205.00
77.6448 230.00
77.71 214.00
77.7752 202.00
77.8404 244.00
77.9056 202.00
77.9708 225.00
78.036 236.00
78.1012 236.00
78.1664 202.00
78.2316 218.00
78.2968 225.00
78.362 245.00
78.4272 231.00
78.4924 225.00
78.5576 233.00
78.6228 228.00
78.688 228.00
78.7532 226.00
78.8184 258.00
78.8836 226.00
78.9488 232.00
79.014 246.00
79.0792 234.00
79.1444 229.00
79.2096 233.00
79.2748 269.00
79.34 231.00
79.4052 250.00
79.4704 233.00
79.5356 226.00
79.6008 225.00
79.666 220.00
79.7312 222.00
79.7964 239.00
79.8616 227.00
79.9268 225.00
79.992 274.00
80.0572 230.00
80.1224 243.00
80.1876 217.00
80.2528 219.00
80.318 223.00
80.3832 262.00
80.4484 230.00
80.5136 231.00
80.5788 275.00
80.644 233.00
80.7092 244.00
80.7744 235.00
80.8396 257.00
80.9048 224.00
80.9699 241.00
81.0351 228.00
81.1003 246.00
81.1655 238.00
81.2307 211.00
81.2959 228.00
81.3611 232.00
81.4263 217.00
81.4915 247.00
81.5567 238.00
81.6219 208.00
81.6871 249.00
81.7523 258.00
81.8175 232.00
81.8827 250.00
81.9479 228.00
82.0131 240.00
82.0783 230.00
82.1435 237.00
82.2087 243.00
82.2739 240.00
82.3391 263.00
82.4043 263.00
82.4695 226.00
82.5347 236.00
82.5999 247.00
82.6651 230.00
82.7303 223.00
82.7955 240.00
82.8607 243.00
82.9259 229.00
82.9911 246.00
83.0563 238.00
83.1215 231.00
83.1867 233.00
83.2519 240.00
83.3171 212.00
83.3823 230.00
83.4475 225.00
83.5127 215.00
83.5779 246.00
83.6431 236.00
83.7083 214.00
83.7735 236.00
83.8387 189.00
83.9039 205.00
83.9691 201.00
84.0343 214.00
84.0995 218.00
84.1647 231.00
84.2299 179.00
84.2951 194.00
84.3603 238.00
84.4255 214.00
84.4907 210.00
84.5559 228.00
84.6211 203.00
84.6863 216.00
84.7515 234.00
84.8167 211.00
84.8819 210.00
84.9471 207.00
85.0123 219.00
85.0775 208.00
85.1427 201.00
85.2079 200.00
85.2731 236.00
85.3383 225.00
85.4035 208.00
85.4687 189.00
85.5339 202.00
85.5991 195.00
85.6643 229.00
85.7295 221.00
85.7946 207.00
85.8598 211.00
85.925 198.00
85.9903 181.00
86.0554 214.00
86.1206 227.00
86.1858 208.00
86.251 177.00
86.3162 200.00
86.3814 217.00
86.4466 191.00
86.5118 187.00
86.577 205.00
86.6422 188.00
86.7074 188.00
86.7726 197.00
86.8378 197.00
86.903 191.00
86.9682 171.00
87.0334 204.00
87.0986 203.00
87.1638 184.00
87.229 212.00
87.2942 209.00
87.3594 182.00
87.4246 211.00
87.4898 169.00
87.555 195.00
87.6202 218.00
87.6854 162.00
87.7506 177.00
87.8158 207.00
87.881 240.00
87.9462 204.00
88.0114 200.00
88.0766 201.00
88.1418 205.00
88.207 188.00
88.2722 188.00
88.3374 180.00
88.4026 208.00
88.4678 195.00
88.533 182.00
88.5982 207.00
88.6634 207.00
88.7286 192.00
88.7938 194.00
88.859 177.00
88.9242 187.00
88.9894 214.00
89.0546 180.00
89.1198 197.00
89.185 202.00
89.2502 222.00
89.3154 196.00
89.3806 184.00
89.4458 185.00
89.511 198.00
89.5762 190.00
89.6414 194.00
89.7066 181.00
89.7718 170.00
89.837 182.00
89.9022 190.00
89.9674 205.00
90.0326 209.00
90.0978 226.00
90.163 173.00
90.2282 188.00
90.2934 214.00
90.3586 202.00
90.4238 178.00
90.489 174.00
90.5542 203.00
90.6193 208.00
90.6845 202.00
90.7497 212.00
90.8149 183.00
90.8801 188.00
90.9453 189.00
91.0105 193.00
91.0757 179.00
91.1409 210.00
91.2061 182.00
91.2713 181.00
91.3365 199.00
91.4017 199.00
91.4669 197.00
91.5321 178.00
91.5973 186.00
91.6625 198.00
91.7277 187.00
91.7929 210.00
91.8581 213.00
91.9233 175.00
91.9885 184.00
92.0537 193.00
92.1189 195.00
92.1841 140.00
92.2493 185.00
92.3145 163.00
92.3797 200.00
92.4449 185.00
92.5101 188.00
92.5753 178.00
92.6405 196.00
92.7057 183.00
92.7709 198.00
92.8361 202.00
92.9013 165.00
92.9665 157.00
93.0317 186.00
93.0969 215.00
93.1621 199.00
93.2273 199.00
93.2925 206.00
93.3577 191.00
93.4229 179.00
93.4881 189.00
93.5533 175.00
93.6185 193.00
93.6837 198.00
93.7489 187.00
93.8141 212.00
93.8793 211.00
93.9445 173.00
94.0097 195.00
94.0749 178.00
94.1401 196.00
94.2053 189.00
94.2705 203.00
94.3357 201.00
94.4009 197.00
94.4661 149.00
94.5313 201.00
94.5965 158.00
94.6617 194.00
94.7269 203.00
94.7921 179.00
94.8573 175.00
94.9225 196.00
94.9877 203.00
95.0529 178.00
95.1181 183.00
95.1833 182.00
95.2485 191.00
95.3137 172.00
95.3789 156.00
95.444 160.00
95.5092 160.00
95.5744 199.00
95.6396 203.00
95.7048 156.00
95.77 195.00
95.8352 206.00
95.9004 191.00
95.9656 175.00
96.0308 162.00
96.096 166.00
96.1612 192.00
96.2264 156.00
96.2916 172.00
96.3568 188.00
96.422 175.00
96.4872 179.00
96.5524 201.00
96.6176 186.00
96.6828 173.00
96.748 168.00
96.8132 172.00
96.8784 189.00
96.9436 197.00
97.0088 177.00
97.074 157.00
97.1392 167.00
97.2044 176.00
97.2696 168.00
97.3348 187.00
97.4 217.00
97.4652 170.00
97.5304 236.00
97.5956 195.00
97.6608 181.00
97.726 172.00
97.7912 202.00
97.8564 177.00
97.9216 185.00
97.9868 186.00
98.052 164.00
98.1172 178.00
98.1824 169.00
98.2476 201.00
98.3128 186.00
98.378 186.00
98.4432 178.00
98.5084 174.00
98.5736 182.00
98.6388 216.00
98.704 178.00
98.7692 198.00
98.8344 197.00
98.8996 202.00
98.9648 189.00
99.03 175.00
99.0952 206.00
99.1604 181.00
99.2256 170.00
99.2908 191.00
99.356 180.00
99.4212 188.00
99.4864 179.00
99.5516 196.00
99.6168 170.00
99.682 187.00
99.7472 209.00
99.8124 184.00
99.8776 159.00
99.9428 186.00
100.008 154.00
100.073 181.00
100.095 172.00