File: data/xrd_creation/results/Na_70.xy
9.903433 3000.00
9.968632 2803.00
10.0338 2824.00
10.099 2887.00
10.1642 2807.00
10.2294 2958.00
10.2946 2749.00
10.3598 2835.00
10.425 2793.00
10.4902 2627.00
10.5554 2692.00
10.6206 2769.00
10.6858 2712.00
10.751 2737.00
10.8162 2700.00
10.8814 2551.00
10.9466 2518.00
11.0118 2644.00
11.077 2615.00
11.1422 2574.00
11.2074 2581.00
11.2726 2570.00
11.3378 2591.00
11.403 2384.00
11.4682 2423.00
11.5334 2470.00
11.5986 2441.00
11.6638 2469.00
11.729 2423.00
11.7942 2389.00
11.8594 2257.00
11.9246 2404.00
11.9898 2387.00
12.055 2298.00
12.1202 2516.00
12.1854 2296.00
12.2506 2360.00
12.3158 2327.00
12.381 2196.00
12.4462 2260.00
12.5114 2274.00
12.5766 2321.00
12.6418 2202.00
12.707 2247.00
12.7722 2149.00
12.8374 2184.00
12.9026 2204.00
12.9678 2208.00
13.033 2159.00
13.0982 2236.00
13.1634 2073.00
13.2286 2183.00
13.2938 2139.00
13.359 2216.00
13.4242 2246.00
13.4894 2222.00
13.5546 2136.00
13.6198 2103.00
13.685 2078.00
13.7502 2149.00
13.8154 2057.00
13.8805 2071.00
13.9457 2065.00
14.0109 2064.00
14.0761 2071.00
14.1413 1995.00
14.2065 1927.00
14.2717 1920.00
14.3369 2046.00
14.4021 1940.00
14.4673 1925.00
14.5325 1923.00
14.5977 1929.00
14.6629 1886.00
14.7281 1869.00
14.7933 1888.00
14.8585 1930.00
14.9237 1930.00
14.9889 1863.00
15.0541 1919.00
15.1193 1875.00
15.1845 1862.00
15.2497 1883.00
15.3149 1804.00
15.3801 1855.00
15.4453 1811.00
15.5105 1821.00
15.5757 1853.00
15.6409 1915.00
15.7061 1785.00
15.7713 1729.00
15.8365 1841.00
15.9017 1888.00
15.9669 1829.00
16.0321 1679.00
16.0973 1766.00
16.1625 1818.00
16.2277 1727.00
16.2929 1793.00
16.3581 1796.00
16.4233 1885.00
16.4885 1858.00
16.5537 1771.00
16.6189 1814.00
16.6841 1760.00
16.7493 1808.00
16.8145 1852.00
16.8797 1793.00
16.9449 1759.00
17.0101 1711.00
17.0753 1737.00
17.1405 1720.00
17.2057 1792.00
17.2709 1780.00
17.3361 1666.00
17.4013 1777.00
17.4665 1626.00
17.5317 1646.00
17.5969 1643.00
17.6621 1725.00
17.7273 1677.00
17.7925 1613.00
17.8577 1704.00
17.9229 1693.00
17.9881 1674.00
18.0533 1634.00
18.1185 1595.00
18.1837 1757.00
18.2489 1679.00
18.3141 1655.00
18.3793 1663.00
18.4445 1689.00
18.5097 1734.00
18.5749 1610.00
18.6401 1644.00
18.7052 1690.00
18.7704 1650.00
18.8356 1685.00
18.9008 1668.00
18.966 1690.00
19.0312 1695.00
19.0964 1876.00
19.1616 1943.00
19.2268 1895.00
19.292 1875.00
19.3572 1763.00
19.4224 1756.00
19.4876 1949.00
19.5528 1856.00
19.618 1901.00
19.6832 1888.00
19.7484 1947.00
19.8136 1981.00
19.8788 2000.00
19.944 2062.00
20.0092 2179.00
20.0744 2347.00
20.1396 2696.00
20.2048 3073.00
20.27 3746.00
20.3352 4128.00
20.4004 4033.00
20.4656 3575.00
20.5308 2700.00
20.596 2040.00
20.6612 1796.00
20.7264 1838.00
20.7916 1794.00
20.8568 1770.00
20.922 1728.00
20.9872 1707.00
21.0524 1871.00
21.1176 2013.00
21.1828 2268.00
21.248 2437.00
21.3132 2695.00
21.3784 2558.00
21.4436 2454.00
21.5088 2494.00
21.574 2526.00
21.6392 2473.00
21.7044 2394.00
21.7696 2211.00
21.8348 2147.00
21.9 1834.00
21.9652 1768.00
22.0304 1666.00
22.0956 1634.00
22.1608 1613.00
22.226 1583.00
22.2912 1564.00
22.3564 1597.00
22.4216 1592.00
22.4868 1576.00
22.552 1524.00
22.6172 1590.00
22.6824 1519.00
22.7476 1573.00
22.8128 1613.00
22.878 1474.00
22.9432 1511.00
23.0084 1550.00
23.0736 1553.00
23.1388 1674.00
23.204 1819.00
23.2692 2019.00
23.3344 2263.00
23.3996 2121.00
23.4647 1711.00
23.5299 1599.00
23.5951 1489.00
23.6603 1612.00
23.7255 1530.00
23.7907 1426.00
23.8559 1399.00
23.9211 1473.00
23.9863 1405.00
24.0515 1480.00
24.1167 1368.00
24.1819 1416.00
24.2471 1403.00
24.3123 1431.00
24.3775 1338.00
24.4427 1318.00
24.5079 1394.00
24.5731 1353.00
24.6383 1401.00
24.7035 1358.00
24.7687 1382.00
24.8339 1371.00
24.8991 1421.00
24.9643 1424.00
25.0295 1387.00
25.0947 1381.00
25.1599 1308.00
25.2251 1428.00
25.2903 1487.00
25.3555 1371.00
25.4207 1323.00
25.4859 1379.00
25.5511 1445.00
25.6163 1377.00
25.6815 1380.00
25.7467 1400.00
25.8119 1344.00
25.8771 1372.00
25.9423 1387.00
26.0075 1518.00
26.0727 1489.00
26.1379 1409.00
26.2031 1442.00
26.2683 1449.00
26.3335 1459.00
26.3987 1411.00
26.4639 1491.00
26.5291 1494.00
26.5943 1717.00
26.6595 1870.00
26.7247 2176.00
26.7899 2254.00
26.8551 2195.00
26.9203 1934.00
26.9855 1653.00
27.0507 1587.00
27.1159 1584.00
27.1811 1633.00
27.2463 1720.00
27.3115 1589.00
27.3767 1551.00
27.4419 1473.00
27.5071 1515.00
27.5723 1451.00
27.6375 1449.00
27.7027 1427.00
27.7679 1469.00
27.8331 1431.00
27.8983 1474.00
27.9635 1529.00
28.0287 1536.00
28.0939 1510.00
28.1591 1582.00
28.2243 1524.00
28.2894 1499.00
28.3546 1537.00
28.4198 1369.00
28.485 1429.00
28.5502 1402.00
28.6154 1436.00
28.6806 1469.00
28.7458 1473.00
28.811 1440.00
28.8762 1398.00
28.9414 1514.00
29.0066 1492.00
29.0718 1523.00
29.137 1478.00
29.2022 1512.00
29.2674 1607.00
29.3326 1693.00
29.3978 1842.00
29.463 2357.00
29.5282 3460.00
29.5934 6218.00
29.6586 9265.00
29.7238 7288.00
29.789 3804.00
29.8542 2047.00
29.9194 1827.00
29.9846 1890.00
30.0498 1866.00
30.115 1933.00
30.1802 1994.00
30.2454 1992.00
30.3106 1780.00
30.3758 1781.00
30.441 1754.00
30.5062 1804.00
30.5714 1907.00
30.6366 2034.00
30.7018 2230.00
30.767 2087.00
30.8322 2010.00
30.8974 1871.00
30.9626 1639.00
31.0278 1645.00
31.093 1537.00
31.1582 1482.00
31.2234 1584.00
31.2886 1599.00
31.3538 1585.00
31.419 1559.00
31.4842 1550.00
31.5494 1580.00
31.6146 1665.00
31.6798 1728.00
31.745 1711.00
31.8102 1651.00
31.8754 1504.00
31.9406 1580.00
32.0058 1514.00
32.071 1497.00
32.1362 1525.00
32.2014 1571.00
32.2666 1549.00
32.3318 1583.00
32.397 1731.00
32.4622 1724.00
32.5274 1787.00
32.5926 1954.00
32.6578 2063.00
32.723 2133.00
32.7882 2136.00
32.8534 2282.00
32.9186 2388.00
32.9838 2417.00
33.0489 2477.00
33.1141 2630.00
33.1793 3055.00
33.2445 3802.00
33.3097 4914.00
33.3749 5211.00
33.4401 4618.00
33.5053 3387.00
33.5705 2540.00
33.6357 2002.00
33.7009 1817.00
33.7661 1701.00
33.8313 1728.00
33.8965 1773.00
33.9617 1768.00
34.0269 1610.00
34.0921 1637.00
34.1573 1537.00
34.2225 1428.00
34.2877 1313.00
34.3529 1294.00
34.4181 1225.00
34.4833 1240.00
34.5485 1307.00
34.6137 1273.00
34.6789 1242.00
34.7441 1267.00
34.8093 1215.00
34.8745 1212.00
34.9397 1191.00
35.0049 1218.00
35.0701 1281.00
35.1353 1210.00
35.2005 1201.00
35.2657 1167.00
35.3309 1139.00
35.3961 1162.00
35.4613 1182.00
35.5265 1225.00
35.5917 1313.00
35.6569 1454.00
35.7221 1520.00
35.7873 1512.00
35.8525 1387.00
35.9177 1241.00
35.9829 1163.00
36.0481 1267.00
36.1133 1311.00
36.1785 1732.00
36.2437 2062.00
36.3089 1652.00
36.3741 1294.00
36.4393 1096.00
36.5045 1065.00
36.5697 1062.00
36.6349 1082.00
36.7001 1018.00
36.7653 1010.00
36.8305 1006.00
36.8957 1074.00
36.9609 1027.00
37.0261 1097.00
37.0913 1032.00
37.1565 1002.00
37.2217 985.00
37.2869 1044.00
37.3521 1018.00
37.4173 1058.00
37.4825 1062.00
37.5477 1063.00
37.6129 1026.00
37.6781 1033.00
37.7433 978.00
37.8085 1020.00
37.8736 993.00
37.9388 968.00
38.004 945.00
38.0692 977.00
38.1344 994.00
38.1996 970.00
38.2648 989.00
38.33 1073.00
38.3952 1074.00
38.4604 1079.00
38.5256 1133.00
38.5908 1127.00
38.656 1150.00
38.7212 1186.00
38.7864 1110.00
38.8516 1137.00
38.9168 1095.00
38.982 1108.00
39.0472 1048.00
39.1124 1081.00
39.1776 1088.00
39.2428 1016.00
39.308 1010.00
39.3732 1012.00
39.4384 1080.00
39.5036 1168.00
39.5688 1523.00
39.634 2150.00
39.6992 2242.00
39.7644 1646.00
39.8296 1237.00
39.8948 924.00
39.96 810.00
40.0252 836.00
40.0904 812.00
40.1556 851.00
40.2208 821.00
40.286 818.00
40.3512 814.00
40.4164 847.00
40.4816 838.00
40.5468 822.00
40.612 817.00
40.6772 799.00
40.7424 764.00
40.8076 794.00
40.8728 751.00
40.938 798.00
41.0032 801.00
41.0684 906.00
41.1336 959.00
41.1988 969.00
41.264 987.00
41.3292 940.00
41.3944 897.00
41.4596 895.00
41.5248 822.00
41.59 818.00
41.6552 828.00
41.7204 890.00
41.7856 913.00
41.8508 878.00
41.916 861.00
41.9812 814.00
42.0464 785.00
42.1116 858.00
42.1768 811.00
42.242 955.00
42.3072 923.00
42.3724 821.00
42.4376 876.00
42.5028 833.00
42.568 850.00
42.6332 895.00
42.6983 882.00
42.7635 864.00
42.8287 915.00
42.8939 865.00
42.9591 976.00
43.0243 902.00
43.0895 997.00
43.1547 951.00
43.2199 1026.00
43.2851 1219.00
43.3503 1629.00
43.4155 2042.00
43.4807 1640.00
43.5459 1465.00
43.6111 1120.00
43.6763 1114.00
43.7415 1047.00
43.8067 1055.00
43.8719 993.00
43.9371 959.00
44.0023 950.00
44.0675 924.00
44.1327 894.00
44.1979 928.00
44.2631 890.00
44.3283 862.00
44.3935 892.00
44.4587 944.00
44.5239 847.00
44.5891 889.00
44.6543 884.00
44.7195 892.00
44.7847 904.00
44.8499 881.00
44.9151 940.00
44.9803 912.00
45.0455 914.00
45.1107 901.00
45.1759 945.00
45.2411 890.00
45.3063 947.00
45.3715 947.00
45.4367 941.00
45.5019 940.00
45.5671 887.00
45.6323 907.00
45.6975 880.00
45.7627 953.00
45.8279 1005.00
45.8931 1034.00
45.9583 993.00
46.0235 1014.00
46.0887 927.00
46.1539 1026.00
46.2191 916.00
46.2843 942.00
46.3495 898.00
46.4147 891.00
46.4799 827.00
46.5451 858.00
46.6103 877.00
46.6755 911.00
46.7407 890.00
46.8059 849.00
46.8711 869.00
46.9363 874.00
47.0015 883.00
47.0667 883.00
47.1319 930.00
47.1971 1023.00
47.2623 1149.00
47.3275 1410.00
47.3927 1419.00
47.4579 1330.00
47.523 1321.00
47.5882 1276.00
47.6534 1601.00
47.7186 2146.00
47.7838 2091.00
47.849 1590.00
47.9142 1326.00
47.9794 1041.00
48.0446 959.00
48.1098 884.00
48.175 908.00
48.2402 853.00
48.3054 778.00
48.3706 766.00
48.4358 841.00
48.501 837.00
48.5662 973.00
48.6314 1261.00
48.6966 1859.00
48.7618 2136.00
48.827 1586.00
48.8922 1441.00
48.9574 943.00
49.0226 798.00
49.0878 771.00
49.153 735.00
49.2182 715.00
49.2834 673.00
49.3486 723.00
49.4138 691.00
49.479 721.00
49.5442 706.00
49.6094 691.00
49.6746 657.00
49.7398 651.00
49.805 640.00
49.8702 624.00
49.9354 618.00
50.0006 641.00
50.0658 716.00
50.131 692.00
50.1962 686.00
50.2614 704.00
50.3266 657.00
50.3918 679.00
50.457 612.00
50.5222 617.00
50.5874 601.00
50.6526 643.00
50.7178 658.00
50.783 618.00
50.8482 656.00
50.9134 623.00
50.9786 623.00
51.0438 685.00
51.109 678.00
51.1742 621.00
51.2394 696.00
51.3046 676.00
51.3698 674.00
51.435 675.00
51.5002 659.00
51.5654 690.00
51.6306 648.00
51.6958 681.00
51.761 727.00
51.8262 727.00
51.8914 743.00
51.9566 721.00
52.0218 741.00
52.087 780.00
52.1522 815.00
52.2174 783.00
52.2826 846.00
52.3477 820.00
52.4129 800.00
52.4781 843.00
52.5433 803.00
52.6085 783.00
52.6737 794.00
52.7389 734.00
52.8041 722.00
52.8693 701.00
52.9345 676.00
52.9997 717.00
53.0649 741.00
53.1301 717.00
53.1953 683.00
53.2605 710.00
53.3257 678.00
53.3909 713.00
53.4561 713.00
53.5213 678.00
53.5865 683.00
53.6517 675.00
53.7169 634.00
53.7821 676.00
53.8473 664.00
53.9125 654.00
53.9777 698.00
54.0429 647.00
54.1081 670.00
54.1733 650.00
54.2385 668.00
54.3037 656.00
54.3689 612.00
54.4341 594.00
54.4993 655.00
54.5645 635.00
54.6297 607.00
54.6949 653.00
54.7601 671.00
54.8253 661.00
54.8905 678.00
54.9557 709.00
55.0209 695.00
55.0861 706.00
55.1513 686.00
55.2165 697.00
55.2817 682.00
55.3469 681.00
55.4121 629.00
55.4773 625.00
55.5425 615.00
55.6077 647.00
55.6729 643.00
55.7381 632.00
55.8033 630.00
55.8685 610.00
55.9337 662.00
55.9989 593.00
56.0641 626.00
56.1293 666.00
56.1945 686.00
56.2597 606.00
56.3249 604.00
56.3901 629.00
56.4553 647.00
56.5205 573.00
56.5857 659.00
56.6509 671.00
56.7161 718.00
56.7813 809.00
56.8465 808.00
56.9117 736.00
56.9769 737.00
57.042 699.00
57.1073 657.00
57.1724 615.00
57.2376 677.00
57.3028 676.00
57.368 620.00
57.4332 735.00
57.4984 853.00
57.5636 1042.00
57.6288 1191.00
57.694 1059.00
57.7592 955.00
57.8244 925.00
57.8896 729.00
57.9548 726.00
58.02 641.00
58.0852 723.00
58.1504 688.00
58.2156 674.00
58.2808 731.00
58.346 756.00
58.4112 752.00
58.4764 727.00
58.5416 690.00
58.6068 631.00
58.672 620.00
58.7372 695.00
58.8024 685.00
58.8676 670.00
58.9328 753.00
58.998 735.00
59.0632 809.00
59.1284 841.00
59.1936 894.00
59.2588 892.00
59.324 878.00
59.3892 916.00
59.4544 882.00
59.5196 872.00
59.5848 836.00
59.65 858.00
59.7152 867.00
59.7804 837.00
59.8456 875.00
59.9108 807.00
59.976 780.00
60.0412 719.00
60.1064 667.00
60.1716 685.00
60.2368 650.00
60.302 629.00
60.3672 614.00
60.4324 642.00
60.4976 707.00
60.5628 642.00
60.628 638.00
60.6932 668.00
60.7584 696.00
60.8236 878.00
60.8888 949.00
60.954 884.00
61.0192 871.00
61.0844 852.00
61.1496 759.00
61.2148 779.00
61.28 715.00
61.3452 686.00
61.4104 638.00
61.4756 651.00
61.5408 706.00
61.606 758.00
61.6712 683.00
61.7364 730.00
61.8016 621.00
61.8667 575.00
61.932 671.00
61.9971 612.00
62.0623 594.00
62.1275 591.00
62.1927 574.00
62.2579 578.00
62.3231 563.00
62.3883 547.00
62.4535 582.00
62.5187 588.00
62.5839 573.00
62.6491 503.00
62.7143 561.00
62.7795 599.00
62.8447 584.00
62.9099 606.00
62.9751 633.00
63.0403 652.00
63.1055 635.00
63.1707 708.00
63.2359 713.00
63.3011 756.00
63.3663 617.00
63.4315 682.00
63.4967 615.00
63.5619 575.00
63.6271 600.00
63.6923 595.00
63.7575 558.00
63.8227 587.00
63.8879 587.00
63.9531 564.00
64.0183 547.00
64.0835 545.00
64.1487 521.00
64.2139 513.00
64.2791 579.00
64.3443 529.00
64.4095 525.00
64.4747 500.00
64.5399 547.00
64.6051 547.00
64.6703 531.00
64.7355 637.00
64.8007 700.00
64.8659 936.00
64.9311 824.00
64.9963 683.00
65.0615 766.00
65.1267 653.00
65.1919 564.00
65.2571 599.00
65.3223 565.00
65.3875 593.00
65.4527 629.00
65.5179 662.00
65.5831 665.00
65.6483 676.00
65.7135 754.00
65.7787 823.00
65.8439 829.00
65.9091 673.00
65.9743 632.00
66.0395 643.00
66.1047 546.00
66.1699 560.00
66.2351 570.00
66.3003 612.00
66.3655 559.00
66.4307 565.00
66.4959 558.00
66.561 553.00
66.6263 514.00
66.6915 553.00
66.7566 582.00
66.8218 561.00
66.887 552.00
66.9522 585.00
67.0174 567.00
67.0826 563.00
67.1478 527.00
67.213 543.00
67.2782 497.00
67.3434 498.00
67.4086 508.00
67.4738 553.00
67.539 497.00
67.6042 535.00
67.6694 556.00
67.7346 501.00
67.7998 538.00
67.865 505.00
67.9302 508.00
67.9954 533.00
68.0606 482.00
68.1258 493.00
68.191 520.00
68.2562 432.00
68.3214 478.00
68.3866 498.00
68.4518 461.00
68.517 490.00
68.5822 467.00
68.6474 483.00
68.7126 473.00
68.7778 424.00
68.843 448.00
68.9082 455.00
68.9734 475.00
69.0386 476.00
69.1038 443.00
69.169 480.00
69.2342 458.00
69.2994 495.00
69.3646 517.00
69.4298 568.00
69.495 595.00
69.5602 581.00
69.6254 633.00
69.6906 555.00
69.7558 586.00
69.821 613.00
69.8862 523.00
69.9514 511.00
70.0166 532.00
70.0818 521.00
70.147 503.00
70.2122 519.00
70.2774 547.00
70.3426 530.00
70.4078 587.00
70.473 572.00
70.5382 507.00
70.6034 538.00
70.6686 490.00
70.7338 430.00
70.799 446.00
70.8642 457.00
70.9294 465.00
70.9946 454.00
71.0598 498.00
71.125 451.00
71.1902 394.00
71.2554 433.00
71.3205 458.00
71.3858 453.00
71.451 430.00
71.5162 420.00
71.5813 393.00
71.6465 407.00
71.7117 422.00
71.7769 407.00
71.8421 427.00
71.9073 393.00
71.9725 425.00
72.0377 380.00
72.1029 461.00
72.1681 449.00
72.2333 428.00
72.2985 424.00
72.3637 439.00
72.4289 370.00
72.4941 437.00
72.5593 478.00
72.6245 428.00
72.6897 450.00
72.7549 445.00
72.8201 427.00
72.8853 501.00
72.9505 485.00
73.0157 573.00
73.0809 605.00
73.1461 576.00
73.2113 537.00
73.2765 520.00
73.3417 486.00
73.4069 419.00
73.4721 400.00
73.5373 486.00
73.6025 457.00
73.6677 416.00
73.7329 388.00
73.7981 394.00
73.8633 400.00
73.9285 392.00
73.9937 423.00
74.0589 422.00
74.1241 414.00
74.1893 422.00
74.2545 400.00
74.3197 410.00
74.3849 431.00
74.4501 408.00
74.5153 393.00
74.5805 387.00
74.6457 391.00
74.7109 420.00
74.7761 420.00
74.8413 417.00
74.9065 403.00
74.9717 424.00
75.0369 383.00
75.1021 408.00
75.1673 444.00
75.2325 408.00
75.2977 401.00
75.3629 370.00
75.4281 382.00
75.4933 407.00
75.5585 410.00
75.6237 369.00
75.6889 410.00
75.7541 401.00
75.8193 377.00
75.8845 406.00
75.9497 443.00
76.0149 408.00
76.0801 402.00
76.1452 376.00
76.2104 419.00
76.2756 444.00
76.3409 469.00
76.406 481.00
76.4712 527.00
76.5364 461.00
76.6016 479.00
76.6668 458.00
76.732 451.00
76.7972 434.00
76.8624 442.00
76.9276 450.00
76.9928 413.00
77.058 430.00
77.1232 428.00
77.1884 451.00
77.2536 449.00
77.3188 542.00
77.384 503.00
77.4492 459.00
77.5144 467.00
77.5796 479.00
77.6448 386.00
77.71 383.00
77.7752 406.00
77.8404 399.00
77.9056 394.00
77.9708 413.00
78.036 396.00
78.1012 395.00
78.1664 430.00
78.2316 414.00
78.2968 453.00
78.362 423.00
78.4272 429.00
78.4924 408.00
78.5576 401.00
78.6228 371.00
78.688 403.00
78.7532 363.00
78.8184 366.00
78.8836 428.00
78.9488 410.00
79.014 408.00
79.0792 430.00
79.1444 419.00
79.2096 406.00
79.2748 444.00
79.34 427.00
79.4052 442.00
79.4704 404.00
79.5356 406.00
79.6008 376.00
79.666 381.00
79.7312 406.00
79.7964 408.00
79.8616 400.00
79.9268 408.00
79.992 390.00
80.0572 387.00
80.1224 367.00
80.1876 390.00
80.2528 355.00
80.318 362.00
80.3832 356.00
80.4484 394.00
80.5136 344.00
80.5788 359.00
80.644 383.00
80.7092 335.00
80.7744 358.00
80.8396 389.00
80.9048 348.00
80.9699 373.00
81.0351 402.00
81.1003 393.00
81.1655 406.00
81.2307 394.00
81.2959 401.00
81.3611 392.00
81.4263 436.00
81.4915 442.00
81.5567 410.00
81.6219 454.00
81.6871 519.00
81.7523 482.00
81.8175 457.00
81.8827 449.00
81.9479 495.00
82.0131 458.00
82.0783 374.00
82.1435 400.00
82.2087 379.00
82.2739 421.00
82.3391 344.00
82.4043 367.00
82.4695 390.00
82.5347 382.00
82.5999 376.00
82.6651 367.00
82.7303 396.00
82.7955 421.00
82.8607 421.00
82.9259 404.00
82.9911 436.00
83.0563 398.00
83.1215 418.00
83.1867 402.00
83.2519 425.00
83.3171 445.00
83.3823 400.00
83.4475 428.00
83.5127 414.00
83.5779 432.00
83.6431 481.00
83.7083 424.00
83.7735 503.00
83.8387 520.00
83.9039 652.00
83.9691 639.00
84.0343 556.00
84.0995 513.00
84.1647 511.00
84.2299 594.00
84.2951 504.00
84.3603 431.00
84.4255 424.00
84.4907 424.00
84.5559 480.00
84.6211 411.00
84.6863 413.00
84.7515 420.00
84.8167 498.00
84.8819 460.00
84.9471 494.00
85.0123 512.00
85.0775 535.00
85.1427 447.00
85.2079 435.00
85.2731 467.00
85.3383 372.00
85.4035 399.00
85.4687 384.00
85.5339 359.00
85.5991 378.00
85.6643 359.00
85.7295 366.00
85.7946 344.00
85.8598 435.00
85.925 410.00
85.9903 357.00
86.0554 388.00
86.1206 349.00
86.1858 338.00
86.251 408.00
86.3162 394.00
86.3814 447.00
86.4466 376.00
86.5118 383.00
86.577 418.00
86.6422 438.00
86.7074 424.00
86.7726 395.00
86.8378 397.00
86.903 394.00
86.9682 390.00
87.0334 380.00
87.0986 375.00
87.1638 381.00
87.229 357.00
87.2942 404.00
87.3594 396.00
87.4246 374.00
87.4898 385.00
87.555 376.00
87.6202 384.00
87.6854 395.00
87.7506 347.00
87.8158 382.00
87.881 374.00
87.9462 369.00
88.0114 317.00
88.0766 326.00
88.1418 387.00
88.207 356.00
88.2722 374.00
88.3374 372.00
88.4026 356.00
88.4678 338.00
88.533 343.00
88.5982 371.00
88.6634 331.00
88.7286 358.00
88.7938 386.00
88.859 343.00
88.9242 368.00
88.9894 387.00
89.0546 349.00
89.1198 384.00
89.185 354.00
89.2502 359.00
89.3154 379.00
89.3806 361.00
89.4458 357.00
89.511 366.00
89.5762 375.00
89.6414 362.00
89.7066 321.00
89.7718 349.00
89.837 356.00
89.9022 306.00
89.9674 382.00
90.0326 375.00
90.0978 336.00
90.163 355.00
90.2282 327.00
90.2934 329.00
90.3586 344.00
90.4238 341.00
90.489 371.00
90.5542 302.00
90.6193 357.00
90.6845 361.00
90.7497 351.00
90.8149 337.00
90.8801 345.00
90.9453 342.00
91.0105 347.00
91.0757 352.00
91.1409 329.00
91.2061 370.00
91.2713 341.00
91.3365 357.00
91.4017 344.00
91.4669 345.00
91.5321 378.00
91.5973 386.00
91.6625 343.00
91.7277 357.00
91.7929 381.00
91.8581 385.00
91.9233 338.00
91.9885 343.00
92.0537 390.00
92.1189 372.00
92.1841 385.00
92.2493 397.00
92.3145 392.00
92.3797 359.00
92.4449 339.00
92.5101 376.00
92.5753 394.00
92.6405 362.00
92.7057 380.00
92.7709 320.00
92.8361 338.00
92.9013 379.00
92.9665 341.00
93.0317 365.00
93.0969 366.00
93.1621 388.00
93.2273 457.00
93.2925 373.00
93.3577 355.00
93.4229 368.00
93.4881 408.00
93.5533 380.00
93.6185 357.00
93.6837 332.00
93.7489 365.00
93.8141 365.00
93.8793 309.00
93.9445 365.00
94.0097 356.00
94.0749 359.00
94.1401 367.00
94.2053 360.00
94.2705 356.00
94.3357 387.00
94.4009 331.00
94.4661 367.00
94.5313 351.00
94.5965 382.00
94.6617 416.00
94.7269 397.00
94.7921 468.00
94.8573 502.00
94.9225 499.00
94.9877 438.00
95.0529 490.00
95.1181 614.00
95.1833 615.00
95.2485 523.00
95.3137 435.00
95.3789 440.00
95.444 442.00
95.5092 457.00
95.5744 388.00
95.6396 371.00
95.7048 405.00
95.77 365.00
95.8352 356.00
95.9004 343.00
95.9656 338.00
96.0308 380.00
96.096 384.00
96.1612 376.00
96.2264 394.00
96.2916 423.00
96.3568 415.00
96.422 397.00
96.4872 366.00
96.5524 416.00
96.6176 408.00
96.6828 367.00
96.748 356.00
96.8132 380.00
96.8784 342.00
96.9436 352.00
97.0088 313.00
97.074 365.00
97.1392 341.00
97.2044 334.00
97.2696 338.00
97.3348 343.00
97.4 361.00
97.4652 362.00
97.5304 360.00
97.5956 376.00
97.6608 364.00
97.726 373.00
97.7912 353.00
97.8564 426.00
97.9216 354.00
97.9868 373.00
98.052 349.00
98.1172 394.00
98.1824 375.00
98.2476 395.00
98.3128 361.00
98.378 389.00
98.4432 401.00
98.5084 371.00
98.5736 386.00
98.6388 403.00
98.704 393.00
98.7692 384.00
98.8344 404.00
98.8996 375.00
98.9648 362.00
99.03 370.00
99.0952 399.00
99.1604 428.00
99.2256 523.00
99.2908 478.00
99.356 526.00
99.4212 407.00
99.4864 425.00
99.5516 396.00
99.6168 461.00
99.682 447.00
99.7472 382.00
99.8124 364.00
99.8776 356.00
99.9428 364.00
100.008 385.00
100.073 341.00
100.095 357.00