File: data/xrd_creation/results/Na_79.xy
9.903433 2657.00
9.968632 2649.00
10.0338 2634.00
10.099 2533.00
10.1642 2466.00
10.2294 2519.00
10.2946 2579.00
10.3598 2438.00
10.425 2446.00
10.4902 2419.00
10.5554 2268.00
10.6206 2360.00
10.6858 2381.00
10.751 2282.00
10.8162 2352.00
10.8814 2231.00
10.9466 2185.00
11.0118 2185.00
11.077 2310.00
11.1422 2267.00
11.2074 2228.00
11.2726 2145.00
11.3378 2073.00
11.403 2002.00
11.4682 2185.00
11.5334 2100.00
11.5986 2008.00
11.6638 2073.00
11.729 1979.00
11.7942 2025.00
11.8594 1978.00
11.9246 1973.00
11.9898 1907.00
12.055 1857.00
12.1202 1865.00
12.1854 1831.00
12.2506 1952.00
12.3158 1852.00
12.381 1789.00
12.4462 1854.00
12.5114 1726.00
12.5766 1799.00
12.6418 1842.00
12.707 1741.00
12.7722 1752.00
12.8374 1706.00
12.9026 1721.00
12.9678 1673.00
13.033 1608.00
13.0982 1674.00
13.1634 1621.00
13.2286 1637.00
13.2938 1699.00
13.359 1671.00
13.4242 1657.00
13.4894 1557.00
13.5546 1561.00
13.6198 1601.00
13.685 1517.00
13.7502 1561.00
13.8154 1512.00
13.8805 1493.00
13.9457 1527.00
14.0109 1582.00
14.0761 1489.00
14.1413 1456.00
14.2065 1490.00
14.2717 1457.00
14.3369 1428.00
14.4021 1418.00
14.4673 1502.00
14.5325 1457.00
14.5977 1481.00
14.6629 1395.00
14.7281 1412.00
14.7933 1430.00
14.8585 1470.00
14.9237 1392.00
14.9889 1425.00
15.0541 1364.00
15.1193 1370.00
15.1845 1333.00
15.2497 1386.00
15.3149 1396.00
15.3801 1448.00
15.4453 1308.00
15.5105 1371.00
15.5757 1336.00
15.6409 1280.00
15.7061 1369.00
15.7713 1318.00
15.8365 1397.00
15.9017 1363.00
15.9669 1334.00
16.0321 1262.00
16.0973 1317.00
16.1625 1299.00
16.2277 1293.00
16.2929 1376.00
16.3581 1264.00
16.4233 1337.00
16.4885 1245.00
16.5537 1264.00
16.6189 1221.00
16.6841 1193.00
16.7493 1271.00
16.8145 1210.00
16.8797 1302.00
16.9449 1208.00
17.0101 1128.00
17.0753 1160.00
17.1405 1145.00
17.2057 1214.00
17.2709 1150.00
17.3361 1234.00
17.4013 1148.00
17.4665 1185.00
17.5317 1182.00
17.5969 1226.00
17.6621 1096.00
17.7273 1167.00
17.7925 1074.00
17.8577 1138.00
17.9229 1141.00
17.9881 1054.00
18.0533 1112.00
18.1185 1167.00
18.1837 1095.00
18.2489 1110.00
18.3141 1091.00
18.3793 1102.00
18.4445 1107.00
18.5097 1077.00
18.5749 1073.00
18.6401 1051.00
18.7052 1072.00
18.7704 998.00
18.8356 1109.00
18.9008 1014.00
18.966 1076.00
19.0312 1025.00
19.0964 942.00
19.1616 1021.00
19.2268 1033.00
19.292 975.00
19.3572 1003.00
19.4224 980.00
19.4876 1012.00
19.5528 1010.00
19.618 944.00
19.6832 993.00
19.7484 1049.00
19.8136 1012.00
19.8788 1045.00
19.944 1231.00
20.0092 1396.00
20.0744 1220.00
20.1396 1147.00
20.2048 957.00
20.27 961.00
20.3352 904.00
20.4004 986.00
20.4656 961.00
20.5308 870.00
20.596 934.00
20.6612 911.00
20.7264 898.00
20.7916 974.00
20.8568 866.00
20.922 916.00
20.9872 892.00
21.0524 888.00
21.1176 929.00
21.1828 901.00
21.248 889.00
21.3132 916.00
21.3784 891.00
21.4436 899.00
21.5088 921.00
21.574 834.00
21.6392 882.00
21.7044 901.00
21.7696 891.00
21.8348 884.00
21.9 841.00
21.9652 819.00
22.0304 868.00
22.0956 834.00
22.1608 828.00
22.226 883.00
22.2912 839.00
22.3564 828.00
22.4216 884.00
22.4868 849.00
22.552 810.00
22.6172 841.00
22.6824 811.00
22.7476 815.00
22.8128 796.00
22.878 786.00
22.9432 853.00
23.0084 837.00
23.0736 791.00
23.1388 787.00
23.204 820.00
23.2692 797.00
23.3344 786.00
23.3996 824.00
23.4647 798.00
23.5299 776.00
23.5951 783.00
23.6603 800.00
23.7255 760.00
23.7907 763.00
23.8559 764.00
23.9211 786.00
23.9863 772.00
24.0515 742.00
24.1167 807.00
24.1819 736.00
24.2471 736.00
24.3123 737.00
24.3775 738.00
24.4427 767.00
24.5079 793.00
24.5731 696.00
24.6383 734.00
24.7035 698.00
24.7687 729.00
24.8339 733.00
24.8991 724.00
24.9643 708.00
25.0295 707.00
25.0947 746.00
25.1599 683.00
25.2251 721.00
25.2903 739.00
25.3555 742.00
25.4207 712.00
25.4859 751.00
25.5511 647.00
25.6163 665.00
25.6815 710.00
25.7467 712.00
25.8119 757.00
25.8771 707.00
25.9423 708.00
26.0075 789.00
26.0727 753.00
26.1379 798.00
26.2031 800.00
26.2683 952.00
26.3335 1089.00
26.3987 1349.00
26.4639 2006.00
26.5291 2207.00
26.5943 1787.00
26.6595 1241.00
26.7247 920.00
26.7899 824.00
26.8551 753.00
26.9203 741.00
26.9855 698.00
27.0507 666.00
27.1159 677.00
27.1811 642.00
27.2463 622.00
27.3115 667.00
27.3767 712.00
27.4419 702.00
27.5071 675.00
27.5723 665.00
27.6375 717.00
27.7027 667.00
27.7679 643.00
27.8331 596.00
27.8983 675.00
27.9635 669.00
28.0287 655.00
28.0939 648.00
28.1591 615.00
28.2243 635.00
28.2894 657.00
28.3546 691.00
28.4198 582.00
28.485 622.00
28.5502 572.00
28.6154 622.00
28.6806 621.00
28.7458 621.00
28.811 601.00
28.8762 649.00
28.9414 609.00
29.0066 569.00
29.0718 563.00
29.137 589.00
29.2022 595.00
29.2674 604.00
29.3326 572.00
29.3978 552.00
29.463 569.00
29.5282 570.00
29.5934 544.00
29.6586 589.00
29.7238 594.00
29.789 539.00
29.8542 588.00
29.9194 566.00
29.9846 551.00
30.0498 567.00
30.115 573.00
30.1802 547.00
30.2454 536.00
30.3106 560.00
30.3758 578.00
30.441 516.00
30.5062 606.00
30.5714 577.00
30.6366 565.00
30.7018 565.00
30.767 562.00
30.8322 505.00
30.8974 503.00
30.9626 539.00
31.0278 552.00
31.093 547.00
31.1582 576.00
31.2234 507.00
31.2886 508.00
31.3538 519.00
31.419 586.00
31.4842 537.00
31.5494 526.00
31.6146 478.00
31.6798 508.00
31.745 551.00
31.8102 501.00
31.8754 536.00
31.9406 497.00
32.0058 530.00
32.071 556.00
32.1362 545.00
32.2014 511.00
32.2666 524.00
32.3318 475.00
32.397 527.00
32.4622 559.00
32.5274 579.00
32.5926 642.00
32.6578 680.00
32.723 697.00
32.7882 645.00
32.8534 559.00
32.9186 577.00
32.9838 634.00
33.0489 760.00
33.1141 849.00
33.1793 800.00
33.2445 635.00
33.3097 539.00
33.3749 519.00
33.4401 517.00
33.5053 538.00
33.5705 629.00
33.6357 730.00
33.7009 1037.00
33.7661 1493.00
33.8313 1731.00
33.8965 1445.00
33.9617 950.00
34.0269 743.00
34.0921 607.00
34.1573 549.00
34.2225 531.00
34.2877 490.00
34.3529 502.00
34.4181 505.00
34.4833 474.00
34.5485 452.00
34.6137 522.00
34.6789 483.00
34.7441 481.00
34.8093 489.00
34.8745 442.00
34.9397 390.00
35.0049 477.00
35.0701 442.00
35.1353 474.00
35.2005 423.00
35.2657 467.00
35.3309 410.00
35.3961 452.00
35.4613 386.00
35.5265 394.00
35.5917 443.00
35.6569 448.00
35.7221 438.00
35.7873 449.00
35.8525 417.00
35.9177 442.00
35.9829 425.00
36.0481 407.00
36.1133 389.00
36.1785 405.00
36.2437 377.00
36.3089 423.00
36.3741 389.00
36.4393 408.00
36.5045 426.00
36.5697 438.00
36.6349 418.00
36.7001 483.00
36.7653 403.00
36.8305 412.00
36.8957 455.00
36.9609 433.00
37.0261 468.00
37.0913 452.00
37.1565 439.00
37.2217 400.00
37.2869 441.00
37.3521 446.00
37.4173 430.00
37.4825 427.00
37.5477 415.00
37.6129 432.00
37.6781 457.00
37.7433 441.00
37.8085 599.00
37.8736 710.00
37.9388 684.00
38.004 603.00
38.0692 510.00
38.1344 430.00
38.1996 441.00
38.2648 395.00
38.33 395.00
38.3952 442.00
38.4604 466.00
38.5256 421.00
38.5908 391.00
38.656 382.00
38.7212 380.00
38.7864 423.00
38.8516 421.00
38.9168 460.00
38.982 435.00
39.0472 421.00
39.1124 380.00
39.1776 371.00
39.2428 359.00
39.308 373.00
39.3732 344.00
39.4384 367.00
39.5036 375.00
39.5688 337.00
39.634 328.00
39.6992 358.00
39.7644 331.00
39.8296 371.00
39.8948 340.00
39.96 379.00
40.0252 366.00
40.0904 351.00
40.1556 364.00
40.2208 348.00
40.286 343.00
40.3512 381.00
40.4164 309.00
40.4816 355.00
40.5468 365.00
40.612 367.00
40.6772 322.00
40.7424 336.00
40.8076 367.00
40.8728 325.00
40.938 359.00
41.0032 357.00
41.0684 343.00
41.1336 316.00
41.1988 367.00
41.264 354.00
41.3292 338.00
41.3944 360.00
41.4596 346.00
41.5248 327.00
41.59 299.00
41.6552 345.00
41.7204 368.00
41.7856 349.00
41.8508 333.00
41.916 345.00
41.9812 341.00
42.0464 353.00
42.1116 313.00
42.1768 332.00
42.242 355.00
42.3072 335.00
42.3724 315.00
42.4376 383.00
42.5028 399.00
42.568 336.00
42.6332 368.00
42.6983 357.00
42.7635 344.00
42.8287 387.00
42.8939 365.00
42.9591 357.00
43.0243 346.00
43.0895 325.00
43.1547 319.00
43.2199 354.00
43.2851 347.00
43.3503 360.00
43.4155 363.00
43.4807 374.00
43.5459 378.00
43.6111 418.00
43.6763 351.00
43.7415 341.00
43.8067 361.00
43.8719 338.00
43.9371 313.00
44.0023 323.00
44.0675 370.00
44.1327 306.00
44.1979 308.00
44.2631 316.00
44.3283 353.00
44.3935 318.00
44.4587 296.00
44.5239 328.00
44.5891 321.00
44.6543 334.00
44.7195 360.00
44.7847 319.00
44.8499 300.00
44.9151 322.00
44.9803 278.00
45.0455 305.00
45.1107 287.00
45.1759 282.00
45.2411 296.00
45.3063 285.00
45.3715 301.00
45.4367 308.00
45.5019 303.00
45.5671 311.00
45.6323 311.00
45.6975 294.00
45.7627 332.00
45.8279 336.00
45.8931 270.00
45.9583 309.00
46.0235 298.00
46.0887 293.00
46.1539 320.00
46.2191 314.00
46.2843 297.00
46.3495 299.00
46.4147 284.00
46.4799 316.00
46.5451 334.00
46.6103 289.00
46.6755 302.00
46.7407 277.00
46.8059 298.00
46.8711 300.00
46.9363 298.00
47.0015 287.00
47.0667 298.00
47.1319 319.00
47.1971 331.00
47.2623 355.00
47.3275 324.00
47.3927 353.00
47.4579 279.00
47.523 303.00
47.5882 301.00
47.6534 309.00
47.7186 291.00
47.7838 290.00
47.849 270.00
47.9142 266.00
47.9794 299.00
48.0446 284.00
48.1098 302.00
48.175 290.00
48.2402 288.00
48.3054 307.00
48.3706 277.00
48.4358 288.00
48.501 282.00
48.5662 307.00
48.6314 294.00
48.6966 311.00
48.7618 323.00
48.827 282.00
48.8922 290.00
48.9574 257.00
49.0226 314.00
49.0878 305.00
49.153 292.00
49.2182 249.00
49.2834 226.00
49.3486 262.00
49.4138 248.00
49.479 286.00
49.5442 283.00
49.6094 249.00
49.6746 243.00
49.7398 275.00
49.805 259.00
49.8702 269.00
49.9354 285.00
50.0006 258.00
50.0658 279.00
50.131 272.00
50.1962 258.00
50.2614 270.00
50.3266 233.00
50.3918 268.00
50.457 256.00
50.5222 287.00
50.5874 248.00
50.6526 280.00
50.7178 251.00
50.783 282.00
50.8482 248.00
50.9134 283.00
50.9786 239.00
51.0438 227.00
51.109 294.00
51.1742 280.00
51.2394 312.00
51.3046 271.00
51.3698 344.00
51.435 330.00
51.5002 388.00
51.5654 507.00
51.6306 793.00
51.6958 1025.00
51.761 1063.00
51.8262 791.00
51.8914 715.00
51.9566 486.00
52.0218 401.00
52.087 329.00
52.1522 324.00
52.2174 323.00
52.2826 296.00
52.3477 267.00
52.4129 302.00
52.4781 270.00
52.5433 244.00
52.6085 243.00
52.6737 276.00
52.7389 272.00
52.8041 238.00
52.8693 243.00
52.9345 288.00
52.9997 241.00
53.0649 276.00
53.1301 257.00
53.1953 241.00
53.2605 271.00
53.3257 256.00
53.3909 244.00
53.4561 260.00
53.5213 269.00
53.5865 269.00
53.6517 264.00
53.7169 265.00
53.7821 249.00
53.8473 245.00
53.9125 288.00
53.9777 259.00
54.0429 271.00
54.1081 236.00
54.1733 239.00
54.2385 267.00
54.3037 288.00
54.3689 273.00
54.4341 277.00
54.4993 305.00
54.5645 309.00
54.6297 379.00
54.6949 432.00
54.7601 408.00
54.8253 414.00
54.8905 322.00
54.9557 281.00
55.0209 272.00
55.0861 282.00
55.1513 232.00
55.2165 270.00
55.2817 245.00
55.3469 270.00
55.4121 246.00
55.4773 247.00
55.5425 211.00
55.6077 242.00
55.6729 218.00
55.7381 292.00
55.8033 225.00
55.8685 237.00
55.9337 231.00
55.9989 232.00
56.0641 215.00
56.1293 224.00
56.1945 244.00
56.2597 233.00
56.3249 204.00
56.3901 228.00
56.4553 244.00
56.5205 215.00
56.5857 228.00
56.6509 220.00
56.7161 230.00
56.7813 215.00
56.8465 236.00
56.9117 216.00
56.9769 217.00
57.042 229.00
57.1073 209.00
57.1724 232.00
57.2376 234.00
57.3028 239.00
57.368 273.00
57.4332 234.00
57.4984 226.00
57.5636 257.00
57.6288 229.00
57.694 304.00
57.7592 294.00
57.8244 316.00
57.8896 289.00
57.9548 234.00
58.02 275.00
58.0852 263.00
58.1504 211.00
58.2156 223.00
58.2808 201.00
58.346 226.00
58.4112 214.00
58.4764 226.00
58.5416 224.00
58.6068 220.00
58.672 219.00
58.7372 229.00
58.8024 244.00
58.8676 213.00
58.9328 239.00
58.998 264.00
59.0632 221.00
59.1284 270.00
59.1936 244.00
59.2588 247.00
59.324 224.00
59.3892 224.00
59.4544 231.00
59.5196 221.00
59.5848 205.00
59.65 232.00
59.7152 222.00
59.7804 204.00
59.8456 199.00
59.9108 211.00
59.976 207.00
60.0412 213.00
60.1064 200.00
60.1716 230.00
60.2368 191.00
60.302 191.00
60.3672 195.00
60.4324 204.00
60.4976 197.00
60.5628 207.00
60.628 204.00
60.6932 204.00
60.7584 215.00
60.8236 211.00
60.8888 216.00
60.954 196.00
61.0192 193.00
61.0844 233.00
61.1496 222.00
61.2148 204.00
61.28 228.00
61.3452 215.00
61.4104 230.00
61.4756 226.00
61.5408 264.00
61.606 235.00
61.6712 240.00
61.7364 281.00
61.8016 384.00
61.8667 341.00
61.932 330.00
61.9971 301.00
62.0623 284.00
62.1275 274.00
62.1927 195.00
62.2579 268.00
62.3231 242.00
62.3883 206.00
62.4535 234.00
62.5187 180.00
62.5839 216.00
62.6491 220.00
62.7143 206.00
62.7795 221.00
62.8447 201.00
62.9099 235.00
62.9751 217.00
63.0403 197.00
63.1055 212.00
63.1707 215.00
63.2359 209.00
63.3011 240.00
63.3663 227.00
63.4315 199.00
63.4967 238.00
63.5619 231.00
63.6271 201.00
63.6923 164.00
63.7575 231.00
63.8227 195.00
63.8879 202.00
63.9531 194.00
64.0183 186.00
64.0835 234.00
64.1487 190.00
64.2139 182.00
64.2791 215.00
64.3443 220.00
64.4095 220.00
64.4747 203.00
64.5399 249.00
64.6051 297.00
64.6703 360.00
64.7355 331.00
64.8007 318.00
64.8659 325.00
64.9311 276.00
64.9963 250.00
65.0615 242.00
65.1267 248.00
65.1919 236.00
65.2571 207.00
65.3223 222.00
65.3875 229.00
65.4527 244.00
65.5179 227.00
65.5831 232.00
65.6483 245.00
65.7135 231.00
65.7787 287.00
65.8439 360.00
65.9091 429.00
65.9743 340.00
66.0395 341.00
66.1047 316.00
66.1699 272.00
66.2351 246.00
66.3003 234.00
66.3655 226.00
66.4307 195.00
66.4959 201.00
66.561 225.00
66.6263 214.00
66.6915 207.00
66.7566 211.00
66.8218 199.00
66.887 197.00
66.9522 196.00
67.0174 168.00
67.0826 201.00
67.1478 188.00
67.213 200.00
67.2782 192.00
67.3434 186.00
67.4086 227.00
67.4738 201.00
67.539 193.00
67.6042 176.00
67.6694 154.00
67.7346 215.00
67.7998 203.00
67.865 201.00
67.9302 188.00
67.9954 185.00
68.0606 178.00
68.1258 214.00
68.191 210.00
68.2562 201.00
68.3214 179.00
68.3866 192.00
68.4518 198.00
68.517 193.00
68.5822 220.00
68.6474 201.00
68.7126 177.00
68.7778 198.00
68.843 208.00
68.9082 204.00
68.9734 157.00
69.0386 197.00
69.1038 202.00
69.169 221.00
69.2342 204.00
69.2994 209.00
69.3646 183.00
69.4298 179.00
69.495 226.00
69.5602 183.00
69.6254 213.00
69.6906 224.00
69.7558 198.00
69.821 211.00
69.8862 203.00
69.9514 193.00
70.0166 185.00
70.0818 173.00
70.147 193.00
70.2122 193.00
70.2774 182.00
70.3426 219.00
70.4078 180.00
70.473 173.00
70.5382 191.00
70.6034 199.00
70.6686 194.00
70.7338 204.00
70.799 199.00
70.8642 203.00
70.9294 211.00
70.9946 191.00
71.0598 225.00
71.125 273.00
71.1902 240.00
71.2554 264.00
71.3205 227.00
71.3858 233.00
71.451 260.00
71.5162 205.00
71.5813 211.00
71.6465 228.00
71.7117 210.00
71.7769 182.00
71.8421 184.00
71.9073 183.00
71.9725 200.00
72.0377 174.00
72.1029 200.00
72.1681 212.00
72.2333 202.00
72.2985 175.00
72.3637 195.00
72.4289 188.00
72.4941 213.00
72.5593 188.00
72.6245 208.00
72.6897 219.00
72.7549 224.00
72.8201 178.00
72.8853 190.00
72.9505 181.00
73.0157 211.00
73.0809 214.00
73.1461 187.00
73.2113 222.00
73.2765 167.00
73.3417 200.00
73.4069 231.00
73.4721 197.00
73.5373 185.00
73.6025 175.00
73.6677 200.00
73.7329 213.00
73.7981 217.00
73.8633 208.00
73.9285 189.00
73.9937 226.00
74.0589 212.00
74.1241 170.00
74.1893 166.00
74.2545 174.00
74.3197 210.00
74.3849 174.00
74.4501 223.00
74.5153 194.00
74.5805 193.00
74.6457 207.00
74.7109 195.00
74.7761 200.00
74.8413 188.00
74.9065 214.00
74.9717 184.00
75.0369 227.00
75.1021 223.00
75.1673 232.00
75.2325 225.00
75.2977 189.00
75.3629 191.00
75.4281 213.00
75.4933 148.00
75.5585 192.00
75.6237 167.00
75.6889 200.00
75.7541 222.00
75.8193 189.00
75.8845 183.00
75.9497 179.00
76.0149 202.00
76.0801 219.00
76.1452 202.00
76.2104 219.00
76.2756 180.00
76.3409 208.00
76.406 225.00
76.4712 215.00
76.5364 190.00
76.6016 172.00
76.6668 191.00
76.732 198.00
76.7972 222.00
76.8624 205.00
76.9276 200.00
76.9928 224.00
77.058 206.00
77.1232 232.00
77.1884 208.00
77.2536 199.00
77.3188 201.00
77.384 207.00
77.4492 198.00
77.5144 216.00
77.5796 208.00
77.6448 198.00
77.71 207.00
77.7752 219.00
77.8404 191.00
77.9056 206.00
77.9708 202.00
78.036 203.00
78.1012 214.00
78.1664 201.00
78.2316 224.00
78.2968 237.00
78.362 241.00
78.4272 206.00
78.4924 244.00
78.5576 239.00
78.6228 331.00
78.688 307.00
78.7532 261.00
78.8184 249.00
78.8836 275.00
78.9488 311.00
79.014 270.00
79.0792 224.00
79.1444 237.00
79.2096 210.00
79.2748 234.00
79.34 249.00
79.4052 219.00
79.4704 224.00
79.5356 237.00
79.6008 239.00
79.666 226.00
79.7312 258.00
79.7964 202.00
79.8616 216.00
79.9268 232.00
79.992 217.00
80.0572 212.00
80.1224 230.00
80.1876 203.00
80.2528 250.00
80.318 224.00
80.3832 219.00
80.4484 198.00
80.5136 197.00
80.5788 197.00
80.644 188.00
80.7092 222.00
80.7744 230.00
80.8396 228.00
80.9048 231.00
80.9699 241.00
81.0351 237.00
81.1003 266.00
81.1655 223.00
81.2307 231.00
81.2959 237.00
81.3611 209.00
81.4263 216.00
81.4915 218.00
81.5567 224.00
81.6219 228.00
81.6871 250.00
81.7523 219.00
81.8175 207.00
81.8827 229.00
81.9479 191.00
82.0131 239.00
82.0783 212.00
82.1435 213.00
82.2087 226.00
82.2739 229.00
82.3391 220.00
82.4043 221.00
82.4695 219.00
82.5347 259.00
82.5999 223.00
82.6651 231.00
82.7303 237.00
82.7955 234.00
82.8607 235.00
82.9259 227.00
82.9911 245.00
83.0563 226.00
83.1215 237.00
83.1867 222.00
83.2519 238.00
83.3171 245.00
83.3823 217.00
83.4475 214.00
83.5127 194.00
83.5779 246.00
83.6431 301.00
83.7083 277.00
83.7735 249.00
83.8387 219.00
83.9039 290.00
83.9691 276.00
84.0343 237.00
84.0995 202.00
84.1647 193.00
84.2299 222.00
84.2951 206.00
84.3603 223.00
84.4255 231.00
84.4907 238.00
84.5559 215.00
84.6211 200.00
84.6863 190.00
84.7515 239.00
84.8167 232.00
84.8819 194.00
84.9471 235.00
85.0123 241.00
85.0775 217.00
85.1427 200.00
85.2079 214.00
85.2731 216.00
85.3383 211.00
85.4035 209.00
85.4687 211.00
85.5339 223.00
85.5991 208.00
85.6643 214.00
85.7295 204.00
85.7946 202.00
85.8598 172.00
85.925 214.00
85.9903 200.00
86.0554 197.00
86.1206 192.00
86.1858 226.00
86.251 178.00
86.3162 208.00
86.3814 197.00
86.4466 194.00
86.5118 219.00
86.577 180.00
86.6422 178.00
86.7074 219.00
86.7726 214.00
86.8378 180.00
86.903 186.00
86.9682 240.00
87.0334 196.00
87.0986 213.00
87.1638 222.00
87.229 226.00
87.2942 220.00
87.3594 212.00
87.4246 209.00
87.4898 196.00
87.555 210.00
87.6202 189.00
87.6854 199.00
87.7506 201.00
87.8158 196.00
87.881 208.00
87.9462 194.00
88.0114 208.00
88.0766 196.00
88.1418 202.00
88.207 216.00
88.2722 213.00
88.3374 212.00
88.4026 202.00
88.4678 198.00
88.533 192.00
88.5982 195.00
88.6634 192.00
88.7286 182.00
88.7938 205.00
88.859 184.00
88.9242 191.00
88.9894 180.00
89.0546 198.00
89.1198 199.00
89.185 216.00
89.2502 225.00
89.3154 193.00
89.3806 189.00
89.4458 178.00
89.511 170.00
89.5762 212.00
89.6414 240.00
89.7066 286.00
89.7718 264.00
89.837 248.00
89.9022 219.00
89.9674 234.00
90.0326 235.00
90.0978 239.00
90.163 215.00
90.2282 194.00
90.2934 203.00
90.3586 185.00
90.4238 178.00
90.489 180.00
90.5542 196.00
90.6193 226.00
90.6845 213.00
90.7497 214.00
90.8149 265.00
90.8801 249.00
90.9453 244.00
91.0105 227.00
91.0757 223.00
91.1409 228.00
91.2061 212.00
91.2713 222.00
91.3365 205.00
91.4017 201.00
91.4669 210.00
91.5321 180.00
91.5973 204.00
91.6625 181.00
91.7277 201.00
91.7929 183.00
91.8581 200.00
91.9233 183.00
91.9885 196.00
92.0537 189.00
92.1189 187.00
92.1841 175.00
92.2493 193.00
92.3145 198.00
92.3797 189.00
92.4449 210.00
92.5101 157.00
92.5753 195.00
92.6405 212.00
92.7057 162.00
92.7709 190.00
92.8361 201.00
92.9013 183.00
92.9665 179.00
93.0317 199.00
93.0969 193.00
93.1621 206.00
93.2273 220.00
93.2925 191.00
93.3577 215.00
93.4229 189.00
93.4881 204.00
93.5533 189.00
93.6185 194.00
93.6837 199.00
93.7489 178.00
93.8141 200.00
93.8793 182.00
93.9445 182.00
94.0097 203.00
94.0749 186.00
94.1401 206.00
94.2053 185.00
94.2705 177.00
94.3357 180.00
94.4009 207.00
94.4661 194.00
94.5313 190.00
94.5965 181.00
94.6617 172.00
94.7269 192.00
94.7921 203.00
94.8573 194.00
94.9225 192.00
94.9877 165.00
95.0529 187.00
95.1181 179.00
95.1833 173.00
95.2485 194.00
95.3137 184.00
95.3789 183.00
95.444 195.00
95.5092 173.00
95.5744 184.00
95.6396 174.00
95.7048 185.00
95.77 217.00
95.8352 220.00
95.9004 225.00
95.9656 232.00
96.0308 218.00
96.096 207.00
96.1612 180.00
96.2264 218.00
96.2916 201.00
96.3568 223.00
96.422 193.00
96.4872 183.00
96.5524 205.00
96.6176 170.00
96.6828 182.00
96.748 187.00
96.8132 181.00
96.8784 162.00
96.9436 177.00
97.0088 177.00
97.074 184.00
97.1392 197.00
97.2044 197.00
97.2696 157.00
97.3348 187.00
97.4 169.00
97.4652 163.00
97.5304 179.00
97.5956 191.00
97.6608 170.00
97.726 181.00
97.7912 206.00
97.8564 193.00
97.9216 194.00
97.9868 173.00
98.052 174.00
98.1172 189.00
98.1824 193.00
98.2476 154.00
98.3128 173.00
98.378 188.00
98.4432 180.00
98.5084 190.00
98.5736 182.00
98.6388 167.00
98.704 165.00
98.7692 186.00
98.8344 168.00
98.8996 184.00
98.9648 189.00
99.03 190.00
99.0952 171.00
99.1604 183.00
99.2256 178.00
99.2908 192.00
99.356 172.00
99.4212 174.00
99.4864 181.00
99.5516 182.00
99.6168 168.00
99.682 192.00
99.7472 201.00
99.8124 151.00
99.8776 183.00
99.9428 177.00
100.008 170.00
100.073 190.00
100.095 175.00