File: data/xrd_creation/results/Na_76.xy
9.903433 2841.00
9.968632 2765.00
10.0338 2802.00
10.099 2789.00
10.1642 2737.00
10.2294 2671.00
10.2946 2644.00
10.3598 2718.00
10.425 2629.00
10.4902 2748.00
10.5554 2642.00
10.6206 2647.00
10.6858 2667.00
10.751 2563.00
10.8162 2581.00
10.8814 2546.00
10.9466 2581.00
11.0118 2544.00
11.077 2470.00
11.1422 2491.00
11.2074 2473.00
11.2726 2518.00
11.3378 2454.00
11.403 2482.00
11.4682 2504.00
11.5334 2614.00
11.5986 2669.00
11.6638 2761.00
11.729 2959.00
11.7942 2579.00
11.8594 2358.00
11.9246 2270.00
11.9898 2251.00
12.055 2218.00
12.1202 2236.00
12.1854 2201.00
12.2506 2191.00
12.3158 2210.00
12.381 2191.00
12.4462 2222.00
12.5114 2180.00
12.5766 2138.00
12.6418 2168.00
12.707 2330.00
12.7722 2349.00
12.8374 2391.00
12.9026 2193.00
12.9678 2146.00
13.033 2072.00
13.0982 2093.00
13.1634 2058.00
13.2286 2065.00
13.2938 2038.00
13.359 2017.00
13.4242 1986.00
13.4894 1964.00
13.5546 1971.00
13.6198 1958.00
13.685 1967.00
13.7502 2036.00
13.8154 2002.00
13.8805 1996.00
13.9457 2080.00
14.0109 1942.00
14.0761 1930.00
14.1413 1909.00
14.2065 1849.00
14.2717 1900.00
14.3369 1917.00
14.4021 1902.00
14.4673 1934.00
14.5325 1892.00
14.5977 1943.00
14.6629 1856.00
14.7281 1843.00
14.7933 1823.00
14.8585 1868.00
14.9237 1881.00
14.9889 1764.00
15.0541 1797.00
15.1193 1707.00
15.1845 1737.00
15.2497 1757.00
15.3149 1779.00
15.3801 1716.00
15.4453 1746.00
15.5105 1688.00
15.5757 1728.00
15.6409 1709.00
15.7061 1690.00
15.7713 1615.00
15.8365 1784.00
15.9017 1700.00
15.9669 1762.00
16.0321 1672.00
16.0973 1775.00
16.1625 1730.00
16.2277 1771.00
16.2929 1763.00
16.3581 1755.00
16.4233 1660.00
16.4885 1694.00
16.5537 1647.00
16.6189 1670.00
16.6841 1626.00
16.7493 1596.00
16.8145 1648.00
16.8797 1603.00
16.9449 1637.00
17.0101 1605.00
17.0753 1663.00
17.1405 1680.00
17.2057 1579.00
17.2709 1804.00
17.3361 1801.00
17.4013 1857.00
17.4665 1846.00
17.5317 1957.00
17.5969 2306.00
17.6621 2883.00
17.7273 3647.00
17.7925 4170.00
17.8577 2726.00
17.9229 1754.00
17.9881 1609.00
18.0533 1678.00
18.1185 1602.00
18.1837 1682.00
18.2489 1748.00
18.3141 1796.00
18.3793 1717.00
18.4445 1577.00
18.5097 1606.00
18.5749 1765.00
18.6401 1879.00
18.7052 1934.00
18.7704 1656.00
18.8356 1481.00
18.9008 1445.00
18.966 1404.00
19.0312 1593.00
19.0964 1529.00
19.1616 1481.00
19.2268 1530.00
19.292 1580.00
19.3572 1548.00
19.4224 1508.00
19.4876 1446.00
19.5528 1350.00
19.618 1442.00
19.6832 1445.00
19.7484 1366.00
19.8136 1327.00
19.8788 1391.00
19.944 1413.00
20.0092 1362.00
20.0744 1379.00
20.1396 1473.00
20.2048 1667.00
20.27 1977.00
20.3352 1992.00
20.4004 1800.00
20.4656 1615.00
20.5308 1512.00
20.596 1567.00
20.6612 1610.00
20.7264 1554.00
20.7916 1545.00
20.8568 1336.00
20.922 1363.00
20.9872 1385.00
21.0524 1559.00
21.1176 1652.00
21.1828 1626.00
21.248 1573.00
21.3132 1425.00
21.3784 1400.00
21.4436 1545.00
21.5088 1645.00
21.574 1850.00
21.6392 1950.00
21.7044 1732.00
21.7696 1412.00
21.8348 1325.00
21.9 1273.00
21.9652 1264.00
22.0304 1243.00
22.0956 1350.00
22.1608 1367.00
22.226 1303.00
22.2912 1365.00
22.3564 1455.00
22.4216 1511.00
22.4868 1878.00
22.552 2756.00
22.6172 4154.00
22.6824 5128.00
22.7476 3185.00
22.8128 1783.00
22.878 1446.00
22.9432 1487.00
23.0084 1497.00
23.0736 1980.00
23.1388 2616.00
23.204 3788.00
23.2692 4198.00
23.3344 2951.00
23.3996 2432.00
23.4647 3243.00
23.5299 3551.00
23.5951 2356.00
23.6603 1674.00
23.7255 1665.00
23.7907 1494.00
23.8559 1199.00
23.9211 1178.00
23.9863 1110.00
24.0515 1101.00
24.1167 1070.00
24.1819 1137.00
24.2471 1092.00
24.3123 1046.00
24.3775 1102.00
24.4427 1131.00
24.5079 1142.00
24.5731 1115.00
24.6383 1052.00
24.7035 1122.00
24.7687 1069.00
24.8339 1062.00
24.8991 1085.00
24.9643 1125.00
25.0295 1070.00
25.0947 1112.00
25.1599 1134.00
25.2251 1196.00
25.2903 1593.00
25.3555 2431.00
25.4207 3905.00
25.4859 4493.00
25.5511 3100.00
25.6163 1917.00
25.6815 1991.00
25.7467 3025.00
25.8119 3657.00
25.8771 2568.00
25.9423 1588.00
26.0075 1328.00
26.0727 1351.00
26.1379 1325.00
26.2031 1253.00
26.2683 1160.00
26.3335 1238.00
26.3987 1222.00
26.4639 1141.00
26.5291 1023.00
26.5943 1105.00
26.6595 1179.00
26.7247 1252.00
26.7899 1341.00
26.8551 1367.00
26.9203 1851.00
26.9855 2649.00
27.0507 2190.00
27.1159 1250.00
27.1811 1043.00
27.2463 1070.00
27.3115 1126.00
27.3767 1127.00
27.4419 1010.00
27.5071 1014.00
27.5723 1005.00
27.6375 965.00
27.7027 976.00
27.7679 980.00
27.8331 980.00
27.8983 935.00
27.9635 1000.00
28.0287 1243.00
28.0939 1476.00
28.1591 1494.00
28.2243 1286.00
28.2894 1063.00
28.3546 1066.00
28.4198 1047.00
28.485 1034.00
28.5502 1053.00
28.6154 985.00
28.6806 973.00
28.7458 1013.00
28.811 958.00
28.8762 1002.00
28.9414 965.00
29.0066 1319.00
29.0718 1539.00
29.137 1818.00
29.2022 1773.00
29.2674 1637.00
29.3326 1439.00
29.3978 1337.00
29.463 1305.00
29.5282 1395.00
29.5934 1727.00
29.6586 2467.00
29.7238 3587.00
29.789 3777.00
29.8542 2435.00
29.9194 1466.00
29.9846 1184.00
30.0498 1033.00
30.115 1012.00
30.1802 1043.00
30.2454 1047.00
30.3106 1022.00
30.3758 848.00
30.441 888.00
30.5062 877.00
30.5714 878.00
30.6366 835.00
30.7018 858.00
30.767 915.00
30.8322 957.00
30.8974 1054.00
30.9626 1361.00
31.0278 1700.00
31.093 2159.00
31.1582 2110.00
31.2234 1729.00
31.2886 1539.00
31.3538 1762.00
31.419 1934.00
31.4842 1638.00
31.5494 1383.00
31.6146 1318.00
31.6798 1594.00
31.745 2425.00
31.8102 4818.00
31.8754 8391.00
31.9406 8091.00
32.0058 4397.00
32.071 1979.00
32.1362 1713.00
32.2014 2194.00
32.2666 3183.00
32.3318 4018.00
32.397 3653.00
32.4622 4449.00
32.5274 6257.00
32.5926 7054.00
32.6578 5266.00
32.723 3100.00
32.7882 1736.00
32.8534 1403.00
32.9186 1517.00
32.9838 1876.00
33.0489 2660.00
33.1141 5138.00
33.1793 6892.00
33.2445 5309.00
33.3097 3085.00
33.3749 1811.00
33.4401 1543.00
33.5053 1399.00
33.5705 1346.00
33.6357 1773.00
33.7009 2165.00
33.7661 2569.00
33.8313 2050.00
33.8965 1439.00
33.9617 1103.00
34.0269 1149.00
34.0921 1190.00
34.1573 1394.00
34.2225 1903.00
34.2877 3270.00
34.3529 5359.00
34.4181 5293.00
34.4833 3215.00
34.5485 1622.00
34.6137 1446.00
34.6789 1366.00
34.7441 1288.00
34.8093 1242.00
34.8745 1277.00
34.9397 1312.00
35.0049 1357.00
35.0701 1338.00
35.1353 1241.00
35.2005 1013.00
35.2657 859.00
35.3309 808.00
35.3961 867.00
35.4613 925.00
35.5265 962.00
35.5917 1043.00
35.6569 1068.00
35.7221 1087.00
35.7873 1016.00
35.8525 895.00
35.9177 833.00
35.9829 778.00
36.0481 776.00
36.1133 840.00
36.1785 820.00
36.2437 881.00
36.3089 1102.00
36.3741 1407.00
36.4393 1635.00
36.5045 1220.00
36.5697 855.00
36.6349 733.00
36.7001 810.00
36.7653 873.00
36.8305 848.00
36.8957 806.00
36.9609 789.00
37.0261 702.00
37.0913 783.00
37.1565 828.00
37.2217 807.00
37.2869 776.00
37.3521 775.00
37.4173 1096.00
37.4825 1690.00
37.5477 1816.00
37.6129 1631.00
37.6781 1279.00
37.7433 921.00
37.8085 804.00
37.8736 712.00
37.9388 657.00
38.004 663.00
38.0692 612.00
38.1344 638.00
38.1996 631.00
38.2648 604.00
38.33 649.00
38.3952 662.00
38.4604 711.00
38.5256 684.00
38.5908 611.00
38.656 654.00
38.7212 680.00
38.7864 712.00
38.8516 763.00
38.9168 809.00
38.982 798.00
39.0472 734.00
39.1124 657.00
39.1776 652.00
39.2428 743.00
39.308 774.00
39.3732 792.00
39.4384 891.00
39.5036 920.00
39.5688 919.00
39.634 868.00
39.6992 824.00
39.7644 769.00
39.8296 662.00
39.8948 656.00
39.96 627.00
40.0252 643.00
40.0904 741.00
40.1556 969.00
40.2208 1245.00
40.286 1093.00
40.3512 1006.00
40.4164 801.00
40.4816 692.00
40.5468 643.00
40.612 605.00
40.6772 585.00
40.7424 580.00
40.8076 656.00
40.8728 833.00
40.938 1127.00
41.0032 1219.00
41.0684 1557.00
41.1336 1863.00
41.1988 1515.00
41.264 1139.00
41.3292 786.00
41.3944 689.00
41.4596 628.00
41.5248 677.00
41.59 697.00
41.6552 926.00
41.7204 1269.00
41.7856 1398.00
41.8508 1386.00
41.916 1269.00
41.9812 1099.00
42.0464 849.00
42.1116 717.00
42.1768 705.00
42.242 782.00
42.3072 954.00
42.3724 1021.00
42.4376 820.00
42.5028 722.00
42.568 604.00
42.6332 578.00
42.6983 553.00
42.7635 659.00
42.8287 674.00
42.8939 627.00
42.9591 622.00
43.0243 606.00
43.0895 616.00
43.1547 660.00
43.2199 691.00
43.2851 708.00
43.3503 877.00
43.4155 985.00
43.4807 914.00
43.5459 893.00
43.6111 1015.00
43.6763 1329.00
43.7415 1627.00
43.8067 1988.00
43.8719 2385.00
43.9371 1895.00
44.0023 1496.00
44.0675 967.00
44.1327 843.00
44.1979 785.00
44.2631 768.00
44.3283 848.00
44.3935 697.00
44.4587 600.00
44.5239 583.00
44.5891 557.00
44.6543 527.00
44.7195 568.00
44.7847 559.00
44.8499 588.00
44.9151 563.00
44.9803 530.00
45.0455 534.00
45.1107 547.00
45.1759 541.00
45.2411 561.00
45.3063 601.00
45.3715 625.00
45.4367 748.00
45.5019 764.00
45.5671 796.00
45.6323 895.00
45.6975 843.00
45.7627 819.00
45.8279 1039.00
45.8931 1685.00
45.9583 2124.00
46.0235 1665.00
46.0887 1416.00
46.1539 1008.00
46.2191 796.00
46.2843 745.00
46.3495 744.00
46.4147 761.00
46.4799 705.00
46.5451 662.00
46.6103 652.00
46.6755 671.00
46.7407 767.00
46.8059 897.00
46.8711 862.00
46.9363 869.00
47.0015 1035.00
47.0667 1626.00
47.1319 2626.00
47.1971 2888.00
47.2623 2266.00
47.3275 1817.00
47.3927 1220.00
47.4579 1125.00
47.523 1382.00
47.5882 1566.00
47.6534 2127.00
47.7186 2960.00
47.7838 2586.00
47.849 2199.00
47.9142 1453.00
47.9794 918.00
48.0446 734.00
48.1098 633.00
48.175 683.00
48.2402 727.00
48.3054 727.00
48.3706 825.00
48.4358 695.00
48.501 652.00
48.5662 611.00
48.6314 657.00
48.6966 654.00
48.7618 682.00
48.827 651.00
48.8922 622.00
48.9574 627.00
49.0226 586.00
49.0878 539.00
49.153 561.00
49.2182 544.00
49.2834 553.00
49.3486 520.00
49.4138 534.00
49.479 654.00
49.5442 607.00
49.6094 570.00
49.6746 610.00
49.7398 633.00
49.805 682.00
49.8702 631.00
49.9354 651.00
50.0006 637.00
50.0658 695.00
50.131 710.00
50.1962 657.00
50.2614 684.00
50.3266 581.00
50.3918 569.00
50.457 509.00
50.5222 513.00
50.5874 476.00
50.6526 521.00
50.7178 536.00
50.783 542.00
50.8482 588.00
50.9134 692.00
50.9786 754.00
51.0438 841.00
51.109 897.00
51.1742 780.00
51.2394 683.00
51.3046 645.00
51.3698 580.00
51.435 592.00
51.5002 601.00
51.5654 553.00
51.6306 586.00
51.6958 625.00
51.761 743.00
51.8262 778.00
51.8914 754.00
51.9566 789.00
52.0218 770.00
52.087 678.00
52.1522 703.00
52.2174 727.00
52.2826 689.00
52.3477 644.00
52.4129 695.00
52.4781 779.00
52.5433 1018.00
52.6085 1489.00
52.6737 1932.00
52.7389 1661.00
52.8041 1388.00
52.8693 1068.00
52.9345 735.00
52.9997 658.00
53.0649 700.00
53.1301 716.00
53.1953 906.00
53.2605 952.00
53.3257 1086.00
53.3909 1009.00
53.4561 983.00
53.5213 911.00
53.5865 859.00
53.6517 802.00
53.7169 747.00
53.7821 722.00
53.8473 726.00
53.9125 720.00
53.9777 706.00
54.0429 783.00
54.1081 815.00
54.1733 738.00
54.2385 707.00
54.3037 586.00
54.3689 666.00
54.4341 738.00
54.4993 806.00
54.5645 849.00
54.6297 856.00
54.6949 897.00
54.7601 835.00
54.8253 765.00
54.8905 783.00
54.9557 889.00
55.0209 1074.00
55.0861 860.00
55.1513 788.00
55.2165 618.00
55.2817 464.00
55.3469 449.00
55.4121 493.00
55.4773 402.00
55.5425 416.00
55.6077 389.00
55.6729 446.00
55.7381 457.00
55.8033 423.00
55.8685 472.00
55.9337 453.00
55.9989 548.00
56.0641 507.00
56.1293 616.00
56.1945 636.00
56.2597 620.00
56.3249 590.00
56.3901 613.00
56.4553 726.00
56.5205 873.00
56.5857 865.00
56.6509 900.00
56.7161 792.00
56.7813 673.00
56.8465 662.00
56.9117 642.00
56.9769 706.00
57.042 861.00
57.1073 1094.00
57.1724 1293.00
57.2376 1241.00
57.3028 1064.00
57.368 1058.00
57.4332 1115.00
57.4984 1030.00
57.5636 890.00
57.6288 828.00
57.694 836.00
57.7592 936.00
57.8244 989.00
57.8896 770.00
57.9548 837.00
58.02 708.00
58.0852 629.00
58.1504 541.00
58.2156 479.00
58.2808 464.00
58.346 448.00
58.4112 436.00
58.4764 476.00
58.5416 467.00
58.6068 578.00
58.672 598.00
58.7372 673.00
58.8024 791.00
58.8676 683.00
58.9328 687.00
58.998 596.00
59.0632 508.00
59.1284 518.00
59.1936 539.00
59.2588 527.00
59.324 564.00
59.3892 528.00
59.4544 603.00
59.5196 618.00
59.5848 586.00
59.65 661.00
59.7152 794.00
59.7804 871.00
59.8456 1003.00
59.9108 956.00
59.976 832.00
60.0412 779.00
60.1064 675.00
60.1716 615.00
60.2368 666.00
60.302 586.00
60.3672 539.00
60.4324 521.00
60.4976 489.00
60.5628 508.00
60.628 662.00
60.6932 800.00
60.7584 858.00
60.8236 844.00
60.8888 946.00
60.954 760.00
61.0192 760.00
61.0844 700.00
61.1496 620.00
61.2148 554.00
61.28 525.00
61.3452 555.00
61.4104 523.00
61.4756 479.00
61.5408 440.00
61.606 411.00
61.6712 468.00
61.7364 470.00
61.8016 477.00
61.8667 408.00
61.932 435.00
61.9971 436.00
62.0623 418.00
62.1275 424.00
62.1927 421.00
62.2579 465.00
62.3231 426.00
62.3883 515.00
62.4535 474.00
62.5187 482.00
62.5839 485.00
62.6491 579.00
62.7143 551.00
62.7795 532.00
62.8447 501.00
62.9099 448.00
62.9751 456.00
63.0403 537.00
63.1055 578.00
63.1707 604.00
63.2359 614.00
63.3011 550.00
63.3663 556.00
63.4315 599.00
63.4967 685.00
63.5619 732.00
63.6271 691.00
63.6923 695.00
63.7575 651.00
63.8227 622.00
63.8879 697.00
63.9531 719.00
64.0183 582.00
64.0835 575.00
64.1487 560.00
64.2139 691.00
64.2791 713.00
64.3443 625.00
64.4095 634.00
64.4747 532.00
64.5399 499.00
64.6051 522.00
64.6703 595.00
64.7355 681.00
64.8007 595.00
64.8659 672.00
64.9311 632.00
64.9963 549.00
65.0615 535.00
65.1267 514.00
65.1919 469.00
65.2571 445.00
65.3223 466.00
65.3875 474.00
65.4527 434.00
65.5179 504.00
65.5831 607.00
65.6483 652.00
65.7135 734.00
65.7787 788.00
65.8439 675.00
65.9091 615.00
65.9743 562.00
66.0395 548.00
66.1047 525.00
66.1699 640.00
66.2351 773.00
66.3003 865.00
66.3655 723.00
66.4307 681.00
66.4959 658.00
66.561 554.00
66.6263 500.00
66.6915 519.00
66.7566 605.00
66.8218 564.00
66.887 495.00
66.9522 518.00
67.0174 498.00
67.0826 468.00
67.1478 427.00
67.213 509.00
67.2782 472.00
67.3434 460.00
67.4086 434.00
67.4738 432.00
67.539 479.00
67.6042 576.00
67.6694 700.00
67.7346 725.00
67.7998 659.00
67.865 703.00
67.9302 691.00
67.9954 583.00
68.0606 525.00
68.1258 504.00
68.191 438.00
68.2562 401.00
68.3214 391.00
68.3866 366.00
68.4518 366.00
68.517 316.00
68.5822 322.00
68.6474 323.00
68.7126 330.00
68.7778 336.00
68.843 333.00
68.9082 362.00
68.9734 358.00
69.0386 414.00
69.1038 467.00
69.169 657.00
69.2342 667.00
69.2994 696.00
69.3646 765.00
69.4298 673.00
69.495 595.00
69.5602 580.00
69.6254 567.00
69.6906 510.00
69.7558 460.00
69.821 436.00
69.8862 418.00
69.9514 410.00
70.0166 368.00
70.0818 385.00
70.147 411.00
70.2122 410.00
70.2774 479.00
70.3426 583.00
70.4078 586.00
70.473 532.00
70.5382 569.00
70.6034 632.00
70.6686 594.00
70.7338 583.00
70.799 521.00
70.8642 573.00
70.9294 552.00
70.9946 449.00
71.0598 435.00
71.125 442.00
71.1902 423.00
71.2554 389.00
71.3205 371.00
71.3858 397.00
71.451 362.00
71.5162 420.00
71.5813 367.00
71.6465 408.00
71.7117 522.00
71.7769 626.00
71.8421 643.00
71.9073 708.00
71.9725 767.00
72.0377 803.00
72.1029 637.00
72.1681 516.00
72.2333 538.00
72.2985 467.00
72.3637 371.00
72.4289 395.00
72.4941 396.00
72.5593 450.00
72.6245 491.00
72.6897 488.00
72.7549 467.00
72.8201 480.00
72.8853 547.00
72.9505 589.00
73.0157 522.00
73.0809 488.00
73.1461 481.00
73.2113 422.00
73.2765 397.00
73.3417 353.00
73.4069 345.00
73.4721 371.00
73.5373 396.00
73.6025 389.00
73.6677 370.00
73.7329 394.00
73.7981 352.00
73.8633 346.00
73.9285 364.00
73.9937 393.00
74.0589 412.00
74.1241 368.00
74.1893 383.00
74.2545 370.00
74.3197 339.00
74.3849 345.00
74.4501 372.00
74.5153 355.00
74.5805 404.00
74.6457 374.00
74.7109 326.00
74.7761 336.00
74.8413 358.00
74.9065 402.00
74.9717 404.00
75.0369 416.00
75.1021 346.00
75.1673 395.00
75.2325 431.00
75.2977 438.00
75.3629 403.00
75.4281 426.00
75.4933 409.00
75.5585 453.00
75.6237 388.00
75.6889 368.00
75.7541 372.00
75.8193 364.00
75.8845 363.00
75.9497 409.00
76.0149 421.00
76.0801 465.00
76.1452 470.00
76.2104 465.00
76.2756 507.00
76.3409 491.00
76.406 437.00
76.4712 382.00
76.5364 399.00
76.6016 375.00
76.6668 350.00
76.732 336.00
76.7972 354.00
76.8624 358.00
76.9276 407.00
76.9928 426.00
77.058 474.00
77.1232 457.00
77.1884 435.00
77.2536 449.00
77.3188 455.00
77.384 420.00
77.4492 382.00
77.5144 445.00
77.5796 406.00
77.6448 370.00
77.71 437.00
77.7752 437.00
77.8404 478.00
77.9056 437.00
77.9708 444.00
78.036 478.00
78.1012 471.00
78.1664 471.00
78.2316 463.00
78.2968 402.00
78.362 415.00
78.4272 392.00
78.4924 376.00
78.5576 363.00
78.6228 365.00
78.688 374.00
78.7532 346.00
78.8184 359.00
78.8836 330.00
78.9488 330.00
79.014 323.00
79.0792 361.00
79.1444 390.00
79.2096 367.00
79.2748 402.00
79.34 401.00
79.4052 376.00
79.4704 397.00
79.5356 448.00
79.6008 478.00
79.666 498.00
79.7312 463.00
79.7964 428.00
79.8616 410.00
79.9268 381.00
79.992 399.00
80.0572 370.00
80.1224 393.00
80.1876 406.00
80.2528 459.00
80.318 578.00
80.3832 604.00
80.4484 535.00
80.5136 485.00
80.5788 496.00
80.644 480.00
80.7092 439.00
80.7744 472.00
80.8396 468.00
80.9048 475.00
80.9699 427.00
81.0351 378.00
81.1003 451.00
81.1655 476.00
81.2307 576.00
81.2959 606.00
81.3611 530.00
81.4263 590.00
81.4915 561.00
81.5567 581.00
81.6219 438.00
81.6871 492.00
81.7523 416.00
81.8175 398.00
81.8827 376.00
81.9479 391.00
82.0131 344.00
82.0783 384.00
82.1435 335.00
82.2087 391.00
82.2739 339.00
82.3391 364.00
82.4043 368.00
82.4695 352.00
82.5347 330.00
82.5999 320.00
82.6651 319.00
82.7303 330.00
82.7955 282.00
82.8607 277.00
82.9259 316.00
82.9911 297.00
83.0563 308.00
83.1215 319.00
83.1867 339.00
83.2519 353.00
83.3171 390.00
83.3823 448.00
83.4475 449.00
83.5127 447.00
83.5779 401.00
83.6431 379.00
83.7083 390.00
83.7735 349.00
83.8387 346.00
83.9039 372.00
83.9691 414.00
84.0343 433.00
84.0995 438.00
84.1647 400.00
84.2299 416.00
84.2951 403.00
84.3603 320.00
84.4255 377.00
84.4907 449.00
84.5559 386.00
84.6211 373.00
84.6863 386.00
84.7515 406.00
84.8167 358.00
84.8819 361.00
84.9471 411.00
85.0123 364.00
85.0775 400.00
85.1427 466.00
85.2079 437.00
85.2731 409.00
85.3383 374.00
85.4035 390.00
85.4687 389.00
85.5339 411.00
85.5991 395.00
85.6643 367.00
85.7295 340.00
85.7946 324.00
85.8598 381.00
85.925 434.00
85.9903 423.00
86.0554 417.00
86.1206 401.00
86.1858 476.00
86.251 405.00
86.3162 441.00
86.3814 413.00
86.4466 411.00
86.5118 374.00
86.577 411.00
86.6422 408.00
86.7074 373.00
86.7726 368.00
86.8378 464.00
86.903 430.00
86.9682 412.00
87.0334 386.00
87.0986 363.00
87.1638 378.00
87.229 404.00
87.2942 399.00
87.3594 356.00
87.4246 383.00
87.4898 414.00
87.555 459.00
87.6202 412.00
87.6854 383.00
87.7506 416.00
87.8158 387.00
87.881 379.00
87.9462 376.00
88.0114 362.00
88.0766 416.00
88.1418 415.00
88.207 418.00
88.2722 458.00
88.3374 406.00
88.4026 463.00
88.4678 484.00
88.533 466.00
88.5982 409.00
88.6634 445.00
88.7286 454.00
88.7938 460.00
88.859 412.00
88.9242 371.00
88.9894 394.00
89.0546 397.00
89.1198 407.00
89.185 438.00
89.2502 380.00
89.3154 389.00
89.3806 401.00
89.4458 333.00
89.511 354.00
89.5762 358.00
89.6414 332.00
89.7066 341.00
89.7718 351.00
89.837 349.00
89.9022 336.00
89.9674 325.00
90.0326 313.00
90.0978 338.00
90.163 338.00
90.2282 328.00
90.2934 392.00
90.3586 412.00
90.4238 423.00
90.489 436.00
90.5542 394.00
90.6193 418.00
90.6845 390.00
90.7497 421.00
90.8149 331.00
90.8801 365.00
90.9453 354.00
91.0105 338.00
91.0757 358.00
91.1409 338.00
91.2061 295.00
91.2713 321.00
91.3365 306.00
91.4017 335.00
91.4669 324.00
91.5321 418.00
91.5973 423.00
91.6625 399.00
91.7277 430.00
91.7929 387.00
91.8581 400.00
91.9233 381.00
91.9885 410.00
92.0537 358.00
92.1189 386.00
92.1841 365.00
92.2493 329.00
92.3145 363.00
92.3797 332.00
92.4449 363.00
92.5101 353.00
92.5753 345.00
92.6405 432.00
92.7057 414.00
92.7709 362.00
92.8361 363.00
92.9013 363.00
92.9665 379.00
93.0317 384.00
93.0969 395.00
93.1621 370.00
93.2273 382.00
93.2925 363.00
93.3577 377.00
93.4229 385.00
93.4881 351.00
93.5533 368.00
93.6185 353.00
93.6837 347.00
93.7489 368.00
93.8141 407.00
93.8793 367.00
93.9445 346.00
94.0097 334.00
94.0749 405.00
94.1401 359.00
94.2053 329.00
94.2705 350.00
94.3357 348.00
94.4009 325.00
94.4661 330.00
94.5313 349.00
94.5965 359.00
94.6617 357.00
94.7269 383.00
94.7921 386.00
94.8573 421.00
94.9225 397.00
94.9877 383.00
95.0529 353.00
95.1181 377.00
95.1833 356.00
95.2485 429.00
95.3137 420.00
95.3789 419.00
95.444 494.00
95.5092 483.00
95.5744 468.00
95.6396 515.00
95.7048 486.00
95.77 503.00
95.8352 502.00
95.9004 451.00
95.9656 431.00
96.0308 394.00
96.096 443.00
96.1612 449.00
96.2264 382.00
96.2916 395.00
96.3568 379.00
96.422 397.00
96.4872 361.00
96.5524 367.00
96.6176 378.00
96.6828 300.00
96.748 361.00
96.8132 306.00
96.8784 313.00
96.9436 349.00
97.0088 373.00
97.074 326.00
97.1392 315.00
97.2044 329.00
97.2696 309.00
97.3348 352.00
97.4 319.00
97.4652 329.00
97.5304 291.00
97.5956 318.00
97.6608 285.00
97.726 306.00
97.7912 292.00
97.8564 284.00
97.9216 327.00
97.9868 315.00
98.052 302.00
98.1172 345.00
98.1824 338.00
98.2476 314.00
98.3128 331.00
98.378 296.00
98.4432 283.00
98.5084 303.00
98.5736 293.00
98.6388 310.00
98.704 342.00
98.7692 370.00
98.8344 332.00
98.8996 321.00
98.9648 364.00
99.03 323.00
99.0952 348.00
99.1604 353.00
99.2256 321.00
99.2908 337.00
99.356 346.00
99.4212 275.00
99.4864 310.00
99.5516 304.00
99.6168 329.00
99.682 330.00
99.7472 358.00
99.8124 374.00
99.8776 369.00
99.9428 398.00
100.008 383.00
100.073 407.00
100.095 361.00