File: data/xrd_creation/results/Na_77.xy
9.903433 2851.00
9.968632 2870.00
10.0338 2773.00
10.099 2744.00
10.1642 2775.00
10.2294 2656.00
10.2946 2757.00
10.3598 2806.00
10.425 2707.00
10.4902 2707.00
10.5554 2602.00
10.6206 2628.00
10.6858 2719.00
10.751 2556.00
10.8162 2675.00
10.8814 2615.00
10.9466 2553.00
11.0118 2578.00
11.077 2541.00
11.1422 2597.00
11.2074 2610.00
11.2726 2535.00
11.3378 2577.00
11.403 2377.00
11.4682 2405.00
11.5334 2451.00
11.5986 2468.00
11.6638 2391.00
11.729 2461.00
11.7942 2433.00
11.8594 2351.00
11.9246 2370.00
11.9898 2319.00
12.055 2247.00
12.1202 2392.00
12.1854 2400.00
12.2506 2298.00
12.3158 2384.00
12.381 2432.00
12.4462 2414.00
12.5114 2472.00
12.5766 2476.00
12.6418 2243.00
12.707 2152.00
12.7722 2271.00
12.8374 2243.00
12.9026 2073.00
12.9678 2147.00
13.033 2143.00
13.0982 2118.00
13.1634 2106.00
13.2286 2053.00
13.2938 2061.00
13.359 2132.00
13.4242 2103.00
13.4894 2054.00
13.5546 2016.00
13.6198 2034.00
13.685 2091.00
13.7502 2083.00
13.8154 2057.00
13.8805 2085.00
13.9457 2121.00
14.0109 2203.00
14.0761 2177.00
14.1413 2126.00
14.2065 1983.00
14.2717 1928.00
14.3369 1996.00
14.4021 2040.00
14.4673 1965.00
14.5325 1950.00
14.5977 1964.00
14.6629 1933.00
14.7281 1913.00
14.7933 1959.00
14.8585 1960.00
14.9237 1920.00
14.9889 1984.00
15.0541 2005.00
15.1193 1920.00
15.1845 1908.00
15.2497 1933.00
15.3149 1907.00
15.3801 1943.00
15.4453 1979.00
15.5105 2085.00
15.5757 1859.00
15.6409 1968.00
15.7061 1893.00
15.7713 1870.00
15.8365 1862.00
15.9017 1712.00
15.9669 1779.00
16.0321 1881.00
16.0973 1804.00
16.1625 1789.00
16.2277 1772.00
16.2929 1799.00
16.3581 1754.00
16.4233 1738.00
16.4885 1785.00
16.5537 1761.00
16.6189 1748.00
16.6841 1779.00
16.7493 1776.00
16.8145 1748.00
16.8797 1720.00
16.9449 1646.00
17.0101 1757.00
17.0753 1751.00
17.1405 1706.00
17.2057 1676.00
17.2709 1842.00
17.3361 1625.00
17.4013 1703.00
17.4665 1614.00
17.5317 1631.00
17.5969 1684.00
17.6621 1565.00
17.7273 1672.00
17.7925 1661.00
17.8577 1619.00
17.9229 1637.00
17.9881 1610.00
18.0533 1553.00
18.1185 1628.00
18.1837 1537.00
18.2489 1607.00
18.3141 1601.00
18.3793 1592.00
18.4445 1600.00
18.5097 1641.00
18.5749 1529.00
18.6401 1574.00
18.7052 1489.00
18.7704 1632.00
18.8356 1600.00
18.9008 1509.00
18.966 1602.00
19.0312 1641.00
19.0964 1612.00
19.1616 1863.00
19.2268 1987.00
19.292 2239.00
19.3572 1902.00
19.4224 1656.00
19.4876 1628.00
19.5528 1594.00
19.618 1571.00
19.6832 1569.00
19.7484 1593.00
19.8136 1585.00
19.8788 1623.00
19.944 1605.00
20.0092 1660.00
20.0744 1773.00
20.1396 2122.00
20.2048 2832.00
20.27 4182.00
20.3352 6277.00
20.4004 8317.00
20.4656 6835.00
20.5308 3354.00
20.596 2085.00
20.6612 1863.00
20.7264 1686.00
20.7916 1586.00
20.8568 1526.00
20.922 1576.00
20.9872 1613.00
21.0524 1679.00
21.1176 1526.00
21.1828 1502.00
21.248 1378.00
21.3132 1418.00
21.3784 1404.00
21.4436 1407.00
21.5088 1370.00
21.574 1359.00
21.6392 1431.00
21.7044 1527.00
21.7696 1477.00
21.8348 1362.00
21.9 1342.00
21.9652 1439.00
22.0304 1392.00
22.0956 1390.00
22.1608 1375.00
22.226 1384.00
22.2912 1292.00
22.3564 1345.00
22.4216 1263.00
22.4868 1357.00
22.552 1349.00
22.6172 1276.00
22.6824 1281.00
22.7476 1315.00
22.8128 1320.00
22.878 1289.00
22.9432 1275.00
23.0084 1285.00
23.0736 1305.00
23.1388 1328.00
23.204 1457.00
23.2692 1574.00
23.3344 1690.00
23.3996 1725.00
23.4647 1707.00
23.5299 1469.00
23.5951 1340.00
23.6603 1296.00
23.7255 1295.00
23.7907 1271.00
23.8559 1188.00
23.9211 1234.00
23.9863 1208.00
24.0515 1205.00
24.1167 1250.00
24.1819 1268.00
24.2471 1282.00
24.3123 1298.00
24.3775 1215.00
24.4427 1197.00
24.5079 1168.00
24.5731 1218.00
24.6383 1170.00
24.7035 1214.00
24.7687 1226.00
24.8339 1326.00
24.8991 1261.00
24.9643 1250.00
25.0295 1173.00
25.0947 1231.00
25.1599 1206.00
25.2251 1171.00
25.2903 1121.00
25.3555 1197.00
25.4207 1083.00
25.4859 1141.00
25.5511 1135.00
25.6163 1140.00
25.6815 1220.00
25.7467 1221.00
25.8119 1221.00
25.8771 1169.00
25.9423 1215.00
26.0075 1230.00
26.0727 1316.00
26.1379 1412.00
26.2031 1439.00
26.2683 1520.00
26.3335 1626.00
26.3987 1826.00
26.4639 1945.00
26.5291 2368.00
26.5943 3161.00
26.6595 4586.00
26.7247 7440.00
26.7899 11620.00
26.8551 18069.00
26.9203 22974.00
26.9855 17447.00
27.0507 9196.00
27.1159 4723.00
27.1811 3138.00
27.2463 2449.00
27.3115 2009.00
27.3767 1760.00
27.4419 1564.00
27.5071 1550.00
27.5723 1363.00
27.6375 1330.00
27.7027 1332.00
27.7679 1389.00
27.8331 1291.00
27.8983 1328.00
27.9635 1314.00
28.0287 1317.00
28.0939 1242.00
28.1591 1183.00
28.2243 1250.00
28.2894 1201.00
28.3546 1310.00
28.4198 1368.00
28.485 1375.00
28.5502 1430.00
28.6154 1304.00
28.6806 1241.00
28.7458 1101.00
28.811 1065.00
28.8762 1065.00
28.9414 1041.00
29.0066 1044.00
29.0718 1063.00
29.137 1015.00
29.2022 1074.00
29.2674 1038.00
29.3326 1082.00
29.3978 938.00
29.463 1030.00
29.5282 1034.00
29.5934 1043.00
29.6586 1049.00
29.7238 1077.00
29.789 1105.00
29.8542 1047.00
29.9194 1006.00
29.9846 1059.00
30.0498 961.00
30.115 1029.00
30.1802 1083.00
30.2454 1048.00
30.3106 980.00
30.3758 1013.00
30.441 1023.00
30.5062 1003.00
30.5714 1037.00
30.6366 1044.00
30.7018 1060.00
30.767 980.00
30.8322 990.00
30.8974 1045.00
30.9626 1022.00
31.0278 976.00
31.093 900.00
31.1582 961.00
31.2234 921.00
31.2886 925.00
31.3538 956.00
31.419 908.00
31.4842 1082.00
31.5494 1205.00
31.6146 1161.00
31.6798 1152.00
31.745 1091.00
31.8102 1019.00
31.8754 1046.00
31.9406 1040.00
32.0058 1032.00
32.071 1048.00
32.1362 1069.00
32.2014 1026.00
32.2666 1037.00
32.3318 1092.00
32.397 1218.00
32.4622 1154.00
32.5274 1165.00
32.5926 1083.00
32.6578 1056.00
32.723 1144.00
32.7882 1299.00
32.8534 1657.00
32.9186 2470.00
32.9838 3860.00
33.0489 4694.00
33.1141 3825.00
33.1793 2671.00
33.2445 2124.00
33.3097 2456.00
33.3749 3658.00
33.4401 6050.00
33.5053 6972.00
33.5705 4665.00
33.6357 2826.00
33.7009 2118.00
33.7661 2101.00
33.8313 2161.00
33.8965 2521.00
33.9617 3308.00
34.0269 5299.00
34.0921 9510.00
34.1573 16012.00
34.2225 17519.00
34.2877 12759.00
34.3529 6932.00
34.4181 4002.00
34.4833 2719.00
34.5485 2073.00
34.6137 1728.00
34.6789 1569.00
34.7441 1441.00
34.8093 1357.00
34.8745 1325.00
34.9397 1247.00
35.0049 1157.00
35.0701 1061.00
35.1353 1091.00
35.2005 1047.00
35.2657 1032.00
35.3309 1039.00
35.3961 993.00
35.4613 1017.00
35.5265 1013.00
35.5917 993.00
35.6569 1015.00
35.7221 873.00
35.7873 908.00
35.8525 858.00
35.9177 900.00
35.9829 902.00
36.0481 950.00
36.1133 1006.00
36.1785 920.00
36.2437 952.00
36.3089 930.00
36.3741 866.00
36.4393 888.00
36.5045 856.00
36.5697 882.00
36.6349 891.00
36.7001 898.00
36.7653 879.00
36.8305 825.00
36.8957 893.00
36.9609 922.00
37.0261 1035.00
37.0913 1150.00
37.1565 1096.00
37.2217 1091.00
37.2869 1096.00
37.3521 1050.00
37.4173 1066.00
37.4825 990.00
37.5477 1095.00
37.6129 1030.00
37.6781 1005.00
37.7433 928.00
37.8085 911.00
37.8736 971.00
37.9388 1057.00
38.004 1172.00
38.0692 1555.00
38.1344 2207.00
38.1996 3551.00
38.2648 4939.00
38.33 4525.00
38.3952 3480.00
38.4604 2266.00
38.5256 1544.00
38.5908 1391.00
38.656 1377.00
38.7212 1780.00
38.7864 2047.00
38.8516 2028.00
38.9168 1692.00
38.982 1267.00
39.0472 1113.00
39.1124 1163.00
39.1776 1173.00
39.2428 1547.00
39.308 1722.00
39.3732 1556.00
39.4384 1254.00
39.5036 1074.00
39.5688 970.00
39.634 975.00
39.6992 871.00
39.7644 841.00
39.8296 769.00
39.8948 746.00
39.96 712.00
40.0252 704.00
40.0904 673.00
40.1556 721.00
40.2208 730.00
40.286 778.00
40.3512 791.00
40.4164 846.00
40.4816 751.00
40.5468 729.00
40.612 680.00
40.6772 660.00
40.7424 679.00
40.8076 633.00
40.8728 662.00
40.938 690.00
41.0032 704.00
41.0684 656.00
41.1336 639.00
41.1988 655.00
41.264 658.00
41.3292 628.00
41.3944 666.00
41.4596 656.00
41.5248 627.00
41.59 667.00
41.6552 672.00
41.7204 729.00
41.7856 672.00
41.8508 690.00
41.916 694.00
41.9812 690.00
42.0464 628.00
42.1116 637.00
42.1768 642.00
42.242 692.00
42.3072 643.00
42.3724 607.00
42.4376 662.00
42.5028 627.00
42.568 661.00
42.6332 673.00
42.6983 678.00
42.7635 722.00
42.8287 766.00
42.8939 1037.00
42.9591 1024.00
43.0243 1018.00
43.0895 900.00
43.1547 746.00
43.2199 701.00
43.2851 672.00
43.3503 703.00
43.4155 644.00
43.4807 586.00
43.5459 662.00
43.6111 667.00
43.6763 749.00
43.7415 794.00
43.8067 969.00
43.8719 1207.00
43.9371 1209.00
44.0023 1046.00
44.0675 871.00
44.1327 796.00
44.1979 759.00
44.2631 744.00
44.3283 707.00
44.3935 726.00
44.4587 640.00
44.5239 651.00
44.5891 641.00
44.6543 630.00
44.7195 603.00
44.7847 653.00
44.8499 701.00
44.9151 782.00
44.9803 816.00
45.0455 836.00
45.1107 777.00
45.1759 838.00
45.2411 785.00
45.3063 698.00
45.3715 660.00
45.4367 655.00
45.5019 636.00
45.5671 567.00
45.6323 594.00
45.6975 637.00
45.7627 610.00
45.8279 604.00
45.8931 584.00
45.9583 584.00
46.0235 589.00
46.0887 539.00
46.1539 600.00
46.2191 577.00
46.2843 550.00
46.3495 623.00
46.4147 562.00
46.4799 556.00
46.5451 601.00
46.6103 549.00
46.6755 626.00
46.7407 647.00
46.8059 602.00
46.8711 600.00
46.9363 586.00
47.0015 596.00
47.0667 630.00
47.1319 642.00
47.1971 690.00
47.2623 694.00
47.3275 705.00
47.3927 833.00
47.4579 1146.00
47.523 1462.00
47.5882 1623.00
47.6534 1376.00
47.7186 1154.00
47.7838 962.00
47.849 787.00
47.9142 749.00
47.9794 705.00
48.0446 721.00
48.1098 652.00
48.175 656.00
48.2402 684.00
48.3054 633.00
48.3706 641.00
48.4358 576.00
48.501 624.00
48.5662 584.00
48.6314 584.00
48.6966 573.00
48.7618 598.00
48.827 540.00
48.8922 614.00
48.9574 591.00
49.0226 634.00
49.0878 558.00
49.153 613.00
49.2182 586.00
49.2834 565.00
49.3486 622.00
49.4138 591.00
49.479 617.00
49.5442 608.00
49.6094 554.00
49.6746 539.00
49.7398 516.00
49.805 543.00
49.8702 507.00
49.9354 513.00
50.0006 526.00
50.0658 510.00
50.131 577.00
50.1962 587.00
50.2614 528.00
50.3266 556.00
50.3918 596.00
50.457 607.00
50.5222 571.00
50.5874 560.00
50.6526 629.00
50.7178 593.00
50.783 574.00
50.8482 579.00
50.9134 651.00
50.9786 606.00
51.0438 660.00
51.109 579.00
51.1742 619.00
51.2394 611.00
51.3046 680.00
51.3698 684.00
51.435 798.00
51.5002 842.00
51.5654 955.00
51.6306 1027.00
51.6958 1102.00
51.761 1421.00
51.8262 1828.00
51.8914 2817.00
51.9566 5116.00
52.0218 9417.00
52.087 12427.00
52.1522 10251.00
52.2174 8961.00
52.2826 5678.00
52.3477 3502.00
52.4129 2426.00
52.4781 1881.00
52.5433 1549.00
52.6085 1241.00
52.6737 1048.00
52.7389 939.00
52.8041 828.00
52.8693 709.00
52.9345 704.00
52.9997 681.00
53.0649 743.00
53.1301 675.00
53.1953 632.00
53.2605 673.00
53.3257 659.00
53.3909 650.00
53.4561 612.00
53.5213 591.00
53.5865 612.00
53.6517 611.00
53.7169 616.00
53.7821 628.00
53.8473 662.00
53.9125 641.00
53.9777 654.00
54.0429 601.00
54.1081 609.00
54.1733 592.00
54.2385 584.00
54.3037 609.00
54.3689 569.00
54.4341 595.00
54.4993 608.00
54.5645 670.00
54.6297 770.00
54.6949 801.00
54.7601 869.00
54.8253 1039.00
54.8905 1255.00
54.9557 1758.00
55.0209 2885.00
55.0861 3230.00
55.1513 2678.00
55.2165 2349.00
55.2817 1636.00
55.3469 1147.00
55.4121 909.00
55.4773 741.00
55.5425 742.00
55.6077 667.00
55.6729 663.00
55.7381 605.00
55.8033 560.00
55.8685 508.00
55.9337 539.00
55.9989 617.00
56.0641 636.00
56.1293 633.00
56.1945 673.00
56.2597 624.00
56.3249 577.00
56.3901 549.00
56.4553 515.00
56.5205 565.00
56.5857 532.00
56.6509 533.00
56.7161 552.00
56.7813 590.00
56.8465 624.00
56.9117 622.00
56.9769 648.00
57.042 577.00
57.1073 565.00
57.1724 574.00
57.2376 590.00
57.3028 523.00
57.368 616.00
57.4332 608.00
57.4984 592.00
57.5636 627.00
57.6288 624.00
57.694 639.00
57.7592 669.00
57.8244 681.00
57.8896 758.00
57.9548 883.00
58.02 1170.00
58.0852 1612.00
58.1504 1663.00
58.2156 1552.00
58.2808 1359.00
58.346 1128.00
58.4112 860.00
58.4764 803.00
58.5416 709.00
58.6068 632.00
58.672 681.00
58.7372 631.00
58.8024 604.00
58.8676 629.00
58.9328 624.00
58.998 666.00
59.0632 678.00
59.1284 800.00
59.1936 861.00
59.2588 1031.00
59.324 1004.00
59.3892 1018.00
59.4544 1100.00
59.5196 1216.00
59.5848 1069.00
59.65 973.00
59.7152 888.00
59.7804 820.00
59.8456 760.00
59.9108 727.00
59.976 721.00
60.0412 729.00
60.1064 650.00
60.1716 599.00
60.2368 545.00
60.302 558.00
60.3672 550.00
60.4324 570.00
60.4976 449.00
60.5628 509.00
60.628 529.00
60.6932 486.00
60.7584 531.00
60.8236 477.00
60.8888 497.00
60.954 482.00
61.0192 504.00
61.0844 521.00
61.1496 521.00
61.2148 515.00
61.28 523.00
61.3452 507.00
61.4104 483.00
61.4756 536.00
61.5408 515.00
61.606 509.00
61.6712 563.00
61.7364 612.00
61.8016 610.00
61.8667 699.00
61.932 814.00
61.9971 975.00
62.0623 1415.00
62.1275 2251.00
62.1927 2590.00
62.2579 2274.00
62.3231 2013.00
62.3883 1747.00
62.4535 1249.00
62.5187 973.00
62.5839 840.00
62.6491 753.00
62.7143 664.00
62.7795 721.00
62.8447 618.00
62.9099 674.00
62.9751 712.00
63.0403 773.00
63.1055 865.00
63.1707 799.00
63.2359 731.00
63.3011 707.00
63.3663 613.00
63.4315 539.00
63.4967 573.00
63.5619 533.00
63.6271 543.00
63.6923 499.00
63.7575 538.00
63.8227 535.00
63.8879 524.00
63.9531 513.00
64.0183 496.00
64.0835 522.00
64.1487 494.00
64.2139 517.00
64.2791 505.00
64.3443 544.00
64.4095 605.00
64.4747 548.00
64.5399 596.00
64.6051 630.00
64.6703 630.00
64.7355 715.00
64.8007 987.00
64.8659 1137.00
64.9311 1848.00
64.9963 2654.00
65.0615 2457.00
65.1267 2220.00
65.1919 2118.00
65.2571 1568.00
65.3223 1227.00
65.3875 1033.00
65.4527 1040.00
65.5179 1071.00
65.5831 1123.00
65.6483 1071.00
65.7135 960.00
65.7787 933.00
65.8439 922.00
65.9091 890.00
65.9743 969.00
66.0395 1183.00
66.1047 1544.00
66.1699 2342.00
66.2351 3130.00
66.3003 2750.00
66.3655 2507.00
66.4307 2243.00
66.4959 1826.00
66.561 1337.00
66.6263 1014.00
66.6915 849.00
66.7566 702.00
66.8218 594.00
66.887 560.00
66.9522 546.00
67.0174 524.00
67.0826 476.00
67.1478 442.00
67.213 487.00
67.2782 437.00
67.3434 457.00
67.4086 454.00
67.4738 447.00
67.539 432.00
67.6042 410.00
67.6694 439.00
67.7346 443.00
67.7998 424.00
67.865 433.00
67.9302 412.00
67.9954 439.00
68.0606 380.00
68.1258 418.00
68.191 426.00
68.2562 442.00
68.3214 384.00
68.3866 420.00
68.4518 396.00
68.517 409.00
68.5822 402.00
68.6474 385.00
68.7126 371.00
68.7778 417.00
68.843 390.00
68.9082 397.00
68.9734 438.00
69.0386 405.00
69.1038 356.00
69.169 385.00
69.2342 380.00
69.2994 420.00
69.3646 415.00
69.4298 375.00
69.495 470.00
69.5602 398.00
69.6254 475.00
69.6906 503.00
69.7558 505.00
69.821 606.00
69.8862 691.00
69.9514 569.00
70.0166 575.00
70.0818 569.00
70.147 580.00
70.2122 589.00
70.2774 547.00
70.3426 533.00
70.4078 473.00
70.473 489.00
70.5382 423.00
70.6034 478.00
70.6686 441.00
70.7338 464.00
70.799 422.00
70.8642 395.00
70.9294 429.00
70.9946 456.00
71.0598 450.00
71.125 438.00
71.1902 486.00
71.2554 478.00
71.3205 598.00
71.3858 731.00
71.451 1056.00
71.5162 1389.00
71.5813 1403.00
71.6465 1085.00
71.7117 1131.00
71.7769 1081.00
71.8421 787.00
71.9073 670.00
71.9725 545.00
72.0377 511.00
72.1029 525.00
72.1681 460.00
72.2333 452.00
72.2985 433.00
72.3637 433.00
72.4289 403.00
72.4941 420.00
72.5593 423.00
72.6245 381.00
72.6897 384.00
72.7549 417.00
72.8201 455.00
72.8853 438.00
72.9505 439.00
73.0157 387.00
73.0809 424.00
73.1461 487.00
73.2113 425.00
73.2765 443.00
73.3417 486.00
73.4069 450.00
73.4721 434.00
73.5373 441.00
73.6025 436.00
73.6677 437.00
73.7329 368.00
73.7981 400.00
73.8633 370.00
73.9285 352.00
73.9937 354.00
74.0589 356.00
74.1241 350.00
74.1893 370.00
74.2545 349.00
74.3197 364.00
74.3849 373.00
74.4501 390.00
74.5153 349.00
74.5805 400.00
74.6457 435.00
74.7109 486.00
74.7761 415.00
74.8413 411.00
74.9065 399.00
74.9717 412.00
75.0369 374.00
75.1021 392.00
75.1673 364.00
75.2325 391.00
75.2977 385.00
75.3629 390.00
75.4281 417.00
75.4933 462.00
75.5585 451.00
75.6237 451.00
75.6889 434.00
75.7541 402.00
75.8193 415.00
75.8845 360.00
75.9497 390.00
76.0149 348.00
76.0801 387.00
76.1452 418.00
76.2104 378.00
76.2756 367.00
76.3409 353.00
76.406 405.00
76.4712 381.00
76.5364 378.00
76.6016 441.00
76.6668 404.00
76.732 388.00
76.7972 365.00
76.8624 397.00
76.9276 394.00
76.9928 363.00
77.058 375.00
77.1232 377.00
77.1884 399.00
77.2536 327.00
77.3188 364.00
77.384 356.00
77.4492 391.00
77.5144 354.00
77.5796 386.00
77.6448 305.00
77.71 413.00
77.7752 384.00
77.8404 368.00
77.9056 394.00
77.9708 354.00
78.036 367.00
78.1012 396.00
78.1664 373.00
78.2316 354.00
78.2968 397.00
78.362 390.00
78.4272 410.00
78.4924 417.00
78.5576 502.00
78.6228 505.00
78.688 591.00
78.7532 668.00
78.8184 884.00
78.8836 1460.00
78.9488 1887.00
79.014 1817.00
79.0792 1525.00
79.1444 1457.00
79.2096 1580.00
79.2748 1275.00
79.34 1064.00
79.4052 809.00
79.4704 756.00
79.5356 640.00
79.6008 566.00
79.666 525.00
79.7312 479.00
79.7964 441.00
79.8616 417.00
79.9268 418.00
79.992 383.00
80.0572 391.00
80.1224 380.00
80.1876 383.00
80.2528 386.00
80.318 371.00
80.3832 362.00
80.4484 363.00
80.5136 379.00
80.5788 402.00
80.644 358.00
80.7092 369.00
80.7744 364.00
80.8396 369.00
80.9048 391.00
80.9699 414.00
81.0351 415.00
81.1003 426.00
81.1655 498.00
81.2307 554.00
81.2959 670.00
81.3611 780.00
81.4263 773.00
81.4915 713.00
81.5567 734.00
81.6219 679.00
81.6871 598.00
81.7523 590.00
81.8175 505.00
81.8827 478.00
81.9479 411.00
82.0131 419.00
82.0783 443.00
82.1435 392.00
82.2087 367.00
82.2739 403.00
82.3391 359.00
82.4043 398.00
82.4695 411.00
82.5347 399.00
82.5999 452.00
82.6651 444.00
82.7303 442.00
82.7955 417.00
82.8607 433.00
82.9259 432.00
82.9911 385.00
83.0563 374.00
83.1215 348.00
83.1867 402.00
83.2519 414.00
83.3171 398.00
83.3823 357.00
83.4475 406.00
83.5127 429.00
83.5779 458.00
83.6431 524.00
83.7083 531.00
83.7735 638.00
83.8387 810.00
83.9039 1253.00
83.9691 1514.00
84.0343 1190.00
84.0995 1064.00
84.1647 1153.00
84.2299 1099.00
84.2951 878.00
84.3603 731.00
84.4255 612.00
84.4907 525.00
84.5559 488.00
84.6211 487.00
84.6863 461.00
84.7515 478.00
84.8167 494.00
84.8819 479.00
84.9471 530.00
85.0123 524.00
85.0775 503.00
85.1427 469.00
85.2079 507.00
85.2731 443.00
85.3383 430.00
85.4035 410.00
85.4687 415.00
85.5339 388.00
85.5991 370.00
85.6643 379.00
85.7295 367.00
85.7946 327.00
85.8598 373.00
85.925 358.00
85.9903 361.00
86.0554 365.00
86.1206 373.00
86.1858 394.00
86.251 358.00
86.3162 377.00
86.3814 348.00
86.4466 333.00
86.5118 351.00
86.577 343.00
86.6422 378.00
86.7074 385.00
86.7726 407.00
86.8378 412.00
86.903 380.00
86.9682 369.00
87.0334 428.00
87.0986 433.00
87.1638 487.00
87.229 441.00
87.2942 508.00
87.3594 566.00
87.4246 709.00
87.4898 835.00
87.555 814.00
87.6202 727.00
87.6854 690.00
87.7506 671.00
87.8158 585.00
87.881 567.00
87.9462 470.00
88.0114 449.00
88.0766 408.00
88.1418 386.00
88.207 402.00
88.2722 412.00
88.3374 389.00
88.4026 392.00
88.4678 381.00
88.533 404.00
88.5982 406.00
88.6634 428.00
88.7286 390.00
88.7938 424.00
88.859 353.00
88.9242 363.00
88.9894 414.00
89.0546 377.00
89.1198 377.00
89.185 412.00
89.2502 382.00
89.3154 383.00
89.3806 355.00
89.4458 380.00
89.511 446.00
89.5762 479.00
89.6414 501.00
89.7066 564.00
89.7718 637.00
89.837 725.00
89.9022 938.00
89.9674 1359.00
90.0326 1554.00
90.0978 1366.00
90.163 1218.00
90.2282 1183.00
90.2934 1236.00
90.3586 1046.00
90.4238 885.00
90.489 700.00
90.5542 610.00
90.6193 590.00
90.6845 563.00
90.7497 592.00
90.8149 585.00
90.8801 674.00
90.9453 779.00
91.0105 1039.00
91.0757 1319.00
91.1409 1529.00
91.2061 1286.00
91.2713 1167.00
91.3365 1178.00
91.4017 1167.00
91.4669 1090.00
91.5321 856.00
91.5973 804.00
91.6625 670.00
91.7277 582.00
91.7929 548.00
91.8581 480.00
91.9233 462.00
91.9885 476.00
92.0537 482.00
92.1189 454.00
92.1841 434.00
92.2493 433.00
92.3145 434.00
92.3797 400.00
92.4449 400.00
92.5101 415.00
92.5753 410.00
92.6405 344.00
92.7057 392.00
92.7709 357.00
92.8361 389.00
92.9013 397.00
92.9665 416.00
93.0317 404.00
93.0969 410.00
93.1621 398.00
93.2273 425.00
93.2925 492.00
93.3577 538.00
93.4229 647.00
93.4881 847.00
93.5533 855.00
93.6185 733.00
93.6837 773.00
93.7489 713.00
93.8141 752.00
93.8793 637.00
93.9445 604.00
94.0097 518.00
94.0749 509.00
94.1401 422.00
94.2053 426.00
94.2705 455.00
94.3357 404.00
94.4009 445.00
94.4661 395.00
94.5313 388.00
94.5965 412.00
94.6617 377.00
94.7269 380.00
94.7921 371.00
94.8573 368.00
94.9225 361.00
94.9877 354.00
95.0529 372.00
95.1181 358.00
95.1833 379.00
95.2485 388.00
95.3137 414.00
95.3789 368.00
95.444 383.00
95.5092 380.00
95.5744 425.00
95.6396 385.00
95.7048 411.00
95.77 389.00
95.8352 410.00
95.9004 415.00
95.9656 471.00
96.0308 512.00
96.096 592.00
96.1612 702.00
96.2264 872.00
96.2916 754.00
96.3568 682.00
96.422 639.00
96.4872 675.00
96.5524 654.00
96.6176 652.00
96.6828 500.00
96.748 425.00
96.8132 398.00
96.8784 417.00
96.9436 419.00
97.0088 386.00
97.074 375.00
97.1392 374.00
97.2044 354.00
97.2696 359.00
97.3348 375.00
97.4 371.00
97.4652 367.00
97.5304 348.00
97.5956 350.00
97.6608 333.00
97.726 345.00
97.7912 323.00
97.8564 362.00
97.9216 407.00
97.9868 395.00
98.052 439.00
98.1172 417.00
98.1824 358.00
98.2476 401.00
98.3128 404.00
98.378 447.00
98.4432 437.00
98.5084 414.00
98.5736 447.00
98.6388 472.00
98.704 425.00
98.7692 418.00
98.8344 397.00
98.8996 367.00
98.9648 395.00
99.03 369.00
99.0952 399.00
99.1604 400.00
99.2256 399.00
99.2908 409.00
99.356 415.00
99.4212 368.00
99.4864 394.00
99.5516 358.00
99.6168 355.00
99.682 366.00
99.7472 353.00
99.8124 355.00
99.8776 355.00
99.9428 321.00
100.008 345.00
100.073 335.00
100.095 356.00