File: data/xrd_creation/results/Na_78.xy
9.903433 2681.00
9.968632 2745.00
10.0338 2678.00
10.099 2673.00
10.1642 2671.00
10.2294 2592.00
10.2946 2700.00
10.3598 2598.00
10.425 2625.00
10.4902 2601.00
10.5554 2659.00
10.6206 2491.00
10.6858 2518.00
10.751 2470.00
10.8162 2468.00
10.8814 2379.00
10.9466 2435.00
11.0118 2467.00
11.077 2355.00
11.1422 2355.00
11.2074 2382.00
11.2726 2275.00
11.3378 2226.00
11.403 2307.00
11.4682 2219.00
11.5334 2239.00
11.5986 2248.00
11.6638 2167.00
11.729 2185.00
11.7942 2190.00
11.8594 2138.00
11.9246 2058.00
11.9898 2140.00
12.055 2102.00
12.1202 2056.00
12.1854 2149.00
12.2506 2146.00
12.3158 2073.00
12.381 1944.00
12.4462 2008.00
12.5114 2112.00
12.5766 1920.00
12.6418 1989.00
12.707 2038.00
12.7722 1971.00
12.8374 2029.00
12.9026 1933.00
12.9678 1975.00
13.033 1991.00
13.0982 1936.00
13.1634 1863.00
13.2286 1902.00
13.2938 1904.00
13.359 1878.00
13.4242 1953.00
13.4894 1882.00
13.5546 1887.00
13.6198 1844.00
13.685 1829.00
13.7502 1766.00
13.8154 1798.00
13.8805 1841.00
13.9457 1785.00
14.0109 1736.00
14.0761 1825.00
14.1413 1717.00
14.2065 1813.00
14.2717 1815.00
14.3369 1686.00
14.4021 1754.00
14.4673 1764.00
14.5325 1764.00
14.5977 1681.00
14.6629 1706.00
14.7281 1729.00
14.7933 1641.00
14.8585 1617.00
14.9237 1705.00
14.9889 1677.00
15.0541 1740.00
15.1193 1749.00
15.1845 1696.00
15.2497 1696.00
15.3149 1624.00
15.3801 1631.00
15.4453 1619.00
15.5105 1514.00
15.5757 1571.00
15.6409 1631.00
15.7061 1576.00
15.7713 1617.00
15.8365 1561.00
15.9017 1558.00
15.9669 1540.00
16.0321 1566.00
16.0973 1530.00
16.1625 1548.00
16.2277 1479.00
16.2929 1518.00
16.3581 1533.00
16.4233 1530.00
16.4885 1445.00
16.5537 1528.00
16.6189 1518.00
16.6841 1459.00
16.7493 1466.00
16.8145 1481.00
16.8797 1472.00
16.9449 1523.00
17.0101 1536.00
17.0753 1517.00
17.1405 1409.00
17.2057 1523.00
17.2709 1460.00
17.3361 1477.00
17.4013 1451.00
17.4665 1520.00
17.5317 1447.00
17.5969 1476.00
17.6621 1416.00
17.7273 1438.00
17.7925 1500.00
17.8577 1408.00
17.9229 1400.00
17.9881 1423.00
18.0533 1440.00
18.1185 1500.00
18.1837 1413.00
18.2489 1472.00
18.3141 1422.00
18.3793 1373.00
18.4445 1307.00
18.5097 1404.00
18.5749 1444.00
18.6401 1409.00
18.7052 1340.00
18.7704 1470.00
18.8356 1358.00
18.9008 1331.00
18.966 1356.00
19.0312 1327.00
19.0964 1319.00
19.1616 1389.00
19.2268 1292.00
19.292 1314.00
19.3572 1402.00
19.4224 1286.00
19.4876 1348.00
19.5528 1282.00
19.618 1298.00
19.6832 1396.00
19.7484 1349.00
19.8136 1390.00
19.8788 1442.00
19.944 1506.00
20.0092 1457.00
20.0744 1240.00
20.1396 1338.00
20.2048 1273.00
20.27 1181.00
20.3352 1184.00
20.4004 1199.00
20.4656 1266.00
20.5308 1236.00
20.596 1398.00
20.6612 1536.00
20.7264 1649.00
20.7916 1633.00
20.8568 1528.00
20.922 1372.00
20.9872 1216.00
21.0524 1193.00
21.1176 1185.00
21.1828 1218.00
21.248 1135.00
21.3132 1183.00
21.3784 1177.00
21.4436 1171.00
21.5088 1162.00
21.574 1135.00
21.6392 1173.00
21.7044 1091.00
21.7696 1202.00
21.8348 1193.00
21.9 1139.00
21.9652 1126.00
22.0304 1107.00
22.0956 1068.00
22.1608 1103.00
22.226 1164.00
22.2912 1143.00
22.3564 1063.00
22.4216 1129.00
22.4868 1082.00
22.552 1125.00
22.6172 1092.00
22.6824 1078.00
22.7476 1073.00
22.8128 1088.00
22.878 1047.00
22.9432 1037.00
23.0084 1074.00
23.0736 1091.00
23.1388 998.00
23.204 1113.00
23.2692 1059.00
23.3344 1093.00
23.3996 1043.00
23.4647 1070.00
23.5299 1083.00
23.5951 1053.00
23.6603 1084.00
23.7255 1037.00
23.7907 1118.00
23.8559 1082.00
23.9211 1105.00
23.9863 1211.00
24.0515 1150.00
24.1167 1213.00
24.1819 1143.00
24.2471 1176.00
24.3123 1139.00
24.3775 1110.00
24.4427 1175.00
24.5079 1138.00
24.5731 1078.00
24.6383 1062.00
24.7035 1064.00
24.7687 1014.00
24.8339 1056.00
24.8991 1030.00
24.9643 1014.00
25.0295 1012.00
25.0947 995.00
25.1599 1047.00
25.2251 1010.00
25.2903 983.00
25.3555 1023.00
25.4207 1083.00
25.4859 1076.00
25.5511 1080.00
25.6163 1098.00
25.6815 1083.00
25.7467 1013.00
25.8119 1094.00
25.8771 1061.00
25.9423 1182.00
26.0075 1218.00
26.0727 1230.00
26.1379 1345.00
26.2031 1417.00
26.2683 1649.00
26.3335 1934.00
26.3987 2635.00
26.4639 3762.00
26.5291 4899.00
26.5943 5298.00
26.6595 4573.00
26.7247 3302.00
26.7899 2464.00
26.8551 1865.00
26.9203 1511.00
26.9855 1435.00
27.0507 1305.00
27.1159 1198.00
27.1811 1283.00
27.2463 1175.00
27.3115 1085.00
27.3767 1048.00
27.4419 1068.00
27.5071 1064.00
27.5723 976.00
27.6375 1047.00
27.7027 1010.00
27.7679 1046.00
27.8331 1074.00
27.8983 1024.00
27.9635 1080.00
28.0287 1068.00
28.0939 980.00
28.1591 928.00
28.2243 868.00
28.2894 948.00
28.3546 839.00
28.4198 918.00
28.485 879.00
28.5502 933.00
28.6154 852.00
28.6806 868.00
28.7458 957.00
28.811 979.00
28.8762 991.00
28.9414 1003.00
29.0066 978.00
29.0718 891.00
29.137 950.00
29.2022 961.00
29.2674 861.00
29.3326 924.00
29.3978 963.00
29.463 1050.00
29.5282 1056.00
29.5934 1147.00
29.6586 1248.00
29.7238 1246.00
29.789 1447.00
29.8542 1510.00
29.9194 1474.00
29.9846 1434.00
30.0498 1429.00
30.115 1355.00
30.1802 1200.00
30.2454 1116.00
30.3106 1018.00
30.3758 990.00
30.441 894.00
30.5062 941.00
30.5714 929.00
30.6366 954.00
30.7018 821.00
30.767 882.00
30.8322 831.00
30.8974 843.00
30.9626 820.00
31.0278 853.00
31.093 923.00
31.1582 961.00
31.2234 945.00
31.2886 982.00
31.3538 951.00
31.419 948.00
31.4842 878.00
31.5494 916.00
31.6146 942.00
31.6798 1059.00
31.745 1149.00
31.8102 1191.00
31.8754 1186.00
31.9406 1081.00
32.0058 1174.00
32.071 1335.00
32.1362 1280.00
32.2014 1173.00
32.2666 1055.00
32.3318 979.00
32.397 884.00
32.4622 933.00
32.5274 890.00
32.5926 898.00
32.6578 868.00
32.723 970.00
32.7882 907.00
32.8534 939.00
32.9186 942.00
32.9838 1017.00
33.0489 1000.00
33.1141 1045.00
33.1793 1037.00
33.2445 1033.00
33.3097 1048.00
33.3749 1127.00
33.4401 1254.00
33.5053 1319.00
33.5705 1446.00
33.6357 1660.00
33.7009 2311.00
33.7661 3506.00
33.8313 4438.00
33.8965 4688.00
33.9617 4286.00
34.0269 3248.00
34.0921 2440.00
34.1573 1859.00
34.2225 1607.00
34.2877 1437.00
34.3529 1362.00
34.4181 1204.00
34.4833 1148.00
34.5485 1110.00
34.6137 1026.00
34.6789 964.00
34.7441 941.00
34.8093 947.00
34.8745 948.00
34.9397 889.00
35.0049 888.00
35.0701 858.00
35.1353 918.00
35.2005 1018.00
35.2657 885.00
35.3309 847.00
35.3961 791.00
35.4613 817.00
35.5265 784.00
35.5917 814.00
35.6569 880.00
35.7221 863.00
35.7873 853.00
35.8525 902.00
35.9177 859.00
35.9829 840.00
36.0481 759.00
36.1133 687.00
36.1785 689.00
36.2437 646.00
36.3089 689.00
36.3741 781.00
36.4393 712.00
36.5045 714.00
36.5697 690.00
36.6349 751.00
36.7001 694.00
36.7653 719.00
36.8305 695.00
36.8957 733.00
36.9609 713.00
37.0261 735.00
37.0913 664.00
37.1565 618.00
37.2217 660.00
37.2869 720.00
37.3521 702.00
37.4173 722.00
37.4825 769.00
37.5477 790.00
37.6129 867.00
37.6781 952.00
37.7433 1074.00
37.8085 1285.00
37.8736 1651.00
37.9388 1915.00
38.004 1897.00
38.0692 1790.00
38.1344 1413.00
38.1996 1131.00
38.2648 926.00
38.33 794.00
38.3952 738.00
38.4604 764.00
38.5256 704.00
38.5908 747.00
38.656 680.00
38.7212 684.00
38.7864 752.00
38.8516 688.00
38.9168 788.00
38.982 792.00
39.0472 768.00
39.1124 758.00
39.1776 649.00
39.2428 637.00
39.308 653.00
39.3732 626.00
39.4384 648.00
39.5036 607.00
39.5688 631.00
39.634 593.00
39.6992 566.00
39.7644 647.00
39.8296 607.00
39.8948 673.00
39.96 691.00
40.0252 636.00
40.0904 683.00
40.1556 628.00
40.2208 595.00
40.286 628.00
40.3512 578.00
40.4164 513.00
40.4816 577.00
40.5468 552.00
40.612 561.00
40.6772 508.00
40.7424 571.00
40.8076 536.00
40.8728 549.00
40.938 593.00
41.0032 582.00
41.0684 599.00
41.1336 634.00
41.1988 600.00
41.264 639.00
41.3292 640.00
41.3944 719.00
41.4596 739.00
41.5248 614.00
41.59 602.00
41.6552 550.00
41.7204 584.00
41.7856 547.00
41.8508 508.00
41.916 519.00
41.9812 535.00
42.0464 560.00
42.1116 544.00
42.1768 571.00
42.242 591.00
42.3072 615.00
42.3724 546.00
42.4376 636.00
42.5028 682.00
42.568 685.00
42.6332 697.00
42.6983 614.00
42.7635 625.00
42.8287 568.00
42.8939 559.00
42.9591 547.00
43.0243 530.00
43.0895 483.00
43.1547 531.00
43.2199 537.00
43.2851 529.00
43.3503 502.00
43.4155 488.00
43.4807 467.00
43.5459 498.00
43.6111 467.00
43.6763 513.00
43.7415 539.00
43.8067 538.00
43.8719 579.00
43.9371 547.00
44.0023 518.00
44.0675 500.00
44.1327 480.00
44.1979 473.00
44.2631 475.00
44.3283 496.00
44.3935 528.00
44.4587 566.00
44.5239 539.00
44.5891 528.00
44.6543 495.00
44.7195 538.00
44.7847 476.00
44.8499 488.00
44.9151 516.00
44.9803 513.00
45.0455 472.00
45.1107 517.00
45.1759 521.00
45.2411 512.00
45.3063 506.00
45.3715 558.00
45.4367 518.00
45.5019 463.00
45.5671 499.00
45.6323 501.00
45.6975 485.00
45.7627 460.00
45.8279 520.00
45.8931 436.00
45.9583 544.00
46.0235 491.00
46.0887 489.00
46.1539 500.00
46.2191 500.00
46.2843 508.00
46.3495 466.00
46.4147 498.00
46.4799 491.00
46.5451 547.00
46.6103 508.00
46.6755 487.00
46.7407 463.00
46.8059 479.00
46.8711 460.00
46.9363 476.00
47.0015 554.00
47.0667 523.00
47.1319 500.00
47.1971 545.00
47.2623 537.00
47.3275 524.00
47.3927 506.00
47.4579 520.00
47.523 499.00
47.5882 446.00
47.6534 440.00
47.7186 435.00
47.7838 405.00
47.849 430.00
47.9142 420.00
47.9794 447.00
48.0446 442.00
48.1098 481.00
48.175 525.00
48.2402 549.00
48.3054 529.00
48.3706 509.00
48.4358 490.00
48.501 479.00
48.5662 468.00
48.6314 439.00
48.6966 419.00
48.7618 487.00
48.827 437.00
48.8922 460.00
48.9574 456.00
49.0226 436.00
49.0878 477.00
49.153 491.00
49.2182 497.00
49.2834 498.00
49.3486 516.00
49.4138 548.00
49.479 468.00
49.5442 469.00
49.6094 444.00
49.6746 484.00
49.7398 475.00
49.805 479.00
49.8702 490.00
49.9354 444.00
50.0006 469.00
50.0658 477.00
50.131 482.00
50.1962 510.00
50.2614 520.00
50.3266 524.00
50.3918 574.00
50.457 516.00
50.5222 507.00
50.5874 494.00
50.6526 521.00
50.7178 530.00
50.783 495.00
50.8482 505.00
50.9134 536.00
50.9786 592.00
51.0438 559.00
51.109 615.00
51.1742 628.00
51.2394 815.00
51.3046 844.00
51.3698 1032.00
51.435 1064.00
51.5002 1208.00
51.5654 1557.00
51.6306 2116.00
51.6958 3228.00
51.761 3920.00
51.8262 4000.00
51.8914 3504.00
51.9566 2693.00
52.0218 2002.00
52.087 1507.00
52.1522 1247.00
52.2174 1131.00
52.2826 1074.00
52.3477 960.00
52.4129 845.00
52.4781 798.00
52.5433 656.00
52.6085 699.00
52.6737 665.00
52.7389 622.00
52.8041 614.00
52.8693 637.00
52.9345 680.00
52.9997 572.00
53.0649 614.00
53.1301 635.00
53.1953 641.00
53.2605 660.00
53.3257 629.00
53.3909 610.00
53.4561 633.00
53.5213 669.00
53.5865 614.00
53.6517 594.00
53.7169 540.00
53.7821 531.00
53.8473 535.00
53.9125 487.00
53.9777 541.00
54.0429 511.00
54.1081 534.00
54.1733 485.00
54.2385 538.00
54.3037 592.00
54.3689 597.00
54.4341 565.00
54.4993 612.00
54.5645 762.00
54.6297 854.00
54.6949 1124.00
54.7601 1244.00
54.8253 1263.00
54.8905 1085.00
54.9557 868.00
55.0209 746.00
55.0861 570.00
55.1513 549.00
55.2165 515.00
55.2817 486.00
55.3469 474.00
55.4121 473.00
55.4773 488.00
55.5425 503.00
55.6077 443.00
55.6729 479.00
55.7381 417.00
55.8033 440.00
55.8685 413.00
55.9337 424.00
55.9989 392.00
56.0641 438.00
56.1293 416.00
56.1945 435.00
56.2597 459.00
56.3249 480.00
56.3901 414.00
56.4553 444.00
56.5205 437.00
56.5857 445.00
56.6509 456.00
56.7161 473.00
56.7813 470.00
56.8465 429.00
56.9117 472.00
56.9769 470.00
57.042 463.00
57.1073 527.00
57.1724 492.00
57.2376 528.00
57.3028 461.00
57.368 460.00
57.4332 499.00
57.4984 506.00
57.5636 471.00
57.6288 506.00
57.694 592.00
57.7592 735.00
57.8244 809.00
57.8896 852.00
57.9548 774.00
58.02 708.00
58.0852 619.00
58.1504 622.00
58.2156 567.00
58.2808 568.00
58.346 507.00
58.4112 513.00
58.4764 526.00
58.5416 528.00
58.6068 553.00
58.672 512.00
58.7372 520.00
58.8024 485.00
58.8676 495.00
58.9328 520.00
58.998 485.00
59.0632 569.00
59.1284 517.00
59.1936 421.00
59.2588 457.00
59.324 424.00
59.3892 402.00
59.4544 456.00
59.5196 412.00
59.5848 444.00
59.65 407.00
59.7152 405.00
59.7804 374.00
59.8456 400.00
59.9108 403.00
59.976 438.00
60.0412 440.00
60.1064 434.00
60.1716 436.00
60.2368 418.00
60.302 422.00
60.3672 423.00
60.4324 401.00
60.4976 436.00
60.5628 409.00
60.628 381.00
60.6932 419.00
60.7584 418.00
60.8236 396.00
60.8888 405.00
60.954 376.00
61.0192 425.00
61.0844 416.00
61.1496 429.00
61.2148 461.00
61.28 475.00
61.3452 453.00
61.4104 483.00
61.4756 472.00
61.5408 507.00
61.606 532.00
61.6712 632.00
61.7364 686.00
61.8016 881.00
61.8667 972.00
61.932 1130.00
61.9971 1023.00
62.0623 846.00
62.1275 761.00
62.1927 674.00
62.2579 635.00
62.3231 569.00
62.3883 557.00
62.4535 561.00
62.5187 488.00
62.5839 525.00
62.6491 524.00
62.7143 569.00
62.7795 471.00
62.8447 531.00
62.9099 473.00
62.9751 488.00
63.0403 454.00
63.1055 471.00
63.1707 472.00
63.2359 454.00
63.3011 481.00
63.3663 463.00
63.4315 506.00
63.4967 544.00
63.5619 526.00
63.6271 516.00
63.6923 513.00
63.7575 535.00
63.8227 501.00
63.8879 471.00
63.9531 504.00
64.0183 481.00
64.0835 452.00
64.1487 482.00
64.2139 476.00
64.2791 502.00
64.3443 479.00
64.4095 527.00
64.4747 565.00
64.5399 579.00
64.6051 714.00
64.6703 1018.00
64.7355 1114.00
64.8007 1130.00
64.8659 976.00
64.9311 890.00
64.9963 764.00
65.0615 630.00
65.1267 526.00
65.1919 541.00
65.2571 524.00
65.3223 511.00
65.3875 536.00
65.4527 539.00
65.5179 544.00
65.5831 566.00
65.6483 569.00
65.7135 673.00
65.7787 686.00
65.8439 946.00
65.9091 1143.00
65.9743 1203.00
66.0395 1186.00
66.1047 1072.00
66.1699 944.00
66.2351 739.00
66.3003 634.00
66.3655 529.00
66.4307 522.00
66.4959 454.00
66.561 474.00
66.6263 401.00
66.6915 392.00
66.7566 382.00
66.8218 396.00
66.887 344.00
66.9522 385.00
67.0174 350.00
67.0826 355.00
67.1478 335.00
67.213 353.00
67.2782 360.00
67.3434 384.00
67.4086 398.00
67.4738 371.00
67.539 374.00
67.6042 370.00
67.6694 371.00
67.7346 350.00
67.7998 354.00
67.865 376.00
67.9302 349.00
67.9954 348.00
68.0606 328.00
68.1258 320.00
68.191 347.00
68.2562 324.00
68.3214 328.00
68.3866 295.00
68.4518 319.00
68.517 313.00
68.5822 317.00
68.6474 328.00
68.7126 316.00
68.7778 318.00
68.843 313.00
68.9082 284.00
68.9734 317.00
69.0386 290.00
69.1038 338.00
69.169 329.00
69.2342 339.00
69.2994 335.00
69.3646 339.00
69.4298 314.00
69.495 341.00
69.5602 351.00
69.6254 321.00
69.6906 316.00
69.7558 310.00
69.821 322.00
69.8862 288.00
69.9514 341.00
70.0166 316.00
70.0818 345.00
70.147 321.00
70.2122 333.00
70.2774 274.00
70.3426 339.00
70.4078 288.00
70.473 334.00
70.5382 325.00
70.6034 296.00
70.6686 347.00
70.7338 322.00
70.799 370.00
70.8642 334.00
70.9294 359.00
70.9946 415.00
71.0598 385.00
71.125 442.00
71.1902 563.00
71.2554 666.00
71.3205 640.00
71.3858 649.00
71.451 592.00
71.5162 504.00
71.5813 449.00
71.6465 413.00
71.7117 404.00
71.7769 360.00
71.8421 362.00
71.9073 358.00
71.9725 359.00
72.0377 356.00
72.1029 339.00
72.1681 346.00
72.2333 355.00
72.2985 303.00
72.3637 337.00
72.4289 345.00
72.4941 294.00
72.5593 337.00
72.6245 348.00
72.6897 291.00
72.7549 299.00
72.8201 347.00
72.8853 293.00
72.9505 293.00
73.0157 269.00
73.0809 300.00
73.1461 281.00
73.2113 316.00
73.2765 317.00
73.3417 297.00
73.4069 332.00
73.4721 282.00
73.5373 300.00
73.6025 316.00
73.6677 328.00
73.7329 293.00
73.7981 273.00
73.8633 282.00
73.9285 265.00
73.9937 281.00
74.0589 286.00
74.1241 300.00
74.1893 289.00
74.2545 273.00
74.3197 303.00
74.3849 302.00
74.4501 320.00
74.5153 285.00
74.5805 298.00
74.6457 347.00
74.7109 307.00
74.7761 286.00
74.8413 313.00
74.9065 304.00
74.9717 286.00
75.0369 314.00
75.1021 313.00
75.1673 312.00
75.2325 326.00
75.2977 300.00
75.3629 291.00
75.4281 313.00
75.4933 332.00
75.5585 320.00
75.6237 302.00
75.6889 313.00
75.7541 305.00
75.8193 301.00
75.8845 288.00
75.9497 302.00
76.0149 308.00
76.0801 293.00
76.1452 283.00
76.2104 305.00
76.2756 304.00
76.3409 289.00
76.406 287.00
76.4712 296.00
76.5364 273.00
76.6016 284.00
76.6668 272.00
76.732 280.00
76.7972 282.00
76.8624 273.00
76.9276 346.00
76.9928 295.00
77.058 271.00
77.1232 269.00
77.1884 267.00
77.2536 287.00
77.3188 271.00
77.384 283.00
77.4492 287.00
77.5144 291.00
77.5796 343.00
77.6448 284.00
77.71 317.00
77.7752 310.00
77.8404 334.00
77.9056 316.00
77.9708 334.00
78.036 282.00
78.1012 343.00
78.1664 335.00
78.2316 343.00
78.2968 414.00
78.362 369.00
78.4272 416.00
78.4924 481.00
78.5576 553.00
78.6228 686.00
78.688 886.00
78.7532 877.00
78.8184 746.00
78.8836 772.00
78.9488 686.00
79.014 577.00
79.0792 488.00
79.1444 428.00
79.2096 410.00
79.2748 373.00
79.34 378.00
79.4052 330.00
79.4704 340.00
79.5356 345.00
79.6008 322.00
79.666 322.00
79.7312 283.00
79.7964 293.00
79.8616 323.00
79.9268 298.00
79.992 316.00
80.0572 320.00
80.1224 329.00
80.1876 309.00
80.2528 367.00
80.318 358.00
80.3832 295.00
80.4484 360.00
80.5136 353.00
80.5788 342.00
80.644 356.00
80.7092 341.00
80.7744 328.00
80.8396 325.00
80.9048 407.00
80.9699 393.00
81.0351 431.00
81.1003 442.00
81.1655 463.00
81.2307 447.00
81.2959 445.00
81.3611 407.00
81.4263 418.00
81.4915 379.00
81.5567 366.00
81.6219 311.00
81.6871 340.00
81.7523 284.00
81.8175 336.00
81.8827 314.00
81.9479 281.00
82.0131 327.00
82.0783 324.00
82.1435 280.00
82.2087 291.00
82.2739 287.00
82.3391 282.00
82.4043 270.00
82.4695 286.00
82.5347 289.00
82.5999 263.00
82.6651 288.00
82.7303 291.00
82.7955 323.00
82.8607 312.00
82.9259 313.00
82.9911 302.00
83.0563 337.00
83.1215 312.00
83.1867 320.00
83.2519 339.00
83.3171 362.00
83.3823 336.00
83.4475 405.00
83.5127 421.00
83.5779 491.00
83.6431 610.00
83.7083 704.00
83.7735 666.00
83.8387 553.00
83.9039 578.00
83.9691 555.00
84.0343 509.00
84.0995 431.00
84.1647 383.00
84.2299 379.00
84.2951 342.00
84.3603 327.00
84.4255 325.00
84.4907 314.00
84.5559 330.00
84.6211 305.00
84.6863 320.00
84.7515 311.00
84.8167 302.00
84.8819 287.00
84.9471 335.00
85.0123 305.00
85.0775 315.00
85.1427 270.00
85.2079 302.00
85.2731 284.00
85.3383 295.00
85.4035 267.00
85.4687 284.00
85.5339 246.00
85.5991 316.00
85.6643 283.00
85.7295 266.00
85.7946 286.00
85.8598 258.00
85.925 291.00
85.9903 299.00
86.0554 309.00
86.1206 257.00
86.1858 271.00
86.251 285.00
86.3162 305.00
86.3814 270.00
86.4466 278.00
86.5118 306.00
86.577 294.00
86.6422 296.00
86.7074 268.00
86.7726 273.00
86.8378 262.00
86.903 324.00
86.9682 320.00
87.0334 344.00
87.0986 333.00
87.1638 431.00
87.229 479.00
87.2942 446.00
87.3594 400.00
87.4246 375.00
87.4898 440.00
87.555 377.00
87.6202 391.00
87.6854 330.00
87.7506 330.00
87.8158 320.00
87.881 344.00
87.9462 329.00
88.0114 347.00
88.0766 315.00
88.1418 319.00
88.207 309.00
88.2722 333.00
88.3374 294.00
88.4026 338.00
88.4678 316.00
88.533 321.00
88.5982 361.00
88.6634 359.00
88.7286 342.00
88.7938 337.00
88.859 331.00
88.9242 354.00
88.9894 340.00
89.0546 350.00
89.1198 362.00
89.185 329.00
89.2502 349.00
89.3154 354.00
89.3806 410.00
89.4458 399.00
89.511 406.00
89.5762 464.00
89.6414 531.00
89.7066 699.00
89.7718 760.00
89.837 750.00
89.9022 608.00
89.9674 591.00
90.0326 617.00
90.0978 649.00
90.163 551.00
90.2282 481.00
90.2934 470.00
90.3586 460.00
90.4238 436.00
90.489 426.00
90.5542 427.00
90.6193 439.00
90.6845 479.00
90.7497 578.00
90.8149 650.00
90.8801 749.00
90.9453 765.00
91.0105 624.00
91.0757 596.00
91.1409 655.00
91.2061 561.00
91.2713 540.00
91.3365 438.00
91.4017 420.00
91.4669 354.00
91.5321 365.00
91.5973 338.00
91.6625 292.00
91.7277 328.00
91.7929 301.00
91.8581 327.00
91.9233 324.00
91.9885 317.00
92.0537 328.00
92.1189 294.00
92.1841 340.00
92.2493 315.00
92.3145 310.00
92.3797 309.00
92.4449 317.00
92.5101 303.00
92.5753 309.00
92.6405 287.00
92.7057 337.00
92.7709 312.00
92.8361 343.00
92.9013 314.00
92.9665 351.00
93.0317 351.00
93.0969 386.00
93.1621 449.00
93.2273 499.00
93.2925 526.00
93.3577 537.00
93.4229 464.00
93.4881 405.00
93.5533 420.00
93.6185 422.00
93.6837 428.00
93.7489 377.00
93.8141 346.00
93.8793 322.00
93.9445 341.00
94.0097 332.00
94.0749 294.00
94.1401 329.00
94.2053 320.00
94.2705 301.00
94.3357 304.00
94.4009 319.00
94.4661 297.00
94.5313 304.00
94.5965 306.00
94.6617 305.00
94.7269 316.00
94.7921 356.00
94.8573 321.00
94.9225 311.00
94.9877 291.00
95.0529 281.00
95.1181 289.00
95.1833 314.00
95.2485 281.00
95.3137 268.00
95.3789 309.00
95.444 309.00
95.5092 301.00
95.5744 278.00
95.6396 283.00
95.7048 323.00
95.77 314.00
95.8352 369.00
95.9004 415.00
95.9656 451.00
96.0308 528.00
96.096 445.00
96.1612 384.00
96.2264 377.00
96.2916 377.00
96.3568 400.00
96.422 374.00
96.4872 337.00
96.5524 299.00
96.6176 317.00
96.6828 287.00
96.748 247.00
96.8132 272.00
96.8784 319.00
96.9436 284.00
97.0088 300.00
97.074 286.00
97.1392 272.00
97.2044 249.00
97.2696 279.00
97.3348 245.00
97.4 289.00
97.4652 280.00
97.5304 243.00
97.5956 274.00
97.6608 288.00
97.726 275.00
97.7912 242.00
97.8564 297.00
97.9216 251.00
97.9868 288.00
98.052 284.00
98.1172 299.00
98.1824 267.00
98.2476 290.00
98.3128 259.00
98.378 280.00
98.4432 277.00
98.5084 238.00
98.5736 259.00
98.6388 248.00
98.704 257.00
98.7692 257.00
98.8344 273.00
98.8996 238.00
98.9648 295.00
99.03 229.00
99.0952 281.00
99.1604 307.00
99.2256 282.00
99.2908 265.00
99.356 239.00
99.4212 242.00
99.4864 272.00
99.5516 264.00
99.6168 240.00
99.682 279.00
99.7472 275.00
99.8124 259.00
99.8776 270.00
99.9428 276.00
100.008 303.00
100.073 288.00
100.095 269.00