File: data/xrd_creation/results/Na_72.xy
9.903433 2793.00
9.968632 2926.00
10.0338 2869.00
10.099 2866.00
10.1642 2946.00
10.2294 2829.00
10.2946 2922.00
10.3598 2771.00
10.425 2782.00
10.4902 2722.00
10.5554 2667.00
10.6206 2722.00
10.6858 2768.00
10.751 2653.00
10.8162 2682.00
10.8814 2623.00
10.9466 2555.00
11.0118 2673.00
11.077 2537.00
11.1422 2567.00
11.2074 2604.00
11.2726 2507.00
11.3378 2569.00
11.403 2454.00
11.4682 2491.00
11.5334 2585.00
11.5986 2389.00
11.6638 2409.00
11.729 2410.00
11.7942 2337.00
11.8594 2401.00
11.9246 2366.00
11.9898 2355.00
12.055 2343.00
12.1202 2369.00
12.1854 2246.00
12.2506 2341.00
12.3158 2348.00
12.381 2298.00
12.4462 2279.00
12.5114 2330.00
12.5766 2203.00
12.6418 2193.00
12.707 2233.00
12.7722 2281.00
12.8374 2175.00
12.9026 2249.00
12.9678 2137.00
13.033 2166.00
13.0982 2155.00
13.1634 2153.00
13.2286 2140.00
13.2938 2121.00
13.359 2157.00
13.4242 2188.00
13.4894 2146.00
13.5546 2206.00
13.6198 2126.00
13.685 2121.00
13.7502 2099.00
13.8154 2019.00
13.8805 2148.00
13.9457 2129.00
14.0109 2085.00
14.0761 2028.00
14.1413 2078.00
14.2065 2030.00
14.2717 2001.00
14.3369 1982.00
14.4021 1938.00
14.4673 1996.00
14.5325 1935.00
14.5977 1978.00
14.6629 1893.00
14.7281 1942.00
14.7933 1943.00
14.8585 1934.00
14.9237 1871.00
14.9889 1837.00
15.0541 1872.00
15.1193 2000.00
15.1845 1911.00
15.2497 1815.00
15.3149 1892.00
15.3801 1945.00
15.4453 1885.00
15.5105 1844.00
15.5757 1921.00
15.6409 1830.00
15.7061 1867.00
15.7713 1931.00
15.8365 1891.00
15.9017 1766.00
15.9669 1864.00
16.0321 1833.00
16.0973 1883.00
16.1625 1802.00
16.2277 1834.00
16.2929 1786.00
16.3581 1886.00
16.4233 1821.00
16.4885 1889.00
16.5537 1845.00
16.6189 1845.00
16.6841 1786.00
16.7493 1742.00
16.8145 1712.00
16.8797 1789.00
16.9449 1825.00
17.0101 1768.00
17.0753 1761.00
17.1405 1775.00
17.2057 1739.00
17.2709 1728.00
17.3361 1772.00
17.4013 1670.00
17.4665 1801.00
17.5317 1705.00
17.5969 1668.00
17.6621 1695.00
17.7273 1769.00
17.7925 1671.00
17.8577 1824.00
17.9229 1710.00
17.9881 1768.00
18.0533 1752.00
18.1185 1716.00
18.1837 1738.00
18.2489 1730.00
18.3141 1762.00
18.3793 1786.00
18.4445 1700.00
18.5097 1655.00
18.5749 1643.00
18.6401 1596.00
18.7052 1683.00
18.7704 1632.00
18.8356 1763.00
18.9008 1747.00
18.966 1719.00
19.0312 1752.00
19.0964 1823.00
19.1616 1980.00
19.2268 1892.00
19.292 1885.00
19.3572 1814.00
19.4224 1757.00
19.4876 1799.00
19.5528 1876.00
19.618 1823.00
19.6832 1812.00
19.7484 1889.00
19.8136 1843.00
19.8788 1983.00
19.944 1950.00
20.0092 1999.00
20.0744 2185.00
20.1396 2440.00
20.2048 2781.00
20.27 3454.00
20.3352 3779.00
20.4004 3714.00
20.4656 3139.00
20.5308 2311.00
20.596 1931.00
20.6612 1862.00
20.7264 1738.00
20.7916 1746.00
20.8568 1687.00
20.922 1701.00
20.9872 1784.00
21.0524 1734.00
21.1176 1833.00
21.1828 2059.00
21.248 2116.00
21.3132 2163.00
21.3784 2223.00
21.4436 2135.00
21.5088 2277.00
21.574 2187.00
21.6392 2258.00
21.7044 2172.00
21.7696 2065.00
21.8348 1921.00
21.9 1829.00
21.9652 1783.00
22.0304 1718.00
22.0956 1722.00
22.1608 1684.00
22.226 1672.00
22.2912 1655.00
22.3564 1694.00
22.4216 1653.00
22.4868 1592.00
22.552 1477.00
22.6172 1550.00
22.6824 1593.00
22.7476 1661.00
22.8128 1547.00
22.878 1607.00
22.9432 1583.00
23.0084 1491.00
23.0736 1643.00
23.1388 1706.00
23.204 1918.00
23.2692 2286.00
23.3344 2502.00
23.3996 2228.00
23.4647 1649.00
23.5299 1589.00
23.5951 1563.00
23.6603 1475.00
23.7255 1485.00
23.7907 1440.00
23.8559 1558.00
23.9211 1423.00
23.9863 1430.00
24.0515 1445.00
24.1167 1432.00
24.1819 1495.00
24.2471 1393.00
24.3123 1521.00
24.3775 1370.00
24.4427 1425.00
24.5079 1365.00
24.5731 1465.00
24.6383 1401.00
24.7035 1430.00
24.7687 1386.00
24.8339 1408.00
24.8991 1427.00
24.9643 1402.00
25.0295 1404.00
25.0947 1421.00
25.1599 1367.00
25.2251 1409.00
25.2903 1413.00
25.3555 1449.00
25.4207 1405.00
25.4859 1456.00
25.5511 1446.00
25.6163 1473.00
25.6815 1416.00
25.7467 1386.00
25.8119 1444.00
25.8771 1520.00
25.9423 1479.00
26.0075 1457.00
26.0727 1446.00
26.1379 1437.00
26.2031 1461.00
26.2683 1413.00
26.3335 1509.00
26.3987 1425.00
26.4639 1536.00
26.5291 1496.00
26.5943 1673.00
26.6595 1827.00
26.7247 2091.00
26.7899 2120.00
26.8551 1968.00
26.9203 1777.00
26.9855 1618.00
27.0507 1536.00
27.1159 1551.00
27.1811 1522.00
27.2463 1592.00
27.3115 1561.00
27.3767 1582.00
27.4419 1525.00
27.5071 1507.00
27.5723 1536.00
27.6375 1434.00
27.7027 1452.00
27.7679 1507.00
27.8331 1532.00
27.8983 1498.00
27.9635 1546.00
28.0287 1556.00
28.0939 1578.00
28.1591 1594.00
28.2243 1580.00
28.2894 1487.00
28.3546 1547.00
28.4198 1555.00
28.485 1445.00
28.5502 1607.00
28.6154 1547.00
28.6806 1540.00
28.7458 1569.00
28.811 1520.00
28.8762 1580.00
28.9414 1569.00
29.0066 1540.00
29.0718 1543.00
29.137 1649.00
29.2022 1656.00
29.2674 1705.00
29.3326 1755.00
29.3978 1892.00
29.463 2560.00
29.5282 4165.00
29.5934 7480.00
29.6586 11420.00
29.7238 8273.00
29.789 4030.00
29.8542 2082.00
29.9194 1924.00
29.9846 1884.00
30.0498 1913.00
30.115 1842.00
30.1802 1923.00
30.2454 1756.00
30.3106 1766.00
30.3758 1800.00
30.441 1751.00
30.5062 1687.00
30.5714 1840.00
30.6366 1886.00
30.7018 2037.00
30.767 2084.00
30.8322 1904.00
30.8974 1780.00
30.9626 1636.00
31.0278 1585.00
31.093 1563.00
31.1582 1631.00
31.2234 1644.00
31.2886 1603.00
31.3538 1613.00
31.419 1574.00
31.4842 1625.00
31.5494 1620.00
31.6146 1700.00
31.6798 1898.00
31.745 1744.00
31.8102 1601.00
31.8754 1628.00
31.9406 1587.00
32.0058 1573.00
32.071 1582.00
32.1362 1569.00
32.2014 1578.00
32.2666 1550.00
32.3318 1541.00
32.397 1610.00
32.4622 1727.00
32.5274 1859.00
32.5926 1752.00
32.6578 1909.00
32.723 1899.00
32.7882 2050.00
32.8534 2181.00
32.9186 2274.00
32.9838 2346.00
33.0489 2301.00
33.1141 2271.00
33.1793 2471.00
33.2445 3059.00
33.3097 3811.00
33.3749 4183.00
33.4401 3767.00
33.5053 2981.00
33.5705 2362.00
33.6357 1750.00
33.7009 1684.00
33.7661 1659.00
33.8313 1654.00
33.8965 1651.00
33.9617 1690.00
34.0269 1563.00
34.0921 1580.00
34.1573 1539.00
34.2225 1378.00
34.2877 1326.00
34.3529 1264.00
34.4181 1298.00
34.4833 1219.00
34.5485 1319.00
34.6137 1247.00
34.6789 1243.00
34.7441 1159.00
34.8093 1217.00
34.8745 1221.00
34.9397 1238.00
35.0049 1224.00
35.0701 1172.00
35.1353 1158.00
35.2005 1108.00
35.2657 1080.00
35.3309 1153.00
35.3961 1107.00
35.4613 1253.00
35.5265 1179.00
35.5917 1224.00
35.6569 1240.00
35.7221 1373.00
35.7873 1466.00
35.8525 1275.00
35.9177 1165.00
35.9829 1161.00
36.0481 1199.00
36.1133 1480.00
36.1785 1958.00
36.2437 2316.00
36.3089 1693.00
36.3741 1387.00
36.4393 1035.00
36.5045 1118.00
36.5697 1073.00
36.6349 1055.00
36.7001 1072.00
36.7653 1012.00
36.8305 1011.00
36.8957 1031.00
36.9609 1076.00
37.0261 1065.00
37.0913 1065.00
37.1565 1099.00
37.2217 1026.00
37.2869 1038.00
37.3521 976.00
37.4173 1086.00
37.4825 1044.00
37.5477 1020.00
37.6129 1006.00
37.6781 981.00
37.7433 963.00
37.8085 1034.00
37.8736 899.00
37.9388 909.00
38.004 946.00
38.0692 911.00
38.1344 874.00
38.1996 964.00
38.2648 935.00
38.33 1008.00
38.3952 987.00
38.4604 1064.00
38.5256 1027.00
38.5908 1081.00
38.656 1126.00
38.7212 1146.00
38.7864 1134.00
38.8516 1136.00
38.9168 1073.00
38.982 1024.00
39.0472 937.00
39.1124 984.00
39.1776 1043.00
39.2428 1080.00
39.308 1016.00
39.3732 1011.00
39.4384 1033.00
39.5036 1206.00
39.5688 1669.00
39.634 2468.00
39.6992 2491.00
39.7644 1872.00
39.8296 1211.00
39.8948 920.00
39.96 874.00
40.0252 833.00
40.0904 870.00
40.1556 849.00
40.2208 778.00
40.286 840.00
40.3512 808.00
40.4164 846.00
40.4816 836.00
40.5468 778.00
40.612 868.00
40.6772 782.00
40.7424 864.00
40.8076 824.00
40.8728 820.00
40.938 876.00
41.0032 825.00
41.0684 829.00
41.1336 919.00
41.1988 941.00
41.264 928.00
41.3292 922.00
41.3944 865.00
41.4596 845.00
41.5248 912.00
41.59 883.00
41.6552 872.00
41.7204 817.00
41.7856 844.00
41.8508 851.00
41.916 821.00
41.9812 768.00
42.0464 874.00
42.1116 866.00
42.1768 876.00
42.242 783.00
42.3072 853.00
42.3724 863.00
42.4376 835.00
42.5028 847.00
42.568 808.00
42.6332 859.00
42.6983 846.00
42.7635 822.00
42.8287 877.00
42.8939 847.00
42.9591 839.00
43.0243 939.00
43.0895 965.00
43.1547 954.00
43.2199 1037.00
43.2851 1279.00
43.3503 1880.00
43.4155 2449.00
43.4807 1803.00
43.5459 1554.00
43.6111 1071.00
43.6763 1001.00
43.7415 1015.00
43.8067 989.00
43.8719 995.00
43.9371 935.00
44.0023 917.00
44.0675 918.00
44.1327 835.00
44.1979 856.00
44.2631 889.00
44.3283 868.00
44.3935 862.00
44.4587 805.00
44.5239 801.00
44.5891 837.00
44.6543 846.00
44.7195 812.00
44.7847 908.00
44.8499 815.00
44.9151 892.00
44.9803 907.00
45.0455 921.00
45.1107 855.00
45.1759 937.00
45.2411 905.00
45.3063 910.00
45.3715 903.00
45.4367 899.00
45.5019 928.00
45.5671 894.00
45.6323 851.00
45.6975 838.00
45.7627 876.00
45.8279 925.00
45.8931 939.00
45.9583 959.00
46.0235 994.00
46.0887 943.00
46.1539 894.00
46.2191 912.00
46.2843 855.00
46.3495 858.00
46.4147 817.00
46.4799 837.00
46.5451 875.00
46.6103 856.00
46.6755 858.00
46.7407 817.00
46.8059 866.00
46.8711 884.00
46.9363 822.00
47.0015 831.00
47.0667 881.00
47.1319 917.00
47.1971 962.00
47.2623 1158.00
47.3275 1542.00
47.3927 1596.00
47.4579 1402.00
47.523 1443.00
47.5882 1426.00
47.6534 1698.00
47.7186 2498.00
47.7838 2334.00
47.849 1807.00
47.9142 1342.00
47.9794 990.00
48.0446 850.00
48.1098 903.00
48.175 855.00
48.2402 815.00
48.3054 812.00
48.3706 851.00
48.4358 765.00
48.501 882.00
48.5662 1001.00
48.6314 1344.00
48.6966 2153.00
48.7618 2463.00
48.827 1723.00
48.8922 1583.00
48.9574 912.00
49.0226 789.00
49.0878 762.00
49.153 748.00
49.2182 794.00
49.2834 726.00
49.3486 723.00
49.4138 702.00
49.479 676.00
49.5442 704.00
49.6094 730.00
49.6746 658.00
49.7398 691.00
49.805 672.00
49.8702 670.00
49.9354 674.00
50.0006 696.00
50.0658 702.00
50.131 722.00
50.1962 699.00
50.2614 676.00
50.3266 677.00
50.3918 662.00
50.457 661.00
50.5222 640.00
50.5874 659.00
50.6526 652.00
50.7178 679.00
50.783 642.00
50.8482 644.00
50.9134 649.00
50.9786 640.00
51.0438 674.00
51.109 651.00
51.1742 679.00
51.2394 676.00
51.3046 659.00
51.3698 705.00
51.435 680.00
51.5002 699.00
51.5654 690.00
51.6306 681.00
51.6958 654.00
51.761 648.00
51.8262 775.00
51.8914 687.00
51.9566 731.00
52.0218 721.00
52.087 775.00
52.1522 762.00
52.2174 764.00
52.2826 767.00
52.3477 759.00
52.4129 733.00
52.4781 789.00
52.5433 681.00
52.6085 723.00
52.6737 707.00
52.7389 736.00
52.8041 671.00
52.8693 739.00
52.9345 648.00
52.9997 658.00
53.0649 681.00
53.1301 647.00
53.1953 704.00
53.2605 674.00
53.3257 683.00
53.3909 646.00
53.4561 622.00
53.5213 610.00
53.5865 655.00
53.6517 644.00
53.7169 685.00
53.7821 613.00
53.8473 730.00
53.9125 662.00
53.9777 621.00
54.0429 615.00
54.1081 645.00
54.1733 643.00
54.2385 650.00
54.3037 664.00
54.3689 627.00
54.4341 618.00
54.4993 604.00
54.5645 595.00
54.6297 642.00
54.6949 641.00
54.7601 636.00
54.8253 703.00
54.8905 686.00
54.9557 715.00
55.0209 691.00
55.0861 645.00
55.1513 657.00
55.2165 592.00
55.2817 622.00
55.3469 571.00
55.4121 655.00
55.4773 639.00
55.5425 667.00
55.6077 587.00
55.6729 668.00
55.7381 641.00
55.8033 622.00
55.8685 692.00
55.9337 662.00
55.9989 611.00
56.0641 619.00
56.1293 622.00
56.1945 636.00
56.2597 605.00
56.3249 613.00
56.3901 617.00
56.4553 603.00
56.5205 606.00
56.5857 630.00
56.6509 662.00
56.7161 782.00
56.7813 804.00
56.8465 776.00
56.9117 760.00
56.9769 693.00
57.042 663.00
57.1073 664.00
57.1724 619.00
57.2376 602.00
57.3028 647.00
57.368 657.00
57.4332 768.00
57.4984 825.00
57.5636 1065.00
57.6288 1351.00
57.694 1060.00
57.7592 1029.00
57.8244 932.00
57.8896 768.00
57.9548 695.00
58.02 640.00
58.0852 669.00
58.1504 679.00
58.2156 658.00
58.2808 737.00
58.346 742.00
58.4112 710.00
58.4764 687.00
58.5416 635.00
58.6068 612.00
58.672 596.00
58.7372 606.00
58.8024 638.00
58.8676 633.00
58.9328 660.00
58.998 710.00
59.0632 763.00
59.1284 817.00
59.1936 817.00
59.2588 823.00
59.324 854.00
59.3892 811.00
59.4544 838.00
59.5196 818.00
59.5848 752.00
59.65 774.00
59.7152 784.00
59.7804 776.00
59.8456 749.00
59.9108 714.00
59.976 721.00
60.0412 640.00
60.1064 598.00
60.1716 644.00
60.2368 617.00
60.302 608.00
60.3672 616.00
60.4324 630.00
60.4976 691.00
60.5628 637.00
60.628 606.00
60.6932 701.00
60.7584 710.00
60.8236 849.00
60.8888 1089.00
60.954 871.00
61.0192 835.00
61.0844 851.00
61.1496 728.00
61.2148 807.00
61.28 747.00
61.3452 704.00
61.4104 688.00
61.4756 695.00
61.5408 766.00
61.606 761.00
61.6712 689.00
61.7364 654.00
61.8016 629.00
61.8667 591.00
61.932 634.00
61.9971 572.00
62.0623 596.00
62.1275 611.00
62.1927 569.00
62.2579 571.00
62.3231 604.00
62.3883 583.00
62.4535 546.00
62.5187 513.00
62.5839 568.00
62.6491 550.00
62.7143 565.00
62.7795 522.00
62.8447 604.00
62.9099 590.00
62.9751 603.00
63.0403 655.00
63.1055 637.00
63.1707 681.00
63.2359 744.00
63.3011 743.00
63.3663 652.00
63.4315 647.00
63.4967 598.00
63.5619 590.00
63.6271 589.00
63.6923 481.00
63.7575 515.00
63.8227 548.00
63.8879 545.00
63.9531 553.00
64.0183 534.00
64.0835 538.00
64.1487 552.00
64.2139 523.00
64.2791 489.00
64.3443 477.00
64.4095 509.00
64.4747 489.00
64.5399 531.00
64.6051 539.00
64.6703 568.00
64.7355 639.00
64.8007 762.00
64.8659 1036.00
64.9311 908.00
64.9963 724.00
65.0615 781.00
65.1267 685.00
65.1919 597.00
65.2571 627.00
65.3223 611.00
65.3875 605.00
65.4527 635.00
65.5179 614.00
65.5831 618.00
65.6483 678.00
65.7135 769.00
65.7787 799.00
65.8439 797.00
65.9091 641.00
65.9743 713.00
66.0395 646.00
66.1047 561.00
66.1699 539.00
66.2351 554.00
66.3003 590.00
66.3655 568.00
66.4307 544.00
66.4959 531.00
66.561 526.00
66.6263 546.00
66.6915 549.00
66.7566 535.00
66.8218 541.00
66.887 572.00
66.9522 525.00
67.0174 564.00
67.0826 520.00
67.1478 526.00
67.213 512.00
67.2782 498.00
67.3434 520.00
67.4086 517.00
67.4738 540.00
67.539 543.00
67.6042 543.00
67.6694 529.00
67.7346 492.00
67.7998 524.00
67.865 488.00
67.9302 526.00
67.9954 506.00
68.0606 535.00
68.1258 494.00
68.191 462.00
68.2562 496.00
68.3214 467.00
68.3866 489.00
68.4518 462.00
68.517 491.00
68.5822 489.00
68.6474 439.00
68.7126 465.00
68.7778 494.00
68.843 480.00
68.9082 486.00
68.9734 491.00
69.0386 494.00
69.1038 474.00
69.169 466.00
69.2342 456.00
69.2994 548.00
69.3646 500.00
69.4298 594.00
69.495 576.00
69.5602 561.00
69.6254 566.00
69.6906 570.00
69.7558 593.00
69.821 499.00
69.8862 529.00
69.9514 544.00
70.0166 553.00
70.0818 511.00
70.147 525.00
70.2122 485.00
70.2774 501.00
70.3426 556.00
70.4078 606.00
70.473 593.00
70.5382 555.00
70.6034 546.00
70.6686 526.00
70.7338 471.00
70.799 462.00
70.8642 434.00
70.9294 493.00
70.9946 485.00
71.0598 493.00
71.125 438.00
71.1902 434.00
71.2554 418.00
71.3205 379.00
71.3858 421.00
71.451 431.00
71.5162 467.00
71.5813 449.00
71.6465 457.00
71.7117 466.00
71.7769 437.00
71.8421 419.00
71.9073 417.00
71.9725 426.00
72.0377 403.00
72.1029 388.00
72.1681 448.00
72.2333 410.00
72.2985 436.00
72.3637 416.00
72.4289 436.00
72.4941 421.00
72.5593 417.00
72.6245 432.00
72.6897 395.00
72.7549 424.00
72.8201 497.00
72.8853 462.00
72.9505 494.00
73.0157 554.00
73.0809 633.00
73.1461 605.00
73.2113 541.00
73.2765 521.00
73.3417 520.00
73.4069 426.00
73.4721 468.00
73.5373 447.00
73.6025 430.00
73.6677 406.00
73.7329 420.00
73.7981 412.00
73.8633 492.00
73.9285 409.00
73.9937 425.00
74.0589 440.00
74.1241 416.00
74.1893 407.00
74.2545 398.00
74.3197 389.00
74.3849 389.00
74.4501 383.00
74.5153 414.00
74.5805 405.00
74.6457 408.00
74.7109 412.00
74.7761 376.00
74.8413 407.00
74.9065 404.00
74.9717 432.00
75.0369 425.00
75.1021 419.00
75.1673 377.00
75.2325 401.00
75.2977 438.00
75.3629 408.00
75.4281 448.00
75.4933 423.00
75.5585 419.00
75.6237 407.00
75.6889 435.00
75.7541 402.00
75.8193 403.00
75.8845 393.00
75.9497 397.00
76.0149 391.00
76.0801 403.00
76.1452 385.00
76.2104 370.00
76.2756 426.00
76.3409 432.00
76.406 454.00
76.4712 479.00
76.5364 456.00
76.6016 434.00
76.6668 467.00
76.732 462.00
76.7972 411.00
76.8624 430.00
76.9276 425.00
76.9928 367.00
77.058 432.00
77.1232 436.00
77.1884 447.00
77.2536 568.00
77.3188 547.00
77.384 481.00
77.4492 455.00
77.5144 443.00
77.5796 450.00
77.6448 448.00
77.71 396.00
77.7752 414.00
77.8404 382.00
77.9056 387.00
77.9708 364.00
78.036 383.00
78.1012 363.00
78.1664 390.00
78.2316 403.00
78.2968 376.00
78.362 412.00
78.4272 394.00
78.4924 392.00
78.5576 379.00
78.6228 409.00
78.688 389.00
78.7532 344.00
78.8184 413.00
78.8836 420.00
78.9488 399.00
79.014 383.00
79.0792 412.00
79.1444 397.00
79.2096 435.00
79.2748 436.00
79.34 421.00
79.4052 401.00
79.4704 421.00
79.5356 421.00
79.6008 380.00
79.666 391.00
79.7312 420.00
79.7964 350.00
79.8616 346.00
79.9268 369.00
79.992 423.00
80.0572 393.00
80.1224 356.00
80.1876 372.00
80.2528 363.00
80.318 315.00
80.3832 370.00
80.4484 372.00
80.5136 401.00
80.5788 310.00
80.644 348.00
80.7092 359.00
80.7744 388.00
80.8396 373.00
80.9048 362.00
80.9699 402.00
81.0351 385.00
81.1003 431.00
81.1655 430.00
81.2307 399.00
81.2959 444.00
81.3611 392.00
81.4263 414.00
81.4915 395.00
81.5567 413.00
81.6219 505.00
81.6871 528.00
81.7523 517.00
81.8175 423.00
81.8827 485.00
81.9479 447.00
82.0131 476.00
82.0783 407.00
82.1435 370.00
82.2087 405.00
82.2739 410.00
82.3391 417.00
82.4043 422.00
82.4695 434.00
82.5347 427.00
82.5999 407.00
82.6651 383.00
82.7303 403.00
82.7955 389.00
82.8607 401.00
82.9259 379.00
82.9911 360.00
83.0563 394.00
83.1215 379.00
83.1867 379.00
83.2519 397.00
83.3171 395.00
83.3823 378.00
83.4475 388.00
83.5127 377.00
83.5779 407.00
83.6431 417.00
83.7083 415.00
83.7735 466.00
83.8387 546.00
83.9039 615.00
83.9691 613.00
84.0343 553.00
84.0995 489.00
84.1647 476.00
84.2299 575.00
84.2951 480.00
84.3603 405.00
84.4255 401.00
84.4907 404.00
84.5559 457.00
84.6211 402.00
84.6863 424.00
84.7515 422.00
84.8167 408.00
84.8819 457.00
84.9471 505.00
85.0123 538.00
85.0775 482.00
85.1427 420.00
85.2079 512.00
85.2731 431.00
85.3383 438.00
85.4035 386.00
85.4687 386.00
85.5339 396.00
85.5991 360.00
85.6643 349.00
85.7295 397.00
85.7946 360.00
85.8598 358.00
85.925 333.00
85.9903 371.00
86.0554 385.00
86.1206 389.00
86.1858 358.00
86.251 365.00
86.3162 398.00
86.3814 377.00
86.4466 406.00
86.5118 408.00
86.577 431.00
86.6422 384.00
86.7074 419.00
86.7726 400.00
86.8378 372.00
86.903 395.00
86.9682 390.00
87.0334 402.00
87.0986 340.00
87.1638 381.00
87.229 405.00
87.2942 368.00
87.3594 394.00
87.4246 390.00
87.4898 364.00
87.555 356.00
87.6202 330.00
87.6854 381.00
87.7506 343.00
87.8158 342.00
87.881 340.00
87.9462 403.00
88.0114 357.00
88.0766 336.00
88.1418 333.00
88.207 377.00
88.2722 358.00
88.3374 353.00
88.4026 340.00
88.4678 408.00
88.533 367.00
88.5982 335.00
88.6634 373.00
88.7286 353.00
88.7938 336.00
88.859 357.00
88.9242 323.00
88.9894 351.00
89.0546 343.00
89.1198 359.00
89.185 366.00
89.2502 317.00
89.3154 369.00
89.3806 355.00
89.4458 342.00
89.511 360.00
89.5762 376.00
89.6414 329.00
89.7066 330.00
89.7718 316.00
89.837 314.00
89.9022 341.00
89.9674 326.00
90.0326 337.00
90.0978 318.00
90.163 303.00
90.2282 359.00
90.2934 311.00
90.3586 314.00
90.4238 345.00
90.489 359.00
90.5542 338.00
90.6193 363.00
90.6845 347.00
90.7497 359.00
90.8149 351.00
90.8801 354.00
90.9453 361.00
91.0105 315.00
91.0757 365.00
91.1409 358.00
91.2061 326.00
91.2713 325.00
91.3365 360.00
91.4017 337.00
91.4669 372.00
91.5321 374.00
91.5973 364.00
91.6625 375.00
91.7277 379.00
91.7929 354.00
91.8581 353.00
91.9233 367.00
91.9885 344.00
92.0537 367.00
92.1189 353.00
92.1841 344.00
92.2493 359.00
92.3145 382.00
92.3797 358.00
92.4449 354.00
92.5101 366.00
92.5753 321.00
92.6405 354.00
92.7057 391.00
92.7709 343.00
92.8361 360.00
92.9013 367.00
92.9665 350.00
93.0317 318.00
93.0969 366.00
93.1621 397.00
93.2273 467.00
93.2925 409.00
93.3577 358.00
93.4229 340.00
93.4881 361.00
93.5533 303.00
93.6185 353.00
93.6837 365.00
93.7489 387.00
93.8141 383.00
93.8793 355.00
93.9445 357.00
94.0097 313.00
94.0749 328.00
94.1401 325.00
94.2053 371.00
94.2705 330.00
94.3357 361.00
94.4009 334.00
94.4661 345.00
94.5313 377.00
94.5965 326.00
94.6617 385.00
94.7269 408.00
94.7921 427.00
94.8573 595.00
94.9225 552.00
94.9877 490.00
95.0529 499.00
95.1181 627.00
95.1833 693.00
95.2485 512.00
95.3137 466.00
95.3789 457.00
95.444 509.00
95.5092 429.00
95.5744 431.00
95.6396 369.00
95.7048 354.00
95.77 365.00
95.8352 312.00
95.9004 364.00
95.9656 335.00
96.0308 381.00
96.096 393.00
96.1612 366.00
96.2264 419.00
96.2916 419.00
96.3568 423.00
96.422 402.00
96.4872 406.00
96.5524 349.00
96.6176 384.00
96.6828 381.00
96.748 348.00
96.8132 362.00
96.8784 327.00
96.9436 300.00
97.0088 357.00
97.074 305.00
97.1392 338.00
97.2044 321.00
97.2696 365.00
97.3348 312.00
97.4 349.00
97.4652 340.00
97.5304 370.00
97.5956 322.00
97.6608 333.00
97.726 352.00
97.7912 390.00
97.8564 351.00
97.9216 379.00
97.9868 351.00
98.052 350.00
98.1172 383.00
98.1824 400.00
98.2476 348.00
98.3128 382.00
98.378 391.00
98.4432 361.00
98.5084 373.00
98.5736 417.00
98.6388 369.00
98.704 388.00
98.7692 407.00
98.8344 373.00
98.8996 380.00
98.9648 360.00
99.03 393.00
99.0952 402.00
99.1604 435.00
99.2256 468.00
99.2908 508.00
99.356 498.00
99.4212 371.00
99.4864 396.00
99.5516 426.00
99.6168 431.00
99.682 392.00
99.7472 395.00
99.8124 365.00
99.8776 346.00
99.9428 342.00
100.008 348.00
100.073 329.00
100.095 315.00