File: data/xrd_creation/results/Na_73.xy
9.903433 2794.00
9.968632 2816.00
10.0338 2782.00
10.099 2744.00
10.1642 2659.00
10.2294 2672.00
10.2946 2763.00
10.3598 2766.00
10.425 2715.00
10.4902 2574.00
10.5554 2712.00
10.6206 2716.00
10.6858 2627.00
10.751 2600.00
10.8162 2705.00
10.8814 2601.00
10.9466 2660.00
11.0118 2656.00
11.077 2524.00
11.1422 2442.00
11.2074 2542.00
11.2726 2419.00
11.3378 2434.00
11.403 2498.00
11.4682 2414.00
11.5334 2485.00
11.5986 2635.00
11.6638 2743.00
11.729 2870.00
11.7942 2576.00
11.8594 2312.00
11.9246 2272.00
11.9898 2173.00
12.055 2245.00
12.1202 2159.00
12.1854 2168.00
12.2506 2265.00
12.3158 2112.00
12.381 2149.00
12.4462 2223.00
12.5114 2161.00
12.5766 2094.00
12.6418 2080.00
12.707 2179.00
12.7722 2228.00
12.8374 2131.00
12.9026 2149.00
12.9678 2021.00
13.033 2026.00
13.0982 2062.00
13.1634 2058.00
13.2286 1968.00
13.2938 2071.00
13.359 2032.00
13.4242 1961.00
13.4894 1938.00
13.5546 1947.00
13.6198 1914.00
13.685 1974.00
13.7502 1900.00
13.8154 2074.00
13.8805 2093.00
13.9457 1986.00
14.0109 1968.00
14.0761 1845.00
14.1413 1908.00
14.2065 1874.00
14.2717 1884.00
14.3369 1828.00
14.4021 1899.00
14.4673 1861.00
14.5325 1883.00
14.5977 1826.00
14.6629 1871.00
14.7281 1800.00
14.7933 1851.00
14.8585 1871.00
14.9237 1709.00
14.9889 1773.00
15.0541 1766.00
15.1193 1738.00
15.1845 1818.00
15.2497 1720.00
15.3149 1797.00
15.3801 1777.00
15.4453 1775.00
15.5105 1776.00
15.5757 1717.00
15.6409 1727.00
15.7061 1616.00
15.7713 1669.00
15.8365 1718.00
15.9017 1759.00
15.9669 1677.00
16.0321 1756.00
16.0973 1746.00
16.1625 1691.00
16.2277 1755.00
16.2929 1818.00
16.3581 1745.00
16.4233 1728.00
16.4885 1633.00
16.5537 1710.00
16.6189 1674.00
16.6841 1597.00
16.7493 1613.00
16.8145 1659.00
16.8797 1627.00
16.9449 1628.00
17.0101 1621.00
17.0753 1650.00
17.1405 1707.00
17.2057 1784.00
17.2709 1897.00
17.3361 2168.00
17.4013 2287.00
17.4665 2064.00
17.5317 1944.00
17.5969 2192.00
17.6621 2768.00
17.7273 3496.00
17.7925 4082.00
17.8577 2619.00
17.9229 1691.00
17.9881 1640.00
18.0533 1562.00
18.1185 1570.00
18.1837 1575.00
18.2489 1595.00
18.3141 1643.00
18.3793 1524.00
18.4445 1630.00
18.5097 1609.00
18.5749 1703.00
18.6401 1777.00
18.7052 1824.00
18.7704 1587.00
18.8356 1489.00
18.9008 1484.00
18.966 1456.00
19.0312 1604.00
19.0964 1524.00
19.1616 1676.00
19.2268 1726.00
19.292 1789.00
19.3572 1763.00
19.4224 1673.00
19.4876 1451.00
19.5528 1491.00
19.618 1360.00
19.6832 1404.00
19.7484 1383.00
19.8136 1417.00
19.8788 1372.00
19.944 1462.00
20.0092 1522.00
20.0744 1631.00
20.1396 1970.00
20.2048 2490.00
20.27 3064.00
20.3352 3288.00
20.4004 2971.00
20.4656 2304.00
20.5308 1859.00
20.596 1811.00
20.6612 1740.00
20.7264 1662.00
20.7916 1632.00
20.8568 1407.00
20.922 1356.00
20.9872 1409.00
21.0524 1511.00
21.1176 1481.00
21.1828 1480.00
21.248 1415.00
21.3132 1419.00
21.3784 1310.00
21.4436 1458.00
21.5088 1666.00
21.574 1937.00
21.6392 2098.00
21.7044 1807.00
21.7696 1594.00
21.8348 1393.00
21.9 1249.00
21.9652 1241.00
22.0304 1254.00
22.0956 1398.00
22.1608 1336.00
22.226 1306.00
22.2912 1318.00
22.3564 1319.00
22.4216 1525.00
22.4868 1809.00
22.552 2460.00
22.6172 3778.00
22.6824 4993.00
22.7476 3350.00
22.8128 1684.00
22.878 1382.00
22.9432 1327.00
23.0084 1492.00
23.0736 1740.00
23.1388 2385.00
23.204 3566.00
23.2692 4316.00
23.3344 3102.00
23.3996 2593.00
23.4647 3159.00
23.5299 3519.00
23.5951 2548.00
23.6603 1697.00
23.7255 1612.00
23.7907 1458.00
23.8559 1222.00
23.9211 1103.00
23.9863 1060.00
24.0515 1118.00
24.1167 1068.00
24.1819 1154.00
24.2471 1091.00
24.3123 1032.00
24.3775 1048.00
24.4427 1076.00
24.5079 1120.00
24.5731 1063.00
24.6383 1065.00
24.7035 1103.00
24.7687 1133.00
24.8339 1057.00
24.8991 1048.00
24.9643 1028.00
25.0295 1104.00
25.0947 1054.00
25.1599 1127.00
25.2251 1208.00
25.2903 1541.00
25.3555 2227.00
25.4207 3529.00
25.4859 4271.00
25.5511 3194.00
25.6163 2021.00
25.6815 1959.00
25.7467 2815.00
25.8119 3632.00
25.8771 2887.00
25.9423 1959.00
26.0075 1758.00
26.0727 1652.00
26.1379 1433.00
26.2031 1313.00
26.2683 1195.00
26.3335 1163.00
26.3987 1326.00
26.4639 1282.00
26.5291 1293.00
26.5943 1326.00
26.6595 1432.00
26.7247 1590.00
26.7899 1459.00
26.8551 1482.00
26.9203 1794.00
26.9855 2474.00
27.0507 2231.00
27.1159 1436.00
27.1811 1245.00
27.2463 1338.00
27.3115 1538.00
27.3767 1641.00
27.4419 1462.00
27.5071 1187.00
27.5723 1095.00
27.6375 1072.00
27.7027 1078.00
27.7679 1022.00
27.8331 968.00
27.8983 959.00
27.9635 1065.00
28.0287 1236.00
28.0939 1485.00
28.1591 1499.00
28.2243 1287.00
28.2894 1048.00
28.3546 1033.00
28.4198 995.00
28.485 938.00
28.5502 955.00
28.6154 1008.00
28.6806 949.00
28.7458 976.00
28.811 941.00
28.8762 955.00
28.9414 1034.00
29.0066 1214.00
29.0718 1433.00
29.137 1561.00
29.2022 1602.00
29.2674 1438.00
29.3326 1318.00
29.3978 1225.00
29.463 1157.00
29.5282 1208.00
29.5934 1557.00
29.6586 2578.00
29.7238 3671.00
29.789 3676.00
29.8542 2309.00
29.9194 1330.00
29.9846 1100.00
30.0498 1063.00
30.115 1010.00
30.1802 932.00
30.2454 942.00
30.3106 921.00
30.3758 860.00
30.441 823.00
30.5062 907.00
30.5714 856.00
30.6366 816.00
30.7018 798.00
30.767 865.00
30.8322 913.00
30.8974 944.00
30.9626 1133.00
31.0278 1353.00
31.093 1663.00
31.1582 1870.00
31.2234 1686.00
31.2886 1654.00
31.3538 1949.00
31.419 1818.00
31.4842 1593.00
31.5494 1321.00
31.6146 1157.00
31.6798 1475.00
31.745 2096.00
31.8102 4123.00
31.8754 7726.00
31.9406 8258.00
32.0058 5155.00
32.071 2663.00
32.1362 2214.00
32.2014 2511.00
32.2666 3330.00
32.3318 4038.00
32.397 3540.00
32.4622 4181.00
32.5274 5941.00
32.5926 6885.00
32.6578 5714.00
32.723 3471.00
32.7882 2214.00
32.8534 2028.00
32.9186 2195.00
32.9838 2326.00
33.0489 2907.00
33.1141 4598.00
33.1793 6743.00
33.2445 5969.00
33.3097 4108.00
33.3749 2979.00
33.4401 2412.00
33.5053 1986.00
33.5705 1514.00
33.6357 1739.00
33.7009 2117.00
33.7661 2416.00
33.8313 2182.00
33.8965 1573.00
33.9617 1384.00
34.0269 1265.00
34.0921 1188.00
34.1573 1307.00
34.2225 1644.00
34.2877 2750.00
34.3529 4915.00
34.4181 5246.00
34.4833 3426.00
34.5485 1771.00
34.6137 1439.00
34.6789 1465.00
34.7441 1436.00
34.8093 1359.00
34.8745 1506.00
34.9397 1479.00
35.0049 1409.00
35.0701 1382.00
35.1353 1213.00
35.2005 1025.00
35.2657 878.00
35.3309 886.00
35.3961 918.00
35.4613 965.00
35.5265 931.00
35.5917 1001.00
35.6569 1188.00
35.7221 1126.00
35.7873 1097.00
35.8525 1027.00
35.9177 1020.00
35.9829 898.00
36.0481 881.00
36.1133 899.00
36.1785 968.00
36.2437 964.00
36.3089 1098.00
36.3741 1407.00
36.4393 1549.00
36.5045 1181.00
36.5697 929.00
36.6349 810.00
36.7001 751.00
36.7653 814.00
36.8305 906.00
36.8957 887.00
36.9609 808.00
37.0261 740.00
37.0913 762.00
37.1565 725.00
37.2217 747.00
37.2869 728.00
37.3521 853.00
37.4173 1101.00
37.4825 1518.00
37.5477 1726.00
37.6129 1480.00
37.6781 1183.00
37.7433 878.00
37.8085 766.00
37.8736 703.00
37.9388 633.00
38.004 671.00
38.0692 698.00
38.1344 623.00
38.1996 598.00
38.2648 642.00
38.33 634.00
38.3952 631.00
38.4604 710.00
38.5256 776.00
38.5908 802.00
38.656 880.00
38.7212 900.00
38.7864 979.00
38.8516 896.00
38.9168 908.00
38.982 911.00
39.0472 765.00
39.1124 704.00
39.1776 722.00
39.2428 750.00
39.308 731.00
39.3732 899.00
39.4384 971.00
39.5036 930.00
39.5688 946.00
39.634 893.00
39.6992 883.00
39.7644 848.00
39.8296 709.00
39.8948 680.00
39.96 642.00
40.0252 716.00
40.0904 754.00
40.1556 941.00
40.2208 1254.00
40.286 1197.00
40.3512 1018.00
40.4164 837.00
40.4816 764.00
40.5468 631.00
40.612 624.00
40.6772 584.00
40.7424 614.00
40.8076 664.00
40.8728 809.00
40.938 1002.00
41.0032 1176.00
41.0684 1568.00
41.1336 1878.00
41.1988 1631.00
41.264 1223.00
41.3292 953.00
41.3944 744.00
41.4596 706.00
41.5248 742.00
41.59 756.00
41.6552 906.00
41.7204 1215.00
41.7856 1330.00
41.8508 1376.00
41.916 1368.00
41.9812 1110.00
42.0464 908.00
42.1116 745.00
42.1768 708.00
42.242 786.00
42.3072 935.00
42.3724 1053.00
42.4376 856.00
42.5028 768.00
42.568 697.00
42.6332 742.00
42.6983 705.00
42.7635 799.00
42.8287 735.00
42.8939 722.00
42.9591 728.00
43.0243 713.00
43.0895 710.00
43.1547 663.00
43.2199 607.00
43.2851 721.00
43.3503 891.00
43.4155 1043.00
43.4807 968.00
43.5459 924.00
43.6111 1061.00
43.6763 1275.00
43.7415 1695.00
43.8067 1929.00
43.8719 2420.00
43.9371 2065.00
44.0023 1551.00
44.0675 1101.00
44.1327 888.00
44.1979 770.00
44.2631 735.00
44.3283 774.00
44.3935 764.00
44.4587 659.00
44.5239 641.00
44.5891 619.00
44.6543 662.00
44.7195 626.00
44.7847 639.00
44.8499 660.00
44.9151 704.00
44.9803 630.00
45.0455 601.00
45.1107 664.00
45.1759 644.00
45.2411 669.00
45.3063 687.00
45.3715 737.00
45.4367 797.00
45.5019 774.00
45.5671 857.00
45.6323 852.00
45.6975 748.00
45.7627 839.00
45.8279 1007.00
45.8931 1484.00
45.9583 2091.00
46.0235 1714.00
46.0887 1464.00
46.1539 1026.00
46.2191 805.00
46.2843 763.00
46.3495 786.00
46.4147 792.00
46.4799 778.00
46.5451 624.00
46.6103 568.00
46.6755 622.00
46.7407 691.00
46.8059 751.00
46.8711 851.00
46.9363 847.00
47.0015 995.00
47.0667 1553.00
47.1319 2562.00
47.1971 2930.00
47.2623 2424.00
47.3275 1880.00
47.3927 1415.00
47.4579 1337.00
47.523 1578.00
47.5882 1652.00
47.6534 2080.00
47.7186 2788.00
47.7838 2642.00
47.849 2201.00
47.9142 1637.00
47.9794 1095.00
48.0446 844.00
48.1098 658.00
48.175 670.00
48.2402 734.00
48.3054 731.00
48.3706 825.00
48.4358 698.00
48.501 635.00
48.5662 670.00
48.6314 691.00
48.6966 686.00
48.7618 709.00
48.827 634.00
48.8922 669.00
48.9574 613.00
49.0226 591.00
49.0878 608.00
49.153 567.00
49.2182 590.00
49.2834 530.00
49.3486 529.00
49.4138 613.00
49.479 633.00
49.5442 579.00
49.6094 630.00
49.6746 565.00
49.7398 610.00
49.805 652.00
49.8702 638.00
49.9354 619.00
50.0006 624.00
50.0658 631.00
50.131 721.00
50.1962 701.00
50.2614 675.00
50.3266 644.00
50.3918 514.00
50.457 534.00
50.5222 558.00
50.5874 547.00
50.6526 555.00
50.7178 489.00
50.783 535.00
50.8482 573.00
50.9134 627.00
50.9786 700.00
51.0438 803.00
51.109 914.00
51.1742 821.00
51.2394 750.00
51.3046 620.00
51.3698 649.00
51.435 615.00
51.5002 649.00
51.5654 693.00
51.6306 635.00
51.6958 662.00
51.761 794.00
51.8262 794.00
51.8914 807.00
51.9566 784.00
52.0218 725.00
52.087 706.00
52.1522 662.00
52.2174 631.00
52.2826 747.00
52.3477 697.00
52.4129 704.00
52.4781 837.00
52.5433 962.00
52.6085 1411.00
52.6737 1834.00
52.7389 1658.00
52.8041 1459.00
52.8693 1140.00
52.9345 831.00
52.9997 772.00
53.0649 766.00
53.1301 818.00
53.1953 914.00
53.2605 1067.00
53.3257 1137.00
53.3909 1108.00
53.4561 990.00
53.5213 958.00
53.5865 856.00
53.6517 774.00
53.7169 787.00
53.7821 739.00
53.8473 715.00
53.9125 729.00
53.9777 679.00
54.0429 744.00
54.1081 716.00
54.1733 699.00
54.2385 679.00
54.3037 665.00
54.3689 621.00
54.4341 703.00
54.4993 820.00
54.5645 796.00
54.6297 849.00
54.6949 872.00
54.7601 878.00
54.8253 754.00
54.8905 743.00
54.9557 910.00
55.0209 1015.00
55.0861 856.00
55.1513 783.00
55.2165 688.00
55.2817 509.00
55.3469 485.00
55.4121 492.00
55.4773 454.00
55.5425 483.00
55.6077 423.00
55.6729 468.00
55.7381 417.00
55.8033 454.00
55.8685 443.00
55.9337 488.00
55.9989 557.00
56.0641 607.00
56.1293 651.00
56.1945 663.00
56.2597 650.00
56.3249 636.00
56.3901 637.00
56.4553 748.00
56.5205 887.00
56.5857 937.00
56.6509 892.00
56.7161 825.00
56.7813 748.00
56.8465 656.00
56.9117 629.00
56.9769 685.00
57.042 807.00
57.1073 1000.00
57.1724 1313.00
57.2376 1319.00
57.3028 1091.00
57.368 1029.00
57.4332 1047.00
57.4984 1057.00
57.5636 873.00
57.6288 883.00
57.694 814.00
57.7592 921.00
57.8244 955.00
57.8896 802.00
57.9548 812.00
58.02 721.00
58.0852 640.00
58.1504 568.00
58.2156 532.00
58.2808 513.00
58.346 454.00
58.4112 412.00
58.4764 454.00
58.5416 501.00
58.6068 490.00
58.672 558.00
58.7372 667.00
58.8024 722.00
58.8676 744.00
58.9328 696.00
58.998 639.00
59.0632 631.00
59.1284 650.00
59.1936 655.00
59.2588 650.00
59.324 667.00
59.3892 692.00
59.4544 685.00
59.5196 702.00
59.5848 705.00
59.65 723.00
59.7152 892.00
59.7804 1007.00
59.8456 1099.00
59.9108 1018.00
59.976 909.00
60.0412 808.00
60.1064 736.00
60.1716 673.00
60.2368 699.00
60.302 612.00
60.3672 544.00
60.4324 504.00
60.4976 469.00
60.5628 524.00
60.628 628.00
60.6932 751.00
60.7584 842.00
60.8236 895.00
60.8888 899.00
60.954 809.00
61.0192 761.00
61.0844 668.00
61.1496 662.00
61.2148 617.00
61.28 551.00
61.3452 485.00
61.4104 513.00
61.4756 536.00
61.5408 464.00
61.606 507.00
61.6712 465.00
61.7364 442.00
61.8016 497.00
61.8667 462.00
61.932 391.00
61.9971 422.00
62.0623 398.00
62.1275 453.00
62.1927 424.00
62.2579 432.00
62.3231 476.00
62.3883 493.00
62.4535 506.00
62.5187 513.00
62.5839 529.00
62.6491 532.00
62.7143 594.00
62.7795 498.00
62.8447 519.00
62.9099 488.00
62.9751 528.00
63.0403 542.00
63.1055 588.00
63.1707 651.00
63.2359 655.00
63.3011 577.00
63.3663 517.00
63.4315 608.00
63.4967 694.00
63.5619 728.00
63.6271 731.00
63.6923 680.00
63.7575 635.00
63.8227 635.00
63.8879 672.00
63.9531 611.00
64.0183 571.00
64.0835 583.00
64.1487 555.00
64.2139 648.00
64.2791 713.00
64.3443 644.00
64.4095 585.00
64.4747 588.00
64.5399 545.00
64.6051 516.00
64.6703 545.00
64.7355 707.00
64.8007 659.00
64.8659 650.00
64.9311 680.00
64.9963 582.00
65.0615 520.00
65.1267 528.00
65.1919 531.00
65.2571 524.00
65.3223 536.00
65.3875 468.00
65.4527 479.00
65.5179 602.00
65.5831 637.00
65.6483 659.00
65.7135 674.00
65.7787 758.00
65.8439 716.00
65.9091 642.00
65.9743 640.00
66.0395 624.00
66.1047 578.00
66.1699 643.00
66.2351 745.00
66.3003 929.00
66.3655 791.00
66.4307 735.00
66.4959 716.00
66.561 573.00
66.6263 589.00
66.6915 570.00
66.7566 654.00
66.8218 578.00
66.887 517.00
66.9522 576.00
67.0174 516.00
67.0826 452.00
67.1478 483.00
67.213 520.00
67.2782 486.00
67.3434 429.00
67.4086 466.00
67.4738 440.00
67.539 506.00
67.6042 536.00
67.6694 682.00
67.7346 718.00
67.7998 692.00
67.865 704.00
67.9302 742.00
67.9954 576.00
68.0606 570.00
68.1258 534.00
68.191 439.00
68.2562 410.00
68.3214 370.00
68.3866 388.00
68.4518 360.00
68.517 397.00
68.5822 366.00
68.6474 315.00
68.7126 329.00
68.7778 351.00
68.843 329.00
68.9082 351.00
68.9734 360.00
69.0386 437.00
69.1038 454.00
69.169 592.00
69.2342 609.00
69.2994 697.00
69.3646 762.00
69.4298 689.00
69.495 665.00
69.5602 600.00
69.6254 598.00
69.6906 577.00
69.7558 500.00
69.821 427.00
69.8862 471.00
69.9514 445.00
70.0166 450.00
70.0818 381.00
70.147 372.00
70.2122 422.00
70.2774 505.00
70.3426 569.00
70.4078 595.00
70.473 543.00
70.5382 600.00
70.6034 610.00
70.6686 606.00
70.7338 558.00
70.799 542.00
70.8642 546.00
70.9294 574.00
70.9946 543.00
71.0598 462.00
71.125 487.00
71.1902 427.00
71.2554 428.00
71.3205 414.00
71.3858 375.00
71.451 412.00
71.5162 388.00
71.5813 388.00
71.6465 402.00
71.7117 517.00
71.7769 575.00
71.8421 588.00
71.9073 655.00
71.9725 702.00
72.0377 741.00
72.1029 664.00
72.1681 548.00
72.2333 577.00
72.2985 494.00
72.3637 423.00
72.4289 427.00
72.4941 442.00
72.5593 536.00
72.6245 521.00
72.6897 552.00
72.7549 512.00
72.8201 548.00
72.8853 597.00
72.9505 642.00
73.0157 532.00
73.0809 489.00
73.1461 488.00
73.2113 437.00
73.2765 436.00
73.3417 385.00
73.4069 389.00
73.4721 394.00
73.5373 437.00
73.6025 418.00
73.6677 418.00
73.7329 405.00
73.7981 385.00
73.8633 432.00
73.9285 385.00
73.9937 408.00
74.0589 402.00
74.1241 401.00
74.1893 393.00
74.2545 350.00
74.3197 370.00
74.3849 412.00
74.4501 369.00
74.5153 360.00
74.5805 398.00
74.6457 415.00
74.7109 390.00
74.7761 390.00
74.8413 397.00
74.9065 390.00
74.9717 383.00
75.0369 387.00
75.1021 385.00
75.1673 426.00
75.2325 426.00
75.2977 445.00
75.3629 451.00
75.4281 404.00
75.4933 403.00
75.5585 442.00
75.6237 438.00
75.6889 412.00
75.7541 432.00
75.8193 378.00
75.8845 409.00
75.9497 383.00
76.0149 381.00
76.0801 452.00
76.1452 465.00
76.2104 528.00
76.2756 516.00
76.3409 481.00
76.406 451.00
76.4712 436.00
76.5364 437.00
76.6016 385.00
76.6668 390.00
76.732 335.00
76.7972 351.00
76.8624 419.00
76.9276 440.00
76.9928 426.00
77.058 484.00
77.1232 465.00
77.1884 462.00
77.2536 436.00
77.3188 482.00
77.384 442.00
77.4492 379.00
77.5144 444.00
77.5796 432.00
77.6448 384.00
77.71 427.00
77.7752 458.00
77.8404 460.00
77.9056 407.00
77.9708 498.00
78.036 435.00
78.1012 506.00
78.1664 479.00
78.2316 398.00
78.2968 401.00
78.362 427.00
78.4272 459.00
78.4924 383.00
78.5576 397.00
78.6228 422.00
78.688 375.00
78.7532 365.00
78.8184 377.00
78.8836 413.00
78.9488 386.00
79.014 392.00
79.0792 390.00
79.1444 419.00
79.2096 410.00
79.2748 437.00
79.34 446.00
79.4052 438.00
79.4704 491.00
79.5356 488.00
79.6008 482.00
79.666 527.00
79.7312 460.00
79.7964 446.00
79.8616 410.00
79.9268 367.00
79.992 373.00
80.0572 374.00
80.1224 337.00
80.1876 426.00
80.2528 509.00
80.318 566.00
80.3832 603.00
80.4484 538.00
80.5136 440.00
80.5788 499.00
80.644 519.00
80.7092 497.00
80.7744 448.00
80.8396 457.00
80.9048 416.00
80.9699 479.00
81.0351 463.00
81.1003 511.00
81.1655 515.00
81.2307 544.00
81.2959 543.00
81.3611 565.00
81.4263 589.00
81.4915 552.00
81.5567 525.00
81.6219 504.00
81.6871 446.00
81.7523 454.00
81.8175 369.00
81.8827 368.00
81.9479 395.00
82.0131 393.00
82.0783 386.00
82.1435 373.00
82.2087 380.00
82.2739 344.00
82.3391 366.00
82.4043 343.00
82.4695 365.00
82.5347 367.00
82.5999 332.00
82.6651 340.00
82.7303 323.00
82.7955 319.00
82.8607 289.00
82.9259 321.00
82.9911 312.00
83.0563 291.00
83.1215 300.00
83.1867 370.00
83.2519 373.00
83.3171 394.00
83.3823 409.00
83.4475 425.00
83.5127 442.00
83.5779 437.00
83.6431 413.00
83.7083 397.00
83.7735 408.00
83.8387 396.00
83.9039 400.00
83.9691 431.00
84.0343 449.00
84.0995 423.00
84.1647 409.00
84.2299 403.00
84.2951 395.00
84.3603 423.00
84.4255 387.00
84.4907 391.00
84.5559 384.00
84.6211 381.00
84.6863 417.00
84.7515 393.00
84.8167 389.00
84.8819 379.00
84.9471 387.00
85.0123 382.00
85.0775 386.00
85.1427 437.00
85.2079 437.00
85.2731 430.00
85.3383 376.00
85.4035 434.00
85.4687 423.00
85.5339 378.00
85.5991 402.00
85.6643 346.00
85.7295 367.00
85.7946 381.00
85.8598 380.00
85.925 385.00
85.9903 405.00
86.0554 439.00
86.1206 423.00
86.1858 438.00
86.251 469.00
86.3162 453.00
86.3814 444.00
86.4466 450.00
86.5118 394.00
86.577 379.00
86.6422 425.00
86.7074 381.00
86.7726 386.00
86.8378 415.00
86.903 459.00
86.9682 421.00
87.0334 377.00
87.0986 380.00
87.1638 367.00
87.229 378.00
87.2942 397.00
87.3594 360.00
87.4246 431.00
87.4898 360.00
87.555 376.00
87.6202 382.00
87.6854 408.00
87.7506 409.00
87.8158 349.00
87.881 368.00
87.9462 392.00
88.0114 341.00
88.0766 370.00
88.1418 466.00
88.207 441.00
88.2722 416.00
88.3374 398.00
88.4026 428.00
88.4678 432.00
88.533 446.00
88.5982 456.00
88.6634 416.00
88.7286 386.00
88.7938 450.00
88.859 411.00
88.9242 409.00
88.9894 388.00
89.0546 381.00
89.1198 402.00
89.185 387.00
89.2502 398.00
89.3154 370.00
89.3806 359.00
89.4458 384.00
89.511 318.00
89.5762 337.00
89.6414 351.00
89.7066 299.00
89.7718 340.00
89.837 373.00
89.9022 356.00
89.9674 320.00
90.0326 349.00
90.0978 340.00
90.163 357.00
90.2282 360.00
90.2934 383.00
90.3586 395.00
90.4238 429.00
90.489 425.00
90.5542 436.00
90.6193 383.00
90.6845 437.00
90.7497 418.00
90.8149 371.00
90.8801 361.00
90.9453 360.00
91.0105 356.00
91.0757 379.00
91.1409 324.00
91.2061 329.00
91.2713 365.00
91.3365 314.00
91.4017 354.00
91.4669 373.00
91.5321 381.00
91.5973 432.00
91.6625 466.00
91.7277 406.00
91.7929 367.00
91.8581 405.00
91.9233 449.00
91.9885 392.00
92.0537 421.00
92.1189 394.00
92.1841 393.00
92.2493 368.00
92.3145 375.00
92.3797 396.00
92.4449 366.00
92.5101 368.00
92.5753 361.00
92.6405 413.00
92.7057 407.00
92.7709 383.00
92.8361 401.00
92.9013 374.00
92.9665 397.00
93.0317 370.00
93.0969 434.00
93.1621 372.00
93.2273 377.00
93.2925 383.00
93.3577 345.00
93.4229 387.00
93.4881 394.00
93.5533 368.00
93.6185 335.00
93.6837 351.00
93.7489 371.00
93.8141 383.00
93.8793 405.00
93.9445 365.00
94.0097 337.00
94.0749 369.00
94.1401 386.00
94.2053 417.00
94.2705 376.00
94.3357 373.00
94.4009 334.00
94.4661 355.00
94.5313 353.00
94.5965 354.00
94.6617 389.00
94.7269 393.00
94.7921 408.00
94.8573 437.00
94.9225 414.00
94.9877 419.00
95.0529 387.00
95.1181 411.00
95.1833 443.00
95.2485 453.00
95.3137 463.00
95.3789 500.00
95.444 498.00
95.5092 473.00
95.5744 471.00
95.6396 493.00
95.7048 476.00
95.77 512.00
95.8352 500.00
95.9004 483.00
95.9656 410.00
96.0308 431.00
96.096 429.00
96.1612 462.00
96.2264 447.00
96.2916 413.00
96.3568 362.00
96.422 400.00
96.4872 363.00
96.5524 353.00
96.6176 356.00
96.6828 371.00
96.748 338.00
96.8132 319.00
96.8784 340.00
96.9436 365.00
97.0088 342.00
97.074 335.00
97.1392 343.00
97.2044 316.00
97.2696 332.00
97.3348 341.00
97.4 306.00
97.4652 309.00
97.5304 296.00
97.5956 330.00
97.6608 274.00
97.726 342.00
97.7912 327.00
97.8564 370.00
97.9216 341.00
97.9868 341.00
98.052 351.00
98.1172 365.00
98.1824 293.00
98.2476 296.00
98.3128 326.00
98.378 339.00
98.4432 362.00
98.5084 339.00
98.5736 337.00
98.6388 352.00
98.704 343.00
98.7692 347.00
98.8344 348.00
98.8996 379.00
98.9648 386.00
99.03 397.00
99.0952 358.00
99.1604 321.00
99.2256 350.00
99.2908 334.00
99.356 359.00
99.4212 338.00
99.4864 331.00
99.5516 355.00
99.6168 312.00
99.682 343.00
99.7472 360.00
99.8124 344.00
99.8776 443.00
99.9428 402.00
100.008 376.00
100.073 375.00
100.095 378.00