File: data/xrd_creation/results/Na_80.xy
9.903433 2820.00
9.968632 2807.00
10.0338 2725.00
10.099 2773.00
10.1642 2707.00
10.2294 2633.00
10.2946 2734.00
10.3598 2546.00
10.425 2710.00
10.4902 2642.00
10.5554 2746.00
10.6206 2561.00
10.6858 2521.00
10.751 2391.00
10.8162 2499.00
10.8814 2469.00
10.9466 2595.00
11.0118 2478.00
11.077 2500.00
11.1422 2600.00
11.2074 2483.00
11.2726 2516.00
11.3378 2564.00
11.403 2578.00
11.4682 2579.00
11.5334 2547.00
11.5986 2595.00
11.6638 2591.00
11.729 2614.00
11.7942 2465.00
11.8594 2408.00
11.9246 2436.00
11.9898 2346.00
12.055 2357.00
12.1202 2288.00
12.1854 2253.00
12.2506 2160.00
12.3158 2238.00
12.381 2262.00
12.4462 2199.00
12.5114 2145.00
12.5766 2130.00
12.6418 2061.00
12.707 2048.00
12.7722 2013.00
12.8374 1977.00
12.9026 2068.00
12.9678 2077.00
13.033 1993.00
13.0982 1995.00
13.1634 2013.00
13.2286 1977.00
13.2938 1946.00
13.359 1907.00
13.4242 1929.00
13.4894 1853.00
13.5546 1891.00
13.6198 1877.00
13.685 1864.00
13.7502 1875.00
13.8154 1781.00
13.8805 1857.00
13.9457 1884.00
14.0109 1814.00
14.0761 1821.00
14.1413 1897.00
14.2065 1825.00
14.2717 1875.00
14.3369 1804.00
14.4021 1841.00
14.4673 1857.00
14.5325 1776.00
14.5977 1770.00
14.6629 1775.00
14.7281 1802.00
14.7933 1800.00
14.8585 1771.00
14.9237 1707.00
14.9889 1719.00
15.0541 1761.00
15.1193 1689.00
15.1845 1708.00
15.2497 1748.00
15.3149 1757.00
15.3801 1662.00
15.4453 1706.00
15.5105 1729.00
15.5757 1727.00
15.6409 1656.00
15.7061 1656.00
15.7713 1701.00
15.8365 1686.00
15.9017 1633.00
15.9669 1686.00
16.0321 1710.00
16.0973 1706.00
16.1625 1727.00
16.2277 1663.00
16.2929 1706.00
16.3581 1662.00
16.4233 1780.00
16.4885 1742.00
16.5537 1720.00
16.6189 1613.00
16.6841 1651.00
16.7493 1618.00
16.8145 1642.00
16.8797 1629.00
16.9449 1519.00
17.0101 1652.00
17.0753 1624.00
17.1405 1565.00
17.2057 1556.00
17.2709 1491.00
17.3361 1654.00
17.4013 1538.00
17.4665 1609.00
17.5317 1443.00
17.5969 1476.00
17.6621 1490.00
17.7273 1548.00
17.7925 1479.00
17.8577 1538.00
17.9229 1560.00
17.9881 1511.00
18.0533 1462.00
18.1185 1527.00
18.1837 1514.00
18.2489 1566.00
18.3141 1540.00
18.3793 1456.00
18.4445 1435.00
18.5097 1496.00
18.5749 1448.00
18.6401 1454.00
18.7052 1460.00
18.7704 1454.00
18.8356 1434.00
18.9008 1463.00
18.966 1463.00
19.0312 1457.00
19.0964 1541.00
19.1616 1593.00
19.2268 1723.00
19.292 1614.00
19.3572 1446.00
19.4224 1382.00
19.4876 1415.00
19.5528 1390.00
19.618 1420.00
19.6832 1425.00
19.7484 1301.00
19.8136 1462.00
19.8788 1494.00
19.944 1520.00
20.0092 1731.00
20.0744 1876.00
20.1396 2124.00
20.2048 2619.00
20.27 3294.00
20.3352 4041.00
20.4004 4349.00
20.4656 3053.00
20.5308 1978.00
20.596 1452.00
20.6612 1357.00
20.7264 1425.00
20.7916 1282.00
20.8568 1359.00
20.922 1317.00
20.9872 1299.00
21.0524 1317.00
21.1176 1323.00
21.1828 1332.00
21.248 1329.00
21.3132 1292.00
21.3784 1289.00
21.4436 1300.00
21.5088 1299.00
21.574 1238.00
21.6392 1297.00
21.7044 1184.00
21.7696 1258.00
21.8348 1256.00
21.9 1287.00
21.9652 1254.00
22.0304 1253.00
22.0956 1227.00
22.1608 1234.00
22.226 1237.00
22.2912 1238.00
22.3564 1292.00
22.4216 1133.00
22.4868 1186.00
22.552 1182.00
22.6172 1154.00
22.6824 1104.00
22.7476 1189.00
22.8128 1166.00
22.878 1122.00
22.9432 1149.00
23.0084 1203.00
23.0736 1230.00
23.1388 1192.00
23.204 1143.00
23.2692 1198.00
23.3344 1246.00
23.3996 1218.00
23.4647 1190.00
23.5299 1225.00
23.5951 1156.00
23.6603 1182.00
23.7255 1106.00
23.7907 1146.00
23.8559 1173.00
23.9211 1154.00
23.9863 1233.00
24.0515 1165.00
24.1167 1179.00
24.1819 1228.00
24.2471 1277.00
24.3123 1223.00
24.3775 1313.00
24.4427 1345.00
24.5079 1333.00
24.5731 1339.00
24.6383 1412.00
24.7035 1371.00
24.7687 1344.00
24.8339 1306.00
24.8991 1183.00
24.9643 1291.00
25.0295 1214.00
25.0947 1193.00
25.1599 1249.00
25.2251 1204.00
25.2903 1192.00
25.3555 1183.00
25.4207 1255.00
25.4859 1205.00
25.5511 1233.00
25.6163 1228.00
25.6815 1300.00
25.7467 1343.00
25.8119 1327.00
25.8771 1385.00
25.9423 1496.00
26.0075 1580.00
26.0727 1475.00
26.1379 1514.00
26.2031 1618.00
26.2683 1697.00
26.3335 1781.00
26.3987 2017.00
26.4639 2264.00
26.5291 2811.00
26.5943 3484.00
26.6595 4423.00
26.7247 5360.00
26.7899 6372.00
26.8551 7295.00
26.9203 6441.00
26.9855 4152.00
27.0507 2685.00
27.1159 2315.00
27.1811 2023.00
27.2463 1895.00
27.3115 1673.00
27.3767 1584.00
27.4419 1532.00
27.5071 1439.00
27.5723 1326.00
27.6375 1410.00
27.7027 1476.00
27.7679 1521.00
27.8331 1512.00
27.8983 1447.00
27.9635 1412.00
28.0287 1324.00
28.0939 1299.00
28.1591 1217.00
28.2243 1214.00
28.2894 1115.00
28.3546 1154.00
28.4198 1132.00
28.485 1046.00
28.5502 1003.00
28.6154 1054.00
28.6806 1021.00
28.7458 996.00
28.811 1053.00
28.8762 1008.00
28.9414 996.00
29.0066 1057.00
29.0718 1033.00
29.137 967.00
29.2022 1030.00
29.2674 1088.00
29.3326 1018.00
29.3978 1083.00
29.463 1122.00
29.5282 1080.00
29.5934 1190.00
29.6586 1201.00
29.7238 1201.00
29.789 1372.00
29.8542 1478.00
29.9194 1563.00
29.9846 1722.00
30.0498 1857.00
30.115 1772.00
30.1802 1703.00
30.2454 1620.00
30.3106 1531.00
30.3758 1338.00
30.441 1291.00
30.5062 1203.00
30.5714 1143.00
30.6366 1101.00
30.7018 1048.00
30.767 1058.00
30.8322 1099.00
30.8974 1067.00
30.9626 964.00
31.0278 939.00
31.093 938.00
31.1582 972.00
31.2234 971.00
31.2886 948.00
31.3538 1002.00
31.419 1108.00
31.4842 960.00
31.5494 1030.00
31.6146 993.00
31.6798 1018.00
31.745 1023.00
31.8102 1009.00
31.8754 975.00
31.9406 943.00
32.0058 951.00
32.071 964.00
32.1362 961.00
32.2014 974.00
32.2666 1002.00
32.3318 1047.00
32.397 1035.00
32.4622 987.00
32.5274 1120.00
32.5926 1193.00
32.6578 1309.00
32.723 1476.00
32.7882 1699.00
32.8534 2177.00
32.9186 2547.00
32.9838 3277.00
33.0489 3049.00
33.1141 2504.00
33.1793 2206.00
33.2445 2271.00
33.3097 2714.00
33.3749 3555.00
33.4401 4643.00
33.5053 4146.00
33.5705 2928.00
33.6357 2126.00
33.7009 1886.00
33.7661 1951.00
33.8313 2173.00
33.8965 2515.00
33.9617 3357.00
34.0269 4241.00
34.0921 5366.00
34.1573 6348.00
34.2225 4879.00
34.2877 3598.00
34.3529 2600.00
34.4181 2324.00
34.4833 2183.00
34.5485 2026.00
34.6137 1879.00
34.6789 1703.00
34.7441 1537.00
34.8093 1452.00
34.8745 1286.00
34.9397 1172.00
35.0049 1144.00
35.0701 1072.00
35.1353 1029.00
35.2005 1049.00
35.2657 1073.00
35.3309 967.00
35.3961 959.00
35.4613 972.00
35.5265 935.00
35.5917 960.00
35.6569 933.00
35.7221 964.00
35.7873 953.00
35.8525 985.00
35.9177 1097.00
35.9829 1183.00
36.0481 1103.00
36.1133 1112.00
36.1785 1073.00
36.2437 943.00
36.3089 909.00
36.3741 834.00
36.4393 886.00
36.5045 795.00
36.5697 795.00
36.6349 809.00
36.7001 798.00
36.7653 768.00
36.8305 818.00
36.8957 844.00
36.9609 802.00
37.0261 905.00
37.0913 957.00
37.1565 889.00
37.2217 885.00
37.2869 834.00
37.3521 865.00
37.4173 906.00
37.4825 948.00
37.5477 932.00
37.6129 963.00
37.6781 926.00
37.7433 934.00
37.8085 942.00
37.8736 1054.00
37.9388 1121.00
38.004 1291.00
38.0692 1484.00
38.1344 1750.00
38.1996 2145.00
38.2648 2062.00
38.33 1622.00
38.3952 1282.00
38.4604 1156.00
38.5256 1111.00
38.5908 1141.00
38.656 1181.00
38.7212 1491.00
38.7864 1530.00
38.8516 1272.00
38.9168 1145.00
38.982 934.00
39.0472 922.00
39.1124 902.00
39.1776 1026.00
39.2428 1027.00
39.308 959.00
39.3732 901.00
39.4384 834.00
39.5036 838.00
39.5688 788.00
39.634 777.00
39.6992 695.00
39.7644 755.00
39.8296 640.00
39.8948 643.00
39.96 614.00
40.0252 629.00
40.0904 589.00
40.1556 635.00
40.2208 593.00
40.286 704.00
40.3512 625.00
40.4164 620.00
40.4816 617.00
40.5468 622.00
40.612 606.00
40.6772 559.00
40.7424 545.00
40.8076 572.00
40.8728 584.00
40.938 617.00
41.0032 640.00
41.0684 589.00
41.1336 602.00
41.1988 563.00
41.264 572.00
41.3292 645.00
41.3944 556.00
41.4596 649.00
41.5248 650.00
41.59 606.00
41.6552 633.00
41.7204 590.00
41.7856 640.00
41.8508 691.00
41.916 594.00
41.9812 591.00
42.0464 625.00
42.1116 683.00
42.1768 645.00
42.242 640.00
42.3072 612.00
42.3724 635.00
42.4376 668.00
42.5028 633.00
42.568 673.00
42.6332 650.00
42.6983 722.00
42.7635 787.00
42.8287 801.00
42.8939 796.00
42.9591 729.00
43.0243 716.00
43.0895 624.00
43.1547 697.00
43.2199 584.00
43.2851 575.00
43.3503 555.00
43.4155 624.00
43.4807 595.00
43.5459 593.00
43.6111 642.00
43.6763 646.00
43.7415 719.00
43.8067 827.00
43.8719 931.00
43.9371 900.00
44.0023 762.00
44.0675 670.00
44.1327 681.00
44.1979 616.00
44.2631 604.00
44.3283 628.00
44.3935 574.00
44.4587 545.00
44.5239 582.00
44.5891 547.00
44.6543 580.00
44.7195 547.00
44.7847 614.00
44.8499 642.00
44.9151 640.00
44.9803 674.00
45.0455 710.00
45.1107 732.00
45.1759 698.00
45.2411 646.00
45.3063 616.00
45.3715 600.00
45.4367 565.00
45.5019 551.00
45.5671 512.00
45.6323 572.00
45.6975 529.00
45.7627 529.00
45.8279 483.00
45.8931 529.00
45.9583 555.00
46.0235 520.00
46.0887 535.00
46.1539 515.00
46.2191 549.00
46.2843 531.00
46.3495 493.00
46.4147 523.00
46.4799 508.00
46.5451 559.00
46.6103 557.00
46.6755 566.00
46.7407 542.00
46.8059 582.00
46.8711 597.00
46.9363 636.00
47.0015 573.00
47.0667 590.00
47.1319 605.00
47.1971 637.00
47.2623 718.00
47.3275 770.00
47.3927 863.00
47.4579 1045.00
47.523 1233.00
47.5882 1255.00
47.6534 1004.00
47.7186 821.00
47.7838 762.00
47.849 675.00
47.9142 643.00
47.9794 618.00
48.0446 555.00
48.1098 625.00
48.175 588.00
48.2402 591.00
48.3054 562.00
48.3706 539.00
48.4358 510.00
48.501 495.00
48.5662 514.00
48.6314 522.00
48.6966 535.00
48.7618 504.00
48.827 551.00
48.8922 505.00
48.9574 528.00
49.0226 578.00
49.0878 571.00
49.153 573.00
49.2182 557.00
49.2834 581.00
49.3486 540.00
49.4138 545.00
49.479 549.00
49.5442 577.00
49.6094 524.00
49.6746 560.00
49.7398 540.00
49.805 597.00
49.8702 607.00
49.9354 521.00
50.0006 577.00
50.0658 557.00
50.131 628.00
50.1962 652.00
50.2614 605.00
50.3266 679.00
50.3918 623.00
50.457 627.00
50.5222 603.00
50.5874 574.00
50.6526 608.00
50.7178 662.00
50.783 620.00
50.8482 615.00
50.9134 666.00
50.9786 630.00
51.0438 658.00
51.109 637.00
51.1742 682.00
51.2394 731.00
51.3046 755.00
51.3698 807.00
51.435 905.00
51.5002 995.00
51.5654 1124.00
51.6306 1306.00
51.6958 1484.00
51.761 1816.00
51.8262 2357.00
51.8914 2968.00
51.9566 3960.00
52.0218 5030.00
52.087 4232.00
52.1522 3565.00
52.2174 2721.00
52.2826 1950.00
52.3477 1668.00
52.4129 1514.00
52.4781 1351.00
52.5433 1223.00
52.6085 1179.00
52.6737 982.00
52.7389 899.00
52.8041 825.00
52.8693 824.00
52.9345 766.00
52.9997 786.00
53.0649 768.00
53.1301 780.00
53.1953 812.00
53.2605 827.00
53.3257 755.00
53.3909 892.00
53.4561 744.00
53.5213 781.00
53.5865 719.00
53.6517 694.00
53.7169 769.00
53.7821 735.00
53.8473 748.00
53.9125 657.00
53.9777 652.00
54.0429 606.00
54.1081 653.00
54.1733 602.00
54.2385 672.00
54.3037 634.00
54.3689 649.00
54.4341 667.00
54.4993 684.00
54.5645 738.00
54.6297 798.00
54.6949 787.00
54.7601 866.00
54.8253 1007.00
54.8905 1182.00
54.9557 1406.00
55.0209 1468.00
55.0861 1204.00
55.1513 1167.00
55.2165 844.00
55.2817 731.00
55.3469 671.00
55.4121 675.00
55.4773 605.00
55.5425 682.00
55.6077 564.00
55.6729 576.00
55.7381 530.00
55.8033 571.00
55.8685 509.00
55.9337 574.00
55.9989 527.00
56.0641 579.00
56.1293 571.00
56.1945 558.00
56.2597 578.00
56.3249 543.00
56.3901 491.00
56.4553 509.00
56.5205 493.00
56.5857 485.00
56.6509 520.00
56.7161 500.00
56.7813 550.00
56.8465 458.00
56.9117 551.00
56.9769 505.00
57.042 573.00
57.1073 533.00
57.1724 522.00
57.2376 546.00
57.3028 486.00
57.368 557.00
57.4332 547.00
57.4984 587.00
57.5636 597.00
57.6288 557.00
57.694 550.00
57.7592 565.00
57.8244 565.00
57.8896 644.00
57.9548 698.00
58.02 838.00
58.0852 902.00
58.1504 806.00
58.2156 765.00
58.2808 725.00
58.346 658.00
58.4112 616.00
58.4764 687.00
58.5416 648.00
58.6068 622.00
58.672 643.00
58.7372 614.00
58.8024 656.00
58.8676 682.00
58.9328 669.00
58.998 732.00
59.0632 715.00
59.1284 819.00
59.1936 1016.00
59.2588 941.00
59.324 937.00
59.3892 948.00
59.4544 1081.00
59.5196 974.00
59.5848 979.00
59.65 860.00
59.7152 817.00
59.7804 762.00
59.8456 714.00
59.9108 721.00
59.976 720.00
60.0412 628.00
60.1064 594.00
60.1716 582.00
60.2368 502.00
60.302 542.00
60.3672 505.00
60.4324 508.00
60.4976 504.00
60.5628 515.00
60.628 483.00
60.6932 419.00
60.7584 455.00
60.8236 491.00
60.8888 477.00
60.954 487.00
61.0192 414.00
61.0844 497.00
61.1496 464.00
61.2148 501.00
61.28 449.00
61.3452 473.00
61.4104 485.00
61.4756 539.00
61.5408 551.00
61.606 599.00
61.6712 595.00
61.7364 625.00
61.8016 676.00
61.8667 656.00
61.932 844.00
61.9971 957.00
62.0623 1260.00
62.1275 1365.00
62.1927 1133.00
62.2579 1045.00
62.3231 1036.00
62.3883 790.00
62.4535 768.00
62.5187 740.00
62.5839 763.00
62.6491 778.00
62.7143 723.00
62.7795 719.00
62.8447 708.00
62.9099 647.00
62.9751 724.00
63.0403 777.00
63.1055 720.00
63.1707 733.00
63.2359 712.00
63.3011 646.00
63.3663 690.00
63.4315 587.00
63.4967 621.00
63.5619 606.00
63.6271 608.00
63.6923 627.00
63.7575 649.00
63.8227 689.00
63.8879 570.00
63.9531 614.00
64.0183 626.00
64.0835 638.00
64.1487 566.00
64.2139 597.00
64.2791 573.00
64.3443 592.00
64.4095 583.00
64.4747 612.00
64.5399 628.00
64.6051 664.00
64.6703 680.00
64.7355 735.00
64.8007 887.00
64.8659 1021.00
64.9311 1282.00
64.9963 1328.00
65.0615 1017.00
65.1267 1058.00
65.1919 994.00
65.2571 838.00
65.3223 764.00
65.3875 783.00
65.4527 874.00
65.5179 866.00
65.5831 924.00
65.6483 887.00
65.7135 850.00
65.7787 871.00
65.8439 817.00
65.9091 760.00
65.9743 875.00
66.0395 995.00
66.1047 1207.00
66.1699 1421.00
66.2351 1432.00
66.3003 1133.00
66.3655 1059.00
66.4307 880.00
66.4959 661.00
66.561 611.00
66.6263 579.00
66.6915 523.00
66.7566 525.00
66.8218 491.00
66.887 495.00
66.9522 450.00
67.0174 479.00
67.0826 451.00
67.1478 437.00
67.213 447.00
67.2782 428.00
67.3434 421.00
67.4086 437.00
67.4738 402.00
67.539 437.00
67.6042 430.00
67.6694 410.00
67.7346 427.00
67.7998 428.00
67.865 375.00
67.9302 391.00
67.9954 395.00
68.0606 397.00
68.1258 406.00
68.191 410.00
68.2562 443.00
68.3214 358.00
68.3866 370.00
68.4518 351.00
68.517 375.00
68.5822 400.00
68.6474 383.00
68.7126 380.00
68.7778 385.00
68.843 359.00
68.9082 358.00
68.9734 381.00
69.0386 359.00
69.1038 347.00
69.169 333.00
69.2342 372.00
69.2994 390.00
69.3646 341.00
69.4298 362.00
69.495 397.00
69.5602 383.00
69.6254 420.00
69.6906 439.00
69.7558 473.00
69.821 488.00
69.8862 556.00
69.9514 475.00
70.0166 496.00
70.0818 459.00
70.147 436.00
70.2122 499.00
70.2774 478.00
70.3426 398.00
70.4078 402.00
70.473 401.00
70.5382 406.00
70.6034 434.00
70.6686 368.00
70.7338 352.00
70.799 379.00
70.8642 385.00
70.9294 359.00
70.9946 376.00
71.0598 390.00
71.125 427.00
71.1902 438.00
71.2554 477.00
71.3205 502.00
71.3858 556.00
71.451 684.00
71.5162 729.00
71.5813 676.00
71.6465 566.00
71.7117 631.00
71.7769 523.00
71.8421 469.00
71.9073 425.00
71.9725 428.00
72.0377 420.00
72.1029 427.00
72.1681 393.00
72.2333 408.00
72.2985 386.00
72.3637 425.00
72.4289 369.00
72.4941 411.00
72.5593 387.00
72.6245 355.00
72.6897 386.00
72.7549 396.00
72.8201 360.00
72.8853 376.00
72.9505 388.00
73.0157 437.00
73.0809 393.00
73.1461 382.00
73.2113 392.00
73.2765 373.00
73.3417 370.00
73.4069 398.00
73.4721 429.00
73.5373 374.00
73.6025 358.00
73.6677 344.00
73.7329 359.00
73.7981 345.00
73.8633 342.00
73.9285 336.00
73.9937 332.00
74.0589 335.00
74.1241 330.00
74.1893 346.00
74.2545 326.00
74.3197 344.00
74.3849 332.00
74.4501 337.00
74.5153 332.00
74.5805 336.00
74.6457 350.00
74.7109 343.00
74.7761 383.00
74.8413 329.00
74.9065 356.00
74.9717 266.00
75.0369 322.00
75.1021 332.00
75.1673 350.00
75.2325 366.00
75.2977 370.00
75.3629 339.00
75.4281 414.00
75.4933 416.00
75.5585 380.00
75.6237 377.00
75.6889 381.00
75.7541 382.00
75.8193 331.00
75.8845 349.00
75.9497 350.00
76.0149 348.00
76.0801 363.00
76.1452 350.00
76.2104 334.00
76.2756 348.00
76.3409 321.00
76.406 335.00
76.4712 330.00
76.5364 351.00
76.6016 355.00
76.6668 365.00
76.732 395.00
76.7972 379.00
76.8624 352.00
76.9276 394.00
76.9928 363.00
77.058 341.00
77.1232 302.00
77.1884 339.00
77.2536 320.00
77.3188 359.00
77.384 295.00
77.4492 329.00
77.5144 299.00
77.5796 390.00
77.6448 357.00
77.71 364.00
77.7752 324.00
77.8404 355.00
77.9056 355.00
77.9708 330.00
78.036 349.00
78.1012 363.00
78.1664 365.00
78.2316 405.00
78.2968 439.00
78.362 363.00
78.4272 435.00
78.4924 470.00
78.5576 491.00
78.6228 481.00
78.688 541.00
78.7532 617.00
78.8184 852.00
78.8836 913.00
78.9488 940.00
79.014 766.00
79.0792 772.00
79.1444 830.00
79.2096 710.00
79.2748 642.00
79.34 514.00
79.4052 464.00
79.4704 551.00
79.5356 477.00
79.6008 495.00
79.666 408.00
79.7312 424.00
79.7964 395.00
79.8616 361.00
79.9268 356.00
79.992 356.00
80.0572 367.00
80.1224 354.00
80.1876 342.00
80.2528 323.00
80.318 322.00
80.3832 371.00
80.4484 326.00
80.5136 385.00
80.5788 405.00
80.644 380.00
80.7092 376.00
80.7744 391.00
80.8396 400.00
80.9048 397.00
80.9699 378.00
81.0351 424.00
81.1003 396.00
81.1655 444.00
81.2307 471.00
81.2959 525.00
81.3611 543.00
81.4263 452.00
81.4915 467.00
81.5567 450.00
81.6219 466.00
81.6871 383.00
81.7523 361.00
81.8175 380.00
81.8827 325.00
81.9479 400.00
82.0131 374.00
82.0783 351.00
82.1435 373.00
82.2087 324.00
82.2739 359.00
82.3391 355.00
82.4043 342.00
82.4695 368.00
82.5347 368.00
82.5999 363.00
82.6651 403.00
82.7303 472.00
82.7955 381.00
82.8607 398.00
82.9259 367.00
82.9911 358.00
83.0563 401.00
83.1215 347.00
83.1867 368.00
83.2519 388.00
83.3171 355.00
83.3823 374.00
83.4475 383.00
83.5127 429.00
83.5779 498.00
83.6431 464.00
83.7083 508.00
83.7735 548.00
83.8387 675.00
83.9039 787.00
83.9691 641.00
84.0343 623.00
84.0995 555.00
84.1647 648.00
84.2299 570.00
84.2951 513.00
84.3603 462.00
84.4255 502.00
84.4907 467.00
84.5559 408.00
84.6211 421.00
84.6863 465.00
84.7515 442.00
84.8167 455.00
84.8819 477.00
84.9471 464.00
85.0123 464.00
85.0775 416.00
85.1427 451.00
85.2079 426.00
85.2731 423.00
85.3383 338.00
85.4035 381.00
85.4687 388.00
85.5339 374.00
85.5991 351.00
85.6643 287.00
85.7295 343.00
85.7946 347.00
85.8598 302.00
85.925 340.00
85.9903 397.00
86.0554 354.00
86.1206 336.00
86.1858 330.00
86.251 325.00
86.3162 334.00
86.3814 335.00
86.4466 352.00
86.5118 341.00
86.577 349.00
86.6422 343.00
86.7074 413.00
86.7726 375.00
86.8378 385.00
86.903 382.00
86.9682 367.00
87.0334 385.00
87.0986 377.00
87.1638 382.00
87.229 451.00
87.2942 433.00
87.3594 488.00
87.4246 513.00
87.4898 480.00
87.555 487.00
87.6202 412.00
87.6854 454.00
87.7506 431.00
87.8158 408.00
87.881 401.00
87.9462 354.00
88.0114 357.00
88.0766 385.00
88.1418 360.00
88.207 416.00
88.2722 388.00
88.3374 402.00
88.4026 429.00
88.4678 418.00
88.533 426.00
88.5982 442.00
88.6634 403.00
88.7286 417.00
88.7938 436.00
88.859 397.00
88.9242 395.00
88.9894 387.00
89.0546 409.00
89.1198 405.00
89.185 387.00
89.2502 387.00
89.3154 403.00
89.3806 410.00
89.4458 454.00
89.511 408.00
89.5762 482.00
89.6414 445.00
89.7066 522.00
89.7718 551.00
89.837 637.00
89.9022 769.00
89.9674 882.00
90.0326 722.00
90.0978 669.00
90.163 666.00
90.2282 713.00
90.2934 619.00
90.3586 588.00
90.4238 524.00
90.489 511.00
90.5542 478.00
90.6193 474.00
90.6845 498.00
90.7497 515.00
90.8149 549.00
90.8801 630.00
90.9453 660.00
91.0105 784.00
91.0757 885.00
91.1409 828.00
91.2061 652.00
91.2713 651.00
91.3365 665.00
91.4017 665.00
91.4669 545.00
91.5321 476.00
91.5973 496.00
91.6625 472.00
91.7277 428.00
91.7929 430.00
91.8581 431.00
91.9233 416.00
91.9885 426.00
92.0537 462.00
92.1189 446.00
92.1841 389.00
92.2493 422.00
92.3145 471.00
92.3797 428.00
92.4449 364.00
92.5101 363.00
92.5753 427.00
92.6405 373.00
92.7057 401.00
92.7709 384.00
92.8361 367.00
92.9013 389.00
92.9665 362.00
93.0317 419.00
93.0969 360.00
93.1621 403.00
93.2273 427.00
93.2925 464.00
93.3577 501.00
93.4229 525.00
93.4881 572.00
93.5533 479.00
93.6185 487.00
93.6837 433.00
93.7489 461.00
93.8141 449.00
93.8793 402.00
93.9445 400.00
94.0097 341.00
94.0749 368.00
94.1401 357.00
94.2053 359.00
94.2705 363.00
94.3357 354.00
94.4009 387.00
94.4661 377.00
94.5313 323.00
94.5965 347.00
94.6617 348.00
94.7269 409.00
94.7921 378.00
94.8573 375.00
94.9225 323.00
94.9877 335.00
95.0529 344.00
95.1181 353.00
95.1833 328.00
95.2485 314.00
95.3137 352.00
95.3789 344.00
95.444 325.00
95.5092 356.00
95.5744 334.00
95.6396 358.00
95.7048 362.00
95.77 349.00
95.8352 362.00
95.9004 361.00
95.9656 351.00
96.0308 378.00
96.096 455.00
96.1612 524.00
96.2264 504.00
96.2916 415.00
96.3568 424.00
96.422 386.00
96.4872 439.00
96.5524 373.00
96.6176 371.00
96.6828 345.00
96.748 332.00
96.8132 335.00
96.8784 340.00
96.9436 308.00
97.0088 349.00
97.074 372.00
97.1392 303.00
97.2044 311.00
97.2696 364.00
97.3348 333.00
97.4 322.00
97.4652 347.00
97.5304 341.00
97.5956 317.00
97.6608 314.00
97.726 341.00
97.7912 310.00
97.8564 331.00
97.9216 323.00
97.9868 384.00
98.052 366.00
98.1172 369.00
98.1824 342.00
98.2476 354.00
98.3128 353.00
98.378 370.00
98.4432 370.00
98.5084 350.00
98.5736 355.00
98.6388 418.00
98.704 387.00
98.7692 352.00
98.8344 374.00
98.8996 354.00
98.9648 353.00
99.03 337.00
99.0952 335.00
99.1604 338.00
99.2256 380.00
99.2908 350.00
99.356 325.00
99.4212 361.00
99.4864 334.00
99.5516 334.00
99.6168 336.00
99.682 325.00
99.7472 336.00
99.8124 326.00
99.8776 292.00
99.9428 313.00
100.008 315.00
100.073 307.00
100.095 329.00