File: data/xrd_creation/results/Na_89.xy
9.903433 2696.00
9.968632 2690.00
10.0338 2831.00
10.099 2633.00
10.1642 2619.00
10.2294 2654.00
10.2946 2562.00
10.3598 2710.00
10.425 2529.00
10.4902 2705.00
10.5554 2560.00
10.6206 2638.00
10.6858 2566.00
10.751 2546.00
10.8162 2511.00
10.8814 2492.00
10.9466 2534.00
11.0118 2526.00
11.077 2668.00
11.1422 2704.00
11.2074 2898.00
11.2726 3118.00
11.3378 3441.00
11.403 4104.00
11.4682 4677.00
11.5334 5927.00
11.5986 8296.00
11.6638 11825.00
11.729 15778.00
11.7942 11080.00
11.8594 8865.00
11.9246 3706.00
11.9898 2717.00
12.055 2457.00
12.1202 2494.00
12.1854 2371.00
12.2506 2354.00
12.3158 2252.00
12.381 2267.00
12.4462 2239.00
12.5114 2297.00
12.5766 2287.00
12.6418 2303.00
12.707 2229.00
12.7722 2159.00
12.8374 2072.00
12.9026 2110.00
12.9678 2065.00
13.033 2104.00
13.0982 2103.00
13.1634 2054.00
13.2286 2094.00
13.2938 2032.00
13.359 2023.00
13.4242 2064.00
13.4894 1923.00
13.5546 2016.00
13.6198 2007.00
13.685 2022.00
13.7502 2009.00
13.8154 1923.00
13.8805 2002.00
13.9457 1872.00
14.0109 1919.00
14.0761 1930.00
14.1413 1886.00
14.2065 1895.00
14.2717 1986.00
14.3369 1889.00
14.4021 1939.00
14.4673 1960.00
14.5325 1882.00
14.5977 1907.00
14.6629 1958.00
14.7281 1988.00
14.7933 2203.00
14.8585 2462.00
14.9237 2402.00
14.9889 2509.00
15.0541 2106.00
15.1193 1869.00
15.1845 1885.00
15.2497 1982.00
15.3149 1974.00
15.3801 2089.00
15.4453 2222.00
15.5105 2458.00
15.5757 2568.00
15.6409 2031.00
15.7061 2013.00
15.7713 1845.00
15.8365 1877.00
15.9017 1913.00
15.9669 1874.00
16.0321 2002.00
16.0973 2084.00
16.1625 2184.00
16.2277 2353.00
16.2929 2892.00
16.3581 3709.00
16.4233 5330.00
16.4885 7526.00
16.5537 9318.00
16.6189 4638.00
16.6841 2272.00
16.7493 1957.00
16.8145 1857.00
16.8797 1707.00
16.9449 1656.00
17.0101 1734.00
17.0753 1706.00
17.1405 1741.00
17.2057 1733.00
17.2709 1797.00
17.3361 1669.00
17.4013 1785.00
17.4665 1669.00
17.5317 1674.00
17.5969 1701.00
17.6621 1708.00
17.7273 1720.00
17.7925 1702.00
17.8577 1751.00
17.9229 1761.00
17.9881 1979.00
18.0533 2330.00
18.1185 2905.00
18.1837 3049.00
18.2489 2595.00
18.3141 2171.00
18.3793 1738.00
18.4445 1686.00
18.5097 1781.00
18.5749 1641.00
18.6401 1615.00
18.7052 1537.00
18.7704 1497.00
18.8356 1533.00
18.9008 1553.00
18.966 1442.00
19.0312 1511.00
19.0964 1477.00
19.1616 1534.00
19.2268 1486.00
19.292 1498.00
19.3572 1487.00
19.4224 1460.00
19.4876 1348.00
19.5528 1438.00
19.618 1422.00
19.6832 1466.00
19.7484 1466.00
19.8136 1289.00
19.8788 1434.00
19.944 1391.00
20.0092 1357.00
20.0744 1482.00
20.1396 1427.00
20.2048 1451.00
20.27 1657.00
20.3352 1678.00
20.4004 1888.00
20.4656 1741.00
20.5308 1438.00
20.596 1428.00
20.6612 1382.00
20.7264 1336.00
20.7916 1320.00
20.8568 1441.00
20.922 1470.00
20.9872 1552.00
21.0524 1698.00
21.1176 1652.00
21.1828 1561.00
21.248 1404.00
21.3132 1364.00
21.3784 1366.00
21.4436 1315.00
21.5088 1339.00
21.574 1294.00
21.6392 1406.00
21.7044 1341.00
21.7696 1236.00
21.8348 1359.00
21.9 1374.00
21.9652 1380.00
22.0304 1360.00
22.0956 1458.00
22.1608 1477.00
22.226 1339.00
22.2912 1209.00
22.3564 1167.00
22.4216 1295.00
22.4868 1297.00
22.552 1235.00
22.6172 1192.00
22.6824 1219.00
22.7476 1208.00
22.8128 1241.00
22.878 1357.00
22.9432 1260.00
23.0084 1234.00
23.0736 1249.00
23.1388 1235.00
23.204 1374.00
23.2692 1349.00
23.3344 1228.00
23.3996 1337.00
23.4647 1366.00
23.5299 1365.00
23.5951 1271.00
23.6603 1248.00
23.7255 1259.00
23.7907 1162.00
23.8559 1209.00
23.9211 1189.00
23.9863 1195.00
24.0515 1158.00
24.1167 1259.00
24.1819 1362.00
24.2471 1258.00
24.3123 1375.00
24.3775 1695.00
24.4427 2073.00
24.5079 2188.00
24.5731 1882.00
24.6383 1993.00
24.7035 2515.00
24.7687 2475.00
24.8339 1580.00
24.8991 1263.00
24.9643 1221.00
25.0295 1267.00
25.0947 1236.00
25.1599 1253.00
25.2251 1236.00
25.2903 1230.00
25.3555 1298.00
25.4207 1479.00
25.4859 1534.00
25.5511 1422.00
25.6163 1365.00
25.6815 1357.00
25.7467 1465.00
25.8119 1901.00
25.8771 2813.00
25.9423 4958.00
26.0075 8308.00
26.0727 8429.00
26.1379 9060.00
26.2031 8385.00
26.2683 4137.00
26.3335 1725.00
26.3987 1494.00
26.4639 1431.00
26.5291 1316.00
26.5943 1326.00
26.6595 1575.00
26.7247 1944.00
26.7899 2497.00
26.8551 3566.00
26.9203 4089.00
26.9855 3257.00
27.0507 2121.00
27.1159 1714.00
27.1811 1400.00
27.2463 1490.00
27.3115 1724.00
27.3767 1572.00
27.4419 1312.00
27.5071 1234.00
27.5723 1310.00
27.6375 1445.00
27.7027 1827.00
27.7679 2664.00
27.8331 4432.00
27.8983 6836.00
27.9635 8237.00
28.0287 5583.00
28.0939 4059.00
28.1591 4385.00
28.2243 3439.00
28.2894 2402.00
28.3546 1737.00
28.4198 1310.00
28.485 1320.00
28.5502 1240.00
28.6154 1058.00
28.6806 1095.00
28.7458 1046.00
28.811 1037.00
28.8762 959.00
28.9414 1064.00
29.0066 1006.00
29.0718 1009.00
29.137 967.00
29.2022 989.00
29.2674 939.00
29.3326 925.00
29.3978 1000.00
29.463 927.00
29.5282 941.00
29.5934 975.00
29.6586 1038.00
29.7238 1046.00
29.789 998.00
29.8542 1021.00
29.9194 953.00
29.9846 1014.00
30.0498 1231.00
30.115 1786.00
30.1802 2693.00
30.2454 2679.00
30.3106 2118.00
30.3758 1856.00
30.441 2334.00
30.5062 2294.00
30.5714 1647.00
30.6366 1095.00
30.7018 1045.00
30.767 935.00
30.8322 911.00
30.8974 916.00
30.9626 942.00
31.0278 978.00
31.093 939.00
31.1582 984.00
31.2234 932.00
31.2886 986.00
31.3538 1053.00
31.419 1494.00
31.4842 2095.00
31.5494 2267.00
31.6146 1700.00
31.6798 1347.00
31.745 1478.00
31.8102 1475.00
31.8754 1892.00
31.9406 2537.00
32.0058 2415.00
32.071 1708.00
32.1362 1315.00
32.2014 1095.00
32.2666 1006.00
32.3318 1032.00
32.397 1099.00
32.4622 1169.00
32.5274 1184.00
32.5926 1205.00
32.6578 1084.00
32.723 1149.00
32.7882 1201.00
32.8534 1545.00
32.9186 2467.00
32.9838 4733.00
33.0489 9177.00
33.1141 10005.00
33.1793 5728.00
33.2445 2268.00
33.3097 1418.00
33.3749 1260.00
33.4401 1367.00
33.5053 1346.00
33.5705 1153.00
33.6357 1004.00
33.7009 999.00
33.7661 1063.00
33.8313 1106.00
33.8965 1249.00
33.9617 1478.00
34.0269 1853.00
34.0921 2373.00
34.1573 3258.00
34.2225 3432.00
34.2877 3190.00
34.3529 3485.00
34.4181 5667.00
34.4833 9054.00
34.5485 10293.00
34.6137 6232.00
34.6789 3149.00
34.7441 2023.00
34.8093 2316.00
34.8745 3238.00
34.9397 4128.00
35.0049 2946.00
35.0701 1879.00
35.1353 1203.00
35.2005 1100.00
35.2657 1245.00
35.3309 1245.00
35.3961 1023.00
35.4613 942.00
35.5265 852.00
35.5917 898.00
35.6569 779.00
35.7221 740.00
35.7873 780.00
35.8525 776.00
35.9177 777.00
35.9829 793.00
36.0481 777.00
36.1133 800.00
36.1785 898.00
36.2437 990.00
36.3089 1079.00
36.3741 1283.00
36.4393 1385.00
36.5045 1283.00
36.5697 1202.00
36.6349 1296.00
36.7001 1184.00
36.7653 1131.00
36.8305 1316.00
36.8957 1668.00
36.9609 1445.00
37.0261 1158.00
37.0913 1107.00
37.1565 1225.00
37.2217 1626.00
37.2869 1399.00
37.3521 1073.00
37.4173 843.00
37.4825 807.00
37.5477 732.00
37.6129 791.00
37.6781 774.00
37.7433 890.00
37.8085 958.00
37.8736 1109.00
37.9388 1075.00
38.004 972.00
38.0692 998.00
38.1344 968.00
38.1996 1156.00
38.2648 1176.00
38.33 1082.00
38.3952 978.00
38.4604 905.00
38.5256 827.00
38.5908 811.00
38.656 685.00
38.7212 752.00
38.7864 846.00
38.8516 824.00
38.9168 776.00
38.982 685.00
39.0472 752.00
39.1124 897.00
39.1776 986.00
39.2428 1021.00
39.308 1017.00
39.3732 860.00
39.4384 764.00
39.5036 768.00
39.5688 777.00
39.634 802.00
39.6992 798.00
39.7644 799.00
39.8296 776.00
39.8948 743.00
39.96 686.00
40.0252 668.00
40.0904 667.00
40.1556 669.00
40.2208 661.00
40.286 722.00
40.3512 717.00
40.4164 707.00
40.4816 761.00
40.5468 874.00
40.612 793.00
40.6772 807.00
40.7424 766.00
40.8076 702.00
40.8728 714.00
40.938 783.00
41.0032 865.00
41.0684 940.00
41.1336 911.00
41.1988 750.00
41.264 750.00
41.3292 677.00
41.3944 841.00
41.4596 790.00
41.5248 733.00
41.59 775.00
41.6552 811.00
41.7204 1061.00
41.7856 1438.00
41.8508 1438.00
41.916 1267.00
41.9812 1044.00
42.0464 929.00
42.1116 1096.00
42.1768 1555.00
42.242 1903.00
42.3072 1900.00
42.3724 2022.00
42.4376 1573.00
42.5028 1843.00
42.568 1656.00
42.6332 1228.00
42.6983 1052.00
42.7635 767.00
42.8287 768.00
42.8939 670.00
42.9591 704.00
43.0243 678.00
43.0895 716.00
43.1547 649.00
43.2199 642.00
43.2851 677.00
43.3503 705.00
43.4155 829.00
43.4807 1166.00
43.5459 1455.00
43.6111 1299.00
43.6763 1146.00
43.7415 1015.00
43.8067 982.00
43.8719 928.00
43.9371 827.00
44.0023 741.00
44.0675 731.00
44.1327 758.00
44.1979 783.00
44.2631 776.00
44.3283 706.00
44.3935 653.00
44.4587 640.00
44.5239 689.00
44.5891 688.00
44.6543 626.00
44.7195 637.00
44.7847 702.00
44.8499 692.00
44.9151 728.00
44.9803 742.00
45.0455 861.00
45.1107 1191.00
45.1759 1230.00
45.2411 1136.00
45.3063 1097.00
45.3715 897.00
45.4367 891.00
45.5019 958.00
45.5671 883.00
45.6323 878.00
45.6975 825.00
45.7627 823.00
45.8279 768.00
45.8931 739.00
45.9583 625.00
46.0235 570.00
46.0887 607.00
46.1539 722.00
46.2191 780.00
46.2843 755.00
46.3495 758.00
46.4147 705.00
46.4799 638.00
46.5451 714.00
46.6103 667.00
46.6755 660.00
46.7407 712.00
46.8059 871.00
46.8711 898.00
46.9363 876.00
47.0015 1070.00
47.0667 1290.00
47.1319 1227.00
47.1971 1282.00
47.2623 1366.00
47.3275 1695.00
47.3927 1512.00
47.4579 1923.00
47.523 2684.00
47.5882 3225.00
47.6534 2300.00
47.7186 1931.00
47.7838 1164.00
47.849 781.00
47.9142 735.00
47.9794 701.00
48.0446 710.00
48.1098 676.00
48.175 630.00
48.2402 643.00
48.3054 710.00
48.3706 736.00
48.4358 667.00
48.501 790.00
48.5662 923.00
48.6314 1017.00
48.6966 902.00
48.7618 949.00
48.827 808.00
48.8922 783.00
48.9574 950.00
49.0226 1190.00
49.0878 1344.00
49.153 1283.00
49.2182 1181.00
49.2834 966.00
49.3486 894.00
49.4138 834.00
49.479 778.00
49.5442 791.00
49.6094 932.00
49.6746 1343.00
49.7398 1949.00
49.805 1756.00
49.8702 1609.00
49.9354 1358.00
50.0006 1306.00
50.0658 1677.00
50.131 1516.00
50.1962 1484.00
50.2614 1601.00
50.3266 1873.00
50.3918 1776.00
50.457 1451.00
50.5222 1054.00
50.5874 805.00
50.6526 780.00
50.7178 652.00
50.783 662.00
50.8482 623.00
50.9134 607.00
50.9786 689.00
51.0438 598.00
51.109 537.00
51.1742 608.00
51.2394 692.00
51.3046 825.00
51.3698 697.00
51.435 754.00
51.5002 624.00
51.5654 670.00
51.6306 691.00
51.6958 955.00
51.761 1630.00
51.8262 2014.00
51.8914 1744.00
51.9566 2110.00
52.0218 2162.00
52.087 2187.00
52.1522 1900.00
52.2174 1666.00
52.2826 1244.00
52.3477 1081.00
52.4129 929.00
52.4781 772.00
52.5433 805.00
52.6085 703.00
52.6737 624.00
52.7389 584.00
52.8041 564.00
52.8693 598.00
52.9345 638.00
52.9997 771.00
53.0649 1079.00
53.1301 1210.00
53.1953 1310.00
53.2605 1188.00
53.3257 994.00
53.3909 985.00
53.4561 950.00
53.5213 806.00
53.5865 825.00
53.6517 885.00
53.7169 672.00
53.7821 721.00
53.8473 793.00
53.9125 851.00
53.9777 740.00
54.0429 774.00
54.1081 728.00
54.1733 665.00
54.2385 701.00
54.3037 744.00
54.3689 724.00
54.4341 758.00
54.4993 819.00
54.5645 769.00
54.6297 738.00
54.6949 677.00
54.7601 793.00
54.8253 899.00
54.8905 939.00
54.9557 971.00
55.0209 1009.00
55.0861 931.00
55.1513 919.00
55.2165 841.00
55.2817 727.00
55.3469 799.00
55.4121 950.00
55.4773 1006.00
55.5425 1265.00
55.6077 1430.00
55.6729 1102.00
55.7381 973.00
55.8033 752.00
55.8685 693.00
55.9337 640.00
55.9989 604.00
56.0641 632.00
56.1293 783.00
56.1945 896.00
56.2597 1003.00
56.3249 885.00
56.3901 917.00
56.4553 920.00
56.5205 767.00
56.5857 722.00
56.6509 698.00
56.7161 750.00
56.7813 792.00
56.8465 1018.00
56.9117 1115.00
56.9769 994.00
57.042 1026.00
57.1073 940.00
57.1724 986.00
57.2376 864.00
57.3028 1123.00
57.368 1125.00
57.4332 938.00
57.4984 917.00
57.5636 797.00
57.6288 704.00
57.694 674.00
57.7592 758.00
57.8244 786.00
57.8896 740.00
57.9548 824.00
58.02 844.00
58.0852 952.00
58.1504 970.00
58.2156 848.00
58.2808 927.00
58.346 1058.00
58.4112 1320.00
58.4764 1863.00
58.5416 1778.00
58.6068 1602.00
58.672 1326.00
58.7372 1089.00
58.8024 1080.00
58.8676 1154.00
58.9328 952.00
58.998 913.00
59.0632 1130.00
59.1284 1132.00
59.1936 977.00
59.2588 1027.00
59.324 1117.00
59.3892 1392.00
59.4544 1810.00
59.5196 1731.00
59.5848 2145.00
59.65 2291.00
59.7152 2023.00
59.7804 2197.00
59.8456 1632.00
59.9108 1445.00
59.976 1338.00
60.0412 1161.00
60.1064 1212.00
60.1716 1592.00
60.2368 1771.00
60.302 1561.00
60.3672 1275.00
60.4324 1263.00
60.4976 920.00
60.5628 756.00
60.628 746.00
60.6932 659.00
60.7584 670.00
60.8236 799.00
60.8888 824.00
60.954 755.00
61.0192 712.00
61.0844 710.00
61.1496 585.00
61.2148 543.00
61.28 556.00
61.3452 619.00
61.4104 547.00
61.4756 602.00
61.5408 645.00
61.606 707.00
61.6712 783.00
61.7364 898.00
61.8016 778.00
61.8667 753.00
61.932 806.00
61.9971 670.00
62.0623 807.00
62.1275 763.00
62.1927 785.00
62.2579 833.00
62.3231 1053.00
62.3883 1220.00
62.4535 969.00
62.5187 927.00
62.5839 829.00
62.6491 660.00
62.7143 579.00
62.7795 597.00
62.8447 670.00
62.9099 938.00
62.9751 1269.00
63.0403 1058.00
63.1055 1014.00
63.1707 933.00
63.2359 759.00
63.3011 581.00
63.3663 562.00
63.4315 531.00
63.4967 508.00
63.5619 561.00
63.6271 647.00
63.6923 586.00
63.7575 612.00
63.8227 720.00
63.8879 695.00
63.9531 595.00
64.0183 727.00
64.0835 687.00
64.1487 710.00
64.2139 712.00
64.2791 753.00
64.3443 748.00
64.4095 714.00
64.4747 757.00
64.5399 780.00
64.6051 659.00
64.6703 657.00
64.7355 630.00
64.8007 686.00
64.8659 930.00
64.9311 1073.00
64.9963 1076.00
65.0615 945.00
65.1267 927.00
65.1919 844.00
65.2571 768.00
65.3223 727.00
65.3875 758.00
65.4527 846.00
65.5179 958.00
65.5831 828.00
65.6483 804.00
65.7135 871.00
65.7787 882.00
65.8439 931.00
65.9091 980.00
65.9743 1036.00
66.0395 1022.00
66.1047 1093.00
66.1699 1076.00
66.2351 1029.00
66.3003 936.00
66.3655 906.00
66.4307 788.00
66.4959 819.00
66.561 752.00
66.6263 736.00
66.6915 652.00
66.7566 662.00
66.8218 724.00
66.887 716.00
66.9522 694.00
67.0174 665.00
67.0826 653.00
67.1478 607.00
67.213 629.00
67.2782 635.00
67.3434 671.00
67.4086 680.00
67.4738 752.00
67.539 641.00
67.6042 587.00
67.6694 605.00
67.7346 609.00
67.7998 507.00
67.865 516.00
67.9302 562.00
67.9954 699.00
68.0606 805.00
68.1258 661.00
68.191 663.00
68.2562 608.00
68.3214 582.00
68.3866 556.00
68.4518 509.00
68.517 592.00
68.5822 648.00
68.6474 671.00
68.7126 729.00
68.7778 742.00
68.843 650.00
68.9082 783.00
68.9734 790.00
69.0386 631.00
69.1038 616.00
69.169 709.00
69.2342 629.00
69.2994 551.00
69.3646 541.00
69.4298 532.00
69.495 452.00
69.5602 505.00
69.6254 490.00
69.6906 511.00
69.7558 529.00
69.821 550.00
69.8862 508.00
69.9514 506.00
70.0166 478.00
70.0818 517.00
70.147 435.00
70.2122 484.00
70.2774 463.00
70.3426 452.00
70.4078 433.00
70.473 476.00
70.5382 440.00
70.6034 453.00
70.6686 451.00
70.7338 500.00
70.799 493.00
70.8642 517.00
70.9294 485.00
70.9946 544.00
71.0598 529.00
71.125 486.00
71.1902 496.00
71.2554 449.00
71.3205 443.00
71.3858 509.00
71.451 553.00
71.5162 533.00
71.5813 543.00
71.6465 567.00
71.7117 501.00
71.7769 543.00
71.8421 480.00
71.9073 473.00
71.9725 529.00
72.0377 488.00
72.1029 580.00
72.1681 734.00
72.2333 762.00
72.2985 727.00
72.3637 800.00
72.4289 737.00
72.4941 583.00
72.5593 603.00
72.6245 525.00
72.6897 453.00
72.7549 478.00
72.8201 461.00
72.8853 382.00
72.9505 415.00
73.0157 469.00
73.0809 430.00
73.1461 496.00
73.2113 575.00
73.2765 709.00
73.3417 822.00
73.4069 786.00
73.4721 654.00
73.5373 705.00
73.6025 649.00
73.6677 535.00
73.7329 493.00
73.7981 424.00
73.8633 425.00
73.9285 491.00
73.9937 447.00
74.0589 445.00
74.1241 461.00
74.1893 484.00
74.2545 476.00
74.3197 546.00
74.3849 585.00
74.4501 649.00
74.5153 714.00
74.5805 576.00
74.6457 575.00
74.7109 494.00
74.7761 500.00
74.8413 546.00
74.9065 497.00
74.9717 461.00
75.0369 446.00
75.1021 495.00
75.1673 532.00
75.2325 536.00
75.2977 575.00
75.3629 652.00
75.4281 604.00
75.4933 557.00
75.5585 555.00
75.6237 479.00
75.6889 455.00
75.7541 466.00
75.8193 445.00
75.8845 452.00
75.9497 453.00
76.0149 482.00
76.0801 458.00
76.1452 557.00
76.2104 549.00
76.2756 525.00
76.3409 549.00
76.406 540.00
76.4712 451.00
76.5364 493.00
76.6016 523.00
76.6668 527.00
76.732 511.00
76.7972 546.00
76.8624 578.00
76.9276 565.00
76.9928 579.00
77.058 558.00
77.1232 602.00
77.1884 640.00
77.2536 710.00
77.3188 637.00
77.384 614.00
77.4492 641.00
77.5144 642.00
77.5796 553.00
77.6448 527.00
77.71 477.00
77.7752 491.00
77.8404 434.00
77.9056 486.00
77.9708 492.00
78.036 529.00
78.1012 539.00
78.1664 494.00
78.2316 483.00
78.2968 463.00
78.362 507.00
78.4272 493.00
78.4924 441.00
78.5576 468.00
78.6228 494.00
78.688 585.00
78.7532 667.00
78.8184 778.00
78.8836 838.00
78.9488 883.00
79.014 765.00
79.0792 821.00
79.1444 833.00
79.2096 693.00
79.2748 685.00
79.34 692.00
79.4052 625.00
79.4704 556.00
79.5356 570.00
79.6008 520.00
79.666 525.00
79.7312 446.00
79.7964 413.00
79.8616 415.00
79.9268 449.00
79.992 471.00
80.0572 494.00
80.1224 542.00
80.1876 604.00
80.2528 590.00
80.318 539.00
80.3832 599.00
80.4484 615.00
80.5136 640.00
80.5788 545.00
80.644 463.00
80.7092 500.00
80.7744 478.00
80.8396 507.00
80.9048 494.00
80.9699 531.00
81.0351 520.00
81.1003 497.00
81.1655 525.00
81.2307 543.00
81.2959 524.00
81.3611 556.00
81.4263 477.00
81.4915 508.00
81.5567 581.00
81.6219 561.00
81.6871 566.00
81.7523 505.00
81.8175 496.00
81.8827 524.00
81.9479 521.00
82.0131 452.00
82.0783 471.00
82.1435 460.00
82.2087 425.00
82.2739 445.00
82.3391 438.00
82.4043 387.00
82.4695 415.00
82.5347 439.00
82.5999 501.00
82.6651 485.00
82.7303 487.00
82.7955 541.00
82.8607 494.00
82.9259 480.00
82.9911 503.00
83.0563 438.00
83.1215 408.00
83.1867 437.00
83.2519 417.00
83.3171 497.00
83.3823 511.00
83.4475 504.00
83.5127 503.00
83.5779 503.00
83.6431 561.00
83.7083 619.00
83.7735 577.00
83.8387 585.00
83.9039 636.00
83.9691 624.00
84.0343 570.00
84.0995 611.00
84.1647 534.00
84.2299 527.00
84.2951 495.00
84.3603 507.00
84.4255 484.00
84.4907 514.00
84.5559 487.00
84.6211 536.00
84.6863 504.00
84.7515 562.00
84.8167 588.00
84.8819 573.00
84.9471 548.00
85.0123 518.00
85.0775 577.00
85.1427 599.00
85.2079 568.00
85.2731 542.00
85.3383 521.00
85.4035 495.00
85.4687 547.00
85.5339 502.00
85.5991 503.00
85.6643 445.00
85.7295 452.00
85.7946 489.00
85.8598 495.00
85.925 449.00
85.9903 467.00
86.0554 569.00
86.1206 661.00
86.1858 615.00
86.251 505.00
86.3162 454.00
86.3814 528.00
86.4466 507.00
86.5118 531.00
86.577 578.00
86.6422 570.00
86.7074 547.00
86.7726 475.00
86.8378 520.00
86.903 560.00
86.9682 576.00
87.0334 521.00
87.0986 536.00
87.1638 541.00
87.229 578.00
87.2942 555.00
87.3594 492.00
87.4246 485.00
87.4898 549.00
87.555 517.00
87.6202 466.00
87.6854 490.00
87.7506 495.00
87.8158 469.00
87.881 436.00
87.9462 417.00
88.0114 437.00
88.0766 452.00
88.1418 428.00
88.207 465.00
88.2722 475.00
88.3374 490.00
88.4026 561.00
88.4678 530.00
88.533 588.00
88.5982 549.00
88.6634 600.00
88.7286 583.00
88.7938 535.00
88.859 545.00
88.9242 557.00
88.9894 526.00
89.0546 483.00
89.1198 544.00
89.185 570.00
89.2502 493.00
89.3154 484.00
89.3806 567.00
89.4458 548.00
89.511 540.00
89.5762 540.00
89.6414 558.00
89.7066 510.00
89.7718 559.00
89.837 531.00
89.9022 612.00
89.9674 541.00
90.0326 552.00
90.0978 537.00
90.163 554.00
90.2282 586.00
90.2934 598.00
90.3586 608.00
90.4238 619.00
90.489 642.00
90.5542 610.00
90.6193 574.00
90.6845 545.00
90.7497 541.00
90.8149 586.00
90.8801 554.00
90.9453 491.00
91.0105 549.00
91.0757 576.00
91.1409 560.00
91.2061 529.00
91.2713 518.00
91.3365 523.00
91.4017 595.00
91.4669 584.00
91.5321 577.00
91.5973 639.00
91.6625 590.00
91.7277 613.00
91.7929 611.00
91.8581 572.00
91.9233 538.00
91.9885 554.00
92.0537 635.00
92.1189 554.00
92.1841 500.00
92.2493 509.00
92.3145 464.00
92.3797 484.00
92.4449 505.00
92.5101 514.00
92.5753 500.00
92.6405 491.00
92.7057 535.00
92.7709 540.00
92.8361 499.00
92.9013 489.00
92.9665 453.00
93.0317 488.00
93.0969 496.00
93.1621 458.00
93.2273 456.00
93.2925 420.00
93.3577 422.00
93.4229 495.00
93.4881 484.00
93.5533 505.00
93.6185 468.00
93.6837 455.00
93.7489 516.00
93.8141 475.00
93.8793 429.00
93.9445 473.00
94.0097 425.00
94.0749 453.00
94.1401 429.00
94.2053 464.00
94.2705 464.00
94.3357 440.00
94.4009 423.00
94.4661 474.00
94.5313 436.00
94.5965 447.00
94.6617 422.00
94.7269 459.00
94.7921 378.00
94.8573 447.00
94.9225 403.00
94.9877 393.00
95.0529 428.00
95.1181 454.00
95.1833 441.00
95.2485 488.00
95.3137 438.00
95.3789 475.00
95.444 493.00
95.5092 462.00
95.5744 487.00
95.6396 523.00
95.7048 481.00
95.77 566.00
95.8352 498.00
95.9004 533.00
95.9656 547.00
96.0308 543.00
96.096 517.00
96.1612 525.00
96.2264 552.00
96.2916 515.00
96.3568 565.00
96.422 549.00
96.4872 557.00
96.5524 506.00
96.6176 468.00
96.6828 504.00
96.748 534.00
96.8132 557.00
96.8784 567.00
96.9436 533.00
97.0088 579.00
97.074 642.00
97.1392 644.00
97.2044 619.00
97.2696 630.00
97.3348 621.00
97.4 636.00
97.4652 637.00
97.5304 626.00
97.5956 615.00
97.6608 524.00
97.726 561.00
97.7912 544.00
97.8564 506.00
97.9216 503.00
97.9868 553.00
98.052 509.00
98.1172 531.00
98.1824 458.00
98.2476 540.00
98.3128 550.00
98.378 475.00
98.4432 452.00
98.5084 492.00
98.5736 507.00
98.6388 486.00
98.704 486.00
98.7692 476.00
98.8344 495.00
98.8996 447.00
98.9648 441.00
99.03 465.00
99.0952 436.00
99.1604 481.00
99.2256 460.00
99.2908 459.00
99.356 466.00
99.4212 522.00
99.4864 523.00
99.5516 530.00
99.6168 534.00
99.682 605.00
99.7472 622.00
99.8124 615.00
99.8776 570.00
99.9428 571.00
100.008 530.00
100.073 561.00
100.095 553.00