File: data/xrd_creation/results/Na_90.xy
9.903433 2696.00
9.968632 2686.00
10.0338 2686.00
10.099 2676.00
10.1642 2614.00
10.2294 2589.00
10.2946 2467.00
10.3598 2485.00
10.425 2561.00
10.4902 2516.00
10.5554 2480.00
10.6206 2519.00
10.6858 2601.00
10.751 2406.00
10.8162 2508.00
10.8814 2385.00
10.9466 2408.00
11.0118 2340.00
11.077 2377.00
11.1422 2339.00
11.2074 2362.00
11.2726 2434.00
11.3378 2353.00
11.403 2347.00
11.4682 2386.00
11.5334 2428.00
11.5986 2492.00
11.6638 2448.00
11.729 2560.00
11.7942 2375.00
11.8594 2239.00
11.9246 2115.00
11.9898 2225.00
12.055 2130.00
12.1202 2127.00
12.1854 2201.00
12.2506 1970.00
12.3158 2093.00
12.381 2092.00
12.4462 2110.00
12.5114 1964.00
12.5766 1951.00
12.6418 1933.00
12.707 1981.00
12.7722 1983.00
12.8374 1921.00
12.9026 1933.00
12.9678 1890.00
13.033 1913.00
13.0982 1877.00
13.1634 1907.00
13.2286 1848.00
13.2938 1960.00
13.359 1898.00
13.4242 1844.00
13.4894 1876.00
13.5546 1938.00
13.6198 1787.00
13.685 1839.00
13.7502 1792.00
13.8154 1774.00
13.8805 1820.00
13.9457 1727.00
14.0109 1835.00
14.0761 1722.00
14.1413 1755.00
14.2065 1755.00
14.2717 1716.00
14.3369 1820.00
14.4021 1840.00
14.4673 1773.00
14.5325 1741.00
14.5977 1784.00
14.6629 1798.00
14.7281 1674.00
14.7933 1720.00
14.8585 1817.00
14.9237 1798.00
14.9889 1743.00
15.0541 1712.00
15.1193 1724.00
15.1845 1699.00
15.2497 1717.00
15.3149 1705.00
15.3801 1696.00
15.4453 1603.00
15.5105 1755.00
15.5757 1699.00
15.6409 1712.00
15.7061 1662.00
15.7713 1647.00
15.8365 1708.00
15.9017 1702.00
15.9669 1736.00
16.0321 1756.00
16.0973 1958.00
16.1625 1995.00
16.2277 2280.00
16.2929 2349.00
16.3581 2744.00
16.4233 3154.00
16.4885 3459.00
16.5537 3295.00
16.6189 2528.00
16.6841 1999.00
16.7493 1816.00
16.8145 1759.00
16.8797 1683.00
16.9449 1666.00
17.0101 1570.00
17.0753 1541.00
17.1405 1509.00
17.2057 1529.00
17.2709 1576.00
17.3361 1542.00
17.4013 1545.00
17.4665 1500.00
17.5317 1454.00
17.5969 1503.00
17.6621 1506.00
17.7273 1512.00
17.7925 1504.00
17.8577 1557.00
17.9229 1438.00
17.9881 1473.00
18.0533 1520.00
18.1185 1509.00
18.1837 1506.00
18.2489 1498.00
18.3141 1516.00
18.3793 1516.00
18.4445 1538.00
18.5097 1467.00
18.5749 1490.00
18.6401 1546.00
18.7052 1603.00
18.7704 1762.00
18.8356 1630.00
18.9008 1763.00
18.966 1778.00
19.0312 1694.00
19.0964 1633.00
19.1616 1641.00
19.2268 1559.00
19.292 1465.00
19.3572 1598.00
19.4224 1535.00
19.4876 1565.00
19.5528 1515.00
19.618 1537.00
19.6832 1475.00
19.7484 1443.00
19.8136 1564.00
19.8788 1473.00
19.944 1561.00
20.0092 1462.00
20.0744 1466.00
20.1396 1486.00
20.2048 1440.00
20.27 1407.00
20.3352 1392.00
20.4004 1432.00
20.4656 1391.00
20.5308 1417.00
20.596 1420.00
20.6612 1382.00
20.7264 1461.00
20.7916 1388.00
20.8568 1536.00
20.922 1620.00
20.9872 1618.00
21.0524 1742.00
21.1176 1605.00
21.1828 1625.00
21.248 1621.00
21.3132 1507.00
21.3784 1413.00
21.4436 1382.00
21.5088 1317.00
21.574 1358.00
21.6392 1328.00
21.7044 1291.00
21.7696 1317.00
21.8348 1340.00
21.9 1334.00
21.9652 1284.00
22.0304 1310.00
22.0956 1284.00
22.1608 1251.00
22.226 1293.00
22.2912 1226.00
22.3564 1315.00
22.4216 1191.00
22.4868 1236.00
22.552 1164.00
22.6172 1237.00
22.6824 1319.00
22.7476 1205.00
22.8128 1304.00
22.878 1281.00
22.9432 1142.00
23.0084 1197.00
23.0736 1136.00
23.1388 1185.00
23.204 1105.00
23.2692 1195.00
23.3344 1222.00
23.3996 1210.00
23.4647 1223.00
23.5299 1290.00
23.5951 1280.00
23.6603 1188.00
23.7255 1209.00
23.7907 1156.00
23.8559 1174.00
23.9211 1074.00
23.9863 1141.00
24.0515 1129.00
24.1167 1176.00
24.1819 1189.00
24.2471 1166.00
24.3123 1156.00
24.3775 1201.00
24.4427 1138.00
24.5079 1145.00
24.5731 1130.00
24.6383 1117.00
24.7035 1196.00
24.7687 1191.00
24.8339 1144.00
24.8991 1164.00
24.9643 1074.00
25.0295 1096.00
25.0947 1023.00
25.1599 1127.00
25.2251 1100.00
25.2903 1127.00
25.3555 1124.00
25.4207 1048.00
25.4859 1045.00
25.5511 1047.00
25.6163 1048.00
25.6815 1024.00
25.7467 1144.00
25.8119 1162.00
25.8771 1185.00
25.9423 1304.00
26.0075 1390.00
26.0727 1423.00
26.1379 1431.00
26.2031 1455.00
26.2683 1409.00
26.3335 1395.00
26.3987 1626.00
26.4639 1693.00
26.5291 2014.00
26.5943 2590.00
26.6595 3522.00
26.7247 4970.00
26.7899 7632.00
26.8551 11836.00
26.9203 12367.00
26.9855 7004.00
27.0507 3252.00
27.1159 2323.00
27.1811 1854.00
27.2463 1579.00
27.3115 1457.00
27.3767 1340.00
27.4419 1238.00
27.5071 1179.00
27.5723 1167.00
27.6375 1088.00
27.7027 1130.00
27.7679 1136.00
27.8331 1273.00
27.8983 1319.00
27.9635 1297.00
28.0287 1219.00
28.0939 1137.00
28.1591 1210.00
28.2243 1162.00
28.2894 1147.00
28.3546 1032.00
28.4198 959.00
28.485 992.00
28.5502 993.00
28.6154 949.00
28.6806 927.00
28.7458 924.00
28.811 976.00
28.8762 907.00
28.9414 945.00
29.0066 888.00
29.0718 932.00
29.137 965.00
29.2022 927.00
29.2674 929.00
29.3326 944.00
29.3978 913.00
29.463 884.00
29.5282 911.00
29.5934 908.00
29.6586 891.00
29.7238 953.00
29.789 878.00
29.8542 864.00
29.9194 882.00
29.9846 876.00
30.0498 961.00
30.115 967.00
30.1802 1045.00
30.2454 1007.00
30.3106 1048.00
30.3758 991.00
30.441 897.00
30.5062 849.00
30.5714 840.00
30.6366 803.00
30.7018 833.00
30.767 875.00
30.8322 847.00
30.8974 873.00
30.9626 855.00
31.0278 827.00
31.093 871.00
31.1582 828.00
31.2234 778.00
31.2886 824.00
31.3538 859.00
31.419 836.00
31.4842 874.00
31.5494 870.00
31.6146 921.00
31.6798 812.00
31.745 879.00
31.8102 901.00
31.8754 937.00
31.9406 952.00
32.0058 882.00
32.071 947.00
32.1362 889.00
32.2014 861.00
32.2666 846.00
32.3318 912.00
32.397 893.00
32.4622 953.00
32.5274 914.00
32.5926 953.00
32.6578 906.00
32.723 989.00
32.7882 1170.00
32.8534 1192.00
32.9186 1586.00
32.9838 2087.00
33.0489 2622.00
33.1141 2785.00
33.1793 2396.00
33.2445 1754.00
33.3097 1458.00
33.3749 1474.00
33.4401 1397.00
33.5053 1287.00
33.5705 1263.00
33.6357 1317.00
33.7009 1397.00
33.7661 1491.00
33.8313 1749.00
33.8965 2271.00
33.9617 3041.00
34.0269 4649.00
34.0921 7669.00
34.1573 11512.00
34.2225 9856.00
34.2877 6658.00
34.3529 4254.00
34.4181 3856.00
34.4833 4022.00
34.5485 3461.00
34.6137 2578.00
34.6789 1735.00
34.7441 1397.00
34.8093 1286.00
34.8745 1228.00
34.9397 1099.00
35.0049 1094.00
35.0701 1018.00
35.1353 976.00
35.2005 944.00
35.2657 1053.00
35.3309 1047.00
35.3961 1112.00
35.4613 1274.00
35.5265 1320.00
35.5917 1125.00
35.6569 1018.00
35.7221 868.00
35.7873 795.00
35.8525 776.00
35.9177 826.00
35.9829 717.00
36.0481 715.00
36.1133 713.00
36.1785 814.00
36.2437 818.00
36.3089 729.00
36.3741 796.00
36.4393 708.00
36.5045 681.00
36.5697 753.00
36.6349 736.00
36.7001 685.00
36.7653 735.00
36.8305 773.00
36.8957 811.00
36.9609 774.00
37.0261 810.00
37.0913 804.00
37.1565 726.00
37.2217 710.00
37.2869 777.00
37.3521 681.00
37.4173 739.00
37.4825 767.00
37.5477 756.00
37.6129 739.00
37.6781 789.00
37.7433 827.00
37.8085 901.00
37.8736 992.00
37.9388 1053.00
38.004 1226.00
38.0692 1509.00
38.1344 2080.00
38.1996 3137.00
38.2648 3450.00
38.33 2718.00
38.3952 1717.00
38.4604 1242.00
38.5256 1031.00
38.5908 942.00
38.656 774.00
38.7212 802.00
38.7864 812.00
38.8516 762.00
38.9168 816.00
38.982 856.00
39.0472 902.00
39.1124 1060.00
39.1776 1306.00
39.2428 1675.00
39.308 1894.00
39.3732 2036.00
39.4384 2583.00
39.5036 3202.00
39.5688 3700.00
39.634 3359.00
39.6992 2665.00
39.7644 1851.00
39.8296 1344.00
39.8948 1069.00
39.96 897.00
40.0252 820.00
40.0904 802.00
40.1556 777.00
40.2208 742.00
40.286 781.00
40.3512 760.00
40.4164 663.00
40.4816 743.00
40.5468 677.00
40.612 628.00
40.6772 693.00
40.7424 615.00
40.8076 611.00
40.8728 685.00
40.938 634.00
41.0032 626.00
41.0684 665.00
41.1336 602.00
41.1988 551.00
41.264 590.00
41.3292 644.00
41.3944 663.00
41.4596 593.00
41.5248 607.00
41.59 573.00
41.6552 576.00
41.7204 633.00
41.7856 638.00
41.8508 665.00
41.916 643.00
41.9812 621.00
42.0464 687.00
42.1116 655.00
42.1768 647.00
42.242 646.00
42.3072 662.00
42.3724 686.00
42.4376 676.00
42.5028 652.00
42.568 656.00
42.6332 667.00
42.6983 694.00
42.7635 732.00
42.8287 830.00
42.8939 1011.00
42.9591 1000.00
43.0243 979.00
43.0895 896.00
43.1547 833.00
43.2199 770.00
43.2851 690.00
43.3503 621.00
43.4155 602.00
43.4807 622.00
43.5459 714.00
43.6111 639.00
43.6763 621.00
43.7415 623.00
43.8067 598.00
43.8719 560.00
43.9371 561.00
44.0023 596.00
44.0675 663.00
44.1327 614.00
44.1979 701.00
44.2631 651.00
44.3283 578.00
44.3935 506.00
44.4587 597.00
44.5239 538.00
44.5891 552.00
44.6543 579.00
44.7195 512.00
44.7847 552.00
44.8499 520.00
44.9151 554.00
44.9803 536.00
45.0455 555.00
45.1107 562.00
45.1759 530.00
45.2411 548.00
45.3063 501.00
45.3715 546.00
45.4367 551.00
45.5019 517.00
45.5671 517.00
45.6323 513.00
45.6975 517.00
45.7627 475.00
45.8279 539.00
45.8931 517.00
45.9583 504.00
46.0235 525.00
46.0887 513.00
46.1539 528.00
46.2191 517.00
46.2843 537.00
46.3495 491.00
46.4147 463.00
46.4799 492.00
46.5451 560.00
46.6103 537.00
46.6755 490.00
46.7407 522.00
46.8059 559.00
46.8711 588.00
46.9363 510.00
47.0015 463.00
47.0667 572.00
47.1319 506.00
47.1971 569.00
47.2623 534.00
47.3275 555.00
47.3927 599.00
47.4579 578.00
47.523 628.00
47.5882 618.00
47.6534 623.00
47.7186 681.00
47.7838 652.00
47.849 686.00
47.9142 586.00
47.9794 600.00
48.0446 505.00
48.1098 496.00
48.175 520.00
48.2402 542.00
48.3054 534.00
48.3706 558.00
48.4358 512.00
48.501 506.00
48.5662 480.00
48.6314 570.00
48.6966 534.00
48.7618 558.00
48.827 528.00
48.8922 491.00
48.9574 540.00
49.0226 554.00
49.0878 529.00
49.153 560.00
49.2182 584.00
49.2834 535.00
49.3486 561.00
49.4138 504.00
49.479 511.00
49.5442 507.00
49.6094 500.00
49.6746 499.00
49.7398 588.00
49.805 571.00
49.8702 528.00
49.9354 500.00
50.0006 543.00
50.0658 564.00
50.131 604.00
50.1962 621.00
50.2614 607.00
50.3266 640.00
50.3918 595.00
50.457 621.00
50.5222 620.00
50.5874 615.00
50.6526 687.00
50.7178 683.00
50.783 624.00
50.8482 639.00
50.9134 661.00
50.9786 700.00
51.0438 724.00
51.109 799.00
51.1742 796.00
51.2394 922.00
51.3046 979.00
51.3698 1011.00
51.435 1093.00
51.5002 1038.00
51.5654 1034.00
51.6306 1085.00
51.6958 1291.00
51.761 1534.00
51.8262 2084.00
51.8914 2930.00
51.9566 5038.00
52.0218 8675.00
52.087 7981.00
52.1522 6025.00
52.2174 4704.00
52.2826 2488.00
52.3477 1694.00
52.4129 1287.00
52.4781 1037.00
52.5433 889.00
52.6085 796.00
52.6737 734.00
52.7389 652.00
52.8041 679.00
52.8693 656.00
52.9345 621.00
52.9997 578.00
53.0649 671.00
53.1301 595.00
53.1953 641.00
53.2605 626.00
53.3257 623.00
53.3909 604.00
53.4561 567.00
53.5213 565.00
53.5865 599.00
53.6517 537.00
53.7169 569.00
53.7821 576.00
53.8473 558.00
53.9125 577.00
53.9777 526.00
54.0429 542.00
54.1081 552.00
54.1733 535.00
54.2385 504.00
54.3037 563.00
54.3689 567.00
54.4341 597.00
54.4993 561.00
54.5645 647.00
54.6297 614.00
54.6949 722.00
54.7601 795.00
54.8253 893.00
54.8905 1179.00
54.9557 1832.00
55.0209 2453.00
55.0861 2007.00
55.1513 1691.00
55.2165 1306.00
55.2817 852.00
55.3469 730.00
55.4121 656.00
55.4773 652.00
55.5425 690.00
55.6077 691.00
55.6729 624.00
55.7381 714.00
55.8033 763.00
55.8685 839.00
55.9337 906.00
55.9989 1066.00
56.0641 1146.00
56.1293 1120.00
56.1945 1074.00
56.2597 953.00
56.3249 772.00
56.3901 643.00
56.4553 561.00
56.5205 533.00
56.5857 551.00
56.6509 564.00
56.7161 535.00
56.7813 510.00
56.8465 486.00
56.9117 535.00
56.9769 537.00
57.042 473.00
57.1073 536.00
57.1724 474.00
57.2376 537.00
57.3028 573.00
57.368 502.00
57.4332 537.00
57.4984 522.00
57.5636 549.00
57.6288 600.00
57.694 655.00
57.7592 799.00
57.8244 948.00
57.8896 1229.00
57.9548 1515.00
58.02 1794.00
58.0852 2134.00
58.1504 1530.00
58.2156 1397.00
58.2808 1244.00
58.346 852.00
58.4112 775.00
58.4764 692.00
58.5416 669.00
58.6068 637.00
58.672 558.00
58.7372 551.00
58.8024 549.00
58.8676 524.00
58.9328 498.00
58.998 495.00
59.0632 548.00
59.1284 499.00
59.1936 516.00
59.2588 462.00
59.324 514.00
59.3892 521.00
59.4544 538.00
59.5196 562.00
59.5848 525.00
59.65 530.00
59.7152 507.00
59.7804 493.00
59.8456 461.00
59.9108 489.00
59.976 491.00
60.0412 511.00
60.1064 517.00
60.1716 519.00
60.2368 518.00
60.302 565.00
60.3672 558.00
60.4324 622.00
60.4976 708.00
60.5628 824.00
60.628 891.00
60.6932 892.00
60.7584 849.00
60.8236 733.00
60.8888 717.00
60.954 627.00
61.0192 559.00
61.0844 488.00
61.1496 476.00
61.2148 460.00
61.28 499.00
61.3452 498.00
61.4104 543.00
61.4756 501.00
61.5408 549.00
61.606 550.00
61.6712 543.00
61.7364 596.00
61.8016 658.00
61.8667 667.00
61.932 847.00
61.9971 973.00
62.0623 1406.00
62.1275 2001.00
62.1927 1688.00
62.2579 1491.00
62.3231 1404.00
62.3883 997.00
62.4535 744.00
62.5187 661.00
62.5839 539.00
62.6491 495.00
62.7143 516.00
62.7795 498.00
62.8447 504.00
62.9099 493.00
62.9751 494.00
63.0403 466.00
63.1055 482.00
63.1707 420.00
63.2359 466.00
63.3011 422.00
63.3663 437.00
63.4315 461.00
63.4967 438.00
63.5619 444.00
63.6271 482.00
63.6923 444.00
63.7575 439.00
63.8227 507.00
63.8879 485.00
63.9531 480.00
64.0183 436.00
64.0835 460.00
64.1487 447.00
64.2139 434.00
64.2791 488.00
64.3443 485.00
64.4095 482.00
64.4747 507.00
64.5399 539.00
64.6051 560.00
64.6703 690.00
64.7355 727.00
64.8007 839.00
64.8659 1096.00
64.9311 1637.00
64.9963 2197.00
65.0615 1562.00
65.1267 1371.00
65.1919 1375.00
65.2571 896.00
65.3223 736.00
65.3875 626.00
65.4527 634.00
65.5179 597.00
65.5831 561.00
65.6483 537.00
65.7135 578.00
65.7787 613.00
65.8439 732.00
65.9091 779.00
65.9743 867.00
66.0395 998.00
66.1047 1505.00
66.1699 2171.00
66.2351 2395.00
66.3003 1785.00
66.3655 1825.00
66.4307 1646.00
66.4959 1179.00
66.561 898.00
66.6263 786.00
66.6915 671.00
66.7566 609.00
66.8218 561.00
66.887 531.00
66.9522 515.00
67.0174 437.00
67.0826 445.00
67.1478 397.00
67.213 465.00
67.2782 432.00
67.3434 441.00
67.4086 419.00
67.4738 443.00
67.539 421.00
67.6042 468.00
67.6694 415.00
67.7346 428.00
67.7998 434.00
67.865 515.00
67.9302 501.00
67.9954 598.00
68.0606 642.00
68.1258 685.00
68.191 794.00
68.2562 809.00
68.3214 725.00
68.3866 719.00
68.4518 642.00
68.517 621.00
68.5822 544.00
68.6474 511.00
68.7126 564.00
68.7778 539.00
68.843 500.00
68.9082 593.00
68.9734 584.00
69.0386 628.00
69.1038 626.00
69.169 569.00
69.2342 558.00
69.2994 495.00
69.3646 487.00
69.4298 454.00
69.495 436.00
69.5602 403.00
69.6254 400.00
69.6906 421.00
69.7558 393.00
69.821 364.00
69.8862 397.00
69.9514 347.00
70.0166 354.00
70.0818 395.00
70.147 355.00
70.2122 353.00
70.2774 389.00
70.3426 363.00
70.4078 378.00
70.473 364.00
70.5382 372.00
70.6034 395.00
70.6686 404.00
70.7338 370.00
70.799 390.00
70.8642 395.00
70.9294 400.00
70.9946 424.00
71.0598 422.00
71.125 444.00
71.1902 496.00
71.2554 481.00
71.3205 568.00
71.3858 749.00
71.451 973.00
71.5162 1229.00
71.5813 1010.00
71.6465 870.00
71.7117 951.00
71.7769 785.00
71.8421 649.00
71.9073 640.00
71.9725 646.00
72.0377 613.00
72.1029 741.00
72.1681 737.00
72.2333 781.00
72.2985 797.00
72.3637 796.00
72.4289 660.00
72.4941 604.00
72.5593 549.00
72.6245 499.00
72.6897 435.00
72.7549 432.00
72.8201 383.00
72.8853 418.00
72.9505 349.00
73.0157 388.00
73.0809 364.00
73.1461 337.00
73.2113 360.00
73.2765 411.00
73.3417 362.00
73.4069 356.00
73.4721 356.00
73.5373 352.00
73.6025 384.00
73.6677 349.00
73.7329 368.00
73.7981 352.00
73.8633 331.00
73.9285 346.00
73.9937 344.00
74.0589 317.00
74.1241 309.00
74.1893 356.00
74.2545 375.00
74.3197 358.00
74.3849 357.00
74.4501 357.00
74.5153 400.00
74.5805 412.00
74.6457 405.00
74.7109 445.00
74.7761 397.00
74.8413 399.00
74.9065 381.00
74.9717 376.00
75.0369 365.00
75.1021 355.00
75.1673 400.00
75.2325 348.00
75.2977 358.00
75.3629 339.00
75.4281 347.00
75.4933 374.00
75.5585 332.00
75.6237 321.00
75.6889 343.00
75.7541 312.00
75.8193 327.00
75.8845 341.00
75.9497 350.00
76.0149 307.00
76.0801 368.00
76.1452 347.00
76.2104 354.00
76.2756 341.00
76.3409 344.00
76.406 375.00
76.4712 349.00
76.5364 350.00
76.6016 312.00
76.6668 348.00
76.732 354.00
76.7972 326.00
76.8624 356.00
76.9276 329.00
76.9928 330.00
77.058 322.00
77.1232 315.00
77.1884 314.00
77.2536 352.00
77.3188 347.00
77.384 337.00
77.4492 318.00
77.5144 336.00
77.5796 333.00
77.6448 333.00
77.71 294.00
77.7752 340.00
77.8404 349.00
77.9056 325.00
77.9708 345.00
78.036 333.00
78.1012 306.00
78.1664 342.00
78.2316 379.00
78.2968 367.00
78.362 378.00
78.4272 388.00
78.4924 415.00
78.5576 439.00
78.6228 482.00
78.688 584.00
78.7532 663.00
78.8184 979.00
78.8836 1336.00
78.9488 1636.00
79.014 1213.00
79.0792 997.00
79.1444 1084.00
79.2096 929.00
79.2748 672.00
79.34 588.00
79.4052 432.00
79.4704 469.00
79.5356 463.00
79.6008 395.00
79.666 411.00
79.7312 366.00
79.7964 358.00
79.8616 409.00
79.9268 379.00
79.992 405.00
80.0572 447.00
80.1224 401.00
80.1876 410.00
80.2528 418.00
80.318 424.00
80.3832 355.00
80.4484 400.00
80.5136 411.00
80.5788 401.00
80.644 412.00
80.7092 415.00
80.7744 438.00
80.8396 457.00
80.9048 418.00
80.9699 508.00
81.0351 488.00
81.1003 483.00
81.1655 498.00
81.2307 540.00
81.2959 656.00
81.3611 707.00
81.4263 623.00
81.4915 540.00
81.5567 533.00
81.6219 553.00
81.6871 457.00
81.7523 417.00
81.8175 384.00
81.8827 410.00
81.9479 355.00
82.0131 359.00
82.0783 335.00
82.1435 314.00
82.2087 344.00
82.2739 363.00
82.3391 354.00
82.4043 318.00
82.4695 339.00
82.5347 317.00
82.5999 320.00
82.6651 347.00
82.7303 354.00
82.7955 340.00
82.8607 324.00
82.9259 351.00
82.9911 335.00
83.0563 309.00
83.1215 330.00
83.1867 338.00
83.2519 320.00
83.3171 386.00
83.3823 349.00
83.4475 366.00
83.5127 401.00
83.5779 368.00
83.6431 426.00
83.7083 457.00
83.7735 586.00
83.8387 787.00
83.9039 1098.00
83.9691 1074.00
84.0343 823.00
84.0995 790.00
84.1647 930.00
84.2299 775.00
84.2951 585.00
84.3603 526.00
84.4255 535.00
84.4907 465.00
84.5559 475.00
84.6211 491.00
84.6863 485.00
84.7515 490.00
84.8167 442.00
84.8819 449.00
84.9471 448.00
85.0123 391.00
85.0775 372.00
85.1427 387.00
85.2079 339.00
85.2731 326.00
85.3383 334.00
85.4035 350.00
85.4687 316.00
85.5339 302.00
85.5991 337.00
85.6643 301.00
85.7295 325.00
85.7946 331.00
85.8598 308.00
85.925 333.00
85.9903 303.00
86.0554 326.00
86.1206 305.00
86.1858 354.00
86.251 338.00
86.3162 309.00
86.3814 357.00
86.4466 333.00
86.5118 339.00
86.577 331.00
86.6422 356.00
86.7074 348.00
86.7726 315.00
86.8378 360.00
86.903 331.00
86.9682 370.00
87.0334 345.00
87.0986 370.00
87.1638 387.00
87.229 395.00
87.2942 461.00
87.3594 563.00
87.4246 660.00
87.4898 635.00
87.555 494.00
87.6202 493.00
87.6854 595.00
87.7506 486.00
87.8158 463.00
87.881 379.00
87.9462 357.00
88.0114 356.00
88.0766 349.00
88.1418 374.00
88.207 357.00
88.2722 341.00
88.3374 317.00
88.4026 333.00
88.4678 319.00
88.533 335.00
88.5982 355.00
88.6634 346.00
88.7286 331.00
88.7938 310.00
88.859 356.00
88.9242 346.00
88.9894 327.00
89.0546 322.00
89.1198 358.00
89.185 319.00
89.2502 385.00
89.3154 388.00
89.3806 420.00
89.4458 380.00
89.511 428.00
89.5762 421.00
89.6414 484.00
89.7066 507.00
89.7718 585.00
89.837 711.00
89.9022 918.00
89.9674 1296.00
90.0326 1186.00
90.0978 886.00
90.163 822.00
90.2282 896.00
90.2934 962.00
90.3586 760.00
90.4238 588.00
90.489 532.00
90.5542 516.00
90.6193 531.00
90.6845 500.00
90.7497 569.00
90.8149 558.00
90.8801 645.00
90.9453 728.00
91.0105 955.00
91.0757 1223.00
91.1409 1157.00
91.2061 949.00
91.2713 858.00
91.3365 959.00
91.4017 960.00
91.4669 756.00
91.5321 619.00
91.5973 511.00
91.6625 476.00
91.7277 464.00
91.7929 461.00
91.8581 438.00
91.9233 390.00
91.9885 388.00
92.0537 362.00
92.1189 338.00
92.1841 346.00
92.2493 357.00
92.3145 348.00
92.3797 330.00
92.4449 340.00
92.5101 347.00
92.5753 331.00
92.6405 340.00
92.7057 348.00
92.7709 322.00
92.8361 342.00
92.9013 379.00
92.9665 365.00
93.0317 389.00
93.0969 408.00
93.1621 388.00
93.2273 429.00
93.2925 440.00
93.3577 569.00
93.4229 659.00
93.4881 803.00
93.5533 719.00
93.6185 560.00
93.6837 588.00
93.7489 634.00
93.8141 629.00
93.8793 555.00
93.9445 413.00
94.0097 435.00
94.0749 406.00
94.1401 414.00
94.2053 372.00
94.2705 375.00
94.3357 328.00
94.4009 352.00
94.4661 346.00
94.5313 335.00
94.5965 326.00
94.6617 352.00
94.7269 325.00
94.7921 349.00
94.8573 344.00
94.9225 316.00
94.9877 333.00
95.0529 339.00
95.1181 371.00
95.1833 375.00
95.2485 327.00
95.3137 406.00
95.3789 431.00
95.444 401.00
95.5092 392.00
95.5744 433.00
95.6396 451.00
95.7048 467.00
95.77 537.00
95.8352 521.00
95.9004 537.00
95.9656 589.00
96.0308 677.00
96.096 752.00
96.1612 854.00
96.2264 979.00
96.2916 799.00
96.3568 665.00
96.422 648.00
96.4872 648.00
96.5524 628.00
96.6176 553.00
96.6828 499.00
96.748 420.00
96.8132 424.00
96.8784 396.00
96.9436 372.00
97.0088 372.00
97.074 365.00
97.1392 358.00
97.2044 384.00
97.2696 331.00
97.3348 336.00
97.4 330.00
97.4652 343.00
97.5304 315.00
97.5956 318.00
97.6608 347.00
97.726 345.00
97.7912 325.00
97.8564 324.00
97.9216 322.00
97.9868 336.00
98.052 351.00
98.1172 306.00
98.1824 296.00
98.2476 308.00
98.3128 337.00
98.378 315.00
98.4432 323.00
98.5084 335.00
98.5736 334.00
98.6388 341.00
98.704 329.00
98.7692 357.00
98.8344 326.00
98.8996 368.00
98.9648 420.00
99.03 436.00
99.0952 453.00
99.1604 459.00
99.2256 519.00
99.2908 517.00
99.356 477.00
99.4212 447.00
99.4864 447.00
99.5516 441.00
99.6168 414.00
99.682 436.00
99.7472 404.00
99.8124 356.00
99.8776 369.00
99.9428 361.00
100.008 323.00
100.073 363.00
100.095 328.00