File: data/xrd_creation/results/Na_92.xy
9.903433 2725.00
9.968632 2577.00
10.0338 2704.00
10.099 2560.00
10.1642 2615.00
10.2294 2503.00
10.2946 2581.00
10.3598 2556.00
10.425 2562.00
10.4902 2456.00
10.5554 2523.00
10.6206 2408.00
10.6858 2430.00
10.751 2366.00
10.8162 2373.00
10.8814 2359.00
10.9466 2434.00
11.0118 2610.00
11.077 2533.00
11.1422 2600.00
11.2074 2844.00
11.2726 3065.00
11.3378 3578.00
11.403 4158.00
11.4682 4903.00
11.5334 5497.00
11.5986 5639.00
11.6638 5101.00
11.729 4152.00
11.7942 3414.00
11.8594 2718.00
11.9246 2361.00
11.9898 2273.00
12.055 2087.00
12.1202 2139.00
12.1854 2069.00
12.2506 2126.00
12.3158 1956.00
12.381 2032.00
12.4462 2008.00
12.5114 2024.00
12.5766 2039.00
12.6418 2026.00
12.707 1968.00
12.7722 1947.00
12.8374 1885.00
12.9026 1862.00
12.9678 1834.00
13.033 1865.00
13.0982 1795.00
13.1634 1799.00
13.2286 1790.00
13.2938 1820.00
13.359 1749.00
13.4242 1814.00
13.4894 1804.00
13.5546 1787.00
13.6198 1772.00
13.685 1764.00
13.7502 1799.00
13.8154 1786.00
13.8805 1779.00
13.9457 1721.00
14.0109 1655.00
14.0761 1705.00
14.1413 1655.00
14.2065 1713.00
14.2717 1744.00
14.3369 1643.00
14.4021 1677.00
14.4673 1655.00
14.5325 1612.00
14.5977 1648.00
14.6629 1752.00
14.7281 1723.00
14.7933 1776.00
14.8585 1755.00
14.9237 1770.00
14.9889 1601.00
15.0541 1640.00
15.1193 1538.00
15.1845 1603.00
15.2497 1621.00
15.3149 1586.00
15.3801 1637.00
15.4453 1515.00
15.5105 1600.00
15.5757 1571.00
15.6409 1549.00
15.7061 1559.00
15.7713 1497.00
15.8365 1651.00
15.9017 1679.00
15.9669 1704.00
16.0321 1905.00
16.0973 2095.00
16.1625 2386.00
16.2277 2753.00
16.2929 2959.00
16.3581 3023.00
16.4233 2859.00
16.4885 2537.00
16.5537 2136.00
16.6189 1822.00
16.6841 1664.00
16.7493 1543.00
16.8145 1564.00
16.8797 1475.00
16.9449 1466.00
17.0101 1427.00
17.0753 1461.00
17.1405 1424.00
17.2057 1413.00
17.2709 1444.00
17.3361 1405.00
17.4013 1345.00
17.4665 1386.00
17.5317 1401.00
17.5969 1376.00
17.6621 1467.00
17.7273 1512.00
17.7925 1542.00
17.8577 1683.00
17.9229 1779.00
17.9881 1712.00
18.0533 1823.00
18.1185 1663.00
18.1837 1583.00
18.2489 1436.00
18.3141 1320.00
18.3793 1341.00
18.4445 1279.00
18.5097 1327.00
18.5749 1282.00
18.6401 1317.00
18.7052 1250.00
18.7704 1287.00
18.8356 1235.00
18.9008 1218.00
18.966 1242.00
19.0312 1254.00
19.0964 1176.00
19.1616 1267.00
19.2268 1233.00
19.292 1163.00
19.3572 1162.00
19.4224 1175.00
19.4876 1187.00
19.5528 1147.00
19.618 1165.00
19.6832 1130.00
19.7484 1225.00
19.8136 1189.00
19.8788 1208.00
19.944 1162.00
20.0092 1218.00
20.0744 1146.00
20.1396 1117.00
20.2048 1189.00
20.27 1169.00
20.3352 1126.00
20.4004 1102.00
20.4656 1066.00
20.5308 1123.00
20.596 1076.00
20.6612 1114.00
20.7264 1106.00
20.7916 1084.00
20.8568 1131.00
20.922 1060.00
20.9872 1090.00
21.0524 1033.00
21.1176 1118.00
21.1828 1102.00
21.248 1065.00
21.3132 1024.00
21.3784 1064.00
21.4436 1094.00
21.5088 1047.00
21.574 1086.00
21.6392 1018.00
21.7044 1085.00
21.7696 1072.00
21.8348 1090.00
21.9 987.00
21.9652 1074.00
22.0304 1055.00
22.0956 1040.00
22.1608 1036.00
22.226 967.00
22.2912 1013.00
22.3564 975.00
22.4216 997.00
22.4868 996.00
22.552 1001.00
22.6172 990.00
22.6824 1050.00
22.7476 965.00
22.8128 1027.00
22.878 967.00
22.9432 1020.00
23.0084 974.00
23.0736 1067.00
23.1388 1015.00
23.204 1064.00
23.2692 985.00
23.3344 976.00
23.3996 1059.00
23.4647 998.00
23.5299 935.00
23.5951 963.00
23.6603 919.00
23.7255 929.00
23.7907 1003.00
23.8559 1030.00
23.9211 1012.00
23.9863 1046.00
24.0515 1039.00
24.1167 1093.00
24.1819 1231.00
24.2471 1259.00
24.3123 1356.00
24.3775 1430.00
24.4427 1531.00
24.5079 1450.00
24.5731 1356.00
24.6383 1219.00
24.7035 1171.00
24.7687 1025.00
24.8339 995.00
24.8991 1067.00
24.9643 970.00
25.0295 996.00
25.0947 985.00
25.1599 1026.00
25.2251 1066.00
25.2903 1079.00
25.3555 1068.00
25.4207 1085.00
25.4859 1168.00
25.5511 1373.00
25.6163 1741.00
25.6815 2146.00
25.7467 2847.00
25.8119 3342.00
25.8771 3727.00
25.9423 3842.00
26.0075 3272.00
26.0727 2628.00
26.1379 2062.00
26.2031 1636.00
26.2683 1326.00
26.3335 1199.00
26.3987 1203.00
26.4639 1286.00
26.5291 1581.00
26.5943 1870.00
26.6595 2249.00
26.7247 2309.00
26.7899 2075.00
26.8551 1788.00
26.9203 1413.00
26.9855 1186.00
27.0507 1131.00
27.1159 985.00
27.1811 1116.00
27.2463 1049.00
27.3115 977.00
27.3767 1077.00
27.4419 1309.00
27.5071 1667.00
27.5723 2336.00
27.6375 2910.00
27.7027 3567.00
27.7679 3746.00
27.8331 3646.00
27.8983 3226.00
27.9635 2548.00
28.0287 1984.00
28.0939 1662.00
28.1591 1242.00
28.2243 1098.00
28.2894 1018.00
28.3546 869.00
28.4198 872.00
28.485 815.00
28.5502 789.00
28.6154 779.00
28.6806 781.00
28.7458 780.00
28.811 813.00
28.8762 725.00
28.9414 779.00
29.0066 775.00
29.0718 755.00
29.137 783.00
29.2022 783.00
29.2674 726.00
29.3326 735.00
29.3978 720.00
29.463 732.00
29.5282 748.00
29.5934 747.00
29.6586 791.00
29.7238 772.00
29.789 895.00
29.8542 1054.00
29.9194 1182.00
29.9846 1322.00
30.0498 1395.00
30.115 1439.00
30.1802 1382.00
30.2454 1251.00
30.3106 1247.00
30.3758 1212.00
30.441 1013.00
30.5062 894.00
30.5714 814.00
30.6366 793.00
30.7018 715.00
30.767 714.00
30.8322 742.00
30.8974 744.00
30.9626 715.00
31.0278 750.00
31.093 805.00
31.1582 868.00
31.2234 1025.00
31.2886 1051.00
31.3538 1147.00
31.419 1057.00
31.4842 1047.00
31.5494 1030.00
31.6146 998.00
31.6798 1118.00
31.745 1152.00
31.8102 1070.00
31.8754 1066.00
31.9406 917.00
32.0058 832.00
32.071 783.00
32.1362 732.00
32.2014 654.00
32.2666 752.00
32.3318 731.00
32.397 763.00
32.4622 773.00
32.5274 890.00
32.5926 979.00
32.6578 1446.00
32.723 2051.00
32.7882 3018.00
32.8534 3454.00
32.9186 3460.00
32.9838 3043.00
33.0489 2243.00
33.1141 1565.00
33.1793 1092.00
33.2445 863.00
33.3097 837.00
33.3749 738.00
33.4401 732.00
33.5053 750.00
33.5705 761.00
33.6357 844.00
33.7009 994.00
33.7661 1144.00
33.8313 1575.00
33.8965 1842.00
33.9617 2138.00
34.0269 2444.00
34.0921 2589.00
34.1573 3027.00
34.2225 3647.00
34.2877 4187.00
34.3529 4207.00
34.4181 3955.00
34.4833 3218.00
34.5485 2624.00
34.6137 2111.00
34.6789 1951.00
34.7441 1716.00
34.8093 1683.00
34.8745 1417.00
34.9397 1120.00
35.0049 959.00
35.0701 858.00
35.1353 822.00
35.2005 686.00
35.2657 696.00
35.3309 622.00
35.3961 572.00
35.4613 586.00
35.5265 584.00
35.5917 584.00
35.6569 583.00
35.7221 575.00
35.7873 596.00
35.8525 562.00
35.9177 602.00
35.9829 641.00
36.0481 716.00
36.1133 804.00
36.1785 752.00
36.2437 814.00
36.3089 839.00
36.3741 826.00
36.4393 836.00
36.5045 822.00
36.5697 772.00
36.6349 860.00
36.7001 903.00
36.7653 873.00
36.8305 895.00
36.8957 812.00
36.9609 741.00
37.0261 817.00
37.0913 719.00
37.1565 737.00
37.2217 630.00
37.2869 650.00
37.3521 590.00
37.4173 602.00
37.4825 504.00
37.5477 570.00
37.6129 660.00
37.6781 684.00
37.7433 703.00
37.8085 725.00
37.8736 693.00
37.9388 705.00
38.004 813.00
38.0692 828.00
38.1344 811.00
38.1996 773.00
38.2648 679.00
38.33 594.00
38.3952 516.00
38.4604 514.00
38.5256 483.00
38.5908 517.00
38.656 504.00
38.7212 515.00
38.7864 479.00
38.8516 558.00
38.9168 565.00
38.982 628.00
39.0472 604.00
39.1124 641.00
39.1776 603.00
39.2428 568.00
39.308 547.00
39.3732 517.00
39.4384 572.00
39.5036 495.00
39.5688 459.00
39.634 484.00
39.6992 447.00
39.7644 426.00
39.8296 502.00
39.8948 447.00
39.96 448.00
40.0252 455.00
40.0904 430.00
40.1556 454.00
40.2208 492.00
40.286 469.00
40.3512 516.00
40.4164 477.00
40.4816 527.00
40.5468 519.00
40.612 474.00
40.6772 437.00
40.7424 455.00
40.8076 514.00
40.8728 537.00
40.938 512.00
41.0032 534.00
41.0684 520.00
41.1336 513.00
41.1988 514.00
41.264 496.00
41.3292 591.00
41.3944 567.00
41.4596 655.00
41.5248 693.00
41.59 785.00
41.6552 809.00
41.7204 844.00
41.7856 766.00
41.8508 806.00
41.916 865.00
41.9812 874.00
42.0464 1042.00
42.1116 1116.00
42.1768 1059.00
42.242 1107.00
42.3072 1036.00
42.3724 919.00
42.4376 859.00
42.5028 657.00
42.568 623.00
42.6332 548.00
42.6983 537.00
42.7635 484.00
42.8287 457.00
42.8939 465.00
42.9591 485.00
43.0243 442.00
43.0895 463.00
43.1547 502.00
43.2199 546.00
43.2851 612.00
43.3503 732.00
43.4155 714.00
43.4807 689.00
43.5459 688.00
43.6111 621.00
43.6763 554.00
43.7415 591.00
43.8067 542.00
43.8719 500.00
43.9371 477.00
44.0023 458.00
44.0675 477.00
44.1327 464.00
44.1979 450.00
44.2631 448.00
44.3283 419.00
44.3935 480.00
44.4587 464.00
44.5239 447.00
44.5891 446.00
44.6543 469.00
44.7195 456.00
44.7847 511.00
44.8499 565.00
44.9151 594.00
44.9803 680.00
45.0455 669.00
45.1107 620.00
45.1759 687.00
45.2411 578.00
45.3063 644.00
45.3715 604.00
45.4367 604.00
45.5019 571.00
45.5671 508.00
45.6323 554.00
45.6975 483.00
45.7627 417.00
45.8279 460.00
45.8931 482.00
45.9583 440.00
46.0235 470.00
46.0887 513.00
46.1539 446.00
46.2191 464.00
46.2843 419.00
46.3495 461.00
46.4147 433.00
46.4799 447.00
46.5451 503.00
46.6103 544.00
46.6755 593.00
46.7407 597.00
46.8059 693.00
46.8711 754.00
46.9363 752.00
47.0015 783.00
47.0667 792.00
47.1319 990.00
47.1971 1094.00
47.2623 1264.00
47.3275 1324.00
47.3927 1338.00
47.4579 1191.00
47.523 984.00
47.5882 800.00
47.6534 663.00
47.7186 536.00
47.7838 485.00
47.849 421.00
47.9142 458.00
47.9794 477.00
48.0446 449.00
48.1098 448.00
48.175 458.00
48.2402 485.00
48.3054 535.00
48.3706 523.00
48.4358 591.00
48.501 590.00
48.5662 564.00
48.6314 558.00
48.6966 583.00
48.7618 584.00
48.827 677.00
48.8922 747.00
48.9574 698.00
49.0226 651.00
49.0878 657.00
49.153 607.00
49.2182 599.00
49.2834 569.00
49.3486 640.00
49.4138 715.00
49.479 836.00
49.5442 958.00
49.6094 990.00
49.6746 1024.00
49.7398 945.00
49.805 975.00
49.8702 936.00
49.9354 986.00
50.0006 960.00
50.0658 1034.00
50.131 1019.00
50.1962 952.00
50.2614 872.00
50.3266 743.00
50.3918 674.00
50.457 592.00
50.5222 472.00
50.5874 430.00
50.6526 443.00
50.7178 404.00
50.783 433.00
50.8482 381.00
50.9134 471.00
50.9786 414.00
51.0438 437.00
51.109 439.00
51.1742 462.00
51.2394 484.00
51.3046 485.00
51.3698 486.00
51.435 593.00
51.5002 762.00
51.5654 978.00
51.6306 1159.00
51.6958 1334.00
51.761 1466.00
51.8262 1628.00
51.8914 1630.00
51.9566 1471.00
52.0218 1291.00
52.087 946.00
52.1522 760.00
52.2174 556.00
52.2826 467.00
52.3477 409.00
52.4129 378.00
52.4781 386.00
52.5433 409.00
52.6085 378.00
52.6737 395.00
52.7389 454.00
52.8041 542.00
52.8693 605.00
52.9345 685.00
52.9997 702.00
53.0649 703.00
53.1301 682.00
53.1953 648.00
53.2605 636.00
53.3257 588.00
53.3909 558.00
53.4561 492.00
53.5213 459.00
53.5865 459.00
53.6517 480.00
53.7169 505.00
53.7821 507.00
53.8473 494.00
53.9125 505.00
53.9777 462.00
54.0429 452.00
54.1081 467.00
54.1733 496.00
54.2385 491.00
54.3037 461.00
54.3689 526.00
54.4341 504.00
54.4993 474.00
54.5645 546.00
54.6297 534.00
54.6949 579.00
54.7601 632.00
54.8253 676.00
54.8905 694.00
54.9557 594.00
55.0209 581.00
55.0861 572.00
55.1513 562.00
55.2165 569.00
55.2817 631.00
55.3469 683.00
55.4121 745.00
55.4773 685.00
55.5425 656.00
55.6077 534.00
55.6729 504.00
55.7381 473.00
55.8033 445.00
55.8685 452.00
55.9337 485.00
55.9989 501.00
56.0641 558.00
56.1293 538.00
56.1945 535.00
56.2597 528.00
56.3249 497.00
56.3901 474.00
56.4553 470.00
56.5205 521.00
56.5857 569.00
56.6509 574.00
56.7161 561.00
56.7813 653.00
56.8465 602.00
56.9117 599.00
56.9769 595.00
57.042 616.00
57.1073 602.00
57.1724 661.00
57.2376 596.00
57.3028 623.00
57.368 554.00
57.4332 547.00
57.4984 500.00
57.5636 511.00
57.6288 497.00
57.694 515.00
57.7592 556.00
57.8244 566.00
57.8896 607.00
57.9548 606.00
58.02 590.00
58.0852 666.00
58.1504 690.00
58.2156 772.00
58.2808 824.00
58.346 914.00
58.4112 906.00
58.4764 896.00
58.5416 783.00
58.6068 743.00
58.672 730.00
58.7372 710.00
58.8024 735.00
58.8676 653.00
58.9328 656.00
58.998 681.00
59.0632 697.00
59.1284 750.00
59.1936 823.00
59.2588 911.00
59.324 1033.00
59.3892 1178.00
59.4544 1251.00
59.5196 1291.00
59.5848 1176.00
59.65 1041.00
59.7152 923.00
59.7804 866.00
59.8456 864.00
59.9108 879.00
59.976 889.00
60.0412 892.00
60.1064 880.00
60.1716 795.00
60.2368 686.00
60.302 648.00
60.3672 530.00
60.4324 499.00
60.4976 436.00
60.5628 425.00
60.628 428.00
60.6932 475.00
60.7584 410.00
60.8236 417.00
60.8888 411.00
60.954 419.00
61.0192 369.00
61.0844 342.00
61.1496 378.00
61.2148 388.00
61.28 369.00
61.3452 372.00
61.4104 412.00
61.4756 458.00
61.5408 454.00
61.606 470.00
61.6712 482.00
61.7364 430.00
61.8016 522.00
61.8667 557.00
61.932 619.00
61.9971 636.00
62.0623 686.00
62.1275 685.00
62.1927 665.00
62.2579 649.00
62.3231 592.00
62.3883 563.00
62.4535 437.00
62.5187 450.00
62.5839 454.00
62.6491 557.00
62.7143 526.00
62.7795 601.00
62.8447 607.00
62.9099 599.00
62.9751 559.00
63.0403 551.00
63.1055 437.00
63.1707 433.00
63.2359 376.00
63.3011 386.00
63.3663 373.00
63.4315 374.00
63.4967 400.00
63.5619 408.00
63.6271 412.00
63.6923 439.00
63.7575 408.00
63.8227 410.00
63.8879 451.00
63.9531 455.00
64.0183 443.00
64.0835 419.00
64.1487 472.00
64.2139 441.00
64.2791 442.00
64.3443 444.00
64.4095 435.00
64.4747 457.00
64.5399 447.00
64.6051 493.00
64.6703 560.00
64.7355 654.00
64.8007 703.00
64.8659 743.00
64.9311 618.00
64.9963 594.00
65.0615 515.00
65.1267 525.00
65.1919 474.00
65.2571 491.00
65.3223 474.00
65.3875 499.00
65.4527 474.00
65.5179 464.00
65.5831 518.00
65.6483 553.00
65.7135 539.00
65.7787 566.00
65.8439 627.00
65.9091 641.00
65.9743 730.00
66.0395 673.00
66.1047 737.00
66.1699 655.00
66.2351 538.00
66.3003 519.00
66.3655 493.00
66.4307 433.00
66.4959 460.00
66.561 427.00
66.6263 405.00
66.6915 399.00
66.7566 420.00
66.8218 414.00
66.887 430.00
66.9522 358.00
67.0174 407.00
67.0826 387.00
67.1478 401.00
67.213 394.00
67.2782 400.00
67.3434 395.00
67.4086 385.00
67.4738 358.00
67.539 351.00
67.6042 355.00
67.6694 362.00
67.7346 370.00
67.7998 427.00
67.865 430.00
67.9302 386.00
67.9954 406.00
68.0606 420.00
68.1258 355.00
68.191 367.00
68.2562 354.00
68.3214 395.00
68.3866 423.00
68.4518 451.00
68.517 425.00
68.5822 467.00
68.6474 424.00
68.7126 460.00
68.7778 458.00
68.843 425.00
68.9082 412.00
68.9734 394.00
69.0386 357.00
69.1038 331.00
69.169 365.00
69.2342 346.00
69.2994 359.00
69.3646 272.00
69.4298 312.00
69.495 346.00
69.5602 305.00
69.6254 303.00
69.6906 336.00
69.7558 297.00
69.821 300.00
69.8862 308.00
69.9514 292.00
70.0166 278.00
70.0818 263.00
70.147 298.00
70.2122 308.00
70.2774 274.00
70.3426 277.00
70.4078 287.00
70.473 295.00
70.5382 321.00
70.6034 307.00
70.6686 312.00
70.7338 286.00
70.799 273.00
70.8642 306.00
70.9294 295.00
70.9946 320.00
71.0598 284.00
71.125 291.00
71.1902 341.00
71.2554 359.00
71.3205 381.00
71.3858 381.00
71.451 381.00
71.5162 369.00
71.5813 373.00
71.6465 324.00
71.7117 307.00
71.7769 294.00
71.8421 346.00
71.9073 314.00
71.9725 363.00
72.0377 439.00
72.1029 498.00
72.1681 472.00
72.2333 457.00
72.2985 455.00
72.3637 429.00
72.4289 325.00
72.4941 342.00
72.5593 340.00
72.6245 270.00
72.6897 282.00
72.7549 274.00
72.8201 319.00
72.8853 296.00
72.9505 295.00
73.0157 344.00
73.0809 381.00
73.1461 407.00
73.2113 466.00
73.2765 454.00
73.3417 457.00
73.4069 421.00
73.4721 337.00
73.5373 352.00
73.6025 323.00
73.6677 293.00
73.7329 276.00
73.7981 279.00
73.8633 305.00
73.9285 250.00
73.9937 296.00
74.0589 301.00
74.1241 339.00
74.1893 333.00
74.2545 391.00
74.3197 412.00
74.3849 383.00
74.4501 359.00
74.5153 314.00
74.5805 298.00
74.6457 301.00
74.7109 308.00
74.7761 323.00
74.8413 284.00
74.9065 295.00
74.9717 304.00
75.0369 301.00
75.1021 318.00
75.1673 361.00
75.2325 343.00
75.2977 342.00
75.3629 319.00
75.4281 325.00
75.4933 301.00
75.5585 248.00
75.6237 287.00
75.6889 245.00
75.7541 265.00
75.8193 292.00
75.8845 273.00
75.9497 284.00
76.0149 345.00
76.0801 288.00
76.1452 297.00
76.2104 336.00
76.2756 311.00
76.3409 312.00
76.406 307.00
76.4712 314.00
76.5364 336.00
76.6016 345.00
76.6668 354.00
76.732 320.00
76.7972 315.00
76.8624 320.00
76.9276 341.00
76.9928 370.00
77.058 389.00
77.1232 392.00
77.1884 385.00
77.2536 388.00
77.3188 364.00
77.384 357.00
77.4492 326.00
77.5144 295.00
77.5796 285.00
77.6448 282.00
77.71 313.00
77.7752 306.00
77.8404 301.00
77.9056 351.00
77.9708 304.00
78.036 284.00
78.1012 296.00
78.1664 325.00
78.2316 289.00
78.2968 259.00
78.362 280.00
78.4272 360.00
78.4924 355.00
78.5576 416.00
78.6228 470.00
78.688 464.00
78.7532 555.00
78.8184 618.00
78.8836 582.00
78.9488 513.00
79.014 534.00
79.0792 450.00
79.1444 388.00
79.2096 404.00
79.2748 352.00
79.34 340.00
79.4052 321.00
79.4704 311.00
79.5356 296.00
79.6008 331.00
79.666 246.00
79.7312 273.00
79.7964 288.00
79.8616 297.00
79.9268 342.00
79.992 342.00
80.0572 375.00
80.1224 353.00
80.1876 351.00
80.2528 360.00
80.318 343.00
80.3832 335.00
80.4484 309.00
80.5136 317.00
80.5788 300.00
80.644 295.00
80.7092 340.00
80.7744 314.00
80.8396 340.00
80.9048 295.00
80.9699 342.00
81.0351 335.00
81.1003 317.00
81.1655 380.00
81.2307 345.00
81.2959 351.00
81.3611 360.00
81.4263 329.00
81.4915 352.00
81.5567 323.00
81.6219 289.00
81.6871 288.00
81.7523 353.00
81.8175 308.00
81.8827 290.00
81.9479 278.00
82.0131 245.00
82.0783 289.00
82.1435 260.00
82.2087 263.00
82.2739 274.00
82.3391 310.00
82.4043 312.00
82.4695 305.00
82.5347 341.00
82.5999 334.00
82.6651 321.00
82.7303 321.00
82.7955 331.00
82.8607 314.00
82.9259 318.00
82.9911 316.00
83.0563 342.00
83.1215 292.00
83.1867 290.00
83.2519 297.00
83.3171 332.00
83.3823 311.00
83.4475 361.00
83.5127 365.00
83.5779 361.00
83.6431 397.00
83.7083 459.00
83.7735 474.00
83.8387 449.00
83.9039 433.00
83.9691 404.00
84.0343 371.00
84.0995 324.00
84.1647 313.00
84.2299 313.00
84.2951 281.00
84.3603 281.00
84.4255 291.00
84.4907 298.00
84.5559 325.00
84.6211 364.00
84.6863 375.00
84.7515 340.00
84.8167 316.00
84.8819 326.00
84.9471 363.00
85.0123 327.00
85.0775 360.00
85.1427 342.00
85.2079 314.00
85.2731 316.00
85.3383 308.00
85.4035 324.00
85.4687 295.00
85.5339 325.00
85.5991 321.00
85.6643 309.00
85.7295 313.00
85.7946 335.00
85.8598 339.00
85.925 379.00
85.9903 380.00
86.0554 410.00
86.1206 368.00
86.1858 324.00
86.251 360.00
86.3162 356.00
86.3814 333.00
86.4466 379.00
86.5118 327.00
86.577 312.00
86.6422 335.00
86.7074 330.00
86.7726 340.00
86.8378 326.00
86.903 349.00
86.9682 342.00
87.0334 340.00
87.0986 351.00
87.1638 335.00
87.229 380.00
87.2942 392.00
87.3594 358.00
87.4246 342.00
87.4898 335.00
87.555 316.00
87.6202 326.00
87.6854 342.00
87.7506 309.00
87.8158 261.00
87.881 275.00
87.9462 282.00
88.0114 288.00
88.0766 278.00
88.1418 300.00
88.207 292.00
88.2722 307.00
88.3374 361.00
88.4026 369.00
88.4678 358.00
88.533 341.00
88.5982 356.00
88.6634 374.00
88.7286 349.00
88.7938 338.00
88.859 304.00
88.9242 304.00
88.9894 307.00
89.0546 326.00
89.1198 334.00
89.185 331.00
89.2502 315.00
89.3154 359.00
89.3806 363.00
89.4458 343.00
89.511 340.00
89.5762 332.00
89.6414 315.00
89.7066 344.00
89.7718 424.00
89.837 387.00
89.9022 369.00
89.9674 405.00
90.0326 394.00
90.0978 400.00
90.163 385.00
90.2282 403.00
90.2934 357.00
90.3586 358.00
90.4238 356.00
90.489 380.00
90.5542 333.00
90.6193 354.00
90.6845 330.00
90.7497 330.00
90.8149 356.00
90.8801 411.00
90.9453 395.00
91.0105 432.00
91.0757 411.00
91.1409 349.00
91.2061 386.00
91.2713 432.00
91.3365 374.00
91.4017 351.00
91.4669 388.00
91.5321 351.00
91.5973 344.00
91.6625 379.00
91.7277 332.00
91.7929 356.00
91.8581 350.00
91.9233 367.00
91.9885 335.00
92.0537 333.00
92.1189 290.00
92.1841 312.00
92.2493 315.00
92.3145 294.00
92.3797 318.00
92.4449 317.00
92.5101 292.00
92.5753 374.00
92.6405 312.00
92.7057 307.00
92.7709 312.00
92.8361 348.00
92.9013 308.00
92.9665 286.00
93.0317 270.00
93.0969 315.00
93.1621 311.00
93.2273 306.00
93.2925 332.00
93.3577 368.00
93.4229 336.00
93.4881 291.00
93.5533 320.00
93.6185 297.00
93.6837 355.00
93.7489 297.00
93.8141 283.00
93.8793 267.00
93.9445 275.00
94.0097 262.00
94.0749 269.00
94.1401 264.00
94.2053 271.00
94.2705 275.00
94.3357 258.00
94.4009 263.00
94.4661 292.00
94.5313 269.00
94.5965 279.00
94.6617 265.00
94.7269 280.00
94.7921 248.00
94.8573 278.00
94.9225 279.00
94.9877 241.00
95.0529 265.00
95.1181 282.00
95.1833 263.00
95.2485 286.00
95.3137 307.00
95.3789 267.00
95.444 309.00
95.5092 276.00
95.5744 308.00
95.6396 331.00
95.7048 314.00
95.77 344.00
95.8352 325.00
95.9004 314.00
95.9656 353.00
96.0308 357.00
96.096 345.00
96.1612 422.00
96.2264 361.00
96.2916 334.00
96.3568 341.00
96.422 313.00
96.4872 301.00
96.5524 311.00
96.6176 330.00
96.6828 338.00
96.748 352.00
96.8132 340.00
96.8784 348.00
96.9436 377.00
97.0088 365.00
97.074 412.00
97.1392 388.00
97.2044 384.00
97.2696 353.00
97.3348 399.00
97.4 356.00
97.4652 381.00
97.5304 323.00
97.5956 311.00
97.6608 358.00
97.726 337.00
97.7912 325.00
97.8564 308.00
97.9216 290.00
97.9868 326.00
98.052 309.00
98.1172 310.00
98.1824 283.00
98.2476 286.00
98.3128 285.00
98.378 278.00
98.4432 307.00
98.5084 275.00
98.5736 324.00
98.6388 314.00
98.704 297.00
98.7692 267.00
98.8344 282.00
98.8996 289.00
98.9648 274.00
99.03 314.00
99.0952 248.00
99.1604 288.00
99.2256 298.00
99.2908 308.00
99.356 336.00
99.4212 323.00
99.4864 345.00
99.5516 343.00
99.6168 396.00
99.682 376.00
99.7472 341.00
99.8124 314.00
99.8776 367.00
99.9428 354.00
100.008 345.00
100.073 322.00
100.095 330.00