File: data/xrd_creation/results/NSC_3.xy
9.903433 2892.00
9.968632 2788.00
10.0338 2828.00
10.099 2798.00
10.1642 2751.00
10.2294 2761.00
10.2946 2723.00
10.3598 2780.00
10.425 2665.00
10.4902 2680.00
10.5554 2629.00
10.6206 2714.00
10.6858 2724.00
10.751 2614.00
10.8162 2641.00
10.8814 2542.00
10.9466 2623.00
11.0118 2513.00
11.077 2499.00
11.1422 2547.00
11.2074 2542.00
11.2726 2464.00
11.3378 2522.00
11.403 2435.00
11.4682 2432.00
11.5334 2414.00
11.5986 2468.00
11.6638 2495.00
11.729 2280.00
11.7942 2425.00
11.8594 2316.00
11.9246 2403.00
11.9898 2330.00
12.055 2310.00
12.1202 2261.00
12.1854 2278.00
12.2506 2295.00
12.3158 2295.00
12.381 2228.00
12.4462 2284.00
12.5114 2282.00
12.5766 2249.00
12.6418 2227.00
12.707 2180.00
12.7722 2183.00
12.8374 2152.00
12.9026 2214.00
12.9678 2139.00
13.033 2156.00
13.0982 2208.00
13.1634 2170.00
13.2286 2112.00
13.2938 2163.00
13.359 2137.00
13.4242 2139.00
13.4894 2154.00
13.5546 2114.00
13.6198 2141.00
13.685 2059.00
13.7502 2057.00
13.8154 2223.00
13.8805 2050.00
13.9457 2174.00
14.0109 2142.00
14.0761 2269.00
14.1413 2314.00
14.2065 2495.00
14.2717 2663.00
14.3369 2997.00
14.4021 3193.00
14.4673 3005.00
14.5325 2597.00
14.5977 2389.00
14.6629 2170.00
14.7281 2228.00
14.7933 2219.00
14.8585 2122.00
14.9237 2210.00
14.9889 2242.00
15.0541 2426.00
15.1193 2559.00
15.1845 2759.00
15.2497 2982.00
15.3149 2862.00
15.3801 2315.00
15.4453 2230.00
15.5105 2041.00
15.5757 1985.00
15.6409 2002.00
15.7061 2013.00
15.7713 1960.00
15.8365 2058.00
15.9017 1900.00
15.9669 2013.00
16.0321 1979.00
16.0973 2013.00
16.1625 1961.00
16.2277 1994.00
16.2929 1948.00
16.3581 1891.00
16.4233 1966.00
16.4885 1869.00
16.5537 1933.00
16.6189 1882.00
16.6841 1913.00
16.7493 1877.00
16.8145 1789.00
16.8797 1910.00
16.9449 1898.00
17.0101 1954.00
17.0753 1910.00
17.1405 1856.00
17.2057 1887.00
17.2709 1878.00
17.3361 1866.00
17.4013 1904.00
17.4665 1880.00
17.5317 1958.00
17.5969 1902.00
17.6621 2048.00
17.7273 1928.00
17.7925 1926.00
17.8577 1836.00
17.9229 1845.00
17.9881 1872.00
18.0533 1819.00
18.1185 1745.00
18.1837 1806.00
18.2489 1870.00
18.3141 1800.00
18.3793 1904.00
18.4445 1906.00
18.5097 1791.00
18.5749 1995.00
18.6401 1991.00
18.7052 2060.00
18.7704 2319.00
18.8356 2680.00
18.9008 3196.00
18.966 3233.00
19.0312 2576.00
19.0964 2025.00
19.1616 1823.00
19.2268 1942.00
19.292 1946.00
19.3572 1954.00
19.4224 2026.00
19.4876 2046.00
19.5528 2316.00
19.618 2581.00
19.6832 3203.00
19.7484 3838.00
19.8136 4748.00
19.8788 5272.00
19.944 4957.00
20.0092 3721.00
20.0744 2894.00
20.1396 2405.00
20.2048 2284.00
20.27 2351.00
20.3352 2496.00
20.4004 2754.00
20.4656 3165.00
20.5308 4065.00
20.596 5431.00
20.6612 6479.00
20.7264 6884.00
20.7916 6176.00
20.8568 5586.00
20.922 5201.00
20.9872 4759.00
21.0524 3956.00
21.1176 2775.00
21.1828 2368.00
21.248 2155.00
21.3132 2074.00
21.3784 2144.00
21.4436 2169.00
21.5088 2274.00
21.574 2569.00
21.6392 3293.00
21.7044 4417.00
21.7696 6390.00
21.8348 8655.00
21.9 7937.00
21.9652 6120.00
22.0304 5191.00
22.0956 4728.00
22.1608 3730.00
22.226 2735.00
22.2912 2297.00
22.3564 2088.00
22.4216 1894.00
22.4868 1864.00
22.552 1779.00
22.6172 1767.00
22.6824 1796.00
22.7476 1786.00
22.8128 1762.00
22.878 1717.00
22.9432 1672.00
23.0084 1795.00
23.0736 1707.00
23.1388 1731.00
23.204 1803.00
23.2692 1753.00
23.3344 1917.00
23.3996 1928.00
23.4647 2018.00
23.5299 2146.00
23.5951 2547.00
23.6603 3048.00
23.7255 3952.00
23.7907 5317.00
23.8559 6235.00
23.9211 6022.00
23.9863 4669.00
24.0515 3457.00
24.1167 2654.00
24.1819 2487.00
24.2471 2722.00
24.3123 3262.00
24.3775 3910.00
24.4427 3951.00
24.5079 3087.00
24.5731 2354.00
24.6383 2080.00
24.7035 2093.00
24.7687 2104.00
24.8339 2169.00
24.8991 2141.00
24.9643 2171.00
25.0295 2382.00
25.0947 2642.00
25.1599 3217.00
25.2251 4029.00
25.2903 4830.00
25.3555 5107.00
25.4207 4530.00
25.4859 3426.00
25.5511 2394.00
25.6163 1975.00
25.6815 1827.00
25.7467 1760.00
25.8119 1767.00
25.8771 1745.00
25.9423 1765.00
26.0075 1714.00
26.0727 1873.00
26.1379 2047.00
26.2031 2407.00
26.2683 2665.00
26.3335 2510.00
26.3987 2003.00
26.4639 1898.00
26.5291 1876.00
26.5943 2040.00
26.6595 2606.00
26.7247 3180.00
26.7899 3138.00
26.8551 2556.00
26.9203 1877.00
26.9855 1709.00
27.0507 1525.00
27.1159 1439.00
27.1811 1570.00
27.2463 1470.00
27.3115 1491.00
27.3767 1494.00
27.4419 1503.00
27.5071 1594.00
27.5723 1442.00
27.6375 1519.00
27.7027 1459.00
27.7679 1510.00
27.8331 1556.00
27.8983 1483.00
27.9635 1677.00
28.0287 1697.00
28.0939 1709.00
28.1591 1697.00
28.2243 1904.00
28.2894 2152.00
28.3546 2775.00
28.4198 3949.00
28.485 4934.00
28.5502 5119.00
28.6154 4750.00
28.6806 4403.00
28.7458 4239.00
28.811 3548.00
28.8762 2740.00
28.9414 2313.00
29.0066 1952.00
29.0718 1809.00
29.137 1605.00
29.2022 1584.00
29.2674 1503.00
29.3326 1558.00
29.3978 1497.00
29.463 1588.00
29.5282 1633.00
29.5934 1634.00
29.6586 1550.00
29.7238 1534.00
29.789 1501.00
29.8542 1501.00
29.9194 1519.00
29.9846 1648.00
30.0498 1718.00
30.115 1849.00
30.1802 1963.00
30.2454 2160.00
30.3106 2392.00
30.3758 2892.00
30.441 3236.00
30.5062 3388.00
30.5714 2950.00
30.6366 2517.00
30.7018 2095.00
30.767 2121.00
30.8322 2524.00
30.8974 3078.00
30.9626 3258.00
31.0278 2698.00
31.093 2307.00
31.1582 2017.00
31.2234 2036.00
31.2886 2227.00
31.3538 2419.00
31.419 3073.00
31.4842 3758.00
31.5494 4807.00
31.6146 5928.00
31.6798 6503.00
31.745 6074.00
31.8102 5143.00
31.8754 4005.00
31.9406 3069.00
32.0058 2463.00
32.071 2100.00
32.1362 1814.00
32.2014 1749.00
32.2666 1626.00
32.3318 1522.00
32.397 1548.00
32.4622 1554.00
32.5274 1488.00
32.5926 1583.00
32.6578 1500.00
32.723 1611.00
32.7882 1553.00
32.8534 1584.00
32.9186 1621.00
32.9838 1771.00
33.0489 1855.00
33.1141 2051.00
33.1793 2335.00
33.2445 2805.00
33.3097 3314.00
33.3749 3796.00
33.4401 4320.00
33.5053 3841.00
33.5705 3131.00
33.6357 2268.00
33.7009 1846.00
33.7661 1731.00
33.8313 1763.00
33.8965 1648.00
33.9617 1880.00
34.0269 1901.00
34.0921 1980.00
34.1573 1934.00
34.2225 1763.00
34.2877 1793.00
34.3529 1882.00
34.4181 1898.00
34.4833 1915.00
34.5485 1654.00
34.6137 1589.00
34.6789 1786.00
34.7441 1761.00
34.8093 1703.00
34.8745 1639.00
34.9397 1521.00
35.0049 1486.00
35.0701 1548.00
35.1353 1541.00
35.2005 1529.00
35.2657 1659.00
35.3309 1738.00
35.3961 2133.00
35.4613 2465.00
35.5265 2552.00
35.5917 2679.00
35.6569 2613.00
35.7221 2460.00
35.7873 2397.00
35.8525 2554.00
35.9177 2722.00
35.9829 2803.00
36.0481 2895.00
36.1133 2574.00
36.1785 2603.00
36.2437 2766.00
36.3089 3213.00
36.3741 3731.00
36.4393 3459.00
36.5045 2667.00
36.5697 1963.00
36.6349 1643.00
36.7001 1453.00
36.7653 1325.00
36.8305 1245.00
36.8957 1351.00
36.9609 1314.00
37.0261 1275.00
37.0913 1294.00
37.1565 1224.00
37.2217 1288.00
37.2869 1283.00
37.3521 1303.00
37.4173 1311.00
37.4825 1346.00
37.5477 1401.00
37.6129 1427.00
37.6781 1437.00
37.7433 1606.00
37.8085 1731.00
37.8736 1653.00
37.9388 1739.00
38.004 1838.00
38.0692 1756.00
38.1344 1807.00
38.1996 1868.00
38.2648 1898.00
38.33 2007.00
38.3952 2106.00
38.4604 2048.00
38.5256 2033.00
38.5908 1781.00
38.656 1610.00
38.7212 1424.00
38.7864 1440.00
38.8516 1456.00
38.9168 1387.00
38.982 1403.00
39.0472 1283.00
39.1124 1188.00
39.1776 1276.00
39.2428 1229.00
39.308 1214.00
39.3732 1153.00
39.4384 1294.00
39.5036 1274.00
39.5688 1382.00
39.634 1484.00
39.6992 1582.00
39.7644 1563.00
39.8296 1454.00
39.8948 1394.00
39.96 1348.00
40.0252 1419.00
40.0904 1380.00
40.1556 1368.00
40.2208 1378.00
40.286 1275.00
40.3512 1262.00
40.4164 1285.00
40.4816 1354.00
40.5468 1301.00
40.612 1369.00
40.6772 1379.00
40.7424 1304.00
40.8076 1290.00
40.8728 1359.00
40.938 1431.00
41.0032 1523.00
41.0684 1483.00
41.1336 1520.00
41.1988 1399.00
41.264 1308.00
41.3292 1347.00
41.3944 1406.00
41.4596 1321.00
41.5248 1432.00
41.59 1587.00
41.6552 1586.00
41.7204 1708.00
41.7856 1718.00
41.8508 1658.00
41.916 1554.00
41.9812 1534.00
42.0464 1560.00
42.1116 1438.00
42.1768 1480.00
42.242 1369.00
42.3072 1440.00
42.3724 1367.00
42.4376 1338.00
42.5028 1342.00
42.568 1290.00
42.6332 1168.00
42.6983 1257.00
42.7635 1139.00
42.8287 1130.00
42.8939 1195.00
42.9591 1120.00
43.0243 1224.00
43.0895 1234.00
43.1547 1217.00
43.2199 1292.00
43.2851 1335.00
43.3503 1458.00
43.4155 1499.00
43.4807 1587.00
43.5459 1661.00
43.6111 1615.00
43.6763 1517.00
43.7415 1476.00
43.8067 1456.00
43.8719 1398.00
43.9371 1444.00
44.0023 1534.00
44.0675 1482.00
44.1327 1493.00
44.1979 1516.00
44.2631 1440.00
44.3283 1359.00
44.3935 1262.00
44.4587 1313.00
44.5239 1272.00
44.5891 1339.00
44.6543 1344.00
44.7195 1297.00
44.7847 1336.00
44.8499 1354.00
44.9151 1337.00
44.9803 1465.00
45.0455 1552.00
45.1107 1639.00
45.1759 1768.00
45.2411 1846.00
45.3063 1923.00
45.3715 1976.00
45.4367 1913.00
45.5019 1914.00
45.5671 1969.00
45.6323 1735.00
45.6975 1735.00
45.7627 1632.00
45.8279 1441.00
45.8931 1436.00
45.9583 1495.00
46.0235 1499.00
46.0887 1438.00
46.1539 1402.00
46.2191 1501.00
46.2843 1680.00
46.3495 1658.00
46.4147 1719.00
46.4799 1750.00
46.5451 1699.00
46.6103 1672.00
46.6755 1586.00
46.7407 1547.00
46.8059 1591.00
46.8711 1616.00
46.9363 1693.00
47.0015 1701.00
47.0667 1586.00
47.1319 1499.00
47.1971 1539.00
47.2623 1307.00
47.3275 1301.00
47.3927 1318.00
47.4579 1311.00
47.523 1365.00
47.5882 1307.00
47.6534 1278.00
47.7186 1332.00
47.7838 1441.00
47.849 1468.00
47.9142 1511.00
47.9794 1715.00
48.0446 1821.00
48.1098 1927.00
48.175 2233.00
48.2402 2339.00
48.3054 2615.00
48.3706 2637.00
48.4358 2637.00
48.501 2547.00
48.5662 2419.00
48.6314 2207.00
48.6966 2030.00
48.7618 1827.00
48.827 1726.00
48.8922 1584.00
48.9574 1530.00
49.0226 1505.00
49.0878 1651.00
49.153 1560.00
49.2182 1541.00
49.2834 1687.00
49.3486 1672.00
49.4138 1819.00
49.479 2099.00
49.5442 2512.00
49.6094 2936.00
49.6746 3058.00
49.7398 2610.00
49.805 2410.00
49.8702 2047.00
49.9354 1583.00
50.0006 1440.00
50.0658 1323.00
50.131 1302.00
50.1962 1300.00
50.2614 1401.00
50.3266 1528.00
50.3918 1733.00
50.457 1821.00
50.5222 1740.00
50.5874 1655.00
50.6526 1492.00
50.7178 1465.00
50.783 1519.00
50.8482 1657.00
50.9134 1687.00
50.9786 1634.00
51.0438 1641.00
51.109 1567.00
51.1742 1469.00
51.2394 1521.00
51.3046 1542.00
51.3698 1713.00
51.435 1830.00
51.5002 2076.00
51.5654 2238.00
51.6306 2475.00
51.6958 2526.00
51.761 2419.00
51.8262 2358.00
51.8914 2046.00
51.9566 1903.00
52.0218 1757.00
52.087 1625.00
52.1522 1437.00
52.2174 1442.00
52.2826 1427.00
52.3477 1353.00
52.4129 1274.00
52.4781 1279.00
52.5433 1277.00
52.6085 1307.00
52.6737 1285.00
52.7389 1217.00
52.8041 1273.00
52.8693 1207.00
52.9345 1214.00
52.9997 1199.00
53.0649 1161.00
53.1301 1127.00
53.1953 1135.00
53.2605 1163.00
53.3257 1165.00
53.3909 1151.00
53.4561 1144.00
53.5213 1188.00
53.5865 1104.00
53.6517 1206.00
53.7169 1134.00
53.7821 1223.00
53.8473 1114.00
53.9125 1203.00
53.9777 1180.00
54.0429 1198.00
54.1081 1216.00
54.1733 1326.00
54.2385 1421.00
54.3037 1567.00
54.3689 1579.00
54.4341 1628.00
54.4993 1610.00
54.5645 1882.00
54.6297 2125.00
54.6949 2341.00
54.7601 2528.00
54.8253 2413.00
54.8905 2309.00
54.9557 2023.00
55.0209 1805.00
55.0861 1693.00
55.1513 1514.00
55.2165 1409.00
55.2817 1463.00
55.3469 1397.00
55.4121 1637.00
55.4773 1672.00
55.5425 1863.00
55.6077 1942.00
55.6729 2040.00
55.7381 2077.00
55.8033 2198.00
55.8685 2178.00
55.9337 2150.00
55.9989 2154.00
56.0641 2086.00
56.1293 2145.00
56.1945 1944.00
56.2597 1921.00
56.3249 1738.00
56.3901 1696.00
56.4553 1538.00
56.5205 1482.00
56.5857 1330.00
56.6509 1279.00
56.7161 1287.00
56.7813 1214.00
56.8465 1208.00
56.9117 1155.00
56.9769 1262.00
57.042 1174.00
57.1073 1240.00
57.1724 1250.00
57.2376 1346.00
57.3028 1344.00
57.368 1313.00
57.4332 1418.00
57.4984 1316.00
57.5636 1326.00
57.6288 1276.00
57.694 1289.00
57.7592 1317.00
57.8244 1306.00
57.8896 1206.00
57.9548 1296.00
58.02 1371.00
58.0852 1490.00
58.1504 1715.00
58.2156 2007.00
58.2808 2436.00
58.346 2531.00
58.4112 2370.00
58.4764 2239.00
58.5416 2080.00
58.6068 1739.00
58.672 1682.00
58.7372 1543.00
58.8024 1472.00
58.8676 1367.00
58.9328 1308.00
58.998 1400.00
59.0632 1475.00
59.1284 1458.00
59.1936 1461.00
59.2588 1427.00
59.324 1370.00
59.3892 1308.00
59.4544 1358.00
59.5196 1425.00
59.5848 1490.00
59.65 1444.00
59.7152 1552.00
59.7804 1528.00
59.8456 1626.00
59.9108 1629.00
59.976 1783.00
60.0412 1796.00
60.1064 1913.00
60.1716 2005.00
60.2368 2088.00
60.302 2037.00
60.3672 1947.00
60.4324 1935.00
60.4976 1799.00
60.5628 1736.00
60.628 1556.00
60.6932 1563.00
60.7584 1452.00
60.8236 1392.00
60.8888 1264.00
60.954 1307.00
61.0192 1293.00
61.0844 1323.00
61.1496 1351.00
61.2148 1387.00
61.28 1345.00
61.3452 1523.00
61.4104 1568.00
61.4756 1687.00
61.5408 1684.00
61.606 1776.00
61.6712 1781.00
61.7364 1778.00
61.8016 1719.00
61.8667 1734.00
61.932 1624.00
61.9971 1617.00
62.0623 1420.00
62.1275 1477.00
62.1927 1462.00
62.2579 1439.00
62.3231 1456.00
62.3883 1342.00
62.4535 1396.00
62.5187 1319.00
62.5839 1326.00
62.6491 1378.00
62.7143 1386.00
62.7795 1506.00
62.8447 1454.00
62.9099 1442.00
62.9751 1545.00
63.0403 1624.00
63.1055 1562.00
63.1707 1574.00
63.2359 1377.00
63.3011 1383.00
63.3663 1278.00
63.4315 1291.00
63.4967 1271.00
63.5619 1311.00
63.6271 1228.00
63.6923 1269.00
63.7575 1322.00
63.8227 1299.00
63.8879 1477.00
63.9531 1662.00
64.0183 1807.00
64.0835 1824.00
64.1487 1777.00
64.2139 1908.00
64.2791 1957.00
64.3443 1796.00
64.4095 1771.00
64.4747 1765.00
64.5399 1648.00
64.6051 1623.00
64.6703 1415.00
64.7355 1465.00
64.8007 1304.00
64.8659 1242.00
64.9311 1361.00
64.9963 1248.00
65.0615 1276.00
65.1267 1281.00
65.1919 1320.00
65.2571 1340.00
65.3223 1406.00
65.3875 1322.00
65.4527 1347.00
65.5179 1320.00
65.5831 1406.00
65.6483 1410.00
65.7135 1414.00
65.7787 1469.00
65.8439 1576.00
65.9091 1686.00
65.9743 1745.00
66.0395 1750.00
66.1047 1719.00
66.1699 1826.00
66.2351 1843.00
66.3003 1798.00
66.3655 1636.00
66.4307 1586.00
66.4959 1468.00
66.561 1392.00
66.6263 1508.00
66.6915 1372.00
66.7566 1330.00
66.8218 1322.00
66.887 1255.00
66.9522 1205.00
67.0174 1251.00
67.0826 1235.00
67.1478 1387.00
67.213 1303.00
67.2782 1447.00
67.3434 1471.00
67.4086 1420.00
67.4738 1432.00
67.539 1363.00
67.6042 1232.00
67.6694 1251.00
67.7346 1192.00
67.7998 1224.00
67.865 1241.00
67.9302 1265.00
67.9954 1262.00
68.0606 1258.00
68.1258 1216.00
68.191 1327.00
68.2562 1428.00
68.3214 1513.00
68.3866 1508.00
68.4518 1609.00
68.517 1554.00
68.5822 1454.00
68.6474 1526.00
68.7126 1420.00
68.7778 1353.00
68.843 1386.00
68.9082 1244.00
68.9734 1406.00
69.0386 1383.00
69.1038 1349.00
69.169 1380.00
69.2342 1349.00
69.2994 1396.00
69.3646 1361.00
69.4298 1329.00
69.495 1330.00
69.5602 1253.00
69.6254 1250.00
69.6906 1217.00
69.7558 1201.00
69.821 1108.00
69.8862 1159.00
69.9514 1141.00
70.0166 1212.00
70.0818 1153.00
70.147 1208.00
70.2122 1122.00
70.2774 1145.00
70.3426 1231.00
70.4078 1282.00
70.473 1297.00
70.5382 1396.00
70.6034 1289.00
70.6686 1307.00
70.7338 1343.00
70.799 1241.00
70.8642 1102.00
70.9294 1143.00
70.9946 1199.00
71.0598 1143.00
71.125 1154.00
71.1902 1233.00
71.2554 1234.00
71.3205 1216.00
71.3858 1180.00
71.451 1187.00
71.5162 1212.00
71.5813 1280.00
71.6465 1193.00
71.7117 1198.00
71.7769 1211.00
71.8421 1196.00
71.9073 1153.00
71.9725 1204.00
72.0377 1203.00
72.1029 1165.00
72.1681 1142.00
72.2333 1143.00
72.2985 1096.00
72.3637 1144.00
72.4289 1087.00
72.4941 1127.00
72.5593 1188.00
72.6245 1188.00
72.6897 1205.00
72.7549 1266.00
72.8201 1175.00
72.8853 1231.00
72.9505 1252.00
73.0157 1131.00
73.0809 1160.00
73.1461 1161.00
73.2113 1210.00
73.2765 1140.00
73.3417 1046.00
73.4069 1087.00
73.4721 1135.00
73.5373 1160.00
73.6025 1084.00
73.6677 1179.00
73.7329 1077.00
73.7981 1058.00
73.8633 1155.00
73.9285 1081.00
73.9937 1205.00
74.0589 1171.00
74.1241 1186.00
74.1893 1196.00
74.2545 1203.00
74.3197 1200.00
74.3849 1189.00
74.4501 1193.00
74.5153 1113.00
74.5805 1202.00
74.6457 1214.00
74.7109 1196.00
74.7761 1244.00
74.8413 1246.00
74.9065 1248.00
74.9717 1226.00
75.0369 1169.00
75.1021 1228.00
75.1673 1250.00
75.2325 1234.00
75.2977 1268.00
75.3629 1294.00
75.4281 1225.00
75.4933 1218.00
75.5585 1307.00
75.6237 1363.00
75.6889 1370.00
75.7541 1374.00
75.8193 1392.00
75.8845 1290.00
75.9497 1293.00
76.0149 1309.00
76.0801 1223.00
76.1452 1201.00
76.2104 1228.00
76.2756 1181.00
76.3409 1117.00
76.406 1169.00
76.4712 1162.00
76.5364 1181.00
76.6016 1210.00
76.6668 1232.00
76.732 1215.00
76.7972 1229.00
76.8624 1185.00
76.9276 1229.00
76.9928 1256.00
77.058 1180.00
77.1232 1251.00
77.1884 1153.00
77.2536 1180.00
77.3188 1163.00
77.384 1198.00
77.4492 1216.00
77.5144 1126.00
77.5796 1225.00
77.6448 1066.00
77.71 1228.00
77.7752 1167.00
77.8404 1166.00
77.9056 1133.00
77.9708 1154.00
78.036 1166.00
78.1012 1138.00
78.1664 1115.00
78.2316 1123.00
78.2968 1131.00
78.362 1093.00
78.4272 1155.00
78.4924 1050.00
78.5576 1118.00
78.6228 1106.00
78.688 1207.00
78.7532 1174.00
78.8184 1098.00
78.8836 1209.00
78.9488 1224.00
79.014 1226.00
79.0792 1182.00
79.1444 1259.00
79.2096 1249.00
79.2748 1280.00
79.34 1255.00
79.4052 1230.00
79.4704 1303.00
79.5356 1253.00
79.6008 1235.00
79.666 1177.00
79.7312 1111.00
79.7964 1184.00
79.8616 1200.00
79.9268 1144.00
79.992 1235.00
80.0572 1162.00
80.1224 1153.00
80.1876 1140.00
80.2528 1097.00
80.318 1151.00
80.3832 1080.00
80.4484 1073.00
80.5136 1055.00
80.5788 1082.00
80.644 1061.00
80.7092 1068.00
80.7744 1045.00
80.8396 1071.00
80.9048 1059.00
80.9699 1084.00
81.0351 1084.00
81.1003 1064.00
81.1655 1149.00
81.2307 1107.00
81.2959 1105.00
81.3611 1119.00
81.4263 1098.00
81.4915 1155.00
81.5567 1161.00
81.6219 1195.00
81.6871 1230.00
81.7523 1174.00
81.8175 1224.00
81.8827 1183.00
81.9479 1240.00
82.0131 1209.00
82.0783 1243.00
82.1435 1211.00
82.2087 1145.00
82.2739 1116.00
82.3391 1051.00
82.4043 1049.00
82.4695 1038.00
82.5347 1083.00
82.5999 1063.00
82.6651 1062.00
82.7303 1040.00
82.7955 1096.00
82.8607 1081.00
82.9259 1115.00
82.9911 1031.00
83.0563 1181.00
83.1215 1102.00
83.1867 1018.00
83.2519 1064.00
83.3171 1132.00
83.3823 1087.00
83.4475 1128.00
83.5127 1146.00
83.5779 1136.00
83.6431 1128.00
83.7083 1211.00
83.7735 1207.00
83.8387 1255.00
83.9039 1237.00
83.9691 1201.00
84.0343 1201.00
84.0995 1285.00
84.1647 1213.00
84.2299 1244.00
84.2951 1275.00
84.3603 1186.00
84.4255 1183.00
84.4907 1130.00
84.5559 1247.00
84.6211 1215.00
84.6863 1217.00
84.7515 1179.00
84.8167 1299.00
84.8819 1206.00
84.9471 1152.00
85.0123 1287.00
85.0775 1205.00
85.1427 1200.00
85.2079 1190.00
85.2731 1167.00
85.3383 1172.00
85.4035 1179.00
85.4687 1091.00
85.5339 1177.00
85.5991 1145.00
85.6643 1217.00
85.7295 1116.00
85.7946 1159.00
85.8598 1152.00
85.925 1166.00
85.9903 1186.00
86.0554 1141.00
86.1206 1186.00
86.1858 1086.00
86.251 1127.00
86.3162 1132.00
86.3814 1165.00
86.4466 1176.00
86.5118 1210.00
86.577 1146.00
86.6422 1172.00
86.7074 1169.00
86.7726 1177.00
86.8378 1161.00
86.903 1194.00
86.9682 1145.00
87.0334 1177.00
87.0986 1164.00
87.1638 1191.00
87.229 1132.00
87.2942 1150.00
87.3594 1169.00
87.4246 1144.00
87.4898 1141.00
87.555 1129.00
87.6202 1147.00
87.6854 1179.00
87.7506 1178.00
87.8158 1076.00
87.881 1115.00
87.9462 1075.00
88.0114 1066.00
88.0766 1026.00
88.1418 1066.00
88.207 1080.00
88.2722 1125.00
88.3374 1101.00
88.4026 1124.00
88.4678 1107.00
88.533 1131.00
88.5982 1214.00
88.6634 1188.00
88.7286 1191.00
88.7938 1280.00
88.859 1238.00
88.9242 1171.00
88.9894 1135.00
89.0546 1208.00
89.1198 1223.00
89.185 1200.00
89.2502 1041.00
89.3154 1125.00
89.3806 1109.00
89.4458 1106.00
89.511 1142.00
89.5762 1076.00
89.6414 1113.00
89.7066 1137.00
89.7718 1148.00
89.837 1149.00
89.9022 1078.00
89.9674 1094.00
90.0326 1132.00
90.0978 1145.00
90.163 1237.00
90.2282 1173.00
90.2934 1172.00
90.3586 1118.00
90.4238 1176.00
90.489 1161.00
90.5542 1163.00
90.6193 1171.00
90.6845 1291.00
90.7497 1157.00
90.8149 1157.00
90.8801 1133.00
90.9453 1154.00
91.0105 1133.00
91.0757 1138.00
91.1409 1179.00
91.2061 1220.00
91.2713 1147.00
91.3365 1137.00
91.4017 1189.00
91.4669 1155.00
91.5321 1217.00
91.5973 1260.00
91.6625 1121.00
91.7277 1221.00
91.7929 1271.00
91.8581 1301.00
91.9233 1311.00
91.9885 1252.00
92.0537 1295.00
92.1189 1324.00
92.1841 1271.00
92.2493 1292.00
92.3145 1336.00
92.3797 1221.00
92.4449 1267.00
92.5101 1185.00
92.5753 1226.00
92.6405 1193.00
92.7057 1246.00
92.7709 1172.00
92.8361 1196.00
92.9013 1140.00
92.9665 1256.00
93.0317 1160.00
93.0969 1125.00
93.1621 1073.00
93.2273 1084.00
93.2925 1140.00
93.3577 1135.00
93.4229 1040.00
93.4881 1030.00
93.5533 1111.00
93.6185 1033.00
93.6837 1152.00
93.7489 1080.00
93.8141 1142.00
93.8793 1161.00
93.9445 1096.00
94.0097 1068.00
94.0749 1115.00
94.1401 1047.00
94.2053 1061.00
94.2705 1079.00
94.3357 1095.00
94.4009 1048.00
94.4661 1068.00
94.5313 1085.00
94.5965 1020.00
94.6617 1125.00
94.7269 1087.00
94.7921 1091.00
94.8573 1114.00
94.9225 1092.00
94.9877 1111.00
95.0529 1068.00
95.1181 1137.00
95.1833 1109.00
95.2485 1118.00
95.3137 1106.00
95.3789 1170.00
95.444 1088.00
95.5092 1162.00
95.5744 1152.00
95.6396 1155.00
95.7048 1159.00
95.77 1155.00
95.8352 1172.00
95.9004 1119.00
95.9656 1186.00
96.0308 1153.00
96.096 1213.00
96.1612 1112.00
96.2264 1129.00
96.2916 1211.00
96.3568 1102.00
96.422 1101.00
96.4872 1128.00
96.5524 1183.00
96.6176 1210.00
96.6828 1127.00
96.748 1144.00
96.8132 1215.00
96.8784 1146.00
96.9436 1179.00
97.0088 1163.00
97.074 1186.00
97.1392 1177.00
97.2044 1222.00
97.2696 1154.00
97.3348 1183.00
97.4 1156.00
97.4652 1141.00
97.5304 1122.00
97.5956 1087.00
97.6608 1112.00
97.726 1179.00
97.7912 1131.00
97.8564 1181.00
97.9216 1161.00
97.9868 1071.00
98.052 1118.00
98.1172 1156.00
98.1824 1092.00
98.2476 1169.00
98.3128 1131.00
98.378 1088.00
98.4432 1128.00
98.5084 1050.00
98.5736 1198.00
98.6388 1121.00
98.704 1147.00
98.7692 1072.00
98.8344 1061.00
98.8996 1083.00
98.9648 1089.00
99.03 1088.00
99.0952 1152.00
99.1604 1079.00
99.2256 1120.00
99.2908 1140.00
99.356 1169.00
99.4212 1200.00
99.4864 1167.00
99.5516 1204.00
99.6168 1158.00
99.682 1160.00
99.7472 1102.00
99.8124 1272.00
99.8776 1224.00
99.9428 1216.00
100.008 1184.00
100.073 1165.00
100.095 1188.00