File: data/xrd_creation/results/NSC_46.xy
9.903433 2785.00
9.968632 2710.00
10.0338 2736.00
10.099 2727.00
10.1642 2654.00
10.2294 2600.00
10.2946 2658.00
10.3598 2623.00
10.425 2673.00
10.4902 2485.00
10.5554 2523.00
10.6206 2493.00
10.6858 2537.00
10.751 2557.00
10.8162 2575.00
10.8814 2442.00
10.9466 2447.00
11.0118 2442.00
11.077 2460.00
11.1422 2403.00
11.2074 2342.00
11.2726 2433.00
11.3378 2368.00
11.403 2452.00
11.4682 2446.00
11.5334 2406.00
11.5986 2338.00
11.6638 2420.00
11.729 2272.00
11.7942 2250.00
11.8594 2204.00
11.9246 2203.00
11.9898 2197.00
12.055 2260.00
12.1202 2178.00
12.1854 2128.00
12.2506 2117.00
12.3158 2214.00
12.381 2085.00
12.4462 2036.00
12.5114 2092.00
12.5766 2116.00
12.6418 2031.00
12.707 1982.00
12.7722 2025.00
12.8374 1977.00
12.9026 1938.00
12.9678 2044.00
13.033 1995.00
13.0982 1954.00
13.1634 2020.00
13.2286 1970.00
13.2938 1992.00
13.359 1976.00
13.4242 1967.00
13.4894 1956.00
13.5546 1961.00
13.6198 1918.00
13.685 1955.00
13.7502 1959.00
13.8154 1941.00
13.8805 1990.00
13.9457 1853.00
14.0109 1910.00
14.0761 1888.00
14.1413 1908.00
14.2065 1834.00
14.2717 1881.00
14.3369 1960.00
14.4021 2011.00
14.4673 2172.00
14.5325 2090.00
14.5977 2071.00
14.6629 2015.00
14.7281 2001.00
14.7933 1928.00
14.8585 1804.00
14.9237 1736.00
14.9889 1825.00
15.0541 1632.00
15.1193 1844.00
15.1845 1727.00
15.2497 1808.00
15.3149 1771.00
15.3801 1676.00
15.4453 1747.00
15.5105 1698.00
15.5757 1745.00
15.6409 1715.00
15.7061 1820.00
15.7713 1650.00
15.8365 1650.00
15.9017 1696.00
15.9669 1690.00
16.0321 1657.00
16.0973 1718.00
16.1625 1662.00
16.2277 1676.00
16.2929 1629.00
16.3581 1749.00
16.4233 1590.00
16.4885 1656.00
16.5537 1627.00
16.6189 1596.00
16.6841 1617.00
16.7493 1662.00
16.8145 1621.00
16.8797 1699.00
16.9449 1597.00
17.0101 1564.00
17.0753 1577.00
17.1405 1585.00
17.2057 1605.00
17.2709 1621.00
17.3361 1620.00
17.4013 1533.00
17.4665 1505.00
17.5317 1561.00
17.5969 1551.00
17.6621 1634.00
17.7273 1577.00
17.7925 1497.00
17.8577 1491.00
17.9229 1556.00
17.9881 1511.00
18.0533 1486.00
18.1185 1504.00
18.1837 1471.00
18.2489 1456.00
18.3141 1452.00
18.3793 1422.00
18.4445 1485.00
18.5097 1493.00
18.5749 1433.00
18.6401 1480.00
18.7052 1428.00
18.7704 1387.00
18.8356 1472.00
18.9008 1448.00
18.966 1412.00
19.0312 1438.00
19.0964 1432.00
19.1616 1432.00
19.2268 1402.00
19.292 1466.00
19.3572 1395.00
19.4224 1372.00
19.4876 1375.00
19.5528 1395.00
19.618 1368.00
19.6832 1358.00
19.7484 1343.00
19.8136 1337.00
19.8788 1373.00
19.944 1431.00
20.0092 1437.00
20.0744 1399.00
20.1396 1377.00
20.2048 1410.00
20.27 1315.00
20.3352 1355.00
20.4004 1298.00
20.4656 1382.00
20.5308 1452.00
20.596 1470.00
20.6612 1618.00
20.7264 1652.00
20.7916 1708.00
20.8568 1652.00
20.922 1545.00
20.9872 1369.00
21.0524 1456.00
21.1176 1348.00
21.1828 1340.00
21.248 1361.00
21.3132 1520.00
21.3784 1565.00
21.4436 1758.00
21.5088 1826.00
21.574 1766.00
21.6392 1793.00
21.7044 1555.00
21.7696 1430.00
21.8348 1334.00
21.9 1270.00
21.9652 1327.00
22.0304 1303.00
22.0956 1445.00
22.1608 1414.00
22.226 1523.00
22.2912 1779.00
22.3564 1883.00
22.4216 1858.00
22.4868 1727.00
22.552 1563.00
22.6172 1368.00
22.6824 1277.00
22.7476 1216.00
22.8128 1145.00
22.878 1149.00
22.9432 1158.00
23.0084 1180.00
23.0736 1152.00
23.1388 1173.00
23.204 1176.00
23.2692 1192.00
23.3344 1175.00
23.3996 1146.00
23.4647 1104.00
23.5299 1176.00
23.5951 1100.00
23.6603 1149.00
23.7255 1249.00
23.7907 1192.00
23.8559 1288.00
23.9211 1320.00
23.9863 1420.00
24.0515 1408.00
24.1167 1370.00
24.1819 1339.00
24.2471 1292.00
24.3123 1149.00
24.3775 1156.00
24.4427 1156.00
24.5079 1048.00
24.5731 1111.00
24.6383 1089.00
24.7035 1062.00
24.7687 1178.00
24.8339 1120.00
24.8991 1008.00
24.9643 1044.00
25.0295 1083.00
25.0947 1023.00
25.1599 1076.00
25.2251 1019.00
25.2903 1093.00
25.3555 1031.00
25.4207 1020.00
25.4859 1120.00
25.5511 1048.00
25.6163 1047.00
25.6815 998.00
25.7467 1030.00
25.8119 1037.00
25.8771 1021.00
25.9423 1045.00
26.0075 1089.00
26.0727 1113.00
26.1379 1037.00
26.2031 1028.00
26.2683 1040.00
26.3335 992.00
26.3987 980.00
26.4639 1000.00
26.5291 990.00
26.5943 1039.00
26.6595 968.00
26.7247 1005.00
26.7899 1009.00
26.8551 979.00
26.9203 939.00
26.9855 941.00
27.0507 1020.00
27.1159 1003.00
27.1811 967.00
27.2463 1016.00
27.3115 1002.00
27.3767 993.00
27.4419 973.00
27.5071 988.00
27.5723 1058.00
27.6375 978.00
27.7027 978.00
27.7679 928.00
27.8331 979.00
27.8983 1018.00
27.9635 960.00
28.0287 967.00
28.0939 1005.00
28.1591 938.00
28.2243 986.00
28.2894 960.00
28.3546 912.00
28.4198 914.00
28.485 938.00
28.5502 900.00
28.6154 961.00
28.6806 869.00
28.7458 935.00
28.811 980.00
28.8762 926.00
28.9414 908.00
29.0066 958.00
29.0718 965.00
29.137 1063.00
29.2022 955.00
29.2674 927.00
29.3326 958.00
29.3978 941.00
29.463 973.00
29.5282 955.00
29.5934 951.00
29.6586 982.00
29.7238 1007.00
29.789 989.00
29.8542 1003.00
29.9194 1081.00
29.9846 1086.00
30.0498 1130.00
30.115 1072.00
30.1802 1146.00
30.2454 1252.00
30.3106 1438.00
30.3758 1959.00
30.441 3229.00
30.5062 4963.00
30.5714 6623.00
30.6366 7066.00
30.7018 6651.00
30.767 5448.00
30.8322 3482.00
30.8974 2063.00
30.9626 1324.00
31.0278 1090.00
31.093 1060.00
31.1582 1010.00
31.2234 908.00
31.2886 873.00
31.3538 1026.00
31.419 865.00
31.4842 931.00
31.5494 842.00
31.6146 867.00
31.6798 884.00
31.745 868.00
31.8102 885.00
31.8754 866.00
31.9406 906.00
32.0058 897.00
32.071 934.00
32.1362 934.00
32.2014 992.00
32.2666 888.00
32.3318 878.00
32.397 906.00
32.4622 806.00
32.5274 846.00
32.5926 849.00
32.6578 838.00
32.723 848.00
32.7882 892.00
32.8534 914.00
32.9186 967.00
32.9838 1037.00
33.0489 1048.00
33.1141 1034.00
33.1793 971.00
33.2445 993.00
33.3097 925.00
33.3749 863.00
33.4401 792.00
33.5053 810.00
33.5705 837.00
33.6357 823.00
33.7009 808.00
33.7661 853.00
33.8313 898.00
33.8965 1082.00
33.9617 1435.00
34.0269 1852.00
34.0921 2348.00
34.1573 2733.00
34.2225 2754.00
34.2877 2600.00
34.3529 2162.00
34.4181 1675.00
34.4833 1112.00
34.5485 936.00
34.6137 838.00
34.6789 811.00
34.7441 820.00
34.8093 849.00
34.8745 825.00
34.9397 819.00
35.0049 821.00
35.0701 870.00
35.1353 884.00
35.2005 954.00
35.2657 1124.00
35.3309 1496.00
35.3961 2236.00
35.4613 2500.00
35.5265 2698.00
35.5917 2502.00
35.6569 2006.00
35.7221 1537.00
35.7873 1050.00
35.8525 805.00
35.9177 786.00
35.9829 736.00
36.0481 691.00
36.1133 708.00
36.1785 713.00
36.2437 684.00
36.3089 721.00
36.3741 690.00
36.4393 673.00
36.5045 689.00
36.5697 716.00
36.6349 691.00
36.7001 698.00
36.7653 681.00
36.8305 702.00
36.8957 680.00
36.9609 723.00
37.0261 721.00
37.0913 747.00
37.1565 722.00
37.2217 747.00
37.2869 799.00
37.3521 837.00
37.4173 802.00
37.4825 755.00
37.5477 801.00
37.6129 902.00
37.6781 958.00
37.7433 998.00
37.8085 973.00
37.8736 859.00
37.9388 791.00
38.004 693.00
38.0692 707.00
38.1344 629.00
38.1996 649.00
38.2648 627.00
38.33 699.00
38.3952 663.00
38.4604 676.00
38.5256 683.00
38.5908 597.00
38.656 658.00
38.7212 611.00
38.7864 587.00
38.8516 600.00
38.9168 586.00
38.982 602.00
39.0472 686.00
39.1124 714.00
39.1776 648.00
39.2428 607.00
39.308 647.00
39.3732 608.00
39.4384 619.00
39.5036 637.00
39.5688 616.00
39.634 647.00
39.6992 623.00
39.7644 687.00
39.8296 707.00
39.8948 648.00
39.96 658.00
40.0252 626.00
40.0904 639.00
40.1556 574.00
40.2208 643.00
40.286 593.00
40.3512 639.00
40.4164 606.00
40.4816 603.00
40.5468 578.00
40.612 615.00
40.6772 644.00
40.7424 646.00
40.8076 648.00
40.8728 605.00
40.938 646.00
41.0032 649.00
41.0684 639.00
41.1336 622.00
41.1988 615.00
41.264 610.00
41.3292 643.00
41.3944 595.00
41.4596 626.00
41.5248 706.00
41.59 637.00
41.6552 684.00
41.7204 676.00
41.7856 823.00
41.8508 919.00
41.916 860.00
41.9812 950.00
42.0464 828.00
42.1116 807.00
42.1768 741.00
42.242 694.00
42.3072 658.00
42.3724 619.00
42.4376 588.00
42.5028 603.00
42.568 531.00
42.6332 615.00
42.6983 601.00
42.7635 551.00
42.8287 611.00
42.8939 550.00
42.9591 560.00
43.0243 603.00
43.0895 615.00
43.1547 538.00
43.2199 553.00
43.2851 544.00
43.3503 576.00
43.4155 573.00
43.4807 570.00
43.5459 573.00
43.6111 547.00
43.6763 561.00
43.7415 601.00
43.8067 640.00
43.8719 622.00
43.9371 662.00
44.0023 658.00
44.0675 603.00
44.1327 598.00
44.1979 575.00
44.2631 526.00
44.3283 526.00
44.3935 515.00
44.4587 569.00
44.5239 528.00
44.5891 581.00
44.6543 604.00
44.7195 614.00
44.7847 612.00
44.8499 689.00
44.9151 651.00
44.9803 628.00
45.0455 547.00
45.1107 585.00
45.1759 568.00
45.2411 529.00
45.3063 549.00
45.3715 533.00
45.4367 626.00
45.5019 663.00
45.5671 781.00
45.6323 1037.00
45.6975 1109.00
45.7627 1196.00
45.8279 1100.00
45.8931 900.00
45.9583 778.00
46.0235 600.00
46.0887 598.00
46.1539 560.00
46.2191 526.00
46.2843 524.00
46.3495 500.00
46.4147 602.00
46.4799 523.00
46.5451 458.00
46.6103 530.00
46.6755 516.00
46.7407 523.00
46.8059 520.00
46.8711 539.00
46.9363 551.00
47.0015 529.00
47.0667 486.00
47.1319 519.00
47.1971 502.00
47.2623 497.00
47.3275 519.00
47.3927 519.00
47.4579 490.00
47.523 484.00
47.5882 537.00
47.6534 513.00
47.7186 483.00
47.7838 529.00
47.849 566.00
47.9142 532.00
47.9794 557.00
48.0446 615.00
48.1098 588.00
48.175 625.00
48.2402 620.00
48.3054 625.00
48.3706 570.00
48.4358 562.00
48.501 549.00
48.5662 490.00
48.6314 511.00
48.6966 559.00
48.7618 559.00
48.827 569.00
48.8922 553.00
48.9574 666.00
49.0226 740.00
49.0878 845.00
49.153 988.00
49.2182 1072.00
49.2834 1072.00
49.3486 923.00
49.4138 862.00
49.479 740.00
49.5442 671.00
49.6094 601.00
49.6746 533.00
49.7398 518.00
49.805 536.00
49.8702 463.00
49.9354 474.00
50.0006 487.00
50.0658 500.00
50.131 524.00
50.1962 544.00
50.2614 494.00
50.3266 507.00
50.3918 517.00
50.457 501.00
50.5222 569.00
50.5874 569.00
50.6526 630.00
50.7178 606.00
50.783 780.00
50.8482 1099.00
50.9134 1701.00
50.9786 2541.00
51.0438 3027.00
51.109 3295.00
51.1742 2945.00
51.2394 2337.00
51.3046 1675.00
51.3698 1210.00
51.435 858.00
51.5002 728.00
51.5654 594.00
51.6306 594.00
51.6958 561.00
51.761 486.00
51.8262 482.00
51.8914 494.00
51.9566 486.00
52.0218 474.00
52.087 507.00
52.1522 527.00
52.2174 454.00
52.2826 473.00
52.3477 464.00
52.4129 510.00
52.4781 536.00
52.5433 548.00
52.6085 565.00
52.6737 552.00
52.7389 598.00
52.8041 628.00
52.8693 644.00
52.9345 614.00
52.9997 580.00
53.0649 510.00
53.1301 512.00
53.1953 499.00
53.2605 493.00
53.3257 488.00
53.3909 469.00
53.4561 511.00
53.5213 483.00
53.5865 485.00
53.6517 450.00
53.7169 474.00
53.7821 436.00
53.8473 481.00
53.9125 481.00
53.9777 475.00
54.0429 461.00
54.1081 483.00
54.1733 452.00
54.2385 502.00
54.3037 529.00
54.3689 516.00
54.4341 565.00
54.4993 558.00
54.5645 567.00
54.6297 498.00
54.6949 469.00
54.7601 477.00
54.8253 468.00
54.8905 500.00
54.9557 523.00
55.0209 452.00
55.0861 462.00
55.1513 457.00
55.2165 468.00
55.2817 466.00
55.3469 497.00
55.4121 510.00
55.4773 558.00
55.5425 495.00
55.6077 552.00
55.6729 528.00
55.7381 534.00
55.8033 601.00
55.8685 616.00
55.9337 698.00
55.9989 866.00
56.0641 879.00
56.1293 769.00
56.1945 729.00
56.2597 642.00
56.3249 553.00
56.3901 461.00
56.4553 509.00
56.5205 503.00
56.5857 453.00
56.6509 455.00
56.7161 446.00
56.7813 400.00
56.8465 390.00
56.9117 409.00
56.9769 450.00
57.042 431.00
57.1073 437.00
57.1724 479.00
57.2376 490.00
57.3028 492.00
57.368 543.00
57.4332 558.00
57.4984 608.00
57.5636 638.00
57.6288 652.00
57.694 621.00
57.7592 566.00
57.8244 546.00
57.8896 432.00
57.9548 467.00
58.02 428.00
58.0852 469.00
58.1504 466.00
58.2156 437.00
58.2808 453.00
58.346 454.00
58.4112 480.00
58.4764 462.00
58.5416 491.00
58.6068 480.00
58.672 461.00
58.7372 486.00
58.8024 481.00
58.8676 478.00
58.9328 482.00
58.998 582.00
59.0632 644.00
59.1284 679.00
59.1936 730.00
59.2588 751.00
59.324 676.00
59.3892 601.00
59.4544 542.00
59.5196 488.00
59.5848 482.00
59.65 466.00
59.7152 455.00
59.7804 424.00
59.8456 444.00
59.9108 465.00
59.976 462.00
60.0412 447.00
60.1064 448.00
60.1716 537.00
60.2368 548.00
60.302 509.00
60.3672 600.00
60.4324 717.00
60.4976 980.00
60.5628 1482.00
60.628 1927.00
60.6932 2368.00
60.7584 2489.00
60.8236 2381.00
60.8888 1812.00
60.954 1507.00
61.0192 1182.00
61.0844 1053.00
61.1496 904.00
61.2148 887.00
61.28 885.00
61.3452 754.00
61.4104 749.00
61.4756 670.00
61.5408 564.00
61.606 442.00
61.6712 519.00
61.7364 440.00
61.8016 473.00
61.8667 466.00
61.932 456.00
61.9971 527.00
62.0623 618.00
62.1275 755.00
62.1927 820.00
62.2579 818.00
62.3231 839.00
62.3883 747.00
62.4535 629.00
62.5187 503.00
62.5839 483.00
62.6491 455.00
62.7143 438.00
62.7795 401.00
62.8447 375.00
62.9099 445.00
62.9751 411.00
63.0403 404.00
63.1055 454.00
63.1707 425.00
63.2359 411.00
63.3011 437.00
63.3663 439.00
63.4315 454.00
63.4967 541.00
63.5619 600.00
63.6271 688.00
63.6923 755.00
63.7575 807.00
63.8227 786.00
63.8879 653.00
63.9531 572.00
64.0183 515.00
64.0835 470.00
64.1487 425.00
64.2139 433.00
64.2791 417.00
64.3443 416.00
64.4095 471.00
64.4747 395.00
64.5399 434.00
64.6051 406.00
64.6703 375.00
64.7355 399.00
64.8007 404.00
64.8659 393.00
64.9311 435.00
64.9963 435.00
65.0615 526.00
65.1267 564.00
65.1919 573.00
65.2571 531.00
65.3223 534.00
65.3875 460.00
65.4527 472.00
65.5179 463.00
65.5831 462.00
65.6483 445.00
65.7135 391.00
65.7787 411.00
65.8439 444.00
65.9091 442.00
65.9743 486.00
66.0395 429.00
66.1047 459.00
66.1699 432.00
66.2351 398.00
66.3003 386.00
66.3655 397.00
66.4307 399.00
66.4959 441.00
66.561 485.00
66.6263 520.00
66.6915 470.00
66.7566 474.00
66.8218 465.00
66.887 412.00
66.9522 432.00
67.0174 397.00
67.0826 392.00
67.1478 365.00
67.213 382.00
67.2782 383.00
67.3434 429.00
67.4086 411.00
67.4738 415.00
67.539 346.00
67.6042 356.00
67.6694 368.00
67.7346 388.00
67.7998 371.00
67.865 425.00
67.9302 461.00
67.9954 550.00
68.0606 561.00
68.1258 618.00
68.191 583.00
68.2562 511.00
68.3214 501.00
68.3866 460.00
68.4518 400.00
68.517 407.00
68.5822 382.00
68.6474 414.00
68.7126 389.00
68.7778 374.00
68.843 373.00
68.9082 414.00
68.9734 377.00
69.0386 340.00
69.1038 335.00
69.169 398.00
69.2342 367.00
69.2994 368.00
69.3646 416.00
69.4298 473.00
69.495 491.00
69.5602 469.00
69.6254 440.00
69.6906 419.00
69.7558 455.00
69.821 367.00
69.8862 418.00
69.9514 352.00
70.0166 359.00
70.0818 375.00
70.147 345.00
70.2122 314.00
70.2774 357.00
70.3426 395.00
70.4078 341.00
70.473 345.00
70.5382 389.00
70.6034 336.00
70.6686 342.00
70.7338 333.00
70.799 401.00
70.8642 378.00
70.9294 398.00
70.9946 322.00
71.0598 353.00
71.125 394.00
71.1902 367.00
71.2554 377.00
71.3205 375.00
71.3858 391.00
71.451 364.00
71.5162 370.00
71.5813 409.00
71.6465 390.00
71.7117 375.00
71.7769 415.00
71.8421 422.00
71.9073 417.00
71.9725 459.00
72.0377 433.00
72.1029 456.00
72.1681 458.00
72.2333 444.00
72.2985 395.00
72.3637 364.00
72.4289 388.00
72.4941 374.00
72.5593 386.00
72.6245 353.00
72.6897 348.00
72.7549 342.00
72.8201 319.00
72.8853 380.00
72.9505 317.00
73.0157 338.00
73.0809 322.00
73.1461 354.00
73.2113 343.00
73.2765 374.00
73.3417 334.00
73.4069 347.00
73.4721 373.00
73.5373 403.00
73.6025 421.00
73.6677 451.00
73.7329 530.00
73.7981 514.00
73.8633 483.00
73.9285 470.00
73.9937 393.00
74.0589 385.00
74.1241 345.00
74.1893 342.00
74.2545 309.00
74.3197 362.00
74.3849 328.00
74.4501 360.00
74.5153 314.00
74.5805 359.00
74.6457 322.00
74.7109 348.00
74.7761 345.00
74.8413 388.00
74.9065 440.00
74.9717 507.00
75.0369 557.00
75.1021 596.00
75.1673 573.00
75.2325 571.00
75.2977 506.00
75.3629 460.00
75.4281 381.00
75.4933 353.00
75.5585 383.00
75.6237 334.00
75.6889 331.00
75.7541 348.00
75.8193 315.00
75.8845 330.00
75.9497 356.00
76.0149 343.00
76.0801 368.00
76.1452 348.00
76.2104 397.00
76.2756 397.00
76.3409 466.00
76.406 584.00
76.4712 629.00
76.5364 564.00
76.6016 543.00
76.6668 503.00
76.732 458.00
76.7972 394.00
76.8624 392.00
76.9276 371.00
76.9928 381.00
77.058 352.00
77.1232 342.00
77.1884 378.00
77.2536 328.00
77.3188 342.00
77.384 338.00
77.4492 350.00
77.5144 314.00
77.5796 331.00
77.6448 395.00
77.71 377.00
77.7752 445.00
77.8404 441.00
77.9056 466.00
77.9708 447.00
78.036 393.00
78.1012 355.00
78.1664 363.00
78.2316 350.00
78.2968 324.00
78.362 327.00
78.4272 346.00
78.4924 347.00
78.5576 340.00
78.6228 353.00
78.688 346.00
78.7532 319.00
78.8184 337.00
78.8836 370.00
78.9488 336.00
79.014 417.00
79.0792 435.00
79.1444 472.00
79.2096 446.00
79.2748 433.00
79.34 428.00
79.4052 426.00
79.4704 380.00
79.5356 366.00
79.6008 339.00
79.666 311.00
79.7312 284.00
79.7964 304.00
79.8616 306.00
79.9268 331.00
79.992 304.00
80.0572 303.00
80.1224 334.00
80.1876 302.00
80.2528 347.00
80.318 367.00
80.3832 389.00
80.4484 396.00
80.5136 392.00
80.5788 377.00
80.644 369.00
80.7092 381.00
80.7744 368.00
80.8396 390.00
80.9048 371.00
80.9699 343.00
81.0351 329.00
81.1003 345.00
81.1655 332.00
81.2307 352.00
81.2959 371.00
81.3611 319.00
81.4263 296.00
81.4915 389.00
81.5567 358.00
81.6219 407.00
81.6871 363.00
81.7523 508.00
81.8175 534.00
81.8827 590.00
81.9479 565.00
82.0131 525.00
82.0783 538.00
82.1435 530.00
82.2087 443.00
82.2739 455.00
82.3391 424.00
82.4043 425.00
82.4695 386.00
82.5347 353.00
82.5999 315.00
82.6651 319.00
82.7303 338.00
82.7955 330.00
82.8607 375.00
82.9259 398.00
82.9911 434.00
83.0563 574.00
83.1215 668.00
83.1867 798.00
83.2519 754.00
83.3171 689.00
83.3823 687.00
83.4475 591.00
83.5127 597.00
83.5779 457.00
83.6431 441.00
83.7083 362.00
83.7735 357.00
83.8387 346.00
83.9039 344.00
83.9691 315.00
84.0343 366.00
84.0995 320.00
84.1647 350.00
84.2299 316.00
84.2951 316.00
84.3603 317.00
84.4255 330.00
84.4907 307.00
84.5559 324.00
84.6211 346.00
84.6863 343.00
84.7515 377.00
84.8167 336.00
84.8819 343.00
84.9471 300.00
85.0123 312.00
85.0775 297.00
85.1427 328.00
85.2079 317.00
85.2731 319.00
85.3383 345.00
85.4035 346.00
85.4687 331.00
85.5339 359.00
85.5991 384.00
85.6643 433.00
85.7295 503.00
85.7946 581.00
85.8598 643.00
85.925 619.00
85.9903 575.00
86.0554 545.00
86.1206 557.00
86.1858 501.00
86.251 464.00
86.3162 389.00
86.3814 390.00
86.4466 360.00
86.5118 339.00
86.577 345.00
86.6422 313.00
86.7074 335.00
86.7726 347.00
86.8378 338.00
86.903 334.00
86.9682 341.00
87.0334 324.00
87.0986 389.00
87.1638 358.00
87.229 370.00
87.2942 357.00
87.3594 398.00
87.4246 370.00
87.4898 372.00
87.555 352.00
87.6202 348.00
87.6854 351.00
87.7506 326.00
87.8158 310.00
87.881 318.00
87.9462 296.00
88.0114 316.00
88.0766 314.00
88.1418 352.00
88.207 323.00
88.2722 358.00
88.3374 325.00
88.4026 371.00
88.4678 367.00
88.533 381.00
88.5982 358.00
88.6634 386.00
88.7286 393.00
88.7938 369.00
88.859 345.00
88.9242 366.00
88.9894 357.00
89.0546 289.00
89.1198 312.00
89.185 374.00
89.2502 369.00
89.3154 373.00
89.3806 343.00
89.4458 287.00
89.511 353.00
89.5762 331.00
89.6414 361.00
89.7066 400.00
89.7718 422.00
89.837 503.00
89.9022 476.00
89.9674 402.00
90.0326 428.00
90.0978 389.00
90.163 392.00
90.2282 378.00
90.2934 363.00
90.3586 359.00
90.4238 338.00
90.489 333.00
90.5542 345.00
90.6193 323.00
90.6845 276.00
90.7497 271.00
90.8149 303.00
90.8801 359.00
90.9453 328.00
91.0105 313.00
91.0757 301.00
91.1409 334.00
91.2061 301.00
91.2713 303.00
91.3365 303.00
91.4017 343.00
91.4669 302.00
91.5321 315.00
91.5973 303.00
91.6625 322.00
91.7277 290.00
91.7929 317.00
91.8581 338.00
91.9233 317.00
91.9885 350.00
92.0537 338.00
92.1189 328.00
92.1841 375.00
92.2493 329.00
92.3145 384.00
92.3797 410.00
92.4449 508.00
92.5101 455.00
92.5753 440.00
92.6405 423.00
92.7057 396.00
92.7709 421.00
92.8361 384.00
92.9013 392.00
92.9665 366.00
93.0317 293.00
93.0969 335.00
93.1621 325.00
93.2273 301.00
93.2925 298.00
93.3577 369.00
93.4229 283.00
93.4881 296.00
93.5533 321.00
93.6185 292.00
93.6837 334.00
93.7489 308.00
93.8141 330.00
93.8793 311.00
93.9445 337.00
94.0097 360.00
94.0749 318.00
94.1401 308.00
94.2053 291.00
94.2705 328.00
94.3357 301.00
94.4009 304.00
94.4661 281.00
94.5313 317.00
94.5965 316.00
94.6617 335.00
94.7269 329.00
94.7921 330.00
94.8573 343.00
94.9225 359.00
94.9877 387.00
95.0529 420.00
95.1181 449.00
95.1833 442.00
95.2485 442.00
95.3137 418.00
95.3789 394.00
95.444 441.00
95.5092 393.00
95.5744 402.00
95.6396 373.00
95.7048 306.00
95.77 331.00
95.8352 340.00
95.9004 348.00
95.9656 357.00
96.0308 359.00
96.096 371.00
96.1612 401.00
96.2264 331.00
96.2916 407.00
96.3568 501.00
96.422 547.00
96.4872 619.00
96.5524 643.00
96.6176 569.00
96.6828 520.00
96.748 547.00
96.8132 508.00
96.8784 465.00
96.9436 424.00
97.0088 405.00
97.074 373.00
97.1392 347.00
97.2044 347.00
97.2696 335.00
97.3348 353.00
97.4 348.00
97.4652 328.00
97.5304 348.00
97.5956 365.00
97.6608 371.00
97.726 440.00
97.7912 449.00
97.8564 503.00
97.9216 459.00
97.9868 426.00
98.052 374.00
98.1172 427.00
98.1824 372.00
98.2476 397.00
98.3128 392.00
98.378 356.00
98.4432 339.00
98.5084 338.00
98.5736 355.00
98.6388 322.00
98.704 333.00
98.7692 332.00
98.8344 326.00
98.8996 367.00
98.9648 344.00
99.03 341.00
99.0952 405.00
99.1604 409.00
99.2256 402.00
99.2908 364.00
99.356 394.00
99.4212 424.00
99.4864 402.00
99.5516 344.00
99.6168 394.00
99.682 335.00
99.7472 336.00
99.8124 330.00
99.8776 309.00
99.9428 308.00
100.008 288.00
100.073 306.00
100.095 311.00