File: data/xrd_creation/results/NSC_131.xy
9.903433 2806.00
9.968632 2746.00
10.0338 2743.00
10.099 2627.00
10.1642 2619.00
10.2294 2678.00
10.2946 2527.00
10.3598 2570.00
10.425 2586.00
10.4902 2652.00
10.5554 2489.00
10.6206 2517.00
10.6858 2466.00
10.751 2568.00
10.8162 2402.00
10.8814 2523.00
10.9466 2395.00
11.0118 2359.00
11.077 2404.00
11.1422 2406.00
11.2074 2355.00
11.2726 2418.00
11.3378 2412.00
11.403 2299.00
11.4682 2344.00
11.5334 2342.00
11.5986 2339.00
11.6638 2232.00
11.729 2315.00
11.7942 2249.00
11.8594 2171.00
11.9246 2309.00
11.9898 2182.00
12.055 2197.00
12.1202 2201.00
12.1854 2169.00
12.2506 2075.00
12.3158 2093.00
12.381 2129.00
12.4462 2212.00
12.5114 2161.00
12.5766 2096.00
12.6418 2034.00
12.707 2033.00
12.7722 2055.00
12.8374 2035.00
12.9026 1917.00
12.9678 2000.00
13.033 1996.00
13.0982 2036.00
13.1634 2006.00
13.2286 2007.00
13.2938 2005.00
13.359 1944.00
13.4242 2000.00
13.4894 1945.00
13.5546 1931.00
13.6198 1883.00
13.685 1934.00
13.7502 1933.00
13.8154 1954.00
13.8805 1914.00
13.9457 2028.00
14.0109 1967.00
14.0761 1896.00
14.1413 1970.00
14.2065 1921.00
14.2717 1965.00
14.3369 2080.00
14.4021 2305.00
14.4673 2406.00
14.5325 2719.00
14.5977 2837.00
14.6629 2775.00
14.7281 2626.00
14.7933 2330.00
14.8585 2115.00
14.9237 2122.00
14.9889 2185.00
15.0541 2174.00
15.1193 2357.00
15.1845 2363.00
15.2497 2370.00
15.3149 2018.00
15.3801 1854.00
15.4453 1785.00
15.5105 1747.00
15.5757 1760.00
15.6409 1713.00
15.7061 1754.00
15.7713 1727.00
15.8365 1683.00
15.9017 1846.00
15.9669 1763.00
16.0321 1738.00
16.0973 1728.00
16.1625 1734.00
16.2277 1741.00
16.2929 1723.00
16.3581 1752.00
16.4233 1762.00
16.4885 1708.00
16.5537 1658.00
16.6189 1725.00
16.6841 1681.00
16.7493 1701.00
16.8145 1768.00
16.8797 1692.00
16.9449 1724.00
17.0101 1682.00
17.0753 1622.00
17.1405 1681.00
17.2057 1684.00
17.2709 1634.00
17.3361 1607.00
17.4013 1722.00
17.4665 1696.00
17.5317 1644.00
17.5969 1623.00
17.6621 1713.00
17.7273 1610.00
17.7925 1682.00
17.8577 1627.00
17.9229 1698.00
17.9881 1729.00
18.0533 1680.00
18.1185 1632.00
18.1837 1627.00
18.2489 1558.00
18.3141 1603.00
18.3793 1681.00
18.4445 1639.00
18.5097 1602.00
18.5749 1697.00
18.6401 1629.00
18.7052 1666.00
18.7704 1807.00
18.8356 1891.00
18.9008 2073.00
18.966 2384.00
19.0312 2888.00
19.0964 2688.00
19.1616 2049.00
19.2268 1684.00
19.292 1580.00
19.3572 1582.00
19.4224 1649.00
19.4876 1633.00
19.5528 1635.00
19.618 1729.00
19.6832 1732.00
19.7484 1875.00
19.8136 2077.00
19.8788 2327.00
19.944 2827.00
20.0092 3658.00
20.0744 4479.00
20.1396 5157.00
20.2048 4788.00
20.27 4191.00
20.3352 3135.00
20.4004 2668.00
20.4656 2314.00
20.5308 2359.00
20.596 2589.00
20.6612 2889.00
20.7264 3618.00
20.7916 4825.00
20.8568 5926.00
20.922 6136.00
20.9872 5393.00
21.0524 4819.00
21.1176 4595.00
21.1828 4009.00
21.248 3497.00
21.3132 2862.00
21.3784 2565.00
21.4436 2291.00
21.5088 2270.00
21.574 2278.00
21.6392 2329.00
21.7044 2740.00
21.7696 3406.00
21.8348 4548.00
21.9 6210.00
21.9652 8035.00
22.0304 6998.00
22.0956 4105.00
22.1608 2437.00
22.226 1889.00
22.2912 1718.00
22.3564 1623.00
22.4216 1573.00
22.4868 1594.00
22.552 1509.00
22.6172 1501.00
22.6824 1561.00
22.7476 1542.00
22.8128 1419.00
22.878 1513.00
22.9432 1522.00
23.0084 1420.00
23.0736 1480.00
23.1388 1506.00
23.204 1462.00
23.2692 1438.00
23.3344 1501.00
23.3996 1497.00
23.4647 1418.00
23.5299 1470.00
23.5951 1451.00
23.6603 1497.00
23.7255 1587.00
23.7907 1643.00
23.8559 1786.00
23.9211 2108.00
23.9863 2653.00
24.0515 3286.00
24.1167 3852.00
24.1819 3937.00
24.2471 4022.00
24.3123 3975.00
24.3775 3704.00
24.4427 3548.00
24.5079 3651.00
24.5731 3631.00
24.6383 3104.00
24.7035 2358.00
24.7687 2154.00
24.8339 2126.00
24.8991 1973.00
24.9643 2144.00
25.0295 2304.00
25.0947 2655.00
25.1599 3007.00
25.2251 3551.00
25.2903 3349.00
25.3555 2607.00
25.4207 2108.00
25.4859 1728.00
25.5511 1520.00
25.6163 1491.00
25.6815 1392.00
25.7467 1431.00
25.8119 1425.00
25.8771 1401.00
25.9423 1407.00
26.0075 1397.00
26.0727 1355.00
26.1379 1389.00
26.2031 1319.00
26.2683 1352.00
26.3335 1339.00
26.3987 1412.00
26.4639 1333.00
26.5291 1377.00
26.5943 1481.00
26.6595 1433.00
26.7247 1593.00
26.7899 1790.00
26.8551 2201.00
26.9203 2655.00
26.9855 2489.00
27.0507 1944.00
27.1159 1552.00
27.1811 1472.00
27.2463 1398.00
27.3115 1423.00
27.3767 1351.00
27.4419 1372.00
27.5071 1368.00
27.5723 1328.00
27.6375 1251.00
27.7027 1351.00
27.7679 1326.00
27.8331 1278.00
27.8983 1313.00
27.9635 1294.00
28.0287 1297.00
28.0939 1296.00
28.1591 1282.00
28.2243 1314.00
28.2894 1292.00
28.3546 1298.00
28.4198 1207.00
28.485 1362.00
28.5502 1323.00
28.6154 1368.00
28.6806 1423.00
28.7458 1504.00
28.811 1715.00
28.8762 2115.00
28.9414 2452.00
29.0066 2930.00
29.0718 3070.00
29.137 3229.00
29.2022 3024.00
29.2674 2792.00
29.3326 2695.00
29.3978 2393.00
29.463 2120.00
29.5282 1875.00
29.5934 1762.00
29.6586 1582.00
29.7238 1555.00
29.789 1445.00
29.8542 1463.00
29.9194 1563.00
29.9846 1575.00
30.0498 1553.00
30.115 1770.00
30.1802 1965.00
30.2454 2160.00
30.3106 2460.00
30.3758 2549.00
30.441 2244.00
30.5062 1982.00
30.5714 1739.00
30.6366 1757.00
30.7018 1671.00
30.767 1500.00
30.8322 1401.00
30.8974 1392.00
30.9626 1622.00
31.0278 1976.00
31.093 2483.00
31.1582 2611.00
31.2234 2306.00
31.2886 1769.00
31.3538 1521.00
31.419 1363.00
31.4842 1398.00
31.5494 1404.00
31.6146 1510.00
31.6798 1626.00
31.745 1951.00
31.8102 2394.00
31.8754 2971.00
31.9406 3575.00
32.0058 4328.00
32.071 4301.00
32.1362 4434.00
32.2014 4084.00
32.2666 3739.00
32.3318 3264.00
32.397 2729.00
32.4622 2322.00
32.5274 2108.00
32.5926 1948.00
32.6578 1882.00
32.723 1751.00
32.7882 1757.00
32.8534 1808.00
32.9186 1790.00
32.9838 1930.00
33.0489 2112.00
33.1141 2414.00
33.1793 2931.00
33.2445 3155.00
33.3097 3110.00
33.3749 2671.00
33.4401 2167.00
33.5053 1789.00
33.5705 1535.00
33.6357 1508.00
33.7009 1400.00
33.7661 1514.00
33.8313 1618.00
33.8965 1741.00
33.9617 1671.00
34.0269 1509.00
34.0921 1432.00
34.1573 1296.00
34.2225 1275.00
34.2877 1305.00
34.3529 1344.00
34.4181 1359.00
34.4833 1304.00
34.5485 1333.00
34.6137 1338.00
34.6789 1343.00
34.7441 1190.00
34.8093 1167.00
34.8745 1192.00
34.9397 1172.00
35.0049 1143.00
35.0701 1083.00
35.1353 1162.00
35.2005 1124.00
35.2657 1246.00
35.3309 1168.00
35.3961 1265.00
35.4613 1228.00
35.5265 1257.00
35.5917 1451.00
35.6569 1523.00
35.7221 1640.00
35.7873 1681.00
35.8525 1897.00
35.9177 2048.00
35.9829 2403.00
36.0481 2675.00
36.1133 2825.00
36.1785 2545.00
36.2437 2495.00
36.3089 2485.00
36.3741 2658.00
36.4393 3123.00
36.5045 3425.00
36.5697 3764.00
36.6349 4019.00
36.7001 3708.00
36.7653 2990.00
36.8305 2378.00
36.8957 2028.00
36.9609 1879.00
37.0261 1730.00
37.0913 1592.00
37.1565 1567.00
37.2217 1488.00
37.2869 1405.00
37.3521 1412.00
37.4173 1549.00
37.4825 1575.00
37.5477 1761.00
37.6129 1999.00
37.6781 1811.00
37.7433 1547.00
37.8085 1457.00
37.8736 1394.00
37.9388 1411.00
38.004 1342.00
38.0692 1453.00
38.1344 1563.00
38.1996 1802.00
38.2648 2005.00
38.33 2009.00
38.3952 1899.00
38.4604 1668.00
38.5256 1462.00
38.5908 1306.00
38.656 1243.00
38.7212 1231.00
38.7864 1158.00
38.8516 1170.00
38.9168 1203.00
38.982 1133.00
39.0472 1092.00
39.1124 1092.00
39.1776 1104.00
39.2428 1045.00
39.308 1105.00
39.3732 1109.00
39.4384 1088.00
39.5036 1067.00
39.5688 1072.00
39.634 1103.00
39.6992 1148.00
39.7644 1138.00
39.8296 1199.00
39.8948 1284.00
39.96 1256.00
40.0252 1366.00
40.0904 1173.00
40.1556 1147.00
40.2208 1188.00
40.286 1204.00
40.3512 1256.00
40.4164 1308.00
40.4816 1380.00
40.5468 1380.00
40.612 1265.00
40.6772 1316.00
40.7424 1238.00
40.8076 1229.00
40.8728 1223.00
40.938 1137.00
41.0032 1200.00
41.0684 1069.00
41.1336 1108.00
41.1988 1092.00
41.264 1098.00
41.3292 1077.00
41.3944 1030.00
41.4596 1070.00
41.5248 1080.00
41.59 1123.00
41.6552 1127.00
41.7204 1209.00
41.7856 1181.00
41.8508 1210.00
41.916 1199.00
41.9812 1292.00
42.0464 1331.00
42.1116 1366.00
42.1768 1477.00
42.242 1518.00
42.3072 1518.00
42.3724 1575.00
42.4376 1415.00
42.5028 1407.00
42.568 1369.00
42.6332 1341.00
42.6983 1330.00
42.7635 1327.00
42.8287 1259.00
42.8939 1218.00
42.9591 1111.00
43.0243 1123.00
43.0895 1229.00
43.1547 1162.00
43.2199 1175.00
43.2851 1159.00
43.3503 1161.00
43.4155 1305.00
43.4807 1262.00
43.5459 1611.00
43.6111 2060.00
43.6763 1964.00
43.7415 1826.00
43.8067 1622.00
43.8719 1552.00
43.9371 1485.00
44.0023 1464.00
44.0675 1450.00
44.1327 1407.00
44.1979 1430.00
44.2631 1466.00
44.3283 1433.00
44.3935 1557.00
44.4587 1584.00
44.5239 1576.00
44.5891 1411.00
44.6543 1353.00
44.7195 1282.00
44.7847 1192.00
44.8499 1261.00
44.9151 1225.00
44.9803 1265.00
45.0455 1145.00
45.1107 1105.00
45.1759 1105.00
45.2411 1160.00
45.3063 1129.00
45.3715 1162.00
45.4367 1166.00
45.5019 1239.00
45.5671 1205.00
45.6323 1211.00
45.6975 1395.00
45.7627 1478.00
45.8279 1578.00
45.8931 1724.00
45.9583 1824.00
46.0235 1678.00
46.0887 1757.00
46.1539 1791.00
46.2191 1591.00
46.2843 1489.00
46.3495 1471.00
46.4147 1399.00
46.4799 1325.00
46.5451 1319.00
46.6103 1247.00
46.6755 1150.00
46.7407 1194.00
46.8059 1223.00
46.8711 1213.00
46.9363 1214.00
47.0015 1299.00
47.0667 1340.00
47.1319 1440.00
47.1971 1496.00
47.2623 1542.00
47.3275 1553.00
47.3927 1617.00
47.4579 1692.00
47.523 1612.00
47.5882 1752.00
47.6534 1663.00
47.7186 1743.00
47.7838 1667.00
47.849 1799.00
47.9142 1749.00
47.9794 1566.00
48.0446 1494.00
48.1098 1348.00
48.175 1269.00
48.2402 1261.00
48.3054 1205.00
48.3706 1178.00
48.4358 1224.00
48.501 1312.00
48.5662 1405.00
48.6314 1608.00
48.6966 1698.00
48.7618 1716.00
48.827 1712.00
48.8922 1641.00
48.9574 1784.00
49.0226 1830.00
49.0878 1841.00
49.153 1819.00
49.2182 1878.00
49.2834 1824.00
49.3486 1909.00
49.4138 1875.00
49.479 1962.00
49.5442 1956.00
49.6094 1836.00
49.6746 1755.00
49.7398 1693.00
49.805 1703.00
49.8702 1811.00
49.9354 1845.00
50.0006 1980.00
50.0658 2041.00
50.131 1799.00
50.1962 1567.00
50.2614 1432.00
50.3266 1311.00
50.3918 1344.00
50.457 1287.00
50.5222 1288.00
50.5874 1267.00
50.6526 1226.00
50.7178 1112.00
50.783 1076.00
50.8482 1147.00
50.9134 1141.00
50.9786 1123.00
51.0438 1130.00
51.109 1203.00
51.1742 1226.00
51.2394 1368.00
51.3046 1388.00
51.3698 1452.00
51.435 1456.00
51.5002 1439.00
51.5654 1483.00
51.6306 1291.00
51.6958 1310.00
51.761 1250.00
51.8262 1192.00
51.8914 1140.00
51.9566 1139.00
52.0218 1184.00
52.087 1297.00
52.1522 1384.00
52.2174 1431.00
52.2826 1435.00
52.3477 1571.00
52.4129 1571.00
52.4781 1693.00
52.5433 1715.00
52.6085 1681.00
52.6737 1689.00
52.7389 1695.00
52.8041 1541.00
52.8693 1505.00
52.9345 1459.00
52.9997 1360.00
53.0649 1344.00
53.1301 1275.00
53.1953 1273.00
53.2605 1207.00
53.3257 1149.00
53.3909 1187.00
53.4561 1144.00
53.5213 1100.00
53.5865 1173.00
53.6517 1128.00
53.7169 1124.00
53.7821 1090.00
53.8473 1034.00
53.9125 1047.00
53.9777 1162.00
54.0429 1097.00
54.1081 1134.00
54.1733 1208.00
54.2385 1194.00
54.3037 1263.00
54.3689 1270.00
54.4341 1223.00
54.4993 1224.00
54.5645 1388.00
54.6297 1315.00
54.6949 1309.00
54.7601 1236.00
54.8253 1197.00
54.8905 1316.00
54.9557 1331.00
55.0209 1498.00
55.0861 1815.00
55.1513 1888.00
55.2165 1708.00
55.2817 1598.00
55.3469 1581.00
55.4121 1342.00
55.4773 1359.00
55.5425 1300.00
55.6077 1266.00
55.6729 1181.00
55.7381 1216.00
55.8033 1208.00
55.8685 1123.00
55.9337 1191.00
55.9989 1266.00
56.0641 1177.00
56.1293 1166.00
56.1945 1238.00
56.2597 1251.00
56.3249 1343.00
56.3901 1375.00
56.4553 1410.00
56.5205 1480.00
56.5857 1548.00
56.6509 1542.00
56.7161 1566.00
56.7813 1515.00
56.8465 1513.00
56.9117 1589.00
56.9769 1546.00
57.042 1583.00
57.1073 1534.00
57.1724 1549.00
57.2376 1513.00
57.3028 1472.00
57.368 1494.00
57.4332 1490.00
57.4984 1419.00
57.5636 1334.00
57.6288 1537.00
57.694 1526.00
57.7592 1435.00
57.8244 1498.00
57.8896 1497.00
57.9548 1410.00
58.02 1386.00
58.0852 1316.00
58.1504 1352.00
58.2156 1295.00
58.2808 1293.00
58.346 1217.00
58.4112 1268.00
58.4764 1287.00
58.5416 1360.00
58.6068 1566.00
58.672 1705.00
58.7372 1785.00
58.8024 1834.00
58.8676 1823.00
58.9328 1659.00
58.998 1532.00
59.0632 1518.00
59.1284 1418.00
59.1936 1422.00
59.2588 1377.00
59.324 1377.00
59.3892 1405.00
59.4544 1444.00
59.5196 1362.00
59.5848 1335.00
59.65 1398.00
59.7152 1365.00
59.7804 1409.00
59.8456 1410.00
59.9108 1385.00
59.976 1370.00
60.0412 1411.00
60.1064 1324.00
60.1716 1277.00
60.2368 1239.00
60.302 1132.00
60.3672 1206.00
60.4324 1132.00
60.4976 1079.00
60.5628 1081.00
60.628 1080.00
60.6932 1146.00
60.7584 1097.00
60.8236 1154.00
60.8888 1205.00
60.954 1187.00
61.0192 1282.00
61.0844 1310.00
61.1496 1324.00
61.2148 1288.00
61.28 1378.00
61.3452 1346.00
61.4104 1399.00
61.4756 1293.00
61.5408 1331.00
61.606 1267.00
61.6712 1326.00
61.7364 1244.00
61.8016 1222.00
61.8667 1266.00
61.932 1168.00
61.9971 1244.00
62.0623 1252.00
62.1275 1218.00
62.1927 1253.00
62.2579 1200.00
62.3231 1338.00
62.3883 1367.00
62.4535 1298.00
62.5187 1403.00
62.5839 1352.00
62.6491 1288.00
62.7143 1351.00
62.7795 1402.00
62.8447 1397.00
62.9099 1344.00
62.9751 1362.00
63.0403 1434.00
63.1055 1489.00
63.1707 1639.00
63.2359 1724.00
63.3011 1718.00
63.3663 1756.00
63.4315 1708.00
63.4967 1662.00
63.5619 1577.00
63.6271 1559.00
63.6923 1584.00
63.7575 1594.00
63.8227 1463.00
63.8879 1425.00
63.9531 1411.00
64.0183 1459.00
64.0835 1334.00
64.1487 1350.00
64.2139 1325.00
64.2791 1398.00
64.3443 1307.00
64.4095 1312.00
64.4747 1352.00
64.5399 1369.00
64.6051 1406.00
64.6703 1348.00
64.7355 1320.00
64.8007 1251.00
64.8659 1270.00
64.9311 1267.00
64.9963 1290.00
65.0615 1257.00
65.1267 1319.00
65.1919 1322.00
65.2571 1379.00
65.3223 1430.00
65.3875 1378.00
65.4527 1436.00
65.5179 1499.00
65.5831 1509.00
65.6483 1434.00
65.7135 1407.00
65.7787 1439.00
65.8439 1484.00
65.9091 1464.00
65.9743 1414.00
66.0395 1423.00
66.1047 1304.00
66.1699 1235.00
66.2351 1260.00
66.3003 1173.00
66.3655 1156.00
66.4307 1127.00
66.4959 1171.00
66.561 1154.00
66.6263 1098.00
66.6915 1097.00
66.7566 1092.00
66.8218 1022.00
66.887 1034.00
66.9522 1131.00
67.0174 1149.00
67.0826 1042.00
67.1478 1125.00
67.213 1084.00
67.2782 1110.00
67.3434 1213.00
67.4086 1167.00
67.4738 1169.00
67.539 1216.00
67.6042 1249.00
67.6694 1212.00
67.7346 1375.00
67.7998 1341.00
67.865 1424.00
67.9302 1305.00
67.9954 1321.00
68.0606 1333.00
68.1258 1204.00
68.191 1181.00
68.2562 1188.00
68.3214 1140.00
68.3866 1154.00
68.4518 1219.00
68.517 1183.00
68.5822 1254.00
68.6474 1286.00
68.7126 1244.00
68.7778 1364.00
68.843 1354.00
68.9082 1392.00
68.9734 1404.00
69.0386 1473.00
69.1038 1371.00
69.169 1272.00
69.2342 1303.00
69.2994 1224.00
69.3646 1155.00
69.4298 1186.00
69.495 1149.00
69.5602 1054.00
69.6254 1094.00
69.6906 1126.00
69.7558 1081.00
69.821 1145.00
69.8862 1072.00
69.9514 1094.00
70.0166 1151.00
70.0818 1099.00
70.147 1125.00
70.2122 1141.00
70.2774 1155.00
70.3426 1135.00
70.4078 1118.00
70.473 1090.00
70.5382 1092.00
70.6034 1015.00
70.6686 1087.00
70.7338 1078.00
70.799 1017.00
70.8642 996.00
70.9294 983.00
70.9946 1068.00
71.0598 1004.00
71.125 1031.00
71.1902 996.00
71.2554 1032.00
71.3205 1005.00
71.3858 1006.00
71.451 960.00
71.5162 973.00
71.5813 945.00
71.6465 973.00
71.7117 947.00
71.7769 1000.00
71.8421 1000.00
71.9073 1013.00
71.9725 982.00
72.0377 1008.00
72.1029 997.00
72.1681 1003.00
72.2333 995.00
72.2985 1064.00
72.3637 1108.00
72.4289 1046.00
72.4941 1027.00
72.5593 1025.00
72.6245 1071.00
72.6897 1051.00
72.7549 1108.00
72.8201 1122.00
72.8853 1145.00
72.9505 1138.00
73.0157 1109.00
73.0809 1146.00
73.1461 1078.00
73.2113 1169.00
73.2765 1117.00
73.3417 1085.00
73.4069 1105.00
73.4721 1089.00
73.5373 1091.00
73.6025 975.00
73.6677 1066.00
73.7329 1035.00
73.7981 1029.00
73.8633 1044.00
73.9285 982.00
73.9937 1000.00
74.0589 948.00
74.1241 1041.00
74.1893 1005.00
74.2545 1009.00
74.3197 1031.00
74.3849 1010.00
74.4501 991.00
74.5153 1014.00
74.5805 974.00
74.6457 994.00
74.7109 1041.00
74.7761 1009.00
74.8413 1039.00
74.9065 1034.00
74.9717 1094.00
75.0369 1036.00
75.1021 994.00
75.1673 1090.00
75.2325 1093.00
75.2977 1045.00
75.3629 1090.00
75.4281 1015.00
75.4933 1055.00
75.5585 1153.00
75.6237 1066.00
75.6889 1165.00
75.7541 1113.00
75.8193 1144.00
75.8845 1076.00
75.9497 1154.00
76.0149 1127.00
76.0801 1084.00
76.1452 1064.00
76.2104 1035.00
76.2756 1135.00
76.3409 1165.00
76.406 1195.00
76.4712 1193.00
76.5364 1146.00
76.6016 1240.00
76.6668 1144.00
76.732 1090.00
76.7972 1151.00
76.8624 1121.00
76.9276 1214.00
76.9928 1207.00
77.058 1153.00
77.1232 1173.00
77.1884 1124.00
77.2536 1271.00
77.3188 1158.00
77.384 1116.00
77.4492 1163.00
77.5144 1085.00
77.5796 1142.00
77.6448 1088.00
77.71 963.00
77.7752 1043.00
77.8404 1040.00
77.9056 1060.00
77.9708 1053.00
78.036 972.00
78.1012 940.00
78.1664 987.00
78.2316 1021.00
78.2968 985.00
78.362 997.00
78.4272 1027.00
78.4924 1021.00
78.5576 1040.00
78.6228 1082.00
78.688 1060.00
78.7532 1032.00
78.8184 948.00
78.8836 1020.00
78.9488 1045.00
79.014 987.00
79.0792 995.00
79.1444 1062.00
79.2096 1002.00
79.2748 1035.00
79.34 935.00
79.4052 984.00
79.4704 1011.00
79.5356 975.00
79.6008 1022.00
79.666 1001.00
79.7312 1042.00
79.7964 1071.00
79.8616 1039.00
79.9268 1023.00
79.992 1049.00
80.0572 996.00
80.1224 1017.00
80.1876 1025.00
80.2528 924.00
80.318 1020.00
80.3832 1001.00
80.4484 1062.00
80.5136 1067.00
80.5788 1029.00
80.644 1083.00
80.7092 1013.00
80.7744 1076.00
80.8396 1019.00
80.9048 958.00
80.9699 945.00
81.0351 1086.00
81.1003 1002.00
81.1655 1006.00
81.2307 1034.00
81.2959 1070.00
81.3611 1087.00
81.4263 1063.00
81.4915 1038.00
81.5567 1053.00
81.6219 1004.00
81.6871 1011.00
81.7523 1096.00
81.8175 1036.00
81.8827 1044.00
81.9479 1045.00
82.0131 1025.00
82.0783 983.00
82.1435 1002.00
82.2087 1048.00
82.2739 1074.00
82.3391 1035.00
82.4043 1016.00
82.4695 992.00
82.5347 1036.00
82.5999 1058.00
82.6651 1025.00
82.7303 1024.00
82.7955 1016.00
82.8607 1043.00
82.9259 1005.00
82.9911 1112.00
83.0563 1037.00
83.1215 986.00
83.1867 1008.00
83.2519 1017.00
83.3171 985.00
83.3823 1006.00
83.4475 1025.00
83.5127 1019.00
83.5779 1008.00
83.6431 992.00
83.7083 980.00
83.7735 1004.00
83.8387 974.00
83.9039 992.00
83.9691 952.00
84.0343 1027.00
84.0995 919.00
84.1647 931.00
84.2299 998.00
84.2951 906.00
84.3603 985.00
84.4255 1047.00
84.4907 1048.00
84.5559 999.00
84.6211 982.00
84.6863 1022.00
84.7515 994.00
84.8167 980.00
84.8819 1007.00
84.9471 969.00
85.0123 1058.00
85.0775 1028.00
85.1427 998.00
85.2079 1015.00
85.2731 1040.00
85.3383 1028.00
85.4035 1094.00
85.4687 1154.00
85.5339 1044.00
85.5991 1068.00
85.6643 1121.00
85.7295 1060.00
85.7946 1016.00
85.8598 1090.00
85.925 1077.00
85.9903 1060.00
86.0554 1047.00
86.1206 1034.00
86.1858 1017.00
86.251 1029.00
86.3162 1006.00
86.3814 1065.00
86.4466 1071.00
86.5118 1032.00
86.577 1040.00
86.6422 1030.00
86.7074 1111.00
86.7726 1146.00
86.8378 1083.00
86.903 984.00
86.9682 1013.00
87.0334 1060.00
87.0986 1061.00
87.1638 1001.00
87.229 996.00
87.2942 1023.00
87.3594 1048.00
87.4246 1065.00
87.4898 1089.00
87.555 1019.00
87.6202 1080.00
87.6854 1074.00
87.7506 1029.00
87.8158 1020.00
87.881 1057.00
87.9462 1004.00
88.0114 1047.00
88.0766 1073.00
88.1418 1026.00
88.207 1049.00
88.2722 1064.00
88.3374 994.00
88.4026 1024.00
88.4678 1024.00
88.533 1035.00
88.5982 962.00
88.6634 1049.00
88.7286 1031.00
88.7938 948.00
88.859 1024.00
88.9242 990.00
88.9894 957.00
89.0546 959.00
89.1198 914.00
89.185 953.00
89.2502 951.00
89.3154 995.00
89.3806 1011.00
89.4458 1006.00
89.511 993.00
89.5762 1036.00
89.6414 1074.00
89.7066 996.00
89.7718 991.00
89.837 1033.00
89.9022 1008.00
89.9674 1052.00
90.0326 1050.00
90.0978 1037.00
90.163 1001.00
90.2282 1006.00
90.2934 953.00
90.3586 1048.00
90.4238 1021.00
90.489 1027.00
90.5542 1093.00
90.6193 993.00
90.6845 1071.00
90.7497 1010.00
90.8149 1030.00
90.8801 1109.00
90.9453 1110.00
91.0105 1070.00
91.0757 1016.00
91.1409 1082.00
91.2061 1125.00
91.2713 1062.00
91.3365 1095.00
91.4017 1087.00
91.4669 1082.00
91.5321 1020.00
91.5973 1063.00
91.6625 1092.00
91.7277 1095.00
91.7929 1072.00
91.8581 1008.00
91.9233 1067.00
91.9885 1112.00
92.0537 1082.00
92.1189 1066.00
92.1841 1130.00
92.2493 1093.00
92.3145 1087.00
92.3797 1121.00
92.4449 1116.00
92.5101 1114.00
92.5753 1111.00
92.6405 1204.00
92.7057 1187.00
92.7709 1165.00
92.8361 1131.00
92.9013 1099.00
92.9665 1133.00
93.0317 1094.00
93.0969 1112.00
93.1621 1062.00
93.2273 1073.00
93.2925 1059.00
93.3577 989.00
93.4229 1015.00
93.4881 1035.00
93.5533 1030.00
93.6185 1017.00
93.6837 1011.00
93.7489 1033.00
93.8141 965.00
93.8793 1014.00
93.9445 1001.00
94.0097 983.00
94.0749 1011.00
94.1401 1007.00
94.2053 963.00
94.2705 985.00
94.3357 1001.00
94.4009 1027.00
94.4661 964.00
94.5313 973.00
94.5965 1000.00
94.6617 938.00
94.7269 972.00
94.7921 979.00
94.8573 989.00
94.9225 962.00
94.9877 1034.00
95.0529 1019.00
95.1181 1003.00
95.1833 944.00
95.2485 991.00
95.3137 959.00
95.3789 1015.00
95.444 1034.00
95.5092 1064.00
95.5744 1066.00
95.6396 1059.00
95.7048 974.00
95.77 1035.00
95.8352 1052.00
95.9004 957.00
95.9656 975.00
96.0308 996.00
96.096 1008.00
96.1612 958.00
96.2264 986.00
96.2916 1045.00
96.3568 1001.00
96.422 966.00
96.4872 1011.00
96.5524 956.00
96.6176 1005.00
96.6828 966.00
96.748 1005.00
96.8132 988.00
96.8784 982.00
96.9436 1021.00
97.0088 1030.00
97.074 955.00
97.1392 982.00
97.2044 1037.00
97.2696 980.00
97.3348 999.00
97.4 1068.00
97.4652 1094.00
97.5304 1010.00
97.5956 1008.00
97.6608 992.00
97.726 973.00
97.7912 1001.00
97.8564 1075.00
97.9216 1023.00
97.9868 1023.00
98.052 950.00
98.1172 974.00
98.1824 1047.00
98.2476 1042.00
98.3128 999.00
98.378 991.00
98.4432 1019.00
98.5084 998.00
98.5736 999.00
98.6388 968.00
98.704 1005.00
98.7692 1078.00
98.8344 1041.00
98.8996 980.00
98.9648 1001.00
99.03 990.00
99.0952 1008.00
99.1604 1013.00
99.2256 1045.00
99.2908 1001.00
99.356 973.00
99.4212 958.00
99.4864 1017.00
99.5516 983.00
99.6168 985.00
99.682 1028.00
99.7472 1051.00
99.8124 1005.00
99.8776 1032.00
99.9428 990.00
100.008 964.00
100.073 1021.00
100.095 1014.00