File: data/xrd_creation/results/NSC_122.xy
9.903433 2651.00
9.968632 2652.00
10.0338 2565.00
10.099 2645.00
10.1642 2576.00
10.2294 2728.00
10.2946 2670.00
10.3598 2588.00
10.425 2532.00
10.4902 2465.00
10.5554 2500.00
10.6206 2500.00
10.6858 2564.00
10.751 2496.00
10.8162 2479.00
10.8814 2388.00
10.9466 2407.00
11.0118 2400.00
11.077 2207.00
11.1422 2327.00
11.2074 2330.00
11.2726 2271.00
11.3378 2258.00
11.403 2332.00
11.4682 2283.00
11.5334 2186.00
11.5986 2139.00
11.6638 2237.00
11.729 2223.00
11.7942 2228.00
11.8594 2262.00
11.9246 2227.00
11.9898 2078.00
12.055 2101.00
12.1202 2159.00
12.1854 2150.00
12.2506 2119.00
12.3158 2024.00
12.381 2106.00
12.4462 1974.00
12.5114 2132.00
12.5766 2120.00
12.6418 2045.00
12.707 2021.00
12.7722 2031.00
12.8374 2052.00
12.9026 2091.00
12.9678 2025.00
13.033 2029.00
13.0982 1998.00
13.1634 1907.00
13.2286 1934.00
13.2938 2026.00
13.359 1954.00
13.4242 2039.00
13.4894 1930.00
13.5546 1982.00
13.6198 1917.00
13.685 1983.00
13.7502 1915.00
13.8154 1999.00
13.8805 1934.00
13.9457 1925.00
14.0109 1841.00
14.0761 1851.00
14.1413 1830.00
14.2065 1821.00
14.2717 1922.00
14.3369 1799.00
14.4021 1837.00
14.4673 1832.00
14.5325 1964.00
14.5977 1951.00
14.6629 2148.00
14.7281 2271.00
14.7933 2414.00
14.8585 2939.00
14.9237 3640.00
14.9889 4968.00
15.0541 6578.00
15.1193 8025.00
15.1845 8488.00
15.2497 6906.00
15.3149 4655.00
15.3801 3156.00
15.4453 2177.00
15.5105 1897.00
15.5757 1925.00
15.6409 1828.00
15.7061 1821.00
15.7713 1754.00
15.8365 1843.00
15.9017 1806.00
15.9669 1806.00
16.0321 1771.00
16.0973 1703.00
16.1625 1721.00
16.2277 1723.00
16.2929 1725.00
16.3581 1736.00
16.4233 1640.00
16.4885 1684.00
16.5537 1668.00
16.6189 1727.00
16.6841 1675.00
16.7493 1714.00
16.8145 1666.00
16.8797 1726.00
16.9449 1633.00
17.0101 1704.00
17.0753 1644.00
17.1405 1713.00
17.2057 1592.00
17.2709 1662.00
17.3361 1576.00
17.4013 1681.00
17.4665 1760.00
17.5317 1739.00
17.5969 1821.00
17.6621 2036.00
17.7273 2310.00
17.7925 2317.00
17.8577 2055.00
17.9229 1679.00
17.9881 1686.00
18.0533 1636.00
18.1185 1595.00
18.1837 1704.00
18.2489 1693.00
18.3141 1780.00
18.3793 1803.00
18.4445 1861.00
18.5097 1907.00
18.5749 1792.00
18.6401 1618.00
18.7052 1541.00
18.7704 1573.00
18.8356 1571.00
18.9008 1587.00
18.966 1481.00
19.0312 1460.00
19.0964 1453.00
19.1616 1476.00
19.2268 1514.00
19.292 1429.00
19.3572 1564.00
19.4224 1414.00
19.4876 1483.00
19.5528 1561.00
19.618 1465.00
19.6832 1498.00
19.7484 1512.00
19.8136 1543.00
19.8788 1478.00
19.944 1542.00
20.0092 1483.00
20.0744 1520.00
20.1396 1512.00
20.2048 1583.00
20.27 1674.00
20.3352 1720.00
20.4004 1862.00
20.4656 2032.00
20.5308 2387.00
20.596 2959.00
20.6612 4364.00
20.7264 7235.00
20.7916 12015.00
20.8568 18144.00
20.922 20280.00
20.9872 15701.00
21.0524 8823.00
21.1176 4794.00
21.1828 2847.00
21.248 2423.00
21.3132 2390.00
21.3784 2693.00
21.4436 2974.00
21.5088 3811.00
21.574 4738.00
21.6392 5745.00
21.7044 7180.00
21.7696 8667.00
21.8348 10108.00
21.9 11053.00
21.9652 9918.00
22.0304 8337.00
22.0956 7256.00
22.1608 6185.00
22.226 4637.00
22.2912 2759.00
22.3564 1919.00
22.4216 1593.00
22.4868 1672.00
22.552 1645.00
22.6172 1601.00
22.6824 1553.00
22.7476 1612.00
22.8128 1601.00
22.878 1537.00
22.9432 1516.00
23.0084 1536.00
23.0736 1477.00
23.1388 1397.00
23.204 1421.00
23.2692 1460.00
23.3344 1422.00
23.3996 1425.00
23.4647 1436.00
23.5299 1519.00
23.5951 1589.00
23.6603 1583.00
23.7255 1776.00
23.7907 1772.00
23.8559 1739.00
23.9211 1524.00
23.9863 1426.00
24.0515 1440.00
24.1167 1420.00
24.1819 1386.00
24.2471 1550.00
24.3123 1559.00
24.3775 1645.00
24.4427 1809.00
24.5079 1964.00
24.5731 1895.00
24.6383 2003.00
24.7035 2270.00
24.7687 2850.00
24.8339 3634.00
24.8991 5186.00
24.9643 6894.00
25.0295 8832.00
25.0947 11335.00
25.1599 13550.00
25.2251 14244.00
25.2903 12466.00
25.3555 9825.00
25.4207 8128.00
25.4859 6476.00
25.5511 4438.00
25.6163 2459.00
25.6815 1688.00
25.7467 1572.00
25.8119 1509.00
25.8771 1405.00
25.9423 1401.00
26.0075 1424.00
26.0727 1365.00
26.1379 1370.00
26.2031 1359.00
26.2683 1312.00
26.3335 1389.00
26.3987 1390.00
26.4639 1358.00
26.5291 1329.00
26.5943 1430.00
26.6595 1411.00
26.7247 1466.00
26.7899 1341.00
26.8551 1350.00
26.9203 1330.00
26.9855 1396.00
27.0507 1477.00
27.1159 1326.00
27.1811 1359.00
27.2463 1359.00
27.3115 1424.00
27.3767 1349.00
27.4419 1242.00
27.5071 1206.00
27.5723 1245.00
27.6375 1291.00
27.7027 1156.00
27.7679 1216.00
27.8331 1250.00
27.8983 1117.00
27.9635 1243.00
28.0287 1181.00
28.0939 1211.00
28.1591 1187.00
28.2243 1122.00
28.2894 1245.00
28.3546 1275.00
28.4198 1134.00
28.485 1248.00
28.5502 1192.00
28.6154 1172.00
28.6806 1228.00
28.7458 1210.00
28.811 1283.00
28.8762 1240.00
28.9414 1267.00
29.0066 1274.00
29.0718 1221.00
29.137 1141.00
29.2022 1172.00
29.2674 1206.00
29.3326 1252.00
29.3978 1247.00
29.463 1204.00
29.5282 1308.00
29.5934 1431.00
29.6586 1569.00
29.7238 1616.00
29.789 1898.00
29.8542 2189.00
29.9194 2838.00
29.9846 3850.00
30.0498 5042.00
30.115 6237.00
30.1802 7680.00
30.2454 9183.00
30.3106 9810.00
30.3758 9225.00
30.441 7513.00
30.5062 5929.00
30.5714 5022.00
30.6366 4185.00
30.7018 3073.00
30.767 1971.00
30.8322 1513.00
30.8974 1510.00
30.9626 1494.00
31.0278 1667.00
31.093 1656.00
31.1582 1368.00
31.2234 1288.00
31.2886 1164.00
31.3538 1144.00
31.419 1140.00
31.4842 1191.00
31.5494 1155.00
31.6146 1122.00
31.6798 1177.00
31.745 1178.00
31.8102 1284.00
31.8754 1343.00
31.9406 1357.00
32.0058 1387.00
32.071 1337.00
32.1362 1271.00
32.2014 1262.00
32.2666 1193.00
32.3318 1178.00
32.397 1212.00
32.4622 1170.00
32.5274 1189.00
32.5926 1126.00
32.6578 1284.00
32.723 1302.00
32.7882 1471.00
32.8534 1630.00
32.9186 1766.00
32.9838 2166.00
33.0489 3000.00
33.1141 4611.00
33.1793 7009.00
33.2445 9624.00
33.3097 11624.00
33.3749 11548.00
33.4401 9880.00
33.5053 7995.00
33.5705 6719.00
33.6357 5151.00
33.7009 3760.00
33.7661 2826.00
33.8313 2581.00
33.8965 2414.00
33.9617 2139.00
34.0269 2006.00
34.0921 1776.00
34.1573 1674.00
34.2225 1634.00
34.2877 1650.00
34.3529 1390.00
34.4181 1211.00
34.4833 1152.00
34.5485 1119.00
34.6137 1014.00
34.6789 1110.00
34.7441 1149.00
34.8093 1036.00
34.8745 1106.00
34.9397 1089.00
35.0049 1096.00
35.0701 1111.00
35.1353 1077.00
35.2005 1038.00
35.2657 1013.00
35.3309 1006.00
35.3961 1104.00
35.4613 1034.00
35.5265 1080.00
35.5917 1197.00
35.6569 1322.00
35.7221 1582.00
35.7873 1900.00
35.8525 1843.00
35.9177 1621.00
35.9829 1369.00
36.0481 1161.00
36.1133 1119.00
36.1785 1040.00
36.2437 1098.00
36.3089 1061.00
36.3741 1103.00
36.4393 1009.00
36.5045 1042.00
36.5697 1015.00
36.6349 1122.00
36.7001 1098.00
36.7653 1103.00
36.8305 1120.00
36.8957 1165.00
36.9609 1311.00
37.0261 1428.00
37.0913 1618.00
37.1565 1784.00
37.2217 1960.00
37.2869 2204.00
37.3521 2417.00
37.4173 2687.00
37.4825 3172.00
37.5477 3247.00
37.6129 3373.00
37.6781 3194.00
37.7433 3076.00
37.8085 2928.00
37.8736 2858.00
37.9388 3026.00
38.004 3068.00
38.0692 3325.00
38.1344 3287.00
38.1996 3000.00
38.2648 2934.00
38.33 2690.00
38.3952 2311.00
38.4604 2190.00
38.5256 2009.00
38.5908 2120.00
38.656 2036.00
38.7212 1845.00
38.7864 1514.00
38.8516 1305.00
38.9168 1175.00
38.982 1127.00
39.0472 1027.00
39.1124 1001.00
39.1776 1042.00
39.2428 1013.00
39.308 978.00
39.3732 1001.00
39.4384 1042.00
39.5036 1021.00
39.5688 1037.00
39.634 1062.00
39.6992 1032.00
39.7644 1009.00
39.8296 1081.00
39.8948 1028.00
39.96 1029.00
40.0252 1136.00
40.0904 1266.00
40.1556 1361.00
40.2208 1299.00
40.286 1436.00
40.3512 1424.00
40.4164 1331.00
40.4816 1233.00
40.5468 1291.00
40.612 1235.00
40.6772 1256.00
40.7424 1150.00
40.8076 1115.00
40.8728 1019.00
40.938 1012.00
41.0032 961.00
41.0684 955.00
41.1336 973.00
41.1988 932.00
41.264 852.00
41.3292 892.00
41.3944 905.00
41.4596 918.00
41.5248 915.00
41.59 882.00
41.6552 916.00
41.7204 918.00
41.7856 937.00
41.8508 953.00
41.916 999.00
41.9812 1112.00
42.0464 1121.00
42.1116 1420.00
42.1768 1587.00
42.242 1664.00
42.3072 1507.00
42.3724 1396.00
42.4376 1310.00
42.5028 1207.00
42.568 1097.00
42.6332 951.00
42.6983 964.00
42.7635 1033.00
42.8287 910.00
42.8939 920.00
42.9591 899.00
43.0243 920.00
43.0895 880.00
43.1547 823.00
43.2199 914.00
43.2851 887.00
43.3503 901.00
43.4155 908.00
43.4807 946.00
43.5459 1005.00
43.6111 1093.00
43.6763 1180.00
43.7415 1497.00
43.8067 1719.00
43.8719 1979.00
43.9371 2207.00
44.0023 2103.00
44.0675 1994.00
44.1327 1676.00
44.1979 1528.00
44.2631 1446.00
44.3283 1258.00
44.3935 1153.00
44.4587 1066.00
44.5239 1019.00
44.5891 1102.00
44.6543 1068.00
44.7195 1190.00
44.7847 1172.00
44.8499 1228.00
44.9151 1187.00
44.9803 1219.00
45.0455 1186.00
45.1107 1089.00
45.1759 1062.00
45.2411 1049.00
45.3063 1039.00
45.3715 1053.00
45.4367 1067.00
45.5019 1107.00
45.5671 1090.00
45.6323 1125.00
45.6975 1181.00
45.7627 1281.00
45.8279 1328.00
45.8931 1515.00
45.9583 1615.00
46.0235 1695.00
46.0887 1743.00
46.1539 1711.00
46.2191 1605.00
46.2843 1547.00
46.3495 1554.00
46.4147 1456.00
46.4799 1460.00
46.5451 1411.00
46.6103 1342.00
46.6755 1300.00
46.7407 1173.00
46.8059 1158.00
46.8711 1251.00
46.9363 1160.00
47.0015 1135.00
47.0667 1151.00
47.1319 1180.00
47.1971 1165.00
47.2623 1134.00
47.3275 1086.00
47.3927 1101.00
47.4579 1218.00
47.523 1519.00
47.5882 1604.00
47.6534 1839.00
47.7186 2080.00
47.7838 2339.00
47.849 2696.00
47.9142 2777.00
47.9794 2729.00
48.0446 2503.00
48.1098 2250.00
48.175 1999.00
48.2402 1860.00
48.3054 1642.00
48.3706 1649.00
48.4358 1501.00
48.501 1364.00
48.5662 1234.00
48.6314 1287.00
48.6966 1289.00
48.7618 1327.00
48.827 1344.00
48.8922 1421.00
48.9574 1524.00
49.0226 1498.00
49.0878 1614.00
49.153 1787.00
49.2182 1880.00
49.2834 2106.00
49.3486 2324.00
49.4138 2596.00
49.479 2735.00
49.5442 2796.00
49.6094 2596.00
49.6746 2393.00
49.7398 2159.00
49.805 1944.00
49.8702 1710.00
49.9354 1550.00
50.0006 1316.00
50.0658 1217.00
50.131 1051.00
50.1962 1026.00
50.2614 942.00
50.3266 959.00
50.3918 971.00
50.457 975.00
50.5222 976.00
50.5874 1083.00
50.6526 1156.00
50.7178 1272.00
50.783 1389.00
50.8482 1546.00
50.9134 1732.00
50.9786 1879.00
51.0438 1920.00
51.109 1997.00
51.1742 2081.00
51.2394 2259.00
51.3046 2370.00
51.3698 2477.00
51.435 2534.00
51.5002 2494.00
51.5654 2338.00
51.6306 2143.00
51.6958 2086.00
51.761 1923.00
51.8262 1874.00
51.8914 1834.00
51.9566 1888.00
52.0218 1740.00
52.087 1604.00
52.1522 1382.00
52.2174 1305.00
52.2826 1136.00
52.3477 1163.00
52.4129 1103.00
52.4781 1006.00
52.5433 1056.00
52.6085 959.00
52.6737 943.00
52.7389 983.00
52.8041 955.00
52.8693 986.00
52.9345 956.00
52.9997 992.00
53.0649 923.00
53.1301 931.00
53.1953 901.00
53.2605 904.00
53.3257 899.00
53.3909 812.00
53.4561 870.00
53.5213 859.00
53.5865 819.00
53.6517 915.00
53.7169 846.00
53.7821 914.00
53.8473 891.00
53.9125 959.00
53.9777 968.00
54.0429 972.00
54.1081 1002.00
54.1733 1119.00
54.2385 1236.00
54.3037 1466.00
54.3689 1728.00
54.4341 2098.00
54.4993 2520.00
54.5645 2786.00
54.6297 3049.00
54.6949 3129.00
54.7601 2962.00
54.8253 2631.00
54.8905 2352.00
54.9557 2082.00
55.0209 1969.00
55.0861 1801.00
55.1513 1585.00
55.2165 1413.00
55.2817 1345.00
55.3469 1222.00
55.4121 1195.00
55.4773 1179.00
55.5425 1199.00
55.6077 1197.00
55.6729 1105.00
55.7381 1199.00
55.8033 1246.00
55.8685 1266.00
55.9337 1306.00
55.9989 1232.00
56.0641 1144.00
56.1293 1078.00
56.1945 1057.00
56.2597 978.00
56.3249 906.00
56.3901 919.00
56.4553 896.00
56.5205 899.00
56.5857 880.00
56.6509 906.00
56.7161 889.00
56.7813 925.00
56.8465 929.00
56.9117 910.00
56.9769 894.00
57.042 945.00
57.1073 995.00
57.1724 888.00
57.2376 1018.00
57.3028 971.00
57.368 1066.00
57.4332 1141.00
57.4984 1208.00
57.5636 1208.00
57.6288 1225.00
57.694 1309.00
57.7592 1291.00
57.8244 1417.00
57.8896 1567.00
57.9548 1708.00
58.02 1665.00
58.0852 1747.00
58.1504 1807.00
58.2156 1762.00
58.2808 1674.00
58.346 1621.00
58.4112 1616.00
58.4764 1642.00
58.5416 1641.00
58.6068 1600.00
58.672 1679.00
58.7372 1725.00
58.8024 1668.00
58.8676 1706.00
58.9328 1762.00
58.998 1809.00
59.0632 1864.00
59.1284 2044.00
59.1936 2161.00
59.2588 2276.00
59.324 2308.00
59.3892 2314.00
59.4544 2401.00
59.5196 2407.00
59.5848 2364.00
59.65 2470.00
59.7152 2326.00
59.7804 2301.00
59.8456 2146.00
59.9108 2088.00
59.976 1995.00
60.0412 1850.00
60.1064 1812.00
60.1716 1737.00
60.2368 1606.00
60.302 1442.00
60.3672 1458.00
60.4324 1460.00
60.4976 1373.00
60.5628 1426.00
60.628 1409.00
60.6932 1349.00
60.7584 1171.00
60.8236 1149.00
60.8888 1080.00
60.954 1037.00
61.0192 1070.00
61.0844 1011.00
61.1496 1069.00
61.2148 952.00
61.28 1087.00
61.3452 1111.00
61.4104 1118.00
61.4756 1165.00
61.5408 1291.00
61.606 1369.00
61.6712 1493.00
61.7364 1454.00
61.8016 1324.00
61.8667 1313.00
61.932 1285.00
61.9971 1204.00
62.0623 1137.00
62.1275 1037.00
62.1927 1077.00
62.2579 1086.00
62.3231 1059.00
62.3883 1138.00
62.4535 1111.00
62.5187 1205.00
62.5839 1200.00
62.6491 1234.00
62.7143 1245.00
62.7795 1225.00
62.8447 1167.00
62.9099 1158.00
62.9751 1124.00
63.0403 1132.00
63.1055 1038.00
63.1707 1044.00
63.2359 1112.00
63.3011 1111.00
63.3663 1173.00
63.4315 1241.00
63.4967 1268.00
63.5619 1334.00
63.6271 1377.00
63.6923 1423.00
63.7575 1634.00
63.8227 1747.00
63.8879 1831.00
63.9531 1943.00
64.0183 1979.00
64.0835 1995.00
64.1487 1974.00
64.2139 1909.00
64.2791 1832.00
64.3443 1657.00
64.4095 1575.00
64.4747 1502.00
64.5399 1505.00
64.6051 1476.00
64.6703 1356.00
64.7355 1322.00
64.8007 1288.00
64.8659 1229.00
64.9311 1217.00
64.9963 1199.00
65.0615 1202.00
65.1267 1229.00
65.1919 1186.00
65.2571 1310.00
65.3223 1255.00
65.3875 1352.00
65.4527 1524.00
65.5179 1521.00
65.5831 1539.00
65.6483 1575.00
65.7135 1585.00
65.7787 1684.00
65.8439 1529.00
65.9091 1719.00
65.9743 1882.00
66.0395 2083.00
66.1047 2203.00
66.1699 2235.00
66.2351 2311.00
66.3003 2132.00
66.3655 2002.00
66.4307 1895.00
66.4959 1749.00
66.561 1589.00
66.6263 1330.00
66.6915 1303.00
66.7566 1130.00
66.8218 1069.00
66.887 1087.00
66.9522 1014.00
67.0174 1001.00
67.0826 1022.00
67.1478 1003.00
67.213 1117.00
67.2782 1007.00
67.3434 1093.00
67.4086 1110.00
67.4738 1028.00
67.539 1142.00
67.6042 1110.00
67.6694 1144.00
67.7346 1096.00
67.7998 1179.00
67.865 1255.00
67.9302 1243.00
67.9954 1329.00
68.0606 1357.00
68.1258 1391.00
68.191 1493.00
68.2562 1568.00
68.3214 1536.00
68.3866 1620.00
68.4518 1648.00
68.517 1708.00
68.5822 1602.00
68.6474 1546.00
68.7126 1542.00
68.7778 1441.00
68.843 1402.00
68.9082 1363.00
68.9734 1347.00
69.0386 1445.00
69.1038 1486.00
69.169 1537.00
69.2342 1479.00
69.2994 1569.00
69.3646 1575.00
69.4298 1427.00
69.495 1370.00
69.5602 1306.00
69.6254 1249.00
69.6906 1164.00
69.7558 1146.00
69.821 1076.00
69.8862 1117.00
69.9514 1010.00
70.0166 1048.00
70.0818 1054.00
70.147 1128.00
70.2122 1220.00
70.2774 1339.00
70.3426 1481.00
70.4078 1609.00
70.473 1612.00
70.5382 1700.00
70.6034 1565.00
70.6686 1528.00
70.7338 1427.00
70.799 1272.00
70.8642 1233.00
70.9294 1163.00
70.9946 1114.00
71.0598 1122.00
71.125 975.00
71.1902 935.00
71.2554 964.00
71.3205 883.00
71.3858 945.00
71.451 920.00
71.5162 918.00
71.5813 872.00
71.6465 925.00
71.7117 887.00
71.7769 882.00
71.8421 946.00
71.9073 991.00
71.9725 958.00
72.0377 925.00
72.1029 1043.00
72.1681 1044.00
72.2333 1078.00
72.2985 1059.00
72.3637 1108.00
72.4289 1127.00
72.4941 1125.00
72.5593 1099.00
72.6245 1178.00
72.6897 1193.00
72.7549 1122.00
72.8201 1169.00
72.8853 1193.00
72.9505 1045.00
73.0157 1099.00
73.0809 1067.00
73.1461 1079.00
73.2113 950.00
73.2765 1018.00
73.3417 1045.00
73.4069 972.00
73.4721 979.00
73.5373 913.00
73.6025 1010.00
73.6677 933.00
73.7329 953.00
73.7981 937.00
73.8633 946.00
73.9285 925.00
73.9937 903.00
74.0589 875.00
74.1241 973.00
74.1893 974.00
74.2545 899.00
74.3197 1011.00
74.3849 928.00
74.4501 891.00
74.5153 898.00
74.5805 880.00
74.6457 897.00
74.7109 942.00
74.7761 860.00
74.8413 913.00
74.9065 955.00
74.9717 936.00
75.0369 876.00
75.1021 956.00
75.1673 910.00
75.2325 982.00
75.2977 970.00
75.3629 934.00
75.4281 1009.00
75.4933 1069.00
75.5585 986.00
75.6237 1031.00
75.6889 1046.00
75.7541 965.00
75.8193 1000.00
75.8845 980.00
75.9497 984.00
76.0149 984.00
76.0801 1002.00
76.1452 994.00
76.2104 988.00
76.2756 1038.00
76.3409 1026.00
76.406 1072.00
76.4712 1074.00
76.5364 1099.00
76.6016 1116.00
76.6668 1199.00
76.732 1112.00
76.7972 1134.00
76.8624 1194.00
76.9276 1156.00
76.9928 1036.00
77.058 1096.00
77.1232 1043.00
77.1884 974.00
77.2536 1019.00
77.3188 1034.00
77.384 1004.00
77.4492 1034.00
77.5144 907.00
77.5796 971.00
77.6448 953.00
77.71 925.00
77.7752 962.00
77.8404 1030.00
77.9056 995.00
77.9708 981.00
78.036 954.00
78.1012 856.00
78.1664 962.00
78.2316 942.00
78.2968 942.00
78.362 988.00
78.4272 963.00
78.4924 1039.00
78.5576 1079.00
78.6228 1142.00
78.688 1164.00
78.7532 1203.00
78.8184 1183.00
78.8836 1174.00
78.9488 1132.00
79.014 1137.00
79.0792 1115.00
79.1444 1103.00
79.2096 1071.00
79.2748 1066.00
79.34 1064.00
79.4052 1109.00
79.4704 1022.00
79.5356 1025.00
79.6008 993.00
79.666 970.00
79.7312 1029.00
79.7964 1046.00
79.8616 1053.00
79.9268 1068.00
79.992 1148.00
80.0572 1179.00
80.1224 1153.00
80.1876 1123.00
80.2528 1137.00
80.318 1156.00
80.3832 1102.00
80.4484 1035.00
80.5136 1014.00
80.5788 971.00
80.644 937.00
80.7092 956.00
80.7744 924.00
80.8396 994.00
80.9048 1013.00
80.9699 916.00
81.0351 921.00
81.1003 949.00
81.1655 972.00
81.2307 989.00
81.2959 1011.00
81.3611 1005.00
81.4263 1038.00
81.4915 991.00
81.5567 1002.00
81.6219 1015.00
81.6871 977.00
81.7523 962.00
81.8175 910.00
81.8827 1035.00
81.9479 949.00
82.0131 954.00
82.0783 959.00
82.1435 965.00
82.2087 1000.00
82.2739 908.00
82.3391 930.00
82.4043 1027.00
82.4695 976.00
82.5347 998.00
82.5999 985.00
82.6651 936.00
82.7303 999.00
82.7955 1015.00
82.8607 946.00
82.9259 1013.00
82.9911 930.00
83.0563 903.00
83.1215 970.00
83.1867 889.00
83.2519 876.00
83.3171 920.00
83.3823 915.00
83.4475 979.00
83.5127 883.00
83.5779 946.00
83.6431 891.00
83.7083 945.00
83.7735 874.00
83.8387 872.00
83.9039 955.00
83.9691 1016.00
84.0343 990.00
84.0995 1106.00
84.1647 1023.00
84.2299 1134.00
84.2951 1051.00
84.3603 1085.00
84.4255 1035.00
84.4907 1081.00
84.5559 1023.00
84.6211 964.00
84.6863 1001.00
84.7515 995.00
84.8167 936.00
84.8819 955.00
84.9471 977.00
85.0123 947.00
85.0775 958.00
85.1427 1002.00
85.2079 991.00
85.2731 926.00
85.3383 960.00
85.4035 901.00
85.4687 922.00
85.5339 916.00
85.5991 897.00
85.6643 880.00
85.7295 886.00
85.7946 875.00
85.8598 883.00
85.925 886.00
85.9903 864.00
86.0554 894.00
86.1206 846.00
86.1858 953.00
86.251 942.00
86.3162 938.00
86.3814 933.00
86.4466 962.00
86.5118 1078.00
86.577 1007.00
86.6422 1039.00
86.7074 1080.00
86.7726 1081.00
86.8378 1152.00
86.903 1164.00
86.9682 1059.00
87.0334 1082.00
87.0986 1028.00
87.1638 1076.00
87.229 1067.00
87.2942 955.00
87.3594 920.00
87.4246 949.00
87.4898 980.00
87.555 908.00
87.6202 923.00
87.6854 899.00
87.7506 924.00
87.8158 859.00
87.881 865.00
87.9462 841.00
88.0114 825.00
88.0766 864.00
88.1418 768.00
88.207 791.00
88.2722 742.00
88.3374 693.00
88.4026 782.00
88.4678 767.00
88.533 766.00
88.5982 782.00
88.6634 768.00
88.7286 776.00
88.7938 777.00
88.859 723.00
88.9242 800.00
88.9894 781.00
89.0546 797.00
89.1198 770.00
89.185 796.00
89.2502 801.00
89.3154 824.00
89.3806 801.00
89.4458 808.00
89.511 777.00
89.5762 811.00
89.6414 846.00
89.7066 861.00
89.7718 862.00
89.837 814.00
89.9022 866.00
89.9674 827.00
90.0326 881.00
90.0978 827.00
90.163 922.00
90.2282 865.00
90.2934 960.00
90.3586 899.00
90.4238 915.00
90.489 933.00
90.5542 921.00
90.6193 952.00
90.6845 901.00
90.7497 936.00
90.8149 905.00
90.8801 961.00
90.9453 974.00
91.0105 919.00
91.0757 921.00
91.1409 917.00
91.2061 992.00
91.2713 980.00
91.3365 1043.00
91.4017 1005.00
91.4669 985.00
91.5321 970.00
91.5973 1045.00
91.6625 1002.00
91.7277 1106.00
91.7929 1137.00
91.8581 1222.00
91.9233 1285.00
91.9885 1213.00
92.0537 1238.00
92.1189 1297.00
92.1841 1302.00
92.2493 1331.00
92.3145 1371.00
92.3797 1242.00
92.4449 1269.00
92.5101 1236.00
92.5753 1252.00
92.6405 1191.00
92.7057 1143.00
92.7709 1156.00
92.8361 1109.00
92.9013 1053.00
92.9665 989.00
93.0317 972.00
93.0969 945.00
93.1621 1008.00
93.2273 893.00
93.2925 932.00
93.3577 907.00
93.4229 845.00
93.4881 812.00
93.5533 787.00
93.6185 848.00
93.6837 819.00
93.7489 826.00
93.8141 800.00
93.8793 774.00
93.9445 830.00
94.0097 788.00
94.0749 875.00
94.1401 780.00
94.2053 806.00
94.2705 801.00
94.3357 862.00
94.4009 807.00
94.4661 878.00
94.5313 848.00
94.5965 837.00
94.6617 821.00
94.7269 882.00
94.7921 843.00
94.8573 860.00
94.9225 867.00
94.9877 901.00
95.0529 899.00
95.1181 866.00
95.1833 909.00
95.2485 838.00
95.3137 867.00
95.3789 872.00
95.444 841.00
95.5092 876.00
95.5744 872.00
95.6396 910.00
95.7048 890.00
95.77 888.00
95.8352 904.00
95.9004 960.00
95.9656 899.00
96.0308 865.00
96.096 887.00
96.1612 938.00
96.2264 937.00
96.2916 983.00
96.3568 893.00
96.422 968.00
96.4872 942.00
96.5524 916.00
96.6176 982.00
96.6828 1022.00
96.748 1005.00
96.8132 982.00
96.8784 1062.00
96.9436 996.00
97.0088 1000.00
97.074 979.00
97.1392 988.00
97.2044 980.00
97.2696 905.00
97.3348 968.00
97.4 949.00
97.4652 902.00
97.5304 964.00
97.5956 893.00
97.6608 916.00
97.726 896.00
97.7912 830.00
97.8564 930.00
97.9216 881.00
97.9868 902.00
98.052 863.00
98.1172 916.00
98.1824 926.00
98.2476 916.00
98.3128 928.00
98.378 972.00
98.4432 933.00
98.5084 936.00
98.5736 967.00
98.6388 973.00
98.704 880.00
98.7692 980.00
98.8344 1033.00
98.8996 973.00
98.9648 885.00
99.03 949.00
99.0952 972.00
99.1604 964.00
99.2256 937.00
99.2908 938.00
99.356 922.00
99.4212 955.00
99.4864 890.00
99.5516 917.00
99.6168 916.00
99.682 898.00
99.7472 872.00
99.8124 899.00
99.8776 868.00
99.9428 940.00
100.008 862.00
100.073 898.00
100.095 877.00