File: data/xrd_creation/results/NSC_104.xy
9.903433 2589.00
9.968632 2540.00
10.0338 2470.00
10.099 2517.00
10.1642 2538.00
10.2294 2501.00
10.2946 2434.00
10.3598 2368.00
10.425 2418.00
10.4902 2391.00
10.5554 2309.00
10.6206 2339.00
10.6858 2286.00
10.751 2384.00
10.8162 2264.00
10.8814 2188.00
10.9466 2110.00
11.0118 2148.00
11.077 2241.00
11.1422 2160.00
11.2074 2117.00
11.2726 2059.00
11.3378 2105.00
11.403 2048.00
11.4682 2104.00
11.5334 2022.00
11.5986 2096.00
11.6638 2025.00
11.729 2014.00
11.7942 1910.00
11.8594 1912.00
11.9246 1934.00
11.9898 1890.00
12.055 1857.00
12.1202 1826.00
12.1854 1877.00
12.2506 1867.00
12.3158 1800.00
12.381 1778.00
12.4462 1824.00
12.5114 1748.00
12.5766 1739.00
12.6418 1694.00
12.707 1754.00
12.7722 1770.00
12.8374 1703.00
12.9026 1724.00
12.9678 1613.00
13.033 1560.00
13.0982 1617.00
13.1634 1649.00
13.2286 1600.00
13.2938 1594.00
13.359 1578.00
13.4242 1635.00
13.4894 1547.00
13.5546 1530.00
13.6198 1511.00
13.685 1484.00
13.7502 1519.00
13.8154 1492.00
13.8805 1494.00
13.9457 1475.00
14.0109 1446.00
14.0761 1495.00
14.1413 1471.00
14.2065 1436.00
14.2717 1440.00
14.3369 1391.00
14.4021 1349.00
14.4673 1411.00
14.5325 1358.00
14.5977 1384.00
14.6629 1354.00
14.7281 1439.00
14.7933 1362.00
14.8585 1336.00
14.9237 1413.00
14.9889 1407.00
15.0541 1327.00
15.1193 1307.00
15.1845 1323.00
15.2497 1368.00
15.3149 1274.00
15.3801 1340.00
15.4453 1293.00
15.5105 1380.00
15.5757 1257.00
15.6409 1296.00
15.7061 1275.00
15.7713 1366.00
15.8365 1265.00
15.9017 1260.00
15.9669 1315.00
16.0321 1239.00
16.0973 1270.00
16.1625 1253.00
16.2277 1199.00
16.2929 1269.00
16.3581 1184.00
16.4233 1229.00
16.4885 1250.00
16.5537 1261.00
16.6189 1212.00
16.6841 1206.00
16.7493 1245.00
16.8145 1135.00
16.8797 1177.00
16.9449 1211.00
17.0101 1138.00
17.0753 1135.00
17.1405 1142.00
17.2057 1152.00
17.2709 1129.00
17.3361 1067.00
17.4013 1110.00
17.4665 1170.00
17.5317 1126.00
17.5969 1181.00
17.6621 1087.00
17.7273 1129.00
17.7925 1114.00
17.8577 1034.00
17.9229 1139.00
17.9881 1081.00
18.0533 1029.00
18.1185 1076.00
18.1837 1108.00
18.2489 1064.00
18.3141 1096.00
18.3793 1097.00
18.4445 1073.00
18.5097 1092.00
18.5749 1003.00
18.6401 981.00
18.7052 1021.00
18.7704 1011.00
18.8356 1062.00
18.9008 1013.00
18.966 991.00
19.0312 974.00
19.0964 988.00
19.1616 987.00
19.2268 983.00
19.292 944.00
19.3572 984.00
19.4224 1004.00
19.4876 938.00
19.5528 907.00
19.618 920.00
19.6832 869.00
19.7484 982.00
19.8136 938.00
19.8788 954.00
19.944 908.00
20.0092 929.00
20.0744 889.00
20.1396 916.00
20.2048 960.00
20.27 838.00
20.3352 933.00
20.4004 936.00
20.4656 902.00
20.5308 852.00
20.596 931.00
20.6612 883.00
20.7264 859.00
20.7916 899.00
20.8568 883.00
20.922 849.00
20.9872 822.00
21.0524 860.00
21.1176 888.00
21.1828 832.00
21.248 832.00
21.3132 788.00
21.3784 899.00
21.4436 873.00
21.5088 808.00
21.574 863.00
21.6392 875.00
21.7044 803.00
21.7696 831.00
21.8348 805.00
21.9 813.00
21.9652 821.00
22.0304 788.00
22.0956 794.00
22.1608 815.00
22.226 766.00
22.2912 807.00
22.3564 731.00
22.4216 765.00
22.4868 767.00
22.552 752.00
22.6172 750.00
22.6824 787.00
22.7476 751.00
22.8128 775.00
22.878 757.00
22.9432 808.00
23.0084 786.00
23.0736 755.00
23.1388 806.00
23.204 702.00
23.2692 758.00
23.3344 774.00
23.3996 722.00
23.4647 742.00
23.5299 751.00
23.5951 691.00
23.6603 761.00
23.7255 804.00
23.7907 730.00
23.8559 681.00
23.9211 720.00
23.9863 707.00
24.0515 735.00
24.1167 702.00
24.1819 703.00
24.2471 710.00
24.3123 691.00
24.3775 660.00
24.4427 668.00
24.5079 749.00
24.5731 686.00
24.6383 715.00
24.7035 685.00
24.7687 673.00
24.8339 708.00
24.8991 663.00
24.9643 685.00
25.0295 673.00
25.0947 689.00
25.1599 608.00
25.2251 647.00
25.2903 718.00
25.3555 680.00
25.4207 660.00
25.4859 623.00
25.5511 652.00
25.6163 624.00
25.6815 696.00
25.7467 645.00
25.8119 650.00
25.8771 651.00
25.9423 659.00
26.0075 649.00
26.0727 621.00
26.1379 633.00
26.2031 620.00
26.2683 655.00
26.3335 671.00
26.3987 665.00
26.4639 726.00
26.5291 786.00
26.5943 710.00
26.6595 703.00
26.7247 616.00
26.7899 631.00
26.8551 654.00
26.9203 636.00
26.9855 597.00
27.0507 669.00
27.1159 620.00
27.1811 648.00
27.2463 566.00
27.3115 610.00
27.3767 561.00
27.4419 607.00
27.5071 596.00
27.5723 607.00
27.6375 596.00
27.7027 590.00
27.7679 565.00
27.8331 625.00
27.8983 632.00
27.9635 603.00
28.0287 556.00
28.0939 564.00
28.1591 558.00
28.2243 567.00
28.2894 607.00
28.3546 629.00
28.4198 605.00
28.485 594.00
28.5502 643.00
28.6154 580.00
28.6806 574.00
28.7458 656.00
28.811 899.00
28.8762 865.00
28.9414 686.00
29.0066 574.00
29.0718 603.00
29.137 564.00
29.2022 526.00
29.2674 560.00
29.3326 558.00
29.3978 577.00
29.463 544.00
29.5282 537.00
29.5934 526.00
29.6586 547.00
29.7238 544.00
29.789 565.00
29.8542 538.00
29.9194 600.00
29.9846 515.00
30.0498 568.00
30.115 501.00
30.1802 573.00
30.2454 577.00
30.3106 533.00
30.3758 556.00
30.441 520.00
30.5062 474.00
30.5714 479.00
30.6366 527.00
30.7018 472.00
30.767 549.00
30.8322 544.00
30.8974 524.00
30.9626 495.00
31.0278 541.00
31.093 469.00
31.1582 525.00
31.2234 520.00
31.2886 517.00
31.3538 503.00
31.419 509.00
31.4842 481.00
31.5494 453.00
31.6146 453.00
31.6798 478.00
31.745 493.00
31.8102 428.00
31.8754 477.00
31.9406 463.00
32.0058 506.00
32.071 469.00
32.1362 504.00
32.2014 478.00
32.2666 479.00
32.3318 502.00
32.397 489.00
32.4622 477.00
32.5274 470.00
32.5926 504.00
32.6578 483.00
32.723 462.00
32.7882 470.00
32.8534 445.00
32.9186 473.00
32.9838 463.00
33.0489 440.00
33.1141 493.00
33.1793 420.00
33.2445 466.00
33.3097 429.00
33.3749 457.00
33.4401 465.00
33.5053 452.00
33.5705 497.00
33.6357 456.00
33.7009 496.00
33.7661 525.00
33.8313 532.00
33.8965 514.00
33.9617 479.00
34.0269 450.00
34.0921 430.00
34.1573 423.00
34.2225 425.00
34.2877 394.00
34.3529 412.00
34.4181 457.00
34.4833 411.00
34.5485 464.00
34.6137 430.00
34.6789 436.00
34.7441 430.00
34.8093 403.00
34.8745 431.00
34.9397 438.00
35.0049 394.00
35.0701 394.00
35.1353 410.00
35.2005 409.00
35.2657 405.00
35.3309 417.00
35.3961 405.00
35.4613 411.00
35.5265 443.00
35.5917 391.00
35.6569 414.00
35.7221 400.00
35.7873 382.00
35.8525 398.00
35.9177 393.00
35.9829 410.00
36.0481 368.00
36.1133 371.00
36.1785 375.00
36.2437 367.00
36.3089 418.00
36.3741 367.00
36.4393 379.00
36.5045 386.00
36.5697 389.00
36.6349 370.00
36.7001 352.00
36.7653 430.00
36.8305 377.00
36.8957 383.00
36.9609 381.00
37.0261 408.00
37.0913 408.00
37.1565 385.00
37.2217 418.00
37.2869 392.00
37.3521 350.00
37.4173 368.00
37.4825 370.00
37.5477 343.00
37.6129 377.00
37.6781 362.00
37.7433 380.00
37.8085 366.00
37.8736 417.00
37.9388 385.00
38.004 403.00
38.0692 384.00
38.1344 358.00
38.1996 358.00
38.2648 347.00
38.33 392.00
38.3952 361.00
38.4604 358.00
38.5256 366.00
38.5908 322.00
38.656 394.00
38.7212 372.00
38.7864 385.00
38.8516 381.00
38.9168 350.00
38.982 368.00
39.0472 362.00
39.1124 375.00
39.1776 361.00
39.2428 334.00
39.308 336.00
39.3732 347.00
39.4384 376.00
39.5036 376.00
39.5688 336.00
39.634 366.00
39.6992 357.00
39.7644 353.00
39.8296 388.00
39.8948 308.00
39.96 304.00
40.0252 325.00
40.0904 357.00
40.1556 338.00
40.2208 343.00
40.286 370.00
40.3512 307.00
40.4164 322.00
40.4816 351.00
40.5468 364.00
40.612 305.00
40.6772 312.00
40.7424 352.00
40.8076 333.00
40.8728 324.00
40.938 319.00
41.0032 350.00
41.0684 319.00
41.1336 298.00
41.1988 305.00
41.264 306.00
41.3292 334.00
41.3944 317.00
41.4596 308.00
41.5248 318.00
41.59 313.00
41.6552 316.00
41.7204 296.00
41.7856 321.00
41.8508 293.00
41.916 317.00
41.9812 313.00
42.0464 332.00
42.1116 299.00
42.1768 327.00
42.242 330.00
42.3072 306.00
42.3724 342.00
42.4376 337.00
42.5028 290.00
42.568 327.00
42.6332 285.00
42.6983 304.00
42.7635 291.00
42.8287 294.00
42.8939 314.00
42.9591 296.00
43.0243 324.00
43.0895 293.00
43.1547 312.00
43.2199 315.00
43.2851 298.00
43.3503 319.00
43.4155 299.00
43.4807 353.00
43.5459 320.00
43.6111 284.00
43.6763 287.00
43.7415 333.00
43.8067 306.00
43.8719 246.00
43.9371 277.00
44.0023 292.00
44.0675 296.00
44.1327 285.00
44.1979 291.00
44.2631 275.00
44.3283 280.00
44.3935 312.00
44.4587 288.00
44.5239 322.00
44.5891 326.00
44.6543 336.00
44.7195 288.00
44.7847 289.00
44.8499 283.00
44.9151 264.00
44.9803 295.00
45.0455 277.00
45.1107 273.00
45.1759 303.00
45.2411 266.00
45.3063 287.00
45.3715 274.00
45.4367 258.00
45.5019 290.00
45.5671 275.00
45.6323 273.00
45.6975 277.00
45.7627 260.00
45.8279 265.00
45.8931 267.00
45.9583 264.00
46.0235 287.00
46.0887 272.00
46.1539 313.00
46.2191 276.00
46.2843 290.00
46.3495 274.00
46.4147 281.00
46.4799 279.00
46.5451 272.00
46.6103 281.00
46.6755 238.00
46.7407 289.00
46.8059 269.00
46.8711 305.00
46.9363 236.00
47.0015 279.00
47.0667 278.00
47.1319 288.00
47.1971 264.00
47.2623 265.00
47.3275 256.00
47.3927 286.00
47.4579 266.00
47.523 250.00
47.5882 295.00
47.6534 276.00
47.7186 272.00
47.7838 288.00
47.849 249.00
47.9142 272.00
47.9794 278.00
48.0446 277.00
48.1098 281.00
48.175 274.00
48.2402 269.00
48.3054 272.00
48.3706 265.00
48.4358 259.00
48.501 243.00
48.5662 260.00
48.6314 263.00
48.6966 277.00
48.7618 261.00
48.827 265.00
48.8922 236.00
48.9574 289.00
49.0226 267.00
49.0878 258.00
49.153 232.00
49.2182 232.00
49.2834 237.00
49.3486 285.00
49.4138 256.00
49.479 250.00
49.5442 263.00
49.6094 228.00
49.6746 239.00
49.7398 268.00
49.805 238.00
49.8702 256.00
49.9354 231.00
50.0006 229.00
50.0658 257.00
50.131 231.00
50.1962 266.00
50.2614 266.00
50.3266 260.00
50.3918 244.00
50.457 259.00
50.5222 257.00
50.5874 256.00
50.6526 257.00
50.7178 247.00
50.783 268.00
50.8482 243.00
50.9134 278.00
50.9786 286.00
51.0438 226.00
51.109 244.00
51.1742 222.00
51.2394 263.00
51.3046 237.00
51.3698 242.00
51.435 277.00
51.5002 288.00
51.5654 262.00
51.6306 299.00
51.6958 282.00
51.761 294.00
51.8262 297.00
51.8914 274.00
51.9566 249.00
52.0218 238.00
52.087 293.00
52.1522 264.00
52.2174 222.00
52.2826 240.00
52.3477 245.00
52.4129 227.00
52.4781 277.00
52.5433 232.00
52.6085 220.00
52.6737 240.00
52.7389 221.00
52.8041 258.00
52.8693 239.00
52.9345 234.00
52.9997 226.00
53.0649 208.00
53.1301 247.00
53.1953 215.00
53.2605 231.00
53.3257 280.00
53.3909 214.00
53.4561 228.00
53.5213 220.00
53.5865 219.00
53.6517 232.00
53.7169 222.00
53.7821 226.00
53.8473 239.00
53.9125 223.00
53.9777 237.00
54.0429 226.00
54.1081 217.00
54.1733 274.00
54.2385 250.00
54.3037 219.00
54.3689 225.00
54.4341 237.00
54.4993 224.00
54.5645 227.00
54.6297 223.00
54.6949 266.00
54.7601 219.00
54.8253 221.00
54.8905 214.00
54.9557 220.00
55.0209 217.00
55.0861 213.00
55.1513 256.00
55.2165 235.00
55.2817 249.00
55.3469 226.00
55.4121 268.00
55.4773 226.00
55.5425 247.00
55.6077 259.00
55.6729 228.00
55.7381 194.00
55.8033 229.00
55.8685 214.00
55.9337 221.00
55.9989 213.00
56.0641 199.00
56.1293 235.00
56.1945 200.00
56.2597 212.00
56.3249 211.00
56.3901 214.00
56.4553 211.00
56.5205 195.00
56.5857 225.00
56.6509 211.00
56.7161 206.00
56.7813 219.00
56.8465 210.00
56.9117 194.00
56.9769 211.00
57.042 200.00
57.1073 215.00
57.1724 208.00
57.2376 183.00
57.3028 227.00
57.368 224.00
57.4332 221.00
57.4984 210.00
57.5636 212.00
57.6288 197.00
57.694 223.00
57.7592 213.00
57.8244 219.00
57.8896 203.00
57.9548 192.00
58.02 197.00
58.0852 182.00
58.1504 206.00
58.2156 217.00
58.2808 211.00
58.346 217.00
58.4112 209.00
58.4764 186.00
58.5416 216.00
58.6068 177.00
58.672 202.00
58.7372 184.00
58.8024 199.00
58.8676 213.00
58.9328 176.00
58.998 206.00
59.0632 178.00
59.1284 198.00
59.1936 189.00
59.2588 203.00
59.324 208.00
59.3892 205.00
59.4544 189.00
59.5196 202.00
59.5848 207.00
59.65 198.00
59.7152 200.00
59.7804 169.00
59.8456 203.00
59.9108 183.00
59.976 229.00
60.0412 224.00
60.1064 189.00
60.1716 194.00
60.2368 191.00
60.302 198.00
60.3672 164.00
60.4324 194.00
60.4976 191.00
60.5628 202.00
60.628 195.00
60.6932 191.00
60.7584 175.00
60.8236 200.00
60.8888 176.00
60.954 212.00
61.0192 189.00
61.0844 195.00
61.1496 193.00
61.2148 187.00
61.28 193.00
61.3452 185.00
61.4104 182.00
61.4756 193.00
61.5408 215.00
61.606 208.00
61.6712 219.00
61.7364 201.00
61.8016 201.00
61.8667 176.00
61.932 162.00
61.9971 207.00
62.0623 183.00
62.1275 182.00
62.1927 195.00
62.2579 176.00
62.3231 204.00
62.3883 188.00
62.4535 174.00
62.5187 200.00
62.5839 183.00
62.6491 185.00
62.7143 189.00
62.7795 179.00
62.8447 186.00
62.9099 191.00
62.9751 191.00
63.0403 193.00
63.1055 201.00
63.1707 190.00
63.2359 191.00
63.3011 194.00
63.3663 173.00
63.4315 195.00
63.4967 166.00
63.5619 169.00
63.6271 179.00
63.6923 179.00
63.7575 187.00
63.8227 193.00
63.8879 165.00
63.9531 196.00
64.0183 165.00
64.0835 131.00
64.1487 194.00
64.2139 190.00
64.2791 172.00
64.3443 168.00
64.4095 178.00
64.4747 199.00
64.5399 215.00
64.6051 206.00
64.6703 200.00
64.7355 206.00
64.8007 209.00
64.8659 170.00
64.9311 200.00
64.9963 176.00
65.0615 173.00
65.1267 181.00
65.1919 180.00
65.2571 168.00
65.3223 183.00
65.3875 171.00
65.4527 177.00
65.5179 187.00
65.5831 185.00
65.6483 199.00
65.7135 179.00
65.7787 195.00
65.8439 176.00
65.9091 197.00
65.9743 228.00
66.0395 174.00
66.1047 171.00
66.1699 180.00
66.2351 200.00
66.3003 193.00
66.3655 189.00
66.4307 162.00
66.4959 164.00
66.561 201.00
66.6263 187.00
66.6915 159.00
66.7566 193.00
66.8218 180.00
66.887 162.00
66.9522 176.00
67.0174 189.00
67.0826 173.00
67.1478 212.00
67.213 169.00
67.2782 195.00
67.3434 190.00
67.4086 216.00
67.4738 163.00
67.539 188.00
67.6042 175.00
67.6694 168.00
67.7346 182.00
67.7998 188.00
67.865 165.00
67.9302 187.00
67.9954 197.00
68.0606 152.00
68.1258 208.00
68.191 183.00
68.2562 190.00
68.3214 192.00
68.3866 192.00
68.4518 188.00
68.517 196.00
68.5822 187.00
68.6474 197.00
68.7126 175.00
68.7778 199.00
68.843 175.00
68.9082 170.00
68.9734 200.00
69.0386 192.00
69.1038 166.00
69.169 164.00
69.2342 189.00
69.2994 185.00
69.3646 187.00
69.4298 170.00
69.495 190.00
69.5602 152.00
69.6254 167.00
69.6906 184.00
69.7558 174.00
69.821 192.00
69.8862 171.00
69.9514 185.00
70.0166 163.00
70.0818 164.00
70.147 189.00
70.2122 189.00
70.2774 207.00
70.3426 170.00
70.4078 207.00
70.473 189.00
70.5382 178.00
70.6034 197.00
70.6686 185.00
70.7338 171.00
70.799 196.00
70.8642 182.00
70.9294 193.00
70.9946 181.00
71.0598 173.00
71.125 184.00
71.1902 215.00
71.2554 182.00
71.3205 185.00
71.3858 183.00
71.451 189.00
71.5162 199.00
71.5813 171.00
71.6465 202.00
71.7117 173.00
71.7769 188.00
71.8421 189.00
71.9073 185.00
71.9725 190.00
72.0377 219.00
72.1029 204.00
72.1681 201.00
72.2333 193.00
72.2985 196.00
72.3637 196.00
72.4289 167.00
72.4941 195.00
72.5593 181.00
72.6245 192.00
72.6897 185.00
72.7549 186.00
72.8201 170.00
72.8853 228.00
72.9505 191.00
73.0157 185.00
73.0809 198.00
73.1461 181.00
73.2113 195.00
73.2765 181.00
73.3417 199.00
73.4069 170.00
73.4721 185.00
73.5373 184.00
73.6025 186.00
73.6677 170.00
73.7329 184.00
73.7981 195.00
73.8633 185.00
73.9285 191.00
73.9937 196.00
74.0589 200.00
74.1241 190.00
74.1893 191.00
74.2545 202.00
74.3197 190.00
74.3849 206.00
74.4501 181.00
74.5153 216.00
74.5805 198.00
74.6457 197.00
74.7109 193.00
74.7761 200.00
74.8413 193.00
74.9065 182.00
74.9717 199.00
75.0369 207.00
75.1021 182.00
75.1673 194.00
75.2325 196.00
75.2977 180.00
75.3629 177.00
75.4281 195.00
75.4933 171.00
75.5585 206.00
75.6237 200.00
75.6889 219.00
75.7541 207.00
75.8193 197.00
75.8845 190.00
75.9497 198.00
76.0149 193.00
76.0801 185.00
76.1452 193.00
76.2104 207.00
76.2756 175.00
76.3409 205.00
76.406 196.00
76.4712 189.00
76.5364 192.00
76.6016 197.00
76.6668 203.00
76.732 203.00
76.7972 191.00
76.8624 197.00
76.9276 181.00
76.9928 232.00
77.058 211.00
77.1232 197.00
77.1884 176.00
77.2536 208.00
77.3188 201.00
77.384 194.00
77.4492 211.00
77.5144 215.00
77.5796 174.00
77.6448 177.00
77.71 167.00
77.7752 225.00
77.8404 203.00
77.9056 199.00
77.9708 224.00
78.036 221.00
78.1012 212.00
78.1664 194.00
78.2316 204.00
78.2968 197.00
78.362 269.00
78.4272 218.00
78.4924 208.00
78.5576 244.00
78.6228 225.00
78.688 266.00
78.7532 219.00
78.8184 198.00
78.8836 216.00
78.9488 215.00
79.014 205.00
79.0792 204.00
79.1444 206.00
79.2096 188.00
79.2748 186.00
79.34 199.00
79.4052 223.00
79.4704 221.00
79.5356 192.00
79.6008 231.00
79.666 212.00
79.7312 229.00
79.7964 210.00
79.8616 182.00
79.9268 235.00
79.992 231.00
80.0572 199.00
80.1224 215.00
80.1876 221.00
80.2528 232.00
80.318 205.00
80.3832 221.00
80.4484 218.00
80.5136 226.00
80.5788 226.00
80.644 186.00
80.7092 212.00
80.7744 207.00
80.8396 231.00
80.9048 206.00
80.9699 243.00
81.0351 221.00
81.1003 187.00
81.1655 202.00
81.2307 204.00
81.2959 236.00
81.3611 215.00
81.4263 207.00
81.4915 220.00
81.5567 217.00
81.6219 217.00
81.6871 233.00
81.7523 212.00
81.8175 217.00
81.8827 219.00
81.9479 232.00
82.0131 233.00
82.0783 199.00
82.1435 226.00
82.2087 172.00
82.2739 229.00
82.3391 210.00
82.4043 223.00
82.4695 206.00
82.5347 205.00
82.5999 224.00
82.6651 201.00
82.7303 206.00
82.7955 189.00
82.8607 211.00
82.9259 194.00
82.9911 224.00
83.0563 200.00
83.1215 204.00
83.1867 205.00
83.2519 208.00
83.3171 205.00
83.3823 220.00
83.4475 212.00
83.5127 209.00
83.5779 205.00
83.6431 243.00
83.7083 221.00
83.7735 203.00
83.8387 220.00
83.9039 208.00
83.9691 195.00
84.0343 207.00
84.0995 224.00
84.1647 211.00
84.2299 198.00
84.2951 212.00
84.3603 236.00
84.4255 196.00
84.4907 227.00
84.5559 171.00
84.6211 189.00
84.6863 179.00
84.7515 182.00
84.8167 214.00
84.8819 201.00
84.9471 191.00
85.0123 214.00
85.0775 193.00
85.1427 218.00
85.2079 195.00
85.2731 206.00
85.3383 198.00
85.4035 208.00
85.4687 204.00
85.5339 216.00
85.5991 188.00
85.6643 176.00
85.7295 194.00
85.7946 190.00
85.8598 208.00
85.925 229.00
85.9903 208.00
86.0554 224.00
86.1206 207.00
86.1858 204.00
86.251 205.00
86.3162 187.00
86.3814 208.00
86.4466 187.00
86.5118 205.00
86.577 195.00
86.6422 201.00
86.7074 194.00
86.7726 200.00
86.8378 201.00
86.903 181.00
86.9682 180.00
87.0334 211.00
87.0986 166.00
87.1638 210.00
87.229 197.00
87.2942 196.00
87.3594 180.00
87.4246 205.00
87.4898 190.00
87.555 191.00
87.6202 190.00
87.6854 180.00
87.7506 189.00
87.8158 179.00
87.881 197.00
87.9462 198.00
88.0114 159.00
88.0766 182.00
88.1418 206.00
88.207 239.00
88.2722 176.00
88.3374 186.00
88.4026 169.00
88.4678 171.00
88.533 175.00
88.5982 151.00
88.6634 176.00
88.7286 215.00
88.7938 169.00
88.859 176.00
88.9242 172.00
88.9894 204.00
89.0546 193.00
89.1198 210.00
89.185 174.00
89.2502 205.00
89.3154 195.00
89.3806 162.00
89.4458 174.00
89.511 165.00
89.5762 203.00
89.6414 158.00
89.7066 206.00
89.7718 162.00
89.837 201.00
89.9022 197.00
89.9674 199.00
90.0326 187.00
90.0978 183.00
90.163 168.00
90.2282 175.00
90.2934 202.00
90.3586 200.00
90.4238 200.00
90.489 169.00
90.5542 191.00
90.6193 196.00
90.6845 155.00
90.7497 174.00
90.8149 186.00
90.8801 167.00
90.9453 209.00
91.0105 159.00
91.0757 216.00
91.1409 158.00
91.2061 176.00
91.2713 189.00
91.3365 188.00
91.4017 195.00
91.4669 174.00
91.5321 200.00
91.5973 149.00
91.6625 154.00
91.7277 189.00
91.7929 171.00
91.8581 169.00
91.9233 200.00
91.9885 176.00
92.0537 195.00
92.1189 177.00
92.1841 180.00
92.2493 169.00
92.3145 191.00
92.3797 171.00
92.4449 179.00
92.5101 180.00
92.5753 178.00
92.6405 183.00
92.7057 190.00
92.7709 172.00
92.8361 184.00
92.9013 175.00
92.9665 201.00
93.0317 164.00
93.0969 209.00
93.1621 193.00
93.2273 199.00
93.2925 170.00
93.3577 164.00
93.4229 168.00
93.4881 192.00
93.5533 145.00
93.6185 177.00
93.6837 184.00
93.7489 194.00
93.8141 164.00
93.8793 179.00
93.9445 158.00
94.0097 193.00
94.0749 170.00
94.1401 166.00
94.2053 172.00
94.2705 186.00
94.3357 199.00
94.4009 182.00
94.4661 181.00
94.5313 193.00
94.5965 160.00
94.6617 189.00
94.7269 163.00
94.7921 153.00
94.8573 181.00
94.9225 188.00
94.9877 203.00
95.0529 212.00
95.1181 172.00
95.1833 174.00
95.2485 182.00
95.3137 165.00
95.3789 191.00
95.444 181.00
95.5092 170.00
95.5744 167.00
95.6396 172.00
95.7048 175.00
95.77 175.00
95.8352 170.00
95.9004 175.00
95.9656 186.00
96.0308 179.00
96.096 205.00
96.1612 190.00
96.2264 166.00
96.2916 168.00
96.3568 189.00
96.422 188.00
96.4872 180.00
96.5524 173.00
96.6176 166.00
96.6828 180.00
96.748 161.00
96.8132 168.00
96.8784 176.00
96.9436 179.00
97.0088 150.00
97.074 160.00
97.1392 180.00
97.2044 189.00
97.2696 177.00
97.3348 179.00
97.4 176.00
97.4652 181.00
97.5304 189.00
97.5956 183.00
97.6608 179.00
97.726 172.00
97.7912 171.00
97.8564 203.00
97.9216 178.00
97.9868 149.00
98.052 196.00
98.1172 159.00
98.1824 168.00
98.2476 164.00
98.3128 173.00
98.378 164.00
98.4432 191.00
98.5084 177.00
98.5736 174.00
98.6388 171.00
98.704 187.00
98.7692 156.00
98.8344 183.00
98.8996 170.00
98.9648 184.00
99.03 181.00
99.0952 183.00
99.1604 161.00
99.2256 182.00
99.2908 164.00
99.356 162.00
99.4212 187.00
99.4864 168.00
99.5516 168.00
99.6168 172.00
99.682 185.00
99.7472 172.00
99.8124 164.00
99.8776 161.00
99.9428 167.00
100.008 154.00
100.073 168.00
100.095 176.00