File: data/xrd_creation/results/NSC_216.xy
9.903433 2951.00
9.968632 2937.00
10.0338 2870.00
10.099 2840.00
10.1642 2810.00
10.2294 2841.00
10.2946 2764.00
10.3598 2875.00
10.425 2792.00
10.4902 2781.00
10.5554 2845.00
10.6206 2692.00
10.6858 2752.00
10.751 2791.00
10.8162 2772.00
10.8814 2788.00
10.9466 2724.00
11.0118 2693.00
11.077 2606.00
11.1422 2553.00
11.2074 2666.00
11.2726 2670.00
11.3378 2464.00
11.403 2507.00
11.4682 2443.00
11.5334 2555.00
11.5986 2556.00
11.6638 2423.00
11.729 2497.00
11.7942 2441.00
11.8594 2432.00
11.9246 2391.00
11.9898 2343.00
12.055 2313.00
12.1202 2429.00
12.1854 2350.00
12.2506 2384.00
12.3158 2390.00
12.381 2287.00
12.4462 2311.00
12.5114 2313.00
12.5766 2330.00
12.6418 2363.00
12.707 2163.00
12.7722 2220.00
12.8374 2248.00
12.9026 2241.00
12.9678 2257.00
13.033 2333.00
13.0982 2164.00
13.1634 2223.00
13.2286 2168.00
13.2938 2198.00
13.359 2147.00
13.4242 2197.00
13.4894 2149.00
13.5546 2234.00
13.6198 2323.00
13.685 2333.00
13.7502 2397.00
13.8154 2556.00
13.8805 2843.00
13.9457 3264.00
14.0109 3728.00
14.0761 3727.00
14.1413 2728.00
14.2065 2359.00
14.2717 2276.00
14.3369 2120.00
14.4021 2266.00
14.4673 2206.00
14.5325 2171.00
14.5977 2242.00
14.6629 2214.00
14.7281 2439.00
14.7933 2497.00
14.8585 2662.00
14.9237 3004.00
14.9889 3126.00
15.0541 2981.00
15.1193 2659.00
15.1845 2170.00
15.2497 2121.00
15.3149 2113.00
15.3801 2034.00
15.4453 2082.00
15.5105 2097.00
15.5757 2047.00
15.6409 1979.00
15.7061 2035.00
15.7713 2048.00
15.8365 1962.00
15.9017 1993.00
15.9669 2030.00
16.0321 2053.00
16.0973 1971.00
16.1625 2010.00
16.2277 2011.00
16.2929 1973.00
16.3581 1929.00
16.4233 1960.00
16.4885 2077.00
16.5537 2067.00
16.6189 1944.00
16.6841 1976.00
16.7493 2001.00
16.8145 1947.00
16.8797 1968.00
16.9449 1991.00
17.0101 1974.00
17.0753 1889.00
17.1405 1948.00
17.2057 1971.00
17.2709 1828.00
17.3361 1898.00
17.4013 1890.00
17.4665 1966.00
17.5317 1983.00
17.5969 1950.00
17.6621 2092.00
17.7273 2133.00
17.7925 2184.00
17.8577 2119.00
17.9229 2037.00
17.9881 1947.00
18.0533 1980.00
18.1185 1805.00
18.1837 1895.00
18.2489 1802.00
18.3141 1801.00
18.3793 1782.00
18.4445 1870.00
18.5097 1792.00
18.5749 1805.00
18.6401 1873.00
18.7052 1818.00
18.7704 1891.00
18.8356 1858.00
18.9008 1866.00
18.966 1833.00
19.0312 1889.00
19.0964 1936.00
19.1616 2017.00
19.2268 2072.00
19.292 2279.00
19.3572 2410.00
19.4224 2956.00
19.4876 4041.00
19.5528 5727.00
19.618 8058.00
19.6832 11126.00
19.7484 12882.00
19.8136 11633.00
19.8788 7824.00
19.944 4319.00
20.0092 2830.00
20.0744 2503.00
20.1396 2209.00
20.2048 2109.00
20.27 1909.00
20.3352 1984.00
20.4004 2025.00
20.4656 2173.00
20.5308 2113.00
20.596 2132.00
20.6612 1928.00
20.7264 1920.00
20.7916 1968.00
20.8568 2122.00
20.922 2489.00
20.9872 2716.00
21.0524 2927.00
21.1176 2629.00
21.1828 2463.00
21.248 2839.00
21.3132 3287.00
21.3784 3469.00
21.4436 3441.00
21.5088 3771.00
21.574 4340.00
21.6392 3912.00
21.7044 3129.00
21.7696 2629.00
21.8348 2429.00
21.9 2167.00
21.9652 1996.00
22.0304 1909.00
22.0956 1926.00
22.1608 1867.00
22.226 1943.00
22.2912 2075.00
22.3564 2283.00
22.4216 2529.00
22.4868 2966.00
22.552 3495.00
22.6172 3859.00
22.6824 3942.00
22.7476 3360.00
22.8128 2434.00
22.878 2093.00
22.9432 2050.00
23.0084 2456.00
23.0736 3051.00
23.1388 3905.00
23.204 4306.00
23.2692 3414.00
23.3344 2480.00
23.3996 1886.00
23.4647 1762.00
23.5299 1715.00
23.5951 1671.00
23.6603 1707.00
23.7255 1688.00
23.7907 1686.00
23.8559 1629.00
23.9211 1782.00
23.9863 1716.00
24.0515 1781.00
24.1167 1930.00
24.1819 2205.00
24.2471 2362.00
24.3123 2560.00
24.3775 2570.00
24.4427 2420.00
24.5079 2429.00
24.5731 2309.00
24.6383 2004.00
24.7035 1954.00
24.7687 2163.00
24.8339 2263.00
24.8991 2328.00
24.9643 2100.00
25.0295 1820.00
25.0947 1712.00
25.1599 1626.00
25.2251 1574.00
25.2903 1568.00
25.3555 1520.00
25.4207 1528.00
25.4859 1532.00
25.5511 1451.00
25.6163 1648.00
25.6815 1546.00
25.7467 1591.00
25.8119 1640.00
25.8771 1643.00
25.9423 1773.00
26.0075 1766.00
26.0727 1883.00
26.1379 1777.00
26.2031 1600.00
26.2683 1555.00
26.3335 1598.00
26.3987 1504.00
26.4639 1541.00
26.5291 1547.00
26.5943 1583.00
26.6595 1605.00
26.7247 1533.00
26.7899 1480.00
26.8551 1579.00
26.9203 1491.00
26.9855 1546.00
27.0507 1610.00
27.1159 1660.00
27.1811 1599.00
27.2463 1607.00
27.3115 1629.00
27.3767 1647.00
27.4419 1545.00
27.5071 1631.00
27.5723 1636.00
27.6375 1776.00
27.7027 1929.00
27.7679 2442.00
27.8331 3409.00
27.8983 4757.00
27.9635 5749.00
28.0287 5263.00
28.0939 3631.00
28.1591 2706.00
28.2243 2392.00
28.2894 2533.00
28.3546 3213.00
28.4198 4227.00
28.485 5722.00
28.5502 6548.00
28.6154 6814.00
28.6806 6302.00
28.7458 5026.00
28.811 3477.00
28.8762 2563.00
28.9414 2092.00
29.0066 1814.00
29.0718 1769.00
29.137 1614.00
29.2022 1532.00
29.2674 1530.00
29.3326 1535.00
29.3978 1616.00
29.463 1643.00
29.5282 1675.00
29.5934 1556.00
29.6586 1563.00
29.7238 1526.00
29.789 1527.00
29.8542 1492.00
29.9194 1448.00
29.9846 1579.00
30.0498 1597.00
30.115 1440.00
30.1802 1530.00
30.2454 1562.00
30.3106 1653.00
30.3758 1882.00
30.441 2270.00
30.5062 2654.00
30.5714 3013.00
30.6366 2961.00
30.7018 2740.00
30.767 2924.00
30.8322 3005.00
30.8974 3707.00
30.9626 4605.00
31.0278 5698.00
31.093 6516.00
31.1582 8097.00
31.2234 9375.00
31.2886 9630.00
31.3538 7374.00
31.419 4983.00
31.4842 3307.00
31.5494 2688.00
31.6146 2710.00
31.6798 3214.00
31.745 3965.00
31.8102 4628.00
31.8754 4872.00
31.9406 5030.00
32.0058 4469.00
32.071 3307.00
32.1362 2549.00
32.2014 2080.00
32.2666 1968.00
32.3318 1984.00
32.397 1995.00
32.4622 1945.00
32.5274 1739.00
32.5926 1765.00
32.6578 1572.00
32.723 1722.00
32.7882 1658.00
32.8534 1569.00
32.9186 1718.00
32.9838 1691.00
33.0489 1857.00
33.1141 2049.00
33.1793 2311.00
33.2445 2600.00
33.3097 2758.00
33.3749 2902.00
33.4401 2838.00
33.5053 2662.00
33.5705 2257.00
33.6357 2174.00
33.7009 2280.00
33.7661 2499.00
33.8313 2596.00
33.8965 2497.00
33.9617 2234.00
34.0269 2473.00
34.0921 2940.00
34.1573 3437.00
34.2225 4558.00
34.2877 6243.00
34.3529 8554.00
34.4181 10507.00
34.4833 10250.00
34.5485 7817.00
34.6137 5388.00
34.6789 3681.00
34.7441 2916.00
34.8093 2589.00
34.8745 2637.00
34.9397 2485.00
35.0049 2309.00
35.0701 2023.00
35.1353 1667.00
35.2005 1671.00
35.2657 1506.00
35.3309 1592.00
35.3961 1460.00
35.4613 1565.00
35.5265 1810.00
35.5917 1976.00
35.6569 2219.00
35.7221 2382.00
35.7873 2455.00
35.8525 2440.00
35.9177 2018.00
35.9829 1774.00
36.0481 1704.00
36.1133 1704.00
36.1785 1642.00
36.2437 1705.00
36.3089 1758.00
36.3741 1699.00
36.4393 1651.00
36.5045 1569.00
36.5697 1382.00
36.6349 1386.00
36.7001 1400.00
36.7653 1491.00
36.8305 1376.00
36.8957 1389.00
36.9609 1489.00
37.0261 1444.00
37.0913 1434.00
37.1565 1415.00
37.2217 1421.00
37.2869 1423.00
37.3521 1366.00
37.4173 1306.00
37.4825 1265.00
37.5477 1248.00
37.6129 1259.00
37.6781 1255.00
37.7433 1272.00
37.8085 1235.00
37.8736 1252.00
37.9388 1227.00
38.004 1262.00
38.0692 1189.00
38.1344 1277.00
38.1996 1262.00
38.2648 1282.00
38.33 1228.00
38.3952 1215.00
38.4604 1222.00
38.5256 1263.00
38.5908 1244.00
38.656 1299.00
38.7212 1342.00
38.7864 1342.00
38.8516 1486.00
38.9168 1503.00
38.982 1508.00
39.0472 1590.00
39.1124 1578.00
39.1776 1519.00
39.2428 1400.00
39.308 1403.00
39.3732 1304.00
39.4384 1356.00
39.5036 1424.00
39.5688 1473.00
39.634 1574.00
39.6992 1725.00
39.7644 1762.00
39.8296 1860.00
39.8948 1891.00
39.96 1858.00
40.0252 1713.00
40.0904 1563.00
40.1556 1402.00
40.2208 1342.00
40.286 1327.00
40.3512 1319.00
40.4164 1320.00
40.4816 1299.00
40.5468 1319.00
40.612 1301.00
40.6772 1417.00
40.7424 1311.00
40.8076 1366.00
40.8728 1427.00
40.938 1584.00
41.0032 1740.00
41.0684 2011.00
41.1336 2038.00
41.1988 2144.00
41.264 2390.00
41.3292 2400.00
41.3944 2335.00
41.4596 2229.00
41.5248 2046.00
41.59 2073.00
41.6552 2205.00
41.7204 2369.00
41.7856 2482.00
41.8508 2505.00
41.916 2324.00
41.9812 2138.00
42.0464 1883.00
42.1116 1814.00
42.1768 1734.00
42.242 1749.00
42.3072 1781.00
42.3724 1692.00
42.4376 1695.00
42.5028 1502.00
42.568 1367.00
42.6332 1376.00
42.6983 1237.00
42.7635 1227.00
42.8287 1208.00
42.8939 1222.00
42.9591 1222.00
43.0243 1250.00
43.0895 1378.00
43.1547 1310.00
43.2199 1348.00
43.2851 1342.00
43.3503 1351.00
43.4155 1394.00
43.4807 1361.00
43.5459 1446.00
43.6111 1584.00
43.6763 1555.00
43.7415 1485.00
43.8067 1366.00
43.8719 1369.00
43.9371 1275.00
44.0023 1240.00
44.0675 1244.00
44.1327 1216.00
44.1979 1310.00
44.2631 1324.00
44.3283 1349.00
44.3935 1416.00
44.4587 1648.00
44.5239 1964.00
44.5891 2392.00
44.6543 2810.00
44.7195 3048.00
44.7847 3170.00
44.8499 2928.00
44.9151 2492.00
44.9803 2054.00
45.0455 1709.00
45.1107 1676.00
45.1759 1571.00
45.2411 1574.00
45.3063 1679.00
45.3715 1656.00
45.4367 1624.00
45.5019 1542.00
45.5671 1507.00
45.6323 1566.00
45.6975 1577.00
45.7627 1664.00
45.8279 1754.00
45.8931 1760.00
45.9583 1857.00
46.0235 1870.00
46.0887 1703.00
46.1539 1622.00
46.2191 1536.00
46.2843 1461.00
46.3495 1535.00
46.4147 1621.00
46.4799 1753.00
46.5451 1738.00
46.6103 1873.00
46.6755 1894.00
46.7407 2113.00
46.8059 2460.00
46.8711 2999.00
46.9363 3686.00
47.0015 4167.00
47.0667 4157.00
47.1319 3735.00
47.1971 3146.00
47.2623 2507.00
47.3275 2252.00
47.3927 2010.00
47.4579 1790.00
47.523 1638.00
47.5882 1570.00
47.6534 1524.00
47.7186 1337.00
47.7838 1372.00
47.849 1275.00
47.9142 1320.00
47.9794 1352.00
48.0446 1283.00
48.1098 1253.00
48.175 1259.00
48.2402 1247.00
48.3054 1324.00
48.3706 1359.00
48.4358 1425.00
48.501 1353.00
48.5662 1312.00
48.6314 1342.00
48.6966 1286.00
48.7618 1263.00
48.827 1354.00
48.8922 1331.00
48.9574 1321.00
49.0226 1371.00
49.0878 1368.00
49.153 1505.00
49.2182 1555.00
49.2834 1761.00
49.3486 1827.00
49.4138 1830.00
49.479 1914.00
49.5442 1870.00
49.6094 1795.00
49.6746 1778.00
49.7398 1797.00
49.805 1947.00
49.8702 1830.00
49.9354 1716.00
50.0006 1592.00
50.0658 1435.00
50.131 1342.00
50.1962 1235.00
50.2614 1340.00
50.3266 1416.00
50.3918 1640.00
50.457 1815.00
50.5222 1778.00
50.5874 2038.00
50.6526 2253.00
50.7178 2605.00
50.783 2652.00
50.8482 2706.00
50.9134 2645.00
50.9786 2550.00
51.0438 2488.00
51.109 2715.00
51.1742 2836.00
51.2394 2878.00
51.3046 2631.00
51.3698 2430.00
51.435 2323.00
51.5002 1945.00
51.5654 1753.00
51.6306 1666.00
51.6958 1523.00
51.761 1451.00
51.8262 1439.00
51.8914 1514.00
51.9566 1411.00
52.0218 1441.00
52.087 1379.00
52.1522 1355.00
52.2174 1309.00
52.2826 1386.00
52.3477 1425.00
52.4129 1368.00
52.4781 1429.00
52.5433 1372.00
52.6085 1367.00
52.6737 1359.00
52.7389 1378.00
52.8041 1318.00
52.8693 1288.00
52.9345 1325.00
52.9997 1409.00
53.0649 1430.00
53.1301 1570.00
53.1953 1691.00
53.2605 1888.00
53.3257 2260.00
53.3909 2557.00
53.4561 3000.00
53.5213 3191.00
53.5865 3190.00
53.6517 2895.00
53.7169 2563.00
53.7821 2337.00
53.8473 1975.00
53.9125 1803.00
53.9777 1637.00
54.0429 1607.00
54.1081 1607.00
54.1733 1615.00
54.2385 1576.00
54.3037 1571.00
54.3689 1594.00
54.4341 1566.00
54.4993 1537.00
54.5645 1627.00
54.6297 1598.00
54.6949 1572.00
54.7601 1582.00
54.8253 1578.00
54.8905 1540.00
54.9557 1519.00
55.0209 1454.00
55.0861 1438.00
55.1513 1414.00
55.2165 1470.00
55.2817 1378.00
55.3469 1427.00
55.4121 1389.00
55.4773 1465.00
55.5425 1553.00
55.6077 1588.00
55.6729 1650.00
55.7381 1610.00
55.8033 1676.00
55.8685 1875.00
55.9337 1957.00
55.9989 1775.00
56.0641 1821.00
56.1293 1742.00
56.1945 1710.00
56.2597 1559.00
56.3249 1494.00
56.3901 1510.00
56.4553 1497.00
56.5205 1532.00
56.5857 1541.00
56.6509 1582.00
56.7161 1439.00
56.7813 1403.00
56.8465 1354.00
56.9117 1229.00
56.9769 1253.00
57.042 1226.00
57.1073 1234.00
57.1724 1309.00
57.2376 1320.00
57.3028 1356.00
57.368 1516.00
57.4332 1584.00
57.4984 1632.00
57.5636 1701.00
57.6288 1778.00
57.694 1719.00
57.7592 1754.00
57.8244 1730.00
57.8896 1608.00
57.9548 1639.00
58.02 1599.00
58.0852 1447.00
58.1504 1388.00
58.2156 1440.00
58.2808 1386.00
58.346 1384.00
58.4112 1461.00
58.4764 1556.00
58.5416 1704.00
58.6068 1632.00
58.672 1645.00
58.7372 1631.00
58.8024 1738.00
58.8676 1764.00
58.9328 1788.00
58.998 1868.00
59.0632 1961.00
59.1284 2242.00
59.1936 2493.00
59.2588 2835.00
59.324 3019.00
59.3892 2983.00
59.4544 2999.00
59.5196 2729.00
59.5848 2360.00
59.65 2143.00
59.7152 1779.00
59.7804 1605.00
59.8456 1442.00
59.9108 1433.00
59.976 1458.00
60.0412 1519.00
60.1064 1575.00
60.1716 1665.00
60.2368 1752.00
60.302 1733.00
60.3672 1759.00
60.4324 1857.00
60.4976 1919.00
60.5628 1866.00
60.628 1770.00
60.6932 1889.00
60.7584 1690.00
60.8236 1727.00
60.8888 1684.00
60.954 1657.00
61.0192 1754.00
61.0844 1728.00
61.1496 1869.00
61.2148 2068.00
61.28 2094.00
61.3452 2167.00
61.4104 2292.00
61.4756 2168.00
61.5408 2091.00
61.606 1863.00
61.6712 1745.00
61.7364 1592.00
61.8016 1480.00
61.8667 1491.00
61.932 1408.00
61.9971 1406.00
62.0623 1402.00
62.1275 1437.00
62.1927 1439.00
62.2579 1425.00
62.3231 1508.00
62.3883 1480.00
62.4535 1518.00
62.5187 1633.00
62.5839 1682.00
62.6491 1661.00
62.7143 1731.00
62.7795 1601.00
62.8447 1818.00
62.9099 1734.00
62.9751 1726.00
63.0403 1792.00
63.1055 1767.00
63.1707 1652.00
63.2359 1554.00
63.3011 1552.00
63.3663 1547.00
63.4315 1443.00
63.4967 1545.00
63.5619 1470.00
63.6271 1353.00
63.6923 1307.00
63.7575 1311.00
63.8227 1141.00
63.8879 1141.00
63.9531 1167.00
64.0183 1153.00
64.0835 1161.00
64.1487 1139.00
64.2139 1122.00
64.2791 1123.00
64.3443 1175.00
64.4095 1158.00
64.4747 1167.00
64.5399 1217.00
64.6051 1250.00
64.6703 1366.00
64.7355 1392.00
64.8007 1441.00
64.8659 1460.00
64.9311 1532.00
64.9963 1428.00
65.0615 1541.00
65.1267 1529.00
65.1919 1434.00
65.2571 1392.00
65.3223 1353.00
65.3875 1300.00
65.4527 1231.00
65.5179 1227.00
65.5831 1281.00
65.6483 1262.00
65.7135 1312.00
65.7787 1320.00
65.8439 1475.00
65.9091 1474.00
65.9743 1520.00
66.0395 1638.00
66.1047 1581.00
66.1699 1788.00
66.2351 1756.00
66.3003 1814.00
66.3655 1909.00
66.4307 1982.00
66.4959 2016.00
66.561 1998.00
66.6263 1986.00
66.6915 1772.00
66.7566 1725.00
66.8218 1666.00
66.887 1456.00
66.9522 1374.00
67.0174 1319.00
67.0826 1233.00
67.1478 1150.00
67.213 1095.00
67.2782 1077.00
67.3434 1146.00
67.4086 1092.00
67.4738 1111.00
67.539 1171.00
67.6042 1089.00
67.6694 1042.00
67.7346 1113.00
67.7998 1087.00
67.865 1145.00
67.9302 1079.00
67.9954 1154.00
68.0606 1121.00
68.1258 1165.00
68.191 1133.00
68.2562 1169.00
68.3214 1152.00
68.3866 1227.00
68.4518 1246.00
68.517 1365.00
68.5822 1368.00
68.6474 1354.00
68.7126 1399.00
68.7778 1333.00
68.843 1247.00
68.9082 1194.00
68.9734 1107.00
69.0386 1124.00
69.1038 1106.00
69.169 1148.00
69.2342 1076.00
69.2994 1085.00
69.3646 1084.00
69.4298 1065.00
69.495 1121.00
69.5602 1135.00
69.6254 1128.00
69.6906 1135.00
69.7558 1173.00
69.821 1214.00
69.8862 1188.00
69.9514 1169.00
70.0166 1097.00
70.0818 1076.00
70.147 1165.00
70.2122 1114.00
70.2774 1099.00
70.3426 1092.00
70.4078 1121.00
70.473 1134.00
70.5382 1132.00
70.6034 1106.00
70.6686 1155.00
70.7338 1180.00
70.799 1076.00
70.8642 1134.00
70.9294 1052.00
70.9946 1061.00
71.0598 1129.00
71.125 1105.00
71.1902 1064.00
71.2554 1149.00
71.3205 1182.00
71.3858 1240.00
71.451 1217.00
71.5162 1199.00
71.5813 1255.00
71.6465 1306.00
71.7117 1370.00
71.7769 1433.00
71.8421 1434.00
71.9073 1527.00
71.9725 1585.00
72.0377 1664.00
72.1029 1649.00
72.1681 1730.00
72.2333 1579.00
72.2985 1608.00
72.3637 1504.00
72.4289 1457.00
72.4941 1382.00
72.5593 1268.00
72.6245 1228.00
72.6897 1197.00
72.7549 1257.00
72.8201 1188.00
72.8853 1160.00
72.9505 1145.00
73.0157 1111.00
73.0809 1180.00
73.1461 1192.00
73.2113 1256.00
73.2765 1277.00
73.3417 1230.00
73.4069 1331.00
73.4721 1361.00
73.5373 1231.00
73.6025 1257.00
73.6677 1283.00
73.7329 1296.00
73.7981 1222.00
73.8633 1172.00
73.9285 1185.00
73.9937 1155.00
74.0589 1108.00
74.1241 1061.00
74.1893 1113.00
74.2545 1104.00
74.3197 1047.00
74.3849 1091.00
74.4501 1048.00
74.5153 1116.00
74.5805 1083.00
74.6457 1070.00
74.7109 1072.00
74.7761 1114.00
74.8413 1188.00
74.9065 1226.00
74.9717 1108.00
75.0369 1089.00
75.1021 1188.00
75.1673 1165.00
75.2325 1186.00
75.2977 1263.00
75.3629 1263.00
75.4281 1347.00
75.4933 1290.00
75.5585 1311.00
75.6237 1307.00
75.6889 1289.00
75.7541 1300.00
75.8193 1258.00
75.8845 1222.00
75.9497 1218.00
76.0149 1237.00
76.0801 1305.00
76.1452 1267.00
76.2104 1195.00
76.2756 1166.00
76.3409 1139.00
76.406 1093.00
76.4712 1117.00
76.5364 1227.00
76.6016 1208.00
76.6668 1237.00
76.732 1266.00
76.7972 1232.00
76.8624 1223.00
76.9276 1218.00
76.9928 1234.00
77.058 1277.00
77.1232 1276.00
77.1884 1188.00
77.2536 1214.00
77.3188 1093.00
77.384 1170.00
77.4492 1143.00
77.5144 1085.00
77.5796 1079.00
77.6448 1000.00
77.71 1052.00
77.7752 1013.00
77.8404 984.00
77.9056 1030.00
77.9708 1081.00
78.036 1009.00
78.1012 1099.00
78.1664 1054.00
78.2316 1075.00
78.2968 1062.00
78.362 1103.00
78.4272 1084.00
78.4924 1104.00
78.5576 1098.00
78.6228 1053.00
78.688 1075.00
78.7532 1008.00
78.8184 1009.00
78.8836 1059.00
78.9488 1063.00
79.014 1109.00
79.0792 1050.00
79.1444 1048.00
79.2096 1066.00
79.2748 1105.00
79.34 1053.00
79.4052 1108.00
79.4704 1039.00
79.5356 1080.00
79.6008 1078.00
79.666 1184.00
79.7312 1154.00
79.7964 1173.00
79.8616 1191.00
79.9268 1198.00
79.992 1181.00
80.0572 1251.00
80.1224 1320.00
80.1876 1325.00
80.2528 1367.00
80.318 1405.00
80.3832 1396.00
80.4484 1349.00
80.5136 1324.00
80.5788 1406.00
80.644 1358.00
80.7092 1393.00
80.7744 1285.00
80.8396 1204.00
80.9048 1136.00
80.9699 1150.00
81.0351 1069.00
81.1003 1073.00
81.1655 1070.00
81.2307 989.00
81.2959 1048.00
81.3611 1005.00
81.4263 1080.00
81.4915 1042.00
81.5567 1031.00
81.6219 1032.00
81.6871 1017.00
81.7523 1106.00
81.8175 1114.00
81.8827 1170.00
81.9479 1191.00
82.0131 1247.00
82.0783 1276.00
82.1435 1279.00
82.2087 1309.00
82.2739 1357.00
82.3391 1258.00
82.4043 1240.00
82.4695 1230.00
82.5347 1217.00
82.5999 1154.00
82.6651 1168.00
82.7303 1162.00
82.7955 1099.00
82.8607 1053.00
82.9259 1108.00
82.9911 1152.00
83.0563 1174.00
83.1215 1180.00
83.1867 1116.00
83.2519 1101.00
83.3171 1181.00
83.3823 1129.00
83.4475 1147.00
83.5127 1153.00
83.5779 1148.00
83.6431 1111.00
83.7083 1121.00
83.7735 1147.00
83.8387 1172.00
83.9039 1172.00
83.9691 1077.00
84.0343 1185.00
84.0995 1184.00
84.1647 1057.00
84.2299 1055.00
84.2951 1114.00
84.3603 1076.00
84.4255 1083.00
84.4907 1077.00
84.5559 1048.00
84.6211 1097.00
84.6863 1077.00
84.7515 1054.00
84.8167 1051.00
84.8819 1021.00
84.9471 1094.00
85.0123 1136.00
85.0775 1048.00
85.1427 1073.00
85.2079 1077.00
85.2731 1054.00
85.3383 1092.00
85.4035 1045.00
85.4687 1081.00
85.5339 1048.00
85.5991 1084.00
85.6643 1062.00
85.7295 1035.00
85.7946 1130.00
85.8598 1014.00
85.925 1098.00
85.9903 1055.00
86.0554 993.00
86.1206 1054.00
86.1858 1029.00
86.251 1102.00
86.3162 1079.00
86.3814 1091.00
86.4466 1101.00
86.5118 1096.00
86.577 1138.00
86.6422 1205.00
86.7074 1268.00
86.7726 1282.00
86.8378 1226.00
86.903 1327.00
86.9682 1386.00
87.0334 1261.00
87.0986 1309.00
87.1638 1322.00
87.229 1261.00
87.2942 1255.00
87.3594 1195.00
87.4246 1159.00
87.4898 1073.00
87.555 1127.00
87.6202 1095.00
87.6854 1122.00
87.7506 1148.00
87.8158 1047.00
87.881 1085.00
87.9462 1128.00
88.0114 1102.00
88.0766 1080.00
88.1418 1113.00
88.207 1126.00
88.2722 1169.00
88.3374 1231.00
88.4026 1202.00
88.4678 1194.00
88.533 1200.00
88.5982 1190.00
88.6634 1223.00
88.7286 1186.00
88.7938 1212.00
88.859 1199.00
88.9242 1190.00
88.9894 1226.00
89.0546 1202.00
89.1198 1196.00
89.185 1193.00
89.2502 1115.00
89.3154 1129.00
89.3806 1166.00
89.4458 1228.00
89.511 1118.00
89.5762 1200.00
89.6414 1176.00
89.7066 1186.00
89.7718 1168.00
89.837 1196.00
89.9022 1186.00
89.9674 1199.00
90.0326 1250.00
90.0978 1246.00
90.163 1305.00
90.2282 1258.00
90.2934 1297.00
90.3586 1287.00
90.4238 1251.00
90.489 1321.00
90.5542 1229.00
90.6193 1213.00
90.6845 1202.00
90.7497 1135.00
90.8149 1154.00
90.8801 1134.00
90.9453 1097.00
91.0105 1183.00
91.0757 1098.00
91.1409 1059.00
91.2061 1129.00
91.2713 1146.00
91.3365 1094.00
91.4017 1149.00
91.4669 1170.00
91.5321 1024.00
91.5973 1117.00
91.6625 1124.00
91.7277 1157.00
91.7929 1207.00
91.8581 1149.00
91.9233 1183.00
91.9885 1192.00
92.0537 1155.00
92.1189 1214.00
92.1841 1154.00
92.2493 1206.00
92.3145 1039.00
92.3797 1117.00
92.4449 1054.00
92.5101 1137.00
92.5753 1036.00
92.6405 1107.00
92.7057 1087.00
92.7709 1079.00
92.8361 1066.00
92.9013 1090.00
92.9665 1002.00
93.0317 1076.00
93.0969 1059.00
93.1621 1079.00
93.2273 1183.00
93.2925 1160.00
93.3577 1138.00
93.4229 1099.00
93.4881 1243.00
93.5533 1225.00
93.6185 1135.00
93.6837 1187.00
93.7489 1128.00
93.8141 1127.00
93.8793 1171.00
93.9445 1187.00
94.0097 1144.00
94.0749 1124.00
94.1401 1146.00
94.2053 1045.00
94.2705 1029.00
94.3357 1113.00
94.4009 1047.00
94.4661 1065.00
94.5313 1069.00
94.5965 1071.00
94.6617 1039.00
94.7269 1133.00
94.7921 1126.00
94.8573 1123.00
94.9225 1135.00
94.9877 1162.00
95.0529 1152.00
95.1181 1108.00
95.1833 1107.00
95.2485 1204.00
95.3137 1174.00
95.3789 1224.00
95.444 1185.00
95.5092 1189.00
95.5744 1152.00
95.6396 1145.00
95.7048 1259.00
95.77 1130.00
95.8352 1108.00
95.9004 1181.00
95.9656 1186.00
96.0308 1157.00
96.096 1053.00
96.1612 1068.00
96.2264 1143.00
96.2916 1110.00
96.3568 1109.00
96.422 1091.00
96.4872 1077.00
96.5524 1030.00
96.6176 1123.00
96.6828 1104.00
96.748 1100.00
96.8132 1144.00
96.8784 1117.00
96.9436 1211.00
97.0088 1057.00
97.074 1143.00
97.1392 1122.00
97.2044 1069.00
97.2696 1098.00
97.3348 1107.00
97.4 1119.00
97.4652 1126.00
97.5304 1156.00
97.5956 1175.00
97.6608 1177.00
97.726 1197.00
97.7912 1137.00
97.8564 1119.00
97.9216 1063.00
97.9868 1103.00
98.052 1115.00
98.1172 1110.00
98.1824 1063.00
98.2476 1052.00
98.3128 1084.00
98.378 1121.00
98.4432 1037.00
98.5084 1110.00
98.5736 1056.00
98.6388 1056.00
98.704 1069.00
98.7692 1073.00
98.8344 1180.00
98.8996 1136.00
98.9648 1080.00
99.03 1087.00
99.0952 1083.00
99.1604 1129.00
99.2256 1113.00
99.2908 1090.00
99.356 1164.00
99.4212 1103.00
99.4864 1135.00
99.5516 1160.00
99.6168 1221.00
99.682 1235.00
99.7472 1293.00
99.8124 1264.00
99.8776 1283.00
99.9428 1238.00
100.008 1400.00
100.073 1371.00
100.095 1397.00