File: data/xrd_creation/results/NSC_97.xy
9.903433 2669.00
9.968632 2681.00
10.0338 2718.00
10.099 2693.00
10.1642 2574.00
10.2294 2570.00
10.2946 2600.00
10.3598 2465.00
10.425 2483.00
10.4902 2527.00
10.5554 2636.00
10.6206 2401.00
10.6858 2419.00
10.751 2482.00
10.8162 2438.00
10.8814 2340.00
10.9466 2352.00
11.0118 2374.00
11.077 2250.00
11.1422 2273.00
11.2074 2240.00
11.2726 2329.00
11.3378 2224.00
11.403 2294.00
11.4682 2228.00
11.5334 2126.00
11.5986 2168.00
11.6638 2145.00
11.729 2149.00
11.7942 2161.00
11.8594 2057.00
11.9246 1949.00
11.9898 2036.00
12.055 1977.00
12.1202 2014.00
12.1854 1939.00
12.2506 2097.00
12.3158 1995.00
12.381 1910.00
12.4462 1973.00
12.5114 1892.00
12.5766 1874.00
12.6418 1891.00
12.707 1875.00
12.7722 1933.00
12.8374 1756.00
12.9026 1929.00
12.9678 1788.00
13.033 1736.00
13.0982 1770.00
13.1634 1734.00
13.2286 1766.00
13.2938 1729.00
13.359 1654.00
13.4242 1720.00
13.4894 1704.00
13.5546 1709.00
13.6198 1641.00
13.685 1660.00
13.7502 1703.00
13.8154 1608.00
13.8805 1679.00
13.9457 1688.00
14.0109 1716.00
14.0761 1714.00
14.1413 1691.00
14.2065 1836.00
14.2717 1866.00
14.3369 1674.00
14.4021 1638.00
14.4673 1551.00
14.5325 1522.00
14.5977 1536.00
14.6629 1542.00
14.7281 1476.00
14.7933 1522.00
14.8585 1502.00
14.9237 1540.00
14.9889 1551.00
15.0541 1454.00
15.1193 1477.00
15.1845 1452.00
15.2497 1443.00
15.3149 1426.00
15.3801 1502.00
15.4453 1485.00
15.5105 1445.00
15.5757 1393.00
15.6409 1407.00
15.7061 1350.00
15.7713 1388.00
15.8365 1387.00
15.9017 1323.00
15.9669 1406.00
16.0321 1350.00
16.0973 1417.00
16.1625 1325.00
16.2277 1377.00
16.2929 1307.00
16.3581 1297.00
16.4233 1352.00
16.4885 1384.00
16.5537 1311.00
16.6189 1323.00
16.6841 1372.00
16.7493 1321.00
16.8145 1237.00
16.8797 1252.00
16.9449 1234.00
17.0101 1253.00
17.0753 1249.00
17.1405 1269.00
17.2057 1193.00
17.2709 1276.00
17.3361 1270.00
17.4013 1254.00
17.4665 1272.00
17.5317 1199.00
17.5969 1237.00
17.6621 1219.00
17.7273 1205.00
17.7925 1158.00
17.8577 1229.00
17.9229 1127.00
17.9881 1096.00
18.0533 1186.00
18.1185 1183.00
18.1837 1165.00
18.2489 1120.00
18.3141 1149.00
18.3793 1176.00
18.4445 1146.00
18.5097 1131.00
18.5749 1120.00
18.6401 1123.00
18.7052 1104.00
18.7704 1150.00
18.8356 1098.00
18.9008 1074.00
18.966 1114.00
19.0312 1105.00
19.0964 1138.00
19.1616 1123.00
19.2268 1166.00
19.292 1114.00
19.3572 1128.00
19.4224 1131.00
19.4876 1180.00
19.5528 1289.00
19.618 1367.00
19.6832 1761.00
19.7484 2074.00
19.8136 1888.00
19.8788 1298.00
19.944 1150.00
20.0092 1067.00
20.0744 1130.00
20.1396 1131.00
20.2048 1164.00
20.27 1204.00
20.3352 1161.00
20.4004 1182.00
20.4656 1141.00
20.5308 1286.00
20.596 1438.00
20.6612 1997.00
20.7264 2275.00
20.7916 1763.00
20.8568 1245.00
20.922 1128.00
20.9872 1007.00
21.0524 993.00
21.1176 1026.00
21.1828 1000.00
21.248 1012.00
21.3132 1000.00
21.3784 1032.00
21.4436 1039.00
21.5088 961.00
21.574 906.00
21.6392 946.00
21.7044 1012.00
21.7696 909.00
21.8348 902.00
21.9 903.00
21.9652 880.00
22.0304 959.00
22.0956 919.00
22.1608 945.00
22.226 967.00
22.2912 874.00
22.3564 876.00
22.4216 856.00
22.4868 916.00
22.552 903.00
22.6172 859.00
22.6824 909.00
22.7476 898.00
22.8128 887.00
22.878 925.00
22.9432 948.00
23.0084 979.00
23.0736 928.00
23.1388 844.00
23.204 808.00
23.2692 893.00
23.3344 878.00
23.3996 746.00
23.4647 826.00
23.5299 813.00
23.5951 886.00
23.6603 970.00
23.7255 933.00
23.7907 1134.00
23.8559 1375.00
23.9211 1642.00
23.9863 1352.00
24.0515 942.00
24.1167 857.00
24.1819 880.00
24.2471 860.00
24.3123 884.00
24.3775 890.00
24.4427 822.00
24.5079 814.00
24.5731 819.00
24.6383 743.00
24.7035 727.00
24.7687 755.00
24.8339 779.00
24.8991 777.00
24.9643 850.00
25.0295 736.00
25.0947 752.00
25.1599 838.00
25.2251 769.00
25.2903 770.00
25.3555 741.00
25.4207 818.00
25.4859 817.00
25.5511 791.00
25.6163 833.00
25.6815 885.00
25.7467 893.00
25.8119 819.00
25.8771 844.00
25.9423 841.00
26.0075 816.00
26.0727 829.00
26.1379 867.00
26.2031 952.00
26.2683 1162.00
26.3335 1488.00
26.3987 2351.00
26.4639 3843.00
26.5291 3666.00
26.5943 2042.00
26.6595 1141.00
26.7247 929.00
26.7899 832.00
26.8551 770.00
26.9203 749.00
26.9855 779.00
27.0507 734.00
27.1159 704.00
27.1811 725.00
27.2463 722.00
27.3115 743.00
27.3767 729.00
27.4419 723.00
27.5071 726.00
27.5723 735.00
27.6375 715.00
27.7027 745.00
27.7679 691.00
27.8331 723.00
27.8983 669.00
27.9635 735.00
28.0287 727.00
28.0939 812.00
28.1591 731.00
28.2243 738.00
28.2894 772.00
28.3546 755.00
28.4198 765.00
28.485 741.00
28.5502 713.00
28.6154 765.00
28.6806 849.00
28.7458 999.00
28.811 1317.00
28.8762 1287.00
28.9414 910.00
29.0066 720.00
29.0718 736.00
29.137 709.00
29.2022 727.00
29.2674 677.00
29.3326 656.00
29.3978 628.00
29.463 594.00
29.5282 671.00
29.5934 647.00
29.6586 665.00
29.7238 669.00
29.789 630.00
29.8542 641.00
29.9194 633.00
29.9846 678.00
30.0498 676.00
30.115 609.00
30.1802 572.00
30.2454 617.00
30.3106 630.00
30.3758 643.00
30.441 651.00
30.5062 646.00
30.5714 572.00
30.6366 603.00
30.7018 620.00
30.767 647.00
30.8322 586.00
30.8974 600.00
30.9626 607.00
31.0278 630.00
31.093 644.00
31.1582 641.00
31.2234 642.00
31.2886 622.00
31.3538 681.00
31.419 697.00
31.4842 699.00
31.5494 795.00
31.6146 1135.00
31.6798 1607.00
31.745 1547.00
31.8102 1164.00
31.8754 742.00
31.9406 664.00
32.0058 612.00
32.071 647.00
32.1362 660.00
32.2014 637.00
32.2666 692.00
32.3318 658.00
32.397 597.00
32.4622 607.00
32.5274 607.00
32.5926 594.00
32.6578 647.00
32.723 635.00
32.7882 593.00
32.8534 584.00
32.9186 567.00
32.9838 577.00
33.0489 587.00
33.1141 587.00
33.1793 559.00
33.2445 539.00
33.3097 556.00
33.3749 638.00
33.4401 642.00
33.5053 690.00
33.5705 811.00
33.6357 1187.00
33.7009 2060.00
33.7661 3246.00
33.8313 2676.00
33.8965 1677.00
33.9617 991.00
34.0269 744.00
34.0921 752.00
34.1573 647.00
34.2225 546.00
34.2877 516.00
34.3529 530.00
34.4181 503.00
34.4833 515.00
34.5485 499.00
34.6137 481.00
34.6789 508.00
34.7441 527.00
34.8093 538.00
34.8745 542.00
34.9397 550.00
35.0049 537.00
35.0701 472.00
35.1353 523.00
35.2005 538.00
35.2657 497.00
35.3309 515.00
35.3961 517.00
35.4613 485.00
35.5265 458.00
35.5917 525.00
35.6569 563.00
35.7221 663.00
35.7873 794.00
35.8525 743.00
35.9177 635.00
35.9829 579.00
36.0481 504.00
36.1133 510.00
36.1785 492.00
36.2437 614.00
36.3089 694.00
36.3741 822.00
36.4393 824.00
36.5045 737.00
36.5697 562.00
36.6349 514.00
36.7001 500.00
36.7653 463.00
36.8305 471.00
36.8957 456.00
36.9609 451.00
37.0261 504.00
37.0913 427.00
37.1565 466.00
37.2217 448.00
37.2869 475.00
37.3521 447.00
37.4173 471.00
37.4825 465.00
37.5477 514.00
37.6129 529.00
37.6781 538.00
37.7433 695.00
37.8085 907.00
37.8736 1062.00
37.9388 952.00
38.004 680.00
38.0692 539.00
38.1344 479.00
38.1996 423.00
38.2648 436.00
38.33 455.00
38.3952 477.00
38.4604 506.00
38.5256 457.00
38.5908 458.00
38.656 447.00
38.7212 449.00
38.7864 429.00
38.8516 526.00
38.9168 542.00
38.982 517.00
39.0472 442.00
39.1124 413.00
39.1776 411.00
39.2428 406.00
39.308 361.00
39.3732 361.00
39.4384 360.00
39.5036 393.00
39.5688 391.00
39.634 351.00
39.6992 375.00
39.7644 368.00
39.8296 366.00
39.8948 387.00
39.96 394.00
40.0252 403.00
40.0904 406.00
40.1556 447.00
40.2208 457.00
40.286 429.00
40.3512 430.00
40.4164 396.00
40.4816 405.00
40.5468 382.00
40.612 423.00
40.6772 404.00
40.7424 371.00
40.8076 386.00
40.8728 359.00
40.938 375.00
41.0032 371.00
41.0684 398.00
41.1336 372.00
41.1988 363.00
41.264 376.00
41.3292 382.00
41.3944 365.00
41.4596 393.00
41.5248 387.00
41.59 395.00
41.6552 352.00
41.7204 406.00
41.7856 384.00
41.8508 422.00
41.916 465.00
41.9812 462.00
42.0464 437.00
42.1116 405.00
42.1768 421.00
42.242 421.00
42.3072 451.00
42.3724 454.00
42.4376 418.00
42.5028 409.00
42.568 407.00
42.6332 407.00
42.6983 407.00
42.7635 416.00
42.8287 411.00
42.8939 401.00
42.9591 390.00
43.0243 360.00
43.0895 382.00
43.1547 338.00
43.2199 341.00
43.2851 352.00
43.3503 377.00
43.4155 372.00
43.4807 366.00
43.5459 368.00
43.6111 349.00
43.6763 370.00
43.7415 402.00
43.8067 407.00
43.8719 470.00
43.9371 517.00
44.0023 487.00
44.0675 399.00
44.1327 392.00
44.1979 343.00
44.2631 366.00
44.3283 327.00
44.3935 330.00
44.4587 318.00
44.5239 338.00
44.5891 345.00
44.6543 374.00
44.7195 340.00
44.7847 367.00
44.8499 351.00
44.9151 379.00
44.9803 343.00
45.0455 352.00
45.1107 327.00
45.1759 339.00
45.2411 319.00
45.3063 332.00
45.3715 344.00
45.4367 370.00
45.5019 324.00
45.5671 376.00
45.6323 416.00
45.6975 443.00
45.7627 515.00
45.8279 477.00
45.8931 384.00
45.9583 394.00
46.0235 381.00
46.0887 349.00
46.1539 311.00
46.2191 337.00
46.2843 350.00
46.3495 324.00
46.4147 338.00
46.4799 319.00
46.5451 334.00
46.6103 300.00
46.6755 302.00
46.7407 323.00
46.8059 339.00
46.8711 326.00
46.9363 391.00
47.0015 395.00
47.0667 481.00
47.1319 527.00
47.1971 528.00
47.2623 509.00
47.3275 454.00
47.3927 423.00
47.4579 372.00
47.523 392.00
47.5882 333.00
47.6534 324.00
47.7186 325.00
47.7838 329.00
47.849 309.00
47.9142 284.00
47.9794 314.00
48.0446 324.00
48.1098 312.00
48.175 368.00
48.2402 321.00
48.3054 324.00
48.3706 336.00
48.4358 310.00
48.501 340.00
48.5662 340.00
48.6314 331.00
48.6966 332.00
48.7618 328.00
48.827 322.00
48.8922 385.00
48.9574 383.00
49.0226 505.00
49.0878 574.00
49.153 551.00
49.2182 471.00
49.2834 423.00
49.3486 332.00
49.4138 326.00
49.479 326.00
49.5442 308.00
49.6094 301.00
49.6746 302.00
49.7398 292.00
49.805 326.00
49.8702 359.00
49.9354 375.00
50.0006 363.00
50.0658 331.00
50.131 297.00
50.1962 325.00
50.2614 339.00
50.3266 323.00
50.3918 308.00
50.457 335.00
50.5222 295.00
50.5874 314.00
50.6526 327.00
50.7178 302.00
50.783 286.00
50.8482 304.00
50.9134 292.00
50.9786 325.00
51.0438 326.00
51.109 367.00
51.1742 331.00
51.2394 357.00
51.3046 394.00
51.3698 398.00
51.435 492.00
51.5002 545.00
51.5654 890.00
51.6306 1753.00
51.6958 2188.00
51.761 1723.00
51.8262 1419.00
51.8914 923.00
51.9566 593.00
52.0218 492.00
52.087 505.00
52.1522 596.00
52.2174 548.00
52.2826 559.00
52.3477 427.00
52.4129 384.00
52.4781 350.00
52.5433 350.00
52.6085 306.00
52.6737 324.00
52.7389 299.00
52.8041 319.00
52.8693 350.00
52.9345 301.00
52.9997 305.00
53.0649 307.00
53.1301 326.00
53.1953 306.00
53.2605 298.00
53.3257 313.00
53.3909 335.00
53.4561 277.00
53.5213 279.00
53.5865 285.00
53.6517 307.00
53.7169 269.00
53.7821 299.00
53.8473 297.00
53.9125 297.00
53.9777 301.00
54.0429 277.00
54.1081 311.00
54.1733 272.00
54.2385 295.00
54.3037 317.00
54.3689 291.00
54.4341 333.00
54.4993 391.00
54.5645 419.00
54.6297 661.00
54.6949 719.00
54.7601 576.00
54.8253 543.00
54.8905 431.00
54.9557 374.00
55.0209 334.00
55.0861 300.00
55.1513 271.00
55.2165 324.00
55.2817 295.00
55.3469 314.00
55.4121 360.00
55.4773 340.00
55.5425 311.00
55.6077 333.00
55.6729 324.00
55.7381 307.00
55.8033 258.00
55.8685 298.00
55.9337 272.00
55.9989 276.00
56.0641 247.00
56.1293 288.00
56.1945 273.00
56.2597 290.00
56.3249 287.00
56.3901 281.00
56.4553 268.00
56.5205 342.00
56.5857 355.00
56.6509 400.00
56.7161 399.00
56.7813 393.00
56.8465 406.00
56.9117 361.00
56.9769 424.00
57.042 500.00
57.1073 444.00
57.1724 396.00
57.2376 367.00
57.3028 319.00
57.368 322.00
57.4332 296.00
57.4984 315.00
57.5636 327.00
57.6288 361.00
57.694 454.00
57.7592 512.00
57.8244 414.00
57.8896 395.00
57.9548 348.00
58.02 285.00
58.0852 279.00
58.1504 304.00
58.2156 260.00
58.2808 271.00
58.346 309.00
58.4112 272.00
58.4764 262.00
58.5416 286.00
58.6068 262.00
58.672 292.00
58.7372 324.00
58.8024 295.00
58.8676 308.00
58.9328 309.00
58.998 289.00
59.0632 260.00
59.1284 276.00
59.1936 248.00
59.2588 245.00
59.324 244.00
59.3892 277.00
59.4544 283.00
59.5196 232.00
59.5848 259.00
59.65 259.00
59.7152 265.00
59.7804 270.00
59.8456 302.00
59.9108 306.00
59.976 277.00
60.0412 245.00
60.1064 267.00
60.1716 282.00
60.2368 236.00
60.302 234.00
60.3672 224.00
60.4324 251.00
60.4976 238.00
60.5628 261.00
60.628 241.00
60.6932 257.00
60.7584 270.00
60.8236 221.00
60.8888 268.00
60.954 274.00
61.0192 278.00
61.0844 373.00
61.1496 349.00
61.2148 361.00
61.28 322.00
61.3452 318.00
61.4104 305.00
61.4756 322.00
61.5408 331.00
61.606 304.00
61.6712 364.00
61.7364 488.00
61.8016 581.00
61.8667 570.00
61.932 482.00
61.9971 441.00
62.0623 377.00
62.1275 365.00
62.1927 290.00
62.2579 294.00
62.3231 267.00
62.3883 280.00
62.4535 309.00
62.5187 288.00
62.5839 336.00
62.6491 404.00
62.7143 389.00
62.7795 330.00
62.8447 326.00
62.9099 351.00
62.9751 293.00
63.0403 320.00
63.1055 286.00
63.1707 316.00
63.2359 309.00
63.3011 264.00
63.3663 266.00
63.4315 263.00
63.4967 263.00
63.5619 237.00
63.6271 261.00
63.6923 226.00
63.7575 238.00
63.8227 238.00
63.8879 225.00
63.9531 263.00
64.0183 243.00
64.0835 275.00
64.1487 274.00
64.2139 274.00
64.2791 264.00
64.3443 263.00
64.4095 282.00
64.4747 318.00
64.5399 373.00
64.6051 570.00
64.6703 617.00
64.7355 507.00
64.8007 473.00
64.8659 426.00
64.9311 387.00
64.9963 324.00
65.0615 278.00
65.1267 299.00
65.1919 319.00
65.2571 331.00
65.3223 399.00
65.3875 358.00
65.4527 351.00
65.5179 385.00
65.5831 350.00
65.6483 390.00
65.7135 395.00
65.7787 504.00
65.8439 576.00
65.9091 653.00
65.9743 585.00
66.0395 527.00
66.1047 501.00
66.1699 376.00
66.2351 305.00
66.3003 264.00
66.3655 237.00
66.4307 236.00
66.4959 229.00
66.561 235.00
66.6263 260.00
66.6915 256.00
66.7566 230.00
66.8218 227.00
66.887 210.00
66.9522 232.00
67.0174 240.00
67.0826 250.00
67.1478 290.00
67.213 269.00
67.2782 238.00
67.3434 296.00
67.4086 279.00
67.4738 262.00
67.539 239.00
67.6042 243.00
67.6694 231.00
67.7346 219.00
67.7998 226.00
67.865 277.00
67.9302 224.00
67.9954 215.00
68.0606 216.00
68.1258 233.00
68.191 226.00
68.2562 214.00
68.3214 222.00
68.3866 232.00
68.4518 210.00
68.517 220.00
68.5822 248.00
68.6474 224.00
68.7126 231.00
68.7778 230.00
68.843 229.00
68.9082 206.00
68.9734 263.00
69.0386 227.00
69.1038 233.00
69.169 238.00
69.2342 299.00
69.2994 298.00
69.3646 318.00
69.4298 311.00
69.495 267.00
69.5602 270.00
69.6254 261.00
69.6906 259.00
69.7558 227.00
69.821 247.00
69.8862 209.00
69.9514 198.00
70.0166 218.00
70.0818 215.00
70.147 215.00
70.2122 217.00
70.2774 239.00
70.3426 224.00
70.4078 244.00
70.473 240.00
70.5382 201.00
70.6034 245.00
70.6686 259.00
70.7338 235.00
70.799 256.00
70.8642 267.00
70.9294 235.00
70.9946 246.00
71.0598 265.00
71.125 338.00
71.1902 415.00
71.2554 376.00
71.3205 292.00
71.3858 345.00
71.451 314.00
71.5162 265.00
71.5813 271.00
71.6465 233.00
71.7117 243.00
71.7769 222.00
71.8421 240.00
71.9073 210.00
71.9725 223.00
72.0377 228.00
72.1029 214.00
72.1681 242.00
72.2333 219.00
72.2985 231.00
72.3637 209.00
72.4289 200.00
72.4941 226.00
72.5593 223.00
72.6245 202.00
72.6897 226.00
72.7549 218.00
72.8201 207.00
72.8853 192.00
72.9505 247.00
73.0157 217.00
73.0809 238.00
73.1461 265.00
73.2113 239.00
73.2765 262.00
73.3417 273.00
73.4069 241.00
73.4721 275.00
73.5373 236.00
73.6025 222.00
73.6677 199.00
73.7329 218.00
73.7981 235.00
73.8633 193.00
73.9285 216.00
73.9937 210.00
74.0589 207.00
74.1241 221.00
74.1893 197.00
74.2545 207.00
74.3197 216.00
74.3849 205.00
74.4501 205.00
74.5153 220.00
74.5805 206.00
74.6457 184.00
74.7109 227.00
74.7761 225.00
74.8413 209.00
74.9065 220.00
74.9717 240.00
75.0369 244.00
75.1021 247.00
75.1673 229.00
75.2325 226.00
75.2977 239.00
75.3629 235.00
75.4281 234.00
75.4933 245.00
75.5585 223.00
75.6237 215.00
75.6889 216.00
75.7541 233.00
75.8193 227.00
75.8845 243.00
75.9497 245.00
76.0149 274.00
76.0801 235.00
76.1452 258.00
76.2104 224.00
76.2756 234.00
76.3409 241.00
76.406 186.00
76.4712 234.00
76.5364 256.00
76.6016 201.00
76.6668 210.00
76.732 242.00
76.7972 243.00
76.8624 221.00
76.9276 242.00
76.9928 240.00
77.058 223.00
77.1232 205.00
77.1884 241.00
77.2536 256.00
77.3188 236.00
77.384 274.00
77.4492 288.00
77.5144 249.00
77.5796 267.00
77.6448 243.00
77.71 273.00
77.7752 228.00
77.8404 214.00
77.9056 242.00
77.9708 237.00
78.036 208.00
78.1012 246.00
78.1664 247.00
78.2316 206.00
78.2968 208.00
78.362 262.00
78.4272 305.00
78.4924 327.00
78.5576 423.00
78.6228 476.00
78.688 424.00
78.7532 365.00
78.8184 375.00
78.8836 385.00
78.9488 304.00
79.014 312.00
79.0792 295.00
79.1444 222.00
79.2096 226.00
79.2748 225.00
79.34 208.00
79.4052 204.00
79.4704 208.00
79.5356 227.00
79.6008 222.00
79.666 211.00
79.7312 220.00
79.7964 235.00
79.8616 247.00
79.9268 263.00
79.992 216.00
80.0572 224.00
80.1224 242.00
80.1876 241.00
80.2528 211.00
80.318 230.00
80.3832 210.00
80.4484 242.00
80.5136 235.00
80.5788 222.00
80.644 216.00
80.7092 211.00
80.7744 263.00
80.8396 269.00
80.9048 271.00
80.9699 320.00
81.0351 302.00
81.1003 365.00
81.1655 300.00
81.2307 326.00
81.2959 317.00
81.3611 267.00
81.4263 258.00
81.4915 273.00
81.5567 240.00
81.6219 234.00
81.6871 238.00
81.7523 271.00
81.8175 241.00
81.8827 216.00
81.9479 226.00
82.0131 232.00
82.0783 240.00
82.1435 208.00
82.2087 197.00
82.2739 274.00
82.3391 216.00
82.4043 203.00
82.4695 231.00
82.5347 233.00
82.5999 244.00
82.6651 246.00
82.7303 265.00
82.7955 298.00
82.8607 276.00
82.9259 251.00
82.9911 258.00
83.0563 266.00
83.1215 231.00
83.1867 251.00
83.2519 264.00
83.3171 257.00
83.3823 263.00
83.4475 249.00
83.5127 287.00
83.5779 347.00
83.6431 454.00
83.7083 374.00
83.7735 305.00
83.8387 274.00
83.9039 314.00
83.9691 288.00
84.0343 250.00
84.0995 241.00
84.1647 238.00
84.2299 230.00
84.2951 216.00
84.3603 220.00
84.4255 224.00
84.4907 222.00
84.5559 215.00
84.6211 204.00
84.6863 246.00
84.7515 230.00
84.8167 245.00
84.8819 220.00
84.9471 221.00
85.0123 256.00
85.0775 214.00
85.1427 214.00
85.2079 227.00
85.2731 215.00
85.3383 195.00
85.4035 187.00
85.4687 223.00
85.5339 197.00
85.5991 207.00
85.6643 243.00
85.7295 202.00
85.7946 218.00
85.8598 214.00
85.925 231.00
85.9903 215.00
86.0554 257.00
86.1206 271.00
86.1858 232.00
86.251 250.00
86.3162 257.00
86.3814 231.00
86.4466 230.00
86.5118 224.00
86.577 205.00
86.6422 200.00
86.7074 215.00
86.7726 201.00
86.8378 209.00
86.903 235.00
86.9682 215.00
87.0334 225.00
87.0986 264.00
87.1638 308.00
87.229 305.00
87.2942 308.00
87.3594 275.00
87.4246 308.00
87.4898 306.00
87.555 266.00
87.6202 245.00
87.6854 259.00
87.7506 282.00
87.8158 227.00
87.881 220.00
87.9462 222.00
88.0114 248.00
88.0766 209.00
88.1418 180.00
88.207 209.00
88.2722 226.00
88.3374 213.00
88.4026 219.00
88.4678 238.00
88.533 251.00
88.5982 206.00
88.6634 202.00
88.7286 188.00
88.7938 207.00
88.859 211.00
88.9242 210.00
88.9894 179.00
89.0546 235.00
89.1198 223.00
89.185 218.00
89.2502 196.00
89.3154 231.00
89.3806 227.00
89.4458 232.00
89.511 262.00
89.5762 290.00
89.6414 364.00
89.7066 389.00
89.7718 368.00
89.837 326.00
89.9022 320.00
89.9674 312.00
90.0326 329.00
90.0978 285.00
90.163 281.00
90.2282 238.00
90.2934 221.00
90.3586 226.00
90.4238 242.00
90.489 248.00
90.5542 278.00
90.6193 241.00
90.6845 289.00
90.7497 355.00
90.8149 399.00
90.8801 353.00
90.9453 334.00
91.0105 302.00
91.0757 358.00
91.1409 327.00
91.2061 291.00
91.2713 265.00
91.3365 264.00
91.4017 243.00
91.4669 219.00
91.5321 204.00
91.5973 216.00
91.6625 210.00
91.7277 203.00
91.7929 205.00
91.8581 212.00
91.9233 212.00
91.9885 210.00
92.0537 215.00
92.1189 226.00
92.1841 218.00
92.2493 194.00
92.3145 256.00
92.3797 214.00
92.4449 266.00
92.5101 211.00
92.5753 241.00
92.6405 213.00
92.7057 222.00
92.7709 206.00
92.8361 245.00
92.9013 237.00
92.9665 203.00
93.0317 234.00
93.0969 230.00
93.1621 256.00
93.2273 299.00
93.2925 284.00
93.3577 271.00
93.4229 225.00
93.4881 258.00
93.5533 264.00
93.6185 208.00
93.6837 216.00
93.7489 244.00
93.8141 217.00
93.8793 199.00
93.9445 206.00
94.0097 215.00
94.0749 249.00
94.1401 222.00
94.2053 229.00
94.2705 197.00
94.3357 244.00
94.4009 220.00
94.4661 207.00
94.5313 224.00
94.5965 191.00
94.6617 191.00
94.7269 217.00
94.7921 203.00
94.8573 191.00
94.9225 205.00
94.9877 178.00
95.0529 186.00
95.1181 181.00
95.1833 238.00
95.2485 235.00
95.3137 210.00
95.3789 211.00
95.444 201.00
95.5092 204.00
95.5744 231.00
95.6396 232.00
95.7048 234.00
95.77 239.00
95.8352 270.00
95.9004 271.00
95.9656 310.00
96.0308 285.00
96.096 247.00
96.1612 220.00
96.2264 248.00
96.2916 297.00
96.3568 221.00
96.422 229.00
96.4872 214.00
96.5524 208.00
96.6176 178.00
96.6828 192.00
96.748 218.00
96.8132 219.00
96.8784 191.00
96.9436 194.00
97.0088 197.00
97.074 183.00
97.1392 191.00
97.2044 195.00
97.2696 216.00
97.3348 204.00
97.4 214.00
97.4652 225.00
97.5304 185.00
97.5956 219.00
97.6608 218.00
97.726 236.00
97.7912 227.00
97.8564 209.00
97.9216 224.00
97.9868 170.00
98.052 223.00
98.1172 232.00
98.1824 211.00
98.2476 191.00
98.3128 207.00
98.378 190.00
98.4432 204.00
98.5084 183.00
98.5736 189.00
98.6388 177.00
98.704 195.00
98.7692 199.00
98.8344 192.00
98.8996 213.00
98.9648 208.00
99.03 175.00
99.0952 183.00
99.1604 190.00
99.2256 194.00
99.2908 207.00
99.356 209.00
99.4212 210.00
99.4864 206.00
99.5516 203.00
99.6168 238.00
99.682 203.00
99.7472 212.00
99.8124 237.00
99.8776 245.00
99.9428 221.00
100.008 187.00
100.073 195.00
100.095 223.00