File: data/xrd_creation/results/NSC_49.xy
9.903433 2733.00
9.968632 2688.00
10.0338 2774.00
10.099 2757.00
10.1642 2666.00
10.2294 2627.00
10.2946 2658.00
10.3598 2566.00
10.425 2484.00
10.4902 2578.00
10.5554 2486.00
10.6206 2445.00
10.6858 2478.00
10.751 2476.00
10.8162 2412.00
10.8814 2432.00
10.9466 2410.00
11.0118 2346.00
11.077 2413.00
11.1422 2442.00
11.2074 2255.00
11.2726 2395.00
11.3378 2301.00
11.403 2415.00
11.4682 2360.00
11.5334 2433.00
11.5986 2449.00
11.6638 2526.00
11.729 2829.00
11.7942 2866.00
11.8594 2693.00
11.9246 2443.00
11.9898 2217.00
12.055 2120.00
12.1202 2099.00
12.1854 2032.00
12.2506 2067.00
12.3158 2141.00
12.381 2034.00
12.4462 2047.00
12.5114 2027.00
12.5766 2062.00
12.6418 1996.00
12.707 2008.00
12.7722 2086.00
12.8374 2094.00
12.9026 1997.00
12.9678 2069.00
13.033 2083.00
13.0982 2011.00
13.1634 1990.00
13.2286 1961.00
13.2938 2110.00
13.359 2109.00
13.4242 2183.00
13.4894 2190.00
13.5546 2255.00
13.6198 2210.00
13.685 2134.00
13.7502 2045.00
13.8154 1925.00
13.8805 1887.00
13.9457 1704.00
14.0109 1802.00
14.0761 1719.00
14.1413 1747.00
14.2065 1732.00
14.2717 1627.00
14.3369 1705.00
14.4021 1667.00
14.4673 1599.00
14.5325 1695.00
14.5977 1644.00
14.6629 1579.00
14.7281 1607.00
14.7933 1583.00
14.8585 1636.00
14.9237 1612.00
14.9889 1607.00
15.0541 1608.00
15.1193 1619.00
15.1845 1551.00
15.2497 1491.00
15.3149 1578.00
15.3801 1554.00
15.4453 1546.00
15.5105 1525.00
15.5757 1451.00
15.6409 1492.00
15.7061 1494.00
15.7713 1430.00
15.8365 1473.00
15.9017 1526.00
15.9669 1475.00
16.0321 1543.00
16.0973 1471.00
16.1625 1474.00
16.2277 1470.00
16.2929 1451.00
16.3581 1457.00
16.4233 1469.00
16.4885 1427.00
16.5537 1501.00
16.6189 1427.00
16.6841 1414.00
16.7493 1406.00
16.8145 1494.00
16.8797 1451.00
16.9449 1446.00
17.0101 1497.00
17.0753 1481.00
17.1405 1438.00
17.2057 1483.00
17.2709 1354.00
17.3361 1497.00
17.4013 1458.00
17.4665 1368.00
17.5317 1309.00
17.5969 1376.00
17.6621 1391.00
17.7273 1402.00
17.7925 1291.00
17.8577 1436.00
17.9229 1337.00
17.9881 1348.00
18.0533 1361.00
18.1185 1362.00
18.1837 1350.00
18.2489 1314.00
18.3141 1381.00
18.3793 1344.00
18.4445 1330.00
18.5097 1321.00
18.5749 1314.00
18.6401 1298.00
18.7052 1432.00
18.7704 1429.00
18.8356 1494.00
18.9008 1615.00
18.966 1804.00
19.0312 2101.00
19.0964 2317.00
19.1616 2397.00
19.2268 2450.00
19.292 2313.00
19.3572 2391.00
19.4224 2738.00
19.4876 3009.00
19.5528 3035.00
19.618 2532.00
19.6832 2071.00
19.7484 1668.00
19.8136 1522.00
19.8788 1422.00
19.944 1366.00
20.0092 1313.00
20.0744 1344.00
20.1396 1401.00
20.2048 1408.00
20.27 1328.00
20.3352 1272.00
20.4004 1237.00
20.4656 1288.00
20.5308 1273.00
20.596 1245.00
20.6612 1199.00
20.7264 1189.00
20.7916 1211.00
20.8568 1143.00
20.922 1098.00
20.9872 1168.00
21.0524 1057.00
21.1176 1124.00
21.1828 1146.00
21.248 1094.00
21.3132 1127.00
21.3784 1160.00
21.4436 1119.00
21.5088 1162.00
21.574 1106.00
21.6392 1114.00
21.7044 1071.00
21.7696 1106.00
21.8348 1123.00
21.9 1138.00
21.9652 1146.00
22.0304 1080.00
22.0956 1081.00
22.1608 1146.00
22.226 1103.00
22.2912 1210.00
22.3564 1236.00
22.4216 1252.00
22.4868 1407.00
22.552 1787.00
22.6172 2341.00
22.6824 3103.00
22.7476 3521.00
22.8128 3085.00
22.878 2484.00
22.9432 1767.00
23.0084 1508.00
23.0736 1379.00
23.1388 1268.00
23.204 1261.00
23.2692 1148.00
23.3344 1111.00
23.3996 1122.00
23.4647 1057.00
23.5299 1028.00
23.5951 1071.00
23.6603 1036.00
23.7255 1068.00
23.7907 1099.00
23.8559 1159.00
23.9211 1047.00
23.9863 1124.00
24.0515 1065.00
24.1167 1059.00
24.1819 1028.00
24.2471 1036.00
24.3123 1023.00
24.3775 1072.00
24.4427 1075.00
24.5079 937.00
24.5731 978.00
24.6383 987.00
24.7035 969.00
24.7687 974.00
24.8339 976.00
24.8991 984.00
24.9643 958.00
25.0295 905.00
25.0947 920.00
25.1599 958.00
25.2251 990.00
25.2903 924.00
25.3555 889.00
25.4207 904.00
25.4859 893.00
25.5511 914.00
25.6163 909.00
25.6815 914.00
25.7467 922.00
25.8119 891.00
25.8771 888.00
25.9423 943.00
26.0075 933.00
26.0727 856.00
26.1379 935.00
26.2031 917.00
26.2683 842.00
26.3335 882.00
26.3987 855.00
26.4639 880.00
26.5291 915.00
26.5943 871.00
26.6595 920.00
26.7247 826.00
26.7899 901.00
26.8551 886.00
26.9203 973.00
26.9855 933.00
27.0507 967.00
27.1159 968.00
27.1811 1008.00
27.2463 1035.00
27.3115 1163.00
27.3767 1353.00
27.4419 1528.00
27.5071 1662.00
27.5723 1704.00
27.6375 1548.00
27.7027 1521.00
27.7679 1347.00
27.8331 1253.00
27.8983 1219.00
27.9635 1224.00
28.0287 1411.00
28.0939 1520.00
28.1591 1547.00
28.2243 1316.00
28.2894 1200.00
28.3546 1065.00
28.4198 973.00
28.485 850.00
28.5502 913.00
28.6154 821.00
28.6806 920.00
28.7458 844.00
28.811 816.00
28.8762 835.00
28.9414 855.00
29.0066 826.00
29.0718 872.00
29.137 836.00
29.2022 798.00
29.2674 830.00
29.3326 812.00
29.3978 816.00
29.463 866.00
29.5282 811.00
29.5934 898.00
29.6586 773.00
29.7238 867.00
29.789 972.00
29.8542 927.00
29.9194 1022.00
29.9846 1090.00
30.0498 1166.00
30.115 1250.00
30.1802 1273.00
30.2454 1586.00
30.3106 2107.00
30.3758 2566.00
30.441 3149.00
30.5062 3501.00
30.5714 3300.00
30.6366 2871.00
30.7018 2107.00
30.767 1674.00
30.8322 1339.00
30.8974 1130.00
30.9626 1065.00
31.0278 1005.00
31.093 1106.00
31.1582 1194.00
31.2234 1534.00
31.2886 1619.00
31.3538 1745.00
31.419 1511.00
31.4842 1265.00
31.5494 1006.00
31.6146 894.00
31.6798 769.00
31.745 844.00
31.8102 807.00
31.8754 728.00
31.9406 748.00
32.0058 757.00
32.071 730.00
32.1362 740.00
32.2014 730.00
32.2666 707.00
32.3318 693.00
32.397 697.00
32.4622 647.00
32.5274 719.00
32.5926 712.00
32.6578 719.00
32.723 730.00
32.7882 755.00
32.8534 734.00
32.9186 745.00
32.9838 773.00
33.0489 711.00
33.1141 695.00
33.1793 724.00
33.2445 734.00
33.3097 752.00
33.3749 734.00
33.4401 720.00
33.5053 742.00
33.5705 813.00
33.6357 964.00
33.7009 1174.00
33.7661 1408.00
33.8313 1416.00
33.8965 1645.00
33.9617 1635.00
34.0269 1777.00
34.0921 1967.00
34.1573 2282.00
34.2225 2129.00
34.2877 1986.00
34.3529 1537.00
34.4181 1216.00
34.4833 904.00
34.5485 838.00
34.6137 750.00
34.6789 677.00
34.7441 675.00
34.8093 677.00
34.8745 674.00
34.9397 615.00
35.0049 659.00
35.0701 664.00
35.1353 684.00
35.2005 672.00
35.2657 695.00
35.3309 658.00
35.3961 629.00
35.4613 684.00
35.5265 658.00
35.5917 643.00
35.6569 615.00
35.7221 661.00
35.7873 637.00
35.8525 624.00
35.9177 641.00
35.9829 632.00
36.0481 620.00
36.1133 650.00
36.1785 644.00
36.2437 649.00
36.3089 587.00
36.3741 604.00
36.4393 658.00
36.5045 613.00
36.5697 592.00
36.6349 573.00
36.7001 562.00
36.7653 600.00
36.8305 578.00
36.8957 599.00
36.9609 589.00
37.0261 591.00
37.0913 575.00
37.1565 609.00
37.2217 566.00
37.2869 568.00
37.3521 587.00
37.4173 591.00
37.4825 534.00
37.5477 561.00
37.6129 555.00
37.6781 578.00
37.7433 519.00
37.8085 557.00
37.8736 496.00
37.9388 513.00
38.004 587.00
38.0692 531.00
38.1344 521.00
38.1996 559.00
38.2648 531.00
38.33 535.00
38.3952 520.00
38.4604 527.00
38.5256 605.00
38.5908 572.00
38.656 532.00
38.7212 544.00
38.7864 564.00
38.8516 551.00
38.9168 572.00
38.982 582.00
39.0472 564.00
39.1124 588.00
39.1776 539.00
39.2428 605.00
39.308 542.00
39.3732 570.00
39.4384 577.00
39.5036 539.00
39.5688 552.00
39.634 516.00
39.6992 553.00
39.7644 532.00
39.8296 520.00
39.8948 555.00
39.96 505.00
40.0252 540.00
40.0904 519.00
40.1556 554.00
40.2208 495.00
40.286 533.00
40.3512 539.00
40.4164 548.00
40.4816 563.00
40.5468 588.00
40.612 617.00
40.6772 635.00
40.7424 604.00
40.8076 573.00
40.8728 568.00
40.938 592.00
41.0032 589.00
41.0684 626.00
41.1336 618.00
41.1988 611.00
41.264 645.00
41.3292 649.00
41.3944 598.00
41.4596 597.00
41.5248 642.00
41.59 671.00
41.6552 675.00
41.7204 679.00
41.7856 608.00
41.8508 622.00
41.916 591.00
41.9812 583.00
42.0464 606.00
42.1116 583.00
42.1768 551.00
42.242 518.00
42.3072 521.00
42.3724 507.00
42.4376 484.00
42.5028 505.00
42.568 549.00
42.6332 466.00
42.6983 532.00
42.7635 511.00
42.8287 507.00
42.8939 566.00
42.9591 561.00
43.0243 519.00
43.0895 569.00
43.1547 520.00
43.2199 583.00
43.2851 529.00
43.3503 494.00
43.4155 559.00
43.4807 580.00
43.5459 499.00
43.6111 546.00
43.6763 618.00
43.7415 595.00
43.8067 619.00
43.8719 641.00
43.9371 634.00
44.0023 575.00
44.0675 510.00
44.1327 539.00
44.1979 568.00
44.2631 573.00
44.3283 596.00
44.3935 639.00
44.4587 683.00
44.5239 710.00
44.5891 677.00
44.6543 700.00
44.7195 652.00
44.7847 582.00
44.8499 568.00
44.9151 540.00
44.9803 533.00
45.0455 560.00
45.1107 495.00
45.1759 533.00
45.2411 497.00
45.3063 491.00
45.3715 503.00
45.4367 478.00
45.5019 515.00
45.5671 534.00
45.6323 527.00
45.6975 514.00
45.7627 584.00
45.8279 577.00
45.8931 559.00
45.9583 594.00
46.0235 608.00
46.0887 635.00
46.1539 661.00
46.2191 669.00
46.2843 702.00
46.3495 732.00
46.4147 889.00
46.4799 994.00
46.5451 1069.00
46.6103 1094.00
46.6755 1055.00
46.7407 963.00
46.8059 859.00
46.8711 797.00
46.9363 721.00
47.0015 668.00
47.0667 594.00
47.1319 566.00
47.1971 531.00
47.2623 501.00
47.3275 463.00
47.3927 515.00
47.4579 502.00
47.523 542.00
47.5882 486.00
47.6534 513.00
47.7186 495.00
47.7838 470.00
47.849 481.00
47.9142 429.00
47.9794 433.00
48.0446 445.00
48.1098 440.00
48.175 442.00
48.2402 510.00
48.3054 427.00
48.3706 417.00
48.4358 436.00
48.501 459.00
48.5662 487.00
48.6314 443.00
48.6966 434.00
48.7618 419.00
48.827 503.00
48.8922 467.00
48.9574 497.00
49.0226 454.00
49.0878 493.00
49.153 571.00
49.2182 535.00
49.2834 511.00
49.3486 502.00
49.4138 513.00
49.479 434.00
49.5442 439.00
49.6094 436.00
49.6746 419.00
49.7398 470.00
49.805 499.00
49.8702 487.00
49.9354 551.00
50.0006 590.00
50.0658 641.00
50.131 667.00
50.1962 662.00
50.2614 738.00
50.3266 657.00
50.3918 676.00
50.457 702.00
50.5222 649.00
50.5874 667.00
50.6526 602.00
50.7178 549.00
50.783 538.00
50.8482 559.00
50.9134 508.00
50.9786 473.00
51.0438 448.00
51.109 486.00
51.1742 537.00
51.2394 502.00
51.3046 477.00
51.3698 495.00
51.435 476.00
51.5002 438.00
51.5654 468.00
51.6306 436.00
51.6958 470.00
51.761 435.00
51.8262 459.00
51.8914 427.00
51.9566 385.00
52.0218 417.00
52.087 432.00
52.1522 466.00
52.2174 402.00
52.2826 413.00
52.3477 405.00
52.4129 414.00
52.4781 439.00
52.5433 411.00
52.6085 460.00
52.6737 422.00
52.7389 505.00
52.8041 536.00
52.8693 472.00
52.9345 506.00
52.9997 503.00
53.0649 505.00
53.1301 515.00
53.1953 552.00
53.2605 598.00
53.3257 735.00
53.3909 728.00
53.4561 739.00
53.5213 777.00
53.5865 676.00
53.6517 643.00
53.7169 547.00
53.7821 500.00
53.8473 504.00
53.9125 507.00
53.9777 506.00
54.0429 506.00
54.1081 503.00
54.1733 491.00
54.2385 472.00
54.3037 471.00
54.3689 443.00
54.4341 449.00
54.4993 437.00
54.5645 460.00
54.6297 407.00
54.6949 428.00
54.7601 377.00
54.8253 395.00
54.8905 428.00
54.9557 398.00
55.0209 430.00
55.0861 414.00
55.1513 391.00
55.2165 411.00
55.2817 487.00
55.3469 414.00
55.4121 407.00
55.4773 451.00
55.5425 414.00
55.6077 387.00
55.6729 440.00
55.7381 397.00
55.8033 439.00
55.8685 402.00
55.9337 404.00
55.9989 381.00
56.0641 381.00
56.1293 390.00
56.1945 350.00
56.2597 394.00
56.3249 370.00
56.3901 370.00
56.4553 372.00
56.5205 381.00
56.5857 401.00
56.6509 377.00
56.7161 435.00
56.7813 409.00
56.8465 385.00
56.9117 387.00
56.9769 373.00
57.042 401.00
57.1073 431.00
57.1724 406.00
57.2376 420.00
57.3028 401.00
57.368 424.00
57.4332 415.00
57.4984 402.00
57.5636 396.00
57.6288 353.00
57.694 414.00
57.7592 407.00
57.8244 374.00
57.8896 390.00
57.9548 468.00
58.02 408.00
58.0852 415.00
58.1504 436.00
58.2156 423.00
58.2808 402.00
58.346 470.00
58.4112 471.00
58.4764 499.00
58.5416 483.00
58.6068 482.00
58.672 529.00
58.7372 500.00
58.8024 545.00
58.8676 611.00
58.9328 608.00
58.998 645.00
59.0632 642.00
59.1284 631.00
59.1936 572.00
59.2588 554.00
59.324 490.00
59.3892 509.00
59.4544 434.00
59.5196 448.00
59.5848 409.00
59.65 401.00
59.7152 431.00
59.7804 415.00
59.8456 422.00
59.9108 437.00
59.976 427.00
60.0412 422.00
60.1064 403.00
60.1716 404.00
60.2368 440.00
60.302 402.00
60.3672 400.00
60.4324 366.00
60.4976 412.00
60.5628 413.00
60.628 395.00
60.6932 390.00
60.7584 426.00
60.8236 416.00
60.8888 390.00
60.954 386.00
61.0192 395.00
61.0844 443.00
61.1496 488.00
61.2148 540.00
61.28 495.00
61.3452 487.00
61.4104 464.00
61.4756 482.00
61.5408 483.00
61.606 489.00
61.6712 463.00
61.7364 442.00
61.8016 414.00
61.8667 408.00
61.932 464.00
61.9971 415.00
62.0623 391.00
62.1275 392.00
62.1927 391.00
62.2579 374.00
62.3231 394.00
62.3883 420.00
62.4535 418.00
62.5187 434.00
62.5839 399.00
62.6491 404.00
62.7143 421.00
62.7795 421.00
62.8447 400.00
62.9099 428.00
62.9751 369.00
63.0403 362.00
63.1055 328.00
63.1707 372.00
63.2359 385.00
63.3011 349.00
63.3663 349.00
63.4315 376.00
63.4967 344.00
63.5619 348.00
63.6271 342.00
63.6923 358.00
63.7575 341.00
63.8227 380.00
63.8879 325.00
63.9531 363.00
64.0183 363.00
64.0835 324.00
64.1487 360.00
64.2139 351.00
64.2791 347.00
64.3443 342.00
64.4095 333.00
64.4747 372.00
64.5399 337.00
64.6051 372.00
64.6703 358.00
64.7355 365.00
64.8007 375.00
64.8659 401.00
64.9311 397.00
64.9963 392.00
65.0615 423.00
65.1267 391.00
65.1919 407.00
65.2571 387.00
65.3223 368.00
65.3875 376.00
65.4527 316.00
65.5179 364.00
65.5831 355.00
65.6483 386.00
65.7135 390.00
65.7787 341.00
65.8439 385.00
65.9091 359.00
65.9743 367.00
66.0395 393.00
66.1047 409.00
66.1699 362.00
66.2351 400.00
66.3003 371.00
66.3655 340.00
66.4307 373.00
66.4959 356.00
66.561 339.00
66.6263 329.00
66.6915 356.00
66.7566 362.00
66.8218 330.00
66.887 357.00
66.9522 334.00
67.0174 316.00
67.0826 333.00
67.1478 305.00
67.213 289.00
67.2782 308.00
67.3434 313.00
67.4086 292.00
67.4738 328.00
67.539 318.00
67.6042 297.00
67.6694 333.00
67.7346 356.00
67.7998 292.00
67.865 338.00
67.9302 303.00
67.9954 311.00
68.0606 299.00
68.1258 322.00
68.191 362.00
68.2562 330.00
68.3214 370.00
68.3866 359.00
68.4518 343.00
68.517 378.00
68.5822 362.00
68.6474 357.00
68.7126 330.00
68.7778 381.00
68.843 380.00
68.9082 336.00
68.9734 322.00
69.0386 346.00
69.1038 328.00
69.169 285.00
69.2342 321.00
69.2994 327.00
69.3646 291.00
69.4298 300.00
69.495 319.00
69.5602 345.00
69.6254 298.00
69.6906 303.00
69.7558 318.00
69.821 320.00
69.8862 315.00
69.9514 341.00
70.0166 313.00
70.0818 308.00
70.147 305.00
70.2122 307.00
70.2774 331.00
70.3426 321.00
70.4078 285.00
70.473 269.00
70.5382 281.00
70.6034 281.00
70.6686 257.00
70.7338 326.00
70.799 305.00
70.8642 296.00
70.9294 290.00
70.9946 307.00
71.0598 349.00
71.125 325.00
71.1902 331.00
71.2554 316.00
71.3205 329.00
71.3858 325.00
71.451 304.00
71.5162 339.00
71.5813 297.00
71.6465 343.00
71.7117 313.00
71.7769 329.00
71.8421 346.00
71.9073 355.00
71.9725 326.00
72.0377 384.00
72.1029 391.00
72.1681 393.00
72.2333 381.00
72.2985 382.00
72.3637 371.00
72.4289 377.00
72.4941 393.00
72.5593 363.00
72.6245 335.00
72.6897 338.00
72.7549 311.00
72.8201 337.00
72.8853 336.00
72.9505 351.00
73.0157 347.00
73.0809 304.00
73.1461 322.00
73.2113 335.00
73.2765 323.00
73.3417 328.00
73.4069 298.00
73.4721 273.00
73.5373 351.00
73.6025 341.00
73.6677 322.00
73.7329 320.00
73.7981 302.00
73.8633 327.00
73.9285 324.00
73.9937 286.00
74.0589 318.00
74.1241 315.00
74.1893 325.00
74.2545 309.00
74.3197 308.00
74.3849 317.00
74.4501 338.00
74.5153 334.00
74.5805 293.00
74.6457 329.00
74.7109 346.00
74.7761 277.00
74.8413 305.00
74.9065 294.00
74.9717 330.00
75.0369 299.00
75.1021 311.00
75.1673 315.00
75.2325 294.00
75.2977 304.00
75.3629 303.00
75.4281 309.00
75.4933 351.00
75.5585 339.00
75.6237 318.00
75.6889 334.00
75.7541 378.00
75.8193 358.00
75.8845 296.00
75.9497 328.00
76.0149 291.00
76.0801 342.00
76.1452 338.00
76.2104 326.00
76.2756 305.00
76.3409 282.00
76.406 339.00
76.4712 327.00
76.5364 335.00
76.6016 332.00
76.6668 320.00
76.732 338.00
76.7972 313.00
76.8624 318.00
76.9276 344.00
76.9928 297.00
77.058 324.00
77.1232 327.00
77.1884 353.00
77.2536 327.00
77.3188 284.00
77.384 305.00
77.4492 298.00
77.5144 312.00
77.5796 316.00
77.6448 323.00
77.71 311.00
77.7752 323.00
77.8404 304.00
77.9056 313.00
77.9708 340.00
78.036 305.00
78.1012 350.00
78.1664 271.00
78.2316 312.00
78.2968 300.00
78.362 305.00
78.4272 309.00
78.4924 324.00
78.5576 295.00
78.6228 309.00
78.688 281.00
78.7532 306.00
78.8184 304.00
78.8836 325.00
78.9488 337.00
79.014 348.00
79.0792 332.00
79.1444 325.00
79.2096 323.00
79.2748 311.00
79.34 345.00
79.4052 333.00
79.4704 334.00
79.5356 324.00
79.6008 343.00
79.666 302.00
79.7312 339.00
79.7964 363.00
79.8616 344.00
79.9268 330.00
79.992 387.00
80.0572 342.00
80.1224 384.00
80.1876 357.00
80.2528 359.00
80.318 350.00
80.3832 372.00
80.4484 364.00
80.5136 357.00
80.5788 380.00
80.644 393.00
80.7092 340.00
80.7744 317.00
80.8396 350.00
80.9048 344.00
80.9699 348.00
81.0351 351.00
81.1003 338.00
81.1655 351.00
81.2307 321.00
81.2959 341.00
81.3611 333.00
81.4263 328.00
81.4915 309.00
81.5567 322.00
81.6219 333.00
81.6871 320.00
81.7523 331.00
81.8175 311.00
81.8827 326.00
81.9479 354.00
82.0131 365.00
82.0783 339.00
82.1435 327.00
82.2087 344.00
82.2739 332.00
82.3391 316.00
82.4043 352.00
82.4695 353.00
82.5347 328.00
82.5999 335.00
82.6651 312.00
82.7303 285.00
82.7955 332.00
82.8607 299.00
82.9259 355.00
82.9911 345.00
83.0563 304.00
83.1215 314.00
83.1867 305.00
83.2519 349.00
83.3171 337.00
83.3823 295.00
83.4475 315.00
83.5127 318.00
83.5779 332.00
83.6431 322.00
83.7083 344.00
83.7735 339.00
83.8387 292.00
83.9039 332.00
83.9691 319.00
84.0343 307.00
84.0995 311.00
84.1647 349.00
84.2299 330.00
84.2951 295.00
84.3603 339.00
84.4255 347.00
84.4907 351.00
84.5559 285.00
84.6211 309.00
84.6863 326.00
84.7515 298.00
84.8167 346.00
84.8819 322.00
84.9471 302.00
85.0123 315.00
85.0775 326.00
85.1427 347.00
85.2079 303.00
85.2731 316.00
85.3383 305.00
85.4035 329.00
85.4687 320.00
85.5339 288.00
85.5991 317.00
85.6643 332.00
85.7295 301.00
85.7946 341.00
85.8598 300.00
85.925 290.00
85.9903 344.00
86.0554 343.00
86.1206 288.00
86.1858 310.00
86.251 303.00
86.3162 316.00
86.3814 328.00
86.4466 329.00
86.5118 338.00
86.577 352.00
86.6422 340.00
86.7074 351.00
86.7726 375.00
86.8378 299.00
86.903 296.00
86.9682 355.00
87.0334 352.00
87.0986 354.00
87.1638 319.00
87.229 323.00
87.2942 287.00
87.3594 308.00
87.4246 316.00
87.4898 312.00
87.555 345.00
87.6202 280.00
87.6854 291.00
87.7506 308.00
87.8158 280.00
87.881 327.00
87.9462 324.00
88.0114 322.00
88.0766 289.00
88.1418 307.00
88.207 342.00
88.2722 294.00
88.3374 309.00
88.4026 324.00
88.4678 308.00
88.533 353.00
88.5982 330.00
88.6634 293.00
88.7286 326.00
88.7938 276.00
88.859 313.00
88.9242 260.00
88.9894 312.00
89.0546 298.00
89.1198 269.00
89.185 306.00
89.2502 313.00
89.3154 266.00
89.3806 296.00
89.4458 298.00
89.511 306.00
89.5762 285.00
89.6414 274.00
89.7066 304.00
89.7718 282.00
89.837 265.00
89.9022 290.00
89.9674 281.00
90.0326 296.00
90.0978 299.00
90.163 312.00
90.2282 277.00
90.2934 297.00
90.3586 287.00
90.4238 325.00
90.489 301.00
90.5542 284.00
90.6193 288.00
90.6845 298.00
90.7497 293.00
90.8149 298.00
90.8801 282.00
90.9453 315.00
91.0105 288.00
91.0757 315.00
91.1409 284.00
91.2061 275.00
91.2713 274.00
91.3365 289.00
91.4017 273.00
91.4669 289.00
91.5321 268.00
91.5973 293.00
91.6625 275.00
91.7277 294.00
91.7929 263.00
91.8581 289.00
91.9233 289.00
91.9885 272.00
92.0537 231.00
92.1189 294.00
92.1841 293.00
92.2493 290.00
92.3145 308.00
92.3797 303.00
92.4449 309.00
92.5101 322.00
92.5753 284.00
92.6405 286.00
92.7057 307.00
92.7709 278.00
92.8361 300.00
92.9013 291.00
92.9665 296.00
93.0317 292.00
93.0969 306.00
93.1621 304.00
93.2273 306.00
93.2925 295.00
93.3577 282.00
93.4229 293.00
93.4881 288.00
93.5533 290.00
93.6185 311.00
93.6837 272.00
93.7489 284.00
93.8141 244.00
93.8793 295.00
93.9445 269.00
94.0097 303.00
94.0749 279.00
94.1401 259.00
94.2053 256.00
94.2705 286.00
94.3357 294.00
94.4009 256.00
94.4661 257.00
94.5313 249.00
94.5965 298.00
94.6617 240.00
94.7269 260.00
94.7921 294.00
94.8573 314.00
94.9225 283.00
94.9877 243.00
95.0529 258.00
95.1181 282.00
95.1833 250.00
95.2485 285.00
95.3137 290.00
95.3789 247.00
95.444 292.00
95.5092 280.00
95.5744 302.00
95.6396 256.00
95.7048 280.00
95.77 296.00
95.8352 282.00
95.9004 280.00
95.9656 312.00
96.0308 296.00
96.096 280.00
96.1612 276.00
96.2264 301.00
96.2916 282.00
96.3568 291.00
96.422 271.00
96.4872 271.00
96.5524 308.00
96.6176 276.00
96.6828 274.00
96.748 299.00
96.8132 290.00
96.8784 299.00
96.9436 299.00
97.0088 268.00
97.074 279.00
97.1392 281.00
97.2044 271.00
97.2696 281.00
97.3348 300.00
97.4 240.00
97.4652 305.00
97.5304 232.00
97.5956 272.00
97.6608 266.00
97.726 270.00
97.7912 264.00
97.8564 220.00
97.9216 274.00
97.9868 234.00
98.052 275.00
98.1172 283.00
98.1824 240.00
98.2476 284.00
98.3128 282.00
98.378 270.00
98.4432 248.00
98.5084 261.00
98.5736 294.00
98.6388 307.00
98.704 273.00
98.7692 294.00
98.8344 299.00
98.8996 247.00
98.9648 289.00
99.03 285.00
99.0952 303.00
99.1604 311.00
99.2256 287.00
99.2908 293.00
99.356 311.00
99.4212 259.00
99.4864 293.00
99.5516 278.00
99.6168 296.00
99.682 261.00
99.7472 290.00
99.8124 296.00
99.8776 288.00
99.9428 285.00
100.008 294.00
100.073 271.00
100.095 282.00