File: data/xrd_creation/results/NSC_9.xy
9.903433 2597.00
9.968632 2611.00
10.0338 2595.00
10.099 2565.00
10.1642 2516.00
10.2294 2572.00
10.2946 2500.00
10.3598 2476.00
10.425 2489.00
10.4902 2410.00
10.5554 2373.00
10.6206 2377.00
10.6858 2386.00
10.751 2372.00
10.8162 2384.00
10.8814 2269.00
10.9466 2307.00
11.0118 2405.00
11.077 2225.00
11.1422 2323.00
11.2074 2157.00
11.2726 2220.00
11.3378 2175.00
11.403 2145.00
11.4682 2157.00
11.5334 2086.00
11.5986 2096.00
11.6638 2093.00
11.729 2124.00
11.7942 2033.00
11.8594 2041.00
11.9246 2024.00
11.9898 2049.00
12.055 2035.00
12.1202 2025.00
12.1854 1959.00
12.2506 1993.00
12.3158 1994.00
12.381 1969.00
12.4462 1902.00
12.5114 1894.00
12.5766 1923.00
12.6418 1985.00
12.707 1815.00
12.7722 1909.00
12.8374 1905.00
12.9026 1848.00
12.9678 1840.00
13.033 1822.00
13.0982 1895.00
13.1634 1714.00
13.2286 1779.00
13.2938 1838.00
13.359 1823.00
13.4242 1787.00
13.4894 1739.00
13.5546 1788.00
13.6198 1750.00
13.685 1665.00
13.7502 1627.00
13.8154 1753.00
13.8805 1782.00
13.9457 1633.00
14.0109 1690.00
14.0761 1681.00
14.1413 1681.00
14.2065 1787.00
14.2717 1677.00
14.3369 1668.00
14.4021 1614.00
14.4673 1695.00
14.5325 1688.00
14.5977 1806.00
14.6629 1788.00
14.7281 1868.00
14.7933 2086.00
14.8585 2332.00
14.9237 2596.00
14.9889 2663.00
15.0541 2628.00
15.1193 2904.00
15.1845 2743.00
15.2497 2205.00
15.3149 1792.00
15.3801 1523.00
15.4453 1598.00
15.5105 1558.00
15.5757 1541.00
15.6409 1562.00
15.7061 1564.00
15.7713 1532.00
15.8365 1487.00
15.9017 1529.00
15.9669 1497.00
16.0321 1561.00
16.0973 1555.00
16.1625 1558.00
16.2277 1504.00
16.2929 1482.00
16.3581 1495.00
16.4233 1467.00
16.4885 1403.00
16.5537 1510.00
16.6189 1515.00
16.6841 1454.00
16.7493 1399.00
16.8145 1431.00
16.8797 1395.00
16.9449 1448.00
17.0101 1442.00
17.0753 1473.00
17.1405 1439.00
17.2057 1478.00
17.2709 1513.00
17.3361 1490.00
17.4013 1471.00
17.4665 1481.00
17.5317 1492.00
17.5969 1500.00
17.6621 1476.00
17.7273 1445.00
17.7925 1444.00
17.8577 1457.00
17.9229 1387.00
17.9881 1401.00
18.0533 1411.00
18.1185 1377.00
18.1837 1444.00
18.2489 1484.00
18.3141 1480.00
18.3793 1488.00
18.4445 1480.00
18.5097 1548.00
18.5749 1630.00
18.6401 1663.00
18.7052 1695.00
18.7704 1692.00
18.8356 1749.00
18.9008 1602.00
18.966 1506.00
19.0312 1374.00
19.0964 1327.00
19.1616 1274.00
19.2268 1331.00
19.292 1354.00
19.3572 1276.00
19.4224 1360.00
19.4876 1335.00
19.5528 1368.00
19.618 1374.00
19.6832 1332.00
19.7484 1380.00
19.8136 1365.00
19.8788 1422.00
19.944 1379.00
20.0092 1413.00
20.0744 1446.00
20.1396 1442.00
20.2048 1597.00
20.27 1845.00
20.3352 2126.00
20.4004 2502.00
20.4656 3024.00
20.5308 4056.00
20.596 4848.00
20.6612 5260.00
20.7264 5179.00
20.7916 5386.00
20.8568 5412.00
20.922 4592.00
20.9872 2978.00
21.0524 1952.00
21.1176 1669.00
21.1828 1543.00
21.248 1629.00
21.3132 1820.00
21.3784 1971.00
21.4436 2349.00
21.5088 2851.00
21.574 3470.00
21.6392 4521.00
21.7044 5723.00
21.7696 6345.00
21.8348 6327.00
21.9 6558.00
21.9652 6884.00
22.0304 6202.00
22.0956 4251.00
22.1608 2501.00
22.226 1801.00
22.2912 1491.00
22.3564 1474.00
22.4216 1393.00
22.4868 1269.00
22.552 1229.00
22.6172 1337.00
22.6824 1275.00
22.7476 1227.00
22.8128 1208.00
22.878 1248.00
22.9432 1239.00
23.0084 1283.00
23.0736 1269.00
23.1388 1247.00
23.204 1278.00
23.2692 1225.00
23.3344 1249.00
23.3996 1289.00
23.4647 1301.00
23.5299 1303.00
23.5951 1367.00
23.6603 1350.00
23.7255 1292.00
23.7907 1272.00
23.8559 1289.00
23.9211 1382.00
23.9863 1389.00
24.0515 1463.00
24.1167 1563.00
24.1819 1642.00
24.2471 1767.00
24.3123 1809.00
24.3775 1782.00
24.4427 1628.00
24.5079 1550.00
24.5731 1495.00
24.6383 1386.00
24.7035 1440.00
24.7687 1615.00
24.8339 2005.00
24.8991 2623.00
24.9643 3708.00
25.0295 5035.00
25.0947 5786.00
25.1599 6655.00
25.2251 7657.00
25.2903 8072.00
25.3555 6634.00
25.4207 4126.00
25.4859 2658.00
25.5511 2128.00
25.6163 2441.00
25.6815 3019.00
25.7467 4029.00
25.8119 5304.00
25.8771 6192.00
25.9423 6908.00
26.0075 7899.00
26.0727 8692.00
26.1379 7323.00
26.2031 4740.00
26.2683 2963.00
26.3335 2085.00
26.3987 1877.00
26.4639 1770.00
26.5291 1703.00
26.5943 1747.00
26.6595 1729.00
26.7247 1715.00
26.7899 1548.00
26.8551 1491.00
26.9203 1258.00
26.9855 1258.00
27.0507 1192.00
27.1159 1166.00
27.1811 1165.00
27.2463 1170.00
27.3115 1100.00
27.3767 1100.00
27.4419 1132.00
27.5071 1088.00
27.5723 1084.00
27.6375 1054.00
27.7027 1038.00
27.7679 1109.00
27.8331 1015.00
27.8983 1028.00
27.9635 1094.00
28.0287 1106.00
28.0939 1142.00
28.1591 1148.00
28.2243 1165.00
28.2894 1198.00
28.3546 1207.00
28.4198 1187.00
28.485 1190.00
28.5502 1110.00
28.6154 1153.00
28.6806 1152.00
28.7458 1098.00
28.811 1096.00
28.8762 1031.00
28.9414 1028.00
29.0066 991.00
29.0718 1022.00
29.137 1029.00
29.2022 1006.00
29.2674 1057.00
29.3326 1068.00
29.3978 1075.00
29.463 1129.00
29.5282 1057.00
29.5934 1095.00
29.6586 1130.00
29.7238 1100.00
29.789 1110.00
29.8542 1144.00
29.9194 1230.00
29.9846 1384.00
30.0498 1769.00
30.115 2363.00
30.1802 2934.00
30.2454 3654.00
30.3106 4198.00
30.3758 4952.00
30.441 5132.00
30.5062 4514.00
30.5714 3297.00
30.6366 2255.00
30.7018 1704.00
30.767 1705.00
30.8322 1624.00
30.8974 1513.00
30.9626 1497.00
31.0278 1354.00
31.093 1286.00
31.1582 1151.00
31.2234 1202.00
31.2886 1221.00
31.3538 1169.00
31.419 1169.00
31.4842 1245.00
31.5494 1191.00
31.6146 1179.00
31.6798 1083.00
31.745 1039.00
31.8102 960.00
31.8754 948.00
31.9406 953.00
32.0058 954.00
32.071 957.00
32.1362 983.00
32.2014 904.00
32.2666 970.00
32.3318 965.00
32.397 951.00
32.4622 1064.00
32.5274 958.00
32.5926 1041.00
32.6578 1063.00
32.723 1063.00
32.7882 1183.00
32.8534 1334.00
32.9186 1491.00
32.9838 2015.00
33.0489 2757.00
33.1141 3840.00
33.1793 4766.00
33.2445 5966.00
33.3097 7246.00
33.3749 7755.00
33.4401 6605.00
33.5053 4601.00
33.5705 2718.00
33.6357 1889.00
33.7009 1623.00
33.7661 1476.00
33.8313 1569.00
33.8965 1724.00
33.9617 1893.00
34.0269 2085.00
34.0921 2175.00
34.1573 1726.00
34.2225 1475.00
34.2877 1148.00
34.3529 1042.00
34.4181 1009.00
34.4833 912.00
34.5485 983.00
34.6137 1037.00
34.6789 992.00
34.7441 1021.00
34.8093 1008.00
34.8745 982.00
34.9397 951.00
35.0049 896.00
35.0701 899.00
35.1353 906.00
35.2005 943.00
35.2657 954.00
35.3309 1027.00
35.3961 1026.00
35.4613 1062.00
35.5265 1096.00
35.5917 1135.00
35.6569 1261.00
35.7221 1350.00
35.7873 1467.00
35.8525 1564.00
35.9177 1678.00
35.9829 1785.00
36.0481 2006.00
36.1133 2081.00
36.1785 1956.00
36.2437 1638.00
36.3089 1676.00
36.3741 1616.00
36.4393 1502.00
36.5045 1396.00
36.5697 1238.00
36.6349 1179.00
36.7001 1084.00
36.7653 1008.00
36.8305 979.00
36.8957 910.00
36.9609 924.00
37.0261 890.00
37.0913 835.00
37.1565 898.00
37.2217 927.00
37.2869 948.00
37.3521 934.00
37.4173 1022.00
37.4825 1199.00
37.5477 1319.00
37.6129 1470.00
37.6781 1749.00
37.7433 1916.00
37.8085 2021.00
37.8736 2210.00
37.9388 2234.00
38.004 2217.00
38.0692 2634.00
38.1344 3087.00
38.1996 3502.00
38.2648 3676.00
38.33 3548.00
38.3952 3320.00
38.4604 3365.00
38.5256 3079.00
38.5908 2506.00
38.656 1848.00
38.7212 1389.00
38.7864 1117.00
38.8516 1015.00
38.9168 1020.00
38.982 1053.00
39.0472 1004.00
39.1124 930.00
39.1776 938.00
39.2428 1108.00
39.308 1204.00
39.3732 1370.00
39.4384 1603.00
39.5036 1783.00
39.5688 1909.00
39.634 1775.00
39.6992 1488.00
39.7644 1206.00
39.8296 1075.00
39.8948 913.00
39.96 901.00
40.0252 865.00
40.0904 925.00
40.1556 910.00
40.2208 878.00
40.286 948.00
40.3512 1122.00
40.4164 1172.00
40.4816 1292.00
40.5468 1273.00
40.612 1289.00
40.6772 1173.00
40.7424 1052.00
40.8076 978.00
40.8728 890.00
40.938 874.00
41.0032 800.00
41.0684 806.00
41.1336 807.00
41.1988 786.00
41.264 884.00
41.3292 878.00
41.3944 901.00
41.4596 959.00
41.5248 1045.00
41.59 1215.00
41.6552 1510.00
41.7204 1732.00
41.7856 2022.00
41.8508 2203.00
41.916 2150.00
41.9812 1940.00
42.0464 1615.00
42.1116 1324.00
42.1768 1311.00
42.242 1323.00
42.3072 1266.00
42.3724 1133.00
42.4376 1100.00
42.5028 985.00
42.568 881.00
42.6332 866.00
42.6983 752.00
42.7635 795.00
42.8287 763.00
42.8939 784.00
42.9591 763.00
43.0243 786.00
43.0895 755.00
43.1547 814.00
43.2199 798.00
43.2851 770.00
43.3503 785.00
43.4155 791.00
43.4807 814.00
43.5459 867.00
43.6111 818.00
43.6763 913.00
43.7415 1058.00
43.8067 1229.00
43.8719 1373.00
43.9371 1420.00
44.0023 1363.00
44.0675 1166.00
44.1327 1132.00
44.1979 932.00
44.2631 917.00
44.3283 879.00
44.3935 866.00
44.4587 924.00
44.5239 953.00
44.5891 1003.00
44.6543 1107.00
44.7195 1054.00
44.7847 1095.00
44.8499 1081.00
44.9151 1107.00
44.9803 1085.00
45.0455 1136.00
45.1107 1117.00
45.1759 951.00
45.2411 918.00
45.3063 833.00
45.3715 890.00
45.4367 839.00
45.5019 787.00
45.5671 809.00
45.6323 813.00
45.6975 817.00
45.7627 889.00
45.8279 824.00
45.8931 860.00
45.9583 869.00
46.0235 947.00
46.0887 1198.00
46.1539 1279.00
46.2191 1463.00
46.2843 1561.00
46.3495 1586.00
46.4147 1493.00
46.4799 1262.00
46.5451 1116.00
46.6103 1021.00
46.6755 974.00
46.7407 850.00
46.8059 806.00
46.8711 808.00
46.9363 813.00
47.0015 866.00
47.0667 857.00
47.1319 797.00
47.1971 850.00
47.2623 879.00
47.3275 964.00
47.3927 971.00
47.4579 928.00
47.523 926.00
47.5882 870.00
47.6534 941.00
47.7186 929.00
47.7838 1041.00
47.849 1249.00
47.9142 1451.00
47.9794 1812.00
48.0446 2105.00
48.1098 2291.00
48.175 2217.00
48.2402 2132.00
48.3054 1907.00
48.3706 1642.00
48.4358 1637.00
48.501 1714.00
48.5662 1826.00
48.6314 1830.00
48.6966 1858.00
48.7618 2011.00
48.827 1886.00
48.8922 1716.00
48.9574 1481.00
49.0226 1196.00
49.0878 994.00
49.153 954.00
49.2182 1000.00
49.2834 1060.00
49.3486 1185.00
49.4138 1328.00
49.479 1626.00
49.5442 1845.00
49.6094 2144.00
49.6746 2266.00
49.7398 2327.00
49.805 2100.00
49.8702 1842.00
49.9354 1517.00
50.0006 1300.00
50.0658 1117.00
50.131 975.00
50.1962 909.00
50.2614 940.00
50.3266 876.00
50.3918 848.00
50.457 828.00
50.5222 852.00
50.5874 869.00
50.6526 891.00
50.7178 963.00
50.783 992.00
50.8482 1011.00
50.9134 976.00
50.9786 1014.00
51.0438 940.00
51.109 958.00
51.1742 808.00
51.2394 914.00
51.3046 959.00
51.3698 1096.00
51.435 1286.00
51.5002 1487.00
51.5654 1807.00
51.6306 2299.00
51.6958 2573.00
51.761 2704.00
51.8262 2798.00
51.8914 2346.00
51.9566 1877.00
52.0218 1529.00
52.087 1140.00
52.1522 998.00
52.2174 930.00
52.2826 840.00
52.3477 777.00
52.4129 758.00
52.4781 804.00
52.5433 911.00
52.6085 922.00
52.6737 928.00
52.7389 986.00
52.8041 1006.00
52.8693 1041.00
52.9345 1041.00
52.9997 1059.00
53.0649 990.00
53.1301 952.00
53.1953 1094.00
53.2605 1158.00
53.3257 1230.00
53.3909 1268.00
53.4561 1288.00
53.5213 1236.00
53.5865 1149.00
53.6517 1043.00
53.7169 911.00
53.7821 781.00
53.8473 766.00
53.9125 770.00
53.9777 798.00
54.0429 787.00
54.1081 726.00
54.1733 808.00
54.2385 793.00
54.3037 856.00
54.3689 887.00
54.4341 875.00
54.4993 1089.00
54.5645 1276.00
54.6297 1399.00
54.6949 1814.00
54.7601 2072.00
54.8253 2212.00
54.8905 2360.00
54.9557 2168.00
55.0209 1844.00
55.0861 1498.00
55.1513 1237.00
55.2165 1040.00
55.2817 925.00
55.3469 888.00
55.4121 861.00
55.4773 927.00
55.5425 868.00
55.6077 951.00
55.6729 1046.00
55.7381 1075.00
55.8033 1103.00
55.8685 1174.00
55.9337 1173.00
55.9989 1069.00
56.0641 992.00
56.1293 927.00
56.1945 894.00
56.2597 882.00
56.3249 832.00
56.3901 902.00
56.4553 831.00
56.5205 783.00
56.5857 759.00
56.6509 709.00
56.7161 778.00
56.7813 757.00
56.8465 780.00
56.9117 780.00
56.9769 724.00
57.042 770.00
57.1073 790.00
57.1724 766.00
57.2376 807.00
57.3028 790.00
57.368 819.00
57.4332 811.00
57.4984 799.00
57.5636 776.00
57.6288 710.00
57.694 725.00
57.7592 694.00
57.8244 791.00
57.8896 832.00
57.9548 795.00
58.02 872.00
58.0852 964.00
58.1504 1155.00
58.2156 1355.00
58.2808 1539.00
58.346 1709.00
58.4112 1835.00
58.4764 1932.00
58.5416 1931.00
58.6068 1869.00
58.672 1826.00
58.7372 1936.00
58.8024 2019.00
58.8676 2054.00
58.9328 2093.00
58.998 1953.00
59.0632 1574.00
59.1284 1355.00
59.1936 1171.00
59.2588 1047.00
59.324 894.00
59.3892 918.00
59.4544 915.00
59.5196 1003.00
59.5848 1138.00
59.65 1247.00
59.7152 1424.00
59.7804 1582.00
59.8456 1735.00
59.9108 1782.00
59.976 1705.00
60.0412 1743.00
60.1064 1778.00
60.1716 1844.00
60.2368 2094.00
60.302 2147.00
60.3672 2102.00
60.4324 1976.00
60.4976 1840.00
60.5628 1574.00
60.628 1346.00
60.6932 1103.00
60.7584 951.00
60.8236 828.00
60.8888 817.00
60.954 756.00
61.0192 749.00
61.0844 840.00
61.1496 901.00
61.2148 922.00
61.28 990.00
61.3452 985.00
61.4104 1101.00
61.4756 1134.00
61.5408 1193.00
61.606 1296.00
61.6712 1363.00
61.7364 1452.00
61.8016 1467.00
61.8667 1469.00
61.932 1340.00
61.9971 1183.00
62.0623 1070.00
62.1275 935.00
62.1927 812.00
62.2579 832.00
62.3231 751.00
62.3883 754.00
62.4535 729.00
62.5187 781.00
62.5839 703.00
62.6491 675.00
62.7143 774.00
62.7795 734.00
62.8447 773.00
62.9099 860.00
62.9751 899.00
63.0403 931.00
63.1055 1052.00
63.1707 1068.00
63.2359 1086.00
63.3011 980.00
63.3663 1000.00
63.4315 859.00
63.4967 809.00
63.5619 747.00
63.6271 748.00
63.6923 704.00
63.7575 722.00
63.8227 744.00
63.8879 828.00
63.9531 834.00
64.0183 853.00
64.0835 984.00
64.1487 1192.00
64.2139 1311.00
64.2791 1528.00
64.3443 1573.00
64.4095 1778.00
64.4747 1734.00
64.5399 1685.00
64.6051 1560.00
64.6703 1259.00
64.7355 1207.00
64.8007 998.00
64.8659 984.00
64.9311 938.00
64.9963 840.00
65.0615 886.00
65.1267 878.00
65.1919 907.00
65.2571 1018.00
65.3223 1050.00
65.3875 1140.00
65.4527 1198.00
65.5179 1142.00
65.5831 1272.00
65.6483 1274.00
65.7135 1524.00
65.7787 1600.00
65.8439 2029.00
65.9091 2284.00
65.9743 2584.00
66.0395 2891.00
66.1047 3095.00
66.1699 3284.00
66.2351 3133.00
66.3003 3040.00
66.3655 2860.00
66.4307 2333.00
66.4959 1999.00
66.561 1591.00
66.6263 1433.00
66.6915 1093.00
66.7566 1134.00
66.8218 1076.00
66.887 1117.00
66.9522 1267.00
67.0174 1324.00
67.0826 1383.00
67.1478 1382.00
67.213 1248.00
67.2782 1189.00
67.3434 991.00
67.4086 972.00
67.4738 942.00
67.539 881.00
67.6042 935.00
67.6694 959.00
67.7346 900.00
67.7998 871.00
67.865 854.00
67.9302 876.00
67.9954 818.00
68.0606 804.00
68.1258 778.00
68.191 760.00
68.2562 776.00
68.3214 821.00
68.3866 764.00
68.4518 820.00
68.517 851.00
68.5822 930.00
68.6474 945.00
68.7126 1094.00
68.7778 1120.00
68.843 1295.00
68.9082 1327.00
68.9734 1374.00
69.0386 1419.00
69.1038 1465.00
69.169 1515.00
69.2342 1535.00
69.2994 1479.00
69.3646 1500.00
69.4298 1527.00
69.495 1432.00
69.5602 1365.00
69.6254 1214.00
69.6906 1119.00
69.7558 1050.00
69.821 931.00
69.8862 907.00
69.9514 864.00
70.0166 920.00
70.0818 1027.00
70.147 1059.00
70.2122 1124.00
70.2774 1222.00
70.3426 1202.00
70.4078 1230.00
70.473 1267.00
70.5382 1249.00
70.6034 1305.00
70.6686 1317.00
70.7338 1375.00
70.799 1233.00
70.8642 1277.00
70.9294 1129.00
70.9946 989.00
71.0598 1005.00
71.125 900.00
71.1902 809.00
71.2554 773.00
71.3205 701.00
71.3858 734.00
71.451 654.00
71.5162 683.00
71.5813 665.00
71.6465 648.00
71.7117 692.00
71.7769 672.00
71.8421 600.00
71.9073 609.00
71.9725 656.00
72.0377 673.00
72.1029 668.00
72.1681 621.00
72.2333 621.00
72.2985 626.00
72.3637 648.00
72.4289 639.00
72.4941 667.00
72.5593 662.00
72.6245 666.00
72.6897 665.00
72.7549 700.00
72.8201 732.00
72.8853 740.00
72.9505 777.00
73.0157 809.00
73.0809 881.00
73.1461 981.00
73.2113 1028.00
73.2765 1040.00
73.3417 1100.00
73.4069 1092.00
73.4721 1066.00
73.5373 1118.00
73.6025 987.00
73.6677 1046.00
73.7329 979.00
73.7981 982.00
73.8633 1053.00
73.9285 967.00
73.9937 1004.00
74.0589 871.00
74.1241 857.00
74.1893 791.00
74.2545 792.00
74.3197 739.00
74.3849 679.00
74.4501 697.00
74.5153 731.00
74.5805 746.00
74.6457 715.00
74.7109 740.00
74.7761 771.00
74.8413 794.00
74.9065 819.00
74.9717 775.00
75.0369 838.00
75.1021 809.00
75.1673 830.00
75.2325 843.00
75.2977 833.00
75.3629 858.00
75.4281 804.00
75.4933 851.00
75.5585 789.00
75.6237 721.00
75.6889 687.00
75.7541 769.00
75.8193 724.00
75.8845 707.00
75.9497 713.00
76.0149 750.00
76.0801 782.00
76.1452 759.00
76.2104 743.00
76.2756 720.00
76.3409 746.00
76.406 733.00
76.4712 722.00
76.5364 754.00
76.6016 725.00
76.6668 724.00
76.732 675.00
76.7972 700.00
76.8624 746.00
76.9276 704.00
76.9928 700.00
77.058 761.00
77.1232 775.00
77.1884 886.00
77.2536 937.00
77.3188 1047.00
77.384 1145.00
77.4492 1172.00
77.5144 1245.00
77.5796 1302.00
77.6448 1315.00
77.71 1309.00
77.7752 1270.00
77.8404 1222.00
77.9056 1164.00
77.9708 1137.00
78.036 1032.00
78.1012 948.00
78.1664 924.00
78.2316 796.00
78.2968 817.00
78.362 811.00
78.4272 854.00
78.4924 832.00
78.5576 787.00
78.6228 790.00
78.688 831.00
78.7532 839.00
78.8184 837.00
78.8836 788.00
78.9488 860.00
79.014 941.00
79.0792 952.00
79.1444 986.00
79.2096 999.00
79.2748 1036.00
79.34 1025.00
79.4052 1007.00
79.4704 973.00
79.5356 878.00
79.6008 874.00
79.666 933.00
79.7312 947.00
79.7964 963.00
79.8616 899.00
79.9268 988.00
79.992 1032.00
80.0572 1041.00
80.1224 1119.00
80.1876 985.00
80.2528 972.00
80.318 879.00
80.3832 830.00
80.4484 841.00
80.5136 739.00
80.5788 709.00
80.644 697.00
80.7092 658.00
80.7744 675.00
80.8396 668.00
80.9048 636.00
80.9699 591.00
81.0351 601.00
81.1003 602.00
81.1655 605.00
81.2307 595.00
81.2959 604.00
81.3611 630.00
81.4263 627.00
81.4915 630.00
81.5567 669.00
81.6219 644.00
81.6871 707.00
81.7523 641.00
81.8175 658.00
81.8827 692.00
81.9479 783.00
82.0131 838.00
82.0783 796.00
82.1435 951.00
82.2087 992.00
82.2739 962.00
82.3391 948.00
82.4043 979.00
82.4695 942.00
82.5347 929.00
82.5999 872.00
82.6651 865.00
82.7303 792.00
82.7955 787.00
82.8607 785.00
82.9259 691.00
82.9911 655.00
83.0563 627.00
83.1215 680.00
83.1867 693.00
83.2519 632.00
83.3171 629.00
83.3823 672.00
83.4475 686.00
83.5127 710.00
83.5779 725.00
83.6431 680.00
83.7083 700.00
83.7735 691.00
83.8387 702.00
83.9039 708.00
83.9691 728.00
84.0343 719.00
84.0995 757.00
84.1647 718.00
84.2299 741.00
84.2951 742.00
84.3603 733.00
84.4255 807.00
84.4907 762.00
84.5559 779.00
84.6211 766.00
84.6863 795.00
84.7515 729.00
84.8167 715.00
84.8819 708.00
84.9471 783.00
85.0123 720.00
85.0775 714.00
85.1427 707.00
85.2079 724.00
85.2731 720.00
85.3383 676.00
85.4035 673.00
85.4687 673.00
85.5339 669.00
85.5991 653.00
85.6643 678.00
85.7295 688.00
85.7946 690.00
85.8598 721.00
85.925 759.00
85.9903 780.00
86.0554 807.00
86.1206 756.00
86.1858 800.00
86.251 805.00
86.3162 793.00
86.3814 801.00
86.4466 785.00
86.5118 755.00
86.577 803.00
86.6422 841.00
86.7074 703.00
86.7726 715.00
86.8378 707.00
86.903 678.00
86.9682 652.00
87.0334 712.00
87.0986 718.00
87.1638 792.00
87.229 811.00
87.2942 829.00
87.3594 890.00
87.4246 935.00
87.4898 926.00
87.555 1013.00
87.6202 980.00
87.6854 983.00
87.7506 929.00
87.8158 895.00
87.881 857.00
87.9462 784.00
88.0114 810.00
88.0766 765.00
88.1418 697.00
88.207 697.00
88.2722 683.00
88.3374 686.00
88.4026 653.00
88.4678 675.00
88.533 732.00
88.5982 705.00
88.6634 730.00
88.7286 754.00
88.7938 704.00
88.859 748.00
88.9242 740.00
88.9894 736.00
89.0546 733.00
89.1198 681.00
89.185 650.00
89.2502 658.00
89.3154 670.00
89.3806 647.00
89.4458 640.00
89.511 620.00
89.5762 626.00
89.6414 692.00
89.7066 643.00
89.7718 745.00
89.837 693.00
89.9022 773.00
89.9674 766.00
90.0326 761.00
90.0978 723.00
90.163 721.00
90.2282 678.00
90.2934 698.00
90.3586 646.00
90.4238 691.00
90.489 621.00
90.5542 643.00
90.6193 609.00
90.6845 633.00
90.7497 629.00
90.8149 625.00
90.8801 632.00
90.9453 629.00
91.0105 650.00
91.0757 688.00
91.1409 673.00
91.2061 736.00
91.2713 744.00
91.3365 766.00
91.4017 768.00
91.4669 819.00
91.5321 901.00
91.5973 907.00
91.6625 879.00
91.7277 867.00
91.7929 861.00
91.8581 891.00
91.9233 841.00
91.9885 870.00
92.0537 834.00
92.1189 842.00
92.1841 928.00
92.2493 927.00
92.3145 1016.00
92.3797 1060.00
92.4449 1070.00
92.5101 1147.00
92.5753 1108.00
92.6405 1095.00
92.7057 1147.00
92.7709 1153.00
92.8361 1176.00
92.9013 1115.00
92.9665 1170.00
93.0317 1080.00
93.0969 1089.00
93.1621 1074.00
93.2273 979.00
93.2925 952.00
93.3577 873.00
93.4229 847.00
93.4881 818.00
93.5533 810.00
93.6185 711.00
93.6837 724.00
93.7489 759.00
93.8141 606.00
93.8793 653.00
93.9445 679.00
94.0097 718.00
94.0749 677.00
94.1401 644.00
94.2053 661.00
94.2705 648.00
94.3357 707.00
94.4009 643.00
94.4661 632.00
94.5313 661.00
94.5965 618.00
94.6617 658.00
94.7269 690.00
94.7921 687.00
94.8573 664.00
94.9225 649.00
94.9877 667.00
95.0529 565.00
95.1181 606.00
95.1833 657.00
95.2485 614.00
95.3137 665.00
95.3789 645.00
95.444 689.00
95.5092 727.00
95.5744 694.00
95.6396 718.00
95.7048 771.00
95.77 762.00
95.8352 755.00
95.9004 821.00
95.9656 807.00
96.0308 831.00
96.096 768.00
96.1612 709.00
96.2264 752.00
96.2916 734.00
96.3568 785.00
96.422 788.00
96.4872 709.00
96.5524 703.00
96.6176 715.00
96.6828 731.00
96.748 647.00
96.8132 657.00
96.8784 723.00
96.9436 709.00
97.0088 724.00
97.074 654.00
97.1392 722.00
97.2044 697.00
97.2696 759.00
97.3348 710.00
97.4 749.00
97.4652 636.00
97.5304 625.00
97.5956 619.00
97.6608 696.00
97.726 633.00
97.7912 686.00
97.8564 700.00
97.9216 673.00
97.9868 700.00
98.052 726.00
98.1172 825.00
98.1824 844.00
98.2476 781.00
98.3128 903.00
98.378 863.00
98.4432 853.00
98.5084 827.00
98.5736 874.00
98.6388 828.00
98.704 778.00
98.7692 817.00
98.8344 845.00
98.8996 777.00
98.9648 803.00
99.03 871.00
99.0952 787.00
99.1604 797.00
99.2256 862.00
99.2908 851.00
99.356 903.00
99.4212 954.00
99.4864 932.00
99.5516 877.00
99.6168 969.00
99.682 937.00
99.7472 926.00
99.8124 937.00
99.8776 884.00
99.9428 950.00
100.008 903.00
100.073 804.00
100.095 868.00