File: data/xrd_creation/results/NSC_20.xy
9.903433 2945.00
9.968632 2873.00
10.0338 2844.00
10.099 2890.00
10.1642 2949.00
10.2294 2737.00
10.2946 2851.00
10.3598 2765.00
10.425 2744.00
10.4902 2843.00
10.5554 2750.00
10.6206 2698.00
10.6858 2895.00
10.751 2652.00
10.8162 2597.00
10.8814 2683.00
10.9466 2627.00
11.0118 2572.00
11.077 2603.00
11.1422 2567.00
11.2074 2616.00
11.2726 2428.00
11.3378 2540.00
11.403 2504.00
11.4682 2625.00
11.5334 2515.00
11.5986 2480.00
11.6638 2485.00
11.729 2541.00
11.7942 2399.00
11.8594 2406.00
11.9246 2370.00
11.9898 2315.00
12.055 2353.00
12.1202 2344.00
12.1854 2279.00
12.2506 2227.00
12.3158 2414.00
12.381 2258.00
12.4462 2241.00
12.5114 2257.00
12.5766 2258.00
12.6418 2264.00
12.707 2197.00
12.7722 2180.00
12.8374 2258.00
12.9026 2220.00
12.9678 2257.00
13.033 2241.00
13.0982 2110.00
13.1634 2102.00
13.2286 2227.00
13.2938 2153.00
13.359 2154.00
13.4242 2164.00
13.4894 2282.00
13.5546 2177.00
13.6198 2260.00
13.685 2414.00
13.7502 2478.00
13.8154 2806.00
13.8805 3202.00
13.9457 3697.00
14.0109 3727.00
14.0761 3383.00
14.1413 2764.00
14.2065 2358.00
14.2717 2202.00
14.3369 2160.00
14.4021 2088.00
14.4673 1973.00
14.5325 1990.00
14.5977 1950.00
14.6629 2056.00
14.7281 2096.00
14.7933 2152.00
14.8585 2095.00
14.9237 2182.00
14.9889 2101.00
15.0541 1988.00
15.1193 2022.00
15.1845 1910.00
15.2497 1996.00
15.3149 1898.00
15.3801 2001.00
15.4453 1916.00
15.5105 1975.00
15.5757 1901.00
15.6409 1942.00
15.7061 1931.00
15.7713 1917.00
15.8365 1964.00
15.9017 1965.00
15.9669 1958.00
16.0321 1915.00
16.0973 1960.00
16.1625 1995.00
16.2277 1850.00
16.2929 1830.00
16.3581 1960.00
16.4233 1877.00
16.4885 1873.00
16.5537 1935.00
16.6189 1816.00
16.6841 1856.00
16.7493 1846.00
16.8145 1914.00
16.8797 1904.00
16.9449 1833.00
17.0101 1903.00
17.0753 1842.00
17.1405 1920.00
17.2057 1863.00
17.2709 1852.00
17.3361 1838.00
17.4013 1855.00
17.4665 1731.00
17.5317 1825.00
17.5969 1884.00
17.6621 1806.00
17.7273 1715.00
17.7925 1771.00
17.8577 1819.00
17.9229 1787.00
17.9881 1753.00
18.0533 1705.00
18.1185 1871.00
18.1837 1788.00
18.2489 1815.00
18.3141 1792.00
18.3793 1773.00
18.4445 1711.00
18.5097 1755.00
18.5749 1744.00
18.6401 1806.00
18.7052 1806.00
18.7704 1815.00
18.8356 1840.00
18.9008 1827.00
18.966 1934.00
19.0312 1975.00
19.0964 2209.00
19.1616 2405.00
19.2268 2900.00
19.292 4135.00
19.3572 5788.00
19.4224 7549.00
19.4876 7695.00
19.5528 6448.00
19.618 4606.00
19.6832 3136.00
19.7484 2490.00
19.8136 2267.00
19.8788 2378.00
19.944 2986.00
20.0092 3959.00
20.0744 5976.00
20.1396 8087.00
20.2048 9376.00
20.27 8749.00
20.3352 6541.00
20.4004 4377.00
20.4656 3068.00
20.5308 2605.00
20.596 2344.00
20.6612 2186.00
20.7264 1968.00
20.7916 1881.00
20.8568 1822.00
20.922 1655.00
20.9872 1727.00
21.0524 1721.00
21.1176 1782.00
21.1828 1724.00
21.248 1636.00
21.3132 1664.00
21.3784 1703.00
21.4436 1840.00
21.5088 1886.00
21.574 2014.00
21.6392 2073.00
21.7044 2025.00
21.7696 1974.00
21.8348 1864.00
21.9 1673.00
21.9652 1671.00
22.0304 1624.00
22.0956 1519.00
22.1608 1566.00
22.226 1580.00
22.2912 1551.00
22.3564 1536.00
22.4216 1618.00
22.4868 1488.00
22.552 1612.00
22.6172 1644.00
22.6824 1663.00
22.7476 1577.00
22.8128 1685.00
22.878 1698.00
22.9432 1721.00
23.0084 2003.00
23.0736 2158.00
23.1388 2818.00
23.204 4312.00
23.2692 6181.00
23.3344 8633.00
23.3996 9833.00
23.4647 8694.00
23.5299 6417.00
23.5951 4219.00
23.6603 2810.00
23.7255 2146.00
23.7907 1895.00
23.8559 1779.00
23.9211 1712.00
23.9863 1756.00
24.0515 1674.00
24.1167 1664.00
24.1819 1624.00
24.2471 1521.00
24.3123 1462.00
24.3775 1592.00
24.4427 1621.00
24.5079 1579.00
24.5731 1531.00
24.6383 1624.00
24.7035 1661.00
24.7687 1681.00
24.8339 1819.00
24.8991 1982.00
24.9643 1997.00
25.0295 1953.00
25.0947 1771.00
25.1599 1664.00
25.2251 1554.00
25.2903 1610.00
25.3555 1538.00
25.4207 1441.00
25.4859 1470.00
25.5511 1452.00
25.6163 1425.00
25.6815 1468.00
25.7467 1400.00
25.8119 1450.00
25.8771 1427.00
25.9423 1452.00
26.0075 1398.00
26.0727 1391.00
26.1379 1336.00
26.2031 1389.00
26.2683 1455.00
26.3335 1421.00
26.3987 1431.00
26.4639 1502.00
26.5291 1434.00
26.5943 1383.00
26.6595 1454.00
26.7247 1397.00
26.7899 1390.00
26.8551 1349.00
26.9203 1391.00
26.9855 1376.00
27.0507 1474.00
27.1159 1368.00
27.1811 1408.00
27.2463 1386.00
27.3115 1405.00
27.3767 1412.00
27.4419 1386.00
27.5071 1391.00
27.5723 1414.00
27.6375 1397.00
27.7027 1440.00
27.7679 1556.00
27.8331 1701.00
27.8983 1794.00
27.9635 2252.00
28.0287 3011.00
28.0939 4496.00
28.1591 5836.00
28.2243 6247.00
28.2894 5710.00
28.3546 4373.00
28.4198 3167.00
28.485 2320.00
28.5502 1748.00
28.6154 1532.00
28.6806 1433.00
28.7458 1388.00
28.811 1380.00
28.8762 1362.00
28.9414 1451.00
29.0066 1358.00
29.0718 1362.00
29.137 1366.00
29.2022 1396.00
29.2674 1332.00
29.3326 1281.00
29.3978 1299.00
29.463 1276.00
29.5282 1354.00
29.5934 1292.00
29.6586 1375.00
29.7238 1283.00
29.789 1311.00
29.8542 1350.00
29.9194 1405.00
29.9846 1423.00
30.0498 1558.00
30.115 1491.00
30.1802 1623.00
30.2454 1561.00
30.3106 1463.00
30.3758 1469.00
30.441 1422.00
30.5062 1345.00
30.5714 1476.00
30.6366 1500.00
30.7018 1649.00
30.767 1717.00
30.8322 2085.00
30.8974 2665.00
30.9626 3937.00
31.0278 5939.00
31.093 7740.00
31.1582 9023.00
31.2234 8554.00
31.2886 7245.00
31.3538 5503.00
31.419 4188.00
31.4842 3069.00
31.5494 2516.00
31.6146 1996.00
31.6798 1657.00
31.745 1478.00
31.8102 1369.00
31.8754 1318.00
31.9406 1325.00
32.0058 1264.00
32.071 1302.00
32.1362 1272.00
32.2014 1327.00
32.2666 1218.00
32.3318 1283.00
32.397 1243.00
32.4622 1166.00
32.5274 1193.00
32.5926 1231.00
32.6578 1241.00
32.723 1262.00
32.7882 1279.00
32.8534 1358.00
32.9186 1370.00
32.9838 1621.00
33.0489 1691.00
33.1141 1690.00
33.1793 1634.00
33.2445 1490.00
33.3097 1341.00
33.3749 1334.00
33.4401 1357.00
33.5053 1421.00
33.5705 1420.00
33.6357 1443.00
33.7009 1468.00
33.7661 1459.00
33.8313 1352.00
33.8965 1275.00
33.9617 1312.00
34.0269 1229.00
34.0921 1283.00
34.1573 1234.00
34.2225 1297.00
34.2877 1159.00
34.3529 1278.00
34.4181 1222.00
34.4833 1272.00
34.5485 1300.00
34.6137 1307.00
34.6789 1414.00
34.7441 1604.00
34.8093 2017.00
34.8745 2521.00
34.9397 2941.00
35.0049 3037.00
35.0701 3015.00
35.1353 2786.00
35.2005 2965.00
35.2657 3419.00
35.3309 3874.00
35.3961 4299.00
35.4613 4102.00
35.5265 3604.00
35.5917 2951.00
35.6569 2432.00
35.7221 1947.00
35.7873 1670.00
35.8525 1475.00
35.9177 1328.00
35.9829 1186.00
36.0481 1227.00
36.1133 1217.00
36.1785 1124.00
36.2437 1186.00
36.3089 1122.00
36.3741 1160.00
36.4393 1122.00
36.5045 1114.00
36.5697 1075.00
36.6349 1070.00
36.7001 1052.00
36.7653 1084.00
36.8305 1178.00
36.8957 1097.00
36.9609 1074.00
37.0261 1076.00
37.0913 1090.00
37.1565 1058.00
37.2217 1090.00
37.2869 1059.00
37.3521 1065.00
37.4173 1180.00
37.4825 1048.00
37.5477 1107.00
37.6129 1114.00
37.6781 1153.00
37.7433 1124.00
37.8085 1102.00
37.8736 1178.00
37.9388 1087.00
38.004 1148.00
38.0692 1180.00
38.1344 1172.00
38.1996 1170.00
38.2648 1133.00
38.33 1115.00
38.3952 1057.00
38.4604 1116.00
38.5256 1039.00
38.5908 1089.00
38.656 1148.00
38.7212 1109.00
38.7864 1024.00
38.8516 1068.00
38.9168 1022.00
38.982 980.00
39.0472 1057.00
39.1124 1016.00
39.1776 1076.00
39.2428 1058.00
39.308 1193.00
39.3732 1218.00
39.4384 1378.00
39.5036 1417.00
39.5688 1489.00
39.634 1491.00
39.6992 1389.00
39.7644 1316.00
39.8296 1203.00
39.8948 1118.00
39.96 1100.00
40.0252 1107.00
40.0904 1076.00
40.1556 1037.00
40.2208 1023.00
40.286 1054.00
40.3512 992.00
40.4164 1075.00
40.4816 958.00
40.5468 1026.00
40.612 1017.00
40.6772 1106.00
40.7424 1184.00
40.8076 1109.00
40.8728 1112.00
40.938 1176.00
41.0032 1329.00
41.0684 1521.00
41.1336 1695.00
41.1988 1781.00
41.264 1654.00
41.3292 1597.00
41.3944 1629.00
41.4596 1449.00
41.5248 1370.00
41.59 1188.00
41.6552 1104.00
41.7204 1215.00
41.7856 1142.00
41.8508 1132.00
41.916 1186.00
41.9812 1222.00
42.0464 1198.00
42.1116 1128.00
42.1768 1130.00
42.242 1081.00
42.3072 1027.00
42.3724 1007.00
42.4376 1068.00
42.5028 1070.00
42.568 1151.00
42.6332 1090.00
42.6983 1263.00
42.7635 1477.00
42.8287 1660.00
42.8939 1910.00
42.9591 2012.00
43.0243 1795.00
43.0895 1694.00
43.1547 1421.00
43.2199 1348.00
43.2851 1218.00
43.3503 1217.00
43.4155 1181.00
43.4807 1136.00
43.5459 1073.00
43.6111 1236.00
43.6763 1134.00
43.7415 1109.00
43.8067 1116.00
43.8719 1104.00
43.9371 1041.00
44.0023 1001.00
44.0675 1051.00
44.1327 1013.00
44.1979 998.00
44.2631 1049.00
44.3283 1060.00
44.3935 1068.00
44.4587 1178.00
44.5239 1215.00
44.5891 1459.00
44.6543 1678.00
44.7195 2128.00
44.7847 2367.00
44.8499 2587.00
44.9151 2442.00
44.9803 2146.00
45.0455 1917.00
45.1107 1615.00
45.1759 1337.00
45.2411 1223.00
45.3063 1186.00
45.3715 1128.00
45.4367 1119.00
45.5019 1077.00
45.5671 1118.00
45.6323 1154.00
45.6975 1380.00
45.7627 1615.00
45.8279 1818.00
45.8931 1874.00
45.9583 1855.00
46.0235 1851.00
46.0887 1624.00
46.1539 1484.00
46.2191 1421.00
46.2843 1425.00
46.3495 1433.00
46.4147 1479.00
46.4799 1537.00
46.5451 1624.00
46.6103 1507.00
46.6755 1354.00
46.7407 1297.00
46.8059 1176.00
46.8711 1111.00
46.9363 1030.00
47.0015 1021.00
47.0667 950.00
47.1319 1014.00
47.1971 1023.00
47.2623 1043.00
47.3275 1025.00
47.3927 1131.00
47.4579 1121.00
47.523 1334.00
47.5882 1410.00
47.6534 1783.00
47.7186 2227.00
47.7838 2677.00
47.849 3158.00
47.9142 3227.00
47.9794 3095.00
48.0446 2789.00
48.1098 2321.00
48.175 1950.00
48.2402 1679.00
48.3054 1489.00
48.3706 1380.00
48.4358 1291.00
48.501 1318.00
48.5662 1285.00
48.6314 1234.00
48.6966 1210.00
48.7618 1181.00
48.827 1109.00
48.8922 1128.00
48.9574 1082.00
49.0226 1043.00
49.0878 1056.00
49.153 1114.00
49.2182 1052.00
49.2834 1083.00
49.3486 1115.00
49.4138 1037.00
49.479 1096.00
49.5442 1069.00
49.6094 981.00
49.6746 988.00
49.7398 937.00
49.805 890.00
49.8702 930.00
49.9354 992.00
50.0006 1002.00
50.0658 986.00
50.131 1035.00
50.1962 1016.00
50.2614 1003.00
50.3266 1017.00
50.3918 1018.00
50.457 997.00
50.5222 1045.00
50.5874 1087.00
50.6526 1134.00
50.7178 1098.00
50.783 1166.00
50.8482 1280.00
50.9134 1316.00
50.9786 1585.00
51.0438 1918.00
51.109 2325.00
51.1742 2631.00
51.2394 2674.00
51.3046 2573.00
51.3698 2351.00
51.435 2127.00
51.5002 1935.00
51.5654 1738.00
51.6306 1578.00
51.6958 1443.00
51.761 1393.00
51.8262 1192.00
51.8914 1103.00
51.9566 1064.00
52.0218 1072.00
52.087 946.00
52.1522 888.00
52.2174 1010.00
52.2826 925.00
52.3477 954.00
52.4129 940.00
52.4781 937.00
52.5433 899.00
52.6085 922.00
52.6737 909.00
52.7389 900.00
52.8041 902.00
52.8693 904.00
52.9345 927.00
52.9997 899.00
53.0649 850.00
53.1301 940.00
53.1953 837.00
53.2605 938.00
53.3257 915.00
53.3909 829.00
53.4561 885.00
53.5213 898.00
53.5865 944.00
53.6517 936.00
53.7169 957.00
53.7821 1010.00
53.8473 1071.00
53.9125 1168.00
53.9777 1283.00
54.0429 1521.00
54.1081 1529.00
54.1733 1590.00
54.2385 1533.00
54.3037 1506.00
54.3689 1342.00
54.4341 1332.00
54.4993 1333.00
54.5645 1207.00
54.6297 1166.00
54.6949 1191.00
54.7601 1183.00
54.8253 1292.00
54.8905 1502.00
54.9557 1723.00
55.0209 1954.00
55.0861 2049.00
55.1513 2377.00
55.2165 2583.00
55.2817 2824.00
55.3469 2975.00
55.4121 2884.00
55.4773 2762.00
55.5425 2396.00
55.6077 2228.00
55.6729 1948.00
55.7381 1712.00
55.8033 1507.00
55.8685 1395.00
55.9337 1230.00
55.9989 1090.00
56.0641 1111.00
56.1293 1041.00
56.1945 1025.00
56.2597 965.00
56.3249 945.00
56.3901 971.00
56.4553 975.00
56.5205 984.00
56.5857 1038.00
56.6509 1001.00
56.7161 1090.00
56.7813 1095.00
56.8465 1045.00
56.9117 1087.00
56.9769 1035.00
57.042 981.00
57.1073 985.00
57.1724 961.00
57.2376 998.00
57.3028 969.00
57.368 974.00
57.4332 929.00
57.4984 955.00
57.5636 979.00
57.6288 972.00
57.694 1081.00
57.7592 1066.00
57.8244 1175.00
57.8896 1154.00
57.9548 1259.00
58.02 1332.00
58.0852 1407.00
58.1504 1388.00
58.2156 1369.00
58.2808 1330.00
58.346 1355.00
58.4112 1293.00
58.4764 1164.00
58.5416 1106.00
58.6068 1061.00
58.672 1058.00
58.7372 972.00
58.8024 1009.00
58.8676 947.00
58.9328 970.00
58.998 919.00
59.0632 919.00
59.1284 961.00
59.1936 933.00
59.2588 924.00
59.324 1019.00
59.3892 980.00
59.4544 1051.00
59.5196 1161.00
59.5848 1295.00
59.65 1507.00
59.7152 1649.00
59.7804 1713.00
59.8456 1870.00
59.9108 1749.00
59.976 1602.00
60.0412 1602.00
60.1064 1444.00
60.1716 1321.00
60.2368 1242.00
60.302 1066.00
60.3672 1040.00
60.4324 989.00
60.4976 1016.00
60.5628 1090.00
60.628 1087.00
60.6932 1161.00
60.7584 1356.00
60.8236 1559.00
60.8888 1769.00
60.954 1853.00
61.0192 1847.00
61.0844 1837.00
61.1496 1674.00
61.2148 1618.00
61.28 1481.00
61.3452 1358.00
61.4104 1266.00
61.4756 1142.00
61.5408 1117.00
61.606 1063.00
61.6712 1037.00
61.7364 1134.00
61.8016 1080.00
61.8667 1130.00
61.932 1196.00
61.9971 1265.00
62.0623 1295.00
62.1275 1353.00
62.1927 1413.00
62.2579 1364.00
62.3231 1350.00
62.3883 1359.00
62.4535 1234.00
62.5187 1227.00
62.5839 1159.00
62.6491 1122.00
62.7143 1116.00
62.7795 1034.00
62.8447 1060.00
62.9099 1054.00
62.9751 1090.00
63.0403 1050.00
63.1055 1158.00
63.1707 1120.00
63.2359 1185.00
63.3011 1327.00
63.3663 1260.00
63.4315 1318.00
63.4967 1456.00
63.5619 1474.00
63.6271 1432.00
63.6923 1444.00
63.7575 1587.00
63.8227 1479.00
63.8879 1471.00
63.9531 1386.00
64.0183 1291.00
64.0835 1125.00
64.1487 1139.00
64.2139 1068.00
64.2791 1033.00
64.3443 1010.00
64.4095 964.00
64.4747 892.00
64.5399 923.00
64.6051 898.00
64.6703 900.00
64.7355 904.00
64.8007 958.00
64.8659 1007.00
64.9311 991.00
64.9963 1023.00
65.0615 1048.00
65.1267 1103.00
65.1919 1034.00
65.2571 1032.00
65.3223 1017.00
65.3875 1034.00
65.4527 1064.00
65.5179 1055.00
65.5831 1022.00
65.6483 1022.00
65.7135 1082.00
65.7787 1079.00
65.8439 1215.00
65.9091 1205.00
65.9743 1397.00
66.0395 1333.00
66.1047 1369.00
66.1699 1327.00
66.2351 1238.00
66.3003 1190.00
66.3655 1148.00
66.4307 1079.00
66.4959 1001.00
66.561 973.00
66.6263 922.00
66.6915 894.00
66.7566 861.00
66.8218 852.00
66.887 886.00
66.9522 937.00
67.0174 939.00
67.0826 1008.00
67.1478 1018.00
67.213 1057.00
67.2782 1128.00
67.3434 1094.00
67.4086 1116.00
67.4738 1147.00
67.539 1101.00
67.6042 1198.00
67.6694 1228.00
67.7346 1188.00
67.7998 1057.00
67.865 1098.00
67.9302 1077.00
67.9954 930.00
68.0606 938.00
68.1258 984.00
68.191 871.00
68.2562 880.00
68.3214 896.00
68.3866 847.00
68.4518 895.00
68.517 898.00
68.5822 930.00
68.6474 926.00
68.7126 982.00
68.7778 1022.00
68.843 1068.00
68.9082 1065.00
68.9734 1015.00
69.0386 949.00
69.1038 1035.00
69.169 928.00
69.2342 852.00
69.2994 881.00
69.3646 882.00
69.4298 807.00
69.495 854.00
69.5602 828.00
69.6254 829.00
69.6906 807.00
69.7558 756.00
69.821 854.00
69.8862 803.00
69.9514 804.00
70.0166 846.00
70.0818 857.00
70.147 797.00
70.2122 818.00
70.2774 854.00
70.3426 834.00
70.4078 868.00
70.473 882.00
70.5382 902.00
70.6034 898.00
70.6686 944.00
70.7338 1054.00
70.799 1097.00
70.8642 1145.00
70.9294 1171.00
70.9946 1248.00
71.0598 1251.00
71.125 1212.00
71.1902 1175.00
71.2554 987.00
71.3205 1072.00
71.3858 960.00
71.451 1031.00
71.5162 949.00
71.5813 863.00
71.6465 815.00
71.7117 894.00
71.7769 799.00
71.8421 800.00
71.9073 783.00
71.9725 855.00
72.0377 832.00
72.1029 886.00
72.1681 847.00
72.2333 756.00
72.2985 837.00
72.3637 863.00
72.4289 810.00
72.4941 829.00
72.5593 775.00
72.6245 808.00
72.6897 832.00
72.7549 784.00
72.8201 784.00
72.8853 782.00
72.9505 785.00
73.0157 784.00
73.0809 832.00
73.1461 811.00
73.2113 794.00
73.2765 821.00
73.3417 882.00
73.4069 947.00
73.4721 1000.00
73.5373 1062.00
73.6025 1042.00
73.6677 1071.00
73.7329 1071.00
73.7981 1042.00
73.8633 1027.00
73.9285 980.00
73.9937 965.00
74.0589 979.00
74.1241 968.00
74.1893 928.00
74.2545 871.00
74.3197 916.00
74.3849 888.00
74.4501 912.00
74.5153 884.00
74.5805 945.00
74.6457 1006.00
74.7109 1012.00
74.7761 1100.00
74.8413 1123.00
74.9065 1155.00
74.9717 1125.00
75.0369 1200.00
75.1021 1255.00
75.1673 1244.00
75.2325 1176.00
75.2977 1123.00
75.3629 1183.00
75.4281 1178.00
75.4933 1074.00
75.5585 1044.00
75.6237 960.00
75.6889 900.00
75.7541 909.00
75.8193 923.00
75.8845 793.00
75.9497 767.00
76.0149 737.00
76.0801 811.00
76.1452 795.00
76.2104 818.00
76.2756 762.00
76.3409 777.00
76.406 730.00
76.4712 788.00
76.5364 794.00
76.6016 802.00
76.6668 821.00
76.732 778.00
76.7972 836.00
76.8624 940.00
76.9276 839.00
76.9928 834.00
77.058 856.00
77.1232 866.00
77.1884 843.00
77.2536 866.00
77.3188 850.00
77.384 814.00
77.4492 823.00
77.5144 803.00
77.5796 792.00
77.6448 868.00
77.71 760.00
77.7752 842.00
77.8404 776.00
77.9056 792.00
77.9708 776.00
78.036 763.00
78.1012 799.00
78.1664 836.00
78.2316 889.00
78.2968 814.00
78.362 912.00
78.4272 1026.00
78.4924 997.00
78.5576 1064.00
78.6228 1107.00
78.688 1147.00
78.7532 1156.00
78.8184 1158.00
78.8836 1105.00
78.9488 1043.00
79.014 1036.00
79.0792 958.00
79.1444 970.00
79.2096 909.00
79.2748 954.00
79.34 870.00
79.4052 876.00
79.4704 862.00
79.5356 821.00
79.6008 801.00
79.666 839.00
79.7312 776.00
79.7964 778.00
79.8616 828.00
79.9268 805.00
79.992 757.00
80.0572 785.00
80.1224 790.00
80.1876 821.00
80.2528 738.00
80.318 765.00
80.3832 800.00
80.4484 837.00
80.5136 863.00
80.5788 902.00
80.644 927.00
80.7092 909.00
80.7744 996.00
80.8396 995.00
80.9048 1001.00
80.9699 1041.00
81.0351 939.00
81.1003 954.00
81.1655 917.00
81.2307 872.00
81.2959 902.00
81.3611 828.00
81.4263 828.00
81.4915 812.00
81.5567 818.00
81.6219 809.00
81.6871 775.00
81.7523 747.00
81.8175 776.00
81.8827 743.00
81.9479 714.00
82.0131 799.00
82.0783 707.00
82.1435 795.00
82.2087 786.00
82.2739 713.00
82.3391 738.00
82.4043 735.00
82.4695 786.00
82.5347 811.00
82.5999 759.00
82.6651 792.00
82.7303 792.00
82.7955 815.00
82.8607 768.00
82.9259 810.00
82.9911 848.00
83.0563 811.00
83.1215 897.00
83.1867 880.00
83.2519 946.00
83.3171 1024.00
83.3823 985.00
83.4475 1014.00
83.5127 1012.00
83.5779 1008.00
83.6431 920.00
83.7083 886.00
83.7735 921.00
83.8387 901.00
83.9039 920.00
83.9691 858.00
84.0343 808.00
84.0995 823.00
84.1647 768.00
84.2299 808.00
84.2951 779.00
84.3603 743.00
84.4255 834.00
84.4907 798.00
84.5559 896.00
84.6211 866.00
84.6863 948.00
84.7515 908.00
84.8167 890.00
84.8819 968.00
84.9471 926.00
85.0123 1018.00
85.0775 934.00
85.1427 878.00
85.2079 933.00
85.2731 924.00
85.3383 900.00
85.4035 894.00
85.4687 881.00
85.5339 917.00
85.5991 890.00
85.6643 905.00
85.7295 904.00
85.7946 843.00
85.8598 916.00
85.925 933.00
85.9903 972.00
86.0554 917.00
86.1206 874.00
86.1858 873.00
86.251 824.00
86.3162 848.00
86.3814 907.00
86.4466 874.00
86.5118 850.00
86.577 802.00
86.6422 865.00
86.7074 835.00
86.7726 855.00
86.8378 831.00
86.903 738.00
86.9682 772.00
87.0334 800.00
87.0986 746.00
87.1638 743.00
87.229 765.00
87.2942 758.00
87.3594 752.00
87.4246 733.00
87.4898 758.00
87.555 801.00
87.6202 760.00
87.6854 760.00
87.7506 782.00
87.8158 845.00
87.881 785.00
87.9462 789.00
88.0114 814.00
88.0766 851.00
88.1418 878.00
88.207 804.00
88.2722 785.00
88.3374 774.00
88.4026 847.00
88.4678 798.00
88.533 781.00
88.5982 824.00
88.6634 846.00
88.7286 806.00
88.7938 820.00
88.859 845.00
88.9242 798.00
88.9894 871.00
89.0546 898.00
89.1198 886.00
89.185 917.00
89.2502 990.00
89.3154 1005.00
89.3806 1012.00
89.4458 968.00
89.511 1015.00
89.5762 1079.00
89.6414 1001.00
89.7066 995.00
89.7718 958.00
89.837 926.00
89.9022 903.00
89.9674 967.00
90.0326 904.00
90.0978 825.00
90.163 879.00
90.2282 852.00
90.2934 798.00
90.3586 814.00
90.4238 872.00
90.489 785.00
90.5542 780.00
90.6193 780.00
90.6845 857.00
90.7497 796.00
90.8149 753.00
90.8801 768.00
90.9453 778.00
91.0105 807.00
91.0757 822.00
91.1409 808.00
91.2061 872.00
91.2713 811.00
91.3365 877.00
91.4017 826.00
91.4669 938.00
91.5321 887.00
91.5973 943.00
91.6625 936.00
91.7277 933.00
91.7929 804.00
91.8581 853.00
91.9233 898.00
91.9885 810.00
92.0537 821.00
92.1189 848.00
92.1841 851.00
92.2493 830.00
92.3145 753.00
92.3797 811.00
92.4449 812.00
92.5101 776.00
92.5753 895.00
92.6405 825.00
92.7057 758.00
92.7709 736.00
92.8361 803.00
92.9013 814.00
92.9665 756.00
93.0317 748.00
93.0969 763.00
93.1621 765.00
93.2273 772.00
93.2925 771.00
93.3577 776.00
93.4229 809.00
93.4881 842.00
93.5533 851.00
93.6185 815.00
93.6837 819.00
93.7489 831.00
93.8141 863.00
93.8793 870.00
93.9445 821.00
94.0097 893.00
94.0749 863.00
94.1401 811.00
94.2053 856.00
94.2705 801.00
94.3357 870.00
94.4009 828.00
94.4661 782.00
94.5313 828.00
94.5965 837.00
94.6617 839.00
94.7269 840.00
94.7921 873.00
94.8573 948.00
94.9225 898.00
94.9877 856.00
95.0529 962.00
95.1181 996.00
95.1833 882.00
95.2485 909.00
95.3137 876.00
95.3789 887.00
95.444 840.00
95.5092 901.00
95.5744 841.00
95.6396 894.00
95.7048 862.00
95.77 852.00
95.8352 875.00
95.9004 903.00
95.9656 820.00
96.0308 853.00
96.096 833.00
96.1612 845.00
96.2264 902.00
96.2916 897.00
96.3568 921.00
96.422 967.00
96.4872 890.00
96.5524 924.00
96.6176 895.00
96.6828 869.00
96.748 862.00
96.8132 854.00
96.8784 832.00
96.9436 821.00
97.0088 783.00
97.074 759.00
97.1392 827.00
97.2044 765.00
97.2696 730.00
97.3348 729.00
97.4 738.00
97.4652 740.00
97.5304 765.00
97.5956 699.00
97.6608 718.00
97.726 730.00
97.7912 688.00
97.8564 748.00
97.9216 721.00
97.9868 692.00
98.052 709.00
98.1172 707.00
98.1824 718.00
98.2476 731.00
98.3128 692.00
98.378 745.00
98.4432 703.00
98.5084 750.00
98.5736 766.00
98.6388 726.00
98.704 753.00
98.7692 837.00
98.8344 817.00
98.8996 778.00
98.9648 766.00
99.03 784.00
99.0952 824.00
99.1604 811.00
99.2256 792.00
99.2908 846.00
99.356 761.00
99.4212 772.00
99.4864 842.00
99.5516 874.00
99.6168 921.00
99.682 772.00
99.7472 880.00
99.8124 844.00
99.8776 861.00
99.9428 926.00
100.008 950.00
100.073 890.00
100.095 923.00