File: data/xrd_creation/results/NSC_19.xy
9.903433 2907.00
9.968632 2828.00
10.0338 2789.00
10.099 2740.00
10.1642 2660.00
10.2294 2667.00
10.2946 2748.00
10.3598 2671.00
10.425 2635.00
10.4902 2745.00
10.5554 2575.00
10.6206 2602.00
10.6858 2613.00
10.751 2583.00
10.8162 2541.00
10.8814 2492.00
10.9466 2528.00
11.0118 2614.00
11.077 2450.00
11.1422 2450.00
11.2074 2398.00
11.2726 2399.00
11.3378 2484.00
11.403 2386.00
11.4682 2321.00
11.5334 2428.00
11.5986 2331.00
11.6638 2271.00
11.729 2273.00
11.7942 2238.00
11.8594 2283.00
11.9246 2279.00
11.9898 2218.00
12.055 2268.00
12.1202 2237.00
12.1854 2223.00
12.2506 2261.00
12.3158 2156.00
12.381 2188.00
12.4462 2159.00
12.5114 2177.00
12.5766 2131.00
12.6418 2091.00
12.707 2170.00
12.7722 2144.00
12.8374 2138.00
12.9026 2033.00
12.9678 2058.00
13.033 1991.00
13.0982 2110.00
13.1634 2063.00
13.2286 2072.00
13.2938 2040.00
13.359 2038.00
13.4242 1987.00
13.4894 1991.00
13.5546 1939.00
13.6198 2114.00
13.685 1876.00
13.7502 1977.00
13.8154 1992.00
13.8805 1992.00
13.9457 1942.00
14.0109 2085.00
14.0761 2152.00
14.1413 2323.00
14.2065 2462.00
14.2717 2779.00
14.3369 3166.00
14.4021 3524.00
14.4673 3321.00
14.5325 2795.00
14.5977 2313.00
14.6629 2058.00
14.7281 2015.00
14.7933 2006.00
14.8585 1894.00
14.9237 2033.00
14.9889 2067.00
15.0541 2132.00
15.1193 2249.00
15.1845 2273.00
15.2497 2520.00
15.3149 2647.00
15.3801 2447.00
15.4453 2268.00
15.5105 2023.00
15.5757 1969.00
15.6409 1785.00
15.7061 1828.00
15.7713 1829.00
15.8365 1826.00
15.9017 1750.00
15.9669 1797.00
16.0321 1870.00
16.0973 1837.00
16.1625 1829.00
16.2277 1843.00
16.2929 1856.00
16.3581 1817.00
16.4233 1857.00
16.4885 1813.00
16.5537 1833.00
16.6189 1711.00
16.6841 1836.00
16.7493 1759.00
16.8145 1738.00
16.8797 1790.00
16.9449 1649.00
17.0101 1710.00
17.0753 1691.00
17.1405 1776.00
17.2057 1805.00
17.2709 1698.00
17.3361 1722.00
17.4013 1771.00
17.4665 1684.00
17.5317 1720.00
17.5969 1771.00
17.6621 1692.00
17.7273 1722.00
17.7925 1700.00
17.8577 1757.00
17.9229 1631.00
17.9881 1682.00
18.0533 1763.00
18.1185 1760.00
18.1837 1641.00
18.2489 1687.00
18.3141 1645.00
18.3793 1639.00
18.4445 1636.00
18.5097 1639.00
18.5749 1663.00
18.6401 1764.00
18.7052 1618.00
18.7704 1667.00
18.8356 1726.00
18.9008 1718.00
18.966 1784.00
19.0312 1733.00
19.0964 1640.00
19.1616 1718.00
19.2268 1626.00
19.292 1665.00
19.3572 1690.00
19.4224 1802.00
19.4876 1883.00
19.5528 2118.00
19.618 2555.00
19.6832 3344.00
19.7484 4450.00
19.8136 5892.00
19.8788 6497.00
19.944 6077.00
20.0092 4644.00
20.0744 3238.00
20.1396 2427.00
20.2048 2173.00
20.27 2247.00
20.3352 2576.00
20.4004 2972.00
20.4656 4105.00
20.5308 5796.00
20.596 7302.00
20.6612 7981.00
20.7264 7318.00
20.7916 5616.00
20.8568 4438.00
20.922 4062.00
20.9872 3965.00
21.0524 3787.00
21.1176 3239.00
21.1828 2392.00
21.248 1951.00
21.3132 1856.00
21.3784 1729.00
21.4436 1664.00
21.5088 1689.00
21.574 1831.00
21.6392 1732.00
21.7044 1839.00
21.7696 2147.00
21.8348 2493.00
21.9 2805.00
21.9652 3127.00
22.0304 3395.00
22.0956 3746.00
22.1608 3706.00
22.226 3205.00
22.2912 2558.00
22.3564 1963.00
22.4216 1811.00
22.4868 1665.00
22.552 1572.00
22.6172 1594.00
22.6824 1576.00
22.7476 1487.00
22.8128 1544.00
22.878 1496.00
22.9432 1550.00
23.0084 1572.00
23.0736 1550.00
23.1388 1614.00
23.204 1563.00
23.2692 1607.00
23.3344 1735.00
23.3996 1688.00
23.4647 1951.00
23.5299 2328.00
23.5951 2929.00
23.6603 4171.00
23.7255 6109.00
23.7907 7764.00
23.8559 7772.00
23.9211 6660.00
23.9863 4913.00
24.0515 3424.00
24.1167 2430.00
24.1819 2022.00
24.2471 1772.00
24.3123 1716.00
24.3775 1809.00
24.4427 1817.00
24.5079 1635.00
24.5731 1703.00
24.6383 1624.00
24.7035 1562.00
24.7687 1550.00
24.8339 1651.00
24.8991 1674.00
24.9643 1661.00
25.0295 1769.00
25.0947 1914.00
25.1599 2172.00
25.2251 2685.00
25.2903 3260.00
25.3555 3852.00
25.4207 4175.00
25.4859 3870.00
25.5511 3116.00
25.6163 2369.00
25.6815 1854.00
25.7467 1696.00
25.8119 1590.00
25.8771 1519.00
25.9423 1544.00
26.0075 1465.00
26.0727 1532.00
26.1379 1599.00
26.2031 1903.00
26.2683 2053.00
26.3335 2072.00
26.3987 1879.00
26.4639 1526.00
26.5291 1397.00
26.5943 1443.00
26.6595 1417.00
26.7247 1481.00
26.7899 1543.00
26.8551 1547.00
26.9203 1437.00
26.9855 1459.00
27.0507 1352.00
27.1159 1345.00
27.1811 1343.00
27.2463 1296.00
27.3115 1374.00
27.3767 1288.00
27.4419 1371.00
27.5071 1233.00
27.5723 1317.00
27.6375 1338.00
27.7027 1374.00
27.7679 1348.00
27.8331 1330.00
27.8983 1336.00
27.9635 1427.00
28.0287 1306.00
28.0939 1365.00
28.1591 1484.00
28.2243 1477.00
28.2894 1670.00
28.3546 1907.00
28.4198 2346.00
28.485 3209.00
28.5502 4330.00
28.6154 4883.00
28.6806 4932.00
28.7458 4201.00
28.811 3403.00
28.8762 2641.00
28.9414 1963.00
29.0066 1704.00
29.0718 1472.00
29.137 1459.00
29.2022 1403.00
29.2674 1321.00
29.3326 1294.00
29.3978 1347.00
29.463 1295.00
29.5282 1215.00
29.5934 1346.00
29.6586 1305.00
29.7238 1276.00
29.789 1199.00
29.8542 1289.00
29.9194 1302.00
29.9846 1313.00
30.0498 1332.00
30.115 1455.00
30.1802 1416.00
30.2454 1543.00
30.3106 1849.00
30.3758 2073.00
30.441 2419.00
30.5062 2728.00
30.5714 2808.00
30.6366 2603.00
30.7018 2267.00
30.767 1881.00
30.8322 1621.00
30.8974 1632.00
30.9626 1570.00
31.0278 1621.00
31.093 1566.00
31.1582 1652.00
31.2234 1900.00
31.2886 2243.00
31.3538 3019.00
31.419 4294.00
31.4842 5892.00
31.5494 6893.00
31.6146 7064.00
31.6798 6435.00
31.745 5536.00
31.8102 4386.00
31.8754 3451.00
31.9406 2631.00
32.0058 2156.00
32.071 1774.00
32.1362 1625.00
32.2014 1443.00
32.2666 1294.00
32.3318 1291.00
32.397 1319.00
32.4622 1245.00
32.5274 1316.00
32.5926 1235.00
32.6578 1290.00
32.723 1302.00
32.7882 1233.00
32.8534 1266.00
32.9186 1319.00
32.9838 1351.00
33.0489 1427.00
33.1141 1501.00
33.1793 1686.00
33.2445 1973.00
33.3097 2365.00
33.3749 2832.00
33.4401 3330.00
33.5053 3541.00
33.5705 3458.00
33.6357 2805.00
33.7009 2125.00
33.7661 1733.00
33.8313 1621.00
33.8965 1636.00
33.9617 1667.00
34.0269 1682.00
34.0921 1716.00
34.1573 1767.00
34.2225 1725.00
34.2877 1627.00
34.3529 1487.00
34.4181 1415.00
34.4833 1342.00
34.5485 1312.00
34.6137 1263.00
34.6789 1333.00
34.7441 1284.00
34.8093 1244.00
34.8745 1297.00
34.9397 1309.00
35.0049 1300.00
35.0701 1409.00
35.1353 1428.00
35.2005 1699.00
35.2657 2047.00
35.3309 2329.00
35.3961 2670.00
35.4613 2752.00
35.5265 2757.00
35.5917 2705.00
35.6569 2896.00
35.7221 3160.00
35.7873 3426.00
35.8525 3557.00
35.9177 3347.00
35.9829 3115.00
36.0481 2792.00
36.1133 2320.00
36.1785 1985.00
36.2437 1673.00
36.3089 1634.00
36.3741 1489.00
36.4393 1369.00
36.5045 1300.00
36.5697 1308.00
36.6349 1266.00
36.7001 1129.00
36.7653 1179.00
36.8305 1162.00
36.8957 1124.00
36.9609 1071.00
37.0261 1138.00
37.0913 1123.00
37.1565 1111.00
37.2217 1127.00
37.2869 1075.00
37.3521 1129.00
37.4173 1130.00
37.4825 1176.00
37.5477 1111.00
37.6129 1181.00
37.6781 1286.00
37.7433 1298.00
37.8085 1458.00
37.8736 1401.00
37.9388 1447.00
38.004 1457.00
38.0692 1423.00
38.1344 1403.00
38.1996 1424.00
38.2648 1449.00
38.33 1548.00
38.3952 1672.00
38.4604 1863.00
38.5256 1862.00
38.5908 1848.00
38.656 1715.00
38.7212 1492.00
38.7864 1415.00
38.8516 1248.00
38.9168 1165.00
38.982 1162.00
39.0472 1096.00
39.1124 1075.00
39.1776 1092.00
39.2428 1107.00
39.308 1058.00
39.3732 1083.00
39.4384 1106.00
39.5036 1086.00
39.5688 1148.00
39.634 1142.00
39.6992 1261.00
39.7644 1331.00
39.8296 1336.00
39.8948 1379.00
39.96 1380.00
40.0252 1402.00
40.0904 1435.00
40.1556 1340.00
40.2208 1275.00
40.286 1210.00
40.3512 1230.00
40.4164 1161.00
40.4816 1143.00
40.5468 1160.00
40.612 1200.00
40.6772 1170.00
40.7424 1154.00
40.8076 1133.00
40.8728 1097.00
40.938 1149.00
41.0032 1175.00
41.0684 1153.00
41.1336 1066.00
41.1988 1175.00
41.264 1181.00
41.3292 1221.00
41.3944 1303.00
41.4596 1464.00
41.5248 1553.00
41.59 1623.00
41.6552 1630.00
41.7204 1512.00
41.7856 1569.00
41.8508 1533.00
41.916 1449.00
41.9812 1389.00
42.0464 1369.00
42.1116 1335.00
42.1768 1271.00
42.242 1307.00
42.3072 1221.00
42.3724 1312.00
42.4376 1338.00
42.5028 1267.00
42.568 1227.00
42.6332 1220.00
42.6983 1163.00
42.7635 1073.00
42.8287 1072.00
42.8939 1140.00
42.9591 1087.00
43.0243 1087.00
43.0895 1252.00
43.1547 1377.00
43.2199 1588.00
43.2851 1592.00
43.3503 1770.00
43.4155 1687.00
43.4807 1577.00
43.5459 1584.00
43.6111 1401.00
43.6763 1387.00
43.7415 1304.00
43.8067 1326.00
43.8719 1280.00
43.9371 1295.00
44.0023 1297.00
44.0675 1386.00
44.1327 1334.00
44.1979 1295.00
44.2631 1246.00
44.3283 1262.00
44.3935 1174.00
44.4587 1182.00
44.5239 1098.00
44.5891 1167.00
44.6543 1127.00
44.7195 1150.00
44.7847 1242.00
44.8499 1296.00
44.9151 1298.00
44.9803 1426.00
45.0455 1656.00
45.1107 1950.00
45.1759 2100.00
45.2411 2279.00
45.3063 2222.00
45.3715 2109.00
45.4367 1853.00
45.5019 1713.00
45.5671 1618.00
45.6323 1504.00
45.6975 1362.00
45.7627 1301.00
45.8279 1241.00
45.8931 1157.00
45.9583 1199.00
46.0235 1232.00
46.0887 1393.00
46.1539 1493.00
46.2191 1654.00
46.2843 1889.00
46.3495 1842.00
46.4147 1930.00
46.4799 1790.00
46.5451 1687.00
46.6103 1658.00
46.6755 1622.00
46.7407 1668.00
46.8059 1554.00
46.8711 1539.00
46.9363 1582.00
47.0015 1480.00
47.0667 1482.00
47.1319 1356.00
47.1971 1343.00
47.2623 1251.00
47.3275 1171.00
47.3927 1187.00
47.4579 1188.00
47.523 1193.00
47.5882 1184.00
47.6534 1117.00
47.7186 1172.00
47.7838 1247.00
47.849 1358.00
47.9142 1508.00
47.9794 1572.00
48.0446 1950.00
48.1098 2324.00
48.175 2588.00
48.2402 2859.00
48.3054 2949.00
48.3706 2835.00
48.4358 2653.00
48.501 2486.00
48.5662 2247.00
48.6314 1998.00
48.6966 1844.00
48.7618 1574.00
48.827 1462.00
48.8922 1418.00
48.9574 1390.00
49.0226 1380.00
49.0878 1409.00
49.153 1294.00
49.2182 1294.00
49.2834 1299.00
49.3486 1222.00
49.4138 1370.00
49.479 1308.00
49.5442 1392.00
49.6094 1429.00
49.6746 1591.00
49.7398 1607.00
49.805 1543.00
49.8702 1460.00
49.9354 1376.00
50.0006 1274.00
50.0658 1217.00
50.131 1140.00
50.1962 1087.00
50.2614 1092.00
50.3266 1074.00
50.3918 1143.00
50.457 1120.00
50.5222 1062.00
50.5874 1125.00
50.6526 1047.00
50.7178 1155.00
50.783 1154.00
50.8482 1130.00
50.9134 1162.00
50.9786 1301.00
51.0438 1308.00
51.109 1230.00
51.1742 1327.00
51.2394 1468.00
51.3046 1524.00
51.3698 1679.00
51.435 1976.00
51.5002 2232.00
51.5654 2468.00
51.6306 2628.00
51.6958 2527.00
51.761 2499.00
51.8262 2503.00
51.8914 2385.00
51.9566 2172.00
52.0218 1947.00
52.087 1744.00
52.1522 1514.00
52.2174 1427.00
52.2826 1325.00
52.3477 1224.00
52.4129 1226.00
52.4781 1145.00
52.5433 1143.00
52.6085 1151.00
52.6737 1060.00
52.7389 1115.00
52.8041 1175.00
52.8693 1134.00
52.9345 1122.00
52.9997 1159.00
53.0649 1095.00
53.1301 1091.00
53.1953 981.00
53.2605 1038.00
53.3257 1032.00
53.3909 1059.00
53.4561 1023.00
53.5213 1028.00
53.5865 1082.00
53.6517 1030.00
53.7169 1063.00
53.7821 1023.00
53.8473 984.00
53.9125 1073.00
53.9777 1020.00
54.0429 1108.00
54.1081 1096.00
54.1733 1077.00
54.2385 1195.00
54.3037 1321.00
54.3689 1397.00
54.4341 1499.00
54.4993 1564.00
54.5645 1557.00
54.6297 1653.00
54.6949 1691.00
54.7601 1763.00
54.8253 1711.00
54.8905 1837.00
54.9557 1718.00
55.0209 1716.00
55.0861 1583.00
55.1513 1534.00
55.2165 1487.00
55.2817 1616.00
55.3469 1618.00
55.4121 1827.00
55.4773 1884.00
55.5425 2105.00
55.6077 2220.00
55.6729 2519.00
55.7381 2522.00
55.8033 2633.00
55.8685 2651.00
55.9337 2470.00
55.9989 2260.00
56.0641 2139.00
56.1293 1855.00
56.1945 1791.00
56.2597 1642.00
56.3249 1490.00
56.3901 1376.00
56.4553 1273.00
56.5205 1261.00
56.5857 1214.00
56.6509 1109.00
56.7161 1165.00
56.7813 1123.00
56.8465 1080.00
56.9117 1131.00
56.9769 1054.00
57.042 1178.00
57.1073 1183.00
57.1724 1190.00
57.2376 1131.00
57.3028 1188.00
57.368 1209.00
57.4332 1197.00
57.4984 1120.00
57.5636 1100.00
57.6288 1092.00
57.694 1091.00
57.7592 1139.00
57.8244 1229.00
57.8896 1243.00
57.9548 1190.00
58.02 1171.00
58.0852 1241.00
58.1504 1283.00
58.2156 1404.00
58.2808 1373.00
58.346 1595.00
58.4112 1558.00
58.4764 1529.00
58.5416 1611.00
58.6068 1649.00
58.672 1562.00
58.7372 1470.00
58.8024 1441.00
58.8676 1402.00
58.9328 1316.00
58.998 1280.00
59.0632 1263.00
59.1284 1290.00
59.1936 1301.00
59.2588 1240.00
59.324 1174.00
59.3892 1206.00
59.4544 1187.00
59.5196 1189.00
59.5848 1220.00
59.65 1346.00
59.7152 1380.00
59.7804 1396.00
59.8456 1498.00
59.9108 1697.00
59.976 1762.00
60.0412 1836.00
60.1064 1909.00
60.1716 1941.00
60.2368 1985.00
60.302 1978.00
60.3672 1913.00
60.4324 1838.00
60.4976 1694.00
60.5628 1727.00
60.628 1498.00
60.6932 1439.00
60.7584 1334.00
60.8236 1325.00
60.8888 1229.00
60.954 1245.00
61.0192 1219.00
61.0844 1296.00
61.1496 1480.00
61.2148 1688.00
61.28 1616.00
61.3452 1789.00
61.4104 1876.00
61.4756 1738.00
61.5408 1708.00
61.606 1734.00
61.6712 1693.00
61.7364 1700.00
61.8016 1633.00
61.8667 1441.00
61.932 1509.00
61.9971 1389.00
62.0623 1355.00
62.1275 1397.00
62.1927 1336.00
62.2579 1349.00
62.3231 1392.00
62.3883 1369.00
62.4535 1388.00
62.5187 1476.00
62.5839 1343.00
62.6491 1387.00
62.7143 1457.00
62.7795 1377.00
62.8447 1373.00
62.9099 1310.00
62.9751 1353.00
63.0403 1256.00
63.1055 1322.00
63.1707 1300.00
63.2359 1277.00
63.3011 1238.00
63.3663 1193.00
63.4315 1187.00
63.4967 1230.00
63.5619 1274.00
63.6271 1323.00
63.6923 1349.00
63.7575 1365.00
63.8227 1528.00
63.8879 1563.00
63.9531 1627.00
64.0183 1629.00
64.0835 1628.00
64.1487 1616.00
64.2139 1667.00
64.2791 1617.00
64.3443 1611.00
64.4095 1594.00
64.4747 1471.00
64.5399 1473.00
64.6051 1432.00
64.6703 1401.00
64.7355 1344.00
64.8007 1227.00
64.8659 1142.00
64.9311 1145.00
64.9963 1163.00
65.0615 1163.00
65.1267 1115.00
65.1919 1163.00
65.2571 1157.00
65.3223 1257.00
65.3875 1244.00
65.4527 1326.00
65.5179 1236.00
65.5831 1302.00
65.6483 1319.00
65.7135 1321.00
65.7787 1265.00
65.8439 1347.00
65.9091 1335.00
65.9743 1459.00
66.0395 1436.00
66.1047 1578.00
66.1699 1628.00
66.2351 1846.00
66.3003 1837.00
66.3655 1743.00
66.4307 1694.00
66.4959 1644.00
66.561 1512.00
66.6263 1439.00
66.6915 1424.00
66.7566 1323.00
66.8218 1254.00
66.887 1247.00
66.9522 1197.00
67.0174 1120.00
67.0826 1151.00
67.1478 1107.00
67.213 1095.00
67.2782 1119.00
67.3434 1166.00
67.4086 1215.00
67.4738 1193.00
67.539 1230.00
67.6042 1231.00
67.6694 1252.00
67.7346 1251.00
67.7998 1289.00
67.865 1322.00
67.9302 1356.00
67.9954 1329.00
68.0606 1356.00
68.1258 1227.00
68.191 1281.00
68.2562 1249.00
68.3214 1244.00
68.3866 1256.00
68.4518 1184.00
68.517 1261.00
68.5822 1245.00
68.6474 1251.00
68.7126 1220.00
68.7778 1311.00
68.843 1258.00
68.9082 1278.00
68.9734 1353.00
69.0386 1238.00
69.1038 1289.00
69.169 1348.00
69.2342 1355.00
69.2994 1397.00
69.3646 1386.00
69.4298 1288.00
69.495 1324.00
69.5602 1281.00
69.6254 1226.00
69.6906 1146.00
69.7558 1154.00
69.821 1133.00
69.8862 1042.00
69.9514 1064.00
70.0166 1022.00
70.0818 1031.00
70.147 1110.00
70.2122 1052.00
70.2774 1060.00
70.3426 1079.00
70.4078 1147.00
70.473 1093.00
70.5382 1159.00
70.6034 1153.00
70.6686 1166.00
70.7338 1161.00
70.799 1189.00
70.8642 1135.00
70.9294 1128.00
70.9946 1136.00
71.0598 1206.00
71.125 1234.00
71.1902 1241.00
71.2554 1237.00
71.3205 1243.00
71.3858 1350.00
71.451 1252.00
71.5162 1266.00
71.5813 1217.00
71.6465 1224.00
71.7117 1182.00
71.7769 1139.00
71.8421 1208.00
71.9073 1185.00
71.9725 1120.00
72.0377 1089.00
72.1029 1067.00
72.1681 1078.00
72.2333 1000.00
72.2985 1043.00
72.3637 1023.00
72.4289 1044.00
72.4941 1059.00
72.5593 1003.00
72.6245 1055.00
72.6897 1049.00
72.7549 1028.00
72.8201 1091.00
72.8853 1069.00
72.9505 1055.00
73.0157 1072.00
73.0809 1073.00
73.1461 1016.00
73.2113 1053.00
73.2765 1087.00
73.3417 1052.00
73.4069 1038.00
73.4721 1122.00
73.5373 1113.00
73.6025 1102.00
73.6677 1225.00
73.7329 1163.00
73.7981 1160.00
73.8633 1195.00
73.9285 1169.00
73.9937 1214.00
74.0589 1195.00
74.1241 1164.00
74.1893 1133.00
74.2545 1148.00
74.3197 1115.00
74.3849 1167.00
74.4501 1255.00
74.5153 1185.00
74.5805 1205.00
74.6457 1188.00
74.7109 1162.00
74.7761 1167.00
74.8413 1150.00
74.9065 1135.00
74.9717 1173.00
75.0369 1191.00
75.1021 1273.00
75.1673 1262.00
75.2325 1272.00
75.2977 1256.00
75.3629 1326.00
75.4281 1368.00
75.4933 1370.00
75.5585 1359.00
75.6237 1356.00
75.6889 1351.00
75.7541 1214.00
75.8193 1318.00
75.8845 1271.00
75.9497 1203.00
76.0149 1143.00
76.0801 1184.00
76.1452 1121.00
76.2104 1071.00
76.2756 1076.00
76.3409 1055.00
76.406 1066.00
76.4712 1055.00
76.5364 1035.00
76.6016 1032.00
76.6668 999.00
76.732 1033.00
76.7972 997.00
76.8624 1070.00
76.9276 1062.00
76.9928 978.00
77.058 991.00
77.1232 1075.00
77.1884 1153.00
77.2536 1081.00
77.3188 1055.00
77.384 1144.00
77.4492 1114.00
77.5144 1189.00
77.5796 1073.00
77.6448 1069.00
77.71 1078.00
77.7752 1184.00
77.8404 1094.00
77.9056 1099.00
77.9708 1139.00
78.036 1041.00
78.1012 1052.00
78.1664 963.00
78.2316 991.00
78.2968 1026.00
78.362 1034.00
78.4272 1050.00
78.4924 1047.00
78.5576 1075.00
78.6228 1070.00
78.688 1138.00
78.7532 1105.00
78.8184 1208.00
78.8836 1269.00
78.9488 1250.00
79.014 1270.00
79.0792 1263.00
79.1444 1272.00
79.2096 1286.00
79.2748 1333.00
79.34 1292.00
79.4052 1276.00
79.4704 1234.00
79.5356 1210.00
79.6008 1186.00
79.666 1184.00
79.7312 1112.00
79.7964 1110.00
79.8616 1108.00
79.9268 1111.00
79.992 1069.00
80.0572 1112.00
80.1224 1094.00
80.1876 1072.00
80.2528 1019.00
80.318 1098.00
80.3832 1088.00
80.4484 1045.00
80.5136 990.00
80.5788 975.00
80.644 1064.00
80.7092 1022.00
80.7744 1029.00
80.8396 1113.00
80.9048 1071.00
80.9699 1128.00
81.0351 1133.00
81.1003 1122.00
81.1655 1118.00
81.2307 1135.00
81.2959 1112.00
81.3611 1128.00
81.4263 1157.00
81.4915 1112.00
81.5567 1089.00
81.6219 1165.00
81.6871 1069.00
81.7523 1093.00
81.8175 1096.00
81.8827 1066.00
81.9479 1048.00
82.0131 1106.00
82.0783 1068.00
82.1435 1003.00
82.2087 984.00
82.2739 1044.00
82.3391 1021.00
82.4043 1054.00
82.4695 1021.00
82.5347 1004.00
82.5999 1042.00
82.6651 1028.00
82.7303 1027.00
82.7955 1071.00
82.8607 1013.00
82.9259 968.00
82.9911 1025.00
83.0563 953.00
83.1215 1012.00
83.1867 1031.00
83.2519 949.00
83.3171 1041.00
83.3823 1002.00
83.4475 1100.00
83.5127 1093.00
83.5779 1154.00
83.6431 1151.00
83.7083 1131.00
83.7735 1218.00
83.8387 1171.00
83.9039 1088.00
83.9691 1205.00
84.0343 1165.00
84.0995 1201.00
84.1647 1201.00
84.2299 1085.00
84.2951 1082.00
84.3603 1201.00
84.4255 1136.00
84.4907 1107.00
84.5559 1058.00
84.6211 1103.00
84.6863 1096.00
84.7515 1158.00
84.8167 1041.00
84.8819 1112.00
84.9471 1140.00
85.0123 1095.00
85.0775 1129.00
85.1427 1166.00
85.2079 1172.00
85.2731 1085.00
85.3383 1113.00
85.4035 1135.00
85.4687 1034.00
85.5339 1165.00
85.5991 1067.00
85.6643 1144.00
85.7295 1173.00
85.7946 1187.00
85.8598 1151.00
85.925 1160.00
85.9903 1164.00
86.0554 1208.00
86.1206 1175.00
86.1858 1215.00
86.251 1161.00
86.3162 1123.00
86.3814 1116.00
86.4466 1135.00
86.5118 1090.00
86.577 1135.00
86.6422 1162.00
86.7074 1081.00
86.7726 1112.00
86.8378 1037.00
86.903 1119.00
86.9682 1112.00
87.0334 1114.00
87.0986 1132.00
87.1638 1096.00
87.229 1139.00
87.2942 1071.00
87.3594 1162.00
87.4246 1093.00
87.4898 1083.00
87.555 1070.00
87.6202 1076.00
87.6854 1048.00
87.7506 1091.00
87.8158 991.00
87.881 1112.00
87.9462 1018.00
88.0114 1022.00
88.0766 1048.00
88.1418 1033.00
88.207 1009.00
88.2722 1020.00
88.3374 1039.00
88.4026 1085.00
88.4678 1042.00
88.533 1049.00
88.5982 1038.00
88.6634 1024.00
88.7286 1050.00
88.7938 1006.00
88.859 1061.00
88.9242 1105.00
88.9894 1116.00
89.0546 1078.00
89.1198 1097.00
89.185 1120.00
89.2502 1088.00
89.3154 1084.00
89.3806 1016.00
89.4458 1078.00
89.511 1139.00
89.5762 1098.00
89.6414 1164.00
89.7066 1193.00
89.7718 1164.00
89.837 1193.00
89.9022 1244.00
89.9674 1266.00
90.0326 1223.00
90.0978 1122.00
90.163 1153.00
90.2282 1133.00
90.2934 1103.00
90.3586 1182.00
90.4238 1212.00
90.489 1139.00
90.5542 1114.00
90.6193 1128.00
90.6845 1119.00
90.7497 1092.00
90.8149 1091.00
90.8801 1049.00
90.9453 1064.00
91.0105 1056.00
91.0757 1074.00
91.1409 1082.00
91.2061 1055.00
91.2713 1049.00
91.3365 1061.00
91.4017 1051.00
91.4669 1045.00
91.5321 1177.00
91.5973 1176.00
91.6625 1170.00
91.7277 1183.00
91.7929 1167.00
91.8581 1172.00
91.9233 1120.00
91.9885 1119.00
92.0537 1181.00
92.1189 1248.00
92.1841 1200.00
92.2493 1209.00
92.3145 1222.00
92.3797 1142.00
92.4449 1246.00
92.5101 1126.00
92.5753 1159.00
92.6405 1153.00
92.7057 1279.00
92.7709 1183.00
92.8361 1159.00
92.9013 1141.00
92.9665 1198.00
93.0317 1059.00
93.0969 1113.00
93.1621 1056.00
93.2273 1146.00
93.2925 1075.00
93.3577 1068.00
93.4229 1052.00
93.4881 1045.00
93.5533 1066.00
93.6185 1077.00
93.6837 1120.00
93.7489 1008.00
93.8141 1090.00
93.8793 1088.00
93.9445 1140.00
94.0097 1086.00
94.0749 1065.00
94.1401 1094.00
94.2053 1092.00
94.2705 1100.00
94.3357 1027.00
94.4009 1050.00
94.4661 1073.00
94.5313 1101.00
94.5965 1102.00
94.6617 1070.00
94.7269 1067.00
94.7921 1099.00
94.8573 1083.00
94.9225 1151.00
94.9877 1126.00
95.0529 1071.00
95.1181 1125.00
95.1833 1178.00
95.2485 1192.00
95.3137 1169.00
95.3789 1117.00
95.444 1137.00
95.5092 1105.00
95.5744 1138.00
95.6396 1146.00
95.7048 1162.00
95.77 1173.00
95.8352 1181.00
95.9004 1074.00
95.9656 1185.00
96.0308 1127.00
96.096 1105.00
96.1612 1135.00
96.2264 1139.00
96.2916 1154.00
96.3568 1151.00
96.422 1179.00
96.4872 1142.00
96.5524 1167.00
96.6176 1233.00
96.6828 1178.00
96.748 1181.00
96.8132 1161.00
96.8784 1165.00
96.9436 1136.00
97.0088 1116.00
97.074 1122.00
97.1392 1167.00
97.2044 1059.00
97.2696 1067.00
97.3348 1111.00
97.4 1091.00
97.4652 1183.00
97.5304 1064.00
97.5956 1009.00
97.6608 1112.00
97.726 1064.00
97.7912 1043.00
97.8564 1007.00
97.9216 1057.00
97.9868 1031.00
98.052 1078.00
98.1172 1084.00
98.1824 1028.00
98.2476 1029.00
98.3128 1043.00
98.378 1109.00
98.4432 1099.00
98.5084 1021.00
98.5736 1088.00
98.6388 1023.00
98.704 986.00
98.7692 1011.00
98.8344 1005.00
98.8996 1133.00
98.9648 1019.00
99.03 1064.00
99.0952 1049.00
99.1604 1007.00
99.2256 1067.00
99.2908 1085.00
99.356 1033.00
99.4212 1099.00
99.4864 1085.00
99.5516 1112.00
99.6168 1034.00
99.682 1063.00
99.7472 1157.00
99.8124 1116.00
99.8776 1148.00
99.9428 1111.00
100.008 1146.00
100.073 1153.00
100.095 1158.00