File: data/xrd_creation/results/NSC_222.xy
9.903433 2702.00
9.968632 2704.00
10.0338 2747.00
10.099 2616.00
10.1642 2654.00
10.2294 2585.00
10.2946 2657.00
10.3598 2560.00
10.425 2626.00
10.4902 2437.00
10.5554 2550.00
10.6206 2421.00
10.6858 2502.00
10.751 2554.00
10.8162 2379.00
10.8814 2384.00
10.9466 2389.00
11.0118 2400.00
11.077 2352.00
11.1422 2336.00
11.2074 2276.00
11.2726 2390.00
11.3378 2395.00
11.403 2260.00
11.4682 2245.00
11.5334 2301.00
11.5986 2172.00
11.6638 2246.00
11.729 2191.00
11.7942 2175.00
11.8594 2249.00
11.9246 2199.00
11.9898 2165.00
12.055 2164.00
12.1202 2095.00
12.1854 2188.00
12.2506 2117.00
12.3158 2066.00
12.381 2058.00
12.4462 2023.00
12.5114 2030.00
12.5766 1981.00
12.6418 2011.00
12.707 2011.00
12.7722 1976.00
12.8374 1902.00
12.9026 1981.00
12.9678 1922.00
13.033 1954.00
13.0982 1932.00
13.1634 2016.00
13.2286 1993.00
13.2938 1985.00
13.359 1986.00
13.4242 1989.00
13.4894 2021.00
13.5546 2054.00
13.6198 2175.00
13.685 2390.00
13.7502 2521.00
13.8154 2610.00
13.8805 2468.00
13.9457 2120.00
14.0109 1996.00
14.0761 1893.00
14.1413 1863.00
14.2065 1800.00
14.2717 1829.00
14.3369 1864.00
14.4021 1850.00
14.4673 1769.00
14.5325 1785.00
14.5977 1819.00
14.6629 1792.00
14.7281 1787.00
14.7933 1805.00
14.8585 1760.00
14.9237 1777.00
14.9889 1717.00
15.0541 1800.00
15.1193 1633.00
15.1845 1704.00
15.2497 1738.00
15.3149 1739.00
15.3801 1660.00
15.4453 1641.00
15.5105 1666.00
15.5757 1781.00
15.6409 1673.00
15.7061 1692.00
15.7713 1757.00
15.8365 1658.00
15.9017 1712.00
15.9669 1727.00
16.0321 1630.00
16.0973 1650.00
16.1625 1704.00
16.2277 1643.00
16.2929 1581.00
16.3581 1642.00
16.4233 1690.00
16.4885 1725.00
16.5537 1673.00
16.6189 1581.00
16.6841 1613.00
16.7493 1630.00
16.8145 1612.00
16.8797 1640.00
16.9449 1599.00
17.0101 1599.00
17.0753 1648.00
17.1405 1582.00
17.2057 1540.00
17.2709 1646.00
17.3361 1628.00
17.4013 1684.00
17.4665 1672.00
17.5317 1620.00
17.5969 1671.00
17.6621 1622.00
17.7273 1684.00
17.7925 1651.00
17.8577 1572.00
17.9229 1522.00
17.9881 1562.00
18.0533 1497.00
18.1185 1605.00
18.1837 1511.00
18.2489 1556.00
18.3141 1525.00
18.3793 1522.00
18.4445 1597.00
18.5097 1520.00
18.5749 1497.00
18.6401 1599.00
18.7052 1550.00
18.7704 1554.00
18.8356 1535.00
18.9008 1512.00
18.966 1559.00
19.0312 1671.00
19.0964 1802.00
19.1616 1815.00
19.2268 2275.00
19.292 3208.00
19.3572 4307.00
19.4224 6069.00
19.4876 7393.00
19.5528 7851.00
19.618 5922.00
19.6832 3658.00
19.7484 2240.00
19.8136 1746.00
19.8788 1539.00
19.944 1546.00
20.0092 1573.00
20.0744 1502.00
20.1396 1466.00
20.2048 1443.00
20.27 1445.00
20.3352 1515.00
20.4004 1584.00
20.4656 1605.00
20.5308 1668.00
20.596 1885.00
20.6612 1951.00
20.7264 1956.00
20.7916 1964.00
20.8568 1809.00
20.922 1603.00
20.9872 1492.00
21.0524 1438.00
21.1176 1504.00
21.1828 1589.00
21.248 1721.00
21.3132 1793.00
21.3784 1789.00
21.4436 1683.00
21.5088 1542.00
21.574 1423.00
21.6392 1351.00
21.7044 1358.00
21.7696 1301.00
21.8348 1384.00
21.9 1332.00
21.9652 1364.00
22.0304 1316.00
22.0956 1384.00
22.1608 1334.00
22.226 1303.00
22.2912 1334.00
22.3564 1356.00
22.4216 1410.00
22.4868 1314.00
22.552 1442.00
22.6172 1435.00
22.6824 1539.00
22.7476 1749.00
22.8128 1993.00
22.878 2566.00
22.9432 2744.00
23.0084 2758.00
23.0736 2361.00
23.1388 2032.00
23.204 1848.00
23.2692 1702.00
23.3344 1495.00
23.3996 1365.00
23.4647 1305.00
23.5299 1281.00
23.5951 1311.00
23.6603 1331.00
23.7255 1353.00
23.7907 1394.00
23.8559 1419.00
23.9211 1345.00
23.9863 1437.00
24.0515 1466.00
24.1167 1339.00
24.1819 1361.00
24.2471 1339.00
24.3123 1284.00
24.3775 1309.00
24.4427 1302.00
24.5079 1321.00
24.5731 1401.00
24.6383 1340.00
24.7035 1304.00
24.7687 1294.00
24.8339 1202.00
24.8991 1226.00
24.9643 1213.00
25.0295 1257.00
25.0947 1275.00
25.1599 1215.00
25.2251 1215.00
25.2903 1174.00
25.3555 1164.00
25.4207 1189.00
25.4859 1212.00
25.5511 1186.00
25.6163 1144.00
25.6815 1178.00
25.7467 1154.00
25.8119 1183.00
25.8771 1078.00
25.9423 1155.00
26.0075 1205.00
26.0727 1150.00
26.1379 1134.00
26.2031 1251.00
26.2683 1137.00
26.3335 1133.00
26.3987 1144.00
26.4639 1171.00
26.5291 1127.00
26.5943 1130.00
26.6595 1143.00
26.7247 1158.00
26.7899 1164.00
26.8551 1166.00
26.9203 1200.00
26.9855 1218.00
27.0507 1295.00
27.1159 1498.00
27.1811 1718.00
27.2463 2174.00
27.3115 2173.00
27.3767 2107.00
27.4419 1913.00
27.5071 1864.00
27.5723 2116.00
27.6375 2891.00
27.7027 3729.00
27.7679 3657.00
27.8331 2819.00
27.8983 1866.00
27.9635 1459.00
28.0287 1342.00
28.0939 1351.00
28.1591 1456.00
28.2243 1417.00
28.2894 1646.00
28.3546 1680.00
28.4198 1601.00
28.485 1473.00
28.5502 1373.00
28.6154 1179.00
28.6806 1139.00
28.7458 1212.00
28.811 1108.00
28.8762 1143.00
28.9414 1137.00
29.0066 1096.00
29.0718 1165.00
29.137 1157.00
29.2022 1180.00
29.2674 1227.00
29.3326 1201.00
29.3978 1202.00
29.463 1154.00
29.5282 1282.00
29.5934 1241.00
29.6586 1499.00
29.7238 1668.00
29.789 1852.00
29.8542 1859.00
29.9194 1568.00
29.9846 1422.00
30.0498 1332.00
30.115 1396.00
30.1802 1571.00
30.2454 1834.00
30.3106 2045.00
30.3758 1948.00
30.441 1641.00
30.5062 1503.00
30.5714 1494.00
30.6366 1681.00
30.7018 2291.00
30.767 2832.00
30.8322 3379.00
30.8974 4276.00
30.9626 6069.00
31.0278 7006.00
31.093 6643.00
31.1582 5056.00
31.2234 3197.00
31.2886 2005.00
31.3538 1490.00
31.419 1364.00
31.4842 1455.00
31.5494 1453.00
31.6146 1460.00
31.6798 1510.00
31.745 1475.00
31.8102 1292.00
31.8754 1243.00
31.9406 1098.00
32.0058 1087.00
32.071 1037.00
32.1362 1063.00
32.2014 1035.00
32.2666 1046.00
32.3318 1033.00
32.397 966.00
32.4622 1007.00
32.5274 983.00
32.5926 1078.00
32.6578 971.00
32.723 962.00
32.7882 1007.00
32.8534 1026.00
32.9186 1059.00
32.9838 1052.00
33.0489 1042.00
33.1141 944.00
33.1793 1035.00
33.2445 1077.00
33.3097 1016.00
33.3749 1025.00
33.4401 1086.00
33.5053 1023.00
33.5705 1007.00
33.6357 993.00
33.7009 1036.00
33.7661 1191.00
33.8313 1229.00
33.8965 1462.00
33.9617 2030.00
34.0269 3176.00
34.0921 5175.00
34.1573 6878.00
34.2225 6872.00
34.2877 5169.00
34.3529 3112.00
34.4181 1834.00
34.4833 1443.00
34.5485 1155.00
34.6137 1172.00
34.6789 1162.00
34.7441 1087.00
34.8093 1156.00
34.8745 1167.00
34.9397 1021.00
35.0049 1049.00
35.0701 999.00
35.1353 1001.00
35.2005 954.00
35.2657 959.00
35.3309 948.00
35.3961 1046.00
35.4613 1056.00
35.5265 1166.00
35.5917 1239.00
35.6569 1287.00
35.7221 1159.00
35.7873 1128.00
35.8525 1225.00
35.9177 1201.00
35.9829 1258.00
36.0481 1200.00
36.1133 1200.00
36.1785 1063.00
36.2437 936.00
36.3089 956.00
36.3741 908.00
36.4393 847.00
36.5045 865.00
36.5697 919.00
36.6349 910.00
36.7001 920.00
36.7653 873.00
36.8305 916.00
36.8957 937.00
36.9609 878.00
37.0261 860.00
37.0913 867.00
37.1565 862.00
37.2217 926.00
37.2869 875.00
37.3521 995.00
37.4173 932.00
37.4825 915.00
37.5477 897.00
37.6129 822.00
37.6781 889.00
37.7433 886.00
37.8085 808.00
37.8736 883.00
37.9388 865.00
38.004 862.00
38.0692 843.00
38.1344 865.00
38.1996 845.00
38.2648 891.00
38.33 887.00
38.3952 992.00
38.4604 1081.00
38.5256 1310.00
38.5908 1375.00
38.656 1153.00
38.7212 1096.00
38.7864 983.00
38.8516 1049.00
38.9168 1116.00
38.982 1091.00
39.0472 1136.00
39.1124 1041.00
39.1776 983.00
39.2428 1002.00
39.308 985.00
39.3732 941.00
39.4384 1003.00
39.5036 1218.00
39.5688 1218.00
39.634 1247.00
39.6992 1153.00
39.7644 1043.00
39.8296 1042.00
39.8948 845.00
39.96 864.00
40.0252 863.00
40.0904 883.00
40.1556 912.00
40.2208 810.00
40.286 882.00
40.3512 820.00
40.4164 881.00
40.4816 830.00
40.5468 857.00
40.612 822.00
40.6772 842.00
40.7424 856.00
40.8076 877.00
40.8728 888.00
40.938 932.00
41.0032 928.00
41.0684 956.00
41.1336 1022.00
41.1988 980.00
41.264 951.00
41.3292 1036.00
41.3944 1117.00
41.4596 1381.00
41.5248 1568.00
41.59 1613.00
41.6552 1462.00
41.7204 1331.00
41.7856 1181.00
41.8508 1093.00
41.916 1105.00
41.9812 1160.00
42.0464 1193.00
42.1116 1283.00
42.1768 1221.00
42.242 1266.00
42.3072 1018.00
42.3724 919.00
42.4376 925.00
42.5028 780.00
42.568 894.00
42.6332 843.00
42.6983 896.00
42.7635 831.00
42.8287 891.00
42.8939 887.00
42.9591 853.00
43.0243 850.00
43.0895 879.00
43.1547 845.00
43.2199 836.00
43.2851 838.00
43.3503 871.00
43.4155 935.00
43.4807 906.00
43.5459 924.00
43.6111 949.00
43.6763 876.00
43.7415 890.00
43.8067 889.00
43.8719 846.00
43.9371 840.00
44.0023 887.00
44.0675 903.00
44.1327 914.00
44.1979 957.00
44.2631 1122.00
44.3283 1369.00
44.3935 1682.00
44.4587 2231.00
44.5239 2496.00
44.5891 2456.00
44.6543 2065.00
44.7195 1523.00
44.7847 1113.00
44.8499 944.00
44.9151 915.00
44.9803 849.00
45.0455 834.00
45.1107 810.00
45.1759 805.00
45.2411 808.00
45.3063 758.00
45.3715 786.00
45.4367 883.00
45.5019 902.00
45.5671 880.00
45.6323 995.00
45.6975 949.00
45.7627 881.00
45.8279 877.00
45.8931 858.00
45.9583 849.00
46.0235 822.00
46.0887 902.00
46.1539 925.00
46.2191 932.00
46.2843 969.00
46.3495 994.00
46.4147 1071.00
46.4799 1066.00
46.5451 1278.00
46.6103 1588.00
46.6755 2162.00
46.7407 2813.00
46.8059 3437.00
46.8711 3196.00
46.9363 2731.00
47.0015 2198.00
47.0667 1476.00
47.1319 1156.00
47.1971 981.00
47.2623 913.00
47.3275 870.00
47.3927 790.00
47.4579 811.00
47.523 780.00
47.5882 825.00
47.6534 790.00
47.7186 744.00
47.7838 793.00
47.849 773.00
47.9142 796.00
47.9794 757.00
48.0446 772.00
48.1098 786.00
48.175 819.00
48.2402 808.00
48.3054 769.00
48.3706 859.00
48.4358 839.00
48.501 916.00
48.5662 907.00
48.6314 881.00
48.6966 889.00
48.7618 947.00
48.827 958.00
48.8922 993.00
48.9574 1006.00
49.0226 1062.00
49.0878 1192.00
49.153 1171.00
49.2182 1087.00
49.2834 939.00
49.3486 940.00
49.4138 859.00
49.479 880.00
49.5442 918.00
49.6094 875.00
49.6746 873.00
49.7398 875.00
49.805 871.00
49.8702 816.00
49.9354 761.00
50.0006 765.00
50.0658 777.00
50.131 736.00
50.1962 832.00
50.2614 825.00
50.3266 864.00
50.3918 885.00
50.457 1045.00
50.5222 1094.00
50.5874 1267.00
50.6526 1292.00
50.7178 1330.00
50.783 1320.00
50.8482 1435.00
50.9134 1590.00
50.9786 1653.00
51.0438 1780.00
51.109 1877.00
51.1742 1882.00
51.2394 1849.00
51.3046 1731.00
51.3698 1549.00
51.435 1270.00
51.5002 1043.00
51.5654 961.00
51.6306 930.00
51.6958 908.00
51.761 871.00
51.8262 859.00
51.8914 1006.00
51.9566 873.00
52.0218 852.00
52.087 871.00
52.1522 791.00
52.2174 814.00
52.2826 766.00
52.3477 735.00
52.4129 748.00
52.4781 743.00
52.5433 750.00
52.6085 816.00
52.6737 769.00
52.7389 822.00
52.8041 751.00
52.8693 854.00
52.9345 857.00
52.9997 986.00
53.0649 1176.00
53.1301 1425.00
53.1953 1998.00
53.2605 2520.00
53.3257 2629.00
53.3909 2472.00
53.4561 2107.00
53.5213 1707.00
53.5865 1317.00
53.6517 1051.00
53.7169 912.00
53.7821 870.00
53.8473 776.00
53.9125 817.00
53.9777 797.00
54.0429 844.00
54.1081 846.00
54.1733 961.00
54.2385 987.00
54.3037 938.00
54.3689 986.00
54.4341 884.00
54.4993 882.00
54.5645 853.00
54.6297 807.00
54.6949 820.00
54.7601 878.00
54.8253 879.00
54.8905 871.00
54.9557 882.00
55.0209 849.00
55.0861 806.00
55.1513 771.00
55.2165 733.00
55.2817 755.00
55.3469 722.00
55.4121 753.00
55.4773 785.00
55.5425 820.00
55.6077 866.00
55.6729 831.00
55.7381 836.00
55.8033 862.00
55.8685 796.00
55.9337 880.00
55.9989 822.00
56.0641 768.00
56.1293 775.00
56.1945 781.00
56.2597 750.00
56.3249 859.00
56.3901 803.00
56.4553 835.00
56.5205 778.00
56.5857 817.00
56.6509 835.00
56.7161 744.00
56.7813 765.00
56.8465 748.00
56.9117 755.00
56.9769 801.00
57.042 804.00
57.1073 906.00
57.1724 862.00
57.2376 896.00
57.3028 870.00
57.368 822.00
57.4332 836.00
57.4984 807.00
57.5636 824.00
57.6288 833.00
57.694 804.00
57.7592 843.00
57.8244 790.00
57.8896 747.00
57.9548 830.00
58.02 762.00
58.0852 787.00
58.1504 781.00
58.2156 767.00
58.2808 839.00
58.346 801.00
58.4112 832.00
58.4764 879.00
58.5416 826.00
58.6068 894.00
58.672 910.00
58.7372 953.00
58.8024 1063.00
58.8676 1233.00
58.9328 1381.00
58.998 1686.00
59.0632 2078.00
59.1284 2425.00
59.1936 2818.00
59.2588 2618.00
59.324 2396.00
59.3892 1977.00
59.4544 1687.00
59.5196 1337.00
59.5848 1045.00
59.65 1007.00
59.7152 954.00
59.7804 868.00
59.8456 794.00
59.9108 804.00
59.976 774.00
60.0412 777.00
60.1064 820.00
60.1716 791.00
60.2368 836.00
60.302 836.00
60.3672 829.00
60.4324 845.00
60.4976 877.00
60.5628 817.00
60.628 838.00
60.6932 884.00
60.7584 979.00
60.8236 1043.00
60.8888 1283.00
60.954 1479.00
61.0192 1691.00
61.0844 1898.00
61.1496 1877.00
61.2148 1893.00
61.28 1646.00
61.3452 1457.00
61.4104 1241.00
61.4756 1048.00
61.5408 959.00
61.606 1009.00
61.6712 903.00
61.7364 885.00
61.8016 819.00
61.8667 822.00
61.932 851.00
61.9971 837.00
62.0623 782.00
62.1275 820.00
62.1927 900.00
62.2579 859.00
62.3231 928.00
62.3883 970.00
62.4535 1077.00
62.5187 962.00
62.5839 1095.00
62.6491 1073.00
62.7143 1085.00
62.7795 1124.00
62.8447 1109.00
62.9099 1180.00
62.9751 1122.00
63.0403 1111.00
63.1055 949.00
63.1707 958.00
63.2359 868.00
63.3011 882.00
63.3663 790.00
63.4315 753.00
63.4967 755.00
63.5619 750.00
63.6271 733.00
63.6923 692.00
63.7575 794.00
63.8227 780.00
63.8879 768.00
63.9531 811.00
64.0183 779.00
64.0835 793.00
64.1487 746.00
64.2139 747.00
64.2791 768.00
64.3443 739.00
64.4095 749.00
64.4747 733.00
64.5399 797.00
64.6051 805.00
64.6703 905.00
64.7355 989.00
64.8007 987.00
64.8659 1012.00
64.9311 1012.00
64.9963 925.00
65.0615 911.00
65.1267 895.00
65.1919 778.00
65.2571 739.00
65.3223 793.00
65.3875 774.00
65.4527 778.00
65.5179 803.00
65.5831 762.00
65.6483 786.00
65.7135 791.00
65.7787 779.00
65.8439 794.00
65.9091 827.00
65.9743 891.00
66.0395 974.00
66.1047 1057.00
66.1699 1170.00
66.2351 1181.00
66.3003 1243.00
66.3655 1258.00
66.4307 1404.00
66.4959 1291.00
66.561 1423.00
66.6263 1269.00
66.6915 1183.00
66.7566 1069.00
66.8218 1010.00
66.887 862.00
66.9522 812.00
67.0174 800.00
67.0826 727.00
67.1478 729.00
67.213 704.00
67.2782 768.00
67.3434 751.00
67.4086 763.00
67.4738 766.00
67.539 760.00
67.6042 751.00
67.6694 790.00
67.7346 742.00
67.7998 774.00
67.865 747.00
67.9302 784.00
67.9954 738.00
68.0606 753.00
68.1258 768.00
68.191 855.00
68.2562 935.00
68.3214 997.00
68.3866 1043.00
68.4518 1081.00
68.517 1108.00
68.5822 1007.00
68.6474 986.00
68.7126 901.00
68.7778 849.00
68.843 783.00
68.9082 788.00
68.9734 779.00
69.0386 719.00
69.1038 758.00
69.169 736.00
69.2342 693.00
69.2994 689.00
69.3646 688.00
69.4298 666.00
69.495 766.00
69.5602 791.00
69.6254 792.00
69.6906 817.00
69.7558 857.00
69.821 784.00
69.8862 740.00
69.9514 724.00
70.0166 723.00
70.0818 691.00
70.147 704.00
70.2122 682.00
70.2774 631.00
70.3426 658.00
70.4078 696.00
70.473 601.00
70.5382 663.00
70.6034 616.00
70.6686 659.00
70.7338 629.00
70.799 626.00
70.8642 693.00
70.9294 663.00
70.9946 744.00
71.0598 744.00
71.125 728.00
71.1902 611.00
71.2554 740.00
71.3205 736.00
71.3858 773.00
71.451 756.00
71.5162 779.00
71.5813 829.00
71.6465 881.00
71.7117 927.00
71.7769 998.00
71.8421 1113.00
71.9073 1161.00
71.9725 1218.00
72.0377 1150.00
72.1029 1146.00
72.1681 1008.00
72.2333 973.00
72.2985 871.00
72.3637 795.00
72.4289 810.00
72.4941 719.00
72.5593 692.00
72.6245 753.00
72.6897 701.00
72.7549 698.00
72.8201 730.00
72.8853 657.00
72.9505 708.00
73.0157 801.00
73.0809 768.00
73.1461 808.00
73.2113 808.00
73.2765 890.00
73.3417 950.00
73.4069 898.00
73.4721 909.00
73.5373 877.00
73.6025 857.00
73.6677 876.00
73.7329 830.00
73.7981 817.00
73.8633 780.00
73.9285 728.00
73.9937 695.00
74.0589 648.00
74.1241 732.00
74.1893 715.00
74.2545 723.00
74.3197 644.00
74.3849 665.00
74.4501 709.00
74.5153 717.00
74.5805 660.00
74.6457 673.00
74.7109 666.00
74.7761 673.00
74.8413 687.00
74.9065 691.00
74.9717 758.00
75.0369 752.00
75.1021 767.00
75.1673 807.00
75.2325 862.00
75.2977 992.00
75.3629 981.00
75.4281 960.00
75.4933 947.00
75.5585 896.00
75.6237 892.00
75.6889 811.00
75.7541 777.00
75.8193 717.00
75.8845 710.00
75.9497 752.00
76.0149 679.00
76.0801 706.00
76.1452 691.00
76.2104 747.00
76.2756 741.00
76.3409 715.00
76.406 757.00
76.4712 722.00
76.5364 816.00
76.6016 751.00
76.6668 760.00
76.732 828.00
76.7972 846.00
76.8624 884.00
76.9276 879.00
76.9928 893.00
77.058 880.00
77.1232 854.00
77.1884 751.00
77.2536 775.00
77.3188 737.00
77.384 676.00
77.4492 678.00
77.5144 638.00
77.5796 688.00
77.6448 632.00
77.71 685.00
77.7752 623.00
77.8404 675.00
77.9056 671.00
77.9708 665.00
78.036 635.00
78.1012 610.00
78.1664 620.00
78.2316 636.00
78.2968 674.00
78.362 622.00
78.4272 641.00
78.4924 664.00
78.5576 629.00
78.6228 627.00
78.688 665.00
78.7532 625.00
78.8184 692.00
78.8836 644.00
78.9488 661.00
79.014 674.00
79.0792 680.00
79.1444 662.00
79.2096 692.00
79.2748 671.00
79.34 676.00
79.4052 651.00
79.4704 675.00
79.5356 700.00
79.6008 739.00
79.666 789.00
79.7312 728.00
79.7964 776.00
79.8616 798.00
79.9268 795.00
79.992 889.00
80.0572 982.00
80.1224 945.00
80.1876 982.00
80.2528 1125.00
80.318 1167.00
80.3832 1115.00
80.4484 1105.00
80.5136 1066.00
80.5788 1039.00
80.644 973.00
80.7092 862.00
80.7744 848.00
80.8396 763.00
80.9048 723.00
80.9699 711.00
81.0351 706.00
81.1003 637.00
81.1655 679.00
81.2307 675.00
81.2959 639.00
81.3611 684.00
81.4263 658.00
81.4915 670.00
81.5567 708.00
81.6219 723.00
81.6871 695.00
81.7523 746.00
81.8175 850.00
81.8827 867.00
81.9479 870.00
82.0131 968.00
82.0783 942.00
82.1435 928.00
82.2087 930.00
82.2739 845.00
82.3391 785.00
82.4043 826.00
82.4695 706.00
82.5347 714.00
82.5999 668.00
82.6651 683.00
82.7303 637.00
82.7955 684.00
82.8607 712.00
82.9259 680.00
82.9911 668.00
83.0563 675.00
83.1215 694.00
83.1867 704.00
83.2519 704.00
83.3171 693.00
83.3823 721.00
83.4475 735.00
83.5127 772.00
83.5779 703.00
83.6431 745.00
83.7083 710.00
83.7735 736.00
83.8387 719.00
83.9039 665.00
83.9691 694.00
84.0343 714.00
84.0995 681.00
84.1647 621.00
84.2299 629.00
84.2951 686.00
84.3603 633.00
84.4255 660.00
84.4907 688.00
84.5559 689.00
84.6211 671.00
84.6863 738.00
84.7515 647.00
84.8167 675.00
84.8819 658.00
84.9471 664.00
85.0123 673.00
85.0775 668.00
85.1427 674.00
85.2079 690.00
85.2731 673.00
85.3383 713.00
85.4035 725.00
85.4687 680.00
85.5339 702.00
85.5991 695.00
85.6643 685.00
85.7295 688.00
85.7946 657.00
85.8598 656.00
85.925 687.00
85.9903 720.00
86.0554 723.00
86.1206 651.00
86.1858 718.00
86.251 702.00
86.3162 750.00
86.3814 819.00
86.4466 794.00
86.5118 804.00
86.577 815.00
86.6422 865.00
86.7074 930.00
86.7726 959.00
86.8378 1007.00
86.903 1005.00
86.9682 1027.00
87.0334 1009.00
87.0986 916.00
87.1638 955.00
87.229 880.00
87.2942 860.00
87.3594 859.00
87.4246 708.00
87.4898 727.00
87.555 764.00
87.6202 712.00
87.6854 676.00
87.7506 710.00
87.8158 667.00
87.881 698.00
87.9462 714.00
88.0114 722.00
88.0766 685.00
88.1418 725.00
88.207 765.00
88.2722 774.00
88.3374 733.00
88.4026 727.00
88.4678 739.00
88.533 791.00
88.5982 763.00
88.6634 799.00
88.7286 761.00
88.7938 735.00
88.859 754.00
88.9242 792.00
88.9894 722.00
89.0546 720.00
89.1198 710.00
89.185 667.00
89.2502 642.00
89.3154 710.00
89.3806 654.00
89.4458 695.00
89.511 688.00
89.5762 716.00
89.6414 640.00
89.7066 727.00
89.7718 698.00
89.837 733.00
89.9022 771.00
89.9674 783.00
90.0326 790.00
90.0978 813.00
90.163 839.00
90.2282 865.00
90.2934 846.00
90.3586 818.00
90.4238 780.00
90.489 811.00
90.5542 817.00
90.6193 716.00
90.6845 738.00
90.7497 724.00
90.8149 747.00
90.8801 713.00
90.9453 683.00
91.0105 655.00
91.0757 706.00
91.1409 701.00
91.2061 664.00
91.2713 669.00
91.3365 677.00
91.4017 646.00
91.4669 660.00
91.5321 715.00
91.5973 732.00
91.6625 694.00
91.7277 726.00
91.7929 723.00
91.8581 763.00
91.9233 812.00
91.9885 759.00
92.0537 775.00
92.1189 801.00
92.1841 830.00
92.2493 710.00
92.3145 754.00
92.3797 707.00
92.4449 685.00
92.5101 711.00
92.5753 659.00
92.6405 626.00
92.7057 692.00
92.7709 648.00
92.8361 678.00
92.9013 672.00
92.9665 690.00
93.0317 710.00
93.0969 759.00
93.1621 739.00
93.2273 757.00
93.2925 837.00
93.3577 892.00
93.4229 855.00
93.4881 852.00
93.5533 873.00
93.6185 836.00
93.6837 834.00
93.7489 799.00
93.8141 824.00
93.8793 756.00
93.9445 779.00
94.0097 694.00
94.0749 697.00
94.1401 691.00
94.2053 732.00
94.2705 657.00
94.3357 701.00
94.4009 645.00
94.4661 632.00
94.5313 627.00
94.5965 692.00
94.6617 680.00
94.7269 719.00
94.7921 675.00
94.8573 687.00
94.9225 792.00
94.9877 759.00
95.0529 801.00
95.1181 872.00
95.1833 859.00
95.2485 818.00
95.3137 898.00
95.3789 885.00
95.444 825.00
95.5092 803.00
95.5744 823.00
95.6396 787.00
95.7048 808.00
95.77 734.00
95.8352 770.00
95.9004 704.00
95.9656 660.00
96.0308 707.00
96.096 729.00
96.1612 687.00
96.2264 645.00
96.2916 734.00
96.3568 671.00
96.422 682.00
96.4872 690.00
96.5524 642.00
96.6176 674.00
96.6828 665.00
96.748 700.00
96.8132 693.00
96.8784 678.00
96.9436 717.00
97.0088 699.00
97.074 691.00
97.1392 713.00
97.2044 712.00
97.2696 691.00
97.3348 715.00
97.4 674.00
97.4652 711.00
97.5304 679.00
97.5956 682.00
97.6608 674.00
97.726 682.00
97.7912 656.00
97.8564 636.00
97.9216 663.00
97.9868 649.00
98.052 652.00
98.1172 641.00
98.1824 686.00
98.2476 673.00
98.3128 700.00
98.378 670.00
98.4432 756.00
98.5084 658.00
98.5736 716.00
98.6388 690.00
98.704 718.00
98.7692 705.00
98.8344 657.00
98.8996 658.00
98.9648 708.00
99.03 691.00
99.0952 644.00
99.1604 717.00
99.2256 720.00
99.2908 646.00
99.356 711.00
99.4212 702.00
99.4864 710.00
99.5516 715.00
99.6168 738.00
99.682 809.00
99.7472 782.00
99.8124 806.00
99.8776 857.00
99.9428 917.00
100.008 998.00
100.073 1038.00
100.095 1002.00