File: data/xrd_creation/results/NSC_176.xy
9.903433 2613.00
9.968632 2624.00
10.0338 2512.00
10.099 2651.00
10.1642 2526.00
10.2294 2435.00
10.2946 2496.00
10.3598 2432.00
10.425 2480.00
10.4902 2455.00
10.5554 2357.00
10.6206 2413.00
10.6858 2395.00
10.751 2301.00
10.8162 2276.00
10.8814 2229.00
10.9466 2212.00
11.0118 2290.00
11.077 2254.00
11.1422 2284.00
11.2074 2168.00
11.2726 2214.00
11.3378 2246.00
11.403 2072.00
11.4682 2090.00
11.5334 2160.00
11.5986 2092.00
11.6638 2044.00
11.729 2171.00
11.7942 2007.00
11.8594 2061.00
11.9246 2101.00
11.9898 1951.00
12.055 1948.00
12.1202 1932.00
12.1854 1998.00
12.2506 1990.00
12.3158 1892.00
12.381 1912.00
12.4462 1894.00
12.5114 1830.00
12.5766 1890.00
12.6418 1846.00
12.707 1864.00
12.7722 1884.00
12.8374 1864.00
12.9026 1816.00
12.9678 1818.00
13.033 1835.00
13.0982 1886.00
13.1634 1736.00
13.2286 1850.00
13.2938 1784.00
13.359 1750.00
13.4242 1728.00
13.4894 1833.00
13.5546 1736.00
13.6198 1768.00
13.685 1708.00
13.7502 1779.00
13.8154 1769.00
13.8805 1802.00
13.9457 1838.00
14.0109 1832.00
14.0761 2002.00
14.1413 2238.00
14.2065 2517.00
14.2717 3164.00
14.3369 3703.00
14.4021 4043.00
14.4673 2811.00
14.5325 2029.00
14.5977 1678.00
14.6629 1658.00
14.7281 1697.00
14.7933 1685.00
14.8585 1636.00
14.9237 1764.00
14.9889 1701.00
15.0541 1795.00
15.1193 1890.00
15.1845 2024.00
15.2497 2165.00
15.3149 2267.00
15.3801 2099.00
15.4453 1718.00
15.5105 1627.00
15.5757 1617.00
15.6409 1546.00
15.7061 1636.00
15.7713 1568.00
15.8365 1549.00
15.9017 1545.00
15.9669 1488.00
16.0321 1483.00
16.0973 1538.00
16.1625 1570.00
16.2277 1493.00
16.2929 1592.00
16.3581 1523.00
16.4233 1561.00
16.4885 1601.00
16.5537 1448.00
16.6189 1491.00
16.6841 1534.00
16.7493 1538.00
16.8145 1467.00
16.8797 1572.00
16.9449 1504.00
17.0101 1528.00
17.0753 1459.00
17.1405 1484.00
17.2057 1561.00
17.2709 1561.00
17.3361 1468.00
17.4013 1423.00
17.4665 1469.00
17.5317 1465.00
17.5969 1523.00
17.6621 1468.00
17.7273 1450.00
17.7925 1431.00
17.8577 1489.00
17.9229 1435.00
17.9881 1368.00
18.0533 1431.00
18.1185 1439.00
18.1837 1425.00
18.2489 1383.00
18.3141 1439.00
18.3793 1396.00
18.4445 1411.00
18.5097 1402.00
18.5749 1334.00
18.6401 1458.00
18.7052 1440.00
18.7704 1428.00
18.8356 1440.00
18.9008 1378.00
18.966 1338.00
19.0312 1360.00
19.0964 1329.00
19.1616 1437.00
19.2268 1474.00
19.292 1508.00
19.3572 1543.00
19.4224 1690.00
19.4876 2000.00
19.5528 2407.00
19.618 3304.00
19.6832 4978.00
19.7484 7690.00
19.8136 10802.00
19.8788 12477.00
19.944 8736.00
20.0092 4126.00
20.0744 2289.00
20.1396 2012.00
20.2048 2123.00
20.27 2287.00
20.3352 3049.00
20.4004 4730.00
20.4656 7484.00
20.5308 11571.00
20.596 14903.00
20.6612 13310.00
20.7264 7951.00
20.7916 4513.00
20.8568 3355.00
20.922 3361.00
20.9872 3605.00
21.0524 3228.00
21.1176 2302.00
21.1828 1606.00
21.248 1444.00
21.3132 1398.00
21.3784 1367.00
21.4436 1361.00
21.5088 1430.00
21.574 1379.00
21.6392 1442.00
21.7044 1370.00
21.7696 1470.00
21.8348 1611.00
21.9 1927.00
21.9652 2367.00
22.0304 3036.00
22.0956 3515.00
22.1608 3478.00
22.226 2582.00
22.2912 1821.00
22.3564 1422.00
22.4216 1371.00
22.4868 1327.00
22.552 1272.00
22.6172 1226.00
22.6824 1276.00
22.7476 1170.00
22.8128 1194.00
22.878 1197.00
22.9432 1252.00
23.0084 1277.00
23.0736 1245.00
23.1388 1211.00
23.204 1286.00
23.2692 1306.00
23.3344 1229.00
23.3996 1329.00
23.4647 1410.00
23.5299 1618.00
23.5951 2314.00
23.6603 3235.00
23.7255 4894.00
23.7907 6185.00
23.8559 5650.00
23.9211 3502.00
23.9863 2057.00
24.0515 1483.00
24.1167 1361.00
24.1819 1186.00
24.2471 1185.00
24.3123 1142.00
24.3775 1149.00
24.4427 1194.00
24.5079 1188.00
24.5731 1129.00
24.6383 1130.00
24.7035 1140.00
24.7687 1119.00
24.8339 1124.00
24.8991 1187.00
24.9643 1183.00
25.0295 1271.00
25.0947 1340.00
25.1599 1528.00
25.2251 1964.00
25.2903 2594.00
25.3555 3465.00
25.4207 3759.00
25.4859 3191.00
25.5511 2122.00
25.6163 1471.00
25.6815 1213.00
25.7467 1227.00
25.8119 1221.00
25.8771 1233.00
25.9423 1281.00
26.0075 1543.00
26.0727 1965.00
26.1379 2745.00
26.2031 3162.00
26.2683 3019.00
26.3335 2122.00
26.3987 1513.00
26.4639 1216.00
26.5291 1119.00
26.5943 1072.00
26.6595 1057.00
26.7247 1018.00
26.7899 1034.00
26.8551 1100.00
26.9203 1030.00
26.9855 1016.00
27.0507 1030.00
27.1159 1034.00
27.1811 982.00
27.2463 943.00
27.3115 964.00
27.3767 996.00
27.4419 1040.00
27.5071 1010.00
27.5723 1070.00
27.6375 1018.00
27.7027 1078.00
27.7679 1042.00
27.8331 1064.00
27.8983 1080.00
27.9635 1029.00
28.0287 1103.00
28.0939 1085.00
28.1591 1129.00
28.2243 1152.00
28.2894 1240.00
28.3546 1578.00
28.4198 2247.00
28.485 3580.00
28.5502 5865.00
28.6154 8104.00
28.6806 7642.00
28.7458 4944.00
28.811 2673.00
28.8762 1669.00
28.9414 1296.00
29.0066 1140.00
29.0718 1076.00
29.137 1040.00
29.2022 972.00
29.2674 966.00
29.3326 998.00
29.3978 982.00
29.463 1014.00
29.5282 1003.00
29.5934 1045.00
29.6586 998.00
29.7238 979.00
29.789 952.00
29.8542 970.00
29.9194 1040.00
29.9846 915.00
30.0498 988.00
30.115 966.00
30.1802 1087.00
30.2454 1081.00
30.3106 1256.00
30.3758 1496.00
30.441 1887.00
30.5062 2403.00
30.5714 2541.00
30.6366 2206.00
30.7018 1668.00
30.767 1273.00
30.8322 1070.00
30.8974 1008.00
30.9626 1018.00
31.0278 1002.00
31.093 1108.00
31.1582 1193.00
31.2234 1338.00
31.2886 1780.00
31.3538 2770.00
31.419 4436.00
31.4842 7453.00
31.5494 10321.00
31.6146 10284.00
31.6798 7313.00
31.745 4334.00
31.8102 2771.00
31.8754 1955.00
31.9406 1523.00
32.0058 1290.00
32.071 1077.00
32.1362 1001.00
32.2014 1022.00
32.2666 1032.00
32.3318 980.00
32.397 992.00
32.4622 1041.00
32.5274 1144.00
32.5926 1021.00
32.6578 970.00
32.723 978.00
32.7882 959.00
32.8534 967.00
32.9186 946.00
32.9838 1007.00
33.0489 1015.00
33.1141 1044.00
33.1793 1122.00
33.2445 1371.00
33.3097 1782.00
33.3749 2365.00
33.4401 3045.00
33.5053 3320.00
33.5705 2945.00
33.6357 2036.00
33.7009 1454.00
33.7661 1160.00
33.8313 1195.00
33.8965 1291.00
33.9617 1583.00
34.0269 1739.00
34.0921 1910.00
34.1573 1751.00
34.2225 1501.00
34.2877 1225.00
34.3529 1131.00
34.4181 1012.00
34.4833 987.00
34.5485 872.00
34.6137 960.00
34.6789 954.00
34.7441 955.00
34.8093 945.00
34.8745 963.00
34.9397 1041.00
35.0049 1005.00
35.0701 1164.00
35.1353 1391.00
35.2005 1939.00
35.2657 2900.00
35.3309 4237.00
35.3961 5290.00
35.4613 4890.00
35.5265 3649.00
35.5917 2985.00
35.6569 2962.00
35.7221 3869.00
35.7873 5277.00
35.8525 5817.00
35.9177 5046.00
35.9829 3581.00
36.0481 2562.00
36.1133 1822.00
36.1785 1573.00
36.2437 1165.00
36.3089 1165.00
36.3741 1049.00
36.4393 929.00
36.5045 901.00
36.5697 851.00
36.6349 812.00
36.7001 844.00
36.7653 788.00
36.8305 857.00
36.8957 843.00
36.9609 837.00
37.0261 837.00
37.0913 826.00
37.1565 785.00
37.2217 812.00
37.2869 826.00
37.3521 827.00
37.4173 831.00
37.4825 804.00
37.5477 862.00
37.6129 880.00
37.6781 932.00
37.7433 983.00
37.8085 1038.00
37.8736 1160.00
37.9388 1212.00
38.004 1146.00
38.0692 1055.00
38.1344 1140.00
38.1996 1120.00
38.2648 1297.00
38.33 1367.00
38.3952 1371.00
38.4604 1463.00
38.5256 1607.00
38.5908 1539.00
38.656 1358.00
38.7212 1230.00
38.7864 990.00
38.8516 952.00
38.9168 891.00
38.982 861.00
39.0472 915.00
39.1124 787.00
39.1776 806.00
39.2428 835.00
39.308 801.00
39.3732 865.00
39.4384 800.00
39.5036 919.00
39.5688 930.00
39.634 956.00
39.6992 1053.00
39.7644 1135.00
39.8296 1227.00
39.8948 1332.00
39.96 1524.00
40.0252 1635.00
40.0904 1498.00
40.1556 1239.00
40.2208 1067.00
40.286 881.00
40.3512 833.00
40.4164 826.00
40.4816 899.00
40.5468 885.00
40.612 926.00
40.6772 949.00
40.7424 944.00
40.8076 893.00
40.8728 827.00
40.938 817.00
41.0032 806.00
41.0684 845.00
41.1336 829.00
41.1988 854.00
41.264 889.00
41.3292 1075.00
41.3944 1226.00
41.4596 1704.00
41.5248 2041.00
41.59 2296.00
41.6552 2309.00
41.7204 2298.00
41.7856 2207.00
41.8508 2216.00
41.916 2090.00
41.9812 1869.00
42.0464 1504.00
42.1116 1305.00
42.1768 1076.00
42.242 1043.00
42.3072 1004.00
42.3724 1020.00
42.4376 1064.00
42.5028 992.00
42.568 903.00
42.6332 847.00
42.6983 789.00
42.7635 820.00
42.8287 795.00
42.8939 837.00
42.9591 857.00
43.0243 848.00
43.0895 1036.00
43.1547 1227.00
43.2199 1618.00
43.2851 2103.00
43.3503 2553.00
43.4155 2390.00
43.4807 2008.00
43.5459 1559.00
43.6111 1233.00
43.6763 991.00
43.7415 961.00
43.8067 893.00
43.8719 1003.00
43.9371 1009.00
44.0023 1172.00
44.0675 1199.00
44.1327 1220.00
44.1979 1032.00
44.2631 974.00
44.3283 888.00
44.3935 823.00
44.4587 836.00
44.5239 825.00
44.5891 800.00
44.6543 847.00
44.7195 890.00
44.7847 909.00
44.8499 901.00
44.9151 980.00
44.9803 1063.00
45.0455 1228.00
45.1107 1549.00
45.1759 2098.00
45.2411 2643.00
45.3063 2813.00
45.3715 2526.00
45.4367 1856.00
45.5019 1386.00
45.5671 1110.00
45.6323 970.00
45.6975 876.00
45.7627 878.00
45.8279 812.00
45.8931 833.00
45.9583 871.00
46.0235 1059.00
46.0887 1198.00
46.1539 1525.00
46.2191 2021.00
46.2843 2683.00
46.3495 3142.00
46.4147 2886.00
46.4799 2452.00
46.5451 1919.00
46.6103 1576.00
46.6755 1390.00
46.7407 1380.00
46.8059 1591.00
46.8711 1827.00
46.9363 2030.00
47.0015 1998.00
47.0667 1773.00
47.1319 1439.00
47.1971 1228.00
47.2623 1013.00
47.3275 882.00
47.3927 916.00
47.4579 862.00
47.523 785.00
47.5882 846.00
47.6534 771.00
47.7186 857.00
47.7838 805.00
47.849 915.00
47.9142 933.00
47.9794 1120.00
48.0446 1398.00
48.1098 1767.00
48.175 2288.00
48.2402 3103.00
48.3054 3713.00
48.3706 3766.00
48.4358 3327.00
48.501 2667.00
48.5662 2002.00
48.6314 1585.00
48.6966 1304.00
48.7618 1220.00
48.827 1201.00
48.8922 1167.00
48.9574 1210.00
49.0226 1204.00
49.0878 1138.00
49.153 1045.00
49.2182 981.00
49.2834 904.00
49.3486 857.00
49.4138 800.00
49.479 861.00
49.5442 940.00
49.6094 963.00
49.6746 1051.00
49.7398 1105.00
49.805 1085.00
49.8702 1112.00
49.9354 1058.00
50.0006 887.00
50.0658 843.00
50.131 799.00
50.1962 751.00
50.2614 752.00
50.3266 737.00
50.3918 724.00
50.457 732.00
50.5222 758.00
50.5874 791.00
50.6526 787.00
50.7178 792.00
50.783 816.00
50.8482 874.00
50.9134 991.00
50.9786 1062.00
51.0438 1129.00
51.109 1201.00
51.1742 1137.00
51.2394 1123.00
51.3046 1216.00
51.3698 1361.00
51.435 1607.00
51.5002 2156.00
51.5654 2844.00
51.6306 3516.00
51.6958 3824.00
51.761 3482.00
51.8262 3099.00
51.8914 2474.00
51.9566 1993.00
52.0218 1501.00
52.087 1370.00
52.1522 1137.00
52.2174 1103.00
52.2826 929.00
52.3477 865.00
52.4129 779.00
52.4781 764.00
52.5433 783.00
52.6085 719.00
52.6737 747.00
52.7389 797.00
52.8041 838.00
52.8693 815.00
52.9345 752.00
52.9997 780.00
53.0649 784.00
53.1301 835.00
53.1953 819.00
53.2605 837.00
53.3257 828.00
53.3909 826.00
53.4561 814.00
53.5213 829.00
53.5865 813.00
53.6517 744.00
53.7169 792.00
53.7821 845.00
53.8473 819.00
53.9125 764.00
53.9777 712.00
54.0429 794.00
54.1081 766.00
54.1733 737.00
54.2385 812.00
54.3037 909.00
54.3689 965.00
54.4341 1173.00
54.4993 1298.00
54.5645 1524.00
54.6297 1670.00
54.6949 1665.00
54.7601 1626.00
54.8253 1490.00
54.8905 1459.00
54.9557 1373.00
55.0209 1283.00
55.0861 1190.00
55.1513 1095.00
55.2165 1091.00
55.2817 1180.00
55.3469 1428.00
55.4121 1771.00
55.4773 2192.00
55.5425 2479.00
55.6077 2585.00
55.6729 2934.00
55.7381 3366.00
55.8033 3579.00
55.8685 3483.00
55.9337 3223.00
55.9989 2788.00
56.0641 2349.00
56.1293 1750.00
56.1945 1440.00
56.2597 1249.00
56.3249 1059.00
56.3901 863.00
56.4553 844.00
56.5205 876.00
56.5857 881.00
56.6509 809.00
56.7161 817.00
56.7813 770.00
56.8465 789.00
56.9117 780.00
56.9769 792.00
57.042 851.00
57.1073 769.00
57.1724 819.00
57.2376 856.00
57.3028 841.00
57.368 778.00
57.4332 802.00
57.4984 817.00
57.5636 763.00
57.6288 722.00
57.694 731.00
57.7592 788.00
57.8244 733.00
57.8896 755.00
57.9548 756.00
58.02 799.00
58.0852 816.00
58.1504 933.00
58.2156 990.00
58.2808 1090.00
58.346 1235.00
58.4112 1464.00
58.4764 1556.00
58.5416 1618.00
58.6068 1702.00
58.672 1601.00
58.7372 1554.00
58.8024 1427.00
58.8676 1488.00
58.9328 1412.00
58.998 1320.00
59.0632 1181.00
59.1284 1153.00
59.1936 991.00
59.2588 928.00
59.324 811.00
59.3892 851.00
59.4544 810.00
59.5196 800.00
59.5848 840.00
59.65 899.00
59.7152 904.00
59.7804 930.00
59.8456 1034.00
59.9108 1141.00
59.976 1245.00
60.0412 1446.00
60.1064 1690.00
60.1716 2072.00
60.2368 2471.00
60.302 2517.00
60.3672 2474.00
60.4324 2202.00
60.4976 1865.00
60.5628 1636.00
60.628 1283.00
60.6932 1096.00
60.7584 1059.00
60.8236 855.00
60.8888 830.00
60.954 857.00
61.0192 869.00
61.0844 967.00
61.1496 1081.00
61.2148 1207.00
61.28 1580.00
61.3452 2031.00
61.4104 2298.00
61.4756 2246.00
61.5408 2224.00
61.606 2062.00
61.6712 1851.00
61.7364 1491.00
61.8016 1357.00
61.8667 1281.00
61.932 1105.00
61.9971 1059.00
62.0623 1022.00
62.1275 920.00
62.1927 897.00
62.2579 948.00
62.3231 1022.00
62.3883 1096.00
62.4535 1228.00
62.5187 1310.00
62.5839 1463.00
62.6491 1501.00
62.7143 1486.00
62.7795 1387.00
62.8447 1355.00
62.9099 1325.00
62.9751 1145.00
63.0403 1118.00
63.1055 1131.00
63.1707 1051.00
63.2359 923.00
63.3011 980.00
63.3663 926.00
63.4315 943.00
63.4967 881.00
63.5619 956.00
63.6271 1064.00
63.6923 1153.00
63.7575 1226.00
63.8227 1288.00
63.8879 1520.00
63.9531 1583.00
64.0183 1658.00
64.0835 1636.00
64.1487 1773.00
64.2139 1808.00
64.2791 1856.00
64.3443 1808.00
64.4095 1655.00
64.4747 1510.00
64.5399 1464.00
64.6051 1278.00
64.6703 1050.00
64.7355 960.00
64.8007 937.00
64.8659 863.00
64.9311 784.00
64.9963 774.00
65.0615 733.00
65.1267 782.00
65.1919 807.00
65.2571 806.00
65.3223 838.00
65.3875 932.00
65.4527 914.00
65.5179 883.00
65.5831 882.00
65.6483 919.00
65.7135 984.00
65.7787 971.00
65.8439 1070.00
65.9091 1060.00
65.9743 1151.00
66.0395 1275.00
66.1047 1386.00
66.1699 1430.00
66.2351 1497.00
66.3003 1802.00
66.3655 1748.00
66.4307 1892.00
66.4959 1898.00
66.561 1973.00
66.6263 1707.00
66.6915 1619.00
66.7566 1379.00
66.8218 1224.00
66.887 1050.00
66.9522 999.00
67.0174 938.00
67.0826 851.00
67.1478 922.00
67.213 900.00
67.2782 895.00
67.3434 872.00
67.4086 938.00
67.4738 958.00
67.539 1067.00
67.6042 1252.00
67.6694 1227.00
67.7346 1346.00
67.7998 1290.00
67.865 1248.00
67.9302 1219.00
67.9954 1305.00
68.0606 1327.00
68.1258 1399.00
68.191 1412.00
68.2562 1331.00
68.3214 1344.00
68.3866 1152.00
68.4518 1059.00
68.517 991.00
68.5822 955.00
68.6474 917.00
68.7126 890.00
68.7778 867.00
68.843 922.00
68.9082 911.00
68.9734 948.00
69.0386 1038.00
69.1038 1086.00
69.169 1089.00
69.2342 1163.00
69.2994 1247.00
69.3646 1173.00
69.4298 1170.00
69.495 1134.00
69.5602 1104.00
69.6254 996.00
69.6906 908.00
69.7558 839.00
69.821 792.00
69.8862 783.00
69.9514 762.00
70.0166 741.00
70.0818 756.00
70.147 763.00
70.2122 783.00
70.2774 823.00
70.3426 835.00
70.4078 815.00
70.473 819.00
70.5382 895.00
70.6034 903.00
70.6686 884.00
70.7338 867.00
70.799 854.00
70.8642 889.00
70.9294 865.00
70.9946 921.00
71.0598 889.00
71.125 883.00
71.1902 908.00
71.2554 1038.00
71.3205 1127.00
71.3858 1226.00
71.451 1314.00
71.5162 1347.00
71.5813 1349.00
71.6465 1265.00
71.7117 1203.00
71.7769 1070.00
71.8421 1022.00
71.9073 862.00
71.9725 813.00
72.0377 801.00
72.1029 782.00
72.1681 700.00
72.2333 723.00
72.2985 692.00
72.3637 703.00
72.4289 685.00
72.4941 688.00
72.5593 676.00
72.6245 724.00
72.6897 701.00
72.7549 741.00
72.8201 741.00
72.8853 750.00
72.9505 746.00
73.0157 761.00
73.0809 717.00
73.1461 773.00
73.2113 821.00
73.2765 776.00
73.3417 770.00
73.4069 871.00
73.4721 802.00
73.5373 790.00
73.6025 809.00
73.6677 837.00
73.7329 818.00
73.7981 930.00
73.8633 1002.00
73.9285 1048.00
73.9937 1139.00
74.0589 1135.00
74.1241 1331.00
74.1893 1344.00
74.2545 1292.00
74.3197 1220.00
74.3849 1201.00
74.4501 1149.00
74.5153 1023.00
74.5805 983.00
74.6457 901.00
74.7109 890.00
74.7761 857.00
74.8413 908.00
74.9065 913.00
74.9717 951.00
75.0369 925.00
75.1021 953.00
75.1673 979.00
75.2325 987.00
75.2977 1090.00
75.3629 1137.00
75.4281 1270.00
75.4933 1245.00
75.5585 1252.00
75.6237 1227.00
75.6889 1310.00
75.7541 1224.00
75.8193 1136.00
75.8845 1091.00
75.9497 1025.00
76.0149 956.00
76.0801 915.00
76.1452 837.00
76.2104 898.00
76.2756 778.00
76.3409 817.00
76.406 748.00
76.4712 719.00
76.5364 745.00
76.6016 771.00
76.6668 687.00
76.732 716.00
76.7972 738.00
76.8624 691.00
76.9276 740.00
76.9928 742.00
77.058 737.00
77.1232 770.00
77.1884 740.00
77.2536 821.00
77.3188 880.00
77.384 850.00
77.4492 867.00
77.5144 849.00
77.5796 958.00
77.6448 926.00
77.71 1044.00
77.7752 983.00
77.8404 979.00
77.9056 958.00
77.9708 979.00
78.036 908.00
78.1012 908.00
78.1664 857.00
78.2316 820.00
78.2968 820.00
78.362 727.00
78.4272 795.00
78.4924 812.00
78.5576 795.00
78.6228 803.00
78.688 899.00
78.7532 908.00
78.8184 991.00
78.8836 1089.00
78.9488 1239.00
79.014 1335.00
79.0792 1348.00
79.1444 1549.00
79.2096 1579.00
79.2748 1600.00
79.34 1628.00
79.4052 1540.00
79.4704 1430.00
79.5356 1302.00
79.6008 1245.00
79.666 1097.00
79.7312 1048.00
79.7964 983.00
79.8616 940.00
79.9268 865.00
79.992 856.00
80.0572 866.00
80.1224 856.00
80.1876 860.00
80.2528 896.00
80.318 949.00
80.3832 936.00
80.4484 843.00
80.5136 795.00
80.5788 800.00
80.644 768.00
80.7092 794.00
80.7744 767.00
80.8396 724.00
80.9048 777.00
80.9699 777.00
81.0351 780.00
81.1003 877.00
81.1655 881.00
81.2307 1018.00
81.2959 1077.00
81.3611 1145.00
81.4263 1155.00
81.4915 1094.00
81.5567 1132.00
81.6219 1106.00
81.6871 995.00
81.7523 973.00
81.8175 889.00
81.8827 814.00
81.9479 820.00
82.0131 791.00
82.0783 827.00
82.1435 825.00
82.2087 826.00
82.2739 848.00
82.3391 797.00
82.4043 839.00
82.4695 791.00
82.5347 817.00
82.5999 790.00
82.6651 798.00
82.7303 842.00
82.7955 772.00
82.8607 849.00
82.9259 819.00
82.9911 837.00
83.0563 771.00
83.1215 792.00
83.1867 778.00
83.2519 831.00
83.3171 785.00
83.3823 789.00
83.4475 836.00
83.5127 758.00
83.5779 812.00
83.6431 858.00
83.7083 904.00
83.7735 995.00
83.8387 1040.00
83.9039 1105.00
83.9691 1095.00
84.0343 1093.00
84.0995 1097.00
84.1647 1089.00
84.2299 1007.00
84.2951 961.00
84.3603 901.00
84.4255 879.00
84.4907 840.00
84.5559 844.00
84.6211 819.00
84.6863 817.00
84.7515 785.00
84.8167 780.00
84.8819 684.00
84.9471 762.00
85.0123 813.00
85.0775 856.00
85.1427 849.00
85.2079 871.00
85.2731 908.00
85.3383 852.00
85.4035 897.00
85.4687 942.00
85.5339 890.00
85.5991 876.00
85.6643 877.00
85.7295 899.00
85.7946 902.00
85.8598 931.00
85.925 934.00
85.9903 915.00
86.0554 1045.00
86.1206 980.00
86.1858 982.00
86.251 975.00
86.3162 975.00
86.3814 969.00
86.4466 1014.00
86.5118 1076.00
86.577 1016.00
86.6422 999.00
86.7074 970.00
86.7726 956.00
86.8378 940.00
86.903 922.00
86.9682 908.00
87.0334 896.00
87.0986 924.00
87.1638 894.00
87.229 931.00
87.2942 860.00
87.3594 927.00
87.4246 890.00
87.4898 824.00
87.555 871.00
87.6202 873.00
87.6854 800.00
87.7506 811.00
87.8158 752.00
87.881 768.00
87.9462 809.00
88.0114 761.00
88.0766 742.00
88.1418 751.00
88.207 744.00
88.2722 759.00
88.3374 820.00
88.4026 856.00
88.4678 846.00
88.533 813.00
88.5982 899.00
88.6634 900.00
88.7286 885.00
88.7938 893.00
88.859 819.00
88.9242 823.00
88.9894 853.00
89.0546 800.00
89.1198 761.00
89.185 739.00
89.2502 788.00
89.3154 761.00
89.3806 838.00
89.4458 808.00
89.511 893.00
89.5762 917.00
89.6414 868.00
89.7066 972.00
89.7718 1014.00
89.837 1054.00
89.9022 1191.00
89.9674 1226.00
90.0326 1265.00
90.0978 1287.00
90.163 1185.00
90.2282 1192.00
90.2934 1163.00
90.3586 1095.00
90.4238 983.00
90.489 991.00
90.5542 939.00
90.6193 930.00
90.6845 860.00
90.7497 864.00
90.8149 805.00
90.8801 835.00
90.9453 820.00
91.0105 768.00
91.0757 795.00
91.1409 813.00
91.2061 727.00
91.2713 769.00
91.3365 840.00
91.4017 780.00
91.4669 793.00
91.5321 824.00
91.5973 891.00
91.6625 832.00
91.7277 878.00
91.7929 878.00
91.8581 944.00
91.9233 960.00
91.9885 1051.00
92.0537 1043.00
92.1189 1105.00
92.1841 1065.00
92.2493 1030.00
92.3145 1046.00
92.3797 1114.00
92.4449 1012.00
92.5101 1067.00
92.5753 1014.00
92.6405 1025.00
92.7057 995.00
92.7709 1041.00
92.8361 979.00
92.9013 928.00
92.9665 949.00
93.0317 971.00
93.0969 958.00
93.1621 1042.00
93.2273 934.00
93.2925 910.00
93.3577 892.00
93.4229 844.00
93.4881 879.00
93.5533 853.00
93.6185 836.00
93.6837 804.00
93.7489 757.00
93.8141 803.00
93.8793 843.00
93.9445 831.00
94.0097 859.00
94.0749 869.00
94.1401 897.00
94.2053 915.00
94.2705 928.00
94.3357 897.00
94.4009 927.00
94.4661 943.00
94.5313 947.00
94.5965 915.00
94.6617 948.00
94.7269 874.00
94.7921 884.00
94.8573 860.00
94.9225 834.00
94.9877 825.00
95.0529 814.00
95.1181 817.00
95.1833 792.00
95.2485 797.00
95.3137 878.00
95.3789 851.00
95.444 910.00
95.5092 968.00
95.5744 1040.00
95.6396 1091.00
95.7048 1073.00
95.77 1077.00
95.8352 1058.00
95.9004 1036.00
95.9656 1006.00
96.0308 923.00
96.096 884.00
96.1612 889.00
96.2264 880.00
96.2916 909.00
96.3568 913.00
96.422 901.00
96.4872 897.00
96.5524 953.00
96.6176 921.00
96.6828 1020.00
96.748 976.00
96.8132 970.00
96.8784 1001.00
96.9436 1063.00
97.0088 1086.00
97.074 1047.00
97.1392 1069.00
97.2044 1012.00
97.2696 1021.00
97.3348 982.00
97.4 952.00
97.4652 951.00
97.5304 904.00
97.5956 902.00
97.6608 807.00
97.726 801.00
97.7912 798.00
97.8564 791.00
97.9216 803.00
97.9868 823.00
98.052 773.00
98.1172 814.00
98.1824 792.00
98.2476 792.00
98.3128 767.00
98.378 803.00
98.4432 784.00
98.5084 773.00
98.5736 708.00
98.6388 782.00
98.704 732.00
98.7692 732.00
98.8344 777.00
98.8996 750.00
98.9648 746.00
99.03 799.00
99.0952 810.00
99.1604 851.00
99.2256 782.00
99.2908 811.00
99.356 838.00
99.4212 913.00
99.4864 866.00
99.5516 910.00
99.6168 906.00
99.682 889.00
99.7472 919.00
99.8124 935.00
99.8776 937.00
99.9428 940.00
100.008 903.00
100.073 905.00
100.095 911.00