File: data/xrd_creation/results/NSC_130.xy
9.903433 2913.00
9.968632 2810.00
10.0338 2724.00
10.099 2715.00
10.1642 2767.00
10.2294 2683.00
10.2946 2730.00
10.3598 2639.00
10.425 2702.00
10.4902 2678.00
10.5554 2680.00
10.6206 2534.00
10.6858 2623.00
10.751 2634.00
10.8162 2576.00
10.8814 2625.00
10.9466 2589.00
11.0118 2531.00
11.077 2541.00
11.1422 2531.00
11.2074 2559.00
11.2726 2466.00
11.3378 2496.00
11.403 2475.00
11.4682 2508.00
11.5334 2444.00
11.5986 2442.00
11.6638 2391.00
11.729 2392.00
11.7942 2262.00
11.8594 2451.00
11.9246 2368.00
11.9898 2273.00
12.055 2392.00
12.1202 2342.00
12.1854 2289.00
12.2506 2339.00
12.3158 2292.00
12.381 2278.00
12.4462 2261.00
12.5114 2177.00
12.5766 2301.00
12.6418 2295.00
12.707 2218.00
12.7722 2280.00
12.8374 2221.00
12.9026 2245.00
12.9678 2205.00
13.033 2190.00
13.0982 2183.00
13.1634 2152.00
13.2286 2116.00
13.2938 2166.00
13.359 2188.00
13.4242 2152.00
13.4894 2062.00
13.5546 2126.00
13.6198 2108.00
13.685 2222.00
13.7502 2077.00
13.8154 2037.00
13.8805 2157.00
13.9457 2150.00
14.0109 2175.00
14.0761 2204.00
14.1413 2291.00
14.2065 2257.00
14.2717 2445.00
14.3369 2796.00
14.4021 3258.00
14.4673 3696.00
14.5325 3602.00
14.5977 3095.00
14.6629 2820.00
14.7281 2906.00
14.7933 3279.00
14.8585 3617.00
14.9237 4053.00
14.9889 4031.00
15.0541 3799.00
15.1193 3328.00
15.1845 2921.00
15.2497 2683.00
15.3149 2521.00
15.3801 2421.00
15.4453 2036.00
15.5105 2127.00
15.5757 2081.00
15.6409 2041.00
15.7061 2016.00
15.7713 2013.00
15.8365 1991.00
15.9017 2044.00
15.9669 1942.00
16.0321 2036.00
16.0973 2042.00
16.1625 1921.00
16.2277 2019.00
16.2929 2002.00
16.3581 1978.00
16.4233 2083.00
16.4885 1952.00
16.5537 1975.00
16.6189 2014.00
16.6841 1962.00
16.7493 1959.00
16.8145 1859.00
16.8797 1863.00
16.9449 1985.00
17.0101 1980.00
17.0753 1912.00
17.1405 1972.00
17.2057 1939.00
17.2709 1902.00
17.3361 1842.00
17.4013 1900.00
17.4665 1827.00
17.5317 1934.00
17.5969 1825.00
17.6621 2033.00
17.7273 1901.00
17.7925 1947.00
17.8577 1911.00
17.9229 1871.00
17.9881 1914.00
18.0533 1841.00
18.1185 1899.00
18.1837 1814.00
18.2489 1853.00
18.3141 1847.00
18.3793 1854.00
18.4445 1860.00
18.5097 1989.00
18.5749 1992.00
18.6401 2054.00
18.7052 2145.00
18.7704 2454.00
18.8356 2740.00
18.9008 3394.00
18.966 3922.00
19.0312 2806.00
19.0964 2140.00
19.1616 1966.00
19.2268 1871.00
19.292 1884.00
19.3572 1925.00
19.4224 1876.00
19.4876 1952.00
19.5528 2002.00
19.618 2084.00
19.6832 2079.00
19.7484 2537.00
19.8136 2928.00
19.8788 3679.00
19.944 4737.00
20.0092 5630.00
20.0744 5757.00
20.1396 4873.00
20.2048 3812.00
20.27 3391.00
20.3352 3368.00
20.4004 3892.00
20.4656 4931.00
20.5308 6066.00
20.596 8159.00
20.6612 10832.00
20.7264 12600.00
20.7916 12017.00
20.8568 8857.00
20.922 6066.00
20.9872 4675.00
21.0524 4148.00
21.1176 3993.00
21.1828 3869.00
21.248 4370.00
21.3132 4817.00
21.3784 5416.00
21.4436 6063.00
21.5088 6236.00
21.574 6043.00
21.6392 5756.00
21.7044 6252.00
21.7696 7959.00
21.8348 10167.00
21.9 10058.00
21.9652 5545.00
22.0304 3470.00
22.0956 3037.00
22.1608 2787.00
22.226 2741.00
22.2912 2364.00
22.3564 2091.00
22.4216 1989.00
22.4868 1892.00
22.552 1825.00
22.6172 1904.00
22.6824 1804.00
22.7476 1897.00
22.8128 1809.00
22.878 1735.00
22.9432 1821.00
23.0084 1815.00
23.0736 1848.00
23.1388 1803.00
23.204 1838.00
23.2692 1797.00
23.3344 1746.00
23.3996 1778.00
23.4647 1828.00
23.5299 1832.00
23.5951 1879.00
23.6603 2001.00
23.7255 2209.00
23.7907 2486.00
23.8559 3080.00
23.9211 4008.00
23.9863 4325.00
24.0515 4070.00
24.1167 3360.00
24.1819 2852.00
24.2471 2669.00
24.3123 3037.00
24.3775 3958.00
24.4427 4830.00
24.5079 4346.00
24.5731 3448.00
24.6383 3525.00
24.7035 4047.00
24.7687 4752.00
24.8339 5163.00
24.8991 4860.00
24.9643 4363.00
25.0295 4118.00
25.0947 3686.00
25.1599 3403.00
25.2251 3042.00
25.2903 2884.00
25.3555 2734.00
25.4207 2613.00
25.4859 2691.00
25.5511 2632.00
25.6163 2001.00
25.6815 1740.00
25.7467 1711.00
25.8119 1696.00
25.8771 1756.00
25.9423 1744.00
26.0075 1670.00
26.0727 1671.00
26.1379 1640.00
26.2031 1653.00
26.2683 1645.00
26.3335 1661.00
26.3987 1637.00
26.4639 1719.00
26.5291 1732.00
26.5943 2003.00
26.6595 2393.00
26.7247 3259.00
26.7899 3867.00
26.8551 3023.00
26.9203 2137.00
26.9855 1764.00
27.0507 1702.00
27.1159 1705.00
27.1811 1739.00
27.2463 1622.00
27.3115 1626.00
27.3767 1602.00
27.4419 1586.00
27.5071 1572.00
27.5723 1570.00
27.6375 1576.00
27.7027 1616.00
27.7679 1458.00
27.8331 1627.00
27.8983 1596.00
27.9635 1661.00
28.0287 1685.00
28.0939 1667.00
28.1591 1595.00
28.2243 1531.00
28.2894 1629.00
28.3546 1705.00
28.4198 1704.00
28.485 1696.00
28.5502 1880.00
28.6154 2106.00
28.6806 2460.00
28.7458 3218.00
28.811 3849.00
28.8762 4044.00
28.9414 3741.00
29.0066 3201.00
29.0718 2661.00
29.137 2308.00
29.2022 2036.00
29.2674 2029.00
29.3326 2132.00
29.3978 2182.00
29.463 2405.00
29.5282 2621.00
29.5934 2927.00
29.6586 3185.00
29.7238 3646.00
29.789 4177.00
29.8542 4553.00
29.9194 4721.00
29.9846 4351.00
30.0498 4104.00
30.115 3660.00
30.1802 3241.00
30.2454 2940.00
30.3106 2675.00
30.3758 2475.00
30.441 2278.00
30.5062 2186.00
30.5714 2172.00
30.6366 2125.00
30.7018 2179.00
30.767 2101.00
30.8322 2236.00
30.8974 2839.00
30.9626 3671.00
31.0278 3281.00
31.093 2324.00
31.1582 1788.00
31.2234 1632.00
31.2886 1603.00
31.3538 1608.00
31.419 1736.00
31.4842 1811.00
31.5494 1910.00
31.6146 2248.00
31.6798 2643.00
31.745 3146.00
31.8102 3468.00
31.8754 3545.00
31.9406 3447.00
32.0058 3128.00
32.071 2687.00
32.1362 2320.00
32.2014 2040.00
32.2666 1904.00
32.3318 1906.00
32.397 1924.00
32.4622 2076.00
32.5274 2256.00
32.5926 2374.00
32.6578 2621.00
32.723 2883.00
32.7882 3197.00
32.8534 3839.00
32.9186 4336.00
32.9838 4655.00
33.0489 4680.00
33.1141 4531.00
33.1793 4215.00
33.2445 3742.00
33.3097 3334.00
33.3749 2972.00
33.4401 2755.00
33.5053 2561.00
33.5705 2466.00
33.6357 2336.00
33.7009 2061.00
33.7661 1845.00
33.8313 1968.00
33.8965 1906.00
33.9617 1877.00
34.0269 1750.00
34.0921 1584.00
34.1573 1591.00
34.2225 1659.00
34.2877 1717.00
34.3529 1620.00
34.4181 1643.00
34.4833 1622.00
34.5485 1682.00
34.6137 1513.00
34.6789 1547.00
34.7441 1540.00
34.8093 1469.00
34.8745 1459.00
34.9397 1475.00
35.0049 1456.00
35.0701 1577.00
35.1353 1484.00
35.2005 1581.00
35.2657 1615.00
35.3309 1659.00
35.3961 1835.00
35.4613 2019.00
35.5265 2332.00
35.5917 2686.00
35.6569 2886.00
35.7221 2877.00
35.7873 2699.00
35.8525 2541.00
35.9177 2617.00
35.9829 2937.00
36.0481 3140.00
36.1133 3350.00
36.1785 3154.00
36.2437 2881.00
36.3089 3218.00
36.3741 4257.00
36.4393 5125.00
36.5045 4465.00
36.5697 3219.00
36.6349 2446.00
36.7001 2333.00
36.7653 2421.00
36.8305 2591.00
36.8957 2535.00
36.9609 2777.00
37.0261 2872.00
37.0913 2706.00
37.1565 2659.00
37.2217 2694.00
37.2869 2749.00
37.3521 2745.00
37.4173 2723.00
37.4825 2776.00
37.5477 2892.00
37.6129 2711.00
37.6781 2585.00
37.7433 2223.00
37.8085 2205.00
37.8736 2093.00
37.9388 2086.00
38.004 2094.00
38.0692 2270.00
38.1344 2204.00
38.1996 1916.00
38.2648 1701.00
38.33 1578.00
38.3952 1559.00
38.4604 1552.00
38.5256 1485.00
38.5908 1511.00
38.656 1458.00
38.7212 1422.00
38.7864 1484.00
38.8516 1436.00
38.9168 1348.00
38.982 1324.00
39.0472 1299.00
39.1124 1314.00
39.1776 1378.00
39.2428 1291.00
39.308 1323.00
39.3732 1233.00
39.4384 1320.00
39.5036 1304.00
39.5688 1412.00
39.634 1525.00
39.6992 1542.00
39.7644 1526.00
39.8296 1452.00
39.8948 1417.00
39.96 1450.00
40.0252 1391.00
40.0904 1334.00
40.1556 1401.00
40.2208 1486.00
40.286 1472.00
40.3512 1507.00
40.4164 1417.00
40.4816 1478.00
40.5468 1460.00
40.612 1437.00
40.6772 1450.00
40.7424 1376.00
40.8076 1323.00
40.8728 1373.00
40.938 1316.00
41.0032 1362.00
41.0684 1310.00
41.1336 1439.00
41.1988 1369.00
41.264 1438.00
41.3292 1440.00
41.3944 1357.00
41.4596 1426.00
41.5248 1417.00
41.59 1440.00
41.6552 1632.00
41.7204 1786.00
41.7856 1909.00
41.8508 1935.00
41.916 1867.00
41.9812 1839.00
42.0464 1816.00
42.1116 1752.00
42.1768 1703.00
42.242 1641.00
42.3072 1606.00
42.3724 1587.00
42.4376 1527.00
42.5028 1454.00
42.568 1463.00
42.6332 1494.00
42.6983 1472.00
42.7635 1395.00
42.8287 1352.00
42.8939 1338.00
42.9591 1374.00
43.0243 1449.00
43.0895 1449.00
43.1547 1551.00
43.2199 1604.00
43.2851 1522.00
43.3503 1647.00
43.4155 1664.00
43.4807 1972.00
43.5459 2430.00
43.6111 3109.00
43.6763 2727.00
43.7415 2554.00
43.8067 2123.00
43.8719 1894.00
43.9371 1889.00
44.0023 1612.00
44.0675 1674.00
44.1327 1702.00
44.1979 1753.00
44.2631 1637.00
44.3283 1570.00
44.3935 1609.00
44.4587 1503.00
44.5239 1480.00
44.5891 1535.00
44.6543 1464.00
44.7195 1457.00
44.7847 1410.00
44.8499 1501.00
44.9151 1507.00
44.9803 1439.00
45.0455 1489.00
45.1107 1540.00
45.1759 1631.00
45.2411 1692.00
45.3063 1646.00
45.3715 1766.00
45.4367 1892.00
45.5019 1885.00
45.5671 2070.00
45.6323 2167.00
45.6975 2159.00
45.7627 2151.00
45.8279 1950.00
45.8931 1834.00
45.9583 1742.00
46.0235 1650.00
46.0887 1583.00
46.1539 1505.00
46.2191 1555.00
46.2843 1508.00
46.3495 1596.00
46.4147 1561.00
46.4799 1652.00
46.5451 1733.00
46.6103 1959.00
46.6755 2023.00
46.7407 2023.00
46.8059 1967.00
46.8711 2122.00
46.9363 1952.00
47.0015 2045.00
47.0667 2082.00
47.1319 2019.00
47.1971 2084.00
47.2623 2067.00
47.3275 2222.00
47.3927 2344.00
47.4579 2243.00
47.523 2141.00
47.5882 2081.00
47.6534 2120.00
47.7186 1988.00
47.7838 1899.00
47.849 1835.00
47.9142 1768.00
47.9794 1733.00
48.0446 1814.00
48.1098 1694.00
48.175 1880.00
48.2402 1981.00
48.3054 2397.00
48.3706 2853.00
48.4358 2790.00
48.501 2637.00
48.5662 2530.00
48.6314 2331.00
48.6966 2366.00
48.7618 2375.00
48.827 2256.00
48.8922 2119.00
48.9574 2083.00
49.0226 2025.00
49.0878 2039.00
49.153 2071.00
49.2182 1984.00
49.2834 1947.00
49.3486 1959.00
49.4138 1903.00
49.479 1919.00
49.5442 1896.00
49.6094 2218.00
49.6746 2640.00
49.7398 2758.00
49.805 2463.00
49.8702 2182.00
49.9354 1968.00
50.0006 1703.00
50.0658 1533.00
50.131 1653.00
50.1962 1550.00
50.2614 1530.00
50.3266 1684.00
50.3918 1684.00
50.457 1842.00
50.5222 1960.00
50.5874 1972.00
50.6526 1914.00
50.7178 1787.00
50.783 1811.00
50.8482 1716.00
50.9134 1735.00
50.9786 1796.00
51.0438 1802.00
51.109 1848.00
51.1742 1647.00
51.2394 1723.00
51.3046 1635.00
51.3698 1584.00
51.435 1530.00
51.5002 1551.00
51.5654 1577.00
51.6306 1531.00
51.6958 1663.00
51.761 1585.00
51.8262 1680.00
51.8914 1709.00
51.9566 1743.00
52.0218 1862.00
52.087 1914.00
52.1522 1854.00
52.2174 1825.00
52.2826 1786.00
52.3477 1793.00
52.4129 1713.00
52.4781 1582.00
52.5433 1634.00
52.6085 1558.00
52.6737 1448.00
52.7389 1397.00
52.8041 1476.00
52.8693 1336.00
52.9345 1448.00
52.9997 1458.00
53.0649 1421.00
53.1301 1424.00
53.1953 1428.00
53.2605 1474.00
53.3257 1406.00
53.3909 1413.00
53.4561 1444.00
53.5213 1461.00
53.5865 1510.00
53.6517 1584.00
53.7169 1626.00
53.7821 1617.00
53.8473 1681.00
53.9125 1815.00
53.9777 1926.00
54.0429 1947.00
54.1081 2056.00
54.1733 1938.00
54.2385 2141.00
54.3037 2062.00
54.3689 1917.00
54.4341 1920.00
54.4993 1806.00
54.5645 1752.00
54.6297 1770.00
54.6949 1944.00
54.7601 2277.00
54.8253 2430.00
54.8905 2357.00
54.9557 2209.00
55.0209 2048.00
55.0861 2055.00
55.1513 1904.00
55.2165 1844.00
55.2817 1701.00
55.3469 1493.00
55.4121 1495.00
55.4773 1576.00
55.5425 1513.00
55.6077 1508.00
55.6729 1607.00
55.7381 1678.00
55.8033 1631.00
55.8685 1651.00
55.9337 1786.00
55.9989 1887.00
56.0641 1984.00
56.1293 1959.00
56.1945 1939.00
56.2597 2025.00
56.3249 1974.00
56.3901 1893.00
56.4553 1831.00
56.5205 1719.00
56.5857 1681.00
56.6509 1784.00
56.7161 1571.00
56.7813 1498.00
56.8465 1541.00
56.9117 1507.00
56.9769 1559.00
57.042 1581.00
57.1073 1607.00
57.1724 1607.00
57.2376 1698.00
57.3028 1633.00
57.368 1790.00
57.4332 1780.00
57.4984 1714.00
57.5636 1791.00
57.6288 1801.00
57.694 1808.00
57.7592 1810.00
57.8244 1911.00
57.8896 1889.00
57.9548 1900.00
58.02 1891.00
58.0852 1995.00
58.1504 2123.00
58.2156 2050.00
58.2808 2449.00
58.346 2902.00
58.4112 3112.00
58.4764 3013.00
58.5416 2716.00
58.6068 2598.00
58.672 2192.00
58.7372 2065.00
58.8024 1954.00
58.8676 1894.00
58.9328 1909.00
58.998 1762.00
59.0632 1798.00
59.1284 1735.00
59.1936 1680.00
59.2588 1622.00
59.324 1690.00
59.3892 1659.00
59.4544 1702.00
59.5196 1642.00
59.5848 1605.00
59.65 1582.00
59.7152 1569.00
59.7804 1585.00
59.8456 1453.00
59.9108 1449.00
59.976 1397.00
60.0412 1399.00
60.1064 1392.00
60.1716 1416.00
60.2368 1463.00
60.302 1429.00
60.3672 1428.00
60.4324 1442.00
60.4976 1456.00
60.5628 1502.00
60.628 1625.00
60.6932 1620.00
60.7584 1626.00
60.8236 1628.00
60.8888 1623.00
60.954 1581.00
61.0192 1618.00
61.0844 1524.00
61.1496 1607.00
61.2148 1685.00
61.28 1598.00
61.3452 1647.00
61.4104 1542.00
61.4756 1602.00
61.5408 1576.00
61.606 1638.00
61.6712 1561.00
61.7364 1589.00
61.8016 1628.00
61.8667 1691.00
61.932 1679.00
61.9971 1650.00
62.0623 1672.00
62.1275 1562.00
62.1927 1558.00
62.2579 1490.00
62.3231 1505.00
62.3883 1502.00
62.4535 1451.00
62.5187 1343.00
62.5839 1480.00
62.6491 1489.00
62.7143 1499.00
62.7795 1476.00
62.8447 1531.00
62.9099 1695.00
62.9751 1656.00
63.0403 1619.00
63.1055 1825.00
63.1707 2031.00
63.2359 1971.00
63.3011 2017.00
63.3663 2019.00
63.4315 1985.00
63.4967 1931.00
63.5619 1828.00
63.6271 1883.00
63.6923 1816.00
63.7575 1787.00
63.8227 1722.00
63.8879 1742.00
63.9531 1641.00
64.0183 1829.00
64.0835 1962.00
64.1487 1986.00
64.2139 1979.00
64.2791 1949.00
64.3443 1867.00
64.4095 1857.00
64.4747 1761.00
64.5399 1737.00
64.6051 1758.00
64.6703 1794.00
64.7355 1634.00
64.8007 1674.00
64.8659 1627.00
64.9311 1566.00
64.9963 1607.00
65.0615 1523.00
65.1267 1517.00
65.1919 1566.00
65.2571 1626.00
65.3223 1701.00
65.3875 1698.00
65.4527 1653.00
65.5179 1720.00
65.5831 1674.00
65.6483 1649.00
65.7135 1643.00
65.7787 1671.00
65.8439 1703.00
65.9091 1663.00
65.9743 1632.00
66.0395 1581.00
66.1047 1567.00
66.1699 1461.00
66.2351 1547.00
66.3003 1474.00
66.3655 1486.00
66.4307 1441.00
66.4959 1513.00
66.561 1586.00
66.6263 1509.00
66.6915 1577.00
66.7566 1475.00
66.8218 1446.00
66.887 1467.00
66.9522 1571.00
67.0174 1529.00
67.0826 1547.00
67.1478 1579.00
67.213 1617.00
67.2782 1716.00
67.3434 1836.00
67.4086 1833.00
67.4738 1898.00
67.539 1836.00
67.6042 1665.00
67.6694 1657.00
67.7346 1635.00
67.7998 1545.00
67.865 1447.00
67.9302 1518.00
67.9954 1514.00
68.0606 1523.00
68.1258 1552.00
68.191 1545.00
68.2562 1561.00
68.3214 1567.00
68.3866 1662.00
68.4518 1830.00
68.517 1698.00
68.5822 1752.00
68.6474 1759.00
68.7126 1710.00
68.7778 1646.00
68.843 1557.00
68.9082 1435.00
68.9734 1423.00
69.0386 1516.00
69.1038 1399.00
69.169 1480.00
69.2342 1466.00
69.2994 1368.00
69.3646 1404.00
69.4298 1407.00
69.495 1404.00
69.5602 1472.00
69.6254 1476.00
69.6906 1532.00
69.7558 1494.00
69.821 1507.00
69.8862 1488.00
69.9514 1457.00
70.0166 1577.00
70.0818 1457.00
70.147 1506.00
70.2122 1470.00
70.2774 1399.00
70.3426 1357.00
70.4078 1400.00
70.473 1377.00
70.5382 1380.00
70.6034 1442.00
70.6686 1379.00
70.7338 1406.00
70.799 1335.00
70.8642 1342.00
70.9294 1373.00
70.9946 1317.00
71.0598 1315.00
71.125 1374.00
71.1902 1376.00
71.2554 1394.00
71.3205 1349.00
71.3858 1370.00
71.451 1336.00
71.5162 1313.00
71.5813 1339.00
71.6465 1380.00
71.7117 1315.00
71.7769 1362.00
71.8421 1306.00
71.9073 1385.00
71.9725 1438.00
72.0377 1396.00
72.1029 1450.00
72.1681 1454.00
72.2333 1453.00
72.2985 1336.00
72.3637 1348.00
72.4289 1312.00
72.4941 1334.00
72.5593 1317.00
72.6245 1362.00
72.6897 1412.00
72.7549 1450.00
72.8201 1397.00
72.8853 1326.00
72.9505 1380.00
73.0157 1270.00
73.0809 1311.00
73.1461 1257.00
73.2113 1251.00
73.2765 1240.00
73.3417 1219.00
73.4069 1230.00
73.4721 1215.00
73.5373 1167.00
73.6025 1200.00
73.6677 1210.00
73.7329 1215.00
73.7981 1287.00
73.8633 1230.00
73.9285 1182.00
73.9937 1271.00
74.0589 1249.00
74.1241 1260.00
74.1893 1199.00
74.2545 1202.00
74.3197 1217.00
74.3849 1273.00
74.4501 1259.00
74.5153 1222.00
74.5805 1313.00
74.6457 1292.00
74.7109 1301.00
74.7761 1398.00
74.8413 1324.00
74.9065 1358.00
74.9717 1396.00
75.0369 1375.00
75.1021 1501.00
75.1673 1419.00
75.2325 1388.00
75.2977 1382.00
75.3629 1365.00
75.4281 1391.00
75.4933 1261.00
75.5585 1397.00
75.6237 1412.00
75.6889 1438.00
75.7541 1486.00
75.8193 1539.00
75.8845 1498.00
75.9497 1549.00
76.0149 1490.00
76.0801 1495.00
76.1452 1471.00
76.2104 1378.00
76.2756 1406.00
76.3409 1294.00
76.406 1314.00
76.4712 1322.00
76.5364 1349.00
76.6016 1333.00
76.6668 1294.00
76.732 1309.00
76.7972 1380.00
76.8624 1413.00
76.9276 1420.00
76.9928 1357.00
77.058 1435.00
77.1232 1427.00
77.1884 1317.00
77.2536 1303.00
77.3188 1256.00
77.384 1293.00
77.4492 1251.00
77.5144 1275.00
77.5796 1299.00
77.6448 1254.00
77.71 1311.00
77.7752 1368.00
77.8404 1336.00
77.9056 1348.00
77.9708 1397.00
78.036 1415.00
78.1012 1324.00
78.1664 1353.00
78.2316 1355.00
78.2968 1385.00
78.362 1284.00
78.4272 1372.00
78.4924 1310.00
78.5576 1272.00
78.6228 1328.00
78.688 1298.00
78.7532 1304.00
78.8184 1300.00
78.8836 1311.00
78.9488 1362.00
79.014 1250.00
79.0792 1272.00
79.1444 1374.00
79.2096 1330.00
79.2748 1357.00
79.34 1347.00
79.4052 1332.00
79.4704 1377.00
79.5356 1438.00
79.6008 1448.00
79.666 1508.00
79.7312 1511.00
79.7964 1534.00
79.8616 1524.00
79.9268 1449.00
79.992 1407.00
80.0572 1453.00
80.1224 1383.00
80.1876 1404.00
80.2528 1356.00
80.318 1259.00
80.3832 1329.00
80.4484 1284.00
80.5136 1283.00
80.5788 1292.00
80.644 1204.00
80.7092 1250.00
80.7744 1190.00
80.8396 1219.00
80.9048 1213.00
80.9699 1210.00
81.0351 1217.00
81.1003 1284.00
81.1655 1285.00
81.2307 1230.00
81.2959 1194.00
81.3611 1201.00
81.4263 1217.00
81.4915 1241.00
81.5567 1257.00
81.6219 1234.00
81.6871 1255.00
81.7523 1261.00
81.8175 1197.00
81.8827 1267.00
81.9479 1293.00
82.0131 1281.00
82.0783 1318.00
82.1435 1283.00
82.2087 1323.00
82.2739 1288.00
82.3391 1238.00
82.4043 1282.00
82.4695 1328.00
82.5347 1267.00
82.5999 1367.00
82.6651 1267.00
82.7303 1376.00
82.7955 1343.00
82.8607 1298.00
82.9259 1293.00
82.9911 1326.00
83.0563 1253.00
83.1215 1296.00
83.1867 1389.00
83.2519 1249.00
83.3171 1269.00
83.3823 1257.00
83.4475 1339.00
83.5127 1297.00
83.5779 1376.00
83.6431 1354.00
83.7083 1343.00
83.7735 1341.00
83.8387 1337.00
83.9039 1369.00
83.9691 1362.00
84.0343 1411.00
84.0995 1399.00
84.1647 1382.00
84.2299 1305.00
84.2951 1344.00
84.3603 1345.00
84.4255 1265.00
84.4907 1315.00
84.5559 1332.00
84.6211 1242.00
84.6863 1301.00
84.7515 1356.00
84.8167 1362.00
84.8819 1382.00
84.9471 1396.00
85.0123 1435.00
85.0775 1431.00
85.1427 1334.00
85.2079 1356.00
85.2731 1311.00
85.3383 1270.00
85.4035 1216.00
85.4687 1300.00
85.5339 1262.00
85.5991 1341.00
85.6643 1289.00
85.7295 1253.00
85.7946 1280.00
85.8598 1272.00
85.925 1285.00
85.9903 1272.00
86.0554 1277.00
86.1206 1385.00
86.1858 1240.00
86.251 1286.00
86.3162 1205.00
86.3814 1266.00
86.4466 1251.00
86.5118 1256.00
86.577 1313.00
86.6422 1297.00
86.7074 1291.00
86.7726 1243.00
86.8378 1230.00
86.903 1190.00
86.9682 1286.00
87.0334 1245.00
87.0986 1225.00
87.1638 1296.00
87.229 1196.00
87.2942 1282.00
87.3594 1240.00
87.4246 1269.00
87.4898 1192.00
87.555 1237.00
87.6202 1226.00
87.6854 1212.00
87.7506 1214.00
87.8158 1225.00
87.881 1277.00
87.9462 1251.00
88.0114 1214.00
88.0766 1185.00
88.1418 1195.00
88.207 1231.00
88.2722 1236.00
88.3374 1175.00
88.4026 1185.00
88.4678 1247.00
88.533 1252.00
88.5982 1230.00
88.6634 1246.00
88.7286 1203.00
88.7938 1229.00
88.859 1268.00
88.9242 1279.00
88.9894 1313.00
89.0546 1341.00
89.1198 1334.00
89.185 1379.00
89.2502 1316.00
89.3154 1271.00
89.3806 1259.00
89.4458 1256.00
89.511 1242.00
89.5762 1233.00
89.6414 1225.00
89.7066 1238.00
89.7718 1268.00
89.837 1228.00
89.9022 1260.00
89.9674 1235.00
90.0326 1181.00
90.0978 1302.00
90.163 1265.00
90.2282 1224.00
90.2934 1278.00
90.3586 1347.00
90.4238 1338.00
90.489 1389.00
90.5542 1308.00
90.6193 1343.00
90.6845 1369.00
90.7497 1328.00
90.8149 1430.00
90.8801 1423.00
90.9453 1429.00
91.0105 1298.00
91.0757 1339.00
91.1409 1331.00
91.2061 1432.00
91.2713 1338.00
91.3365 1409.00
91.4017 1327.00
91.4669 1337.00
91.5321 1330.00
91.5973 1340.00
91.6625 1321.00
91.7277 1323.00
91.7929 1379.00
91.8581 1326.00
91.9233 1385.00
91.9885 1458.00
92.0537 1471.00
92.1189 1530.00
92.1841 1408.00
92.2493 1373.00
92.3145 1319.00
92.3797 1334.00
92.4449 1323.00
92.5101 1277.00
92.5753 1248.00
92.6405 1213.00
92.7057 1203.00
92.7709 1249.00
92.8361 1281.00
92.9013 1284.00
92.9665 1239.00
93.0317 1206.00
93.0969 1190.00
93.1621 1251.00
93.2273 1311.00
93.2925 1282.00
93.3577 1284.00
93.4229 1206.00
93.4881 1241.00
93.5533 1292.00
93.6185 1212.00
93.6837 1327.00
93.7489 1270.00
93.8141 1257.00
93.8793 1231.00
93.9445 1215.00
94.0097 1210.00
94.0749 1298.00
94.1401 1279.00
94.2053 1234.00
94.2705 1278.00
94.3357 1299.00
94.4009 1121.00
94.4661 1262.00
94.5313 1209.00
94.5965 1204.00
94.6617 1237.00
94.7269 1223.00
94.7921 1223.00
94.8573 1286.00
94.9225 1288.00
94.9877 1246.00
95.0529 1242.00
95.1181 1319.00
95.1833 1218.00
95.2485 1339.00
95.3137 1316.00
95.3789 1299.00
95.444 1283.00
95.5092 1335.00
95.5744 1296.00
95.6396 1258.00
95.7048 1326.00
95.77 1281.00
95.8352 1236.00
95.9004 1285.00
95.9656 1292.00
96.0308 1231.00
96.096 1216.00
96.1612 1201.00
96.2264 1251.00
96.2916 1246.00
96.3568 1236.00
96.422 1233.00
96.4872 1267.00
96.5524 1270.00
96.6176 1224.00
96.6828 1238.00
96.748 1269.00
96.8132 1227.00
96.8784 1266.00
96.9436 1295.00
97.0088 1268.00
97.074 1273.00
97.1392 1296.00
97.2044 1272.00
97.2696 1343.00
97.3348 1353.00
97.4 1246.00
97.4652 1231.00
97.5304 1323.00
97.5956 1327.00
97.6608 1310.00
97.726 1252.00
97.7912 1284.00
97.8564 1277.00
97.9216 1262.00
97.9868 1267.00
98.052 1292.00
98.1172 1330.00
98.1824 1238.00
98.2476 1279.00
98.3128 1256.00
98.378 1312.00
98.4432 1235.00
98.5084 1273.00
98.5736 1304.00
98.6388 1246.00
98.704 1229.00
98.7692 1266.00
98.8344 1266.00
98.8996 1246.00
98.9648 1154.00
99.03 1223.00
99.0952 1204.00
99.1604 1266.00
99.2256 1242.00
99.2908 1119.00
99.356 1180.00
99.4212 1162.00
99.4864 1174.00
99.5516 1196.00
99.6168 1239.00
99.682 1180.00
99.7472 1171.00
99.8124 1196.00
99.8776 1285.00
99.9428 1153.00
100.008 1237.00
100.073 1291.00
100.095 1234.00