File: data/xrd_creation/results/NSC_164.xy
9.903433 2551.00
9.968632 2541.00
10.0338 2581.00
10.099 2513.00
10.1642 2607.00
10.2294 2471.00
10.2946 2518.00
10.3598 2451.00
10.425 2501.00
10.4902 2471.00
10.5554 2440.00
10.6206 2453.00
10.6858 2335.00
10.751 2353.00
10.8162 2362.00
10.8814 2428.00
10.9466 2366.00
11.0118 2377.00
11.077 2253.00
11.1422 2327.00
11.2074 2243.00
11.2726 2195.00
11.3378 2075.00
11.403 2248.00
11.4682 2160.00
11.5334 2170.00
11.5986 2216.00
11.6638 2091.00
11.729 2112.00
11.7942 2179.00
11.8594 1985.00
11.9246 2051.00
11.9898 2036.00
12.055 2056.00
12.1202 2097.00
12.1854 2025.00
12.2506 1947.00
12.3158 1892.00
12.381 1937.00
12.4462 1938.00
12.5114 1935.00
12.5766 1860.00
12.6418 1936.00
12.707 1828.00
12.7722 1858.00
12.8374 1837.00
12.9026 1902.00
12.9678 1835.00
13.033 1855.00
13.0982 1877.00
13.1634 1821.00
13.2286 1846.00
13.2938 1858.00
13.359 1785.00
13.4242 1729.00
13.4894 1817.00
13.5546 1760.00
13.6198 1807.00
13.685 1780.00
13.7502 1756.00
13.8154 1797.00
13.8805 1758.00
13.9457 1817.00
14.0109 1650.00
14.0761 1699.00
14.1413 1776.00
14.2065 1813.00
14.2717 1818.00
14.3369 1797.00
14.4021 1888.00
14.4673 1942.00
14.5325 2310.00
14.5977 2692.00
14.6629 3467.00
14.7281 3759.00
14.7933 2840.00
14.8585 2048.00
14.9237 1772.00
14.9889 1821.00
15.0541 1700.00
15.1193 1747.00
15.1845 1690.00
15.2497 1677.00
15.3149 1617.00
15.3801 1738.00
15.4453 1707.00
15.5105 1606.00
15.5757 1649.00
15.6409 1568.00
15.7061 1695.00
15.7713 1676.00
15.8365 1603.00
15.9017 1588.00
15.9669 1627.00
16.0321 1580.00
16.0973 1627.00
16.1625 1495.00
16.2277 1604.00
16.2929 1576.00
16.3581 1585.00
16.4233 1679.00
16.4885 1597.00
16.5537 1575.00
16.6189 1599.00
16.6841 1591.00
16.7493 1556.00
16.8145 1566.00
16.8797 1465.00
16.9449 1514.00
17.0101 1542.00
17.0753 1539.00
17.1405 1511.00
17.2057 1452.00
17.2709 1505.00
17.3361 1478.00
17.4013 1433.00
17.4665 1437.00
17.5317 1530.00
17.5969 1506.00
17.6621 1531.00
17.7273 1539.00
17.7925 1487.00
17.8577 1550.00
17.9229 1428.00
17.9881 1489.00
18.0533 1497.00
18.1185 1485.00
18.1837 1445.00
18.2489 1379.00
18.3141 1336.00
18.3793 1458.00
18.4445 1451.00
18.5097 1455.00
18.5749 1468.00
18.6401 1354.00
18.7052 1422.00
18.7704 1378.00
18.8356 1329.00
18.9008 1389.00
18.966 1468.00
19.0312 1389.00
19.0964 1483.00
19.1616 1370.00
19.2268 1365.00
19.292 1427.00
19.3572 1352.00
19.4224 1345.00
19.4876 1390.00
19.5528 1420.00
19.618 1462.00
19.6832 1487.00
19.7484 1547.00
19.8136 1504.00
19.8788 1608.00
19.944 1739.00
20.0092 1989.00
20.0744 2448.00
20.1396 3459.00
20.2048 5052.00
20.27 7036.00
20.3352 8066.00
20.4004 6162.00
20.4656 3417.00
20.5308 2258.00
20.596 1975.00
20.6612 1850.00
20.7264 2162.00
20.7916 2554.00
20.8568 3252.00
20.922 4761.00
20.9872 6751.00
21.0524 9183.00
21.1176 9762.00
21.1828 7004.00
21.248 3889.00
21.3132 2358.00
21.3784 1836.00
21.4436 1708.00
21.5088 1606.00
21.574 1432.00
21.6392 1457.00
21.7044 1422.00
21.7696 1492.00
21.8348 1394.00
21.9 1376.00
21.9652 1390.00
22.0304 1402.00
22.0956 1339.00
22.1608 1396.00
22.226 1428.00
22.2912 1328.00
22.3564 1313.00
22.4216 1301.00
22.4868 1285.00
22.552 1294.00
22.6172 1309.00
22.6824 1278.00
22.7476 1261.00
22.8128 1207.00
22.878 1249.00
22.9432 1337.00
23.0084 1248.00
23.0736 1230.00
23.1388 1210.00
23.204 1260.00
23.2692 1267.00
23.3344 1303.00
23.3996 1260.00
23.4647 1238.00
23.5299 1268.00
23.5951 1319.00
23.6603 1309.00
23.7255 1377.00
23.7907 1287.00
23.8559 1452.00
23.9211 1539.00
23.9863 1713.00
24.0515 2069.00
24.1167 2849.00
24.1819 4356.00
24.2471 6840.00
24.3123 9799.00
24.3775 10266.00
24.4427 7772.00
24.5079 4626.00
24.5731 2614.00
24.6383 1928.00
24.7035 1564.00
24.7687 1361.00
24.8339 1402.00
24.8991 1317.00
24.9643 1266.00
25.0295 1347.00
25.0947 1233.00
25.1599 1315.00
25.2251 1333.00
25.2903 1237.00
25.3555 1249.00
25.4207 1291.00
25.4859 1214.00
25.5511 1306.00
25.6163 1252.00
25.6815 1261.00
25.7467 1232.00
25.8119 1255.00
25.8771 1251.00
25.9423 1322.00
26.0075 1449.00
26.0727 1636.00
26.1379 2071.00
26.2031 2885.00
26.2683 3501.00
26.3335 3011.00
26.3987 2155.00
26.4639 1585.00
26.5291 1321.00
26.5943 1302.00
26.6595 1192.00
26.7247 1246.00
26.7899 1187.00
26.8551 1159.00
26.9203 1132.00
26.9855 1194.00
27.0507 1175.00
27.1159 1166.00
27.1811 1108.00
27.2463 1131.00
27.3115 1110.00
27.3767 1128.00
27.4419 1097.00
27.5071 1078.00
27.5723 1143.00
27.6375 1087.00
27.7027 1113.00
27.7679 1007.00
27.8331 1079.00
27.8983 1026.00
27.9635 1045.00
28.0287 1098.00
28.0939 1074.00
28.1591 1117.00
28.2243 1070.00
28.2894 1100.00
28.3546 1115.00
28.4198 1182.00
28.485 1202.00
28.5502 1218.00
28.6154 1153.00
28.6806 1183.00
28.7458 1148.00
28.811 1229.00
28.8762 1302.00
28.9414 1434.00
29.0066 1721.00
29.0718 2233.00
29.137 3111.00
29.2022 4664.00
29.2674 5915.00
29.3326 6217.00
29.3978 4658.00
29.463 3220.00
29.5282 2064.00
29.5934 1596.00
29.6586 1225.00
29.7238 1166.00
29.789 1139.00
29.8542 1153.00
29.9194 1101.00
29.9846 1114.00
30.0498 1120.00
30.115 1047.00
30.1802 1047.00
30.2454 1027.00
30.3106 1129.00
30.3758 1086.00
30.441 1074.00
30.5062 1034.00
30.5714 1081.00
30.6366 1070.00
30.7018 1071.00
30.767 1011.00
30.8322 1013.00
30.8974 1033.00
30.9626 1020.00
31.0278 997.00
31.093 1021.00
31.1582 1014.00
31.2234 1018.00
31.2886 1088.00
31.3538 1067.00
31.419 1069.00
31.4842 1054.00
31.5494 1103.00
31.6146 1102.00
31.6798 1176.00
31.745 1267.00
31.8102 1271.00
31.8754 1387.00
31.9406 1618.00
32.0058 1988.00
32.071 2962.00
32.1362 4388.00
32.2014 6429.00
32.2666 8471.00
32.3318 8930.00
32.397 7519.00
32.4622 5766.00
32.5274 4071.00
32.5926 3005.00
32.6578 2299.00
32.723 1790.00
32.7882 1496.00
32.8534 1268.00
32.9186 1124.00
32.9838 1080.00
33.0489 1062.00
33.1141 1005.00
33.1793 1108.00
33.2445 1058.00
33.3097 1012.00
33.3749 1059.00
33.4401 1030.00
33.5053 1096.00
33.5705 1038.00
33.6357 1034.00
33.7009 960.00
33.7661 941.00
33.8313 948.00
33.8965 1026.00
33.9617 956.00
34.0269 989.00
34.0921 946.00
34.1573 1061.00
34.2225 984.00
34.2877 1018.00
34.3529 931.00
34.4181 963.00
34.4833 951.00
34.5485 1006.00
34.6137 1021.00
34.6789 1135.00
34.7441 1148.00
34.8093 1096.00
34.8745 1204.00
34.9397 1126.00
35.0049 1032.00
35.0701 960.00
35.1353 979.00
35.2005 993.00
35.2657 954.00
35.3309 928.00
35.3961 970.00
35.4613 966.00
35.5265 974.00
35.5917 992.00
35.6569 942.00
35.7221 982.00
35.7873 983.00
35.8525 1035.00
35.9177 1143.00
35.9829 1335.00
36.0481 1610.00
36.1133 2102.00
36.1785 2390.00
36.2437 2684.00
36.3089 2551.00
36.3741 2480.00
36.4393 2303.00
36.5045 2708.00
36.5697 3101.00
36.6349 3734.00
36.7001 3997.00
36.7653 3592.00
36.8305 2914.00
36.8957 2105.00
36.9609 1623.00
37.0261 1302.00
37.0913 1161.00
37.1565 1092.00
37.2217 1012.00
37.2869 922.00
37.3521 959.00
37.4173 941.00
37.4825 864.00
37.5477 943.00
37.6129 882.00
37.6781 906.00
37.7433 828.00
37.8085 862.00
37.8736 887.00
37.9388 851.00
38.004 840.00
38.0692 871.00
38.1344 941.00
38.1996 949.00
38.2648 1138.00
38.33 1267.00
38.3952 1370.00
38.4604 1231.00
38.5256 1092.00
38.5908 907.00
38.656 923.00
38.7212 854.00
38.7864 856.00
38.8516 875.00
38.9168 878.00
38.982 843.00
39.0472 857.00
39.1124 831.00
39.1776 878.00
39.2428 877.00
39.308 901.00
39.3732 908.00
39.4384 888.00
39.5036 868.00
39.5688 892.00
39.634 982.00
39.6992 991.00
39.7644 1062.00
39.8296 1056.00
39.8948 960.00
39.96 1030.00
40.0252 856.00
40.0904 852.00
40.1556 822.00
40.2208 859.00
40.286 855.00
40.3512 801.00
40.4164 841.00
40.4816 866.00
40.5468 886.00
40.612 947.00
40.6772 1015.00
40.7424 1051.00
40.8076 1105.00
40.8728 1238.00
40.938 1304.00
41.0032 1297.00
41.0684 1130.00
41.1336 1082.00
41.1988 970.00
41.264 859.00
41.3292 869.00
41.3944 853.00
41.4596 875.00
41.5248 829.00
41.59 848.00
41.6552 865.00
41.7204 878.00
41.7856 846.00
41.8508 859.00
41.916 991.00
41.9812 1018.00
42.0464 1139.00
42.1116 1155.00
42.1768 1142.00
42.242 1074.00
42.3072 1179.00
42.3724 1084.00
42.4376 1287.00
42.5028 1395.00
42.568 1535.00
42.6332 1592.00
42.6983 1481.00
42.7635 1346.00
42.8287 1204.00
42.8939 1151.00
42.9591 1016.00
43.0243 981.00
43.0895 884.00
43.1547 937.00
43.2199 977.00
43.2851 993.00
43.3503 968.00
43.4155 951.00
43.4807 1013.00
43.5459 971.00
43.6111 863.00
43.6763 856.00
43.7415 834.00
43.8067 885.00
43.8719 916.00
43.9371 879.00
44.0023 925.00
44.0675 950.00
44.1327 1075.00
44.1979 1243.00
44.2631 1432.00
44.3283 1643.00
44.3935 1764.00
44.4587 1677.00
44.5239 1564.00
44.5891 1275.00
44.6543 1195.00
44.7195 1055.00
44.7847 955.00
44.8499 942.00
44.9151 931.00
44.9803 879.00
45.0455 940.00
45.1107 987.00
45.1759 954.00
45.2411 936.00
45.3063 946.00
45.3715 846.00
45.4367 914.00
45.5019 884.00
45.5671 881.00
45.6323 881.00
45.6975 755.00
45.7627 868.00
45.8279 857.00
45.8931 910.00
45.9583 1027.00
46.0235 1043.00
46.0887 1236.00
46.1539 1530.00
46.2191 1783.00
46.2843 2176.00
46.3495 2287.00
46.4147 2132.00
46.4799 2035.00
46.5451 1651.00
46.6103 1399.00
46.6755 1154.00
46.7407 975.00
46.8059 960.00
46.8711 974.00
46.9363 906.00
47.0015 913.00
47.0667 832.00
47.1319 973.00
47.1971 1098.00
47.2623 1225.00
47.3275 1489.00
47.3927 1488.00
47.4579 1671.00
47.523 1583.00
47.5882 1525.00
47.6534 1319.00
47.7186 1263.00
47.7838 1218.00
47.849 1097.00
47.9142 1247.00
47.9794 1306.00
48.0446 1266.00
48.1098 1292.00
48.175 1225.00
48.2402 1202.00
48.3054 1012.00
48.3706 947.00
48.4358 944.00
48.501 953.00
48.5662 926.00
48.6314 923.00
48.6966 1037.00
48.7618 893.00
48.827 973.00
48.8922 1077.00
48.9574 1126.00
49.0226 1304.00
49.0878 1365.00
49.153 1325.00
49.2182 1582.00
49.2834 1828.00
49.3486 2225.00
49.4138 2595.00
49.479 2799.00
49.5442 2996.00
49.6094 2714.00
49.6746 2381.00
49.7398 1906.00
49.805 1618.00
49.8702 1357.00
49.9354 1183.00
50.0006 1085.00
50.0658 1084.00
50.131 1076.00
50.1962 1118.00
50.2614 1073.00
50.3266 1041.00
50.3918 1024.00
50.457 906.00
50.5222 849.00
50.5874 777.00
50.6526 877.00
50.7178 780.00
50.783 809.00
50.8482 747.00
50.9134 797.00
50.9786 787.00
51.0438 795.00
51.109 760.00
51.1742 790.00
51.2394 838.00
51.3046 820.00
51.3698 789.00
51.435 783.00
51.5002 799.00
51.5654 788.00
51.6306 715.00
51.6958 784.00
51.761 773.00
51.8262 757.00
51.8914 766.00
51.9566 839.00
52.0218 790.00
52.087 830.00
52.1522 776.00
52.2174 809.00
52.2826 826.00
52.3477 861.00
52.4129 933.00
52.4781 968.00
52.5433 1069.00
52.6085 1226.00
52.6737 1448.00
52.7389 1596.00
52.8041 1877.00
52.8693 2072.00
52.9345 2082.00
52.9997 1967.00
53.0649 1849.00
53.1301 1689.00
53.1953 1543.00
53.2605 1375.00
53.3257 1250.00
53.3909 1281.00
53.4561 1172.00
53.5213 1204.00
53.5865 1064.00
53.6517 1076.00
53.7169 972.00
53.7821 958.00
53.8473 859.00
53.9125 837.00
53.9777 793.00
54.0429 788.00
54.1081 830.00
54.1733 827.00
54.2385 822.00
54.3037 779.00
54.3689 805.00
54.4341 793.00
54.4993 723.00
54.5645 754.00
54.6297 718.00
54.6949 745.00
54.7601 811.00
54.8253 776.00
54.8905 730.00
54.9557 753.00
55.0209 741.00
55.0861 779.00
55.1513 718.00
55.2165 771.00
55.2817 800.00
55.3469 776.00
55.4121 773.00
55.4773 834.00
55.5425 873.00
55.6077 877.00
55.6729 954.00
55.7381 1058.00
55.8033 1236.00
55.8685 1219.00
55.9337 1353.00
55.9989 1279.00
56.0641 1295.00
56.1293 1211.00
56.1945 1185.00
56.2597 1039.00
56.3249 986.00
56.3901 938.00
56.4553 960.00
56.5205 1003.00
56.5857 1070.00
56.6509 1225.00
56.7161 1356.00
56.7813 1537.00
56.8465 1723.00
56.9117 1964.00
56.9769 2104.00
57.042 2279.00
57.1073 2370.00
57.1724 2500.00
57.2376 2358.00
57.3028 2193.00
57.368 2083.00
57.4332 1850.00
57.4984 1592.00
57.5636 1332.00
57.6288 1185.00
57.694 1034.00
57.7592 938.00
57.8244 932.00
57.8896 811.00
57.9548 827.00
58.02 878.00
58.0852 818.00
58.1504 844.00
58.2156 810.00
58.2808 818.00
58.346 924.00
58.4112 904.00
58.4764 955.00
58.5416 969.00
58.6068 955.00
58.672 888.00
58.7372 1019.00
58.8024 968.00
58.8676 1015.00
58.9328 917.00
58.998 910.00
59.0632 1012.00
59.1284 986.00
59.1936 975.00
59.2588 894.00
59.324 922.00
59.3892 812.00
59.4544 846.00
59.5196 839.00
59.5848 874.00
59.65 918.00
59.7152 937.00
59.7804 983.00
59.8456 1030.00
59.9108 1079.00
59.976 1019.00
60.0412 1049.00
60.1064 1081.00
60.1716 1085.00
60.2368 1105.00
60.302 1104.00
60.3672 1071.00
60.4324 1024.00
60.4976 1030.00
60.5628 950.00
60.628 892.00
60.6932 803.00
60.7584 825.00
60.8236 771.00
60.8888 771.00
60.954 731.00
61.0192 756.00
61.0844 729.00
61.1496 765.00
61.2148 786.00
61.28 859.00
61.3452 904.00
61.4104 926.00
61.4756 1046.00
61.5408 1143.00
61.606 1327.00
61.6712 1334.00
61.7364 1477.00
61.8016 1490.00
61.8667 1499.00
61.932 1429.00
61.9971 1343.00
62.0623 1251.00
62.1275 1195.00
62.1927 1049.00
62.2579 942.00
62.3231 988.00
62.3883 914.00
62.4535 1002.00
62.5187 947.00
62.5839 1028.00
62.6491 1072.00
62.7143 1154.00
62.7795 1372.00
62.8447 1517.00
62.9099 1469.00
62.9751 1599.00
63.0403 1623.00
63.1055 1566.00
63.1707 1444.00
63.2359 1409.00
63.3011 1244.00
63.3663 1077.00
63.4315 1031.00
63.4967 874.00
63.5619 904.00
63.6271 923.00
63.6923 891.00
63.7575 908.00
63.8227 940.00
63.8879 1000.00
63.9531 1025.00
64.0183 1147.00
64.0835 1207.00
64.1487 1220.00
64.2139 1200.00
64.2791 1235.00
64.3443 1139.00
64.4095 1060.00
64.4747 988.00
64.5399 966.00
64.6051 989.00
64.6703 949.00
64.7355 862.00
64.8007 874.00
64.8659 873.00
64.9311 878.00
64.9963 913.00
65.0615 918.00
65.1267 922.00
65.1919 1027.00
65.2571 1039.00
65.3223 1082.00
65.3875 1181.00
65.4527 1146.00
65.5179 1301.00
65.5831 1222.00
65.6483 1288.00
65.7135 1345.00
65.7787 1342.00
65.8439 1412.00
65.9091 1352.00
65.9743 1336.00
66.0395 1303.00
66.1047 1263.00
66.1699 1211.00
66.2351 1159.00
66.3003 1012.00
66.3655 1068.00
66.4307 1000.00
66.4959 855.00
66.561 810.00
66.6263 812.00
66.6915 820.00
66.7566 814.00
66.8218 769.00
66.887 814.00
66.9522 867.00
67.0174 909.00
67.0826 926.00
67.1478 926.00
67.213 1031.00
67.2782 964.00
67.3434 957.00
67.4086 914.00
67.4738 865.00
67.539 801.00
67.6042 826.00
67.6694 897.00
67.7346 860.00
67.7998 846.00
67.865 881.00
67.9302 924.00
67.9954 987.00
68.0606 1065.00
68.1258 1124.00
68.191 1165.00
68.2562 1138.00
68.3214 1146.00
68.3866 956.00
68.4518 980.00
68.517 887.00
68.5822 919.00
68.6474 872.00
68.7126 787.00
68.7778 843.00
68.843 796.00
68.9082 705.00
68.9734 746.00
69.0386 785.00
69.1038 783.00
69.169 800.00
69.2342 825.00
69.2994 913.00
69.3646 970.00
69.4298 914.00
69.495 974.00
69.5602 945.00
69.6254 967.00
69.6906 1066.00
69.7558 1020.00
69.821 982.00
69.8862 989.00
69.9514 942.00
70.0166 931.00
70.0818 893.00
70.147 876.00
70.2122 862.00
70.2774 813.00
70.3426 868.00
70.4078 896.00
70.473 831.00
70.5382 816.00
70.6034 788.00
70.6686 803.00
70.7338 804.00
70.799 757.00
70.8642 805.00
70.9294 854.00
70.9946 865.00
71.0598 837.00
71.125 862.00
71.1902 909.00
71.2554 861.00
71.3205 844.00
71.3858 838.00
71.451 776.00
71.5162 710.00
71.5813 731.00
71.6465 698.00
71.7117 664.00
71.7769 666.00
71.8421 677.00
71.9073 699.00
71.9725 731.00
72.0377 669.00
72.1029 713.00
72.1681 704.00
72.2333 665.00
72.2985 722.00
72.3637 676.00
72.4289 636.00
72.4941 680.00
72.5593 683.00
72.6245 696.00
72.6897 685.00
72.7549 752.00
72.8201 786.00
72.8853 845.00
72.9505 809.00
73.0157 811.00
73.0809 912.00
73.1461 954.00
73.2113 1054.00
73.2765 1002.00
73.3417 1050.00
73.4069 1014.00
73.4721 986.00
73.5373 1017.00
73.6025 952.00
73.6677 930.00
73.7329 878.00
73.7981 842.00
73.8633 820.00
73.9285 806.00
73.9937 774.00
74.0589 785.00
74.1241 794.00
74.1893 689.00
74.2545 724.00
74.3197 730.00
74.3849 719.00
74.4501 793.00
74.5153 689.00
74.5805 729.00
74.6457 705.00
74.7109 706.00
74.7761 720.00
74.8413 716.00
74.9065 710.00
74.9717 667.00
75.0369 709.00
75.1021 713.00
75.1673 632.00
75.2325 644.00
75.2977 648.00
75.3629 658.00
75.4281 668.00
75.4933 679.00
75.5585 725.00
75.6237 720.00
75.6889 784.00
75.7541 816.00
75.8193 889.00
75.8845 905.00
75.9497 925.00
76.0149 952.00
76.0801 955.00
76.1452 930.00
76.2104 949.00
76.2756 888.00
76.3409 893.00
76.406 852.00
76.4712 773.00
76.5364 826.00
76.6016 788.00
76.6668 818.00
76.732 856.00
76.7972 805.00
76.8624 836.00
76.9276 816.00
76.9928 843.00
77.058 783.00
77.1232 885.00
77.1884 928.00
77.2536 905.00
77.3188 959.00
77.384 1022.00
77.4492 1093.00
77.5144 1065.00
77.5796 1147.00
77.6448 1062.00
77.71 1061.00
77.7752 1050.00
77.8404 997.00
77.9056 960.00
77.9708 927.00
78.036 858.00
78.1012 857.00
78.1664 873.00
78.2316 795.00
78.2968 798.00
78.362 739.00
78.4272 758.00
78.4924 772.00
78.5576 756.00
78.6228 756.00
78.688 700.00
78.7532 662.00
78.8184 708.00
78.8836 705.00
78.9488 687.00
79.014 669.00
79.0792 683.00
79.1444 745.00
79.2096 738.00
79.2748 761.00
79.34 674.00
79.4052 762.00
79.4704 699.00
79.5356 784.00
79.6008 746.00
79.666 741.00
79.7312 746.00
79.7964 746.00
79.8616 731.00
79.9268 765.00
79.992 683.00
80.0572 723.00
80.1224 745.00
80.1876 769.00
80.2528 706.00
80.318 686.00
80.3832 669.00
80.4484 726.00
80.5136 699.00
80.5788 766.00
80.644 729.00
80.7092 715.00
80.7744 770.00
80.8396 744.00
80.9048 794.00
80.9699 783.00
81.0351 836.00
81.1003 856.00
81.1655 866.00
81.2307 925.00
81.2959 883.00
81.3611 903.00
81.4263 901.00
81.4915 986.00
81.5567 921.00
81.6219 874.00
81.6871 831.00
81.7523 850.00
81.8175 746.00
81.8827 748.00
81.9479 748.00
82.0131 739.00
82.0783 723.00
82.1435 699.00
82.2087 758.00
82.2739 758.00
82.3391 746.00
82.4043 718.00
82.4695 725.00
82.5347 750.00
82.5999 727.00
82.6651 739.00
82.7303 696.00
82.7955 637.00
82.8607 729.00
82.9259 688.00
82.9911 693.00
83.0563 764.00
83.1215 736.00
83.1867 750.00
83.2519 837.00
83.3171 787.00
83.3823 706.00
83.4475 832.00
83.5127 839.00
83.5779 891.00
83.6431 872.00
83.7083 910.00
83.7735 909.00
83.8387 795.00
83.9039 803.00
83.9691 837.00
84.0343 827.00
84.0995 713.00
84.1647 705.00
84.2299 694.00
84.2951 729.00
84.3603 705.00
84.4255 704.00
84.4907 692.00
84.5559 677.00
84.6211 667.00
84.6863 628.00
84.7515 630.00
84.8167 615.00
84.8819 658.00
84.9471 669.00
85.0123 653.00
85.0775 639.00
85.1427 660.00
85.2079 662.00
85.2731 729.00
85.3383 712.00
85.4035 710.00
85.4687 656.00
85.5339 671.00
85.5991 713.00
85.6643 732.00
85.7295 728.00
85.7946 760.00
85.8598 796.00
85.925 758.00
85.9903 811.00
86.0554 868.00
86.1206 816.00
86.1858 845.00
86.251 841.00
86.3162 842.00
86.3814 791.00
86.4466 837.00
86.5118 788.00
86.577 772.00
86.6422 777.00
86.7074 763.00
86.7726 721.00
86.8378 761.00
86.903 745.00
86.9682 714.00
87.0334 744.00
87.0986 737.00
87.1638 692.00
87.229 699.00
87.2942 745.00
87.3594 745.00
87.4246 800.00
87.4898 781.00
87.555 773.00
87.6202 865.00
87.6854 789.00
87.7506 845.00
87.8158 807.00
87.881 789.00
87.9462 801.00
88.0114 809.00
88.0766 803.00
88.1418 816.00
88.207 843.00
88.2722 847.00
88.3374 775.00
88.4026 865.00
88.4678 792.00
88.533 743.00
88.5982 774.00
88.6634 865.00
88.7286 841.00
88.7938 776.00
88.859 811.00
88.9242 802.00
88.9894 819.00
89.0546 819.00
89.1198 819.00
89.185 812.00
89.2502 799.00
89.3154 744.00
89.3806 779.00
89.4458 792.00
89.511 734.00
89.5762 754.00
89.6414 695.00
89.7066 716.00
89.7718 791.00
89.837 753.00
89.9022 708.00
89.9674 711.00
90.0326 740.00
90.0978 688.00
90.163 722.00
90.2282 703.00
90.2934 688.00
90.3586 729.00
90.4238 686.00
90.489 725.00
90.5542 707.00
90.6193 693.00
90.6845 687.00
90.7497 692.00
90.8149 715.00
90.8801 730.00
90.9453 713.00
91.0105 743.00
91.0757 729.00
91.1409 724.00
91.2061 720.00
91.2713 796.00
91.3365 721.00
91.4017 711.00
91.4669 670.00
91.5321 668.00
91.5973 727.00
91.6625 718.00
91.7277 775.00
91.7929 728.00
91.8581 760.00
91.9233 776.00
91.9885 728.00
92.0537 784.00
92.1189 783.00
92.1841 859.00
92.2493 796.00
92.3145 886.00
92.3797 853.00
92.4449 898.00
92.5101 870.00
92.5753 951.00
92.6405 970.00
92.7057 911.00
92.7709 911.00
92.8361 939.00
92.9013 877.00
92.9665 819.00
93.0317 867.00
93.0969 823.00
93.1621 786.00
93.2273 805.00
93.2925 787.00
93.3577 742.00
93.4229 707.00
93.4881 719.00
93.5533 736.00
93.6185 666.00
93.6837 650.00
93.7489 680.00
93.8141 668.00
93.8793 654.00
93.9445 733.00
94.0097 691.00
94.0749 640.00
94.1401 729.00
94.2053 733.00
94.2705 697.00
94.3357 725.00
94.4009 763.00
94.4661 787.00
94.5313 781.00
94.5965 749.00
94.6617 807.00
94.7269 809.00
94.7921 795.00
94.8573 770.00
94.9225 768.00
94.9877 782.00
95.0529 841.00
95.1181 772.00
95.1833 750.00
95.2485 790.00
95.3137 741.00
95.3789 766.00
95.444 703.00
95.5092 710.00
95.5744 732.00
95.6396 734.00
95.7048 742.00
95.77 734.00
95.8352 691.00
95.9004 677.00
95.9656 719.00
96.0308 721.00
96.096 715.00
96.1612 691.00
96.2264 694.00
96.2916 699.00
96.3568 709.00
96.422 680.00
96.4872 713.00
96.5524 669.00
96.6176 704.00
96.6828 722.00
96.748 734.00
96.8132 712.00
96.8784 782.00
96.9436 793.00
97.0088 779.00
97.074 758.00
97.1392 773.00
97.2044 793.00
97.2696 793.00
97.3348 747.00
97.4 800.00
97.4652 774.00
97.5304 740.00
97.5956 806.00
97.6608 802.00
97.726 763.00
97.7912 787.00
97.8564 824.00
97.9216 772.00
97.9868 774.00
98.052 808.00
98.1172 799.00
98.1824 811.00
98.2476 811.00
98.3128 789.00
98.378 820.00
98.4432 810.00
98.5084 814.00
98.5736 814.00
98.6388 793.00
98.704 862.00
98.7692 802.00
98.8344 817.00
98.8996 777.00
98.9648 814.00
99.03 806.00
99.0952 780.00
99.1604 816.00
99.2256 798.00
99.2908 805.00
99.356 770.00
99.4212 837.00
99.4864 806.00
99.5516 853.00
99.6168 826.00
99.682 775.00
99.7472 861.00
99.8124 876.00
99.8776 854.00
99.9428 849.00
100.008 810.00
100.073 790.00
100.095 798.00