File: data/xrd_creation/results/NSC_15.xy
9.903433 2830.00
9.968632 2900.00
10.0338 2863.00
10.099 2812.00
10.1642 2808.00
10.2294 2710.00
10.2946 2804.00
10.3598 2799.00
10.425 2649.00
10.4902 2604.00
10.5554 2830.00
10.6206 2642.00
10.6858 2690.00
10.751 2656.00
10.8162 2573.00
10.8814 2554.00
10.9466 2533.00
11.0118 2580.00
11.077 2395.00
11.1422 2472.00
11.2074 2524.00
11.2726 2444.00
11.3378 2399.00
11.403 2454.00
11.4682 2279.00
11.5334 2440.00
11.5986 2379.00
11.6638 2334.00
11.729 2334.00
11.7942 2300.00
11.8594 2255.00
11.9246 2321.00
11.9898 2346.00
12.055 2300.00
12.1202 2248.00
12.1854 2228.00
12.2506 2194.00
12.3158 2247.00
12.381 2161.00
12.4462 2152.00
12.5114 2197.00
12.5766 2145.00
12.6418 2133.00
12.707 2158.00
12.7722 2061.00
12.8374 1996.00
12.9026 2097.00
12.9678 2106.00
13.033 2055.00
13.0982 2010.00
13.1634 2099.00
13.2286 2000.00
13.2938 2027.00
13.359 2034.00
13.4242 2026.00
13.4894 2172.00
13.5546 2053.00
13.6198 2011.00
13.685 2017.00
13.7502 2041.00
13.8154 2021.00
13.8805 1932.00
13.9457 1952.00
14.0109 1954.00
14.0761 2043.00
14.1413 1963.00
14.2065 1936.00
14.2717 1919.00
14.3369 1988.00
14.4021 2004.00
14.4673 1978.00
14.5325 2008.00
14.5977 2250.00
14.6629 2155.00
14.7281 2080.00
14.7933 2030.00
14.8585 1924.00
14.9237 1877.00
14.9889 1833.00
15.0541 1934.00
15.1193 1944.00
15.1845 1803.00
15.2497 1892.00
15.3149 1861.00
15.3801 1811.00
15.4453 1790.00
15.5105 1781.00
15.5757 1707.00
15.6409 1756.00
15.7061 1719.00
15.7713 1803.00
15.8365 1792.00
15.9017 1791.00
15.9669 1802.00
16.0321 1755.00
16.0973 1728.00
16.1625 1825.00
16.2277 1789.00
16.2929 1847.00
16.3581 1836.00
16.4233 1932.00
16.4885 2077.00
16.5537 2337.00
16.6189 2666.00
16.6841 2862.00
16.7493 2619.00
16.8145 2276.00
16.8797 1940.00
16.9449 1771.00
17.0101 1706.00
17.0753 1735.00
17.1405 1737.00
17.2057 1717.00
17.2709 1799.00
17.3361 1836.00
17.4013 1849.00
17.4665 1880.00
17.5317 1767.00
17.5969 1646.00
17.6621 1674.00
17.7273 1670.00
17.7925 1733.00
17.8577 1698.00
17.9229 1771.00
17.9881 1755.00
18.0533 1752.00
18.1185 1688.00
18.1837 1635.00
18.2489 1639.00
18.3141 1577.00
18.3793 1562.00
18.4445 1533.00
18.5097 1646.00
18.5749 1539.00
18.6401 1510.00
18.7052 1570.00
18.7704 1586.00
18.8356 1547.00
18.9008 1567.00
18.966 1554.00
19.0312 1566.00
19.0964 1680.00
19.1616 1817.00
19.2268 2057.00
19.292 2225.00
19.3572 2142.00
19.4224 2061.00
19.4876 1853.00
19.5528 1766.00
19.618 1641.00
19.6832 1577.00
19.7484 1532.00
19.8136 1569.00
19.8788 1686.00
19.944 1598.00
20.0092 1640.00
20.0744 1579.00
20.1396 1590.00
20.2048 1644.00
20.27 1528.00
20.3352 1517.00
20.4004 1627.00
20.4656 1697.00
20.5308 1815.00
20.596 2289.00
20.6612 2618.00
20.7264 3111.00
20.7916 3446.00
20.8568 3729.00
20.922 3625.00
20.9872 3360.00
21.0524 2836.00
21.1176 2573.00
21.1828 2425.00
21.248 2434.00
21.3132 2067.00
21.3784 1890.00
21.4436 1584.00
21.5088 1594.00
21.574 1568.00
21.6392 1532.00
21.7044 1446.00
21.7696 1493.00
21.8348 1483.00
21.9 1456.00
21.9652 1569.00
22.0304 1575.00
22.0956 1770.00
22.1608 2007.00
22.226 2262.00
22.2912 2467.00
22.3564 2335.00
22.4216 2049.00
22.4868 1756.00
22.552 1533.00
22.6172 1553.00
22.6824 1531.00
22.7476 1487.00
22.8128 1521.00
22.878 1471.00
22.9432 1444.00
23.0084 1565.00
23.0736 1475.00
23.1388 1399.00
23.204 1423.00
23.2692 1455.00
23.3344 1615.00
23.3996 1782.00
23.4647 1976.00
23.5299 1816.00
23.5951 1643.00
23.6603 1459.00
23.7255 1474.00
23.7907 1539.00
23.8559 1713.00
23.9211 2029.00
23.9863 2218.00
24.0515 2218.00
24.1167 1951.00
24.1819 1683.00
24.2471 1703.00
24.3123 1783.00
24.3775 1943.00
24.4427 2083.00
24.5079 2001.00
24.5731 2037.00
24.6383 1879.00
24.7035 1687.00
24.7687 1476.00
24.8339 1361.00
24.8991 1301.00
24.9643 1283.00
25.0295 1230.00
25.0947 1195.00
25.1599 1208.00
25.2251 1225.00
25.2903 1244.00
25.3555 1265.00
25.4207 1266.00
25.4859 1298.00
25.5511 1281.00
25.6163 1354.00
25.6815 1406.00
25.7467 1339.00
25.8119 1181.00
25.8771 1235.00
25.9423 1213.00
26.0075 1214.00
26.0727 1196.00
26.1379 1166.00
26.2031 1192.00
26.2683 1280.00
26.3335 1183.00
26.3987 1069.00
26.4639 1252.00
26.5291 1206.00
26.5943 1188.00
26.6595 1265.00
26.7247 1255.00
26.7899 1412.00
26.8551 1526.00
26.9203 1578.00
26.9855 1630.00
27.0507 1451.00
27.1159 1415.00
27.1811 1357.00
27.2463 1288.00
27.3115 1276.00
27.3767 1273.00
27.4419 1334.00
27.5071 1389.00
27.5723 1371.00
27.6375 1468.00
27.7027 1526.00
27.7679 1588.00
27.8331 1720.00
27.8983 2150.00
27.9635 3041.00
28.0287 4493.00
28.0939 6242.00
28.1591 6567.00
28.2243 5710.00
28.2894 4074.00
28.3546 2783.00
28.4198 2058.00
28.485 1771.00
28.5502 1512.00
28.6154 1519.00
28.6806 1353.00
28.7458 1256.00
28.811 1237.00
28.8762 1260.00
28.9414 1159.00
29.0066 1156.00
29.0718 1220.00
29.137 1232.00
29.2022 1169.00
29.2674 1184.00
29.3326 1205.00
29.3978 1211.00
29.463 1394.00
29.5282 1691.00
29.5934 2066.00
29.6586 2330.00
29.7238 2230.00
29.789 1909.00
29.8542 1692.00
29.9194 1379.00
29.9846 1212.00
30.0498 1189.00
30.115 1143.00
30.1802 1119.00
30.2454 1238.00
30.3106 1166.00
30.3758 1252.00
30.441 1417.00
30.5062 1680.00
30.5714 1878.00
30.6366 2007.00
30.7018 2029.00
30.767 1906.00
30.8322 1912.00
30.8974 1813.00
30.9626 1658.00
31.0278 1546.00
31.093 1602.00
31.1582 1753.00
31.2234 2219.00
31.2886 3134.00
31.3538 4260.00
31.419 4879.00
31.4842 4318.00
31.5494 3115.00
31.6146 2225.00
31.6798 1635.00
31.745 1375.00
31.8102 1344.00
31.8754 1421.00
31.9406 1404.00
32.0058 1514.00
32.071 1499.00
32.1362 1319.00
32.2014 1238.00
32.2666 1151.00
32.3318 1130.00
32.397 1080.00
32.4622 1150.00
32.5274 1210.00
32.5926 1267.00
32.6578 1551.00
32.723 1886.00
32.7882 2319.00
32.8534 2637.00
32.9186 2708.00
32.9838 2594.00
33.0489 2040.00
33.1141 1880.00
33.1793 1563.00
33.2445 1438.00
33.3097 1421.00
33.3749 1491.00
33.4401 1555.00
33.5053 1433.00
33.5705 1463.00
33.6357 1585.00
33.7009 1793.00
33.7661 1985.00
33.8313 2099.00
33.8965 2230.00
33.9617 2344.00
34.0269 2526.00
34.0921 2804.00
34.1573 2732.00
34.2225 2442.00
34.2877 2205.00
34.3529 2083.00
34.4181 1900.00
34.4833 1651.00
34.5485 1445.00
34.6137 1257.00
34.6789 1120.00
34.7441 1067.00
34.8093 1115.00
34.8745 1134.00
34.9397 1142.00
35.0049 1274.00
35.0701 1471.00
35.1353 1601.00
35.2005 1724.00
35.2657 1897.00
35.3309 1798.00
35.3961 1567.00
35.4613 1313.00
35.5265 1330.00
35.5917 1324.00
35.6569 1247.00
35.7221 1207.00
35.7873 1240.00
35.8525 1161.00
35.9177 1151.00
35.9829 1129.00
36.0481 1028.00
36.1133 936.00
36.1785 939.00
36.2437 925.00
36.3089 911.00
36.3741 942.00
36.4393 949.00
36.5045 1057.00
36.5697 1104.00
36.6349 1183.00
36.7001 1071.00
36.7653 971.00
36.8305 1005.00
36.8957 1010.00
36.9609 1010.00
37.0261 1100.00
37.0913 1080.00
37.1565 1015.00
37.2217 921.00
37.2869 837.00
37.3521 848.00
37.4173 892.00
37.4825 901.00
37.5477 858.00
37.6129 891.00
37.6781 976.00
37.7433 984.00
37.8085 979.00
37.8736 955.00
37.9388 923.00
38.004 994.00
38.0692 943.00
38.1344 953.00
38.1996 954.00
38.2648 914.00
38.33 929.00
38.3952 905.00
38.4604 1087.00
38.5256 1072.00
38.5908 1114.00
38.656 1026.00
38.7212 1025.00
38.7864 930.00
38.8516 839.00
38.9168 831.00
38.982 824.00
39.0472 796.00
39.1124 737.00
39.1776 840.00
39.2428 882.00
39.308 951.00
39.3732 969.00
39.4384 1002.00
39.5036 982.00
39.5688 958.00
39.634 957.00
39.6992 929.00
39.7644 910.00
39.8296 872.00
39.8948 863.00
39.96 817.00
40.0252 902.00
40.0904 889.00
40.1556 931.00
40.2208 862.00
40.286 920.00
40.3512 901.00
40.4164 932.00
40.4816 1048.00
40.5468 1185.00
40.612 1350.00
40.6772 1522.00
40.7424 1498.00
40.8076 1486.00
40.8728 1432.00
40.938 1399.00
41.0032 1373.00
41.0684 1284.00
41.1336 1280.00
41.1988 1147.00
41.264 1193.00
41.3292 1255.00
41.3944 1338.00
41.4596 1218.00
41.5248 1183.00
41.59 1031.00
41.6552 925.00
41.7204 918.00
41.7856 878.00
41.8508 802.00
41.916 762.00
41.9812 804.00
42.0464 805.00
42.1116 758.00
42.1768 813.00
42.242 776.00
42.3072 814.00
42.3724 820.00
42.4376 840.00
42.5028 935.00
42.568 883.00
42.6332 994.00
42.6983 934.00
42.7635 878.00
42.8287 828.00
42.8939 847.00
42.9591 890.00
43.0243 893.00
43.0895 903.00
43.1547 915.00
43.2199 968.00
43.2851 1026.00
43.3503 935.00
43.4155 919.00
43.4807 862.00
43.5459 833.00
43.6111 840.00
43.6763 867.00
43.7415 897.00
43.8067 881.00
43.8719 852.00
43.9371 968.00
44.0023 929.00
44.0675 940.00
44.1327 925.00
44.1979 867.00
44.2631 910.00
44.3283 968.00
44.3935 935.00
44.4587 920.00
44.5239 1028.00
44.5891 1037.00
44.6543 1065.00
44.7195 1129.00
44.7847 1206.00
44.8499 1200.00
44.9151 1120.00
44.9803 1018.00
45.0455 965.00
45.1107 889.00
45.1759 921.00
45.2411 968.00
45.3063 998.00
45.3715 1069.00
45.4367 1169.00
45.5019 1234.00
45.5671 1163.00
45.6323 1029.00
45.6975 1000.00
45.7627 878.00
45.8279 836.00
45.8931 818.00
45.9583 858.00
46.0235 862.00
46.0887 822.00
46.1539 830.00
46.2191 868.00
46.2843 860.00
46.3495 834.00
46.4147 908.00
46.4799 911.00
46.5451 927.00
46.6103 903.00
46.6755 851.00
46.7407 831.00
46.8059 804.00
46.8711 826.00
46.9363 832.00
47.0015 848.00
47.0667 903.00
47.1319 805.00
47.1971 852.00
47.2623 836.00
47.3275 804.00
47.3927 874.00
47.4579 860.00
47.523 770.00
47.5882 839.00
47.6534 876.00
47.7186 947.00
47.7838 1023.00
47.849 1020.00
47.9142 1043.00
47.9794 1030.00
48.0446 1096.00
48.1098 991.00
48.175 1043.00
48.2402 948.00
48.3054 971.00
48.3706 857.00
48.4358 897.00
48.501 849.00
48.5662 891.00
48.6314 946.00
48.6966 966.00
48.7618 883.00
48.827 916.00
48.8922 924.00
48.9574 976.00
49.0226 1022.00
49.0878 1194.00
49.153 1462.00
49.2182 1616.00
49.2834 1597.00
49.3486 1501.00
49.4138 1177.00
49.479 1024.00
49.5442 903.00
49.6094 833.00
49.6746 765.00
49.7398 822.00
49.805 778.00
49.8702 885.00
49.9354 1112.00
50.0006 1348.00
50.0658 1739.00
50.131 1809.00
50.1962 1776.00
50.2614 1558.00
50.3266 1352.00
50.3918 1338.00
50.457 1346.00
50.5222 1384.00
50.5874 1418.00
50.6526 1306.00
50.7178 1131.00
50.783 1089.00
50.8482 946.00
50.9134 885.00
50.9786 815.00
51.0438 886.00
51.109 954.00
51.1742 957.00
51.2394 957.00
51.3046 878.00
51.3698 868.00
51.435 854.00
51.5002 791.00
51.5654 745.00
51.6306 744.00
51.6958 765.00
51.761 822.00
51.8262 820.00
51.8914 819.00
51.9566 824.00
52.0218 828.00
52.087 781.00
52.1522 762.00
52.2174 803.00
52.2826 791.00
52.3477 752.00
52.4129 715.00
52.4781 704.00
52.5433 686.00
52.6085 754.00
52.6737 724.00
52.7389 762.00
52.8041 798.00
52.8693 766.00
52.9345 727.00
52.9997 739.00
53.0649 760.00
53.1301 771.00
53.1953 760.00
53.2605 783.00
53.3257 757.00
53.3909 770.00
53.4561 732.00
53.5213 765.00
53.5865 824.00
53.6517 834.00
53.7169 969.00
53.7821 984.00
53.8473 1105.00
53.9125 1234.00
53.9777 1364.00
54.0429 1344.00
54.1081 1341.00
54.1733 1121.00
54.2385 1007.00
54.3037 892.00
54.3689 827.00
54.4341 769.00
54.4993 745.00
54.5645 768.00
54.6297 737.00
54.6949 785.00
54.7601 736.00
54.8253 799.00
54.8905 791.00
54.9557 776.00
55.0209 870.00
55.0861 874.00
55.1513 977.00
55.2165 1178.00
55.2817 1226.00
55.3469 1276.00
55.4121 1320.00
55.4773 1298.00
55.5425 1247.00
55.6077 1153.00
55.6729 1078.00
55.7381 1084.00
55.8033 1094.00
55.8685 1006.00
55.9337 1028.00
55.9989 1022.00
56.0641 935.00
56.1293 820.00
56.1945 918.00
56.2597 812.00
56.3249 863.00
56.3901 841.00
56.4553 788.00
56.5205 746.00
56.5857 788.00
56.6509 840.00
56.7161 866.00
56.7813 806.00
56.8465 807.00
56.9117 839.00
56.9769 853.00
57.042 953.00
57.1073 974.00
57.1724 1052.00
57.2376 1070.00
57.3028 959.00
57.368 1048.00
57.4332 961.00
57.4984 841.00
57.5636 814.00
57.6288 828.00
57.694 744.00
57.7592 888.00
57.8244 868.00
57.8896 906.00
57.9548 905.00
58.02 970.00
58.0852 929.00
58.1504 973.00
58.2156 942.00
58.2808 945.00
58.346 923.00
58.4112 829.00
58.4764 869.00
58.5416 898.00
58.6068 866.00
58.672 905.00
58.7372 929.00
58.8024 870.00
58.8676 819.00
58.9328 812.00
58.998 747.00
59.0632 688.00
59.1284 668.00
59.1936 737.00
59.2588 706.00
59.324 699.00
59.3892 665.00
59.4544 694.00
59.5196 796.00
59.5848 817.00
59.65 845.00
59.7152 997.00
59.7804 1115.00
59.8456 1249.00
59.9108 1196.00
59.976 1257.00
60.0412 1100.00
60.1064 1103.00
60.1716 1000.00
60.2368 927.00
60.302 882.00
60.3672 828.00
60.4324 792.00
60.4976 811.00
60.5628 820.00
60.628 713.00
60.6932 699.00
60.7584 724.00
60.8236 672.00
60.8888 660.00
60.954 636.00
61.0192 686.00
61.0844 807.00
61.1496 888.00
61.2148 985.00
61.28 931.00
61.3452 923.00
61.4104 840.00
61.4756 878.00
61.5408 843.00
61.606 843.00
61.6712 807.00
61.7364 825.00
61.8016 864.00
61.8667 889.00
61.932 928.00
61.9971 891.00
62.0623 910.00
62.1275 885.00
62.1927 925.00
62.2579 820.00
62.3231 836.00
62.3883 869.00
62.4535 900.00
62.5187 811.00
62.5839 902.00
62.6491 846.00
62.7143 978.00
62.7795 1040.00
62.8447 1036.00
62.9099 972.00
62.9751 918.00
63.0403 807.00
63.1055 700.00
63.1707 642.00
63.2359 596.00
63.3011 583.00
63.3663 612.00
63.4315 618.00
63.4967 596.00
63.5619 553.00
63.6271 615.00
63.6923 575.00
63.7575 600.00
63.8227 602.00
63.8879 571.00
63.9531 623.00
64.0183 707.00
64.0835 675.00
64.1487 779.00
64.2139 741.00
64.2791 773.00
64.3443 702.00
64.4095 702.00
64.4747 667.00
64.5399 662.00
64.6051 598.00
64.6703 583.00
64.7355 587.00
64.8007 631.00
64.8659 610.00
64.9311 630.00
64.9963 629.00
65.0615 686.00
65.1267 624.00
65.1919 696.00
65.2571 680.00
65.3223 729.00
65.3875 718.00
65.4527 841.00
65.5179 807.00
65.5831 866.00
65.6483 915.00
65.7135 935.00
65.7787 898.00
65.8439 870.00
65.9091 830.00
65.9743 806.00
66.0395 808.00
66.1047 717.00
66.1699 759.00
66.2351 714.00
66.3003 653.00
66.3655 596.00
66.4307 604.00
66.4959 607.00
66.561 554.00
66.6263 585.00
66.6915 584.00
66.7566 572.00
66.8218 588.00
66.887 573.00
66.9522 567.00
67.0174 568.00
67.0826 558.00
67.1478 552.00
67.213 539.00
67.2782 578.00
67.3434 565.00
67.4086 523.00
67.4738 542.00
67.539 490.00
67.6042 556.00
67.6694 576.00
67.7346 569.00
67.7998 523.00
67.865 554.00
67.9302 552.00
67.9954 492.00
68.0606 500.00
68.1258 521.00
68.191 555.00
68.2562 499.00
68.3214 534.00
68.3866 498.00
68.4518 529.00
68.517 529.00
68.5822 549.00
68.6474 572.00
68.7126 549.00
68.7778 537.00
68.843 652.00
68.9082 689.00
68.9734 622.00
69.0386 635.00
69.1038 614.00
69.169 633.00
69.2342 564.00
69.2994 616.00
69.3646 558.00
69.4298 582.00
69.495 594.00
69.5602 545.00
69.6254 606.00
69.6906 583.00
69.7558 554.00
69.821 584.00
69.8862 530.00
69.9514 507.00
70.0166 567.00
70.0818 533.00
70.147 618.00
70.2122 550.00
70.2774 576.00
70.3426 581.00
70.4078 539.00
70.473 605.00
70.5382 504.00
70.6034 573.00
70.6686 546.00
70.7338 519.00
70.799 544.00
70.8642 573.00
70.9294 646.00
70.9946 706.00
71.0598 693.00
71.125 751.00
71.1902 723.00
71.2554 770.00
71.3205 765.00
71.3858 702.00
71.451 680.00
71.5162 672.00
71.5813 637.00
71.6465 603.00
71.7117 595.00
71.7769 613.00
71.8421 601.00
71.9073 624.00
71.9725 668.00
72.0377 690.00
72.1029 647.00
72.1681 605.00
72.2333 655.00
72.2985 608.00
72.3637 645.00
72.4289 650.00
72.4941 613.00
72.5593 610.00
72.6245 601.00
72.6897 593.00
72.7549 578.00
72.8201 566.00
72.8853 542.00
72.9505 560.00
73.0157 506.00
73.0809 550.00
73.1461 496.00
73.2113 499.00
73.2765 514.00
73.3417 518.00
73.4069 515.00
73.4721 527.00
73.5373 538.00
73.6025 488.00
73.6677 540.00
73.7329 554.00
73.7981 515.00
73.8633 532.00
73.9285 548.00
73.9937 551.00
74.0589 478.00
74.1241 522.00
74.1893 508.00
74.2545 544.00
74.3197 535.00
74.3849 543.00
74.4501 565.00
74.5153 560.00
74.5805 576.00
74.6457 557.00
74.7109 544.00
74.7761 559.00
74.8413 580.00
74.9065 574.00
74.9717 601.00
75.0369 600.00
75.1021 610.00
75.1673 625.00
75.2325 630.00
75.2977 597.00
75.3629 628.00
75.4281 595.00
75.4933 551.00
75.5585 535.00
75.6237 497.00
75.6889 534.00
75.7541 508.00
75.8193 516.00
75.8845 524.00
75.9497 525.00
76.0149 539.00
76.0801 577.00
76.1452 540.00
76.2104 474.00
76.2756 563.00
76.3409 558.00
76.406 573.00
76.4712 596.00
76.5364 587.00
76.6016 567.00
76.6668 572.00
76.732 572.00
76.7972 624.00
76.8624 575.00
76.9276 529.00
76.9928 610.00
77.058 540.00
77.1232 561.00
77.1884 560.00
77.2536 550.00
77.3188 569.00
77.384 546.00
77.4492 549.00
77.5144 512.00
77.5796 570.00
77.6448 558.00
77.71 566.00
77.7752 577.00
77.8404 525.00
77.9056 520.00
77.9708 558.00
78.036 549.00
78.1012 592.00
78.1664 541.00
78.2316 501.00
78.2968 509.00
78.362 511.00
78.4272 484.00
78.4924 522.00
78.5576 479.00
78.6228 508.00
78.688 499.00
78.7532 515.00
78.8184 612.00
78.8836 571.00
78.9488 577.00
79.014 646.00
79.0792 524.00
79.1444 614.00
79.2096 536.00
79.2748 540.00
79.34 519.00
79.4052 565.00
79.4704 548.00
79.5356 564.00
79.6008 522.00
79.666 499.00
79.7312 466.00
79.7964 528.00
79.8616 517.00
79.9268 481.00
79.992 549.00
80.0572 496.00
80.1224 499.00
80.1876 527.00
80.2528 502.00
80.318 514.00
80.3832 555.00
80.4484 510.00
80.5136 571.00
80.5788 524.00
80.644 483.00
80.7092 511.00
80.7744 526.00
80.8396 499.00
80.9048 504.00
80.9699 527.00
81.0351 483.00
81.1003 478.00
81.1655 474.00
81.2307 539.00
81.2959 550.00
81.3611 517.00
81.4263 554.00
81.4915 536.00
81.5567 594.00
81.6219 585.00
81.6871 606.00
81.7523 597.00
81.8175 591.00
81.8827 556.00
81.9479 592.00
82.0131 574.00
82.0783 558.00
82.1435 575.00
82.2087 532.00
82.2739 569.00
82.3391 602.00
82.4043 608.00
82.4695 603.00
82.5347 575.00
82.5999 610.00
82.6651 576.00
82.7303 625.00
82.7955 564.00
82.8607 588.00
82.9259 583.00
82.9911 616.00
83.0563 623.00
83.1215 595.00
83.1867 545.00
83.2519 593.00
83.3171 622.00
83.3823 558.00
83.4475 587.00
83.5127 550.00
83.5779 573.00
83.6431 571.00
83.7083 606.00
83.7735 550.00
83.8387 635.00
83.9039 569.00
83.9691 589.00
84.0343 631.00
84.0995 586.00
84.1647 590.00
84.2299 611.00
84.2951 552.00
84.3603 548.00
84.4255 529.00
84.4907 526.00
84.5559 549.00
84.6211 533.00
84.6863 506.00
84.7515 515.00
84.8167 523.00
84.8819 526.00
84.9471 539.00
85.0123 512.00
85.0775 527.00
85.1427 497.00
85.2079 554.00
85.2731 499.00
85.3383 523.00
85.4035 486.00
85.4687 462.00
85.5339 465.00
85.5991 493.00
85.6643 498.00
85.7295 525.00
85.7946 464.00
85.8598 537.00
85.925 519.00
85.9903 518.00
86.0554 516.00
86.1206 552.00
86.1858 532.00
86.251 490.00
86.3162 494.00
86.3814 553.00
86.4466 493.00
86.5118 526.00
86.577 530.00
86.6422 510.00
86.7074 506.00
86.7726 496.00
86.8378 492.00
86.903 476.00
86.9682 492.00
87.0334 481.00
87.0986 460.00
87.1638 481.00
87.229 487.00
87.2942 506.00
87.3594 546.00
87.4246 581.00
87.4898 517.00
87.555 503.00
87.6202 547.00
87.6854 580.00
87.7506 547.00
87.8158 574.00
87.881 551.00
87.9462 547.00
88.0114 570.00
88.0766 645.00
88.1418 609.00
88.207 581.00
88.2722 560.00
88.3374 564.00
88.4026 580.00
88.4678 586.00
88.533 555.00
88.5982 557.00
88.6634 577.00
88.7286 531.00
88.7938 464.00
88.859 546.00
88.9242 507.00
88.9894 461.00
89.0546 512.00
89.1198 487.00
89.185 543.00
89.2502 487.00
89.3154 497.00
89.3806 485.00
89.4458 488.00
89.511 466.00
89.5762 562.00
89.6414 515.00
89.7066 554.00
89.7718 595.00
89.837 530.00
89.9022 603.00
89.9674 563.00
90.0326 528.00
90.0978 551.00
90.163 545.00
90.2282 516.00
90.2934 504.00
90.3586 520.00
90.4238 566.00
90.489 500.00
90.5542 525.00
90.6193 526.00
90.6845 521.00
90.7497 479.00
90.8149 500.00
90.8801 485.00
90.9453 472.00
91.0105 513.00
91.0757 490.00
91.1409 497.00
91.2061 471.00
91.2713 467.00
91.3365 531.00
91.4017 490.00
91.4669 498.00
91.5321 479.00
91.5973 513.00
91.6625 446.00
91.7277 541.00
91.7929 475.00
91.8581 442.00
91.9233 442.00
91.9885 439.00
92.0537 440.00
92.1189 496.00
92.1841 440.00
92.2493 416.00
92.3145 468.00
92.3797 478.00
92.4449 442.00
92.5101 430.00
92.5753 443.00
92.6405 465.00
92.7057 434.00
92.7709 477.00
92.8361 490.00
92.9013 448.00
92.9665 477.00
93.0317 468.00
93.0969 444.00
93.1621 473.00
93.2273 483.00
93.2925 470.00
93.3577 455.00
93.4229 442.00
93.4881 492.00
93.5533 467.00
93.6185 504.00
93.6837 498.00
93.7489 517.00
93.8141 516.00
93.8793 536.00
93.9445 538.00
94.0097 478.00
94.0749 522.00
94.1401 509.00
94.2053 483.00
94.2705 482.00
94.3357 492.00
94.4009 485.00
94.4661 464.00
94.5313 491.00
94.5965 518.00
94.6617 486.00
94.7269 504.00
94.7921 458.00
94.8573 521.00
94.9225 508.00
94.9877 522.00
95.0529 526.00
95.1181 517.00
95.1833 496.00
95.2485 529.00
95.3137 506.00
95.3789 517.00
95.444 506.00
95.5092 548.00
95.5744 520.00
95.6396 482.00
95.7048 515.00
95.77 475.00
95.8352 524.00
95.9004 505.00
95.9656 486.00
96.0308 505.00
96.096 506.00
96.1612 558.00
96.2264 535.00
96.2916 514.00
96.3568 539.00
96.422 574.00
96.4872 615.00
96.5524 580.00
96.6176 559.00
96.6828 597.00
96.748 624.00
96.8132 576.00
96.8784 568.00
96.9436 613.00
97.0088 562.00
97.074 572.00
97.1392 538.00
97.2044 523.00
97.2696 515.00
97.3348 494.00
97.4 553.00
97.4652 492.00
97.5304 450.00
97.5956 456.00
97.6608 428.00
97.726 463.00
97.7912 448.00
97.8564 448.00
97.9216 479.00
97.9868 491.00
98.052 470.00
98.1172 475.00
98.1824 441.00
98.2476 472.00
98.3128 489.00
98.378 499.00
98.4432 483.00
98.5084 529.00
98.5736 498.00
98.6388 519.00
98.704 484.00
98.7692 533.00
98.8344 498.00
98.8996 526.00
98.9648 522.00
99.03 570.00
99.0952 544.00
99.1604 534.00
99.2256 599.00
99.2908 524.00
99.356 509.00
99.4212 584.00
99.4864 511.00
99.5516 512.00
99.6168 489.00
99.682 501.00
99.7472 526.00
99.8124 505.00
99.8776 461.00
99.9428 512.00
100.008 545.00
100.073 478.00
100.095 475.00