File: data/xrd_creation/results/NSC_107.xy
9.903433 2722.00
9.968632 2799.00
10.0338 2697.00
10.099 2611.00
10.1642 2665.00
10.2294 2517.00
10.2946 2533.00
10.3598 2554.00
10.425 2513.00
10.4902 2478.00
10.5554 2525.00
10.6206 2464.00
10.6858 2477.00
10.751 2514.00
10.8162 2448.00
10.8814 2418.00
10.9466 2428.00
11.0118 2413.00
11.077 2383.00
11.1422 2264.00
11.2074 2363.00
11.2726 2257.00
11.3378 2191.00
11.403 2215.00
11.4682 2215.00
11.5334 2251.00
11.5986 2214.00
11.6638 2135.00
11.729 2270.00
11.7942 2165.00
11.8594 2157.00
11.9246 2115.00
11.9898 2029.00
12.055 2101.00
12.1202 2014.00
12.1854 2077.00
12.2506 2048.00
12.3158 2038.00
12.381 2136.00
12.4462 1929.00
12.5114 2040.00
12.5766 1912.00
12.6418 1967.00
12.707 1960.00
12.7722 1976.00
12.8374 1933.00
12.9026 1917.00
12.9678 1848.00
13.033 1849.00
13.0982 1924.00
13.1634 1912.00
13.2286 1819.00
13.2938 1853.00
13.359 1795.00
13.4242 1850.00
13.4894 1816.00
13.5546 1787.00
13.6198 1769.00
13.685 1804.00
13.7502 1793.00
13.8154 1830.00
13.8805 1730.00
13.9457 1818.00
14.0109 1817.00
14.0761 1829.00
14.1413 1804.00
14.2065 1903.00
14.2717 1991.00
14.3369 2178.00
14.4021 2257.00
14.4673 2419.00
14.5325 2654.00
14.5977 3212.00
14.6629 4183.00
14.7281 3320.00
14.7933 2034.00
14.8585 1882.00
14.9237 1745.00
14.9889 1641.00
15.0541 1690.00
15.1193 1709.00
15.1845 1708.00
15.2497 1733.00
15.3149 1674.00
15.3801 1578.00
15.4453 1660.00
15.5105 1545.00
15.5757 1564.00
15.6409 1653.00
15.7061 1588.00
15.7713 1613.00
15.8365 1620.00
15.9017 1602.00
15.9669 1603.00
16.0321 1515.00
16.0973 1567.00
16.1625 1524.00
16.2277 1568.00
16.2929 1542.00
16.3581 1628.00
16.4233 1544.00
16.4885 1552.00
16.5537 1511.00
16.6189 1551.00
16.6841 1514.00
16.7493 1504.00
16.8145 1493.00
16.8797 1531.00
16.9449 1581.00
17.0101 1494.00
17.0753 1456.00
17.1405 1509.00
17.2057 1508.00
17.2709 1522.00
17.3361 1520.00
17.4013 1480.00
17.4665 1431.00
17.5317 1463.00
17.5969 1524.00
17.6621 1528.00
17.7273 1428.00
17.7925 1455.00
17.8577 1413.00
17.9229 1433.00
17.9881 1418.00
18.0533 1343.00
18.1185 1418.00
18.1837 1456.00
18.2489 1470.00
18.3141 1380.00
18.3793 1358.00
18.4445 1409.00
18.5097 1426.00
18.5749 1330.00
18.6401 1367.00
18.7052 1391.00
18.7704 1427.00
18.8356 1368.00
18.9008 1393.00
18.966 1284.00
19.0312 1373.00
19.0964 1355.00
19.1616 1383.00
19.2268 1337.00
19.292 1361.00
19.3572 1438.00
19.4224 1440.00
19.4876 1481.00
19.5528 1528.00
19.618 1577.00
19.6832 1674.00
19.7484 1996.00
19.8136 2230.00
19.8788 2642.00
19.944 3291.00
20.0092 4666.00
20.0744 7826.00
20.1396 12350.00
20.2048 8724.00
20.27 2992.00
20.3352 1854.00
20.4004 1661.00
20.4656 1637.00
20.5308 1581.00
20.596 1613.00
20.6612 1662.00
20.7264 1749.00
20.7916 2094.00
20.8568 2556.00
20.922 3115.00
20.9872 4042.00
21.0524 6132.00
21.1176 10044.00
21.1828 14785.00
21.248 9034.00
21.3132 2951.00
21.3784 1911.00
21.4436 1615.00
21.5088 1560.00
21.574 1426.00
21.6392 1397.00
21.7044 1482.00
21.7696 1312.00
21.8348 1284.00
21.9 1316.00
21.9652 1316.00
22.0304 1381.00
22.0956 1336.00
22.1608 1302.00
22.226 1202.00
22.2912 1226.00
22.3564 1208.00
22.4216 1225.00
22.4868 1170.00
22.552 1190.00
22.6172 1185.00
22.6824 1175.00
22.7476 1107.00
22.8128 1128.00
22.878 1237.00
22.9432 1163.00
23.0084 1167.00
23.0736 1175.00
23.1388 1147.00
23.204 1158.00
23.2692 1184.00
23.3344 1170.00
23.3996 1169.00
23.4647 1115.00
23.5299 1206.00
23.5951 1161.00
23.6603 1213.00
23.7255 1211.00
23.7907 1256.00
23.8559 1330.00
23.9211 1417.00
23.9863 1651.00
24.0515 1809.00
24.1167 2191.00
24.1819 2952.00
24.2471 4725.00
24.3123 8018.00
24.3775 7979.00
24.4427 3585.00
24.5079 1730.00
24.5731 1364.00
24.6383 1306.00
24.7035 1183.00
24.7687 1138.00
24.8339 1093.00
24.8991 1064.00
24.9643 1097.00
25.0295 1019.00
25.0947 1040.00
25.1599 1002.00
25.2251 1115.00
25.2903 1096.00
25.3555 1072.00
25.4207 1001.00
25.4859 1044.00
25.5511 1057.00
25.6163 1038.00
25.6815 977.00
25.7467 1035.00
25.8119 988.00
25.8771 957.00
25.9423 996.00
26.0075 969.00
26.0727 956.00
26.1379 947.00
26.2031 1003.00
26.2683 980.00
26.3335 1004.00
26.3987 952.00
26.4639 983.00
26.5291 991.00
26.5943 998.00
26.6595 964.00
26.7247 955.00
26.7899 1058.00
26.8551 1259.00
26.9203 1349.00
26.9855 1167.00
27.0507 952.00
27.1159 885.00
27.1811 937.00
27.2463 889.00
27.3115 922.00
27.3767 888.00
27.4419 915.00
27.5071 888.00
27.5723 934.00
27.6375 905.00
27.7027 865.00
27.7679 930.00
27.8331 906.00
27.8983 880.00
27.9635 913.00
28.0287 874.00
28.0939 816.00
28.1591 886.00
28.2243 937.00
28.2894 944.00
28.3546 958.00
28.4198 893.00
28.485 898.00
28.5502 854.00
28.6154 967.00
28.6806 958.00
28.7458 962.00
28.811 1089.00
28.8762 1138.00
28.9414 1238.00
29.0066 1544.00
29.0718 2121.00
29.137 3623.00
29.2022 7019.00
29.2674 9422.00
29.3326 5526.00
29.3978 2129.00
29.463 1243.00
29.5282 1062.00
29.5934 1079.00
29.6586 958.00
29.7238 905.00
29.789 985.00
29.8542 808.00
29.9194 907.00
29.9846 846.00
30.0498 826.00
30.115 844.00
30.1802 860.00
30.2454 835.00
30.3106 792.00
30.3758 840.00
30.441 808.00
30.5062 807.00
30.5714 824.00
30.6366 821.00
30.7018 801.00
30.767 803.00
30.8322 809.00
30.8974 816.00
30.9626 841.00
31.0278 813.00
31.093 840.00
31.1582 924.00
31.2234 808.00
31.2886 884.00
31.3538 809.00
31.419 891.00
31.4842 888.00
31.5494 939.00
31.6146 1071.00
31.6798 1138.00
31.745 1274.00
31.8102 1566.00
31.8754 2267.00
31.9406 3943.00
32.0058 8286.00
32.071 14287.00
32.1362 10765.00
32.2014 5175.00
32.2666 1827.00
32.3318 1362.00
32.397 1209.00
32.4622 1120.00
32.5274 1204.00
32.5926 1485.00
32.6578 2017.00
32.723 1808.00
32.7882 1252.00
32.8534 956.00
32.9186 825.00
32.9838 766.00
33.0489 846.00
33.1141 779.00
33.1793 787.00
33.2445 815.00
33.3097 797.00
33.3749 802.00
33.4401 806.00
33.5053 775.00
33.5705 750.00
33.6357 763.00
33.7009 745.00
33.7661 777.00
33.8313 722.00
33.8965 768.00
33.9617 760.00
34.0269 794.00
34.0921 929.00
34.1573 1151.00
34.2225 1156.00
34.2877 1214.00
34.3529 1409.00
34.4181 1318.00
34.4833 1069.00
34.5485 854.00
34.6137 759.00
34.6789 766.00
34.7441 694.00
34.8093 711.00
34.8745 761.00
34.9397 750.00
35.0049 693.00
35.0701 682.00
35.1353 687.00
35.2005 674.00
35.2657 714.00
35.3309 687.00
35.3961 684.00
35.4613 744.00
35.5265 682.00
35.5917 714.00
35.6569 723.00
35.7221 755.00
35.7873 761.00
35.8525 812.00
35.9177 863.00
35.9829 910.00
36.0481 1234.00
36.1133 1581.00
36.1785 3001.00
36.2437 5029.00
36.3089 4032.00
36.3741 2535.00
36.4393 1333.00
36.5045 1114.00
36.5697 1140.00
36.6349 1299.00
36.7001 1853.00
36.7653 3344.00
36.8305 5780.00
36.8957 6151.00
36.9609 3951.00
37.0261 1933.00
37.0913 1103.00
37.1565 852.00
37.2217 814.00
37.2869 774.00
37.3521 736.00
37.4173 716.00
37.4825 723.00
37.5477 673.00
37.6129 662.00
37.6781 633.00
37.7433 667.00
37.8085 678.00
37.8736 646.00
37.9388 625.00
38.004 637.00
38.0692 647.00
38.1344 624.00
38.1996 659.00
38.2648 740.00
38.33 712.00
38.3952 634.00
38.4604 638.00
38.5256 643.00
38.5908 646.00
38.656 676.00
38.7212 718.00
38.7864 898.00
38.8516 1050.00
38.9168 874.00
38.982 776.00
39.0472 665.00
39.1124 613.00
39.1776 604.00
39.2428 593.00
39.308 627.00
39.3732 595.00
39.4384 590.00
39.5036 578.00
39.5688 566.00
39.634 603.00
39.6992 577.00
39.7644 593.00
39.8296 602.00
39.8948 563.00
39.96 564.00
40.0252 567.00
40.0904 588.00
40.1556 614.00
40.2208 669.00
40.286 584.00
40.3512 674.00
40.4164 693.00
40.4816 918.00
40.5468 1328.00
40.612 1600.00
40.6772 1224.00
40.7424 921.00
40.8076 657.00
40.8728 680.00
40.938 591.00
41.0032 586.00
41.0684 559.00
41.1336 557.00
41.1988 517.00
41.264 544.00
41.3292 583.00
41.3944 587.00
41.4596 551.00
41.5248 569.00
41.59 604.00
41.6552 527.00
41.7204 552.00
41.7856 565.00
41.8508 622.00
41.916 582.00
41.9812 686.00
42.0464 869.00
42.1116 1379.00
42.1768 1880.00
42.242 1791.00
42.3072 1354.00
42.3724 996.00
42.4376 792.00
42.5028 685.00
42.568 747.00
42.6332 913.00
42.6983 1377.00
42.7635 1779.00
42.8287 1602.00
42.8939 1213.00
42.9591 826.00
43.0243 660.00
43.0895 617.00
43.1547 759.00
43.2199 841.00
43.2851 683.00
43.3503 683.00
43.4155 618.00
43.4807 554.00
43.5459 542.00
43.6111 549.00
43.6763 498.00
43.7415 548.00
43.8067 615.00
43.8719 561.00
43.9371 556.00
44.0023 576.00
44.0675 651.00
44.1327 762.00
44.1979 1064.00
44.2631 1932.00
44.3283 2850.00
44.3935 2069.00
44.4587 1710.00
44.5239 1045.00
44.5891 823.00
44.6543 710.00
44.7195 610.00
44.7847 611.00
44.8499 594.00
44.9151 521.00
44.9803 573.00
45.0455 579.00
45.1107 614.00
45.1759 568.00
45.2411 729.00
45.3063 896.00
45.3715 956.00
45.4367 793.00
45.5019 687.00
45.5671 603.00
45.6323 582.00
45.6975 572.00
45.7627 585.00
45.8279 608.00
45.8931 749.00
45.9583 1035.00
46.0235 1958.00
46.0887 3029.00
46.1539 2311.00
46.2191 2037.00
46.2843 1079.00
46.3495 737.00
46.4147 639.00
46.4799 565.00
46.5451 615.00
46.6103 498.00
46.6755 520.00
46.7407 552.00
46.8059 521.00
46.8711 527.00
46.9363 508.00
47.0015 546.00
47.0667 580.00
47.1319 631.00
47.1971 637.00
47.2623 684.00
47.3275 749.00
47.3927 1059.00
47.4579 1762.00
47.523 3453.00
47.5882 4345.00
47.6534 3313.00
47.7186 2469.00
47.7838 1269.00
47.849 811.00
47.9142 647.00
47.9794 629.00
48.0446 565.00
48.1098 558.00
48.175 500.00
48.2402 532.00
48.3054 597.00
48.3706 492.00
48.4358 475.00
48.501 527.00
48.5662 551.00
48.6314 608.00
48.6966 728.00
48.7618 794.00
48.827 712.00
48.8922 750.00
48.9574 643.00
49.0226 605.00
49.0878 601.00
49.153 667.00
49.2182 778.00
49.2834 882.00
49.3486 1406.00
49.4138 2648.00
49.479 4619.00
49.5442 3784.00
49.6094 2944.00
49.6746 1891.00
49.7398 909.00
49.805 708.00
49.8702 614.00
49.9354 569.00
50.0006 551.00
50.0658 515.00
50.131 535.00
50.1962 535.00
50.2614 586.00
50.3266 683.00
50.3918 852.00
50.457 901.00
50.5222 826.00
50.5874 746.00
50.6526 594.00
50.7178 511.00
50.783 563.00
50.8482 475.00
50.9134 480.00
50.9786 503.00
51.0438 439.00
51.109 495.00
51.1742 473.00
51.2394 501.00
51.3046 534.00
51.3698 463.00
51.435 460.00
51.5002 445.00
51.5654 490.00
51.6306 515.00
51.6958 475.00
51.761 515.00
51.8262 548.00
51.8914 568.00
51.9566 568.00
52.0218 756.00
52.087 814.00
52.1522 784.00
52.2174 884.00
52.2826 929.00
52.3477 1326.00
52.4129 2671.00
52.4781 4421.00
52.5433 3531.00
52.6085 2809.00
52.6737 2019.00
52.7389 1005.00
52.8041 658.00
52.8693 619.00
52.9345 532.00
52.9997 537.00
53.0649 511.00
53.1301 494.00
53.1953 532.00
53.2605 706.00
53.3257 825.00
53.3909 720.00
53.4561 647.00
53.5213 597.00
53.5865 486.00
53.6517 482.00
53.7169 444.00
53.7821 445.00
53.8473 396.00
53.9125 439.00
53.9777 458.00
54.0429 435.00
54.1081 457.00
54.1733 457.00
54.2385 440.00
54.3037 448.00
54.3689 452.00
54.4341 457.00
54.4993 443.00
54.5645 469.00
54.6297 510.00
54.6949 526.00
54.7601 516.00
54.8253 492.00
54.8905 542.00
54.9557 492.00
55.0209 530.00
55.0861 505.00
55.1513 517.00
55.2165 529.00
55.2817 488.00
55.3469 503.00
55.4121 501.00
55.4773 492.00
55.5425 557.00
55.6077 592.00
55.6729 675.00
55.7381 1137.00
55.8033 1663.00
55.8685 1328.00
55.9337 1214.00
55.9989 1004.00
56.0641 668.00
56.1293 539.00
56.1945 492.00
56.2597 475.00
56.3249 491.00
56.3901 437.00
56.4553 503.00
56.5205 512.00
56.5857 474.00
56.6509 542.00
56.7161 529.00
56.7813 613.00
56.8465 650.00
56.9117 762.00
56.9769 1101.00
57.042 1940.00
57.1073 2353.00
57.1724 2154.00
57.2376 1753.00
57.3028 1587.00
57.368 1411.00
57.4332 1950.00
57.4984 3035.00
57.5636 3257.00
57.6288 2611.00
57.694 2099.00
57.7592 1491.00
57.8244 864.00
57.8896 673.00
57.9548 547.00
58.02 525.00
58.0852 562.00
58.1504 509.00
58.2156 477.00
58.2808 453.00
58.346 466.00
58.4112 508.00
58.4764 559.00
58.5416 608.00
58.6068 575.00
58.672 598.00
58.7372 594.00
58.8024 638.00
58.8676 836.00
58.9328 1185.00
58.998 1375.00
59.0632 1195.00
59.1284 1051.00
59.1936 841.00
59.2588 669.00
59.324 551.00
59.3892 486.00
59.4544 451.00
59.5196 415.00
59.5848 446.00
59.65 389.00
59.7152 415.00
59.7804 432.00
59.8456 463.00
59.9108 523.00
59.976 472.00
60.0412 463.00
60.1064 528.00
60.1716 684.00
60.2368 894.00
60.302 800.00
60.3672 695.00
60.4324 712.00
60.4976 551.00
60.5628 475.00
60.628 448.00
60.6932 418.00
60.7584 445.00
60.8236 409.00
60.8888 433.00
60.954 426.00
61.0192 515.00
61.0844 488.00
61.1496 557.00
61.2148 533.00
61.28 604.00
61.3452 938.00
61.4104 1795.00
61.4756 2743.00
61.5408 1845.00
61.606 1669.00
61.6712 1500.00
61.7364 808.00
61.8016 610.00
61.8667 538.00
61.932 515.00
61.9971 485.00
62.0623 563.00
62.1275 562.00
62.1927 566.00
62.2579 601.00
62.3231 616.00
62.3883 642.00
62.4535 710.00
62.5187 717.00
62.5839 647.00
62.6491 696.00
62.7143 604.00
62.7795 651.00
62.8447 669.00
62.9099 803.00
62.9751 1174.00
63.0403 2143.00
63.1055 2785.00
63.1707 2618.00
63.2359 2634.00
63.3011 2533.00
63.3663 1878.00
63.4315 1396.00
63.4967 1049.00
63.5619 839.00
63.6271 610.00
63.6923 523.00
63.7575 509.00
63.8227 487.00
63.8879 431.00
63.9531 427.00
64.0183 453.00
64.0835 423.00
64.1487 405.00
64.2139 428.00
64.2791 453.00
64.3443 455.00
64.4095 559.00
64.4747 632.00
64.5399 661.00
64.6051 573.00
64.6703 623.00
64.7355 524.00
64.8007 499.00
64.8659 463.00
64.9311 463.00
64.9963 504.00
65.0615 451.00
65.1267 443.00
65.1919 469.00
65.2571 509.00
65.3223 511.00
65.3875 476.00
65.4527 531.00
65.5179 633.00
65.5831 1010.00
65.6483 1537.00
65.7135 1644.00
65.7787 1296.00
65.8439 1275.00
65.9091 1162.00
65.9743 1052.00
66.0395 1238.00
66.1047 1326.00
66.1699 1326.00
66.2351 1189.00
66.3003 1083.00
66.3655 851.00
66.4307 719.00
66.4959 532.00
66.561 500.00
66.6263 473.00
66.6915 437.00
66.7566 412.00
66.8218 435.00
66.887 427.00
66.9522 460.00
67.0174 435.00
67.0826 473.00
67.1478 461.00
67.213 553.00
67.2782 780.00
67.3434 1105.00
67.4086 1553.00
67.4738 1419.00
67.539 1132.00
67.6042 1063.00
67.6694 941.00
67.7346 594.00
67.7998 522.00
67.865 548.00
67.9302 516.00
67.9954 486.00
68.0606 465.00
68.1258 489.00
68.191 465.00
68.2562 427.00
68.3214 431.00
68.3866 412.00
68.4518 392.00
68.517 388.00
68.5822 393.00
68.6474 395.00
68.7126 393.00
68.7778 409.00
68.843 382.00
68.9082 395.00
68.9734 382.00
69.0386 375.00
69.1038 427.00
69.169 406.00
69.2342 381.00
69.2994 440.00
69.3646 424.00
69.4298 443.00
69.495 482.00
69.5602 616.00
69.6254 907.00
69.6906 1470.00
69.7558 1692.00
69.821 1368.00
69.8862 1174.00
69.9514 1080.00
70.0166 842.00
70.0818 613.00
70.147 489.00
70.2122 411.00
70.2774 450.00
70.3426 409.00
70.4078 398.00
70.473 379.00
70.5382 353.00
70.6034 362.00
70.6686 372.00
70.7338 398.00
70.799 369.00
70.8642 411.00
70.9294 418.00
70.9946 432.00
71.0598 490.00
71.125 519.00
71.1902 609.00
71.2554 686.00
71.3205 639.00
71.3858 592.00
71.451 567.00
71.5162 626.00
71.5813 579.00
71.6465 488.00
71.7117 459.00
71.7769 475.00
71.8421 483.00
71.9073 491.00
71.9725 503.00
72.0377 508.00
72.1029 446.00
72.1681 464.00
72.2333 408.00
72.2985 385.00
72.3637 379.00
72.4289 407.00
72.4941 367.00
72.5593 417.00
72.6245 428.00
72.6897 412.00
72.7549 447.00
72.8201 360.00
72.8853 409.00
72.9505 414.00
73.0157 410.00
73.0809 356.00
73.1461 396.00
73.2113 370.00
73.2765 393.00
73.3417 396.00
73.4069 407.00
73.4721 520.00
73.5373 617.00
73.6025 767.00
73.6677 1064.00
73.7329 1183.00
73.7981 1032.00
73.8633 898.00
73.9285 811.00
73.9937 678.00
74.0589 534.00
74.1241 467.00
74.1893 423.00
74.2545 424.00
74.3197 421.00
74.3849 398.00
74.4501 425.00
74.5153 380.00
74.5805 383.00
74.6457 423.00
74.7109 370.00
74.7761 396.00
74.8413 429.00
74.9065 392.00
74.9717 437.00
75.0369 480.00
75.1021 418.00
75.1673 486.00
75.2325 632.00
75.2977 829.00
75.3629 1054.00
75.4281 887.00
75.4933 789.00
75.5585 769.00
75.6237 683.00
75.6889 588.00
75.7541 477.00
75.8193 530.00
75.8845 613.00
75.9497 615.00
76.0149 560.00
76.0801 560.00
76.1452 556.00
76.2104 625.00
76.2756 619.00
76.3409 573.00
76.406 581.00
76.4712 627.00
76.5364 532.00
76.6016 493.00
76.6668 466.00
76.732 436.00
76.7972 421.00
76.8624 353.00
76.9276 390.00
76.9928 345.00
77.058 379.00
77.1232 350.00
77.1884 358.00
77.2536 390.00
77.3188 377.00
77.384 350.00
77.4492 410.00
77.5144 433.00
77.5796 461.00
77.6448 447.00
77.71 428.00
77.7752 606.00
77.8404 683.00
77.9056 763.00
77.9708 906.00
78.036 783.00
78.1012 744.00
78.1664 723.00
78.2316 688.00
78.2968 665.00
78.362 491.00
78.4272 491.00
78.4924 455.00
78.5576 423.00
78.6228 385.00
78.688 396.00
78.7532 361.00
78.8184 366.00
78.8836 381.00
78.9488 454.00
79.014 407.00
79.0792 423.00
79.1444 475.00
79.2096 531.00
79.2748 495.00
79.34 475.00
79.4052 443.00
79.4704 477.00
79.5356 429.00
79.6008 413.00
79.666 452.00
79.7312 430.00
79.7964 448.00
79.8616 473.00
79.9268 404.00
79.992 463.00
80.0572 457.00
80.1224 466.00
80.1876 453.00
80.2528 408.00
80.318 464.00
80.3832 424.00
80.4484 437.00
80.5136 428.00
80.5788 417.00
80.644 399.00
80.7092 389.00
80.7744 365.00
80.8396 350.00
80.9048 356.00
80.9699 363.00
81.0351 371.00
81.1003 435.00
81.1655 449.00
81.2307 489.00
81.2959 720.00
81.3611 881.00
81.4263 902.00
81.4915 775.00
81.5567 727.00
81.6219 860.00
81.6871 903.00
81.7523 882.00
81.8175 888.00
81.8827 795.00
81.9479 620.00
82.0131 624.00
82.0783 525.00
82.1435 501.00
82.2087 418.00
82.2739 362.00
82.3391 377.00
82.4043 396.00
82.4695 366.00
82.5347 397.00
82.5999 375.00
82.6651 416.00
82.7303 493.00
82.7955 631.00
82.8607 690.00
82.9259 886.00
82.9911 1154.00
83.0563 1145.00
83.1215 856.00
83.1867 745.00
83.2519 794.00
83.3171 708.00
83.3823 527.00
83.4475 440.00
83.5127 391.00
83.5779 387.00
83.6431 388.00
83.7083 364.00
83.7735 376.00
83.8387 357.00
83.9039 347.00
83.9691 423.00
84.0343 324.00
84.0995 358.00
84.1647 381.00
84.2299 367.00
84.2951 360.00
84.3603 312.00
84.4255 348.00
84.4907 353.00
84.5559 351.00
84.6211 343.00
84.6863 334.00
84.7515 331.00
84.8167 365.00
84.8819 379.00
84.9471 340.00
85.0123 380.00
85.0775 430.00
85.1427 439.00
85.2079 523.00
85.2731 431.00
85.3383 446.00
85.4035 421.00
85.4687 438.00
85.5339 423.00
85.5991 374.00
85.6643 368.00
85.7295 340.00
85.7946 389.00
85.8598 400.00
85.925 340.00
85.9903 390.00
86.0554 416.00
86.1206 390.00
86.1858 391.00
86.251 403.00
86.3162 434.00
86.3814 503.00
86.4466 555.00
86.5118 728.00
86.577 838.00
86.6422 911.00
86.7074 850.00
86.7726 690.00
86.8378 669.00
86.903 693.00
86.9682 561.00
87.0334 509.00
87.0986 433.00
87.1638 383.00
87.229 395.00
87.2942 475.00
87.3594 457.00
87.4246 494.00
87.4898 477.00
87.555 606.00
87.6202 652.00
87.6854 775.00
87.7506 858.00
87.8158 1020.00
87.881 994.00
87.9462 973.00
88.0114 824.00
88.0766 795.00
88.1418 750.00
88.207 642.00
88.2722 558.00
88.3374 483.00
88.4026 412.00
88.4678 379.00
88.533 409.00
88.5982 349.00
88.6634 382.00
88.7286 385.00
88.7938 381.00
88.859 508.00
88.9242 508.00
88.9894 512.00
89.0546 468.00
89.1198 468.00
89.185 459.00
89.2502 430.00
89.3154 415.00
89.3806 433.00
89.4458 403.00
89.511 388.00
89.5762 385.00
89.6414 335.00
89.7066 396.00
89.7718 359.00
89.837 351.00
89.9022 340.00
89.9674 357.00
90.0326 375.00
90.0978 358.00
90.163 375.00
90.2282 378.00
90.2934 417.00
90.3586 405.00
90.4238 482.00
90.489 530.00
90.5542 625.00
90.6193 524.00
90.6845 485.00
90.7497 499.00
90.8149 509.00
90.8801 515.00
90.9453 502.00
91.0105 526.00
91.0757 551.00
91.1409 527.00
91.2061 471.00
91.2713 502.00
91.3365 473.00
91.4017 439.00
91.4669 493.00
91.5321 431.00
91.5973 472.00
91.6625 455.00
91.7277 435.00
91.7929 456.00
91.8581 409.00
91.9233 464.00
91.9885 372.00
92.0537 434.00
92.1189 369.00
92.1841 355.00
92.2493 388.00
92.3145 360.00
92.3797 405.00
92.4449 430.00
92.5101 525.00
92.5753 644.00
92.6405 849.00
92.7057 920.00
92.7709 834.00
92.8361 716.00
92.9013 698.00
92.9665 777.00
93.0317 772.00
93.0969 633.00
93.1621 551.00
93.2273 536.00
93.2925 458.00
93.3577 429.00
93.4229 432.00
93.4881 407.00
93.5533 407.00
93.6185 410.00
93.6837 337.00
93.7489 342.00
93.8141 375.00
93.8793 393.00
93.9445 370.00
94.0097 356.00
94.0749 363.00
94.1401 448.00
94.2053 589.00
94.2705 678.00
94.3357 672.00
94.4009 537.00
94.4661 586.00
94.5313 553.00
94.5965 553.00
94.6617 547.00
94.7269 411.00
94.7921 454.00
94.8573 421.00
94.9225 429.00
94.9877 441.00
95.0529 415.00
95.1181 434.00
95.1833 472.00
95.2485 578.00
95.3137 660.00
95.3789 671.00
95.444 588.00
95.5092 574.00
95.5744 587.00
95.6396 554.00
95.7048 527.00
95.77 518.00
95.8352 490.00
95.9004 386.00
95.9656 384.00
96.0308 381.00
96.096 354.00
96.1612 393.00
96.2264 423.00
96.2916 437.00
96.3568 501.00
96.422 523.00
96.4872 503.00
96.5524 545.00
96.6176 494.00
96.6828 487.00
96.748 452.00
96.8132 440.00
96.8784 452.00
96.9436 391.00
97.0088 377.00
97.074 350.00
97.1392 350.00
97.2044 342.00
97.2696 374.00
97.3348 399.00
97.4 332.00
97.4652 389.00
97.5304 383.00
97.5956 445.00
97.6608 391.00
97.726 449.00
97.7912 465.00
97.8564 558.00
97.9216 652.00
97.9868 819.00
98.052 1012.00
98.1172 900.00
98.1824 696.00
98.2476 654.00
98.3128 680.00
98.378 694.00
98.4432 644.00
98.5084 505.00
98.5736 485.00
98.6388 497.00
98.704 392.00
98.7692 418.00
98.8344 364.00
98.8996 360.00
98.9648 368.00
99.03 391.00
99.0952 337.00
99.1604 308.00
99.2256 329.00
99.2908 328.00
99.356 339.00
99.4212 337.00
99.4864 344.00
99.5516 354.00
99.6168 378.00
99.682 361.00
99.7472 364.00
99.8124 367.00
99.8776 389.00
99.9428 397.00
100.008 476.00
100.073 568.00
100.095 603.00