File: data/xrd_creation/results/NSC_173.xy
9.903433 2699.00
9.968632 2647.00
10.0338 2643.00
10.099 2636.00
10.1642 2611.00
10.2294 2592.00
10.2946 2668.00
10.3598 2595.00
10.425 2648.00
10.4902 2463.00
10.5554 2501.00
10.6206 2471.00
10.6858 2433.00
10.751 2444.00
10.8162 2467.00
10.8814 2460.00
10.9466 2395.00
11.0118 2361.00
11.077 2394.00
11.1422 2256.00
11.2074 2320.00
11.2726 2344.00
11.3378 2313.00
11.403 2329.00
11.4682 2212.00
11.5334 2218.00
11.5986 2206.00
11.6638 2225.00
11.729 2295.00
11.7942 2221.00
11.8594 2068.00
11.9246 2111.00
11.9898 2177.00
12.055 2270.00
12.1202 2114.00
12.1854 2090.00
12.2506 2099.00
12.3158 2067.00
12.381 1929.00
12.4462 2008.00
12.5114 2031.00
12.5766 1906.00
12.6418 2018.00
12.707 2019.00
12.7722 2007.00
12.8374 2016.00
12.9026 1978.00
12.9678 1984.00
13.033 1962.00
13.0982 1883.00
13.1634 1990.00
13.2286 1948.00
13.2938 1884.00
13.359 1871.00
13.4242 1865.00
13.4894 1908.00
13.5546 1952.00
13.6198 1915.00
13.685 1888.00
13.7502 1828.00
13.8154 1881.00
13.8805 1949.00
13.9457 1800.00
14.0109 2080.00
14.0761 2058.00
14.1413 2190.00
14.2065 2329.00
14.2717 2475.00
14.3369 2898.00
14.4021 3212.00
14.4673 3755.00
14.5325 3905.00
14.5977 3365.00
14.6629 2201.00
14.7281 1826.00
14.7933 1749.00
14.8585 1798.00
14.9237 1785.00
14.9889 1783.00
15.0541 1733.00
15.1193 1706.00
15.1845 1672.00
15.2497 1805.00
15.3149 1712.00
15.3801 1724.00
15.4453 1782.00
15.5105 1634.00
15.5757 1702.00
15.6409 1715.00
15.7061 1641.00
15.7713 1642.00
15.8365 1586.00
15.9017 1661.00
15.9669 1647.00
16.0321 1665.00
16.0973 1676.00
16.1625 1620.00
16.2277 1648.00
16.2929 1620.00
16.3581 1583.00
16.4233 1604.00
16.4885 1617.00
16.5537 1679.00
16.6189 1614.00
16.6841 1626.00
16.7493 1625.00
16.8145 1635.00
16.8797 1607.00
16.9449 1614.00
17.0101 1540.00
17.0753 1683.00
17.1405 1646.00
17.2057 1604.00
17.2709 1541.00
17.3361 1550.00
17.4013 1593.00
17.4665 1632.00
17.5317 1654.00
17.5969 1581.00
17.6621 1636.00
17.7273 1539.00
17.7925 1551.00
17.8577 1577.00
17.9229 1577.00
17.9881 1650.00
18.0533 1504.00
18.1185 1484.00
18.1837 1536.00
18.2489 1582.00
18.3141 1529.00
18.3793 1566.00
18.4445 1613.00
18.5097 1535.00
18.5749 1429.00
18.6401 1426.00
18.7052 1558.00
18.7704 1556.00
18.8356 1527.00
18.9008 1527.00
18.966 1564.00
19.0312 1509.00
19.0964 1494.00
19.1616 1531.00
19.2268 1546.00
19.292 1560.00
19.3572 1607.00
19.4224 1739.00
19.4876 1866.00
19.5528 2026.00
19.618 2477.00
19.6832 2685.00
19.7484 3425.00
19.8136 4284.00
19.8788 5471.00
19.944 6407.00
20.0092 7766.00
20.0744 8847.00
20.1396 9378.00
20.2048 7453.00
20.27 4647.00
20.3352 3378.00
20.4004 3432.00
20.4656 4085.00
20.5308 5277.00
20.596 7290.00
20.6612 9005.00
20.7264 10640.00
20.7916 12269.00
20.8568 11263.00
20.922 6855.00
20.9872 3240.00
21.0524 2118.00
21.1176 1814.00
21.1828 1756.00
21.248 1641.00
21.3132 1568.00
21.3784 1489.00
21.4436 1583.00
21.5088 1581.00
21.574 1613.00
21.6392 1554.00
21.7044 1623.00
21.7696 1654.00
21.8348 1623.00
21.9 1606.00
21.9652 1633.00
22.0304 1664.00
22.0956 1679.00
22.1608 1599.00
22.226 1494.00
22.2912 1457.00
22.3564 1372.00
22.4216 1468.00
22.4868 1385.00
22.552 1448.00
22.6172 1456.00
22.6824 1337.00
22.7476 1427.00
22.8128 1385.00
22.878 1398.00
22.9432 1448.00
23.0084 1466.00
23.0736 1466.00
23.1388 1485.00
23.204 1449.00
23.2692 1580.00
23.3344 1677.00
23.3996 1623.00
23.4647 1739.00
23.5299 1825.00
23.5951 1941.00
23.6603 2294.00
23.7255 2693.00
23.7907 3337.00
23.8559 4012.00
23.9211 4864.00
23.9863 5986.00
24.0515 7137.00
24.1167 6877.00
24.1819 5158.00
24.2471 2909.00
24.3123 1897.00
24.3775 1558.00
24.4427 1462.00
24.5079 1333.00
24.5731 1340.00
24.6383 1405.00
24.7035 1311.00
24.7687 1296.00
24.8339 1338.00
24.8991 1348.00
24.9643 1306.00
25.0295 1278.00
25.0947 1287.00
25.1599 1270.00
25.2251 1182.00
25.2903 1270.00
25.3555 1309.00
25.4207 1258.00
25.4859 1284.00
25.5511 1310.00
25.6163 1342.00
25.6815 1241.00
25.7467 1244.00
25.8119 1294.00
25.8771 1331.00
25.9423 1239.00
26.0075 1314.00
26.0727 1299.00
26.1379 1179.00
26.2031 1243.00
26.2683 1259.00
26.3335 1182.00
26.3987 1174.00
26.4639 1216.00
26.5291 1254.00
26.5943 1177.00
26.6595 1253.00
26.7247 1205.00
26.7899 1196.00
26.8551 1173.00
26.9203 1180.00
26.9855 1244.00
27.0507 1239.00
27.1159 1184.00
27.1811 1283.00
27.2463 1224.00
27.3115 1214.00
27.3767 1290.00
27.4419 1263.00
27.5071 1361.00
27.5723 1543.00
27.6375 1817.00
27.7027 2370.00
27.7679 2733.00
27.8331 1845.00
27.8983 1335.00
27.9635 1331.00
28.0287 1239.00
28.0939 1243.00
28.1591 1349.00
28.2243 1307.00
28.2894 1374.00
28.3546 1431.00
28.4198 1647.00
28.485 1845.00
28.5502 2327.00
28.6154 2864.00
28.6806 3401.00
28.7458 3907.00
28.811 4459.00
28.8762 5281.00
28.9414 6025.00
29.0066 6237.00
29.0718 5003.00
29.137 3261.00
29.2022 1923.00
29.2674 1426.00
29.3326 1333.00
29.3978 1246.00
29.463 1127.00
29.5282 1224.00
29.5934 1159.00
29.6586 1204.00
29.7238 1168.00
29.789 1124.00
29.8542 1173.00
29.9194 1108.00
29.9846 1144.00
30.0498 1185.00
30.115 1134.00
30.1802 1168.00
30.2454 1115.00
30.3106 1060.00
30.3758 1095.00
30.441 1174.00
30.5062 1129.00
30.5714 1164.00
30.6366 1074.00
30.7018 1100.00
30.767 1141.00
30.8322 1127.00
30.8974 1184.00
30.9626 1158.00
31.0278 1137.00
31.093 1156.00
31.1582 1230.00
31.2234 1297.00
31.2886 1437.00
31.3538 1530.00
31.419 1801.00
31.4842 2377.00
31.5494 3065.00
31.6146 3435.00
31.6798 4124.00
31.745 4678.00
31.8102 5677.00
31.8754 6705.00
31.9406 7846.00
32.0058 8490.00
32.071 7924.00
32.1362 6029.00
32.2014 3949.00
32.2666 2451.00
32.3318 1704.00
32.397 1424.00
32.4622 1250.00
32.5274 1222.00
32.5926 1117.00
32.6578 1084.00
32.723 1133.00
32.7882 1079.00
32.8534 1129.00
32.9186 1111.00
32.9838 1035.00
33.0489 1002.00
33.1141 1071.00
33.1793 1058.00
33.2445 1039.00
33.3097 975.00
33.3749 1010.00
33.4401 1042.00
33.5053 1049.00
33.5705 1022.00
33.6357 1044.00
33.7009 1027.00
33.7661 990.00
33.8313 1045.00
33.8965 1049.00
33.9617 1105.00
34.0269 1112.00
34.0921 1157.00
34.1573 1195.00
34.2225 1196.00
34.2877 1215.00
34.3529 1338.00
34.4181 1325.00
34.4833 1436.00
34.5485 1457.00
34.6137 1463.00
34.6789 1378.00
34.7441 1255.00
34.8093 1131.00
34.8745 1114.00
34.9397 1114.00
35.0049 1165.00
35.0701 1089.00
35.1353 1176.00
35.2005 1306.00
35.2657 1443.00
35.3309 1743.00
35.3961 2004.00
35.4613 2138.00
35.5265 2435.00
35.5917 2659.00
35.6569 3238.00
35.7221 3815.00
35.7873 4384.00
35.8525 4727.00
35.9177 4566.00
35.9829 4080.00
36.0481 4076.00
36.1133 4257.00
36.1785 4749.00
36.2437 5015.00
36.3089 4654.00
36.3741 3737.00
36.4393 2386.00
36.5045 1652.00
36.5697 1205.00
36.6349 1077.00
36.7001 1001.00
36.7653 1046.00
36.8305 1086.00
36.8957 977.00
36.9609 965.00
37.0261 1015.00
37.0913 984.00
37.1565 989.00
37.2217 976.00
37.2869 982.00
37.3521 998.00
37.4173 967.00
37.4825 956.00
37.5477 934.00
37.6129 995.00
37.6781 987.00
37.7433 918.00
37.8085 904.00
37.8736 990.00
37.9388 963.00
38.004 920.00
38.0692 918.00
38.1344 963.00
38.1996 939.00
38.2648 955.00
38.33 885.00
38.3952 963.00
38.4604 919.00
38.5256 896.00
38.5908 981.00
38.656 909.00
38.7212 947.00
38.7864 931.00
38.8516 927.00
38.9168 913.00
38.982 1021.00
39.0472 919.00
39.1124 984.00
39.1776 955.00
39.2428 996.00
39.308 922.00
39.3732 1019.00
39.4384 987.00
39.5036 1022.00
39.5688 1009.00
39.634 947.00
39.6992 958.00
39.7644 972.00
39.8296 981.00
39.8948 1027.00
39.96 998.00
40.0252 1080.00
40.0904 1153.00
40.1556 1102.00
40.2208 1133.00
40.286 1196.00
40.3512 1229.00
40.4164 1354.00
40.4816 1393.00
40.5468 1436.00
40.612 1428.00
40.6772 1395.00
40.7424 1281.00
40.8076 1095.00
40.8728 1046.00
40.938 981.00
41.0032 911.00
41.0684 932.00
41.1336 907.00
41.1988 942.00
41.264 1003.00
41.3292 1028.00
41.3944 1166.00
41.4596 1265.00
41.5248 1503.00
41.59 1454.00
41.6552 1385.00
41.7204 1370.00
41.7856 1427.00
41.8508 1568.00
41.916 1674.00
41.9812 1700.00
42.0464 1787.00
42.1116 1775.00
42.1768 1658.00
42.242 1632.00
42.3072 1571.00
42.3724 1484.00
42.4376 1459.00
42.5028 1411.00
42.568 1338.00
42.6332 1233.00
42.6983 1134.00
42.7635 1123.00
42.8287 1079.00
42.8939 1035.00
42.9591 1006.00
43.0243 1075.00
43.0895 1043.00
43.1547 1060.00
43.2199 1119.00
43.2851 1168.00
43.3503 1232.00
43.4155 1208.00
43.4807 1306.00
43.5459 1419.00
43.6111 1459.00
43.6763 1561.00
43.7415 1655.00
43.8067 1844.00
43.8719 2022.00
43.9371 2054.00
44.0023 1820.00
44.0675 1646.00
44.1327 1369.00
44.1979 1285.00
44.2631 1130.00
44.3283 1133.00
44.3935 1165.00
44.4587 1112.00
44.5239 1036.00
44.5891 1078.00
44.6543 1064.00
44.7195 1043.00
44.7847 986.00
44.8499 1009.00
44.9151 975.00
44.9803 973.00
45.0455 1016.00
45.1107 1000.00
45.1759 1084.00
45.2411 1169.00
45.3063 1176.00
45.3715 1186.00
45.4367 1320.00
45.5019 1455.00
45.5671 1561.00
45.6323 1605.00
45.6975 1822.00
45.7627 1982.00
45.8279 2214.00
45.8931 2345.00
45.9583 2310.00
46.0235 2291.00
46.0887 1863.00
46.1539 1602.00
46.2191 1393.00
46.2843 1367.00
46.3495 1393.00
46.4147 1391.00
46.4799 1427.00
46.5451 1479.00
46.6103 1652.00
46.6755 1686.00
46.7407 1843.00
46.8059 2059.00
46.8711 2249.00
46.9363 2290.00
47.0015 2157.00
47.0667 1824.00
47.1319 1606.00
47.1971 1394.00
47.2623 1272.00
47.3275 1344.00
47.3927 1297.00
47.4579 1283.00
47.523 1344.00
47.5882 1483.00
47.6534 1482.00
47.7186 1437.00
47.7838 1469.00
47.849 1290.00
47.9142 1196.00
47.9794 1132.00
48.0446 1036.00
48.1098 1020.00
48.175 1105.00
48.2402 1308.00
48.3054 1376.00
48.3706 1449.00
48.4358 1634.00
48.501 1659.00
48.5662 1694.00
48.6314 1912.00
48.6966 2044.00
48.7618 2181.00
48.827 2413.00
48.8922 2711.00
48.9574 2901.00
49.0226 2730.00
49.0878 2503.00
49.153 2165.00
49.2182 1782.00
49.2834 1425.00
49.3486 1306.00
49.4138 1150.00
49.479 1216.00
49.5442 1177.00
49.6094 1169.00
49.6746 1202.00
49.7398 1015.00
49.805 1064.00
49.8702 944.00
49.9354 869.00
50.0006 894.00
50.0658 872.00
50.131 897.00
50.1962 824.00
50.2614 771.00
50.3266 820.00
50.3918 813.00
50.457 852.00
50.5222 848.00
50.5874 901.00
50.6526 843.00
50.7178 849.00
50.783 789.00
50.8482 811.00
50.9134 810.00
50.9786 914.00
51.0438 880.00
51.109 889.00
51.1742 900.00
51.2394 912.00
51.3046 934.00
51.3698 971.00
51.435 954.00
51.5002 1161.00
51.5654 1165.00
51.6306 1325.00
51.6958 1320.00
51.761 1395.00
51.8262 1384.00
51.8914 1442.00
51.9566 1517.00
52.0218 1512.00
52.087 1732.00
52.1522 1849.00
52.2174 1969.00
52.2826 2191.00
52.3477 2400.00
52.4129 2328.00
52.4781 2402.00
52.5433 2170.00
52.6085 2108.00
52.6737 1797.00
52.7389 1520.00
52.8041 1304.00
52.8693 1181.00
52.9345 1065.00
52.9997 1054.00
53.0649 956.00
53.1301 926.00
53.1953 866.00
53.2605 908.00
53.3257 832.00
53.3909 815.00
53.4561 842.00
53.5213 850.00
53.5865 853.00
53.6517 827.00
53.7169 869.00
53.7821 868.00
53.8473 850.00
53.9125 908.00
53.9777 889.00
54.0429 830.00
54.1081 908.00
54.1733 910.00
54.2385 938.00
54.3037 906.00
54.3689 1003.00
54.4341 1099.00
54.4993 1276.00
54.5645 1684.00
54.6297 1629.00
54.6949 1383.00
54.7601 1425.00
54.8253 1111.00
54.8905 1143.00
54.9557 1149.00
55.0209 1231.00
55.0861 1128.00
55.1513 1350.00
55.2165 1420.00
55.2817 1444.00
55.3469 1638.00
55.4121 1625.00
55.4773 1699.00
55.5425 1615.00
55.6077 1651.00
55.6729 1628.00
55.7381 1678.00
55.8033 1665.00
55.8685 1769.00
55.9337 1935.00
55.9989 2049.00
56.0641 2253.00
56.1293 2389.00
56.1945 2659.00
56.2597 2853.00
56.3249 2921.00
56.3901 2998.00
56.4553 2957.00
56.5205 2917.00
56.5857 2782.00
56.6509 2393.00
56.7161 1987.00
56.7813 1768.00
56.8465 1563.00
56.9117 1448.00
56.9769 1175.00
57.042 1084.00
57.1073 968.00
57.1724 948.00
57.2376 921.00
57.3028 911.00
57.368 859.00
57.4332 891.00
57.4984 933.00
57.5636 903.00
57.6288 938.00
57.694 941.00
57.7592 918.00
57.8244 905.00
57.8896 952.00
57.9548 965.00
58.02 979.00
58.0852 1007.00
58.1504 921.00
58.2156 895.00
58.2808 890.00
58.346 855.00
58.4112 914.00
58.4764 867.00
58.5416 897.00
58.6068 942.00
58.672 907.00
58.7372 969.00
58.8024 978.00
58.8676 1002.00
58.9328 1007.00
58.998 1020.00
59.0632 1092.00
59.1284 1059.00
59.1936 1162.00
59.2588 1171.00
59.324 1272.00
59.3892 1259.00
59.4544 1297.00
59.5196 1381.00
59.5848 1385.00
59.65 1362.00
59.7152 1393.00
59.7804 1277.00
59.8456 1167.00
59.9108 1068.00
59.976 1037.00
60.0412 1005.00
60.1064 965.00
60.1716 1024.00
60.2368 1055.00
60.302 992.00
60.3672 1059.00
60.4324 1074.00
60.4976 1150.00
60.5628 1128.00
60.628 1133.00
60.6932 1202.00
60.7584 1243.00
60.8236 1239.00
60.8888 1371.00
60.954 1456.00
61.0192 1579.00
61.0844 1679.00
61.1496 1683.00
61.2148 1670.00
61.28 1695.00
61.3452 1662.00
61.4104 1595.00
61.4756 1409.00
61.5408 1415.00
61.606 1295.00
61.6712 1238.00
61.7364 1279.00
61.8016 1272.00
61.8667 1365.00
61.932 1416.00
61.9971 1551.00
62.0623 1568.00
62.1275 1658.00
62.1927 1764.00
62.2579 1803.00
62.3231 1751.00
62.3883 1693.00
62.4535 1561.00
62.5187 1354.00
62.5839 1236.00
62.6491 1145.00
62.7143 1091.00
62.7795 1078.00
62.8447 1070.00
62.9099 1078.00
62.9751 1170.00
63.0403 1111.00
63.1055 1115.00
63.1707 1108.00
63.2359 1108.00
63.3011 1133.00
63.3663 1208.00
63.4315 1205.00
63.4967 1312.00
63.5619 1398.00
63.6271 1397.00
63.6923 1406.00
63.7575 1410.00
63.8227 1446.00
63.8879 1455.00
63.9531 1356.00
64.0183 1313.00
64.0835 1321.00
64.1487 1307.00
64.2139 1376.00
64.2791 1396.00
64.3443 1326.00
64.4095 1365.00
64.4747 1410.00
64.5399 1447.00
64.6051 1489.00
64.6703 1441.00
64.7355 1560.00
64.8007 1560.00
64.8659 1453.00
64.9311 1437.00
64.9963 1450.00
65.0615 1304.00
65.1267 1278.00
65.1919 1236.00
65.2571 1273.00
65.3223 1128.00
65.3875 1045.00
65.4527 1090.00
65.5179 1005.00
65.5831 943.00
65.6483 889.00
65.7135 825.00
65.7787 830.00
65.8439 814.00
65.9091 829.00
65.9743 762.00
66.0395 841.00
66.1047 850.00
66.1699 893.00
66.2351 920.00
66.3003 999.00
66.3655 927.00
66.4307 950.00
66.4959 998.00
66.561 940.00
66.6263 961.00
66.6915 971.00
66.7566 1015.00
66.8218 1025.00
66.887 1026.00
66.9522 1034.00
67.0174 1046.00
67.0826 1040.00
67.1478 1097.00
67.213 1061.00
67.2782 1062.00
67.3434 1115.00
67.4086 1183.00
67.4738 1225.00
67.539 1261.00
67.6042 1247.00
67.6694 1279.00
67.7346 1288.00
67.7998 1215.00
67.865 1272.00
67.9302 1237.00
67.9954 1187.00
68.0606 1104.00
68.1258 1064.00
68.191 1063.00
68.2562 1119.00
68.3214 1108.00
68.3866 1109.00
68.4518 1139.00
68.517 1181.00
68.5822 1241.00
68.6474 1201.00
68.7126 1203.00
68.7778 1223.00
68.843 1151.00
68.9082 1124.00
68.9734 1138.00
69.0386 1167.00
69.1038 1248.00
69.169 1286.00
69.2342 1296.00
69.2994 1285.00
69.3646 1212.00
69.4298 1178.00
69.495 1023.00
69.5602 1014.00
69.6254 959.00
69.6906 877.00
69.7558 910.00
69.821 888.00
69.8862 953.00
69.9514 989.00
70.0166 1031.00
70.0818 1051.00
70.147 997.00
70.2122 1026.00
70.2774 992.00
70.3426 929.00
70.4078 906.00
70.473 909.00
70.5382 844.00
70.6034 835.00
70.6686 779.00
70.7338 742.00
70.799 758.00
70.8642 767.00
70.9294 749.00
70.9946 730.00
71.0598 809.00
71.125 737.00
71.1902 729.00
71.2554 779.00
71.3205 862.00
71.3858 815.00
71.451 863.00
71.5162 887.00
71.5813 884.00
71.6465 854.00
71.7117 894.00
71.7769 880.00
71.8421 959.00
71.9073 909.00
71.9725 958.00
72.0377 958.00
72.1029 998.00
72.1681 1108.00
72.2333 1118.00
72.2985 1200.00
72.3637 1154.00
72.4289 1245.00
72.4941 1181.00
72.5593 1252.00
72.6245 1106.00
72.6897 1081.00
72.7549 998.00
72.8201 891.00
72.8853 813.00
72.9505 850.00
73.0157 804.00
73.0809 735.00
73.1461 772.00
73.2113 718.00
73.2765 738.00
73.3417 738.00
73.4069 767.00
73.4721 745.00
73.5373 757.00
73.6025 795.00
73.6677 814.00
73.7329 803.00
73.7981 767.00
73.8633 789.00
73.9285 744.00
73.9937 801.00
74.0589 730.00
74.1241 776.00
74.1893 838.00
74.2545 806.00
74.3197 778.00
74.3849 821.00
74.4501 797.00
74.5153 839.00
74.5805 891.00
74.6457 885.00
74.7109 862.00
74.7761 913.00
74.8413 926.00
74.9065 948.00
74.9717 939.00
75.0369 1006.00
75.1021 1030.00
75.1673 1102.00
75.2325 1074.00
75.2977 1180.00
75.3629 1204.00
75.4281 1187.00
75.4933 1144.00
75.5585 1173.00
75.6237 1023.00
75.6889 1027.00
75.7541 1071.00
75.8193 1044.00
75.8845 1019.00
75.9497 979.00
76.0149 1082.00
76.0801 1010.00
76.1452 1060.00
76.2104 1068.00
76.2756 1072.00
76.3409 1127.00
76.406 1143.00
76.4712 1168.00
76.5364 1227.00
76.6016 1226.00
76.6668 1092.00
76.732 1127.00
76.7972 1058.00
76.8624 959.00
76.9276 958.00
76.9928 977.00
77.058 960.00
77.1232 983.00
77.1884 872.00
77.2536 888.00
77.3188 871.00
77.384 877.00
77.4492 820.00
77.5144 867.00
77.5796 798.00
77.6448 821.00
77.71 787.00
77.7752 766.00
77.8404 746.00
77.9056 817.00
77.9708 779.00
78.036 781.00
78.1012 720.00
78.1664 790.00
78.2316 831.00
78.2968 813.00
78.362 799.00
78.4272 780.00
78.4924 745.00
78.5576 813.00
78.6228 824.00
78.688 782.00
78.7532 744.00
78.8184 792.00
78.8836 852.00
78.9488 888.00
79.014 863.00
79.0792 910.00
79.1444 960.00
79.2096 916.00
79.2748 924.00
79.34 996.00
79.4052 953.00
79.4704 984.00
79.5356 959.00
79.6008 945.00
79.666 995.00
79.7312 994.00
79.7964 1009.00
79.8616 1046.00
79.9268 1090.00
79.992 1126.00
80.0572 1176.00
80.1224 1091.00
80.1876 1178.00
80.2528 1125.00
80.318 1129.00
80.3832 1187.00
80.4484 1101.00
80.5136 1078.00
80.5788 1033.00
80.644 1009.00
80.7092 1001.00
80.7744 921.00
80.8396 929.00
80.9048 836.00
80.9699 837.00
81.0351 909.00
81.1003 847.00
81.1655 849.00
81.2307 842.00
81.2959 826.00
81.3611 849.00
81.4263 896.00
81.4915 839.00
81.5567 916.00
81.6219 821.00
81.6871 829.00
81.7523 839.00
81.8175 793.00
81.8827 818.00
81.9479 762.00
82.0131 855.00
82.0783 803.00
82.1435 815.00
82.2087 889.00
82.2739 864.00
82.3391 911.00
82.4043 936.00
82.4695 935.00
82.5347 1004.00
82.5999 1025.00
82.6651 1011.00
82.7303 1004.00
82.7955 962.00
82.8607 1021.00
82.9259 939.00
82.9911 942.00
83.0563 882.00
83.1215 900.00
83.1867 869.00
83.2519 837.00
83.3171 775.00
83.3823 749.00
83.4475 781.00
83.5127 760.00
83.5779 756.00
83.6431 789.00
83.7083 768.00
83.7735 807.00
83.8387 770.00
83.9039 843.00
83.9691 809.00
84.0343 790.00
84.0995 854.00
84.1647 876.00
84.2299 848.00
84.2951 887.00
84.3603 914.00
84.4255 855.00
84.4907 920.00
84.5559 914.00
84.6211 888.00
84.6863 921.00
84.7515 909.00
84.8167 958.00
84.8819 878.00
84.9471 1044.00
85.0123 962.00
85.0775 1014.00
85.1427 1007.00
85.2079 978.00
85.2731 1014.00
85.3383 1000.00
85.4035 963.00
85.4687 884.00
85.5339 858.00
85.5991 807.00
85.6643 855.00
85.7295 820.00
85.7946 806.00
85.8598 806.00
85.925 825.00
85.9903 835.00
86.0554 809.00
86.1206 896.00
86.1858 892.00
86.251 868.00
86.3162 939.00
86.3814 891.00
86.4466 957.00
86.5118 951.00
86.577 911.00
86.6422 943.00
86.7074 986.00
86.7726 968.00
86.8378 902.00
86.903 888.00
86.9682 921.00
87.0334 905.00
87.0986 915.00
87.1638 952.00
87.229 880.00
87.2942 895.00
87.3594 883.00
87.4246 959.00
87.4898 836.00
87.555 905.00
87.6202 898.00
87.6854 786.00
87.7506 883.00
87.8158 861.00
87.881 885.00
87.9462 859.00
88.0114 867.00
88.0766 902.00
88.1418 849.00
88.207 856.00
88.2722 815.00
88.3374 906.00
88.4026 859.00
88.4678 867.00
88.533 844.00
88.5982 789.00
88.6634 866.00
88.7286 836.00
88.7938 821.00
88.859 839.00
88.9242 810.00
88.9894 829.00
89.0546 827.00
89.1198 826.00
89.185 869.00
89.2502 833.00
89.3154 840.00
89.3806 824.00
89.4458 828.00
89.511 834.00
89.5762 860.00
89.6414 890.00
89.7066 905.00
89.7718 932.00
89.837 806.00
89.9022 924.00
89.9674 955.00
90.0326 928.00
90.0978 957.00
90.163 943.00
90.2282 940.00
90.2934 912.00
90.3586 948.00
90.4238 929.00
90.489 965.00
90.5542 850.00
90.6193 883.00
90.6845 927.00
90.7497 969.00
90.8149 915.00
90.8801 1016.00
90.9453 965.00
91.0105 1018.00
91.0757 1055.00
91.1409 1042.00
91.2061 1054.00
91.2713 1029.00
91.3365 1081.00
91.4017 1003.00
91.4669 1073.00
91.5321 1112.00
91.5973 975.00
91.6625 1002.00
91.7277 981.00
91.7929 891.00
91.8581 855.00
91.9233 938.00
91.9885 884.00
92.0537 815.00
92.1189 840.00
92.1841 834.00
92.2493 816.00
92.3145 878.00
92.3797 818.00
92.4449 897.00
92.5101 821.00
92.5753 865.00
92.6405 833.00
92.7057 780.00
92.7709 858.00
92.8361 870.00
92.9013 796.00
92.9665 858.00
93.0317 866.00
93.0969 883.00
93.1621 850.00
93.2273 911.00
93.2925 881.00
93.3577 882.00
93.4229 899.00
93.4881 936.00
93.5533 884.00
93.6185 885.00
93.6837 919.00
93.7489 946.00
93.8141 907.00
93.8793 931.00
93.9445 898.00
94.0097 881.00
94.0749 934.00
94.1401 894.00
94.2053 880.00
94.2705 845.00
94.3357 845.00
94.4009 764.00
94.4661 795.00
94.5313 843.00
94.5965 830.00
94.6617 827.00
94.7269 830.00
94.7921 868.00
94.8573 781.00
94.9225 847.00
94.9877 779.00
95.0529 779.00
95.1181 797.00
95.1833 822.00
95.2485 837.00
95.3137 803.00
95.3789 877.00
95.444 906.00
95.5092 909.00
95.5744 924.00
95.6396 843.00
95.7048 865.00
95.77 925.00
95.8352 953.00
95.9004 911.00
95.9656 910.00
96.0308 945.00
96.096 993.00
96.1612 956.00
96.2264 966.00
96.2916 950.00
96.3568 983.00
96.422 926.00
96.4872 898.00
96.5524 922.00
96.6176 973.00
96.6828 870.00
96.748 953.00
96.8132 977.00
96.8784 891.00
96.9436 940.00
97.0088 957.00
97.074 988.00
97.1392 974.00
97.2044 917.00
97.2696 1018.00
97.3348 1047.00
97.4 975.00
97.4652 1053.00
97.5304 981.00
97.5956 988.00
97.6608 954.00
97.726 955.00
97.7912 942.00
97.8564 963.00
97.9216 958.00
97.9868 923.00
98.052 938.00
98.1172 908.00
98.1824 981.00
98.2476 870.00
98.3128 859.00
98.378 909.00
98.4432 907.00
98.5084 957.00
98.5736 939.00
98.6388 870.00
98.704 886.00
98.7692 780.00
98.8344 821.00
98.8996 857.00
98.9648 834.00
99.03 849.00
99.0952 812.00
99.1604 828.00
99.2256 784.00
99.2908 774.00
99.356 733.00
99.4212 770.00
99.4864 719.00
99.5516 732.00
99.6168 753.00
99.682 728.00
99.7472 714.00
99.8124 753.00
99.8776 730.00
99.9428 758.00
100.008 787.00
100.073 794.00
100.095 758.00