File: data/xrd_creation/results/NSC_172.xy
9.903433 2836.00
9.968632 2686.00
10.0338 2618.00
10.099 2730.00
10.1642 2592.00
10.2294 2527.00
10.2946 2626.00
10.3598 2618.00
10.425 2618.00
10.4902 2601.00
10.5554 2584.00
10.6206 2572.00
10.6858 2595.00
10.751 2456.00
10.8162 2450.00
10.8814 2458.00
10.9466 2463.00
11.0118 2529.00
11.077 2351.00
11.1422 2423.00
11.2074 2396.00
11.2726 2350.00
11.3378 2299.00
11.403 2315.00
11.4682 2310.00
11.5334 2354.00
11.5986 2283.00
11.6638 2248.00
11.729 2199.00
11.7942 2204.00
11.8594 2143.00
11.9246 2159.00
11.9898 2153.00
12.055 2164.00
12.1202 2246.00
12.1854 2141.00
12.2506 2137.00
12.3158 2065.00
12.381 2141.00
12.4462 2101.00
12.5114 2090.00
12.5766 2076.00
12.6418 2062.00
12.707 2172.00
12.7722 2051.00
12.8374 2105.00
12.9026 2004.00
12.9678 2039.00
13.033 2023.00
13.0982 2108.00
13.1634 2025.00
13.2286 1931.00
13.2938 2014.00
13.359 1937.00
13.4242 2014.00
13.4894 1958.00
13.5546 1964.00
13.6198 1996.00
13.685 1935.00
13.7502 2038.00
13.8154 1922.00
13.8805 1967.00
13.9457 1912.00
14.0109 2012.00
14.0761 2044.00
14.1413 2060.00
14.2065 2328.00
14.2717 2590.00
14.3369 2948.00
14.4021 3417.00
14.4673 3410.00
14.5325 2434.00
14.5977 2007.00
14.6629 1883.00
14.7281 1916.00
14.7933 1952.00
14.8585 1863.00
14.9237 1796.00
14.9889 1867.00
15.0541 1790.00
15.1193 1790.00
15.1845 1742.00
15.2497 1835.00
15.3149 1834.00
15.3801 1788.00
15.4453 1791.00
15.5105 1741.00
15.5757 1698.00
15.6409 1752.00
15.7061 1845.00
15.7713 1775.00
15.8365 1767.00
15.9017 1761.00
15.9669 1800.00
16.0321 1761.00
16.0973 1763.00
16.1625 1734.00
16.2277 1776.00
16.2929 1821.00
16.3581 1681.00
16.4233 1704.00
16.4885 1701.00
16.5537 1680.00
16.6189 1686.00
16.6841 1742.00
16.7493 1684.00
16.8145 1699.00
16.8797 1679.00
16.9449 1641.00
17.0101 1633.00
17.0753 1600.00
17.1405 1592.00
17.2057 1711.00
17.2709 1658.00
17.3361 1553.00
17.4013 1668.00
17.4665 1653.00
17.5317 1627.00
17.5969 1543.00
17.6621 1585.00
17.7273 1606.00
17.7925 1540.00
17.8577 1560.00
17.9229 1616.00
17.9881 1611.00
18.0533 1594.00
18.1185 1535.00
18.1837 1453.00
18.2489 1544.00
18.3141 1559.00
18.3793 1504.00
18.4445 1518.00
18.5097 1567.00
18.5749 1563.00
18.6401 1530.00
18.7052 1489.00
18.7704 1497.00
18.8356 1488.00
18.9008 1476.00
18.966 1411.00
19.0312 1389.00
19.0964 1438.00
19.1616 1496.00
19.2268 1429.00
19.292 1467.00
19.3572 1472.00
19.4224 1481.00
19.4876 1558.00
19.5528 1555.00
19.618 1576.00
19.6832 1759.00
19.7484 1866.00
19.8136 2194.00
19.8788 3185.00
19.944 4622.00
20.0092 6422.00
20.0744 7138.00
20.1396 4728.00
20.2048 2502.00
20.27 2082.00
20.3352 2359.00
20.4004 3156.00
20.4656 4638.00
20.5308 6506.00
20.596 6805.00
20.6612 4328.00
20.7264 2394.00
20.7916 1685.00
20.8568 1580.00
20.922 1486.00
20.9872 1494.00
21.0524 1440.00
21.1176 1380.00
21.1828 1450.00
21.248 1380.00
21.3132 1305.00
21.3784 1415.00
21.4436 1440.00
21.5088 1400.00
21.574 1377.00
21.6392 1439.00
21.7044 1466.00
21.7696 1446.00
21.8348 1450.00
21.9 1380.00
21.9652 1335.00
22.0304 1358.00
22.0956 1331.00
22.1608 1362.00
22.226 1316.00
22.2912 1392.00
22.3564 1353.00
22.4216 1283.00
22.4868 1216.00
22.552 1269.00
22.6172 1342.00
22.6824 1299.00
22.7476 1358.00
22.8128 1237.00
22.878 1307.00
22.9432 1317.00
23.0084 1244.00
23.0736 1316.00
23.1388 1345.00
23.204 1351.00
23.2692 1463.00
23.3344 1505.00
23.3996 1438.00
23.4647 1525.00
23.5299 1758.00
23.5951 2002.00
23.6603 2498.00
23.7255 4067.00
23.7907 6546.00
23.8559 8684.00
23.9211 6763.00
23.9863 3313.00
24.0515 1821.00
24.1167 1532.00
24.1819 1460.00
24.2471 1417.00
24.3123 1343.00
24.3775 1219.00
24.4427 1165.00
24.5079 1225.00
24.5731 1239.00
24.6383 1245.00
24.7035 1219.00
24.7687 1264.00
24.8339 1185.00
24.8991 1161.00
24.9643 1112.00
25.0295 1134.00
25.0947 1190.00
25.1599 1151.00
25.2251 1119.00
25.2903 1152.00
25.3555 1133.00
25.4207 1117.00
25.4859 1084.00
25.5511 1033.00
25.6163 1126.00
25.6815 1084.00
25.7467 1059.00
25.8119 1116.00
25.8771 1138.00
25.9423 1161.00
26.0075 1067.00
26.0727 1090.00
26.1379 1074.00
26.2031 1133.00
26.2683 1145.00
26.3335 1118.00
26.3987 1118.00
26.4639 1119.00
26.5291 1129.00
26.5943 1205.00
26.6595 1211.00
26.7247 1583.00
26.7899 2074.00
26.8551 3423.00
26.9203 4789.00
26.9855 3786.00
27.0507 2139.00
27.1159 1357.00
27.1811 1171.00
27.2463 1142.00
27.3115 1168.00
27.3767 1030.00
27.4419 1045.00
27.5071 1045.00
27.5723 963.00
27.6375 1011.00
27.7027 1069.00
27.7679 1084.00
27.8331 1019.00
27.8983 1025.00
27.9635 1057.00
28.0287 968.00
28.0939 1057.00
28.1591 1038.00
28.2243 1026.00
28.2894 1099.00
28.3546 1144.00
28.4198 1192.00
28.485 1390.00
28.5502 1832.00
28.6154 2846.00
28.6806 4611.00
28.7458 5195.00
28.811 3799.00
28.8762 2062.00
28.9414 1187.00
29.0066 1067.00
29.0718 997.00
29.137 1014.00
29.2022 969.00
29.2674 965.00
29.3326 892.00
29.3978 911.00
29.463 943.00
29.5282 964.00
29.5934 905.00
29.6586 920.00
29.7238 915.00
29.789 972.00
29.8542 911.00
29.9194 950.00
29.9846 995.00
30.0498 911.00
30.115 926.00
30.1802 889.00
30.2454 907.00
30.3106 911.00
30.3758 850.00
30.441 855.00
30.5062 918.00
30.5714 877.00
30.6366 904.00
30.7018 908.00
30.767 945.00
30.8322 956.00
30.8974 924.00
30.9626 958.00
31.0278 954.00
31.093 944.00
31.1582 1022.00
31.2234 1020.00
31.2886 1045.00
31.3538 1184.00
31.419 1209.00
31.4842 1483.00
31.5494 2008.00
31.6146 2885.00
31.6798 4875.00
31.745 7564.00
31.8102 9756.00
31.8754 9235.00
31.9406 5446.00
32.0058 2410.00
32.071 1317.00
32.1362 1113.00
32.2014 1026.00
32.2666 948.00
32.3318 884.00
32.397 922.00
32.4622 851.00
32.5274 825.00
32.5926 803.00
32.6578 842.00
32.723 851.00
32.7882 916.00
32.8534 847.00
32.9186 851.00
32.9838 917.00
33.0489 907.00
33.1141 828.00
33.1793 868.00
33.2445 818.00
33.3097 774.00
33.3749 843.00
33.4401 798.00
33.5053 811.00
33.5705 783.00
33.6357 824.00
33.7009 821.00
33.7661 893.00
33.8313 842.00
33.8965 918.00
33.9617 986.00
34.0269 1279.00
34.0921 1950.00
34.1573 3162.00
34.2225 3517.00
34.2877 2574.00
34.3529 1616.00
34.4181 1171.00
34.4833 1050.00
34.5485 1006.00
34.6137 936.00
34.6789 877.00
34.7441 794.00
34.8093 829.00
34.8745 816.00
34.9397 835.00
35.0049 799.00
35.0701 855.00
35.1353 884.00
35.2005 1005.00
35.2657 1123.00
35.3309 1524.00
35.3961 2093.00
35.4613 2481.00
35.5265 2300.00
35.5917 2372.00
35.6569 3342.00
35.7221 4512.00
35.7873 4251.00
35.8525 3076.00
35.9177 1938.00
35.9829 1274.00
36.0481 951.00
36.1133 862.00
36.1785 774.00
36.2437 708.00
36.3089 735.00
36.3741 725.00
36.4393 744.00
36.5045 676.00
36.5697 671.00
36.6349 692.00
36.7001 709.00
36.7653 723.00
36.8305 697.00
36.8957 765.00
36.9609 683.00
37.0261 689.00
37.0913 755.00
37.1565 700.00
37.2217 673.00
37.2869 659.00
37.3521 731.00
37.4173 688.00
37.4825 636.00
37.5477 687.00
37.6129 631.00
37.6781 645.00
37.7433 732.00
37.8085 670.00
37.8736 656.00
37.9388 739.00
38.004 710.00
38.0692 829.00
38.1344 842.00
38.1996 1112.00
38.2648 1388.00
38.33 1249.00
38.3952 1016.00
38.4604 868.00
38.5256 732.00
38.5908 720.00
38.656 702.00
38.7212 628.00
38.7864 634.00
38.8516 645.00
38.9168 644.00
38.982 662.00
39.0472 620.00
39.1124 668.00
39.1776 641.00
39.2428 754.00
39.308 805.00
39.3732 742.00
39.4384 691.00
39.5036 627.00
39.5688 678.00
39.634 638.00
39.6992 596.00
39.7644 641.00
39.8296 623.00
39.8948 633.00
39.96 631.00
40.0252 642.00
40.0904 616.00
40.1556 699.00
40.2208 691.00
40.286 799.00
40.3512 1039.00
40.4164 987.00
40.4816 907.00
40.5468 800.00
40.612 672.00
40.6772 588.00
40.7424 626.00
40.8076 593.00
40.8728 591.00
40.938 620.00
41.0032 626.00
41.0684 625.00
41.1336 582.00
41.1988 584.00
41.264 578.00
41.3292 637.00
41.3944 687.00
41.4596 684.00
41.5248 649.00
41.59 618.00
41.6552 615.00
41.7204 625.00
41.7856 575.00
41.8508 657.00
41.916 633.00
41.9812 677.00
42.0464 776.00
42.1116 862.00
42.1768 786.00
42.242 737.00
42.3072 729.00
42.3724 745.00
42.4376 783.00
42.5028 832.00
42.568 926.00
42.6332 830.00
42.6983 769.00
42.7635 735.00
42.8287 676.00
42.8939 662.00
42.9591 689.00
43.0243 708.00
43.0895 738.00
43.1547 793.00
43.2199 953.00
43.2851 1144.00
43.3503 1117.00
43.4155 1093.00
43.4807 1116.00
43.5459 1010.00
43.6111 905.00
43.6763 730.00
43.7415 660.00
43.8067 627.00
43.8719 643.00
43.9371 732.00
44.0023 726.00
44.0675 725.00
44.1327 692.00
44.1979 626.00
44.2631 581.00
44.3283 579.00
44.3935 610.00
44.4587 567.00
44.5239 570.00
44.5891 538.00
44.6543 554.00
44.7195 533.00
44.7847 553.00
44.8499 560.00
44.9151 581.00
44.9803 566.00
45.0455 578.00
45.1107 572.00
45.1759 623.00
45.2411 598.00
45.3063 653.00
45.3715 770.00
45.4367 936.00
45.5019 1236.00
45.5671 1691.00
45.6323 1659.00
45.6975 1390.00
45.7627 1054.00
45.8279 751.00
45.8931 658.00
45.9583 642.00
46.0235 627.00
46.0887 664.00
46.1539 821.00
46.2191 1111.00
46.2843 1409.00
46.3495 1372.00
46.4147 1253.00
46.4799 960.00
46.5451 759.00
46.6103 590.00
46.6755 579.00
46.7407 585.00
46.8059 615.00
46.8711 538.00
46.9363 557.00
47.0015 613.00
47.0667 593.00
47.1319 561.00
47.1971 625.00
47.2623 685.00
47.3275 770.00
47.3927 860.00
47.4579 1025.00
47.523 1125.00
47.5882 1020.00
47.6534 904.00
47.7186 719.00
47.7838 673.00
47.849 630.00
47.9142 716.00
47.9794 786.00
48.0446 767.00
48.1098 789.00
48.175 850.00
48.2402 1145.00
48.3054 1690.00
48.3706 2493.00
48.4358 3006.00
48.501 2760.00
48.5662 2151.00
48.6314 1514.00
48.6966 1017.00
48.7618 942.00
48.827 894.00
48.8922 918.00
48.9574 980.00
49.0226 813.00
49.0878 831.00
49.153 780.00
49.2182 802.00
49.2834 779.00
49.3486 749.00
49.4138 757.00
49.479 573.00
49.5442 595.00
49.6094 501.00
49.6746 488.00
49.7398 521.00
49.805 524.00
49.8702 499.00
49.9354 483.00
50.0006 480.00
50.0658 522.00
50.131 488.00
50.1962 520.00
50.2614 478.00
50.3266 513.00
50.3918 509.00
50.457 516.00
50.5222 496.00
50.5874 549.00
50.6526 513.00
50.7178 501.00
50.783 533.00
50.8482 501.00
50.9134 563.00
50.9786 542.00
51.0438 616.00
51.109 575.00
51.1742 577.00
51.2394 526.00
51.3046 541.00
51.3698 530.00
51.435 524.00
51.5002 570.00
51.5654 526.00
51.6306 638.00
51.6958 639.00
51.761 757.00
51.8262 896.00
51.8914 1196.00
51.9566 1774.00
52.0218 2986.00
52.087 3785.00
52.1522 3754.00
52.2174 3397.00
52.2826 2559.00
52.3477 1733.00
52.4129 1201.00
52.4781 853.00
52.5433 676.00
52.6085 605.00
52.6737 542.00
52.7389 512.00
52.8041 598.00
52.8693 567.00
52.9345 563.00
52.9997 554.00
53.0649 516.00
53.1301 567.00
53.1953 462.00
53.2605 499.00
53.3257 510.00
53.3909 450.00
53.4561 441.00
53.5213 500.00
53.5865 501.00
53.6517 494.00
53.7169 495.00
53.7821 490.00
53.8473 494.00
53.9125 455.00
53.9777 464.00
54.0429 469.00
54.1081 468.00
54.1733 537.00
54.2385 471.00
54.3037 473.00
54.3689 533.00
54.4341 524.00
54.4993 516.00
54.5645 559.00
54.6297 521.00
54.6949 645.00
54.7601 825.00
54.8253 928.00
54.8905 956.00
54.9557 975.00
55.0209 1129.00
55.0861 1050.00
55.1513 969.00
55.2165 974.00
55.2817 954.00
55.3469 1092.00
55.4121 1340.00
55.4773 1484.00
55.5425 1741.00
55.6077 1959.00
55.6729 1930.00
55.7381 1781.00
55.8033 1499.00
55.8685 1240.00
55.9337 887.00
55.9989 739.00
56.0641 630.00
56.1293 592.00
56.1945 538.00
56.2597 519.00
56.3249 497.00
56.3901 485.00
56.4553 472.00
56.5205 484.00
56.5857 448.00
56.6509 491.00
56.7161 508.00
56.7813 503.00
56.8465 504.00
56.9117 602.00
56.9769 568.00
57.042 640.00
57.1073 614.00
57.1724 628.00
57.2376 604.00
57.3028 546.00
57.368 510.00
57.4332 509.00
57.4984 494.00
57.5636 475.00
57.6288 430.00
57.694 445.00
57.7592 458.00
57.8244 458.00
57.8896 424.00
57.9548 438.00
58.02 550.00
58.0852 621.00
58.1504 584.00
58.2156 602.00
58.2808 524.00
58.346 521.00
58.4112 462.00
58.4764 480.00
58.5416 451.00
58.6068 472.00
58.672 414.00
58.7372 429.00
58.8024 523.00
58.8676 507.00
58.9328 568.00
58.998 606.00
59.0632 633.00
59.1284 622.00
59.1936 648.00
59.2588 634.00
59.324 627.00
59.3892 654.00
59.4544 668.00
59.5196 658.00
59.5848 665.00
59.65 595.00
59.7152 526.00
59.7804 516.00
59.8456 446.00
59.9108 464.00
59.976 472.00
60.0412 460.00
60.1064 464.00
60.1716 491.00
60.2368 524.00
60.302 529.00
60.3672 546.00
60.4324 651.00
60.4976 796.00
60.5628 1049.00
60.628 1240.00
60.6932 1329.00
60.7584 1103.00
60.8236 1053.00
60.8888 835.00
60.954 674.00
61.0192 605.00
61.0844 576.00
61.1496 675.00
61.2148 670.00
61.28 906.00
61.3452 1121.00
61.4104 1442.00
61.4756 1373.00
61.5408 1288.00
61.606 1087.00
61.6712 930.00
61.7364 792.00
61.8016 646.00
61.8667 628.00
61.932 666.00
61.9971 725.00
62.0623 789.00
62.1275 1065.00
62.1927 1030.00
62.2579 852.00
62.3231 820.00
62.3883 658.00
62.4535 579.00
62.5187 508.00
62.5839 454.00
62.6491 467.00
62.7143 432.00
62.7795 457.00
62.8447 488.00
62.9099 472.00
62.9751 543.00
63.0403 533.00
63.1055 587.00
63.1707 617.00
63.2359 661.00
63.3011 692.00
63.3663 759.00
63.4315 824.00
63.4967 879.00
63.5619 1032.00
63.6271 974.00
63.6923 1059.00
63.7575 1018.00
63.8227 1004.00
63.8879 974.00
63.9531 896.00
64.0183 831.00
64.0835 694.00
64.1487 601.00
64.2139 555.00
64.2791 547.00
64.3443 518.00
64.4095 483.00
64.4747 576.00
64.5399 675.00
64.6051 722.00
64.6703 704.00
64.7355 648.00
64.8007 629.00
64.8659 647.00
64.9311 766.00
64.9963 868.00
65.0615 742.00
65.1267 730.00
65.1919 735.00
65.2571 610.00
65.3223 499.00
65.3875 451.00
65.4527 455.00
65.5179 431.00
65.5831 454.00
65.6483 455.00
65.7135 398.00
65.7787 445.00
65.8439 466.00
65.9091 445.00
65.9743 495.00
66.0395 512.00
66.1047 695.00
66.1699 754.00
66.2351 838.00
66.3003 812.00
66.3655 766.00
66.4307 775.00
66.4959 670.00
66.561 679.00
66.6263 580.00
66.6915 536.00
66.7566 523.00
66.8218 505.00
66.887 497.00
66.9522 469.00
67.0174 473.00
67.0826 531.00
67.1478 537.00
67.213 621.00
67.2782 650.00
67.3434 757.00
67.4086 858.00
67.4738 925.00
67.539 800.00
67.6042 814.00
67.6694 694.00
67.7346 631.00
67.7998 533.00
67.865 500.00
67.9302 471.00
67.9954 470.00
68.0606 472.00
68.1258 478.00
68.191 501.00
68.2562 559.00
68.3214 639.00
68.3866 637.00
68.4518 670.00
68.517 689.00
68.5822 693.00
68.6474 633.00
68.7126 588.00
68.7778 506.00
68.843 508.00
68.9082 522.00
68.9734 465.00
69.0386 559.00
69.1038 526.00
69.169 501.00
69.2342 572.00
69.2994 512.00
69.3646 536.00
69.4298 435.00
69.495 441.00
69.5602 442.00
69.6254 375.00
69.6906 371.00
69.7558 396.00
69.821 394.00
69.8862 329.00
69.9514 323.00
70.0166 380.00
70.0818 350.00
70.147 378.00
70.2122 350.00
70.2774 407.00
70.3426 375.00
70.4078 359.00
70.473 364.00
70.5382 372.00
70.6034 375.00
70.6686 411.00
70.7338 366.00
70.799 436.00
70.8642 401.00
70.9294 436.00
70.9946 488.00
71.0598 514.00
71.125 578.00
71.1902 600.00
71.2554 750.00
71.3205 850.00
71.3858 826.00
71.451 885.00
71.5162 876.00
71.5813 844.00
71.6465 680.00
71.7117 582.00
71.7769 557.00
71.8421 449.00
71.9073 436.00
71.9725 426.00
72.0377 420.00
72.1029 393.00
72.1681 400.00
72.2333 482.00
72.2985 438.00
72.3637 486.00
72.4289 446.00
72.4941 466.00
72.5593 464.00
72.6245 440.00
72.6897 434.00
72.7549 403.00
72.8201 378.00
72.8853 368.00
72.9505 354.00
73.0157 370.00
73.0809 337.00
73.1461 326.00
73.2113 355.00
73.2765 380.00
73.3417 336.00
73.4069 374.00
73.4721 373.00
73.5373 332.00
73.6025 348.00
73.6677 301.00
73.7329 331.00
73.7981 344.00
73.8633 341.00
73.9285 334.00
73.9937 348.00
74.0589 389.00
74.1241 331.00
74.1893 384.00
74.2545 387.00
74.3197 375.00
74.3849 408.00
74.4501 398.00
74.5153 442.00
74.5805 461.00
74.6457 475.00
74.7109 563.00
74.7761 575.00
74.8413 632.00
74.9065 610.00
74.9717 673.00
75.0369 674.00
75.1021 714.00
75.1673 769.00
75.2325 711.00
75.2977 703.00
75.3629 636.00
75.4281 579.00
75.4933 542.00
75.5585 500.00
75.6237 496.00
75.6889 515.00
75.7541 445.00
75.8193 447.00
75.8845 465.00
75.9497 509.00
76.0149 505.00
76.0801 492.00
76.1452 476.00
76.2104 477.00
76.2756 452.00
76.3409 420.00
76.406 408.00
76.4712 390.00
76.5364 379.00
76.6016 367.00
76.6668 366.00
76.732 395.00
76.7972 395.00
76.8624 455.00
76.9276 472.00
76.9928 454.00
77.058 501.00
77.1232 513.00
77.1884 433.00
77.2536 464.00
77.3188 430.00
77.384 431.00
77.4492 387.00
77.5144 389.00
77.5796 319.00
77.6448 354.00
77.71 368.00
77.7752 321.00
77.8404 347.00
77.9056 315.00
77.9708 390.00
78.036 371.00
78.1012 369.00
78.1664 371.00
78.2316 400.00
78.2968 387.00
78.362 421.00
78.4272 424.00
78.4924 436.00
78.5576 416.00
78.6228 506.00
78.688 526.00
78.7532 564.00
78.8184 581.00
78.8836 665.00
78.9488 722.00
79.014 741.00
79.0792 617.00
79.1444 654.00
79.2096 579.00
79.2748 531.00
79.34 486.00
79.4052 470.00
79.4704 442.00
79.5356 445.00
79.6008 465.00
79.666 474.00
79.7312 441.00
79.7964 401.00
79.8616 367.00
79.9268 368.00
79.992 370.00
80.0572 371.00
80.1224 355.00
80.1876 357.00
80.2528 359.00
80.318 393.00
80.3832 413.00
80.4484 341.00
80.5136 348.00
80.5788 398.00
80.644 368.00
80.7092 381.00
80.7744 357.00
80.8396 377.00
80.9048 322.00
80.9699 372.00
81.0351 336.00
81.1003 361.00
81.1655 332.00
81.2307 382.00
81.2959 391.00
81.3611 402.00
81.4263 372.00
81.4915 425.00
81.5567 414.00
81.6219 400.00
81.6871 375.00
81.7523 405.00
81.8175 407.00
81.8827 466.00
81.9479 428.00
82.0131 490.00
82.0783 528.00
82.1435 529.00
82.2087 522.00
82.2739 455.00
82.3391 463.00
82.4043 429.00
82.4695 384.00
82.5347 369.00
82.5999 331.00
82.6651 334.00
82.7303 330.00
82.7955 328.00
82.8607 330.00
82.9259 328.00
82.9911 355.00
83.0563 384.00
83.1215 367.00
83.1867 402.00
83.2519 378.00
83.3171 441.00
83.3823 426.00
83.4475 407.00
83.5127 405.00
83.5779 447.00
83.6431 467.00
83.7083 554.00
83.7735 600.00
83.8387 610.00
83.9039 699.00
83.9691 660.00
84.0343 634.00
84.0995 633.00
84.1647 576.00
84.2299 564.00
84.2951 473.00
84.3603 433.00
84.4255 390.00
84.4907 395.00
84.5559 382.00
84.6211 372.00
84.6863 336.00
84.7515 350.00
84.8167 301.00
84.8819 324.00
84.9471 336.00
85.0123 378.00
85.0775 391.00
85.1427 425.00
85.2079 439.00
85.2731 428.00
85.3383 403.00
85.4035 437.00
85.4687 418.00
85.5339 445.00
85.5991 440.00
85.6643 373.00
85.7295 406.00
85.7946 468.00
85.8598 412.00
85.925 444.00
85.9903 445.00
86.0554 444.00
86.1206 404.00
86.1858 399.00
86.251 390.00
86.3162 345.00
86.3814 366.00
86.4466 330.00
86.5118 323.00
86.577 336.00
86.6422 347.00
86.7074 319.00
86.7726 366.00
86.8378 332.00
86.903 340.00
86.9682 331.00
87.0334 270.00
87.0986 368.00
87.1638 333.00
87.229 337.00
87.2942 380.00
87.3594 382.00
87.4246 434.00
87.4898 411.00
87.555 428.00
87.6202 411.00
87.6854 491.00
87.7506 444.00
87.8158 440.00
87.881 477.00
87.9462 408.00
88.0114 392.00
88.0766 363.00
88.1418 363.00
88.207 390.00
88.2722 388.00
88.3374 386.00
88.4026 395.00
88.4678 403.00
88.533 366.00
88.5982 395.00
88.6634 386.00
88.7286 415.00
88.7938 430.00
88.859 455.00
88.9242 416.00
88.9894 461.00
89.0546 441.00
89.1198 436.00
89.185 460.00
89.2502 437.00
89.3154 446.00
89.3806 490.00
89.4458 376.00
89.511 439.00
89.5762 429.00
89.6414 456.00
89.7066 432.00
89.7718 475.00
89.837 496.00
89.9022 573.00
89.9674 698.00
90.0326 743.00
90.0978 747.00
90.163 747.00
90.2282 776.00
90.2934 753.00
90.3586 658.00
90.4238 650.00
90.489 566.00
90.5542 525.00
90.6193 517.00
90.6845 426.00
90.7497 421.00
90.8149 439.00
90.8801 427.00
90.9453 458.00
91.0105 442.00
91.0757 529.00
91.1409 532.00
91.2061 500.00
91.2713 460.00
91.3365 459.00
91.4017 436.00
91.4669 409.00
91.5321 447.00
91.5973 424.00
91.6625 411.00
91.7277 365.00
91.7929 324.00
91.8581 351.00
91.9233 362.00
91.9885 337.00
92.0537 351.00
92.1189 352.00
92.1841 403.00
92.2493 437.00
92.3145 409.00
92.3797 450.00
92.4449 415.00
92.5101 479.00
92.5753 428.00
92.6405 456.00
92.7057 483.00
92.7709 456.00
92.8361 456.00
92.9013 416.00
92.9665 400.00
93.0317 368.00
93.0969 382.00
93.1621 357.00
93.2273 322.00
93.2925 373.00
93.3577 374.00
93.4229 384.00
93.4881 410.00
93.5533 412.00
93.6185 407.00
93.6837 363.00
93.7489 385.00
93.8141 358.00
93.8793 368.00
93.9445 367.00
94.0097 349.00
94.0749 370.00
94.1401 359.00
94.2053 355.00
94.2705 356.00
94.3357 431.00
94.4009 415.00
94.4661 371.00
94.5313 432.00
94.5965 378.00
94.6617 355.00
94.7269 377.00
94.7921 376.00
94.8573 367.00
94.9225 386.00
94.9877 372.00
95.0529 354.00
95.1181 360.00
95.1833 371.00
95.2485 349.00
95.3137 329.00
95.3789 358.00
95.444 409.00
95.5092 379.00
95.5744 359.00
95.6396 380.00
95.7048 401.00
95.77 430.00
95.8352 431.00
95.9004 454.00
95.9656 448.00
96.0308 511.00
96.096 601.00
96.1612 630.00
96.2264 660.00
96.2916 612.00
96.3568 592.00
96.422 632.00
96.4872 562.00
96.5524 569.00
96.6176 532.00
96.6828 501.00
96.748 474.00
96.8132 469.00
96.8784 440.00
96.9436 447.00
97.0088 425.00
97.074 440.00
97.1392 439.00
97.2044 433.00
97.2696 457.00
97.3348 440.00
97.4 452.00
97.4652 431.00
97.5304 432.00
97.5956 415.00
97.6608 404.00
97.726 399.00
97.7912 384.00
97.8564 334.00
97.9216 354.00
97.9868 344.00
98.052 334.00
98.1172 321.00
98.1824 346.00
98.2476 323.00
98.3128 320.00
98.378 326.00
98.4432 280.00
98.5084 317.00
98.5736 291.00
98.6388 309.00
98.704 295.00
98.7692 303.00
98.8344 297.00
98.8996 293.00
98.9648 300.00
99.03 359.00
99.0952 331.00
99.1604 358.00
99.2256 353.00
99.2908 348.00
99.356 379.00
99.4212 343.00
99.4864 367.00
99.5516 350.00
99.6168 352.00
99.682 393.00
99.7472 380.00
99.8124 370.00
99.8776 339.00
99.9428 368.00
100.008 318.00
100.073 329.00
100.095 382.00