File: data/xrd_creation/results/NSC_175.xy
9.903433 2719.00
9.968632 2724.00
10.0338 2663.00
10.099 2554.00
10.1642 2609.00
10.2294 2596.00
10.2946 2505.00
10.3598 2539.00
10.425 2483.00
10.4902 2595.00
10.5554 2433.00
10.6206 2437.00
10.6858 2476.00
10.751 2364.00
10.8162 2357.00
10.8814 2476.00
10.9466 2278.00
11.0118 2316.00
11.077 2233.00
11.1422 2246.00
11.2074 2312.00
11.2726 2223.00
11.3378 2260.00
11.403 2244.00
11.4682 2213.00
11.5334 2205.00
11.5986 2292.00
11.6638 2172.00
11.729 2232.00
11.7942 2143.00
11.8594 2234.00
11.9246 2059.00
11.9898 2155.00
12.055 2031.00
12.1202 2026.00
12.1854 2105.00
12.2506 2059.00
12.3158 2077.00
12.381 2027.00
12.4462 1974.00
12.5114 1991.00
12.5766 1891.00
12.6418 1927.00
12.707 1944.00
12.7722 1956.00
12.8374 1831.00
12.9026 1911.00
12.9678 1875.00
13.033 1847.00
13.0982 1800.00
13.1634 1799.00
13.2286 1774.00
13.2938 1838.00
13.359 1785.00
13.4242 1799.00
13.4894 1775.00
13.5546 1826.00
13.6198 1758.00
13.685 1646.00
13.7502 1727.00
13.8154 1752.00
13.8805 1715.00
13.9457 1731.00
14.0109 1766.00
14.0761 1699.00
14.1413 1810.00
14.2065 1861.00
14.2717 1959.00
14.3369 2114.00
14.4021 2326.00
14.4673 2669.00
14.5325 3095.00
14.5977 3070.00
14.6629 2059.00
14.7281 1721.00
14.7933 1709.00
14.8585 1730.00
14.9237 1728.00
14.9889 1654.00
15.0541 1611.00
15.1193 1527.00
15.1845 1544.00
15.2497 1515.00
15.3149 1592.00
15.3801 1536.00
15.4453 1591.00
15.5105 1637.00
15.5757 1539.00
15.6409 1535.00
15.7061 1582.00
15.7713 1559.00
15.8365 1500.00
15.9017 1571.00
15.9669 1468.00
16.0321 1526.00
16.0973 1543.00
16.1625 1579.00
16.2277 1481.00
16.2929 1538.00
16.3581 1502.00
16.4233 1451.00
16.4885 1525.00
16.5537 1479.00
16.6189 1472.00
16.6841 1446.00
16.7493 1471.00
16.8145 1455.00
16.8797 1445.00
16.9449 1401.00
17.0101 1435.00
17.0753 1383.00
17.1405 1451.00
17.2057 1421.00
17.2709 1466.00
17.3361 1393.00
17.4013 1401.00
17.4665 1398.00
17.5317 1404.00
17.5969 1369.00
17.6621 1399.00
17.7273 1357.00
17.7925 1333.00
17.8577 1308.00
17.9229 1353.00
17.9881 1339.00
18.0533 1301.00
18.1185 1306.00
18.1837 1360.00
18.2489 1361.00
18.3141 1347.00
18.3793 1278.00
18.4445 1332.00
18.5097 1330.00
18.5749 1264.00
18.6401 1280.00
18.7052 1297.00
18.7704 1268.00
18.8356 1361.00
18.9008 1255.00
18.966 1246.00
19.0312 1282.00
19.0964 1301.00
19.1616 1239.00
19.2268 1240.00
19.292 1282.00
19.3572 1225.00
19.4224 1232.00
19.4876 1300.00
19.5528 1210.00
19.618 1123.00
19.6832 1343.00
19.7484 1274.00
19.8136 1291.00
19.8788 1448.00
19.944 1491.00
20.0092 1689.00
20.0744 2107.00
20.1396 2847.00
20.2048 3911.00
20.27 4709.00
20.3352 3661.00
20.4004 2121.00
20.4656 1837.00
20.5308 2087.00
20.596 2682.00
20.6612 3647.00
20.7264 4082.00
20.7916 3034.00
20.8568 1746.00
20.922 1353.00
20.9872 1283.00
21.0524 1163.00
21.1176 1205.00
21.1828 1168.00
21.248 1285.00
21.3132 1109.00
21.3784 1156.00
21.4436 1204.00
21.5088 1136.00
21.574 1121.00
21.6392 1236.00
21.7044 1156.00
21.7696 1197.00
21.8348 1197.00
21.9 1180.00
21.9652 1133.00
22.0304 1101.00
22.0956 1014.00
22.1608 1134.00
22.226 1115.00
22.2912 1068.00
22.3564 1091.00
22.4216 1058.00
22.4868 1082.00
22.552 1063.00
22.6172 1034.00
22.6824 1071.00
22.7476 1091.00
22.8128 1032.00
22.878 1038.00
22.9432 1051.00
23.0084 1024.00
23.0736 1002.00
23.1388 1081.00
23.204 1169.00
23.2692 1170.00
23.3344 1156.00
23.3996 1278.00
23.4647 1299.00
23.5299 1430.00
23.5951 1624.00
23.6603 1744.00
23.7255 2007.00
23.7907 2520.00
23.8559 3604.00
23.9211 5946.00
23.9863 9830.00
24.0515 13496.00
24.1167 11397.00
24.1819 5524.00
24.2471 2434.00
24.3123 1812.00
24.3775 1833.00
24.4427 2015.00
24.5079 2260.00
24.5731 2065.00
24.6383 1534.00
24.7035 1208.00
24.7687 1068.00
24.8339 1113.00
24.8991 1076.00
24.9643 982.00
25.0295 967.00
25.0947 972.00
25.1599 1049.00
25.2251 1267.00
25.2903 1180.00
25.3555 1054.00
25.4207 1020.00
25.4859 971.00
25.5511 1032.00
25.6163 982.00
25.6815 976.00
25.7467 913.00
25.8119 939.00
25.8771 943.00
25.9423 876.00
26.0075 839.00
26.0727 933.00
26.1379 936.00
26.2031 925.00
26.2683 869.00
26.3335 935.00
26.3987 914.00
26.4639 922.00
26.5291 897.00
26.5943 884.00
26.6595 893.00
26.7247 870.00
26.7899 825.00
26.8551 846.00
26.9203 850.00
26.9855 865.00
27.0507 896.00
27.1159 821.00
27.1811 877.00
27.2463 834.00
27.3115 843.00
27.3767 862.00
27.4419 896.00
27.5071 950.00
27.5723 967.00
27.6375 1283.00
27.7027 1881.00
27.7679 2569.00
27.8331 1862.00
27.8983 1096.00
27.9635 894.00
28.0287 923.00
28.0939 870.00
28.1591 826.00
28.2243 844.00
28.2894 898.00
28.3546 880.00
28.4198 919.00
28.485 937.00
28.5502 1007.00
28.6154 1021.00
28.6806 1045.00
28.7458 1239.00
28.811 1663.00
28.8762 2413.00
28.9414 3561.00
29.0066 3894.00
29.0718 2838.00
29.137 1643.00
29.2022 1067.00
29.2674 899.00
29.3326 849.00
29.3978 853.00
29.463 797.00
29.5282 819.00
29.5934 781.00
29.6586 803.00
29.7238 779.00
29.789 756.00
29.8542 725.00
29.9194 738.00
29.9846 735.00
30.0498 804.00
30.115 770.00
30.1802 677.00
30.2454 732.00
30.3106 753.00
30.3758 745.00
30.441 730.00
30.5062 686.00
30.5714 676.00
30.6366 684.00
30.7018 713.00
30.767 759.00
30.8322 775.00
30.8974 777.00
30.9626 693.00
31.0278 804.00
31.093 768.00
31.1582 759.00
31.2234 881.00
31.2886 889.00
31.3538 896.00
31.419 888.00
31.4842 975.00
31.5494 1052.00
31.6146 1194.00
31.6798 1365.00
31.745 1650.00
31.8102 2319.00
31.8754 3386.00
31.9406 4742.00
32.0058 5702.00
32.071 7123.00
32.1362 9193.00
32.2014 8814.00
32.2666 5319.00
32.3318 2552.00
32.397 1271.00
32.4622 1024.00
32.5274 915.00
32.5926 974.00
32.6578 893.00
32.723 875.00
32.7882 832.00
32.8534 796.00
32.9186 758.00
32.9838 695.00
33.0489 734.00
33.1141 692.00
33.1793 634.00
33.2445 638.00
33.3097 660.00
33.3749 647.00
33.4401 638.00
33.5053 648.00
33.5705 653.00
33.6357 692.00
33.7009 629.00
33.7661 642.00
33.8313 595.00
33.8965 610.00
33.9617 624.00
34.0269 584.00
34.0921 550.00
34.1573 563.00
34.2225 561.00
34.2877 604.00
34.3529 584.00
34.4181 576.00
34.4833 591.00
34.5485 627.00
34.6137 614.00
34.6789 592.00
34.7441 628.00
34.8093 627.00
34.8745 592.00
34.9397 627.00
35.0049 616.00
35.0701 628.00
35.1353 654.00
35.2005 752.00
35.2657 783.00
35.3309 732.00
35.3961 713.00
35.4613 787.00
35.5265 871.00
35.5917 818.00
35.6569 999.00
35.7221 1181.00
35.7873 1391.00
35.8525 1845.00
35.9177 2691.00
35.9829 3489.00
36.0481 3307.00
36.1133 2374.00
36.1785 1565.00
36.2437 1044.00
36.3089 1004.00
36.3741 1109.00
36.4393 1045.00
36.5045 829.00
36.5697 639.00
36.6349 565.00
36.7001 571.00
36.7653 537.00
36.8305 532.00
36.8957 497.00
36.9609 526.00
37.0261 472.00
37.0913 517.00
37.1565 500.00
37.2217 512.00
37.2869 431.00
37.3521 499.00
37.4173 552.00
37.4825 493.00
37.5477 527.00
37.6129 517.00
37.6781 522.00
37.7433 470.00
37.8085 498.00
37.8736 509.00
37.9388 483.00
38.004 497.00
38.0692 467.00
38.1344 477.00
38.1996 486.00
38.2648 514.00
38.33 469.00
38.3952 459.00
38.4604 423.00
38.5256 483.00
38.5908 430.00
38.656 506.00
38.7212 420.00
38.7864 454.00
38.8516 471.00
38.9168 466.00
38.982 456.00
39.0472 465.00
39.1124 467.00
39.1776 459.00
39.2428 447.00
39.308 470.00
39.3732 456.00
39.4384 485.00
39.5036 624.00
39.5688 544.00
39.634 523.00
39.6992 494.00
39.7644 464.00
39.8296 440.00
39.8948 416.00
39.96 433.00
40.0252 453.00
40.0904 447.00
40.1556 423.00
40.2208 464.00
40.286 473.00
40.3512 458.00
40.4164 428.00
40.4816 491.00
40.5468 480.00
40.612 459.00
40.6772 515.00
40.7424 623.00
40.8076 712.00
40.8728 691.00
40.938 649.00
41.0032 506.00
41.0684 465.00
41.1336 498.00
41.1988 457.00
41.264 456.00
41.3292 478.00
41.3944 486.00
41.4596 599.00
41.5248 711.00
41.59 732.00
41.6552 646.00
41.7204 600.00
41.7856 525.00
41.8508 446.00
41.916 492.00
41.9812 461.00
42.0464 440.00
42.1116 440.00
42.1768 493.00
42.242 446.00
42.3072 511.00
42.3724 544.00
42.4376 624.00
42.5028 726.00
42.568 851.00
42.6332 870.00
42.6983 825.00
42.7635 706.00
42.8287 604.00
42.8939 589.00
42.9591 677.00
43.0243 785.00
43.0895 862.00
43.1547 688.00
43.2199 663.00
43.2851 597.00
43.3503 584.00
43.4155 713.00
43.4807 795.00
43.5459 1053.00
43.6111 1232.00
43.6763 1256.00
43.7415 1077.00
43.8067 904.00
43.8719 798.00
43.9371 622.00
44.0023 592.00
44.0675 514.00
44.1327 487.00
44.1979 471.00
44.2631 503.00
44.3283 592.00
44.3935 631.00
44.4587 538.00
44.5239 497.00
44.5891 480.00
44.6543 392.00
44.7195 430.00
44.7847 433.00
44.8499 420.00
44.9151 443.00
44.9803 413.00
45.0455 421.00
45.1107 433.00
45.1759 400.00
45.2411 433.00
45.3063 407.00
45.3715 426.00
45.4367 445.00
45.5019 470.00
45.5671 463.00
45.6323 477.00
45.6975 513.00
45.7627 501.00
45.8279 634.00
45.8931 749.00
45.9583 1108.00
46.0235 1486.00
46.0887 1660.00
46.1539 1394.00
46.2191 1052.00
46.2843 741.00
46.3495 530.00
46.4147 475.00
46.4799 486.00
46.5451 549.00
46.6103 721.00
46.6755 782.00
46.7407 718.00
46.8059 677.00
46.8711 583.00
46.9363 505.00
47.0015 460.00
47.0667 478.00
47.1319 466.00
47.1971 372.00
47.2623 467.00
47.3275 423.00
47.3927 397.00
47.4579 427.00
47.523 466.00
47.5882 433.00
47.6534 469.00
47.7186 486.00
47.7838 436.00
47.849 486.00
47.9142 597.00
47.9794 666.00
48.0446 744.00
48.1098 685.00
48.175 662.00
48.2402 692.00
48.3054 681.00
48.3706 691.00
48.4358 739.00
48.501 795.00
48.5662 803.00
48.6314 916.00
48.6966 1178.00
48.7618 1888.00
48.827 2541.00
48.8922 2652.00
48.9574 2332.00
49.0226 1744.00
49.0878 1196.00
49.153 967.00
49.2182 890.00
49.2834 835.00
49.3486 791.00
49.4138 700.00
49.479 595.00
49.5442 608.00
49.6094 588.00
49.6746 597.00
49.7398 646.00
49.805 741.00
49.8702 836.00
49.9354 868.00
50.0006 670.00
50.0658 585.00
50.131 514.00
50.1962 399.00
50.2614 398.00
50.3266 388.00
50.3918 371.00
50.457 388.00
50.5222 387.00
50.5874 365.00
50.6526 360.00
50.7178 351.00
50.783 364.00
50.8482 369.00
50.9134 369.00
50.9786 360.00
51.0438 363.00
51.109 340.00
51.1742 369.00
51.2394 354.00
51.3046 349.00
51.3698 388.00
51.435 389.00
51.5002 336.00
51.5654 372.00
51.6306 358.00
51.6958 393.00
51.761 384.00
51.8262 409.00
51.8914 402.00
51.9566 408.00
52.0218 439.00
52.087 406.00
52.1522 411.00
52.2174 489.00
52.2826 509.00
52.3477 502.00
52.4129 531.00
52.4781 727.00
52.5433 916.00
52.6085 1261.00
52.6737 1728.00
52.7389 2065.00
52.8041 1916.00
52.8693 1500.00
52.9345 1006.00
52.9997 818.00
53.0649 530.00
53.1301 486.00
53.1953 468.00
53.2605 464.00
53.3257 438.00
53.3909 442.00
53.4561 435.00
53.5213 422.00
53.5865 424.00
53.6517 394.00
53.7169 352.00
53.7821 351.00
53.8473 375.00
53.9125 358.00
53.9777 368.00
54.0429 371.00
54.1081 375.00
54.1733 375.00
54.2385 383.00
54.3037 390.00
54.3689 383.00
54.4341 468.00
54.4993 530.00
54.5645 827.00
54.6297 1020.00
54.6949 847.00
54.7601 726.00
54.8253 557.00
54.8905 464.00
54.9557 441.00
55.0209 437.00
55.0861 435.00
55.1513 482.00
55.2165 519.00
55.2817 681.00
55.3469 755.00
55.4121 732.00
55.4773 695.00
55.5425 631.00
55.6077 617.00
55.6729 604.00
55.7381 606.00
55.8033 693.00
55.8685 904.00
55.9337 1077.00
55.9989 1262.00
56.0641 1392.00
56.1293 1364.00
56.1945 1235.00
56.2597 1001.00
56.3249 792.00
56.3901 677.00
56.4553 558.00
56.5205 458.00
56.5857 391.00
56.6509 391.00
56.7161 444.00
56.7813 460.00
56.8465 549.00
56.9117 649.00
56.9769 553.00
57.042 551.00
57.1073 452.00
57.1724 422.00
57.2376 431.00
57.3028 469.00
57.368 546.00
57.4332 602.00
57.4984 633.00
57.5636 672.00
57.6288 626.00
57.694 551.00
57.7592 526.00
57.8244 470.00
57.8896 427.00
57.9548 381.00
58.02 342.00
58.0852 323.00
58.1504 335.00
58.2156 323.00
58.2808 302.00
58.346 289.00
58.4112 288.00
58.4764 312.00
58.5416 261.00
58.6068 321.00
58.672 314.00
58.7372 312.00
58.8024 321.00
58.8676 286.00
58.9328 307.00
58.998 291.00
59.0632 351.00
59.1284 333.00
59.1936 287.00
59.2588 346.00
59.324 335.00
59.3892 343.00
59.4544 373.00
59.5196 443.00
59.5848 417.00
59.65 471.00
59.7152 489.00
59.7804 464.00
59.8456 399.00
59.9108 386.00
59.976 381.00
60.0412 397.00
60.1064 419.00
60.1716 438.00
60.2368 488.00
60.302 489.00
60.3672 459.00
60.4324 449.00
60.4976 383.00
60.5628 337.00
60.628 382.00
60.6932 365.00
60.7584 358.00
60.8236 429.00
60.8888 389.00
60.954 440.00
61.0192 442.00
61.0844 571.00
61.1496 651.00
61.2148 811.00
61.28 881.00
61.3452 877.00
61.4104 797.00
61.4756 766.00
61.5408 643.00
61.606 525.00
61.6712 486.00
61.7364 515.00
61.8016 686.00
61.8667 784.00
61.932 964.00
61.9971 970.00
62.0623 993.00
62.1275 851.00
62.1927 740.00
62.2579 558.00
62.3231 540.00
62.3883 439.00
62.4535 427.00
62.5187 402.00
62.5839 426.00
62.6491 429.00
62.7143 541.00
62.7795 632.00
62.8447 727.00
62.9099 679.00
62.9751 673.00
63.0403 599.00
63.1055 509.00
63.1707 412.00
63.2359 387.00
63.3011 358.00
63.3663 315.00
63.4315 362.00
63.4967 355.00
63.5619 315.00
63.6271 376.00
63.6923 386.00
63.7575 406.00
63.8227 397.00
63.8879 406.00
63.9531 454.00
64.0183 496.00
64.0835 612.00
64.1487 735.00
64.2139 906.00
64.2791 958.00
64.3443 1093.00
64.4095 1007.00
64.4747 898.00
64.5399 785.00
64.6051 759.00
64.6703 596.00
64.7355 540.00
64.8007 455.00
64.8659 417.00
64.9311 380.00
64.9963 324.00
65.0615 368.00
65.1267 318.00
65.1919 432.00
65.2571 448.00
65.3223 479.00
65.3875 439.00
65.4527 450.00
65.5179 407.00
65.5831 371.00
65.6483 377.00
65.7135 327.00
65.7787 387.00
65.8439 330.00
65.9091 337.00
65.9743 305.00
66.0395 275.00
66.1047 319.00
66.1699 280.00
66.2351 287.00
66.3003 294.00
66.3655 283.00
66.4307 250.00
66.4959 248.00
66.561 293.00
66.6263 274.00
66.6915 295.00
66.7566 319.00
66.8218 344.00
66.887 315.00
66.9522 315.00
67.0174 312.00
67.0826 324.00
67.1478 321.00
67.213 364.00
67.2782 446.00
67.3434 456.00
67.4086 452.00
67.4738 535.00
67.539 475.00
67.6042 455.00
67.6694 449.00
67.7346 379.00
67.7998 357.00
67.865 336.00
67.9302 378.00
67.9954 439.00
68.0606 516.00
68.1258 533.00
68.191 573.00
68.2562 568.00
68.3214 541.00
68.3866 506.00
68.4518 453.00
68.517 378.00
68.5822 341.00
68.6474 323.00
68.7126 336.00
68.7778 342.00
68.843 365.00
68.9082 383.00
68.9734 422.00
69.0386 404.00
69.1038 502.00
69.169 518.00
69.2342 611.00
69.2994 683.00
69.3646 583.00
69.4298 588.00
69.495 576.00
69.5602 552.00
69.6254 547.00
69.6906 571.00
69.7558 551.00
69.821 534.00
69.8862 434.00
69.9514 444.00
70.0166 438.00
70.0818 430.00
70.147 362.00
70.2122 369.00
70.2774 317.00
70.3426 281.00
70.4078 282.00
70.473 290.00
70.5382 277.00
70.6034 238.00
70.6686 260.00
70.7338 270.00
70.799 232.00
70.8642 267.00
70.9294 248.00
70.9946 239.00
71.0598 281.00
71.125 238.00
71.1902 268.00
71.2554 242.00
71.3205 268.00
71.3858 303.00
71.451 273.00
71.5162 310.00
71.5813 313.00
71.6465 346.00
71.7117 380.00
71.7769 460.00
71.8421 519.00
71.9073 611.00
71.9725 672.00
72.0377 606.00
72.1029 552.00
72.1681 500.00
72.2333 474.00
72.2985 408.00
72.3637 402.00
72.4289 331.00
72.4941 299.00
72.5593 278.00
72.6245 296.00
72.6897 256.00
72.7549 306.00
72.8201 277.00
72.8853 267.00
72.9505 305.00
73.0157 341.00
73.0809 310.00
73.1461 374.00
73.2113 357.00
73.2765 411.00
73.3417 404.00
73.4069 379.00
73.4721 330.00
73.5373 330.00
73.6025 295.00
73.6677 273.00
73.7329 259.00
73.7981 265.00
73.8633 280.00
73.9285 246.00
73.9937 223.00
74.0589 230.00
74.1241 256.00
74.1893 256.00
74.2545 232.00
74.3197 222.00
74.3849 229.00
74.4501 220.00
74.5153 231.00
74.5805 227.00
74.6457 267.00
74.7109 234.00
74.7761 243.00
74.8413 204.00
74.9065 235.00
74.9717 277.00
75.0369 256.00
75.1021 277.00
75.1673 279.00
75.2325 307.00
75.2977 298.00
75.3629 293.00
75.4281 330.00
75.4933 326.00
75.5585 395.00
75.6237 444.00
75.6889 549.00
75.7541 644.00
75.8193 654.00
75.8845 672.00
75.9497 645.00
76.0149 582.00
76.0801 528.00
76.1452 447.00
76.2104 393.00
76.2756 345.00
76.3409 342.00
76.406 318.00
76.4712 286.00
76.5364 355.00
76.6016 392.00
76.6668 383.00
76.732 447.00
76.7972 418.00
76.8624 376.00
76.9276 391.00
76.9928 369.00
77.058 353.00
77.1232 304.00
77.1884 316.00
77.2536 286.00
77.3188 277.00
77.384 283.00
77.4492 293.00
77.5144 284.00
77.5796 319.00
77.6448 300.00
77.71 298.00
77.7752 310.00
77.8404 334.00
77.9056 319.00
77.9708 290.00
78.036 310.00
78.1012 341.00
78.1664 361.00
78.2316 321.00
78.2968 337.00
78.362 329.00
78.4272 294.00
78.4924 289.00
78.5576 277.00
78.6228 249.00
78.688 292.00
78.7532 241.00
78.8184 263.00
78.8836 220.00
78.9488 286.00
79.014 238.00
79.0792 241.00
79.1444 283.00
79.2096 313.00
79.2748 333.00
79.34 305.00
79.4052 319.00
79.4704 299.00
79.5356 299.00
79.6008 279.00
79.666 246.00
79.7312 249.00
79.7964 260.00
79.8616 233.00
79.9268 250.00
79.992 237.00
80.0572 234.00
80.1224 228.00
80.1876 272.00
80.2528 220.00
80.318 280.00
80.3832 257.00
80.4484 276.00
80.5136 258.00
80.5788 244.00
80.644 232.00
80.7092 265.00
80.7744 239.00
80.8396 231.00
80.9048 216.00
80.9699 221.00
81.0351 230.00
81.1003 247.00
81.1655 216.00
81.2307 241.00
81.2959 276.00
81.3611 256.00
81.4263 238.00
81.4915 234.00
81.5567 274.00
81.6219 241.00
81.6871 271.00
81.7523 276.00
81.8175 249.00
81.8827 257.00
81.9479 273.00
82.0131 229.00
82.0783 263.00
82.1435 206.00
82.2087 231.00
82.2739 211.00
82.3391 211.00
82.4043 243.00
82.4695 240.00
82.5347 268.00
82.5999 272.00
82.6651 315.00
82.7303 293.00
82.7955 311.00
82.8607 303.00
82.9259 302.00
82.9911 365.00
83.0563 345.00
83.1215 354.00
83.1867 362.00
83.2519 325.00
83.3171 318.00
83.3823 301.00
83.4475 258.00
83.5127 248.00
83.5779 234.00
83.6431 256.00
83.7083 207.00
83.7735 249.00
83.8387 228.00
83.9039 294.00
83.9691 227.00
84.0343 265.00
84.0995 263.00
84.1647 294.00
84.2299 287.00
84.2951 335.00
84.3603 316.00
84.4255 362.00
84.4907 380.00
84.5559 415.00
84.6211 413.00
84.6863 425.00
84.7515 401.00
84.8167 389.00
84.8819 375.00
84.9471 322.00
85.0123 309.00
85.0775 276.00
85.1427 297.00
85.2079 270.00
85.2731 272.00
85.3383 272.00
85.4035 277.00
85.4687 246.00
85.5339 258.00
85.5991 278.00
85.6643 240.00
85.7295 237.00
85.7946 249.00
85.8598 248.00
85.925 279.00
85.9903 283.00
86.0554 310.00
86.1206 323.00
86.1858 330.00
86.251 340.00
86.3162 292.00
86.3814 301.00
86.4466 271.00
86.5118 343.00
86.577 298.00
86.6422 304.00
86.7074 321.00
86.7726 307.00
86.8378 351.00
86.903 316.00
86.9682 305.00
87.0334 328.00
87.0986 301.00
87.1638 315.00
87.229 295.00
87.2942 249.00
87.3594 245.00
87.4246 231.00
87.4898 238.00
87.555 232.00
87.6202 228.00
87.6854 229.00
87.7506 211.00
87.8158 211.00
87.881 230.00
87.9462 221.00
88.0114 233.00
88.0766 196.00
88.1418 221.00
88.207 228.00
88.2722 206.00
88.3374 207.00
88.4026 203.00
88.4678 231.00
88.533 231.00
88.5982 238.00
88.6634 245.00
88.7286 249.00
88.7938 262.00
88.859 282.00
88.9242 283.00
88.9894 295.00
89.0546 302.00
89.1198 277.00
89.185 294.00
89.2502 276.00
89.3154 283.00
89.3806 289.00
89.4458 285.00
89.511 284.00
89.5762 282.00
89.6414 333.00
89.7066 320.00
89.7718 357.00
89.837 365.00
89.9022 354.00
89.9674 343.00
90.0326 359.00
90.0978 388.00
90.163 391.00
90.2282 370.00
90.2934 349.00
90.3586 292.00
90.4238 317.00
90.489 298.00
90.5542 293.00
90.6193 280.00
90.6845 274.00
90.7497 338.00
90.8149 328.00
90.8801 371.00
90.9453 363.00
91.0105 431.00
91.0757 443.00
91.1409 481.00
91.2061 477.00
91.2713 429.00
91.3365 442.00
91.4017 382.00
91.4669 387.00
91.5321 393.00
91.5973 335.00
91.6625 352.00
91.7277 308.00
91.7929 289.00
91.8581 289.00
91.9233 290.00
91.9885 288.00
92.0537 247.00
92.1189 244.00
92.1841 256.00
92.2493 221.00
92.3145 226.00
92.3797 230.00
92.4449 266.00
92.5101 226.00
92.5753 220.00
92.6405 229.00
92.7057 216.00
92.7709 230.00
92.8361 210.00
92.9013 219.00
92.9665 208.00
93.0317 245.00
93.0969 292.00
93.1621 231.00
93.2273 227.00
93.2925 219.00
93.3577 278.00
93.4229 266.00
93.4881 277.00
93.5533 306.00
93.6185 339.00
93.6837 351.00
93.7489 320.00
93.8141 341.00
93.8793 307.00
93.9445 336.00
94.0097 335.00
94.0749 277.00
94.1401 271.00
94.2053 274.00
94.2705 250.00
94.3357 222.00
94.4009 197.00
94.4661 227.00
94.5313 200.00
94.5965 261.00
94.6617 219.00
94.7269 230.00
94.7921 229.00
94.8573 237.00
94.9225 235.00
94.9877 275.00
95.0529 277.00
95.1181 268.00
95.1833 317.00
95.2485 309.00
95.3137 270.00
95.3789 305.00
95.444 296.00
95.5092 317.00
95.5744 270.00
95.6396 297.00
95.7048 280.00
95.77 282.00
95.8352 285.00
95.9004 308.00
95.9656 260.00
96.0308 291.00
96.096 288.00
96.1612 323.00
96.2264 287.00
96.2916 264.00
96.3568 275.00
96.422 272.00
96.4872 232.00
96.5524 283.00
96.6176 282.00
96.6828 247.00
96.748 222.00
96.8132 258.00
96.8784 242.00
96.9436 298.00
97.0088 260.00
97.074 337.00
97.1392 365.00
97.2044 381.00
97.2696 417.00
97.3348 451.00
97.4 429.00
97.4652 428.00
97.5304 409.00
97.5956 381.00
97.6608 380.00
97.726 363.00
97.7912 364.00
97.8564 318.00
97.9216 326.00
97.9868 310.00
98.052 273.00
98.1172 308.00
98.1824 316.00
98.2476 328.00
98.3128 338.00
98.378 330.00
98.4432 318.00
98.5084 303.00
98.5736 311.00
98.6388 316.00
98.704 287.00
98.7692 260.00
98.8344 283.00
98.8996 264.00
98.9648 278.00
99.03 282.00
99.0952 231.00
99.1604 268.00
99.2256 195.00
99.2908 233.00
99.356 216.00
99.4212 230.00
99.4864 200.00
99.5516 192.00
99.6168 208.00
99.682 238.00
99.7472 213.00
99.8124 212.00
99.8776 217.00
99.9428 224.00
100.008 226.00
100.073 240.00
100.095 204.00