File: data/xrd_creation/results/NSC_120.xy
9.903433 2629.00
9.968632 2733.00
10.0338 2520.00
10.099 2593.00
10.1642 2611.00
10.2294 2602.00
10.2946 2544.00
10.3598 2495.00
10.425 2544.00
10.4902 2483.00
10.5554 2449.00
10.6206 2391.00
10.6858 2402.00
10.751 2455.00
10.8162 2392.00
10.8814 2247.00
10.9466 2279.00
11.0118 2248.00
11.077 2294.00
11.1422 2291.00
11.2074 2249.00
11.2726 2138.00
11.3378 2263.00
11.403 2215.00
11.4682 2209.00
11.5334 2166.00
11.5986 2115.00
11.6638 2138.00
11.729 2127.00
11.7942 2120.00
11.8594 2050.00
11.9246 2089.00
11.9898 2047.00
12.055 2008.00
12.1202 1975.00
12.1854 2012.00
12.2506 1942.00
12.3158 1961.00
12.381 1988.00
12.4462 1850.00
12.5114 1954.00
12.5766 1989.00
12.6418 1875.00
12.707 1847.00
12.7722 1828.00
12.8374 1871.00
12.9026 1863.00
12.9678 1756.00
13.033 1810.00
13.0982 1774.00
13.1634 1753.00
13.2286 1680.00
13.2938 1752.00
13.359 1779.00
13.4242 1822.00
13.4894 1752.00
13.5546 1760.00
13.6198 1676.00
13.685 1701.00
13.7502 1622.00
13.8154 1698.00
13.8805 1701.00
13.9457 1712.00
14.0109 1595.00
14.0761 1613.00
14.1413 1676.00
14.2065 1633.00
14.2717 1760.00
14.3369 1799.00
14.4021 1761.00
14.4673 1914.00
14.5325 1929.00
14.5977 2044.00
14.6629 2177.00
14.7281 2377.00
14.7933 3133.00
14.8585 4173.00
14.9237 2493.00
14.9889 1756.00
15.0541 1645.00
15.1193 1533.00
15.1845 1567.00
15.2497 1501.00
15.3149 1514.00
15.3801 1541.00
15.4453 1513.00
15.5105 1528.00
15.5757 1471.00
15.6409 1463.00
15.7061 1586.00
15.7713 1588.00
15.8365 1481.00
15.9017 1496.00
15.9669 1534.00
16.0321 1484.00
16.0973 1514.00
16.1625 1419.00
16.2277 1450.00
16.2929 1431.00
16.3581 1386.00
16.4233 1461.00
16.4885 1431.00
16.5537 1430.00
16.6189 1387.00
16.6841 1400.00
16.7493 1486.00
16.8145 1454.00
16.8797 1348.00
16.9449 1369.00
17.0101 1427.00
17.0753 1389.00
17.1405 1402.00
17.2057 1349.00
17.2709 1368.00
17.3361 1289.00
17.4013 1329.00
17.4665 1341.00
17.5317 1307.00
17.5969 1364.00
17.6621 1341.00
17.7273 1367.00
17.7925 1314.00
17.8577 1315.00
17.9229 1328.00
17.9881 1284.00
18.0533 1335.00
18.1185 1328.00
18.1837 1288.00
18.2489 1244.00
18.3141 1232.00
18.3793 1192.00
18.4445 1225.00
18.5097 1285.00
18.5749 1325.00
18.6401 1283.00
18.7052 1206.00
18.7704 1194.00
18.8356 1241.00
18.9008 1247.00
18.966 1173.00
19.0312 1156.00
19.0964 1240.00
19.1616 1294.00
19.2268 1189.00
19.292 1189.00
19.3572 1170.00
19.4224 1239.00
19.4876 1174.00
19.5528 1164.00
19.618 1183.00
19.6832 1187.00
19.7484 1238.00
19.8136 1168.00
19.8788 1275.00
19.944 1222.00
20.0092 1208.00
20.0744 1246.00
20.1396 1334.00
20.2048 1426.00
20.27 1505.00
20.3352 1703.00
20.4004 2172.00
20.4656 2876.00
20.5308 4262.00
20.596 5743.00
20.6612 3776.00
20.7264 1654.00
20.7916 1448.00
20.8568 1520.00
20.922 1786.00
20.9872 1871.00
21.0524 2383.00
21.1176 3310.00
21.1828 5312.00
21.248 8321.00
21.3132 4957.00
21.3784 2013.00
21.4436 1460.00
21.5088 1306.00
21.574 1228.00
21.6392 1211.00
21.7044 1258.00
21.7696 1227.00
21.8348 1393.00
21.9 1360.00
21.9652 1482.00
22.0304 1691.00
22.0956 1897.00
22.1608 1678.00
22.226 1214.00
22.2912 1174.00
22.3564 1136.00
22.4216 1151.00
22.4868 1144.00
22.552 1090.00
22.6172 1070.00
22.6824 1145.00
22.7476 1266.00
22.8128 1549.00
22.878 1760.00
22.9432 1385.00
23.0084 1061.00
23.0736 998.00
23.1388 1031.00
23.204 972.00
23.2692 984.00
23.3344 993.00
23.3996 1020.00
23.4647 1019.00
23.5299 936.00
23.5951 1006.00
23.6603 1041.00
23.7255 1111.00
23.7907 1062.00
23.8559 1099.00
23.9211 1157.00
23.9863 1167.00
24.0515 1230.00
24.1167 1462.00
24.1819 1638.00
24.2471 2094.00
24.3123 2687.00
24.3775 3733.00
24.4427 6192.00
24.5079 11681.00
24.5731 21432.00
24.6383 18621.00
24.7035 7256.00
24.7687 2606.00
24.8339 2100.00
24.8991 1499.00
24.9643 1197.00
25.0295 1151.00
25.0947 1036.00
25.1599 1042.00
25.2251 1023.00
25.2903 1030.00
25.3555 1043.00
25.4207 1101.00
25.4859 1247.00
25.5511 1530.00
25.6163 1462.00
25.6815 1200.00
25.7467 1170.00
25.8119 1474.00
25.8771 1858.00
25.9423 1560.00
26.0075 1092.00
26.0727 927.00
26.1379 847.00
26.2031 884.00
26.2683 888.00
26.3335 857.00
26.3987 858.00
26.4639 843.00
26.5291 798.00
26.5943 886.00
26.6595 921.00
26.7247 845.00
26.7899 890.00
26.8551 830.00
26.9203 838.00
26.9855 821.00
27.0507 773.00
27.1159 812.00
27.1811 815.00
27.2463 841.00
27.3115 805.00
27.3767 791.00
27.4419 797.00
27.5071 800.00
27.5723 764.00
27.6375 812.00
27.7027 846.00
27.7679 776.00
27.8331 890.00
27.8983 942.00
27.9635 1115.00
28.0287 1387.00
28.0939 1071.00
28.1591 936.00
28.2243 799.00
28.2894 766.00
28.3546 803.00
28.4198 810.00
28.485 786.00
28.5502 832.00
28.6154 815.00
28.6806 804.00
28.7458 750.00
28.811 739.00
28.8762 745.00
28.9414 705.00
29.0066 780.00
29.0718 772.00
29.137 820.00
29.2022 811.00
29.2674 908.00
29.3326 1071.00
29.3978 1396.00
29.463 1965.00
29.5282 3599.00
29.5934 6232.00
29.6586 4981.00
29.7238 2465.00
29.789 1065.00
29.8542 898.00
29.9194 752.00
29.9846 731.00
30.0498 687.00
30.115 701.00
30.1802 698.00
30.2454 705.00
30.3106 741.00
30.3758 704.00
30.441 645.00
30.5062 655.00
30.5714 660.00
30.6366 698.00
30.7018 707.00
30.767 680.00
30.8322 665.00
30.8974 660.00
30.9626 628.00
31.0278 688.00
31.093 656.00
31.1582 693.00
31.2234 676.00
31.2886 700.00
31.3538 699.00
31.419 728.00
31.4842 796.00
31.5494 733.00
31.6146 717.00
31.6798 695.00
31.745 746.00
31.8102 683.00
31.8754 684.00
31.9406 717.00
32.0058 695.00
32.071 732.00
32.1362 745.00
32.2014 807.00
32.2666 817.00
32.3318 978.00
32.397 1143.00
32.4622 1513.00
32.5274 2279.00
32.5926 3893.00
32.6578 7231.00
32.723 12573.00
32.7882 11654.00
32.8534 6573.00
32.9186 2228.00
32.9838 1307.00
33.0489 1012.00
33.1141 815.00
33.1793 775.00
33.2445 646.00
33.3097 640.00
33.3749 681.00
33.4401 708.00
33.5053 733.00
33.5705 975.00
33.6357 865.00
33.7009 761.00
33.7661 640.00
33.8313 584.00
33.8965 573.00
33.9617 597.00
34.0269 606.00
34.0921 592.00
34.1573 610.00
34.2225 603.00
34.2877 573.00
34.3529 580.00
34.4181 599.00
34.4833 550.00
34.5485 595.00
34.6137 543.00
34.6789 560.00
34.7441 560.00
34.8093 551.00
34.8745 498.00
34.9397 577.00
35.0049 548.00
35.0701 573.00
35.1353 513.00
35.2005 552.00
35.2657 579.00
35.3309 638.00
35.3961 747.00
35.4613 798.00
35.5265 715.00
35.5917 597.00
35.6569 555.00
35.7221 535.00
35.7873 563.00
35.8525 541.00
35.9177 602.00
35.9829 637.00
36.0481 641.00
36.1133 642.00
36.1785 620.00
36.2437 616.00
36.3089 592.00
36.3741 628.00
36.4393 653.00
36.5045 723.00
36.5697 997.00
36.6349 916.00
36.7001 779.00
36.7653 834.00
36.8305 1169.00
36.8957 2298.00
36.9609 3774.00
37.0261 2621.00
37.0913 1817.00
37.1565 965.00
37.2217 721.00
37.2869 558.00
37.3521 550.00
37.4173 530.00
37.4825 546.00
37.5477 496.00
37.6129 459.00
37.6781 532.00
37.7433 541.00
37.8085 478.00
37.8736 524.00
37.9388 518.00
38.004 584.00
38.0692 660.00
38.1344 669.00
38.1996 625.00
38.2648 563.00
38.33 471.00
38.3952 463.00
38.4604 503.00
38.5256 480.00
38.5908 476.00
38.656 458.00
38.7212 466.00
38.7864 488.00
38.8516 517.00
38.9168 478.00
38.982 462.00
39.0472 458.00
39.1124 439.00
39.1776 446.00
39.2428 426.00
39.308 455.00
39.3732 433.00
39.4384 487.00
39.5036 430.00
39.5688 451.00
39.634 501.00
39.6992 401.00
39.7644 454.00
39.8296 461.00
39.8948 436.00
39.96 416.00
40.0252 447.00
40.0904 455.00
40.1556 429.00
40.2208 456.00
40.286 436.00
40.3512 411.00
40.4164 441.00
40.4816 431.00
40.5468 423.00
40.612 446.00
40.6772 431.00
40.7424 415.00
40.8076 464.00
40.8728 433.00
40.938 412.00
41.0032 400.00
41.0684 421.00
41.1336 423.00
41.1988 425.00
41.264 467.00
41.3292 487.00
41.3944 577.00
41.4596 710.00
41.5248 887.00
41.59 713.00
41.6552 654.00
41.7204 527.00
41.7856 421.00
41.8508 436.00
41.916 447.00
41.9812 441.00
42.0464 381.00
42.1116 396.00
42.1768 442.00
42.242 390.00
42.3072 450.00
42.3724 437.00
42.4376 415.00
42.5028 452.00
42.568 405.00
42.6332 446.00
42.6983 421.00
42.7635 442.00
42.8287 510.00
42.8939 463.00
42.9591 502.00
43.0243 592.00
43.0895 709.00
43.1547 876.00
43.2199 1295.00
43.2851 1845.00
43.3503 1240.00
43.4155 986.00
43.4807 558.00
43.5459 597.00
43.6111 686.00
43.6763 635.00
43.7415 613.00
43.8067 586.00
43.8719 750.00
43.9371 963.00
44.0023 771.00
44.0675 722.00
44.1327 454.00
44.1979 390.00
44.2631 394.00
44.3283 416.00
44.3935 431.00
44.4587 434.00
44.5239 459.00
44.5891 515.00
44.6543 750.00
44.7195 1143.00
44.7847 1266.00
44.8499 1437.00
44.9151 1195.00
44.9803 814.00
45.0455 609.00
45.1107 460.00
45.1759 455.00
45.2411 404.00
45.3063 426.00
45.3715 414.00
45.4367 442.00
45.5019 515.00
45.5671 476.00
45.6323 464.00
45.6975 441.00
45.7627 409.00
45.8279 423.00
45.8931 406.00
45.9583 370.00
46.0235 392.00
46.0887 372.00
46.1539 341.00
46.2191 384.00
46.2843 383.00
46.3495 421.00
46.4147 409.00
46.4799 411.00
46.5451 444.00
46.6103 433.00
46.6755 527.00
46.7407 727.00
46.8059 1002.00
46.8711 1649.00
46.9363 2954.00
47.0015 2510.00
47.0667 1953.00
47.1319 1233.00
47.1971 556.00
47.2623 499.00
47.3275 401.00
47.3927 397.00
47.4579 371.00
47.523 380.00
47.5882 410.00
47.6534 410.00
47.7186 403.00
47.7838 518.00
47.849 887.00
47.9142 923.00
47.9794 751.00
48.0446 590.00
48.1098 452.00
48.175 464.00
48.2402 368.00
48.3054 430.00
48.3706 389.00
48.4358 403.00
48.501 426.00
48.5662 427.00
48.6314 454.00
48.6966 460.00
48.7618 469.00
48.827 697.00
48.8922 507.00
48.9574 520.00
49.0226 396.00
49.0878 401.00
49.153 368.00
49.2182 388.00
49.2834 402.00
49.3486 412.00
49.4138 407.00
49.479 444.00
49.5442 540.00
49.6094 739.00
49.6746 605.00
49.7398 710.00
49.805 666.00
49.8702 929.00
49.9354 1730.00
50.0006 3554.00
50.0658 2896.00
50.131 2510.00
50.1962 1674.00
50.2614 895.00
50.3266 716.00
50.3918 787.00
50.457 1011.00
50.5222 1168.00
50.5874 1291.00
50.6526 1181.00
50.7178 892.00
50.783 737.00
50.8482 467.00
50.9134 436.00
50.9786 385.00
51.0438 372.00
51.109 378.00
51.1742 382.00
51.2394 347.00
51.3046 297.00
51.3698 378.00
51.435 333.00
51.5002 364.00
51.5654 360.00
51.6306 317.00
51.6958 327.00
51.761 335.00
51.8262 327.00
51.8914 352.00
51.9566 365.00
52.0218 342.00
52.087 394.00
52.1522 465.00
52.2174 384.00
52.2826 373.00
52.3477 380.00
52.4129 359.00
52.4781 341.00
52.5433 318.00
52.6085 316.00
52.6737 402.00
52.7389 369.00
52.8041 571.00
52.8693 484.00
52.9345 451.00
52.9997 401.00
53.0649 381.00
53.1301 381.00
53.1953 365.00
53.2605 399.00
53.3257 410.00
53.3909 518.00
53.4561 675.00
53.5213 805.00
53.5865 1103.00
53.6517 1899.00
53.7169 1847.00
53.7821 1246.00
53.8473 1434.00
53.9125 1127.00
53.9777 1858.00
54.0429 1235.00
54.1081 1092.00
54.1733 905.00
54.2385 515.00
54.3037 409.00
54.3689 381.00
54.4341 337.00
54.4993 308.00
54.5645 364.00
54.6297 341.00
54.6949 318.00
54.7601 374.00
54.8253 399.00
54.8905 383.00
54.9557 383.00
55.0209 368.00
55.0861 337.00
55.1513 391.00
55.2165 357.00
55.2817 415.00
55.3469 495.00
55.4121 387.00
55.4773 409.00
55.5425 358.00
55.6077 355.00
55.6729 345.00
55.7381 321.00
55.8033 307.00
55.8685 318.00
55.9337 338.00
55.9989 336.00
56.0641 343.00
56.1293 353.00
56.1945 351.00
56.2597 347.00
56.3249 378.00
56.3901 458.00
56.4553 581.00
56.5205 807.00
56.5857 1368.00
56.6509 1303.00
56.7161 890.00
56.7813 925.00
56.8465 551.00
56.9117 467.00
56.9769 424.00
57.042 365.00
57.1073 389.00
57.1724 395.00
57.2376 447.00
57.3028 513.00
57.368 954.00
57.4332 1258.00
57.4984 996.00
57.5636 1313.00
57.6288 1802.00
57.694 2795.00
57.7592 1783.00
57.8244 1833.00
57.8896 1376.00
57.9548 1045.00
58.02 928.00
58.0852 635.00
58.1504 606.00
58.2156 477.00
58.2808 402.00
58.346 379.00
58.4112 316.00
58.4764 324.00
58.5416 303.00
58.6068 317.00
58.672 343.00
58.7372 343.00
58.8024 418.00
58.8676 494.00
58.9328 736.00
58.998 601.00
59.0632 603.00
59.1284 772.00
59.1936 1035.00
59.2588 759.00
59.324 699.00
59.3892 704.00
59.4544 470.00
59.5196 406.00
59.5848 322.00
59.65 334.00
59.7152 347.00
59.7804 324.00
59.8456 314.00
59.9108 261.00
59.976 325.00
60.0412 331.00
60.1064 291.00
60.1716 288.00
60.2368 282.00
60.302 304.00
60.3672 270.00
60.4324 326.00
60.4976 327.00
60.5628 337.00
60.628 329.00
60.6932 386.00
60.7584 393.00
60.8236 413.00
60.8888 504.00
60.954 744.00
61.0192 1241.00
61.0844 1015.00
61.1496 765.00
61.2148 846.00
61.28 608.00
61.3452 556.00
61.4104 422.00
61.4756 370.00
61.5408 409.00
61.606 356.00
61.6712 295.00
61.7364 306.00
61.8016 287.00
61.8667 265.00
61.932 284.00
61.9971 308.00
62.0623 322.00
62.1275 326.00
62.1927 326.00
62.2579 342.00
62.3231 410.00
62.3883 459.00
62.4535 636.00
62.5187 837.00
62.5839 1485.00
62.6491 1063.00
62.7143 871.00
62.7795 1019.00
62.8447 747.00
62.9099 649.00
62.9751 475.00
63.0403 492.00
63.1055 358.00
63.1707 346.00
63.2359 353.00
63.3011 354.00
63.3663 380.00
63.4315 424.00
63.4967 671.00
63.5619 1226.00
63.6271 1678.00
63.6923 962.00
63.7575 1086.00
63.8227 963.00
63.8879 688.00
63.9531 652.00
64.0183 747.00
64.0835 526.00
64.1487 429.00
64.2139 442.00
64.2791 338.00
64.3443 311.00
64.4095 277.00
64.4747 320.00
64.5399 294.00
64.6051 322.00
64.6703 298.00
64.7355 287.00
64.8007 340.00
64.8659 380.00
64.9311 413.00
64.9963 448.00
65.0615 488.00
65.1267 527.00
65.1919 739.00
65.2571 1080.00
65.3223 1066.00
65.3875 608.00
65.4527 773.00
65.5179 617.00
65.5831 441.00
65.6483 362.00
65.7135 353.00
65.7787 387.00
65.8439 469.00
65.9091 660.00
65.9743 833.00
66.0395 738.00
66.1047 653.00
66.1699 762.00
66.2351 848.00
66.3003 651.00
66.3655 534.00
66.4307 614.00
66.4959 478.00
66.561 433.00
66.6263 424.00
66.6915 552.00
66.7566 781.00
66.8218 624.00
66.887 452.00
66.9522 550.00
67.0174 408.00
67.0826 331.00
67.1478 305.00
67.213 291.00
67.2782 311.00
67.3434 315.00
67.4086 293.00
67.4738 330.00
67.539 323.00
67.6042 389.00
67.6694 407.00
67.7346 360.00
67.7998 334.00
67.865 412.00
67.9302 366.00
67.9954 370.00
68.0606 394.00
68.1258 434.00
68.191 488.00
68.2562 446.00
68.3214 549.00
68.3866 775.00
68.4518 1179.00
68.517 587.00
68.5822 553.00
68.6474 658.00
68.7126 419.00
68.7778 384.00
68.843 346.00
68.9082 290.00
68.9734 323.00
69.0386 339.00
69.1038 391.00
69.169 421.00
69.2342 451.00
69.2994 530.00
69.3646 875.00
69.4298 763.00
69.495 462.00
69.5602 530.00
69.6254 479.00
69.6906 314.00
69.7558 317.00
69.821 295.00
69.8862 291.00
69.9514 313.00
70.0166 374.00
70.0818 411.00
70.147 339.00
70.2122 354.00
70.2774 374.00
70.3426 329.00
70.4078 332.00
70.473 311.00
70.5382 370.00
70.6034 548.00
70.6686 436.00
70.7338 375.00
70.799 510.00
70.8642 449.00
70.9294 345.00
70.9946 328.00
71.0598 333.00
71.125 266.00
71.1902 239.00
71.2554 266.00
71.3205 310.00
71.3858 305.00
71.451 379.00
71.5162 310.00
71.5813 354.00
71.6465 424.00
71.7117 464.00
71.7769 771.00
71.8421 717.00
71.9073 498.00
71.9725 529.00
72.0377 579.00
72.1029 396.00
72.1681 402.00
72.2333 323.00
72.2985 332.00
72.3637 290.00
72.4289 265.00
72.4941 265.00
72.5593 247.00
72.6245 274.00
72.6897 230.00
72.7549 260.00
72.8201 241.00
72.8853 258.00
72.9505 269.00
73.0157 218.00
73.0809 249.00
73.1461 279.00
73.2113 271.00
73.2765 324.00
73.3417 298.00
73.4069 292.00
73.4721 266.00
73.5373 304.00
73.6025 272.00
73.6677 257.00
73.7329 300.00
73.7981 320.00
73.8633 335.00
73.9285 502.00
73.9937 717.00
74.0589 1022.00
74.1241 648.00
74.1893 593.00
74.2545 770.00
74.3197 593.00
74.3849 415.00
74.4501 410.00
74.5153 330.00
74.5805 309.00
74.6457 313.00
74.7109 264.00
74.7761 229.00
74.8413 243.00
74.9065 241.00
74.9717 263.00
75.0369 312.00
75.1021 258.00
75.1673 251.00
75.2325 298.00
75.2977 359.00
75.3629 498.00
75.4281 429.00
75.4933 293.00
75.5585 334.00
75.6237 406.00
75.6889 292.00
75.7541 293.00
75.8193 261.00
75.8845 228.00
75.9497 260.00
76.0149 235.00
76.0801 208.00
76.1452 246.00
76.2104 215.00
76.2756 217.00
76.3409 248.00
76.406 243.00
76.4712 228.00
76.5364 276.00
76.6016 230.00
76.6668 272.00
76.732 265.00
76.7972 295.00
76.8624 290.00
76.9276 287.00
76.9928 294.00
77.058 335.00
77.1232 406.00
77.1884 470.00
77.2536 698.00
77.3188 563.00
77.384 379.00
77.4492 437.00
77.5144 491.00
77.5796 322.00
77.6448 299.00
77.71 292.00
77.7752 276.00
77.8404 267.00
77.9056 310.00
77.9708 306.00
78.036 409.00
78.1012 644.00
78.1664 999.00
78.2316 654.00
78.2968 572.00
78.362 712.00
78.4272 680.00
78.4924 452.00
78.5576 421.00
78.6228 426.00
78.688 401.00
78.7532 427.00
78.8184 518.00
78.8836 760.00
78.9488 691.00
79.014 499.00
79.0792 499.00
79.1444 624.00
79.2096 560.00
79.2748 612.00
79.34 487.00
79.4052 350.00
79.4704 378.00
79.5356 405.00
79.6008 316.00
79.666 248.00
79.7312 260.00
79.7964 275.00
79.8616 244.00
79.9268 280.00
79.992 342.00
80.0572 402.00
80.1224 299.00
80.1876 300.00
80.2528 327.00
80.318 264.00
80.3832 269.00
80.4484 278.00
80.5136 238.00
80.5788 216.00
80.644 236.00
80.7092 260.00
80.7744 243.00
80.8396 259.00
80.9048 317.00
80.9699 318.00
81.0351 417.00
81.1003 328.00
81.1655 329.00
81.2307 350.00
81.2959 327.00
81.3611 264.00
81.4263 258.00
81.4915 223.00
81.5567 224.00
81.6219 256.00
81.6871 232.00
81.7523 212.00
81.8175 232.00
81.8827 259.00
81.9479 340.00
82.0131 399.00
82.0783 332.00
82.1435 293.00
82.2087 317.00
82.2739 332.00
82.3391 277.00
82.4043 343.00
82.4695 348.00
82.5347 326.00
82.5999 270.00
82.6651 246.00
82.7303 293.00
82.7955 267.00
82.8607 264.00
82.9259 284.00
82.9911 279.00
83.0563 345.00
83.1215 472.00
83.1867 357.00
83.2519 335.00
83.3171 378.00
83.3823 420.00
83.4475 293.00
83.5127 277.00
83.5779 288.00
83.6431 234.00
83.7083 229.00
83.7735 245.00
83.8387 192.00
83.9039 222.00
83.9691 233.00
84.0343 230.00
84.0995 201.00
84.1647 234.00
84.2299 260.00
84.2951 234.00
84.3603 203.00
84.4255 220.00
84.4907 225.00
84.5559 260.00
84.6211 318.00
84.6863 302.00
84.7515 337.00
84.8167 408.00
84.8819 578.00
84.9471 643.00
85.0123 378.00
85.0775 360.00
85.1427 459.00
85.2079 416.00
85.2731 298.00
85.3383 256.00
85.4035 240.00
85.4687 229.00
85.5339 179.00
85.5991 220.00
85.6643 223.00
85.7295 210.00
85.7946 184.00
85.8598 211.00
85.925 243.00
85.9903 211.00
86.0554 217.00
86.1206 235.00
86.1858 249.00
86.251 269.00
86.3162 261.00
86.3814 249.00
86.4466 303.00
86.5118 343.00
86.577 297.00
86.6422 288.00
86.7074 280.00
86.7726 335.00
86.8378 275.00
86.903 239.00
86.9682 302.00
87.0334 314.00
87.0986 450.00
87.1638 634.00
87.229 493.00
87.2942 402.00
87.3594 413.00
87.4246 499.00
87.4898 430.00
87.555 332.00
87.6202 315.00
87.6854 272.00
87.7506 285.00
87.8158 319.00
87.881 250.00
87.9462 220.00
88.0114 217.00
88.0766 249.00
88.1418 233.00
88.207 235.00
88.2722 210.00
88.3374 244.00
88.4026 278.00
88.4678 264.00
88.533 343.00
88.5982 469.00
88.6634 677.00
88.7286 492.00
88.7938 395.00
88.859 374.00
88.9242 502.00
88.9894 452.00
89.0546 316.00
89.1198 361.00
89.185 413.00
89.2502 567.00
89.3154 517.00
89.3806 440.00
89.4458 382.00
89.511 384.00
89.5762 417.00
89.6414 321.00
89.7066 310.00
89.7718 300.00
89.837 246.00
89.9022 265.00
89.9674 242.00
90.0326 224.00
90.0978 228.00
90.163 239.00
90.2282 224.00
90.2934 238.00
90.3586 242.00
90.4238 268.00
90.489 241.00
90.5542 268.00
90.6193 315.00
90.6845 362.00
90.7497 249.00
90.8149 275.00
90.8801 287.00
90.9453 323.00
91.0105 296.00
91.0757 258.00
91.1409 225.00
91.2061 242.00
91.2713 273.00
91.3365 279.00
91.4017 360.00
91.4669 431.00
91.5321 410.00
91.5973 395.00
91.6625 336.00
91.7277 313.00
91.7929 352.00
91.8581 309.00
91.9233 282.00
91.9885 273.00
92.0537 230.00
92.1189 229.00
92.1841 265.00
92.2493 264.00
92.3145 306.00
92.3797 335.00
92.4449 394.00
92.5101 318.00
92.5753 285.00
92.6405 306.00
92.7057 275.00
92.7709 292.00
92.8361 242.00
92.9013 233.00
92.9665 230.00
93.0317 275.00
93.0969 248.00
93.1621 238.00
93.2273 272.00
93.2925 271.00
93.3577 308.00
93.4229 339.00
93.4881 342.00
93.5533 336.00
93.6185 369.00
93.6837 422.00
93.7489 583.00
93.8141 789.00
93.8793 555.00
93.9445 392.00
94.0097 394.00
94.0749 488.00
94.1401 522.00
94.2053 370.00
94.2705 291.00
94.3357 280.00
94.4009 286.00
94.4661 283.00
94.5313 230.00
94.5965 262.00
94.6617 256.00
94.7269 260.00
94.7921 270.00
94.8573 229.00
94.9225 238.00
94.9877 240.00
95.0529 293.00
95.1181 281.00
95.1833 343.00
95.2485 288.00
95.3137 240.00
95.3789 268.00
95.444 288.00
95.5092 303.00
95.5744 293.00
95.6396 243.00
95.7048 247.00
95.77 277.00
95.8352 259.00
95.9004 268.00
95.9656 260.00
96.0308 316.00
96.096 331.00
96.1612 478.00
96.2264 490.00
96.2916 403.00
96.3568 348.00
96.422 334.00
96.4872 350.00
96.5524 347.00
96.6176 324.00
96.6828 261.00
96.748 261.00
96.8132 295.00
96.8784 333.00
96.9436 258.00
97.0088 247.00
97.074 230.00
97.1392 259.00
97.2044 278.00
97.2696 218.00
97.3348 211.00
97.4 209.00
97.4652 229.00
97.5304 230.00
97.5956 215.00
97.6608 221.00
97.726 230.00
97.7912 207.00
97.8564 208.00
97.9216 239.00
97.9868 214.00
98.052 213.00
98.1172 219.00
98.1824 224.00
98.2476 230.00
98.3128 235.00
98.378 276.00
98.4432 277.00
98.5084 338.00
98.5736 274.00
98.6388 272.00
98.704 264.00
98.7692 282.00
98.8344 331.00
98.8996 345.00
98.9648 364.00
99.03 332.00
99.0952 363.00
99.1604 312.00
99.2256 326.00
99.2908 277.00
99.356 287.00
99.4212 300.00
99.4864 270.00
99.5516 281.00
99.6168 293.00
99.682 296.00
99.7472 359.00
99.8124 365.00
99.8776 465.00
99.9428 469.00
100.008 601.00
100.073 656.00
100.095 605.00