File: data/xrd_creation/results/NSC_79.xy
9.903433 2885.00
9.968632 2926.00
10.0338 2957.00
10.099 2836.00
10.1642 2918.00
10.2294 2785.00
10.2946 2769.00
10.3598 2777.00
10.425 2761.00
10.4902 2656.00
10.5554 2767.00
10.6206 2707.00
10.6858 2781.00
10.751 2741.00
10.8162 2735.00
10.8814 2685.00
10.9466 2605.00
11.0118 2803.00
11.077 2707.00
11.1422 2630.00
11.2074 2582.00
11.2726 2686.00
11.3378 2633.00
11.403 2523.00
11.4682 2596.00
11.5334 2499.00
11.5986 2572.00
11.6638 2551.00
11.729 2544.00
11.7942 2503.00
11.8594 2659.00
11.9246 2540.00
11.9898 2424.00
12.055 2530.00
12.1202 2468.00
12.1854 2359.00
12.2506 2353.00
12.3158 2473.00
12.381 2399.00
12.4462 2417.00
12.5114 2476.00
12.5766 2380.00
12.6418 2494.00
12.707 2290.00
12.7722 2370.00
12.8374 2330.00
12.9026 2276.00
12.9678 2294.00
13.033 2362.00
13.0982 2377.00
13.1634 2335.00
13.2286 2358.00
13.2938 2242.00
13.359 2278.00
13.4242 2210.00
13.4894 2192.00
13.5546 2280.00
13.6198 2246.00
13.685 2195.00
13.7502 2318.00
13.8154 2285.00
13.8805 2282.00
13.9457 2237.00
14.0109 2247.00
14.0761 2203.00
14.1413 2182.00
14.2065 2134.00
14.2717 2186.00
14.3369 2127.00
14.4021 2023.00
14.4673 2119.00
14.5325 2146.00
14.5977 2085.00
14.6629 2067.00
14.7281 1988.00
14.7933 2087.00
14.8585 1973.00
14.9237 2040.00
14.9889 2109.00
15.0541 2168.00
15.1193 2156.00
15.1845 2014.00
15.2497 2073.00
15.3149 2085.00
15.3801 1912.00
15.4453 2077.00
15.5105 1946.00
15.5757 1998.00
15.6409 1938.00
15.7061 1945.00
15.7713 1986.00
15.8365 1908.00
15.9017 1932.00
15.9669 2008.00
16.0321 2007.00
16.0973 1961.00
16.1625 1901.00
16.2277 1947.00
16.2929 1948.00
16.3581 1932.00
16.4233 1820.00
16.4885 1956.00
16.5537 1991.00
16.6189 1987.00
16.6841 1846.00
16.7493 1960.00
16.8145 1879.00
16.8797 1969.00
16.9449 1849.00
17.0101 1883.00
17.0753 1914.00
17.1405 1846.00
17.2057 1909.00
17.2709 1846.00
17.3361 1874.00
17.4013 1985.00
17.4665 1931.00
17.5317 2023.00
17.5969 2036.00
17.6621 2023.00
17.7273 1920.00
17.7925 1868.00
17.8577 1829.00
17.9229 1814.00
17.9881 1798.00
18.0533 1765.00
18.1185 1880.00
18.1837 1771.00
18.2489 1763.00
18.3141 1720.00
18.3793 1763.00
18.4445 1819.00
18.5097 1833.00
18.5749 1889.00
18.6401 1886.00
18.7052 1835.00
18.7704 1843.00
18.8356 1797.00
18.9008 1778.00
18.966 1781.00
19.0312 1846.00
19.0964 1814.00
19.1616 1894.00
19.2268 1828.00
19.292 1940.00
19.3572 2290.00
19.4224 2874.00
19.4876 3767.00
19.5528 4715.00
19.618 4802.00
19.6832 3963.00
19.7484 2979.00
19.8136 2077.00
19.8788 1836.00
19.944 1761.00
20.0092 1845.00
20.0744 1758.00
20.1396 1752.00
20.2048 1916.00
20.27 1884.00
20.3352 1750.00
20.4004 1795.00
20.4656 1704.00
20.5308 1729.00
20.596 1731.00
20.6612 1758.00
20.7264 1824.00
20.7916 1838.00
20.8568 1791.00
20.922 1682.00
20.9872 1751.00
21.0524 1700.00
21.1176 1683.00
21.1828 1734.00
21.248 1723.00
21.3132 1773.00
21.3784 1896.00
21.4436 1821.00
21.5088 2033.00
21.574 2074.00
21.6392 2101.00
21.7044 1881.00
21.7696 1776.00
21.8348 1697.00
21.9 1616.00
21.9652 1642.00
22.0304 1634.00
22.0956 1615.00
22.1608 1641.00
22.226 1700.00
22.2912 1685.00
22.3564 1648.00
22.4216 1526.00
22.4868 1653.00
22.552 1658.00
22.6172 1673.00
22.6824 1634.00
22.7476 1588.00
22.8128 1629.00
22.878 1603.00
22.9432 1537.00
23.0084 1704.00
23.0736 1706.00
23.1388 1919.00
23.204 2155.00
23.2692 2403.00
23.3344 2476.00
23.3996 2342.00
23.4647 1965.00
23.5299 1668.00
23.5951 1598.00
23.6603 1605.00
23.7255 1542.00
23.7907 1634.00
23.8559 1554.00
23.9211 1610.00
23.9863 1650.00
24.0515 1672.00
24.1167 1734.00
24.1819 1805.00
24.2471 1699.00
24.3123 1644.00
24.3775 1589.00
24.4427 1667.00
24.5079 1601.00
24.5731 1532.00
24.6383 1639.00
24.7035 1859.00
24.7687 1918.00
24.8339 2172.00
24.8991 2467.00
24.9643 2761.00
25.0295 2753.00
25.0947 2428.00
25.1599 2157.00
25.2251 1991.00
25.2903 1901.00
25.3555 2075.00
25.4207 2358.00
25.4859 3336.00
25.5511 5185.00
25.6163 9026.00
25.6815 14297.00
25.7467 16590.00
25.8119 14516.00
25.8771 9249.00
25.9423 4799.00
26.0075 2582.00
26.0727 2035.00
26.1379 1883.00
26.2031 1725.00
26.2683 1663.00
26.3335 1693.00
26.3987 1494.00
26.4639 1587.00
26.5291 1712.00
26.5943 1672.00
26.6595 1534.00
26.7247 1594.00
26.7899 1592.00
26.8551 1595.00
26.9203 1579.00
26.9855 1665.00
27.0507 1625.00
27.1159 1601.00
27.1811 1610.00
27.2463 1673.00
27.3115 1663.00
27.3767 1718.00
27.4419 1754.00
27.5071 1843.00
27.5723 2247.00
27.6375 3161.00
27.7027 5249.00
27.7679 9163.00
27.8331 12705.00
27.8983 13764.00
27.9635 11193.00
28.0287 6228.00
28.0939 3222.00
28.1591 2080.00
28.2243 1909.00
28.2894 1809.00
28.3546 1639.00
28.4198 1608.00
28.485 1512.00
28.5502 1597.00
28.6154 1669.00
28.6806 1548.00
28.7458 1662.00
28.811 1588.00
28.8762 1581.00
28.9414 1637.00
29.0066 1665.00
29.0718 1837.00
29.137 2344.00
29.2022 3208.00
29.2674 4785.00
29.3326 5732.00
29.3978 5739.00
29.463 4257.00
29.5282 2857.00
29.5934 2265.00
29.6586 2184.00
29.7238 2077.00
29.789 1772.00
29.8542 1664.00
29.9194 1515.00
29.9846 1577.00
30.0498 1590.00
30.115 1591.00
30.1802 1625.00
30.2454 1444.00
30.3106 1524.00
30.3758 1422.00
30.441 1438.00
30.5062 1492.00
30.5714 1525.00
30.6366 1609.00
30.7018 1495.00
30.767 1444.00
30.8322 1413.00
30.8974 1412.00
30.9626 1392.00
31.0278 1369.00
31.093 1419.00
31.1582 1366.00
31.2234 1297.00
31.2886 1408.00
31.3538 1383.00
31.419 1406.00
31.4842 1335.00
31.5494 1380.00
31.6146 1371.00
31.6798 1329.00
31.745 1357.00
31.8102 1273.00
31.8754 1364.00
31.9406 1390.00
32.0058 1392.00
32.071 1368.00
32.1362 1306.00
32.2014 1357.00
32.2666 1440.00
32.3318 1463.00
32.397 1390.00
32.4622 1397.00
32.5274 1417.00
32.5926 1268.00
32.6578 1327.00
32.723 1302.00
32.7882 1219.00
32.8534 1341.00
32.9186 1240.00
32.9838 1243.00
33.0489 1209.00
33.1141 1170.00
33.1793 1160.00
33.2445 1326.00
33.3097 1273.00
33.3749 1235.00
33.4401 1250.00
33.5053 1266.00
33.5705 1267.00
33.6357 1226.00
33.7009 1247.00
33.7661 1264.00
33.8313 1231.00
33.8965 1229.00
33.9617 1277.00
34.0269 1233.00
34.0921 1220.00
34.1573 1202.00
34.2225 1191.00
34.2877 1142.00
34.3529 1228.00
34.4181 1218.00
34.4833 1148.00
34.5485 1222.00
34.6137 1246.00
34.6789 1178.00
34.7441 1203.00
34.8093 1176.00
34.8745 1224.00
34.9397 1174.00
35.0049 1163.00
35.0701 1169.00
35.1353 1161.00
35.2005 1211.00
35.2657 1269.00
35.3309 1223.00
35.3961 1205.00
35.4613 1450.00
35.5265 1624.00
35.5917 1803.00
35.6569 1795.00
35.7221 1680.00
35.7873 1374.00
35.8525 1260.00
35.9177 1232.00
35.9829 1196.00
36.0481 1241.00
36.1133 1248.00
36.1785 1233.00
36.2437 1141.00
36.3089 1243.00
36.3741 1187.00
36.4393 1204.00
36.5045 1190.00
36.5697 1191.00
36.6349 1070.00
36.7001 1129.00
36.7653 1033.00
36.8305 1120.00
36.8957 1129.00
36.9609 1109.00
37.0261 1101.00
37.0913 1075.00
37.1565 1094.00
37.2217 1110.00
37.2869 1110.00
37.3521 1142.00
37.4173 1138.00
37.4825 1131.00
37.5477 1070.00
37.6129 1115.00
37.6781 1070.00
37.7433 1073.00
37.8085 1082.00
37.8736 1151.00
37.9388 1190.00
38.004 1182.00
38.0692 1231.00
38.1344 1379.00
38.1996 1893.00
38.2648 2679.00
38.33 2927.00
38.3952 2852.00
38.4604 2116.00
38.5256 1572.00
38.5908 1282.00
38.656 1161.00
38.7212 1103.00
38.7864 1133.00
38.8516 1106.00
38.9168 1141.00
38.982 1139.00
39.0472 1076.00
39.1124 1129.00
39.1776 1087.00
39.2428 1050.00
39.308 1131.00
39.3732 1080.00
39.4384 1113.00
39.5036 1135.00
39.5688 1113.00
39.634 1313.00
39.6992 1698.00
39.7644 2288.00
39.8296 2820.00
39.8948 2799.00
39.96 2345.00
40.0252 1659.00
40.0904 1359.00
40.1556 1274.00
40.2208 1181.00
40.286 1082.00
40.3512 1111.00
40.4164 997.00
40.4816 1068.00
40.5468 1081.00
40.612 1098.00
40.6772 1104.00
40.7424 1030.00
40.8076 990.00
40.8728 1050.00
40.938 1147.00
41.0032 1139.00
41.0684 1108.00
41.1336 1177.00
41.1988 1107.00
41.264 1057.00
41.3292 958.00
41.3944 982.00
41.4596 929.00
41.5248 1060.00
41.59 1049.00
41.6552 1063.00
41.7204 975.00
41.7856 1006.00
41.8508 1006.00
41.916 1010.00
41.9812 1057.00
42.0464 1038.00
42.1116 1066.00
42.1768 990.00
42.242 975.00
42.3072 1025.00
42.3724 958.00
42.4376 1027.00
42.5028 1013.00
42.568 1097.00
42.6332 1017.00
42.6983 1079.00
42.7635 937.00
42.8287 1051.00
42.8939 1086.00
42.9591 1069.00
43.0243 1023.00
43.0895 1141.00
43.1547 1020.00
43.2199 1096.00
43.2851 1054.00
43.3503 1067.00
43.4155 1054.00
43.4807 1028.00
43.5459 1083.00
43.6111 1092.00
43.6763 1064.00
43.7415 1097.00
43.8067 1163.00
43.8719 1295.00
43.9371 1868.00
44.0023 2405.00
44.0675 2939.00
44.1327 2864.00
44.1979 2341.00
44.2631 1797.00
44.3283 1340.00
44.3935 1181.00
44.4587 1231.00
44.5239 1249.00
44.5891 1503.00
44.6543 2139.00
44.7195 3187.00
44.7847 4187.00
44.8499 3986.00
44.9151 3286.00
44.9803 2314.00
45.0455 1602.00
45.1107 1242.00
45.1759 1148.00
45.2411 1063.00
45.3063 1123.00
45.3715 1019.00
45.4367 1024.00
45.5019 1009.00
45.5671 958.00
45.6323 1002.00
45.6975 996.00
45.7627 941.00
45.8279 1006.00
45.8931 970.00
45.9583 1066.00
46.0235 999.00
46.0887 977.00
46.1539 965.00
46.2191 1005.00
46.2843 1058.00
46.3495 1125.00
46.4147 1167.00
46.4799 1263.00
46.5451 1159.00
46.6103 1065.00
46.6755 1094.00
46.7407 1001.00
46.8059 1036.00
46.8711 1136.00
46.9363 991.00
47.0015 1063.00
47.0667 1037.00
47.1319 1053.00
47.1971 1011.00
47.2623 996.00
47.3275 1040.00
47.3927 1078.00
47.4579 1111.00
47.523 1063.00
47.5882 1149.00
47.6534 1160.00
47.7186 1216.00
47.7838 1303.00
47.849 1575.00
47.9142 2254.00
47.9794 3836.00
48.0446 5275.00
48.1098 5418.00
48.175 4483.00
48.2402 3091.00
48.3054 2099.00
48.3706 1515.00
48.4358 1604.00
48.501 2064.00
48.5662 3223.00
48.6314 4242.00
48.6966 4816.00
48.7618 4052.00
48.827 3151.00
48.8922 2076.00
48.9574 1489.00
49.0226 1275.00
49.0878 1100.00
49.153 1100.00
49.2182 1121.00
49.2834 1028.00
49.3486 1054.00
49.4138 1040.00
49.479 991.00
49.5442 1006.00
49.6094 1003.00
49.6746 1011.00
49.7398 983.00
49.805 1008.00
49.8702 948.00
49.9354 994.00
50.0006 1088.00
50.0658 1087.00
50.131 1484.00
50.1962 1890.00
50.2614 2162.00
50.3266 1993.00
50.3918 1844.00
50.457 1507.00
50.5222 1248.00
50.5874 1115.00
50.6526 996.00
50.7178 976.00
50.783 975.00
50.8482 966.00
50.9134 895.00
50.9786 958.00
51.0438 1002.00
51.109 1000.00
51.1742 998.00
51.2394 1001.00
51.3046 1030.00
51.3698 1046.00
51.435 960.00
51.5002 1020.00
51.5654 994.00
51.6306 891.00
51.6958 939.00
51.761 949.00
51.8262 864.00
51.8914 941.00
51.9566 885.00
52.0218 894.00
52.087 888.00
52.1522 925.00
52.2174 929.00
52.2826 946.00
52.3477 911.00
52.4129 923.00
52.4781 939.00
52.5433 949.00
52.6085 960.00
52.6737 981.00
52.7389 1030.00
52.8041 1284.00
52.8693 1682.00
52.9345 1979.00
52.9997 2136.00
53.0649 1784.00
53.1301 1611.00
53.1953 1366.00
53.2605 1089.00
53.3257 1030.00
53.3909 938.00
53.4561 1021.00
53.5213 912.00
53.5865 905.00
53.6517 1009.00
53.7169 962.00
53.7821 992.00
53.8473 1021.00
53.9125 988.00
53.9777 989.00
54.0429 966.00
54.1081 945.00
54.1733 914.00
54.2385 909.00
54.3037 921.00
54.3689 933.00
54.4341 899.00
54.4993 930.00
54.5645 897.00
54.6297 954.00
54.6949 995.00
54.7601 988.00
54.8253 1027.00
54.8905 1203.00
54.9557 1490.00
55.0209 1565.00
55.0861 1569.00
55.1513 1342.00
55.2165 1261.00
55.2817 1114.00
55.3469 1000.00
55.4121 950.00
55.4773 1012.00
55.5425 952.00
55.6077 927.00
55.6729 925.00
55.7381 989.00
55.8033 909.00
55.8685 923.00
55.9337 869.00
55.9989 939.00
56.0641 1018.00
56.1293 1033.00
56.1945 1066.00
56.2597 1191.00
56.3249 1336.00
56.3901 2068.00
56.4553 2798.00
56.5205 2952.00
56.5857 2557.00
56.6509 2097.00
56.7161 1716.00
56.7813 1326.00
56.8465 1196.00
56.9117 1054.00
56.9769 1055.00
57.042 1050.00
57.1073 1064.00
57.1724 1109.00
57.2376 1034.00
57.3028 1090.00
57.368 1082.00
57.4332 1177.00
57.4984 1646.00
57.5636 2360.00
57.6288 2782.00
57.694 2776.00
57.7592 2272.00
57.8244 1900.00
57.8896 1371.00
57.9548 1128.00
58.02 1035.00
58.0852 953.00
58.1504 941.00
58.2156 935.00
58.2808 958.00
58.346 907.00
58.4112 930.00
58.4764 949.00
58.5416 926.00
58.6068 931.00
58.672 896.00
58.7372 871.00
58.8024 808.00
58.8676 869.00
58.9328 804.00
58.998 838.00
59.0632 885.00
59.1284 853.00
59.1936 848.00
59.2588 867.00
59.324 872.00
59.3892 886.00
59.4544 842.00
59.5196 869.00
59.5848 891.00
59.65 877.00
59.7152 868.00
59.7804 854.00
59.8456 847.00
59.9108 872.00
59.976 895.00
60.0412 874.00
60.1064 935.00
60.1716 947.00
60.2368 969.00
60.302 954.00
60.3672 910.00
60.4324 935.00
60.4976 858.00
60.5628 873.00
60.628 888.00
60.6932 874.00
60.7584 911.00
60.8236 950.00
60.8888 1032.00
60.954 1066.00
61.0192 984.00
61.0844 944.00
61.1496 905.00
61.2148 988.00
61.28 947.00
61.3452 1066.00
61.4104 1368.00
61.4756 1444.00
61.5408 1422.00
61.606 1406.00
61.6712 1204.00
61.7364 1069.00
61.8016 1026.00
61.8667 876.00
61.932 886.00
61.9971 894.00
62.0623 843.00
62.1275 834.00
62.1927 870.00
62.2579 895.00
62.3231 886.00
62.3883 814.00
62.4535 881.00
62.5187 905.00
62.5839 838.00
62.6491 891.00
62.7143 864.00
62.7795 867.00
62.8447 855.00
62.9099 905.00
62.9751 825.00
63.0403 871.00
63.1055 930.00
63.1707 893.00
63.2359 918.00
63.3011 868.00
63.3663 857.00
63.4315 844.00
63.4967 923.00
63.5619 886.00
63.6271 855.00
63.6923 916.00
63.7575 883.00
63.8227 951.00
63.8879 1025.00
63.9531 1164.00
64.0183 1353.00
64.0835 1918.00
64.1487 2076.00
64.2139 2129.00
64.2791 1919.00
64.3443 1718.00
64.4095 1716.00
64.4747 1974.00
64.5399 2890.00
64.6051 4180.00
64.6703 4731.00
64.7355 4234.00
64.8007 3727.00
64.8659 3069.00
64.9311 2179.00
64.9963 1590.00
65.0615 1573.00
65.1267 1833.00
65.1919 2232.00
65.2571 2287.00
65.3223 1963.00
65.3875 1790.00
65.4527 1509.00
65.5179 1238.00
65.5831 1020.00
65.6483 900.00
65.7135 981.00
65.7787 896.00
65.8439 934.00
65.9091 993.00
65.9743 999.00
66.0395 1036.00
66.1047 916.00
66.1699 924.00
66.2351 907.00
66.3003 870.00
66.3655 852.00
66.4307 839.00
66.4959 796.00
66.561 858.00
66.6263 825.00
66.6915 862.00
66.7566 771.00
66.8218 827.00
66.887 798.00
66.9522 800.00
67.0174 857.00
67.0826 844.00
67.1478 839.00
67.213 846.00
67.2782 841.00
67.3434 831.00
67.4086 829.00
67.4738 822.00
67.539 808.00
67.6042 808.00
67.6694 816.00
67.7346 806.00
67.7998 797.00
67.865 819.00
67.9302 793.00
67.9954 818.00
68.0606 807.00
68.1258 836.00
68.191 749.00
68.2562 805.00
68.3214 805.00
68.3866 848.00
68.4518 879.00
68.517 921.00
68.5822 922.00
68.6474 889.00
68.7126 882.00
68.7778 846.00
68.843 854.00
68.9082 849.00
68.9734 800.00
69.0386 847.00
69.1038 830.00
69.169 877.00
69.2342 776.00
69.2994 817.00
69.3646 743.00
69.4298 840.00
69.495 790.00
69.5602 822.00
69.6254 745.00
69.6906 784.00
69.7558 791.00
69.821 858.00
69.8862 849.00
69.9514 910.00
70.0166 955.00
70.0818 1070.00
70.147 1134.00
70.2122 1346.00
70.2774 1477.00
70.3426 1413.00
70.4078 1305.00
70.473 1170.00
70.5382 1031.00
70.6034 935.00
70.6686 874.00
70.7338 822.00
70.799 804.00
70.8642 823.00
70.9294 870.00
70.9946 803.00
71.0598 810.00
71.125 750.00
71.1902 857.00
71.2554 785.00
71.3205 809.00
71.3858 774.00
71.451 796.00
71.5162 816.00
71.5813 806.00
71.6465 842.00
71.7117 813.00
71.7769 806.00
71.8421 849.00
71.9073 868.00
71.9725 920.00
72.0377 958.00
72.1029 925.00
72.1681 866.00
72.2333 856.00
72.2985 828.00
72.3637 802.00
72.4289 787.00
72.4941 783.00
72.5593 716.00
72.6245 750.00
72.6897 780.00
72.7549 783.00
72.8201 771.00
72.8853 784.00
72.9505 789.00
73.0157 736.00
73.0809 747.00
73.1461 771.00
73.2113 779.00
73.2765 757.00
73.3417 782.00
73.4069 789.00
73.4721 702.00
73.5373 742.00
73.6025 771.00
73.6677 759.00
73.7329 673.00
73.7981 782.00
73.8633 710.00
73.9285 745.00
73.9937 806.00
74.0589 737.00
74.1241 782.00
74.1893 750.00
74.2545 740.00
74.3197 736.00
74.3849 760.00
74.4501 739.00
74.5153 765.00
74.5805 812.00
74.6457 855.00
74.7109 806.00
74.7761 851.00
74.8413 870.00
74.9065 815.00
74.9717 789.00
75.0369 825.00
75.1021 909.00
75.1673 1016.00
75.2325 1117.00
75.2977 1269.00
75.3629 1363.00
75.4281 1541.00
75.4933 1607.00
75.5585 1484.00
75.6237 1263.00
75.6889 1185.00
75.7541 1214.00
75.8193 1092.00
75.8845 942.00
75.9497 944.00
76.0149 883.00
76.0801 816.00
76.1452 854.00
76.2104 757.00
76.2756 786.00
76.3409 736.00
76.406 781.00
76.4712 746.00
76.5364 778.00
76.6016 753.00
76.6668 795.00
76.732 781.00
76.7972 776.00
76.8624 880.00
76.9276 940.00
76.9928 951.00
77.058 985.00
77.1232 1035.00
77.1884 1121.00
77.2536 1146.00
77.3188 1030.00
77.384 1032.00
77.4492 1048.00
77.5144 930.00
77.5796 904.00
77.6448 883.00
77.71 841.00
77.7752 852.00
77.8404 838.00
77.9056 850.00
77.9708 857.00
78.036 966.00
78.1012 1179.00
78.1664 1536.00
78.2316 1887.00
78.2968 1941.00
78.362 1667.00
78.4272 1617.00
78.4924 1651.00
78.5576 1649.00
78.6228 1789.00
78.688 1933.00
78.7532 1980.00
78.8184 1673.00
78.8836 1466.00
78.9488 1489.00
79.014 1275.00
79.0792 1039.00
79.1444 901.00
79.2096 858.00
79.2748 818.00
79.34 827.00
79.4052 747.00
79.4704 748.00
79.5356 783.00
79.6008 746.00
79.666 786.00
79.7312 798.00
79.7964 844.00
79.8616 1013.00
79.9268 1042.00
79.992 1062.00
80.0572 1007.00
80.1224 861.00
80.1876 951.00
80.2528 920.00
80.318 797.00
80.3832 746.00
80.4484 786.00
80.5136 803.00
80.5788 705.00
80.644 766.00
80.7092 770.00
80.7744 737.00
80.8396 762.00
80.9048 726.00
80.9699 781.00
81.0351 787.00
81.1003 733.00
81.1655 732.00
81.2307 782.00
81.2959 736.00
81.3611 763.00
81.4263 695.00
81.4915 756.00
81.5567 759.00
81.6219 695.00
81.6871 804.00
81.7523 813.00
81.8175 761.00
81.8827 836.00
81.9479 863.00
82.0131 1076.00
82.0783 1080.00
82.1435 1196.00
82.2087 1386.00
82.2739 1432.00
82.3391 1472.00
82.4043 1266.00
82.4695 1185.00
82.5347 1068.00
82.5999 1017.00
82.6651 951.00
82.7303 808.00
82.7955 814.00
82.8607 672.00
82.9259 759.00
82.9911 753.00
83.0563 818.00
83.1215 756.00
83.1867 719.00
83.2519 713.00
83.3171 773.00
83.3823 779.00
83.4475 793.00
83.5127 786.00
83.5779 784.00
83.6431 738.00
83.7083 823.00
83.7735 827.00
83.8387 988.00
83.9039 1038.00
83.9691 1144.00
84.0343 1118.00
84.0995 996.00
84.1647 954.00
84.2299 909.00
84.2951 937.00
84.3603 814.00
84.4255 751.00
84.4907 728.00
84.5559 750.00
84.6211 734.00
84.6863 742.00
84.7515 793.00
84.8167 808.00
84.8819 845.00
84.9471 872.00
85.0123 924.00
85.0775 895.00
85.1427 864.00
85.2079 845.00
85.2731 828.00
85.3383 816.00
85.4035 809.00
85.4687 813.00
85.5339 777.00
85.5991 787.00
85.6643 830.00
85.7295 815.00
85.7946 823.00
85.8598 948.00
85.925 1010.00
85.9903 1048.00
86.0554 871.00
86.1206 879.00
86.1858 861.00
86.251 874.00
86.3162 798.00
86.3814 756.00
86.4466 800.00
86.5118 784.00
86.577 790.00
86.6422 713.00
86.7074 697.00
86.7726 691.00
86.8378 678.00
86.903 734.00
86.9682 717.00
87.0334 700.00
87.0986 717.00
87.1638 653.00
87.229 737.00
87.2942 701.00
87.3594 649.00
87.4246 736.00
87.4898 693.00
87.555 705.00
87.6202 682.00
87.6854 715.00
87.7506 705.00
87.8158 686.00
87.881 722.00
87.9462 664.00
88.0114 718.00
88.0766 695.00
88.1418 656.00
88.207 734.00
88.2722 691.00
88.3374 721.00
88.4026 682.00
88.4678 675.00
88.533 634.00
88.5982 688.00
88.6634 684.00
88.7286 684.00
88.7938 735.00
88.859 675.00
88.9242 680.00
88.9894 695.00
89.0546 754.00
89.1198 750.00
89.185 708.00
89.2502 862.00
89.3154 805.00
89.3806 836.00
89.4458 805.00
89.511 760.00
89.5762 694.00
89.6414 682.00
89.7066 724.00
89.7718 720.00
89.837 725.00
89.9022 711.00
89.9674 692.00
90.0326 707.00
90.0978 741.00
90.163 746.00
90.2282 734.00
90.2934 742.00
90.3586 812.00
90.4238 825.00
90.489 946.00
90.5542 1038.00
90.6193 1048.00
90.6845 1110.00
90.7497 1002.00
90.8149 922.00
90.8801 914.00
90.9453 927.00
91.0105 804.00
91.0757 801.00
91.1409 747.00
91.2061 726.00
91.2713 750.00
91.3365 727.00
91.4017 671.00
91.4669 714.00
91.5321 697.00
91.5973 669.00
91.6625 709.00
91.7277 743.00
91.7929 720.00
91.8581 782.00
91.9233 841.00
91.9885 1073.00
92.0537 1281.00
92.1189 1430.00
92.1841 1253.00
92.2493 1165.00
92.3145 1126.00
92.3797 1143.00
92.4449 1053.00
92.5101 1158.00
92.5753 1164.00
92.6405 1154.00
92.7057 997.00
92.7709 923.00
92.8361 890.00
92.9013 913.00
92.9665 862.00
93.0317 845.00
93.0969 713.00
93.1621 747.00
93.2273 824.00
93.2925 812.00
93.3577 794.00
93.4229 760.00
93.4881 808.00
93.5533 720.00
93.6185 779.00
93.6837 758.00
93.7489 764.00
93.8141 704.00
93.8793 674.00
93.9445 709.00
94.0097 730.00
94.0749 673.00
94.1401 673.00
94.2053 654.00
94.2705 705.00
94.3357 732.00
94.4009 700.00
94.4661 673.00
94.5313 622.00
94.5965 721.00
94.6617 651.00
94.7269 680.00
94.7921 713.00
94.8573 674.00
94.9225 739.00
94.9877 675.00
95.0529 735.00
95.1181 665.00
95.1833 697.00
95.2485 690.00
95.3137 740.00
95.3789 689.00
95.444 714.00
95.5092 735.00
95.5744 851.00
95.6396 902.00
95.7048 862.00
95.77 781.00
95.8352 794.00
95.9004 773.00
95.9656 790.00
96.0308 682.00
96.096 709.00
96.1612 745.00
96.2264 748.00
96.2916 729.00
96.3568 726.00
96.422 707.00
96.4872 676.00
96.5524 665.00
96.6176 724.00
96.6828 722.00
96.748 715.00
96.8132 763.00
96.8784 758.00
96.9436 762.00
97.0088 837.00
97.074 890.00
97.1392 962.00
97.2044 1082.00
97.2696 1130.00
97.3348 1074.00
97.4 1055.00
97.4652 973.00
97.5304 923.00
97.5956 956.00
97.6608 895.00
97.726 841.00
97.7912 757.00
97.8564 776.00
97.9216 655.00
97.9868 780.00
98.052 744.00
98.1172 780.00
98.1824 937.00
98.2476 943.00
98.3128 1034.00
98.378 1091.00
98.4432 995.00
98.5084 904.00
98.5736 891.00
98.6388 949.00
98.704 882.00
98.7692 892.00
98.8344 846.00
98.8996 826.00
98.9648 888.00
99.03 845.00
99.0952 878.00
99.1604 907.00
99.2256 1124.00
99.2908 1167.00
99.356 1155.00
99.4212 1072.00
99.4864 927.00
99.5516 917.00
99.6168 985.00
99.682 942.00
99.7472 878.00
99.8124 760.00
99.8776 776.00
99.9428 738.00
100.008 711.00
100.073 716.00
100.095 653.00