File: data/xrd_creation/results/NSC_39.xy
9.903433 3018.00
9.968632 3052.00
10.0338 3048.00
10.099 3009.00
10.1642 2994.00
10.2294 2983.00
10.2946 2928.00
10.3598 2909.00
10.425 2891.00
10.4902 2898.00
10.5554 3044.00
10.6206 3026.00
10.6858 2957.00
10.751 2900.00
10.8162 2758.00
10.8814 2793.00
10.9466 2750.00
11.0118 2892.00
11.077 2774.00
11.1422 2676.00
11.2074 2743.00
11.2726 2777.00
11.3378 2670.00
11.403 2653.00
11.4682 2712.00
11.5334 2678.00
11.5986 2694.00
11.6638 2625.00
11.729 2672.00
11.7942 2669.00
11.8594 2628.00
11.9246 2536.00
11.9898 2579.00
12.055 2644.00
12.1202 2524.00
12.1854 2571.00
12.2506 2509.00
12.3158 2656.00
12.381 2569.00
12.4462 2590.00
12.5114 2533.00
12.5766 2567.00
12.6418 2674.00
12.707 2669.00
12.7722 2591.00
12.8374 2563.00
12.9026 2635.00
12.9678 2549.00
13.033 2564.00
13.0982 2464.00
13.1634 2586.00
13.2286 2549.00
13.2938 2495.00
13.359 2520.00
13.4242 2518.00
13.4894 2530.00
13.5546 2522.00
13.6198 2507.00
13.685 2587.00
13.7502 2467.00
13.8154 2525.00
13.8805 2779.00
13.9457 2862.00
14.0109 2977.00
14.0761 2700.00
14.1413 2540.00
14.2065 2481.00
14.2717 2458.00
14.3369 2391.00
14.4021 2410.00
14.4673 2409.00
14.5325 2378.00
14.5977 2483.00
14.6629 2401.00
14.7281 2459.00
14.7933 2550.00
14.8585 2460.00
14.9237 2533.00
14.9889 2437.00
15.0541 2531.00
15.1193 2359.00
15.1845 2354.00
15.2497 2309.00
15.3149 2351.00
15.3801 2372.00
15.4453 2418.00
15.5105 2300.00
15.5757 2449.00
15.6409 2353.00
15.7061 2379.00
15.7713 2374.00
15.8365 2401.00
15.9017 2306.00
15.9669 2279.00
16.0321 2353.00
16.0973 2381.00
16.1625 2333.00
16.2277 2332.00
16.2929 2264.00
16.3581 2359.00
16.4233 2309.00
16.4885 2328.00
16.5537 2307.00
16.6189 2289.00
16.6841 2211.00
16.7493 2386.00
16.8145 2436.00
16.8797 2261.00
16.9449 2376.00
17.0101 2255.00
17.0753 2320.00
17.1405 2265.00
17.2057 2238.00
17.2709 2283.00
17.3361 2295.00
17.4013 2371.00
17.4665 2331.00
17.5317 2457.00
17.5969 2345.00
17.6621 2518.00
17.7273 2593.00
17.7925 2623.00
17.8577 2439.00
17.9229 2292.00
17.9881 2303.00
18.0533 2319.00
18.1185 2191.00
18.1837 2180.00
18.2489 2231.00
18.3141 2179.00
18.3793 2333.00
18.4445 2167.00
18.5097 2164.00
18.5749 2103.00
18.6401 2186.00
18.7052 2173.00
18.7704 2199.00
18.8356 2183.00
18.9008 2244.00
18.966 2256.00
19.0312 2230.00
19.0964 2187.00
19.1616 2299.00
19.2268 2263.00
19.292 2425.00
19.3572 2578.00
19.4224 2822.00
19.4876 3158.00
19.5528 3643.00
19.618 3945.00
19.6832 3946.00
19.7484 3696.00
19.8136 3920.00
19.8788 4223.00
19.944 3592.00
20.0092 2854.00
20.0744 2592.00
20.1396 2334.00
20.2048 2402.00
20.27 2360.00
20.3352 2478.00
20.4004 2359.00
20.4656 2302.00
20.5308 2196.00
20.596 2247.00
20.6612 2267.00
20.7264 2249.00
20.7916 2413.00
20.8568 2410.00
20.922 2568.00
20.9872 2645.00
21.0524 2794.00
21.1176 2375.00
21.1828 2334.00
21.248 2296.00
21.3132 2388.00
21.3784 2487.00
21.4436 2343.00
21.5088 2431.00
21.574 2467.00
21.6392 2482.00
21.7044 2472.00
21.7696 2652.00
21.8348 2638.00
21.9 2473.00
21.9652 2376.00
22.0304 2451.00
22.0956 2430.00
22.1608 2388.00
22.226 2310.00
22.2912 2320.00
22.3564 2187.00
22.4216 2155.00
22.4868 2341.00
22.552 2397.00
22.6172 2452.00
22.6824 2499.00
22.7476 2380.00
22.8128 2277.00
22.878 2207.00
22.9432 2341.00
23.0084 2575.00
23.0736 2894.00
23.1388 3406.00
23.204 3395.00
23.2692 2891.00
23.3344 2394.00
23.3996 2299.00
23.4647 2207.00
23.5299 2227.00
23.5951 2130.00
23.6603 2073.00
23.7255 2203.00
23.7907 2146.00
23.8559 2118.00
23.9211 2187.00
23.9863 2189.00
24.0515 2244.00
24.1167 2425.00
24.1819 2689.00
24.2471 3152.00
24.3123 3526.00
24.3775 3546.00
24.4427 3036.00
24.5079 2471.00
24.5731 2385.00
24.6383 2478.00
24.7035 2614.00
24.7687 3034.00
24.8339 2744.00
24.8991 2287.00
24.9643 2126.00
25.0295 2022.00
25.0947 2028.00
25.1599 1960.00
25.2251 2000.00
25.2903 1926.00
25.3555 2008.00
25.4207 1917.00
25.4859 1937.00
25.5511 1928.00
25.6163 2002.00
25.6815 2012.00
25.7467 1943.00
25.8119 1970.00
25.8771 1943.00
25.9423 1977.00
26.0075 2012.00
26.0727 2009.00
26.1379 1995.00
26.2031 1944.00
26.2683 2043.00
26.3335 1987.00
26.3987 2059.00
26.4639 2046.00
26.5291 1977.00
26.5943 2000.00
26.6595 1952.00
26.7247 1925.00
26.7899 1896.00
26.8551 1946.00
26.9203 1935.00
26.9855 1850.00
27.0507 1850.00
27.1159 1885.00
27.1811 2068.00
27.2463 1950.00
27.3115 1934.00
27.3767 1978.00
27.4419 1991.00
27.5071 2042.00
27.5723 2101.00
27.6375 2051.00
27.7027 2208.00
27.7679 2387.00
27.8331 2741.00
27.8983 3073.00
27.9635 3099.00
28.0287 2868.00
28.0939 2592.00
28.1591 2707.00
28.2243 2955.00
28.2894 3558.00
28.3546 5294.00
28.4198 8538.00
28.485 11206.00
28.5502 9450.00
28.6154 5819.00
28.6806 3433.00
28.7458 2689.00
28.811 2448.00
28.8762 2322.00
28.9414 2142.00
29.0066 2089.00
29.0718 2083.00
29.137 2138.00
29.2022 1899.00
29.2674 2158.00
29.3326 2055.00
29.3978 1989.00
29.463 2006.00
29.5282 2025.00
29.5934 1949.00
29.6586 1966.00
29.7238 1973.00
29.789 1914.00
29.8542 1955.00
29.9194 2010.00
29.9846 1956.00
30.0498 2000.00
30.115 1997.00
30.1802 1958.00
30.2454 1927.00
30.3106 2036.00
30.3758 2091.00
30.441 2116.00
30.5062 2181.00
30.5714 2344.00
30.6366 2660.00
30.7018 2973.00
30.767 3921.00
30.8322 5935.00
30.8974 7130.00
30.9626 6340.00
31.0278 5458.00
31.093 5294.00
31.1582 4997.00
31.2234 4256.00
31.2886 3491.00
31.3538 3159.00
31.419 2823.00
31.4842 2677.00
31.5494 3157.00
31.6146 4064.00
31.6798 6169.00
31.745 7887.00
31.8102 7242.00
31.8754 4783.00
31.9406 3082.00
32.0058 2485.00
32.071 2170.00
32.1362 2030.00
32.2014 2011.00
32.2666 1886.00
32.3318 1924.00
32.397 1908.00
32.4622 1821.00
32.5274 1886.00
32.5926 1951.00
32.6578 1812.00
32.723 1817.00
32.7882 1827.00
32.8534 1797.00
32.9186 1881.00
32.9838 1793.00
33.0489 1927.00
33.1141 1897.00
33.1793 1889.00
33.2445 1952.00
33.3097 2096.00
33.3749 2142.00
33.4401 2126.00
33.5053 1954.00
33.5705 1954.00
33.6357 1853.00
33.7009 1936.00
33.7661 1973.00
33.8313 1914.00
33.8965 1980.00
33.9617 1996.00
34.0269 2150.00
34.0921 2262.00
34.1573 2532.00
34.2225 3095.00
34.2877 4132.00
34.3529 5655.00
34.4181 7005.00
34.4833 6715.00
34.5485 5571.00
34.6137 4574.00
34.6789 3944.00
34.7441 3510.00
34.8093 2873.00
34.8745 2535.00
34.9397 2129.00
35.0049 1938.00
35.0701 1903.00
35.1353 1898.00
35.2005 1973.00
35.2657 1854.00
35.3309 1896.00
35.3961 2026.00
35.4613 2352.00
35.5265 2810.00
35.5917 3232.00
35.6569 3291.00
35.7221 3348.00
35.7873 2968.00
35.8525 2426.00
35.9177 1963.00
35.9829 1754.00
36.0481 1826.00
36.1133 1839.00
36.1785 1943.00
36.2437 1897.00
36.3089 1774.00
36.3741 1688.00
36.4393 1657.00
36.5045 1697.00
36.5697 1608.00
36.6349 1557.00
36.7001 1550.00
36.7653 1599.00
36.8305 1595.00
36.8957 1654.00
36.9609 1544.00
37.0261 1645.00
37.0913 1591.00
37.1565 1579.00
37.2217 1560.00
37.2869 1560.00
37.3521 1514.00
37.4173 1497.00
37.4825 1570.00
37.5477 1555.00
37.6129 1608.00
37.6781 1472.00
37.7433 1565.00
37.8085 1589.00
37.8736 1566.00
37.9388 1757.00
38.004 1712.00
38.0692 1642.00
38.1344 1465.00
38.1996 1489.00
38.2648 1472.00
38.33 1459.00
38.3952 1602.00
38.4604 1474.00
38.5256 1483.00
38.5908 1531.00
38.656 1597.00
38.7212 1566.00
38.7864 1746.00
38.8516 1895.00
38.9168 2013.00
38.982 1863.00
39.0472 1639.00
39.1124 1541.00
39.1776 1523.00
39.2428 1461.00
39.308 1541.00
39.3732 1523.00
39.4384 1505.00
39.5036 1626.00
39.5688 1567.00
39.634 1632.00
39.6992 1577.00
39.7644 1549.00
39.8296 1534.00
39.8948 1549.00
39.96 1577.00
40.0252 1558.00
40.0904 1607.00
40.1556 1590.00
40.2208 1494.00
40.286 1509.00
40.3512 1500.00
40.4164 1548.00
40.4816 1513.00
40.5468 1498.00
40.612 1512.00
40.6772 1585.00
40.7424 1631.00
40.8076 1640.00
40.8728 1810.00
40.938 2156.00
41.0032 2616.00
41.0684 2658.00
41.1336 2310.00
41.1988 2100.00
41.264 1988.00
41.3292 1985.00
41.3944 2129.00
41.4596 1989.00
41.5248 1831.00
41.59 1940.00
41.6552 2020.00
41.7204 2084.00
41.7856 2025.00
41.8508 1940.00
41.916 1798.00
41.9812 1692.00
42.0464 1801.00
42.1116 1806.00
42.1768 1793.00
42.242 1780.00
42.3072 1660.00
42.3724 1716.00
42.4376 1612.00
42.5028 1683.00
42.568 1558.00
42.6332 1551.00
42.6983 1480.00
42.7635 1481.00
42.8287 1415.00
42.8939 1477.00
42.9591 1427.00
43.0243 1467.00
43.0895 1557.00
43.1547 1431.00
43.2199 1503.00
43.2851 1489.00
43.3503 1426.00
43.4155 1499.00
43.4807 1545.00
43.5459 1534.00
43.6111 1502.00
43.6763 1424.00
43.7415 1398.00
43.8067 1527.00
43.8719 1482.00
43.9371 1409.00
44.0023 1499.00
44.0675 1500.00
44.1327 1550.00
44.1979 1561.00
44.2631 1558.00
44.3283 1592.00
44.3935 1604.00
44.4587 1679.00
44.5239 1644.00
44.5891 1685.00
44.6543 1666.00
44.7195 1758.00
44.7847 1810.00
44.8499 1811.00
44.9151 2011.00
44.9803 2079.00
45.0455 2183.00
45.1107 2075.00
45.1759 1967.00
45.2411 1778.00
45.3063 1685.00
45.3715 1717.00
45.4367 1623.00
45.5019 1672.00
45.5671 1537.00
45.6323 1663.00
45.6975 1853.00
45.7627 2021.00
45.8279 2078.00
45.8931 2130.00
45.9583 2022.00
46.0235 1905.00
46.0887 1768.00
46.1539 1665.00
46.2191 1621.00
46.2843 1547.00
46.3495 1620.00
46.4147 1574.00
46.4799 1698.00
46.5451 1704.00
46.6103 1677.00
46.6755 1647.00
46.7407 1777.00
46.8059 1877.00
46.8711 2017.00
46.9363 2251.00
47.0015 2407.00
47.0667 2456.00
47.1319 2207.00
47.1971 2103.00
47.2623 1886.00
47.3275 1746.00
47.3927 1660.00
47.4579 1645.00
47.523 1558.00
47.5882 1508.00
47.6534 1501.00
47.7186 1428.00
47.7838 1498.00
47.849 1458.00
47.9142 1519.00
47.9794 1427.00
48.0446 1438.00
48.1098 1417.00
48.175 1511.00
48.2402 1495.00
48.3054 1496.00
48.3706 1506.00
48.4358 1437.00
48.501 1597.00
48.5662 1522.00
48.6314 1477.00
48.6966 1517.00
48.7618 1545.00
48.827 1483.00
48.8922 1521.00
48.9574 1570.00
49.0226 1589.00
49.0878 1654.00
49.153 1765.00
49.2182 1900.00
49.2834 2031.00
49.3486 2163.00
49.4138 2356.00
49.479 2866.00
49.5442 3251.00
49.6094 2802.00
49.6746 2474.00
49.7398 2137.00
49.805 1759.00
49.8702 1584.00
49.9354 1577.00
50.0006 1528.00
50.0658 1569.00
50.131 1662.00
50.1962 1647.00
50.2614 1954.00
50.3266 2505.00
50.3918 3210.00
50.457 3402.00
50.5222 3064.00
50.5874 2614.00
50.6526 2362.00
50.7178 2320.00
50.783 2496.00
50.8482 2953.00
50.9134 2812.00
50.9786 2479.00
51.0438 2225.00
51.109 2084.00
51.1742 2151.00
51.2394 2687.00
51.3046 2844.00
51.3698 2487.00
51.435 2460.00
51.5002 2203.00
51.5654 1996.00
51.6306 1799.00
51.6958 1736.00
51.761 1620.00
51.8262 1438.00
51.8914 1511.00
51.9566 1514.00
52.0218 1384.00
52.087 1407.00
52.1522 1511.00
52.2174 1497.00
52.2826 1491.00
52.3477 1381.00
52.4129 1496.00
52.4781 1470.00
52.5433 1460.00
52.6085 1423.00
52.6737 1452.00
52.7389 1382.00
52.8041 1405.00
52.8693 1446.00
52.9345 1520.00
52.9997 1457.00
53.0649 1569.00
53.1301 1567.00
53.1953 1553.00
53.2605 1530.00
53.3257 1613.00
53.3909 1598.00
53.4561 1672.00
53.5213 1664.00
53.5865 1744.00
53.6517 1895.00
53.7169 2044.00
53.7821 1960.00
53.8473 1881.00
53.9125 1833.00
53.9777 1761.00
54.0429 1604.00
54.1081 1784.00
54.1733 1837.00
54.2385 2150.00
54.3037 2331.00
54.3689 2377.00
54.4341 2080.00
54.4993 1891.00
54.5645 1631.00
54.6297 1617.00
54.6949 1497.00
54.7601 1451.00
54.8253 1548.00
54.8905 1483.00
54.9557 1496.00
55.0209 1471.00
55.0861 1495.00
55.1513 1591.00
55.2165 1503.00
55.2817 1582.00
55.3469 1632.00
55.4121 1810.00
55.4773 1931.00
55.5425 2385.00
55.6077 2409.00
55.6729 2275.00
55.7381 2310.00
55.8033 2088.00
55.8685 2037.00
55.9337 1847.00
55.9989 1856.00
56.0641 1838.00
56.1293 1803.00
56.1945 2055.00
56.2597 2091.00
56.3249 1894.00
56.3901 1799.00
56.4553 1728.00
56.5205 1518.00
56.5857 1488.00
56.6509 1455.00
56.7161 1524.00
56.7813 1404.00
56.8465 1441.00
56.9117 1361.00
56.9769 1353.00
57.042 1423.00
57.1073 1458.00
57.1724 1528.00
57.2376 1539.00
57.3028 1593.00
57.368 1816.00
57.4332 1948.00
57.4984 1900.00
57.5636 1947.00
57.6288 1756.00
57.694 1610.00
57.7592 1598.00
57.8244 1528.00
57.8896 1483.00
57.9548 1437.00
58.02 1482.00
58.0852 1567.00
58.1504 1582.00
58.2156 1655.00
58.2808 1771.00
58.346 1784.00
58.4112 1610.00
58.4764 1703.00
58.5416 1753.00
58.6068 1710.00
58.672 1646.00
58.7372 1633.00
58.8024 1581.00
58.8676 1595.00
58.9328 1539.00
58.998 1576.00
59.0632 1513.00
59.1284 1647.00
59.1936 1623.00
59.2588 1766.00
59.324 1867.00
59.3892 1928.00
59.4544 1911.00
59.5196 1903.00
59.5848 1839.00
59.65 1749.00
59.7152 1719.00
59.7804 1707.00
59.8456 1533.00
59.9108 1725.00
59.976 1805.00
60.0412 1934.00
60.1064 2206.00
60.1716 2206.00
60.2368 2218.00
60.302 2260.00
60.3672 2076.00
60.4324 1935.00
60.4976 1809.00
60.5628 1761.00
60.628 1762.00
60.6932 1607.00
60.7584 1687.00
60.8236 1950.00
60.8888 2251.00
60.954 2221.00
61.0192 1982.00
61.0844 1976.00
61.1496 1707.00
61.2148 1711.00
61.28 1669.00
61.3452 1825.00
61.4104 1959.00
61.4756 2092.00
61.5408 2043.00
61.606 2058.00
61.6712 1998.00
61.7364 1759.00
61.8016 1719.00
61.8667 1638.00
61.932 1576.00
61.9971 1528.00
62.0623 1650.00
62.1275 1748.00
62.1927 1779.00
62.2579 1813.00
62.3231 1802.00
62.3883 1888.00
62.4535 1779.00
62.5187 1731.00
62.5839 1618.00
62.6491 1521.00
62.7143 1487.00
62.7795 1573.00
62.8447 1636.00
62.9099 1657.00
62.9751 1833.00
63.0403 2077.00
63.1055 2045.00
63.1707 1959.00
63.2359 1804.00
63.3011 1723.00
63.3663 1456.00
63.4315 1431.00
63.4967 1357.00
63.5619 1416.00
63.6271 1385.00
63.6923 1306.00
63.7575 1390.00
63.8227 1378.00
63.8879 1482.00
63.9531 1340.00
64.0183 1379.00
64.0835 1346.00
64.1487 1307.00
64.2139 1345.00
64.2791 1501.00
64.3443 1383.00
64.4095 1485.00
64.4747 1555.00
64.5399 1480.00
64.6051 1523.00
64.6703 1366.00
64.7355 1414.00
64.8007 1348.00
64.8659 1401.00
64.9311 1319.00
64.9963 1411.00
65.0615 1420.00
65.1267 1349.00
65.1919 1403.00
65.2571 1513.00
65.3223 1445.00
65.3875 1494.00
65.4527 1565.00
65.5179 1477.00
65.5831 1531.00
65.6483 1578.00
65.7135 1648.00
65.7787 1729.00
65.8439 1783.00
65.9091 1875.00
65.9743 1836.00
66.0395 1866.00
66.1047 1801.00
66.1699 1634.00
66.2351 1599.00
66.3003 1576.00
66.3655 1524.00
66.4307 1399.00
66.4959 1403.00
66.561 1496.00
66.6263 1339.00
66.6915 1376.00
66.7566 1365.00
66.8218 1389.00
66.887 1385.00
66.9522 1390.00
67.0174 1313.00
67.0826 1298.00
67.1478 1283.00
67.213 1299.00
67.2782 1218.00
67.3434 1202.00
67.4086 1268.00
67.4738 1229.00
67.539 1269.00
67.6042 1318.00
67.6694 1216.00
67.7346 1232.00
67.7998 1240.00
67.865 1221.00
67.9302 1240.00
67.9954 1239.00
68.0606 1220.00
68.1258 1230.00
68.191 1377.00
68.2562 1247.00
68.3214 1377.00
68.3866 1255.00
68.4518 1298.00
68.517 1270.00
68.5822 1324.00
68.6474 1305.00
68.7126 1366.00
68.7778 1379.00
68.843 1257.00
68.9082 1340.00
68.9734 1294.00
69.0386 1363.00
69.1038 1376.00
69.169 1444.00
69.2342 1425.00
69.2994 1451.00
69.3646 1364.00
69.4298 1322.00
69.495 1329.00
69.5602 1246.00
69.6254 1331.00
69.6906 1259.00
69.7558 1352.00
69.821 1353.00
69.8862 1310.00
69.9514 1342.00
70.0166 1186.00
70.0818 1336.00
70.147 1269.00
70.2122 1219.00
70.2774 1239.00
70.3426 1228.00
70.4078 1304.00
70.473 1287.00
70.5382 1259.00
70.6034 1260.00
70.6686 1190.00
70.7338 1212.00
70.799 1152.00
70.8642 1264.00
70.9294 1319.00
70.9946 1218.00
71.0598 1272.00
71.125 1217.00
71.1902 1283.00
71.2554 1447.00
71.3205 1475.00
71.3858 1613.00
71.451 1621.00
71.5162 1472.00
71.5813 1423.00
71.6465 1396.00
71.7117 1322.00
71.7769 1296.00
71.8421 1265.00
71.9073 1256.00
71.9725 1304.00
72.0377 1377.00
72.1029 1430.00
72.1681 1407.00
72.2333 1437.00
72.2985 1434.00
72.3637 1531.00
72.4289 1470.00
72.4941 1486.00
72.5593 1422.00
72.6245 1304.00
72.6897 1454.00
72.7549 1381.00
72.8201 1396.00
72.8853 1346.00
72.9505 1341.00
73.0157 1266.00
73.0809 1228.00
73.1461 1319.00
73.2113 1270.00
73.2765 1222.00
73.3417 1205.00
73.4069 1177.00
73.4721 1249.00
73.5373 1271.00
73.6025 1194.00
73.6677 1204.00
73.7329 1319.00
73.7981 1192.00
73.8633 1313.00
73.9285 1232.00
73.9937 1249.00
74.0589 1235.00
74.1241 1153.00
74.1893 1219.00
74.2545 1219.00
74.3197 1169.00
74.3849 1204.00
74.4501 1191.00
74.5153 1212.00
74.5805 1166.00
74.6457 1251.00
74.7109 1225.00
74.7761 1268.00
74.8413 1283.00
74.9065 1250.00
74.9717 1328.00
75.0369 1356.00
75.1021 1271.00
75.1673 1378.00
75.2325 1408.00
75.2977 1509.00
75.3629 1489.00
75.4281 1532.00
75.4933 1425.00
75.5585 1457.00
75.6237 1349.00
75.6889 1369.00
75.7541 1330.00
75.8193 1272.00
75.8845 1269.00
75.9497 1283.00
76.0149 1296.00
76.0801 1252.00
76.1452 1277.00
76.2104 1154.00
76.2756 1196.00
76.3409 1114.00
76.406 1270.00
76.4712 1264.00
76.5364 1260.00
76.6016 1337.00
76.6668 1452.00
76.732 1393.00
76.7972 1331.00
76.8624 1394.00
76.9276 1248.00
76.9928 1253.00
77.058 1254.00
77.1232 1200.00
77.1884 1249.00
77.2536 1204.00
77.3188 1228.00
77.384 1268.00
77.4492 1242.00
77.5144 1251.00
77.5796 1220.00
77.6448 1217.00
77.71 1201.00
77.7752 1261.00
77.8404 1279.00
77.9056 1235.00
77.9708 1299.00
78.036 1288.00
78.1012 1213.00
78.1664 1145.00
78.2316 1278.00
78.2968 1302.00
78.362 1252.00
78.4272 1257.00
78.4924 1136.00
78.5576 1161.00
78.6228 1200.00
78.688 1194.00
78.7532 1191.00
78.8184 1182.00
78.8836 1153.00
78.9488 1217.00
79.014 1232.00
79.0792 1300.00
79.1444 1334.00
79.2096 1305.00
79.2748 1286.00
79.34 1355.00
79.4052 1303.00
79.4704 1325.00
79.5356 1227.00
79.6008 1211.00
79.666 1196.00
79.7312 1206.00
79.7964 1230.00
79.8616 1223.00
79.9268 1222.00
79.992 1168.00
80.0572 1174.00
80.1224 1097.00
80.1876 1189.00
80.2528 1188.00
80.318 1140.00
80.3832 1221.00
80.4484 1185.00
80.5136 1224.00
80.5788 1212.00
80.644 1328.00
80.7092 1266.00
80.7744 1318.00
80.8396 1281.00
80.9048 1327.00
80.9699 1164.00
81.0351 1185.00
81.1003 1230.00
81.1655 1199.00
81.2307 1152.00
81.2959 1197.00
81.3611 1174.00
81.4263 1187.00
81.4915 1282.00
81.5567 1315.00
81.6219 1289.00
81.6871 1360.00
81.7523 1332.00
81.8175 1226.00
81.8827 1219.00
81.9479 1341.00
82.0131 1260.00
82.0783 1279.00
82.1435 1276.00
82.2087 1362.00
82.2739 1261.00
82.3391 1280.00
82.4043 1287.00
82.4695 1288.00
82.5347 1306.00
82.5999 1264.00
82.6651 1301.00
82.7303 1347.00
82.7955 1326.00
82.8607 1260.00
82.9259 1289.00
82.9911 1246.00
83.0563 1246.00
83.1215 1322.00
83.1867 1289.00
83.2519 1366.00
83.3171 1525.00
83.3823 1561.00
83.4475 1454.00
83.5127 1410.00
83.5779 1303.00
83.6431 1429.00
83.7083 1318.00
83.7735 1272.00
83.8387 1251.00
83.9039 1216.00
83.9691 1259.00
84.0343 1259.00
84.0995 1319.00
84.1647 1297.00
84.2299 1288.00
84.2951 1333.00
84.3603 1322.00
84.4255 1375.00
84.4907 1318.00
84.5559 1271.00
84.6211 1258.00
84.6863 1292.00
84.7515 1247.00
84.8167 1156.00
84.8819 1181.00
84.9471 1276.00
85.0123 1172.00
85.0775 1201.00
85.1427 1222.00
85.2079 1195.00
85.2731 1232.00
85.3383 1167.00
85.4035 1178.00
85.4687 1126.00
85.5339 1156.00
85.5991 1187.00
85.6643 1204.00
85.7295 1148.00
85.7946 1134.00
85.8598 1231.00
85.925 1215.00
85.9903 1299.00
86.0554 1304.00
86.1206 1302.00
86.1858 1263.00
86.251 1348.00
86.3162 1335.00
86.3814 1320.00
86.4466 1246.00
86.5118 1292.00
86.577 1242.00
86.6422 1224.00
86.7074 1219.00
86.7726 1208.00
86.8378 1179.00
86.903 1202.00
86.9682 1183.00
87.0334 1176.00
87.0986 1287.00
87.1638 1193.00
87.229 1245.00
87.2942 1202.00
87.3594 1250.00
87.4246 1250.00
87.4898 1251.00
87.555 1301.00
87.6202 1253.00
87.6854 1310.00
87.7506 1294.00
87.8158 1326.00
87.881 1342.00
87.9462 1209.00
88.0114 1283.00
88.0766 1305.00
88.1418 1209.00
88.207 1329.00
88.2722 1375.00
88.3374 1329.00
88.4026 1376.00
88.4678 1313.00
88.533 1379.00
88.5982 1349.00
88.6634 1317.00
88.7286 1329.00
88.7938 1306.00
88.859 1343.00
88.9242 1331.00
88.9894 1215.00
89.0546 1208.00
89.1198 1138.00
89.185 1291.00
89.2502 1220.00
89.3154 1203.00
89.3806 1191.00
89.4458 1193.00
89.511 1270.00
89.5762 1282.00
89.6414 1269.00
89.7066 1206.00
89.7718 1278.00
89.837 1269.00
89.9022 1370.00
89.9674 1454.00
90.0326 1383.00
90.0978 1387.00
90.163 1307.00
90.2282 1328.00
90.2934 1287.00
90.3586 1230.00
90.4238 1291.00
90.489 1283.00
90.5542 1231.00
90.6193 1280.00
90.6845 1189.00
90.7497 1238.00
90.8149 1186.00
90.8801 1259.00
90.9453 1214.00
91.0105 1276.00
91.0757 1193.00
91.1409 1181.00
91.2061 1174.00
91.2713 1144.00
91.3365 1160.00
91.4017 1227.00
91.4669 1223.00
91.5321 1153.00
91.5973 1216.00
91.6625 1124.00
91.7277 1193.00
91.7929 1132.00
91.8581 1171.00
91.9233 1163.00
91.9885 1178.00
92.0537 1166.00
92.1189 1149.00
92.1841 1239.00
92.2493 1190.00
92.3145 1131.00
92.3797 1143.00
92.4449 1155.00
92.5101 1220.00
92.5753 1171.00
92.6405 1249.00
92.7057 1209.00
92.7709 1178.00
92.8361 1192.00
92.9013 1193.00
92.9665 1248.00
93.0317 1144.00
93.0969 1213.00
93.1621 1138.00
93.2273 1187.00
93.2925 1225.00
93.3577 1175.00
93.4229 1107.00
93.4881 1215.00
93.5533 1221.00
93.6185 1168.00
93.6837 1186.00
93.7489 1211.00
93.8141 1255.00
93.8793 1227.00
93.9445 1237.00
94.0097 1216.00
94.0749 1236.00
94.1401 1248.00
94.2053 1182.00
94.2705 1230.00
94.3357 1146.00
94.4009 1158.00
94.4661 1149.00
94.5313 1179.00
94.5965 1119.00
94.6617 1139.00
94.7269 1160.00
94.7921 1197.00
94.8573 1147.00
94.9225 1192.00
94.9877 1227.00
95.0529 1229.00
95.1181 1166.00
95.1833 1239.00
95.2485 1344.00
95.3137 1332.00
95.3789 1358.00
95.444 1250.00
95.5092 1283.00
95.5744 1250.00
95.6396 1292.00
95.7048 1278.00
95.77 1322.00
95.8352 1221.00
95.9004 1196.00
95.9656 1156.00
96.0308 1178.00
96.096 1088.00
96.1612 1250.00
96.2264 1197.00
96.2916 1288.00
96.3568 1230.00
96.422 1319.00
96.4872 1216.00
96.5524 1272.00
96.6176 1385.00
96.6828 1507.00
96.748 1419.00
96.8132 1414.00
96.8784 1396.00
96.9436 1404.00
97.0088 1440.00
97.074 1490.00
97.1392 1402.00
97.2044 1368.00
97.2696 1295.00
97.3348 1225.00
97.4 1170.00
97.4652 1232.00
97.5304 1198.00
97.5956 1184.00
97.6608 1164.00
97.726 1176.00
97.7912 1185.00
97.8564 1141.00
97.9216 1249.00
97.9868 1182.00
98.052 1152.00
98.1172 1170.00
98.1824 1224.00
98.2476 1192.00
98.3128 1209.00
98.378 1251.00
98.4432 1239.00
98.5084 1323.00
98.5736 1252.00
98.6388 1215.00
98.704 1240.00
98.7692 1251.00
98.8344 1197.00
98.8996 1260.00
98.9648 1281.00
99.03 1274.00
99.0952 1256.00
99.1604 1285.00
99.2256 1264.00
99.2908 1324.00
99.356 1346.00
99.4212 1315.00
99.4864 1376.00
99.5516 1261.00
99.6168 1391.00
99.682 1339.00
99.7472 1250.00
99.8124 1315.00
99.8776 1221.00
99.9428 1142.00
100.008 1205.00
100.073 1209.00
100.095 1203.00