File: data/xrd_creation/results/NSC_70.xy
9.903433 2915.00
9.968632 2996.00
10.0338 2996.00
10.099 3042.00
10.1642 2922.00
10.2294 2872.00
10.2946 2961.00
10.3598 2790.00
10.425 2742.00
10.4902 2907.00
10.5554 2800.00
10.6206 2926.00
10.6858 3089.00
10.751 3130.00
10.8162 3075.00
10.8814 2861.00
10.9466 2736.00
11.0118 2573.00
11.077 2493.00
11.1422 2660.00
11.2074 2450.00
11.2726 2482.00
11.3378 2499.00
11.403 2354.00
11.4682 2326.00
11.5334 2326.00
11.5986 2385.00
11.6638 2318.00
11.729 2407.00
11.7942 2350.00
11.8594 2307.00
11.9246 2339.00
11.9898 2375.00
12.055 2351.00
12.1202 2177.00
12.1854 2266.00
12.2506 2167.00
12.3158 2180.00
12.381 2215.00
12.4462 2161.00
12.5114 2234.00
12.5766 2195.00
12.6418 2142.00
12.707 2162.00
12.7722 2125.00
12.8374 2049.00
12.9026 2173.00
12.9678 2162.00
13.033 2160.00
13.0982 2155.00
13.1634 2246.00
13.2286 2273.00
13.2938 2398.00
13.359 2548.00
13.4242 2769.00
13.4894 2638.00
13.5546 2530.00
13.6198 2687.00
13.685 2845.00
13.7502 2818.00
13.8154 2482.00
13.8805 2095.00
13.9457 2042.00
14.0109 1890.00
14.0761 2015.00
14.1413 1927.00
14.2065 1934.00
14.2717 1941.00
14.3369 1956.00
14.4021 1917.00
14.4673 1914.00
14.5325 2031.00
14.5977 2029.00
14.6629 1974.00
14.7281 1914.00
14.7933 1823.00
14.8585 1816.00
14.9237 1857.00
14.9889 1864.00
15.0541 1797.00
15.1193 1808.00
15.1845 1817.00
15.2497 1795.00
15.3149 1747.00
15.3801 1885.00
15.4453 1835.00
15.5105 1889.00
15.5757 1824.00
15.6409 1797.00
15.7061 1811.00
15.7713 1803.00
15.8365 1802.00
15.9017 1791.00
15.9669 1794.00
16.0321 1685.00
16.0973 1952.00
16.1625 1892.00
16.2277 2069.00
16.2929 2097.00
16.3581 1910.00
16.4233 1755.00
16.4885 1837.00
16.5537 1732.00
16.6189 1707.00
16.6841 1727.00
16.7493 1742.00
16.8145 1683.00
16.8797 1744.00
16.9449 1801.00
17.0101 1893.00
17.0753 1946.00
17.1405 1941.00
17.2057 1829.00
17.2709 1843.00
17.3361 1881.00
17.4013 2139.00
17.4665 2266.00
17.5317 2045.00
17.5969 1924.00
17.6621 1797.00
17.7273 1635.00
17.7925 1655.00
17.8577 1662.00
17.9229 1626.00
17.9881 1613.00
18.0533 1605.00
18.1185 1562.00
18.1837 1527.00
18.2489 1614.00
18.3141 1578.00
18.3793 1574.00
18.4445 1577.00
18.5097 1598.00
18.5749 1527.00
18.6401 1488.00
18.7052 1521.00
18.7704 1559.00
18.8356 1511.00
18.9008 1579.00
18.966 1547.00
19.0312 1662.00
19.0964 1795.00
19.1616 1809.00
19.2268 1899.00
19.292 1746.00
19.3572 1598.00
19.4224 1487.00
19.4876 1560.00
19.5528 1564.00
19.618 1620.00
19.6832 1628.00
19.7484 1758.00
19.8136 1869.00
19.8788 1866.00
19.944 1706.00
20.0092 1625.00
20.0744 1676.00
20.1396 1811.00
20.2048 2182.00
20.27 2558.00
20.3352 2644.00
20.4004 3030.00
20.4656 2661.00
20.5308 2375.00
20.596 2320.00
20.6612 2079.00
20.7264 2068.00
20.7916 2311.00
20.8568 2800.00
20.922 4014.00
20.9872 6422.00
21.0524 10390.00
21.1176 15776.00
21.1828 18237.00
21.248 14778.00
21.3132 11217.00
21.3784 7132.00
21.4436 4842.00
21.5088 4581.00
21.574 4061.00
21.6392 2905.00
21.7044 2320.00
21.7696 2227.00
21.8348 1798.00
21.9 1722.00
21.9652 1679.00
22.0304 1692.00
22.0956 1579.00
22.1608 1637.00
22.226 1482.00
22.2912 1381.00
22.3564 1403.00
22.4216 1337.00
22.4868 1364.00
22.552 1424.00
22.6172 1356.00
22.6824 1316.00
22.7476 1393.00
22.8128 1280.00
22.878 1363.00
22.9432 1343.00
23.0084 1370.00
23.0736 1367.00
23.1388 1472.00
23.204 1764.00
23.2692 1899.00
23.3344 1773.00
23.3996 1505.00
23.4647 1447.00
23.5299 1596.00
23.5951 1610.00
23.6603 1607.00
23.7255 1594.00
23.7907 1564.00
23.8559 1441.00
23.9211 1514.00
23.9863 1509.00
24.0515 1596.00
24.1167 1946.00
24.1819 2260.00
24.2471 2693.00
24.3123 3133.00
24.3775 2895.00
24.4427 2100.00
24.5079 1817.00
24.5731 1811.00
24.6383 1766.00
24.7035 1670.00
24.7687 1449.00
24.8339 1301.00
24.8991 1245.00
24.9643 1228.00
25.0295 1204.00
25.0947 1150.00
25.1599 1208.00
25.2251 1154.00
25.2903 1164.00
25.3555 1245.00
25.4207 1318.00
25.4859 1532.00
25.5511 1604.00
25.6163 1451.00
25.6815 1315.00
25.7467 1353.00
25.8119 1361.00
25.8771 1322.00
25.9423 1256.00
26.0075 1337.00
26.0727 1402.00
26.1379 1439.00
26.2031 1472.00
26.2683 1524.00
26.3335 1558.00
26.3987 1679.00
26.4639 1630.00
26.5291 1659.00
26.5943 1948.00
26.6595 2572.00
26.7247 3452.00
26.7899 4771.00
26.8551 6339.00
26.9203 5741.00
26.9855 4009.00
27.0507 2781.00
27.1159 2094.00
27.1811 1710.00
27.2463 1609.00
27.3115 1446.00
27.3767 1450.00
27.4419 1289.00
27.5071 1278.00
27.5723 1341.00
27.6375 1363.00
27.7027 1327.00
27.7679 1281.00
27.8331 1187.00
27.8983 1253.00
27.9635 1295.00
28.0287 1221.00
28.0939 1146.00
28.1591 1045.00
28.2243 1055.00
28.2894 1113.00
28.3546 1114.00
28.4198 1192.00
28.485 1237.00
28.5502 1114.00
28.6154 1018.00
28.6806 1012.00
28.7458 1017.00
28.811 970.00
28.8762 1082.00
28.9414 1074.00
29.0066 1187.00
29.0718 1222.00
29.137 1344.00
29.2022 1300.00
29.2674 1222.00
29.3326 1209.00
29.3978 1062.00
29.463 1183.00
29.5282 1251.00
29.5934 1245.00
29.6586 1308.00
29.7238 1352.00
29.789 1353.00
29.8542 1299.00
29.9194 1407.00
29.9846 1453.00
30.0498 1456.00
30.115 1374.00
30.1802 1180.00
30.2454 1071.00
30.3106 1027.00
30.3758 1064.00
30.441 1078.00
30.5062 1150.00
30.5714 1221.00
30.6366 1297.00
30.7018 1273.00
30.767 1200.00
30.8322 1178.00
30.8974 1095.00
30.9626 1012.00
31.0278 1038.00
31.093 974.00
31.1582 1059.00
31.2234 1057.00
31.2886 1105.00
31.3538 1011.00
31.419 986.00
31.4842 981.00
31.5494 982.00
31.6146 979.00
31.6798 945.00
31.745 986.00
31.8102 1015.00
31.8754 1121.00
31.9406 1064.00
32.0058 1123.00
32.071 1097.00
32.1362 1154.00
32.2014 1052.00
32.2666 1026.00
32.3318 1096.00
32.397 1140.00
32.4622 1243.00
32.5274 1285.00
32.5926 1346.00
32.6578 1337.00
32.723 1281.00
32.7882 1147.00
32.8534 1256.00
32.9186 1367.00
32.9838 1613.00
33.0489 1494.00
33.1141 1420.00
33.1793 1346.00
33.2445 1388.00
33.3097 1803.00
33.3749 2122.00
33.4401 2357.00
33.5053 2171.00
33.5705 1639.00
33.6357 1450.00
33.7009 1427.00
33.7661 1524.00
33.8313 1696.00
33.8965 1898.00
33.9617 2450.00
34.0269 3514.00
34.0921 5029.00
34.1573 5706.00
34.2225 5084.00
34.2877 3956.00
34.3529 3842.00
34.4181 4637.00
34.4833 6824.00
34.5485 9834.00
34.6137 12428.00
34.6789 14346.00
34.7441 15065.00
34.8093 13540.00
34.8745 10283.00
34.9397 7482.00
35.0049 5957.00
35.0701 5118.00
35.1353 4370.00
35.2005 3315.00
35.2657 2753.00
35.3309 2288.00
35.3961 2235.00
35.4613 2318.00
35.5265 2256.00
35.5917 1765.00
35.6569 1412.00
35.7221 1157.00
35.7873 1130.00
35.8525 1070.00
35.9177 1072.00
35.9829 1153.00
36.0481 1163.00
36.1133 1200.00
36.1785 1183.00
36.2437 1091.00
36.3089 1081.00
36.3741 1109.00
36.4393 1012.00
36.5045 1075.00
36.5697 1039.00
36.6349 1015.00
36.7001 1020.00
36.7653 1094.00
36.8305 1173.00
36.8957 1179.00
36.9609 1238.00
37.0261 1330.00
37.0913 1301.00
37.1565 1487.00
37.2217 1340.00
37.2869 1311.00
37.3521 1286.00
37.4173 1317.00
37.4825 1238.00
37.5477 1250.00
37.6129 1096.00
37.6781 961.00
37.7433 947.00
37.8085 973.00
37.8736 1116.00
37.9388 1193.00
38.004 1327.00
38.0692 1462.00
38.1344 1762.00
38.1996 2038.00
38.2648 1986.00
38.33 1722.00
38.3952 1437.00
38.4604 1219.00
38.5256 1113.00
38.5908 1092.00
38.656 1078.00
38.7212 1120.00
38.7864 1089.00
38.8516 1098.00
38.9168 1063.00
38.982 923.00
39.0472 945.00
39.1124 977.00
39.1776 1071.00
39.2428 1105.00
39.308 1095.00
39.3732 1006.00
39.4384 1026.00
39.5036 1078.00
39.5688 1067.00
39.634 1050.00
39.6992 1093.00
39.7644 1029.00
39.8296 957.00
39.8948 1007.00
39.96 953.00
40.0252 1023.00
40.0904 950.00
40.1556 891.00
40.2208 1060.00
40.286 1233.00
40.3512 1506.00
40.4164 1846.00
40.4816 1870.00
40.5468 1655.00
40.612 1416.00
40.6772 1273.00
40.7424 1236.00
40.8076 1309.00
40.8728 1317.00
40.938 1389.00
41.0032 1525.00
41.0684 1622.00
41.1336 1627.00
41.1988 1639.00
41.264 1544.00
41.3292 1294.00
41.3944 1167.00
41.4596 1028.00
41.5248 1045.00
41.59 986.00
41.6552 979.00
41.7204 888.00
41.7856 911.00
41.8508 809.00
41.916 843.00
41.9812 815.00
42.0464 803.00
42.1116 813.00
42.1768 893.00
42.242 826.00
42.3072 886.00
42.3724 834.00
42.4376 858.00
42.5028 1013.00
42.568 1288.00
42.6332 1625.00
42.6983 1843.00
42.7635 1934.00
42.8287 1728.00
42.8939 1761.00
42.9591 1832.00
43.0243 2009.00
43.0895 2343.00
43.1547 2444.00
43.2199 2154.00
43.2851 1805.00
43.3503 1469.00
43.4155 1367.00
43.4807 1288.00
43.5459 1181.00
43.6111 1113.00
43.6763 1201.00
43.7415 1280.00
43.8067 1417.00
43.8719 1543.00
43.9371 1433.00
44.0023 1244.00
44.0675 1141.00
44.1327 979.00
44.1979 981.00
44.2631 857.00
44.3283 843.00
44.3935 830.00
44.4587 882.00
44.5239 894.00
44.5891 948.00
44.6543 995.00
44.7195 943.00
44.7847 1006.00
44.8499 965.00
44.9151 1007.00
44.9803 993.00
45.0455 1082.00
45.1107 968.00
45.1759 846.00
45.2411 873.00
45.3063 807.00
45.3715 812.00
45.4367 759.00
45.5019 818.00
45.5671 731.00
45.6323 811.00
45.6975 807.00
45.7627 866.00
45.8279 843.00
45.8931 866.00
45.9583 810.00
46.0235 747.00
46.0887 753.00
46.1539 784.00
46.2191 788.00
46.2843 714.00
46.3495 739.00
46.4147 747.00
46.4799 744.00
46.5451 758.00
46.6103 807.00
46.6755 779.00
46.7407 832.00
46.8059 848.00
46.8711 830.00
46.9363 808.00
47.0015 882.00
47.0667 793.00
47.1319 829.00
47.1971 860.00
47.2623 776.00
47.3275 797.00
47.3927 839.00
47.4579 842.00
47.523 843.00
47.5882 850.00
47.6534 828.00
47.7186 782.00
47.7838 809.00
47.849 746.00
47.9142 778.00
47.9794 751.00
48.0446 739.00
48.1098 781.00
48.175 819.00
48.2402 791.00
48.3054 814.00
48.3706 869.00
48.4358 940.00
48.501 827.00
48.5662 791.00
48.6314 777.00
48.6966 773.00
48.7618 653.00
48.827 744.00
48.8922 760.00
48.9574 813.00
49.0226 864.00
49.0878 917.00
49.153 961.00
49.2182 1045.00
49.2834 1255.00
49.3486 1706.00
49.4138 2304.00
49.479 3005.00
49.5442 3170.00
49.6094 3073.00
49.6746 2569.00
49.7398 2104.00
49.805 1650.00
49.8702 1417.00
49.9354 1394.00
50.0006 1423.00
50.0658 1560.00
50.131 1717.00
50.1962 1818.00
50.2614 1825.00
50.3266 1665.00
50.3918 1352.00
50.457 1300.00
50.5222 1174.00
50.5874 1086.00
50.6526 1119.00
50.7178 1075.00
50.783 1059.00
50.8482 1004.00
50.9134 904.00
50.9786 863.00
51.0438 772.00
51.109 755.00
51.1742 725.00
51.2394 667.00
51.3046 727.00
51.3698 674.00
51.435 726.00
51.5002 794.00
51.5654 775.00
51.6306 884.00
51.6958 922.00
51.761 1096.00
51.8262 1364.00
51.8914 1838.00
51.9566 2521.00
52.0218 3374.00
52.087 3117.00
52.1522 2699.00
52.2174 2268.00
52.2826 1668.00
52.3477 1300.00
52.4129 1116.00
52.4781 848.00
52.5433 900.00
52.6085 838.00
52.6737 776.00
52.7389 795.00
52.8041 714.00
52.8693 682.00
52.9345 685.00
52.9997 703.00
53.0649 689.00
53.1301 687.00
53.1953 706.00
53.2605 666.00
53.3257 696.00
53.3909 655.00
53.4561 681.00
53.5213 780.00
53.5865 835.00
53.6517 847.00
53.7169 830.00
53.7821 841.00
53.8473 857.00
53.9125 847.00
53.9777 805.00
54.0429 802.00
54.1081 722.00
54.1733 831.00
54.2385 768.00
54.3037 766.00
54.3689 748.00
54.4341 812.00
54.4993 929.00
54.5645 963.00
54.6297 942.00
54.6949 931.00
54.7601 963.00
54.8253 1044.00
54.8905 1178.00
54.9557 1342.00
55.0209 1470.00
55.0861 1383.00
55.1513 1302.00
55.2165 1147.00
55.2817 1027.00
55.3469 961.00
55.4121 898.00
55.4773 853.00
55.5425 801.00
55.6077 725.00
55.6729 736.00
55.7381 769.00
55.8033 724.00
55.8685 752.00
55.9337 738.00
55.9989 708.00
56.0641 734.00
56.1293 706.00
56.1945 715.00
56.2597 720.00
56.3249 765.00
56.3901 830.00
56.4553 844.00
56.5205 872.00
56.5857 849.00
56.6509 841.00
56.7161 831.00
56.7813 745.00
56.8465 768.00
56.9117 757.00
56.9769 799.00
57.042 814.00
57.1073 740.00
57.1724 759.00
57.2376 751.00
57.3028 720.00
57.368 687.00
57.4332 641.00
57.4984 678.00
57.5636 670.00
57.6288 672.00
57.694 710.00
57.7592 715.00
57.8244 739.00
57.8896 753.00
57.9548 781.00
58.02 929.00
58.0852 904.00
58.1504 962.00
58.2156 887.00
58.2808 805.00
58.346 803.00
58.4112 736.00
58.4764 674.00
58.5416 689.00
58.6068 691.00
58.672 631.00
58.7372 717.00
58.8024 641.00
58.8676 656.00
58.9328 656.00
58.998 573.00
59.0632 631.00
59.1284 636.00
59.1936 647.00
59.2588 610.00
59.324 668.00
59.3892 658.00
59.4544 726.00
59.5196 704.00
59.5848 676.00
59.65 670.00
59.7152 701.00
59.7804 634.00
59.8456 593.00
59.9108 630.00
59.976 688.00
60.0412 691.00
60.1064 687.00
60.1716 660.00
60.2368 679.00
60.302 749.00
60.3672 699.00
60.4324 714.00
60.4976 726.00
60.5628 755.00
60.628 698.00
60.6932 640.00
60.7584 652.00
60.8236 623.00
60.8888 679.00
60.954 650.00
61.0192 643.00
61.0844 678.00
61.1496 732.00
61.2148 699.00
61.28 725.00
61.3452 727.00
61.4104 859.00
61.4756 1020.00
61.5408 1263.00
61.606 1618.00
61.6712 2154.00
61.7364 2449.00
61.8016 2482.00
61.8667 2519.00
61.932 2456.00
61.9971 2549.00
62.0623 2738.00
62.1275 2643.00
62.1927 2574.00
62.2579 2410.00
62.3231 2351.00
62.3883 2288.00
62.4535 2159.00
62.5187 2123.00
62.5839 1921.00
62.6491 1499.00
62.7143 1311.00
62.7795 1066.00
62.8447 961.00
62.9099 843.00
62.9751 817.00
63.0403 778.00
63.1055 738.00
63.1707 752.00
63.2359 743.00
63.3011 773.00
63.3663 766.00
63.4315 746.00
63.4967 692.00
63.5619 675.00
63.6271 651.00
63.6923 646.00
63.7575 641.00
63.8227 663.00
63.8879 642.00
63.9531 645.00
64.0183 641.00
64.0835 707.00
64.1487 693.00
64.2139 631.00
64.2791 622.00
64.3443 638.00
64.4095 607.00
64.4747 601.00
64.5399 605.00
64.6051 617.00
64.6703 674.00
64.7355 702.00
64.8007 761.00
64.8659 878.00
64.9311 1020.00
64.9963 1014.00
65.0615 1009.00
65.1267 977.00
65.1919 888.00
65.2571 802.00
65.3223 747.00
65.3875 711.00
65.4527 742.00
65.5179 712.00
65.5831 770.00
65.6483 787.00
65.7135 751.00
65.7787 882.00
65.8439 865.00
65.9091 907.00
65.9743 1025.00
66.0395 1093.00
66.1047 1190.00
66.1699 1292.00
66.2351 1253.00
66.3003 1228.00
66.3655 1022.00
66.4307 908.00
66.4959 800.00
66.561 805.00
66.6263 682.00
66.6915 731.00
66.7566 716.00
66.8218 674.00
66.887 663.00
66.9522 671.00
67.0174 612.00
67.0826 644.00
67.1478 611.00
67.213 594.00
67.2782 593.00
67.3434 647.00
67.4086 546.00
67.4738 575.00
67.539 577.00
67.6042 560.00
67.6694 597.00
67.7346 558.00
67.7998 561.00
67.865 523.00
67.9302 566.00
67.9954 514.00
68.0606 523.00
68.1258 526.00
68.191 567.00
68.2562 506.00
68.3214 516.00
68.3866 479.00
68.4518 509.00
68.517 478.00
68.5822 512.00
68.6474 589.00
68.7126 519.00
68.7778 522.00
68.843 513.00
68.9082 516.00
68.9734 503.00
69.0386 520.00
69.1038 495.00
69.169 586.00
69.2342 585.00
69.2994 599.00
69.3646 583.00
69.4298 596.00
69.495 553.00
69.5602 545.00
69.6254 554.00
69.6906 557.00
69.7558 566.00
69.821 602.00
69.8862 626.00
69.9514 568.00
70.0166 603.00
70.0818 592.00
70.147 601.00
70.2122 614.00
70.2774 555.00
70.3426 571.00
70.4078 577.00
70.473 514.00
70.5382 531.00
70.6034 555.00
70.6686 512.00
70.7338 497.00
70.799 539.00
70.8642 507.00
70.9294 479.00
70.9946 468.00
71.0598 491.00
71.125 508.00
71.1902 561.00
71.2554 534.00
71.3205 640.00
71.3858 669.00
71.451 760.00
71.5162 715.00
71.5813 697.00
71.6465 645.00
71.7117 646.00
71.7769 572.00
71.8421 591.00
71.9073 526.00
71.9725 555.00
72.0377 505.00
72.1029 550.00
72.1681 521.00
72.2333 571.00
72.2985 655.00
72.3637 723.00
72.4289 801.00
72.4941 813.00
72.5593 875.00
72.6245 862.00
72.6897 891.00
72.7549 883.00
72.8201 875.00
72.8853 937.00
72.9505 955.00
73.0157 908.00
73.0809 911.00
73.1461 843.00
73.2113 790.00
73.2765 719.00
73.3417 696.00
73.4069 662.00
73.4721 659.00
73.5373 615.00
73.6025 568.00
73.6677 592.00
73.7329 571.00
73.7981 534.00
73.8633 507.00
73.9285 520.00
73.9937 530.00
74.0589 507.00
74.1241 537.00
74.1893 519.00
74.2545 490.00
74.3197 517.00
74.3849 515.00
74.4501 522.00
74.5153 527.00
74.5805 568.00
74.6457 604.00
74.7109 574.00
74.7761 558.00
74.8413 566.00
74.9065 528.00
74.9717 505.00
75.0369 540.00
75.1021 532.00
75.1673 527.00
75.2325 514.00
75.2977 458.00
75.3629 448.00
75.4281 468.00
75.4933 436.00
75.5585 494.00
75.6237 503.00
75.6889 482.00
75.7541 464.00
75.8193 457.00
75.8845 491.00
75.9497 484.00
76.0149 508.00
76.0801 502.00
76.1452 473.00
76.2104 561.00
76.2756 536.00
76.3409 543.00
76.406 542.00
76.4712 605.00
76.5364 584.00
76.6016 554.00
76.6668 520.00
76.732 514.00
76.7972 547.00
76.8624 535.00
76.9276 567.00
76.9928 530.00
77.058 496.00
77.1232 499.00
77.1884 504.00
77.2536 562.00
77.3188 518.00
77.384 497.00
77.4492 524.00
77.5144 511.00
77.5796 521.00
77.6448 520.00
77.71 471.00
77.7752 499.00
77.8404 491.00
77.9056 520.00
77.9708 533.00
78.036 513.00
78.1012 477.00
78.1664 526.00
78.2316 532.00
78.2968 497.00
78.362 555.00
78.4272 480.00
78.4924 540.00
78.5576 522.00
78.6228 565.00
78.688 606.00
78.7532 701.00
78.8184 775.00
78.8836 846.00
78.9488 805.00
79.014 823.00
79.0792 733.00
79.1444 705.00
79.2096 649.00
79.2748 631.00
79.34 552.00
79.4052 511.00
79.4704 533.00
79.5356 526.00
79.6008 494.00
79.666 490.00
79.7312 498.00
79.7964 458.00
79.8616 475.00
79.9268 422.00
79.992 429.00
80.0572 408.00
80.1224 426.00
80.1876 428.00
80.2528 398.00
80.318 437.00
80.3832 401.00
80.4484 439.00
80.5136 421.00
80.5788 421.00
80.644 436.00
80.7092 431.00
80.7744 456.00
80.8396 437.00
80.9048 429.00
80.9699 416.00
81.0351 427.00
81.1003 436.00
81.1655 436.00
81.2307 471.00
81.2959 523.00
81.3611 503.00
81.4263 549.00
81.4915 480.00
81.5567 509.00
81.6219 520.00
81.6871 514.00
81.7523 492.00
81.8175 463.00
81.8827 449.00
81.9479 447.00
82.0131 395.00
82.0783 411.00
82.1435 460.00
82.2087 434.00
82.2739 474.00
82.3391 506.00
82.4043 496.00
82.4695 550.00
82.5347 649.00
82.5999 748.00
82.6651 797.00
82.7303 847.00
82.7955 785.00
82.8607 793.00
82.9259 767.00
82.9911 734.00
83.0563 749.00
83.1215 647.00
83.1867 648.00
83.2519 581.00
83.3171 554.00
83.3823 613.00
83.4475 545.00
83.5127 562.00
83.5779 594.00
83.6431 601.00
83.7083 638.00
83.7735 741.00
83.8387 759.00
83.9039 844.00
83.9691 865.00
84.0343 791.00
84.0995 751.00
84.1647 705.00
84.2299 706.00
84.2951 611.00
84.3603 576.00
84.4255 558.00
84.4907 498.00
84.5559 499.00
84.6211 471.00
84.6863 469.00
84.7515 472.00
84.8167 506.00
84.8819 501.00
84.9471 477.00
85.0123 449.00
85.0775 473.00
85.1427 443.00
85.2079 448.00
85.2731 436.00
85.3383 472.00
85.4035 427.00
85.4687 432.00
85.5339 424.00
85.5991 420.00
85.6643 464.00
85.7295 429.00
85.7946 393.00
85.8598 396.00
85.925 451.00
85.9903 393.00
86.0554 458.00
86.1206 410.00
86.1858 408.00
86.251 456.00
86.3162 411.00
86.3814 427.00
86.4466 404.00
86.5118 387.00
86.577 447.00
86.6422 471.00
86.7074 478.00
86.7726 473.00
86.8378 426.00
86.903 496.00
86.9682 500.00
87.0334 483.00
87.0986 438.00
87.1638 447.00
87.229 491.00
87.2942 509.00
87.3594 480.00
87.4246 585.00
87.4898 544.00
87.555 504.00
87.6202 509.00
87.6854 536.00
87.7506 507.00
87.8158 505.00
87.881 474.00
87.9462 476.00
88.0114 521.00
88.0766 459.00
88.1418 453.00
88.207 442.00
88.2722 444.00
88.3374 421.00
88.4026 452.00
88.4678 412.00
88.533 442.00
88.5982 439.00
88.6634 409.00
88.7286 434.00
88.7938 422.00
88.859 414.00
88.9242 411.00
88.9894 400.00
89.0546 424.00
89.1198 449.00
89.185 433.00
89.2502 469.00
89.3154 391.00
89.3806 453.00
89.4458 442.00
89.511 446.00
89.5762 478.00
89.6414 501.00
89.7066 521.00
89.7718 549.00
89.837 581.00
89.9022 660.00
89.9674 694.00
90.0326 671.00
90.0978 609.00
90.163 650.00
90.2282 668.00
90.2934 647.00
90.3586 582.00
90.4238 529.00
90.489 501.00
90.5542 544.00
90.6193 505.00
90.6845 529.00
90.7497 501.00
90.8149 573.00
90.8801 597.00
90.9453 631.00
91.0105 657.00
91.0757 656.00
91.1409 660.00
91.2061 612.00
91.2713 637.00
91.3365 593.00
91.4017 619.00
91.4669 532.00
91.5321 499.00
91.5973 425.00
91.6625 442.00
91.7277 431.00
91.7929 450.00
91.8581 433.00
91.9233 431.00
91.9885 491.00
92.0537 429.00
92.1189 399.00
92.1841 390.00
92.2493 389.00
92.3145 388.00
92.3797 396.00
92.4449 381.00
92.5101 387.00
92.5753 427.00
92.6405 438.00
92.7057 407.00
92.7709 447.00
92.8361 449.00
92.9013 488.00
92.9665 503.00
93.0317 523.00
93.0969 490.00
93.1621 512.00
93.2273 516.00
93.2925 551.00
93.3577 571.00
93.4229 562.00
93.4881 568.00
93.5533 602.00
93.6185 580.00
93.6837 557.00
93.7489 571.00
93.8141 546.00
93.8793 543.00
93.9445 539.00
94.0097 568.00
94.0749 539.00
94.1401 494.00
94.2053 504.00
94.2705 432.00
94.3357 519.00
94.4009 463.00
94.4661 417.00
94.5313 398.00
94.5965 381.00
94.6617 436.00
94.7269 443.00
94.7921 403.00
94.8573 453.00
94.9225 429.00
94.9877 441.00
95.0529 454.00
95.1181 402.00
95.1833 427.00
95.2485 410.00
95.3137 401.00
95.3789 445.00
95.444 451.00
95.5092 429.00
95.5744 395.00
95.6396 413.00
95.7048 430.00
95.77 416.00
95.8352 412.00
95.9004 482.00
95.9656 453.00
96.0308 518.00
96.096 535.00
96.1612 608.00
96.2264 533.00
96.2916 525.00
96.3568 517.00
96.422 509.00
96.4872 534.00
96.5524 482.00
96.6176 454.00
96.6828 452.00
96.748 443.00
96.8132 509.00
96.8784 413.00
96.9436 387.00
97.0088 451.00
97.074 442.00
97.1392 435.00
97.2044 411.00
97.2696 434.00
97.3348 448.00
97.4 402.00
97.4652 423.00
97.5304 387.00
97.5956 399.00
97.6608 438.00
97.726 415.00
97.7912 410.00
97.8564 400.00
97.9216 484.00
97.9868 395.00
98.052 390.00
98.1172 435.00
98.1824 444.00
98.2476 453.00
98.3128 399.00
98.378 416.00
98.4432 401.00
98.5084 405.00
98.5736 411.00
98.6388 436.00
98.704 408.00
98.7692 423.00
98.8344 443.00
98.8996 434.00
98.9648 423.00
99.03 432.00
99.0952 407.00
99.1604 394.00
99.2256 433.00
99.2908 418.00
99.356 416.00
99.4212 427.00
99.4864 414.00
99.5516 412.00
99.6168 404.00
99.682 418.00
99.7472 392.00
99.8124 422.00
99.8776 378.00
99.9428 405.00
100.008 431.00
100.073 380.00
100.095 420.00