File: data/xrd_creation/results/NSC_57.xy
9.903433 2656.00
9.968632 2629.00
10.0338 2677.00
10.099 2733.00
10.1642 2603.00
10.2294 2637.00
10.2946 2643.00
10.3598 2589.00
10.425 2526.00
10.4902 2542.00
10.5554 2495.00
10.6206 2494.00
10.6858 2442.00
10.751 2349.00
10.8162 2485.00
10.8814 2354.00
10.9466 2440.00
11.0118 2429.00
11.077 2338.00
11.1422 2206.00
11.2074 2288.00
11.2726 2389.00
11.3378 2270.00
11.403 2307.00
11.4682 2280.00
11.5334 2346.00
11.5986 2207.00
11.6638 2210.00
11.729 2207.00
11.7942 2174.00
11.8594 2094.00
11.9246 2150.00
11.9898 2049.00
12.055 2133.00
12.1202 2116.00
12.1854 2079.00
12.2506 2086.00
12.3158 2089.00
12.381 2091.00
12.4462 2056.00
12.5114 2008.00
12.5766 2035.00
12.6418 2028.00
12.707 1962.00
12.7722 2022.00
12.8374 2070.00
12.9026 2027.00
12.9678 2102.00
13.033 2122.00
13.0982 2066.00
13.1634 2253.00
13.2286 2214.00
13.2938 2208.00
13.359 2132.00
13.4242 2124.00
13.4894 2012.00
13.5546 2079.00
13.6198 2013.00
13.685 2019.00
13.7502 1951.00
13.8154 1832.00
13.8805 1864.00
13.9457 1835.00
14.0109 1822.00
14.0761 1782.00
14.1413 1829.00
14.2065 1739.00
14.2717 1786.00
14.3369 1782.00
14.4021 1700.00
14.4673 1782.00
14.5325 1709.00
14.5977 1821.00
14.6629 1869.00
14.7281 1936.00
14.7933 2085.00
14.8585 2383.00
14.9237 2810.00
14.9889 3210.00
15.0541 3108.00
15.1193 2816.00
15.1845 2479.00
15.2497 2170.00
15.3149 1866.00
15.3801 1738.00
15.4453 1736.00
15.5105 1655.00
15.5757 1639.00
15.6409 1646.00
15.7061 1584.00
15.7713 1561.00
15.8365 1655.00
15.9017 1731.00
15.9669 1622.00
16.0321 1592.00
16.0973 1617.00
16.1625 1581.00
16.2277 1684.00
16.2929 1642.00
16.3581 1649.00
16.4233 1664.00
16.4885 1646.00
16.5537 1625.00
16.6189 1572.00
16.6841 1558.00
16.7493 1547.00
16.8145 1485.00
16.8797 1590.00
16.9449 1555.00
17.0101 1667.00
17.0753 1707.00
17.1405 1812.00
17.2057 1982.00
17.2709 2230.00
17.3361 2493.00
17.4013 2797.00
17.4665 2844.00
17.5317 2767.00
17.5969 2420.00
17.6621 2180.00
17.7273 1937.00
17.7925 1783.00
17.8577 1729.00
17.9229 1741.00
17.9881 1892.00
18.0533 2003.00
18.1185 2126.00
18.1837 2081.00
18.2489 2087.00
18.3141 2000.00
18.3793 1863.00
18.4445 1747.00
18.5097 1891.00
18.5749 2058.00
18.6401 2519.00
18.7052 2532.00
18.7704 2478.00
18.8356 2211.00
18.9008 2008.00
18.966 1715.00
19.0312 1636.00
19.0964 1477.00
19.1616 1381.00
19.2268 1477.00
19.292 1418.00
19.3572 1465.00
19.4224 1469.00
19.4876 1390.00
19.5528 1475.00
19.618 1432.00
19.6832 1381.00
19.7484 1424.00
19.8136 1419.00
19.8788 1406.00
19.944 1515.00
20.0092 1381.00
20.0744 1485.00
20.1396 1491.00
20.2048 1519.00
20.27 1572.00
20.3352 1698.00
20.4004 1877.00
20.4656 2223.00
20.5308 2822.00
20.596 3818.00
20.6612 4773.00
20.7264 5517.00
20.7916 5029.00
20.8568 4351.00
20.922 3464.00
20.9872 2410.00
21.0524 1854.00
21.1176 1573.00
21.1828 1732.00
21.248 1785.00
21.3132 2041.00
21.3784 2526.00
21.4436 3441.00
21.5088 4512.00
21.574 5632.00
21.6392 6564.00
21.7044 7122.00
21.7696 7867.00
21.8348 8004.00
21.9 7433.00
21.9652 6311.00
22.0304 4790.00
22.0956 3587.00
22.1608 2434.00
22.226 1927.00
22.2912 1710.00
22.3564 1675.00
22.4216 1617.00
22.4868 1648.00
22.552 1502.00
22.6172 1405.00
22.6824 1379.00
22.7476 1480.00
22.8128 1537.00
22.878 1572.00
22.9432 1594.00
23.0084 1703.00
23.0736 1642.00
23.1388 1712.00
23.204 1575.00
23.2692 1730.00
23.3344 1671.00
23.3996 1917.00
23.4647 1940.00
23.5299 1886.00
23.5951 1750.00
23.6603 1702.00
23.7255 1540.00
23.7907 1377.00
23.8559 1566.00
23.9211 1680.00
23.9863 1864.00
24.0515 2162.00
24.1167 2595.00
24.1819 2733.00
24.2471 2868.00
24.3123 2650.00
24.3775 2342.00
24.4427 2027.00
24.5079 1754.00
24.5731 1580.00
24.6383 1420.00
24.7035 1468.00
24.7687 1567.00
24.8339 1597.00
24.8991 2127.00
24.9643 2773.00
25.0295 4255.00
25.0947 5967.00
25.1599 7334.00
25.2251 7248.00
25.2903 6247.00
25.3555 4647.00
25.4207 3203.00
25.4859 2143.00
25.5511 1662.00
25.6163 1653.00
25.6815 1773.00
25.7467 2081.00
25.8119 2514.00
25.8771 2787.00
25.9423 3103.00
26.0075 3149.00
26.0727 3011.00
26.1379 2728.00
26.2031 2498.00
26.2683 2235.00
26.3335 2172.00
26.3987 2265.00
26.4639 2466.00
26.5291 2778.00
26.5943 2850.00
26.6595 2772.00
26.7247 2466.00
26.7899 2178.00
26.8551 1985.00
26.9203 1742.00
26.9855 1623.00
27.0507 1423.00
27.1159 1319.00
27.1811 1289.00
27.2463 1235.00
27.3115 1197.00
27.3767 1097.00
27.4419 1206.00
27.5071 1166.00
27.5723 1163.00
27.6375 1136.00
27.7027 1150.00
27.7679 1095.00
27.8331 1135.00
27.8983 1051.00
27.9635 1072.00
28.0287 1059.00
28.0939 1084.00
28.1591 1023.00
28.2243 1119.00
28.2894 1133.00
28.3546 1155.00
28.4198 1184.00
28.485 1235.00
28.5502 1368.00
28.6154 1423.00
28.6806 1396.00
28.7458 1414.00
28.811 1386.00
28.8762 1294.00
28.9414 1202.00
29.0066 1240.00
29.0718 1216.00
29.137 1330.00
29.2022 1476.00
29.2674 1547.00
29.3326 1568.00
29.3978 1615.00
29.463 1516.00
29.5282 1353.00
29.5934 1268.00
29.6586 1277.00
29.7238 1192.00
29.789 1237.00
29.8542 1263.00
29.9194 1425.00
29.9846 1493.00
30.0498 1753.00
30.115 1966.00
30.1802 2674.00
30.2454 3744.00
30.3106 4588.00
30.3758 5038.00
30.441 4352.00
30.5062 3811.00
30.5714 3044.00
30.6366 2879.00
30.7018 2799.00
30.767 2797.00
30.8322 2733.00
30.8974 2521.00
30.9626 2081.00
31.0278 1759.00
31.093 1529.00
31.1582 1312.00
31.2234 1293.00
31.2886 1313.00
31.3538 1240.00
31.419 1471.00
31.4842 1605.00
31.5494 1595.00
31.6146 1718.00
31.6798 1645.00
31.745 1496.00
31.8102 1236.00
31.8754 1157.00
31.9406 1125.00
32.0058 1057.00
32.071 1107.00
32.1362 1102.00
32.2014 1201.00
32.2666 1314.00
32.3318 1265.00
32.397 1335.00
32.4622 1292.00
32.5274 1250.00
32.5926 1248.00
32.6578 1230.00
32.723 1173.00
32.7882 1221.00
32.8534 1305.00
32.9186 1401.00
32.9838 1588.00
33.0489 2041.00
33.1141 3159.00
33.1793 4870.00
33.2445 6312.00
33.3097 6883.00
33.3749 6114.00
33.4401 4685.00
33.5053 3106.00
33.5705 1894.00
33.6357 1341.00
33.7009 1173.00
33.7661 1213.00
33.8313 1313.00
33.8965 1578.00
33.9617 1831.00
34.0269 1842.00
34.0921 1819.00
34.1573 1589.00
34.2225 1203.00
34.2877 1079.00
34.3529 1008.00
34.4181 1007.00
34.4833 1011.00
34.5485 1027.00
34.6137 1058.00
34.6789 1089.00
34.7441 1083.00
34.8093 1056.00
34.8745 1052.00
34.9397 1014.00
35.0049 999.00
35.0701 1036.00
35.1353 1035.00
35.2005 1133.00
35.2657 1264.00
35.3309 1279.00
35.3961 1339.00
35.4613 1224.00
35.5265 1195.00
35.5917 1216.00
35.6569 1211.00
35.7221 1265.00
35.7873 1183.00
35.8525 1270.00
35.9177 1243.00
35.9829 1349.00
36.0481 1557.00
36.1133 1846.00
36.1785 2023.00
36.2437 2233.00
36.3089 2368.00
36.3741 2354.00
36.4393 2183.00
36.5045 1861.00
36.5697 1606.00
36.6349 1426.00
36.7001 1202.00
36.7653 1224.00
36.8305 1131.00
36.8957 1170.00
36.9609 1001.00
37.0261 1010.00
37.0913 1015.00
37.1565 938.00
37.2217 1038.00
37.2869 956.00
37.3521 1029.00
37.4173 1031.00
37.4825 1066.00
37.5477 1182.00
37.6129 1412.00
37.6781 1603.00
37.7433 1815.00
37.8085 1773.00
37.8736 1661.00
37.9388 1585.00
38.004 1612.00
38.0692 1433.00
38.1344 1552.00
38.1996 1637.00
38.2648 1952.00
38.33 2299.00
38.3952 2752.00
38.4604 2835.00
38.5256 2592.00
38.5908 2042.00
38.656 1538.00
38.7212 1212.00
38.7864 1013.00
38.8516 988.00
38.9168 936.00
38.982 904.00
39.0472 911.00
39.1124 878.00
39.1776 920.00
39.2428 977.00
39.308 1096.00
39.3732 1170.00
39.4384 1233.00
39.5036 1193.00
39.5688 1243.00
39.634 1234.00
39.6992 1050.00
39.7644 1004.00
39.8296 940.00
39.8948 917.00
39.96 904.00
40.0252 964.00
40.0904 912.00
40.1556 978.00
40.2208 959.00
40.286 1009.00
40.3512 1195.00
40.4164 1232.00
40.4816 1301.00
40.5468 1195.00
40.612 1243.00
40.6772 1129.00
40.7424 1046.00
40.8076 956.00
40.8728 912.00
40.938 899.00
41.0032 876.00
41.0684 896.00
41.1336 840.00
41.1988 824.00
41.264 852.00
41.3292 883.00
41.3944 934.00
41.4596 936.00
41.5248 1002.00
41.59 1042.00
41.6552 1097.00
41.7204 1055.00
41.7856 1054.00
41.8508 990.00
41.916 993.00
41.9812 918.00
42.0464 935.00
42.1116 1001.00
42.1768 1201.00
42.242 1121.00
42.3072 1186.00
42.3724 1137.00
42.4376 1019.00
42.5028 999.00
42.568 898.00
42.6332 845.00
42.6983 847.00
42.7635 791.00
42.8287 762.00
42.8939 823.00
42.9591 742.00
43.0243 777.00
43.0895 783.00
43.1547 819.00
43.2199 776.00
43.2851 797.00
43.3503 742.00
43.4155 757.00
43.4807 757.00
43.5459 800.00
43.6111 780.00
43.6763 926.00
43.7415 1089.00
43.8067 1244.00
43.8719 1383.00
43.9371 1324.00
44.0023 1335.00
44.0675 1169.00
44.1327 1062.00
44.1979 988.00
44.2631 962.00
44.3283 949.00
44.3935 938.00
44.4587 983.00
44.5239 996.00
44.5891 1026.00
44.6543 1125.00
44.7195 1071.00
44.7847 1043.00
44.8499 1008.00
44.9151 923.00
44.9803 913.00
45.0455 961.00
45.1107 991.00
45.1759 894.00
45.2411 934.00
45.3063 825.00
45.3715 896.00
45.4367 908.00
45.5019 948.00
45.5671 1001.00
45.6323 935.00
45.6975 976.00
45.7627 1036.00
45.8279 994.00
45.8931 1017.00
45.9583 1026.00
46.0235 1066.00
46.0887 1210.00
46.1539 1376.00
46.2191 1504.00
46.2843 1486.00
46.3495 1515.00
46.4147 1291.00
46.4799 1155.00
46.5451 1054.00
46.6103 1034.00
46.6755 944.00
46.7407 823.00
46.8059 870.00
46.8711 901.00
46.9363 915.00
47.0015 942.00
47.0667 932.00
47.1319 936.00
47.1971 874.00
47.2623 867.00
47.3275 966.00
47.3927 972.00
47.4579 1007.00
47.523 960.00
47.5882 937.00
47.6534 918.00
47.7186 878.00
47.7838 869.00
47.849 1016.00
47.9142 1302.00
47.9794 1647.00
48.0446 2123.00
48.1098 2232.00
48.175 2230.00
48.2402 1895.00
48.3054 1746.00
48.3706 1495.00
48.4358 1452.00
48.501 1457.00
48.5662 1378.00
48.6314 1333.00
48.6966 1236.00
48.7618 1192.00
48.827 984.00
48.8922 999.00
48.9574 879.00
49.0226 920.00
49.0878 873.00
49.153 872.00
49.2182 964.00
49.2834 1038.00
49.3486 1136.00
49.4138 1386.00
49.479 1644.00
49.5442 1968.00
49.6094 2319.00
49.6746 2306.00
49.7398 2398.00
49.805 2183.00
49.8702 1926.00
49.9354 1626.00
50.0006 1246.00
50.0658 1103.00
50.131 940.00
50.1962 870.00
50.2614 842.00
50.3266 875.00
50.3918 831.00
50.457 823.00
50.5222 841.00
50.5874 864.00
50.6526 871.00
50.7178 945.00
50.783 1072.00
50.8482 1018.00
50.9134 954.00
50.9786 932.00
51.0438 891.00
51.109 854.00
51.1742 828.00
51.2394 842.00
51.3046 808.00
51.3698 857.00
51.435 1034.00
51.5002 1124.00
51.5654 1476.00
51.6306 1899.00
51.6958 2376.00
51.761 2622.00
51.8262 2405.00
51.8914 2096.00
51.9566 1561.00
52.0218 1177.00
52.087 917.00
52.1522 835.00
52.2174 780.00
52.2826 805.00
52.3477 773.00
52.4129 798.00
52.4781 815.00
52.5433 825.00
52.6085 784.00
52.6737 789.00
52.7389 872.00
52.8041 977.00
52.8693 884.00
52.9345 919.00
52.9997 899.00
53.0649 808.00
53.1301 763.00
53.1953 821.00
53.2605 746.00
53.3257 760.00
53.3909 832.00
53.4561 802.00
53.5213 754.00
53.5865 726.00
53.6517 684.00
53.7169 719.00
53.7821 703.00
53.8473 728.00
53.9125 730.00
53.9777 759.00
54.0429 819.00
54.1081 762.00
54.1733 856.00
54.2385 916.00
54.3037 895.00
54.3689 996.00
54.4341 1014.00
54.4993 1120.00
54.5645 1219.00
54.6297 1442.00
54.6949 1948.00
54.7601 2211.00
54.8253 2385.00
54.8905 2243.00
54.9557 2172.00
55.0209 1854.00
55.0861 1432.00
55.1513 1185.00
55.2165 962.00
55.2817 929.00
55.3469 807.00
55.4121 771.00
55.4773 781.00
55.5425 747.00
55.6077 815.00
55.6729 994.00
55.7381 933.00
55.8033 987.00
55.8685 1005.00
55.9337 1025.00
55.9989 954.00
56.0641 900.00
56.1293 747.00
56.1945 760.00
56.2597 718.00
56.3249 738.00
56.3901 688.00
56.4553 697.00
56.5205 656.00
56.5857 717.00
56.6509 742.00
56.7161 775.00
56.7813 776.00
56.8465 732.00
56.9117 791.00
56.9769 761.00
57.042 794.00
57.1073 772.00
57.1724 738.00
57.2376 757.00
57.3028 760.00
57.368 793.00
57.4332 709.00
57.4984 723.00
57.5636 640.00
57.6288 681.00
57.694 680.00
57.7592 688.00
57.8244 708.00
57.8896 749.00
57.9548 813.00
58.02 875.00
58.0852 909.00
58.1504 1059.00
58.2156 1200.00
58.2808 1524.00
58.346 1717.00
58.4112 1914.00
58.4764 1984.00
58.5416 1990.00
58.6068 1771.00
58.672 1529.00
58.7372 1410.00
58.8024 1175.00
58.8676 1063.00
58.9328 1005.00
58.998 881.00
59.0632 800.00
59.1284 785.00
59.1936 762.00
59.2588 777.00
59.324 770.00
59.3892 811.00
59.4544 758.00
59.5196 780.00
59.5848 835.00
59.65 951.00
59.7152 1087.00
59.7804 1304.00
59.8456 1380.00
59.9108 1511.00
59.976 1407.00
60.0412 1260.00
60.1064 1235.00
60.1716 1290.00
60.2368 1485.00
60.302 1729.00
60.3672 1849.00
60.4324 1782.00
60.4976 1739.00
60.5628 1440.00
60.628 1209.00
60.6932 1022.00
60.7584 821.00
60.8236 835.00
60.8888 780.00
60.954 727.00
61.0192 758.00
61.0844 756.00
61.1496 782.00
61.2148 775.00
61.28 817.00
61.3452 838.00
61.4104 921.00
61.4756 1022.00
61.5408 1077.00
61.606 1074.00
61.6712 1081.00
61.7364 1088.00
61.8016 1009.00
61.8667 1046.00
61.932 1004.00
61.9971 973.00
62.0623 962.00
62.1275 877.00
62.1927 861.00
62.2579 772.00
62.3231 754.00
62.3883 761.00
62.4535 775.00
62.5187 736.00
62.5839 683.00
62.6491 735.00
62.7143 700.00
62.7795 729.00
62.8447 662.00
62.9099 748.00
62.9751 813.00
63.0403 845.00
63.1055 988.00
63.1707 985.00
63.2359 1038.00
63.3011 1024.00
63.3663 935.00
63.4315 842.00
63.4967 783.00
63.5619 722.00
63.6271 694.00
63.6923 732.00
63.7575 736.00
63.8227 824.00
63.8879 838.00
63.9531 865.00
64.0183 956.00
64.0835 1042.00
64.1487 1022.00
64.2139 1149.00
64.2791 1355.00
64.3443 1587.00
64.4095 1662.00
64.4747 1659.00
64.5399 1497.00
64.6051 1387.00
64.6703 1170.00
64.7355 1027.00
64.8007 861.00
64.8659 816.00
64.9311 780.00
64.9963 710.00
65.0615 776.00
65.1267 768.00
65.1919 871.00
65.2571 932.00
65.3223 1041.00
65.3875 1010.00
65.4527 1085.00
65.5179 1023.00
65.5831 978.00
65.6483 983.00
65.7135 1024.00
65.7787 1015.00
65.8439 1123.00
65.9091 1127.00
65.9743 1199.00
66.0395 1422.00
66.1047 1698.00
66.1699 1977.00
66.2351 2151.00
66.3003 2153.00
66.3655 2096.00
66.4307 1751.00
66.4959 1447.00
66.561 1218.00
66.6263 989.00
66.6915 916.00
66.7566 840.00
66.8218 722.00
66.887 749.00
66.9522 747.00
67.0174 812.00
67.0826 817.00
67.1478 807.00
67.213 792.00
67.2782 812.00
67.3434 837.00
67.4086 796.00
67.4738 836.00
67.539 898.00
67.6042 832.00
67.6694 914.00
67.7346 894.00
67.7998 901.00
67.865 824.00
67.9302 920.00
67.9954 785.00
68.0606 829.00
68.1258 786.00
68.191 762.00
68.2562 802.00
68.3214 772.00
68.3866 850.00
68.4518 858.00
68.517 800.00
68.5822 825.00
68.6474 840.00
68.7126 953.00
68.7778 940.00
68.843 1000.00
68.9082 1176.00
68.9734 1203.00
69.0386 1267.00
69.1038 1227.00
69.169 1247.00
69.2342 1078.00
69.2994 1083.00
69.3646 1188.00
69.4298 1209.00
69.495 1231.00
69.5602 1190.00
69.6254 1101.00
69.6906 1007.00
69.7558 954.00
69.821 837.00
69.8862 743.00
69.9514 748.00
70.0166 752.00
70.0818 700.00
70.147 700.00
70.2122 694.00
70.2774 752.00
70.3426 825.00
70.4078 791.00
70.473 848.00
70.5382 966.00
70.6034 1123.00
70.6686 1244.00
70.7338 1186.00
70.799 1141.00
70.8642 1186.00
70.9294 1034.00
70.9946 929.00
71.0598 844.00
71.125 816.00
71.1902 788.00
71.2554 724.00
71.3205 666.00
71.3858 673.00
71.451 690.00
71.5162 661.00
71.5813 660.00
71.6465 651.00
71.7117 635.00
71.7769 626.00
71.8421 591.00
71.9073 662.00
71.9725 568.00
72.0377 601.00
72.1029 687.00
72.1681 579.00
72.2333 597.00
72.2985 607.00
72.3637 625.00
72.4289 648.00
72.4941 616.00
72.5593 626.00
72.6245 631.00
72.6897 663.00
72.7549 640.00
72.8201 680.00
72.8853 705.00
72.9505 670.00
73.0157 746.00
73.0809 809.00
73.1461 767.00
73.2113 854.00
73.2765 941.00
73.3417 962.00
73.4069 1017.00
73.4721 1023.00
73.5373 1027.00
73.6025 876.00
73.6677 832.00
73.7329 764.00
73.7981 791.00
73.8633 720.00
73.9285 724.00
73.9937 661.00
74.0589 616.00
74.1241 631.00
74.1893 661.00
74.2545 639.00
74.3197 655.00
74.3849 646.00
74.4501 656.00
74.5153 597.00
74.5805 647.00
74.6457 664.00
74.7109 699.00
74.7761 681.00
74.8413 706.00
74.9065 773.00
74.9717 721.00
75.0369 784.00
75.1021 788.00
75.1673 767.00
75.2325 747.00
75.2977 797.00
75.3629 815.00
75.4281 759.00
75.4933 812.00
75.5585 744.00
75.6237 769.00
75.6889 712.00
75.7541 695.00
75.8193 623.00
75.8845 673.00
75.9497 668.00
76.0149 694.00
76.0801 678.00
76.1452 646.00
76.2104 596.00
76.2756 683.00
76.3409 644.00
76.406 658.00
76.4712 640.00
76.5364 633.00
76.6016 643.00
76.6668 631.00
76.732 639.00
76.7972 594.00
76.8624 622.00
76.9276 629.00
76.9928 582.00
77.058 630.00
77.1232 638.00
77.1884 691.00
77.2536 641.00
77.3188 714.00
77.384 736.00
77.4492 781.00
77.5144 747.00
77.5796 857.00
77.6448 1008.00
77.71 1042.00
77.7752 1033.00
77.8404 977.00
77.9056 957.00
77.9708 852.00
78.036 841.00
78.1012 707.00
78.1664 600.00
78.2316 669.00
78.2968 600.00
78.362 670.00
78.4272 656.00
78.4924 590.00
78.5576 626.00
78.6228 644.00
78.688 574.00
78.7532 589.00
78.8184 617.00
78.8836 637.00
78.9488 618.00
79.014 635.00
79.0792 714.00
79.1444 821.00
79.2096 879.00
79.2748 852.00
79.34 919.00
79.4052 791.00
79.4704 754.00
79.5356 740.00
79.6008 787.00
79.666 688.00
79.7312 718.00
79.7964 711.00
79.8616 746.00
79.9268 806.00
79.992 774.00
80.0572 759.00
80.1224 722.00
80.1876 730.00
80.2528 683.00
80.318 684.00
80.3832 661.00
80.4484 593.00
80.5136 569.00
80.5788 567.00
80.644 586.00
80.7092 585.00
80.7744 580.00
80.8396 568.00
80.9048 561.00
80.9699 542.00
81.0351 576.00
81.1003 561.00
81.1655 546.00
81.2307 581.00
81.2959 550.00
81.3611 512.00
81.4263 579.00
81.4915 539.00
81.5567 564.00
81.6219 571.00
81.6871 581.00
81.7523 568.00
81.8175 577.00
81.8827 581.00
81.9479 600.00
82.0131 633.00
82.0783 635.00
82.1435 709.00
82.2087 776.00
82.2739 800.00
82.3391 826.00
82.4043 821.00
82.4695 878.00
82.5347 866.00
82.5999 828.00
82.6651 841.00
82.7303 754.00
82.7955 723.00
82.8607 652.00
82.9259 618.00
82.9911 620.00
83.0563 610.00
83.1215 576.00
83.1867 592.00
83.2519 570.00
83.3171 592.00
83.3823 584.00
83.4475 657.00
83.5127 680.00
83.5779 688.00
83.6431 612.00
83.7083 635.00
83.7735 664.00
83.8387 596.00
83.9039 683.00
83.9691 611.00
84.0343 630.00
84.0995 612.00
84.1647 665.00
84.2299 738.00
84.2951 710.00
84.3603 687.00
84.4255 756.00
84.4907 732.00
84.5559 784.00
84.6211 710.00
84.6863 713.00
84.7515 683.00
84.8167 641.00
84.8819 666.00
84.9471 722.00
85.0123 654.00
85.0775 662.00
85.1427 594.00
85.2079 631.00
85.2731 583.00
85.3383 639.00
85.4035 590.00
85.4687 599.00
85.5339 632.00
85.5991 614.00
85.6643 641.00
85.7295 568.00
85.7946 640.00
85.8598 651.00
85.925 627.00
85.9903 711.00
86.0554 657.00
86.1206 684.00
86.1858 683.00
86.251 651.00
86.3162 659.00
86.3814 729.00
86.4466 722.00
86.5118 770.00
86.577 746.00
86.6422 723.00
86.7074 737.00
86.7726 653.00
86.8378 655.00
86.903 586.00
86.9682 632.00
87.0334 629.00
87.0986 590.00
87.1638 575.00
87.229 632.00
87.2942 672.00
87.3594 644.00
87.4246 706.00
87.4898 773.00
87.555 926.00
87.6202 850.00
87.6854 852.00
87.7506 802.00
87.8158 780.00
87.881 723.00
87.9462 713.00
88.0114 705.00
88.0766 684.00
88.1418 595.00
88.207 569.00
88.2722 561.00
88.3374 619.00
88.4026 533.00
88.4678 560.00
88.533 566.00
88.5982 540.00
88.6634 579.00
88.7286 578.00
88.7938 567.00
88.859 570.00
88.9242 583.00
88.9894 640.00
89.0546 606.00
89.1198 643.00
89.185 590.00
89.2502 627.00
89.3154 621.00
89.3806 598.00
89.4458 620.00
89.511 630.00
89.5762 637.00
89.6414 626.00
89.7066 596.00
89.7718 644.00
89.837 609.00
89.9022 603.00
89.9674 623.00
90.0326 643.00
90.0978 616.00
90.163 589.00
90.2282 599.00
90.2934 603.00
90.3586 635.00
90.4238 562.00
90.489 569.00
90.5542 558.00
90.6193 566.00
90.6845 566.00
90.7497 567.00
90.8149 560.00
90.8801 550.00
90.9453 513.00
91.0105 562.00
91.0757 584.00
91.1409 533.00
91.2061 616.00
91.2713 573.00
91.3365 565.00
91.4017 617.00
91.4669 625.00
91.5321 584.00
91.5973 636.00
91.6625 731.00
91.7277 780.00
91.7929 834.00
91.8581 807.00
91.9233 812.00
91.9885 729.00
92.0537 795.00
92.1189 749.00
92.1841 795.00
92.2493 828.00
92.3145 813.00
92.3797 801.00
92.4449 853.00
92.5101 926.00
92.5753 922.00
92.6405 947.00
92.7057 909.00
92.7709 867.00
92.8361 832.00
92.9013 869.00
92.9665 909.00
93.0317 1019.00
93.0969 897.00
93.1621 893.00
93.2273 859.00
93.2925 807.00
93.3577 749.00
93.4229 735.00
93.4881 703.00
93.5533 656.00
93.6185 618.00
93.6837 596.00
93.7489 589.00
93.8141 549.00
93.8793 601.00
93.9445 547.00
94.0097 546.00
94.0749 600.00
94.1401 578.00
94.2053 584.00
94.2705 593.00
94.3357 594.00
94.4009 670.00
94.4661 647.00
94.5313 626.00
94.5965 622.00
94.6617 625.00
94.7269 616.00
94.7921 593.00
94.8573 590.00
94.9225 602.00
94.9877 580.00
95.0529 544.00
95.1181 554.00
95.1833 519.00
95.2485 557.00
95.3137 493.00
95.3789 522.00
95.444 511.00
95.5092 556.00
95.5744 562.00
95.6396 604.00
95.7048 601.00
95.77 598.00
95.8352 610.00
95.9004 623.00
95.9656 664.00
96.0308 629.00
96.096 592.00
96.1612 623.00
96.2264 660.00
96.2916 649.00
96.3568 627.00
96.422 600.00
96.4872 581.00
96.5524 619.00
96.6176 598.00
96.6828 588.00
96.748 557.00
96.8132 578.00
96.8784 584.00
96.9436 551.00
97.0088 589.00
97.074 512.00
97.1392 567.00
97.2044 552.00
97.2696 526.00
97.3348 556.00
97.4 530.00
97.4652 557.00
97.5304 546.00
97.5956 548.00
97.6608 542.00
97.726 540.00
97.7912 511.00
97.8564 523.00
97.9216 566.00
97.9868 525.00
98.052 577.00
98.1172 589.00
98.1824 624.00
98.2476 676.00
98.3128 691.00
98.378 713.00
98.4432 710.00
98.5084 796.00
98.5736 713.00
98.6388 665.00
98.704 679.00
98.7692 670.00
98.8344 666.00
98.8996 634.00
98.9648 666.00
99.03 611.00
99.0952 662.00
99.1604 652.00
99.2256 615.00
99.2908 630.00
99.356 601.00
99.4212 586.00
99.4864 612.00
99.5516 591.00
99.6168 603.00
99.682 588.00
99.7472 588.00
99.8124 618.00
99.8776 611.00
99.9428 661.00
100.008 617.00
100.073 713.00
100.095 679.00