File: data/xrd_creation/results/NSC_198.xy
9.903433 2433.00
9.968632 2430.00
10.0338 2408.00
10.099 2524.00
10.1642 2404.00
10.2294 2338.00
10.2946 2438.00
10.3598 2341.00
10.425 2292.00
10.4902 2373.00
10.5554 2272.00
10.6206 2340.00
10.6858 2235.00
10.751 2282.00
10.8162 2144.00
10.8814 2186.00
10.9466 2111.00
11.0118 2094.00
11.077 2095.00
11.1422 2012.00
11.2074 2116.00
11.2726 2028.00
11.3378 2033.00
11.403 2029.00
11.4682 1948.00
11.5334 1960.00
11.5986 1876.00
11.6638 1875.00
11.729 1826.00
11.7942 1901.00
11.8594 1794.00
11.9246 1844.00
11.9898 1836.00
12.055 1775.00
12.1202 1796.00
12.1854 1753.00
12.2506 1751.00
12.3158 1672.00
12.381 1749.00
12.4462 1640.00
12.5114 1716.00
12.5766 1639.00
12.6418 1596.00
12.707 1632.00
12.7722 1608.00
12.8374 1737.00
12.9026 1605.00
12.9678 1633.00
13.033 1592.00
13.0982 1589.00
13.1634 1604.00
13.2286 1581.00
13.2938 1514.00
13.359 1528.00
13.4242 1457.00
13.4894 1501.00
13.5546 1454.00
13.6198 1436.00
13.685 1436.00
13.7502 1401.00
13.8154 1406.00
13.8805 1393.00
13.9457 1416.00
14.0109 1414.00
14.0761 1397.00
14.1413 1425.00
14.2065 1341.00
14.2717 1406.00
14.3369 1329.00
14.4021 1308.00
14.4673 1366.00
14.5325 1338.00
14.5977 1341.00
14.6629 1253.00
14.7281 1222.00
14.7933 1326.00
14.8585 1224.00
14.9237 1281.00
14.9889 1293.00
15.0541 1300.00
15.1193 1266.00
15.1845 1284.00
15.2497 1230.00
15.3149 1243.00
15.3801 1212.00
15.4453 1151.00
15.5105 1279.00
15.5757 1204.00
15.6409 1241.00
15.7061 1238.00
15.7713 1197.00
15.8365 1228.00
15.9017 1204.00
15.9669 1246.00
16.0321 1192.00
16.0973 1137.00
16.1625 1201.00
16.2277 1201.00
16.2929 1135.00
16.3581 1135.00
16.4233 1159.00
16.4885 1148.00
16.5537 1166.00
16.6189 1185.00
16.6841 1143.00
16.7493 1116.00
16.8145 1134.00
16.8797 1161.00
16.9449 1034.00
17.0101 1137.00
17.0753 1052.00
17.1405 1107.00
17.2057 1088.00
17.2709 1070.00
17.3361 1106.00
17.4013 1084.00
17.4665 1073.00
17.5317 1013.00
17.5969 1072.00
17.6621 982.00
17.7273 1050.00
17.7925 1027.00
17.8577 1078.00
17.9229 1033.00
17.9881 1034.00
18.0533 1092.00
18.1185 1016.00
18.1837 998.00
18.2489 995.00
18.3141 1025.00
18.3793 983.00
18.4445 1036.00
18.5097 992.00
18.5749 1002.00
18.6401 979.00
18.7052 953.00
18.7704 971.00
18.8356 970.00
18.9008 930.00
18.966 949.00
19.0312 960.00
19.0964 896.00
19.1616 929.00
19.2268 899.00
19.292 921.00
19.3572 916.00
19.4224 951.00
19.4876 927.00
19.5528 902.00
19.618 920.00
19.6832 854.00
19.7484 821.00
19.8136 903.00
19.8788 857.00
19.944 889.00
20.0092 893.00
20.0744 852.00
20.1396 883.00
20.2048 864.00
20.27 962.00
20.3352 861.00
20.4004 889.00
20.4656 886.00
20.5308 843.00
20.596 847.00
20.6612 825.00
20.7264 806.00
20.7916 818.00
20.8568 782.00
20.922 894.00
20.9872 804.00
21.0524 819.00
21.1176 821.00
21.1828 895.00
21.248 772.00
21.3132 806.00
21.3784 820.00
21.4436 808.00
21.5088 804.00
21.574 823.00
21.6392 777.00
21.7044 821.00
21.7696 779.00
21.8348 771.00
21.9 798.00
21.9652 781.00
22.0304 741.00
22.0956 760.00
22.1608 762.00
22.226 776.00
22.2912 773.00
22.3564 755.00
22.4216 802.00
22.4868 780.00
22.552 822.00
22.6172 724.00
22.6824 746.00
22.7476 664.00
22.8128 747.00
22.878 739.00
22.9432 734.00
23.0084 669.00
23.0736 715.00
23.1388 705.00
23.204 762.00
23.2692 727.00
23.3344 767.00
23.3996 754.00
23.4647 704.00
23.5299 654.00
23.5951 699.00
23.6603 673.00
23.7255 677.00
23.7907 658.00
23.8559 748.00
23.9211 653.00
23.9863 653.00
24.0515 643.00
24.1167 654.00
24.1819 688.00
24.2471 656.00
24.3123 627.00
24.3775 645.00
24.4427 642.00
24.5079 716.00
24.5731 637.00
24.6383 656.00
24.7035 634.00
24.7687 661.00
24.8339 626.00
24.8991 661.00
24.9643 643.00
25.0295 648.00
25.0947 633.00
25.1599 626.00
25.2251 636.00
25.2903 637.00
25.3555 663.00
25.4207 636.00
25.4859 645.00
25.5511 608.00
25.6163 589.00
25.6815 584.00
25.7467 673.00
25.8119 599.00
25.8771 602.00
25.9423 647.00
26.0075 631.00
26.0727 626.00
26.1379 633.00
26.2031 624.00
26.2683 563.00
26.3335 614.00
26.3987 601.00
26.4639 588.00
26.5291 627.00
26.5943 631.00
26.6595 638.00
26.7247 565.00
26.7899 638.00
26.8551 576.00
26.9203 617.00
26.9855 609.00
27.0507 563.00
27.1159 555.00
27.1811 614.00
27.2463 613.00
27.3115 563.00
27.3767 545.00
27.4419 582.00
27.5071 592.00
27.5723 589.00
27.6375 543.00
27.7027 589.00
27.7679 565.00
27.8331 587.00
27.8983 521.00
27.9635 602.00
28.0287 573.00
28.0939 538.00
28.1591 526.00
28.2243 539.00
28.2894 519.00
28.3546 562.00
28.4198 547.00
28.485 512.00
28.5502 542.00
28.6154 550.00
28.6806 581.00
28.7458 495.00
28.811 520.00
28.8762 521.00
28.9414 549.00
29.0066 533.00
29.0718 558.00
29.137 540.00
29.2022 518.00
29.2674 548.00
29.3326 558.00
29.3978 551.00
29.463 536.00
29.5282 506.00
29.5934 498.00
29.6586 489.00
29.7238 531.00
29.789 530.00
29.8542 518.00
29.9194 492.00
29.9846 496.00
30.0498 468.00
30.115 513.00
30.1802 495.00
30.2454 480.00
30.3106 507.00
30.3758 497.00
30.441 494.00
30.5062 505.00
30.5714 492.00
30.6366 494.00
30.7018 466.00
30.767 483.00
30.8322 462.00
30.8974 414.00
30.9626 478.00
31.0278 489.00
31.093 472.00
31.1582 485.00
31.2234 485.00
31.2886 517.00
31.3538 463.00
31.419 467.00
31.4842 454.00
31.5494 461.00
31.6146 453.00
31.6798 430.00
31.745 436.00
31.8102 434.00
31.8754 447.00
31.9406 482.00
32.0058 437.00
32.071 444.00
32.1362 430.00
32.2014 473.00
32.2666 475.00
32.3318 453.00
32.397 458.00
32.4622 466.00
32.5274 452.00
32.5926 457.00
32.6578 406.00
32.723 458.00
32.7882 446.00
32.8534 409.00
32.9186 471.00
32.9838 426.00
33.0489 429.00
33.1141 427.00
33.1793 433.00
33.2445 411.00
33.3097 427.00
33.3749 422.00
33.4401 425.00
33.5053 424.00
33.5705 424.00
33.6357 399.00
33.7009 434.00
33.7661 439.00
33.8313 430.00
33.8965 384.00
33.9617 363.00
34.0269 411.00
34.0921 380.00
34.1573 409.00
34.2225 421.00
34.2877 395.00
34.3529 375.00
34.4181 437.00
34.4833 389.00
34.5485 407.00
34.6137 416.00
34.6789 431.00
34.7441 422.00
34.8093 411.00
34.8745 384.00
34.9397 390.00
35.0049 416.00
35.0701 385.00
35.1353 394.00
35.2005 373.00
35.2657 364.00
35.3309 384.00
35.3961 400.00
35.4613 404.00
35.5265 353.00
35.5917 400.00
35.6569 360.00
35.7221 413.00
35.7873 365.00
35.8525 403.00
35.9177 375.00
35.9829 354.00
36.0481 387.00
36.1133 352.00
36.1785 368.00
36.2437 383.00
36.3089 372.00
36.3741 378.00
36.4393 356.00
36.5045 378.00
36.5697 335.00
36.6349 341.00
36.7001 393.00
36.7653 364.00
36.8305 330.00
36.8957 359.00
36.9609 368.00
37.0261 374.00
37.0913 395.00
37.1565 366.00
37.2217 368.00
37.2869 370.00
37.3521 362.00
37.4173 355.00
37.4825 354.00
37.5477 308.00
37.6129 374.00
37.6781 333.00
37.7433 355.00
37.8085 351.00
37.8736 387.00
37.9388 311.00
38.004 368.00
38.0692 358.00
38.1344 346.00
38.1996 332.00
38.2648 320.00
38.33 348.00
38.3952 310.00
38.4604 362.00
38.5256 344.00
38.5908 333.00
38.656 289.00
38.7212 347.00
38.7864 334.00
38.8516 322.00
38.9168 316.00
38.982 281.00
39.0472 338.00
39.1124 321.00
39.1776 326.00
39.2428 312.00
39.308 319.00
39.3732 310.00
39.4384 324.00
39.5036 310.00
39.5688 303.00
39.634 281.00
39.6992 314.00
39.7644 303.00
39.8296 317.00
39.8948 309.00
39.96 299.00
40.0252 307.00
40.0904 320.00
40.1556 348.00
40.2208 317.00
40.286 339.00
40.3512 305.00
40.4164 298.00
40.4816 310.00
40.5468 338.00
40.612 322.00
40.6772 348.00
40.7424 304.00
40.8076 309.00
40.8728 320.00
40.938 292.00
41.0032 333.00
41.0684 287.00
41.1336 296.00
41.1988 264.00
41.264 319.00
41.3292 276.00
41.3944 321.00
41.4596 311.00
41.5248 303.00
41.59 308.00
41.6552 256.00
41.7204 287.00
41.7856 290.00
41.8508 315.00
41.916 334.00
41.9812 289.00
42.0464 300.00
42.1116 316.00
42.1768 261.00
42.242 292.00
42.3072 293.00
42.3724 283.00
42.4376 278.00
42.5028 270.00
42.568 271.00
42.6332 285.00
42.6983 324.00
42.7635 309.00
42.8287 287.00
42.8939 284.00
42.9591 298.00
43.0243 280.00
43.0895 285.00
43.1547 270.00
43.2199 270.00
43.2851 285.00
43.3503 275.00
43.4155 284.00
43.4807 245.00
43.5459 259.00
43.6111 276.00
43.6763 233.00
43.7415 306.00
43.8067 250.00
43.8719 247.00
43.9371 260.00
44.0023 301.00
44.0675 269.00
44.1327 259.00
44.1979 294.00
44.2631 258.00
44.3283 241.00
44.3935 270.00
44.4587 250.00
44.5239 261.00
44.5891 278.00
44.6543 266.00
44.7195 273.00
44.7847 274.00
44.8499 227.00
44.9151 264.00
44.9803 268.00
45.0455 248.00
45.1107 276.00
45.1759 281.00
45.2411 246.00
45.3063 267.00
45.3715 273.00
45.4367 258.00
45.5019 246.00
45.5671 243.00
45.6323 258.00
45.6975 265.00
45.7627 261.00
45.8279 261.00
45.8931 240.00
45.9583 240.00
46.0235 242.00
46.0887 261.00
46.1539 257.00
46.2191 269.00
46.2843 258.00
46.3495 251.00
46.4147 218.00
46.4799 271.00
46.5451 261.00
46.6103 295.00
46.6755 274.00
46.7407 232.00
46.8059 236.00
46.8711 224.00
46.9363 259.00
47.0015 246.00
47.0667 202.00
47.1319 228.00
47.1971 237.00
47.2623 238.00
47.3275 243.00
47.3927 234.00
47.4579 276.00
47.523 262.00
47.5882 247.00
47.6534 233.00
47.7186 249.00
47.7838 235.00
47.849 228.00
47.9142 233.00
47.9794 259.00
48.0446 248.00
48.1098 247.00
48.175 247.00
48.2402 242.00
48.3054 268.00
48.3706 265.00
48.4358 246.00
48.501 231.00
48.5662 247.00
48.6314 234.00
48.6966 240.00
48.7618 241.00
48.827 238.00
48.8922 244.00
48.9574 238.00
49.0226 289.00
49.0878 236.00
49.153 222.00
49.2182 270.00
49.2834 245.00
49.3486 269.00
49.4138 224.00
49.479 216.00
49.5442 232.00
49.6094 270.00
49.6746 269.00
49.7398 217.00
49.805 243.00
49.8702 263.00
49.9354 257.00
50.0006 239.00
50.0658 230.00
50.131 258.00
50.1962 230.00
50.2614 228.00
50.3266 223.00
50.3918 228.00
50.457 260.00
50.5222 251.00
50.5874 236.00
50.6526 241.00
50.7178 200.00
50.783 218.00
50.8482 218.00
50.9134 247.00
50.9786 244.00
51.0438 237.00
51.109 215.00
51.1742 214.00
51.2394 248.00
51.3046 225.00
51.3698 213.00
51.435 205.00
51.5002 203.00
51.5654 237.00
51.6306 214.00
51.6958 206.00
51.761 262.00
51.8262 222.00
51.8914 221.00
51.9566 236.00
52.0218 249.00
52.087 190.00
52.1522 208.00
52.2174 232.00
52.2826 223.00
52.3477 236.00
52.4129 233.00
52.4781 230.00
52.5433 210.00
52.6085 211.00
52.6737 210.00
52.7389 220.00
52.8041 230.00
52.8693 214.00
52.9345 242.00
52.9997 223.00
53.0649 233.00
53.1301 199.00
53.1953 216.00
53.2605 227.00
53.3257 212.00
53.3909 225.00
53.4561 212.00
53.5213 204.00
53.5865 185.00
53.6517 201.00
53.7169 213.00
53.7821 199.00
53.8473 231.00
53.9125 220.00
53.9777 216.00
54.0429 226.00
54.1081 214.00
54.1733 201.00
54.2385 199.00
54.3037 203.00
54.3689 208.00
54.4341 216.00
54.4993 193.00
54.5645 214.00
54.6297 229.00
54.6949 228.00
54.7601 213.00
54.8253 193.00
54.8905 210.00
54.9557 216.00
55.0209 195.00
55.0861 205.00
55.1513 192.00
55.2165 178.00
55.2817 202.00
55.3469 213.00
55.4121 219.00
55.4773 215.00
55.5425 196.00
55.6077 200.00
55.6729 187.00
55.7381 206.00
55.8033 206.00
55.8685 208.00
55.9337 207.00
55.9989 199.00
56.0641 177.00
56.1293 190.00
56.1945 203.00
56.2597 215.00
56.3249 190.00
56.3901 187.00
56.4553 205.00
56.5205 201.00
56.5857 216.00
56.6509 195.00
56.7161 179.00
56.7813 210.00
56.8465 191.00
56.9117 198.00
56.9769 183.00
57.042 201.00
57.1073 169.00
57.1724 185.00
57.2376 191.00
57.3028 192.00
57.368 203.00
57.4332 201.00
57.4984 223.00
57.5636 181.00
57.6288 201.00
57.694 193.00
57.7592 192.00
57.8244 189.00
57.8896 234.00
57.9548 192.00
58.02 189.00
58.0852 166.00
58.1504 197.00
58.2156 179.00
58.2808 171.00
58.346 158.00
58.4112 177.00
58.4764 184.00
58.5416 194.00
58.6068 186.00
58.672 180.00
58.7372 180.00
58.8024 211.00
58.8676 188.00
58.9328 179.00
58.998 165.00
59.0632 175.00
59.1284 214.00
59.1936 191.00
59.2588 201.00
59.324 171.00
59.3892 185.00
59.4544 172.00
59.5196 172.00
59.5848 192.00
59.65 184.00
59.7152 171.00
59.7804 187.00
59.8456 173.00
59.9108 173.00
59.976 168.00
60.0412 190.00
60.1064 169.00
60.1716 180.00
60.2368 199.00
60.302 195.00
60.3672 186.00
60.4324 182.00
60.4976 175.00
60.5628 197.00
60.628 193.00
60.6932 178.00
60.7584 180.00
60.8236 161.00
60.8888 166.00
60.954 170.00
61.0192 152.00
61.0844 189.00
61.1496 184.00
61.2148 188.00
61.28 175.00
61.3452 186.00
61.4104 193.00
61.4756 183.00
61.5408 166.00
61.606 185.00
61.6712 162.00
61.7364 179.00
61.8016 173.00
61.8667 173.00
61.932 201.00
61.9971 172.00
62.0623 190.00
62.1275 197.00
62.1927 185.00
62.2579 166.00
62.3231 212.00
62.3883 175.00
62.4535 162.00
62.5187 152.00
62.5839 191.00
62.6491 179.00
62.7143 184.00
62.7795 187.00
62.8447 175.00
62.9099 188.00
62.9751 167.00
63.0403 184.00
63.1055 183.00
63.1707 188.00
63.2359 205.00
63.3011 148.00
63.3663 132.00
63.4315 188.00
63.4967 166.00
63.5619 194.00
63.6271 175.00
63.6923 185.00
63.7575 193.00
63.8227 174.00
63.8879 172.00
63.9531 196.00
64.0183 186.00
64.0835 174.00
64.1487 173.00
64.2139 198.00
64.2791 183.00
64.3443 171.00
64.4095 163.00
64.4747 179.00
64.5399 157.00
64.6051 197.00
64.6703 168.00
64.7355 154.00
64.8007 166.00
64.8659 182.00
64.9311 188.00
64.9963 153.00
65.0615 195.00
65.1267 163.00
65.1919 151.00
65.2571 157.00
65.3223 167.00
65.3875 188.00
65.4527 193.00
65.5179 165.00
65.5831 191.00
65.6483 195.00
65.7135 177.00
65.7787 200.00
65.8439 157.00
65.9091 167.00
65.9743 138.00
66.0395 170.00
66.1047 157.00
66.1699 178.00
66.2351 173.00
66.3003 167.00
66.3655 165.00
66.4307 174.00
66.4959 149.00
66.561 196.00
66.6263 158.00
66.6915 139.00
66.7566 169.00
66.8218 187.00
66.887 174.00
66.9522 174.00
67.0174 186.00
67.0826 178.00
67.1478 165.00
67.213 177.00
67.2782 172.00
67.3434 171.00
67.4086 163.00
67.4738 191.00
67.539 167.00
67.6042 198.00
67.6694 183.00
67.7346 159.00
67.7998 168.00
67.865 193.00
67.9302 166.00
67.9954 177.00
68.0606 174.00
68.1258 156.00
68.191 175.00
68.2562 170.00
68.3214 172.00
68.3866 189.00
68.4518 204.00
68.517 189.00
68.5822 180.00
68.6474 173.00
68.7126 141.00
68.7778 185.00
68.843 155.00
68.9082 180.00
68.9734 145.00
69.0386 161.00
69.1038 174.00
69.169 156.00
69.2342 175.00
69.2994 156.00
69.3646 166.00
69.4298 149.00
69.495 162.00
69.5602 189.00
69.6254 190.00
69.6906 169.00
69.7558 181.00
69.821 202.00
69.8862 172.00
69.9514 171.00
70.0166 164.00
70.0818 186.00
70.147 179.00
70.2122 174.00
70.2774 158.00
70.3426 171.00
70.4078 192.00
70.473 157.00
70.5382 166.00
70.6034 186.00
70.6686 176.00
70.7338 160.00
70.799 180.00
70.8642 166.00
70.9294 177.00
70.9946 159.00
71.0598 160.00
71.125 174.00
71.1902 165.00
71.2554 171.00
71.3205 165.00
71.3858 163.00
71.451 180.00
71.5162 172.00
71.5813 191.00
71.6465 182.00
71.7117 179.00
71.7769 182.00
71.8421 193.00
71.9073 179.00
71.9725 178.00
72.0377 183.00
72.1029 205.00
72.1681 168.00
72.2333 181.00
72.2985 191.00
72.3637 190.00
72.4289 177.00
72.4941 168.00
72.5593 180.00
72.6245 189.00
72.6897 165.00
72.7549 149.00
72.8201 170.00
72.8853 163.00
72.9505 165.00
73.0157 158.00
73.0809 180.00
73.1461 180.00
73.2113 165.00
73.2765 170.00
73.3417 144.00
73.4069 190.00
73.4721 186.00
73.5373 169.00
73.6025 186.00
73.6677 166.00
73.7329 163.00
73.7981 217.00
73.8633 173.00
73.9285 177.00
73.9937 180.00
74.0589 197.00
74.1241 176.00
74.1893 192.00
74.2545 174.00
74.3197 164.00
74.3849 166.00
74.4501 195.00
74.5153 182.00
74.5805 183.00
74.6457 188.00
74.7109 182.00
74.7761 162.00
74.8413 173.00
74.9065 171.00
74.9717 218.00
75.0369 193.00
75.1021 171.00
75.1673 193.00
75.2325 156.00
75.2977 213.00
75.3629 174.00
75.4281 197.00
75.4933 178.00
75.5585 194.00
75.6237 164.00
75.6889 208.00
75.7541 168.00
75.8193 194.00
75.8845 193.00
75.9497 180.00
76.0149 180.00
76.0801 166.00
76.1452 176.00
76.2104 192.00
76.2756 185.00
76.3409 199.00
76.406 194.00
76.4712 187.00
76.5364 192.00
76.6016 170.00
76.6668 198.00
76.732 184.00
76.7972 207.00
76.8624 188.00
76.9276 195.00
76.9928 191.00
77.058 189.00
77.1232 209.00
77.1884 207.00
77.2536 184.00
77.3188 185.00
77.384 213.00
77.4492 192.00
77.5144 204.00
77.5796 184.00
77.6448 193.00
77.71 176.00
77.7752 184.00
77.8404 182.00
77.9056 186.00
77.9708 190.00
78.036 198.00
78.1012 206.00
78.1664 193.00
78.2316 180.00
78.2968 190.00
78.362 198.00
78.4272 212.00
78.4924 198.00
78.5576 238.00
78.6228 179.00
78.688 190.00
78.7532 197.00
78.8184 197.00
78.8836 190.00
78.9488 219.00
79.014 216.00
79.0792 214.00
79.1444 182.00
79.2096 171.00
79.2748 196.00
79.34 193.00
79.4052 209.00
79.4704 189.00
79.5356 209.00
79.6008 219.00
79.666 200.00
79.7312 217.00
79.7964 184.00
79.8616 186.00
79.9268 165.00
79.992 190.00
80.0572 203.00
80.1224 213.00
80.1876 205.00
80.2528 211.00
80.318 201.00
80.3832 191.00
80.4484 212.00
80.5136 199.00
80.5788 196.00
80.644 188.00
80.7092 182.00
80.7744 186.00
80.8396 199.00
80.9048 215.00
80.9699 194.00
81.0351 228.00
81.1003 212.00
81.1655 186.00
81.2307 229.00
81.2959 204.00
81.3611 217.00
81.4263 202.00
81.4915 218.00
81.5567 184.00
81.6219 191.00
81.6871 207.00
81.7523 219.00
81.8175 216.00
81.8827 190.00
81.9479 205.00
82.0131 232.00
82.0783 206.00
82.1435 220.00
82.2087 197.00
82.2739 190.00
82.3391 224.00
82.4043 171.00
82.4695 203.00
82.5347 213.00
82.5999 196.00
82.6651 218.00
82.7303 220.00
82.7955 212.00
82.8607 196.00
82.9259 213.00
82.9911 232.00
83.0563 215.00
83.1215 217.00
83.1867 211.00
83.2519 183.00
83.3171 228.00
83.3823 195.00
83.4475 216.00
83.5127 175.00
83.5779 214.00
83.6431 208.00
83.7083 219.00
83.7735 190.00
83.8387 215.00
83.9039 192.00
83.9691 200.00
84.0343 216.00
84.0995 179.00
84.1647 190.00
84.2299 208.00
84.2951 200.00
84.3603 200.00
84.4255 197.00
84.4907 188.00
84.5559 191.00
84.6211 176.00
84.6863 190.00
84.7515 226.00
84.8167 174.00
84.8819 187.00
84.9471 195.00
85.0123 204.00
85.0775 180.00
85.1427 160.00
85.2079 189.00
85.2731 180.00
85.3383 203.00
85.4035 186.00
85.4687 191.00
85.5339 175.00
85.5991 191.00
85.6643 191.00
85.7295 179.00
85.7946 166.00
85.8598 187.00
85.925 194.00
85.9903 158.00
86.0554 198.00
86.1206 203.00
86.1858 192.00
86.251 188.00
86.3162 171.00
86.3814 189.00
86.4466 183.00
86.5118 169.00
86.577 191.00
86.6422 179.00
86.7074 183.00
86.7726 165.00
86.8378 188.00
86.903 189.00
86.9682 191.00
87.0334 177.00
87.0986 152.00
87.1638 181.00
87.229 162.00
87.2942 204.00
87.3594 178.00
87.4246 176.00
87.4898 152.00
87.555 191.00
87.6202 174.00
87.6854 159.00
87.7506 184.00
87.8158 180.00
87.881 180.00
87.9462 190.00
88.0114 172.00
88.0766 149.00
88.1418 150.00
88.207 181.00
88.2722 169.00
88.3374 188.00
88.4026 167.00
88.4678 161.00
88.533 180.00
88.5982 166.00
88.6634 159.00
88.7286 178.00
88.7938 207.00
88.859 162.00
88.9242 183.00
88.9894 167.00
89.0546 179.00
89.1198 186.00
89.185 155.00
89.2502 146.00
89.3154 165.00
89.3806 193.00
89.4458 165.00
89.511 198.00
89.5762 146.00
89.6414 168.00
89.7066 172.00
89.7718 197.00
89.837 181.00
89.9022 177.00
89.9674 192.00
90.0326 182.00
90.0978 193.00
90.163 183.00
90.2282 167.00
90.2934 189.00
90.3586 183.00
90.4238 167.00
90.489 168.00
90.5542 159.00
90.6193 179.00
90.6845 179.00
90.7497 144.00
90.8149 176.00
90.8801 161.00
90.9453 188.00
91.0105 173.00
91.0757 175.00
91.1409 169.00
91.2061 171.00
91.2713 168.00
91.3365 172.00
91.4017 184.00
91.4669 152.00
91.5321 189.00
91.5973 142.00
91.6625 186.00
91.7277 178.00
91.7929 157.00
91.8581 179.00
91.9233 139.00
91.9885 179.00
92.0537 170.00
92.1189 172.00
92.1841 148.00
92.2493 161.00
92.3145 157.00
92.3797 152.00
92.4449 172.00
92.5101 189.00
92.5753 178.00
92.6405 162.00
92.7057 183.00
92.7709 173.00
92.8361 148.00
92.9013 166.00
92.9665 172.00
93.0317 173.00
93.0969 168.00
93.1621 183.00
93.2273 179.00
93.2925 143.00
93.3577 160.00
93.4229 161.00
93.4881 168.00
93.5533 142.00
93.6185 183.00
93.6837 176.00
93.7489 183.00
93.8141 139.00
93.8793 190.00
93.9445 157.00
94.0097 159.00
94.0749 174.00
94.1401 165.00
94.2053 153.00
94.2705 166.00
94.3357 177.00
94.4009 192.00
94.4661 172.00
94.5313 140.00
94.5965 180.00
94.6617 177.00
94.7269 179.00
94.7921 154.00
94.8573 190.00
94.9225 171.00
94.9877 187.00
95.0529 170.00
95.1181 163.00
95.1833 184.00
95.2485 171.00
95.3137 189.00
95.3789 171.00
95.444 198.00
95.5092 159.00
95.5744 170.00
95.6396 148.00
95.7048 166.00
95.77 174.00
95.8352 150.00
95.9004 187.00
95.9656 176.00
96.0308 158.00
96.096 159.00
96.1612 153.00
96.2264 177.00
96.2916 167.00
96.3568 174.00
96.422 155.00
96.4872 165.00
96.5524 156.00
96.6176 161.00
96.6828 194.00
96.748 161.00
96.8132 168.00
96.8784 143.00
96.9436 164.00
97.0088 168.00
97.074 179.00
97.1392 196.00
97.2044 115.00
97.2696 156.00
97.3348 162.00
97.4 155.00
97.4652 166.00
97.5304 175.00
97.5956 175.00
97.6608 170.00
97.726 154.00
97.7912 161.00
97.8564 150.00
97.9216 197.00
97.9868 168.00
98.052 170.00
98.1172 184.00
98.1824 143.00
98.2476 156.00
98.3128 168.00
98.378 162.00
98.4432 171.00
98.5084 169.00
98.5736 180.00
98.6388 168.00
98.704 178.00
98.7692 164.00
98.8344 153.00
98.8996 154.00
98.9648 156.00
99.03 150.00
99.0952 177.00
99.1604 159.00
99.2256 164.00
99.2908 170.00
99.356 155.00
99.4212 161.00
99.4864 167.00
99.5516 160.00
99.6168 141.00
99.682 158.00
99.7472 163.00
99.8124 164.00
99.8776 178.00
99.9428 165.00
100.008 171.00
100.073 189.00
100.095 171.00