File: data/xrd_creation/results/NSC_82.xy
9.903433 2762.00
9.968632 2805.00
10.0338 2837.00
10.099 2889.00
10.1642 2821.00
10.2294 2760.00
10.2946 2762.00
10.3598 2608.00
10.425 2727.00
10.4902 2600.00
10.5554 2590.00
10.6206 2592.00
10.6858 2598.00
10.751 2558.00
10.8162 2581.00
10.8814 2655.00
10.9466 2643.00
11.0118 2442.00
11.077 2494.00
11.1422 2501.00
11.2074 2523.00
11.2726 2381.00
11.3378 2463.00
11.403 2256.00
11.4682 2462.00
11.5334 2425.00
11.5986 2341.00
11.6638 2434.00
11.729 2359.00
11.7942 2307.00
11.8594 2311.00
11.9246 2250.00
11.9898 2359.00
12.055 2280.00
12.1202 2184.00
12.1854 2204.00
12.2506 2148.00
12.3158 2265.00
12.381 2173.00
12.4462 2147.00
12.5114 2227.00
12.5766 2140.00
12.6418 2094.00
12.707 2189.00
12.7722 2183.00
12.8374 2193.00
12.9026 2119.00
12.9678 2042.00
13.033 2033.00
13.0982 2078.00
13.1634 2093.00
13.2286 2089.00
13.2938 1984.00
13.359 1941.00
13.4242 2006.00
13.4894 2029.00
13.5546 2057.00
13.6198 1950.00
13.685 1982.00
13.7502 1967.00
13.8154 2078.00
13.8805 2100.00
13.9457 2127.00
14.0109 2255.00
14.0761 2335.00
14.1413 2453.00
14.2065 2722.00
14.2717 2857.00
14.3369 2764.00
14.4021 2705.00
14.4673 2480.00
14.5325 2317.00
14.5977 2143.00
14.6629 2065.00
14.7281 1927.00
14.7933 1995.00
14.8585 1976.00
14.9237 2015.00
14.9889 1978.00
15.0541 1889.00
15.1193 1835.00
15.1845 1883.00
15.2497 1902.00
15.3149 1845.00
15.3801 1849.00
15.4453 1838.00
15.5105 1836.00
15.5757 1886.00
15.6409 1962.00
15.7061 1909.00
15.7713 1836.00
15.8365 1826.00
15.9017 1826.00
15.9669 1869.00
16.0321 1771.00
16.0973 1784.00
16.1625 1852.00
16.2277 1905.00
16.2929 1798.00
16.3581 1840.00
16.4233 1726.00
16.4885 1820.00
16.5537 1778.00
16.6189 1730.00
16.6841 1783.00
16.7493 1763.00
16.8145 1739.00
16.8797 1802.00
16.9449 1796.00
17.0101 1682.00
17.0753 1778.00
17.1405 1810.00
17.2057 1716.00
17.2709 1782.00
17.3361 1736.00
17.4013 1749.00
17.4665 1801.00
17.5317 1716.00
17.5969 1772.00
17.6621 1731.00
17.7273 1746.00
17.7925 1744.00
17.8577 1645.00
17.9229 1752.00
17.9881 1734.00
18.0533 1693.00
18.1185 1617.00
18.1837 1717.00
18.2489 1721.00
18.3141 1624.00
18.3793 1649.00
18.4445 1703.00
18.5097 1660.00
18.5749 1648.00
18.6401 1676.00
18.7052 1583.00
18.7704 1681.00
18.8356 1701.00
18.9008 1668.00
18.966 1592.00
19.0312 1720.00
19.0964 1533.00
19.1616 1751.00
19.2268 1690.00
19.292 1811.00
19.3572 1847.00
19.4224 1969.00
19.4876 2071.00
19.5528 2416.00
19.618 2794.00
19.6832 3138.00
19.7484 3381.00
19.8136 3803.00
19.8788 3783.00
19.944 3622.00
20.0092 3456.00
20.0744 3172.00
20.1396 3118.00
20.2048 2884.00
20.27 2955.00
20.3352 3228.00
20.4004 3867.00
20.4656 4141.00
20.5308 4534.00
20.596 4559.00
20.6612 4414.00
20.7264 3944.00
20.7916 3556.00
20.8568 2980.00
20.922 2527.00
20.9872 2074.00
21.0524 1929.00
21.1176 1760.00
21.1828 1692.00
21.248 1602.00
21.3132 1682.00
21.3784 1698.00
21.4436 1573.00
21.5088 1678.00
21.574 1542.00
21.6392 1676.00
21.7044 1696.00
21.7696 1633.00
21.8348 1659.00
21.9 1597.00
21.9652 1635.00
22.0304 1621.00
22.0956 1526.00
22.1608 1481.00
22.226 1511.00
22.2912 1569.00
22.3564 1475.00
22.4216 1473.00
22.4868 1550.00
22.552 1585.00
22.6172 1573.00
22.6824 1508.00
22.7476 1567.00
22.8128 1531.00
22.878 1601.00
22.9432 1575.00
23.0084 1497.00
23.0736 1600.00
23.1388 1731.00
23.204 1606.00
23.2692 1793.00
23.3344 1941.00
23.3996 2209.00
23.4647 2521.00
23.5299 3100.00
23.5951 3884.00
23.6603 4507.00
23.7255 5160.00
23.7907 5838.00
23.8559 6243.00
23.9211 6206.00
23.9863 5985.00
24.0515 5257.00
24.1167 4747.00
24.1819 3971.00
24.2471 3124.00
24.3123 2458.00
24.3775 2092.00
24.4427 1883.00
24.5079 1706.00
24.5731 1692.00
24.6383 1607.00
24.7035 1572.00
24.7687 1577.00
24.8339 1533.00
24.8991 1518.00
24.9643 1491.00
25.0295 1553.00
25.0947 1623.00
25.1599 1617.00
25.2251 1574.00
25.2903 1624.00
25.3555 1655.00
25.4207 1649.00
25.4859 1609.00
25.5511 1426.00
25.6163 1482.00
25.6815 1430.00
25.7467 1371.00
25.8119 1458.00
25.8771 1464.00
25.9423 1396.00
26.0075 1417.00
26.0727 1439.00
26.1379 1480.00
26.2031 1390.00
26.2683 1422.00
26.3335 1441.00
26.3987 1479.00
26.4639 1372.00
26.5291 1402.00
26.5943 1350.00
26.6595 1376.00
26.7247 1417.00
26.7899 1429.00
26.8551 1395.00
26.9203 1393.00
26.9855 1312.00
27.0507 1392.00
27.1159 1320.00
27.1811 1376.00
27.2463 1291.00
27.3115 1323.00
27.3767 1281.00
27.4419 1404.00
27.5071 1342.00
27.5723 1330.00
27.6375 1332.00
27.7027 1373.00
27.7679 1453.00
27.8331 1401.00
27.8983 1395.00
27.9635 1534.00
28.0287 1634.00
28.0939 1751.00
28.1591 1807.00
28.2243 2066.00
28.2894 2121.00
28.3546 2167.00
28.4198 2285.00
28.485 2517.00
28.5502 2754.00
28.6154 2841.00
28.6806 2958.00
28.7458 2940.00
28.811 2922.00
28.8762 2871.00
28.9414 2750.00
29.0066 2566.00
29.0718 2266.00
29.137 2076.00
29.2022 1815.00
29.2674 1667.00
29.3326 1438.00
29.3978 1388.00
29.463 1377.00
29.5282 1316.00
29.5934 1261.00
29.6586 1286.00
29.7238 1307.00
29.789 1315.00
29.8542 1248.00
29.9194 1329.00
29.9846 1262.00
30.0498 1300.00
30.115 1305.00
30.1802 1297.00
30.2454 1287.00
30.3106 1314.00
30.3758 1242.00
30.441 1216.00
30.5062 1289.00
30.5714 1280.00
30.6366 1309.00
30.7018 1312.00
30.767 1318.00
30.8322 1316.00
30.8974 1291.00
30.9626 1357.00
31.0278 1430.00
31.093 1486.00
31.1582 1637.00
31.2234 1802.00
31.2886 2071.00
31.3538 2387.00
31.419 2937.00
31.4842 3383.00
31.5494 3788.00
31.6146 4062.00
31.6798 4389.00
31.745 4387.00
31.8102 4380.00
31.8754 4334.00
31.9406 4051.00
32.0058 3865.00
32.071 3789.00
32.1362 3366.00
32.2014 2937.00
32.2666 2444.00
32.3318 2073.00
32.397 1763.00
32.4622 1700.00
32.5274 1448.00
32.5926 1291.00
32.6578 1271.00
32.723 1308.00
32.7882 1217.00
32.8534 1293.00
32.9186 1208.00
32.9838 1261.00
33.0489 1220.00
33.1141 1183.00
33.1793 1178.00
33.2445 1182.00
33.3097 1204.00
33.3749 1177.00
33.4401 1139.00
33.5053 1183.00
33.5705 1107.00
33.6357 1201.00
33.7009 1217.00
33.7661 1204.00
33.8313 1231.00
33.8965 1234.00
33.9617 1327.00
34.0269 1262.00
34.0921 1377.00
34.1573 1314.00
34.2225 1298.00
34.2877 1305.00
34.3529 1264.00
34.4181 1250.00
34.4833 1252.00
34.5485 1262.00
34.6137 1221.00
34.6789 1204.00
34.7441 1280.00
34.8093 1178.00
34.8745 1151.00
34.9397 1236.00
35.0049 1181.00
35.0701 1233.00
35.1353 1405.00
35.2005 1497.00
35.2657 1551.00
35.3309 1576.00
35.3961 1659.00
35.4613 1681.00
35.5265 1870.00
35.5917 1865.00
35.6569 2051.00
35.7221 2122.00
35.7873 2296.00
35.8525 2526.00
35.9177 2469.00
35.9829 2418.00
36.0481 2357.00
36.1133 2265.00
36.1785 2201.00
36.2437 2029.00
36.3089 1959.00
36.3741 1850.00
36.4393 1783.00
36.5045 1592.00
36.5697 1371.00
36.6349 1323.00
36.7001 1274.00
36.7653 1123.00
36.8305 1131.00
36.8957 1105.00
36.9609 1063.00
37.0261 1067.00
37.0913 1082.00
37.1565 1046.00
37.2217 1034.00
37.2869 1099.00
37.3521 1067.00
37.4173 1074.00
37.4825 1082.00
37.5477 1117.00
37.6129 1138.00
37.6781 1064.00
37.7433 1067.00
37.8085 1117.00
37.8736 1107.00
37.9388 1092.00
38.004 1075.00
38.0692 1078.00
38.1344 1102.00
38.1996 1071.00
38.2648 1074.00
38.33 1033.00
38.3952 1104.00
38.4604 1117.00
38.5256 981.00
38.5908 1098.00
38.656 1028.00
38.7212 1083.00
38.7864 1019.00
38.8516 1041.00
38.9168 1005.00
38.982 1052.00
39.0472 1026.00
39.1124 981.00
39.1776 1031.00
39.2428 981.00
39.308 999.00
39.3732 1071.00
39.4384 1028.00
39.5036 1078.00
39.5688 1099.00
39.634 1039.00
39.6992 1067.00
39.7644 1037.00
39.8296 1027.00
39.8948 1014.00
39.96 1072.00
40.0252 1092.00
40.0904 1118.00
40.1556 1188.00
40.2208 1173.00
40.286 1162.00
40.3512 1136.00
40.4164 1145.00
40.4816 1215.00
40.5468 1201.00
40.612 1216.00
40.6772 1208.00
40.7424 1204.00
40.8076 1285.00
40.8728 1185.00
40.938 1138.00
41.0032 1161.00
41.0684 1046.00
41.1336 1067.00
41.1988 1098.00
41.264 1091.00
41.3292 1070.00
41.3944 1100.00
41.4596 1096.00
41.5248 1138.00
41.59 1153.00
41.6552 1213.00
41.7204 1211.00
41.7856 1230.00
41.8508 1207.00
41.916 1219.00
41.9812 1250.00
42.0464 1219.00
42.1116 1150.00
42.1768 1254.00
42.242 1213.00
42.3072 1245.00
42.3724 1156.00
42.4376 1253.00
42.5028 1247.00
42.568 1135.00
42.6332 1221.00
42.6983 1203.00
42.7635 1115.00
42.8287 1112.00
42.8939 1062.00
42.9591 1174.00
43.0243 1118.00
43.0895 1185.00
43.1547 1076.00
43.2199 1136.00
43.2851 1192.00
43.3503 1236.00
43.4155 1285.00
43.4807 1323.00
43.5459 1253.00
43.6111 1254.00
43.6763 1285.00
43.7415 1284.00
43.8067 1270.00
43.8719 1283.00
43.9371 1250.00
44.0023 1281.00
44.0675 1202.00
44.1327 1190.00
44.1979 1146.00
44.2631 1133.00
44.3283 1159.00
44.3935 1092.00
44.4587 1099.00
44.5239 1059.00
44.5891 1043.00
44.6543 1110.00
44.7195 1118.00
44.7847 982.00
44.8499 1077.00
44.9151 1090.00
44.9803 1110.00
45.0455 1150.00
45.1107 1113.00
45.1759 1228.00
45.2411 1237.00
45.3063 1348.00
45.3715 1449.00
45.4367 1513.00
45.5019 1543.00
45.5671 1563.00
45.6323 1461.00
45.6975 1473.00
45.7627 1523.00
45.8279 1476.00
45.8931 1426.00
45.9583 1500.00
46.0235 1543.00
46.0887 1456.00
46.1539 1367.00
46.2191 1503.00
46.2843 1479.00
46.3495 1419.00
46.4147 1346.00
46.4799 1346.00
46.5451 1349.00
46.6103 1273.00
46.6755 1317.00
46.7407 1273.00
46.8059 1180.00
46.8711 1229.00
46.9363 1213.00
47.0015 1294.00
47.0667 1211.00
47.1319 1215.00
47.1971 1213.00
47.2623 1210.00
47.3275 1168.00
47.3927 1211.00
47.4579 1139.00
47.523 1172.00
47.5882 1127.00
47.6534 1062.00
47.7186 1155.00
47.7838 1129.00
47.849 1133.00
47.9142 1126.00
47.9794 1220.00
48.0446 1232.00
48.1098 1296.00
48.175 1196.00
48.2402 1308.00
48.3054 1423.00
48.3706 1518.00
48.4358 1553.00
48.501 1670.00
48.5662 1724.00
48.6314 1763.00
48.6966 1785.00
48.7618 1757.00
48.827 1717.00
48.8922 1653.00
48.9574 1683.00
49.0226 1768.00
49.0878 1766.00
49.153 1814.00
49.2182 1806.00
49.2834 1737.00
49.3486 1550.00
49.4138 1526.00
49.479 1370.00
49.5442 1404.00
49.6094 1250.00
49.6746 1287.00
49.7398 1210.00
49.805 1141.00
49.8702 1044.00
49.9354 1108.00
50.0006 1061.00
50.0658 1020.00
50.131 1159.00
50.1962 1174.00
50.2614 1096.00
50.3266 1065.00
50.3918 1016.00
50.457 1009.00
50.5222 971.00
50.5874 1024.00
50.6526 1028.00
50.7178 1062.00
50.783 906.00
50.8482 960.00
50.9134 917.00
50.9786 932.00
51.0438 1043.00
51.109 908.00
51.1742 1002.00
51.2394 1047.00
51.3046 1000.00
51.3698 1056.00
51.435 1052.00
51.5002 1084.00
51.5654 991.00
51.6306 1156.00
51.6958 1091.00
51.761 1183.00
51.8262 1310.00
51.8914 1293.00
51.9566 1371.00
52.0218 1425.00
52.087 1449.00
52.1522 1341.00
52.2174 1426.00
52.2826 1388.00
52.3477 1406.00
52.4129 1479.00
52.4781 1479.00
52.5433 1450.00
52.6085 1383.00
52.6737 1400.00
52.7389 1257.00
52.8041 1295.00
52.8693 1220.00
52.9345 1109.00
52.9997 1200.00
53.0649 1169.00
53.1301 1124.00
53.1953 1138.00
53.2605 1129.00
53.3257 1005.00
53.3909 956.00
53.4561 1009.00
53.5213 1002.00
53.5865 998.00
53.6517 986.00
53.7169 999.00
53.7821 1024.00
53.8473 999.00
53.9125 975.00
53.9777 948.00
54.0429 1027.00
54.1081 1015.00
54.1733 1039.00
54.2385 1027.00
54.3037 996.00
54.3689 947.00
54.4341 909.00
54.4993 1054.00
54.5645 940.00
54.6297 1002.00
54.6949 1105.00
54.7601 1075.00
54.8253 1083.00
54.8905 1115.00
54.9557 1176.00
55.0209 1249.00
55.0861 1171.00
55.1513 1246.00
55.2165 1231.00
55.2817 1217.00
55.3469 1362.00
55.4121 1362.00
55.4773 1377.00
55.5425 1460.00
55.6077 1365.00
55.6729 1531.00
55.7381 1543.00
55.8033 1621.00
55.8685 1705.00
55.9337 1606.00
55.9989 1615.00
56.0641 1684.00
56.1293 1807.00
56.1945 1775.00
56.2597 1712.00
56.3249 1746.00
56.3901 1637.00
56.4553 1560.00
56.5205 1658.00
56.5857 1610.00
56.6509 1532.00
56.7161 1475.00
56.7813 1517.00
56.8465 1443.00
56.9117 1418.00
56.9769 1401.00
57.042 1290.00
57.1073 1213.00
57.1724 1185.00
57.2376 1186.00
57.3028 1175.00
57.368 1072.00
57.4332 1053.00
57.4984 1106.00
57.5636 1092.00
57.6288 1129.00
57.694 1028.00
57.7592 996.00
57.8244 1048.00
57.8896 1003.00
57.9548 1060.00
58.02 1041.00
58.0852 941.00
58.1504 1062.00
58.2156 1010.00
58.2808 991.00
58.346 1067.00
58.4112 997.00
58.4764 1002.00
58.5416 1002.00
58.6068 970.00
58.672 995.00
58.7372 995.00
58.8024 996.00
58.8676 1023.00
58.9328 962.00
58.998 999.00
59.0632 1031.00
59.1284 1030.00
59.1936 1030.00
59.2588 1120.00
59.324 1079.00
59.3892 1018.00
59.4544 1073.00
59.5196 1047.00
59.5848 1048.00
59.65 1073.00
59.7152 1021.00
59.7804 1070.00
59.8456 1066.00
59.9108 1139.00
59.976 1151.00
60.0412 1119.00
60.1064 1089.00
60.1716 1073.00
60.2368 1031.00
60.302 1113.00
60.3672 973.00
60.4324 1134.00
60.4976 1044.00
60.5628 1123.00
60.628 1164.00
60.6932 1121.00
60.7584 1168.00
60.8236 1123.00
60.8888 1100.00
60.954 1064.00
61.0192 1116.00
61.0844 1170.00
61.1496 1125.00
61.2148 1177.00
61.28 1175.00
61.3452 1153.00
61.4104 1183.00
61.4756 1259.00
61.5408 1347.00
61.606 1259.00
61.6712 1357.00
61.7364 1313.00
61.8016 1348.00
61.8667 1336.00
61.932 1270.00
61.9971 1358.00
62.0623 1233.00
62.1275 1268.00
62.1927 1194.00
62.2579 1244.00
62.3231 1196.00
62.3883 1082.00
62.4535 1197.00
62.5187 1259.00
62.5839 1212.00
62.6491 1217.00
62.7143 1296.00
62.7795 1249.00
62.8447 1179.00
62.9099 1181.00
62.9751 1180.00
63.0403 1122.00
63.1055 1114.00
63.1707 1105.00
63.2359 1125.00
63.3011 1101.00
63.3663 1115.00
63.4315 1050.00
63.4967 1059.00
63.5619 1017.00
63.6271 1065.00
63.6923 1034.00
63.7575 1097.00
63.8227 1110.00
63.8879 1150.00
63.9531 1085.00
64.0183 1127.00
64.0835 1104.00
64.1487 1187.00
64.2139 1126.00
64.2791 1122.00
64.3443 1227.00
64.4095 1101.00
64.4747 1255.00
64.5399 1081.00
64.6051 1171.00
64.6703 1156.00
64.7355 1109.00
64.8007 1165.00
64.8659 1043.00
64.9311 1151.00
64.9963 1152.00
65.0615 1064.00
65.1267 1059.00
65.1919 1100.00
65.2571 1104.00
65.3223 1042.00
65.3875 1033.00
65.4527 954.00
65.5179 1031.00
65.5831 1029.00
65.6483 1012.00
65.7135 1025.00
65.7787 979.00
65.8439 978.00
65.9091 927.00
65.9743 989.00
66.0395 937.00
66.1047 883.00
66.1699 933.00
66.2351 901.00
66.3003 953.00
66.3655 928.00
66.4307 943.00
66.4959 969.00
66.561 1000.00
66.6263 909.00
66.6915 953.00
66.7566 972.00
66.8218 957.00
66.887 979.00
66.9522 993.00
67.0174 1062.00
67.0826 960.00
67.1478 1059.00
67.213 1007.00
67.2782 945.00
67.3434 1009.00
67.4086 976.00
67.4738 920.00
67.539 994.00
67.6042 910.00
67.6694 1034.00
67.7346 903.00
67.7998 999.00
67.865 969.00
67.9302 957.00
67.9954 1049.00
68.0606 993.00
68.1258 982.00
68.191 986.00
68.2562 979.00
68.3214 1015.00
68.3866 971.00
68.4518 1012.00
68.517 1052.00
68.5822 990.00
68.6474 982.00
68.7126 976.00
68.7778 907.00
68.843 947.00
68.9082 938.00
68.9734 892.00
69.0386 887.00
69.1038 900.00
69.169 939.00
69.2342 866.00
69.2994 838.00
69.3646 919.00
69.4298 899.00
69.495 913.00
69.5602 921.00
69.6254 948.00
69.6906 843.00
69.7558 868.00
69.821 810.00
69.8862 890.00
69.9514 847.00
70.0166 898.00
70.0818 890.00
70.147 867.00
70.2122 849.00
70.2774 838.00
70.3426 862.00
70.4078 908.00
70.473 839.00
70.5382 894.00
70.6034 845.00
70.6686 866.00
70.7338 817.00
70.799 818.00
70.8642 849.00
70.9294 888.00
70.9946 863.00
71.0598 880.00
71.125 805.00
71.1902 847.00
71.2554 841.00
71.3205 856.00
71.3858 842.00
71.451 832.00
71.5162 821.00
71.5813 888.00
71.6465 840.00
71.7117 928.00
71.7769 941.00
71.8421 893.00
71.9073 937.00
71.9725 965.00
72.0377 951.00
72.1029 949.00
72.1681 863.00
72.2333 884.00
72.2985 891.00
72.3637 907.00
72.4289 942.00
72.4941 937.00
72.5593 916.00
72.6245 863.00
72.6897 901.00
72.7549 953.00
72.8201 907.00
72.8853 909.00
72.9505 912.00
73.0157 889.00
73.0809 910.00
73.1461 893.00
73.2113 869.00
73.2765 842.00
73.3417 806.00
73.4069 837.00
73.4721 765.00
73.5373 883.00
73.6025 804.00
73.6677 886.00
73.7329 850.00
73.7981 819.00
73.8633 774.00
73.9285 806.00
73.9937 821.00
74.0589 833.00
74.1241 807.00
74.1893 803.00
74.2545 847.00
74.3197 773.00
74.3849 819.00
74.4501 866.00
74.5153 820.00
74.5805 827.00
74.6457 827.00
74.7109 874.00
74.7761 841.00
74.8413 856.00
74.9065 830.00
74.9717 871.00
75.0369 942.00
75.1021 915.00
75.1673 849.00
75.2325 899.00
75.2977 887.00
75.3629 871.00
75.4281 898.00
75.4933 893.00
75.5585 898.00
75.6237 921.00
75.6889 913.00
75.7541 928.00
75.8193 934.00
75.8845 911.00
75.9497 975.00
76.0149 939.00
76.0801 972.00
76.1452 958.00
76.2104 974.00
76.2756 934.00
76.3409 1026.00
76.406 972.00
76.4712 940.00
76.5364 969.00
76.6016 967.00
76.6668 944.00
76.732 973.00
76.7972 946.00
76.8624 967.00
76.9276 910.00
76.9928 925.00
77.058 931.00
77.1232 942.00
77.1884 919.00
77.2536 962.00
77.3188 1006.00
77.384 946.00
77.4492 958.00
77.5144 911.00
77.5796 856.00
77.6448 836.00
77.71 904.00
77.7752 894.00
77.8404 842.00
77.9056 903.00
77.9708 856.00
78.036 854.00
78.1012 838.00
78.1664 776.00
78.2316 777.00
78.2968 842.00
78.362 811.00
78.4272 813.00
78.4924 745.00
78.5576 820.00
78.6228 789.00
78.688 781.00
78.7532 841.00
78.8184 792.00
78.8836 868.00
78.9488 759.00
79.014 790.00
79.0792 765.00
79.1444 799.00
79.2096 778.00
79.2748 831.00
79.34 861.00
79.4052 837.00
79.4704 821.00
79.5356 810.00
79.6008 817.00
79.666 820.00
79.7312 869.00
79.7964 847.00
79.8616 862.00
79.9268 895.00
79.992 803.00
80.0572 867.00
80.1224 827.00
80.1876 893.00
80.2528 826.00
80.318 820.00
80.3832 836.00
80.4484 818.00
80.5136 797.00
80.5788 827.00
80.644 847.00
80.7092 805.00
80.7744 854.00
80.8396 794.00
80.9048 799.00
80.9699 813.00
81.0351 871.00
81.1003 873.00
81.1655 806.00
81.2307 762.00
81.2959 839.00
81.3611 778.00
81.4263 816.00
81.4915 783.00
81.5567 826.00
81.6219 755.00
81.6871 798.00
81.7523 818.00
81.8175 813.00
81.8827 838.00
81.9479 824.00
82.0131 811.00
82.0783 909.00
82.1435 811.00
82.2087 842.00
82.2739 818.00
82.3391 780.00
82.4043 824.00
82.4695 769.00
82.5347 840.00
82.5999 804.00
82.6651 834.00
82.7303 765.00
82.7955 794.00
82.8607 783.00
82.9259 803.00
82.9911 846.00
83.0563 792.00
83.1215 843.00
83.1867 805.00
83.2519 886.00
83.3171 862.00
83.3823 812.00
83.4475 750.00
83.5127 834.00
83.5779 721.00
83.6431 780.00
83.7083 829.00
83.7735 810.00
83.8387 763.00
83.9039 810.00
83.9691 865.00
84.0343 820.00
84.0995 794.00
84.1647 761.00
84.2299 815.00
84.2951 808.00
84.3603 837.00
84.4255 854.00
84.4907 774.00
84.5559 811.00
84.6211 832.00
84.6863 781.00
84.7515 830.00
84.8167 807.00
84.8819 803.00
84.9471 808.00
85.0123 832.00
85.0775 847.00
85.1427 805.00
85.2079 805.00
85.2731 827.00
85.3383 840.00
85.4035 813.00
85.4687 826.00
85.5339 784.00
85.5991 844.00
85.6643 839.00
85.7295 856.00
85.7946 872.00
85.8598 842.00
85.925 781.00
85.9903 876.00
86.0554 876.00
86.1206 845.00
86.1858 851.00
86.251 883.00
86.3162 870.00
86.3814 859.00
86.4466 885.00
86.5118 862.00
86.577 849.00
86.6422 816.00
86.7074 804.00
86.7726 827.00
86.8378 847.00
86.903 877.00
86.9682 839.00
87.0334 825.00
87.0986 809.00
87.1638 854.00
87.229 883.00
87.2942 834.00
87.3594 849.00
87.4246 885.00
87.4898 887.00
87.555 802.00
87.6202 856.00
87.6854 948.00
87.7506 848.00
87.8158 871.00
87.881 868.00
87.9462 767.00
88.0114 848.00
88.0766 817.00
88.1418 847.00
88.207 809.00
88.2722 793.00
88.3374 797.00
88.4026 782.00
88.4678 767.00
88.533 862.00
88.5982 842.00
88.6634 773.00
88.7286 817.00
88.7938 816.00
88.859 818.00
88.9242 807.00
88.9894 811.00
89.0546 837.00
89.1198 787.00
89.185 810.00
89.2502 830.00
89.3154 820.00
89.3806 757.00
89.4458 777.00
89.511 757.00
89.5762 786.00
89.6414 805.00
89.7066 795.00
89.7718 796.00
89.837 775.00
89.9022 843.00
89.9674 841.00
90.0326 821.00
90.0978 811.00
90.163 835.00
90.2282 825.00
90.2934 866.00
90.3586 856.00
90.4238 791.00
90.489 871.00
90.5542 874.00
90.6193 880.00
90.6845 833.00
90.7497 833.00
90.8149 900.00
90.8801 840.00
90.9453 819.00
91.0105 922.00
91.0757 862.00
91.1409 858.00
91.2061 823.00
91.2713 847.00
91.3365 819.00
91.4017 831.00
91.4669 859.00
91.5321 801.00
91.5973 814.00
91.6625 829.00
91.7277 819.00
91.7929 805.00
91.8581 821.00
91.9233 796.00
91.9885 742.00
92.0537 824.00
92.1189 793.00
92.1841 863.00
92.2493 856.00
92.3145 801.00
92.3797 835.00
92.4449 830.00
92.5101 743.00
92.5753 805.00
92.6405 772.00
92.7057 851.00
92.7709 794.00
92.8361 798.00
92.9013 830.00
92.9665 769.00
93.0317 800.00
93.0969 787.00
93.1621 816.00
93.2273 783.00
93.2925 822.00
93.3577 742.00
93.4229 802.00
93.4881 796.00
93.5533 799.00
93.6185 766.00
93.6837 770.00
93.7489 832.00
93.8141 787.00
93.8793 878.00
93.9445 835.00
94.0097 789.00
94.0749 811.00
94.1401 757.00
94.2053 763.00
94.2705 812.00
94.3357 761.00
94.4009 761.00
94.4661 750.00
94.5313 800.00
94.5965 773.00
94.6617 789.00
94.7269 808.00
94.7921 833.00
94.8573 775.00
94.9225 780.00
94.9877 800.00
95.0529 754.00
95.1181 743.00
95.1833 815.00
95.2485 818.00
95.3137 805.00
95.3789 739.00
95.444 742.00
95.5092 781.00
95.5744 803.00
95.6396 774.00
95.7048 802.00
95.77 805.00
95.8352 787.00
95.9004 789.00
95.9656 813.00
96.0308 808.00
96.096 798.00
96.1612 762.00
96.2264 817.00
96.2916 816.00
96.3568 829.00
96.422 816.00
96.4872 780.00
96.5524 870.00
96.6176 817.00
96.6828 813.00
96.748 862.00
96.8132 860.00
96.8784 890.00
96.9436 769.00
97.0088 840.00
97.074 846.00
97.1392 827.00
97.2044 865.00
97.2696 807.00
97.3348 837.00
97.4 807.00
97.4652 844.00
97.5304 812.00
97.5956 863.00
97.6608 828.00
97.726 797.00
97.7912 870.00
97.8564 822.00
97.9216 820.00
97.9868 811.00
98.052 843.00
98.1172 848.00
98.1824 859.00
98.2476 845.00
98.3128 858.00
98.378 823.00
98.4432 815.00
98.5084 842.00
98.5736 794.00
98.6388 773.00
98.704 861.00
98.7692 786.00
98.8344 717.00
98.8996 819.00
98.9648 800.00
99.03 839.00
99.0952 802.00
99.1604 827.00
99.2256 828.00
99.2908 822.00
99.356 782.00
99.4212 772.00
99.4864 824.00
99.5516 784.00
99.6168 764.00
99.682 804.00
99.7472 745.00
99.8124 750.00
99.8776 850.00
99.9428 730.00
100.008 799.00
100.073 718.00
100.095 741.00