File: data/xrd_creation/results/NSC_221.xy
9.903433 2693.00
9.968632 2637.00
10.0338 2665.00
10.099 2529.00
10.1642 2648.00
10.2294 2752.00
10.2946 2494.00
10.3598 2570.00
10.425 2495.00
10.4902 2559.00
10.5554 2587.00
10.6206 2450.00
10.6858 2495.00
10.751 2478.00
10.8162 2458.00
10.8814 2391.00
10.9466 2368.00
11.0118 2407.00
11.077 2416.00
11.1422 2277.00
11.2074 2348.00
11.2726 2274.00
11.3378 2306.00
11.403 2275.00
11.4682 2246.00
11.5334 2211.00
11.5986 2310.00
11.6638 2237.00
11.729 2121.00
11.7942 2273.00
11.8594 2206.00
11.9246 2298.00
11.9898 2221.00
12.055 2138.00
12.1202 2127.00
12.1854 2205.00
12.2506 2079.00
12.3158 2126.00
12.381 2156.00
12.4462 2172.00
12.5114 2118.00
12.5766 2040.00
12.6418 2067.00
12.707 1989.00
12.7722 1980.00
12.8374 2033.00
12.9026 1951.00
12.9678 2016.00
13.033 1927.00
13.0982 1927.00
13.1634 1968.00
13.2286 2004.00
13.2938 2059.00
13.359 2061.00
13.4242 2067.00
13.4894 2198.00
13.5546 2488.00
13.6198 2537.00
13.685 2918.00
13.7502 3280.00
13.8154 3276.00
13.8805 2637.00
13.9457 2108.00
14.0109 1955.00
14.0761 1930.00
14.1413 1819.00
14.2065 1796.00
14.2717 1830.00
14.3369 1865.00
14.4021 1801.00
14.4673 1814.00
14.5325 1750.00
14.5977 1871.00
14.6629 1860.00
14.7281 1799.00
14.7933 1858.00
14.8585 1812.00
14.9237 1841.00
14.9889 1774.00
15.0541 1820.00
15.1193 1719.00
15.1845 1746.00
15.2497 1775.00
15.3149 1674.00
15.3801 1757.00
15.4453 1810.00
15.5105 1759.00
15.5757 1736.00
15.6409 1825.00
15.7061 1659.00
15.7713 1836.00
15.8365 1621.00
15.9017 1713.00
15.9669 1666.00
16.0321 1657.00
16.0973 1667.00
16.1625 1620.00
16.2277 1687.00
16.2929 1630.00
16.3581 1681.00
16.4233 1641.00
16.4885 1657.00
16.5537 1722.00
16.6189 1743.00
16.6841 1717.00
16.7493 1691.00
16.8145 1622.00
16.8797 1618.00
16.9449 1718.00
17.0101 1676.00
17.0753 1576.00
17.1405 1764.00
17.2057 1674.00
17.2709 1671.00
17.3361 1638.00
17.4013 1686.00
17.4665 1637.00
17.5317 1680.00
17.5969 1628.00
17.6621 1664.00
17.7273 1590.00
17.7925 1616.00
17.8577 1651.00
17.9229 1588.00
17.9881 1660.00
18.0533 1636.00
18.1185 1582.00
18.1837 1615.00
18.2489 1533.00
18.3141 1487.00
18.3793 1554.00
18.4445 1530.00
18.5097 1532.00
18.5749 1564.00
18.6401 1623.00
18.7052 1546.00
18.7704 1586.00
18.8356 1634.00
18.9008 1633.00
18.966 1863.00
19.0312 1959.00
19.0964 2462.00
19.1616 3283.00
19.2268 4620.00
19.292 6209.00
19.3572 7566.00
19.4224 7720.00
19.4876 6730.00
19.5528 6491.00
19.618 6941.00
19.6832 6202.00
19.7484 4180.00
19.8136 2366.00
19.8788 1855.00
19.944 1603.00
20.0092 1579.00
20.0744 1573.00
20.1396 1555.00
20.2048 1472.00
20.27 1504.00
20.3352 1473.00
20.4004 1507.00
20.4656 1493.00
20.5308 1513.00
20.596 1527.00
20.6612 1567.00
20.7264 1546.00
20.7916 1580.00
20.8568 1507.00
20.922 1459.00
20.9872 1515.00
21.0524 1491.00
21.1176 1509.00
21.1828 1489.00
21.248 1530.00
21.3132 1489.00
21.3784 1570.00
21.4436 1513.00
21.5088 1394.00
21.574 1435.00
21.6392 1389.00
21.7044 1442.00
21.7696 1420.00
21.8348 1406.00
21.9 1491.00
21.9652 1382.00
22.0304 1353.00
22.0956 1384.00
22.1608 1384.00
22.226 1408.00
22.2912 1411.00
22.3564 1472.00
22.4216 1496.00
22.4868 1452.00
22.552 1512.00
22.6172 1495.00
22.6824 1632.00
22.7476 1797.00
22.8128 2286.00
22.878 2921.00
22.9432 3132.00
23.0084 2694.00
23.0736 1993.00
23.1388 1581.00
23.204 1445.00
23.2692 1427.00
23.3344 1415.00
23.3996 1375.00
23.4647 1357.00
23.5299 1300.00
23.5951 1392.00
23.6603 1382.00
23.7255 1349.00
23.7907 1342.00
23.8559 1369.00
23.9211 1503.00
23.9863 1409.00
24.0515 1535.00
24.1167 1631.00
24.1819 1535.00
24.2471 1522.00
24.3123 1444.00
24.3775 1368.00
24.4427 1317.00
24.5079 1382.00
24.5731 1396.00
24.6383 1448.00
24.7035 1361.00
24.7687 1324.00
24.8339 1329.00
24.8991 1308.00
24.9643 1308.00
25.0295 1287.00
25.0947 1294.00
25.1599 1223.00
25.2251 1197.00
25.2903 1229.00
25.3555 1243.00
25.4207 1282.00
25.4859 1248.00
25.5511 1258.00
25.6163 1280.00
25.6815 1293.00
25.7467 1225.00
25.8119 1228.00
25.8771 1180.00
25.9423 1142.00
26.0075 1250.00
26.0727 1114.00
26.1379 1233.00
26.2031 1213.00
26.2683 1199.00
26.3335 1178.00
26.3987 1173.00
26.4639 1199.00
26.5291 1226.00
26.5943 1172.00
26.6595 1260.00
26.7247 1209.00
26.7899 1251.00
26.8551 1276.00
26.9203 1260.00
26.9855 1225.00
27.0507 1183.00
27.1159 1220.00
27.1811 1215.00
27.2463 1224.00
27.3115 1313.00
27.3767 1457.00
27.4419 1668.00
27.5071 2231.00
27.5723 3206.00
27.6375 4642.00
27.7027 5276.00
27.7679 4391.00
27.8331 2905.00
27.8983 1926.00
27.9635 1433.00
28.0287 1357.00
28.0939 1426.00
28.1591 1555.00
28.2243 1699.00
28.2894 1966.00
28.3546 2196.00
28.4198 2273.00
28.485 2056.00
28.5502 1732.00
28.6154 1376.00
28.6806 1335.00
28.7458 1230.00
28.811 1234.00
28.8762 1217.00
28.9414 1151.00
29.0066 1188.00
29.0718 1138.00
29.137 1172.00
29.2022 1209.00
29.2674 1104.00
29.3326 1174.00
29.3978 1104.00
29.463 1175.00
29.5282 1185.00
29.5934 1128.00
29.6586 1133.00
29.7238 1121.00
29.789 1165.00
29.8542 1210.00
29.9194 1239.00
29.9846 1121.00
30.0498 1162.00
30.115 1278.00
30.1802 1288.00
30.2454 1432.00
30.3106 1684.00
30.3758 2095.00
30.441 2258.00
30.5062 2279.00
30.5714 2347.00
30.6366 3136.00
30.7018 4443.00
30.767 6459.00
30.8322 7745.00
30.8974 7726.00
30.9626 6088.00
31.0278 3773.00
31.093 2463.00
31.1582 1797.00
31.2234 1608.00
31.2886 1440.00
31.3538 1273.00
31.419 1399.00
31.4842 1529.00
31.5494 1612.00
31.6146 1924.00
31.6798 2027.00
31.745 1976.00
31.8102 1577.00
31.8754 1429.00
31.9406 1231.00
32.0058 1203.00
32.071 1106.00
32.1362 1084.00
32.2014 1117.00
32.2666 1102.00
32.3318 1072.00
32.397 1052.00
32.4622 1024.00
32.5274 1068.00
32.5926 1048.00
32.6578 1006.00
32.723 1060.00
32.7882 1087.00
32.8534 1076.00
32.9186 1105.00
32.9838 1121.00
33.0489 1076.00
33.1141 1128.00
33.1793 1042.00
33.2445 1118.00
33.3097 1151.00
33.3749 1073.00
33.4401 1213.00
33.5053 1172.00
33.5705 1206.00
33.6357 1159.00
33.7009 1243.00
33.7661 1326.00
33.8313 1401.00
33.8965 1560.00
33.9617 1940.00
34.0269 2658.00
34.0921 3921.00
34.1573 5259.00
34.2225 6411.00
34.2877 6812.00
34.3529 6274.00
34.4181 4571.00
34.4833 2967.00
34.5485 1935.00
34.6137 1473.00
34.6789 1385.00
34.7441 1363.00
34.8093 1197.00
34.8745 1163.00
34.9397 1124.00
35.0049 1032.00
35.0701 1013.00
35.1353 973.00
35.2005 1017.00
35.2657 1066.00
35.3309 1087.00
35.3961 1137.00
35.4613 1159.00
35.5265 1285.00
35.5917 1264.00
35.6569 1222.00
35.7221 1068.00
35.7873 1058.00
35.8525 994.00
35.9177 998.00
35.9829 1017.00
36.0481 1018.00
36.1133 1095.00
36.1785 1064.00
36.2437 994.00
36.3089 987.00
36.3741 976.00
36.4393 946.00
36.5045 941.00
36.5697 944.00
36.6349 939.00
36.7001 988.00
36.7653 910.00
36.8305 899.00
36.8957 933.00
36.9609 910.00
37.0261 896.00
37.0913 886.00
37.1565 948.00
37.2217 884.00
37.2869 921.00
37.3521 975.00
37.4173 896.00
37.4825 907.00
37.5477 881.00
37.6129 914.00
37.6781 905.00
37.7433 917.00
37.8085 917.00
37.8736 868.00
37.9388 867.00
38.004 854.00
38.0692 905.00
38.1344 947.00
38.1996 893.00
38.2648 911.00
38.33 954.00
38.3952 894.00
38.4604 927.00
38.5256 820.00
38.5908 926.00
38.656 925.00
38.7212 953.00
38.7864 933.00
38.8516 986.00
38.9168 1019.00
38.982 1022.00
39.0472 1018.00
39.1124 1148.00
39.1776 1157.00
39.2428 1144.00
39.308 1194.00
39.3732 1134.00
39.4384 992.00
39.5036 1002.00
39.5688 940.00
39.634 998.00
39.6992 1115.00
39.7644 1110.00
39.8296 1214.00
39.8948 1064.00
39.96 1047.00
40.0252 935.00
40.0904 910.00
40.1556 898.00
40.2208 919.00
40.286 896.00
40.3512 894.00
40.4164 906.00
40.4816 903.00
40.5468 897.00
40.612 850.00
40.6772 865.00
40.7424 896.00
40.8076 962.00
40.8728 1010.00
40.938 1100.00
41.0032 1082.00
41.0684 1130.00
41.1336 1189.00
41.1988 1166.00
41.264 1204.00
41.3292 1299.00
41.3944 1460.00
41.4596 1392.00
41.5248 1523.00
41.59 1710.00
41.6552 1727.00
41.7204 1545.00
41.7856 1440.00
41.8508 1388.00
41.916 1266.00
41.9812 1459.00
42.0464 1424.00
42.1116 1340.00
42.1768 1266.00
42.242 1174.00
42.3072 1162.00
42.3724 1041.00
42.4376 967.00
42.5028 933.00
42.568 928.00
42.6332 860.00
42.6983 841.00
42.7635 868.00
42.8287 853.00
42.8939 918.00
42.9591 887.00
43.0243 896.00
43.0895 811.00
43.1547 861.00
43.2199 901.00
43.2851 913.00
43.3503 895.00
43.4155 833.00
43.4807 953.00
43.5459 814.00
43.6111 908.00
43.6763 845.00
43.7415 835.00
43.8067 907.00
43.8719 883.00
43.9371 943.00
44.0023 1114.00
44.0675 1249.00
44.1327 1420.00
44.1979 1611.00
44.2631 1806.00
44.3283 1744.00
44.3935 1653.00
44.4587 1882.00
44.5239 2234.00
44.5891 2378.00
44.6543 2353.00
44.7195 2099.00
44.7847 1638.00
44.8499 1348.00
44.9151 986.00
44.9803 1026.00
45.0455 991.00
45.1107 896.00
45.1759 925.00
45.2411 853.00
45.3063 901.00
45.3715 911.00
45.4367 877.00
45.5019 898.00
45.5671 871.00
45.6323 907.00
45.6975 964.00
45.7627 989.00
45.8279 945.00
45.8931 1045.00
45.9583 1064.00
46.0235 1087.00
46.0887 1265.00
46.1539 1416.00
46.2191 1587.00
46.2843 1658.00
46.3495 1643.00
46.4147 1532.00
46.4799 1503.00
46.5451 1731.00
46.6103 2078.00
46.6755 2728.00
46.7407 3276.00
46.8059 3417.00
46.8711 2923.00
46.9363 2586.00
47.0015 1857.00
47.0667 1535.00
47.1319 1232.00
47.1971 1117.00
47.2623 999.00
47.3275 949.00
47.3927 863.00
47.4579 796.00
47.523 881.00
47.5882 850.00
47.6534 856.00
47.7186 834.00
47.7838 937.00
47.849 831.00
47.9142 885.00
47.9794 857.00
48.0446 978.00
48.1098 929.00
48.175 917.00
48.2402 930.00
48.3054 947.00
48.3706 951.00
48.4358 986.00
48.501 905.00
48.5662 887.00
48.6314 882.00
48.6966 876.00
48.7618 805.00
48.827 903.00
48.8922 868.00
48.9574 945.00
49.0226 936.00
49.0878 972.00
49.153 1098.00
49.2182 1062.00
49.2834 1052.00
49.3486 1030.00
49.4138 1024.00
49.479 1010.00
49.5442 1029.00
49.6094 1067.00
49.6746 988.00
49.7398 951.00
49.805 977.00
49.8702 854.00
49.9354 838.00
50.0006 863.00
50.0658 932.00
50.131 948.00
50.1962 995.00
50.2614 1058.00
50.3266 1234.00
50.3918 1483.00
50.457 1916.00
50.5222 2228.00
50.5874 2469.00
50.6526 2599.00
50.7178 2612.00
50.783 2505.00
50.8482 2236.00
50.9134 1933.00
50.9786 1587.00
51.0438 1373.00
51.109 1210.00
51.1742 1091.00
51.2394 998.00
51.3046 965.00
51.3698 926.00
51.435 954.00
51.5002 882.00
51.5654 931.00
51.6306 895.00
51.6958 894.00
51.761 840.00
51.8262 877.00
51.8914 810.00
51.9566 828.00
52.0218 903.00
52.087 780.00
52.1522 826.00
52.2174 794.00
52.2826 801.00
52.3477 836.00
52.4129 843.00
52.4781 820.00
52.5433 834.00
52.6085 833.00
52.6737 833.00
52.7389 834.00
52.8041 897.00
52.8693 975.00
52.9345 1107.00
52.9997 1181.00
53.0649 1203.00
53.1301 1303.00
53.1953 1419.00
53.2605 1769.00
53.3257 2203.00
53.3909 2598.00
53.4561 2946.00
53.5213 2939.00
53.5865 2646.00
53.6517 2252.00
53.7169 1753.00
53.7821 1443.00
53.8473 1170.00
53.9125 1033.00
53.9777 936.00
54.0429 884.00
54.1081 839.00
54.1733 853.00
54.2385 909.00
54.3037 946.00
54.3689 933.00
54.4341 984.00
54.4993 920.00
54.5645 980.00
54.6297 896.00
54.6949 941.00
54.7601 933.00
54.8253 950.00
54.8905 966.00
54.9557 960.00
55.0209 909.00
55.0861 872.00
55.1513 911.00
55.2165 831.00
55.2817 864.00
55.3469 867.00
55.4121 825.00
55.4773 834.00
55.5425 888.00
55.6077 945.00
55.6729 982.00
55.7381 936.00
55.8033 915.00
55.8685 994.00
55.9337 923.00
55.9989 880.00
56.0641 893.00
56.1293 831.00
56.1945 837.00
56.2597 856.00
56.3249 896.00
56.3901 865.00
56.4553 939.00
56.5205 843.00
56.5857 803.00
56.6509 833.00
56.7161 806.00
56.7813 790.00
56.8465 858.00
56.9117 825.00
56.9769 810.00
57.042 909.00
57.1073 952.00
57.1724 1006.00
57.2376 918.00
57.3028 885.00
57.368 885.00
57.4332 944.00
57.4984 856.00
57.5636 912.00
57.6288 883.00
57.694 918.00
57.7592 967.00
57.8244 899.00
57.8896 926.00
57.9548 902.00
58.02 971.00
58.0852 969.00
58.1504 1037.00
58.2156 1068.00
58.2808 1063.00
58.346 1137.00
58.4112 1103.00
58.4764 1209.00
58.5416 1258.00
58.6068 1419.00
58.672 1518.00
58.7372 1745.00
58.8024 1858.00
58.8676 2000.00
58.9328 1919.00
58.998 1921.00
59.0632 1997.00
59.1284 2211.00
59.1936 2394.00
59.2588 2424.00
59.324 2208.00
59.3892 1906.00
59.4544 1670.00
59.5196 1367.00
59.5848 1246.00
59.65 1033.00
59.7152 971.00
59.7804 948.00
59.8456 861.00
59.9108 872.00
59.976 867.00
60.0412 908.00
60.1064 962.00
60.1716 1024.00
60.2368 1026.00
60.302 1064.00
60.3672 1147.00
60.4324 1108.00
60.4976 1090.00
60.5628 1070.00
60.628 1027.00
60.6932 983.00
60.7584 988.00
60.8236 1044.00
60.8888 1054.00
60.954 1063.00
61.0192 1064.00
61.0844 1206.00
61.1496 1370.00
61.2148 1513.00
61.28 1580.00
61.3452 1624.00
61.4104 1630.00
61.4756 1574.00
61.5408 1468.00
61.606 1327.00
61.6712 1294.00
61.7364 1245.00
61.8016 1199.00
61.8667 1189.00
61.932 1165.00
61.9971 1185.00
62.0623 1205.00
62.1275 1186.00
62.1927 1155.00
62.2579 1156.00
62.3231 1099.00
62.3883 1199.00
62.4535 1137.00
62.5187 1211.00
62.5839 1239.00
62.6491 1213.00
62.7143 1164.00
62.7795 1156.00
62.8447 1052.00
62.9099 1028.00
62.9751 959.00
63.0403 880.00
63.1055 923.00
63.1707 944.00
63.2359 931.00
63.3011 922.00
63.3663 882.00
63.4315 808.00
63.4967 774.00
63.5619 778.00
63.6271 824.00
63.6923 832.00
63.7575 777.00
63.8227 840.00
63.8879 772.00
63.9531 761.00
64.0183 794.00
64.0835 743.00
64.1487 803.00
64.2139 753.00
64.2791 757.00
64.3443 823.00
64.4095 806.00
64.4747 826.00
64.5399 850.00
64.6051 844.00
64.6703 890.00
64.7355 898.00
64.8007 996.00
64.8659 1059.00
64.9311 1038.00
64.9963 1221.00
65.0615 1179.00
65.1267 1162.00
65.1919 1086.00
65.2571 1065.00
65.3223 1075.00
65.3875 981.00
65.4527 1065.00
65.5179 1062.00
65.5831 1121.00
65.6483 1129.00
65.7135 1108.00
65.7787 1057.00
65.8439 1219.00
65.9091 1197.00
65.9743 1231.00
66.0395 1277.00
66.1047 1358.00
66.1699 1355.00
66.2351 1431.00
66.3003 1413.00
66.3655 1402.00
66.4307 1381.00
66.4959 1285.00
66.561 1325.00
66.6263 1143.00
66.6915 1097.00
66.7566 1037.00
66.8218 963.00
66.887 929.00
66.9522 911.00
67.0174 869.00
67.0826 855.00
67.1478 875.00
67.213 822.00
67.2782 792.00
67.3434 785.00
67.4086 779.00
67.4738 759.00
67.539 736.00
67.6042 777.00
67.6694 759.00
67.7346 724.00
67.7998 816.00
67.865 768.00
67.9302 735.00
67.9954 726.00
68.0606 781.00
68.1258 787.00
68.191 782.00
68.2562 854.00
68.3214 915.00
68.3866 970.00
68.4518 1099.00
68.517 1221.00
68.5822 1207.00
68.6474 1237.00
68.7126 1296.00
68.7778 1154.00
68.843 1099.00
68.9082 1022.00
68.9734 904.00
69.0386 851.00
69.1038 841.00
69.169 790.00
69.2342 852.00
69.2994 808.00
69.3646 836.00
69.4298 750.00
69.495 774.00
69.5602 832.00
69.6254 834.00
69.6906 866.00
69.7558 849.00
69.821 837.00
69.8862 816.00
69.9514 887.00
70.0166 812.00
70.0818 824.00
70.147 777.00
70.2122 734.00
70.2774 794.00
70.3426 799.00
70.4078 802.00
70.473 808.00
70.5382 791.00
70.6034 812.00
70.6686 749.00
70.7338 841.00
70.799 783.00
70.8642 830.00
70.9294 786.00
70.9946 778.00
71.0598 795.00
71.125 809.00
71.1902 787.00
71.2554 819.00
71.3205 751.00
71.3858 824.00
71.451 825.00
71.5162 789.00
71.5813 920.00
71.6465 854.00
71.7117 895.00
71.7769 907.00
71.8421 913.00
71.9073 970.00
71.9725 1039.00
72.0377 1040.00
72.1029 1122.00
72.1681 1179.00
72.2333 1259.00
72.2985 1275.00
72.3637 1196.00
72.4289 1160.00
72.4941 1141.00
72.5593 1085.00
72.6245 1106.00
72.6897 1045.00
72.7549 1061.00
72.8201 1058.00
72.8853 1081.00
72.9505 967.00
73.0157 997.00
73.0809 996.00
73.1461 937.00
73.2113 959.00
73.2765 970.00
73.3417 909.00
73.4069 933.00
73.4721 853.00
73.5373 843.00
73.6025 827.00
73.6677 793.00
73.7329 833.00
73.7981 852.00
73.8633 858.00
73.9285 835.00
73.9937 879.00
74.0589 813.00
74.1241 876.00
74.1893 823.00
74.2545 806.00
74.3197 831.00
74.3849 801.00
74.4501 789.00
74.5153 778.00
74.5805 789.00
74.6457 795.00
74.7109 792.00
74.7761 755.00
74.8413 716.00
74.9065 764.00
74.9717 790.00
75.0369 794.00
75.1021 830.00
75.1673 843.00
75.2325 842.00
75.2977 893.00
75.3629 950.00
75.4281 957.00
75.4933 973.00
75.5585 1077.00
75.6237 1106.00
75.6889 1173.00
75.7541 1147.00
75.8193 1095.00
75.8845 1069.00
75.9497 992.00
76.0149 928.00
76.0801 899.00
76.1452 893.00
76.2104 829.00
76.2756 800.00
76.3409 823.00
76.406 853.00
76.4712 835.00
76.5364 841.00
76.6016 909.00
76.6668 970.00
76.732 883.00
76.7972 956.00
76.8624 994.00
76.9276 921.00
76.9928 998.00
77.058 909.00
77.1232 956.00
77.1884 846.00
77.2536 819.00
77.3188 800.00
77.384 781.00
77.4492 758.00
77.5144 809.00
77.5796 721.00
77.6448 755.00
77.71 773.00
77.7752 704.00
77.8404 701.00
77.9056 744.00
77.9708 734.00
78.036 746.00
78.1012 740.00
78.1664 745.00
78.2316 713.00
78.2968 734.00
78.362 726.00
78.4272 732.00
78.4924 737.00
78.5576 737.00
78.6228 798.00
78.688 750.00
78.7532 755.00
78.8184 750.00
78.8836 751.00
78.9488 681.00
79.014 726.00
79.0792 770.00
79.1444 788.00
79.2096 771.00
79.2748 817.00
79.34 857.00
79.4052 840.00
79.4704 885.00
79.5356 996.00
79.6008 1018.00
79.666 963.00
79.7312 965.00
79.7964 978.00
79.8616 974.00
79.9268 975.00
79.992 958.00
80.0572 900.00
80.1224 971.00
80.1876 967.00
80.2528 972.00
80.318 1080.00
80.3832 1074.00
80.4484 1089.00
80.5136 1117.00
80.5788 1120.00
80.644 1117.00
80.7092 1085.00
80.7744 1062.00
80.8396 1014.00
80.9048 967.00
80.9699 882.00
81.0351 825.00
81.1003 789.00
81.1655 840.00
81.2307 835.00
81.2959 780.00
81.3611 792.00
81.4263 837.00
81.4915 824.00
81.5567 758.00
81.6219 791.00
81.6871 773.00
81.7523 791.00
81.8175 870.00
81.8827 830.00
81.9479 897.00
82.0131 932.00
82.0783 901.00
82.1435 931.00
82.2087 941.00
82.2739 939.00
82.3391 988.00
82.4043 902.00
82.4695 896.00
82.5347 861.00
82.5999 869.00
82.6651 792.00
82.7303 851.00
82.7955 793.00
82.8607 787.00
82.9259 847.00
82.9911 817.00
83.0563 827.00
83.1215 760.00
83.1867 800.00
83.2519 786.00
83.3171 817.00
83.3823 847.00
83.4475 796.00
83.5127 766.00
83.5779 780.00
83.6431 712.00
83.7083 740.00
83.7735 801.00
83.8387 738.00
83.9039 721.00
83.9691 724.00
84.0343 774.00
84.0995 736.00
84.1647 759.00
84.2299 780.00
84.2951 741.00
84.3603 770.00
84.4255 741.00
84.4907 781.00
84.5559 768.00
84.6211 760.00
84.6863 729.00
84.7515 766.00
84.8167 748.00
84.8819 722.00
84.9471 754.00
85.0123 749.00
85.0775 768.00
85.1427 784.00
85.2079 832.00
85.2731 804.00
85.3383 781.00
85.4035 833.00
85.4687 861.00
85.5339 822.00
85.5991 891.00
85.6643 862.00
85.7295 912.00
85.7946 862.00
85.8598 910.00
85.925 883.00
85.9903 919.00
86.0554 909.00
86.1206 870.00
86.1858 898.00
86.251 948.00
86.3162 931.00
86.3814 926.00
86.4466 914.00
86.5118 979.00
86.577 1082.00
86.6422 1118.00
86.7074 1089.00
86.7726 1164.00
86.8378 1203.00
86.903 1122.00
86.9682 1092.00
87.0334 1146.00
87.0986 1023.00
87.1638 1016.00
87.229 991.00
87.2942 946.00
87.3594 915.00
87.4246 886.00
87.4898 884.00
87.555 856.00
87.6202 878.00
87.6854 876.00
87.7506 850.00
87.8158 860.00
87.881 746.00
87.9462 814.00
88.0114 832.00
88.0766 813.00
88.1418 801.00
88.207 845.00
88.2722 780.00
88.3374 778.00
88.4026 757.00
88.4678 793.00
88.533 810.00
88.5982 877.00
88.6634 818.00
88.7286 832.00
88.7938 874.00
88.859 892.00
88.9242 948.00
88.9894 946.00
89.0546 850.00
89.1198 826.00
89.185 947.00
89.2502 961.00
89.3154 922.00
89.3806 854.00
89.4458 892.00
89.511 894.00
89.5762 877.00
89.6414 886.00
89.7066 846.00
89.7718 854.00
89.837 846.00
89.9022 862.00
89.9674 926.00
90.0326 865.00
90.0978 870.00
90.163 890.00
90.2282 840.00
90.2934 901.00
90.3586 924.00
90.4238 959.00
90.489 888.00
90.5542 886.00
90.6193 882.00
90.6845 839.00
90.7497 884.00
90.8149 892.00
90.8801 833.00
90.9453 814.00
91.0105 780.00
91.0757 760.00
91.1409 789.00
91.2061 793.00
91.2713 803.00
91.3365 755.00
91.4017 793.00
91.4669 803.00
91.5321 795.00
91.5973 748.00
91.6625 784.00
91.7277 848.00
91.7929 754.00
91.8581 854.00
91.9233 774.00
91.9885 815.00
92.0537 852.00
92.1189 882.00
92.1841 865.00
92.2493 945.00
92.3145 929.00
92.3797 882.00
92.4449 900.00
92.5101 920.00
92.5753 951.00
92.6405 896.00
92.7057 958.00
92.7709 900.00
92.8361 965.00
92.9013 923.00
92.9665 979.00
93.0317 960.00
93.0969 946.00
93.1621 975.00
93.2273 1004.00
93.2925 1066.00
93.3577 1049.00
93.4229 1042.00
93.4881 976.00
93.5533 1028.00
93.6185 1049.00
93.6837 920.00
93.7489 956.00
93.8141 920.00
93.8793 872.00
93.9445 928.00
94.0097 878.00
94.0749 799.00
94.1401 847.00
94.2053 853.00
94.2705 777.00
94.3357 790.00
94.4009 824.00
94.4661 791.00
94.5313 761.00
94.5965 786.00
94.6617 777.00
94.7269 731.00
94.7921 755.00
94.8573 847.00
94.9225 766.00
94.9877 721.00
95.0529 797.00
95.1181 857.00
95.1833 855.00
95.2485 876.00
95.3137 891.00
95.3789 864.00
95.444 850.00
95.5092 904.00
95.5744 850.00
95.6396 966.00
95.7048 844.00
95.77 883.00
95.8352 878.00
95.9004 932.00
95.9656 811.00
96.0308 812.00
96.096 857.00
96.1612 796.00
96.2264 786.00
96.2916 764.00
96.3568 746.00
96.422 817.00
96.4872 749.00
96.5524 796.00
96.6176 803.00
96.6828 738.00
96.748 811.00
96.8132 786.00
96.8784 811.00
96.9436 769.00
97.0088 864.00
97.074 797.00
97.1392 817.00
97.2044 826.00
97.2696 825.00
97.3348 739.00
97.4 812.00
97.4652 808.00
97.5304 835.00
97.5956 802.00
97.6608 819.00
97.726 748.00
97.7912 824.00
97.8564 797.00
97.9216 821.00
97.9868 815.00
98.052 759.00
98.1172 771.00
98.1824 743.00
98.2476 745.00
98.3128 773.00
98.378 749.00
98.4432 789.00
98.5084 832.00
98.5736 760.00
98.6388 768.00
98.704 808.00
98.7692 784.00
98.8344 795.00
98.8996 816.00
98.9648 861.00
99.03 795.00
99.0952 812.00
99.1604 853.00
99.2256 900.00
99.2908 888.00
99.356 891.00
99.4212 920.00
99.4864 909.00
99.5516 1032.00
99.6168 925.00
99.682 993.00
99.7472 991.00
99.8124 1048.00
99.8776 1110.00
99.9428 1094.00
100.008 1187.00
100.073 1139.00
100.095 1168.00