File: data/xrd_creation/results/NSC_136.xy
9.903433 2673.00
9.968632 2682.00
10.0338 2437.00
10.099 2505.00
10.1642 2499.00
10.2294 2442.00
10.2946 2389.00
10.3598 2465.00
10.425 2366.00
10.4902 2327.00
10.5554 2383.00
10.6206 2365.00
10.6858 2367.00
10.751 2280.00
10.8162 2247.00
10.8814 2351.00
10.9466 2198.00
11.0118 2281.00
11.077 2241.00
11.1422 2159.00
11.2074 2124.00
11.2726 2195.00
11.3378 2082.00
11.403 2139.00
11.4682 2143.00
11.5334 2114.00
11.5986 2129.00
11.6638 2057.00
11.729 2057.00
11.7942 2011.00
11.8594 2049.00
11.9246 2048.00
11.9898 1967.00
12.055 1932.00
12.1202 2017.00
12.1854 1941.00
12.2506 1973.00
12.3158 1869.00
12.381 1865.00
12.4462 1879.00
12.5114 1831.00
12.5766 1887.00
12.6418 1871.00
12.707 1790.00
12.7722 1799.00
12.8374 1793.00
12.9026 1825.00
12.9678 1772.00
13.033 1815.00
13.0982 1803.00
13.1634 1755.00
13.2286 1736.00
13.2938 1779.00
13.359 1690.00
13.4242 1741.00
13.4894 1723.00
13.5546 1729.00
13.6198 1836.00
13.685 1794.00
13.7502 1949.00
13.8154 2142.00
13.8805 2316.00
13.9457 2568.00
14.0109 2711.00
14.0761 2707.00
14.1413 2555.00
14.2065 2357.00
14.2717 2094.00
14.3369 1707.00
14.4021 1712.00
14.4673 1693.00
14.5325 1599.00
14.5977 1608.00
14.6629 1591.00
14.7281 1551.00
14.7933 1596.00
14.8585 1619.00
14.9237 1559.00
14.9889 1568.00
15.0541 1531.00
15.1193 1579.00
15.1845 1522.00
15.2497 1528.00
15.3149 1484.00
15.3801 1517.00
15.4453 1553.00
15.5105 1486.00
15.5757 1459.00
15.6409 1563.00
15.7061 1465.00
15.7713 1480.00
15.8365 1541.00
15.9017 1494.00
15.9669 1538.00
16.0321 1465.00
16.0973 1547.00
16.1625 1502.00
16.2277 1451.00
16.2929 1412.00
16.3581 1503.00
16.4233 1454.00
16.4885 1450.00
16.5537 1399.00
16.6189 1348.00
16.6841 1511.00
16.7493 1391.00
16.8145 1470.00
16.8797 1431.00
16.9449 1417.00
17.0101 1443.00
17.0753 1377.00
17.1405 1484.00
17.2057 1468.00
17.2709 1456.00
17.3361 1421.00
17.4013 1403.00
17.4665 1368.00
17.5317 1475.00
17.5969 1450.00
17.6621 1456.00
17.7273 1526.00
17.7925 1357.00
17.8577 1364.00
17.9229 1312.00
17.9881 1419.00
18.0533 1318.00
18.1185 1311.00
18.1837 1388.00
18.2489 1391.00
18.3141 1367.00
18.3793 1343.00
18.4445 1307.00
18.5097 1302.00
18.5749 1407.00
18.6401 1346.00
18.7052 1372.00
18.7704 1361.00
18.8356 1408.00
18.9008 1405.00
18.966 1482.00
19.0312 1458.00
19.0964 1598.00
19.1616 1814.00
19.2268 2298.00
19.292 3386.00
19.3572 4864.00
19.4224 6461.00
19.4876 7386.00
19.5528 7330.00
19.618 6530.00
19.6832 5660.00
19.7484 4446.00
19.8136 3113.00
19.8788 2373.00
19.944 2500.00
20.0092 3491.00
20.0744 5228.00
20.1396 7265.00
20.2048 8931.00
20.27 9107.00
20.3352 8424.00
20.4004 7006.00
20.4656 5517.00
20.5308 3425.00
20.596 2024.00
20.6612 1573.00
20.7264 1502.00
20.7916 1409.00
20.8568 1326.00
20.922 1446.00
20.9872 1368.00
21.0524 1317.00
21.1176 1316.00
21.1828 1359.00
21.248 1304.00
21.3132 1294.00
21.3784 1189.00
21.4436 1257.00
21.5088 1246.00
21.574 1220.00
21.6392 1186.00
21.7044 1271.00
21.7696 1229.00
21.8348 1242.00
21.9 1201.00
21.9652 1220.00
22.0304 1181.00
22.0956 1229.00
22.1608 1198.00
22.226 1190.00
22.2912 1225.00
22.3564 1154.00
22.4216 1157.00
22.4868 1163.00
22.552 1226.00
22.6172 1132.00
22.6824 1222.00
22.7476 1260.00
22.8128 1196.00
22.878 1248.00
22.9432 1252.00
23.0084 1313.00
23.0736 1353.00
23.1388 1417.00
23.204 1841.00
23.2692 2550.00
23.3344 3390.00
23.3996 3934.00
23.4647 4273.00
23.5299 3927.00
23.5951 3418.00
23.6603 2776.00
23.7255 1989.00
23.7907 1574.00
23.8559 1360.00
23.9211 1230.00
23.9863 1230.00
24.0515 1273.00
24.1167 1262.00
24.1819 1342.00
24.2471 1302.00
24.3123 1340.00
24.3775 1286.00
24.4427 1271.00
24.5079 1254.00
24.5731 1275.00
24.6383 1261.00
24.7035 1302.00
24.7687 1163.00
24.8339 1107.00
24.8991 1108.00
24.9643 1105.00
25.0295 1114.00
25.0947 1101.00
25.1599 1062.00
25.2251 1110.00
25.2903 1024.00
25.3555 1078.00
25.4207 1067.00
25.4859 1112.00
25.5511 1090.00
25.6163 1094.00
25.6815 1045.00
25.7467 1066.00
25.8119 1094.00
25.8771 1042.00
25.9423 1091.00
26.0075 1052.00
26.0727 1095.00
26.1379 1038.00
26.2031 1003.00
26.2683 1005.00
26.3335 1047.00
26.3987 963.00
26.4639 970.00
26.5291 1012.00
26.5943 1026.00
26.6595 984.00
26.7247 999.00
26.7899 1013.00
26.8551 1001.00
26.9203 954.00
26.9855 978.00
27.0507 944.00
27.1159 1054.00
27.1811 1045.00
27.2463 1079.00
27.3115 1007.00
27.3767 979.00
27.4419 1054.00
27.5071 1030.00
27.5723 1076.00
27.6375 1067.00
27.7027 1094.00
27.7679 1160.00
27.8331 1186.00
27.8983 1269.00
27.9635 1584.00
28.0287 2123.00
28.0939 3180.00
28.1591 4838.00
28.2243 6018.00
28.2894 6917.00
28.3546 6978.00
28.4198 6205.00
28.485 4887.00
28.5502 3281.00
28.6154 2111.00
28.6806 1467.00
28.7458 1230.00
28.811 1218.00
28.8762 1115.00
28.9414 1023.00
29.0066 1005.00
29.0718 1063.00
29.137 957.00
29.2022 971.00
29.2674 1006.00
29.3326 1054.00
29.3978 990.00
29.463 1023.00
29.5282 1006.00
29.5934 980.00
29.6586 953.00
29.7238 980.00
29.789 954.00
29.8542 890.00
29.9194 887.00
29.9846 911.00
30.0498 950.00
30.115 995.00
30.1802 964.00
30.2454 963.00
30.3106 989.00
30.3758 1039.00
30.441 964.00
30.5062 1045.00
30.5714 1070.00
30.6366 1076.00
30.7018 1117.00
30.767 1201.00
30.8322 1309.00
30.8974 1570.00
30.9626 2328.00
31.0278 3410.00
31.093 5187.00
31.1582 6904.00
31.2234 7848.00
31.2886 8058.00
31.3538 7385.00
31.419 6085.00
31.4842 4220.00
31.5494 3181.00
31.6146 2742.00
31.6798 2576.00
31.745 2306.00
31.8102 2070.00
31.8754 1657.00
31.9406 1419.00
32.0058 1235.00
32.071 1139.00
32.1362 1209.00
32.2014 1058.00
32.2666 1126.00
32.3318 1024.00
32.397 985.00
32.4622 966.00
32.5274 933.00
32.5926 973.00
32.6578 889.00
32.723 901.00
32.7882 888.00
32.8534 849.00
32.9186 848.00
32.9838 931.00
33.0489 904.00
33.1141 950.00
33.1793 906.00
33.2445 925.00
33.3097 880.00
33.3749 910.00
33.4401 984.00
33.5053 1084.00
33.5705 1240.00
33.6357 1329.00
33.7009 1438.00
33.7661 1482.00
33.8313 1403.00
33.8965 1316.00
33.9617 1213.00
34.0269 1078.00
34.0921 1139.00
34.1573 1128.00
34.2225 1164.00
34.2877 1267.00
34.3529 1362.00
34.4181 1351.00
34.4833 1360.00
34.5485 1391.00
34.6137 1400.00
34.6789 1477.00
34.7441 1716.00
34.8093 2007.00
34.8745 2644.00
34.9397 3457.00
35.0049 4158.00
35.0701 4577.00
35.1353 4479.00
35.2005 4364.00
35.2657 3919.00
35.3309 4085.00
35.3961 4448.00
35.4613 5037.00
35.5265 5161.00
35.5917 4882.00
35.6569 3920.00
35.7221 2794.00
35.7873 1969.00
35.8525 1398.00
35.9177 1216.00
35.9829 1060.00
36.0481 1078.00
36.1133 1007.00
36.1785 970.00
36.2437 976.00
36.3089 957.00
36.3741 956.00
36.4393 841.00
36.5045 859.00
36.5697 899.00
36.6349 795.00
36.7001 789.00
36.7653 852.00
36.8305 819.00
36.8957 794.00
36.9609 824.00
37.0261 775.00
37.0913 825.00
37.1565 806.00
37.2217 793.00
37.2869 806.00
37.3521 817.00
37.4173 786.00
37.4825 788.00
37.5477 788.00
37.6129 781.00
37.6781 732.00
37.7433 800.00
37.8085 789.00
37.8736 807.00
37.9388 821.00
38.004 777.00
38.0692 800.00
38.1344 790.00
38.1996 838.00
38.2648 814.00
38.33 735.00
38.3952 781.00
38.4604 791.00
38.5256 790.00
38.5908 772.00
38.656 899.00
38.7212 901.00
38.7864 850.00
38.8516 893.00
38.9168 901.00
38.982 886.00
39.0472 843.00
39.1124 873.00
39.1776 816.00
39.2428 810.00
39.308 822.00
39.3732 932.00
39.4384 954.00
39.5036 1118.00
39.5688 1249.00
39.634 1405.00
39.6992 1507.00
39.7644 1427.00
39.8296 1208.00
39.8948 1092.00
39.96 982.00
40.0252 841.00
40.0904 837.00
40.1556 864.00
40.2208 800.00
40.286 810.00
40.3512 743.00
40.4164 799.00
40.4816 819.00
40.5468 802.00
40.612 808.00
40.6772 784.00
40.7424 884.00
40.8076 956.00
40.8728 1016.00
40.938 1206.00
41.0032 1454.00
41.0684 1664.00
41.1336 1999.00
41.1988 2306.00
41.264 2355.00
41.3292 2282.00
41.3944 2056.00
41.4596 2108.00
41.5248 2014.00
41.59 1929.00
41.6552 1665.00
41.7204 1499.00
41.7856 1258.00
41.8508 1151.00
41.916 962.00
41.9812 936.00
42.0464 919.00
42.1116 908.00
42.1768 841.00
42.242 906.00
42.3072 839.00
42.3724 827.00
42.4376 811.00
42.5028 776.00
42.568 823.00
42.6332 826.00
42.6983 910.00
42.7635 1105.00
42.8287 1353.00
42.8939 1715.00
42.9591 2200.00
43.0243 2426.00
43.0895 2398.00
43.1547 2180.00
43.2199 1628.00
43.2851 1313.00
43.3503 1035.00
43.4155 947.00
43.4807 903.00
43.5459 909.00
43.6111 955.00
43.6763 981.00
43.7415 1026.00
43.8067 1023.00
43.8719 935.00
43.9371 909.00
44.0023 819.00
44.0675 760.00
44.1327 852.00
44.1979 842.00
44.2631 799.00
44.3283 754.00
44.3935 821.00
44.4587 818.00
44.5239 849.00
44.5891 900.00
44.6543 1023.00
44.7195 1224.00
44.7847 1549.00
44.8499 1992.00
44.9151 2403.00
44.9803 2613.00
45.0455 2485.00
45.1107 2116.00
45.1759 1679.00
45.2411 1416.00
45.3063 1164.00
45.3715 1025.00
45.4367 940.00
45.5019 841.00
45.5671 970.00
45.6323 964.00
45.6975 1091.00
45.7627 1292.00
45.8279 1752.00
45.8931 2220.00
45.9583 2606.00
46.0235 2832.00
46.0887 2721.00
46.1539 2314.00
46.2191 1887.00
46.2843 1430.00
46.3495 1307.00
46.4147 1337.00
46.4799 1500.00
46.5451 1722.00
46.6103 1894.00
46.6755 1975.00
46.7407 1760.00
46.8059 1610.00
46.8711 1334.00
46.9363 1115.00
47.0015 918.00
47.0667 859.00
47.1319 789.00
47.1971 841.00
47.2623 751.00
47.3275 844.00
47.3927 795.00
47.4579 816.00
47.523 941.00
47.5882 957.00
47.6534 1064.00
47.7186 1300.00
47.7838 1652.00
47.849 2220.00
47.9142 2777.00
47.9794 3367.00
48.0446 3506.00
48.1098 3180.00
48.175 2554.00
48.2402 1968.00
48.3054 1416.00
48.3706 1171.00
48.4358 1039.00
48.501 1003.00
48.5662 1040.00
48.6314 1174.00
48.6966 1065.00
48.7618 1053.00
48.827 1021.00
48.8922 922.00
48.9574 866.00
49.0226 807.00
49.0878 794.00
49.153 849.00
49.2182 827.00
49.2834 864.00
49.3486 875.00
49.4138 882.00
49.479 985.00
49.5442 1019.00
49.6094 1086.00
49.6746 1062.00
49.7398 1042.00
49.805 1001.00
49.8702 903.00
49.9354 867.00
50.0006 820.00
50.0658 830.00
50.131 842.00
50.1962 849.00
50.2614 894.00
50.3266 913.00
50.3918 1091.00
50.457 1287.00
50.5222 1332.00
50.5874 1414.00
50.6526 1513.00
50.7178 1411.00
50.783 1534.00
50.8482 1375.00
50.9134 1414.00
50.9786 1506.00
51.0438 1635.00
51.109 1812.00
51.1742 2172.00
51.2394 2635.00
51.3046 3119.00
51.3698 3484.00
51.435 3263.00
51.5002 2883.00
51.5654 2260.00
51.6306 1758.00
51.6958 1454.00
51.761 1232.00
51.8262 1037.00
51.8914 1057.00
51.9566 905.00
52.0218 862.00
52.087 839.00
52.1522 782.00
52.2174 744.00
52.2826 821.00
52.3477 783.00
52.4129 734.00
52.4781 756.00
52.5433 762.00
52.6085 718.00
52.6737 771.00
52.7389 778.00
52.8041 752.00
52.8693 813.00
52.9345 713.00
52.9997 706.00
53.0649 742.00
53.1301 737.00
53.1953 757.00
53.2605 749.00
53.3257 772.00
53.3909 811.00
53.4561 729.00
53.5213 779.00
53.5865 765.00
53.6517 754.00
53.7169 739.00
53.7821 793.00
53.8473 842.00
53.9125 871.00
53.9777 897.00
54.0429 1081.00
54.1081 1207.00
54.1733 1483.00
54.2385 1681.00
54.3037 1764.00
54.3689 1803.00
54.4341 1648.00
54.4993 1454.00
54.5645 1280.00
54.6297 1139.00
54.6949 1010.00
54.7601 1021.00
54.8253 1096.00
54.8905 1169.00
54.9557 1396.00
55.0209 1678.00
55.0861 2130.00
55.1513 2649.00
55.2165 2996.00
55.2817 3204.00
55.3469 3405.00
55.4121 3792.00
55.4773 3876.00
55.5425 3710.00
55.6077 3210.00
55.6729 2886.00
55.7381 2249.00
55.8033 1842.00
55.8685 1581.00
55.9337 1355.00
55.9989 1141.00
56.0641 1071.00
56.1293 986.00
56.1945 918.00
56.2597 926.00
56.3249 1016.00
56.3901 948.00
56.4553 998.00
56.5205 939.00
56.5857 928.00
56.6509 913.00
56.7161 889.00
56.7813 917.00
56.8465 865.00
56.9117 882.00
56.9769 829.00
57.042 815.00
57.1073 822.00
57.1724 822.00
57.2376 847.00
57.3028 779.00
57.368 805.00
57.4332 902.00
57.4984 927.00
57.5636 948.00
57.6288 969.00
57.694 1016.00
57.7592 972.00
57.8244 941.00
57.8896 1040.00
57.9548 1066.00
58.02 1143.00
58.0852 1222.00
58.1504 1301.00
58.2156 1444.00
58.2808 1555.00
58.346 1601.00
58.4112 1661.00
58.4764 1551.00
58.5416 1433.00
58.6068 1343.00
58.672 1258.00
58.7372 1059.00
58.8024 982.00
58.8676 895.00
58.9328 863.00
58.998 801.00
59.0632 831.00
59.1284 815.00
59.1936 773.00
59.2588 764.00
59.324 743.00
59.3892 816.00
59.4544 851.00
59.5196 893.00
59.5848 958.00
59.65 1075.00
59.7152 1271.00
59.7804 1617.00
59.8456 1950.00
59.9108 2229.00
59.976 2292.00
60.0412 2271.00
60.1064 1925.00
60.1716 1726.00
60.2368 1479.00
60.302 1306.00
60.3672 1157.00
60.4324 1163.00
60.4976 1091.00
60.5628 969.00
60.628 955.00
60.6932 1052.00
60.7584 1125.00
60.8236 1207.00
60.8888 1556.00
60.954 1935.00
61.0192 2335.00
61.0844 2554.00
61.1496 2378.00
61.2148 2169.00
61.28 1879.00
61.3452 1592.00
61.4104 1315.00
61.4756 1102.00
61.5408 1086.00
61.606 1017.00
61.6712 1001.00
61.7364 998.00
61.8016 1064.00
61.8667 1102.00
61.932 1047.00
61.9971 1098.00
62.0623 1191.00
62.1275 1312.00
62.1927 1466.00
62.2579 1607.00
62.3231 1690.00
62.3883 1704.00
62.4535 1674.00
62.5187 1497.00
62.5839 1459.00
62.6491 1314.00
62.7143 1263.00
62.7795 1149.00
62.8447 1009.00
62.9099 998.00
62.9751 1018.00
63.0403 974.00
63.1055 1067.00
63.1707 1103.00
63.2359 1219.00
63.3011 1448.00
63.3663 1529.00
63.4315 1660.00
63.4967 1712.00
63.5619 1724.00
63.6271 1829.00
63.6923 1825.00
63.7575 1778.00
63.8227 1736.00
63.8879 1716.00
63.9531 1695.00
64.0183 1472.00
64.0835 1413.00
64.1487 1231.00
64.2139 1109.00
64.2791 935.00
64.3443 915.00
64.4095 858.00
64.4747 846.00
64.5399 809.00
64.6051 788.00
64.6703 879.00
64.7355 788.00
64.8007 870.00
64.8659 775.00
64.9311 842.00
64.9963 860.00
65.0615 884.00
65.1267 867.00
65.1919 870.00
65.2571 873.00
65.3223 892.00
65.3875 857.00
65.4527 833.00
65.5179 860.00
65.5831 884.00
65.6483 934.00
65.7135 902.00
65.7787 894.00
65.8439 1014.00
65.9091 1039.00
65.9743 1189.00
66.0395 1401.00
66.1047 1596.00
66.1699 1697.00
66.2351 1810.00
66.3003 1832.00
66.3655 1613.00
66.4307 1533.00
66.4959 1303.00
66.561 1176.00
66.6263 1030.00
66.6915 856.00
66.7566 887.00
66.8218 862.00
66.887 817.00
66.9522 870.00
67.0174 895.00
67.0826 963.00
67.1478 1120.00
67.213 1201.00
67.2782 1328.00
67.3434 1413.00
67.4086 1376.00
67.4738 1242.00
67.539 1280.00
67.6042 1270.00
67.6694 1279.00
67.7346 1424.00
67.7998 1476.00
67.865 1548.00
67.9302 1480.00
67.9954 1331.00
68.0606 1134.00
68.1258 1015.00
68.191 887.00
68.2562 807.00
68.3214 804.00
68.3866 723.00
68.4518 754.00
68.517 741.00
68.5822 845.00
68.6474 914.00
68.7126 883.00
68.7778 971.00
68.843 1066.00
68.9082 1111.00
68.9734 1114.00
69.0386 1059.00
69.1038 1035.00
69.169 936.00
69.2342 935.00
69.2994 838.00
69.3646 853.00
69.4298 780.00
69.495 779.00
69.5602 795.00
69.6254 722.00
69.6906 783.00
69.7558 775.00
69.821 720.00
69.8862 704.00
69.9514 720.00
70.0166 763.00
70.0818 787.00
70.147 721.00
70.2122 712.00
70.2774 782.00
70.3426 761.00
70.4078 779.00
70.473 736.00
70.5382 805.00
70.6034 806.00
70.6686 796.00
70.7338 857.00
70.799 949.00
70.8642 986.00
70.9294 1173.00
70.9946 1366.00
71.0598 1529.00
71.125 1657.00
71.1902 1483.00
71.2554 1420.00
71.3205 1271.00
71.3858 1218.00
71.451 1149.00
71.5162 1009.00
71.5813 917.00
71.6465 918.00
71.7117 909.00
71.7769 817.00
71.8421 803.00
71.9073 783.00
71.9725 781.00
72.0377 747.00
72.1029 742.00
72.1681 746.00
72.2333 711.00
72.2985 753.00
72.3637 729.00
72.4289 748.00
72.4941 805.00
72.5593 728.00
72.6245 770.00
72.6897 783.00
72.7549 706.00
72.8201 761.00
72.8853 740.00
72.9505 711.00
73.0157 786.00
73.0809 771.00
73.1461 775.00
73.2113 774.00
73.2765 781.00
73.3417 822.00
73.4069 881.00
73.4721 949.00
73.5373 952.00
73.6025 1072.00
73.6677 1227.00
73.7329 1277.00
73.7981 1427.00
73.8633 1372.00
73.9285 1327.00
73.9937 1301.00
74.0589 1286.00
74.1241 1090.00
74.1893 1018.00
74.2545 995.00
74.3197 940.00
74.3849 859.00
74.4501 886.00
74.5153 845.00
74.5805 827.00
74.6457 923.00
74.7109 931.00
74.7761 985.00
74.8413 1095.00
74.9065 1211.00
74.9717 1343.00
75.0369 1360.00
75.1021 1399.00
75.1673 1380.00
75.2325 1404.00
75.2977 1455.00
75.3629 1285.00
75.4281 1190.00
75.4933 1190.00
75.5585 1124.00
75.6237 1075.00
75.6889 993.00
75.7541 992.00
75.8193 889.00
75.8845 891.00
75.9497 804.00
76.0149 799.00
76.0801 762.00
76.1452 700.00
76.2104 751.00
76.2756 737.00
76.3409 720.00
76.406 689.00
76.4712 710.00
76.5364 701.00
76.6016 720.00
76.6668 765.00
76.732 729.00
76.7972 774.00
76.8624 829.00
76.9276 826.00
76.9928 803.00
77.058 868.00
77.1232 911.00
77.1884 862.00
77.2536 888.00
77.3188 976.00
77.384 925.00
77.4492 918.00
77.5144 852.00
77.5796 910.00
77.6448 877.00
77.71 836.00
77.7752 828.00
77.8404 840.00
77.9056 781.00
77.9708 803.00
78.036 839.00
78.1012 820.00
78.1664 823.00
78.2316 885.00
78.2968 961.00
78.362 1107.00
78.4272 1128.00
78.4924 1269.00
78.5576 1336.00
78.6228 1450.00
78.688 1505.00
78.7532 1525.00
78.8184 1596.00
78.8836 1665.00
78.9488 1592.00
79.014 1463.00
79.0792 1413.00
79.1444 1249.00
79.2096 1163.00
79.2748 1057.00
79.34 1025.00
79.4052 906.00
79.4704 917.00
79.5356 896.00
79.6008 828.00
79.666 870.00
79.7312 826.00
79.7964 929.00
79.8616 974.00
79.9268 895.00
79.992 870.00
80.0572 847.00
80.1224 854.00
80.1876 820.00
80.2528 755.00
80.318 795.00
80.3832 820.00
80.4484 780.00
80.5136 810.00
80.5788 842.00
80.644 879.00
80.7092 897.00
80.7744 984.00
80.8396 1004.00
80.9048 1174.00
80.9699 1312.00
81.0351 1312.00
81.1003 1239.00
81.1655 1219.00
81.2307 1111.00
81.2959 1017.00
81.3611 985.00
81.4263 873.00
81.4915 785.00
81.5567 806.00
81.6219 808.00
81.6871 752.00
81.7523 878.00
81.8175 789.00
81.8827 769.00
81.9479 776.00
82.0131 767.00
82.0783 818.00
82.1435 816.00
82.2087 796.00
82.2739 854.00
82.3391 832.00
82.4043 866.00
82.4695 900.00
82.5347 835.00
82.5999 865.00
82.6651 901.00
82.7303 922.00
82.7955 864.00
82.8607 810.00
82.9259 789.00
82.9911 802.00
83.0563 837.00
83.1215 790.00
83.1867 910.00
83.2519 882.00
83.3171 1069.00
83.3823 1229.00
83.4475 1291.00
83.5127 1300.00
83.5779 1277.00
83.6431 1241.00
83.7083 1169.00
83.7735 1153.00
83.8387 1087.00
83.9039 1006.00
83.9691 882.00
84.0343 882.00
84.0995 893.00
84.1647 839.00
84.2299 838.00
84.2951 841.00
84.3603 785.00
84.4255 822.00
84.4907 843.00
84.5559 893.00
84.6211 899.00
84.6863 959.00
84.7515 960.00
84.8167 964.00
84.8819 1053.00
84.9471 993.00
85.0123 1009.00
85.0775 998.00
85.1427 963.00
85.2079 917.00
85.2731 959.00
85.3383 951.00
85.4035 995.00
85.4687 1057.00
85.5339 1018.00
85.5991 1047.00
85.6643 1041.00
85.7295 970.00
85.7946 1034.00
85.8598 951.00
85.925 947.00
85.9903 972.00
86.0554 969.00
86.1206 997.00
86.1858 978.00
86.251 969.00
86.3162 966.00
86.3814 930.00
86.4466 902.00
86.5118 919.00
86.577 889.00
86.6422 851.00
86.7074 952.00
86.7726 950.00
86.8378 894.00
86.903 922.00
86.9682 894.00
87.0334 816.00
87.0986 807.00
87.1638 826.00
87.229 823.00
87.2942 769.00
87.3594 739.00
87.4246 734.00
87.4898 737.00
87.555 755.00
87.6202 731.00
87.6854 800.00
87.7506 739.00
87.8158 772.00
87.881 803.00
87.9462 897.00
88.0114 1028.00
88.0766 941.00
88.1418 1007.00
88.207 930.00
88.2722 974.00
88.3374 937.00
88.4026 936.00
88.4678 907.00
88.533 915.00
88.5982 861.00
88.6634 795.00
88.7286 863.00
88.7938 855.00
88.859 879.00
88.9242 924.00
88.9894 974.00
89.0546 1003.00
89.1198 1005.00
89.185 1045.00
89.2502 1109.00
89.3154 1103.00
89.3806 1265.00
89.4458 1376.00
89.511 1413.00
89.5762 1427.00
89.6414 1447.00
89.7066 1322.00
89.7718 1316.00
89.837 1297.00
89.9022 1195.00
89.9674 1109.00
90.0326 1070.00
90.0978 1005.00
90.163 979.00
90.2282 886.00
90.2934 966.00
90.3586 898.00
90.4238 926.00
90.489 831.00
90.5542 886.00
90.6193 837.00
90.6845 823.00
90.7497 833.00
90.8149 779.00
90.8801 821.00
90.9453 777.00
91.0105 822.00
91.0757 824.00
91.1409 827.00
91.2061 875.00
91.2713 863.00
91.3365 889.00
91.4017 868.00
91.4669 964.00
91.5321 1029.00
91.5973 1063.00
91.6625 1121.00
91.7277 1104.00
91.7929 1175.00
91.8581 1119.00
91.9233 1015.00
91.9885 1003.00
92.0537 965.00
92.1189 946.00
92.1841 874.00
92.2493 949.00
92.3145 860.00
92.3797 873.00
92.4449 925.00
92.5101 977.00
92.5753 966.00
92.6405 942.00
92.7057 933.00
92.7709 984.00
92.8361 940.00
92.9013 855.00
92.9665 887.00
93.0317 787.00
93.0969 782.00
93.1621 861.00
93.2273 808.00
93.2925 743.00
93.3577 802.00
93.4229 765.00
93.4881 783.00
93.5533 836.00
93.6185 846.00
93.6837 914.00
93.7489 891.00
93.8141 1007.00
93.8793 912.00
93.9445 974.00
94.0097 986.00
94.0749 1075.00
94.1401 1004.00
94.2053 1000.00
94.2705 977.00
94.3357 951.00
94.4009 966.00
94.4661 914.00
94.5313 872.00
94.5965 895.00
94.6617 935.00
94.7269 915.00
94.7921 892.00
94.8573 889.00
94.9225 962.00
94.9877 997.00
95.0529 1053.00
95.1181 1134.00
95.1833 1115.00
95.2485 1097.00
95.3137 1077.00
95.3789 1051.00
95.444 1080.00
95.5092 1037.00
95.5744 937.00
95.6396 1041.00
95.7048 976.00
95.77 937.00
95.8352 916.00
95.9004 934.00
95.9656 936.00
96.0308 1000.00
96.096 1036.00
96.1612 1085.00
96.2264 1083.00
96.2916 1061.00
96.3568 1116.00
96.422 1076.00
96.4872 1085.00
96.5524 1115.00
96.6176 1157.00
96.6828 1193.00
96.748 1103.00
96.8132 1129.00
96.8784 1023.00
96.9436 999.00
97.0088 1036.00
97.074 919.00
97.1392 906.00
97.2044 940.00
97.2696 921.00
97.3348 863.00
97.4 814.00
97.4652 854.00
97.5304 862.00
97.5956 850.00
97.6608 844.00
97.726 841.00
97.7912 776.00
97.8564 774.00
97.9216 772.00
97.9868 802.00
98.052 779.00
98.1172 774.00
98.1824 758.00
98.2476 773.00
98.3128 739.00
98.378 748.00
98.4432 744.00
98.5084 791.00
98.5736 767.00
98.6388 765.00
98.704 790.00
98.7692 819.00
98.8344 858.00
98.8996 956.00
98.9648 994.00
99.03 993.00
99.0952 959.00
99.1604 929.00
99.2256 944.00
99.2908 976.00
99.356 945.00
99.4212 1015.00
99.4864 941.00
99.5516 963.00
99.6168 1002.00
99.682 981.00
99.7472 1002.00
99.8124 1032.00
99.8776 1023.00
99.9428 1085.00
100.008 1130.00
100.073 1123.00
100.095 1183.00