File: data/xrd_creation/results/NSC_94.xy
9.903433 2766.00
9.968632 2814.00
10.0338 2777.00
10.099 2671.00
10.1642 2716.00
10.2294 2643.00
10.2946 2646.00
10.3598 2570.00
10.425 2517.00
10.4902 2600.00
10.5554 2593.00
10.6206 2550.00
10.6858 2442.00
10.751 2398.00
10.8162 2375.00
10.8814 2514.00
10.9466 2370.00
11.0118 2405.00
11.077 2364.00
11.1422 2397.00
11.2074 2288.00
11.2726 2331.00
11.3378 2279.00
11.403 2214.00
11.4682 2246.00
11.5334 2195.00
11.5986 2293.00
11.6638 2192.00
11.729 2255.00
11.7942 2248.00
11.8594 2167.00
11.9246 2158.00
11.9898 2150.00
12.055 2060.00
12.1202 2121.00
12.1854 1993.00
12.2506 2029.00
12.3158 1971.00
12.381 2050.00
12.4462 1957.00
12.5114 2022.00
12.5766 2037.00
12.6418 1970.00
12.707 2041.00
12.7722 1988.00
12.8374 1902.00
12.9026 1913.00
12.9678 1911.00
13.033 1875.00
13.0982 1841.00
13.1634 1796.00
13.2286 1815.00
13.2938 1835.00
13.359 1888.00
13.4242 1821.00
13.4894 1874.00
13.5546 1823.00
13.6198 1820.00
13.685 1870.00
13.7502 1840.00
13.8154 1861.00
13.8805 1847.00
13.9457 1891.00
14.0109 1904.00
14.0761 1913.00
14.1413 2152.00
14.2065 2414.00
14.2717 2727.00
14.3369 2763.00
14.4021 2787.00
14.4673 2460.00
14.5325 2045.00
14.5977 1749.00
14.6629 1749.00
14.7281 1680.00
14.7933 1637.00
14.8585 1641.00
14.9237 1600.00
14.9889 1636.00
15.0541 1662.00
15.1193 1597.00
15.1845 1537.00
15.2497 1613.00
15.3149 1528.00
15.3801 1549.00
15.4453 1593.00
15.5105 1630.00
15.5757 1567.00
15.6409 1646.00
15.7061 1599.00
15.7713 1598.00
15.8365 1477.00
15.9017 1529.00
15.9669 1577.00
16.0321 1647.00
16.0973 1532.00
16.1625 1492.00
16.2277 1562.00
16.2929 1530.00
16.3581 1531.00
16.4233 1569.00
16.4885 1477.00
16.5537 1458.00
16.6189 1542.00
16.6841 1557.00
16.7493 1490.00
16.8145 1497.00
16.8797 1491.00
16.9449 1472.00
17.0101 1503.00
17.0753 1435.00
17.1405 1495.00
17.2057 1456.00
17.2709 1439.00
17.3361 1441.00
17.4013 1442.00
17.4665 1394.00
17.5317 1459.00
17.5969 1413.00
17.6621 1447.00
17.7273 1441.00
17.7925 1498.00
17.8577 1527.00
17.9229 1441.00
17.9881 1426.00
18.0533 1361.00
18.1185 1350.00
18.1837 1286.00
18.2489 1414.00
18.3141 1298.00
18.3793 1264.00
18.4445 1403.00
18.5097 1312.00
18.5749 1335.00
18.6401 1364.00
18.7052 1357.00
18.7704 1287.00
18.8356 1302.00
18.9008 1346.00
18.966 1328.00
19.0312 1393.00
19.0964 1341.00
19.1616 1360.00
19.2268 1384.00
19.292 1416.00
19.3572 1461.00
19.4224 1479.00
19.4876 1685.00
19.5528 2018.00
19.618 2413.00
19.6832 3554.00
19.7484 4985.00
19.8136 5937.00
19.8788 5625.00
19.944 4168.00
20.0092 2568.00
20.0744 1755.00
20.1396 1511.00
20.2048 1461.00
20.27 1440.00
20.3352 1443.00
20.4004 1483.00
20.4656 1587.00
20.5308 1721.00
20.596 2236.00
20.6612 2993.00
20.7264 4444.00
20.7916 6295.00
20.8568 6972.00
20.922 6057.00
20.9872 4154.00
21.0524 2449.00
21.1176 1675.00
21.1828 1489.00
21.248 1360.00
21.3132 1316.00
21.3784 1246.00
21.4436 1261.00
21.5088 1239.00
21.574 1231.00
21.6392 1228.00
21.7044 1207.00
21.7696 1209.00
21.8348 1162.00
21.9 1159.00
21.9652 1078.00
22.0304 1154.00
22.0956 1177.00
22.1608 1177.00
22.226 1093.00
22.2912 1108.00
22.3564 1152.00
22.4216 1070.00
22.4868 1102.00
22.552 1126.00
22.6172 1101.00
22.6824 1046.00
22.7476 1098.00
22.8128 1044.00
22.878 1064.00
22.9432 1033.00
23.0084 1069.00
23.0736 1141.00
23.1388 1058.00
23.204 1054.00
23.2692 1048.00
23.3344 1080.00
23.3996 1106.00
23.4647 1138.00
23.5299 1179.00
23.5951 1230.00
23.6603 1309.00
23.7255 1456.00
23.7907 1737.00
23.8559 2406.00
23.9211 3335.00
23.9863 4295.00
24.0515 4381.00
24.1167 3421.00
24.1819 2277.00
24.2471 1497.00
24.3123 1228.00
24.3775 1070.00
24.4427 1064.00
24.5079 1122.00
24.5731 1044.00
24.6383 1005.00
24.7035 951.00
24.7687 969.00
24.8339 1003.00
24.8991 999.00
24.9643 979.00
25.0295 1003.00
25.0947 958.00
25.1599 1035.00
25.2251 969.00
25.2903 963.00
25.3555 891.00
25.4207 913.00
25.4859 877.00
25.5511 967.00
25.6163 936.00
25.6815 956.00
25.7467 940.00
25.8119 888.00
25.8771 929.00
25.9423 929.00
26.0075 888.00
26.0727 916.00
26.1379 903.00
26.2031 950.00
26.2683 883.00
26.3335 907.00
26.3987 1040.00
26.4639 1092.00
26.5291 1274.00
26.5943 1275.00
26.6595 1198.00
26.7247 1118.00
26.7899 891.00
26.8551 882.00
26.9203 857.00
26.9855 858.00
27.0507 861.00
27.1159 915.00
27.1811 841.00
27.2463 778.00
27.3115 862.00
27.3767 815.00
27.4419 848.00
27.5071 844.00
27.5723 855.00
27.6375 799.00
27.7027 825.00
27.7679 784.00
27.8331 775.00
27.8983 791.00
27.9635 848.00
28.0287 866.00
28.0939 824.00
28.1591 892.00
28.2243 873.00
28.2894 862.00
28.3546 851.00
28.4198 848.00
28.485 920.00
28.5502 963.00
28.6154 1065.00
28.6806 1262.00
28.7458 1734.00
28.811 2660.00
28.8762 3803.00
28.9414 4544.00
29.0066 4162.00
29.0718 2810.00
29.137 1689.00
29.2022 1112.00
29.2674 1020.00
29.3326 835.00
29.3978 789.00
29.463 806.00
29.5282 792.00
29.5934 790.00
29.6586 776.00
29.7238 757.00
29.789 750.00
29.8542 718.00
29.9194 755.00
29.9846 714.00
30.0498 731.00
30.115 742.00
30.1802 761.00
30.2454 716.00
30.3106 726.00
30.3758 701.00
30.441 697.00
30.5062 733.00
30.5714 691.00
30.6366 728.00
30.7018 752.00
30.767 737.00
30.8322 721.00
30.8974 780.00
30.9626 797.00
31.0278 814.00
31.093 773.00
31.1582 813.00
31.2234 830.00
31.2886 843.00
31.3538 935.00
31.419 995.00
31.4842 1180.00
31.5494 1674.00
31.6146 2716.00
31.6798 4692.00
31.745 6478.00
31.8102 6695.00
31.8754 5202.00
31.9406 2966.00
32.0058 1611.00
32.071 1138.00
32.1362 1057.00
32.2014 992.00
32.2666 1136.00
32.3318 1246.00
32.397 1268.00
32.4622 1059.00
32.5274 856.00
32.5926 753.00
32.6578 714.00
32.723 643.00
32.7882 675.00
32.8534 731.00
32.9186 681.00
32.9838 666.00
33.0489 662.00
33.1141 676.00
33.1793 726.00
33.2445 676.00
33.3097 630.00
33.3749 647.00
33.4401 637.00
33.5053 659.00
33.5705 672.00
33.6357 678.00
33.7009 730.00
33.7661 872.00
33.8313 974.00
33.8965 1067.00
33.9617 1065.00
34.0269 1065.00
34.0921 970.00
34.1573 844.00
34.2225 763.00
34.2877 748.00
34.3529 596.00
34.4181 653.00
34.4833 628.00
34.5485 655.00
34.6137 647.00
34.6789 606.00
34.7441 643.00
34.8093 572.00
34.8745 607.00
34.9397 590.00
35.0049 618.00
35.0701 655.00
35.1353 609.00
35.2005 629.00
35.2657 613.00
35.3309 629.00
35.3961 670.00
35.4613 647.00
35.5265 629.00
35.5917 693.00
35.6569 720.00
35.7221 910.00
35.7873 1247.00
35.8525 1826.00
35.9177 2400.00
35.9829 2556.00
36.0481 2144.00
36.1133 1455.00
36.1785 1103.00
36.2437 989.00
36.3089 1070.00
36.3741 1450.00
36.4393 2149.00
36.5045 2983.00
36.5697 3329.00
36.6349 2845.00
36.7001 2112.00
36.7653 1332.00
36.8305 834.00
36.8957 744.00
36.9609 695.00
37.0261 669.00
37.0913 641.00
37.1565 632.00
37.2217 630.00
37.2869 588.00
37.3521 559.00
37.4173 571.00
37.4825 578.00
37.5477 501.00
37.6129 593.00
37.6781 554.00
37.7433 541.00
37.8085 582.00
37.8736 587.00
37.9388 643.00
38.004 592.00
38.0692 589.00
38.1344 576.00
38.1996 556.00
38.2648 511.00
38.33 561.00
38.3952 595.00
38.4604 616.00
38.5256 685.00
38.5908 728.00
38.656 682.00
38.7212 613.00
38.7864 542.00
38.8516 518.00
38.9168 510.00
38.982 561.00
39.0472 489.00
39.1124 502.00
39.1776 512.00
39.2428 477.00
39.308 492.00
39.3732 524.00
39.4384 492.00
39.5036 448.00
39.5688 524.00
39.634 508.00
39.6992 531.00
39.7644 507.00
39.8296 477.00
39.8948 498.00
39.96 502.00
40.0252 538.00
40.0904 523.00
40.1556 696.00
40.2208 819.00
40.286 929.00
40.3512 941.00
40.4164 797.00
40.4816 656.00
40.5468 562.00
40.612 475.00
40.6772 535.00
40.7424 459.00
40.8076 449.00
40.8728 453.00
40.938 458.00
41.0032 501.00
41.0684 506.00
41.1336 489.00
41.1988 461.00
41.264 448.00
41.3292 473.00
41.3944 476.00
41.4596 529.00
41.5248 482.00
41.59 494.00
41.6552 581.00
41.7204 635.00
41.7856 791.00
41.8508 1064.00
41.916 1192.00
41.9812 1141.00
42.0464 953.00
42.1116 775.00
42.1768 642.00
42.242 658.00
42.3072 704.00
42.3724 929.00
42.4376 1068.00
42.5028 1064.00
42.568 944.00
42.6332 803.00
42.6983 632.00
42.7635 558.00
42.8287 533.00
42.8939 577.00
42.9591 565.00
43.0243 549.00
43.0895 489.00
43.1547 520.00
43.2199 481.00
43.2851 450.00
43.3503 444.00
43.4155 456.00
43.4807 469.00
43.5459 449.00
43.6111 476.00
43.6763 470.00
43.7415 523.00
43.8067 585.00
43.8719 749.00
43.9371 1102.00
44.0023 1428.00
44.0675 1481.00
44.1327 1370.00
44.1979 1090.00
44.2631 754.00
44.3283 635.00
44.3935 512.00
44.4587 498.00
44.5239 498.00
44.5891 505.00
44.6543 458.00
44.7195 474.00
44.7847 469.00
44.8499 467.00
44.9151 519.00
44.9803 621.00
45.0455 649.00
45.1107 683.00
45.1759 598.00
45.2411 538.00
45.3063 482.00
45.3715 521.00
45.4367 486.00
45.5019 521.00
45.5671 529.00
45.6323 675.00
45.6975 1031.00
45.7627 1504.00
45.8279 1636.00
45.8931 1563.00
45.9583 1103.00
46.0235 778.00
46.0887 611.00
46.1539 500.00
46.2191 462.00
46.2843 447.00
46.3495 433.00
46.4147 441.00
46.4799 433.00
46.5451 455.00
46.6103 459.00
46.6755 422.00
46.7407 409.00
46.8059 486.00
46.8711 499.00
46.9363 558.00
47.0015 541.00
47.0667 726.00
47.1319 1078.00
47.1971 1736.00
47.2623 2298.00
47.3275 2340.00
47.3927 1979.00
47.4579 1420.00
47.523 894.00
47.5882 679.00
47.6534 531.00
47.7186 477.00
47.7838 475.00
47.849 459.00
47.9142 425.00
47.9794 475.00
48.0446 446.00
48.1098 468.00
48.175 421.00
48.2402 433.00
48.3054 433.00
48.3706 534.00
48.4358 483.00
48.501 587.00
48.5662 511.00
48.6314 521.00
48.6966 544.00
48.7618 517.00
48.827 573.00
48.8922 575.00
48.9574 702.00
49.0226 915.00
49.0878 1485.00
49.153 2204.00
49.2182 2468.00
49.2834 2246.00
49.3486 1691.00
49.4138 1148.00
49.479 755.00
49.5442 538.00
49.6094 500.00
49.6746 453.00
49.7398 508.00
49.805 442.00
49.8702 488.00
49.9354 467.00
50.0006 546.00
50.0658 571.00
50.131 610.00
50.1962 637.00
50.2614 565.00
50.3266 475.00
50.3918 453.00
50.457 408.00
50.5222 356.00
50.5874 375.00
50.6526 424.00
50.7178 402.00
50.783 394.00
50.8482 354.00
50.9134 358.00
50.9786 402.00
51.0438 410.00
51.109 373.00
51.1742 355.00
51.2394 392.00
51.3046 388.00
51.3698 406.00
51.435 374.00
51.5002 437.00
51.5654 484.00
51.6306 493.00
51.6958 603.00
51.761 764.00
51.8262 776.00
51.8914 785.00
51.9566 847.00
52.0218 832.00
52.087 1371.00
52.1522 1972.00
52.2174 2408.00
52.2826 2281.00
52.3477 1784.00
52.4129 1226.00
52.4781 855.00
52.5433 609.00
52.6085 497.00
52.6737 466.00
52.7389 453.00
52.8041 402.00
52.8693 433.00
52.9345 485.00
52.9997 595.00
53.0649 507.00
53.1301 555.00
53.1953 484.00
53.2605 433.00
53.3257 425.00
53.3909 398.00
53.4561 333.00
53.5213 339.00
53.5865 350.00
53.6517 352.00
53.7169 369.00
53.7821 369.00
53.8473 350.00
53.9125 338.00
53.9777 328.00
54.0429 363.00
54.1081 354.00
54.1733 320.00
54.2385 359.00
54.3037 389.00
54.3689 455.00
54.4341 395.00
54.4993 380.00
54.5645 362.00
54.6297 404.00
54.6949 444.00
54.7601 430.00
54.8253 432.00
54.8905 409.00
54.9557 385.00
55.0209 361.00
55.0861 333.00
55.1513 373.00
55.2165 404.00
55.2817 410.00
55.3469 485.00
55.4121 620.00
55.4773 863.00
55.5425 956.00
55.6077 926.00
55.6729 846.00
55.7381 664.00
55.8033 507.00
55.8685 454.00
55.9337 442.00
55.9989 352.00
56.0641 395.00
56.1293 372.00
56.1945 402.00
56.2597 408.00
56.3249 445.00
56.3901 435.00
56.4553 488.00
56.5205 524.00
56.5857 571.00
56.6509 743.00
56.7161 1033.00
56.7813 1410.00
56.8465 1429.00
56.9117 1459.00
56.9769 1271.00
57.042 1218.00
57.1073 1323.00
57.1724 1675.00
57.2376 1862.00
57.3028 2018.00
57.368 1693.00
57.4332 1293.00
57.4984 973.00
57.5636 707.00
57.6288 520.00
57.694 445.00
57.7592 425.00
57.8244 478.00
57.8896 396.00
57.9548 417.00
58.02 419.00
58.0852 393.00
58.1504 384.00
58.2156 437.00
58.2808 426.00
58.346 436.00
58.4112 410.00
58.4764 471.00
58.5416 525.00
58.6068 668.00
58.672 779.00
58.7372 846.00
58.8024 799.00
58.8676 779.00
58.9328 614.00
58.998 506.00
59.0632 438.00
59.1284 437.00
59.1936 365.00
59.2588 346.00
59.324 372.00
59.3892 365.00
59.4544 358.00
59.5196 380.00
59.5848 337.00
59.65 323.00
59.7152 320.00
59.7804 384.00
59.8456 435.00
59.9108 534.00
59.976 634.00
60.0412 541.00
60.1064 523.00
60.1716 455.00
60.2368 416.00
60.302 337.00
60.3672 365.00
60.4324 347.00
60.4976 351.00
60.5628 331.00
60.628 356.00
60.6932 355.00
60.7584 369.00
60.8236 372.00
60.8888 389.00
60.954 460.00
61.0192 539.00
61.0844 830.00
61.1496 1266.00
61.2148 1461.00
61.28 1476.00
61.3452 1177.00
61.4104 919.00
61.4756 667.00
61.5408 524.00
61.606 458.00
61.6712 411.00
61.7364 410.00
61.8016 421.00
61.8667 455.00
61.932 478.00
61.9971 468.00
62.0623 497.00
62.1275 476.00
62.1927 518.00
62.2579 527.00
62.3231 536.00
62.3883 482.00
62.4535 481.00
62.5187 478.00
62.5839 586.00
62.6491 726.00
62.7143 1031.00
62.7795 1507.00
62.8447 1730.00
62.9099 1681.00
62.9751 1688.00
63.0403 1492.00
63.1055 1258.00
63.1707 1031.00
63.2359 877.00
63.3011 652.00
63.3663 556.00
63.4315 474.00
63.4967 387.00
63.5619 382.00
63.6271 372.00
63.6923 350.00
63.7575 363.00
63.8227 351.00
63.8879 352.00
63.9531 366.00
64.0183 357.00
64.0835 361.00
64.1487 448.00
64.2139 479.00
64.2791 485.00
64.3443 498.00
64.4095 446.00
64.4747 393.00
64.5399 408.00
64.6051 401.00
64.6703 411.00
64.7355 395.00
64.8007 389.00
64.8659 425.00
64.9311 401.00
64.9963 386.00
65.0615 433.00
65.1267 400.00
65.1919 468.00
65.2571 577.00
65.3223 824.00
65.3875 1014.00
65.4527 1031.00
65.5179 1003.00
65.5831 955.00
65.6483 875.00
65.7135 863.00
65.7787 988.00
65.8439 964.00
65.9091 958.00
65.9743 862.00
66.0395 792.00
66.1047 679.00
66.1699 497.00
66.2351 441.00
66.3003 450.00
66.3655 351.00
66.4307 383.00
66.4959 349.00
66.561 354.00
66.6263 337.00
66.6915 342.00
66.7566 355.00
66.8218 402.00
66.887 393.00
66.9522 436.00
67.0174 604.00
67.0826 761.00
67.1478 909.00
67.213 945.00
67.2782 872.00
67.3434 782.00
67.4086 702.00
67.4738 507.00
67.539 450.00
67.6042 422.00
67.6694 394.00
67.7346 391.00
67.7998 388.00
67.865 339.00
67.9302 358.00
67.9954 350.00
68.0606 333.00
68.1258 311.00
68.191 287.00
68.2562 298.00
68.3214 308.00
68.3866 293.00
68.4518 248.00
68.517 294.00
68.5822 307.00
68.6474 321.00
68.7126 265.00
68.7778 333.00
68.843 292.00
68.9082 308.00
68.9734 287.00
69.0386 330.00
69.1038 345.00
69.169 340.00
69.2342 434.00
69.2994 547.00
69.3646 721.00
69.4298 990.00
69.495 1063.00
69.5602 986.00
69.6254 821.00
69.6906 763.00
69.7558 607.00
69.821 475.00
69.8862 363.00
69.9514 349.00
70.0166 298.00
70.0818 336.00
70.147 339.00
70.2122 309.00
70.2774 319.00
70.3426 312.00
70.4078 286.00
70.473 306.00
70.5382 307.00
70.6034 291.00
70.6686 339.00
70.7338 321.00
70.799 377.00
70.8642 381.00
70.9294 480.00
70.9946 461.00
71.0598 426.00
71.125 495.00
71.1902 436.00
71.2554 476.00
71.3205 443.00
71.3858 399.00
71.451 393.00
71.5162 383.00
71.5813 310.00
71.6465 361.00
71.7117 350.00
71.7769 360.00
71.8421 356.00
71.9073 308.00
71.9725 325.00
72.0377 330.00
72.1029 315.00
72.1681 296.00
72.2333 301.00
72.2985 305.00
72.3637 299.00
72.4289 305.00
72.4941 272.00
72.5593 308.00
72.6245 307.00
72.6897 313.00
72.7549 319.00
72.8201 303.00
72.8853 256.00
72.9505 295.00
73.0157 304.00
73.0809 323.00
73.1461 342.00
73.2113 380.00
73.2765 491.00
73.3417 584.00
73.4069 711.00
73.4721 754.00
73.5373 712.00
73.6025 643.00
73.6677 623.00
73.7329 479.00
73.7981 437.00
73.8633 348.00
73.9285 357.00
73.9937 317.00
74.0589 289.00
74.1241 338.00
74.1893 305.00
74.2545 292.00
74.3197 293.00
74.3849 263.00
74.4501 298.00
74.5153 310.00
74.5805 305.00
74.6457 318.00
74.7109 310.00
74.7761 345.00
74.8413 343.00
74.9065 404.00
74.9717 449.00
75.0369 565.00
75.1021 708.00
75.1673 712.00
75.2325 627.00
75.2977 560.00
75.3629 556.00
75.4281 480.00
75.4933 392.00
75.5585 370.00
75.6237 420.00
75.6889 427.00
75.7541 414.00
75.8193 402.00
75.8845 393.00
75.9497 438.00
76.0149 410.00
76.0801 433.00
76.1452 480.00
76.2104 464.00
76.2756 418.00
76.3409 390.00
76.406 357.00
76.4712 388.00
76.5364 302.00
76.6016 318.00
76.6668 295.00
76.732 262.00
76.7972 292.00
76.8624 309.00
76.9276 298.00
76.9928 271.00
77.058 277.00
77.1232 262.00
77.1884 301.00
77.2536 302.00
77.3188 353.00
77.384 372.00
77.4492 406.00
77.5144 415.00
77.5796 473.00
77.6448 594.00
77.71 639.00
77.7752 543.00
77.8404 557.00
77.9056 570.00
77.9708 492.00
78.036 484.00
78.1012 369.00
78.1664 360.00
78.2316 327.00
78.2968 341.00
78.362 313.00
78.4272 260.00
78.4924 289.00
78.5576 303.00
78.6228 338.00
78.688 312.00
78.7532 351.00
78.8184 337.00
78.8836 377.00
78.9488 381.00
79.014 426.00
79.0792 379.00
79.1444 336.00
79.2096 346.00
79.2748 360.00
79.34 294.00
79.4052 328.00
79.4704 333.00
79.5356 396.00
79.6008 367.00
79.666 345.00
79.7312 312.00
79.7964 370.00
79.8616 335.00
79.9268 360.00
79.992 327.00
80.0572 314.00
80.1224 308.00
80.1876 372.00
80.2528 296.00
80.318 352.00
80.3832 272.00
80.4484 276.00
80.5136 277.00
80.5788 290.00
80.644 304.00
80.7092 324.00
80.7744 279.00
80.8396 316.00
80.9048 317.00
80.9699 411.00
81.0351 468.00
81.1003 564.00
81.1655 650.00
81.2307 613.00
81.2959 567.00
81.3611 598.00
81.4263 671.00
81.4915 613.00
81.5567 572.00
81.6219 508.00
81.6871 493.00
81.7523 446.00
81.8175 425.00
81.8827 357.00
81.9479 339.00
82.0131 296.00
82.0783 303.00
82.1435 287.00
82.2087 326.00
82.2739 339.00
82.3391 323.00
82.4043 317.00
82.4695 368.00
82.5347 431.00
82.5999 501.00
82.6651 538.00
82.7303 723.00
82.7955 787.00
82.8607 697.00
82.9259 613.00
82.9911 521.00
83.0563 540.00
83.1215 442.00
83.1867 383.00
83.2519 341.00
83.3171 344.00
83.3823 322.00
83.4475 328.00
83.5127 309.00
83.5779 284.00
83.6431 324.00
83.7083 300.00
83.7735 283.00
83.8387 311.00
83.9039 304.00
83.9691 311.00
84.0343 295.00
84.0995 281.00
84.1647 282.00
84.2299 283.00
84.2951 245.00
84.3603 234.00
84.4255 250.00
84.4907 242.00
84.5559 267.00
84.6211 267.00
84.6863 262.00
84.7515 284.00
84.8167 308.00
84.8819 320.00
84.9471 340.00
85.0123 360.00
85.0775 326.00
85.1427 323.00
85.2079 289.00
85.2731 287.00
85.3383 277.00
85.4035 293.00
85.4687 296.00
85.5339 275.00
85.5991 267.00
85.6643 275.00
85.7295 289.00
85.7946 289.00
85.8598 304.00
85.925 308.00
85.9903 283.00
86.0554 354.00
86.1206 340.00
86.1858 376.00
86.251 506.00
86.3162 564.00
86.3814 642.00
86.4466 588.00
86.5118 528.00
86.577 499.00
86.6422 522.00
86.7074 481.00
86.7726 420.00
86.8378 365.00
86.903 290.00
86.9682 345.00
87.0334 295.00
87.0986 344.00
87.1638 361.00
87.229 384.00
87.2942 364.00
87.3594 453.00
87.4246 485.00
87.4898 614.00
87.555 676.00
87.6202 781.00
87.6854 741.00
87.7506 707.00
87.8158 574.00
87.881 563.00
87.9462 485.00
88.0114 455.00
88.0766 398.00
88.1418 344.00
88.207 342.00
88.2722 343.00
88.3374 298.00
88.4026 315.00
88.4678 319.00
88.533 332.00
88.5982 337.00
88.6634 359.00
88.7286 363.00
88.7938 357.00
88.859 354.00
88.9242 355.00
88.9894 353.00
89.0546 331.00
89.1198 317.00
89.185 262.00
89.2502 275.00
89.3154 312.00
89.3806 296.00
89.4458 280.00
89.511 262.00
89.5762 251.00
89.6414 295.00
89.7066 308.00
89.7718 293.00
89.837 285.00
89.9022 315.00
89.9674 296.00
90.0326 267.00
90.0978 342.00
90.163 325.00
90.2282 382.00
90.2934 412.00
90.3586 432.00
90.4238 368.00
90.489 388.00
90.5542 393.00
90.6193 368.00
90.6845 404.00
90.7497 397.00
90.8149 384.00
90.8801 421.00
90.9453 376.00
91.0105 368.00
91.0757 356.00
91.1409 352.00
91.2061 360.00
91.2713 373.00
91.3365 344.00
91.4017 390.00
91.4669 328.00
91.5321 361.00
91.5973 307.00
91.6625 290.00
91.7277 305.00
91.7929 326.00
91.8581 313.00
91.9233 290.00
91.9885 267.00
92.0537 281.00
92.1189 287.00
92.1841 309.00
92.2493 328.00
92.3145 397.00
92.3797 553.00
92.4449 613.00
92.5101 600.00
92.5753 564.00
92.6405 585.00
92.7057 525.00
92.7709 569.00
92.8361 503.00
92.9013 454.00
92.9665 455.00
93.0317 380.00
93.0969 364.00
93.1621 378.00
93.2273 328.00
93.2925 290.00
93.3577 295.00
93.4229 247.00
93.4881 289.00
93.5533 267.00
93.6185 284.00
93.6837 278.00
93.7489 325.00
93.8141 317.00
93.8793 313.00
93.9445 368.00
94.0097 442.00
94.0749 451.00
94.1401 473.00
94.2053 401.00
94.2705 397.00
94.3357 447.00
94.4009 431.00
94.4661 394.00
94.5313 346.00
94.5965 311.00
94.6617 298.00
94.7269 282.00
94.7921 326.00
94.8573 338.00
94.9225 393.00
94.9877 350.00
95.0529 406.00
95.1181 458.00
95.1833 442.00
95.2485 449.00
95.3137 435.00
95.3789 435.00
95.444 413.00
95.5092 375.00
95.5744 361.00
95.6396 339.00
95.7048 337.00
95.77 309.00
95.8352 331.00
95.9004 332.00
95.9656 311.00
96.0308 339.00
96.096 375.00
96.1612 358.00
96.2264 401.00
96.2916 407.00
96.3568 391.00
96.422 340.00
96.4872 374.00
96.5524 328.00
96.6176 337.00
96.6828 302.00
96.748 304.00
96.8132 259.00
96.8784 232.00
96.9436 245.00
97.0088 317.00
97.074 274.00
97.1392 273.00
97.2044 301.00
97.2696 297.00
97.3348 320.00
97.4 305.00
97.4652 312.00
97.5304 344.00
97.5956 395.00
97.6608 440.00
97.726 543.00
97.7912 593.00
97.8564 673.00
97.9216 598.00
97.9868 537.00
98.052 485.00
98.1172 492.00
98.1824 521.00
98.2476 445.00
98.3128 398.00
98.378 370.00
98.4432 370.00
98.5084 348.00
98.5736 274.00
98.6388 329.00
98.704 309.00
98.7692 247.00
98.8344 261.00
98.8996 260.00
98.9648 270.00
99.03 280.00
99.0952 268.00
99.1604 251.00
99.2256 279.00
99.2908 247.00
99.356 233.00
99.4212 306.00
99.4864 262.00
99.5516 293.00
99.6168 296.00
99.682 288.00
99.7472 377.00
99.8124 361.00
99.8776 473.00
99.9428 530.00
100.008 597.00
100.073 651.00
100.095 576.00