File: data/xrd_creation/results/NSC_197.xy
9.903433 2845.00
9.968632 2832.00
10.0338 2872.00
10.099 2869.00
10.1642 2793.00
10.2294 2769.00
10.2946 2745.00
10.3598 2706.00
10.425 2679.00
10.4902 2707.00
10.5554 2809.00
10.6206 2735.00
10.6858 2643.00
10.751 2662.00
10.8162 2684.00
10.8814 2662.00
10.9466 2637.00
11.0118 2543.00
11.077 2555.00
11.1422 2519.00
11.2074 2550.00
11.2726 2480.00
11.3378 2462.00
11.403 2390.00
11.4682 2422.00
11.5334 2532.00
11.5986 2372.00
11.6638 2358.00
11.729 2388.00
11.7942 2355.00
11.8594 2418.00
11.9246 2286.00
11.9898 2274.00
12.055 2369.00
12.1202 2308.00
12.1854 2348.00
12.2506 2419.00
12.3158 2469.00
12.381 2285.00
12.4462 2266.00
12.5114 2248.00
12.5766 2263.00
12.6418 2186.00
12.707 2146.00
12.7722 2175.00
12.8374 2305.00
12.9026 2218.00
12.9678 2207.00
13.033 2164.00
13.0982 2126.00
13.1634 2156.00
13.2286 2138.00
13.2938 2015.00
13.359 2092.00
13.4242 2091.00
13.4894 2108.00
13.5546 2122.00
13.6198 2142.00
13.685 2156.00
13.7502 2233.00
13.8154 2289.00
13.8805 2361.00
13.9457 2574.00
14.0109 2755.00
14.0761 2790.00
14.1413 2764.00
14.2065 2402.00
14.2717 2178.00
14.3369 2139.00
14.4021 2039.00
14.4673 2088.00
14.5325 2023.00
14.5977 2031.00
14.6629 2137.00
14.7281 2166.00
14.7933 2153.00
14.8585 2329.00
14.9237 2410.00
14.9889 2502.00
15.0541 2525.00
15.1193 2410.00
15.1845 2223.00
15.2497 2116.00
15.3149 2048.00
15.3801 2004.00
15.4453 1902.00
15.5105 1950.00
15.5757 1939.00
15.6409 1938.00
15.7061 1931.00
15.7713 1985.00
15.8365 1939.00
15.9017 1868.00
15.9669 1922.00
16.0321 1977.00
16.0973 1915.00
16.1625 1918.00
16.2277 1877.00
16.2929 1847.00
16.3581 1818.00
16.4233 1860.00
16.4885 1875.00
16.5537 1926.00
16.6189 1890.00
16.6841 1858.00
16.7493 1852.00
16.8145 1939.00
16.8797 1952.00
16.9449 2090.00
17.0101 2219.00
17.0753 2540.00
17.1405 2861.00
17.2057 2378.00
17.2709 2052.00
17.3361 1837.00
17.4013 1842.00
17.4665 1868.00
17.5317 1869.00
17.5969 1873.00
17.6621 2035.00
17.7273 2063.00
17.7925 2284.00
17.8577 2259.00
17.9229 2020.00
17.9881 1890.00
18.0533 1943.00
18.1185 1715.00
18.1837 1680.00
18.2489 1683.00
18.3141 1724.00
18.3793 1694.00
18.4445 1683.00
18.5097 1690.00
18.5749 1687.00
18.6401 1697.00
18.7052 1744.00
18.7704 1674.00
18.8356 1641.00
18.9008 1700.00
18.966 1626.00
19.0312 1631.00
19.0964 1663.00
19.1616 1768.00
19.2268 1864.00
19.292 1859.00
19.3572 1979.00
19.4224 2074.00
19.4876 2403.00
19.5528 3019.00
19.618 4101.00
19.6832 6145.00
19.7484 8771.00
19.8136 10561.00
19.8788 10269.00
19.944 8113.00
20.0092 5128.00
20.0744 3092.00
20.1396 2230.00
20.2048 1919.00
20.27 1870.00
20.3352 1839.00
20.4004 1755.00
20.4656 1723.00
20.5308 1771.00
20.596 1820.00
20.6612 1802.00
20.7264 1729.00
20.7916 1742.00
20.8568 1682.00
20.922 1617.00
20.9872 1786.00
21.0524 1786.00
21.1176 1768.00
21.1828 1906.00
21.248 1782.00
21.3132 1843.00
21.3784 1942.00
21.4436 2042.00
21.5088 2086.00
21.574 2166.00
21.6392 2082.00
21.7044 2179.00
21.7696 2187.00
21.8348 2047.00
21.9 1918.00
21.9652 1778.00
22.0304 1696.00
22.0956 1677.00
22.1608 1616.00
22.226 1657.00
22.2912 1745.00
22.3564 1658.00
22.4216 1730.00
22.4868 1754.00
22.552 1790.00
22.6172 2027.00
22.6824 2048.00
22.7476 2124.00
22.8128 2043.00
22.878 1957.00
22.9432 1843.00
23.0084 1786.00
23.0736 1893.00
23.1388 2041.00
23.204 2217.00
23.2692 2212.00
23.3344 2052.00
23.3996 1747.00
23.4647 1490.00
23.5299 1530.00
23.5951 1459.00
23.6603 1459.00
23.7255 1404.00
23.7907 1578.00
23.8559 1397.00
23.9211 1428.00
23.9863 1404.00
24.0515 1418.00
24.1167 1509.00
24.1819 1681.00
24.2471 1877.00
24.3123 2098.00
24.3775 2497.00
24.4427 2792.00
24.5079 2758.00
24.5731 2357.00
24.6383 2037.00
24.7035 1868.00
24.7687 2258.00
24.8339 2169.00
24.8991 2514.00
24.9643 2193.00
25.0295 1853.00
25.0947 1628.00
25.1599 1601.00
25.2251 1897.00
25.2903 2338.00
25.3555 2292.00
25.4207 1711.00
25.4859 1415.00
25.5511 1393.00
25.6163 1381.00
25.6815 1314.00
25.7467 1475.00
25.8119 1451.00
25.8771 1477.00
25.9423 1551.00
26.0075 1439.00
26.0727 1501.00
26.1379 1518.00
26.2031 1535.00
26.2683 1473.00
26.3335 1572.00
26.3987 1494.00
26.4639 1546.00
26.5291 1630.00
26.5943 1826.00
26.6595 2030.00
26.7247 2759.00
26.7899 4128.00
26.8551 6109.00
26.9203 6581.00
26.9855 4619.00
27.0507 2867.00
27.1159 2101.00
27.1811 1899.00
27.2463 1732.00
27.3115 1589.00
27.3767 1602.00
27.4419 1511.00
27.5071 1519.00
27.5723 1482.00
27.6375 1507.00
27.7027 1585.00
27.7679 1738.00
27.8331 2030.00
27.8983 2444.00
27.9635 2952.00
28.0287 3516.00
28.0939 3813.00
28.1591 3544.00
28.2243 3033.00
28.2894 2834.00
28.3546 3542.00
28.4198 4687.00
28.485 6388.00
28.5502 7939.00
28.6154 8767.00
28.6806 8383.00
28.7458 6401.00
28.811 4215.00
28.8762 2809.00
28.9414 2117.00
29.0066 1919.00
29.0718 1624.00
29.137 1766.00
29.2022 1460.00
29.2674 1467.00
29.3326 1446.00
29.3978 1593.00
29.463 1666.00
29.5282 2098.00
29.5934 3305.00
29.6586 4696.00
29.7238 3714.00
29.789 2188.00
29.8542 1581.00
29.9194 1500.00
29.9846 1386.00
30.0498 1379.00
30.115 1391.00
30.1802 1358.00
30.2454 1468.00
30.3106 1459.00
30.3758 1626.00
30.441 1799.00
30.5062 1845.00
30.5714 1875.00
30.6366 1793.00
30.7018 1716.00
30.767 1693.00
30.8322 1625.00
30.8974 1652.00
30.9626 1778.00
31.0278 1839.00
31.093 2121.00
31.1582 2359.00
31.2234 2700.00
31.2886 3431.00
31.3538 4267.00
31.419 5278.00
31.4842 6104.00
31.5494 6152.00
31.6146 5531.00
31.6798 5133.00
31.745 5058.00
31.8102 5543.00
31.8754 6388.00
31.9406 6781.00
32.0058 5880.00
32.071 4319.00
32.1362 2953.00
32.2014 2128.00
32.2666 1760.00
32.3318 1676.00
32.397 1574.00
32.4622 1379.00
32.5274 1348.00
32.5926 1462.00
32.6578 1333.00
32.723 1349.00
32.7882 1371.00
32.8534 1409.00
32.9186 1426.00
32.9838 1427.00
33.0489 1404.00
33.1141 1390.00
33.1793 1376.00
33.2445 1524.00
33.3097 1518.00
33.3749 1575.00
33.4401 1597.00
33.5053 1671.00
33.5705 1612.00
33.6357 1695.00
33.7009 1733.00
33.7661 1743.00
33.8313 1924.00
33.8965 2028.00
33.9617 2395.00
34.0269 3142.00
34.0921 4637.00
34.1573 6671.00
34.2225 7164.00
34.2877 7024.00
34.3529 6939.00
34.4181 7137.00
34.4833 6957.00
34.5485 6381.00
34.6137 5605.00
34.6789 4574.00
34.7441 3590.00
34.8093 3152.00
34.8745 3075.00
34.9397 3020.00
35.0049 2961.00
35.0701 2920.00
35.1353 3373.00
35.2005 3055.00
35.2657 2153.00
35.3309 1708.00
35.3961 1615.00
35.4613 1660.00
35.5265 1753.00
35.5917 1828.00
35.6569 2033.00
35.7221 2373.00
35.7873 2786.00
35.8525 2632.00
35.9177 2180.00
35.9829 1718.00
36.0481 1416.00
36.1133 1453.00
36.1785 1424.00
36.2437 1428.00
36.3089 1553.00
36.3741 1596.00
36.4393 1516.00
36.5045 1310.00
36.5697 1242.00
36.6349 1130.00
36.7001 1166.00
36.7653 1068.00
36.8305 1116.00
36.8957 1073.00
36.9609 1144.00
37.0261 1159.00
37.0913 1098.00
37.1565 1121.00
37.2217 1089.00
37.2869 1185.00
37.3521 1331.00
37.4173 1507.00
37.4825 2122.00
37.5477 2628.00
37.6129 2142.00
37.6781 1644.00
37.7433 1145.00
37.8085 1178.00
37.8736 1110.00
37.9388 1201.00
38.004 1142.00
38.0692 1314.00
38.1344 1583.00
38.1996 1963.00
38.2648 2145.00
38.33 1886.00
38.3952 1628.00
38.4604 1367.00
38.5256 1170.00
38.5908 1149.00
38.656 1105.00
38.7212 1184.00
38.7864 1110.00
38.8516 1287.00
38.9168 1337.00
38.982 1455.00
39.0472 1593.00
39.1124 1688.00
39.1776 1796.00
39.2428 1734.00
39.308 1527.00
39.3732 1290.00
39.4384 1112.00
39.5036 1132.00
39.5688 1088.00
39.634 1108.00
39.6992 1154.00
39.7644 1238.00
39.8296 1293.00
39.8948 1391.00
39.96 1357.00
40.0252 1458.00
40.0904 1473.00
40.1556 1484.00
40.2208 1374.00
40.286 1302.00
40.3512 1172.00
40.4164 1140.00
40.4816 1134.00
40.5468 1161.00
40.612 1002.00
40.6772 1003.00
40.7424 1117.00
40.8076 1128.00
40.8728 1167.00
40.938 1257.00
41.0032 1504.00
41.0684 1566.00
41.1336 1749.00
41.1988 1906.00
41.264 2109.00
41.3292 1978.00
41.3944 1917.00
41.4596 1789.00
41.5248 1656.00
41.59 1685.00
41.6552 1730.00
41.7204 1784.00
41.7856 1820.00
41.8508 1660.00
41.916 1662.00
41.9812 1494.00
42.0464 1397.00
42.1116 1329.00
42.1768 1274.00
42.242 1167.00
42.3072 1212.00
42.3724 1312.00
42.4376 1365.00
42.5028 1321.00
42.568 1302.00
42.6332 1283.00
42.6983 1248.00
42.7635 1262.00
42.8287 1208.00
42.8939 1079.00
42.9591 1049.00
43.0243 996.00
43.0895 968.00
43.1547 964.00
43.2199 1031.00
43.2851 1022.00
43.3503 979.00
43.4155 1010.00
43.4807 1022.00
43.5459 997.00
43.6111 1018.00
43.6763 1026.00
43.7415 1003.00
43.8067 1022.00
43.8719 987.00
43.9371 997.00
44.0023 955.00
44.0675 972.00
44.1327 941.00
44.1979 982.00
44.2631 947.00
44.3283 964.00
44.3935 1008.00
44.4587 1111.00
44.5239 1163.00
44.5891 1343.00
44.6543 1464.00
44.7195 1738.00
44.7847 1904.00
44.8499 2162.00
44.9151 2218.00
44.9803 2210.00
45.0455 2106.00
45.1107 1943.00
45.1759 1740.00
45.2411 1573.00
45.3063 1468.00
45.3715 1414.00
45.4367 1380.00
45.5019 1155.00
45.5671 1164.00
45.6323 1250.00
45.6975 1225.00
45.7627 1390.00
45.8279 1489.00
45.8931 1557.00
45.9583 1559.00
46.0235 1428.00
46.0887 1430.00
46.1539 1412.00
46.2191 1205.00
46.2843 1187.00
46.3495 1117.00
46.4147 1048.00
46.4799 1046.00
46.5451 1086.00
46.6103 1118.00
46.6755 1179.00
46.7407 1172.00
46.8059 1276.00
46.8711 1452.00
46.9363 1667.00
47.0015 1830.00
47.0667 2143.00
47.1319 2276.00
47.1971 2428.00
47.2623 2362.00
47.3275 2185.00
47.3927 2013.00
47.4579 1850.00
47.523 1575.00
47.5882 1332.00
47.6534 1269.00
47.7186 1170.00
47.7838 1067.00
47.849 1037.00
47.9142 1012.00
47.9794 1023.00
48.0446 967.00
48.1098 984.00
48.175 1030.00
48.2402 1125.00
48.3054 1364.00
48.3706 1659.00
48.4358 1744.00
48.501 1524.00
48.5662 1298.00
48.6314 1079.00
48.6966 1040.00
48.7618 1068.00
48.827 996.00
48.8922 970.00
48.9574 1008.00
49.0226 1090.00
49.0878 1048.00
49.153 1156.00
49.2182 1114.00
49.2834 1259.00
49.3486 1272.00
49.4138 1493.00
49.479 1588.00
49.5442 1704.00
49.6094 1817.00
49.6746 1880.00
49.7398 2303.00
49.805 2503.00
49.8702 2423.00
49.9354 2235.00
50.0006 1743.00
50.0658 1505.00
50.131 1313.00
50.1962 1240.00
50.2614 1220.00
50.3266 1344.00
50.3918 1591.00
50.457 1614.00
50.5222 1709.00
50.5874 1796.00
50.6526 2240.00
50.7178 2595.00
50.783 2600.00
50.8482 2533.00
50.9134 2226.00
50.9786 1935.00
51.0438 1847.00
51.109 1919.00
51.1742 1987.00
51.2394 1825.00
51.3046 1760.00
51.3698 1578.00
51.435 1626.00
51.5002 1694.00
51.5654 1842.00
51.6306 1964.00
51.6958 2045.00
51.761 2275.00
51.8262 2382.00
51.8914 2565.00
51.9566 3164.00
52.0218 4058.00
52.087 3970.00
52.1522 3458.00
52.2174 2970.00
52.2826 2673.00
52.3477 2551.00
52.4129 1996.00
52.4781 1806.00
52.5433 1502.00
52.6085 1217.00
52.6737 1019.00
52.7389 1065.00
52.8041 1069.00
52.8693 995.00
52.9345 997.00
52.9997 1022.00
53.0649 1188.00
53.1301 1188.00
53.1953 1282.00
53.2605 1442.00
53.3257 1614.00
53.3909 1863.00
53.4561 1918.00
53.5213 1993.00
53.5865 1970.00
53.6517 1992.00
53.7169 1759.00
53.7821 1703.00
53.8473 1555.00
53.9125 1382.00
53.9777 1316.00
54.0429 1258.00
54.1081 1175.00
54.1733 1223.00
54.2385 1231.00
54.3037 1320.00
54.3689 1365.00
54.4341 1396.00
54.4993 1405.00
54.5645 1580.00
54.6297 1622.00
54.6949 1681.00
54.7601 1619.00
54.8253 1554.00
54.8905 1501.00
54.9557 1580.00
55.0209 1749.00
55.0861 1646.00
55.1513 1586.00
55.2165 1441.00
55.2817 1232.00
55.3469 1241.00
55.4121 1209.00
55.4773 1280.00
55.5425 1350.00
55.6077 1429.00
55.6729 1470.00
55.7381 1564.00
55.8033 1681.00
55.8685 1893.00
55.9337 2003.00
55.9989 1855.00
56.0641 1888.00
56.1293 1811.00
56.1945 1634.00
56.2597 1577.00
56.3249 1498.00
56.3901 1316.00
56.4553 1271.00
56.5205 1444.00
56.5857 1476.00
56.6509 1452.00
56.7161 1344.00
56.7813 1213.00
56.8465 1135.00
56.9117 1089.00
56.9769 979.00
57.042 988.00
57.1073 956.00
57.1724 1041.00
57.2376 1108.00
57.3028 1087.00
57.368 1202.00
57.4332 1200.00
57.4984 1257.00
57.5636 1254.00
57.6288 1316.00
57.694 1446.00
57.7592 1456.00
57.8244 1478.00
57.8896 1506.00
57.9548 1484.00
58.02 1480.00
58.0852 1488.00
58.1504 1455.00
58.2156 1341.00
58.2808 1367.00
58.346 1338.00
58.4112 1312.00
58.4764 1334.00
58.5416 1413.00
58.6068 1454.00
58.672 1383.00
58.7372 1347.00
58.8024 1311.00
58.8676 1286.00
58.9328 1276.00
58.998 1362.00
59.0632 1279.00
59.1284 1340.00
59.1936 1425.00
59.2588 1494.00
59.324 1599.00
59.3892 1715.00
59.4544 1772.00
59.5196 1823.00
59.5848 1968.00
59.65 1950.00
59.7152 1964.00
59.7804 1852.00
59.8456 1676.00
59.9108 1597.00
59.976 1548.00
60.0412 1441.00
60.1064 1473.00
60.1716 1442.00
60.2368 1448.00
60.302 1560.00
60.3672 1626.00
60.4324 1655.00
60.4976 1786.00
60.5628 1721.00
60.628 1638.00
60.6932 1741.00
60.7584 1477.00
60.8236 1325.00
60.8888 1316.00
60.954 1239.00
61.0192 1278.00
61.0844 1370.00
61.1496 1379.00
61.2148 1488.00
61.28 1576.00
61.3452 1446.00
61.4104 1530.00
61.4756 1493.00
61.5408 1503.00
61.606 1478.00
61.6712 1477.00
61.7364 1452.00
61.8016 1562.00
61.8667 1541.00
61.932 1549.00
61.9971 1590.00
62.0623 1662.00
62.1275 1815.00
62.1927 1775.00
62.2579 1626.00
62.3231 1533.00
62.3883 1516.00
62.4535 1427.00
62.5187 1372.00
62.5839 1380.00
62.6491 1408.00
62.7143 1337.00
62.7795 1308.00
62.8447 1225.00
62.9099 1218.00
62.9751 1267.00
63.0403 1310.00
63.1055 1271.00
63.1707 1339.00
63.2359 1379.00
63.3011 1421.00
63.3663 1465.00
63.4315 1564.00
63.4967 1659.00
63.5619 1537.00
63.6271 1530.00
63.6923 1419.00
63.7575 1313.00
63.8227 1212.00
63.8879 1092.00
63.9531 1096.00
64.0183 1078.00
64.0835 938.00
64.1487 940.00
64.2139 942.00
64.2791 1006.00
64.3443 1055.00
64.4095 1203.00
64.4747 1220.00
64.5399 1194.00
64.6051 1215.00
64.6703 1268.00
64.7355 1241.00
64.8007 1263.00
64.8659 1374.00
64.9311 1605.00
64.9963 1683.00
65.0615 1612.00
65.1267 1503.00
65.1919 1435.00
65.2571 1340.00
65.3223 1120.00
65.3875 1121.00
65.4527 1038.00
65.5179 1084.00
65.5831 1126.00
65.6483 1128.00
65.7135 1099.00
65.7787 1239.00
65.8439 1485.00
65.9091 1855.00
65.9743 2068.00
66.0395 2183.00
66.1047 2066.00
66.1699 2310.00
66.2351 2362.00
66.3003 2082.00
66.3655 1946.00
66.4307 1902.00
66.4959 1667.00
66.561 1549.00
66.6263 1420.00
66.6915 1334.00
66.7566 1307.00
66.8218 1224.00
66.887 1237.00
66.9522 1226.00
67.0174 1232.00
67.0826 1196.00
67.1478 1150.00
67.213 1191.00
67.2782 1159.00
67.3434 1118.00
67.4086 1067.00
67.4738 1095.00
67.539 930.00
67.6042 961.00
67.6694 938.00
67.7346 923.00
67.7998 867.00
67.865 823.00
67.9302 822.00
67.9954 778.00
68.0606 866.00
68.1258 809.00
68.191 830.00
68.2562 935.00
68.3214 915.00
68.3866 958.00
68.4518 973.00
68.517 1003.00
68.5822 1070.00
68.6474 968.00
68.7126 979.00
68.7778 957.00
68.843 899.00
68.9082 970.00
68.9734 981.00
69.0386 950.00
69.1038 941.00
69.169 940.00
69.2342 917.00
69.2994 887.00
69.3646 882.00
69.4298 840.00
69.495 880.00
69.5602 917.00
69.6254 949.00
69.6906 882.00
69.7558 978.00
69.821 949.00
69.8862 918.00
69.9514 881.00
70.0166 909.00
70.0818 875.00
70.147 900.00
70.2122 835.00
70.2774 868.00
70.3426 879.00
70.4078 830.00
70.473 864.00
70.5382 886.00
70.6034 845.00
70.6686 907.00
70.7338 810.00
70.799 777.00
70.8642 795.00
70.9294 839.00
70.9946 878.00
71.0598 900.00
71.125 878.00
71.1902 868.00
71.2554 960.00
71.3205 1041.00
71.3858 1077.00
71.451 1231.00
71.5162 1264.00
71.5813 1271.00
71.6465 1327.00
71.7117 1367.00
71.7769 1387.00
71.8421 1442.00
71.9073 1442.00
71.9725 1372.00
72.0377 1331.00
72.1029 1329.00
72.1681 1225.00
72.2333 1116.00
72.2985 1117.00
72.3637 1073.00
72.4289 1014.00
72.4941 978.00
72.5593 1034.00
72.6245 1032.00
72.6897 1049.00
72.7549 993.00
72.8201 1028.00
72.8853 1057.00
72.9505 970.00
73.0157 950.00
73.0809 930.00
73.1461 883.00
73.2113 929.00
73.2765 904.00
73.3417 911.00
73.4069 968.00
73.4721 952.00
73.5373 940.00
73.6025 875.00
73.6677 924.00
73.7329 875.00
73.7981 923.00
73.8633 988.00
73.9285 967.00
73.9937 975.00
74.0589 992.00
74.1241 943.00
74.1893 952.00
74.2545 888.00
74.3197 1012.00
74.3849 902.00
74.4501 885.00
74.5153 921.00
74.5805 937.00
74.6457 850.00
74.7109 807.00
74.7761 839.00
74.8413 850.00
74.9065 877.00
74.9717 934.00
75.0369 871.00
75.1021 896.00
75.1673 933.00
75.2325 1006.00
75.2977 998.00
75.3629 1023.00
75.4281 1085.00
75.4933 1083.00
75.5585 1091.00
75.6237 1193.00
75.6889 1180.00
75.7541 1132.00
75.8193 1033.00
75.8845 1054.00
75.9497 1072.00
76.0149 1093.00
76.0801 1090.00
76.1452 1013.00
76.2104 1000.00
76.2756 1023.00
76.3409 978.00
76.406 905.00
76.4712 900.00
76.5364 939.00
76.6016 859.00
76.6668 844.00
76.732 861.00
76.7972 871.00
76.8624 842.00
76.9276 851.00
76.9928 874.00
77.058 906.00
77.1232 899.00
77.1884 985.00
77.2536 1058.00
77.3188 981.00
77.384 979.00
77.4492 953.00
77.5144 955.00
77.5796 985.00
77.6448 1025.00
77.71 974.00
77.7752 894.00
77.8404 932.00
77.9056 928.00
77.9708 916.00
78.036 860.00
78.1012 915.00
78.1664 919.00
78.2316 935.00
78.2968 974.00
78.362 958.00
78.4272 873.00
78.4924 897.00
78.5576 893.00
78.6228 919.00
78.688 961.00
78.7532 916.00
78.8184 1038.00
78.8836 1128.00
78.9488 1198.00
79.014 1129.00
79.0792 1139.00
79.1444 1074.00
79.2096 1071.00
79.2748 1041.00
79.34 930.00
79.4052 978.00
79.4704 904.00
79.5356 859.00
79.6008 930.00
79.666 983.00
79.7312 930.00
79.7964 977.00
79.8616 937.00
79.9268 916.00
79.992 956.00
80.0572 917.00
80.1224 965.00
80.1876 902.00
80.2528 897.00
80.318 955.00
80.3832 912.00
80.4484 1051.00
80.5136 987.00
80.5788 997.00
80.644 1004.00
80.7092 1005.00
80.7744 1029.00
80.8396 1077.00
80.9048 1024.00
80.9699 1035.00
81.0351 990.00
81.1003 1007.00
81.1655 1034.00
81.2307 1102.00
81.2959 1043.00
81.3611 997.00
81.4263 1019.00
81.4915 999.00
81.5567 940.00
81.6219 939.00
81.6871 906.00
81.7523 971.00
81.8175 915.00
81.8827 904.00
81.9479 947.00
82.0131 898.00
82.0783 968.00
82.1435 1012.00
82.2087 1022.00
82.2739 1027.00
82.3391 1107.00
82.4043 1008.00
82.4695 1037.00
82.5347 952.00
82.5999 995.00
82.6651 934.00
82.7303 1006.00
82.7955 930.00
82.8607 911.00
82.9259 892.00
82.9911 922.00
83.0563 897.00
83.1215 884.00
83.1867 946.00
83.2519 927.00
83.3171 994.00
83.3823 988.00
83.4475 919.00
83.5127 999.00
83.5779 941.00
83.6431 1041.00
83.7083 1080.00
83.7735 1074.00
83.8387 1190.00
83.9039 1236.00
83.9691 1156.00
84.0343 1176.00
84.0995 1068.00
84.1647 1166.00
84.2299 1087.00
84.2951 1089.00
84.3603 1031.00
84.4255 961.00
84.4907 998.00
84.5559 944.00
84.6211 988.00
84.6863 957.00
84.7515 982.00
84.8167 934.00
84.8819 1004.00
84.9471 968.00
85.0123 948.00
85.0775 917.00
85.1427 919.00
85.2079 964.00
85.2731 908.00
85.3383 880.00
85.4035 798.00
85.4687 861.00
85.5339 829.00
85.5991 822.00
85.6643 894.00
85.7295 842.00
85.7946 898.00
85.8598 852.00
85.925 872.00
85.9903 826.00
86.0554 816.00
86.1206 814.00
86.1858 829.00
86.251 783.00
86.3162 773.00
86.3814 812.00
86.4466 810.00
86.5118 815.00
86.577 844.00
86.6422 808.00
86.7074 881.00
86.7726 875.00
86.8378 915.00
86.903 930.00
86.9682 929.00
87.0334 1013.00
87.0986 1028.00
87.1638 1017.00
87.229 1125.00
87.2942 1233.00
87.3594 1331.00
87.4246 1212.00
87.4898 1169.00
87.555 1195.00
87.6202 1158.00
87.6854 1123.00
87.7506 1065.00
87.8158 1049.00
87.881 1004.00
87.9462 1013.00
88.0114 918.00
88.0766 998.00
88.1418 963.00
88.207 948.00
88.2722 909.00
88.3374 1024.00
88.4026 1007.00
88.4678 1033.00
88.533 1103.00
88.5982 1122.00
88.6634 1092.00
88.7286 1059.00
88.7938 1039.00
88.859 1061.00
88.9242 1036.00
88.9894 1084.00
89.0546 1008.00
89.1198 1023.00
89.185 953.00
89.2502 949.00
89.3154 957.00
89.3806 1071.00
89.4458 1051.00
89.511 1070.00
89.5762 1021.00
89.6414 990.00
89.7066 1035.00
89.7718 1021.00
89.837 1071.00
89.9022 1170.00
89.9674 1247.00
90.0326 1257.00
90.0978 1128.00
90.163 1133.00
90.2282 1168.00
90.2934 1106.00
90.3586 1144.00
90.4238 1103.00
90.489 1056.00
90.5542 972.00
90.6193 1114.00
90.6845 1110.00
90.7497 1077.00
90.8149 1100.00
90.8801 1091.00
90.9453 1090.00
91.0105 1221.00
91.0757 1307.00
91.1409 1240.00
91.2061 1203.00
91.2713 1091.00
91.3365 1161.00
91.4017 1103.00
91.4669 1077.00
91.5321 930.00
91.5973 906.00
91.6625 925.00
91.7277 919.00
91.7929 920.00
91.8581 861.00
91.9233 849.00
91.9885 898.00
92.0537 925.00
92.1189 887.00
92.1841 893.00
92.2493 873.00
92.3145 896.00
92.3797 856.00
92.4449 819.00
92.5101 809.00
92.5753 820.00
92.6405 811.00
92.7057 831.00
92.7709 767.00
92.8361 816.00
92.9013 792.00
92.9665 830.00
93.0317 811.00
93.0969 786.00
93.1621 791.00
93.2273 899.00
93.2925 872.00
93.3577 896.00
93.4229 910.00
93.4881 966.00
93.5533 939.00
93.6185 914.00
93.6837 942.00
93.7489 910.00
93.8141 1011.00
93.8793 977.00
93.9445 940.00
94.0097 924.00
94.0749 955.00
94.1401 928.00
94.2053 947.00
94.2705 855.00
94.3357 859.00
94.4009 874.00
94.4661 908.00
94.5313 894.00
94.5965 912.00
94.6617 892.00
94.7269 841.00
94.7921 885.00
94.8573 885.00
94.9225 875.00
94.9877 880.00
95.0529 906.00
95.1181 922.00
95.1833 944.00
95.2485 873.00
95.3137 948.00
95.3789 903.00
95.444 900.00
95.5092 920.00
95.5744 903.00
95.6396 943.00
95.7048 965.00
95.77 939.00
95.8352 940.00
95.9004 975.00
95.9656 1006.00
96.0308 1065.00
96.096 1171.00
96.1612 1145.00
96.2264 1081.00
96.2916 1111.00
96.3568 1083.00
96.422 1042.00
96.4872 1055.00
96.5524 1020.00
96.6176 1005.00
96.6828 970.00
96.748 1032.00
96.8132 1011.00
96.8784 1007.00
96.9436 950.00
97.0088 996.00
97.074 980.00
97.1392 963.00
97.2044 985.00
97.2696 1016.00
97.3348 958.00
97.4 985.00
97.4652 987.00
97.5304 972.00
97.5956 1041.00
97.6608 1014.00
97.726 964.00
97.7912 1003.00
97.8564 1003.00
97.9216 917.00
97.9868 908.00
98.052 881.00
98.1172 922.00
98.1824 853.00
98.2476 822.00
98.3128 813.00
98.378 787.00
98.4432 820.00
98.5084 878.00
98.5736 861.00
98.6388 823.00
98.704 809.00
98.7692 847.00
98.8344 859.00
98.8996 901.00
98.9648 857.00
99.03 936.00
99.0952 913.00
99.1604 982.00
99.2256 916.00
99.2908 993.00
99.356 993.00
99.4212 972.00
99.4864 942.00
99.5516 989.00
99.6168 923.00
99.682 989.00
99.7472 1028.00
99.8124 968.00
99.8776 980.00
99.9428 1015.00
100.008 991.00
100.073 1074.00
100.095 1153.00