File: data/xrd_creation/results/NSC_25.xy
9.903433 2681.00
9.968632 2676.00
10.0338 2666.00
10.099 2654.00
10.1642 2503.00
10.2294 2645.00
10.2946 2458.00
10.3598 2594.00
10.425 2483.00
10.4902 2409.00
10.5554 2353.00
10.6206 2356.00
10.6858 2382.00
10.751 2382.00
10.8162 2395.00
10.8814 2348.00
10.9466 2361.00
11.0118 2253.00
11.077 2283.00
11.1422 2268.00
11.2074 2217.00
11.2726 2160.00
11.3378 2199.00
11.403 2081.00
11.4682 2122.00
11.5334 2113.00
11.5986 2181.00
11.6638 2186.00
11.729 2103.00
11.7942 2072.00
11.8594 2081.00
11.9246 1988.00
11.9898 2045.00
12.055 1924.00
12.1202 1954.00
12.1854 1990.00
12.2506 1963.00
12.3158 2021.00
12.381 1916.00
12.4462 1928.00
12.5114 2047.00
12.5766 1873.00
12.6418 1934.00
12.707 1905.00
12.7722 1860.00
12.8374 1901.00
12.9026 1805.00
12.9678 1781.00
13.033 1809.00
13.0982 1741.00
13.1634 1793.00
13.2286 1845.00
13.2938 1715.00
13.359 1917.00
13.4242 1774.00
13.4894 1800.00
13.5546 1788.00
13.6198 1763.00
13.685 1710.00
13.7502 1755.00
13.8154 1724.00
13.8805 1852.00
13.9457 1761.00
14.0109 1720.00
14.0761 1857.00
14.1413 1849.00
14.2065 1867.00
14.2717 2020.00
14.3369 2065.00
14.4021 1936.00
14.4673 1791.00
14.5325 1707.00
14.5977 1649.00
14.6629 1751.00
14.7281 1681.00
14.7933 1731.00
14.8585 1956.00
14.9237 2094.00
14.9889 2218.00
15.0541 2286.00
15.1193 2598.00
15.1845 2946.00
15.2497 3740.00
15.3149 5133.00
15.3801 4535.00
15.4453 2375.00
15.5105 1695.00
15.5757 1736.00
15.6409 1655.00
15.7061 1597.00
15.7713 1702.00
15.8365 1625.00
15.9017 1601.00
15.9669 1539.00
16.0321 1582.00
16.0973 1598.00
16.1625 1456.00
16.2277 1469.00
16.2929 1508.00
16.3581 1536.00
16.4233 1602.00
16.4885 1538.00
16.5537 1534.00
16.6189 1611.00
16.6841 1491.00
16.7493 1525.00
16.8145 1519.00
16.8797 1584.00
16.9449 1563.00
17.0101 1510.00
17.0753 1499.00
17.1405 1496.00
17.2057 1455.00
17.2709 1510.00
17.3361 1511.00
17.4013 1518.00
17.4665 1439.00
17.5317 1464.00
17.5969 1521.00
17.6621 1478.00
17.7273 1447.00
17.7925 1445.00
17.8577 1396.00
17.9229 1412.00
17.9881 1420.00
18.0533 1454.00
18.1185 1396.00
18.1837 1447.00
18.2489 1416.00
18.3141 1439.00
18.3793 1402.00
18.4445 1403.00
18.5097 1378.00
18.5749 1357.00
18.6401 1440.00
18.7052 1380.00
18.7704 1371.00
18.8356 1317.00
18.9008 1435.00
18.966 1447.00
19.0312 1419.00
19.0964 1349.00
19.1616 1401.00
19.2268 1417.00
19.292 1444.00
19.3572 1429.00
19.4224 1446.00
19.4876 1613.00
19.5528 1574.00
19.618 1822.00
19.6832 2137.00
19.7484 2524.00
19.8136 2882.00
19.8788 2382.00
19.944 1899.00
20.0092 1704.00
20.0744 1571.00
20.1396 1635.00
20.2048 1672.00
20.27 1773.00
20.3352 2022.00
20.4004 2395.00
20.4656 3159.00
20.5308 3667.00
20.596 3858.00
20.6612 3941.00
20.7264 4433.00
20.7916 5618.00
20.8568 6574.00
20.922 7027.00
20.9872 9659.00
21.0524 12030.00
21.1176 7506.00
21.1828 3157.00
21.248 1948.00
21.3132 1708.00
21.3784 1618.00
21.4436 1636.00
21.5088 1678.00
21.574 1593.00
21.6392 1900.00
21.7044 1986.00
21.7696 2371.00
21.8348 2753.00
21.9 3310.00
21.9652 4191.00
22.0304 6014.00
22.0956 9493.00
22.1608 13842.00
22.226 12341.00
22.2912 5749.00
22.3564 2586.00
22.4216 1956.00
22.4868 1695.00
22.552 1602.00
22.6172 1460.00
22.6824 1445.00
22.7476 1427.00
22.8128 1373.00
22.878 1398.00
22.9432 1394.00
23.0084 1326.00
23.0736 1355.00
23.1388 1333.00
23.204 1345.00
23.2692 1447.00
23.3344 1397.00
23.3996 1466.00
23.4647 1580.00
23.5299 1818.00
23.5951 2267.00
23.6603 2675.00
23.7255 3093.00
23.7907 2813.00
23.8559 2164.00
23.9211 1919.00
23.9863 1529.00
24.0515 1379.00
24.1167 1340.00
24.1819 1298.00
24.2471 1233.00
24.3123 1314.00
24.3775 1374.00
24.4427 1340.00
24.5079 1321.00
24.5731 1315.00
24.6383 1377.00
24.7035 1426.00
24.7687 1439.00
24.8339 1490.00
24.8991 1586.00
24.9643 1838.00
25.0295 2077.00
25.0947 2384.00
25.1599 2915.00
25.2251 3898.00
25.2903 5622.00
25.3555 9064.00
25.4207 14819.00
25.4859 17724.00
25.5511 12039.00
25.6163 5079.00
25.6815 2637.00
25.7467 2132.00
25.8119 2219.00
25.8771 2401.00
25.9423 2811.00
26.0075 3301.00
26.0727 4752.00
26.1379 8066.00
26.2031 13998.00
26.2683 16658.00
26.3335 8994.00
26.3987 3070.00
26.4639 1876.00
26.5291 1613.00
26.5943 1478.00
26.6595 1371.00
26.7247 1338.00
26.7899 1235.00
26.8551 1290.00
26.9203 1330.00
26.9855 1362.00
27.0507 1275.00
27.1159 1245.00
27.1811 1181.00
27.2463 1176.00
27.3115 1158.00
27.3767 1149.00
27.4419 1110.00
27.5071 1137.00
27.5723 1155.00
27.6375 1104.00
27.7027 1120.00
27.7679 1170.00
27.8331 1130.00
27.8983 1117.00
27.9635 1144.00
28.0287 1185.00
28.0939 1239.00
28.1591 1206.00
28.2243 1262.00
28.2894 1361.00
28.3546 1584.00
28.4198 1852.00
28.485 2166.00
28.5502 2273.00
28.6154 1984.00
28.6806 1754.00
28.7458 1490.00
28.811 1414.00
28.8762 1403.00
28.9414 1340.00
29.0066 1328.00
29.0718 1130.00
29.137 1068.00
29.2022 1007.00
29.2674 1084.00
29.3326 991.00
29.3978 1080.00
29.463 1052.00
29.5282 1034.00
29.5934 1020.00
29.6586 1064.00
29.7238 1081.00
29.789 1064.00
29.8542 1111.00
29.9194 1106.00
29.9846 1132.00
30.0498 1171.00
30.115 1244.00
30.1802 1367.00
30.2454 1610.00
30.3106 1885.00
30.3758 2349.00
30.441 3447.00
30.5062 5437.00
30.5714 8801.00
30.6366 10665.00
30.7018 7742.00
30.767 3905.00
30.8322 1976.00
30.8974 1523.00
30.9626 1341.00
31.0278 1317.00
31.093 1195.00
31.1582 1292.00
31.2234 1399.00
31.2886 1663.00
31.3538 2103.00
31.419 2620.00
31.4842 2902.00
31.5494 2616.00
31.6146 2285.00
31.6798 2029.00
31.745 1748.00
31.8102 1537.00
31.8754 1323.00
31.9406 1131.00
32.0058 1127.00
32.071 1089.00
32.1362 1035.00
32.2014 1017.00
32.2666 1016.00
32.3318 1022.00
32.397 1088.00
32.4622 1056.00
32.5274 1084.00
32.5926 1056.00
32.6578 1072.00
32.723 1074.00
32.7882 1135.00
32.8534 1157.00
32.9186 1149.00
32.9838 1285.00
33.0489 1379.00
33.1141 1636.00
33.1793 1934.00
33.2445 2102.00
33.3097 2975.00
33.3749 4588.00
33.4401 7956.00
33.5053 13121.00
33.5705 15694.00
33.6357 11870.00
33.7009 6598.00
33.7661 2993.00
33.8313 1936.00
33.8965 1655.00
33.9617 1546.00
34.0269 1710.00
34.0921 1817.00
34.1573 2424.00
34.2225 3312.00
34.2877 3551.00
34.3529 2694.00
34.4181 1829.00
34.4833 1340.00
34.5485 1177.00
34.6137 1096.00
34.6789 1070.00
34.7441 1047.00
34.8093 1063.00
34.8745 1023.00
34.9397 1077.00
35.0049 1190.00
35.0701 1257.00
35.1353 1202.00
35.2005 1289.00
35.2657 1437.00
35.3309 1399.00
35.3961 1338.00
35.4613 1304.00
35.5265 1449.00
35.5917 1485.00
35.6569 1673.00
35.7221 1649.00
35.7873 1761.00
35.8525 1951.00
35.9177 1831.00
35.9829 1859.00
36.0481 1618.00
36.1133 1766.00
36.1785 2186.00
36.2437 2577.00
36.3089 2175.00
36.3741 1562.00
36.4393 1176.00
36.5045 1033.00
36.5697 877.00
36.6349 925.00
36.7001 977.00
36.7653 988.00
36.8305 897.00
36.8957 804.00
36.9609 855.00
37.0261 948.00
37.0913 900.00
37.1565 911.00
37.2217 883.00
37.2869 896.00
37.3521 918.00
37.4173 955.00
37.4825 971.00
37.5477 982.00
37.6129 1020.00
37.6781 1191.00
37.7433 1355.00
37.8085 1540.00
37.8736 1875.00
37.9388 2566.00
38.004 3015.00
38.0692 2841.00
38.1344 2274.00
38.1996 2103.00
38.2648 2861.00
38.33 4409.00
38.3952 4447.00
38.4604 3767.00
38.5256 3609.00
38.5908 4228.00
38.656 5350.00
38.7212 5126.00
38.7864 3753.00
38.8516 2328.00
38.9168 1529.00
38.982 1200.00
39.0472 1208.00
39.1124 1197.00
39.1776 1113.00
39.2428 1068.00
39.308 997.00
39.3732 1025.00
39.4384 1041.00
39.5036 1098.00
39.5688 1252.00
39.634 1760.00
39.6992 2603.00
39.7644 2736.00
39.8296 2168.00
39.8948 1532.00
39.96 1158.00
40.0252 1093.00
40.0904 1002.00
40.1556 999.00
40.2208 894.00
40.286 870.00
40.3512 922.00
40.4164 956.00
40.4816 956.00
40.5468 1120.00
40.612 1374.00
40.6772 1717.00
40.7424 1921.00
40.8076 1770.00
40.8728 1468.00
40.938 1210.00
41.0032 996.00
41.0684 971.00
41.1336 918.00
41.1988 872.00
41.264 963.00
41.3292 1006.00
41.3944 988.00
41.4596 1012.00
41.5248 1007.00
41.59 1047.00
41.6552 1000.00
41.7204 1137.00
41.7856 1162.00
41.8508 1423.00
41.916 1949.00
41.9812 2764.00
42.0464 3485.00
42.1116 2825.00
42.1768 2087.00
42.242 1493.00
42.3072 1234.00
42.3724 1343.00
42.4376 1589.00
42.5028 1740.00
42.568 1612.00
42.6332 1382.00
42.6983 1074.00
42.7635 970.00
42.8287 858.00
42.8939 865.00
42.9591 872.00
43.0243 857.00
43.0895 960.00
43.1547 943.00
43.2199 1042.00
43.2851 1033.00
43.3503 971.00
43.4155 907.00
43.4807 940.00
43.5459 898.00
43.6111 920.00
43.6763 840.00
43.7415 827.00
43.8067 989.00
43.8719 1009.00
43.9371 1172.00
44.0023 1405.00
44.0675 1859.00
44.1327 2007.00
44.1979 1768.00
44.2631 1482.00
44.3283 1180.00
44.3935 978.00
44.4587 905.00
44.5239 905.00
44.5891 833.00
44.6543 908.00
44.7195 1007.00
44.7847 1103.00
44.8499 1271.00
44.9151 1457.00
44.9803 1489.00
45.0455 1655.00
45.1107 1584.00
45.1759 1631.00
45.2411 1576.00
45.3063 1524.00
45.3715 1383.00
45.4367 1243.00
45.5019 1028.00
45.5671 906.00
45.6323 884.00
45.6975 831.00
45.7627 912.00
45.8279 793.00
45.8931 894.00
45.9583 894.00
46.0235 918.00
46.0887 991.00
46.1539 1089.00
46.2191 1147.00
46.2843 1277.00
46.3495 1558.00
46.4147 1934.00
46.4799 2353.00
46.5451 2363.00
46.6103 2108.00
46.6755 1711.00
46.7407 1512.00
46.8059 1424.00
46.8711 1205.00
46.9363 1139.00
47.0015 976.00
47.0667 915.00
47.1319 928.00
47.1971 839.00
47.2623 912.00
47.3275 823.00
47.3927 868.00
47.4579 904.00
47.523 1057.00
47.5882 1134.00
47.6534 1219.00
47.7186 1196.00
47.7838 1103.00
47.849 1104.00
47.9142 1120.00
47.9794 1199.00
48.0446 1414.00
48.1098 1858.00
48.175 2460.00
48.2402 3220.00
48.3054 3585.00
48.3706 3597.00
48.4358 3010.00
48.501 2290.00
48.5662 2112.00
48.6314 1781.00
48.6966 1781.00
48.7618 1676.00
48.827 1835.00
48.8922 2209.00
48.9574 2616.00
49.0226 2195.00
49.0878 1760.00
49.153 1295.00
49.2182 986.00
49.2834 923.00
49.3486 932.00
49.4138 938.00
49.479 967.00
49.5442 1019.00
49.6094 1201.00
49.6746 1457.00
49.7398 1856.00
49.805 2338.00
49.8702 2691.00
49.9354 2858.00
50.0006 2756.00
50.0658 2174.00
50.131 1660.00
50.1962 1318.00
50.2614 1050.00
50.3266 966.00
50.3918 906.00
50.457 876.00
50.5222 888.00
50.5874 859.00
50.6526 838.00
50.7178 824.00
50.783 948.00
50.8482 1075.00
50.9134 1150.00
50.9786 1291.00
51.0438 1306.00
51.109 1326.00
51.1742 1165.00
51.2394 1123.00
51.3046 1142.00
51.3698 1169.00
51.435 1258.00
51.5002 1390.00
51.5654 1453.00
51.6306 1563.00
51.6958 1870.00
51.761 2129.00
51.8262 2955.00
51.8914 3855.00
51.9566 4526.00
52.0218 4314.00
52.087 3646.00
52.1522 2617.00
52.2174 1887.00
52.2826 1261.00
52.3477 1033.00
52.4129 937.00
52.4781 859.00
52.5433 867.00
52.6085 826.00
52.6737 895.00
52.7389 882.00
52.8041 954.00
52.8693 970.00
52.9345 1110.00
52.9997 1262.00
53.0649 1264.00
53.1301 1138.00
53.1953 1119.00
53.2605 1094.00
53.3257 1183.00
53.3909 1161.00
53.4561 1088.00
53.5213 1213.00
53.5865 1506.00
53.6517 1543.00
53.7169 1389.00
53.7821 1239.00
53.8473 1011.00
53.9125 922.00
53.9777 807.00
54.0429 800.00
54.1081 764.00
54.1733 817.00
54.2385 893.00
54.3037 860.00
54.3689 935.00
54.4341 906.00
54.4993 882.00
54.5645 937.00
54.6297 1035.00
54.6949 1043.00
54.7601 1183.00
54.8253 1476.00
54.8905 1830.00
54.9557 2520.00
55.0209 3109.00
55.0861 3276.00
55.1513 3012.00
55.2165 2376.00
55.2817 1887.00
55.3469 1608.00
55.4121 1277.00
55.4773 1231.00
55.5425 1246.00
55.6077 1265.00
55.6729 1310.00
55.7381 1207.00
55.8033 1183.00
55.8685 1376.00
55.9337 1408.00
55.9989 1620.00
56.0641 1585.00
56.1293 1507.00
56.1945 1354.00
56.2597 1076.00
56.3249 989.00
56.3901 1013.00
56.4553 1023.00
56.5205 1029.00
56.5857 963.00
56.6509 879.00
56.7161 899.00
56.7813 770.00
56.8465 791.00
56.9117 887.00
56.9769 954.00
57.042 934.00
57.1073 911.00
57.1724 840.00
57.2376 742.00
57.3028 839.00
57.368 889.00
57.4332 923.00
57.4984 927.00
57.5636 926.00
57.6288 860.00
57.694 892.00
57.7592 900.00
57.8244 779.00
57.8896 776.00
57.9548 846.00
58.02 778.00
58.0852 826.00
58.1504 884.00
58.2156 935.00
58.2808 977.00
58.346 1066.00
58.4112 1260.00
58.4764 1547.00
58.5416 1807.00
58.6068 2233.00
58.672 2225.00
58.7372 2097.00
58.8024 1996.00
58.8676 1877.00
58.9328 2009.00
58.998 2271.00
59.0632 2610.00
59.1284 2267.00
59.1936 2025.00
59.2588 1595.00
59.324 1268.00
59.3892 978.00
59.4544 912.00
59.5196 912.00
59.5848 898.00
59.65 1008.00
59.7152 1070.00
59.7804 1265.00
59.8456 1361.00
59.9108 1668.00
59.976 2064.00
60.0412 2421.00
60.1064 2604.00
60.1716 2496.00
60.2368 2220.00
60.302 2216.00
60.3672 2278.00
60.4324 2532.00
60.4976 2984.00
60.5628 3227.00
60.628 3060.00
60.6932 2670.00
60.7584 2154.00
60.8236 1786.00
60.8888 1345.00
60.954 1048.00
61.0192 1147.00
61.0844 1063.00
61.1496 1039.00
61.2148 1023.00
61.28 1051.00
61.3452 1064.00
61.4104 1151.00
61.4756 1186.00
61.5408 1284.00
61.606 1346.00
61.6712 1452.00
61.7364 1459.00
61.8016 1605.00
61.8667 1603.00
61.932 1816.00
61.9971 1898.00
62.0623 1723.00
62.1275 1650.00
62.1927 1473.00
62.2579 1207.00
62.3231 1094.00
62.3883 992.00
62.4535 950.00
62.5187 899.00
62.5839 884.00
62.6491 889.00
62.7143 853.00
62.7795 851.00
62.8447 806.00
62.9099 853.00
62.9751 916.00
63.0403 912.00
63.1055 899.00
63.1707 1064.00
63.2359 1152.00
63.3011 1365.00
63.3663 1437.00
63.4315 1371.00
63.4967 1257.00
63.5619 1216.00
63.6271 1130.00
63.6923 1059.00
63.7575 962.00
63.8227 899.00
63.8879 941.00
63.9531 939.00
64.0183 925.00
64.0835 966.00
64.1487 892.00
64.2139 998.00
64.2791 1136.00
64.3443 1187.00
64.4095 1405.00
64.4747 1749.00
64.5399 2147.00
64.6051 2377.00
64.6703 2473.00
64.7355 2336.00
64.8007 1953.00
64.8659 1623.00
64.9311 1286.00
64.9963 1066.00
65.0615 930.00
65.1267 930.00
65.1919 930.00
65.2571 989.00
65.3223 958.00
65.3875 1092.00
65.4527 1153.00
65.5179 1313.00
65.5831 1296.00
65.6483 1414.00
65.7135 1414.00
65.7787 1350.00
65.8439 1371.00
65.9091 1613.00
65.9743 1970.00
66.0395 2345.00
66.1047 2463.00
66.1699 2853.00
66.2351 3500.00
66.3003 3868.00
66.3655 4164.00
66.4307 4326.00
66.4959 4187.00
66.561 3618.00
66.6263 2965.00
66.6915 2331.00
66.7566 1821.00
66.8218 1394.00
66.887 1207.00
66.9522 1130.00
67.0174 1114.00
67.0826 1342.00
67.1478 1496.00
67.213 1624.00
67.2782 1630.00
67.3434 1402.00
67.4086 1312.00
67.4738 1213.00
67.539 1061.00
67.6042 961.00
67.6694 967.00
67.7346 924.00
67.7998 1016.00
67.865 1053.00
67.9302 993.00
67.9954 1004.00
68.0606 980.00
68.1258 964.00
68.191 908.00
68.2562 871.00
68.3214 845.00
68.3866 851.00
68.4518 791.00
68.517 757.00
68.5822 855.00
68.6474 810.00
68.7126 830.00
68.7778 925.00
68.843 980.00
68.9082 1057.00
68.9734 1314.00
69.0386 1495.00
69.1038 1682.00
69.169 1784.00
69.2342 1889.00
69.2994 1773.00
69.3646 1780.00
69.4298 1762.00
69.495 1851.00
69.5602 1792.00
69.6254 1894.00
69.6906 1929.00
69.7558 1758.00
69.821 1571.00
69.8862 1437.00
69.9514 1184.00
70.0166 1070.00
70.0818 987.00
70.147 1004.00
70.2122 1029.00
70.2774 1159.00
70.3426 1228.00
70.4078 1330.00
70.473 1363.00
70.5382 1335.00
70.6034 1317.00
70.6686 1336.00
70.7338 1445.00
70.799 1656.00
70.8642 1742.00
70.9294 1722.00
70.9946 1671.00
71.0598 1556.00
71.125 1387.00
71.1902 1226.00
71.2554 1116.00
71.3205 1047.00
71.3858 971.00
71.451 864.00
71.5162 801.00
71.5813 783.00
71.6465 765.00
71.7117 700.00
71.7769 770.00
71.8421 726.00
71.9073 755.00
71.9725 688.00
72.0377 753.00
72.1029 725.00
72.1681 701.00
72.2333 687.00
72.2985 716.00
72.3637 677.00
72.4289 711.00
72.4941 738.00
72.5593 760.00
72.6245 763.00
72.6897 783.00
72.7549 735.00
72.8201 718.00
72.8853 723.00
72.9505 720.00
73.0157 756.00
73.0809 852.00
73.1461 759.00
73.2113 839.00
73.2765 918.00
73.3417 1037.00
73.4069 1154.00
73.4721 1303.00
73.5373 1353.00
73.6025 1335.00
73.6677 1355.00
73.7329 1339.00
73.7981 1325.00
73.8633 1235.00
73.9285 1231.00
73.9937 1233.00
74.0589 1290.00
74.1241 1126.00
74.1893 1054.00
74.2545 990.00
74.3197 930.00
74.3849 869.00
74.4501 814.00
74.5153 827.00
74.5805 753.00
74.6457 762.00
74.7109 768.00
74.7761 807.00
74.8413 870.00
74.9065 909.00
74.9717 890.00
75.0369 1016.00
75.1021 984.00
75.1673 976.00
75.2325 1083.00
75.2977 1070.00
75.3629 1021.00
75.4281 980.00
75.4933 1043.00
75.5585 1135.00
75.6237 1050.00
75.6889 993.00
75.7541 922.00
75.8193 928.00
75.8845 830.00
75.9497 870.00
76.0149 773.00
76.0801 754.00
76.1452 754.00
76.2104 725.00
76.2756 728.00
76.3409 761.00
76.406 817.00
76.4712 788.00
76.5364 847.00
76.6016 858.00
76.6668 876.00
76.732 859.00
76.7972 781.00
76.8624 766.00
76.9276 787.00
76.9928 719.00
77.058 711.00
77.1232 786.00
77.1884 724.00
77.2536 776.00
77.3188 817.00
77.384 894.00
77.4492 981.00
77.5144 1119.00
77.5796 1160.00
77.6448 1262.00
77.71 1464.00
77.7752 1642.00
77.8404 1660.00
77.9056 1692.00
77.9708 1670.00
78.036 1474.00
78.1012 1413.00
78.1664 1199.00
78.2316 1105.00
78.2968 1049.00
78.362 1007.00
78.4272 946.00
78.4924 881.00
78.5576 965.00
78.6228 1036.00
78.688 981.00
78.7532 955.00
78.8184 975.00
78.8836 874.00
78.9488 909.00
79.014 940.00
79.0792 1002.00
79.1444 997.00
79.2096 1042.00
79.2748 1258.00
79.34 1174.00
79.4052 1274.00
79.4704 1379.00
79.5356 1376.00
79.6008 1232.00
79.666 1176.00
79.7312 1087.00
79.7964 1049.00
79.8616 1104.00
79.9268 1046.00
79.992 1089.00
80.0572 1194.00
80.1224 1288.00
80.1876 1325.00
80.2528 1251.00
80.318 1215.00
80.3832 1163.00
80.4484 1115.00
80.5136 1025.00
80.5788 911.00
80.644 846.00
80.7092 775.00
80.7744 798.00
80.8396 802.00
80.9048 811.00
80.9699 829.00
81.0351 744.00
81.1003 794.00
81.1655 734.00
81.2307 689.00
81.2959 666.00
81.3611 789.00
81.4263 719.00
81.4915 761.00
81.5567 724.00
81.6219 754.00
81.6871 739.00
81.7523 731.00
81.8175 778.00
81.8827 761.00
81.9479 761.00
82.0131 761.00
82.0783 807.00
82.1435 877.00
82.2087 934.00
82.2739 1026.00
82.3391 1101.00
82.4043 1208.00
82.4695 1258.00
82.5347 1282.00
82.5999 1262.00
82.6651 1238.00
82.7303 1133.00
82.7955 1166.00
82.8607 1068.00
82.9259 948.00
82.9911 913.00
83.0563 884.00
83.1215 773.00
83.1867 735.00
83.2519 721.00
83.3171 732.00
83.3823 761.00
83.4475 750.00
83.5127 766.00
83.5779 807.00
83.6431 786.00
83.7083 841.00
83.7735 809.00
83.8387 814.00
83.9039 871.00
83.9691 807.00
84.0343 807.00
84.0995 791.00
84.1647 854.00
84.2299 817.00
84.2951 846.00
84.3603 858.00
84.4255 852.00
84.4907 971.00
84.5559 895.00
84.6211 941.00
84.6863 828.00
84.7515 849.00
84.8167 868.00
84.8819 885.00
84.9471 863.00
85.0123 867.00
85.0775 859.00
85.1427 885.00
85.2079 825.00
85.2731 766.00
85.3383 788.00
85.4035 698.00
85.4687 737.00
85.5339 695.00
85.5991 717.00
85.6643 705.00
85.7295 704.00
85.7946 760.00
85.8598 785.00
85.925 771.00
85.9903 843.00
86.0554 880.00
86.1206 841.00
86.1858 915.00
86.251 925.00
86.3162 986.00
86.3814 971.00
86.4466 984.00
86.5118 990.00
86.577 1079.00
86.6422 1024.00
86.7074 994.00
86.7726 925.00
86.8378 934.00
86.903 884.00
86.9682 841.00
87.0334 863.00
87.0986 825.00
87.1638 737.00
87.229 798.00
87.2942 776.00
87.3594 862.00
87.4246 870.00
87.4898 895.00
87.555 1053.00
87.6202 1116.00
87.6854 1215.00
87.7506 1247.00
87.8158 1313.00
87.881 1260.00
87.9462 1171.00
88.0114 1155.00
88.0766 1051.00
88.1418 943.00
88.207 896.00
88.2722 845.00
88.3374 763.00
88.4026 741.00
88.4678 725.00
88.533 790.00
88.5982 802.00
88.6634 811.00
88.7286 850.00
88.7938 893.00
88.859 840.00
88.9242 818.00
88.9894 731.00
89.0546 787.00
89.1198 773.00
89.185 757.00
89.2502 753.00
89.3154 741.00
89.3806 727.00
89.4458 719.00
89.511 728.00
89.5762 749.00
89.6414 770.00
89.7066 688.00
89.7718 745.00
89.837 821.00
89.9022 832.00
89.9674 778.00
90.0326 883.00
90.0978 791.00
90.163 861.00
90.2282 807.00
90.2934 835.00
90.3586 741.00
90.4238 731.00
90.489 760.00
90.5542 685.00
90.6193 721.00
90.6845 703.00
90.7497 651.00
90.8149 690.00
90.8801 720.00
90.9453 778.00
91.0105 745.00
91.0757 729.00
91.1409 796.00
91.2061 772.00
91.2713 787.00
91.3365 856.00
91.4017 832.00
91.4669 853.00
91.5321 868.00
91.5973 856.00
91.6625 959.00
91.7277 997.00
91.7929 1099.00
91.8581 1129.00
91.9233 1112.00
91.9885 1140.00
92.0537 1072.00
92.1189 1083.00
92.1841 1073.00
92.2493 1063.00
92.3145 989.00
92.3797 1038.00
92.4449 1095.00
92.5101 1067.00
92.5753 1254.00
92.6405 1289.00
92.7057 1328.00
92.7709 1268.00
92.8361 1344.00
92.9013 1292.00
92.9665 1279.00
93.0317 1311.00
93.0969 1394.00
93.1621 1410.00
93.2273 1345.00
93.2925 1289.00
93.3577 1244.00
93.4229 1217.00
93.4881 1151.00
93.5533 1004.00
93.6185 932.00
93.6837 925.00
93.7489 891.00
93.8141 848.00
93.8793 791.00
93.9445 746.00
94.0097 752.00
94.0749 724.00
94.1401 725.00
94.2053 829.00
94.2705 786.00
94.3357 792.00
94.4009 803.00
94.4661 835.00
94.5313 795.00
94.5965 819.00
94.6617 827.00
94.7269 798.00
94.7921 779.00
94.8573 764.00
94.9225 801.00
94.9877 737.00
95.0529 784.00
95.1181 753.00
95.1833 752.00
95.2485 762.00
95.3137 774.00
95.3789 689.00
95.444 716.00
95.5092 743.00
95.5744 810.00
95.6396 820.00
95.7048 831.00
95.77 965.00
95.8352 906.00
95.9004 963.00
95.9656 1014.00
96.0308 941.00
96.096 956.00
96.1612 961.00
96.2264 912.00
96.2916 951.00
96.3568 885.00
96.422 931.00
96.4872 873.00
96.5524 876.00
96.6176 843.00
96.6828 854.00
96.748 861.00
96.8132 866.00
96.8784 853.00
96.9436 877.00
97.0088 788.00
97.074 824.00
97.1392 861.00
97.2044 833.00
97.2696 843.00
97.3348 796.00
97.4 824.00
97.4652 770.00
97.5304 746.00
97.5956 737.00
97.6608 769.00
97.726 786.00
97.7912 748.00
97.8564 750.00
97.9216 730.00
97.9868 793.00
98.052 709.00
98.1172 798.00
98.1824 875.00
98.2476 948.00
98.3128 909.00
98.378 1002.00
98.4432 1018.00
98.5084 1049.00
98.5736 1081.00
98.6388 1048.00
98.704 1074.00
98.7692 980.00
98.8344 995.00
98.8996 1030.00
98.9648 1007.00
99.03 971.00
99.0952 905.00
99.1604 936.00
99.2256 889.00
99.2908 982.00
99.356 931.00
99.4212 1087.00
99.4864 1030.00
99.5516 1074.00
99.6168 1100.00
99.682 1036.00
99.7472 1069.00
99.8124 1140.00
99.8776 1170.00
99.9428 1127.00
100.008 1041.00
100.073 1038.00
100.095 1046.00