File: data/xrd_creation/results/NSC_178.xy
9.903433 2676.00
9.968632 2653.00
10.0338 2547.00
10.099 2554.00
10.1642 2481.00
10.2294 2553.00
10.2946 2461.00
10.3598 2483.00
10.425 2481.00
10.4902 2485.00
10.5554 2426.00
10.6206 2482.00
10.6858 2411.00
10.751 2426.00
10.8162 2380.00
10.8814 2490.00
10.9466 2426.00
11.0118 2343.00
11.077 2436.00
11.1422 2429.00
11.2074 2443.00
11.2726 2467.00
11.3378 2483.00
11.403 2309.00
11.4682 2130.00
11.5334 2102.00
11.5986 2120.00
11.6638 2099.00
11.729 2144.00
11.7942 2069.00
11.8594 2055.00
11.9246 2057.00
11.9898 2015.00
12.055 2079.00
12.1202 1942.00
12.1854 2033.00
12.2506 2066.00
12.3158 1981.00
12.381 2032.00
12.4462 1921.00
12.5114 1921.00
12.5766 1834.00
12.6418 1892.00
12.707 1870.00
12.7722 1849.00
12.8374 1826.00
12.9026 1804.00
12.9678 1864.00
13.033 1854.00
13.0982 1827.00
13.1634 1809.00
13.2286 1865.00
13.2938 1668.00
13.359 1826.00
13.4242 1737.00
13.4894 1804.00
13.5546 1859.00
13.6198 1815.00
13.685 1858.00
13.7502 1990.00
13.8154 2053.00
13.8805 1995.00
13.9457 2069.00
14.0109 2129.00
14.0761 2076.00
14.1413 2095.00
14.2065 1950.00
14.2717 1831.00
14.3369 1834.00
14.4021 1706.00
14.4673 1737.00
14.5325 1705.00
14.5977 1752.00
14.6629 1780.00
14.7281 1826.00
14.7933 1725.00
14.8585 1805.00
14.9237 1814.00
14.9889 1677.00
15.0541 1561.00
15.1193 1505.00
15.1845 1600.00
15.2497 1593.00
15.3149 1537.00
15.3801 1614.00
15.4453 1576.00
15.5105 1535.00
15.5757 1530.00
15.6409 1494.00
15.7061 1539.00
15.7713 1511.00
15.8365 1551.00
15.9017 1585.00
15.9669 1536.00
16.0321 1577.00
16.0973 1501.00
16.1625 1521.00
16.2277 1495.00
16.2929 1473.00
16.3581 1499.00
16.4233 1431.00
16.4885 1462.00
16.5537 1541.00
16.6189 1511.00
16.6841 1511.00
16.7493 1507.00
16.8145 1429.00
16.8797 1464.00
16.9449 1513.00
17.0101 1525.00
17.0753 1449.00
17.1405 1418.00
17.2057 1421.00
17.2709 1434.00
17.3361 1448.00
17.4013 1431.00
17.4665 1419.00
17.5317 1387.00
17.5969 1398.00
17.6621 1473.00
17.7273 1468.00
17.7925 1329.00
17.8577 1429.00
17.9229 1400.00
17.9881 1315.00
18.0533 1368.00
18.1185 1409.00
18.1837 1343.00
18.2489 1351.00
18.3141 1341.00
18.3793 1423.00
18.4445 1283.00
18.5097 1286.00
18.5749 1308.00
18.6401 1355.00
18.7052 1294.00
18.7704 1321.00
18.8356 1342.00
18.9008 1340.00
18.966 1294.00
19.0312 1295.00
19.0964 1369.00
19.1616 1361.00
19.2268 1348.00
19.292 1509.00
19.3572 1555.00
19.4224 1533.00
19.4876 1696.00
19.5528 1853.00
19.618 1746.00
19.6832 1605.00
19.7484 1690.00
19.8136 1715.00
19.8788 1607.00
19.944 1582.00
20.0092 1566.00
20.0744 1612.00
20.1396 1654.00
20.2048 1730.00
20.27 1697.00
20.3352 1805.00
20.4004 1906.00
20.4656 1982.00
20.5308 2232.00
20.596 2385.00
20.6612 2624.00
20.7264 3139.00
20.7916 3154.00
20.8568 2262.00
20.922 1730.00
20.9872 1487.00
21.0524 1387.00
21.1176 1351.00
21.1828 1324.00
21.248 1320.00
21.3132 1315.00
21.3784 1305.00
21.4436 1355.00
21.5088 1415.00
21.574 1515.00
21.6392 1665.00
21.7044 1940.00
21.7696 2093.00
21.8348 2699.00
21.9 2941.00
21.9652 3433.00
22.0304 3615.00
22.0956 4029.00
22.1608 3613.00
22.226 2371.00
22.2912 2073.00
22.3564 2093.00
22.4216 2223.00
22.4868 2660.00
22.552 2452.00
22.6172 1749.00
22.6824 1374.00
22.7476 1306.00
22.8128 1341.00
22.878 1450.00
22.9432 1522.00
23.0084 1680.00
23.0736 1772.00
23.1388 1949.00
23.204 2354.00
23.2692 2608.00
23.3344 2743.00
23.3996 2632.00
23.4647 2461.00
23.5299 2456.00
23.5951 1909.00
23.6603 1538.00
23.7255 1383.00
23.7907 1306.00
23.8559 1236.00
23.9211 1264.00
23.9863 1226.00
24.0515 1157.00
24.1167 1236.00
24.1819 1227.00
24.2471 1222.00
24.3123 1171.00
24.3775 1160.00
24.4427 1159.00
24.5079 1219.00
24.5731 1167.00
24.6383 1253.00
24.7035 1200.00
24.7687 1120.00
24.8339 1156.00
24.8991 1062.00
24.9643 1130.00
25.0295 1065.00
25.0947 1099.00
25.1599 1156.00
25.2251 1140.00
25.2903 1181.00
25.3555 1207.00
25.4207 1141.00
25.4859 1227.00
25.5511 1185.00
25.6163 1252.00
25.6815 1370.00
25.7467 1631.00
25.8119 2130.00
25.8771 2863.00
25.9423 4438.00
26.0075 5956.00
26.0727 7015.00
26.1379 10255.00
26.2031 10467.00
26.2683 6143.00
26.3335 3190.00
26.3987 2211.00
26.4639 2376.00
26.5291 2743.00
26.5943 3174.00
26.6595 2661.00
26.7247 1957.00
26.7899 1596.00
26.8551 1710.00
26.9203 1782.00
26.9855 1619.00
27.0507 1241.00
27.1159 1131.00
27.1811 1030.00
27.2463 1050.00
27.3115 1034.00
27.3767 1059.00
27.4419 1067.00
27.5071 1012.00
27.5723 1054.00
27.6375 1090.00
27.7027 1106.00
27.7679 1215.00
27.8331 1193.00
27.8983 1281.00
27.9635 1494.00
28.0287 1543.00
28.0939 1583.00
28.1591 1594.00
28.2243 1795.00
28.2894 1663.00
28.3546 1312.00
28.4198 1144.00
28.485 1068.00
28.5502 1060.00
28.6154 1000.00
28.6806 1033.00
28.7458 936.00
28.811 976.00
28.8762 977.00
28.9414 995.00
29.0066 994.00
29.0718 979.00
29.137 1030.00
29.2022 1002.00
29.2674 1010.00
29.3326 1005.00
29.3978 1011.00
29.463 1026.00
29.5282 1068.00
29.5934 1148.00
29.6586 1083.00
29.7238 1160.00
29.789 1243.00
29.8542 1184.00
29.9194 1028.00
29.9846 957.00
30.0498 977.00
30.115 966.00
30.1802 922.00
30.2454 959.00
30.3106 970.00
30.3758 1045.00
30.441 1036.00
30.5062 1041.00
30.5714 1032.00
30.6366 1103.00
30.7018 1084.00
30.767 1391.00
30.8322 1655.00
30.8974 1862.00
30.9626 2332.00
31.0278 2636.00
31.093 2668.00
31.1582 2305.00
31.2234 1960.00
31.2886 1743.00
31.3538 1839.00
31.419 1907.00
31.4842 1784.00
31.5494 1826.00
31.6146 1978.00
31.6798 1994.00
31.745 2432.00
31.8102 2875.00
31.8754 2617.00
31.9406 2073.00
32.0058 1832.00
32.071 1640.00
32.1362 1247.00
32.2014 947.00
32.2666 887.00
32.3318 855.00
32.397 892.00
32.4622 824.00
32.5274 878.00
32.5926 910.00
32.6578 935.00
32.723 906.00
32.7882 855.00
32.8534 853.00
32.9186 856.00
32.9838 861.00
33.0489 881.00
33.1141 868.00
33.1793 890.00
33.2445 938.00
33.3097 902.00
33.3749 804.00
33.4401 859.00
33.5053 882.00
33.5705 834.00
33.6357 895.00
33.7009 938.00
33.7661 985.00
33.8313 1158.00
33.8965 1223.00
33.9617 1458.00
34.0269 1772.00
34.0921 1713.00
34.1573 1291.00
34.2225 1030.00
34.2877 1008.00
34.3529 1132.00
34.4181 1165.00
34.4833 1024.00
34.5485 922.00
34.6137 1028.00
34.6789 1089.00
34.7441 1243.00
34.8093 1348.00
34.8745 1693.00
34.9397 2072.00
35.0049 2247.00
35.0701 1926.00
35.1353 1511.00
35.2005 1125.00
35.2657 941.00
35.3309 816.00
35.3961 910.00
35.4613 808.00
35.5265 824.00
35.5917 848.00
35.6569 877.00
35.7221 856.00
35.7873 1050.00
35.8525 1062.00
35.9177 1205.00
35.9829 1304.00
36.0481 1638.00
36.1133 1780.00
36.1785 1957.00
36.2437 1766.00
36.3089 1445.00
36.3741 1226.00
36.4393 978.00
36.5045 933.00
36.5697 925.00
36.6349 823.00
36.7001 792.00
36.7653 801.00
36.8305 815.00
36.8957 783.00
36.9609 790.00
37.0261 782.00
37.0913 731.00
37.1565 751.00
37.2217 717.00
37.2869 722.00
37.3521 699.00
37.4173 699.00
37.4825 767.00
37.5477 694.00
37.6129 658.00
37.6781 709.00
37.7433 745.00
37.8085 753.00
37.8736 836.00
37.9388 858.00
38.004 1031.00
38.0692 1459.00
38.1344 2382.00
38.1996 3602.00
38.2648 4394.00
38.33 3534.00
38.3952 2326.00
38.4604 1301.00
38.5256 876.00
38.5908 787.00
38.656 706.00
38.7212 814.00
38.7864 690.00
38.8516 657.00
38.9168 674.00
38.982 736.00
39.0472 755.00
39.1124 808.00
39.1776 761.00
39.2428 771.00
39.308 773.00
39.3732 856.00
39.4384 912.00
39.5036 1129.00
39.5688 1408.00
39.634 1635.00
39.6992 1933.00
39.7644 1689.00
39.8296 1341.00
39.8948 968.00
39.96 831.00
40.0252 738.00
40.0904 813.00
40.1556 839.00
40.2208 815.00
40.286 719.00
40.3512 711.00
40.4164 692.00
40.4816 764.00
40.5468 796.00
40.612 864.00
40.6772 881.00
40.7424 812.00
40.8076 769.00
40.8728 762.00
40.938 773.00
41.0032 812.00
41.0684 770.00
41.1336 806.00
41.1988 829.00
41.264 799.00
41.3292 789.00
41.3944 780.00
41.4596 752.00
41.5248 739.00
41.59 795.00
41.6552 881.00
41.7204 1042.00
41.7856 1236.00
41.8508 1650.00
41.916 2288.00
41.9812 3105.00
42.0464 2728.00
42.1116 2092.00
42.1768 1536.00
42.242 1264.00
42.3072 1170.00
42.3724 1232.00
42.4376 1218.00
42.5028 1091.00
42.568 1011.00
42.6332 950.00
42.6983 943.00
42.7635 959.00
42.8287 1072.00
42.8939 1128.00
42.9591 976.00
43.0243 917.00
43.0895 881.00
43.1547 866.00
43.2199 770.00
43.2851 696.00
43.3503 625.00
43.4155 642.00
43.4807 684.00
43.5459 717.00
43.6111 697.00
43.6763 770.00
43.7415 838.00
43.8067 796.00
43.8719 681.00
43.9371 662.00
44.0023 685.00
44.0675 623.00
44.1327 701.00
44.1979 810.00
44.2631 779.00
44.3283 786.00
44.3935 684.00
44.4587 696.00
44.5239 628.00
44.5891 695.00
44.6543 836.00
44.7195 962.00
44.7847 1087.00
44.8499 1138.00
44.9151 1037.00
44.9803 980.00
45.0455 915.00
45.1107 851.00
45.1759 949.00
45.2411 955.00
45.3063 913.00
45.3715 846.00
45.4367 865.00
45.5019 832.00
45.5671 823.00
45.6323 825.00
45.6975 852.00
45.7627 777.00
45.8279 671.00
45.8931 616.00
45.9583 541.00
46.0235 580.00
46.0887 621.00
46.1539 638.00
46.2191 636.00
46.2843 626.00
46.3495 615.00
46.4147 614.00
46.4799 671.00
46.5451 694.00
46.6103 709.00
46.6755 755.00
46.7407 724.00
46.8059 620.00
46.8711 587.00
46.9363 670.00
47.0015 634.00
47.0667 759.00
47.1319 776.00
47.1971 944.00
47.2623 1203.00
47.3275 1352.00
47.3927 1193.00
47.4579 1139.00
47.523 1005.00
47.5882 928.00
47.6534 873.00
47.7186 895.00
47.7838 855.00
47.849 918.00
47.9142 863.00
47.9794 889.00
48.0446 768.00
48.1098 725.00
48.175 760.00
48.2402 846.00
48.3054 924.00
48.3706 990.00
48.4358 1144.00
48.501 1183.00
48.5662 1090.00
48.6314 1005.00
48.6966 1001.00
48.7618 1112.00
48.827 1509.00
48.8922 2314.00
48.9574 2220.00
49.0226 1826.00
49.0878 1343.00
49.153 962.00
49.2182 673.00
49.2834 626.00
49.3486 593.00
49.4138 608.00
49.479 598.00
49.5442 587.00
49.6094 652.00
49.6746 638.00
49.7398 708.00
49.805 713.00
49.8702 669.00
49.9354 655.00
50.0006 597.00
50.0658 608.00
50.131 619.00
50.1962 519.00
50.2614 566.00
50.3266 527.00
50.3918 595.00
50.457 623.00
50.5222 555.00
50.5874 615.00
50.6526 642.00
50.7178 724.00
50.783 759.00
50.8482 741.00
50.9134 746.00
50.9786 784.00
51.0438 742.00
51.109 614.00
51.1742 653.00
51.2394 648.00
51.3046 662.00
51.3698 783.00
51.435 828.00
51.5002 819.00
51.5654 805.00
51.6306 767.00
51.6958 705.00
51.761 720.00
51.8262 723.00
51.8914 691.00
51.9566 661.00
52.0218 661.00
52.087 689.00
52.1522 647.00
52.2174 616.00
52.2826 564.00
52.3477 519.00
52.4129 544.00
52.4781 516.00
52.5433 548.00
52.6085 567.00
52.6737 529.00
52.7389 601.00
52.8041 527.00
52.8693 504.00
52.9345 578.00
52.9997 563.00
53.0649 581.00
53.1301 715.00
53.1953 856.00
53.2605 814.00
53.3257 788.00
53.3909 902.00
53.4561 1014.00
53.5213 1061.00
53.5865 1083.00
53.6517 943.00
53.7169 920.00
53.7821 864.00
53.8473 828.00
53.9125 813.00
53.9777 819.00
54.0429 908.00
54.1081 910.00
54.1733 872.00
54.2385 814.00
54.3037 865.00
54.3689 850.00
54.4341 1027.00
54.4993 1113.00
54.5645 1142.00
54.6297 1103.00
54.6949 1030.00
54.7601 909.00
54.8253 821.00
54.8905 761.00
54.9557 701.00
55.0209 681.00
55.0861 627.00
55.1513 607.00
55.2165 658.00
55.2817 650.00
55.3469 597.00
55.4121 639.00
55.4773 634.00
55.5425 646.00
55.6077 654.00
55.6729 724.00
55.7381 852.00
55.8033 892.00
55.8685 927.00
55.9337 944.00
55.9989 826.00
56.0641 715.00
56.1293 704.00
56.1945 614.00
56.2597 611.00
56.3249 626.00
56.3901 727.00
56.4553 760.00
56.5205 812.00
56.5857 680.00
56.6509 655.00
56.7161 586.00
56.7813 572.00
56.8465 528.00
56.9117 550.00
56.9769 650.00
57.042 637.00
57.1073 645.00
57.1724 617.00
57.2376 574.00
57.3028 533.00
57.368 556.00
57.4332 499.00
57.4984 565.00
57.5636 534.00
57.6288 567.00
57.694 520.00
57.7592 538.00
57.8244 573.00
57.8896 569.00
57.9548 603.00
58.02 604.00
58.0852 659.00
58.1504 609.00
58.2156 593.00
58.2808 635.00
58.346 599.00
58.4112 622.00
58.4764 641.00
58.5416 580.00
58.6068 550.00
58.672 619.00
58.7372 662.00
58.8024 880.00
58.8676 1093.00
58.9328 1474.00
58.998 1851.00
59.0632 2101.00
59.1284 1734.00
59.1936 1532.00
59.2588 1372.00
59.324 1148.00
59.3892 937.00
59.4544 841.00
59.5196 829.00
59.5848 844.00
59.65 829.00
59.7152 779.00
59.7804 724.00
59.8456 733.00
59.9108 668.00
59.976 691.00
60.0412 714.00
60.1064 732.00
60.1716 697.00
60.2368 666.00
60.302 789.00
60.3672 858.00
60.4324 869.00
60.4976 785.00
60.5628 797.00
60.628 860.00
60.6932 812.00
60.7584 868.00
60.8236 828.00
60.8888 824.00
60.954 673.00
61.0192 757.00
61.0844 652.00
61.1496 692.00
61.2148 680.00
61.28 784.00
61.3452 785.00
61.4104 677.00
61.4756 695.00
61.5408 656.00
61.606 684.00
61.6712 658.00
61.7364 734.00
61.8016 847.00
61.8667 929.00
61.932 975.00
61.9971 843.00
62.0623 776.00
62.1275 662.00
62.1927 610.00
62.2579 660.00
62.3231 555.00
62.3883 648.00
62.4535 637.00
62.5187 659.00
62.5839 795.00
62.6491 771.00
62.7143 785.00
62.7795 728.00
62.8447 707.00
62.9099 688.00
62.9751 669.00
63.0403 732.00
63.1055 731.00
63.1707 704.00
63.2359 636.00
63.3011 636.00
63.3663 587.00
63.4315 592.00
63.4967 599.00
63.5619 641.00
63.6271 595.00
63.6923 559.00
63.7575 550.00
63.8227 541.00
63.8879 533.00
63.9531 594.00
64.0183 537.00
64.0835 620.00
64.1487 593.00
64.2139 548.00
64.2791 525.00
64.3443 569.00
64.4095 561.00
64.4747 532.00
64.5399 496.00
64.6051 529.00
64.6703 541.00
64.7355 599.00
64.8007 573.00
64.8659 578.00
64.9311 567.00
64.9963 579.00
65.0615 552.00
65.1267 519.00
65.1919 543.00
65.2571 568.00
65.3223 573.00
65.3875 600.00
65.4527 642.00
65.5179 605.00
65.5831 648.00
65.6483 696.00
65.7135 798.00
65.7787 947.00
65.8439 1290.00
65.9091 1805.00
65.9743 1778.00
66.0395 1673.00
66.1047 1770.00
66.1699 1748.00
66.2351 1761.00
66.3003 1618.00
66.3655 1346.00
66.4307 1201.00
66.4959 981.00
66.561 865.00
66.6263 819.00
66.6915 723.00
66.7566 635.00
66.8218 673.00
66.887 711.00
66.9522 774.00
67.0174 900.00
67.0826 1139.00
67.1478 1583.00
67.213 2088.00
67.2782 2110.00
67.3434 1778.00
67.4086 1627.00
67.4738 1462.00
67.539 1082.00
67.6042 897.00
67.6694 829.00
67.7346 782.00
67.7998 755.00
67.865 728.00
67.9302 711.00
67.9954 761.00
68.0606 785.00
68.1258 745.00
68.191 597.00
68.2562 595.00
68.3214 584.00
68.3866 532.00
68.4518 484.00
68.517 512.00
68.5822 503.00
68.6474 508.00
68.7126 474.00
68.7778 479.00
68.843 483.00
68.9082 527.00
68.9734 481.00
69.0386 499.00
69.1038 523.00
69.169 492.00
69.2342 498.00
69.2994 542.00
69.3646 478.00
69.4298 496.00
69.495 504.00
69.5602 534.00
69.6254 547.00
69.6906 542.00
69.7558 562.00
69.821 647.00
69.8862 608.00
69.9514 634.00
70.0166 701.00
70.0818 843.00
70.147 1009.00
70.2122 1137.00
70.2774 1065.00
70.3426 1047.00
70.4078 983.00
70.473 890.00
70.5382 773.00
70.6034 709.00
70.6686 643.00
70.7338 619.00
70.799 560.00
70.8642 589.00
70.9294 590.00
70.9946 550.00
71.0598 545.00
71.125 619.00
71.1902 641.00
71.2554 666.00
71.3205 666.00
71.3858 655.00
71.451 578.00
71.5162 578.00
71.5813 553.00
71.6465 499.00
71.7117 466.00
71.7769 435.00
71.8421 456.00
71.9073 466.00
71.9725 486.00
72.0377 491.00
72.1029 482.00
72.1681 448.00
72.2333 459.00
72.2985 471.00
72.3637 469.00
72.4289 481.00
72.4941 504.00
72.5593 521.00
72.6245 469.00
72.6897 498.00
72.7549 529.00
72.8201 498.00
72.8853 473.00
72.9505 490.00
73.0157 463.00
73.0809 482.00
73.1461 474.00
73.2113 447.00
73.2765 460.00
73.3417 501.00
73.4069 523.00
73.4721 644.00
73.5373 760.00
73.6025 768.00
73.6677 785.00
73.7329 787.00
73.7981 848.00
73.8633 880.00
73.9285 1007.00
73.9937 934.00
74.0589 875.00
74.1241 864.00
74.1893 870.00
74.2545 823.00
74.3197 781.00
74.3849 638.00
74.4501 612.00
74.5153 559.00
74.5805 515.00
74.6457 468.00
74.7109 489.00
74.7761 499.00
74.8413 487.00
74.9065 491.00
74.9717 529.00
75.0369 468.00
75.1021 522.00
75.1673 483.00
75.2325 512.00
75.2977 470.00
75.3629 493.00
75.4281 440.00
75.4933 512.00
75.5585 461.00
75.6237 480.00
75.6889 498.00
75.7541 526.00
75.8193 535.00
75.8845 483.00
75.9497 512.00
76.0149 472.00
76.0801 521.00
76.1452 499.00
76.2104 486.00
76.2756 526.00
76.3409 477.00
76.406 565.00
76.4712 565.00
76.5364 527.00
76.6016 535.00
76.6668 537.00
76.732 542.00
76.7972 516.00
76.8624 523.00
76.9276 524.00
76.9928 551.00
77.058 542.00
77.1232 519.00
77.1884 523.00
77.2536 567.00
77.3188 589.00
77.384 626.00
77.4492 675.00
77.5144 670.00
77.5796 657.00
77.6448 640.00
77.71 650.00
77.7752 649.00
77.8404 678.00
77.9056 612.00
77.9708 533.00
78.036 570.00
78.1012 540.00
78.1664 516.00
78.2316 543.00
78.2968 592.00
78.362 571.00
78.4272 484.00
78.4924 539.00
78.5576 569.00
78.6228 596.00
78.688 659.00
78.7532 561.00
78.8184 562.00
78.8836 555.00
78.9488 560.00
79.014 574.00
79.0792 509.00
79.1444 491.00
79.2096 475.00
79.2748 509.00
79.34 541.00
79.4052 516.00
79.4704 452.00
79.5356 452.00
79.6008 459.00
79.666 415.00
79.7312 472.00
79.7964 450.00
79.8616 498.00
79.9268 552.00
79.992 504.00
80.0572 646.00
80.1224 787.00
80.1876 973.00
80.2528 830.00
80.318 788.00
80.3832 838.00
80.4484 722.00
80.5136 612.00
80.5788 621.00
80.644 518.00
80.7092 510.00
80.7744 510.00
80.8396 515.00
80.9048 474.00
80.9699 481.00
81.0351 478.00
81.1003 471.00
81.1655 514.00
81.2307 489.00
81.2959 535.00
81.3611 517.00
81.4263 555.00
81.4915 491.00
81.5567 515.00
81.6219 442.00
81.6871 498.00
81.7523 535.00
81.8175 575.00
81.8827 586.00
81.9479 543.00
82.0131 557.00
82.0783 528.00
82.1435 526.00
82.2087 499.00
82.2739 526.00
82.3391 479.00
82.4043 434.00
82.4695 483.00
82.5347 416.00
82.5999 434.00
82.6651 425.00
82.7303 397.00
82.7955 442.00
82.8607 432.00
82.9259 451.00
82.9911 502.00
83.0563 526.00
83.1215 490.00
83.1867 488.00
83.2519 501.00
83.3171 496.00
83.3823 447.00
83.4475 439.00
83.5127 430.00
83.5779 429.00
83.6431 427.00
83.7083 447.00
83.7735 445.00
83.8387 391.00
83.9039 457.00
83.9691 438.00
84.0343 410.00
84.0995 404.00
84.1647 430.00
84.2299 400.00
84.2951 415.00
84.3603 432.00
84.4255 384.00
84.4907 417.00
84.5559 387.00
84.6211 426.00
84.6863 435.00
84.7515 408.00
84.8167 383.00
84.8819 445.00
84.9471 434.00
85.0123 462.00
85.0775 531.00
85.1427 529.00
85.2079 512.00
85.2731 483.00
85.3383 462.00
85.4035 500.00
85.4687 468.00
85.5339 446.00
85.5991 465.00
85.6643 435.00
85.7295 419.00
85.7946 429.00
85.8598 398.00
85.925 421.00
85.9903 392.00
86.0554 408.00
86.1206 411.00
86.1858 452.00
86.251 440.00
86.3162 409.00
86.3814 405.00
86.4466 457.00
86.5118 476.00
86.577 442.00
86.6422 485.00
86.7074 442.00
86.7726 473.00
86.8378 451.00
86.903 473.00
86.9682 478.00
87.0334 470.00
87.0986 484.00
87.1638 431.00
87.229 442.00
87.2942 427.00
87.3594 425.00
87.4246 384.00
87.4898 450.00
87.555 464.00
87.6202 439.00
87.6854 473.00
87.7506 510.00
87.8158 436.00
87.881 478.00
87.9462 466.00
88.0114 493.00
88.0766 512.00
88.1418 501.00
88.207 452.00
88.2722 447.00
88.3374 456.00
88.4026 460.00
88.4678 465.00
88.533 454.00
88.5982 511.00
88.6634 544.00
88.7286 627.00
88.7938 600.00
88.859 634.00
88.9242 555.00
88.9894 604.00
89.0546 649.00
89.1198 516.00
89.185 487.00
89.2502 492.00
89.3154 466.00
89.3806 468.00
89.4458 456.00
89.511 428.00
89.5762 489.00
89.6414 461.00
89.7066 517.00
89.7718 611.00
89.837 555.00
89.9022 576.00
89.9674 543.00
90.0326 558.00
90.0978 580.00
90.163 521.00
90.2282 471.00
90.2934 502.00
90.3586 479.00
90.4238 433.00
90.489 445.00
90.5542 422.00
90.6193 419.00
90.6845 477.00
90.7497 445.00
90.8149 463.00
90.8801 464.00
90.9453 462.00
91.0105 412.00
91.0757 496.00
91.1409 453.00
91.2061 468.00
91.2713 507.00
91.3365 435.00
91.4017 463.00
91.4669 418.00
91.5321 392.00
91.5973 466.00
91.6625 388.00
91.7277 396.00
91.7929 429.00
91.8581 412.00
91.9233 417.00
91.9885 396.00
92.0537 451.00
92.1189 473.00
92.1841 467.00
92.2493 467.00
92.3145 520.00
92.3797 559.00
92.4449 681.00
92.5101 637.00
92.5753 610.00
92.6405 535.00
92.7057 587.00
92.7709 518.00
92.8361 541.00
92.9013 519.00
92.9665 416.00
93.0317 481.00
93.0969 507.00
93.1621 491.00
93.2273 596.00
93.2925 623.00
93.3577 610.00
93.4229 560.00
93.4881 642.00
93.5533 608.00
93.6185 600.00
93.6837 562.00
93.7489 523.00
93.8141 526.00
93.8793 474.00
93.9445 474.00
94.0097 484.00
94.0749 490.00
94.1401 527.00
94.2053 448.00
94.2705 474.00
94.3357 460.00
94.4009 467.00
94.4661 417.00
94.5313 457.00
94.5965 434.00
94.6617 427.00
94.7269 436.00
94.7921 472.00
94.8573 452.00
94.9225 398.00
94.9877 440.00
95.0529 459.00
95.1181 449.00
95.1833 498.00
95.2485 454.00
95.3137 439.00
95.3789 476.00
95.444 464.00
95.5092 479.00
95.5744 481.00
95.6396 505.00
95.7048 539.00
95.77 564.00
95.8352 551.00
95.9004 525.00
95.9656 451.00
96.0308 468.00
96.096 474.00
96.1612 474.00
96.2264 442.00
96.2916 471.00
96.3568 443.00
96.422 456.00
96.4872 405.00
96.5524 401.00
96.6176 399.00
96.6828 429.00
96.748 454.00
96.8132 479.00
96.8784 430.00
96.9436 475.00
97.0088 506.00
97.074 518.00
97.1392 561.00
97.2044 515.00
97.2696 533.00
97.3348 494.00
97.4 525.00
97.4652 541.00
97.5304 486.00
97.5956 497.00
97.6608 504.00
97.726 460.00
97.7912 471.00
97.8564 439.00
97.9216 440.00
97.9868 411.00
98.052 461.00
98.1172 428.00
98.1824 428.00
98.2476 412.00
98.3128 408.00
98.378 393.00
98.4432 436.00
98.5084 417.00
98.5736 418.00
98.6388 409.00
98.704 454.00
98.7692 413.00
98.8344 419.00
98.8996 442.00
98.9648 449.00
99.03 406.00
99.0952 456.00
99.1604 430.00
99.2256 476.00
99.2908 552.00
99.356 585.00
99.4212 728.00
99.4864 793.00
99.5516 734.00
99.6168 752.00
99.682 823.00
99.7472 804.00
99.8124 783.00
99.8776 717.00
99.9428 611.00
100.008 591.00
100.073 600.00
100.095 567.00