File: data/xrd_creation/results/NSC_184.xy
9.903433 2751.00
9.968632 2694.00
10.0338 2466.00
10.099 2596.00
10.1642 2500.00
10.2294 2504.00
10.2946 2581.00
10.3598 2493.00
10.425 2525.00
10.4902 2407.00
10.5554 2445.00
10.6206 2470.00
10.6858 2337.00
10.751 2356.00
10.8162 2316.00
10.8814 2357.00
10.9466 2372.00
11.0118 2282.00
11.077 2297.00
11.1422 2302.00
11.2074 2300.00
11.2726 2218.00
11.3378 2192.00
11.403 2221.00
11.4682 2216.00
11.5334 2082.00
11.5986 2156.00
11.6638 2099.00
11.729 2141.00
11.7942 2200.00
11.8594 2097.00
11.9246 2121.00
11.9898 2114.00
12.055 2109.00
12.1202 2087.00
12.1854 2098.00
12.2506 1929.00
12.3158 1961.00
12.381 1996.00
12.4462 1956.00
12.5114 1918.00
12.5766 1925.00
12.6418 1862.00
12.707 1826.00
12.7722 1878.00
12.8374 1952.00
12.9026 1858.00
12.9678 1802.00
13.033 1856.00
13.0982 1826.00
13.1634 1932.00
13.2286 1827.00
13.2938 1775.00
13.359 1770.00
13.4242 1820.00
13.4894 1847.00
13.5546 1729.00
13.6198 1755.00
13.685 1757.00
13.7502 1753.00
13.8154 1716.00
13.8805 1779.00
13.9457 1669.00
14.0109 1769.00
14.0761 1747.00
14.1413 1754.00
14.2065 1677.00
14.2717 1740.00
14.3369 1735.00
14.4021 1659.00
14.4673 1624.00
14.5325 1729.00
14.5977 1684.00
14.6629 1623.00
14.7281 1636.00
14.7933 1566.00
14.8585 1657.00
14.9237 1604.00
14.9889 1609.00
15.0541 1525.00
15.1193 1600.00
15.1845 1668.00
15.2497 1547.00
15.3149 1564.00
15.3801 1575.00
15.4453 1567.00
15.5105 1497.00
15.5757 1626.00
15.6409 1530.00
15.7061 1518.00
15.7713 1577.00
15.8365 1548.00
15.9017 1522.00
15.9669 1469.00
16.0321 1547.00
16.0973 1529.00
16.1625 1531.00
16.2277 1513.00
16.2929 1472.00
16.3581 1554.00
16.4233 1458.00
16.4885 1456.00
16.5537 1457.00
16.6189 1460.00
16.6841 1481.00
16.7493 1400.00
16.8145 1498.00
16.8797 1411.00
16.9449 1459.00
17.0101 1435.00
17.0753 1493.00
17.1405 1402.00
17.2057 1425.00
17.2709 1355.00
17.3361 1374.00
17.4013 1441.00
17.4665 1430.00
17.5317 1377.00
17.5969 1451.00
17.6621 1363.00
17.7273 1408.00
17.7925 1446.00
17.8577 1516.00
17.9229 1456.00
17.9881 1413.00
18.0533 1456.00
18.1185 1559.00
18.1837 1531.00
18.2489 1514.00
18.3141 1448.00
18.3793 1451.00
18.4445 1529.00
18.5097 1525.00
18.5749 1516.00
18.6401 1449.00
18.7052 1402.00
18.7704 1426.00
18.8356 1300.00
18.9008 1410.00
18.966 1285.00
19.0312 1318.00
19.0964 1314.00
19.1616 1288.00
19.2268 1241.00
19.292 1344.00
19.3572 1415.00
19.4224 1418.00
19.4876 1366.00
19.5528 1320.00
19.618 1326.00
19.6832 1281.00
19.7484 1207.00
19.8136 1225.00
19.8788 1276.00
19.944 1258.00
20.0092 1293.00
20.0744 1247.00
20.1396 1309.00
20.2048 1333.00
20.27 1397.00
20.3352 1606.00
20.4004 1818.00
20.4656 2036.00
20.5308 2237.00
20.596 2505.00
20.6612 2380.00
20.7264 2149.00
20.7916 1928.00
20.8568 2107.00
20.922 2411.00
20.9872 2486.00
21.0524 2502.00
21.1176 2026.00
21.1828 1393.00
21.248 1236.00
21.3132 1131.00
21.3784 1236.00
21.4436 1221.00
21.5088 1157.00
21.574 1124.00
21.6392 1125.00
21.7044 1140.00
21.7696 1165.00
21.8348 1082.00
21.9 1151.00
21.9652 1072.00
22.0304 1139.00
22.0956 1091.00
22.1608 1178.00
22.226 1063.00
22.2912 1125.00
22.3564 1095.00
22.4216 1134.00
22.4868 1096.00
22.552 1201.00
22.6172 1216.00
22.6824 1313.00
22.7476 1349.00
22.8128 1372.00
22.878 1496.00
22.9432 1401.00
23.0084 1285.00
23.0736 1079.00
23.1388 1091.00
23.204 1086.00
23.2692 1102.00
23.3344 1037.00
23.3996 1033.00
23.4647 1041.00
23.5299 1040.00
23.5951 1013.00
23.6603 1032.00
23.7255 1150.00
23.7907 1024.00
23.8559 1028.00
23.9211 999.00
23.9863 1005.00
24.0515 965.00
24.1167 985.00
24.1819 982.00
24.2471 1028.00
24.3123 1014.00
24.3775 928.00
24.4427 986.00
24.5079 1020.00
24.5731 1022.00
24.6383 976.00
24.7035 1068.00
24.7687 972.00
24.8339 1065.00
24.8991 945.00
24.9643 901.00
25.0295 876.00
25.0947 958.00
25.1599 959.00
25.2251 928.00
25.2903 922.00
25.3555 980.00
25.4207 936.00
25.4859 909.00
25.5511 954.00
25.6163 944.00
25.6815 911.00
25.7467 881.00
25.8119 937.00
25.8771 943.00
25.9423 931.00
26.0075 981.00
26.0727 987.00
26.1379 940.00
26.2031 945.00
26.2683 975.00
26.3335 982.00
26.3987 950.00
26.4639 1043.00
26.5291 1203.00
26.5943 1233.00
26.6595 1471.00
26.7247 1477.00
26.7899 1439.00
26.8551 1202.00
26.9203 1084.00
26.9855 1222.00
27.0507 1143.00
27.1159 1098.00
27.1811 976.00
27.2463 860.00
27.3115 852.00
27.3767 815.00
27.4419 861.00
27.5071 890.00
27.5723 839.00
27.6375 853.00
27.7027 886.00
27.7679 896.00
27.8331 908.00
27.8983 876.00
27.9635 887.00
28.0287 849.00
28.0939 866.00
28.1591 847.00
28.2243 776.00
28.2894 872.00
28.3546 858.00
28.4198 804.00
28.485 793.00
28.5502 863.00
28.6154 814.00
28.6806 795.00
28.7458 783.00
28.811 823.00
28.8762 803.00
28.9414 808.00
29.0066 783.00
29.0718 785.00
29.137 801.00
29.2022 789.00
29.2674 795.00
29.3326 814.00
29.3978 841.00
29.463 816.00
29.5282 761.00
29.5934 793.00
29.6586 744.00
29.7238 843.00
29.789 819.00
29.8542 779.00
29.9194 802.00
29.9846 809.00
30.0498 879.00
30.115 833.00
30.1802 805.00
30.2454 840.00
30.3106 857.00
30.3758 812.00
30.441 798.00
30.5062 810.00
30.5714 769.00
30.6366 804.00
30.7018 783.00
30.767 741.00
30.8322 811.00
30.8974 769.00
30.9626 797.00
31.0278 750.00
31.093 762.00
31.1582 778.00
31.2234 698.00
31.2886 781.00
31.3538 704.00
31.419 690.00
31.4842 720.00
31.5494 737.00
31.6146 797.00
31.6798 757.00
31.745 818.00
31.8102 744.00
31.8754 769.00
31.9406 813.00
32.0058 812.00
32.071 779.00
32.1362 817.00
32.2014 895.00
32.2666 997.00
32.3318 1165.00
32.397 1748.00
32.4622 2866.00
32.5274 4606.00
32.5926 7258.00
32.6578 9381.00
32.723 9134.00
32.7882 6426.00
32.8534 3186.00
32.9186 1489.00
32.9838 1035.00
33.0489 946.00
33.1141 817.00
33.1793 771.00
33.2445 737.00
33.3097 758.00
33.3749 753.00
33.4401 788.00
33.5053 757.00
33.5705 752.00
33.6357 767.00
33.7009 737.00
33.7661 676.00
33.8313 686.00
33.8965 672.00
33.9617 661.00
34.0269 706.00
34.0921 668.00
34.1573 673.00
34.2225 712.00
34.2877 678.00
34.3529 733.00
34.4181 826.00
34.4833 985.00
34.5485 1166.00
34.6137 1302.00
34.6789 1177.00
34.7441 965.00
34.8093 790.00
34.8745 676.00
34.9397 692.00
35.0049 670.00
35.0701 628.00
35.1353 611.00
35.2005 643.00
35.2657 654.00
35.3309 646.00
35.3961 567.00
35.4613 600.00
35.5265 623.00
35.5917 580.00
35.6569 627.00
35.7221 570.00
35.7873 630.00
35.8525 651.00
35.9177 715.00
35.9829 799.00
36.0481 988.00
36.1133 1179.00
36.1785 1188.00
36.2437 1090.00
36.3089 993.00
36.3741 901.00
36.4393 1085.00
36.5045 1366.00
36.5697 1646.00
36.6349 1598.00
36.7001 1215.00
36.7653 851.00
36.8305 694.00
36.8957 565.00
36.9609 611.00
37.0261 607.00
37.0913 588.00
37.1565 569.00
37.2217 585.00
37.2869 645.00
37.3521 741.00
37.4173 809.00
37.4825 957.00
37.5477 983.00
37.6129 980.00
37.6781 790.00
37.7433 664.00
37.8085 592.00
37.8736 544.00
37.9388 533.00
38.004 518.00
38.0692 520.00
38.1344 512.00
38.1996 523.00
38.2648 531.00
38.33 561.00
38.3952 532.00
38.4604 517.00
38.5256 543.00
38.5908 603.00
38.656 624.00
38.7212 702.00
38.7864 668.00
38.8516 606.00
38.9168 607.00
38.982 522.00
39.0472 550.00
39.1124 538.00
39.1776 549.00
39.2428 620.00
39.308 727.00
39.3732 935.00
39.4384 1129.00
39.5036 1253.00
39.5688 1118.00
39.634 926.00
39.6992 807.00
39.7644 914.00
39.8296 1007.00
39.8948 1303.00
39.96 1409.00
40.0252 1415.00
40.0904 1082.00
40.1556 785.00
40.2208 613.00
40.286 511.00
40.3512 484.00
40.4164 516.00
40.4816 501.00
40.5468 464.00
40.612 452.00
40.6772 446.00
40.7424 433.00
40.8076 446.00
40.8728 481.00
40.938 495.00
41.0032 508.00
41.0684 472.00
41.1336 496.00
41.1988 478.00
41.264 473.00
41.3292 482.00
41.3944 509.00
41.4596 508.00
41.5248 485.00
41.59 572.00
41.6552 554.00
41.7204 585.00
41.7856 604.00
41.8508 542.00
41.916 500.00
41.9812 473.00
42.0464 484.00
42.1116 466.00
42.1768 402.00
42.242 478.00
42.3072 415.00
42.3724 436.00
42.4376 453.00
42.5028 455.00
42.568 489.00
42.6332 480.00
42.6983 482.00
42.7635 429.00
42.8287 398.00
42.8939 457.00
42.9591 447.00
43.0243 447.00
43.0895 446.00
43.1547 483.00
43.2199 444.00
43.2851 443.00
43.3503 473.00
43.4155 473.00
43.4807 538.00
43.5459 580.00
43.6111 662.00
43.6763 631.00
43.7415 617.00
43.8067 625.00
43.8719 589.00
43.9371 547.00
44.0023 516.00
44.0675 468.00
44.1327 435.00
44.1979 482.00
44.2631 464.00
44.3283 524.00
44.3935 460.00
44.4587 479.00
44.5239 484.00
44.5891 536.00
44.6543 669.00
44.7195 924.00
44.7847 1118.00
44.8499 1128.00
44.9151 987.00
44.9803 770.00
45.0455 551.00
45.1107 461.00
45.1759 432.00
45.2411 392.00
45.3063 413.00
45.3715 424.00
45.4367 383.00
45.5019 407.00
45.5671 389.00
45.6323 381.00
45.6975 384.00
45.7627 408.00
45.8279 392.00
45.8931 395.00
45.9583 379.00
46.0235 354.00
46.0887 392.00
46.1539 415.00
46.2191 375.00
46.2843 426.00
46.3495 370.00
46.4147 393.00
46.4799 416.00
46.5451 413.00
46.6103 437.00
46.6755 425.00
46.7407 402.00
46.8059 422.00
46.8711 411.00
46.9363 377.00
47.0015 409.00
47.0667 404.00
47.1319 370.00
47.1971 397.00
47.2623 386.00
47.3275 459.00
47.3927 394.00
47.4579 536.00
47.523 532.00
47.5882 572.00
47.6534 465.00
47.7186 494.00
47.7838 446.00
47.849 404.00
47.9142 435.00
47.9794 413.00
48.0446 399.00
48.1098 414.00
48.175 407.00
48.2402 415.00
48.3054 421.00
48.3706 438.00
48.4358 423.00
48.501 391.00
48.5662 372.00
48.6314 380.00
48.6966 378.00
48.7618 398.00
48.827 399.00
48.8922 421.00
48.9574 383.00
49.0226 370.00
49.0878 429.00
49.153 409.00
49.2182 404.00
49.2834 430.00
49.3486 384.00
49.4138 416.00
49.479 352.00
49.5442 374.00
49.6094 408.00
49.6746 337.00
49.7398 383.00
49.805 382.00
49.8702 423.00
49.9354 433.00
50.0006 497.00
50.0658 516.00
50.131 528.00
50.1962 500.00
50.2614 414.00
50.3266 409.00
50.3918 364.00
50.457 368.00
50.5222 356.00
50.5874 364.00
50.6526 348.00
50.7178 318.00
50.783 367.00
50.8482 334.00
50.9134 356.00
50.9786 377.00
51.0438 402.00
51.109 419.00
51.1742 458.00
51.2394 437.00
51.3046 442.00
51.3698 534.00
51.435 570.00
51.5002 517.00
51.5654 420.00
51.6306 437.00
51.6958 362.00
51.761 452.00
51.8262 510.00
51.8914 586.00
51.9566 611.00
52.0218 579.00
52.087 533.00
52.1522 464.00
52.2174 431.00
52.2826 409.00
52.3477 426.00
52.4129 413.00
52.4781 384.00
52.5433 391.00
52.6085 377.00
52.6737 393.00
52.7389 392.00
52.8041 365.00
52.8693 387.00
52.9345 432.00
52.9997 428.00
53.0649 484.00
53.1301 558.00
53.1953 813.00
53.2605 1027.00
53.3257 1267.00
53.3909 1188.00
53.4561 1080.00
53.5213 890.00
53.5865 699.00
53.6517 516.00
53.7169 478.00
53.7821 378.00
53.8473 379.00
53.9125 409.00
53.9777 350.00
54.0429 392.00
54.1081 387.00
54.1733 416.00
54.2385 438.00
54.3037 418.00
54.3689 418.00
54.4341 434.00
54.4993 454.00
54.5645 577.00
54.6297 768.00
54.6949 1066.00
54.7601 1541.00
54.8253 1772.00
54.8905 1697.00
54.9557 1465.00
55.0209 1102.00
55.0861 780.00
55.1513 647.00
55.2165 580.00
55.2817 635.00
55.3469 745.00
55.4121 1084.00
55.4773 1396.00
55.5425 1501.00
55.6077 1414.00
55.6729 1124.00
55.7381 907.00
55.8033 653.00
55.8685 485.00
55.9337 459.00
55.9989 473.00
56.0641 558.00
56.1293 524.00
56.1945 658.00
56.2597 719.00
56.3249 744.00
56.3901 628.00
56.4553 552.00
56.5205 479.00
56.5857 402.00
56.6509 432.00
56.7161 341.00
56.7813 363.00
56.8465 349.00
56.9117 387.00
56.9769 328.00
57.042 356.00
57.1073 373.00
57.1724 366.00
57.2376 346.00
57.3028 405.00
57.368 392.00
57.4332 361.00
57.4984 391.00
57.5636 317.00
57.6288 353.00
57.694 348.00
57.7592 351.00
57.8244 359.00
57.8896 349.00
57.9548 358.00
58.02 353.00
58.0852 345.00
58.1504 334.00
58.2156 351.00
58.2808 406.00
58.346 451.00
58.4112 471.00
58.4764 470.00
58.5416 471.00
58.6068 454.00
58.672 417.00
58.7372 473.00
58.8024 455.00
58.8676 459.00
58.9328 440.00
58.998 449.00
59.0632 388.00
59.1284 399.00
59.1936 362.00
59.2588 411.00
59.324 386.00
59.3892 386.00
59.4544 392.00
59.5196 371.00
59.5848 402.00
59.65 375.00
59.7152 373.00
59.7804 349.00
59.8456 364.00
59.9108 393.00
59.976 349.00
60.0412 352.00
60.1064 380.00
60.1716 385.00
60.2368 360.00
60.302 363.00
60.3672 365.00
60.4324 379.00
60.4976 370.00
60.5628 393.00
60.628 457.00
60.6932 406.00
60.7584 480.00
60.8236 475.00
60.8888 417.00
60.954 366.00
61.0192 390.00
61.0844 392.00
61.1496 345.00
61.2148 349.00
61.28 300.00
61.3452 356.00
61.4104 350.00
61.4756 323.00
61.5408 370.00
61.606 379.00
61.6712 401.00
61.7364 417.00
61.8016 403.00
61.8667 424.00
61.932 373.00
61.9971 381.00
62.0623 396.00
62.1275 354.00
62.1927 362.00
62.2579 341.00
62.3231 330.00
62.3883 355.00
62.4535 298.00
62.5187 346.00
62.5839 344.00
62.6491 348.00
62.7143 344.00
62.7795 391.00
62.8447 408.00
62.9099 436.00
62.9751 443.00
63.0403 573.00
63.1055 772.00
63.1707 929.00
63.2359 1080.00
63.3011 1040.00
63.3663 936.00
63.4315 786.00
63.4967 633.00
63.5619 487.00
63.6271 433.00
63.6923 360.00
63.7575 364.00
63.8227 354.00
63.8879 334.00
63.9531 355.00
64.0183 360.00
64.0835 340.00
64.1487 392.00
64.2139 450.00
64.2791 487.00
64.3443 649.00
64.4095 848.00
64.4747 1001.00
64.5399 1190.00
64.6051 1116.00
64.6703 1041.00
64.7355 898.00
64.8007 747.00
64.8659 570.00
64.9311 540.00
64.9963 453.00
65.0615 351.00
65.1267 367.00
65.1919 348.00
65.2571 302.00
65.3223 328.00
65.3875 362.00
65.4527 330.00
65.5179 370.00
65.5831 457.00
65.6483 422.00
65.7135 434.00
65.7787 459.00
65.8439 466.00
65.9091 473.00
65.9743 418.00
66.0395 398.00
66.1047 372.00
66.1699 355.00
66.2351 302.00
66.3003 313.00
66.3655 314.00
66.4307 313.00
66.4959 282.00
66.561 328.00
66.6263 355.00
66.6915 348.00
66.7566 390.00
66.8218 426.00
66.887 463.00
66.9522 531.00
67.0174 673.00
67.0826 896.00
67.1478 1015.00
67.213 1029.00
67.2782 900.00
67.3434 869.00
67.4086 700.00
67.4738 579.00
67.539 473.00
67.6042 414.00
67.6694 366.00
67.7346 341.00
67.7998 327.00
67.865 353.00
67.9302 379.00
67.9954 375.00
68.0606 455.00
68.1258 570.00
68.191 709.00
68.2562 798.00
68.3214 761.00
68.3866 699.00
68.4518 585.00
68.517 465.00
68.5822 420.00
68.6474 422.00
68.7126 329.00
68.7778 335.00
68.843 339.00
68.9082 399.00
68.9734 396.00
69.0386 372.00
69.1038 358.00
69.169 362.00
69.2342 274.00
69.2994 298.00
69.3646 268.00
69.4298 308.00
69.495 280.00
69.5602 272.00
69.6254 277.00
69.6906 298.00
69.7558 277.00
69.821 290.00
69.8862 284.00
69.9514 291.00
70.0166 294.00
70.0818 351.00
70.147 338.00
70.2122 312.00
70.2774 328.00
70.3426 297.00
70.4078 302.00
70.473 301.00
70.5382 366.00
70.6034 317.00
70.6686 318.00
70.7338 336.00
70.799 353.00
70.8642 358.00
70.9294 378.00
70.9946 360.00
71.0598 372.00
71.125 318.00
71.1902 328.00
71.2554 322.00
71.3205 280.00
71.3858 256.00
71.451 269.00
71.5162 266.00
71.5813 265.00
71.6465 246.00
71.7117 245.00
71.7769 250.00
71.8421 256.00
71.9073 256.00
71.9725 260.00
72.0377 289.00
72.1029 281.00
72.1681 292.00
72.2333 283.00
72.2985 275.00
72.3637 288.00
72.4289 239.00
72.4941 285.00
72.5593 279.00
72.6245 301.00
72.6897 339.00
72.7549 292.00
72.8201 278.00
72.8853 299.00
72.9505 286.00
73.0157 342.00
73.0809 278.00
73.1461 281.00
73.2113 309.00
73.2765 279.00
73.3417 270.00
73.4069 260.00
73.4721 270.00
73.5373 294.00
73.6025 280.00
73.6677 279.00
73.7329 263.00
73.7981 246.00
73.8633 238.00
73.9285 267.00
73.9937 240.00
74.0589 256.00
74.1241 272.00
74.1893 250.00
74.2545 276.00
74.3197 267.00
74.3849 248.00
74.4501 234.00
74.5153 287.00
74.5805 262.00
74.6457 267.00
74.7109 200.00
74.7761 204.00
74.8413 247.00
74.9065 235.00
74.9717 249.00
75.0369 290.00
75.1021 272.00
75.1673 268.00
75.2325 303.00
75.2977 291.00
75.3629 298.00
75.4281 314.00
75.4933 263.00
75.5585 247.00
75.6237 273.00
75.6889 273.00
75.7541 260.00
75.8193 269.00
75.8845 266.00
75.9497 259.00
76.0149 282.00
76.0801 271.00
76.1452 247.00
76.2104 286.00
76.2756 234.00
76.3409 243.00
76.406 248.00
76.4712 249.00
76.5364 304.00
76.6016 236.00
76.6668 240.00
76.732 235.00
76.7972 241.00
76.8624 262.00
76.9276 242.00
76.9928 242.00
77.058 256.00
77.1232 238.00
77.1884 234.00
77.2536 267.00
77.3188 251.00
77.384 261.00
77.4492 277.00
77.5144 317.00
77.5796 315.00
77.6448 312.00
77.71 317.00
77.7752 275.00
77.8404 270.00
77.9056 293.00
77.9708 263.00
78.036 263.00
78.1012 268.00
78.1664 303.00
78.2316 293.00
78.2968 275.00
78.362 350.00
78.4272 325.00
78.4924 319.00
78.5576 325.00
78.6228 279.00
78.688 305.00
78.7532 272.00
78.8184 287.00
78.8836 245.00
78.9488 221.00
79.014 239.00
79.0792 220.00
79.1444 230.00
79.2096 236.00
79.2748 233.00
79.34 228.00
79.4052 247.00
79.4704 226.00
79.5356 264.00
79.6008 279.00
79.666 283.00
79.7312 275.00
79.7964 279.00
79.8616 331.00
79.9268 308.00
79.992 273.00
80.0572 282.00
80.1224 281.00
80.1876 303.00
80.2528 270.00
80.318 285.00
80.3832 281.00
80.4484 274.00
80.5136 293.00
80.5788 266.00
80.644 263.00
80.7092 265.00
80.7744 248.00
80.8396 233.00
80.9048 220.00
80.9699 275.00
81.0351 211.00
81.1003 238.00
81.1655 229.00
81.2307 262.00
81.2959 238.00
81.3611 234.00
81.4263 232.00
81.4915 225.00
81.5567 219.00
81.6219 250.00
81.6871 216.00
81.7523 250.00
81.8175 239.00
81.8827 249.00
81.9479 259.00
82.0131 278.00
82.0783 246.00
82.1435 234.00
82.2087 229.00
82.2739 272.00
82.3391 275.00
82.4043 287.00
82.4695 287.00
82.5347 289.00
82.5999 309.00
82.6651 317.00
82.7303 285.00
82.7955 282.00
82.8607 259.00
82.9259 236.00
82.9911 264.00
83.0563 261.00
83.1215 240.00
83.1867 249.00
83.2519 245.00
83.3171 247.00
83.3823 263.00
83.4475 293.00
83.5127 276.00
83.5779 268.00
83.6431 292.00
83.7083 262.00
83.7735 282.00
83.8387 281.00
83.9039 261.00
83.9691 279.00
84.0343 269.00
84.0995 284.00
84.1647 320.00
84.2299 278.00
84.2951 277.00
84.3603 291.00
84.4255 303.00
84.4907 296.00
84.5559 300.00
84.6211 347.00
84.6863 328.00
84.7515 353.00
84.8167 376.00
84.8819 320.00
84.9471 358.00
85.0123 327.00
85.0775 349.00
85.1427 319.00
85.2079 321.00
85.2731 304.00
85.3383 293.00
85.4035 283.00
85.4687 269.00
85.5339 259.00
85.5991 267.00
85.6643 263.00
85.7295 235.00
85.7946 239.00
85.8598 267.00
85.925 267.00
85.9903 237.00
86.0554 239.00
86.1206 201.00
86.1858 243.00
86.251 217.00
86.3162 234.00
86.3814 223.00
86.4466 198.00
86.5118 228.00
86.577 228.00
86.6422 209.00
86.7074 223.00
86.7726 239.00
86.8378 240.00
86.903 231.00
86.9682 238.00
87.0334 261.00
87.0986 284.00
87.1638 262.00
87.229 320.00
87.2942 329.00
87.3594 321.00
87.4246 317.00
87.4898 319.00
87.555 352.00
87.6202 385.00
87.6854 408.00
87.7506 434.00
87.8158 383.00
87.881 435.00
87.9462 370.00
88.0114 340.00
88.0766 332.00
88.1418 262.00
88.207 241.00
88.2722 233.00
88.3374 235.00
88.4026 264.00
88.4678 245.00
88.533 243.00
88.5982 202.00
88.6634 242.00
88.7286 245.00
88.7938 233.00
88.859 223.00
88.9242 262.00
88.9894 247.00
89.0546 248.00
89.1198 269.00
89.185 292.00
89.2502 308.00
89.3154 354.00
89.3806 354.00
89.4458 334.00
89.511 367.00
89.5762 313.00
89.6414 332.00
89.7066 303.00
89.7718 294.00
89.837 288.00
89.9022 326.00
89.9674 390.00
90.0326 369.00
90.0978 430.00
90.163 448.00
90.2282 446.00
90.2934 433.00
90.3586 414.00
90.4238 388.00
90.489 409.00
90.5542 404.00
90.6193 387.00
90.6845 368.00
90.7497 365.00
90.8149 339.00
90.8801 340.00
90.9453 385.00
91.0105 383.00
91.0757 425.00
91.1409 496.00
91.2061 455.00
91.2713 547.00
91.3365 520.00
91.4017 485.00
91.4669 432.00
91.5321 460.00
91.5973 388.00
91.6625 377.00
91.7277 331.00
91.7929 337.00
91.8581 286.00
91.9233 309.00
91.9885 294.00
92.0537 307.00
92.1189 261.00
92.1841 243.00
92.2493 233.00
92.3145 238.00
92.3797 246.00
92.4449 216.00
92.5101 233.00
92.5753 234.00
92.6405 282.00
92.7057 218.00
92.7709 298.00
92.8361 304.00
92.9013 309.00
92.9665 260.00
93.0317 288.00
93.0969 275.00
93.1621 242.00
93.2273 221.00
93.2925 263.00
93.3577 232.00
93.4229 262.00
93.4881 248.00
93.5533 224.00
93.6185 258.00
93.6837 286.00
93.7489 240.00
93.8141 207.00
93.8793 198.00
93.9445 226.00
94.0097 231.00
94.0749 239.00
94.1401 235.00
94.2053 228.00
94.2705 245.00
94.3357 261.00
94.4009 297.00
94.4661 276.00
94.5313 287.00
94.5965 266.00
94.6617 239.00
94.7269 235.00
94.7921 241.00
94.8573 231.00
94.9225 256.00
94.9877 238.00
95.0529 232.00
95.1181 233.00
95.1833 219.00
95.2485 214.00
95.3137 204.00
95.3789 231.00
95.444 197.00
95.5092 229.00
95.5744 202.00
95.6396 263.00
95.7048 267.00
95.77 309.00
95.8352 273.00
95.9004 310.00
95.9656 295.00
96.0308 274.00
96.096 288.00
96.1612 316.00
96.2264 300.00
96.2916 306.00
96.3568 299.00
96.422 326.00
96.4872 300.00
96.5524 308.00
96.6176 293.00
96.6828 365.00
96.748 341.00
96.8132 299.00
96.8784 269.00
96.9436 288.00
97.0088 237.00
97.074 246.00
97.1392 239.00
97.2044 244.00
97.2696 222.00
97.3348 220.00
97.4 189.00
97.4652 233.00
97.5304 210.00
97.5956 236.00
97.6608 219.00
97.726 207.00
97.7912 225.00
97.8564 208.00
97.9216 240.00
97.9868 198.00
98.052 224.00
98.1172 214.00
98.1824 221.00
98.2476 240.00
98.3128 213.00
98.378 258.00
98.4432 233.00
98.5084 239.00
98.5736 208.00
98.6388 214.00
98.704 222.00
98.7692 201.00
98.8344 222.00
98.8996 223.00
98.9648 193.00
99.03 218.00
99.0952 245.00
99.1604 214.00
99.2256 241.00
99.2908 215.00
99.356 209.00
99.4212 242.00
99.4864 228.00
99.5516 222.00
99.6168 221.00
99.682 230.00
99.7472 237.00
99.8124 220.00
99.8776 212.00
99.9428 230.00
100.008 215.00
100.073 214.00
100.095 227.00