File: data/xrd_creation/results/NSC_58.xy
9.903433 2844.00
9.968632 2756.00
10.0338 2853.00
10.099 2653.00
10.1642 2645.00
10.2294 2660.00
10.2946 2731.00
10.3598 2572.00
10.425 2485.00
10.4902 2562.00
10.5554 2625.00
10.6206 2538.00
10.6858 2624.00
10.751 2516.00
10.8162 2553.00
10.8814 2510.00
10.9466 2407.00
11.0118 2485.00
11.077 2424.00
11.1422 2366.00
11.2074 2509.00
11.2726 2466.00
11.3378 2353.00
11.403 2281.00
11.4682 2361.00
11.5334 2336.00
11.5986 2345.00
11.6638 2381.00
11.729 2307.00
11.7942 2372.00
11.8594 2270.00
11.9246 2271.00
11.9898 2162.00
12.055 2280.00
12.1202 2221.00
12.1854 2248.00
12.2506 2154.00
12.3158 2146.00
12.381 2237.00
12.4462 2169.00
12.5114 2105.00
12.5766 2157.00
12.6418 2098.00
12.707 2165.00
12.7722 2169.00
12.8374 2124.00
12.9026 2062.00
12.9678 2069.00
13.033 2068.00
13.0982 2043.00
13.1634 2049.00
13.2286 1959.00
13.2938 2151.00
13.359 2115.00
13.4242 2039.00
13.4894 2103.00
13.5546 2030.00
13.6198 2085.00
13.685 2069.00
13.7502 2191.00
13.8154 2227.00
13.8805 2287.00
13.9457 2453.00
14.0109 2578.00
14.0761 2640.00
14.1413 3072.00
14.2065 3392.00
14.2717 3391.00
14.3369 2987.00
14.4021 2524.00
14.4673 2140.00
14.5325 2004.00
14.5977 1979.00
14.6629 1971.00
14.7281 1971.00
14.7933 2060.00
14.8585 1938.00
14.9237 1907.00
14.9889 1922.00
15.0541 1904.00
15.1193 2013.00
15.1845 1880.00
15.2497 1938.00
15.3149 1834.00
15.3801 1892.00
15.4453 1947.00
15.5105 1939.00
15.5757 1868.00
15.6409 1842.00
15.7061 1816.00
15.7713 1976.00
15.8365 1899.00
15.9017 1899.00
15.9669 1909.00
16.0321 1796.00
16.0973 1887.00
16.1625 1914.00
16.2277 1917.00
16.2929 1908.00
16.3581 1809.00
16.4233 1875.00
16.4885 1827.00
16.5537 1884.00
16.6189 1809.00
16.6841 1878.00
16.7493 1866.00
16.8145 1810.00
16.8797 1922.00
16.9449 1898.00
17.0101 1865.00
17.0753 1795.00
17.1405 1859.00
17.2057 1888.00
17.2709 1835.00
17.3361 1829.00
17.4013 1762.00
17.4665 1801.00
17.5317 1788.00
17.5969 1865.00
17.6621 1806.00
17.7273 1788.00
17.7925 1796.00
17.8577 1734.00
17.9229 1768.00
17.9881 1718.00
18.0533 1742.00
18.1185 1679.00
18.1837 1752.00
18.2489 1778.00
18.3141 1762.00
18.3793 1785.00
18.4445 1827.00
18.5097 1763.00
18.5749 1807.00
18.6401 1808.00
18.7052 1758.00
18.7704 1715.00
18.8356 1831.00
18.9008 1806.00
18.966 1875.00
19.0312 1880.00
19.0964 1846.00
19.1616 2093.00
19.2268 2275.00
19.292 2613.00
19.3572 2969.00
19.4224 3490.00
19.4876 3980.00
19.5528 4732.00
19.618 6116.00
19.6832 7088.00
19.7484 6740.00
19.8136 5139.00
19.8788 3396.00
19.944 2600.00
20.0092 2621.00
20.0744 2991.00
20.1396 3548.00
20.2048 3969.00
20.27 4724.00
20.3352 5994.00
20.4004 7661.00
20.4656 8999.00
20.5308 8157.00
20.596 5723.00
20.6612 3608.00
20.7264 2435.00
20.7916 2055.00
20.8568 1925.00
20.922 1843.00
20.9872 1784.00
21.0524 1809.00
21.1176 1784.00
21.1828 1828.00
21.248 1785.00
21.3132 1733.00
21.3784 1809.00
21.4436 1756.00
21.5088 1712.00
21.574 1709.00
21.6392 1721.00
21.7044 1694.00
21.7696 1793.00
21.8348 1781.00
21.9 1748.00
21.9652 1792.00
22.0304 1755.00
22.0956 1726.00
22.1608 1587.00
22.226 1651.00
22.2912 1707.00
22.3564 1658.00
22.4216 1735.00
22.4868 1673.00
22.552 1670.00
22.6172 1675.00
22.6824 1704.00
22.7476 1779.00
22.8128 1699.00
22.878 1754.00
22.9432 1800.00
23.0084 1742.00
23.0736 2028.00
23.1388 2124.00
23.204 2492.00
23.2692 2988.00
23.3344 3451.00
23.3996 4131.00
23.4647 5307.00
23.5299 7024.00
23.5951 9160.00
23.6603 9842.00
23.7255 8051.00
23.7907 5162.00
23.8559 3230.00
23.9211 2272.00
23.9863 1938.00
24.0515 1828.00
24.1167 1801.00
24.1819 1797.00
24.2471 1860.00
24.3123 1817.00
24.3775 1668.00
24.4427 1716.00
24.5079 1722.00
24.5731 1787.00
24.6383 1752.00
24.7035 1695.00
24.7687 1683.00
24.8339 1680.00
24.8991 1747.00
24.9643 1681.00
25.0295 1617.00
25.0947 1769.00
25.1599 1730.00
25.2251 1535.00
25.2903 1561.00
25.3555 1650.00
25.4207 1560.00
25.4859 1650.00
25.5511 1583.00
25.6163 1608.00
25.6815 1617.00
25.7467 1655.00
25.8119 1576.00
25.8771 1614.00
25.9423 1599.00
26.0075 1530.00
26.0727 1583.00
26.1379 1609.00
26.2031 1694.00
26.2683 1604.00
26.3335 1568.00
26.3987 1625.00
26.4639 1612.00
26.5291 1591.00
26.5943 1577.00
26.6595 1564.00
26.7247 1581.00
26.7899 1475.00
26.8551 1601.00
26.9203 1531.00
26.9855 1657.00
27.0507 1508.00
27.1159 1541.00
27.1811 1540.00
27.2463 1526.00
27.3115 1580.00
27.3767 1629.00
27.4419 1616.00
27.5071 1543.00
27.5723 1665.00
27.6375 1576.00
27.7027 1653.00
27.7679 1632.00
27.8331 1684.00
27.8983 1658.00
27.9635 1849.00
28.0287 1990.00
28.0939 2333.00
28.1591 2655.00
28.2243 3329.00
28.2894 4196.00
28.3546 5819.00
28.4198 6903.00
28.485 6936.00
28.5502 5621.00
28.6154 3896.00
28.6806 2582.00
28.7458 2064.00
28.811 1736.00
28.8762 1671.00
28.9414 1570.00
29.0066 1654.00
29.0718 1529.00
29.137 1490.00
29.2022 1541.00
29.2674 1517.00
29.3326 1571.00
29.3978 1554.00
29.463 1559.00
29.5282 1531.00
29.5934 1493.00
29.6586 1592.00
29.7238 1485.00
29.789 1502.00
29.8542 1501.00
29.9194 1467.00
29.9846 1528.00
30.0498 1542.00
30.115 1508.00
30.1802 1547.00
30.2454 1585.00
30.3106 1569.00
30.3758 1622.00
30.441 1565.00
30.5062 1605.00
30.5714 1601.00
30.6366 1609.00
30.7018 1682.00
30.767 1726.00
30.8322 1913.00
30.8974 1973.00
30.9626 2356.00
31.0278 2862.00
31.093 3359.00
31.1582 4571.00
31.2234 6456.00
31.2886 8867.00
31.3538 9943.00
31.419 9560.00
31.4842 7831.00
31.5494 6012.00
31.6146 4707.00
31.6798 3742.00
31.745 2995.00
31.8102 2291.00
31.8754 1988.00
31.9406 1643.00
32.0058 1572.00
32.071 1543.00
32.1362 1519.00
32.2014 1588.00
32.2666 1580.00
32.3318 1515.00
32.397 1432.00
32.4622 1495.00
32.5274 1466.00
32.5926 1486.00
32.6578 1415.00
32.723 1456.00
32.7882 1440.00
32.8534 1495.00
32.9186 1471.00
32.9838 1490.00
33.0489 1477.00
33.1141 1417.00
33.1793 1476.00
33.2445 1396.00
33.3097 1430.00
33.3749 1505.00
33.4401 1498.00
33.5053 1554.00
33.5705 1539.00
33.6357 1623.00
33.7009 1613.00
33.7661 1689.00
33.8313 1749.00
33.8965 1690.00
33.9617 1654.00
34.0269 1658.00
34.0921 1629.00
34.1573 1672.00
34.2225 1662.00
34.2877 1581.00
34.3529 1565.00
34.4181 1558.00
34.4833 1514.00
34.5485 1515.00
34.6137 1525.00
34.6789 1504.00
34.7441 1615.00
34.8093 1630.00
34.8745 1751.00
34.9397 2001.00
35.0049 2265.00
35.0701 2889.00
35.1353 3231.00
35.2005 3568.00
35.2657 3652.00
35.3309 3345.00
35.3961 3162.00
35.4613 3276.00
35.5265 4050.00
35.5917 4844.00
35.6569 5227.00
35.7221 4855.00
35.7873 4014.00
35.8525 3068.00
35.9177 2377.00
35.9829 1900.00
36.0481 1569.00
36.1133 1569.00
36.1785 1473.00
36.2437 1445.00
36.3089 1469.00
36.3741 1384.00
36.4393 1434.00
36.5045 1407.00
36.5697 1377.00
36.6349 1349.00
36.7001 1310.00
36.7653 1409.00
36.8305 1359.00
36.8957 1445.00
36.9609 1331.00
37.0261 1388.00
37.0913 1357.00
37.1565 1400.00
37.2217 1379.00
37.2869 1387.00
37.3521 1441.00
37.4173 1362.00
37.4825 1275.00
37.5477 1326.00
37.6129 1347.00
37.6781 1315.00
37.7433 1290.00
37.8085 1304.00
37.8736 1369.00
37.9388 1334.00
38.004 1401.00
38.0692 1328.00
38.1344 1341.00
38.1996 1376.00
38.2648 1304.00
38.33 1358.00
38.3952 1350.00
38.4604 1314.00
38.5256 1312.00
38.5908 1296.00
38.656 1333.00
38.7212 1351.00
38.7864 1365.00
38.8516 1382.00
38.9168 1401.00
38.982 1346.00
39.0472 1352.00
39.1124 1299.00
39.1776 1305.00
39.2428 1293.00
39.308 1406.00
39.3732 1352.00
39.4384 1435.00
39.5036 1482.00
39.5688 1620.00
39.634 1840.00
39.6992 1923.00
39.7644 1936.00
39.8296 1771.00
39.8948 1691.00
39.96 1586.00
40.0252 1501.00
40.0904 1365.00
40.1556 1314.00
40.2208 1345.00
40.286 1253.00
40.3512 1326.00
40.4164 1256.00
40.4816 1350.00
40.5468 1307.00
40.612 1397.00
40.6772 1307.00
40.7424 1441.00
40.8076 1479.00
40.8728 1411.00
40.938 1419.00
41.0032 1463.00
41.0684 1589.00
41.1336 1598.00
41.1988 1833.00
41.264 1919.00
41.3292 2218.00
41.3944 2235.00
41.4596 2225.00
41.5248 2065.00
41.59 1935.00
41.6552 1711.00
41.7204 1783.00
41.7856 1581.00
41.8508 1457.00
41.916 1485.00
41.9812 1451.00
42.0464 1488.00
42.1116 1635.00
42.1768 1547.00
42.242 1470.00
42.3072 1452.00
42.3724 1452.00
42.4376 1320.00
42.5028 1363.00
42.568 1385.00
42.6332 1382.00
42.6983 1340.00
42.7635 1341.00
42.8287 1499.00
42.8939 1612.00
42.9591 1931.00
43.0243 2236.00
43.0895 2419.00
43.1547 2515.00
43.2199 2357.00
43.2851 2088.00
43.3503 1849.00
43.4155 1635.00
43.4807 1542.00
43.5459 1369.00
43.6111 1385.00
43.6763 1415.00
43.7415 1440.00
43.8067 1440.00
43.8719 1504.00
43.9371 1434.00
44.0023 1565.00
44.0675 1392.00
44.1327 1395.00
44.1979 1338.00
44.2631 1402.00
44.3283 1411.00
44.3935 1342.00
44.4587 1393.00
44.5239 1401.00
44.5891 1465.00
44.6543 1503.00
44.7195 1672.00
44.7847 1915.00
44.8499 2397.00
44.9151 2802.00
44.9803 3179.00
45.0455 3295.00
45.1107 3029.00
45.1759 2615.00
45.2411 2218.00
45.3063 1761.00
45.3715 1613.00
45.4367 1442.00
45.5019 1486.00
45.5671 1438.00
45.6323 1380.00
45.6975 1427.00
45.7627 1446.00
45.8279 1521.00
45.8931 1714.00
45.9583 1943.00
46.0235 2228.00
46.0887 2466.00
46.1539 2517.00
46.2191 2363.00
46.2843 2118.00
46.3495 1917.00
46.4147 1876.00
46.4799 1812.00
46.5451 1882.00
46.6103 2066.00
46.6755 2134.00
46.7407 1944.00
46.8059 1992.00
46.8711 1734.00
46.9363 1489.00
47.0015 1452.00
47.0667 1398.00
47.1319 1331.00
47.1971 1322.00
47.2623 1287.00
47.3275 1357.00
47.3927 1272.00
47.4579 1326.00
47.523 1333.00
47.5882 1405.00
47.6534 1516.00
47.7186 1708.00
47.7838 1982.00
47.849 2294.00
47.9142 2791.00
47.9794 3468.00
48.0446 3952.00
48.1098 4241.00
48.175 3845.00
48.2402 3416.00
48.3054 2839.00
48.3706 2283.00
48.4358 1919.00
48.501 1682.00
48.5662 1545.00
48.6314 1619.00
48.6966 1686.00
48.7618 1756.00
48.827 1679.00
48.8922 1712.00
48.9574 1564.00
49.0226 1523.00
49.0878 1419.00
49.153 1390.00
49.2182 1363.00
49.2834 1299.00
49.3486 1350.00
49.4138 1436.00
49.479 1387.00
49.5442 1294.00
49.6094 1361.00
49.6746 1385.00
49.7398 1278.00
49.805 1323.00
49.8702 1302.00
49.9354 1264.00
50.0006 1328.00
50.0658 1318.00
50.131 1370.00
50.1962 1328.00
50.2614 1385.00
50.3266 1438.00
50.3918 1396.00
50.457 1439.00
50.5222 1379.00
50.5874 1434.00
50.6526 1432.00
50.7178 1426.00
50.783 1428.00
50.8482 1538.00
50.9134 1587.00
50.9786 1652.00
51.0438 1675.00
51.109 2016.00
51.1742 2412.00
51.2394 2807.00
51.3046 3147.00
51.3698 3245.00
51.435 3285.00
51.5002 2919.00
51.5654 2612.00
51.6306 2299.00
51.6958 2005.00
51.761 1877.00
51.8262 1835.00
51.8914 1727.00
51.9566 1642.00
52.0218 1571.00
52.087 1469.00
52.1522 1354.00
52.2174 1289.00
52.2826 1231.00
52.3477 1289.00
52.4129 1285.00
52.4781 1277.00
52.5433 1249.00
52.6085 1246.00
52.6737 1335.00
52.7389 1292.00
52.8041 1247.00
52.8693 1315.00
52.9345 1245.00
52.9997 1312.00
53.0649 1218.00
53.1301 1256.00
53.1953 1250.00
53.2605 1266.00
53.3257 1263.00
53.3909 1241.00
53.4561 1284.00
53.5213 1323.00
53.5865 1265.00
53.6517 1317.00
53.7169 1328.00
53.7821 1241.00
53.8473 1334.00
53.9125 1270.00
53.9777 1335.00
54.0429 1555.00
54.1081 1743.00
54.1733 1827.00
54.2385 1993.00
54.3037 2099.00
54.3689 2075.00
54.4341 2041.00
54.4993 1780.00
54.5645 1703.00
54.6297 1627.00
54.6949 1558.00
54.7601 1521.00
54.8253 1453.00
54.8905 1461.00
54.9557 1539.00
55.0209 1662.00
55.0861 1927.00
55.1513 2193.00
55.2165 2510.00
55.2817 2786.00
55.3469 3037.00
55.4121 3377.00
55.4773 3824.00
55.5425 3965.00
55.6077 3920.00
55.6729 3662.00
55.7381 3254.00
55.8033 2781.00
55.8685 2347.00
55.9337 2090.00
55.9989 1766.00
56.0641 1742.00
56.1293 1504.00
56.1945 1385.00
56.2597 1371.00
56.3249 1335.00
56.3901 1355.00
56.4553 1348.00
56.5205 1352.00
56.5857 1368.00
56.6509 1393.00
56.7161 1411.00
56.7813 1431.00
56.8465 1407.00
56.9117 1433.00
56.9769 1554.00
57.042 1475.00
57.1073 1507.00
57.1724 1434.00
57.2376 1438.00
57.3028 1406.00
57.368 1379.00
57.4332 1371.00
57.4984 1361.00
57.5636 1229.00
57.6288 1250.00
57.694 1308.00
57.7592 1361.00
57.8244 1337.00
57.8896 1543.00
57.9548 1644.00
58.02 1653.00
58.0852 1687.00
58.1504 1661.00
58.2156 1722.00
58.2808 1708.00
58.346 1739.00
58.4112 1657.00
58.4764 1781.00
58.5416 1669.00
58.6068 1729.00
58.672 1631.00
58.7372 1503.00
58.8024 1470.00
58.8676 1401.00
58.9328 1438.00
58.998 1258.00
59.0632 1232.00
59.1284 1183.00
59.1936 1228.00
59.2588 1303.00
59.324 1214.00
59.3892 1252.00
59.4544 1361.00
59.5196 1412.00
59.5848 1391.00
59.65 1592.00
59.7152 1650.00
59.7804 2002.00
59.8456 2200.00
59.9108 2242.00
59.976 2344.00
60.0412 2350.00
60.1064 2152.00
60.1716 2081.00
60.2368 1826.00
60.302 1678.00
60.3672 1570.00
60.4324 1488.00
60.4976 1387.00
60.5628 1418.00
60.628 1293.00
60.6932 1375.00
60.7584 1493.00
60.8236 1569.00
60.8888 1685.00
60.954 1959.00
61.0192 2187.00
61.0844 2477.00
61.1496 2550.00
61.2148 2491.00
61.28 2408.00
61.3452 2205.00
61.4104 2052.00
61.4756 1866.00
61.5408 1685.00
61.606 1555.00
61.6712 1498.00
61.7364 1422.00
61.8016 1525.00
61.8667 1420.00
61.932 1539.00
61.9971 1668.00
62.0623 1742.00
62.1275 1783.00
62.1927 1816.00
62.2579 1870.00
62.3231 1848.00
62.3883 1778.00
62.4535 1747.00
62.5187 1655.00
62.5839 1624.00
62.6491 1539.00
62.7143 1475.00
62.7795 1498.00
62.8447 1450.00
62.9099 1491.00
62.9751 1424.00
63.0403 1401.00
63.1055 1484.00
63.1707 1491.00
63.2359 1514.00
63.3011 1539.00
63.3663 1543.00
63.4315 1709.00
63.4967 1785.00
63.5619 1872.00
63.6271 1961.00
63.6923 1993.00
63.7575 2072.00
63.8227 2059.00
63.8879 2101.00
63.9531 2046.00
64.0183 1963.00
64.0835 1893.00
64.1487 1745.00
64.2139 1538.00
64.2791 1503.00
64.3443 1395.00
64.4095 1321.00
64.4747 1331.00
64.5399 1279.00
64.6051 1308.00
64.6703 1216.00
64.7355 1336.00
64.8007 1323.00
64.8659 1340.00
64.9311 1331.00
64.9963 1425.00
65.0615 1444.00
65.1267 1445.00
65.1919 1521.00
65.2571 1469.00
65.3223 1424.00
65.3875 1398.00
65.4527 1344.00
65.5179 1364.00
65.5831 1313.00
65.6483 1448.00
65.7135 1461.00
65.7787 1489.00
65.8439 1601.00
65.9091 1539.00
65.9743 1736.00
66.0395 1750.00
66.1047 1792.00
66.1699 1765.00
66.2351 1786.00
66.3003 1707.00
66.3655 1706.00
66.4307 1518.00
66.4959 1474.00
66.561 1315.00
66.6263 1341.00
66.6915 1231.00
66.7566 1276.00
66.8218 1273.00
66.887 1272.00
66.9522 1245.00
67.0174 1349.00
67.0826 1366.00
67.1478 1341.00
67.213 1368.00
67.2782 1567.00
67.3434 1480.00
67.4086 1559.00
67.4738 1495.00
67.539 1636.00
67.6042 1703.00
67.6694 1779.00
67.7346 1681.00
67.7998 1692.00
67.865 1679.00
67.9302 1609.00
67.9954 1600.00
68.0606 1419.00
68.1258 1417.00
68.191 1313.00
68.2562 1347.00
68.3214 1308.00
68.3866 1209.00
68.4518 1272.00
68.517 1234.00
68.5822 1206.00
68.6474 1256.00
68.7126 1336.00
68.7778 1349.00
68.843 1438.00
68.9082 1505.00
68.9734 1444.00
69.0386 1433.00
69.1038 1428.00
69.169 1457.00
69.2342 1387.00
69.2994 1278.00
69.3646 1314.00
69.4298 1308.00
69.495 1314.00
69.5602 1288.00
69.6254 1229.00
69.6906 1171.00
69.7558 1261.00
69.821 1287.00
69.8862 1176.00
69.9514 1151.00
70.0166 1213.00
70.0818 1230.00
70.147 1205.00
70.2122 1190.00
70.2774 1235.00
70.3426 1197.00
70.4078 1273.00
70.473 1237.00
70.5382 1258.00
70.6034 1261.00
70.6686 1224.00
70.7338 1315.00
70.799 1383.00
70.8642 1485.00
70.9294 1543.00
70.9946 1559.00
71.0598 1722.00
71.125 1706.00
71.1902 1738.00
71.2554 1716.00
71.3205 1761.00
71.3858 1582.00
71.451 1535.00
71.5162 1469.00
71.5813 1408.00
71.6465 1361.00
71.7117 1385.00
71.7769 1252.00
71.8421 1216.00
71.9073 1219.00
71.9725 1167.00
72.0377 1206.00
72.1029 1196.00
72.1681 1185.00
72.2333 1226.00
72.2985 1258.00
72.3637 1268.00
72.4289 1210.00
72.4941 1210.00
72.5593 1214.00
72.6245 1159.00
72.6897 1197.00
72.7549 1223.00
72.8201 1199.00
72.8853 1148.00
72.9505 1203.00
73.0157 1225.00
73.0809 1195.00
73.1461 1276.00
73.2113 1219.00
73.2765 1229.00
73.3417 1246.00
73.4069 1378.00
73.4721 1437.00
73.5373 1438.00
73.6025 1484.00
73.6677 1468.00
73.7329 1517.00
73.7981 1584.00
73.8633 1492.00
73.9285 1477.00
73.9937 1476.00
74.0589 1420.00
74.1241 1394.00
74.1893 1356.00
74.2545 1372.00
74.3197 1328.00
74.3849 1286.00
74.4501 1365.00
74.5153 1320.00
74.5805 1235.00
74.6457 1284.00
74.7109 1386.00
74.7761 1403.00
74.8413 1464.00
74.9065 1520.00
74.9717 1650.00
75.0369 1697.00
75.1021 1762.00
75.1673 1729.00
75.2325 1776.00
75.2977 1731.00
75.3629 1722.00
75.4281 1686.00
75.4933 1704.00
75.5585 1522.00
75.6237 1556.00
75.6889 1464.00
75.7541 1428.00
75.8193 1329.00
75.8845 1232.00
75.9497 1271.00
76.0149 1285.00
76.0801 1260.00
76.1452 1177.00
76.2104 1190.00
76.2756 1229.00
76.3409 1142.00
76.406 1204.00
76.4712 1088.00
76.5364 1203.00
76.6016 1236.00
76.6668 1164.00
76.732 1201.00
76.7972 1230.00
76.8624 1227.00
76.9276 1210.00
76.9928 1230.00
77.058 1187.00
77.1232 1255.00
77.1884 1231.00
77.2536 1272.00
77.3188 1268.00
77.384 1175.00
77.4492 1200.00
77.5144 1265.00
77.5796 1242.00
77.6448 1150.00
77.71 1247.00
77.7752 1155.00
77.8404 1174.00
77.9056 1164.00
77.9708 1124.00
78.036 1170.00
78.1012 1217.00
78.1664 1207.00
78.2316 1214.00
78.2968 1285.00
78.362 1396.00
78.4272 1313.00
78.4924 1370.00
78.5576 1433.00
78.6228 1569.00
78.688 1532.00
78.7532 1640.00
78.8184 1688.00
78.8836 1709.00
78.9488 1669.00
79.014 1762.00
79.0792 1599.00
79.1444 1509.00
79.2096 1470.00
79.2748 1326.00
79.34 1298.00
79.4052 1145.00
79.4704 1316.00
79.5356 1276.00
79.6008 1209.00
79.666 1237.00
79.7312 1197.00
79.7964 1226.00
79.8616 1216.00
79.9268 1200.00
79.992 1262.00
80.0572 1253.00
80.1224 1216.00
80.1876 1198.00
80.2528 1193.00
80.318 1180.00
80.3832 1164.00
80.4484 1242.00
80.5136 1231.00
80.5788 1331.00
80.644 1365.00
80.7092 1388.00
80.7744 1463.00
80.8396 1355.00
80.9048 1468.00
80.9699 1505.00
81.0351 1613.00
81.1003 1524.00
81.1655 1422.00
81.2307 1457.00
81.2959 1361.00
81.3611 1384.00
81.4263 1317.00
81.4915 1231.00
81.5567 1193.00
81.6219 1162.00
81.6871 1162.00
81.7523 1116.00
81.8175 1198.00
81.8827 1215.00
81.9479 1160.00
82.0131 1142.00
82.0783 1138.00
82.1435 1174.00
82.2087 1088.00
82.2739 1092.00
82.3391 1098.00
82.4043 1255.00
82.4695 1155.00
82.5347 1237.00
82.5999 1222.00
82.6651 1235.00
82.7303 1207.00
82.7955 1151.00
82.8607 1217.00
82.9259 1229.00
82.9911 1288.00
83.0563 1296.00
83.1215 1247.00
83.1867 1322.00
83.2519 1350.00
83.3171 1361.00
83.3823 1441.00
83.4475 1488.00
83.5127 1558.00
83.5779 1511.00
83.6431 1475.00
83.7083 1512.00
83.7735 1491.00
83.8387 1419.00
83.9039 1423.00
83.9691 1335.00
84.0343 1356.00
84.0995 1341.00
84.1647 1207.00
84.2299 1170.00
84.2951 1214.00
84.3603 1226.00
84.4255 1182.00
84.4907 1299.00
84.5559 1321.00
84.6211 1300.00
84.6863 1326.00
84.7515 1325.00
84.8167 1319.00
84.8819 1436.00
84.9471 1332.00
85.0123 1393.00
85.0775 1398.00
85.1427 1420.00
85.2079 1447.00
85.2731 1375.00
85.3383 1412.00
85.4035 1376.00
85.4687 1288.00
85.5339 1405.00
85.5991 1377.00
85.6643 1449.00
85.7295 1372.00
85.7946 1477.00
85.8598 1350.00
85.925 1343.00
85.9903 1396.00
86.0554 1372.00
86.1206 1400.00
86.1858 1354.00
86.251 1333.00
86.3162 1287.00
86.3814 1351.00
86.4466 1278.00
86.5118 1251.00
86.577 1308.00
86.6422 1276.00
86.7074 1263.00
86.7726 1227.00
86.8378 1224.00
86.903 1166.00
86.9682 1264.00
87.0334 1259.00
87.0986 1179.00
87.1638 1215.00
87.229 1205.00
87.2942 1191.00
87.3594 1206.00
87.4246 1133.00
87.4898 1212.00
87.555 1193.00
87.6202 1228.00
87.6854 1277.00
87.7506 1174.00
87.8158 1264.00
87.881 1300.00
87.9462 1245.00
88.0114 1219.00
88.0766 1296.00
88.1418 1255.00
88.207 1315.00
88.2722 1282.00
88.3374 1264.00
88.4026 1253.00
88.4678 1258.00
88.533 1279.00
88.5982 1260.00
88.6634 1267.00
88.7286 1276.00
88.7938 1218.00
88.859 1225.00
88.9242 1279.00
88.9894 1282.00
89.0546 1298.00
89.1198 1313.00
89.185 1465.00
89.2502 1422.00
89.3154 1423.00
89.3806 1586.00
89.4458 1590.00
89.511 1627.00
89.5762 1573.00
89.6414 1623.00
89.7066 1540.00
89.7718 1576.00
89.837 1441.00
89.9022 1561.00
89.9674 1433.00
90.0326 1338.00
90.0978 1364.00
90.163 1324.00
90.2282 1300.00
90.2934 1317.00
90.3586 1322.00
90.4238 1169.00
90.489 1182.00
90.5542 1208.00
90.6193 1176.00
90.6845 1199.00
90.7497 1174.00
90.8149 1194.00
90.8801 1170.00
90.9453 1213.00
91.0105 1237.00
91.0757 1164.00
91.1409 1305.00
91.2061 1294.00
91.2713 1315.00
91.3365 1326.00
91.4017 1317.00
91.4669 1332.00
91.5321 1374.00
91.5973 1363.00
91.6625 1389.00
91.7277 1285.00
91.7929 1430.00
91.8581 1311.00
91.9233 1294.00
91.9885 1286.00
92.0537 1296.00
92.1189 1259.00
92.1841 1302.00
92.2493 1260.00
92.3145 1275.00
92.3797 1288.00
92.4449 1278.00
92.5101 1215.00
92.5753 1157.00
92.6405 1320.00
92.7057 1239.00
92.7709 1298.00
92.8361 1260.00
92.9013 1221.00
92.9665 1224.00
93.0317 1241.00
93.0969 1192.00
93.1621 1284.00
93.2273 1215.00
93.2925 1197.00
93.3577 1260.00
93.4229 1230.00
93.4881 1254.00
93.5533 1245.00
93.6185 1193.00
93.6837 1308.00
93.7489 1377.00
93.8141 1315.00
93.8793 1337.00
93.9445 1339.00
94.0097 1290.00
94.0749 1263.00
94.1401 1355.00
94.2053 1285.00
94.2705 1250.00
94.3357 1316.00
94.4009 1253.00
94.4661 1314.00
94.5313 1379.00
94.5965 1265.00
94.6617 1310.00
94.7269 1425.00
94.7921 1340.00
94.8573 1397.00
94.9225 1392.00
94.9877 1371.00
95.0529 1366.00
95.1181 1401.00
95.1833 1364.00
95.2485 1421.00
95.3137 1386.00
95.3789 1335.00
95.444 1332.00
95.5092 1303.00
95.5744 1283.00
95.6396 1225.00
95.7048 1306.00
95.77 1258.00
95.8352 1312.00
95.9004 1234.00
95.9656 1349.00
96.0308 1336.00
96.096 1335.00
96.1612 1293.00
96.2264 1442.00
96.2916 1379.00
96.3568 1438.00
96.422 1459.00
96.4872 1432.00
96.5524 1431.00
96.6176 1355.00
96.6828 1385.00
96.748 1371.00
96.8132 1340.00
96.8784 1334.00
96.9436 1342.00
97.0088 1293.00
97.074 1321.00
97.1392 1315.00
97.2044 1267.00
97.2696 1255.00
97.3348 1171.00
97.4 1184.00
97.4652 1128.00
97.5304 1081.00
97.5956 1099.00
97.6608 1084.00
97.726 1081.00
97.7912 1198.00
97.8564 1116.00
97.9216 1214.00
97.9868 1078.00
98.052 1196.00
98.1172 1183.00
98.1824 1178.00
98.2476 1174.00
98.3128 1143.00
98.378 1162.00
98.4432 1189.00
98.5084 1164.00
98.5736 1161.00
98.6388 1157.00
98.704 1211.00
98.7692 1255.00
98.8344 1303.00
98.8996 1295.00
98.9648 1284.00
99.03 1265.00
99.0952 1301.00
99.1604 1347.00
99.2256 1298.00
99.2908 1325.00
99.356 1316.00
99.4212 1287.00
99.4864 1383.00
99.5516 1308.00
99.6168 1330.00
99.682 1370.00
99.7472 1237.00
99.8124 1422.00
99.8776 1380.00
99.9428 1382.00
100.008 1383.00
100.073 1471.00
100.095 1493.00