File: data/xrd_creation/results/NSC_147.xy
9.903433 2523.00
9.968632 2509.00
10.0338 2497.00
10.099 2428.00
10.1642 2465.00
10.2294 2396.00
10.2946 2399.00
10.3598 2294.00
10.425 2345.00
10.4902 2325.00
10.5554 2332.00
10.6206 2343.00
10.6858 2296.00
10.751 2248.00
10.8162 2209.00
10.8814 2139.00
10.9466 2223.00
11.0118 2296.00
11.077 2114.00
11.1422 2122.00
11.2074 2188.00
11.2726 2086.00
11.3378 2007.00
11.403 2133.00
11.4682 2003.00
11.5334 2004.00
11.5986 2067.00
11.6638 2015.00
11.729 1961.00
11.7942 1913.00
11.8594 1958.00
11.9246 1882.00
11.9898 1989.00
12.055 1906.00
12.1202 1962.00
12.1854 1864.00
12.2506 1883.00
12.3158 1848.00
12.381 1816.00
12.4462 1843.00
12.5114 1842.00
12.5766 1812.00
12.6418 1922.00
12.707 1728.00
12.7722 1747.00
12.8374 1751.00
12.9026 1763.00
12.9678 1786.00
13.033 1718.00
13.0982 1800.00
13.1634 1751.00
13.2286 1808.00
13.2938 1960.00
13.359 2019.00
13.4242 2168.00
13.4894 2304.00
13.5546 2469.00
13.6198 2674.00
13.685 3405.00
13.7502 3686.00
13.8154 2104.00
13.8805 1614.00
13.9457 1719.00
14.0109 1614.00
14.0761 1651.00
14.1413 1591.00
14.2065 1564.00
14.2717 1594.00
14.3369 1550.00
14.4021 1610.00
14.4673 1533.00
14.5325 1507.00
14.5977 1511.00
14.6629 1565.00
14.7281 1519.00
14.7933 1466.00
14.8585 1502.00
14.9237 1560.00
14.9889 1487.00
15.0541 1551.00
15.1193 1549.00
15.1845 1518.00
15.2497 1494.00
15.3149 1423.00
15.3801 1497.00
15.4453 1494.00
15.5105 1449.00
15.5757 1436.00
15.6409 1442.00
15.7061 1415.00
15.7713 1454.00
15.8365 1375.00
15.9017 1511.00
15.9669 1512.00
16.0321 1507.00
16.0973 1440.00
16.1625 1340.00
16.2277 1436.00
16.2929 1407.00
16.3581 1383.00
16.4233 1415.00
16.4885 1414.00
16.5537 1349.00
16.6189 1425.00
16.6841 1423.00
16.7493 1330.00
16.8145 1381.00
16.8797 1390.00
16.9449 1378.00
17.0101 1469.00
17.0753 1444.00
17.1405 1433.00
17.2057 1433.00
17.2709 1421.00
17.3361 1288.00
17.4013 1250.00
17.4665 1324.00
17.5317 1313.00
17.5969 1290.00
17.6621 1233.00
17.7273 1301.00
17.7925 1272.00
17.8577 1283.00
17.9229 1293.00
17.9881 1323.00
18.0533 1271.00
18.1185 1253.00
18.1837 1230.00
18.2489 1296.00
18.3141 1298.00
18.3793 1299.00
18.4445 1303.00
18.5097 1296.00
18.5749 1434.00
18.6401 1346.00
18.7052 1332.00
18.7704 1382.00
18.8356 1330.00
18.9008 1384.00
18.966 1548.00
19.0312 1703.00
19.0964 1803.00
19.1616 1944.00
19.2268 2238.00
19.292 2337.00
19.3572 2051.00
19.4224 1713.00
19.4876 1286.00
19.5528 1139.00
19.618 1162.00
19.6832 1170.00
19.7484 1157.00
19.8136 1110.00
19.8788 1109.00
19.944 1090.00
20.0092 1076.00
20.0744 1166.00
20.1396 1166.00
20.2048 1175.00
20.27 1195.00
20.3352 1221.00
20.4004 1268.00
20.4656 1165.00
20.5308 1061.00
20.596 1057.00
20.6612 1115.00
20.7264 1002.00
20.7916 1017.00
20.8568 1047.00
20.922 1190.00
20.9872 1192.00
21.0524 1265.00
21.1176 1252.00
21.1828 1262.00
21.248 1332.00
21.3132 1450.00
21.3784 1598.00
21.4436 1650.00
21.5088 1457.00
21.574 1607.00
21.6392 1915.00
21.7044 1787.00
21.7696 1384.00
21.8348 1112.00
21.9 1010.00
21.9652 1014.00
22.0304 982.00
22.0956 1052.00
22.1608 976.00
22.226 996.00
22.2912 933.00
22.3564 936.00
22.4216 988.00
22.4868 978.00
22.552 975.00
22.6172 1020.00
22.6824 992.00
22.7476 979.00
22.8128 1105.00
22.878 1190.00
22.9432 1202.00
23.0084 1416.00
23.0736 1511.00
23.1388 1538.00
23.204 1684.00
23.2692 1284.00
23.3344 991.00
23.3996 928.00
23.4647 912.00
23.5299 886.00
23.5951 957.00
23.6603 857.00
23.7255 918.00
23.7907 956.00
23.8559 913.00
23.9211 884.00
23.9863 822.00
24.0515 828.00
24.1167 803.00
24.1819 846.00
24.2471 825.00
24.3123 838.00
24.3775 907.00
24.4427 848.00
24.5079 868.00
24.5731 866.00
24.6383 864.00
24.7035 876.00
24.7687 862.00
24.8339 863.00
24.8991 862.00
24.9643 863.00
25.0295 912.00
25.0947 1031.00
25.1599 1192.00
25.2251 1356.00
25.2903 1241.00
25.3555 1393.00
25.4207 1803.00
25.4859 2198.00
25.5511 2715.00
25.6163 2361.00
25.6815 1289.00
25.7467 863.00
25.8119 862.00
25.8771 871.00
25.9423 938.00
26.0075 880.00
26.0727 835.00
26.1379 770.00
26.2031 768.00
26.2683 869.00
26.3335 891.00
26.3987 843.00
26.4639 761.00
26.5291 801.00
26.5943 835.00
26.6595 886.00
26.7247 927.00
26.7899 993.00
26.8551 1011.00
26.9203 1129.00
26.9855 1376.00
27.0507 1827.00
27.1159 1530.00
27.1811 1271.00
27.2463 1402.00
27.3115 1023.00
27.3767 871.00
27.4419 768.00
27.5071 730.00
27.5723 760.00
27.6375 731.00
27.7027 724.00
27.7679 757.00
27.8331 723.00
27.8983 750.00
27.9635 784.00
28.0287 764.00
28.0939 736.00
28.1591 774.00
28.2243 735.00
28.2894 696.00
28.3546 770.00
28.4198 898.00
28.485 920.00
28.5502 964.00
28.6154 1019.00
28.6806 1087.00
28.7458 1432.00
28.811 1882.00
28.8762 1701.00
28.9414 1075.00
29.0066 783.00
29.0718 756.00
29.137 816.00
29.2022 844.00
29.2674 927.00
29.3326 1059.00
29.3978 1094.00
29.463 842.00
29.5282 677.00
29.5934 692.00
29.6586 718.00
29.7238 687.00
29.789 755.00
29.8542 862.00
29.9194 1021.00
29.9846 892.00
30.0498 786.00
30.115 763.00
30.1802 732.00
30.2454 725.00
30.3106 736.00
30.3758 764.00
30.441 668.00
30.5062 742.00
30.5714 594.00
30.6366 639.00
30.7018 652.00
30.767 599.00
30.8322 701.00
30.8974 765.00
30.9626 873.00
31.0278 912.00
31.093 1161.00
31.1582 1679.00
31.2234 1611.00
31.2886 1443.00
31.3538 938.00
31.419 762.00
31.4842 686.00
31.5494 700.00
31.6146 752.00
31.6798 838.00
31.745 993.00
31.8102 1261.00
31.8754 1576.00
31.9406 2122.00
32.0058 3250.00
32.071 4433.00
32.1362 4798.00
32.2014 2880.00
32.2666 1465.00
32.3318 757.00
32.397 709.00
32.4622 670.00
32.5274 626.00
32.5926 588.00
32.6578 595.00
32.723 587.00
32.7882 592.00
32.8534 689.00
32.9186 692.00
32.9838 752.00
33.0489 822.00
33.1141 838.00
33.1793 894.00
33.2445 1093.00
33.3097 1222.00
33.3749 1625.00
33.4401 2620.00
33.5053 3332.00
33.5705 2345.00
33.6357 1556.00
33.7009 1677.00
33.7661 2128.00
33.8313 1421.00
33.8965 1136.00
33.9617 962.00
34.0269 763.00
34.0921 652.00
34.1573 612.00
34.2225 602.00
34.2877 558.00
34.3529 634.00
34.4181 745.00
34.4833 794.00
34.5485 867.00
34.6137 777.00
34.6789 648.00
34.7441 615.00
34.8093 553.00
34.8745 595.00
34.9397 525.00
35.0049 527.00
35.0701 570.00
35.1353 531.00
35.2005 507.00
35.2657 505.00
35.3309 480.00
35.3961 487.00
35.4613 509.00
35.5265 525.00
35.5917 533.00
35.6569 551.00
35.7221 579.00
35.7873 589.00
35.8525 549.00
35.9177 532.00
35.9829 538.00
36.0481 559.00
36.1133 538.00
36.1785 708.00
36.2437 764.00
36.3089 794.00
36.3741 799.00
36.4393 843.00
36.5045 976.00
36.5697 1002.00
36.6349 857.00
36.7001 675.00
36.7653 587.00
36.8305 627.00
36.8957 829.00
36.9609 674.00
37.0261 596.00
37.0913 502.00
37.1565 444.00
37.2217 572.00
37.2869 605.00
37.3521 669.00
37.4173 640.00
37.4825 563.00
37.5477 520.00
37.6129 480.00
37.6781 522.00
37.7433 455.00
37.8085 490.00
37.8736 436.00
37.9388 461.00
38.004 464.00
38.0692 488.00
38.1344 459.00
38.1996 482.00
38.2648 469.00
38.33 492.00
38.3952 549.00
38.4604 577.00
38.5256 532.00
38.5908 611.00
38.656 644.00
38.7212 741.00
38.7864 878.00
38.8516 1306.00
38.9168 1366.00
38.982 987.00
39.0472 770.00
39.1124 615.00
39.1776 544.00
39.2428 559.00
39.308 540.00
39.3732 505.00
39.4384 476.00
39.5036 518.00
39.5688 516.00
39.634 516.00
39.6992 508.00
39.7644 582.00
39.8296 723.00
39.8948 814.00
39.96 1092.00
40.0252 1457.00
40.0904 1158.00
40.1556 1002.00
40.2208 748.00
40.286 585.00
40.3512 536.00
40.4164 468.00
40.4816 419.00
40.5468 495.00
40.612 488.00
40.6772 432.00
40.7424 521.00
40.8076 554.00
40.8728 598.00
40.938 605.00
41.0032 797.00
41.0684 997.00
41.1336 784.00
41.1988 733.00
41.264 621.00
41.3292 538.00
41.3944 498.00
41.4596 457.00
41.5248 457.00
41.59 507.00
41.6552 551.00
41.7204 568.00
41.7856 546.00
41.8508 632.00
41.916 674.00
41.9812 728.00
42.0464 908.00
42.1116 1036.00
42.1768 1373.00
42.242 1313.00
42.3072 1547.00
42.3724 1358.00
42.4376 1502.00
42.5028 1109.00
42.568 990.00
42.6332 777.00
42.6983 708.00
42.7635 570.00
42.8287 517.00
42.8939 568.00
42.9591 510.00
43.0243 495.00
43.0895 478.00
43.1547 419.00
43.2199 540.00
43.2851 489.00
43.3503 622.00
43.4155 747.00
43.4807 650.00
43.5459 625.00
43.6111 550.00
43.6763 618.00
43.7415 835.00
43.8067 658.00
43.8719 629.00
43.9371 473.00
44.0023 436.00
44.0675 379.00
44.1327 440.00
44.1979 405.00
44.2631 420.00
44.3283 451.00
44.3935 422.00
44.4587 462.00
44.5239 450.00
44.5891 441.00
44.6543 523.00
44.7195 601.00
44.7847 750.00
44.8499 670.00
44.9151 610.00
44.9803 504.00
45.0455 499.00
45.1107 560.00
45.1759 719.00
45.2411 663.00
45.3063 636.00
45.3715 522.00
45.4367 516.00
45.5019 562.00
45.5671 647.00
45.6323 859.00
45.6975 954.00
45.7627 1069.00
45.8279 1200.00
45.8931 1183.00
45.9583 845.00
46.0235 690.00
46.0887 545.00
46.1539 444.00
46.2191 476.00
46.2843 487.00
46.3495 495.00
46.4147 467.00
46.4799 504.00
46.5451 642.00
46.6103 636.00
46.6755 689.00
46.7407 908.00
46.8059 1145.00
46.8711 1049.00
46.9363 971.00
47.0015 1127.00
47.0667 1485.00
47.1319 1115.00
47.1971 950.00
47.2623 567.00
47.3275 477.00
47.3927 472.00
47.4579 473.00
47.523 491.00
47.5882 518.00
47.6534 616.00
47.7186 721.00
47.7838 585.00
47.849 556.00
47.9142 477.00
47.9794 428.00
48.0446 439.00
48.1098 530.00
48.175 513.00
48.2402 569.00
48.3054 754.00
48.3706 932.00
48.4358 810.00
48.501 793.00
48.5662 749.00
48.6314 752.00
48.6966 629.00
48.7618 686.00
48.827 613.00
48.8922 507.00
48.9574 459.00
49.0226 427.00
49.0878 476.00
49.153 411.00
49.2182 422.00
49.2834 375.00
49.3486 493.00
49.4138 481.00
49.479 429.00
49.5442 448.00
49.6094 446.00
49.6746 388.00
49.7398 364.00
49.805 400.00
49.8702 373.00
49.9354 395.00
50.0006 461.00
50.0658 411.00
50.131 428.00
50.1962 385.00
50.2614 351.00
50.3266 351.00
50.3918 414.00
50.457 441.00
50.5222 524.00
50.5874 479.00
50.6526 415.00
50.7178 389.00
50.783 357.00
50.8482 381.00
50.9134 345.00
50.9786 333.00
51.0438 347.00
51.109 377.00
51.1742 429.00
51.2394 389.00
51.3046 420.00
51.3698 411.00
51.435 428.00
51.5002 415.00
51.5654 499.00
51.6306 707.00
51.6958 854.00
51.761 624.00
51.8262 744.00
51.8914 738.00
51.9566 668.00
52.0218 769.00
52.087 1086.00
52.1522 1447.00
52.2174 1414.00
52.2826 1273.00
52.3477 1014.00
52.4129 784.00
52.4781 626.00
52.5433 673.00
52.6085 535.00
52.6737 573.00
52.7389 579.00
52.8041 444.00
52.8693 451.00
52.9345 400.00
52.9997 390.00
53.0649 337.00
53.1301 335.00
53.1953 331.00
53.2605 310.00
53.3257 317.00
53.3909 367.00
53.4561 337.00
53.5213 388.00
53.5865 398.00
53.6517 436.00
53.7169 495.00
53.7821 614.00
53.8473 456.00
53.9125 491.00
53.9777 480.00
54.0429 425.00
54.1081 438.00
54.1733 463.00
54.2385 438.00
54.3037 427.00
54.3689 373.00
54.4341 298.00
54.4993 318.00
54.5645 318.00
54.6297 310.00
54.6949 393.00
54.7601 402.00
54.8253 449.00
54.8905 547.00
54.9557 838.00
55.0209 745.00
55.0861 610.00
55.1513 610.00
55.2165 480.00
55.2817 582.00
55.3469 642.00
55.4121 512.00
55.4773 529.00
55.5425 531.00
55.6077 441.00
55.6729 532.00
55.7381 542.00
55.8033 570.00
55.8685 546.00
55.9337 820.00
55.9989 1117.00
56.0641 995.00
56.1293 761.00
56.1945 708.00
56.2597 436.00
56.3249 354.00
56.3901 448.00
56.4553 401.00
56.5205 346.00
56.5857 363.00
56.6509 327.00
56.7161 326.00
56.7813 392.00
56.8465 397.00
56.9117 373.00
56.9769 439.00
57.042 529.00
57.1073 413.00
57.1724 545.00
57.2376 376.00
57.3028 416.00
57.368 350.00
57.4332 419.00
57.4984 392.00
57.5636 397.00
57.6288 440.00
57.694 461.00
57.7592 486.00
57.8244 601.00
57.8896 510.00
57.9548 558.00
58.02 478.00
58.0852 419.00
58.1504 382.00
58.2156 384.00
58.2808 389.00
58.346 432.00
58.4112 529.00
58.4764 561.00
58.5416 712.00
58.6068 752.00
58.672 644.00
58.7372 706.00
58.8024 709.00
58.8676 535.00
58.9328 593.00
58.998 582.00
59.0632 579.00
59.1284 554.00
59.1936 502.00
59.2588 464.00
59.324 539.00
59.3892 535.00
59.4544 546.00
59.5196 516.00
59.5848 454.00
59.65 401.00
59.7152 437.00
59.7804 421.00
59.8456 505.00
59.9108 708.00
59.976 523.00
60.0412 526.00
60.1064 555.00
60.1716 469.00
60.2368 439.00
60.302 432.00
60.3672 356.00
60.4324 423.00
60.4976 378.00
60.5628 381.00
60.628 314.00
60.6932 339.00
60.7584 381.00
60.8236 415.00
60.8888 363.00
60.954 416.00
61.0192 354.00
61.0844 301.00
61.1496 309.00
61.2148 282.00
61.28 344.00
61.3452 270.00
61.4104 316.00
61.4756 321.00
61.5408 276.00
61.606 299.00
61.6712 360.00
61.7364 351.00
61.8016 313.00
61.8667 312.00
61.932 361.00
61.9971 357.00
62.0623 301.00
62.1275 294.00
62.1927 281.00
62.2579 284.00
62.3231 305.00
62.3883 283.00
62.4535 280.00
62.5187 308.00
62.5839 321.00
62.6491 273.00
62.7143 378.00
62.7795 342.00
62.8447 346.00
62.9099 403.00
62.9751 461.00
63.0403 548.00
63.1055 523.00
63.1707 649.00
63.2359 742.00
63.3011 577.00
63.3663 705.00
63.4315 674.00
63.4967 496.00
63.5619 442.00
63.6271 494.00
63.6923 362.00
63.7575 358.00
63.8227 345.00
63.8879 310.00
63.9531 282.00
64.0183 287.00
64.0835 279.00
64.1487 285.00
64.2139 314.00
64.2791 329.00
64.3443 322.00
64.4095 272.00
64.4747 289.00
64.5399 296.00
64.6051 289.00
64.6703 295.00
64.7355 241.00
64.8007 278.00
64.8659 297.00
64.9311 240.00
64.9963 275.00
65.0615 288.00
65.1267 264.00
65.1919 329.00
65.2571 317.00
65.3223 317.00
65.3875 386.00
65.4527 410.00
65.5179 366.00
65.5831 346.00
65.6483 308.00
65.7135 293.00
65.7787 345.00
65.8439 306.00
65.9091 331.00
65.9743 325.00
66.0395 344.00
66.1047 318.00
66.1699 385.00
66.2351 369.00
66.3003 356.00
66.3655 457.00
66.4307 422.00
66.4959 396.00
66.561 445.00
66.6263 487.00
66.6915 425.00
66.7566 492.00
66.8218 500.00
66.887 424.00
66.9522 490.00
67.0174 338.00
67.0826 296.00
67.1478 320.00
67.213 317.00
67.2782 301.00
67.3434 297.00
67.4086 282.00
67.4738 297.00
67.539 232.00
67.6042 283.00
67.6694 265.00
67.7346 287.00
67.7998 360.00
67.865 489.00
67.9302 449.00
67.9954 342.00
68.0606 400.00
68.1258 346.00
68.191 368.00
68.2562 303.00
68.3214 302.00
68.3866 319.00
68.4518 303.00
68.517 267.00
68.5822 303.00
68.6474 360.00
68.7126 384.00
68.7778 390.00
68.843 387.00
68.9082 334.00
68.9734 314.00
69.0386 343.00
69.1038 337.00
69.169 360.00
69.2342 374.00
69.2994 329.00
69.3646 359.00
69.4298 413.00
69.495 457.00
69.5602 459.00
69.6254 431.00
69.6906 535.00
69.7558 614.00
69.821 465.00
69.8862 571.00
69.9514 723.00
70.0166 520.00
70.0818 481.00
70.147 524.00
70.2122 466.00
70.2774 415.00
70.3426 460.00
70.4078 612.00
70.473 524.00
70.5382 503.00
70.6034 624.00
70.6686 505.00
70.7338 578.00
70.799 436.00
70.8642 394.00
70.9294 489.00
70.9946 426.00
71.0598 367.00
71.125 412.00
71.1902 453.00
71.2554 418.00
71.3205 341.00
71.3858 335.00
71.451 317.00
71.5162 307.00
71.5813 333.00
71.6465 335.00
71.7117 370.00
71.7769 366.00
71.8421 302.00
71.9073 352.00
71.9725 321.00
72.0377 279.00
72.1029 274.00
72.1681 286.00
72.2333 300.00
72.2985 322.00
72.3637 393.00
72.4289 330.00
72.4941 311.00
72.5593 334.00
72.6245 325.00
72.6897 308.00
72.7549 325.00
72.8201 300.00
72.8853 276.00
72.9505 286.00
73.0157 285.00
73.0809 280.00
73.1461 284.00
73.2113 289.00
73.2765 269.00
73.3417 317.00
73.4069 437.00
73.4721 327.00
73.5373 319.00
73.6025 363.00
73.6677 363.00
73.7329 336.00
73.7981 352.00
73.8633 445.00
73.9285 328.00
73.9937 334.00
74.0589 388.00
74.1241 362.00
74.1893 373.00
74.2545 362.00
74.3197 308.00
74.3849 288.00
74.4501 321.00
74.5153 267.00
74.5805 309.00
74.6457 288.00
74.7109 264.00
74.7761 263.00
74.8413 264.00
74.9065 267.00
74.9717 288.00
75.0369 249.00
75.1021 269.00
75.1673 236.00
75.2325 305.00
75.2977 330.00
75.3629 291.00
75.4281 288.00
75.4933 298.00
75.5585 263.00
75.6237 283.00
75.6889 282.00
75.7541 281.00
75.8193 310.00
75.8845 328.00
75.9497 418.00
76.0149 332.00
76.0801 324.00
76.1452 341.00
76.2104 333.00
76.2756 406.00
76.3409 338.00
76.406 385.00
76.4712 533.00
76.5364 523.00
76.6016 580.00
76.6668 603.00
76.732 546.00
76.7972 528.00
76.8624 436.00
76.9276 453.00
76.9928 475.00
77.058 513.00
77.1232 370.00
77.1884 341.00
77.2536 347.00
77.3188 313.00
77.384 311.00
77.4492 268.00
77.5144 250.00
77.5796 276.00
77.6448 243.00
77.71 245.00
77.7752 240.00
77.8404 333.00
77.9056 375.00
77.9708 298.00
78.036 271.00
78.1012 334.00
78.1664 312.00
78.2316 284.00
78.2968 258.00
78.362 276.00
78.4272 288.00
78.4924 305.00
78.5576 282.00
78.6228 297.00
78.688 315.00
78.7532 306.00
78.8184 357.00
78.8836 364.00
78.9488 444.00
79.014 475.00
79.0792 412.00
79.1444 368.00
79.2096 363.00
79.2748 375.00
79.34 315.00
79.4052 324.00
79.4704 276.00
79.5356 335.00
79.6008 265.00
79.666 288.00
79.7312 275.00
79.7964 267.00
79.8616 280.00
79.9268 264.00
79.992 332.00
80.0572 366.00
80.1224 352.00
80.1876 357.00
80.2528 505.00
80.318 374.00
80.3832 376.00
80.4484 329.00
80.5136 304.00
80.5788 280.00
80.644 292.00
80.7092 268.00
80.7744 259.00
80.8396 248.00
80.9048 280.00
80.9699 292.00
81.0351 319.00
81.1003 271.00
81.1655 300.00
81.2307 286.00
81.2959 270.00
81.3611 245.00
81.4263 299.00
81.4915 280.00
81.5567 274.00
81.6219 274.00
81.6871 296.00
81.7523 331.00
81.8175 326.00
81.8827 307.00
81.9479 336.00
82.0131 330.00
82.0783 356.00
82.1435 363.00
82.2087 410.00
82.2739 347.00
82.3391 306.00
82.4043 277.00
82.4695 314.00
82.5347 325.00
82.5999 324.00
82.6651 372.00
82.7303 412.00
82.7955 365.00
82.8607 371.00
82.9259 367.00
82.9911 367.00
83.0563 278.00
83.1215 329.00
83.1867 307.00
83.2519 307.00
83.3171 298.00
83.3823 365.00
83.4475 427.00
83.5127 394.00
83.5779 319.00
83.6431 325.00
83.7083 418.00
83.7735 371.00
83.8387 349.00
83.9039 294.00
83.9691 303.00
84.0343 344.00
84.0995 325.00
84.1647 299.00
84.2299 262.00
84.2951 275.00
84.3603 274.00
84.4255 263.00
84.4907 246.00
84.5559 281.00
84.6211 263.00
84.6863 274.00
84.7515 299.00
84.8167 354.00
84.8819 346.00
84.9471 327.00
85.0123 302.00
85.0775 309.00
85.1427 344.00
85.2079 346.00
85.2731 375.00
85.3383 440.00
85.4035 370.00
85.4687 328.00
85.5339 356.00
85.5991 398.00
85.6643 383.00
85.7295 363.00
85.7946 330.00
85.8598 326.00
85.925 335.00
85.9903 313.00
86.0554 351.00
86.1206 276.00
86.1858 364.00
86.251 404.00
86.3162 353.00
86.3814 342.00
86.4466 337.00
86.5118 356.00
86.577 295.00
86.6422 310.00
86.7074 329.00
86.7726 336.00
86.8378 287.00
86.903 294.00
86.9682 269.00
87.0334 289.00
87.0986 259.00
87.1638 273.00
87.229 286.00
87.2942 283.00
87.3594 292.00
87.4246 360.00
87.4898 397.00
87.555 357.00
87.6202 315.00
87.6854 367.00
87.7506 399.00
87.8158 347.00
87.881 379.00
87.9462 373.00
88.0114 365.00
88.0766 332.00
88.1418 377.00
88.207 351.00
88.2722 289.00
88.3374 263.00
88.4026 292.00
88.4678 294.00
88.533 289.00
88.5982 293.00
88.6634 288.00
88.7286 280.00
88.7938 372.00
88.859 327.00
88.9242 348.00
88.9894 342.00
89.0546 307.00
89.1198 312.00
89.185 283.00
89.2502 294.00
89.3154 281.00
89.3806 290.00
89.4458 352.00
89.511 344.00
89.5762 272.00
89.6414 250.00
89.7066 260.00
89.7718 299.00
89.837 284.00
89.9022 233.00
89.9674 271.00
90.0326 287.00
90.0978 316.00
90.163 296.00
90.2282 323.00
90.2934 333.00
90.3586 363.00
90.4238 321.00
90.489 280.00
90.5542 262.00
90.6193 270.00
90.6845 290.00
90.7497 312.00
90.8149 244.00
90.8801 305.00
90.9453 272.00
91.0105 272.00
91.0757 300.00
91.1409 376.00
91.2061 336.00
91.2713 316.00
91.3365 337.00
91.4017 406.00
91.4669 394.00
91.5321 447.00
91.5973 482.00
91.6625 386.00
91.7277 451.00
91.7929 388.00
91.8581 427.00
91.9233 386.00
91.9885 366.00
92.0537 308.00
92.1189 329.00
92.1841 338.00
92.2493 347.00
92.3145 425.00
92.3797 367.00
92.4449 291.00
92.5101 330.00
92.5753 324.00
92.6405 376.00
92.7057 328.00
92.7709 334.00
92.8361 298.00
92.9013 272.00
92.9665 302.00
93.0317 323.00
93.0969 301.00
93.1621 279.00
93.2273 292.00
93.2925 288.00
93.3577 368.00
93.4229 323.00
93.4881 348.00
93.5533 298.00
93.6185 325.00
93.6837 302.00
93.7489 371.00
93.8141 319.00
93.8793 300.00
93.9445 300.00
94.0097 330.00
94.0749 293.00
94.1401 335.00
94.2053 274.00
94.2705 250.00
94.3357 258.00
94.4009 320.00
94.4661 289.00
94.5313 284.00
94.5965 320.00
94.6617 306.00
94.7269 317.00
94.7921 281.00
94.8573 286.00
94.9225 262.00
94.9877 238.00
95.0529 277.00
95.1181 272.00
95.1833 292.00
95.2485 298.00
95.3137 260.00
95.3789 267.00
95.444 305.00
95.5092 320.00
95.5744 346.00
95.6396 329.00
95.7048 342.00
95.77 388.00
95.8352 309.00
95.9004 304.00
95.9656 299.00
96.0308 323.00
96.096 327.00
96.1612 301.00
96.2264 292.00
96.2916 301.00
96.3568 309.00
96.422 339.00
96.4872 284.00
96.5524 283.00
96.6176 245.00
96.6828 258.00
96.748 315.00
96.8132 236.00
96.8784 226.00
96.9436 269.00
97.0088 230.00
97.074 276.00
97.1392 269.00
97.2044 248.00
97.2696 223.00
97.3348 282.00
97.4 298.00
97.4652 286.00
97.5304 327.00
97.5956 313.00
97.6608 355.00
97.726 310.00
97.7912 305.00
97.8564 290.00
97.9216 365.00
97.9868 369.00
98.052 343.00
98.1172 258.00
98.1824 289.00
98.2476 289.00
98.3128 292.00
98.378 309.00
98.4432 263.00
98.5084 250.00
98.5736 272.00
98.6388 277.00
98.704 303.00
98.7692 302.00
98.8344 381.00
98.8996 334.00
98.9648 334.00
99.03 295.00
99.0952 306.00
99.1604 317.00
99.2256 316.00
99.2908 320.00
99.356 324.00
99.4212 314.00
99.4864 318.00
99.5516 318.00
99.6168 307.00
99.682 308.00
99.7472 316.00
99.8124 346.00
99.8776 335.00
99.9428 309.00
100.008 309.00
100.073 273.00
100.095 292.00