File: data/xrd_creation/results/NSC_185.xy
9.903433 2547.00
9.968632 2476.00
10.0338 2502.00
10.099 2399.00
10.1642 2489.00
10.2294 2447.00
10.2946 2427.00
10.3598 2516.00
10.425 2415.00
10.4902 2452.00
10.5554 2463.00
10.6206 2186.00
10.6858 2401.00
10.751 2376.00
10.8162 2348.00
10.8814 2295.00
10.9466 2259.00
11.0118 2181.00
11.077 2303.00
11.1422 2266.00
11.2074 2243.00
11.2726 2277.00
11.3378 2202.00
11.403 2190.00
11.4682 2221.00
11.5334 2206.00
11.5986 2104.00
11.6638 2102.00
11.729 2108.00
11.7942 2100.00
11.8594 2127.00
11.9246 2166.00
11.9898 2126.00
12.055 2031.00
12.1202 2002.00
12.1854 2024.00
12.2506 1982.00
12.3158 1975.00
12.381 1903.00
12.4462 1919.00
12.5114 1874.00
12.5766 1968.00
12.6418 1939.00
12.707 1938.00
12.7722 1966.00
12.8374 1931.00
12.9026 1924.00
12.9678 1845.00
13.033 1846.00
13.0982 1851.00
13.1634 1913.00
13.2286 1832.00
13.2938 1830.00
13.359 1869.00
13.4242 1801.00
13.4894 1839.00
13.5546 1787.00
13.6198 1744.00
13.685 1804.00
13.7502 1705.00
13.8154 1789.00
13.8805 1679.00
13.9457 1704.00
14.0109 1705.00
14.0761 1708.00
14.1413 1678.00
14.2065 1833.00
14.2717 1618.00
14.3369 1697.00
14.4021 1743.00
14.4673 1625.00
14.5325 1671.00
14.5977 1679.00
14.6629 1668.00
14.7281 1680.00
14.7933 1643.00
14.8585 1617.00
14.9237 1671.00
14.9889 1601.00
15.0541 1581.00
15.1193 1627.00
15.1845 1591.00
15.2497 1586.00
15.3149 1629.00
15.3801 1597.00
15.4453 1617.00
15.5105 1610.00
15.5757 1664.00
15.6409 1650.00
15.7061 1620.00
15.7713 1673.00
15.8365 1662.00
15.9017 1719.00
15.9669 1821.00
16.0321 1851.00
16.0973 2113.00
16.1625 2222.00
16.2277 2511.00
16.2929 2544.00
16.3581 2914.00
16.4233 3550.00
16.4885 4330.00
16.5537 5618.00
16.6189 5093.00
16.6841 3585.00
16.7493 2573.00
16.8145 2135.00
16.8797 1813.00
16.9449 1813.00
17.0101 1783.00
17.0753 1772.00
17.1405 1983.00
17.2057 2311.00
17.2709 2030.00
17.3361 1757.00
17.4013 1551.00
17.4665 1453.00
17.5317 1436.00
17.5969 1508.00
17.6621 1365.00
17.7273 1435.00
17.7925 1456.00
17.8577 1393.00
17.9229 1433.00
17.9881 1391.00
18.0533 1335.00
18.1185 1411.00
18.1837 1382.00
18.2489 1391.00
18.3141 1327.00
18.3793 1356.00
18.4445 1364.00
18.5097 1331.00
18.5749 1379.00
18.6401 1355.00
18.7052 1309.00
18.7704 1350.00
18.8356 1291.00
18.9008 1323.00
18.966 1347.00
19.0312 1225.00
19.0964 1278.00
19.1616 1288.00
19.2268 1189.00
19.292 1247.00
19.3572 1247.00
19.4224 1273.00
19.4876 1258.00
19.5528 1327.00
19.618 1249.00
19.6832 1224.00
19.7484 1257.00
19.8136 1224.00
19.8788 1176.00
19.944 1249.00
20.0092 1201.00
20.0744 1241.00
20.1396 1207.00
20.2048 1186.00
20.27 1179.00
20.3352 1177.00
20.4004 1134.00
20.4656 1168.00
20.5308 1160.00
20.596 1197.00
20.6612 1155.00
20.7264 1160.00
20.7916 1178.00
20.8568 1101.00
20.922 1226.00
20.9872 1154.00
21.0524 1150.00
21.1176 1093.00
21.1828 1118.00
21.248 1107.00
21.3132 1098.00
21.3784 1162.00
21.4436 1139.00
21.5088 1167.00
21.574 1212.00
21.6392 1261.00
21.7044 1243.00
21.7696 1416.00
21.8348 1709.00
21.9 1795.00
21.9652 1591.00
22.0304 1294.00
22.0956 1149.00
22.1608 1112.00
22.226 1021.00
22.2912 1093.00
22.3564 1012.00
22.4216 1046.00
22.4868 1011.00
22.552 991.00
22.6172 1000.00
22.6824 1091.00
22.7476 1081.00
22.8128 1022.00
22.878 961.00
22.9432 1000.00
23.0084 1059.00
23.0736 990.00
23.1388 992.00
23.204 1026.00
23.2692 998.00
23.3344 975.00
23.3996 951.00
23.4647 956.00
23.5299 998.00
23.5951 1024.00
23.6603 936.00
23.7255 935.00
23.7907 955.00
23.8559 916.00
23.9211 1016.00
23.9863 946.00
24.0515 967.00
24.1167 961.00
24.1819 977.00
24.2471 980.00
24.3123 917.00
24.3775 923.00
24.4427 965.00
24.5079 954.00
24.5731 890.00
24.6383 945.00
24.7035 888.00
24.7687 931.00
24.8339 899.00
24.8991 894.00
24.9643 915.00
25.0295 992.00
25.0947 999.00
25.1599 1005.00
25.2251 1130.00
25.2903 1369.00
25.3555 1611.00
25.4207 1684.00
25.4859 1346.00
25.5511 1059.00
25.6163 969.00
25.6815 887.00
25.7467 827.00
25.8119 846.00
25.8771 831.00
25.9423 856.00
26.0075 872.00
26.0727 927.00
26.1379 883.00
26.2031 874.00
26.2683 859.00
26.3335 896.00
26.3987 846.00
26.4639 861.00
26.5291 825.00
26.5943 795.00
26.6595 781.00
26.7247 797.00
26.7899 894.00
26.8551 805.00
26.9203 837.00
26.9855 840.00
27.0507 770.00
27.1159 781.00
27.1811 798.00
27.2463 790.00
27.3115 819.00
27.3767 797.00
27.4419 806.00
27.5071 834.00
27.5723 836.00
27.6375 783.00
27.7027 789.00
27.7679 831.00
27.8331 789.00
27.8983 796.00
27.9635 789.00
28.0287 804.00
28.0939 786.00
28.1591 845.00
28.2243 785.00
28.2894 756.00
28.3546 739.00
28.4198 784.00
28.485 777.00
28.5502 761.00
28.6154 775.00
28.6806 725.00
28.7458 780.00
28.811 765.00
28.8762 802.00
28.9414 723.00
29.0066 724.00
29.0718 777.00
29.137 797.00
29.2022 791.00
29.2674 799.00
29.3326 863.00
29.3978 876.00
29.463 974.00
29.5282 1163.00
29.5934 1627.00
29.6586 2643.00
29.7238 3765.00
29.789 3289.00
29.8542 2164.00
29.9194 1253.00
29.9846 926.00
30.0498 874.00
30.115 801.00
30.1802 773.00
30.2454 811.00
30.3106 797.00
30.3758 848.00
30.441 913.00
30.5062 1034.00
30.5714 1095.00
30.6366 1214.00
30.7018 1416.00
30.767 2040.00
30.8322 3470.00
30.8974 6347.00
30.9626 8274.00
31.0278 6696.00
31.093 3752.00
31.1582 2000.00
31.2234 1230.00
31.2886 974.00
31.3538 831.00
31.419 804.00
31.4842 746.00
31.5494 716.00
31.6146 732.00
31.6798 693.00
31.745 716.00
31.8102 700.00
31.8754 713.00
31.9406 757.00
32.0058 726.00
32.071 694.00
32.1362 726.00
32.2014 709.00
32.2666 777.00
32.3318 815.00
32.397 800.00
32.4622 883.00
32.5274 1025.00
32.5926 1323.00
32.6578 1976.00
32.723 3049.00
32.7882 3214.00
32.8534 2816.00
32.9186 2027.00
32.9838 1660.00
33.0489 1844.00
33.1141 1861.00
33.1793 1433.00
33.2445 1193.00
33.3097 949.00
33.3749 808.00
33.4401 811.00
33.5053 845.00
33.5705 773.00
33.6357 824.00
33.7009 809.00
33.7661 768.00
33.8313 885.00
33.8965 978.00
33.9617 1331.00
34.0269 1875.00
34.0921 3050.00
34.1573 3895.00
34.2225 3177.00
34.2877 2212.00
34.3529 1284.00
34.4181 986.00
34.4833 802.00
34.5485 791.00
34.6137 749.00
34.6789 664.00
34.7441 697.00
34.8093 733.00
34.8745 689.00
34.9397 797.00
35.0049 784.00
35.0701 1039.00
35.1353 1410.00
35.2005 2205.00
35.2657 2117.00
35.3309 1603.00
35.3961 1108.00
35.4613 928.00
35.5265 810.00
35.5917 908.00
35.6569 1078.00
35.7221 1625.00
35.7873 2438.00
35.8525 2732.00
35.9177 2197.00
35.9829 1319.00
36.0481 940.00
36.1133 710.00
36.1785 667.00
36.2437 582.00
36.3089 596.00
36.3741 598.00
36.4393 585.00
36.5045 577.00
36.5697 587.00
36.6349 591.00
36.7001 558.00
36.7653 585.00
36.8305 594.00
36.8957 564.00
36.9609 603.00
37.0261 615.00
37.0913 610.00
37.1565 627.00
37.2217 592.00
37.2869 650.00
37.3521 717.00
37.4173 820.00
37.4825 1018.00
37.5477 1588.00
37.6129 2067.00
37.6781 1782.00
37.7433 1226.00
37.8085 887.00
37.8736 706.00
37.9388 766.00
38.004 901.00
38.0692 960.00
38.1344 860.00
38.1996 824.00
38.2648 683.00
38.33 645.00
38.3952 632.00
38.4604 591.00
38.5256 589.00
38.5908 624.00
38.656 613.00
38.7212 710.00
38.7864 729.00
38.8516 885.00
38.9168 960.00
38.982 1099.00
39.0472 1514.00
39.1124 2468.00
39.1776 4058.00
39.2428 5555.00
39.308 5427.00
39.3732 3924.00
39.4384 2327.00
39.5036 1391.00
39.5688 941.00
39.634 744.00
39.6992 632.00
39.7644 603.00
39.8296 606.00
39.8948 563.00
39.96 546.00
40.0252 599.00
40.0904 543.00
40.1556 539.00
40.2208 613.00
40.286 572.00
40.3512 570.00
40.4164 494.00
40.4816 498.00
40.5468 508.00
40.612 500.00
40.6772 504.00
40.7424 496.00
40.8076 480.00
40.8728 472.00
40.938 479.00
41.0032 487.00
41.0684 481.00
41.1336 478.00
41.1988 475.00
41.264 428.00
41.3292 504.00
41.3944 507.00
41.4596 488.00
41.5248 502.00
41.59 471.00
41.6552 509.00
41.7204 548.00
41.7856 481.00
41.8508 536.00
41.916 533.00
41.9812 568.00
42.0464 566.00
42.1116 737.00
42.1768 797.00
42.242 830.00
42.3072 734.00
42.3724 644.00
42.4376 592.00
42.5028 589.00
42.568 724.00
42.6332 924.00
42.6983 1195.00
42.7635 1284.00
42.8287 1158.00
42.8939 977.00
42.9591 663.00
43.0243 561.00
43.0895 526.00
43.1547 488.00
43.2199 453.00
43.2851 425.00
43.3503 465.00
43.4155 423.00
43.4807 433.00
43.5459 444.00
43.6111 443.00
43.6763 494.00
43.7415 452.00
43.8067 502.00
43.8719 431.00
43.9371 486.00
44.0023 462.00
44.0675 492.00
44.1327 498.00
44.1979 518.00
44.2631 505.00
44.3283 465.00
44.3935 406.00
44.4587 403.00
44.5239 463.00
44.5891 458.00
44.6543 404.00
44.7195 416.00
44.7847 428.00
44.8499 421.00
44.9151 453.00
44.9803 429.00
45.0455 395.00
45.1107 451.00
45.1759 412.00
45.2411 449.00
45.3063 405.00
45.3715 414.00
45.4367 433.00
45.5019 458.00
45.5671 462.00
45.6323 446.00
45.6975 515.00
45.7627 551.00
45.8279 675.00
45.8931 854.00
45.9583 975.00
46.0235 1178.00
46.0887 988.00
46.1539 896.00
46.2191 644.00
46.2843 534.00
46.3495 431.00
46.4147 466.00
46.4799 393.00
46.5451 414.00
46.6103 415.00
46.6755 437.00
46.7407 403.00
46.8059 441.00
46.8711 471.00
46.9363 437.00
47.0015 409.00
47.0667 391.00
47.1319 373.00
47.1971 401.00
47.2623 400.00
47.3275 458.00
47.3927 377.00
47.4579 427.00
47.523 382.00
47.5882 420.00
47.6534 382.00
47.7186 395.00
47.7838 394.00
47.849 370.00
47.9142 374.00
47.9794 404.00
48.0446 408.00
48.1098 445.00
48.175 469.00
48.2402 487.00
48.3054 605.00
48.3706 862.00
48.4358 1226.00
48.501 1182.00
48.5662 964.00
48.6314 757.00
48.6966 544.00
48.7618 469.00
48.827 431.00
48.8922 401.00
48.9574 414.00
49.0226 376.00
49.0878 358.00
49.153 410.00
49.2182 399.00
49.2834 404.00
49.3486 401.00
49.4138 453.00
49.479 485.00
49.5442 518.00
49.6094 623.00
49.6746 665.00
49.7398 656.00
49.805 707.00
49.8702 737.00
49.9354 666.00
50.0006 587.00
50.0658 482.00
50.131 517.00
50.1962 478.00
50.2614 499.00
50.3266 537.00
50.3918 523.00
50.457 440.00
50.5222 536.00
50.5874 479.00
50.6526 457.00
50.7178 540.00
50.783 581.00
50.8482 637.00
50.9134 798.00
50.9786 1072.00
51.0438 1233.00
51.109 1435.00
51.1742 1511.00
51.2394 1924.00
51.3046 2546.00
51.3698 2929.00
51.435 2473.00
51.5002 2064.00
51.5654 1353.00
51.6306 864.00
51.6958 695.00
51.761 576.00
51.8262 553.00
51.8914 493.00
51.9566 482.00
52.0218 473.00
52.087 523.00
52.1522 494.00
52.2174 596.00
52.2826 792.00
52.3477 1173.00
52.4129 1479.00
52.4781 1252.00
52.5433 1007.00
52.6085 720.00
52.6737 562.00
52.7389 460.00
52.8041 440.00
52.8693 422.00
52.9345 481.00
52.9997 508.00
53.0649 526.00
53.1301 485.00
53.1953 495.00
53.2605 408.00
53.3257 402.00
53.3909 356.00
53.4561 368.00
53.5213 374.00
53.5865 360.00
53.6517 367.00
53.7169 380.00
53.7821 355.00
53.8473 392.00
53.9125 346.00
53.9777 385.00
54.0429 356.00
54.1081 387.00
54.1733 368.00
54.2385 350.00
54.3037 402.00
54.3689 357.00
54.4341 387.00
54.4993 385.00
54.5645 371.00
54.6297 388.00
54.6949 446.00
54.7601 411.00
54.8253 397.00
54.8905 390.00
54.9557 398.00
55.0209 428.00
55.0861 397.00
55.1513 378.00
55.2165 426.00
55.2817 445.00
55.3469 442.00
55.4121 425.00
55.4773 539.00
55.5425 614.00
55.6077 758.00
55.6729 982.00
55.7381 1371.00
55.8033 1578.00
55.8685 1525.00
55.9337 1398.00
55.9989 1126.00
56.0641 833.00
56.1293 673.00
56.1945 626.00
56.2597 683.00
56.3249 698.00
56.3901 639.00
56.4553 548.00
56.5205 550.00
56.5857 450.00
56.6509 430.00
56.7161 433.00
56.7813 480.00
56.8465 478.00
56.9117 523.00
56.9769 585.00
57.042 795.00
57.1073 1159.00
57.1724 1597.00
57.2376 1717.00
57.3028 1443.00
57.368 1258.00
57.4332 868.00
57.4984 633.00
57.5636 473.00
57.6288 406.00
57.694 387.00
57.7592 389.00
57.8244 431.00
57.8896 474.00
57.9548 412.00
58.02 416.00
58.0852 411.00
58.1504 362.00
58.2156 351.00
58.2808 352.00
58.346 310.00
58.4112 357.00
58.4764 348.00
58.5416 371.00
58.6068 348.00
58.672 345.00
58.7372 330.00
58.8024 364.00
58.8676 344.00
58.9328 367.00
58.998 334.00
59.0632 356.00
59.1284 376.00
59.1936 346.00
59.2588 414.00
59.324 489.00
59.3892 558.00
59.4544 651.00
59.5196 627.00
59.5848 668.00
59.65 689.00
59.7152 709.00
59.7804 886.00
59.8456 1156.00
59.9108 1177.00
59.976 957.00
60.0412 905.00
60.1064 786.00
60.1716 562.00
60.2368 455.00
60.302 475.00
60.3672 455.00
60.4324 535.00
60.4976 520.00
60.5628 613.00
60.628 631.00
60.6932 604.00
60.7584 738.00
60.8236 879.00
60.8888 1305.00
60.954 1850.00
61.0192 1827.00
61.0844 1603.00
61.1496 1424.00
61.2148 1091.00
61.28 748.00
61.3452 591.00
61.4104 510.00
61.4756 361.00
61.5408 358.00
61.606 351.00
61.6712 347.00
61.7364 380.00
61.8016 323.00
61.8667 327.00
61.932 324.00
61.9971 346.00
62.0623 331.00
62.1275 342.00
62.1927 385.00
62.2579 376.00
62.3231 467.00
62.3883 499.00
62.4535 636.00
62.5187 651.00
62.5839 620.00
62.6491 506.00
62.7143 480.00
62.7795 452.00
62.8447 336.00
62.9099 342.00
62.9751 316.00
63.0403 291.00
63.1055 310.00
63.1707 343.00
63.2359 327.00
63.3011 318.00
63.3663 311.00
63.4315 336.00
63.4967 314.00
63.5619 368.00
63.6271 331.00
63.6923 353.00
63.7575 386.00
63.8227 408.00
63.8879 575.00
63.9531 654.00
64.0183 647.00
64.0835 586.00
64.1487 587.00
64.2139 490.00
64.2791 472.00
64.3443 481.00
64.4095 519.00
64.4747 691.00
64.5399 640.00
64.6051 560.00
64.6703 497.00
64.7355 496.00
64.8007 343.00
64.8659 340.00
64.9311 337.00
64.9963 303.00
65.0615 313.00
65.1267 313.00
65.1919 344.00
65.2571 350.00
65.3223 384.00
65.3875 439.00
65.4527 466.00
65.5179 457.00
65.5831 442.00
65.6483 446.00
65.7135 490.00
65.7787 540.00
65.8439 719.00
65.9091 949.00
65.9743 1194.00
66.0395 1328.00
66.1047 1369.00
66.1699 1208.00
66.2351 1132.00
66.3003 967.00
66.3655 723.00
66.4307 630.00
66.4959 581.00
66.561 423.00
66.6263 418.00
66.6915 320.00
66.7566 384.00
66.8218 442.00
66.887 474.00
66.9522 493.00
67.0174 454.00
67.0826 499.00
67.1478 547.00
67.213 632.00
67.2782 798.00
67.3434 877.00
67.4086 1011.00
67.4738 1094.00
67.539 1117.00
67.6042 912.00
67.6694 826.00
67.7346 671.00
67.7998 568.00
67.865 509.00
67.9302 511.00
67.9954 570.00
68.0606 620.00
68.1258 705.00
68.191 724.00
68.2562 728.00
68.3214 696.00
68.3866 651.00
68.4518 554.00
68.517 547.00
68.5822 522.00
68.6474 420.00
68.7126 482.00
68.7778 436.00
68.843 475.00
68.9082 513.00
68.9734 430.00
69.0386 399.00
69.1038 399.00
69.169 360.00
69.2342 353.00
69.2994 315.00
69.3646 313.00
69.4298 314.00
69.495 288.00
69.5602 337.00
69.6254 333.00
69.6906 391.00
69.7558 391.00
69.821 376.00
69.8862 349.00
69.9514 332.00
70.0166 340.00
70.0818 319.00
70.147 335.00
70.2122 246.00
70.2774 273.00
70.3426 329.00
70.4078 308.00
70.473 269.00
70.5382 279.00
70.6034 314.00
70.6686 331.00
70.7338 297.00
70.799 333.00
70.8642 308.00
70.9294 339.00
70.9946 371.00
71.0598 424.00
71.125 409.00
71.1902 521.00
71.2554 663.00
71.3205 796.00
71.3858 812.00
71.451 713.00
71.5162 666.00
71.5813 658.00
71.6465 583.00
71.7117 476.00
71.7769 492.00
71.8421 547.00
71.9073 623.00
71.9725 555.00
72.0377 481.00
72.1029 512.00
72.1681 476.00
72.2333 378.00
72.2985 315.00
72.3637 322.00
72.4289 288.00
72.4941 303.00
72.5593 300.00
72.6245 306.00
72.6897 263.00
72.7549 277.00
72.8201 320.00
72.8853 274.00
72.9505 285.00
73.0157 321.00
73.0809 322.00
73.1461 286.00
73.2113 313.00
73.2765 300.00
73.3417 295.00
73.4069 282.00
73.4721 334.00
73.5373 319.00
73.6025 383.00
73.6677 394.00
73.7329 483.00
73.7981 478.00
73.8633 495.00
73.9285 539.00
73.9937 527.00
74.0589 475.00
74.1241 454.00
74.1893 414.00
74.2545 354.00
74.3197 317.00
74.3849 310.00
74.4501 275.00
74.5153 292.00
74.5805 275.00
74.6457 277.00
74.7109 283.00
74.7761 299.00
74.8413 285.00
74.9065 300.00
74.9717 307.00
75.0369 338.00
75.1021 354.00
75.1673 392.00
75.2325 439.00
75.2977 496.00
75.3629 443.00
75.4281 470.00
75.4933 409.00
75.5585 391.00
75.6237 388.00
75.6889 325.00
75.7541 273.00
75.8193 272.00
75.8845 305.00
75.9497 315.00
76.0149 299.00
76.0801 313.00
76.1452 319.00
76.2104 315.00
76.2756 359.00
76.3409 387.00
76.406 381.00
76.4712 366.00
76.5364 413.00
76.6016 416.00
76.6668 459.00
76.732 533.00
76.7972 394.00
76.8624 444.00
76.9276 405.00
76.9928 384.00
77.058 334.00
77.1232 298.00
77.1884 280.00
77.2536 312.00
77.3188 300.00
77.384 256.00
77.4492 290.00
77.5144 270.00
77.5796 281.00
77.6448 274.00
77.71 306.00
77.7752 261.00
77.8404 298.00
77.9056 321.00
77.9708 349.00
78.036 372.00
78.1012 392.00
78.1664 365.00
78.2316 386.00
78.2968 348.00
78.362 314.00
78.4272 288.00
78.4924 306.00
78.5576 285.00
78.6228 303.00
78.688 274.00
78.7532 284.00
78.8184 297.00
78.8836 315.00
78.9488 320.00
79.014 322.00
79.0792 358.00
79.1444 416.00
79.2096 411.00
79.2748 486.00
79.34 568.00
79.4052 565.00
79.4704 565.00
79.5356 561.00
79.6008 499.00
79.666 520.00
79.7312 488.00
79.7964 484.00
79.8616 466.00
79.9268 445.00
79.992 461.00
80.0572 434.00
80.1224 447.00
80.1876 380.00
80.2528 355.00
80.318 340.00
80.3832 356.00
80.4484 320.00
80.5136 296.00
80.5788 320.00
80.644 354.00
80.7092 349.00
80.7744 356.00
80.8396 361.00
80.9048 353.00
80.9699 308.00
81.0351 343.00
81.1003 343.00
81.1655 310.00
81.2307 314.00
81.2959 319.00
81.3611 326.00
81.4263 300.00
81.4915 295.00
81.5567 312.00
81.6219 326.00
81.6871 319.00
81.7523 302.00
81.8175 327.00
81.8827 337.00
81.9479 352.00
82.0131 429.00
82.0783 428.00
82.1435 450.00
82.2087 419.00
82.2739 406.00
82.3391 366.00
82.4043 357.00
82.4695 336.00
82.5347 332.00
82.5999 370.00
82.6651 308.00
82.7303 294.00
82.7955 309.00
82.8607 282.00
82.9259 307.00
82.9911 339.00
83.0563 327.00
83.1215 371.00
83.1867 341.00
83.2519 397.00
83.3171 479.00
83.3823 540.00
83.4475 678.00
83.5127 606.00
83.5779 603.00
83.6431 654.00
83.7083 649.00
83.7735 614.00
83.8387 610.00
83.9039 571.00
83.9691 533.00
84.0343 475.00
84.0995 433.00
84.1647 443.00
84.2299 394.00
84.2951 391.00
84.3603 439.00
84.4255 404.00
84.4907 397.00
84.5559 368.00
84.6211 367.00
84.6863 356.00
84.7515 316.00
84.8167 319.00
84.8819 310.00
84.9471 262.00
85.0123 300.00
85.0775 240.00
85.1427 288.00
85.2079 293.00
85.2731 287.00
85.3383 301.00
85.4035 273.00
85.4687 300.00
85.5339 242.00
85.5991 288.00
85.6643 283.00
85.7295 325.00
85.7946 292.00
85.8598 346.00
85.925 345.00
85.9903 382.00
86.0554 460.00
86.1206 503.00
86.1858 499.00
86.251 425.00
86.3162 435.00
86.3814 415.00
86.4466 359.00
86.5118 320.00
86.577 301.00
86.6422 307.00
86.7074 290.00
86.7726 265.00
86.8378 288.00
86.903 305.00
86.9682 348.00
87.0334 361.00
87.0986 368.00
87.1638 367.00
87.229 441.00
87.2942 528.00
87.3594 638.00
87.4246 682.00
87.4898 531.00
87.555 475.00
87.6202 438.00
87.6854 490.00
87.7506 369.00
87.8158 325.00
87.881 336.00
87.9462 297.00
88.0114 303.00
88.0766 297.00
88.1418 294.00
88.207 272.00
88.2722 301.00
88.3374 281.00
88.4026 301.00
88.4678 294.00
88.533 351.00
88.5982 345.00
88.6634 407.00
88.7286 428.00
88.7938 358.00
88.859 369.00
88.9242 356.00
88.9894 347.00
89.0546 345.00
89.1198 284.00
89.185 305.00
89.2502 272.00
89.3154 308.00
89.3806 294.00
89.4458 293.00
89.511 313.00
89.5762 318.00
89.6414 311.00
89.7066 333.00
89.7718 310.00
89.837 365.00
89.9022 352.00
89.9674 355.00
90.0326 382.00
90.0978 390.00
90.163 368.00
90.2282 376.00
90.2934 355.00
90.3586 334.00
90.4238 315.00
90.489 293.00
90.5542 261.00
90.6193 271.00
90.6845 283.00
90.7497 292.00
90.8149 327.00
90.8801 347.00
90.9453 323.00
91.0105 338.00
91.0757 426.00
91.1409 391.00
91.2061 437.00
91.2713 419.00
91.3365 398.00
91.4017 366.00
91.4669 359.00
91.5321 323.00
91.5973 309.00
91.6625 293.00
91.7277 275.00
91.7929 295.00
91.8581 281.00
91.9233 257.00
91.9885 259.00
92.0537 263.00
92.1189 256.00
92.1841 274.00
92.2493 261.00
92.3145 235.00
92.3797 285.00
92.4449 344.00
92.5101 300.00
92.5753 368.00
92.6405 386.00
92.7057 396.00
92.7709 468.00
92.8361 399.00
92.9013 418.00
92.9665 433.00
93.0317 443.00
93.0969 361.00
93.1621 384.00
93.2273 364.00
93.2925 305.00
93.3577 301.00
93.4229 285.00
93.4881 294.00
93.5533 301.00
93.6185 334.00
93.6837 342.00
93.7489 384.00
93.8141 450.00
93.8793 447.00
93.9445 422.00
94.0097 410.00
94.0749 384.00
94.1401 408.00
94.2053 377.00
94.2705 328.00
94.3357 350.00
94.4009 399.00
94.4661 419.00
94.5313 473.00
94.5965 461.00
94.6617 505.00
94.7269 406.00
94.7921 421.00
94.8573 468.00
94.9225 462.00
94.9877 453.00
95.0529 465.00
95.1181 497.00
95.1833 564.00
95.2485 533.00
95.3137 636.00
95.3789 660.00
95.444 609.00
95.5092 520.00
95.5744 561.00
95.6396 458.00
95.7048 476.00
95.77 406.00
95.8352 344.00
95.9004 371.00
95.9656 325.00
96.0308 395.00
96.096 349.00
96.1612 361.00
96.2264 340.00
96.2916 339.00
96.3568 322.00
96.422 368.00
96.4872 358.00
96.5524 383.00
96.6176 363.00
96.6828 442.00
96.748 420.00
96.8132 460.00
96.8784 452.00
96.9436 438.00
97.0088 417.00
97.074 390.00
97.1392 388.00
97.2044 383.00
97.2696 391.00
97.3348 377.00
97.4 441.00
97.4652 484.00
97.5304 514.00
97.5956 576.00
97.6608 604.00
97.726 569.00
97.7912 584.00
97.8564 536.00
97.9216 539.00
97.9868 614.00
98.052 575.00
98.1172 547.00
98.1824 497.00
98.2476 475.00
98.3128 484.00
98.378 417.00
98.4432 372.00
98.5084 367.00
98.5736 337.00
98.6388 313.00
98.704 288.00
98.7692 315.00
98.8344 293.00
98.8996 280.00
98.9648 301.00
99.03 315.00
99.0952 301.00
99.1604 332.00
99.2256 330.00
99.2908 363.00
99.356 385.00
99.4212 344.00
99.4864 367.00
99.5516 344.00
99.6168 340.00
99.682 326.00
99.7472 351.00
99.8124 353.00
99.8776 398.00
99.9428 374.00
100.008 352.00
100.073 339.00
100.095 351.00