File: data/xrd_creation/results/NSC_12.xy
9.903433 3003.00
9.968632 2925.00
10.0338 2954.00
10.099 2842.00
10.1642 2906.00
10.2294 2872.00
10.2946 2880.00
10.3598 2810.00
10.425 2787.00
10.4902 2729.00
10.5554 2687.00
10.6206 2721.00
10.6858 2576.00
10.751 2670.00
10.8162 2646.00
10.8814 2722.00
10.9466 2617.00
11.0118 2654.00
11.077 2609.00
11.1422 2687.00
11.2074 2605.00
11.2726 2575.00
11.3378 2512.00
11.403 2620.00
11.4682 2547.00
11.5334 2486.00
11.5986 2462.00
11.6638 2495.00
11.729 2410.00
11.7942 2410.00
11.8594 2486.00
11.9246 2428.00
11.9898 2366.00
12.055 2493.00
12.1202 2342.00
12.1854 2452.00
12.2506 2383.00
12.3158 2302.00
12.381 2290.00
12.4462 2359.00
12.5114 2316.00
12.5766 2238.00
12.6418 2279.00
12.707 2194.00
12.7722 2293.00
12.8374 2163.00
12.9026 2189.00
12.9678 2278.00
13.033 2233.00
13.0982 2231.00
13.1634 2209.00
13.2286 2222.00
13.2938 2137.00
13.359 2193.00
13.4242 2140.00
13.4894 2221.00
13.5546 2183.00
13.6198 2256.00
13.685 2177.00
13.7502 2167.00
13.8154 2319.00
13.8805 2355.00
13.9457 2440.00
14.0109 2553.00
14.0761 2706.00
14.1413 2900.00
14.2065 3164.00
14.2717 3885.00
14.3369 4201.00
14.4021 3584.00
14.4673 2678.00
14.5325 2335.00
14.5977 2231.00
14.6629 2076.00
14.7281 2212.00
14.7933 2134.00
14.8585 2215.00
14.9237 2101.00
14.9889 2089.00
15.0541 2217.00
15.1193 2243.00
15.1845 2293.00
15.2497 2297.00
15.3149 2127.00
15.3801 2141.00
15.4453 2019.00
15.5105 2021.00
15.5757 2028.00
15.6409 2048.00
15.7061 2024.00
15.7713 2058.00
15.8365 2033.00
15.9017 2106.00
15.9669 2017.00
16.0321 2015.00
16.0973 1979.00
16.1625 2045.00
16.2277 1915.00
16.2929 1982.00
16.3581 2030.00
16.4233 2037.00
16.4885 2094.00
16.5537 1945.00
16.6189 1989.00
16.6841 1914.00
16.7493 2003.00
16.8145 2005.00
16.8797 1913.00
16.9449 1932.00
17.0101 1976.00
17.0753 1979.00
17.1405 1931.00
17.2057 1950.00
17.2709 1928.00
17.3361 1847.00
17.4013 1920.00
17.4665 1999.00
17.5317 2006.00
17.5969 1987.00
17.6621 1947.00
17.7273 1965.00
17.7925 1924.00
17.8577 1958.00
17.9229 1961.00
17.9881 1926.00
18.0533 1878.00
18.1185 1959.00
18.1837 1953.00
18.2489 1901.00
18.3141 1916.00
18.3793 1867.00
18.4445 1957.00
18.5097 1946.00
18.5749 1857.00
18.6401 1962.00
18.7052 1926.00
18.7704 2122.00
18.8356 2420.00
18.9008 2338.00
18.966 2325.00
19.0312 2061.00
19.0964 2014.00
19.1616 2029.00
19.2268 2110.00
19.292 2176.00
19.3572 2322.00
19.4224 2565.00
19.4876 2880.00
19.5528 3344.00
19.618 4191.00
19.6832 5631.00
19.7484 7535.00
19.8136 8647.00
19.8788 7166.00
19.944 4712.00
20.0092 3295.00
20.0744 2839.00
20.1396 2821.00
20.2048 2980.00
20.27 3486.00
20.3352 4247.00
20.4004 5725.00
20.4656 7980.00
20.5308 9816.00
20.596 9601.00
20.6612 6953.00
20.7264 4424.00
20.7916 3218.00
20.8568 2758.00
20.922 2601.00
20.9872 2401.00
21.0524 2245.00
21.1176 1966.00
21.1828 1901.00
21.248 1957.00
21.3132 1934.00
21.3784 2055.00
21.4436 2100.00
21.5088 2135.00
21.574 2236.00
21.6392 2389.00
21.7044 2992.00
21.7696 3633.00
21.8348 4154.00
21.9 3586.00
21.9652 2581.00
22.0304 2326.00
22.0956 2183.00
22.1608 2021.00
22.226 1953.00
22.2912 1871.00
22.3564 1766.00
22.4216 1840.00
22.4868 1840.00
22.552 1823.00
22.6172 1721.00
22.6824 1727.00
22.7476 1798.00
22.8128 1753.00
22.878 1792.00
22.9432 1865.00
23.0084 1874.00
23.0736 1949.00
23.1388 2021.00
23.204 2047.00
23.2692 2206.00
23.3344 2370.00
23.3996 2638.00
23.4647 3167.00
23.5299 4275.00
23.5951 5982.00
23.6603 8503.00
23.7255 10345.00
23.7907 9689.00
23.8559 6914.00
23.9211 4485.00
23.9863 3019.00
24.0515 2393.00
24.1167 2199.00
24.1819 2119.00
24.2471 2307.00
24.3123 2500.00
24.3775 2663.00
24.4427 2582.00
24.5079 2026.00
24.5731 1907.00
24.6383 1919.00
24.7035 1865.00
24.7687 1800.00
24.8339 1960.00
24.8991 1804.00
24.9643 1843.00
25.0295 1888.00
25.0947 1956.00
25.1599 2113.00
25.2251 2186.00
25.2903 2280.00
25.3555 2231.00
25.4207 1970.00
25.4859 1777.00
25.5511 1773.00
25.6163 1615.00
25.6815 1711.00
25.7467 1680.00
25.8119 1702.00
25.8771 1622.00
25.9423 1656.00
26.0075 1586.00
26.0727 1580.00
26.1379 1621.00
26.2031 1606.00
26.2683 1641.00
26.3335 1668.00
26.3987 1691.00
26.4639 1695.00
26.5291 1725.00
26.5943 1796.00
26.6595 1995.00
26.7247 2162.00
26.7899 2193.00
26.8551 1843.00
26.9203 1611.00
26.9855 1606.00
27.0507 1565.00
27.1159 1534.00
27.1811 1596.00
27.2463 1576.00
27.3115 1467.00
27.3767 1537.00
27.4419 1594.00
27.5071 1522.00
27.5723 1596.00
27.6375 1534.00
27.7027 1605.00
27.7679 1628.00
27.8331 1625.00
27.8983 1626.00
27.9635 1685.00
28.0287 1698.00
28.0939 1876.00
28.1591 2157.00
28.2243 2341.00
28.2894 2897.00
28.3546 3851.00
28.4198 4893.00
28.485 6485.00
28.5502 7096.00
28.6154 6527.00
28.6806 4935.00
28.7458 3520.00
28.811 2538.00
28.8762 2092.00
28.9414 1929.00
29.0066 1743.00
29.0718 1616.00
29.137 1583.00
29.2022 1587.00
29.2674 1576.00
29.3326 1577.00
29.3978 1572.00
29.463 1457.00
29.5282 1599.00
29.5934 1554.00
29.6586 1554.00
29.7238 1559.00
29.789 1450.00
29.8542 1473.00
29.9194 1594.00
29.9846 1565.00
30.0498 1544.00
30.115 1595.00
30.1802 1649.00
30.2454 1716.00
30.3106 1842.00
30.3758 1806.00
30.441 1898.00
30.5062 1923.00
30.5714 1834.00
30.6366 1717.00
30.7018 1690.00
30.767 1781.00
30.8322 2052.00
30.8974 2312.00
30.9626 2363.00
31.0278 2251.00
31.093 2092.00
31.1582 2393.00
31.2234 2890.00
31.2886 3984.00
31.3538 5506.00
31.419 7840.00
31.4842 9401.00
31.5494 9488.00
31.6146 8245.00
31.6798 6567.00
31.745 5197.00
31.8102 3901.00
31.8754 2943.00
31.9406 2394.00
32.0058 1997.00
32.071 1834.00
32.1362 1637.00
32.2014 1633.00
32.2666 1553.00
32.3318 1540.00
32.397 1497.00
32.4622 1479.00
32.5274 1528.00
32.5926 1479.00
32.6578 1499.00
32.723 1501.00
32.7882 1485.00
32.8534 1514.00
32.9186 1528.00
32.9838 1487.00
33.0489 1510.00
33.1141 1554.00
33.1793 1685.00
33.2445 1764.00
33.3097 1919.00
33.3749 1864.00
33.4401 1853.00
33.5053 1861.00
33.5705 1603.00
33.6357 1495.00
33.7009 1510.00
33.7661 1529.00
33.8313 1674.00
33.8965 1726.00
33.9617 1715.00
34.0269 1797.00
34.0921 1819.00
34.1573 1694.00
34.2225 1659.00
34.2877 1711.00
34.3529 1736.00
34.4181 1695.00
34.4833 1589.00
34.5485 1605.00
34.6137 1607.00
34.6789 1589.00
34.7441 1648.00
34.8093 1603.00
34.8745 1614.00
34.9397 1667.00
35.0049 1662.00
35.0701 1894.00
35.1353 2241.00
35.2005 2721.00
35.2657 3074.00
35.3309 3412.00
35.3961 3308.00
35.4613 3141.00
35.5265 3209.00
35.5917 3533.00
35.6569 4195.00
35.7221 4425.00
35.7873 4412.00
35.8525 4074.00
35.9177 3499.00
35.9829 2895.00
36.0481 2325.00
36.1133 2005.00
36.1785 1860.00
36.2437 1805.00
36.3089 2140.00
36.3741 2243.00
36.4393 2135.00
36.5045 1795.00
36.5697 1530.00
36.6349 1445.00
36.7001 1390.00
36.7653 1352.00
36.8305 1325.00
36.8957 1393.00
36.9609 1317.00
37.0261 1331.00
37.0913 1286.00
37.1565 1325.00
37.2217 1305.00
37.2869 1298.00
37.3521 1313.00
37.4173 1384.00
37.4825 1337.00
37.5477 1444.00
37.6129 1401.00
37.6781 1278.00
37.7433 1338.00
37.8085 1418.00
37.8736 1412.00
37.9388 1424.00
38.004 1492.00
38.0692 1440.00
38.1344 1432.00
38.1996 1399.00
38.2648 1456.00
38.33 1444.00
38.3952 1451.00
38.4604 1433.00
38.5256 1362.00
38.5908 1271.00
38.656 1333.00
38.7212 1349.00
38.7864 1328.00
38.8516 1415.00
38.9168 1388.00
38.982 1294.00
39.0472 1268.00
39.1124 1327.00
39.1776 1372.00
39.2428 1274.00
39.308 1312.00
39.3732 1333.00
39.4384 1304.00
39.5036 1369.00
39.5688 1395.00
39.634 1448.00
39.6992 1568.00
39.7644 1608.00
39.8296 1764.00
39.8948 1715.00
39.96 1811.00
40.0252 1738.00
40.0904 1593.00
40.1556 1456.00
40.2208 1458.00
40.286 1394.00
40.3512 1344.00
40.4164 1294.00
40.4816 1325.00
40.5468 1305.00
40.612 1317.00
40.6772 1321.00
40.7424 1354.00
40.8076 1387.00
40.8728 1436.00
40.938 1451.00
41.0032 1524.00
41.0684 1426.00
41.1336 1438.00
41.1988 1549.00
41.264 1595.00
41.3292 1680.00
41.3944 1759.00
41.4596 1889.00
41.5248 1982.00
41.59 2035.00
41.6552 1934.00
41.7204 1909.00
41.7856 1701.00
41.8508 1629.00
41.916 1549.00
41.9812 1519.00
42.0464 1446.00
42.1116 1432.00
42.1768 1465.00
42.242 1441.00
42.3072 1472.00
42.3724 1465.00
42.4376 1449.00
42.5028 1378.00
42.568 1355.00
42.6332 1334.00
42.6983 1229.00
42.7635 1330.00
42.8287 1347.00
42.8939 1349.00
42.9591 1420.00
43.0243 1546.00
43.0895 1814.00
43.1547 1909.00
43.2199 2118.00
43.2851 2200.00
43.3503 2175.00
43.4155 1955.00
43.4807 1738.00
43.5459 1642.00
43.6111 1473.00
43.6763 1476.00
43.7415 1456.00
43.8067 1418.00
43.8719 1449.00
43.9371 1498.00
44.0023 1430.00
44.0675 1500.00
44.1327 1496.00
44.1979 1494.00
44.2631 1459.00
44.3283 1433.00
44.3935 1344.00
44.4587 1344.00
44.5239 1369.00
44.5891 1352.00
44.6543 1325.00
44.7195 1351.00
44.7847 1535.00
44.8499 1572.00
44.9151 1745.00
44.9803 2162.00
45.0455 2445.00
45.1107 2787.00
45.1759 2909.00
45.2411 2762.00
45.3063 2597.00
45.3715 2271.00
45.4367 2053.00
45.5019 1805.00
45.5671 1674.00
45.6323 1592.00
45.6975 1519.00
45.7627 1438.00
45.8279 1434.00
45.8931 1474.00
45.9583 1548.00
46.0235 1709.00
46.0887 1809.00
46.1539 1961.00
46.2191 2157.00
46.2843 2086.00
46.3495 2041.00
46.4147 1999.00
46.4799 1855.00
46.5451 1682.00
46.6103 1675.00
46.6755 1737.00
46.7407 1708.00
46.8059 1844.00
46.8711 1859.00
46.9363 1898.00
47.0015 1775.00
47.0667 1638.00
47.1319 1485.00
47.1971 1414.00
47.2623 1358.00
47.3275 1340.00
47.3927 1294.00
47.4579 1295.00
47.523 1312.00
47.5882 1342.00
47.6534 1351.00
47.7186 1364.00
47.7838 1576.00
47.849 1586.00
47.9142 1810.00
47.9794 2120.00
48.0446 2591.00
48.1098 3004.00
48.175 3378.00
48.2402 3627.00
48.3054 3570.00
48.3706 3327.00
48.4358 2899.00
48.501 2609.00
48.5662 2059.00
48.6314 1977.00
48.6966 1847.00
48.7618 1690.00
48.827 1650.00
48.8922 1674.00
48.9574 1651.00
49.0226 1563.00
49.0878 1551.00
49.153 1440.00
49.2182 1430.00
49.2834 1496.00
49.3486 1468.00
49.4138 1499.00
49.479 1706.00
49.5442 1856.00
49.6094 1904.00
49.6746 1891.00
49.7398 1766.00
49.805 1589.00
49.8702 1532.00
49.9354 1417.00
50.0006 1350.00
50.0658 1307.00
50.131 1346.00
50.1962 1291.00
50.2614 1413.00
50.3266 1541.00
50.3918 1569.00
50.457 1511.00
50.5222 1406.00
50.5874 1434.00
50.6526 1368.00
50.7178 1370.00
50.783 1448.00
50.8482 1491.00
50.9134 1588.00
50.9786 1523.00
51.0438 1487.00
51.109 1506.00
51.1742 1555.00
51.2394 1703.00
51.3046 2013.00
51.3698 2241.00
51.435 2586.00
51.5002 2815.00
51.5654 3022.00
51.6306 2969.00
51.6958 2846.00
51.761 2450.00
51.8262 2289.00
51.8914 2074.00
51.9566 1775.00
52.0218 1778.00
52.087 1624.00
52.1522 1593.00
52.2174 1519.00
52.2826 1512.00
52.3477 1335.00
52.4129 1370.00
52.4781 1287.00
52.5433 1202.00
52.6085 1365.00
52.6737 1349.00
52.7389 1227.00
52.8041 1276.00
52.8693 1302.00
52.9345 1241.00
52.9997 1288.00
53.0649 1262.00
53.1301 1247.00
53.1953 1236.00
53.2605 1210.00
53.3257 1153.00
53.3909 1176.00
53.4561 1200.00
53.5213 1258.00
53.5865 1203.00
53.6517 1218.00
53.7169 1215.00
53.7821 1263.00
53.8473 1224.00
53.9125 1313.00
53.9777 1298.00
54.0429 1344.00
54.1081 1448.00
54.1733 1484.00
54.2385 1608.00
54.3037 1659.00
54.3689 1826.00
54.4341 1856.00
54.4993 1865.00
54.5645 1970.00
54.6297 1995.00
54.6949 2121.00
54.7601 1999.00
54.8253 1935.00
54.8905 1809.00
54.9557 1575.00
55.0209 1665.00
55.0861 1637.00
55.1513 1731.00
55.2165 1887.00
55.2817 2077.00
55.3469 2273.00
55.4121 2651.00
55.4773 2971.00
55.5425 3042.00
55.6077 3279.00
55.6729 3283.00
55.7381 3323.00
55.8033 3096.00
55.8685 3017.00
55.9337 2615.00
55.9989 2343.00
56.0641 2093.00
56.1293 2005.00
56.1945 1794.00
56.2597 1644.00
56.3249 1518.00
56.3901 1455.00
56.4553 1428.00
56.5205 1268.00
56.5857 1323.00
56.6509 1335.00
56.7161 1285.00
56.7813 1333.00
56.8465 1390.00
56.9117 1406.00
56.9769 1345.00
57.042 1465.00
57.1073 1479.00
57.1724 1416.00
57.2376 1524.00
57.3028 1499.00
57.368 1461.00
57.4332 1466.00
57.4984 1397.00
57.5636 1302.00
57.6288 1335.00
57.694 1261.00
57.7592 1279.00
57.8244 1291.00
57.8896 1386.00
57.9548 1323.00
58.02 1386.00
58.0852 1431.00
58.1504 1665.00
58.2156 1788.00
58.2808 1961.00
58.346 2087.00
58.4112 2177.00
58.4764 1966.00
58.5416 1953.00
58.6068 1861.00
58.672 1770.00
58.7372 1586.00
58.8024 1573.00
58.8676 1501.00
58.9328 1576.00
58.998 1429.00
59.0632 1349.00
59.1284 1356.00
59.1936 1294.00
59.2588 1285.00
59.324 1312.00
59.3892 1331.00
59.4544 1359.00
59.5196 1364.00
59.5848 1373.00
59.65 1434.00
59.7152 1422.00
59.7804 1588.00
59.8456 1647.00
59.9108 1742.00
59.976 1852.00
60.0412 2047.00
60.1064 2165.00
60.1716 2159.00
60.2368 2199.00
60.302 2191.00
60.3672 1934.00
60.4324 1886.00
60.4976 1703.00
60.5628 1598.00
60.628 1540.00
60.6932 1506.00
60.7584 1443.00
60.8236 1454.00
60.8888 1496.00
60.954 1527.00
61.0192 1559.00
61.0844 1751.00
61.1496 1961.00
61.2148 2148.00
61.28 2131.00
61.3452 2282.00
61.4104 2216.00
61.4756 2113.00
61.5408 2076.00
61.606 1964.00
61.6712 1815.00
61.7364 1657.00
61.8016 1660.00
61.8667 1536.00
61.932 1489.00
61.9971 1507.00
62.0623 1502.00
62.1275 1435.00
62.1927 1570.00
62.2579 1555.00
62.3231 1671.00
62.3883 1727.00
62.4535 1703.00
62.5187 1793.00
62.5839 1787.00
62.6491 1670.00
62.7143 1663.00
62.7795 1716.00
62.8447 1665.00
62.9099 1638.00
62.9751 1625.00
63.0403 1514.00
63.1055 1475.00
63.1707 1509.00
63.2359 1406.00
63.3011 1440.00
63.3663 1446.00
63.4315 1473.00
63.4967 1649.00
63.5619 1501.00
63.6271 1682.00
63.6923 1783.00
63.7575 1722.00
63.8227 1746.00
63.8879 1930.00
63.9531 1880.00
64.0183 2017.00
64.0835 2004.00
64.1487 1985.00
64.2139 1828.00
64.2791 1855.00
64.3443 1768.00
64.4095 1599.00
64.4747 1467.00
64.5399 1431.00
64.6051 1385.00
64.6703 1334.00
64.7355 1368.00
64.8007 1293.00
64.8659 1303.00
64.9311 1272.00
64.9963 1274.00
65.0615 1348.00
65.1267 1306.00
65.1919 1379.00
65.2571 1409.00
65.3223 1408.00
65.3875 1427.00
65.4527 1383.00
65.5179 1468.00
65.5831 1458.00
65.6483 1462.00
65.7135 1436.00
65.7787 1369.00
65.8439 1438.00
65.9091 1442.00
65.9743 1405.00
66.0395 1482.00
66.1047 1543.00
66.1699 1553.00
66.2351 1680.00
66.3003 1687.00
66.3655 1712.00
66.4307 1752.00
66.4959 1647.00
66.561 1585.00
66.6263 1504.00
66.6915 1468.00
66.7566 1487.00
66.8218 1382.00
66.887 1335.00
66.9522 1250.00
67.0174 1288.00
67.0826 1343.00
67.1478 1355.00
67.213 1311.00
67.2782 1464.00
67.3434 1490.00
67.4086 1490.00
67.4738 1557.00
67.539 1460.00
67.6042 1597.00
67.6694 1536.00
67.7346 1498.00
67.7998 1476.00
67.865 1551.00
67.9302 1595.00
67.9954 1503.00
68.0606 1485.00
68.1258 1584.00
68.191 1433.00
68.2562 1483.00
68.3214 1502.00
68.3866 1474.00
68.4518 1481.00
68.517 1433.00
68.5822 1433.00
68.6474 1340.00
68.7126 1282.00
68.7778 1367.00
68.843 1293.00
68.9082 1367.00
68.9734 1390.00
69.0386 1418.00
69.1038 1514.00
69.169 1413.00
69.2342 1362.00
69.2994 1419.00
69.3646 1419.00
69.4298 1367.00
69.495 1352.00
69.5602 1346.00
69.6254 1353.00
69.6906 1289.00
69.7558 1252.00
69.821 1220.00
69.8862 1237.00
69.9514 1148.00
70.0166 1219.00
70.0818 1174.00
70.147 1186.00
70.2122 1226.00
70.2774 1122.00
70.3426 1162.00
70.4078 1239.00
70.473 1307.00
70.5382 1208.00
70.6034 1205.00
70.6686 1182.00
70.7338 1226.00
70.799 1332.00
70.8642 1292.00
70.9294 1271.00
70.9946 1368.00
71.0598 1450.00
71.125 1485.00
71.1902 1522.00
71.2554 1651.00
71.3205 1544.00
71.3858 1632.00
71.451 1558.00
71.5162 1578.00
71.5813 1486.00
71.6465 1392.00
71.7117 1361.00
71.7769 1355.00
71.8421 1359.00
71.9073 1295.00
71.9725 1218.00
72.0377 1229.00
72.1029 1217.00
72.1681 1222.00
72.2333 1234.00
72.2985 1298.00
72.3637 1182.00
72.4289 1194.00
72.4941 1294.00
72.5593 1205.00
72.6245 1327.00
72.6897 1190.00
72.7549 1245.00
72.8201 1192.00
72.8853 1194.00
72.9505 1231.00
73.0157 1178.00
73.0809 1161.00
73.1461 1185.00
73.2113 1217.00
73.2765 1171.00
73.3417 1175.00
73.4069 1131.00
73.4721 1217.00
73.5373 1206.00
73.6025 1274.00
73.6677 1268.00
73.7329 1337.00
73.7981 1301.00
73.8633 1453.00
73.9285 1415.00
73.9937 1456.00
74.0589 1450.00
74.1241 1437.00
74.1893 1550.00
74.2545 1424.00
74.3197 1404.00
74.3849 1333.00
74.4501 1353.00
74.5153 1274.00
74.5805 1343.00
74.6457 1289.00
74.7109 1296.00
74.7761 1358.00
74.8413 1350.00
74.9065 1359.00
74.9717 1451.00
75.0369 1437.00
75.1021 1447.00
75.1673 1501.00
75.2325 1579.00
75.2977 1607.00
75.3629 1629.00
75.4281 1559.00
75.4933 1647.00
75.5585 1640.00
75.6237 1554.00
75.6889 1650.00
75.7541 1525.00
75.8193 1573.00
75.8845 1475.00
75.9497 1521.00
76.0149 1423.00
76.0801 1342.00
76.1452 1307.00
76.2104 1239.00
76.2756 1281.00
76.3409 1208.00
76.406 1189.00
76.4712 1177.00
76.5364 1133.00
76.6016 1130.00
76.6668 1287.00
76.732 1225.00
76.7972 1272.00
76.8624 1243.00
76.9276 1275.00
76.9928 1243.00
77.058 1252.00
77.1232 1219.00
77.1884 1298.00
77.2536 1190.00
77.3188 1201.00
77.384 1190.00
77.4492 1201.00
77.5144 1202.00
77.5796 1274.00
77.6448 1178.00
77.71 1185.00
77.7752 1232.00
77.8404 1172.00
77.9056 1270.00
77.9708 1231.00
78.036 1201.00
78.1012 1230.00
78.1664 1133.00
78.2316 1177.00
78.2968 1184.00
78.362 1230.00
78.4272 1207.00
78.4924 1322.00
78.5576 1283.00
78.6228 1320.00
78.688 1276.00
78.7532 1396.00
78.8184 1450.00
78.8836 1499.00
78.9488 1485.00
79.014 1507.00
79.0792 1579.00
79.1444 1499.00
79.2096 1413.00
79.2748 1444.00
79.34 1517.00
79.4052 1446.00
79.4704 1363.00
79.5356 1387.00
79.6008 1266.00
79.666 1312.00
79.7312 1222.00
79.7964 1246.00
79.8616 1217.00
79.9268 1273.00
79.992 1266.00
80.0572 1208.00
80.1224 1178.00
80.1876 1247.00
80.2528 1219.00
80.318 1207.00
80.3832 1199.00
80.4484 1184.00
80.5136 1134.00
80.5788 1190.00
80.644 1192.00
80.7092 1240.00
80.7744 1236.00
80.8396 1228.00
80.9048 1277.00
80.9699 1295.00
81.0351 1337.00
81.1003 1410.00
81.1655 1267.00
81.2307 1419.00
81.2959 1481.00
81.3611 1322.00
81.4263 1356.00
81.4915 1406.00
81.5567 1348.00
81.6219 1307.00
81.6871 1280.00
81.7523 1240.00
81.8175 1229.00
81.8827 1207.00
81.9479 1190.00
82.0131 1132.00
82.0783 1299.00
82.1435 1168.00
82.2087 1196.00
82.2739 1177.00
82.3391 1173.00
82.4043 1167.00
82.4695 1178.00
82.5347 1123.00
82.5999 1188.00
82.6651 1135.00
82.7303 1195.00
82.7955 1143.00
82.8607 1166.00
82.9259 1193.00
82.9911 1205.00
83.0563 1225.00
83.1215 1246.00
83.1867 1232.00
83.2519 1247.00
83.3171 1230.00
83.3823 1336.00
83.4475 1297.00
83.5127 1353.00
83.5779 1347.00
83.6431 1356.00
83.7083 1390.00
83.7735 1387.00
83.8387 1435.00
83.9039 1325.00
83.9691 1429.00
84.0343 1431.00
84.0995 1325.00
84.1647 1336.00
84.2299 1328.00
84.2951 1286.00
84.3603 1300.00
84.4255 1334.00
84.4907 1287.00
84.5559 1234.00
84.6211 1241.00
84.6863 1338.00
84.7515 1346.00
84.8167 1274.00
84.8819 1363.00
84.9471 1404.00
85.0123 1377.00
85.0775 1338.00
85.1427 1352.00
85.2079 1311.00
85.2731 1300.00
85.3383 1352.00
85.4035 1367.00
85.4687 1314.00
85.5339 1415.00
85.5991 1340.00
85.6643 1307.00
85.7295 1309.00
85.7946 1333.00
85.8598 1319.00
85.925 1235.00
85.9903 1308.00
86.0554 1268.00
86.1206 1297.00
86.1858 1263.00
86.251 1339.00
86.3162 1389.00
86.3814 1286.00
86.4466 1287.00
86.5118 1314.00
86.577 1362.00
86.6422 1356.00
86.7074 1254.00
86.7726 1229.00
86.8378 1327.00
86.903 1267.00
86.9682 1285.00
87.0334 1225.00
87.0986 1300.00
87.1638 1211.00
87.229 1197.00
87.2942 1298.00
87.3594 1228.00
87.4246 1231.00
87.4898 1161.00
87.555 1272.00
87.6202 1221.00
87.6854 1213.00
87.7506 1273.00
87.8158 1230.00
87.881 1249.00
87.9462 1214.00
88.0114 1199.00
88.0766 1274.00
88.1418 1278.00
88.207 1359.00
88.2722 1320.00
88.3374 1296.00
88.4026 1236.00
88.4678 1229.00
88.533 1249.00
88.5982 1201.00
88.6634 1247.00
88.7286 1268.00
88.7938 1221.00
88.859 1269.00
88.9242 1361.00
88.9894 1305.00
89.0546 1217.00
89.1198 1311.00
89.185 1337.00
89.2502 1305.00
89.3154 1314.00
89.3806 1407.00
89.4458 1335.00
89.511 1333.00
89.5762 1433.00
89.6414 1446.00
89.7066 1350.00
89.7718 1385.00
89.837 1356.00
89.9022 1484.00
89.9674 1506.00
90.0326 1403.00
90.0978 1389.00
90.163 1417.00
90.2282 1455.00
90.2934 1335.00
90.3586 1375.00
90.4238 1287.00
90.489 1347.00
90.5542 1233.00
90.6193 1250.00
90.6845 1212.00
90.7497 1219.00
90.8149 1178.00
90.8801 1244.00
90.9453 1263.00
91.0105 1177.00
91.0757 1184.00
91.1409 1253.00
91.2061 1168.00
91.2713 1277.00
91.3365 1179.00
91.4017 1265.00
91.4669 1214.00
91.5321 1236.00
91.5973 1299.00
91.6625 1299.00
91.7277 1290.00
91.7929 1416.00
91.8581 1401.00
91.9233 1357.00
91.9885 1384.00
92.0537 1347.00
92.1189 1374.00
92.1841 1352.00
92.2493 1390.00
92.3145 1321.00
92.3797 1192.00
92.4449 1227.00
92.5101 1203.00
92.5753 1308.00
92.6405 1151.00
92.7057 1282.00
92.7709 1290.00
92.8361 1220.00
92.9013 1251.00
92.9665 1152.00
93.0317 1200.00
93.0969 1207.00
93.1621 1203.00
93.2273 1246.00
93.2925 1207.00
93.3577 1159.00
93.4229 1196.00
93.4881 1243.00
93.5533 1204.00
93.6185 1236.00
93.6837 1185.00
93.7489 1233.00
93.8141 1216.00
93.8793 1269.00
93.9445 1200.00
94.0097 1287.00
94.0749 1308.00
94.1401 1249.00
94.2053 1262.00
94.2705 1273.00
94.3357 1252.00
94.4009 1228.00
94.4661 1318.00
94.5313 1260.00
94.5965 1294.00
94.6617 1245.00
94.7269 1317.00
94.7921 1257.00
94.8573 1228.00
94.9225 1343.00
94.9877 1280.00
95.0529 1310.00
95.1181 1407.00
95.1833 1359.00
95.2485 1407.00
95.3137 1347.00
95.3789 1320.00
95.444 1442.00
95.5092 1359.00
95.5744 1351.00
95.6396 1337.00
95.7048 1333.00
95.77 1297.00
95.8352 1346.00
95.9004 1270.00
95.9656 1266.00
96.0308 1317.00
96.096 1268.00
96.1612 1332.00
96.2264 1400.00
96.2916 1365.00
96.3568 1343.00
96.422 1327.00
96.4872 1257.00
96.5524 1370.00
96.6176 1372.00
96.6828 1372.00
96.748 1366.00
96.8132 1389.00
96.8784 1374.00
96.9436 1313.00
97.0088 1362.00
97.074 1390.00
97.1392 1370.00
97.2044 1342.00
97.2696 1209.00
97.3348 1269.00
97.4 1241.00
97.4652 1268.00
97.5304 1244.00
97.5956 1238.00
97.6608 1203.00
97.726 1160.00
97.7912 1201.00
97.8564 1182.00
97.9216 1212.00
97.9868 1156.00
98.052 1238.00
98.1172 1192.00
98.1824 1166.00
98.2476 1149.00
98.3128 1146.00
98.378 1143.00
98.4432 1104.00
98.5084 1139.00
98.5736 1174.00
98.6388 1108.00
98.704 1155.00
98.7692 1170.00
98.8344 1190.00
98.8996 1173.00
98.9648 1264.00
99.03 1261.00
99.0952 1293.00
99.1604 1258.00
99.2256 1234.00
99.2908 1278.00
99.356 1294.00
99.4212 1213.00
99.4864 1264.00
99.5516 1259.00
99.6168 1234.00
99.682 1266.00
99.7472 1297.00
99.8124 1338.00
99.8776 1240.00
99.9428 1325.00
100.008 1329.00
100.073 1303.00
100.095 1343.00