File: data/xrd_creation/results/NSC_5.xy
9.903433 3092.00
9.968632 2977.00
10.0338 3131.00
10.099 3109.00
10.1642 3041.00
10.2294 3052.00
10.2946 2881.00
10.3598 2989.00
10.425 2901.00
10.4902 2855.00
10.5554 2941.00
10.6206 2865.00
10.6858 2906.00
10.751 2789.00
10.8162 2951.00
10.8814 2832.00
10.9466 2771.00
11.0118 2749.00
11.077 2733.00
11.1422 2817.00
11.2074 2739.00
11.2726 2729.00
11.3378 2709.00
11.403 2743.00
11.4682 2705.00
11.5334 2562.00
11.5986 2576.00
11.6638 2540.00
11.729 2637.00
11.7942 2576.00
11.8594 2628.00
11.9246 2531.00
11.9898 2593.00
12.055 2586.00
12.1202 2528.00
12.1854 2537.00
12.2506 2503.00
12.3158 2473.00
12.381 2448.00
12.4462 2468.00
12.5114 2545.00
12.5766 2422.00
12.6418 2327.00
12.707 2514.00
12.7722 2460.00
12.8374 2437.00
12.9026 2349.00
12.9678 2385.00
13.033 2456.00
13.0982 2334.00
13.1634 2385.00
13.2286 2312.00
13.2938 2362.00
13.359 2349.00
13.4242 2424.00
13.4894 2364.00
13.5546 2200.00
13.6198 2272.00
13.685 2328.00
13.7502 2391.00
13.8154 2370.00
13.8805 2351.00
13.9457 2381.00
14.0109 2546.00
14.0761 2654.00
14.1413 2801.00
14.2065 3029.00
14.2717 3679.00
14.3369 4414.00
14.4021 4509.00
14.4673 3354.00
14.5325 2641.00
14.5977 2348.00
14.6629 2313.00
14.7281 2386.00
14.7933 2282.00
14.8585 2322.00
14.9237 2201.00
14.9889 2257.00
15.0541 2256.00
15.1193 2222.00
15.1845 2149.00
15.2497 2202.00
15.3149 2339.00
15.3801 2189.00
15.4453 2175.00
15.5105 2213.00
15.5757 2262.00
15.6409 2291.00
15.7061 2250.00
15.7713 2242.00
15.8365 2201.00
15.9017 2050.00
15.9669 2272.00
16.0321 2123.00
16.0973 2177.00
16.1625 2147.00
16.2277 2196.00
16.2929 2167.00
16.3581 2206.00
16.4233 2125.00
16.4885 2132.00
16.5537 2205.00
16.6189 2243.00
16.6841 2167.00
16.7493 2084.00
16.8145 2120.00
16.8797 2174.00
16.9449 2118.00
17.0101 2108.00
17.0753 2154.00
17.1405 2079.00
17.2057 2132.00
17.2709 2070.00
17.3361 2053.00
17.4013 2112.00
17.4665 2014.00
17.5317 2198.00
17.5969 2004.00
17.6621 2182.00
17.7273 2106.00
17.7925 2122.00
17.8577 2055.00
17.9229 2074.00
17.9881 2124.00
18.0533 2095.00
18.1185 2086.00
18.1837 1989.00
18.2489 2041.00
18.3141 2000.00
18.3793 1948.00
18.4445 2083.00
18.5097 1951.00
18.5749 1987.00
18.6401 1999.00
18.7052 2027.00
18.7704 2004.00
18.8356 1968.00
18.9008 1970.00
18.966 2026.00
19.0312 2018.00
19.0964 2082.00
19.1616 2102.00
19.2268 2103.00
19.292 2087.00
19.3572 2142.00
19.4224 2387.00
19.4876 2435.00
19.5528 2881.00
19.618 3547.00
19.6832 5029.00
19.7484 7354.00
19.8136 9399.00
19.8788 8432.00
19.944 4922.00
20.0092 3185.00
20.0744 2526.00
20.1396 2504.00
20.2048 2567.00
20.27 3029.00
20.3352 3872.00
20.4004 5657.00
20.4656 8512.00
20.5308 11930.00
20.596 11338.00
20.6612 6454.00
20.7264 3467.00
20.7916 2576.00
20.8568 2334.00
20.922 2287.00
20.9872 2199.00
21.0524 2021.00
21.1176 2016.00
21.1828 2074.00
21.248 2080.00
21.3132 2002.00
21.3784 1962.00
21.4436 1989.00
21.5088 1997.00
21.574 2038.00
21.6392 1999.00
21.7044 1920.00
21.7696 2009.00
21.8348 2043.00
21.9 2076.00
21.9652 2058.00
22.0304 2133.00
22.0956 2083.00
22.1608 2140.00
22.226 2106.00
22.2912 2121.00
22.3564 1983.00
22.4216 2023.00
22.4868 2033.00
22.552 1941.00
22.6172 1997.00
22.6824 1912.00
22.7476 1886.00
22.8128 1951.00
22.878 1921.00
22.9432 1937.00
23.0084 1937.00
23.0736 2009.00
23.1388 1961.00
23.204 2058.00
23.2692 2000.00
23.3344 2157.00
23.3996 2466.00
23.4647 2834.00
23.5299 3840.00
23.5951 6173.00
23.6603 9882.00
23.7255 13251.00
23.7907 10789.00
23.8559 5683.00
23.9211 3177.00
23.9863 2294.00
24.0515 2213.00
24.1167 2090.00
24.1819 1987.00
24.2471 1958.00
24.3123 2069.00
24.3775 2245.00
24.4427 2202.00
24.5079 2159.00
24.5731 2001.00
24.6383 1952.00
24.7035 1895.00
24.7687 2077.00
24.8339 2022.00
24.8991 2096.00
24.9643 2036.00
25.0295 1891.00
25.0947 1787.00
25.1599 1818.00
25.2251 1691.00
25.2903 1690.00
25.3555 1740.00
25.4207 1795.00
25.4859 1715.00
25.5511 1691.00
25.6163 1809.00
25.6815 1728.00
25.7467 1704.00
25.8119 1701.00
25.8771 1728.00
25.9423 1750.00
26.0075 1682.00
26.0727 1703.00
26.1379 1666.00
26.2031 1735.00
26.2683 1733.00
26.3335 1773.00
26.3987 1708.00
26.4639 1685.00
26.5291 1809.00
26.5943 1659.00
26.6595 1796.00
26.7247 1830.00
26.7899 1711.00
26.8551 1742.00
26.9203 1729.00
26.9855 1623.00
27.0507 1670.00
27.1159 1783.00
27.1811 1619.00
27.2463 1740.00
27.3115 1632.00
27.3767 1702.00
27.4419 1707.00
27.5071 1680.00
27.5723 1686.00
27.6375 1710.00
27.7027 1763.00
27.7679 1856.00
27.8331 1843.00
27.8983 1784.00
27.9635 1859.00
28.0287 1929.00
28.0939 1886.00
28.1591 1822.00
28.2243 2246.00
28.2894 2581.00
28.3546 3678.00
28.4198 5863.00
28.485 8901.00
28.5502 10308.00
28.6154 7951.00
28.6806 4798.00
28.7458 3033.00
28.811 2345.00
28.8762 2068.00
28.9414 1899.00
29.0066 1781.00
29.0718 1719.00
29.137 1739.00
29.2022 1735.00
29.2674 1740.00
29.3326 1681.00
29.3978 1675.00
29.463 1698.00
29.5282 1652.00
29.5934 1646.00
29.6586 1678.00
29.7238 1673.00
29.789 1565.00
29.8542 1645.00
29.9194 1746.00
29.9846 1682.00
30.0498 1660.00
30.115 1601.00
30.1802 1544.00
30.2454 1566.00
30.3106 1682.00
30.3758 1632.00
30.441 1691.00
30.5062 1641.00
30.5714 1806.00
30.6366 1754.00
30.7018 1738.00
30.767 1693.00
30.8322 1703.00
30.8974 1875.00
30.9626 1828.00
31.0278 1922.00
31.093 2039.00
31.1582 2242.00
31.2234 2886.00
31.2886 4296.00
31.3538 7168.00
31.419 11151.00
31.4842 12264.00
31.5494 9213.00
31.6146 6341.00
31.6798 4685.00
31.745 4343.00
31.8102 3937.00
31.8754 3584.00
31.9406 2815.00
32.0058 2346.00
32.071 1996.00
32.1362 1825.00
32.2014 1726.00
32.2666 1682.00
32.3318 1756.00
32.397 1629.00
32.4622 1679.00
32.5274 1582.00
32.5926 1654.00
32.6578 1580.00
32.723 1591.00
32.7882 1556.00
32.8534 1550.00
32.9186 1565.00
32.9838 1661.00
33.0489 1641.00
33.1141 1702.00
33.1793 1625.00
33.2445 1611.00
33.3097 1550.00
33.3749 1550.00
33.4401 1643.00
33.5053 1653.00
33.5705 1805.00
33.6357 1728.00
33.7009 1712.00
33.7661 1678.00
33.8313 1806.00
33.8965 1887.00
33.9617 1896.00
34.0269 1877.00
34.0921 1767.00
34.1573 1676.00
34.2225 1659.00
34.2877 1691.00
34.3529 1777.00
34.4181 1947.00
34.4833 2102.00
34.5485 2054.00
34.6137 1879.00
34.6789 1838.00
34.7441 1914.00
34.8093 1938.00
34.8745 1848.00
34.9397 1917.00
35.0049 1947.00
35.0701 2235.00
35.1353 2874.00
35.2005 3968.00
35.2657 4120.00
35.3309 3549.00
35.3961 2824.00
35.4613 2700.00
35.5265 3557.00
35.5917 5263.00
35.6569 6476.00
35.7221 5917.00
35.7873 4244.00
35.8525 2906.00
35.9177 2071.00
35.9829 1841.00
36.0481 1683.00
36.1133 1627.00
36.1785 1633.00
36.2437 1704.00
36.3089 1628.00
36.3741 1572.00
36.4393 1468.00
36.5045 1522.00
36.5697 1525.00
36.6349 1497.00
36.7001 1554.00
36.7653 1429.00
36.8305 1529.00
36.8957 1427.00
36.9609 1474.00
37.0261 1437.00
37.0913 1468.00
37.1565 1418.00
37.2217 1404.00
37.2869 1426.00
37.3521 1476.00
37.4173 1457.00
37.4825 1424.00
37.5477 1395.00
37.6129 1399.00
37.6781 1424.00
37.7433 1410.00
37.8085 1429.00
37.8736 1433.00
37.9388 1508.00
38.004 1387.00
38.0692 1350.00
38.1344 1471.00
38.1996 1393.00
38.2648 1430.00
38.33 1453.00
38.3952 1344.00
38.4604 1393.00
38.5256 1388.00
38.5908 1371.00
38.656 1475.00
38.7212 1474.00
38.7864 1435.00
38.8516 1521.00
38.9168 1601.00
38.982 1510.00
39.0472 1504.00
39.1124 1517.00
39.1776 1436.00
39.2428 1448.00
39.308 1454.00
39.3732 1410.00
39.4384 1453.00
39.5036 1444.00
39.5688 1475.00
39.634 1604.00
39.6992 1717.00
39.7644 1910.00
39.8296 2023.00
39.8948 2053.00
39.96 1776.00
40.0252 1600.00
40.0904 1509.00
40.1556 1452.00
40.2208 1461.00
40.286 1423.00
40.3512 1431.00
40.4164 1391.00
40.4816 1470.00
40.5468 1358.00
40.612 1376.00
40.6772 1441.00
40.7424 1448.00
40.8076 1393.00
40.8728 1492.00
40.938 1593.00
41.0032 1672.00
41.0684 1657.00
41.1336 1732.00
41.1988 1762.00
41.264 1909.00
41.3292 2150.00
41.3944 2319.00
41.4596 2407.00
41.5248 2174.00
41.59 2120.00
41.6552 1942.00
41.7204 1902.00
41.7856 1807.00
41.8508 1670.00
41.916 1556.00
41.9812 1445.00
42.0464 1521.00
42.1116 1586.00
42.1768 1681.00
42.242 1529.00
42.3072 1524.00
42.3724 1441.00
42.4376 1421.00
42.5028 1344.00
42.568 1358.00
42.6332 1477.00
42.6983 1359.00
42.7635 1408.00
42.8287 1529.00
42.8939 1493.00
42.9591 1697.00
43.0243 1987.00
43.0895 2579.00
43.1547 2712.00
43.2199 2474.00
43.2851 2147.00
43.3503 1652.00
43.4155 1436.00
43.4807 1449.00
43.5459 1453.00
43.6111 1426.00
43.6763 1370.00
43.7415 1525.00
43.8067 1507.00
43.8719 1625.00
43.9371 1494.00
44.0023 1466.00
44.0675 1410.00
44.1327 1365.00
44.1979 1351.00
44.2631 1445.00
44.3283 1483.00
44.3935 1431.00
44.4587 1489.00
44.5239 1396.00
44.5891 1458.00
44.6543 1431.00
44.7195 1383.00
44.7847 1612.00
44.8499 1783.00
44.9151 2336.00
44.9803 2919.00
45.0455 3657.00
45.1107 3564.00
45.1759 3050.00
45.2411 2334.00
45.3063 1891.00
45.3715 1677.00
45.4367 1518.00
45.5019 1469.00
45.5671 1423.00
45.6323 1498.00
45.6975 1582.00
45.7627 1496.00
45.8279 1595.00
45.8931 1777.00
45.9583 1933.00
46.0235 2438.00
46.0887 2780.00
46.1539 2536.00
46.2191 2279.00
46.2843 2006.00
46.3495 1698.00
46.4147 1535.00
46.4799 1571.00
46.5451 1596.00
46.6103 1758.00
46.6755 1946.00
46.7407 2140.00
46.8059 2119.00
46.8711 1920.00
46.9363 1650.00
47.0015 1505.00
47.0667 1374.00
47.1319 1438.00
47.1971 1409.00
47.2623 1398.00
47.3275 1290.00
47.3927 1417.00
47.4579 1388.00
47.523 1424.00
47.5882 1510.00
47.6534 1633.00
47.7186 1685.00
47.7838 1732.00
47.849 1936.00
47.9142 2434.00
47.9794 3203.00
48.0446 4252.00
48.1098 4545.00
48.175 4054.00
48.2402 3185.00
48.3054 2423.00
48.3706 1917.00
48.4358 1675.00
48.501 1477.00
48.5662 1600.00
48.6314 1624.00
48.6966 1848.00
48.7618 1808.00
48.827 1753.00
48.8922 1621.00
48.9574 1590.00
49.0226 1390.00
49.0878 1409.00
49.153 1531.00
49.2182 1435.00
49.2834 1448.00
49.3486 1441.00
49.4138 1469.00
49.479 1584.00
49.5442 1738.00
49.6094 1738.00
49.6746 1735.00
49.7398 1677.00
49.805 1555.00
49.8702 1514.00
49.9354 1412.00
50.0006 1336.00
50.0658 1348.00
50.131 1389.00
50.1962 1429.00
50.2614 1505.00
50.3266 1614.00
50.3918 1772.00
50.457 1891.00
50.5222 1897.00
50.5874 1721.00
50.6526 1708.00
50.7178 1729.00
50.783 1754.00
50.8482 1753.00
50.9134 1802.00
50.9786 1794.00
51.0438 1754.00
51.109 1817.00
51.1742 1971.00
51.2394 2370.00
51.3046 2840.00
51.3698 3412.00
51.435 3596.00
51.5002 3230.00
51.5654 2845.00
51.6306 2302.00
51.6958 1918.00
51.761 1913.00
51.8262 1935.00
51.8914 1892.00
51.9566 1771.00
52.0218 1582.00
52.087 1486.00
52.1522 1378.00
52.2174 1341.00
52.2826 1310.00
52.3477 1299.00
52.4129 1302.00
52.4781 1372.00
52.5433 1361.00
52.6085 1396.00
52.6737 1315.00
52.7389 1318.00
52.8041 1380.00
52.8693 1397.00
52.9345 1402.00
52.9997 1308.00
53.0649 1280.00
53.1301 1364.00
53.1953 1312.00
53.2605 1293.00
53.3257 1359.00
53.3909 1237.00
53.4561 1278.00
53.5213 1422.00
53.5865 1311.00
53.6517 1327.00
53.7169 1351.00
53.7821 1302.00
53.8473 1409.00
53.9125 1381.00
53.9777 1395.00
54.0429 1447.00
54.1081 1607.00
54.1733 1867.00
54.2385 2169.00
54.3037 2397.00
54.3689 2380.00
54.4341 2204.00
54.4993 2096.00
54.5645 1684.00
54.6297 1545.00
54.6949 1515.00
54.7601 1464.00
54.8253 1437.00
54.8905 1439.00
54.9557 1555.00
55.0209 1777.00
55.0861 2097.00
55.1513 2474.00
55.2165 2729.00
55.2817 2890.00
55.3469 3078.00
55.4121 3534.00
55.4773 4253.00
55.5425 4108.00
55.6077 3813.00
55.6729 3170.00
55.7381 2733.00
55.8033 2246.00
55.8685 1942.00
55.9337 1763.00
55.9989 1575.00
56.0641 1583.00
56.1293 1494.00
56.1945 1506.00
56.2597 1512.00
56.3249 1571.00
56.3901 1537.00
56.4553 1473.00
56.5205 1474.00
56.5857 1440.00
56.6509 1506.00
56.7161 1545.00
56.7813 1465.00
56.8465 1461.00
56.9117 1578.00
56.9769 1589.00
57.042 1503.00
57.1073 1455.00
57.1724 1364.00
57.2376 1433.00
57.3028 1369.00
57.368 1403.00
57.4332 1403.00
57.4984 1527.00
57.5636 1373.00
57.6288 1364.00
57.694 1445.00
57.7592 1417.00
57.8244 1427.00
57.8896 1492.00
57.9548 1581.00
58.02 1550.00
58.0852 1687.00
58.1504 1804.00
58.2156 1872.00
58.2808 1902.00
58.346 1919.00
58.4112 1900.00
58.4764 1937.00
58.5416 1925.00
58.6068 1769.00
58.672 1757.00
58.7372 1508.00
58.8024 1458.00
58.8676 1377.00
58.9328 1313.00
58.998 1350.00
59.0632 1296.00
59.1284 1292.00
59.1936 1307.00
59.2588 1289.00
59.324 1347.00
59.3892 1345.00
59.4544 1375.00
59.5196 1379.00
59.5848 1402.00
59.65 1515.00
59.7152 1544.00
59.7804 1869.00
59.8456 2255.00
59.9108 2627.00
59.976 2612.00
60.0412 2477.00
60.1064 2252.00
60.1716 2058.00
60.2368 1867.00
60.302 1762.00
60.3672 1636.00
60.4324 1580.00
60.4976 1625.00
60.5628 1544.00
60.628 1414.00
60.6932 1438.00
60.7584 1490.00
60.8236 1531.00
60.8888 1854.00
60.954 2237.00
61.0192 2608.00
61.0844 2836.00
61.1496 2619.00
61.2148 2486.00
61.28 2114.00
61.3452 1774.00
61.4104 1661.00
61.4756 1616.00
61.5408 1550.00
61.606 1575.00
61.6712 1493.00
61.7364 1433.00
61.8016 1447.00
61.8667 1459.00
61.932 1549.00
61.9971 1652.00
62.0623 1646.00
62.1275 1758.00
62.1927 2031.00
62.2579 2075.00
62.3231 2086.00
62.3883 1953.00
62.4535 1877.00
62.5187 1780.00
62.5839 1666.00
62.6491 1644.00
62.7143 1502.00
62.7795 1486.00
62.8447 1434.00
62.9099 1468.00
62.9751 1470.00
63.0403 1641.00
63.1055 1641.00
63.1707 1725.00
63.2359 1719.00
63.3011 1771.00
63.3663 1902.00
63.4315 1892.00
63.4967 1829.00
63.5619 1965.00
63.6271 2078.00
63.6923 2039.00
63.7575 1908.00
63.8227 1920.00
63.8879 1962.00
63.9531 1980.00
64.0183 1690.00
64.0835 1640.00
64.1487 1517.00
64.2139 1420.00
64.2791 1371.00
64.3443 1311.00
64.4095 1312.00
64.4747 1323.00
64.5399 1304.00
64.6051 1464.00
64.6703 1382.00
64.7355 1288.00
64.8007 1341.00
64.8659 1332.00
64.9311 1401.00
64.9963 1357.00
65.0615 1483.00
65.1267 1559.00
65.1919 1600.00
65.2571 1511.00
65.3223 1541.00
65.3875 1428.00
65.4527 1443.00
65.5179 1395.00
65.5831 1415.00
65.6483 1485.00
65.7135 1394.00
65.7787 1404.00
65.8439 1563.00
65.9091 1599.00
65.9743 1689.00
66.0395 1755.00
66.1047 1914.00
66.1699 2070.00
66.2351 1976.00
66.3003 1826.00
66.3655 1695.00
66.4307 1607.00
66.4959 1482.00
66.561 1420.00
66.6263 1234.00
66.6915 1289.00
66.7566 1261.00
66.8218 1340.00
66.887 1361.00
66.9522 1259.00
67.0174 1327.00
67.0826 1385.00
67.1478 1524.00
67.213 1646.00
67.2782 1614.00
67.3434 1613.00
67.4086 1512.00
67.4738 1583.00
67.539 1618.00
67.6042 1531.00
67.6694 1626.00
67.7346 1640.00
67.7998 1647.00
67.865 1571.00
67.9302 1488.00
67.9954 1472.00
68.0606 1341.00
68.1258 1307.00
68.191 1272.00
68.2562 1320.00
68.3214 1256.00
68.3866 1257.00
68.4518 1299.00
68.517 1312.00
68.5822 1250.00
68.6474 1386.00
68.7126 1412.00
68.7778 1517.00
68.843 1512.00
68.9082 1532.00
68.9734 1497.00
69.0386 1448.00
69.1038 1351.00
69.169 1430.00
69.2342 1394.00
69.2994 1287.00
69.3646 1336.00
69.4298 1263.00
69.495 1253.00
69.5602 1306.00
69.6254 1286.00
69.6906 1275.00
69.7558 1295.00
69.821 1288.00
69.8862 1338.00
69.9514 1347.00
70.0166 1251.00
70.0818 1297.00
70.147 1301.00
70.2122 1245.00
70.2774 1245.00
70.3426 1232.00
70.4078 1270.00
70.473 1305.00
70.5382 1271.00
70.6034 1321.00
70.6686 1392.00
70.7338 1394.00
70.799 1522.00
70.8642 1623.00
70.9294 1809.00
70.9946 1865.00
71.0598 1889.00
71.125 1874.00
71.1902 1847.00
71.2554 1705.00
71.3205 1519.00
71.3858 1390.00
71.451 1364.00
71.5162 1377.00
71.5813 1340.00
71.6465 1254.00
71.7117 1310.00
71.7769 1275.00
71.8421 1238.00
71.9073 1298.00
71.9725 1302.00
72.0377 1219.00
72.1029 1323.00
72.1681 1318.00
72.2333 1264.00
72.2985 1273.00
72.3637 1269.00
72.4289 1337.00
72.4941 1339.00
72.5593 1227.00
72.6245 1330.00
72.6897 1209.00
72.7549 1283.00
72.8201 1219.00
72.8853 1215.00
72.9505 1221.00
73.0157 1223.00
73.0809 1224.00
73.1461 1252.00
73.2113 1283.00
73.2765 1323.00
73.3417 1310.00
73.4069 1371.00
73.4721 1411.00
73.5373 1408.00
73.6025 1561.00
73.6677 1543.00
73.7329 1645.00
73.7981 1615.00
73.8633 1513.00
73.9285 1577.00
73.9937 1437.00
74.0589 1360.00
74.1241 1330.00
74.1893 1342.00
74.2545 1297.00
74.3197 1226.00
74.3849 1274.00
74.4501 1301.00
74.5153 1346.00
74.5805 1317.00
74.6457 1385.00
74.7109 1466.00
74.7761 1666.00
74.8413 1774.00
74.9065 1856.00
74.9717 1893.00
75.0369 1859.00
75.1021 1778.00
75.1673 1765.00
75.2325 1633.00
75.2977 1610.00
75.3629 1640.00
75.4281 1521.00
75.4933 1520.00
75.5585 1510.00
75.6237 1485.00
75.6889 1416.00
75.7541 1462.00
75.8193 1270.00
75.8845 1233.00
75.9497 1347.00
76.0149 1265.00
76.0801 1267.00
76.1452 1285.00
76.2104 1202.00
76.2756 1187.00
76.3409 1165.00
76.406 1293.00
76.4712 1255.00
76.5364 1302.00
76.6016 1304.00
76.6668 1189.00
76.732 1394.00
76.7972 1252.00
76.8624 1276.00
76.9276 1290.00
76.9928 1300.00
77.058 1256.00
77.1232 1309.00
77.1884 1302.00
77.2536 1379.00
77.3188 1236.00
77.384 1359.00
77.4492 1276.00
77.5144 1328.00
77.5796 1329.00
77.6448 1278.00
77.71 1215.00
77.7752 1314.00
77.8404 1283.00
77.9056 1188.00
77.9708 1266.00
78.036 1150.00
78.1012 1225.00
78.1664 1383.00
78.2316 1304.00
78.2968 1278.00
78.362 1442.00
78.4272 1480.00
78.4924 1566.00
78.5576 1741.00
78.6228 1672.00
78.688 1705.00
78.7532 1751.00
78.8184 1685.00
78.8836 1549.00
78.9488 1507.00
79.014 1450.00
79.0792 1443.00
79.1444 1308.00
79.2096 1309.00
79.2748 1394.00
79.34 1267.00
79.4052 1238.00
79.4704 1210.00
79.5356 1277.00
79.6008 1239.00
79.666 1225.00
79.7312 1272.00
79.7964 1270.00
79.8616 1293.00
79.9268 1307.00
79.992 1249.00
80.0572 1293.00
80.1224 1228.00
80.1876 1215.00
80.2528 1262.00
80.318 1216.00
80.3832 1219.00
80.4484 1288.00
80.5136 1388.00
80.5788 1336.00
80.644 1392.00
80.7092 1411.00
80.7744 1584.00
80.8396 1693.00
80.9048 1638.00
80.9699 1573.00
81.0351 1515.00
81.1003 1479.00
81.1655 1472.00
81.2307 1345.00
81.2959 1182.00
81.3611 1288.00
81.4263 1205.00
81.4915 1222.00
81.5567 1213.00
81.6219 1214.00
81.6871 1208.00
81.7523 1241.00
81.8175 1190.00
81.8827 1270.00
81.9479 1314.00
82.0131 1180.00
82.0783 1214.00
82.1435 1295.00
82.2087 1257.00
82.2739 1210.00
82.3391 1248.00
82.4043 1303.00
82.4695 1232.00
82.5347 1300.00
82.5999 1237.00
82.6651 1279.00
82.7303 1272.00
82.7955 1346.00
82.8607 1288.00
82.9259 1283.00
82.9911 1249.00
83.0563 1375.00
83.1215 1475.00
83.1867 1529.00
83.2519 1624.00
83.3171 1612.00
83.3823 1651.00
83.4475 1598.00
83.5127 1596.00
83.5779 1490.00
83.6431 1534.00
83.7083 1360.00
83.7735 1390.00
83.8387 1316.00
83.9039 1270.00
83.9691 1314.00
84.0343 1242.00
84.0995 1228.00
84.1647 1296.00
84.2299 1227.00
84.2951 1238.00
84.3603 1302.00
84.4255 1315.00
84.4907 1423.00
84.5559 1438.00
84.6211 1524.00
84.6863 1537.00
84.7515 1489.00
84.8167 1479.00
84.8819 1469.00
84.9471 1438.00
85.0123 1400.00
85.0775 1353.00
85.1427 1335.00
85.2079 1403.00
85.2731 1384.00
85.3383 1404.00
85.4035 1334.00
85.4687 1295.00
85.5339 1379.00
85.5991 1366.00
85.6643 1343.00
85.7295 1254.00
85.7946 1337.00
85.8598 1429.00
85.925 1330.00
85.9903 1330.00
86.0554 1372.00
86.1206 1343.00
86.1858 1349.00
86.251 1331.00
86.3162 1287.00
86.3814 1394.00
86.4466 1329.00
86.5118 1343.00
86.577 1275.00
86.6422 1414.00
86.7074 1267.00
86.7726 1268.00
86.8378 1251.00
86.903 1290.00
86.9682 1298.00
87.0334 1277.00
87.0986 1258.00
87.1638 1229.00
87.229 1243.00
87.2942 1306.00
87.3594 1253.00
87.4246 1211.00
87.4898 1285.00
87.555 1198.00
87.6202 1219.00
87.6854 1340.00
87.7506 1319.00
87.8158 1341.00
87.881 1376.00
87.9462 1433.00
88.0114 1398.00
88.0766 1413.00
88.1418 1374.00
88.207 1289.00
88.2722 1354.00
88.3374 1319.00
88.4026 1334.00
88.4678 1417.00
88.533 1277.00
88.5982 1374.00
88.6634 1434.00
88.7286 1370.00
88.7938 1403.00
88.859 1382.00
88.9242 1338.00
88.9894 1484.00
89.0546 1508.00
89.1198 1519.00
89.185 1633.00
89.2502 1747.00
89.3154 1772.00
89.3806 1677.00
89.4458 1645.00
89.511 1646.00
89.5762 1561.00
89.6414 1533.00
89.7066 1521.00
89.7718 1446.00
89.837 1407.00
89.9022 1343.00
89.9674 1312.00
90.0326 1252.00
90.0978 1370.00
90.163 1228.00
90.2282 1264.00
90.2934 1256.00
90.3586 1230.00
90.4238 1215.00
90.489 1293.00
90.5542 1200.00
90.6193 1248.00
90.6845 1266.00
90.7497 1244.00
90.8149 1246.00
90.8801 1265.00
90.9453 1269.00
91.0105 1300.00
91.0757 1361.00
91.1409 1276.00
91.2061 1418.00
91.2713 1373.00
91.3365 1464.00
91.4017 1419.00
91.4669 1445.00
91.5321 1447.00
91.5973 1442.00
91.6625 1419.00
91.7277 1391.00
91.7929 1393.00
91.8581 1324.00
91.9233 1273.00
91.9885 1297.00
92.0537 1233.00
92.1189 1224.00
92.1841 1297.00
92.2493 1219.00
92.3145 1313.00
92.3797 1302.00
92.4449 1381.00
92.5101 1223.00
92.5753 1266.00
92.6405 1240.00
92.7057 1299.00
92.7709 1178.00
92.8361 1176.00
92.9013 1221.00
92.9665 1202.00
93.0317 1222.00
93.0969 1233.00
93.1621 1159.00
93.2273 1237.00
93.2925 1262.00
93.3577 1267.00
93.4229 1241.00
93.4881 1324.00
93.5533 1356.00
93.6185 1435.00
93.6837 1415.00
93.7489 1367.00
93.8141 1464.00
93.8793 1377.00
93.9445 1394.00
94.0097 1380.00
94.0749 1337.00
94.1401 1303.00
94.2053 1345.00
94.2705 1217.00
94.3357 1357.00
94.4009 1295.00
94.4661 1275.00
94.5313 1307.00
94.5965 1300.00
94.6617 1393.00
94.7269 1445.00
94.7921 1456.00
94.8573 1467.00
94.9225 1555.00
94.9877 1456.00
95.0529 1459.00
95.1181 1450.00
95.1833 1392.00
95.2485 1402.00
95.3137 1368.00
95.3789 1367.00
95.444 1390.00
95.5092 1383.00
95.5744 1295.00
95.6396 1408.00
95.7048 1436.00
95.77 1466.00
95.8352 1511.00
95.9004 1550.00
95.9656 1398.00
96.0308 1497.00
96.096 1484.00
96.1612 1431.00
96.2264 1529.00
96.2916 1444.00
96.3568 1489.00
96.422 1546.00
96.4872 1385.00
96.5524 1422.00
96.6176 1389.00
96.6828 1391.00
96.748 1345.00
96.8132 1316.00
96.8784 1290.00
96.9436 1283.00
97.0088 1306.00
97.074 1298.00
97.1392 1282.00
97.2044 1218.00
97.2696 1241.00
97.3348 1255.00
97.4 1180.00
97.4652 1317.00
97.5304 1204.00
97.5956 1232.00
97.6608 1207.00
97.726 1161.00
97.7912 1208.00
97.8564 1196.00
97.9216 1201.00
97.9868 1175.00
98.052 1119.00
98.1172 1228.00
98.1824 1232.00
98.2476 1242.00
98.3128 1236.00
98.378 1296.00
98.4432 1220.00
98.5084 1296.00
98.5736 1379.00
98.6388 1393.00
98.704 1376.00
98.7692 1398.00
98.8344 1425.00
98.8996 1380.00
98.9648 1320.00
99.03 1394.00
99.0952 1444.00
99.1604 1353.00
99.2256 1375.00
99.2908 1319.00
99.356 1374.00
99.4212 1481.00
99.4864 1393.00
99.5516 1385.00
99.6168 1421.00
99.682 1463.00
99.7472 1438.00
99.8124 1426.00
99.8776 1480.00
99.9428 1503.00
100.008 1439.00
100.073 1467.00
100.095 1419.00