File: data/xrd_creation/results/NSC_220.xy
9.903433 2843.00
9.968632 2712.00
10.0338 2708.00
10.099 2775.00
10.1642 2702.00
10.2294 2601.00
10.2946 2679.00
10.3598 2639.00
10.425 2544.00
10.4902 2473.00
10.5554 2549.00
10.6206 2519.00
10.6858 2468.00
10.751 2461.00
10.8162 2390.00
10.8814 2426.00
10.9466 2397.00
11.0118 2360.00
11.077 2370.00
11.1422 2292.00
11.2074 2424.00
11.2726 2343.00
11.3378 2311.00
11.403 2301.00
11.4682 2289.00
11.5334 2271.00
11.5986 2130.00
11.6638 2216.00
11.729 2219.00
11.7942 2193.00
11.8594 2219.00
11.9246 2212.00
11.9898 2162.00
12.055 2145.00
12.1202 2202.00
12.1854 2126.00
12.2506 2041.00
12.3158 2041.00
12.381 2024.00
12.4462 1986.00
12.5114 2046.00
12.5766 2075.00
12.6418 1957.00
12.707 2019.00
12.7722 1952.00
12.8374 2059.00
12.9026 2046.00
12.9678 2001.00
13.033 1928.00
13.0982 1973.00
13.1634 2003.00
13.2286 2026.00
13.2938 1995.00
13.359 2003.00
13.4242 1945.00
13.4894 2108.00
13.5546 2254.00
13.6198 2528.00
13.685 2800.00
13.7502 2902.00
13.8154 2867.00
13.8805 2738.00
13.9457 2372.00
14.0109 2011.00
14.0761 1897.00
14.1413 1898.00
14.2065 1826.00
14.2717 1823.00
14.3369 1810.00
14.4021 1812.00
14.4673 1798.00
14.5325 1839.00
14.5977 1806.00
14.6629 1816.00
14.7281 1730.00
14.7933 1773.00
14.8585 1778.00
14.9237 1723.00
14.9889 1700.00
15.0541 1778.00
15.1193 1766.00
15.1845 1708.00
15.2497 1789.00
15.3149 1761.00
15.3801 1713.00
15.4453 1688.00
15.5105 1781.00
15.5757 1630.00
15.6409 1707.00
15.7061 1661.00
15.7713 1797.00
15.8365 1722.00
15.9017 1681.00
15.9669 1708.00
16.0321 1671.00
16.0973 1681.00
16.1625 1734.00
16.2277 1688.00
16.2929 1656.00
16.3581 1644.00
16.4233 1590.00
16.4885 1668.00
16.5537 1595.00
16.6189 1596.00
16.6841 1611.00
16.7493 1646.00
16.8145 1668.00
16.8797 1589.00
16.9449 1669.00
17.0101 1591.00
17.0753 1614.00
17.1405 1606.00
17.2057 1620.00
17.2709 1595.00
17.3361 1593.00
17.4013 1727.00
17.4665 1648.00
17.5317 1669.00
17.5969 1668.00
17.6621 1634.00
17.7273 1690.00
17.7925 1567.00
17.8577 1560.00
17.9229 1584.00
17.9881 1525.00
18.0533 1518.00
18.1185 1580.00
18.1837 1549.00
18.2489 1506.00
18.3141 1587.00
18.3793 1566.00
18.4445 1546.00
18.5097 1608.00
18.5749 1431.00
18.6401 1544.00
18.7052 1525.00
18.7704 1584.00
18.8356 1674.00
18.9008 1588.00
18.966 1723.00
19.0312 1862.00
19.0964 2230.00
19.1616 2894.00
19.2268 3842.00
19.292 5202.00
19.3572 6532.00
19.4224 7613.00
19.4876 8070.00
19.5528 7726.00
19.618 6686.00
19.6832 5232.00
19.7484 3756.00
19.8136 2656.00
19.8788 2025.00
19.944 1703.00
20.0092 1603.00
20.0744 1539.00
20.1396 1476.00
20.2048 1426.00
20.27 1446.00
20.3352 1495.00
20.4004 1430.00
20.4656 1452.00
20.5308 1573.00
20.596 1563.00
20.6612 1736.00
20.7264 1859.00
20.7916 1847.00
20.8568 1904.00
20.922 1787.00
20.9872 1600.00
21.0524 1495.00
21.1176 1391.00
21.1828 1447.00
21.248 1461.00
21.3132 1457.00
21.3784 1448.00
21.4436 1421.00
21.5088 1440.00
21.574 1369.00
21.6392 1383.00
21.7044 1339.00
21.7696 1368.00
21.8348 1341.00
21.9 1353.00
21.9652 1340.00
22.0304 1318.00
22.0956 1362.00
22.1608 1401.00
22.226 1363.00
22.2912 1387.00
22.3564 1336.00
22.4216 1422.00
22.4868 1386.00
22.552 1317.00
22.6172 1503.00
22.6824 1637.00
22.7476 1907.00
22.8128 2320.00
22.878 2727.00
22.9432 2896.00
23.0084 2701.00
23.0736 2306.00
23.1388 1792.00
23.204 1653.00
23.2692 1463.00
23.3344 1444.00
23.3996 1270.00
23.4647 1369.00
23.5299 1308.00
23.5951 1297.00
23.6603 1275.00
23.7255 1283.00
23.7907 1308.00
23.8559 1347.00
23.9211 1432.00
23.9863 1501.00
24.0515 1570.00
24.1167 1535.00
24.1819 1565.00
24.2471 1466.00
24.3123 1375.00
24.3775 1389.00
24.4427 1343.00
24.5079 1389.00
24.5731 1298.00
24.6383 1393.00
24.7035 1315.00
24.7687 1349.00
24.8339 1256.00
24.8991 1254.00
24.9643 1258.00
25.0295 1212.00
25.0947 1156.00
25.1599 1219.00
25.2251 1178.00
25.2903 1152.00
25.3555 1165.00
25.4207 1259.00
25.4859 1200.00
25.5511 1209.00
25.6163 1187.00
25.6815 1197.00
25.7467 1224.00
25.8119 1144.00
25.8771 1102.00
25.9423 1195.00
26.0075 1184.00
26.0727 1129.00
26.1379 1160.00
26.2031 1147.00
26.2683 1211.00
26.3335 1133.00
26.3987 1150.00
26.4639 1090.00
26.5291 1131.00
26.5943 1100.00
26.6595 1129.00
26.7247 1125.00
26.7899 1080.00
26.8551 1171.00
26.9203 1134.00
26.9855 1195.00
27.0507 1198.00
27.1159 1216.00
27.1811 1168.00
27.2463 1226.00
27.3115 1263.00
27.3767 1364.00
27.4419 1644.00
27.5071 2168.00
27.5723 2859.00
27.6375 3641.00
27.7027 4078.00
27.7679 3891.00
27.8331 3155.00
27.8983 2254.00
27.9635 1764.00
28.0287 1624.00
28.0939 1639.00
28.1591 1874.00
28.2243 2178.00
28.2894 2345.00
28.3546 2444.00
28.4198 2268.00
28.485 1965.00
28.5502 1650.00
28.6154 1359.00
28.6806 1219.00
28.7458 1129.00
28.811 1108.00
28.8762 1133.00
28.9414 1100.00
29.0066 1085.00
29.0718 1045.00
29.137 1053.00
29.2022 1122.00
29.2674 1075.00
29.3326 985.00
29.3978 1006.00
29.463 1127.00
29.5282 1038.00
29.5934 1138.00
29.6586 1124.00
29.7238 1149.00
29.789 1193.00
29.8542 1185.00
29.9194 1234.00
29.9846 1146.00
30.0498 1158.00
30.115 1239.00
30.1802 1375.00
30.2454 1581.00
30.3106 1964.00
30.3758 2196.00
30.441 2409.00
30.5062 2385.00
30.5714 2462.00
30.6366 2830.00
30.7018 3356.00
30.767 4332.00
30.8322 5495.00
30.8974 6205.00
30.9626 6498.00
31.0278 5793.00
31.093 4472.00
31.1582 3133.00
31.2234 2264.00
31.2886 1727.00
31.3538 1626.00
31.419 1710.00
31.4842 1816.00
31.5494 2091.00
31.6146 2155.00
31.6798 2037.00
31.745 2027.00
31.8102 1586.00
31.8754 1411.00
31.9406 1229.00
32.0058 1097.00
32.071 1002.00
32.1362 1044.00
32.2014 1043.00
32.2666 1052.00
32.3318 1031.00
32.397 1009.00
32.4622 971.00
32.5274 950.00
32.5926 964.00
32.6578 995.00
32.723 951.00
32.7882 986.00
32.8534 941.00
32.9186 946.00
32.9838 967.00
33.0489 1006.00
33.1141 1013.00
33.1793 943.00
33.2445 1009.00
33.3097 996.00
33.3749 1062.00
33.4401 1040.00
33.5053 1026.00
33.5705 1012.00
33.6357 1069.00
33.7009 1100.00
33.7661 1188.00
33.8313 1333.00
33.8965 1611.00
33.9617 2069.00
34.0269 2887.00
34.0921 4101.00
34.1573 5489.00
34.2225 6498.00
34.2877 6686.00
34.3529 5847.00
34.4181 4557.00
34.4833 3324.00
34.5485 2278.00
34.6137 1749.00
34.6789 1531.00
34.7441 1386.00
34.8093 1278.00
34.8745 1150.00
34.9397 1029.00
35.0049 980.00
35.0701 1019.00
35.1353 999.00
35.2005 1028.00
35.2657 1089.00
35.3309 1225.00
35.3961 1320.00
35.4613 1294.00
35.5265 1306.00
35.5917 1252.00
35.6569 1161.00
35.7221 1062.00
35.7873 1012.00
35.8525 996.00
35.9177 1000.00
35.9829 995.00
36.0481 1006.00
36.1133 1014.00
36.1785 1023.00
36.2437 968.00
36.3089 890.00
36.3741 858.00
36.4393 862.00
36.5045 894.00
36.5697 867.00
36.6349 897.00
36.7001 894.00
36.7653 857.00
36.8305 839.00
36.8957 842.00
36.9609 822.00
37.0261 844.00
37.0913 817.00
37.1565 845.00
37.2217 819.00
37.2869 862.00
37.3521 915.00
37.4173 871.00
37.4825 826.00
37.5477 851.00
37.6129 881.00
37.6781 845.00
37.7433 833.00
37.8085 833.00
37.8736 887.00
37.9388 837.00
38.004 862.00
38.0692 891.00
38.1344 771.00
38.1996 793.00
38.2648 915.00
38.33 824.00
38.3952 811.00
38.4604 871.00
38.5256 912.00
38.5908 904.00
38.656 919.00
38.7212 903.00
38.7864 975.00
38.8516 964.00
38.9168 1007.00
38.982 929.00
39.0472 897.00
39.1124 913.00
39.1776 968.00
39.2428 1005.00
39.308 1035.00
39.3732 1097.00
39.4384 1082.00
39.5036 1057.00
39.5688 1092.00
39.634 1000.00
39.6992 1064.00
39.7644 1066.00
39.8296 1047.00
39.8948 991.00
39.96 956.00
40.0252 894.00
40.0904 850.00
40.1556 858.00
40.2208 799.00
40.286 808.00
40.3512 886.00
40.4164 820.00
40.4816 849.00
40.5468 801.00
40.612 839.00
40.6772 869.00
40.7424 914.00
40.8076 926.00
40.8728 968.00
40.938 995.00
41.0032 991.00
41.0684 1080.00
41.1336 1094.00
41.1988 1061.00
41.264 1089.00
41.3292 1144.00
41.3944 1197.00
41.4596 1353.00
41.5248 1527.00
41.59 1566.00
41.6552 1520.00
41.7204 1537.00
41.7856 1517.00
41.8508 1353.00
41.916 1319.00
41.9812 1287.00
42.0464 1249.00
42.1116 1335.00
42.1768 1238.00
42.242 1163.00
42.3072 1044.00
42.3724 1061.00
42.4376 1011.00
42.5028 849.00
42.568 832.00
42.6332 809.00
42.6983 818.00
42.7635 802.00
42.8287 753.00
42.8939 782.00
42.9591 741.00
43.0243 833.00
43.0895 771.00
43.1547 765.00
43.2199 801.00
43.2851 770.00
43.3503 728.00
43.4155 850.00
43.4807 760.00
43.5459 750.00
43.6111 759.00
43.6763 800.00
43.7415 736.00
43.8067 802.00
43.8719 805.00
43.9371 807.00
44.0023 910.00
44.0675 992.00
44.1327 989.00
44.1979 1214.00
44.2631 1441.00
44.3283 1540.00
44.3935 1768.00
44.4587 1955.00
44.5239 1997.00
44.5891 2120.00
44.6543 2008.00
44.7195 1781.00
44.7847 1512.00
44.8499 1167.00
44.9151 1084.00
44.9803 933.00
45.0455 919.00
45.1107 898.00
45.1759 891.00
45.2411 863.00
45.3063 881.00
45.3715 865.00
45.4367 863.00
45.5019 894.00
45.5671 874.00
45.6323 862.00
45.6975 900.00
45.7627 881.00
45.8279 923.00
45.8931 817.00
45.9583 874.00
46.0235 861.00
46.0887 939.00
46.1539 1020.00
46.2191 1081.00
46.2843 1235.00
46.3495 1242.00
46.4147 1370.00
46.4799 1577.00
46.5451 1781.00
46.6103 1973.00
46.6755 2365.00
46.7407 2670.00
46.8059 2935.00
46.8711 2899.00
46.9363 2474.00
47.0015 2127.00
47.0667 1619.00
47.1319 1378.00
47.1971 1109.00
47.2623 1002.00
47.3275 889.00
47.3927 861.00
47.4579 869.00
47.523 825.00
47.5882 846.00
47.6534 824.00
47.7186 820.00
47.7838 783.00
47.849 803.00
47.9142 752.00
47.9794 795.00
48.0446 774.00
48.1098 785.00
48.175 800.00
48.2402 833.00
48.3054 818.00
48.3706 825.00
48.4358 797.00
48.501 871.00
48.5662 863.00
48.6314 858.00
48.6966 862.00
48.7618 839.00
48.827 828.00
48.8922 772.00
48.9574 868.00
49.0226 948.00
49.0878 1005.00
49.153 1032.00
49.2182 1029.00
49.2834 1100.00
49.3486 1105.00
49.4138 1074.00
49.479 1114.00
49.5442 1094.00
49.6094 1045.00
49.6746 937.00
49.7398 957.00
49.805 877.00
49.8702 841.00
49.9354 782.00
50.0006 821.00
50.0658 809.00
50.131 856.00
50.1962 922.00
50.2614 992.00
50.3266 1214.00
50.3918 1224.00
50.457 1553.00
50.5222 1574.00
50.5874 1684.00
50.6526 1869.00
50.7178 1924.00
50.783 2096.00
50.8482 2271.00
50.9134 2141.00
50.9786 2065.00
51.0438 1912.00
51.109 1722.00
51.1742 1417.00
51.2394 1172.00
51.3046 1094.00
51.3698 914.00
51.435 865.00
51.5002 845.00
51.5654 891.00
51.6306 843.00
51.6958 827.00
51.761 768.00
51.8262 783.00
51.8914 761.00
51.9566 724.00
52.0218 720.00
52.087 685.00
52.1522 709.00
52.2174 785.00
52.2826 685.00
52.3477 706.00
52.4129 716.00
52.4781 754.00
52.5433 710.00
52.6085 735.00
52.6737 721.00
52.7389 768.00
52.8041 791.00
52.8693 782.00
52.9345 897.00
52.9997 905.00
53.0649 1053.00
53.1301 1232.00
53.1953 1520.00
53.2605 1717.00
53.3257 2080.00
53.3909 2253.00
53.4561 2414.00
53.5213 2383.00
53.5865 2106.00
53.6517 1661.00
53.7169 1447.00
53.7821 1243.00
53.8473 972.00
53.9125 920.00
53.9777 921.00
54.0429 821.00
54.1081 919.00
54.1733 821.00
54.2385 873.00
54.3037 884.00
54.3689 902.00
54.4341 881.00
54.4993 818.00
54.5645 775.00
54.6297 758.00
54.6949 737.00
54.7601 786.00
54.8253 820.00
54.8905 798.00
54.9557 858.00
55.0209 800.00
55.0861 788.00
55.1513 771.00
55.2165 767.00
55.2817 817.00
55.3469 815.00
55.4121 842.00
55.4773 832.00
55.5425 821.00
55.6077 943.00
55.6729 916.00
55.7381 898.00
55.8033 876.00
55.8685 881.00
55.9337 877.00
55.9989 754.00
56.0641 812.00
56.1293 812.00
56.1945 781.00
56.2597 757.00
56.3249 835.00
56.3901 812.00
56.4553 803.00
56.5205 731.00
56.5857 781.00
56.6509 675.00
56.7161 699.00
56.7813 695.00
56.8465 686.00
56.9117 756.00
56.9769 790.00
57.042 703.00
57.1073 760.00
57.1724 884.00
57.2376 794.00
57.3028 809.00
57.368 828.00
57.4332 816.00
57.4984 795.00
57.5636 765.00
57.6288 799.00
57.694 772.00
57.7592 735.00
57.8244 770.00
57.8896 737.00
57.9548 695.00
58.02 715.00
58.0852 789.00
58.1504 848.00
58.2156 846.00
58.2808 818.00
58.346 942.00
58.4112 976.00
58.4764 942.00
58.5416 998.00
58.6068 1080.00
58.672 1181.00
58.7372 1204.00
58.8024 1374.00
58.8676 1432.00
58.9328 1604.00
58.998 1783.00
59.0632 1865.00
59.1284 1982.00
59.1936 2170.00
59.2588 2151.00
59.324 2004.00
59.3892 1859.00
59.4544 1613.00
59.5196 1320.00
59.5848 1130.00
59.65 989.00
59.7152 912.00
59.7804 885.00
59.8456 841.00
59.9108 806.00
59.976 814.00
60.0412 894.00
60.1064 858.00
60.1716 953.00
60.2368 981.00
60.302 993.00
60.3672 996.00
60.4324 1005.00
60.4976 941.00
60.5628 1027.00
60.628 982.00
60.6932 1001.00
60.7584 1040.00
60.8236 1025.00
60.8888 1001.00
60.954 1020.00
61.0192 1034.00
61.0844 1153.00
61.1496 1233.00
61.2148 1361.00
61.28 1434.00
61.3452 1503.00
61.4104 1510.00
61.4756 1419.00
61.5408 1255.00
61.606 1123.00
61.6712 1041.00
61.7364 949.00
61.8016 904.00
61.8667 887.00
61.932 887.00
61.9971 970.00
62.0623 954.00
62.1275 953.00
62.1927 1019.00
62.2579 1021.00
62.3231 1011.00
62.3883 996.00
62.4535 1049.00
62.5187 1067.00
62.5839 1039.00
62.6491 1048.00
62.7143 1063.00
62.7795 1060.00
62.8447 1000.00
62.9099 995.00
62.9751 914.00
63.0403 972.00
63.1055 887.00
63.1707 873.00
63.2359 854.00
63.3011 819.00
63.3663 836.00
63.4315 756.00
63.4967 680.00
63.5619 643.00
63.6271 660.00
63.6923 724.00
63.7575 679.00
63.8227 709.00
63.8879 655.00
63.9531 669.00
64.0183 644.00
64.0835 679.00
64.1487 656.00
64.2139 625.00
64.2791 675.00
64.3443 644.00
64.4095 716.00
64.4747 712.00
64.5399 683.00
64.6051 720.00
64.6703 759.00
64.7355 782.00
64.8007 827.00
64.8659 927.00
64.9311 919.00
64.9963 936.00
65.0615 929.00
65.1267 964.00
65.1919 863.00
65.2571 868.00
65.3223 846.00
65.3875 798.00
65.4527 828.00
65.5179 830.00
65.5831 816.00
65.6483 828.00
65.7135 873.00
65.7787 909.00
65.8439 937.00
65.9091 1010.00
65.9743 1047.00
66.0395 1049.00
66.1047 1130.00
66.1699 1169.00
66.2351 1276.00
66.3003 1183.00
66.3655 1280.00
66.4307 1275.00
66.4959 1186.00
66.561 1121.00
66.6263 1074.00
66.6915 1006.00
66.7566 899.00
66.8218 864.00
66.887 783.00
66.9522 759.00
67.0174 697.00
67.0826 775.00
67.1478 701.00
67.213 679.00
67.2782 678.00
67.3434 706.00
67.4086 674.00
67.4738 622.00
67.539 655.00
67.6042 671.00
67.6694 659.00
67.7346 668.00
67.7998 656.00
67.865 673.00
67.9302 684.00
67.9954 656.00
68.0606 687.00
68.1258 665.00
68.191 664.00
68.2562 685.00
68.3214 800.00
68.3866 828.00
68.4518 881.00
68.517 984.00
68.5822 1013.00
68.6474 983.00
68.7126 909.00
68.7778 829.00
68.843 887.00
68.9082 850.00
68.9734 750.00
69.0386 750.00
69.1038 680.00
69.169 641.00
69.2342 682.00
69.2994 666.00
69.3646 653.00
69.4298 676.00
69.495 663.00
69.5602 688.00
69.6254 720.00
69.6906 673.00
69.7558 661.00
69.821 730.00
69.8862 661.00
69.9514 715.00
70.0166 632.00
70.0818 640.00
70.147 648.00
70.2122 642.00
70.2774 610.00
70.3426 628.00
70.4078 614.00
70.473 613.00
70.5382 595.00
70.6034 619.00
70.6686 641.00
70.7338 600.00
70.799 592.00
70.8642 675.00
70.9294 592.00
70.9946 609.00
71.0598 626.00
71.125 648.00
71.1902 689.00
71.2554 668.00
71.3205 659.00
71.3858 745.00
71.451 683.00
71.5162 726.00
71.5813 690.00
71.6465 726.00
71.7117 773.00
71.7769 778.00
71.8421 776.00
71.9073 823.00
71.9725 910.00
72.0377 978.00
72.1029 1004.00
72.1681 1032.00
72.2333 1097.00
72.2985 988.00
72.3637 975.00
72.4289 931.00
72.4941 851.00
72.5593 844.00
72.6245 807.00
72.6897 774.00
72.7549 788.00
72.8201 785.00
72.8853 796.00
72.9505 780.00
73.0157 804.00
73.0809 864.00
73.1461 835.00
73.2113 838.00
73.2765 809.00
73.3417 847.00
73.4069 757.00
73.4721 777.00
73.5373 688.00
73.6025 720.00
73.6677 718.00
73.7329 720.00
73.7981 719.00
73.8633 661.00
73.9285 734.00
73.9937 722.00
74.0589 667.00
74.1241 622.00
74.1893 637.00
74.2545 705.00
74.3197 675.00
74.3849 668.00
74.4501 657.00
74.5153 669.00
74.5805 672.00
74.6457 714.00
74.7109 626.00
74.7761 695.00
74.8413 665.00
74.9065 658.00
74.9717 731.00
75.0369 669.00
75.1021 695.00
75.1673 722.00
75.2325 699.00
75.2977 736.00
75.3629 769.00
75.4281 808.00
75.4933 813.00
75.5585 888.00
75.6237 911.00
75.6889 877.00
75.7541 851.00
75.8193 865.00
75.8845 793.00
75.9497 735.00
76.0149 744.00
76.0801 703.00
76.1452 720.00
76.2104 686.00
76.2756 678.00
76.3409 749.00
76.406 723.00
76.4712 688.00
76.5364 694.00
76.6016 713.00
76.6668 785.00
76.732 737.00
76.7972 776.00
76.8624 830.00
76.9276 773.00
76.9928 800.00
77.058 787.00
77.1232 766.00
77.1884 735.00
77.2536 686.00
77.3188 689.00
77.384 668.00
77.4492 664.00
77.5144 621.00
77.5796 608.00
77.6448 623.00
77.71 642.00
77.7752 608.00
77.8404 627.00
77.9056 597.00
77.9708 636.00
78.036 592.00
78.1012 599.00
78.1664 628.00
78.2316 536.00
78.2968 598.00
78.362 631.00
78.4272 600.00
78.4924 616.00
78.5576 586.00
78.6228 616.00
78.688 595.00
78.7532 586.00
78.8184 606.00
78.8836 582.00
78.9488 610.00
79.014 581.00
79.0792 634.00
79.1444 598.00
79.2096 668.00
79.2748 657.00
79.34 655.00
79.4052 647.00
79.4704 683.00
79.5356 696.00
79.6008 663.00
79.666 768.00
79.7312 752.00
79.7964 752.00
79.8616 716.00
79.9268 771.00
79.992 769.00
80.0572 807.00
80.1224 780.00
80.1876 847.00
80.2528 847.00
80.318 875.00
80.3832 929.00
80.4484 951.00
80.5136 928.00
80.5788 946.00
80.644 895.00
80.7092 853.00
80.7744 797.00
80.8396 814.00
80.9048 728.00
80.9699 736.00
81.0351 718.00
81.1003 678.00
81.1655 635.00
81.2307 699.00
81.2959 608.00
81.3611 622.00
81.4263 635.00
81.4915 662.00
81.5567 669.00
81.6219 700.00
81.6871 728.00
81.7523 694.00
81.8175 690.00
81.8827 753.00
81.9479 756.00
82.0131 786.00
82.0783 805.00
82.1435 736.00
82.2087 799.00
82.2739 780.00
82.3391 768.00
82.4043 800.00
82.4695 761.00
82.5347 757.00
82.5999 697.00
82.6651 671.00
82.7303 716.00
82.7955 718.00
82.8607 693.00
82.9259 693.00
82.9911 673.00
83.0563 698.00
83.1215 724.00
83.1867 670.00
83.2519 684.00
83.3171 670.00
83.3823 675.00
83.4475 669.00
83.5127 649.00
83.5779 641.00
83.6431 626.00
83.7083 630.00
83.7735 670.00
83.8387 635.00
83.9039 645.00
83.9691 624.00
84.0343 646.00
84.0995 607.00
84.1647 585.00
84.2299 626.00
84.2951 618.00
84.3603 657.00
84.4255 623.00
84.4907 620.00
84.5559 612.00
84.6211 616.00
84.6863 617.00
84.7515 676.00
84.8167 589.00
84.8819 610.00
84.9471 613.00
85.0123 580.00
85.0775 665.00
85.1427 673.00
85.2079 629.00
85.2731 608.00
85.3383 614.00
85.4035 617.00
85.4687 643.00
85.5339 676.00
85.5991 644.00
85.6643 685.00
85.7295 690.00
85.7946 691.00
85.8598 667.00
85.925 720.00
85.9903 680.00
86.0554 719.00
86.1206 700.00
86.1858 694.00
86.251 727.00
86.3162 747.00
86.3814 743.00
86.4466 780.00
86.5118 776.00
86.577 808.00
86.6422 811.00
86.7074 790.00
86.7726 822.00
86.8378 872.00
86.903 900.00
86.9682 874.00
87.0334 913.00
87.0986 899.00
87.1638 887.00
87.229 830.00
87.2942 768.00
87.3594 764.00
87.4246 797.00
87.4898 753.00
87.555 732.00
87.6202 722.00
87.6854 713.00
87.7506 738.00
87.8158 717.00
87.881 686.00
87.9462 683.00
88.0114 703.00
88.0766 649.00
88.1418 636.00
88.207 711.00
88.2722 661.00
88.3374 701.00
88.4026 670.00
88.4678 681.00
88.533 698.00
88.5982 722.00
88.6634 679.00
88.7286 661.00
88.7938 708.00
88.859 684.00
88.9242 710.00
88.9894 692.00
89.0546 709.00
89.1198 694.00
89.185 679.00
89.2502 674.00
89.3154 681.00
89.3806 632.00
89.4458 685.00
89.511 657.00
89.5762 718.00
89.6414 772.00
89.7066 695.00
89.7718 658.00
89.837 704.00
89.9022 678.00
89.9674 670.00
90.0326 734.00
90.0978 744.00
90.163 722.00
90.2282 740.00
90.2934 782.00
90.3586 738.00
90.4238 746.00
90.489 754.00
90.5542 736.00
90.6193 748.00
90.6845 723.00
90.7497 682.00
90.8149 665.00
90.8801 625.00
90.9453 681.00
91.0105 631.00
91.0757 634.00
91.1409 639.00
91.2061 606.00
91.2713 651.00
91.3365 617.00
91.4017 622.00
91.4669 634.00
91.5321 612.00
91.5973 587.00
91.6625 612.00
91.7277 610.00
91.7929 670.00
91.8581 663.00
91.9233 675.00
91.9885 686.00
92.0537 680.00
92.1189 695.00
92.1841 698.00
92.2493 728.00
92.3145 622.00
92.3797 652.00
92.4449 689.00
92.5101 652.00
92.5753 669.00
92.6405 694.00
92.7057 625.00
92.7709 651.00
92.8361 702.00
92.9013 707.00
92.9665 700.00
93.0317 698.00
93.0969 723.00
93.1621 671.00
93.2273 761.00
93.2925 806.00
93.3577 785.00
93.4229 805.00
93.4881 743.00
93.5533 771.00
93.6185 863.00
93.6837 759.00
93.7489 744.00
93.8141 755.00
93.8793 677.00
93.9445 701.00
94.0097 721.00
94.0749 662.00
94.1401 699.00
94.2053 627.00
94.2705 626.00
94.3357 646.00
94.4009 678.00
94.4661 633.00
94.5313 607.00
94.5965 680.00
94.6617 689.00
94.7269 632.00
94.7921 626.00
94.8573 630.00
94.9225 688.00
94.9877 681.00
95.0529 655.00
95.1181 609.00
95.1833 689.00
95.2485 723.00
95.3137 727.00
95.3789 680.00
95.444 667.00
95.5092 678.00
95.5744 711.00
95.6396 713.00
95.7048 700.00
95.77 710.00
95.8352 684.00
95.9004 692.00
95.9656 631.00
96.0308 689.00
96.096 624.00
96.1612 678.00
96.2264 642.00
96.2916 602.00
96.3568 623.00
96.422 608.00
96.4872 609.00
96.5524 603.00
96.6176 644.00
96.6828 591.00
96.748 614.00
96.8132 646.00
96.8784 611.00
96.9436 618.00
97.0088 595.00
97.074 606.00
97.1392 615.00
97.2044 588.00
97.2696 631.00
97.3348 590.00
97.4 667.00
97.4652 715.00
97.5304 668.00
97.5956 696.00
97.6608 683.00
97.726 612.00
97.7912 651.00
97.8564 632.00
97.9216 624.00
97.9868 662.00
98.052 633.00
98.1172 602.00
98.1824 578.00
98.2476 634.00
98.3128 626.00
98.378 568.00
98.4432 549.00
98.5084 581.00
98.5736 618.00
98.6388 578.00
98.704 642.00
98.7692 616.00
98.8344 681.00
98.8996 589.00
98.9648 629.00
99.03 676.00
99.0952 588.00
99.1604 703.00
99.2256 727.00
99.2908 693.00
99.356 691.00
99.4212 628.00
99.4864 654.00
99.5516 764.00
99.6168 770.00
99.682 718.00
99.7472 776.00
99.8124 811.00
99.8776 810.00
99.9428 854.00
100.008 831.00
100.073 893.00
100.095 858.00