File: data/xrd_creation/results/NSC_206.xy
9.903433 2709.00
9.968632 2657.00
10.0338 2677.00
10.099 2628.00
10.1642 2523.00
10.2294 2528.00
10.2946 2649.00
10.3598 2628.00
10.425 2528.00
10.4902 2505.00
10.5554 2602.00
10.6206 2514.00
10.6858 2583.00
10.751 2588.00
10.8162 2358.00
10.8814 2363.00
10.9466 2380.00
11.0118 2417.00
11.077 2388.00
11.1422 2371.00
11.2074 2363.00
11.2726 2364.00
11.3378 2295.00
11.403 2271.00
11.4682 2279.00
11.5334 2275.00
11.5986 2183.00
11.6638 2222.00
11.729 2215.00
11.7942 2198.00
11.8594 2276.00
11.9246 2212.00
11.9898 2168.00
12.055 2159.00
12.1202 2072.00
12.1854 2156.00
12.2506 2113.00
12.3158 2038.00
12.381 2119.00
12.4462 2086.00
12.5114 2023.00
12.5766 2045.00
12.6418 1993.00
12.707 2056.00
12.7722 2009.00
12.8374 1961.00
12.9026 1993.00
12.9678 1884.00
13.033 2104.00
13.0982 1865.00
13.1634 1928.00
13.2286 1942.00
13.2938 1929.00
13.359 1941.00
13.4242 1922.00
13.4894 1995.00
13.5546 1981.00
13.6198 2007.00
13.685 2053.00
13.7502 2152.00
13.8154 2290.00
13.8805 2205.00
13.9457 2002.00
14.0109 1963.00
14.0761 1873.00
14.1413 1865.00
14.2065 1929.00
14.2717 1936.00
14.3369 1896.00
14.4021 1835.00
14.4673 1927.00
14.5325 1854.00
14.5977 1982.00
14.6629 2088.00
14.7281 2150.00
14.7933 2074.00
14.8585 1920.00
14.9237 2012.00
14.9889 1846.00
15.0541 1703.00
15.1193 1800.00
15.1845 1669.00
15.2497 1654.00
15.3149 1697.00
15.3801 1686.00
15.4453 1724.00
15.5105 1692.00
15.5757 1636.00
15.6409 1620.00
15.7061 1661.00
15.7713 1639.00
15.8365 1666.00
15.9017 1622.00
15.9669 1750.00
16.0321 1627.00
16.0973 1691.00
16.1625 1599.00
16.2277 1622.00
16.2929 1642.00
16.3581 1656.00
16.4233 1617.00
16.4885 1602.00
16.5537 1576.00
16.6189 1598.00
16.6841 1742.00
16.7493 1640.00
16.8145 1630.00
16.8797 1674.00
16.9449 1674.00
17.0101 1618.00
17.0753 1620.00
17.1405 1580.00
17.2057 1576.00
17.2709 1555.00
17.3361 1581.00
17.4013 1610.00
17.4665 1649.00
17.5317 1615.00
17.5969 1629.00
17.6621 1575.00
17.7273 1547.00
17.7925 1485.00
17.8577 1526.00
17.9229 1555.00
17.9881 1470.00
18.0533 1522.00
18.1185 1527.00
18.1837 1564.00
18.2489 1485.00
18.3141 1421.00
18.3793 1490.00
18.4445 1382.00
18.5097 1421.00
18.5749 1547.00
18.6401 1484.00
18.7052 1395.00
18.7704 1484.00
18.8356 1405.00
18.9008 1448.00
18.966 1438.00
19.0312 1531.00
19.0964 1617.00
19.1616 1697.00
19.2268 1954.00
19.292 2276.00
19.3572 2807.00
19.4224 3526.00
19.4876 4148.00
19.5528 4689.00
19.618 4472.00
19.6832 3857.00
19.7484 2949.00
19.8136 2147.00
19.8788 1777.00
19.944 1580.00
20.0092 1467.00
20.0744 1431.00
20.1396 1548.00
20.2048 1559.00
20.27 1544.00
20.3352 1468.00
20.4004 1543.00
20.4656 1484.00
20.5308 1468.00
20.596 1661.00
20.6612 1781.00
20.7264 1822.00
20.7916 1875.00
20.8568 1770.00
20.922 1644.00
20.9872 1549.00
21.0524 1618.00
21.1176 1725.00
21.1828 1754.00
21.248 1784.00
21.3132 1852.00
21.3784 1821.00
21.4436 1784.00
21.5088 1692.00
21.574 1589.00
21.6392 1566.00
21.7044 1472.00
21.7696 1407.00
21.8348 1312.00
21.9 1395.00
21.9652 1296.00
22.0304 1323.00
22.0956 1376.00
22.1608 1500.00
22.226 1628.00
22.2912 1921.00
22.3564 1977.00
22.4216 2315.00
22.4868 2322.00
22.552 2022.00
22.6172 1792.00
22.6824 1546.00
22.7476 1430.00
22.8128 1571.00
22.878 1861.00
22.9432 1997.00
23.0084 2120.00
23.0736 2033.00
23.1388 1782.00
23.204 1538.00
23.2692 1332.00
23.3344 1305.00
23.3996 1209.00
23.4647 1256.00
23.5299 1312.00
23.5951 1212.00
23.6603 1226.00
23.7255 1296.00
23.7907 1346.00
23.8559 1342.00
23.9211 1388.00
23.9863 1572.00
24.0515 1596.00
24.1167 1671.00
24.1819 1606.00
24.2471 1543.00
24.3123 1447.00
24.3775 1366.00
24.4427 1377.00
24.5079 1386.00
24.5731 1444.00
24.6383 1465.00
24.7035 1403.00
24.7687 1262.00
24.8339 1251.00
24.8991 1254.00
24.9643 1215.00
25.0295 1200.00
25.0947 1173.00
25.1599 1142.00
25.2251 1116.00
25.2903 1178.00
25.3555 1081.00
25.4207 1134.00
25.4859 1113.00
25.5511 1158.00
25.6163 1149.00
25.6815 1200.00
25.7467 1100.00
25.8119 1268.00
25.8771 1235.00
25.9423 1172.00
26.0075 1165.00
26.0727 1149.00
26.1379 1185.00
26.2031 1152.00
26.2683 1132.00
26.3335 1190.00
26.3987 1093.00
26.4639 1144.00
26.5291 1060.00
26.5943 1196.00
26.6595 1152.00
26.7247 1152.00
26.7899 1114.00
26.8551 1123.00
26.9203 1070.00
26.9855 1148.00
27.0507 1102.00
27.1159 1147.00
27.1811 1161.00
27.2463 1213.00
27.3115 1265.00
27.3767 1361.00
27.4419 1534.00
27.5071 1625.00
27.5723 1680.00
27.6375 1927.00
27.7027 2108.00
27.7679 2549.00
27.8331 2535.00
27.8983 2324.00
27.9635 1903.00
28.0287 1715.00
28.0939 1732.00
28.1591 1900.00
28.2243 2366.00
28.2894 2700.00
28.3546 2774.00
28.4198 2951.00
28.485 2569.00
28.5502 2174.00
28.6154 1677.00
28.6806 1459.00
28.7458 1326.00
28.811 1161.00
28.8762 1150.00
28.9414 1073.00
29.0066 1114.00
29.0718 1056.00
29.137 1067.00
29.2022 1074.00
29.2674 1186.00
29.3326 1091.00
29.3978 1048.00
29.463 1103.00
29.5282 1146.00
29.5934 1107.00
29.6586 1093.00
29.7238 1139.00
29.789 1035.00
29.8542 1091.00
29.9194 1131.00
29.9846 1158.00
30.0498 1099.00
30.115 1150.00
30.1802 1290.00
30.2454 1311.00
30.3106 1395.00
30.3758 1501.00
30.441 1721.00
30.5062 1701.00
30.5714 1701.00
30.6366 1624.00
30.7018 1705.00
30.767 2021.00
30.8322 2393.00
30.8974 3068.00
30.9626 3586.00
31.0278 3914.00
31.093 4232.00
31.1582 3797.00
31.2234 3230.00
31.2886 2506.00
31.3538 2082.00
31.419 1871.00
31.4842 1911.00
31.5494 2158.00
31.6146 2431.00
31.6798 2435.00
31.745 2312.00
31.8102 2086.00
31.8754 1638.00
31.9406 1317.00
32.0058 1218.00
32.071 1284.00
32.1362 1248.00
32.2014 1170.00
32.2666 1105.00
32.3318 1096.00
32.397 1064.00
32.4622 1133.00
32.5274 1041.00
32.5926 1053.00
32.6578 1023.00
32.723 1066.00
32.7882 1080.00
32.8534 1126.00
32.9186 1186.00
32.9838 1242.00
33.0489 1323.00
33.1141 1394.00
33.1793 1493.00
33.2445 1492.00
33.3097 1449.00
33.3749 1457.00
33.4401 1357.00
33.5053 1312.00
33.5705 1290.00
33.6357 1397.00
33.7009 1359.00
33.7661 1357.00
33.8313 1331.00
33.8965 1458.00
33.9617 1629.00
34.0269 2110.00
34.0921 2749.00
34.1573 3992.00
34.2225 4754.00
34.2877 5024.00
34.3529 4818.00
34.4181 3991.00
34.4833 2872.00
34.5485 2097.00
34.6137 1727.00
34.6789 1621.00
34.7441 1514.00
34.8093 1344.00
34.8745 1181.00
34.9397 1076.00
35.0049 1030.00
35.0701 1001.00
35.1353 1070.00
35.2005 1025.00
35.2657 986.00
35.3309 1079.00
35.3961 1152.00
35.4613 1255.00
35.5265 1332.00
35.5917 1320.00
35.6569 1273.00
35.7221 1187.00
35.7873 1047.00
35.8525 1032.00
35.9177 1093.00
35.9829 1092.00
36.0481 1189.00
36.1133 1255.00
36.1785 1187.00
36.2437 1060.00
36.3089 951.00
36.3741 924.00
36.4393 881.00
36.5045 991.00
36.5697 959.00
36.6349 895.00
36.7001 953.00
36.7653 909.00
36.8305 909.00
36.8957 883.00
36.9609 970.00
37.0261 907.00
37.0913 863.00
37.1565 894.00
37.2217 932.00
37.2869 858.00
37.3521 896.00
37.4173 882.00
37.4825 873.00
37.5477 882.00
37.6129 895.00
37.6781 880.00
37.7433 866.00
37.8085 861.00
37.8736 804.00
37.9388 835.00
38.004 846.00
38.0692 827.00
38.1344 898.00
38.1996 843.00
38.2648 795.00
38.33 816.00
38.3952 831.00
38.4604 846.00
38.5256 871.00
38.5908 861.00
38.656 950.00
38.7212 933.00
38.7864 1003.00
38.8516 983.00
38.9168 991.00
38.982 954.00
39.0472 955.00
39.1124 922.00
39.1776 906.00
39.2428 914.00
39.308 944.00
39.3732 985.00
39.4384 975.00
39.5036 1013.00
39.5688 1023.00
39.634 967.00
39.6992 1055.00
39.7644 1114.00
39.8296 1040.00
39.8948 1024.00
39.96 971.00
40.0252 939.00
40.0904 933.00
40.1556 828.00
40.2208 895.00
40.286 837.00
40.3512 890.00
40.4164 822.00
40.4816 872.00
40.5468 886.00
40.612 878.00
40.6772 845.00
40.7424 958.00
40.8076 949.00
40.8728 1063.00
40.938 1086.00
41.0032 1235.00
41.0684 1189.00
41.1336 1254.00
41.1988 1262.00
41.264 1279.00
41.3292 1243.00
41.3944 1175.00
41.4596 1093.00
41.5248 1130.00
41.59 1204.00
41.6552 1292.00
41.7204 1355.00
41.7856 1323.00
41.8508 1354.00
41.916 1239.00
41.9812 1079.00
42.0464 980.00
42.1116 1021.00
42.1768 1045.00
42.242 1054.00
42.3072 984.00
42.3724 1006.00
42.4376 928.00
42.5028 850.00
42.568 861.00
42.6332 811.00
42.6983 775.00
42.7635 775.00
42.8287 799.00
42.8939 832.00
42.9591 845.00
43.0243 848.00
43.0895 890.00
43.1547 923.00
43.2199 897.00
43.2851 887.00
43.3503 1004.00
43.4155 990.00
43.4807 965.00
43.5459 960.00
43.6111 911.00
43.6763 923.00
43.7415 844.00
43.8067 808.00
43.8719 798.00
43.9371 860.00
44.0023 778.00
44.0675 878.00
44.1327 875.00
44.1979 859.00
44.2631 943.00
44.3283 976.00
44.3935 1077.00
44.4587 1182.00
44.5239 1322.00
44.5891 1498.00
44.6543 1596.00
44.7195 1668.00
44.7847 1675.00
44.8499 1465.00
44.9151 1246.00
44.9803 1101.00
45.0455 996.00
45.1107 1005.00
45.1759 943.00
45.2411 908.00
45.3063 861.00
45.3715 879.00
45.4367 925.00
45.5019 865.00
45.5671 918.00
45.6323 994.00
45.6975 947.00
45.7627 1022.00
45.8279 1061.00
45.8931 980.00
45.9583 943.00
46.0235 896.00
46.0887 851.00
46.1539 862.00
46.2191 912.00
46.2843 916.00
46.3495 922.00
46.4147 983.00
46.4799 1068.00
46.5451 1148.00
46.6103 1152.00
46.6755 1172.00
46.7407 1363.00
46.8059 1482.00
46.8711 1794.00
46.9363 2074.00
47.0015 2178.00
47.0667 2051.00
47.1319 1845.00
47.1971 1401.00
47.2623 1287.00
47.3275 1043.00
47.3927 1036.00
47.4579 932.00
47.523 878.00
47.5882 844.00
47.6534 862.00
47.7186 809.00
47.7838 812.00
47.849 766.00
47.9142 770.00
47.9794 822.00
48.0446 859.00
48.1098 789.00
48.175 878.00
48.2402 836.00
48.3054 827.00
48.3706 902.00
48.4358 843.00
48.501 860.00
48.5662 889.00
48.6314 880.00
48.6966 891.00
48.7618 915.00
48.827 917.00
48.8922 955.00
48.9574 944.00
49.0226 1097.00
49.0878 1150.00
49.153 1244.00
49.2182 1180.00
49.2834 1238.00
49.3486 1141.00
49.4138 1102.00
49.479 1185.00
49.5442 1149.00
49.6094 1154.00
49.6746 1116.00
49.7398 1047.00
49.805 996.00
49.8702 868.00
49.9354 874.00
50.0006 857.00
50.0658 834.00
50.131 912.00
50.1962 984.00
50.2614 948.00
50.3266 995.00
50.3918 1084.00
50.457 1228.00
50.5222 1204.00
50.5874 1355.00
50.6526 1351.00
50.7178 1341.00
50.783 1279.00
50.8482 1340.00
50.9134 1472.00
50.9786 1459.00
51.0438 1502.00
51.109 1463.00
51.1742 1411.00
51.2394 1328.00
51.3046 1345.00
51.3698 1261.00
51.435 1101.00
51.5002 1031.00
51.5654 1061.00
51.6306 1016.00
51.6958 960.00
51.761 974.00
51.8262 846.00
51.8914 873.00
51.9566 787.00
52.0218 837.00
52.087 786.00
52.1522 774.00
52.2174 852.00
52.2826 782.00
52.3477 808.00
52.4129 850.00
52.4781 869.00
52.5433 882.00
52.6085 856.00
52.6737 912.00
52.7389 864.00
52.8041 842.00
52.8693 815.00
52.9345 860.00
52.9997 838.00
53.0649 863.00
53.1301 876.00
53.1953 1020.00
53.2605 1032.00
53.3257 1196.00
53.3909 1341.00
53.4561 1548.00
53.5213 1747.00
53.5865 1741.00
53.6517 1685.00
53.7169 1511.00
53.7821 1322.00
53.8473 1165.00
53.9125 1105.00
53.9777 1006.00
54.0429 957.00
54.1081 999.00
54.1733 953.00
54.2385 1061.00
54.3037 1160.00
54.3689 1203.00
54.4341 1176.00
54.4993 1124.00
54.5645 1034.00
54.6297 920.00
54.6949 877.00
54.7601 833.00
54.8253 878.00
54.8905 843.00
54.9557 872.00
55.0209 878.00
55.0861 874.00
55.1513 943.00
55.2165 886.00
55.2817 876.00
55.3469 917.00
55.4121 894.00
55.4773 936.00
55.5425 953.00
55.6077 1009.00
55.6729 988.00
55.7381 1117.00
55.8033 1106.00
55.8685 995.00
55.9337 1024.00
55.9989 1018.00
56.0641 965.00
56.1293 964.00
56.1945 927.00
56.2597 943.00
56.3249 947.00
56.3901 909.00
56.4553 997.00
56.5205 927.00
56.5857 961.00
56.6509 923.00
56.7161 859.00
56.7813 812.00
56.8465 807.00
56.9117 732.00
56.9769 787.00
57.042 823.00
57.1073 758.00
57.1724 897.00
57.2376 851.00
57.3028 865.00
57.368 950.00
57.4332 1070.00
57.4984 1049.00
57.5636 1043.00
57.6288 1096.00
57.694 1081.00
57.7592 1032.00
57.8244 1017.00
57.8896 980.00
57.9548 944.00
58.02 890.00
58.0852 928.00
58.1504 872.00
58.2156 854.00
58.2808 966.00
58.346 969.00
58.4112 938.00
58.4764 981.00
58.5416 939.00
58.6068 957.00
58.672 937.00
58.7372 991.00
58.8024 906.00
58.8676 954.00
58.9328 982.00
58.998 1060.00
59.0632 1110.00
59.1284 1232.00
59.1936 1304.00
59.2588 1449.00
59.324 1560.00
59.3892 1696.00
59.4544 1677.00
59.5196 1587.00
59.5848 1481.00
59.65 1240.00
59.7152 1136.00
59.7804 1012.00
59.8456 952.00
59.9108 925.00
59.976 950.00
60.0412 929.00
60.1064 933.00
60.1716 943.00
60.2368 1012.00
60.302 1054.00
60.3672 1077.00
60.4324 1026.00
60.4976 1072.00
60.5628 1047.00
60.628 1031.00
60.6932 965.00
60.7584 989.00
60.8236 997.00
60.8888 935.00
60.954 973.00
61.0192 993.00
61.0844 1073.00
61.1496 1233.00
61.2148 1307.00
61.28 1325.00
61.3452 1457.00
61.4104 1364.00
61.4756 1292.00
61.5408 1311.00
61.606 1181.00
61.6712 1095.00
61.7364 1070.00
61.8016 941.00
61.8667 973.00
61.932 933.00
61.9971 901.00
62.0623 884.00
62.1275 860.00
62.1927 927.00
62.2579 902.00
62.3231 973.00
62.3883 963.00
62.4535 956.00
62.5187 985.00
62.5839 954.00
62.6491 1007.00
62.7143 969.00
62.7795 1014.00
62.8447 1085.00
62.9099 1068.00
62.9751 1074.00
63.0403 1088.00
63.1055 1096.00
63.1707 999.00
63.2359 1017.00
63.3011 991.00
63.3663 965.00
63.4315 886.00
63.4967 830.00
63.5619 777.00
63.6271 804.00
63.6923 731.00
63.7575 726.00
63.8227 784.00
63.8879 679.00
63.9531 752.00
64.0183 761.00
64.0835 766.00
64.1487 754.00
64.2139 812.00
64.2791 728.00
64.3443 737.00
64.4095 761.00
64.4747 754.00
64.5399 796.00
64.6051 765.00
64.6703 800.00
64.7355 853.00
64.8007 830.00
64.8659 876.00
64.9311 864.00
64.9963 944.00
65.0615 897.00
65.1267 928.00
65.1919 898.00
65.2571 840.00
65.3223 889.00
65.3875 819.00
65.4527 817.00
65.5179 854.00
65.5831 807.00
65.6483 835.00
65.7135 833.00
65.7787 838.00
65.8439 918.00
65.9091 972.00
65.9743 972.00
66.0395 992.00
66.1047 1002.00
66.1699 1118.00
66.2351 1060.00
66.3003 1053.00
66.3655 1140.00
66.4307 1094.00
66.4959 1119.00
66.561 1114.00
66.6263 1115.00
66.6915 1041.00
66.7566 1071.00
66.8218 958.00
66.887 936.00
66.9522 849.00
67.0174 852.00
67.0826 843.00
67.1478 768.00
67.213 794.00
67.2782 733.00
67.3434 698.00
67.4086 695.00
67.4738 687.00
67.539 685.00
67.6042 704.00
67.6694 697.00
67.7346 684.00
67.7998 660.00
67.865 709.00
67.9302 668.00
67.9954 650.00
68.0606 689.00
68.1258 702.00
68.191 713.00
68.2562 732.00
68.3214 718.00
68.3866 699.00
68.4518 771.00
68.517 823.00
68.5822 796.00
68.6474 821.00
68.7126 909.00
68.7778 890.00
68.843 916.00
68.9082 961.00
68.9734 885.00
69.0386 876.00
69.1038 783.00
69.169 782.00
69.2342 740.00
69.2994 731.00
69.3646 734.00
69.4298 712.00
69.495 730.00
69.5602 758.00
69.6254 738.00
69.6906 716.00
69.7558 755.00
69.821 750.00
69.8862 769.00
69.9514 724.00
70.0166 734.00
70.0818 729.00
70.147 727.00
70.2122 706.00
70.2774 670.00
70.3426 708.00
70.4078 804.00
70.473 696.00
70.5382 729.00
70.6034 657.00
70.6686 716.00
70.7338 693.00
70.799 708.00
70.8642 696.00
70.9294 700.00
70.9946 721.00
71.0598 772.00
71.125 700.00
71.1902 722.00
71.2554 753.00
71.3205 744.00
71.3858 766.00
71.451 781.00
71.5162 806.00
71.5813 798.00
71.6465 826.00
71.7117 879.00
71.7769 830.00
71.8421 881.00
71.9073 866.00
71.9725 934.00
72.0377 912.00
72.1029 936.00
72.1681 870.00
72.2333 978.00
72.2985 1034.00
72.3637 991.00
72.4289 965.00
72.4941 988.00
72.5593 876.00
72.6245 842.00
72.6897 811.00
72.7549 809.00
72.8201 729.00
72.8853 730.00
72.9505 785.00
73.0157 752.00
73.0809 708.00
73.1461 743.00
73.2113 778.00
73.2765 797.00
73.3417 802.00
73.4069 792.00
73.4721 775.00
73.5373 790.00
73.6025 859.00
73.6677 806.00
73.7329 828.00
73.7981 727.00
73.8633 717.00
73.9285 806.00
73.9937 789.00
74.0589 721.00
74.1241 742.00
74.1893 698.00
74.2545 698.00
74.3197 721.00
74.3849 705.00
74.4501 715.00
74.5153 655.00
74.5805 697.00
74.6457 714.00
74.7109 681.00
74.7761 710.00
74.8413 723.00
74.9065 706.00
74.9717 653.00
75.0369 704.00
75.1021 750.00
75.1673 717.00
75.2325 765.00
75.2977 732.00
75.3629 802.00
75.4281 746.00
75.4933 787.00
75.5585 800.00
75.6237 811.00
75.6889 882.00
75.7541 866.00
75.8193 863.00
75.8845 866.00
75.9497 883.00
76.0149 787.00
76.0801 781.00
76.1452 797.00
76.2104 734.00
76.2756 768.00
76.3409 680.00
76.406 768.00
76.4712 735.00
76.5364 718.00
76.6016 764.00
76.6668 747.00
76.732 741.00
76.7972 740.00
76.8624 716.00
76.9276 806.00
76.9928 784.00
77.058 753.00
77.1232 780.00
77.1884 838.00
77.2536 743.00
77.3188 787.00
77.384 707.00
77.4492 743.00
77.5144 714.00
77.5796 735.00
77.6448 639.00
77.71 717.00
77.7752 685.00
77.8404 635.00
77.9056 704.00
77.9708 688.00
78.036 683.00
78.1012 647.00
78.1664 687.00
78.2316 649.00
78.2968 670.00
78.362 613.00
78.4272 664.00
78.4924 648.00
78.5576 659.00
78.6228 647.00
78.688 647.00
78.7532 611.00
78.8184 670.00
78.8836 710.00
78.9488 649.00
79.014 660.00
79.0792 642.00
79.1444 656.00
79.2096 657.00
79.2748 659.00
79.34 652.00
79.4052 740.00
79.4704 718.00
79.5356 749.00
79.6008 646.00
79.666 728.00
79.7312 744.00
79.7964 697.00
79.8616 765.00
79.9268 669.00
79.992 713.00
80.0572 708.00
80.1224 747.00
80.1876 812.00
80.2528 738.00
80.318 774.00
80.3832 797.00
80.4484 888.00
80.5136 877.00
80.5788 869.00
80.644 815.00
80.7092 841.00
80.7744 909.00
80.8396 881.00
80.9048 827.00
80.9699 789.00
81.0351 790.00
81.1003 761.00
81.1655 678.00
81.2307 682.00
81.2959 679.00
81.3611 680.00
81.4263 700.00
81.4915 672.00
81.5567 660.00
81.6219 627.00
81.6871 616.00
81.7523 741.00
81.8175 682.00
81.8827 688.00
81.9479 717.00
82.0131 744.00
82.0783 782.00
82.1435 784.00
82.2087 816.00
82.2739 786.00
82.3391 779.00
82.4043 830.00
82.4695 809.00
82.5347 824.00
82.5999 798.00
82.6651 790.00
82.7303 732.00
82.7955 727.00
82.8607 717.00
82.9259 672.00
82.9911 659.00
83.0563 706.00
83.1215 680.00
83.1867 715.00
83.2519 722.00
83.3171 763.00
83.3823 735.00
83.4475 820.00
83.5127 727.00
83.5779 759.00
83.6431 734.00
83.7083 809.00
83.7735 794.00
83.8387 815.00
83.9039 705.00
83.9691 730.00
84.0343 715.00
84.0995 732.00
84.1647 705.00
84.2299 700.00
84.2951 712.00
84.3603 700.00
84.4255 719.00
84.4907 672.00
84.5559 697.00
84.6211 701.00
84.6863 681.00
84.7515 688.00
84.8167 774.00
84.8819 694.00
84.9471 709.00
85.0123 662.00
85.0775 688.00
85.1427 663.00
85.2079 635.00
85.2731 645.00
85.3383 665.00
85.4035 678.00
85.4687 682.00
85.5339 617.00
85.5991 698.00
85.6643 713.00
85.7295 742.00
85.7946 676.00
85.8598 695.00
85.925 698.00
85.9903 669.00
86.0554 650.00
86.1206 685.00
86.1858 683.00
86.251 719.00
86.3162 677.00
86.3814 661.00
86.4466 744.00
86.5118 688.00
86.577 656.00
86.6422 735.00
86.7074 689.00
86.7726 772.00
86.8378 803.00
86.903 747.00
86.9682 771.00
87.0334 780.00
87.0986 821.00
87.1638 866.00
87.229 842.00
87.2942 852.00
87.3594 793.00
87.4246 752.00
87.4898 833.00
87.555 789.00
87.6202 830.00
87.6854 686.00
87.7506 726.00
87.8158 732.00
87.881 707.00
87.9462 765.00
88.0114 755.00
88.0766 754.00
88.1418 761.00
88.207 832.00
88.2722 727.00
88.3374 731.00
88.4026 750.00
88.4678 736.00
88.533 756.00
88.5982 744.00
88.6634 743.00
88.7286 766.00
88.7938 768.00
88.859 707.00
88.9242 740.00
88.9894 763.00
89.0546 800.00
89.1198 807.00
89.185 766.00
89.2502 774.00
89.3154 724.00
89.3806 707.00
89.4458 701.00
89.511 799.00
89.5762 730.00
89.6414 740.00
89.7066 708.00
89.7718 763.00
89.837 714.00
89.9022 667.00
89.9674 681.00
90.0326 726.00
90.0978 747.00
90.163 748.00
90.2282 776.00
90.2934 751.00
90.3586 755.00
90.4238 800.00
90.489 803.00
90.5542 738.00
90.6193 813.00
90.6845 805.00
90.7497 811.00
90.8149 782.00
90.8801 776.00
90.9453 775.00
91.0105 739.00
91.0757 751.00
91.1409 688.00
91.2061 716.00
91.2713 742.00
91.3365 740.00
91.4017 720.00
91.4669 656.00
91.5321 680.00
91.5973 664.00
91.6625 726.00
91.7277 661.00
91.7929 666.00
91.8581 718.00
91.9233 646.00
91.9885 685.00
92.0537 735.00
92.1189 752.00
92.1841 743.00
92.2493 730.00
92.3145 759.00
92.3797 760.00
92.4449 758.00
92.5101 758.00
92.5753 688.00
92.6405 722.00
92.7057 667.00
92.7709 709.00
92.8361 635.00
92.9013 668.00
92.9665 611.00
93.0317 649.00
93.0969 670.00
93.1621 650.00
93.2273 652.00
93.2925 704.00
93.3577 710.00
93.4229 697.00
93.4881 706.00
93.5533 767.00
93.6185 752.00
93.6837 752.00
93.7489 750.00
93.8141 742.00
93.8793 759.00
93.9445 733.00
94.0097 698.00
94.0749 759.00
94.1401 709.00
94.2053 744.00
94.2705 741.00
94.3357 725.00
94.4009 688.00
94.4661 740.00
94.5313 739.00
94.5965 700.00
94.6617 725.00
94.7269 709.00
94.7921 697.00
94.8573 694.00
94.9225 721.00
94.9877 678.00
95.0529 676.00
95.1181 734.00
95.1833 740.00
95.2485 720.00
95.3137 714.00
95.3789 690.00
95.444 753.00
95.5092 797.00
95.5744 715.00
95.6396 758.00
95.7048 746.00
95.77 843.00
95.8352 779.00
95.9004 810.00
95.9656 780.00
96.0308 786.00
96.096 754.00
96.1612 746.00
96.2264 685.00
96.2916 748.00
96.3568 729.00
96.422 702.00
96.4872 686.00
96.5524 724.00
96.6176 699.00
96.6828 753.00
96.748 718.00
96.8132 710.00
96.8784 697.00
96.9436 709.00
97.0088 730.00
97.074 677.00
97.1392 723.00
97.2044 760.00
97.2696 728.00
97.3348 764.00
97.4 775.00
97.4652 808.00
97.5304 718.00
97.5956 760.00
97.6608 676.00
97.726 767.00
97.7912 788.00
97.8564 753.00
97.9216 718.00
97.9868 682.00
98.052 722.00
98.1172 678.00
98.1824 697.00
98.2476 738.00
98.3128 657.00
98.378 638.00
98.4432 675.00
98.5084 695.00
98.5736 706.00
98.6388 698.00
98.704 688.00
98.7692 714.00
98.8344 692.00
98.8996 698.00
98.9648 695.00
99.03 724.00
99.0952 704.00
99.1604 730.00
99.2256 692.00
99.2908 734.00
99.356 719.00
99.4212 725.00
99.4864 796.00
99.5516 715.00
99.6168 718.00
99.682 726.00
99.7472 766.00
99.8124 744.00
99.8776 699.00
99.9428 821.00
100.008 744.00
100.073 774.00
100.095 761.00