File: data/xrd_creation/results/NSC_35.xy
9.903433 3140.00
9.968632 3219.00
10.0338 3119.00
10.099 3108.00
10.1642 3076.00
10.2294 2961.00
10.2946 3020.00
10.3598 3053.00
10.425 3002.00
10.4902 2941.00
10.5554 3002.00
10.6206 2915.00
10.6858 2941.00
10.751 2926.00
10.8162 2913.00
10.8814 2807.00
10.9466 2845.00
11.0118 2866.00
11.077 2796.00
11.1422 2802.00
11.2074 2775.00
11.2726 2887.00
11.3378 2789.00
11.403 2732.00
11.4682 2703.00
11.5334 2794.00
11.5986 2742.00
11.6638 2804.00
11.729 2624.00
11.7942 2666.00
11.8594 2582.00
11.9246 2635.00
11.9898 2706.00
12.055 2669.00
12.1202 2598.00
12.1854 2666.00
12.2506 2697.00
12.3158 2601.00
12.381 2762.00
12.4462 2755.00
12.5114 2994.00
12.5766 3095.00
12.6418 3326.00
12.707 3707.00
12.7722 3743.00
12.8374 4034.00
12.9026 4043.00
12.9678 3847.00
13.033 3788.00
13.0982 3448.00
13.1634 3299.00
13.2286 3011.00
13.2938 2843.00
13.359 2739.00
13.4242 2583.00
13.4894 2578.00
13.5546 2553.00
13.6198 2586.00
13.685 2615.00
13.7502 2679.00
13.8154 2608.00
13.8805 2797.00
13.9457 3010.00
14.0109 3242.00
14.0761 3318.00
14.1413 3298.00
14.2065 2835.00
14.2717 2548.00
14.3369 2457.00
14.4021 2342.00
14.4673 2354.00
14.5325 2310.00
14.5977 2363.00
14.6629 2365.00
14.7281 2382.00
14.7933 2358.00
14.8585 2350.00
14.9237 2246.00
14.9889 2297.00
15.0541 2248.00
15.1193 2257.00
15.1845 2330.00
15.2497 2220.00
15.3149 2279.00
15.3801 2295.00
15.4453 2278.00
15.5105 2312.00
15.5757 2264.00
15.6409 2237.00
15.7061 2300.00
15.7713 2302.00
15.8365 2361.00
15.9017 2308.00
15.9669 2257.00
16.0321 2204.00
16.0973 2351.00
16.1625 2279.00
16.2277 2315.00
16.2929 2352.00
16.3581 2358.00
16.4233 2269.00
16.4885 2259.00
16.5537 2293.00
16.6189 2226.00
16.6841 2250.00
16.7493 2396.00
16.8145 2281.00
16.8797 2350.00
16.9449 2298.00
17.0101 2269.00
17.0753 2216.00
17.1405 2161.00
17.2057 2270.00
17.2709 2229.00
17.3361 2199.00
17.4013 2170.00
17.4665 2200.00
17.5317 2282.00
17.5969 2246.00
17.6621 2264.00
17.7273 2444.00
17.7925 2441.00
17.8577 2260.00
17.9229 2155.00
17.9881 2163.00
18.0533 2162.00
18.1185 2051.00
18.1837 2109.00
18.2489 2034.00
18.3141 2120.00
18.3793 2136.00
18.4445 2022.00
18.5097 2069.00
18.5749 2150.00
18.6401 2070.00
18.7052 2083.00
18.7704 2149.00
18.8356 2122.00
18.9008 2097.00
18.966 2117.00
19.0312 2092.00
19.0964 2167.00
19.1616 2171.00
19.2268 2210.00
19.292 2352.00
19.3572 2556.00
19.4224 2672.00
19.4876 3166.00
19.5528 3700.00
19.618 4260.00
19.6832 4783.00
19.7484 5490.00
19.8136 6040.00
19.8788 6541.00
19.944 6008.00
20.0092 5668.00
20.0744 5024.00
20.1396 3666.00
20.2048 2734.00
20.27 2406.00
20.3352 2280.00
20.4004 2233.00
20.4656 2212.00
20.5308 2295.00
20.596 2287.00
20.6612 2244.00
20.7264 2318.00
20.7916 2359.00
20.8568 2330.00
20.922 2423.00
20.9872 2460.00
21.0524 2523.00
21.1176 2533.00
21.1828 2592.00
21.248 2873.00
21.3132 2854.00
21.3784 2976.00
21.4436 3033.00
21.5088 2895.00
21.574 2994.00
21.6392 2972.00
21.7044 3140.00
21.7696 3218.00
21.8348 3057.00
21.9 2445.00
21.9652 2148.00
22.0304 2051.00
22.0956 2078.00
22.1608 1950.00
22.226 1999.00
22.2912 1972.00
22.3564 1895.00
22.4216 1917.00
22.4868 1893.00
22.552 1936.00
22.6172 1942.00
22.6824 1941.00
22.7476 2082.00
22.8128 1973.00
22.878 2068.00
22.9432 2289.00
23.0084 2798.00
23.0736 3534.00
23.1388 4687.00
23.204 5370.00
23.2692 5341.00
23.3344 4363.00
23.3996 3520.00
23.4647 2896.00
23.5299 2520.00
23.5951 2382.00
23.6603 2190.00
23.7255 2307.00
23.7907 2224.00
23.8559 1939.00
23.9211 1965.00
23.9863 1991.00
24.0515 2028.00
24.1167 2073.00
24.1819 2005.00
24.2471 2244.00
24.3123 2564.00
24.3775 2487.00
24.4427 2282.00
24.5079 2148.00
24.5731 1988.00
24.6383 2003.00
24.7035 2194.00
24.7687 2253.00
24.8339 1993.00
24.8991 1940.00
24.9643 1880.00
25.0295 1780.00
25.0947 1686.00
25.1599 1801.00
25.2251 1826.00
25.2903 1769.00
25.3555 1734.00
25.4207 1767.00
25.4859 1700.00
25.5511 1674.00
25.6163 1863.00
25.6815 1754.00
25.7467 1882.00
25.8119 1722.00
25.8771 1880.00
25.9423 1849.00
26.0075 1792.00
26.0727 1806.00
26.1379 1853.00
26.2031 1873.00
26.2683 1797.00
26.3335 1756.00
26.3987 1787.00
26.4639 1743.00
26.5291 1745.00
26.5943 1703.00
26.6595 1691.00
26.7247 1756.00
26.7899 1718.00
26.8551 1571.00
26.9203 1621.00
26.9855 1695.00
27.0507 1748.00
27.1159 1651.00
27.1811 1673.00
27.2463 1681.00
27.3115 1675.00
27.3767 1675.00
27.4419 1710.00
27.5071 1781.00
27.5723 1684.00
27.6375 1671.00
27.7027 1832.00
27.7679 1901.00
27.8331 1928.00
27.8983 2049.00
27.9635 2485.00
28.0287 2941.00
28.0939 3258.00
28.1591 3372.00
28.2243 3066.00
28.2894 3140.00
28.3546 3640.00
28.4198 4993.00
28.485 6270.00
28.5502 5376.00
28.6154 3719.00
28.6806 2494.00
28.7458 2191.00
28.811 2173.00
28.8762 2045.00
28.9414 2152.00
29.0066 2047.00
29.0718 2141.00
29.137 2317.00
29.2022 2395.00
29.2674 2476.00
29.3326 2432.00
29.3978 2370.00
29.463 2210.00
29.5282 2028.00
29.5934 1865.00
29.6586 1750.00
29.7238 1682.00
29.789 1613.00
29.8542 1598.00
29.9194 1624.00
29.9846 1686.00
30.0498 1626.00
30.115 1718.00
30.1802 1744.00
30.2454 1838.00
30.3106 1856.00
30.3758 1972.00
30.441 2017.00
30.5062 2111.00
30.5714 2216.00
30.6366 2520.00
30.7018 3490.00
30.767 5662.00
30.8322 10138.00
30.8974 11559.00
30.9626 9214.00
31.0278 7418.00
31.093 8032.00
31.1582 8691.00
31.2234 9021.00
31.2886 8169.00
31.3538 7261.00
31.419 5628.00
31.4842 4243.00
31.5494 3475.00
31.6146 3396.00
31.6798 4149.00
31.745 4748.00
31.8102 4357.00
31.8754 3136.00
31.9406 2193.00
32.0058 1924.00
32.071 1717.00
32.1362 1650.00
32.2014 1537.00
32.2666 1624.00
32.3318 1478.00
32.397 1613.00
32.4622 1568.00
32.5274 1553.00
32.5926 1577.00
32.6578 1557.00
32.723 1579.00
32.7882 1581.00
32.8534 1594.00
32.9186 1453.00
32.9838 1490.00
33.0489 1483.00
33.1141 1594.00
33.1793 1603.00
33.2445 1458.00
33.3097 1584.00
33.3749 1571.00
33.4401 1548.00
33.5053 1571.00
33.5705 1583.00
33.6357 1480.00
33.7009 1485.00
33.7661 1455.00
33.8313 1502.00
33.8965 1534.00
33.9617 1563.00
34.0269 1537.00
34.0921 1676.00
34.1573 1711.00
34.2225 1957.00
34.2877 2374.00
34.3529 3433.00
34.4181 4728.00
34.4833 5992.00
34.5485 6912.00
34.6137 6359.00
34.6789 5711.00
34.7441 4930.00
34.8093 4576.00
34.8745 3846.00
34.9397 3348.00
35.0049 2585.00
35.0701 2086.00
35.1353 1873.00
35.2005 1886.00
35.2657 1778.00
35.3309 1824.00
35.3961 1953.00
35.4613 2045.00
35.5265 2387.00
35.5917 2750.00
35.6569 3264.00
35.7221 4052.00
35.7873 3660.00
35.8525 2542.00
35.9177 1709.00
35.9829 1547.00
36.0481 1462.00
36.1133 1434.00
36.1785 1428.00
36.2437 1448.00
36.3089 1475.00
36.3741 1463.00
36.4393 1316.00
36.5045 1281.00
36.5697 1260.00
36.6349 1303.00
36.7001 1331.00
36.7653 1253.00
36.8305 1278.00
36.8957 1269.00
36.9609 1303.00
37.0261 1308.00
37.0913 1330.00
37.1565 1168.00
37.2217 1263.00
37.2869 1275.00
37.3521 1272.00
37.4173 1263.00
37.4825 1251.00
37.5477 1218.00
37.6129 1259.00
37.6781 1266.00
37.7433 1261.00
37.8085 1322.00
37.8736 1441.00
37.9388 1575.00
38.004 1641.00
38.0692 1500.00
38.1344 1362.00
38.1996 1394.00
38.2648 1287.00
38.33 1327.00
38.3952 1260.00
38.4604 1277.00
38.5256 1289.00
38.5908 1261.00
38.656 1288.00
38.7212 1344.00
38.7864 1452.00
38.8516 1515.00
38.9168 1568.00
38.982 1428.00
39.0472 1338.00
39.1124 1301.00
39.1776 1209.00
39.2428 1330.00
39.308 1350.00
39.3732 1244.00
39.4384 1297.00
39.5036 1290.00
39.5688 1305.00
39.634 1337.00
39.6992 1305.00
39.7644 1286.00
39.8296 1410.00
39.8948 1290.00
39.96 1282.00
40.0252 1384.00
40.0904 1492.00
40.1556 1478.00
40.2208 1452.00
40.286 1346.00
40.3512 1406.00
40.4164 1339.00
40.4816 1302.00
40.5468 1279.00
40.612 1260.00
40.6772 1294.00
40.7424 1284.00
40.8076 1384.00
40.8728 1374.00
40.938 1517.00
41.0032 1811.00
41.0684 1826.00
41.1336 1658.00
41.1988 1491.00
41.264 1529.00
41.3292 1609.00
41.3944 1504.00
41.4596 1537.00
41.5248 1476.00
41.59 1576.00
41.6552 1588.00
41.7204 1695.00
41.7856 1734.00
41.8508 1770.00
41.916 1921.00
41.9812 1858.00
42.0464 1865.00
42.1116 2100.00
42.1768 2035.00
42.242 1972.00
42.3072 1816.00
42.3724 1760.00
42.4376 1735.00
42.5028 1575.00
42.568 1514.00
42.6332 1478.00
42.6983 1478.00
42.7635 1460.00
42.8287 1420.00
42.8939 1332.00
42.9591 1367.00
43.0243 1308.00
43.0895 1304.00
43.1547 1282.00
43.2199 1343.00
43.2851 1284.00
43.3503 1215.00
43.4155 1223.00
43.4807 1240.00
43.5459 1319.00
43.6111 1263.00
43.6763 1362.00
43.7415 1247.00
43.8067 1297.00
43.8719 1302.00
43.9371 1281.00
44.0023 1400.00
44.0675 1385.00
44.1327 1355.00
44.1979 1357.00
44.2631 1329.00
44.3283 1372.00
44.3935 1267.00
44.4587 1400.00
44.5239 1346.00
44.5891 1332.00
44.6543 1430.00
44.7195 1402.00
44.7847 1414.00
44.8499 1441.00
44.9151 1453.00
44.9803 1599.00
45.0455 1767.00
45.1107 1884.00
45.1759 1796.00
45.2411 1844.00
45.3063 1745.00
45.3715 1615.00
45.4367 1586.00
45.5019 1569.00
45.5671 1658.00
45.6323 1613.00
45.6975 1801.00
45.7627 1929.00
45.8279 2047.00
45.8931 2092.00
45.9583 2140.00
46.0235 1893.00
46.0887 1700.00
46.1539 1504.00
46.2191 1400.00
46.2843 1340.00
46.3495 1416.00
46.4147 1352.00
46.4799 1350.00
46.5451 1455.00
46.6103 1519.00
46.6755 1669.00
46.7407 1798.00
46.8059 1850.00
46.8711 2148.00
46.9363 2567.00
47.0015 2933.00
47.0667 3231.00
47.1319 3422.00
47.1971 3413.00
47.2623 3166.00
47.3275 2891.00
47.3927 2660.00
47.4579 2389.00
47.523 2099.00
47.5882 1943.00
47.6534 1841.00
47.7186 1588.00
47.7838 1522.00
47.849 1479.00
47.9142 1431.00
47.9794 1416.00
48.0446 1406.00
48.1098 1403.00
48.175 1400.00
48.2402 1452.00
48.3054 1451.00
48.3706 1432.00
48.4358 1409.00
48.501 1451.00
48.5662 1506.00
48.6314 1522.00
48.6966 1381.00
48.7618 1430.00
48.827 1448.00
48.8922 1438.00
48.9574 1464.00
49.0226 1376.00
49.0878 1408.00
49.153 1374.00
49.2182 1407.00
49.2834 1424.00
49.3486 1443.00
49.4138 1602.00
49.479 1921.00
49.5442 2021.00
49.6094 1932.00
49.6746 1891.00
49.7398 1626.00
49.805 1477.00
49.8702 1326.00
49.9354 1308.00
50.0006 1330.00
50.0658 1263.00
50.131 1326.00
50.1962 1360.00
50.2614 1507.00
50.3266 1779.00
50.3918 2029.00
50.457 2181.00
50.5222 1989.00
50.5874 1836.00
50.6526 1654.00
50.7178 1621.00
50.783 1804.00
50.8482 1923.00
50.9134 2002.00
50.9786 2029.00
51.0438 2005.00
51.109 2112.00
51.1742 2631.00
51.2394 3563.00
51.3046 3888.00
51.3698 3242.00
51.435 2786.00
51.5002 2213.00
51.5654 1861.00
51.6306 1808.00
51.6958 1563.00
51.761 1385.00
51.8262 1341.00
51.8914 1256.00
51.9566 1261.00
52.0218 1208.00
52.087 1341.00
52.1522 1274.00
52.2174 1295.00
52.2826 1209.00
52.3477 1208.00
52.4129 1234.00
52.4781 1243.00
52.5433 1238.00
52.6085 1291.00
52.6737 1284.00
52.7389 1267.00
52.8041 1325.00
52.8693 1340.00
52.9345 1482.00
52.9997 1531.00
53.0649 1405.00
53.1301 1469.00
53.1953 1426.00
53.2605 1327.00
53.3257 1322.00
53.3909 1309.00
53.4561 1358.00
53.5213 1450.00
53.5865 1571.00
53.6517 1653.00
53.7169 1844.00
53.7821 1898.00
53.8473 1898.00
53.9125 1885.00
53.9777 1892.00
54.0429 1940.00
54.1081 2064.00
54.1733 2226.00
54.2385 2250.00
54.3037 2432.00
54.3689 2304.00
54.4341 2030.00
54.4993 1809.00
54.5645 1638.00
54.6297 1467.00
54.6949 1411.00
54.7601 1307.00
54.8253 1201.00
54.8905 1155.00
54.9557 1210.00
55.0209 1224.00
55.0861 1196.00
55.1513 1149.00
55.2165 1164.00
55.2817 1198.00
55.3469 1261.00
55.4121 1321.00
55.4773 1444.00
55.5425 1601.00
55.6077 1643.00
55.6729 1594.00
55.7381 1614.00
55.8033 1532.00
55.8685 1414.00
55.9337 1361.00
55.9989 1408.00
56.0641 1414.00
56.1293 1428.00
56.1945 1662.00
56.2597 1706.00
56.3249 1604.00
56.3901 1554.00
56.4553 1331.00
56.5205 1332.00
56.5857 1186.00
56.6509 1154.00
56.7161 1186.00
56.7813 1184.00
56.8465 1180.00
56.9117 1155.00
56.9769 1170.00
57.042 1126.00
57.1073 1114.00
57.1724 1154.00
57.2376 1246.00
57.3028 1297.00
57.368 1354.00
57.4332 1302.00
57.4984 1448.00
57.5636 1307.00
57.6288 1364.00
57.694 1260.00
57.7592 1271.00
57.8244 1168.00
57.8896 1205.00
57.9548 1190.00
58.02 1165.00
58.0852 1275.00
58.1504 1246.00
58.2156 1328.00
58.2808 1288.00
58.346 1313.00
58.4112 1261.00
58.4764 1243.00
58.5416 1253.00
58.6068 1213.00
58.672 1266.00
58.7372 1317.00
58.8024 1256.00
58.8676 1211.00
58.9328 1248.00
58.998 1276.00
59.0632 1360.00
59.1284 1477.00
59.1936 1497.00
59.2588 1677.00
59.324 1931.00
59.3892 2091.00
59.4544 2276.00
59.5196 2272.00
59.5848 2326.00
59.65 2256.00
59.7152 2198.00
59.7804 2094.00
59.8456 1977.00
59.9108 1878.00
59.976 1922.00
60.0412 1996.00
60.1064 2066.00
60.1716 1945.00
60.2368 1870.00
60.302 1853.00
60.3672 1672.00
60.4324 1662.00
60.4976 1552.00
60.5628 1525.00
60.628 1531.00
60.6932 1583.00
60.7584 1755.00
60.8236 2307.00
60.8888 2912.00
60.954 2782.00
61.0192 2464.00
61.0844 2274.00
61.1496 2011.00
61.2148 1720.00
61.28 1521.00
61.3452 1555.00
61.4104 1562.00
61.4756 1523.00
61.5408 1717.00
61.606 1708.00
61.6712 1677.00
61.7364 1634.00
61.8016 1602.00
61.8667 1465.00
61.932 1432.00
61.9971 1518.00
62.0623 1571.00
62.1275 1586.00
62.1927 1594.00
62.2579 1668.00
62.3231 1672.00
62.3883 1781.00
62.4535 1663.00
62.5187 1452.00
62.5839 1464.00
62.6491 1349.00
62.7143 1297.00
62.7795 1274.00
62.8447 1224.00
62.9099 1367.00
62.9751 1384.00
63.0403 1518.00
63.1055 1580.00
63.1707 1574.00
63.2359 1481.00
63.3011 1313.00
63.3663 1278.00
63.4315 1265.00
63.4967 1233.00
63.5619 1157.00
63.6271 1250.00
63.6923 1139.00
63.7575 1163.00
63.8227 1251.00
63.8879 1426.00
63.9531 1371.00
64.0183 1246.00
64.0835 1237.00
64.1487 1227.00
64.2139 1250.00
64.2791 1231.00
64.3443 1177.00
64.4095 1228.00
64.4747 1231.00
64.5399 1222.00
64.6051 1191.00
64.6703 1203.00
64.7355 1221.00
64.8007 1195.00
64.8659 1151.00
64.9311 1098.00
64.9963 1087.00
65.0615 1124.00
65.1267 1131.00
65.1919 1102.00
65.2571 1147.00
65.3223 1260.00
65.3875 1271.00
65.4527 1207.00
65.5179 1209.00
65.5831 1263.00
65.6483 1322.00
65.7135 1385.00
65.7787 1390.00
65.8439 1462.00
65.9091 1461.00
65.9743 1533.00
66.0395 1441.00
66.1047 1427.00
66.1699 1305.00
66.2351 1271.00
66.3003 1269.00
66.3655 1186.00
66.4307 1259.00
66.4959 1278.00
66.561 1181.00
66.6263 1160.00
66.6915 1171.00
66.7566 1274.00
66.8218 1280.00
66.887 1288.00
66.9522 1268.00
67.0174 1188.00
67.0826 1286.00
67.1478 1236.00
67.213 1219.00
67.2782 1118.00
67.3434 1103.00
67.4086 1159.00
67.4738 1246.00
67.539 1082.00
67.6042 1089.00
67.6694 1098.00
67.7346 1064.00
67.7998 1074.00
67.865 1131.00
67.9302 1132.00
67.9954 1081.00
68.0606 1143.00
68.1258 1106.00
68.191 1193.00
68.2562 1184.00
68.3214 1151.00
68.3866 1158.00
68.4518 1160.00
68.517 1118.00
68.5822 1083.00
68.6474 984.00
68.7126 1005.00
68.7778 1006.00
68.843 1081.00
68.9082 1049.00
68.9734 1039.00
69.0386 1074.00
69.1038 1114.00
69.169 1173.00
69.2342 1157.00
69.2994 1245.00
69.3646 1264.00
69.4298 1304.00
69.495 1299.00
69.5602 1279.00
69.6254 1335.00
69.6906 1270.00
69.7558 1255.00
69.821 1232.00
69.8862 1103.00
69.9514 1132.00
70.0166 1085.00
70.0818 1003.00
70.147 983.00
70.2122 961.00
70.2774 966.00
70.3426 998.00
70.4078 1055.00
70.473 1019.00
70.5382 1105.00
70.6034 1014.00
70.6686 1072.00
70.7338 1031.00
70.799 972.00
70.8642 1043.00
70.9294 983.00
70.9946 1032.00
71.0598 1017.00
71.125 1061.00
71.1902 1094.00
71.2554 1147.00
71.3205 1087.00
71.3858 1094.00
71.451 1090.00
71.5162 1203.00
71.5813 1074.00
71.6465 1114.00
71.7117 1068.00
71.7769 1017.00
71.8421 1063.00
71.9073 1037.00
71.9725 1021.00
72.0377 1069.00
72.1029 1060.00
72.1681 1130.00
72.2333 1153.00
72.2985 1159.00
72.3637 1131.00
72.4289 1253.00
72.4941 1218.00
72.5593 1230.00
72.6245 1201.00
72.6897 1197.00
72.7549 1207.00
72.8201 1148.00
72.8853 1149.00
72.9505 1171.00
73.0157 1142.00
73.0809 1130.00
73.1461 1196.00
73.2113 1093.00
73.2765 1041.00
73.3417 1070.00
73.4069 1038.00
73.4721 1046.00
73.5373 1064.00
73.6025 988.00
73.6677 987.00
73.7329 978.00
73.7981 1059.00
73.8633 1089.00
73.9285 1101.00
73.9937 1079.00
74.0589 1097.00
74.1241 1034.00
74.1893 1050.00
74.2545 1052.00
74.3197 997.00
74.3849 1096.00
74.4501 1021.00
74.5153 1052.00
74.5805 1047.00
74.6457 974.00
74.7109 1021.00
74.7761 1017.00
74.8413 1050.00
74.9065 985.00
74.9717 1049.00
75.0369 1058.00
75.1021 1127.00
75.1673 1151.00
75.2325 1321.00
75.2977 1194.00
75.3629 1178.00
75.4281 1197.00
75.4933 1142.00
75.5585 1127.00
75.6237 1182.00
75.6889 1126.00
75.7541 1036.00
75.8193 1004.00
75.8845 1076.00
75.9497 964.00
76.0149 1054.00
76.0801 1073.00
76.1452 1040.00
76.2104 984.00
76.2756 1008.00
76.3409 1051.00
76.406 1087.00
76.4712 1113.00
76.5364 1175.00
76.6016 1232.00
76.6668 1229.00
76.732 1161.00
76.7972 1149.00
76.8624 1186.00
76.9276 1043.00
76.9928 1075.00
77.058 961.00
77.1232 965.00
77.1884 1033.00
77.2536 991.00
77.3188 1050.00
77.384 946.00
77.4492 1019.00
77.5144 1051.00
77.5796 1036.00
77.6448 1055.00
77.71 1083.00
77.7752 983.00
77.8404 1084.00
77.9056 1047.00
77.9708 1047.00
78.036 1119.00
78.1012 1047.00
78.1664 1015.00
78.2316 1070.00
78.2968 1016.00
78.362 1005.00
78.4272 931.00
78.4924 993.00
78.5576 907.00
78.6228 962.00
78.688 910.00
78.7532 989.00
78.8184 976.00
78.8836 924.00
78.9488 961.00
79.014 1026.00
79.0792 972.00
79.1444 962.00
79.2096 1072.00
79.2748 1036.00
79.34 1077.00
79.4052 1049.00
79.4704 971.00
79.5356 998.00
79.6008 984.00
79.666 1003.00
79.7312 923.00
79.7964 880.00
79.8616 945.00
79.9268 941.00
79.992 970.00
80.0572 955.00
80.1224 916.00
80.1876 954.00
80.2528 928.00
80.318 971.00
80.3832 1045.00
80.4484 971.00
80.5136 1079.00
80.5788 1100.00
80.644 1222.00
80.7092 1212.00
80.7744 1250.00
80.8396 1196.00
80.9048 1140.00
80.9699 1181.00
81.0351 1172.00
81.1003 1121.00
81.1655 1124.00
81.2307 1059.00
81.2959 1063.00
81.3611 1072.00
81.4263 1045.00
81.4915 1138.00
81.5567 1069.00
81.6219 1102.00
81.6871 1138.00
81.7523 1076.00
81.8175 1116.00
81.8827 1126.00
81.9479 1199.00
82.0131 1147.00
82.0783 1188.00
82.1435 1103.00
82.2087 1046.00
82.2739 1122.00
82.3391 994.00
82.4043 959.00
82.4695 1080.00
82.5347 969.00
82.5999 961.00
82.6651 1014.00
82.7303 976.00
82.7955 990.00
82.8607 1025.00
82.9259 1078.00
82.9911 1077.00
83.0563 1016.00
83.1215 1047.00
83.1867 1120.00
83.2519 1227.00
83.3171 1279.00
83.3823 1384.00
83.4475 1270.00
83.5127 1223.00
83.5779 1227.00
83.6431 1189.00
83.7083 1059.00
83.7735 1089.00
83.8387 1013.00
83.9039 987.00
83.9691 974.00
84.0343 938.00
84.0995 952.00
84.1647 1051.00
84.2299 1051.00
84.2951 1034.00
84.3603 994.00
84.4255 1013.00
84.4907 971.00
84.5559 910.00
84.6211 1055.00
84.6863 975.00
84.7515 1031.00
84.8167 1017.00
84.8819 971.00
84.9471 965.00
85.0123 991.00
85.0775 1004.00
85.1427 1007.00
85.2079 1054.00
85.2731 942.00
85.3383 970.00
85.4035 998.00
85.4687 941.00
85.5339 954.00
85.5991 884.00
85.6643 953.00
85.7295 975.00
85.7946 962.00
85.8598 972.00
85.925 1033.00
85.9903 1153.00
86.0554 1129.00
86.1206 1058.00
86.1858 1114.00
86.251 1141.00
86.3162 1132.00
86.3814 977.00
86.4466 1010.00
86.5118 960.00
86.577 1003.00
86.6422 970.00
86.7074 990.00
86.7726 971.00
86.8378 957.00
86.903 939.00
86.9682 1019.00
87.0334 958.00
87.0986 984.00
87.1638 991.00
87.229 1065.00
87.2942 1044.00
87.3594 1073.00
87.4246 1068.00
87.4898 1074.00
87.555 1027.00
87.6202 1033.00
87.6854 1108.00
87.7506 1101.00
87.8158 1020.00
87.881 1034.00
87.9462 1109.00
88.0114 1085.00
88.0766 1059.00
88.1418 1094.00
88.207 1070.00
88.2722 1081.00
88.3374 1072.00
88.4026 1100.00
88.4678 1132.00
88.533 1082.00
88.5982 1124.00
88.6634 1091.00
88.7286 1071.00
88.7938 1131.00
88.859 1035.00
88.9242 991.00
88.9894 1037.00
89.0546 1050.00
89.1198 978.00
89.185 934.00
89.2502 949.00
89.3154 928.00
89.3806 968.00
89.4458 989.00
89.511 931.00
89.5762 981.00
89.6414 1003.00
89.7066 1018.00
89.7718 964.00
89.837 1039.00
89.9022 1063.00
89.9674 1099.00
90.0326 1168.00
90.0978 1145.00
90.163 1043.00
90.2282 1086.00
90.2934 1166.00
90.3586 1097.00
90.4238 976.00
90.489 1016.00
90.5542 977.00
90.6193 1027.00
90.6845 1015.00
90.7497 1052.00
90.8149 948.00
90.8801 1022.00
90.9453 1069.00
91.0105 974.00
91.0757 961.00
91.1409 1008.00
91.2061 947.00
91.2713 1026.00
91.3365 1000.00
91.4017 997.00
91.4669 1031.00
91.5321 1014.00
91.5973 1009.00
91.6625 964.00
91.7277 980.00
91.7929 978.00
91.8581 1000.00
91.9233 1028.00
91.9885 946.00
92.0537 935.00
92.1189 936.00
92.1841 893.00
92.2493 911.00
92.3145 933.00
92.3797 966.00
92.4449 962.00
92.5101 982.00
92.5753 1018.00
92.6405 985.00
92.7057 1005.00
92.7709 962.00
92.8361 961.00
92.9013 957.00
92.9665 1026.00
93.0317 979.00
93.0969 959.00
93.1621 974.00
93.2273 1022.00
93.2925 957.00
93.3577 952.00
93.4229 1041.00
93.4881 952.00
93.5533 943.00
93.6185 909.00
93.6837 932.00
93.7489 980.00
93.8141 1042.00
93.8793 956.00
93.9445 1052.00
94.0097 978.00
94.0749 1002.00
94.1401 958.00
94.2053 976.00
94.2705 1007.00
94.3357 942.00
94.4009 994.00
94.4661 938.00
94.5313 955.00
94.5965 933.00
94.6617 974.00
94.7269 932.00
94.7921 994.00
94.8573 1000.00
94.9225 1014.00
94.9877 1052.00
95.0529 944.00
95.1181 1017.00
95.1833 1007.00
95.2485 1080.00
95.3137 1128.00
95.3789 1051.00
95.444 979.00
95.5092 984.00
95.5744 1044.00
95.6396 955.00
95.7048 1063.00
95.77 972.00
95.8352 1004.00
95.9004 1018.00
95.9656 979.00
96.0308 927.00
96.096 906.00
96.1612 918.00
96.2264 1055.00
96.2916 1030.00
96.3568 1013.00
96.422 1048.00
96.4872 1050.00
96.5524 1156.00
96.6176 1191.00
96.6828 1195.00
96.748 1169.00
96.8132 1123.00
96.8784 1190.00
96.9436 1101.00
97.0088 1143.00
97.074 1111.00
97.1392 1160.00
97.2044 1066.00
97.2696 1023.00
97.3348 1062.00
97.4 985.00
97.4652 999.00
97.5304 992.00
97.5956 983.00
97.6608 930.00
97.726 955.00
97.7912 1002.00
97.8564 1015.00
97.9216 1061.00
97.9868 1057.00
98.052 1101.00
98.1172 1010.00
98.1824 965.00
98.2476 1008.00
98.3128 986.00
98.378 1015.00
98.4432 928.00
98.5084 967.00
98.5736 950.00
98.6388 1010.00
98.704 998.00
98.7692 935.00
98.8344 971.00
98.8996 965.00
98.9648 932.00
99.03 1027.00
99.0952 919.00
99.1604 963.00
99.2256 1019.00
99.2908 1016.00
99.356 948.00
99.4212 930.00
99.4864 1007.00
99.5516 1056.00
99.6168 978.00
99.682 1020.00
99.7472 902.00
99.8124 956.00
99.8776 957.00
99.9428 985.00
100.008 931.00
100.073 932.00
100.095 965.00