File: data/xrd_creation/results/NSC_190.xy
9.903433 2663.00
9.968632 2716.00
10.0338 2679.00
10.099 2699.00
10.1642 2662.00
10.2294 2580.00
10.2946 2564.00
10.3598 2579.00
10.425 2565.00
10.4902 2488.00
10.5554 2591.00
10.6206 2521.00
10.6858 2517.00
10.751 2453.00
10.8162 2488.00
10.8814 2387.00
10.9466 2399.00
11.0118 2405.00
11.077 2353.00
11.1422 2442.00
11.2074 2281.00
11.2726 2294.00
11.3378 2284.00
11.403 2242.00
11.4682 2272.00
11.5334 2231.00
11.5986 2269.00
11.6638 2190.00
11.729 2207.00
11.7942 2378.00
11.8594 2390.00
11.9246 2432.00
11.9898 2442.00
12.055 2553.00
12.1202 2754.00
12.1854 3024.00
12.2506 3427.00
12.3158 3247.00
12.381 2442.00
12.4462 2192.00
12.5114 2123.00
12.5766 2118.00
12.6418 2064.00
12.707 2064.00
12.7722 2070.00
12.8374 2083.00
12.9026 2039.00
12.9678 2018.00
13.033 2064.00
13.0982 2118.00
13.1634 1990.00
13.2286 2096.00
13.2938 1903.00
13.359 1982.00
13.4242 1996.00
13.4894 1915.00
13.5546 2037.00
13.6198 2117.00
13.685 2060.00
13.7502 2167.00
13.8154 2182.00
13.8805 2358.00
13.9457 2554.00
14.0109 2886.00
14.0761 2943.00
14.1413 2223.00
14.2065 1950.00
14.2717 1968.00
14.3369 1868.00
14.4021 1858.00
14.4673 1857.00
14.5325 1837.00
14.5977 1818.00
14.6629 1799.00
14.7281 1873.00
14.7933 1888.00
14.8585 1996.00
14.9237 1935.00
14.9889 1896.00
15.0541 1901.00
15.1193 1910.00
15.1845 1802.00
15.2497 1911.00
15.3149 1829.00
15.3801 1841.00
15.4453 1817.00
15.5105 1816.00
15.5757 1868.00
15.6409 1892.00
15.7061 1783.00
15.7713 1787.00
15.8365 1878.00
15.9017 1860.00
15.9669 1824.00
16.0321 1861.00
16.0973 1778.00
16.1625 1843.00
16.2277 1831.00
16.2929 1816.00
16.3581 1806.00
16.4233 1833.00
16.4885 1868.00
16.5537 1951.00
16.6189 2029.00
16.6841 2069.00
16.7493 2270.00
16.8145 2366.00
16.8797 2808.00
16.9449 3388.00
17.0101 3491.00
17.0753 2667.00
17.1405 2008.00
17.2057 1869.00
17.2709 1800.00
17.3361 1701.00
17.4013 1784.00
17.4665 1866.00
17.5317 1767.00
17.5969 1706.00
17.6621 1772.00
17.7273 1742.00
17.7925 1774.00
17.8577 1766.00
17.9229 1755.00
17.9881 1797.00
18.0533 1669.00
18.1185 1727.00
18.1837 1699.00
18.2489 1836.00
18.3141 1731.00
18.3793 1670.00
18.4445 1722.00
18.5097 1627.00
18.5749 1731.00
18.6401 1689.00
18.7052 1798.00
18.7704 1701.00
18.8356 1653.00
18.9008 1689.00
18.966 1740.00
19.0312 1813.00
19.0964 1829.00
19.1616 1915.00
19.2268 2119.00
19.292 2342.00
19.3572 2696.00
19.4224 3098.00
19.4876 3701.00
19.5528 5011.00
19.618 7606.00
19.6832 10826.00
19.7484 11140.00
19.8136 9823.00
19.8788 9197.00
19.944 5073.00
20.0092 2395.00
20.0744 1964.00
20.1396 1779.00
20.2048 1735.00
20.27 1673.00
20.3352 1635.00
20.4004 1705.00
20.4656 1675.00
20.5308 1768.00
20.596 1836.00
20.6612 1924.00
20.7264 1894.00
20.7916 1949.00
20.8568 1796.00
20.922 1881.00
20.9872 2056.00
21.0524 2306.00
21.1176 2500.00
21.1828 2847.00
21.248 3290.00
21.3132 2881.00
21.3784 2248.00
21.4436 1838.00
21.5088 1756.00
21.574 1743.00
21.6392 1654.00
21.7044 1653.00
21.7696 1629.00
21.8348 1668.00
21.9 1564.00
21.9652 1586.00
22.0304 1638.00
22.0956 1522.00
22.1608 1562.00
22.226 1584.00
22.2912 1587.00
22.3564 1528.00
22.4216 1527.00
22.4868 1526.00
22.552 1723.00
22.6172 1727.00
22.6824 1761.00
22.7476 1722.00
22.8128 1772.00
22.878 1830.00
22.9432 1972.00
23.0084 2197.00
23.0736 2854.00
23.1388 3575.00
23.204 3008.00
23.2692 2007.00
23.3344 1585.00
23.3996 1597.00
23.4647 1451.00
23.5299 1406.00
23.5951 1514.00
23.6603 1434.00
23.7255 1427.00
23.7907 1523.00
23.8559 1571.00
23.9211 1549.00
23.9863 1439.00
24.0515 1564.00
24.1167 1652.00
24.1819 1728.00
24.2471 1929.00
24.3123 2047.00
24.3775 1955.00
24.4427 1773.00
24.5079 1691.00
24.5731 1643.00
24.6383 1523.00
24.7035 1462.00
24.7687 1548.00
24.8339 1522.00
24.8991 1586.00
24.9643 1466.00
25.0295 1507.00
25.0947 1497.00
25.1599 1398.00
25.2251 1407.00
25.2903 1352.00
25.3555 1372.00
25.4207 1375.00
25.4859 1451.00
25.5511 1349.00
25.6163 1374.00
25.6815 1394.00
25.7467 1381.00
25.8119 1397.00
25.8771 1364.00
25.9423 1367.00
26.0075 1378.00
26.0727 1352.00
26.1379 1424.00
26.2031 1389.00
26.2683 1381.00
26.3335 1403.00
26.3987 1410.00
26.4639 1529.00
26.5291 1573.00
26.5943 1645.00
26.6595 1846.00
26.7247 2223.00
26.7899 2969.00
26.8551 3684.00
26.9203 3505.00
26.9855 2635.00
27.0507 2191.00
27.1159 1988.00
27.1811 2025.00
27.2463 2113.00
27.3115 2395.00
27.3767 3147.00
27.4419 4253.00
27.5071 5069.00
27.5723 3995.00
27.6375 2592.00
27.7027 2182.00
27.7679 2344.00
27.8331 3386.00
27.8983 5002.00
27.9635 6239.00
28.0287 4594.00
28.0939 2489.00
28.1591 1760.00
28.2243 1629.00
28.2894 1696.00
28.3546 1702.00
28.4198 1988.00
28.485 2064.00
28.5502 2275.00
28.6154 2353.00
28.6806 2373.00
28.7458 2184.00
28.811 1931.00
28.8762 1681.00
28.9414 1518.00
29.0066 1416.00
29.0718 1487.00
29.137 1410.00
29.2022 1450.00
29.2674 1307.00
29.3326 1412.00
29.3978 1366.00
29.463 1358.00
29.5282 1419.00
29.5934 1397.00
29.6586 1491.00
29.7238 1463.00
29.789 1710.00
29.8542 1928.00
29.9194 2283.00
29.9846 2295.00
30.0498 1939.00
30.115 1718.00
30.1802 1711.00
30.2454 1957.00
30.3106 2529.00
30.3758 2875.00
30.441 2334.00
30.5062 1837.00
30.5714 1529.00
30.6366 1485.00
30.7018 1408.00
30.767 1512.00
30.8322 1562.00
30.8974 1734.00
30.9626 1791.00
31.0278 1879.00
31.093 2170.00
31.1582 2759.00
31.2234 4081.00
31.2886 6869.00
31.3538 10385.00
31.419 11261.00
31.4842 7373.00
31.5494 3668.00
31.6146 2214.00
31.6798 1848.00
31.745 1945.00
31.8102 1961.00
31.8754 2000.00
31.9406 2080.00
32.0058 2042.00
32.071 1796.00
32.1362 1590.00
32.2014 1419.00
32.2666 1424.00
32.3318 1513.00
32.397 1496.00
32.4622 1477.00
32.5274 1665.00
32.5926 2049.00
32.6578 2822.00
32.723 3530.00
32.7882 3234.00
32.8534 2346.00
32.9186 1681.00
32.9838 1506.00
33.0489 1498.00
33.1141 1389.00
33.1793 1503.00
33.2445 1428.00
33.3097 1421.00
33.3749 1495.00
33.4401 1396.00
33.5053 1461.00
33.5705 1575.00
33.6357 1640.00
33.7009 1783.00
33.7661 2156.00
33.8313 2809.00
33.8965 4149.00
33.9617 6019.00
34.0269 7150.00
34.0921 8397.00
34.1573 10419.00
34.2225 10813.00
34.2877 8502.00
34.3529 5493.00
34.4181 3481.00
34.4833 2634.00
34.5485 2407.00
34.6137 2374.00
34.6789 2276.00
34.7441 2396.00
34.8093 2730.00
34.8745 3491.00
34.9397 4454.00
35.0049 4888.00
35.0701 3868.00
35.1353 2630.00
35.2005 1750.00
35.2657 1533.00
35.3309 1380.00
35.3961 1414.00
35.4613 1403.00
35.5265 1451.00
35.5917 1442.00
35.6569 1470.00
35.7221 1473.00
35.7873 1509.00
35.8525 1427.00
35.9177 1485.00
35.9829 1335.00
36.0481 1411.00
36.1133 1335.00
36.1785 1381.00
36.2437 1340.00
36.3089 1325.00
36.3741 1401.00
36.4393 1394.00
36.5045 1506.00
36.5697 1572.00
36.6349 1575.00
36.7001 1463.00
36.7653 1302.00
36.8305 1275.00
36.8957 1279.00
36.9609 1219.00
37.0261 1186.00
37.0913 1165.00
37.1565 1151.00
37.2217 1091.00
37.2869 1110.00
37.3521 1090.00
37.4173 1155.00
37.4825 1203.00
37.5477 1172.00
37.6129 1160.00
37.6781 1142.00
37.7433 1183.00
37.8085 1090.00
37.8736 1122.00
37.9388 1073.00
38.004 1084.00
38.0692 1063.00
38.1344 1106.00
38.1996 1215.00
38.2648 1206.00
38.33 1295.00
38.3952 1215.00
38.4604 1240.00
38.5256 1064.00
38.5908 1082.00
38.656 1118.00
38.7212 1063.00
38.7864 1115.00
38.8516 1138.00
38.9168 1164.00
38.982 1152.00
39.0472 1254.00
39.1124 1223.00
39.1776 1154.00
39.2428 1163.00
39.308 1077.00
39.3732 1190.00
39.4384 1254.00
39.5036 1432.00
39.5688 1534.00
39.634 1699.00
39.6992 1626.00
39.7644 1847.00
39.8296 1984.00
39.8948 2285.00
39.96 2284.00
40.0252 1938.00
40.0904 1554.00
40.1556 1251.00
40.2208 1152.00
40.286 1076.00
40.3512 1151.00
40.4164 1050.00
40.4816 1164.00
40.5468 1153.00
40.612 1175.00
40.6772 1200.00
40.7424 1297.00
40.8076 1175.00
40.8728 1222.00
40.938 1090.00
41.0032 1151.00
41.0684 1180.00
41.1336 1212.00
41.1988 1189.00
41.264 1327.00
41.3292 1305.00
41.3944 1515.00
41.4596 1715.00
41.5248 1834.00
41.59 1794.00
41.6552 1590.00
41.7204 1396.00
41.7856 1264.00
41.8508 1250.00
41.916 1221.00
41.9812 1235.00
42.0464 1192.00
42.1116 1275.00
42.1768 1313.00
42.242 1437.00
42.3072 1511.00
42.3724 1399.00
42.4376 1414.00
42.5028 1334.00
42.568 1448.00
42.6332 1545.00
42.6983 1433.00
42.7635 1383.00
42.8287 1503.00
42.8939 1560.00
42.9591 1503.00
43.0243 1396.00
43.0895 1291.00
43.1547 1182.00
43.2199 1154.00
43.2851 1063.00
43.3503 1041.00
43.4155 1070.00
43.4807 1050.00
43.5459 1176.00
43.6111 1359.00
43.6763 1574.00
43.7415 1493.00
43.8067 1344.00
43.8719 1227.00
43.9371 1176.00
44.0023 1103.00
44.0675 1116.00
44.1327 1006.00
44.1979 1116.00
44.2631 1169.00
44.3283 1231.00
44.3935 1538.00
44.4587 2089.00
44.5239 2774.00
44.5891 3018.00
44.6543 2976.00
44.7195 3085.00
44.7847 3197.00
44.8499 2801.00
44.9151 2128.00
44.9803 1638.00
45.0455 1282.00
45.1107 1227.00
45.1759 1113.00
45.2411 1071.00
45.3063 1052.00
45.3715 1114.00
45.4367 1080.00
45.5019 1126.00
45.5671 1117.00
45.6323 1107.00
45.6975 1109.00
45.7627 1169.00
45.8279 1227.00
45.8931 1326.00
45.9583 1459.00
46.0235 1396.00
46.0887 1302.00
46.1539 1184.00
46.2191 1279.00
46.2843 1344.00
46.3495 1402.00
46.4147 1261.00
46.4799 1372.00
46.5451 1304.00
46.6103 1444.00
46.6755 1736.00
46.7407 2107.00
46.8059 3008.00
46.8711 4261.00
46.9363 4824.00
47.0015 3972.00
47.0667 3239.00
47.1319 2522.00
47.1971 2175.00
47.2623 1969.00
47.3275 1700.00
47.3927 1469.00
47.4579 1215.00
47.523 1132.00
47.5882 1037.00
47.6534 1104.00
47.7186 1055.00
47.7838 1011.00
47.849 955.00
47.9142 1040.00
47.9794 950.00
48.0446 1057.00
48.1098 1024.00
48.175 1064.00
48.2402 1017.00
48.3054 1019.00
48.3706 1002.00
48.4358 1008.00
48.501 968.00
48.5662 1022.00
48.6314 1014.00
48.6966 1010.00
48.7618 1008.00
48.827 1049.00
48.8922 1158.00
48.9574 1241.00
49.0226 1339.00
49.0878 1324.00
49.153 1450.00
49.2182 1690.00
49.2834 2188.00
49.3486 2750.00
49.4138 3289.00
49.479 3133.00
49.5442 2693.00
49.6094 2254.00
49.6746 1907.00
49.7398 1565.00
49.805 1398.00
49.8702 1246.00
49.9354 1262.00
50.0006 1214.00
50.0658 1146.00
50.131 1124.00
50.1962 1025.00
50.2614 1094.00
50.3266 1046.00
50.3918 1125.00
50.457 1224.00
50.5222 1313.00
50.5874 1364.00
50.6526 1646.00
50.7178 1787.00
50.783 1748.00
50.8482 1696.00
50.9134 1502.00
50.9786 1323.00
51.0438 1351.00
51.109 1452.00
51.1742 1517.00
51.2394 1606.00
51.3046 2020.00
51.3698 2551.00
51.435 3058.00
51.5002 3205.00
51.5654 3028.00
51.6306 2542.00
51.6958 2096.00
51.761 1848.00
51.8262 1642.00
51.8914 1460.00
51.9566 1288.00
52.0218 1203.00
52.087 1158.00
52.1522 1051.00
52.2174 1016.00
52.2826 1011.00
52.3477 1015.00
52.4129 997.00
52.4781 987.00
52.5433 998.00
52.6085 1018.00
52.6737 1134.00
52.7389 1069.00
52.8041 1157.00
52.8693 1189.00
52.9345 1548.00
52.9997 1987.00
53.0649 2865.00
53.1301 3648.00
53.1953 3807.00
53.2605 3648.00
53.3257 3016.00
53.3909 2692.00
53.4561 2148.00
53.5213 1776.00
53.5865 1479.00
53.6517 1278.00
53.7169 1154.00
53.7821 1192.00
53.8473 1214.00
53.9125 1150.00
53.9777 1135.00
54.0429 1094.00
54.1081 1103.00
54.1733 1029.00
54.2385 1064.00
54.3037 1120.00
54.3689 1054.00
54.4341 1077.00
54.4993 1149.00
54.5645 1185.00
54.6297 1303.00
54.6949 1440.00
54.7601 1537.00
54.8253 1652.00
54.8905 1554.00
54.9557 1591.00
55.0209 1370.00
55.0861 1298.00
55.1513 1126.00
55.2165 1160.00
55.2817 1123.00
55.3469 1184.00
55.4121 1203.00
55.4773 1249.00
55.5425 1285.00
55.6077 1298.00
55.6729 1215.00
55.7381 1217.00
55.8033 1242.00
55.8685 1290.00
55.9337 1371.00
55.9989 1456.00
56.0641 1323.00
56.1293 1311.00
56.1945 1231.00
56.2597 1220.00
56.3249 1142.00
56.3901 1181.00
56.4553 1096.00
56.5205 1048.00
56.5857 1059.00
56.6509 1082.00
56.7161 1073.00
56.7813 1163.00
56.8465 1124.00
56.9117 1127.00
56.9769 1201.00
57.042 1185.00
57.1073 1249.00
57.1724 1187.00
57.2376 1211.00
57.3028 1350.00
57.368 1330.00
57.4332 1291.00
57.4984 1309.00
57.5636 1365.00
57.6288 1336.00
57.694 1258.00
57.7592 1229.00
57.8244 1215.00
57.8896 1241.00
57.9548 1168.00
58.02 1203.00
58.0852 1117.00
58.1504 1115.00
58.2156 1094.00
58.2808 1079.00
58.346 1089.00
58.4112 977.00
58.4764 1078.00
58.5416 1122.00
58.6068 1123.00
58.672 1158.00
58.7372 1234.00
58.8024 1250.00
58.8676 1445.00
58.9328 1612.00
58.998 2016.00
59.0632 2703.00
59.1284 3378.00
59.1936 3257.00
59.2588 3030.00
59.324 3046.00
59.3892 2709.00
59.4544 2413.00
59.5196 1915.00
59.5848 1795.00
59.65 1650.00
59.7152 1650.00
59.7804 1715.00
59.8456 1799.00
59.9108 1750.00
59.976 1631.00
60.0412 1493.00
60.1064 1342.00
60.1716 1176.00
60.2368 1133.00
60.302 1157.00
60.3672 1146.00
60.4324 1194.00
60.4976 1165.00
60.5628 1145.00
60.628 1250.00
60.6932 1360.00
60.7584 1663.00
60.8236 2072.00
60.8888 2028.00
60.954 2145.00
61.0192 2086.00
61.0844 1867.00
61.1496 1659.00
61.2148 1533.00
61.28 1518.00
61.3452 1382.00
61.4104 1404.00
61.4756 1339.00
61.5408 1486.00
61.606 1480.00
61.6712 1677.00
61.7364 1696.00
61.8016 1764.00
61.8667 1761.00
61.932 1609.00
61.9971 1502.00
62.0623 1366.00
62.1275 1289.00
62.1927 1224.00
62.2579 1248.00
62.3231 1271.00
62.3883 1311.00
62.4535 1301.00
62.5187 1326.00
62.5839 1317.00
62.6491 1291.00
62.7143 1276.00
62.7795 1294.00
62.8447 1275.00
62.9099 1342.00
62.9751 1437.00
63.0403 1553.00
63.1055 1547.00
63.1707 1598.00
63.2359 1538.00
63.3011 1547.00
63.3663 1490.00
63.4315 1657.00
63.4967 1567.00
63.5619 1536.00
63.6271 1436.00
63.6923 1471.00
63.7575 1408.00
63.8227 1317.00
63.8879 1357.00
63.9531 1223.00
64.0183 1194.00
64.0835 1153.00
64.1487 1080.00
64.2139 1058.00
64.2791 1100.00
64.3443 1151.00
64.4095 1223.00
64.4747 1348.00
64.5399 1424.00
64.6051 1476.00
64.6703 1370.00
64.7355 1297.00
64.8007 1245.00
64.8659 1165.00
64.9311 1072.00
64.9963 1064.00
65.0615 1055.00
65.1267 1019.00
65.1919 1062.00
65.2571 1003.00
65.3223 990.00
65.3875 987.00
65.4527 945.00
65.5179 1014.00
65.5831 1073.00
65.6483 1108.00
65.7135 1163.00
65.7787 1199.00
65.8439 1183.00
65.9091 1240.00
65.9743 1279.00
66.0395 1175.00
66.1047 1188.00
66.1699 1202.00
66.2351 1191.00
66.3003 1149.00
66.3655 1256.00
66.4307 1265.00
66.4959 1370.00
66.561 1450.00
66.6263 1620.00
66.6915 1645.00
66.7566 1675.00
66.8218 1622.00
66.887 1639.00
66.9522 1486.00
67.0174 1624.00
67.0826 1640.00
67.1478 1540.00
67.213 1460.00
67.2782 1265.00
67.3434 1206.00
67.4086 1241.00
67.4738 1151.00
67.539 1213.00
67.6042 1147.00
67.6694 1098.00
67.7346 1065.00
67.7998 1019.00
67.865 1083.00
67.9302 1076.00
67.9954 1326.00
68.0606 1562.00
68.1258 1624.00
68.191 1547.00
68.2562 1485.00
68.3214 1418.00
68.3866 1268.00
68.4518 1113.00
68.517 1071.00
68.5822 983.00
68.6474 1017.00
68.7126 908.00
68.7778 1032.00
68.843 967.00
68.9082 1011.00
68.9734 1113.00
69.0386 1163.00
69.1038 1144.00
69.169 1183.00
69.2342 1088.00
69.2994 1074.00
69.3646 1010.00
69.4298 1097.00
69.495 1047.00
69.5602 1020.00
69.6254 1003.00
69.6906 1041.00
69.7558 958.00
69.821 971.00
69.8862 991.00
69.9514 924.00
70.0166 907.00
70.0818 868.00
70.147 890.00
70.2122 852.00
70.2774 875.00
70.3426 915.00
70.4078 917.00
70.473 913.00
70.5382 908.00
70.6034 827.00
70.6686 886.00
70.7338 959.00
70.799 905.00
70.8642 1012.00
70.9294 1095.00
70.9946 989.00
71.0598 1149.00
71.125 1119.00
71.1902 1103.00
71.2554 1190.00
71.3205 1223.00
71.3858 1360.00
71.451 1611.00
71.5162 1651.00
71.5813 1560.00
71.6465 1527.00
71.7117 1456.00
71.7769 1373.00
71.8421 1253.00
71.9073 1151.00
71.9725 1055.00
72.0377 1036.00
72.1029 949.00
72.1681 971.00
72.2333 913.00
72.2985 965.00
72.3637 903.00
72.4289 972.00
72.4941 955.00
72.5593 997.00
72.6245 895.00
72.6897 924.00
72.7549 997.00
72.8201 1019.00
72.8853 975.00
72.9505 1001.00
73.0157 1072.00
73.0809 1016.00
73.1461 1095.00
73.2113 1130.00
73.2765 1068.00
73.3417 1176.00
73.4069 1156.00
73.4721 1162.00
73.5373 1237.00
73.6025 1211.00
73.6677 1193.00
73.7329 1162.00
73.7981 1261.00
73.8633 1275.00
73.9285 1304.00
73.9937 1210.00
74.0589 1179.00
74.1241 1057.00
74.1893 1074.00
74.2545 991.00
74.3197 991.00
74.3849 1032.00
74.4501 1018.00
74.5153 1003.00
74.5805 1002.00
74.6457 986.00
74.7109 1066.00
74.7761 1092.00
74.8413 1285.00
74.9065 1243.00
74.9717 1247.00
75.0369 1218.00
75.1021 1192.00
75.1673 1113.00
75.2325 962.00
75.2977 958.00
75.3629 995.00
75.4281 943.00
75.4933 950.00
75.5585 888.00
75.6237 955.00
75.6889 989.00
75.7541 966.00
75.8193 949.00
75.8845 975.00
75.9497 982.00
76.0149 878.00
76.0801 910.00
76.1452 894.00
76.2104 866.00
76.2756 873.00
76.3409 872.00
76.406 925.00
76.4712 878.00
76.5364 904.00
76.6016 944.00
76.6668 985.00
76.732 888.00
76.7972 1016.00
76.8624 1074.00
76.9276 1133.00
76.9928 1111.00
77.058 1064.00
77.1232 1115.00
77.1884 1017.00
77.2536 1100.00
77.3188 1074.00
77.384 964.00
77.4492 1001.00
77.5144 1025.00
77.5796 1025.00
77.6448 999.00
77.71 928.00
77.7752 960.00
77.8404 1009.00
77.9056 995.00
77.9708 949.00
78.036 917.00
78.1012 903.00
78.1664 848.00
78.2316 903.00
78.2968 826.00
78.362 883.00
78.4272 864.00
78.4924 883.00
78.5576 841.00
78.6228 833.00
78.688 836.00
78.7532 876.00
78.8184 859.00
78.8836 891.00
78.9488 906.00
79.014 986.00
79.0792 937.00
79.1444 957.00
79.2096 932.00
79.2748 924.00
79.34 926.00
79.4052 865.00
79.4704 947.00
79.5356 897.00
79.6008 911.00
79.666 911.00
79.7312 1073.00
79.7964 1119.00
79.8616 1165.00
79.9268 1365.00
79.992 1440.00
80.0572 1440.00
80.1224 1384.00
80.1876 1311.00
80.2528 1344.00
80.318 1264.00
80.3832 1221.00
80.4484 1226.00
80.5136 1215.00
80.5788 1188.00
80.644 1163.00
80.7092 1112.00
80.7744 1086.00
80.8396 1108.00
80.9048 1049.00
80.9699 993.00
81.0351 900.00
81.1003 930.00
81.1655 953.00
81.2307 938.00
81.2959 998.00
81.3611 1030.00
81.4263 1115.00
81.4915 1196.00
81.5567 1325.00
81.6219 1298.00
81.6871 1266.00
81.7523 1272.00
81.8175 1257.00
81.8827 1192.00
81.9479 1151.00
82.0131 1072.00
82.0783 950.00
82.1435 1020.00
82.2087 985.00
82.2739 990.00
82.3391 988.00
82.4043 944.00
82.4695 873.00
82.5347 882.00
82.5999 907.00
82.6651 920.00
82.7303 863.00
82.7955 940.00
82.8607 861.00
82.9259 944.00
82.9911 1017.00
83.0563 1031.00
83.1215 1087.00
83.1867 1080.00
83.2519 1100.00
83.3171 1129.00
83.3823 1035.00
83.4475 987.00
83.5127 960.00
83.5779 917.00
83.6431 931.00
83.7083 878.00
83.7735 894.00
83.8387 890.00
83.9039 866.00
83.9691 873.00
84.0343 858.00
84.0995 817.00
84.1647 896.00
84.2299 870.00
84.2951 907.00
84.3603 851.00
84.4255 929.00
84.4907 903.00
84.5559 915.00
84.6211 879.00
84.6863 986.00
84.7515 944.00
84.8167 954.00
84.8819 929.00
84.9471 930.00
85.0123 934.00
85.0775 921.00
85.1427 907.00
85.2079 845.00
85.2731 835.00
85.3383 902.00
85.4035 866.00
85.4687 905.00
85.5339 869.00
85.5991 853.00
85.6643 851.00
85.7295 838.00
85.7946 859.00
85.8598 900.00
85.925 845.00
85.9903 928.00
86.0554 950.00
86.1206 857.00
86.1858 926.00
86.251 926.00
86.3162 939.00
86.3814 1007.00
86.4466 995.00
86.5118 1079.00
86.577 1089.00
86.6422 1211.00
86.7074 1317.00
86.7726 1238.00
86.8378 1202.00
86.903 1233.00
86.9682 1190.00
87.0334 1160.00
87.0986 1150.00
87.1638 1075.00
87.229 1015.00
87.2942 1055.00
87.3594 1057.00
87.4246 1105.00
87.4898 1062.00
87.555 1034.00
87.6202 1044.00
87.6854 955.00
87.7506 960.00
87.8158 959.00
87.881 986.00
87.9462 1045.00
88.0114 974.00
88.0766 967.00
88.1418 990.00
88.207 970.00
88.2722 963.00
88.3374 969.00
88.4026 1027.00
88.4678 1016.00
88.533 993.00
88.5982 952.00
88.6634 965.00
88.7286 993.00
88.7938 956.00
88.859 995.00
88.9242 1006.00
88.9894 1004.00
89.0546 970.00
89.1198 975.00
89.185 1036.00
89.2502 999.00
89.3154 1009.00
89.3806 1052.00
89.4458 1000.00
89.511 973.00
89.5762 984.00
89.6414 1036.00
89.7066 1184.00
89.7718 1151.00
89.837 1183.00
89.9022 1120.00
89.9674 1137.00
90.0326 1116.00
90.0978 1115.00
90.163 1105.00
90.2282 1134.00
90.2934 1199.00
90.3586 1131.00
90.4238 961.00
90.489 1013.00
90.5542 1036.00
90.6193 1027.00
90.6845 951.00
90.7497 973.00
90.8149 896.00
90.8801 911.00
90.9453 918.00
91.0105 960.00
91.0757 934.00
91.1409 973.00
91.2061 1079.00
91.2713 1086.00
91.3365 1051.00
91.4017 948.00
91.4669 999.00
91.5321 1028.00
91.5973 992.00
91.6625 983.00
91.7277 943.00
91.7929 915.00
91.8581 817.00
91.9233 849.00
91.9885 851.00
92.0537 890.00
92.1189 821.00
92.1841 863.00
92.2493 952.00
92.3145 793.00
92.3797 890.00
92.4449 841.00
92.5101 867.00
92.5753 877.00
92.6405 933.00
92.7057 890.00
92.7709 901.00
92.8361 894.00
92.9013 934.00
92.9665 948.00
93.0317 987.00
93.0969 970.00
93.1621 970.00
93.2273 1079.00
93.2925 1101.00
93.3577 1102.00
93.4229 1150.00
93.4881 1225.00
93.5533 1175.00
93.6185 1105.00
93.6837 1074.00
93.7489 1059.00
93.8141 1039.00
93.8793 978.00
93.9445 943.00
94.0097 1008.00
94.0749 901.00
94.1401 840.00
94.2053 902.00
94.2705 888.00
94.3357 921.00
94.4009 967.00
94.4661 1026.00
94.5313 992.00
94.5965 1105.00
94.6617 1007.00
94.7269 1102.00
94.7921 1045.00
94.8573 1104.00
94.9225 996.00
94.9877 998.00
95.0529 996.00
95.1181 995.00
95.1833 945.00
95.2485 950.00
95.3137 939.00
95.3789 918.00
95.444 945.00
95.5092 940.00
95.5744 996.00
95.6396 999.00
95.7048 988.00
95.77 972.00
95.8352 976.00
95.9004 1027.00
95.9656 1031.00
96.0308 1034.00
96.096 1003.00
96.1612 882.00
96.2264 902.00
96.2916 955.00
96.3568 900.00
96.422 911.00
96.4872 873.00
96.5524 901.00
96.6176 857.00
96.6828 818.00
96.748 877.00
96.8132 886.00
96.8784 800.00
96.9436 863.00
97.0088 905.00
97.074 835.00
97.1392 870.00
97.2044 848.00
97.2696 875.00
97.3348 864.00
97.4 890.00
97.4652 886.00
97.5304 844.00
97.5956 835.00
97.6608 868.00
97.726 896.00
97.7912 842.00
97.8564 872.00
97.9216 884.00
97.9868 886.00
98.052 881.00
98.1172 811.00
98.1824 852.00
98.2476 894.00
98.3128 798.00
98.378 852.00
98.4432 852.00
98.5084 862.00
98.5736 874.00
98.6388 881.00
98.704 886.00
98.7692 920.00
98.8344 866.00
98.8996 946.00
98.9648 980.00
99.03 977.00
99.0952 954.00
99.1604 974.00
99.2256 978.00
99.2908 1025.00
99.356 1099.00
99.4212 1124.00
99.4864 1229.00
99.5516 1201.00
99.6168 1222.00
99.682 1274.00
99.7472 1208.00
99.8124 1213.00
99.8776 1191.00
99.9428 1187.00
100.008 1215.00
100.073 1177.00
100.095 1177.00