File: data/xrd_creation/results/NSC_182.xy
9.903433 3173.00
9.968632 3137.00
10.0338 3085.00
10.099 3042.00
10.1642 3118.00
10.2294 3037.00
10.2946 3024.00
10.3598 2984.00
10.425 2877.00
10.4902 2906.00
10.5554 2940.00
10.6206 2878.00
10.6858 2902.00
10.751 2813.00
10.8162 2893.00
10.8814 2835.00
10.9466 2811.00
11.0118 2804.00
11.077 2880.00
11.1422 2764.00
11.2074 2796.00
11.2726 2833.00
11.3378 2767.00
11.403 2729.00
11.4682 2747.00
11.5334 2666.00
11.5986 2702.00
11.6638 2752.00
11.729 2675.00
11.7942 2613.00
11.8594 2668.00
11.9246 2726.00
11.9898 2590.00
12.055 2657.00
12.1202 2584.00
12.1854 2530.00
12.2506 2530.00
12.3158 2501.00
12.381 2646.00
12.4462 2558.00
12.5114 2557.00
12.5766 2579.00
12.6418 2460.00
12.707 2523.00
12.7722 2616.00
12.8374 2568.00
12.9026 2504.00
12.9678 2554.00
13.033 2556.00
13.0982 2409.00
13.1634 2386.00
13.2286 2519.00
13.2938 2484.00
13.359 2409.00
13.4242 2499.00
13.4894 2466.00
13.5546 2470.00
13.6198 2496.00
13.685 2617.00
13.7502 2553.00
13.8154 2853.00
13.8805 3305.00
13.9457 4020.00
14.0109 4910.00
14.0761 6252.00
14.1413 7583.00
14.2065 4878.00
14.2717 2699.00
14.3369 2437.00
14.4021 2458.00
14.4673 2428.00
14.5325 2384.00
14.5977 2342.00
14.6629 2283.00
14.7281 2342.00
14.7933 2377.00
14.8585 2226.00
14.9237 2411.00
14.9889 2361.00
15.0541 2397.00
15.1193 2305.00
15.1845 2329.00
15.2497 2283.00
15.3149 2262.00
15.3801 2345.00
15.4453 2308.00
15.5105 2244.00
15.5757 2328.00
15.6409 2230.00
15.7061 2283.00
15.7713 2364.00
15.8365 2328.00
15.9017 2248.00
15.9669 2209.00
16.0321 2349.00
16.0973 2332.00
16.1625 2231.00
16.2277 2253.00
16.2929 2294.00
16.3581 2278.00
16.4233 2267.00
16.4885 2285.00
16.5537 2269.00
16.6189 2350.00
16.6841 2358.00
16.7493 2265.00
16.8145 2153.00
16.8797 2191.00
16.9449 2259.00
17.0101 2155.00
17.0753 2306.00
17.1405 2155.00
17.2057 2226.00
17.2709 2222.00
17.3361 2089.00
17.4013 2132.00
17.4665 2103.00
17.5317 2168.00
17.5969 2188.00
17.6621 2205.00
17.7273 2120.00
17.7925 2135.00
17.8577 2149.00
17.9229 2158.00
17.9881 2186.00
18.0533 2034.00
18.1185 2103.00
18.1837 2007.00
18.2489 2098.00
18.3141 2071.00
18.3793 2158.00
18.4445 2094.00
18.5097 2035.00
18.5749 2064.00
18.6401 2015.00
18.7052 2051.00
18.7704 1956.00
18.8356 1996.00
18.9008 2056.00
18.966 2035.00
19.0312 2034.00
19.0964 2029.00
19.1616 2137.00
19.2268 2137.00
19.292 2195.00
19.3572 2108.00
19.4224 2347.00
19.4876 2438.00
19.5528 2550.00
19.618 3186.00
19.6832 4278.00
19.7484 6947.00
19.8136 11190.00
19.8788 15263.00
19.944 12334.00
20.0092 5417.00
20.0744 2581.00
20.1396 2301.00
20.2048 2157.00
20.27 2078.00
20.3352 2078.00
20.4004 2002.00
20.4656 2110.00
20.5308 1952.00
20.596 1906.00
20.6612 1943.00
20.7264 1914.00
20.7916 1934.00
20.8568 1873.00
20.922 1940.00
20.9872 1900.00
21.0524 1947.00
21.1176 1962.00
21.1828 1904.00
21.248 1962.00
21.3132 1907.00
21.3784 1880.00
21.4436 1938.00
21.5088 1976.00
21.574 1884.00
21.6392 1944.00
21.7044 1825.00
21.7696 1875.00
21.8348 1894.00
21.9 1887.00
21.9652 1862.00
22.0304 1955.00
22.0956 1879.00
22.1608 1908.00
22.226 1950.00
22.2912 1926.00
22.3564 1954.00
22.4216 2005.00
22.4868 2040.00
22.552 1974.00
22.6172 1856.00
22.6824 1940.00
22.7476 1928.00
22.8128 1979.00
22.878 2157.00
22.9432 2101.00
23.0084 2409.00
23.0736 2763.00
23.1388 3865.00
23.204 6893.00
23.2692 12300.00
23.3344 17718.00
23.3996 10441.00
23.4647 3491.00
23.5299 2367.00
23.5951 2128.00
23.6603 2062.00
23.7255 1900.00
23.7907 1792.00
23.8559 1983.00
23.9211 1940.00
23.9863 1856.00
24.0515 2021.00
24.1167 2054.00
24.1819 2362.00
24.2471 2735.00
24.3123 2732.00
24.3775 2583.00
24.4427 2174.00
24.5079 1854.00
24.5731 1850.00
24.6383 1970.00
24.7035 1793.00
24.7687 1805.00
24.8339 1798.00
24.8991 1815.00
24.9643 1870.00
25.0295 1815.00
25.0947 1835.00
25.1599 1874.00
25.2251 1849.00
25.2903 1808.00
25.3555 1767.00
25.4207 1857.00
25.4859 1783.00
25.5511 1874.00
25.6163 1744.00
25.6815 1752.00
25.7467 1834.00
25.8119 1875.00
25.8771 1674.00
25.9423 1748.00
26.0075 1789.00
26.0727 1701.00
26.1379 1793.00
26.2031 1772.00
26.2683 1803.00
26.3335 1710.00
26.3987 1701.00
26.4639 1774.00
26.5291 1748.00
26.5943 1756.00
26.6595 1803.00
26.7247 1685.00
26.7899 1763.00
26.8551 1752.00
26.9203 1712.00
26.9855 1750.00
27.0507 1755.00
27.1159 1810.00
27.1811 1736.00
27.2463 1709.00
27.3115 1740.00
27.3767 1755.00
27.4419 1769.00
27.5071 1788.00
27.5723 1753.00
27.6375 1797.00
27.7027 1712.00
27.7679 1786.00
27.8331 1833.00
27.8983 2059.00
27.9635 2455.00
28.0287 3562.00
28.0939 5927.00
28.1591 7735.00
28.2243 4978.00
28.2894 2490.00
28.3546 1908.00
28.4198 1896.00
28.485 1760.00
28.5502 1696.00
28.6154 1845.00
28.6806 1757.00
28.7458 1663.00
28.811 1677.00
28.8762 1782.00
28.9414 1692.00
29.0066 1642.00
29.0718 1594.00
29.137 1664.00
29.2022 1625.00
29.2674 1672.00
29.3326 1611.00
29.3978 1632.00
29.463 1584.00
29.5282 1683.00
29.5934 1665.00
29.6586 1594.00
29.7238 1640.00
29.789 1669.00
29.8542 1756.00
29.9194 1681.00
29.9846 1668.00
30.0498 1676.00
30.115 1652.00
30.1802 1721.00
30.2454 1656.00
30.3106 1644.00
30.3758 1739.00
30.441 1837.00
30.5062 1887.00
30.5714 2060.00
30.6366 2792.00
30.7018 4218.00
30.767 4860.00
30.8322 3455.00
30.8974 2352.00
30.9626 2180.00
31.0278 2037.00
31.093 2202.00
31.1582 2483.00
31.2234 3140.00
31.2886 4979.00
31.3538 9768.00
31.419 19987.00
31.4842 27066.00
31.5494 16230.00
31.6146 6224.00
31.6798 3073.00
31.745 2674.00
31.8102 2461.00
31.8754 2113.00
31.9406 1855.00
32.0058 1738.00
32.071 1695.00
32.1362 1635.00
32.2014 1669.00
32.2666 1635.00
32.3318 1628.00
32.397 1637.00
32.4622 1560.00
32.5274 1605.00
32.5926 1608.00
32.6578 1621.00
32.723 1599.00
32.7882 1569.00
32.8534 1562.00
32.9186 1577.00
32.9838 1557.00
33.0489 1486.00
33.1141 1580.00
33.1793 1563.00
33.2445 1549.00
33.3097 1551.00
33.3749 1526.00
33.4401 1445.00
33.5053 1581.00
33.5705 1557.00
33.6357 1532.00
33.7009 1584.00
33.7661 1556.00
33.8313 1563.00
33.8965 1651.00
33.9617 1609.00
34.0269 1635.00
34.0921 1680.00
34.1573 1687.00
34.2225 1718.00
34.2877 1820.00
34.3529 1898.00
34.4181 2665.00
34.4833 4717.00
34.5485 10114.00
34.6137 16506.00
34.6789 12555.00
34.7441 6520.00
34.8093 2756.00
34.8745 1939.00
34.9397 1796.00
35.0049 1674.00
35.0701 1589.00
35.1353 1459.00
35.2005 1525.00
35.2657 1486.00
35.3309 1513.00
35.3961 1463.00
35.4613 1474.00
35.5265 1392.00
35.5917 1454.00
35.6569 1471.00
35.7221 1436.00
35.7873 1403.00
35.8525 1412.00
35.9177 1418.00
35.9829 1520.00
36.0481 1419.00
36.1133 1494.00
36.1785 1480.00
36.2437 1441.00
36.3089 1457.00
36.3741 1466.00
36.4393 1538.00
36.5045 1486.00
36.5697 1531.00
36.6349 1443.00
36.7001 1501.00
36.7653 1515.00
36.8305 1464.00
36.8957 1414.00
36.9609 1376.00
37.0261 1482.00
37.0913 1402.00
37.1565 1409.00
37.2217 1470.00
37.2869 1506.00
37.3521 1396.00
37.4173 1380.00
37.4825 1416.00
37.5477 1491.00
37.6129 1400.00
37.6781 1460.00
37.7433 1495.00
37.8085 1466.00
37.8736 1410.00
37.9388 1444.00
38.004 1400.00
38.0692 1367.00
38.1344 1441.00
38.1996 1410.00
38.2648 1421.00
38.33 1458.00
38.3952 1396.00
38.4604 1401.00
38.5256 1482.00
38.5908 1395.00
38.656 1452.00
38.7212 1453.00
38.7864 1393.00
38.8516 1479.00
38.9168 1449.00
38.982 1431.00
39.0472 1392.00
39.1124 1403.00
39.1776 1447.00
39.2428 1418.00
39.308 1472.00
39.3732 1406.00
39.4384 1469.00
39.5036 1443.00
39.5688 1387.00
39.634 1497.00
39.6992 1402.00
39.7644 1484.00
39.8296 1416.00
39.8948 1476.00
39.96 1478.00
40.0252 1633.00
40.0904 1523.00
40.1556 1550.00
40.2208 1592.00
40.286 1439.00
40.3512 1560.00
40.4164 1495.00
40.4816 1445.00
40.5468 1461.00
40.612 1437.00
40.6772 1377.00
40.7424 1410.00
40.8076 1431.00
40.8728 1462.00
40.938 1522.00
41.0032 1426.00
41.0684 1422.00
41.1336 1378.00
41.1988 1348.00
41.264 1436.00
41.3292 1501.00
41.3944 1409.00
41.4596 1376.00
41.5248 1496.00
41.59 1525.00
41.6552 1511.00
41.7204 1621.00
41.7856 1716.00
41.8508 2142.00
41.916 2798.00
41.9812 3644.00
42.0464 3924.00
42.1116 2880.00
42.1768 2209.00
42.242 1661.00
42.3072 1563.00
42.3724 1690.00
42.4376 1830.00
42.5028 2065.00
42.568 2496.00
42.6332 2594.00
42.6983 2260.00
42.7635 1806.00
42.8287 1619.00
42.8939 1438.00
42.9591 1477.00
43.0243 1449.00
43.0895 1438.00
43.1547 1377.00
43.2199 1417.00
43.2851 1444.00
43.3503 1496.00
43.4155 1505.00
43.4807 1432.00
43.5459 1460.00
43.6111 1422.00
43.6763 1429.00
43.7415 1468.00
43.8067 1436.00
43.8719 1416.00
43.9371 1452.00
44.0023 1376.00
44.0675 1433.00
44.1327 1469.00
44.1979 1435.00
44.2631 1538.00
44.3283 1402.00
44.3935 1405.00
44.4587 1418.00
44.5239 1514.00
44.5891 1415.00
44.6543 1503.00
44.7195 1389.00
44.7847 1508.00
44.8499 1735.00
44.9151 2200.00
44.9803 2927.00
45.0455 3134.00
45.1107 2485.00
45.1759 2151.00
45.2411 1654.00
45.3063 1460.00
45.3715 1430.00
45.4367 1424.00
45.5019 1427.00
45.5671 1448.00
45.6323 1421.00
45.6975 1417.00
45.7627 1357.00
45.8279 1425.00
45.8931 1463.00
45.9583 1498.00
46.0235 1448.00
46.0887 1450.00
46.1539 1361.00
46.2191 1426.00
46.2843 1403.00
46.3495 1387.00
46.4147 1448.00
46.4799 1420.00
46.5451 1411.00
46.6103 1451.00
46.6755 1569.00
46.7407 1650.00
46.8059 1726.00
46.8711 1627.00
46.9363 1675.00
47.0015 1843.00
47.0667 2116.00
47.1319 2949.00
47.1971 4759.00
47.2623 8395.00
47.3275 11226.00
47.3927 7800.00
47.4579 6082.00
47.523 3118.00
47.5882 2022.00
47.6534 1711.00
47.7186 1563.00
47.7838 1509.00
47.849 1489.00
47.9142 1439.00
47.9794 1444.00
48.0446 1432.00
48.1098 1365.00
48.175 1426.00
48.2402 1431.00
48.3054 1364.00
48.3706 1378.00
48.4358 1388.00
48.501 1324.00
48.5662 1426.00
48.6314 1358.00
48.6966 1400.00
48.7618 1490.00
48.827 1408.00
48.8922 1347.00
48.9574 1465.00
49.0226 1438.00
49.0878 1537.00
49.153 1593.00
49.2182 1683.00
49.2834 2161.00
49.3486 2553.00
49.4138 2587.00
49.479 2358.00
49.5442 2121.00
49.6094 1861.00
49.6746 1591.00
49.7398 1525.00
49.805 1381.00
49.8702 1381.00
49.9354 1469.00
50.0006 1334.00
50.0658 1336.00
50.131 1415.00
50.1962 1362.00
50.2614 1304.00
50.3266 1251.00
50.3918 1392.00
50.457 1304.00
50.5222 1296.00
50.5874 1310.00
50.6526 1366.00
50.7178 1325.00
50.783 1382.00
50.8482 1345.00
50.9134 1419.00
50.9786 1415.00
51.0438 1575.00
51.109 2037.00
51.1742 2363.00
51.2394 2197.00
51.3046 2068.00
51.3698 1853.00
51.435 1776.00
51.5002 2497.00
51.5654 3508.00
51.6306 3967.00
51.6958 3018.00
51.761 2742.00
51.8262 1924.00
51.8914 1617.00
51.9566 1480.00
52.0218 1385.00
52.087 1294.00
52.1522 1361.00
52.2174 1360.00
52.2826 1341.00
52.3477 1263.00
52.4129 1351.00
52.4781 1329.00
52.5433 1320.00
52.6085 1379.00
52.6737 1462.00
52.7389 1472.00
52.8041 1466.00
52.8693 1494.00
52.9345 1438.00
52.9997 1442.00
53.0649 1385.00
53.1301 1398.00
53.1953 1346.00
53.2605 1270.00
53.3257 1355.00
53.3909 1393.00
53.4561 1413.00
53.5213 1483.00
53.5865 1544.00
53.6517 1829.00
53.7169 2332.00
53.7821 3442.00
53.8473 4257.00
53.9125 3514.00
53.9777 3002.00
54.0429 2228.00
54.1081 1619.00
54.1733 1413.00
54.2385 1388.00
54.3037 1317.00
54.3689 1347.00
54.4341 1285.00
54.4993 1215.00
54.5645 1278.00
54.6297 1308.00
54.6949 1228.00
54.7601 1241.00
54.8253 1324.00
54.8905 1287.00
54.9557 1249.00
55.0209 1227.00
55.0861 1262.00
55.1513 1309.00
55.2165 1408.00
55.2817 1578.00
55.3469 1771.00
55.4121 1674.00
55.4773 1477.00
55.5425 1504.00
55.6077 1376.00
55.6729 1241.00
55.7381 1261.00
55.8033 1198.00
55.8685 1269.00
55.9337 1245.00
55.9989 1319.00
56.0641 1260.00
56.1293 1233.00
56.1945 1215.00
56.2597 1300.00
56.3249 1217.00
56.3901 1173.00
56.4553 1274.00
56.5205 1302.00
56.5857 1260.00
56.6509 1214.00
56.7161 1197.00
56.7813 1214.00
56.8465 1281.00
56.9117 1197.00
56.9769 1114.00
57.042 1228.00
57.1073 1099.00
57.1724 1237.00
57.2376 1193.00
57.3028 1218.00
57.368 1221.00
57.4332 1199.00
57.4984 1217.00
57.5636 1185.00
57.6288 1305.00
57.694 1189.00
57.7592 1170.00
57.8244 1192.00
57.8896 1218.00
57.9548 1271.00
58.02 1297.00
58.0852 1182.00
58.1504 1285.00
58.2156 1171.00
58.2808 1223.00
58.346 1241.00
58.4112 1207.00
58.4764 1237.00
58.5416 1252.00
58.6068 1242.00
58.672 1223.00
58.7372 1169.00
58.8024 1229.00
58.8676 1201.00
58.9328 1155.00
58.998 1212.00
59.0632 1305.00
59.1284 1290.00
59.1936 1314.00
59.2588 1303.00
59.324 1289.00
59.3892 1418.00
59.4544 1601.00
59.5196 1856.00
59.5848 2372.00
59.65 3477.00
59.7152 4779.00
59.7804 5173.00
59.8456 4095.00
59.9108 3497.00
59.976 2710.00
60.0412 1771.00
60.1064 1430.00
60.1716 1330.00
60.2368 1291.00
60.302 1232.00
60.3672 1252.00
60.4324 1244.00
60.4976 1228.00
60.5628 1237.00
60.628 1198.00
60.6932 1227.00
60.7584 1244.00
60.8236 1219.00
60.8888 1215.00
60.954 1225.00
61.0192 1263.00
61.0844 1262.00
61.1496 1248.00
61.2148 1415.00
61.28 1414.00
61.3452 1659.00
61.4104 2025.00
61.4756 2647.00
61.5408 3197.00
61.606 2943.00
61.6712 3434.00
61.7364 3459.00
61.8016 2489.00
61.8667 2178.00
61.932 1765.00
61.9971 1527.00
62.0623 1322.00
62.1275 1257.00
62.1927 1231.00
62.2579 1316.00
62.3231 1238.00
62.3883 1184.00
62.4535 1253.00
62.5187 1208.00
62.5839 1302.00
62.6491 1155.00
62.7143 1178.00
62.7795 1293.00
62.8447 1301.00
62.9099 1394.00
62.9751 1461.00
63.0403 1446.00
63.1055 1481.00
63.1707 1550.00
63.2359 1471.00
63.3011 1546.00
63.3663 1605.00
63.4315 1674.00
63.4967 1726.00
63.5619 1503.00
63.6271 1444.00
63.6923 1360.00
63.7575 1206.00
63.8227 1144.00
63.8879 1126.00
63.9531 1151.00
64.0183 1188.00
64.0835 1213.00
64.1487 1157.00
64.2139 1237.00
64.2791 1104.00
64.3443 1190.00
64.4095 1192.00
64.4747 1214.00
64.5399 1154.00
64.6051 1161.00
64.6703 1205.00
64.7355 1194.00
64.8007 1150.00
64.8659 1218.00
64.9311 1212.00
64.9963 1166.00
65.0615 1158.00
65.1267 1224.00
65.1919 1120.00
65.2571 1215.00
65.3223 1336.00
65.3875 1431.00
65.4527 1447.00
65.5179 1308.00
65.5831 1303.00
65.6483 1241.00
65.7135 1255.00
65.7787 1189.00
65.8439 1150.00
65.9091 1154.00
65.9743 1134.00
66.0395 1120.00
66.1047 1172.00
66.1699 1147.00
66.2351 1196.00
66.3003 1243.00
66.3655 1219.00
66.4307 1296.00
66.4959 1376.00
66.561 1381.00
66.6263 1509.00
66.6915 1678.00
66.7566 1847.00
66.8218 1815.00
66.887 1699.00
66.9522 1710.00
67.0174 1795.00
67.0826 1788.00
67.1478 1783.00
67.213 1551.00
67.2782 1463.00
67.3434 1467.00
67.4086 1244.00
67.4738 1155.00
67.539 1120.00
67.6042 1095.00
67.6694 1065.00
67.7346 1138.00
67.7998 1162.00
67.865 1077.00
67.9302 1113.00
67.9954 1062.00
68.0606 1126.00
68.1258 1091.00
68.191 1139.00
68.2562 1097.00
68.3214 1084.00
68.3866 1065.00
68.4518 1159.00
68.517 1116.00
68.5822 1205.00
68.6474 1299.00
68.7126 1362.00
68.7778 1385.00
68.843 1298.00
68.9082 1511.00
68.9734 1740.00
69.0386 1796.00
69.1038 1577.00
69.169 1452.00
69.2342 1528.00
69.2994 1357.00
69.3646 1193.00
69.4298 1146.00
69.495 1066.00
69.5602 1140.00
69.6254 1100.00
69.6906 1143.00
69.7558 1135.00
69.821 1079.00
69.8862 1099.00
69.9514 1110.00
70.0166 1093.00
70.0818 1154.00
70.147 1207.00
70.2122 1284.00
70.2774 1377.00
70.3426 1415.00
70.4078 1327.00
70.473 1300.00
70.5382 1235.00
70.6034 1188.00
70.6686 1111.00
70.7338 1096.00
70.799 1134.00
70.8642 1081.00
70.9294 1167.00
70.9946 1094.00
71.0598 1071.00
71.125 1083.00
71.1902 1053.00
71.2554 1086.00
71.3205 1068.00
71.3858 1120.00
71.451 1087.00
71.5162 1106.00
71.5813 1114.00
71.6465 1119.00
71.7117 1114.00
71.7769 1137.00
71.8421 1075.00
71.9073 1123.00
71.9725 1133.00
72.0377 1184.00
72.1029 1207.00
72.1681 1252.00
72.2333 1288.00
72.2985 1265.00
72.3637 1309.00
72.4289 1534.00
72.4941 1759.00
72.5593 1978.00
72.6245 1890.00
72.6897 1731.00
72.7549 1623.00
72.8201 1560.00
72.8853 1260.00
72.9505 1169.00
73.0157 1052.00
73.0809 1048.00
73.1461 1071.00
73.2113 1102.00
73.2765 1084.00
73.3417 1100.00
73.4069 1122.00
73.4721 1021.00
73.5373 1112.00
73.6025 1105.00
73.6677 1174.00
73.7329 1169.00
73.7981 1297.00
73.8633 1304.00
73.9285 1216.00
73.9937 1279.00
74.0589 1299.00
74.1241 1289.00
74.1893 1202.00
74.2545 1222.00
74.3197 1206.00
74.3849 1174.00
74.4501 1209.00
74.5153 1198.00
74.5805 1210.00
74.6457 1086.00
74.7109 1085.00
74.7761 1112.00
74.8413 1113.00
74.9065 1085.00
74.9717 1025.00
75.0369 1070.00
75.1021 1061.00
75.1673 1102.00
75.2325 1100.00
75.2977 1106.00
75.3629 1081.00
75.4281 1163.00
75.4933 1119.00
75.5585 1194.00
75.6237 1288.00
75.6889 1403.00
75.7541 1399.00
75.8193 1375.00
75.8845 1428.00
75.9497 1356.00
76.0149 1378.00
76.0801 1231.00
76.1452 1251.00
76.2104 1197.00
76.2756 1144.00
76.3409 1105.00
76.406 1059.00
76.4712 1096.00
76.5364 1057.00
76.6016 1052.00
76.6668 1093.00
76.732 1128.00
76.7972 1004.00
76.8624 1131.00
76.9276 1083.00
76.9928 1106.00
77.058 1054.00
77.1232 1111.00
77.1884 1196.00
77.2536 1226.00
77.3188 1204.00
77.384 1132.00
77.4492 1122.00
77.5144 1216.00
77.5796 1323.00
77.6448 1299.00
77.71 1218.00
77.7752 1170.00
77.8404 1174.00
77.9056 1102.00
77.9708 1076.00
78.036 1080.00
78.1012 1103.00
78.1664 1041.00
78.2316 1011.00
78.2968 1012.00
78.362 1031.00
78.4272 1088.00
78.4924 1086.00
78.5576 1004.00
78.6228 1016.00
78.688 1064.00
78.7532 1091.00
78.8184 1113.00
78.8836 1090.00
78.9488 1076.00
79.014 1019.00
79.0792 1059.00
79.1444 1054.00
79.2096 1046.00
79.2748 1132.00
79.34 1102.00
79.4052 1006.00
79.4704 1119.00
79.5356 1055.00
79.6008 1052.00
79.666 1075.00
79.7312 988.00
79.7964 999.00
79.8616 1037.00
79.9268 1147.00
79.992 1077.00
80.0572 1064.00
80.1224 1168.00
80.1876 1111.00
80.2528 1094.00
80.318 1068.00
80.3832 1156.00
80.4484 1119.00
80.5136 1104.00
80.5788 1194.00
80.644 1272.00
80.7092 1241.00
80.7744 1365.00
80.8396 1336.00
80.9048 1447.00
80.9699 1689.00
81.0351 1918.00
81.1003 1836.00
81.1655 1685.00
81.2307 1499.00
81.2959 1536.00
81.3611 1397.00
81.4263 1223.00
81.4915 1174.00
81.5567 1074.00
81.6219 1069.00
81.6871 1056.00
81.7523 1070.00
81.8175 1075.00
81.8827 966.00
81.9479 1023.00
82.0131 1071.00
82.0783 1020.00
82.1435 1061.00
82.2087 1029.00
82.2739 1114.00
82.3391 1191.00
82.4043 1212.00
82.4695 1317.00
82.5347 1346.00
82.5999 1503.00
82.6651 1468.00
82.7303 1362.00
82.7955 1399.00
82.8607 1333.00
82.9259 1236.00
82.9911 1180.00
83.0563 1164.00
83.1215 1063.00
83.1867 1089.00
83.2519 1125.00
83.3171 1127.00
83.3823 1022.00
83.4475 1118.00
83.5127 1083.00
83.5779 1126.00
83.6431 1101.00
83.7083 1064.00
83.7735 1073.00
83.8387 1253.00
83.9039 1162.00
83.9691 1205.00
84.0343 1140.00
84.0995 1101.00
84.1647 1148.00
84.2299 1093.00
84.2951 1029.00
84.3603 1076.00
84.4255 1021.00
84.4907 1028.00
84.5559 1052.00
84.6211 1029.00
84.6863 1052.00
84.7515 1074.00
84.8167 1121.00
84.8819 1070.00
84.9471 1115.00
85.0123 1048.00
85.0775 1055.00
85.1427 1083.00
85.2079 1016.00
85.2731 1052.00
85.3383 974.00
85.4035 1034.00
85.4687 1082.00
85.5339 1080.00
85.5991 1078.00
85.6643 1137.00
85.7295 1115.00
85.7946 1081.00
85.8598 1133.00
85.925 1092.00
85.9903 1111.00
86.0554 1122.00
86.1206 1160.00
86.1858 1099.00
86.251 1105.00
86.3162 1082.00
86.3814 1070.00
86.4466 1028.00
86.5118 1035.00
86.577 1105.00
86.6422 1067.00
86.7074 1082.00
86.7726 1129.00
86.8378 1001.00
86.903 1086.00
86.9682 1072.00
87.0334 1144.00
87.0986 1162.00
87.1638 1237.00
87.229 1146.00
87.2942 1198.00
87.3594 1303.00
87.4246 1274.00
87.4898 1348.00
87.555 1397.00
87.6202 1615.00
87.6854 1525.00
87.7506 1398.00
87.8158 1283.00
87.881 1280.00
87.9462 1313.00
88.0114 1278.00
88.0766 1150.00
88.1418 1144.00
88.207 1098.00
88.2722 1001.00
88.3374 1080.00
88.4026 1148.00
88.4678 1060.00
88.533 1026.00
88.5982 1073.00
88.6634 1085.00
88.7286 1040.00
88.7938 1106.00
88.859 1128.00
88.9242 1151.00
88.9894 1157.00
89.0546 1279.00
89.1198 1302.00
89.185 1247.00
89.2502 1135.00
89.3154 1223.00
89.3806 1212.00
89.4458 1202.00
89.511 1084.00
89.5762 1114.00
89.6414 1068.00
89.7066 1126.00
89.7718 1058.00
89.837 983.00
89.9022 1066.00
89.9674 1043.00
90.0326 1046.00
90.0978 1132.00
90.163 1023.00
90.2282 1091.00
90.2934 1078.00
90.3586 1057.00
90.4238 1084.00
90.489 1113.00
90.5542 1116.00
90.6193 1278.00
90.6845 1213.00
90.7497 1306.00
90.8149 1253.00
90.8801 1300.00
90.9453 1355.00
91.0105 1315.00
91.0757 1345.00
91.1409 1323.00
91.2061 1257.00
91.2713 1206.00
91.3365 1202.00
91.4017 1181.00
91.4669 1123.00
91.5321 1093.00
91.5973 1039.00
91.6625 1047.00
91.7277 1075.00
91.7929 1045.00
91.8581 1093.00
91.9233 1055.00
91.9885 1113.00
92.0537 1086.00
92.1189 1046.00
92.1841 1177.00
92.2493 1085.00
92.3145 1147.00
92.3797 1199.00
92.4449 1224.00
92.5101 1267.00
92.5753 1386.00
92.6405 1403.00
92.7057 1340.00
92.7709 1216.00
92.8361 1247.00
92.9013 1298.00
92.9665 1221.00
93.0317 1116.00
93.0969 1105.00
93.1621 1111.00
93.2273 1107.00
93.2925 1069.00
93.3577 1010.00
93.4229 1101.00
93.4881 1057.00
93.5533 1038.00
93.6185 1069.00
93.6837 1124.00
93.7489 1111.00
93.8141 1149.00
93.8793 1130.00
93.9445 1161.00
94.0097 1171.00
94.0749 1139.00
94.1401 1197.00
94.2053 1241.00
94.2705 1305.00
94.3357 1276.00
94.4009 1143.00
94.4661 1146.00
94.5313 1189.00
94.5965 1118.00
94.6617 1098.00
94.7269 1076.00
94.7921 1060.00
94.8573 1055.00
94.9225 1036.00
94.9877 1019.00
95.0529 1004.00
95.1181 1092.00
95.1833 1029.00
95.2485 1091.00
95.3137 1058.00
95.3789 1088.00
95.444 1106.00
95.5092 1156.00
95.5744 1011.00
95.6396 1175.00
95.7048 1123.00
95.77 1220.00
95.8352 1169.00
95.9004 1202.00
95.9656 1168.00
96.0308 1225.00
96.096 1155.00
96.1612 1185.00
96.2264 1151.00
96.2916 1116.00
96.3568 1041.00
96.422 1022.00
96.4872 1034.00
96.5524 1079.00
96.6176 1065.00
96.6828 1014.00
96.748 1048.00
96.8132 1009.00
96.8784 1043.00
96.9436 1163.00
97.0088 1088.00
97.074 1114.00
97.1392 1063.00
97.2044 1116.00
97.2696 1126.00
97.3348 1129.00
97.4 1086.00
97.4652 1089.00
97.5304 1036.00
97.5956 1095.00
97.6608 1145.00
97.726 1040.00
97.7912 1060.00
97.8564 1013.00
97.9216 1053.00
97.9868 1005.00
98.052 1006.00
98.1172 1031.00
98.1824 1030.00
98.2476 1014.00
98.3128 1026.00
98.378 1070.00
98.4432 1008.00
98.5084 981.00
98.5736 996.00
98.6388 1024.00
98.704 1070.00
98.7692 1013.00
98.8344 985.00
98.8996 1032.00
98.9648 1065.00
99.03 1066.00
99.0952 1147.00
99.1604 1101.00
99.2256 1087.00
99.2908 1055.00
99.356 1040.00
99.4212 1152.00
99.4864 1056.00
99.5516 1067.00
99.6168 1104.00
99.682 985.00
99.7472 975.00
99.8124 998.00
99.8776 975.00
99.9428 955.00
100.008 1073.00
100.073 1010.00
100.095 1011.00