File: data/xrd_creation/results/NSC_52.xy
9.903433 2814.00
9.968632 2834.00
10.0338 2825.00
10.099 2863.00
10.1642 2887.00
10.2294 2972.00
10.2946 2966.00
10.3598 2985.00
10.425 2860.00
10.4902 2835.00
10.5554 2800.00
10.6206 2736.00
10.6858 2501.00
10.751 2538.00
10.8162 2530.00
10.8814 2635.00
10.9466 2559.00
11.0118 2569.00
11.077 2560.00
11.1422 2456.00
11.2074 2425.00
11.2726 2428.00
11.3378 2397.00
11.403 2296.00
11.4682 2193.00
11.5334 2234.00
11.5986 2337.00
11.6638 2287.00
11.729 2279.00
11.7942 2312.00
11.8594 2246.00
11.9246 2273.00
11.9898 2174.00
12.055 2179.00
12.1202 2239.00
12.1854 2027.00
12.2506 2075.00
12.3158 2123.00
12.381 2118.00
12.4462 2125.00
12.5114 2058.00
12.5766 2064.00
12.6418 2088.00
12.707 1993.00
12.7722 2041.00
12.8374 2003.00
12.9026 1964.00
12.9678 1946.00
13.033 1955.00
13.0982 2009.00
13.1634 1886.00
13.2286 1942.00
13.2938 1827.00
13.359 1982.00
13.4242 1901.00
13.4894 2043.00
13.5546 1983.00
13.6198 1998.00
13.685 1873.00
13.7502 1898.00
13.8154 1879.00
13.8805 1864.00
13.9457 1895.00
14.0109 1852.00
14.0761 1759.00
14.1413 1871.00
14.2065 1844.00
14.2717 1834.00
14.3369 1907.00
14.4021 2014.00
14.4673 2133.00
14.5325 2302.00
14.5977 2433.00
14.6629 2329.00
14.7281 1908.00
14.7933 1854.00
14.8585 1826.00
14.9237 1786.00
14.9889 1759.00
15.0541 1736.00
15.1193 1778.00
15.1845 1696.00
15.2497 1698.00
15.3149 1650.00
15.3801 1748.00
15.4453 1674.00
15.5105 1706.00
15.5757 1678.00
15.6409 1721.00
15.7061 1708.00
15.7713 1643.00
15.8365 1649.00
15.9017 1710.00
15.9669 1683.00
16.0321 1662.00
16.0973 1669.00
16.1625 1707.00
16.2277 1640.00
16.2929 1718.00
16.3581 1676.00
16.4233 1610.00
16.4885 1648.00
16.5537 1578.00
16.6189 1602.00
16.6841 1570.00
16.7493 1621.00
16.8145 1593.00
16.8797 1556.00
16.9449 1615.00
17.0101 1617.00
17.0753 1561.00
17.1405 1516.00
17.2057 1650.00
17.2709 1553.00
17.3361 1587.00
17.4013 1641.00
17.4665 1553.00
17.5317 1611.00
17.5969 1560.00
17.6621 1594.00
17.7273 1443.00
17.7925 1542.00
17.8577 1544.00
17.9229 1563.00
17.9881 1468.00
18.0533 1596.00
18.1185 1436.00
18.1837 1454.00
18.2489 1446.00
18.3141 1466.00
18.3793 1512.00
18.4445 1484.00
18.5097 1436.00
18.5749 1456.00
18.6401 1441.00
18.7052 1531.00
18.7704 1511.00
18.8356 1497.00
18.9008 1602.00
18.966 1692.00
19.0312 1812.00
19.0964 1828.00
19.1616 1957.00
19.2268 1911.00
19.292 1744.00
19.3572 1711.00
19.4224 1764.00
19.4876 1752.00
19.5528 1749.00
19.618 1749.00
19.6832 1634.00
19.7484 1598.00
19.8136 1487.00
19.8788 1367.00
19.944 1451.00
20.0092 1474.00
20.0744 1499.00
20.1396 1452.00
20.2048 1396.00
20.27 1466.00
20.3352 1495.00
20.4004 1572.00
20.4656 1732.00
20.5308 2021.00
20.596 2135.00
20.6612 2123.00
20.7264 2327.00
20.7916 2378.00
20.8568 2768.00
20.922 2861.00
20.9872 2845.00
21.0524 3046.00
21.1176 3114.00
21.1828 2742.00
21.248 2385.00
21.3132 2038.00
21.3784 1846.00
21.4436 1650.00
21.5088 1480.00
21.574 1373.00
21.6392 1322.00
21.7044 1417.00
21.7696 1501.00
21.8348 1587.00
21.9 1639.00
21.9652 2075.00
22.0304 2609.00
22.0956 3201.00
22.1608 3553.00
22.226 3288.00
22.2912 2454.00
22.3564 1807.00
22.4216 1488.00
22.4868 1474.00
22.552 1469.00
22.6172 1431.00
22.6824 1529.00
22.7476 1481.00
22.8128 1397.00
22.878 1358.00
22.9432 1301.00
23.0084 1333.00
23.0736 1232.00
23.1388 1299.00
23.204 1301.00
23.2692 1348.00
23.3344 1234.00
23.3996 1253.00
23.4647 1261.00
23.5299 1263.00
23.5951 1379.00
23.6603 1482.00
23.7255 1647.00
23.7907 1921.00
23.8559 1984.00
23.9211 1834.00
23.9863 1732.00
24.0515 1465.00
24.1167 1426.00
24.1819 1325.00
24.2471 1206.00
24.3123 1239.00
24.3775 1288.00
24.4427 1337.00
24.5079 1230.00
24.5731 1163.00
24.6383 1200.00
24.7035 1190.00
24.7687 1203.00
24.8339 1203.00
24.8991 1273.00
24.9643 1249.00
25.0295 1262.00
25.0947 1181.00
25.1599 1158.00
25.2251 1183.00
25.2903 1306.00
25.3555 1244.00
25.4207 1436.00
25.4859 1489.00
25.5511 1542.00
25.6163 1481.00
25.6815 1317.00
25.7467 1232.00
25.8119 1217.00
25.8771 1191.00
25.9423 1255.00
26.0075 1154.00
26.0727 1217.00
26.1379 1239.00
26.2031 1188.00
26.2683 1185.00
26.3335 1196.00
26.3987 1252.00
26.4639 1256.00
26.5291 1178.00
26.5943 1161.00
26.6595 1181.00
26.7247 1211.00
26.7899 1244.00
26.8551 1288.00
26.9203 1250.00
26.9855 1183.00
27.0507 1170.00
27.1159 1236.00
27.1811 1205.00
27.2463 1194.00
27.3115 1296.00
27.3767 1385.00
27.4419 1373.00
27.5071 1363.00
27.5723 1319.00
27.6375 1283.00
27.7027 1262.00
27.7679 1297.00
27.8331 1248.00
27.8983 1255.00
27.9635 1350.00
28.0287 1587.00
28.0939 1992.00
28.1591 2208.00
28.2243 2092.00
28.2894 1796.00
28.3546 1500.00
28.4198 1302.00
28.485 1224.00
28.5502 1136.00
28.6154 1108.00
28.6806 1063.00
28.7458 1088.00
28.811 1141.00
28.8762 1174.00
28.9414 1175.00
29.0066 1238.00
29.0718 1217.00
29.137 1213.00
29.2022 1176.00
29.2674 1082.00
29.3326 1102.00
29.3978 1090.00
29.463 1080.00
29.5282 1147.00
29.5934 1120.00
29.6586 1137.00
29.7238 1111.00
29.789 1086.00
29.8542 1117.00
29.9194 1140.00
29.9846 1105.00
30.0498 1161.00
30.115 1404.00
30.1802 1527.00
30.2454 1711.00
30.3106 2133.00
30.3758 2841.00
30.441 3467.00
30.5062 3938.00
30.5714 3661.00
30.6366 2905.00
30.7018 2103.00
30.767 1509.00
30.8322 1321.00
30.8974 1216.00
30.9626 1159.00
31.0278 1164.00
31.093 1178.00
31.1582 1315.00
31.2234 1451.00
31.2886 1645.00
31.3538 1759.00
31.419 1958.00
31.4842 1662.00
31.5494 1517.00
31.6146 1268.00
31.6798 1223.00
31.745 1243.00
31.8102 1330.00
31.8754 1390.00
31.9406 1404.00
32.0058 1474.00
32.071 1318.00
32.1362 1186.00
32.2014 1122.00
32.2666 1152.00
32.3318 1201.00
32.397 1327.00
32.4622 1406.00
32.5274 1608.00
32.5926 1741.00
32.6578 1979.00
32.723 2278.00
32.7882 2685.00
32.8534 2667.00
32.9186 2435.00
32.9838 2072.00
33.0489 1780.00
33.1141 1735.00
33.1793 1898.00
33.2445 1981.00
33.3097 1887.00
33.3749 1580.00
33.4401 1484.00
33.5053 1519.00
33.5705 1749.00
33.6357 1976.00
33.7009 2217.00
33.7661 2292.00
33.8313 2626.00
33.8965 2901.00
33.9617 3138.00
34.0269 3101.00
34.0921 3122.00
34.1573 2616.00
34.2225 2119.00
34.2877 1604.00
34.3529 1290.00
34.4181 1184.00
34.4833 1079.00
34.5485 1032.00
34.6137 1031.00
34.6789 985.00
34.7441 958.00
34.8093 1001.00
34.8745 1013.00
34.9397 1005.00
35.0049 1046.00
35.0701 1107.00
35.1353 1040.00
35.2005 1103.00
35.2657 1229.00
35.3309 1185.00
35.3961 1182.00
35.4613 1089.00
35.5265 1120.00
35.5917 1143.00
35.6569 1095.00
35.7221 1093.00
35.7873 1110.00
35.8525 1069.00
35.9177 1021.00
35.9829 965.00
36.0481 968.00
36.1133 942.00
36.1785 1020.00
36.2437 1000.00
36.3089 1034.00
36.3741 1051.00
36.4393 1048.00
36.5045 960.00
36.5697 1044.00
36.6349 1002.00
36.7001 949.00
36.7653 998.00
36.8305 898.00
36.8957 945.00
36.9609 867.00
37.0261 845.00
37.0913 804.00
37.1565 899.00
37.2217 869.00
37.2869 850.00
37.3521 882.00
37.4173 875.00
37.4825 795.00
37.5477 800.00
37.6129 786.00
37.6781 870.00
37.7433 820.00
37.8085 862.00
37.8736 848.00
37.9388 866.00
38.004 860.00
38.0692 871.00
38.1344 865.00
38.1996 930.00
38.2648 916.00
38.33 924.00
38.3952 844.00
38.4604 919.00
38.5256 947.00
38.5908 947.00
38.656 889.00
38.7212 829.00
38.7864 841.00
38.8516 837.00
38.9168 808.00
38.982 885.00
39.0472 898.00
39.1124 877.00
39.1776 904.00
39.2428 917.00
39.308 938.00
39.3732 1045.00
39.4384 993.00
39.5036 1008.00
39.5688 977.00
39.634 893.00
39.6992 873.00
39.7644 815.00
39.8296 823.00
39.8948 860.00
39.96 910.00
40.0252 855.00
40.0904 897.00
40.1556 934.00
40.2208 933.00
40.286 896.00
40.3512 1003.00
40.4164 1052.00
40.4816 1113.00
40.5468 1250.00
40.612 1473.00
40.6772 1571.00
40.7424 1543.00
40.8076 1478.00
40.8728 1344.00
40.938 1227.00
41.0032 1095.00
41.0684 949.00
41.1336 934.00
41.1988 916.00
41.264 1015.00
41.3292 1062.00
41.3944 1036.00
41.4596 1057.00
41.5248 927.00
41.59 890.00
41.6552 850.00
41.7204 840.00
41.7856 867.00
41.8508 862.00
41.916 870.00
41.9812 827.00
42.0464 866.00
42.1116 850.00
42.1768 792.00
42.242 829.00
42.3072 823.00
42.3724 812.00
42.4376 853.00
42.5028 894.00
42.568 832.00
42.6332 873.00
42.6983 885.00
42.7635 870.00
42.8287 892.00
42.8939 973.00
42.9591 1044.00
43.0243 1124.00
43.0895 1201.00
43.1547 1138.00
43.2199 1095.00
43.2851 1074.00
43.3503 1021.00
43.4155 891.00
43.4807 873.00
43.5459 842.00
43.6111 779.00
43.6763 882.00
43.7415 867.00
43.8067 799.00
43.8719 873.00
43.9371 911.00
44.0023 922.00
44.0675 911.00
44.1327 929.00
44.1979 1034.00
44.2631 968.00
44.3283 1004.00
44.3935 1006.00
44.4587 931.00
44.5239 932.00
44.5891 956.00
44.6543 987.00
44.7195 1024.00
44.7847 1020.00
44.8499 1006.00
44.9151 969.00
44.9803 996.00
45.0455 958.00
45.1107 998.00
45.1759 1039.00
45.2411 1115.00
45.3063 1144.00
45.3715 1134.00
45.4367 1082.00
45.5019 1061.00
45.5671 958.00
45.6323 975.00
45.6975 922.00
45.7627 926.00
45.8279 938.00
45.8931 1022.00
45.9583 971.00
46.0235 1020.00
46.0887 1097.00
46.1539 976.00
46.2191 1074.00
46.2843 1054.00
46.3495 1124.00
46.4147 1098.00
46.4799 1114.00
46.5451 1074.00
46.6103 1070.00
46.6755 1048.00
46.7407 1134.00
46.8059 1049.00
46.8711 1133.00
46.9363 1141.00
47.0015 1083.00
47.0667 1008.00
47.1319 927.00
47.1971 882.00
47.2623 845.00
47.3275 797.00
47.3927 768.00
47.4579 838.00
47.523 793.00
47.5882 810.00
47.6534 829.00
47.7186 883.00
47.7838 990.00
47.849 1021.00
47.9142 940.00
47.9794 992.00
48.0446 920.00
48.1098 857.00
48.175 785.00
48.2402 795.00
48.3054 735.00
48.3706 780.00
48.4358 819.00
48.501 799.00
48.5662 863.00
48.6314 817.00
48.6966 883.00
48.7618 1047.00
48.827 1114.00
48.8922 1112.00
48.9574 1127.00
49.0226 1110.00
49.0878 1027.00
49.153 991.00
49.2182 1001.00
49.2834 949.00
49.3486 870.00
49.4138 834.00
49.479 807.00
49.5442 741.00
49.6094 758.00
49.6746 723.00
49.7398 797.00
49.805 834.00
49.8702 849.00
49.9354 831.00
50.0006 983.00
50.0658 1015.00
50.131 1034.00
50.1962 1036.00
50.2614 1039.00
50.3266 998.00
50.3918 887.00
50.457 937.00
50.5222 936.00
50.5874 905.00
50.6526 1013.00
50.7178 857.00
50.783 906.00
50.8482 890.00
50.9134 851.00
50.9786 857.00
51.0438 801.00
51.109 821.00
51.1742 803.00
51.2394 852.00
51.3046 941.00
51.3698 918.00
51.435 956.00
51.5002 950.00
51.5654 993.00
51.6306 950.00
51.6958 1004.00
51.761 940.00
51.8262 891.00
51.8914 959.00
51.9566 856.00
52.0218 875.00
52.087 866.00
52.1522 889.00
52.2174 833.00
52.2826 842.00
52.3477 827.00
52.4129 880.00
52.4781 905.00
52.5433 982.00
52.6085 911.00
52.6737 974.00
52.7389 1006.00
52.8041 948.00
52.8693 1014.00
52.9345 1025.00
52.9997 1080.00
53.0649 1124.00
53.1301 1060.00
53.1953 1084.00
53.2605 1079.00
53.3257 1198.00
53.3909 1135.00
53.4561 1185.00
53.5213 1141.00
53.5865 1139.00
53.6517 1053.00
53.7169 947.00
53.7821 887.00
53.8473 946.00
53.9125 863.00
53.9777 967.00
54.0429 886.00
54.1081 905.00
54.1733 946.00
54.2385 890.00
54.3037 892.00
54.3689 938.00
54.4341 937.00
54.4993 933.00
54.5645 891.00
54.6297 913.00
54.6949 879.00
54.7601 855.00
54.8253 803.00
54.8905 845.00
54.9557 783.00
55.0209 828.00
55.0861 830.00
55.1513 828.00
55.2165 918.00
55.2817 931.00
55.3469 906.00
55.4121 890.00
55.4773 877.00
55.5425 841.00
55.6077 808.00
55.6729 825.00
55.7381 782.00
55.8033 898.00
55.8685 886.00
55.9337 899.00
55.9989 943.00
56.0641 873.00
56.1293 872.00
56.1945 839.00
56.2597 790.00
56.3249 798.00
56.3901 788.00
56.4553 747.00
56.5205 806.00
56.5857 777.00
56.6509 778.00
56.7161 877.00
56.7813 848.00
56.8465 964.00
56.9117 972.00
56.9769 1069.00
57.042 1096.00
57.1073 1087.00
57.1724 1164.00
57.2376 1070.00
57.3028 1120.00
57.368 1047.00
57.4332 966.00
57.4984 934.00
57.5636 990.00
57.6288 952.00
57.694 914.00
57.7592 895.00
57.8244 909.00
57.8896 957.00
57.9548 886.00
58.02 894.00
58.0852 861.00
58.1504 850.00
58.2156 815.00
58.2808 802.00
58.346 882.00
58.4112 908.00
58.4764 896.00
58.5416 942.00
58.6068 951.00
58.672 922.00
58.7372 932.00
58.8024 895.00
58.8676 869.00
58.9328 824.00
58.998 778.00
59.0632 803.00
59.1284 795.00
59.1936 780.00
59.2588 791.00
59.324 808.00
59.3892 791.00
59.4544 875.00
59.5196 937.00
59.5848 945.00
59.65 987.00
59.7152 1016.00
59.7804 1103.00
59.8456 1076.00
59.9108 1153.00
59.976 1062.00
60.0412 1027.00
60.1064 1009.00
60.1716 1017.00
60.2368 965.00
60.302 923.00
60.3672 940.00
60.4324 886.00
60.4976 845.00
60.5628 811.00
60.628 886.00
60.6932 897.00
60.7584 943.00
60.8236 952.00
60.8888 1048.00
60.954 962.00
61.0192 939.00
61.0844 924.00
61.1496 939.00
61.2148 890.00
61.28 906.00
61.3452 925.00
61.4104 810.00
61.4756 759.00
61.5408 759.00
61.606 754.00
61.6712 765.00
61.7364 746.00
61.8016 781.00
61.8667 749.00
61.932 778.00
61.9971 810.00
62.0623 728.00
62.1275 816.00
62.1927 813.00
62.2579 803.00
62.3231 773.00
62.3883 762.00
62.4535 803.00
62.5187 787.00
62.5839 737.00
62.6491 750.00
62.7143 799.00
62.7795 783.00
62.8447 775.00
62.9099 721.00
62.9751 734.00
63.0403 755.00
63.1055 742.00
63.1707 678.00
63.2359 699.00
63.3011 618.00
63.3663 688.00
63.4315 688.00
63.4967 695.00
63.5619 687.00
63.6271 671.00
63.6923 724.00
63.7575 710.00
63.8227 721.00
63.8879 741.00
63.9531 776.00
64.0183 734.00
64.0835 817.00
64.1487 761.00
64.2139 805.00
64.2791 756.00
64.3443 765.00
64.4095 759.00
64.4747 722.00
64.5399 759.00
64.6051 761.00
64.6703 766.00
64.7355 738.00
64.8007 730.00
64.8659 769.00
64.9311 774.00
64.9963 811.00
65.0615 869.00
65.1267 809.00
65.1919 865.00
65.2571 858.00
65.3223 853.00
65.3875 817.00
65.4527 836.00
65.5179 860.00
65.5831 783.00
65.6483 772.00
65.7135 753.00
65.7787 673.00
65.8439 692.00
65.9091 720.00
65.9743 673.00
66.0395 638.00
66.1047 664.00
66.1699 646.00
66.2351 667.00
66.3003 642.00
66.3655 716.00
66.4307 641.00
66.4959 673.00
66.561 671.00
66.6263 661.00
66.6915 653.00
66.7566 660.00
66.8218 719.00
66.887 682.00
66.9522 687.00
67.0174 688.00
67.0826 678.00
67.1478 685.00
67.213 667.00
67.2782 703.00
67.3434 661.00
67.4086 703.00
67.4738 651.00
67.539 635.00
67.6042 667.00
67.6694 603.00
67.7346 611.00
67.7998 558.00
67.865 621.00
67.9302 614.00
67.9954 591.00
68.0606 572.00
68.1258 589.00
68.191 566.00
68.2562 655.00
68.3214 656.00
68.3866 629.00
68.4518 655.00
68.517 643.00
68.5822 575.00
68.6474 625.00
68.7126 663.00
68.7778 648.00
68.843 666.00
68.9082 671.00
68.9734 657.00
69.0386 675.00
69.1038 644.00
69.169 604.00
69.2342 610.00
69.2994 652.00
69.3646 598.00
69.4298 655.00
69.495 613.00
69.5602 658.00
69.6254 723.00
69.6906 715.00
69.7558 714.00
69.821 751.00
69.8862 711.00
69.9514 759.00
70.0166 708.00
70.0818 721.00
70.147 615.00
70.2122 631.00
70.2774 602.00
70.3426 622.00
70.4078 591.00
70.473 572.00
70.5382 567.00
70.6034 612.00
70.6686 629.00
70.7338 595.00
70.799 609.00
70.8642 579.00
70.9294 663.00
70.9946 699.00
71.0598 726.00
71.125 679.00
71.1902 702.00
71.2554 695.00
71.3205 719.00
71.3858 731.00
71.451 777.00
71.5162 753.00
71.5813 793.00
71.6465 759.00
71.7117 763.00
71.7769 734.00
71.8421 734.00
71.9073 751.00
71.9725 729.00
72.0377 683.00
72.1029 691.00
72.1681 675.00
72.2333 667.00
72.2985 606.00
72.3637 616.00
72.4289 625.00
72.4941 609.00
72.5593 633.00
72.6245 607.00
72.6897 596.00
72.7549 563.00
72.8201 621.00
72.8853 585.00
72.9505 624.00
73.0157 607.00
73.0809 660.00
73.1461 571.00
73.2113 632.00
73.2765 691.00
73.3417 688.00
73.4069 665.00
73.4721 629.00
73.5373 722.00
73.6025 637.00
73.6677 677.00
73.7329 664.00
73.7981 626.00
73.8633 655.00
73.9285 617.00
73.9937 598.00
74.0589 613.00
74.1241 580.00
74.1893 585.00
74.2545 578.00
74.3197 604.00
74.3849 570.00
74.4501 562.00
74.5153 637.00
74.5805 651.00
74.6457 570.00
74.7109 605.00
74.7761 580.00
74.8413 612.00
74.9065 617.00
74.9717 617.00
75.0369 618.00
75.1021 626.00
75.1673 681.00
75.2325 665.00
75.2977 663.00
75.3629 650.00
75.4281 629.00
75.4933 636.00
75.5585 645.00
75.6237 642.00
75.6889 667.00
75.7541 619.00
75.8193 633.00
75.8845 631.00
75.9497 651.00
76.0149 688.00
76.0801 612.00
76.1452 656.00
76.2104 571.00
76.2756 610.00
76.3409 660.00
76.406 613.00
76.4712 625.00
76.5364 599.00
76.6016 617.00
76.6668 562.00
76.732 607.00
76.7972 630.00
76.8624 579.00
76.9276 563.00
76.9928 538.00
77.058 519.00
77.1232 602.00
77.1884 558.00
77.2536 524.00
77.3188 574.00
77.384 626.00
77.4492 622.00
77.5144 602.00
77.5796 604.00
77.6448 620.00
77.71 562.00
77.7752 640.00
77.8404 625.00
77.9056 616.00
77.9708 645.00
78.036 583.00
78.1012 583.00
78.1664 649.00
78.2316 595.00
78.2968 604.00
78.362 611.00
78.4272 608.00
78.4924 580.00
78.5576 607.00
78.6228 662.00
78.688 617.00
78.7532 607.00
78.8184 540.00
78.8836 635.00
78.9488 616.00
79.014 625.00
79.0792 636.00
79.1444 597.00
79.2096 571.00
79.2748 591.00
79.34 590.00
79.4052 616.00
79.4704 543.00
79.5356 578.00
79.6008 588.00
79.666 590.00
79.7312 609.00
79.7964 583.00
79.8616 547.00
79.9268 574.00
79.992 560.00
80.0572 586.00
80.1224 570.00
80.1876 613.00
80.2528 578.00
80.318 615.00
80.3832 571.00
80.4484 595.00
80.5136 550.00
80.5788 579.00
80.644 545.00
80.7092 553.00
80.7744 554.00
80.8396 567.00
80.9048 528.00
80.9699 562.00
81.0351 566.00
81.1003 573.00
81.1655 555.00
81.2307 566.00
81.2959 547.00
81.3611 595.00
81.4263 614.00
81.4915 633.00
81.5567 644.00
81.6219 635.00
81.6871 691.00
81.7523 639.00
81.8175 628.00
81.8827 693.00
81.9479 672.00
82.0131 659.00
82.0783 628.00
82.1435 593.00
82.2087 600.00
82.2739 631.00
82.3391 622.00
82.4043 603.00
82.4695 659.00
82.5347 559.00
82.5999 615.00
82.6651 694.00
82.7303 619.00
82.7955 594.00
82.8607 628.00
82.9259 633.00
82.9911 623.00
83.0563 637.00
83.1215 631.00
83.1867 582.00
83.2519 583.00
83.3171 603.00
83.3823 561.00
83.4475 607.00
83.5127 539.00
83.5779 615.00
83.6431 548.00
83.7083 574.00
83.7735 526.00
83.8387 527.00
83.9039 547.00
83.9691 589.00
84.0343 576.00
84.0995 533.00
84.1647 559.00
84.2299 560.00
84.2951 555.00
84.3603 530.00
84.4255 549.00
84.4907 555.00
84.5559 564.00
84.6211 534.00
84.6863 550.00
84.7515 561.00
84.8167 556.00
84.8819 546.00
84.9471 515.00
85.0123 536.00
85.0775 533.00
85.1427 571.00
85.2079 577.00
85.2731 597.00
85.3383 585.00
85.4035 535.00
85.4687 589.00
85.5339 532.00
85.5991 536.00
85.6643 550.00
85.7295 536.00
85.7946 538.00
85.8598 581.00
85.925 571.00
85.9903 533.00
86.0554 593.00
86.1206 548.00
86.1858 553.00
86.251 537.00
86.3162 601.00
86.3814 546.00
86.4466 640.00
86.5118 525.00
86.577 569.00
86.6422 580.00
86.7074 598.00
86.7726 534.00
86.8378 538.00
86.903 567.00
86.9682 506.00
87.0334 541.00
87.0986 569.00
87.1638 538.00
87.229 538.00
87.2942 607.00
87.3594 566.00
87.4246 573.00
87.4898 552.00
87.555 587.00
87.6202 581.00
87.6854 536.00
87.7506 569.00
87.8158 591.00
87.881 597.00
87.9462 580.00
88.0114 555.00
88.0766 597.00
88.1418 591.00
88.207 626.00
88.2722 612.00
88.3374 617.00
88.4026 635.00
88.4678 595.00
88.533 591.00
88.5982 590.00
88.6634 631.00
88.7286 628.00
88.7938 609.00
88.859 613.00
88.9242 639.00
88.9894 615.00
89.0546 581.00
89.1198 631.00
89.185 577.00
89.2502 623.00
89.3154 624.00
89.3806 612.00
89.4458 614.00
89.511 641.00
89.5762 603.00
89.6414 644.00
89.7066 628.00
89.7718 614.00
89.837 624.00
89.9022 648.00
89.9674 590.00
90.0326 558.00
90.0978 630.00
90.163 558.00
90.2282 603.00
90.2934 618.00
90.3586 557.00
90.4238 522.00
90.489 544.00
90.5542 591.00
90.6193 626.00
90.6845 591.00
90.7497 594.00
90.8149 539.00
90.8801 583.00
90.9453 590.00
91.0105 574.00
91.0757 547.00
91.1409 577.00
91.2061 629.00
91.2713 573.00
91.3365 599.00
91.4017 594.00
91.4669 562.00
91.5321 534.00
91.5973 549.00
91.6625 607.00
91.7277 538.00
91.7929 525.00
91.8581 495.00
91.9233 575.00
91.9885 500.00
92.0537 577.00
92.1189 534.00
92.1841 549.00
92.2493 555.00
92.3145 528.00
92.3797 571.00
92.4449 586.00
92.5101 530.00
92.5753 549.00
92.6405 595.00
92.7057 537.00
92.7709 555.00
92.8361 593.00
92.9013 542.00
92.9665 590.00
93.0317 570.00
93.0969 540.00
93.1621 540.00
93.2273 527.00
93.2925 581.00
93.3577 515.00
93.4229 516.00
93.4881 516.00
93.5533 529.00
93.6185 555.00
93.6837 520.00
93.7489 515.00
93.8141 580.00
93.8793 553.00
93.9445 538.00
94.0097 516.00
94.0749 505.00
94.1401 532.00
94.2053 581.00
94.2705 505.00
94.3357 513.00
94.4009 550.00
94.4661 525.00
94.5313 509.00
94.5965 513.00
94.6617 516.00
94.7269 594.00
94.7921 552.00
94.8573 585.00
94.9225 535.00
94.9877 569.00
95.0529 557.00
95.1181 565.00
95.1833 518.00
95.2485 491.00
95.3137 514.00
95.3789 503.00
95.444 524.00
95.5092 580.00
95.5744 573.00
95.6396 544.00
95.7048 506.00
95.77 523.00
95.8352 551.00
95.9004 554.00
95.9656 515.00
96.0308 525.00
96.096 547.00
96.1612 584.00
96.2264 533.00
96.2916 601.00
96.3568 569.00
96.422 581.00
96.4872 561.00
96.5524 617.00
96.6176 608.00
96.6828 554.00
96.748 544.00
96.8132 577.00
96.8784 587.00
96.9436 583.00
97.0088 603.00
97.074 617.00
97.1392 601.00
97.2044 556.00
97.2696 503.00
97.3348 534.00
97.4 555.00
97.4652 581.00
97.5304 518.00
97.5956 524.00
97.6608 530.00
97.726 519.00
97.7912 507.00
97.8564 501.00
97.9216 569.00
97.9868 541.00
98.052 502.00
98.1172 485.00
98.1824 580.00
98.2476 520.00
98.3128 540.00
98.378 535.00
98.4432 550.00
98.5084 548.00
98.5736 552.00
98.6388 572.00
98.704 542.00
98.7692 536.00
98.8344 542.00
98.8996 546.00
98.9648 563.00
99.03 563.00
99.0952 594.00
99.1604 582.00
99.2256 596.00
99.2908 562.00
99.356 608.00
99.4212 557.00
99.4864 513.00
99.5516 587.00
99.6168 604.00
99.682 545.00
99.7472 628.00
99.8124 538.00
99.8776 609.00
99.9428 579.00
100.008 518.00
100.073 593.00
100.095 539.00