File: data/xrd_creation/results/NSC_4.xy
9.903433 2878.00
9.968632 2924.00
10.0338 2864.00
10.099 2865.00
10.1642 2761.00
10.2294 2753.00
10.2946 2854.00
10.3598 2840.00
10.425 2750.00
10.4902 2703.00
10.5554 2789.00
10.6206 2705.00
10.6858 2662.00
10.751 2721.00
10.8162 2631.00
10.8814 2646.00
10.9466 2751.00
11.0118 2661.00
11.077 2537.00
11.1422 2636.00
11.2074 2588.00
11.2726 2576.00
11.3378 2518.00
11.403 2531.00
11.4682 2474.00
11.5334 2403.00
11.5986 2540.00
11.6638 2466.00
11.729 2462.00
11.7942 2410.00
11.8594 2432.00
11.9246 2325.00
11.9898 2357.00
12.055 2359.00
12.1202 2294.00
12.1854 2300.00
12.2506 2296.00
12.3158 2397.00
12.381 2269.00
12.4462 2253.00
12.5114 2297.00
12.5766 2220.00
12.6418 2189.00
12.707 2317.00
12.7722 2299.00
12.8374 2173.00
12.9026 2265.00
12.9678 2220.00
13.033 2101.00
13.0982 2213.00
13.1634 2204.00
13.2286 2190.00
13.2938 2076.00
13.359 2132.00
13.4242 2099.00
13.4894 2122.00
13.5546 2185.00
13.6198 2202.00
13.685 2042.00
13.7502 2195.00
13.8154 2242.00
13.8805 2210.00
13.9457 2323.00
14.0109 2419.00
14.0761 2603.00
14.1413 2743.00
14.2065 3078.00
14.2717 3544.00
14.3369 3638.00
14.4021 3183.00
14.4673 2586.00
14.5325 2387.00
14.5977 2175.00
14.6629 2131.00
14.7281 2146.00
14.7933 2100.00
14.8585 2166.00
14.9237 2088.00
14.9889 2087.00
15.0541 2108.00
15.1193 2202.00
15.1845 2134.00
15.2497 2193.00
15.3149 2052.00
15.3801 2120.00
15.4453 2055.00
15.5105 1998.00
15.5757 1962.00
15.6409 1967.00
15.7061 2015.00
15.7713 1972.00
15.8365 2009.00
15.9017 2041.00
15.9669 2052.00
16.0321 1912.00
16.0973 2048.00
16.1625 2006.00
16.2277 1924.00
16.2929 1948.00
16.3581 1994.00
16.4233 1948.00
16.4885 2006.00
16.5537 2041.00
16.6189 1898.00
16.6841 1920.00
16.7493 1923.00
16.8145 1964.00
16.8797 2004.00
16.9449 1918.00
17.0101 1907.00
17.0753 2003.00
17.1405 1947.00
17.2057 1975.00
17.2709 1904.00
17.3361 1941.00
17.4013 2021.00
17.4665 2023.00
17.5317 1993.00
17.5969 2009.00
17.6621 2037.00
17.7273 1969.00
17.7925 1911.00
17.8577 1946.00
17.9229 1897.00
17.9881 1930.00
18.0533 1926.00
18.1185 1914.00
18.1837 1847.00
18.2489 1846.00
18.3141 1920.00
18.3793 1969.00
18.4445 1957.00
18.5097 2039.00
18.5749 2025.00
18.6401 2059.00
18.7052 2164.00
18.7704 2298.00
18.8356 2510.00
18.9008 2585.00
18.966 2250.00
19.0312 2043.00
19.0964 1973.00
19.1616 1973.00
19.2268 2087.00
19.292 2123.00
19.3572 2257.00
19.4224 2525.00
19.4876 2859.00
19.5528 3489.00
19.618 4283.00
19.6832 5638.00
19.7484 6940.00
19.8136 7092.00
19.8788 5581.00
19.944 3938.00
20.0092 2958.00
20.0744 2752.00
20.1396 2873.00
20.2048 3033.00
20.27 3470.00
20.3352 4193.00
20.4004 5511.00
20.4656 7131.00
20.5308 8465.00
20.596 7860.00
20.6612 5901.00
20.7264 4226.00
20.7916 3121.00
20.8568 2762.00
20.922 2601.00
20.9872 2391.00
21.0524 2160.00
21.1176 2078.00
21.1828 1935.00
21.248 1989.00
21.3132 1990.00
21.3784 2080.00
21.4436 2285.00
21.5088 2336.00
21.574 2634.00
21.6392 2988.00
21.7044 3784.00
21.7696 4858.00
21.8348 4892.00
21.9 3522.00
21.9652 2696.00
22.0304 2380.00
22.0956 2221.00
22.1608 2043.00
22.226 1911.00
22.2912 1807.00
22.3564 1766.00
22.4216 1743.00
22.4868 1838.00
22.552 1771.00
22.6172 1800.00
22.6824 1813.00
22.7476 1769.00
22.8128 1828.00
22.878 1839.00
22.9432 1832.00
23.0084 1823.00
23.0736 1876.00
23.1388 2064.00
23.204 2060.00
23.2692 2251.00
23.3344 2417.00
23.3996 2832.00
23.4647 3470.00
23.5299 4243.00
23.5951 5820.00
23.6603 7892.00
23.7255 8806.00
23.7907 8038.00
23.8559 6098.00
23.9211 4047.00
23.9863 3117.00
24.0515 2521.00
24.1167 2447.00
24.1819 2442.00
24.2471 2530.00
24.3123 2939.00
24.3775 3159.00
24.4427 2802.00
24.5079 2231.00
24.5731 1960.00
24.6383 1952.00
24.7035 1968.00
24.7687 1990.00
24.8339 1906.00
24.8991 1840.00
24.9643 1846.00
25.0295 1852.00
25.0947 1915.00
25.1599 2180.00
25.2251 2163.00
25.2903 2262.00
25.3555 2170.00
25.4207 2065.00
25.4859 1891.00
25.5511 1709.00
25.6163 1731.00
25.6815 1728.00
25.7467 1710.00
25.8119 1761.00
25.8771 1707.00
25.9423 1616.00
26.0075 1693.00
26.0727 1621.00
26.1379 1669.00
26.2031 1719.00
26.2683 1753.00
26.3335 1760.00
26.3987 1778.00
26.4639 1789.00
26.5291 1933.00
26.5943 2192.00
26.6595 2485.00
26.7247 2521.00
26.7899 2396.00
26.8551 1888.00
26.9203 1796.00
26.9855 1667.00
27.0507 1665.00
27.1159 1654.00
27.1811 1658.00
27.2463 1588.00
27.3115 1620.00
27.3767 1592.00
27.4419 1680.00
27.5071 1615.00
27.5723 1646.00
27.6375 1697.00
27.7027 1725.00
27.7679 1711.00
27.8331 1702.00
27.8983 1836.00
27.9635 1800.00
28.0287 1947.00
28.0939 1989.00
28.1591 2250.00
28.2243 2710.00
28.2894 3413.00
28.3546 4467.00
28.4198 5697.00
28.485 6470.00
28.5502 6295.00
28.6154 5600.00
28.6806 4455.00
28.7458 3458.00
28.811 2594.00
28.8762 2195.00
28.9414 1942.00
29.0066 1884.00
29.0718 1805.00
29.137 1675.00
29.2022 1661.00
29.2674 1658.00
29.3326 1626.00
29.3978 1707.00
29.463 1644.00
29.5282 1585.00
29.5934 1616.00
29.6586 1560.00
29.7238 1624.00
29.789 1590.00
29.8542 1617.00
29.9194 1610.00
29.9846 1606.00
30.0498 1691.00
30.115 1673.00
30.1802 1755.00
30.2454 1851.00
30.3106 1913.00
30.3758 1914.00
30.441 1937.00
30.5062 2054.00
30.5714 1892.00
30.6366 1825.00
30.7018 1935.00
30.767 2164.00
30.8322 2490.00
30.8974 2810.00
30.9626 2659.00
31.0278 2407.00
31.093 2359.00
31.1582 2642.00
31.2234 3228.00
31.2886 4257.00
31.3538 5711.00
31.419 7362.00
31.4842 8245.00
31.5494 8104.00
31.6146 7185.00
31.6798 6306.00
31.745 5027.00
31.8102 3990.00
31.8754 3003.00
31.9406 2451.00
32.0058 2104.00
32.071 1880.00
32.1362 1765.00
32.2014 1680.00
32.2666 1619.00
32.3318 1529.00
32.397 1532.00
32.4622 1614.00
32.5274 1595.00
32.5926 1529.00
32.6578 1490.00
32.723 1476.00
32.7882 1585.00
32.8534 1542.00
32.9186 1518.00
32.9838 1502.00
33.0489 1565.00
33.1141 1619.00
33.1793 1689.00
33.2445 1683.00
33.3097 1892.00
33.3749 2040.00
33.4401 1933.00
33.5053 1860.00
33.5705 1649.00
33.6357 1526.00
33.7009 1631.00
33.7661 1639.00
33.8313 1701.00
33.8965 1781.00
33.9617 1715.00
34.0269 1760.00
34.0921 1717.00
34.1573 1724.00
34.2225 1812.00
34.2877 1746.00
34.3529 1808.00
34.4181 1785.00
34.4833 1631.00
34.5485 1611.00
34.6137 1659.00
34.6789 1747.00
34.7441 1845.00
34.8093 1637.00
34.8745 1627.00
34.9397 1655.00
35.0049 1828.00
35.0701 1973.00
35.1353 2222.00
35.2005 2675.00
35.2657 2910.00
35.3309 3207.00
35.3961 3384.00
35.4613 3298.00
35.5265 3222.00
35.5917 3521.00
35.6569 3731.00
35.7221 3889.00
35.7873 3988.00
35.8525 3732.00
35.9177 3167.00
35.9829 2863.00
36.0481 2474.00
36.1133 2227.00
36.1785 2133.00
36.2437 2307.00
36.3089 2630.00
36.3741 2785.00
36.4393 2349.00
36.5045 1955.00
36.5697 1571.00
36.6349 1477.00
36.7001 1514.00
36.7653 1424.00
36.8305 1361.00
36.8957 1405.00
36.9609 1414.00
37.0261 1328.00
37.0913 1374.00
37.1565 1336.00
37.2217 1352.00
37.2869 1356.00
37.3521 1310.00
37.4173 1311.00
37.4825 1353.00
37.5477 1423.00
37.6129 1337.00
37.6781 1417.00
37.7433 1342.00
37.8085 1457.00
37.8736 1494.00
37.9388 1550.00
38.004 1645.00
38.0692 1634.00
38.1344 1429.00
38.1996 1405.00
38.2648 1426.00
38.33 1474.00
38.3952 1481.00
38.4604 1418.00
38.5256 1428.00
38.5908 1471.00
38.656 1396.00
38.7212 1422.00
38.7864 1407.00
38.8516 1379.00
38.9168 1507.00
38.982 1393.00
39.0472 1375.00
39.1124 1291.00
39.1776 1306.00
39.2428 1372.00
39.308 1278.00
39.3732 1310.00
39.4384 1259.00
39.5036 1386.00
39.5688 1454.00
39.634 1651.00
39.6992 1583.00
39.7644 1573.00
39.8296 1728.00
39.8948 1701.00
39.96 1669.00
40.0252 1633.00
40.0904 1548.00
40.1556 1508.00
40.2208 1384.00
40.286 1426.00
40.3512 1399.00
40.4164 1307.00
40.4816 1389.00
40.5468 1336.00
40.612 1287.00
40.6772 1337.00
40.7424 1436.00
40.8076 1403.00
40.8728 1478.00
40.938 1566.00
41.0032 1550.00
41.0684 1510.00
41.1336 1531.00
41.1988 1528.00
41.264 1616.00
41.3292 1708.00
41.3944 1819.00
41.4596 1906.00
41.5248 1977.00
41.59 1989.00
41.6552 1905.00
41.7204 1849.00
41.7856 1816.00
41.8508 1659.00
41.916 1628.00
41.9812 1557.00
42.0464 1536.00
42.1116 1498.00
42.1768 1466.00
42.242 1482.00
42.3072 1441.00
42.3724 1448.00
42.4376 1453.00
42.5028 1356.00
42.568 1389.00
42.6332 1366.00
42.6983 1355.00
42.7635 1318.00
42.8287 1315.00
42.8939 1410.00
42.9591 1465.00
43.0243 1590.00
43.0895 1679.00
43.1547 1836.00
43.2199 1958.00
43.2851 1999.00
43.3503 1989.00
43.4155 1936.00
43.4807 1956.00
43.5459 1794.00
43.6111 1661.00
43.6763 1498.00
43.7415 1464.00
43.8067 1546.00
43.8719 1451.00
43.9371 1463.00
44.0023 1500.00
44.0675 1484.00
44.1327 1523.00
44.1979 1499.00
44.2631 1464.00
44.3283 1397.00
44.3935 1358.00
44.4587 1352.00
44.5239 1262.00
44.5891 1332.00
44.6543 1433.00
44.7195 1476.00
44.7847 1479.00
44.8499 1677.00
44.9151 1820.00
44.9803 2118.00
45.0455 2254.00
45.1107 2468.00
45.1759 2655.00
45.2411 2532.00
45.3063 2455.00
45.3715 2316.00
45.4367 1936.00
45.5019 1925.00
45.5671 1779.00
45.6323 1679.00
45.6975 1637.00
45.7627 1653.00
45.8279 1423.00
45.8931 1585.00
45.9583 1548.00
46.0235 1733.00
46.0887 1755.00
46.1539 1957.00
46.2191 2037.00
46.2843 2165.00
46.3495 2044.00
46.4147 1951.00
46.4799 1799.00
46.5451 1885.00
46.6103 1718.00
46.6755 1772.00
46.7407 1848.00
46.8059 1816.00
46.8711 1969.00
46.9363 1879.00
47.0015 1818.00
47.0667 1635.00
47.1319 1589.00
47.1971 1466.00
47.2623 1409.00
47.3275 1406.00
47.3927 1431.00
47.4579 1372.00
47.523 1368.00
47.5882 1430.00
47.6534 1306.00
47.7186 1486.00
47.7838 1521.00
47.849 1729.00
47.9142 1815.00
47.9794 1985.00
48.0446 2413.00
48.1098 2799.00
48.175 3122.00
48.2402 3350.00
48.3054 3367.00
48.3706 3252.00
48.4358 2857.00
48.501 2546.00
48.5662 2144.00
48.6314 1895.00
48.6966 1754.00
48.7618 1669.00
48.827 1583.00
48.8922 1612.00
48.9574 1578.00
49.0226 1585.00
49.0878 1609.00
49.153 1453.00
49.2182 1530.00
49.2834 1597.00
49.3486 1637.00
49.4138 1844.00
49.479 1891.00
49.5442 2048.00
49.6094 2209.00
49.6746 2146.00
49.7398 1871.00
49.805 1737.00
49.8702 1461.00
49.9354 1369.00
50.0006 1366.00
50.0658 1371.00
50.131 1414.00
50.1962 1491.00
50.2614 1611.00
50.3266 1724.00
50.3918 1740.00
50.457 1620.00
50.5222 1588.00
50.5874 1558.00
50.6526 1545.00
50.7178 1530.00
50.783 1640.00
50.8482 1700.00
50.9134 1708.00
50.9786 1614.00
51.0438 1597.00
51.109 1569.00
51.1742 1632.00
51.2394 1738.00
51.3046 1948.00
51.3698 2346.00
51.435 2530.00
51.5002 2655.00
51.5654 2718.00
51.6306 2713.00
51.6958 2464.00
51.761 2371.00
51.8262 2190.00
51.8914 2024.00
51.9566 1752.00
52.0218 1719.00
52.087 1651.00
52.1522 1554.00
52.2174 1593.00
52.2826 1547.00
52.3477 1360.00
52.4129 1381.00
52.4781 1347.00
52.5433 1273.00
52.6085 1302.00
52.6737 1303.00
52.7389 1349.00
52.8041 1379.00
52.8693 1375.00
52.9345 1343.00
52.9997 1301.00
53.0649 1285.00
53.1301 1208.00
53.1953 1289.00
53.2605 1236.00
53.3257 1238.00
53.3909 1234.00
53.4561 1200.00
53.5213 1204.00
53.5865 1255.00
53.6517 1281.00
53.7169 1237.00
53.7821 1224.00
53.8473 1285.00
53.9125 1297.00
53.9777 1321.00
54.0429 1368.00
54.1081 1449.00
54.1733 1555.00
54.2385 1644.00
54.3037 1753.00
54.3689 1768.00
54.4341 1866.00
54.4993 1851.00
54.5645 1953.00
54.6297 2042.00
54.6949 2163.00
54.7601 2125.00
54.8253 1994.00
54.8905 1887.00
54.9557 1678.00
55.0209 1641.00
55.0861 1685.00
55.1513 1635.00
55.2165 1782.00
55.2817 2011.00
55.3469 2098.00
55.4121 2389.00
55.4773 2635.00
55.5425 2761.00
55.6077 2997.00
55.6729 3003.00
55.7381 2979.00
55.8033 2855.00
55.8685 2800.00
55.9337 2592.00
55.9989 2439.00
56.0641 2218.00
56.1293 2048.00
56.1945 1831.00
56.2597 1807.00
56.3249 1558.00
56.3901 1489.00
56.4553 1467.00
56.5205 1405.00
56.5857 1367.00
56.6509 1360.00
56.7161 1329.00
56.7813 1320.00
56.8465 1344.00
56.9117 1272.00
56.9769 1333.00
57.042 1391.00
57.1073 1460.00
57.1724 1466.00
57.2376 1508.00
57.3028 1480.00
57.368 1431.00
57.4332 1426.00
57.4984 1483.00
57.5636 1401.00
57.6288 1441.00
57.694 1398.00
57.7592 1451.00
57.8244 1335.00
57.8896 1407.00
57.9548 1478.00
58.02 1411.00
58.0852 1571.00
58.1504 1672.00
58.2156 1971.00
58.2808 2259.00
58.346 2312.00
58.4112 2171.00
58.4764 2119.00
58.5416 1947.00
58.6068 1705.00
58.672 1695.00
58.7372 1652.00
58.8024 1520.00
58.8676 1462.00
58.9328 1421.00
58.998 1511.00
59.0632 1349.00
59.1284 1296.00
59.1936 1248.00
59.2588 1214.00
59.324 1345.00
59.3892 1316.00
59.4544 1257.00
59.5196 1386.00
59.5848 1413.00
59.65 1382.00
59.7152 1467.00
59.7804 1461.00
59.8456 1592.00
59.9108 1773.00
59.976 1890.00
60.0412 1956.00
60.1064 2122.00
60.1716 2193.00
60.2368 2135.00
60.302 1995.00
60.3672 1928.00
60.4324 1921.00
60.4976 1714.00
60.5628 1572.00
60.628 1535.00
60.6932 1449.00
60.7584 1389.00
60.8236 1421.00
60.8888 1393.00
60.954 1498.00
61.0192 1554.00
61.0844 1723.00
61.1496 1833.00
61.2148 1865.00
61.28 2042.00
61.3452 2085.00
61.4104 2046.00
61.4756 2083.00
61.5408 2152.00
61.606 1930.00
61.6712 1855.00
61.7364 1721.00
61.8016 1687.00
61.8667 1607.00
61.932 1574.00
61.9971 1577.00
62.0623 1489.00
62.1275 1572.00
62.1927 1576.00
62.2579 1564.00
62.3231 1652.00
62.3883 1722.00
62.4535 1640.00
62.5187 1682.00
62.5839 1657.00
62.6491 1600.00
62.7143 1674.00
62.7795 1605.00
62.8447 1630.00
62.9099 1675.00
62.9751 1662.00
63.0403 1582.00
63.1055 1529.00
63.1707 1568.00
63.2359 1465.00
63.3011 1465.00
63.3663 1500.00
63.4315 1368.00
63.4967 1497.00
63.5619 1489.00
63.6271 1574.00
63.6923 1593.00
63.7575 1685.00
63.8227 1719.00
63.8879 1799.00
63.9531 1951.00
64.0183 2008.00
64.0835 2003.00
64.1487 1866.00
64.2139 1886.00
64.2791 1822.00
64.3443 1672.00
64.4095 1585.00
64.4747 1556.00
64.5399 1450.00
64.6051 1477.00
64.6703 1408.00
64.7355 1317.00
64.8007 1283.00
64.8659 1227.00
64.9311 1328.00
64.9963 1381.00
65.0615 1301.00
65.1267 1367.00
65.1919 1402.00
65.2571 1390.00
65.3223 1361.00
65.3875 1368.00
65.4527 1386.00
65.5179 1488.00
65.5831 1435.00
65.6483 1389.00
65.7135 1401.00
65.7787 1456.00
65.8439 1439.00
65.9091 1515.00
65.9743 1528.00
66.0395 1539.00
66.1047 1490.00
66.1699 1618.00
66.2351 1578.00
66.3003 1676.00
66.3655 1625.00
66.4307 1651.00
66.4959 1596.00
66.561 1526.00
66.6263 1528.00
66.6915 1519.00
66.7566 1465.00
66.8218 1395.00
66.887 1330.00
66.9522 1193.00
67.0174 1312.00
67.0826 1310.00
67.1478 1364.00
67.213 1403.00
67.2782 1448.00
67.3434 1455.00
67.4086 1537.00
67.4738 1567.00
67.539 1422.00
67.6042 1497.00
67.6694 1462.00
67.7346 1487.00
67.7998 1513.00
67.865 1411.00
67.9302 1555.00
67.9954 1531.00
68.0606 1508.00
68.1258 1478.00
68.191 1487.00
68.2562 1456.00
68.3214 1524.00
68.3866 1563.00
68.4518 1522.00
68.517 1450.00
68.5822 1347.00
68.6474 1358.00
68.7126 1434.00
68.7778 1329.00
68.843 1285.00
68.9082 1311.00
68.9734 1312.00
69.0386 1398.00
69.1038 1393.00
69.169 1349.00
69.2342 1360.00
69.2994 1387.00
69.3646 1403.00
69.4298 1379.00
69.495 1285.00
69.5602 1258.00
69.6254 1230.00
69.6906 1197.00
69.7558 1238.00
69.821 1175.00
69.8862 1206.00
69.9514 1163.00
70.0166 1146.00
70.0818 1179.00
70.147 1186.00
70.2122 1226.00
70.2774 1132.00
70.3426 1242.00
70.4078 1121.00
70.473 1316.00
70.5382 1209.00
70.6034 1244.00
70.6686 1201.00
70.7338 1251.00
70.799 1320.00
70.8642 1243.00
70.9294 1300.00
70.9946 1340.00
71.0598 1368.00
71.125 1385.00
71.1902 1458.00
71.2554 1533.00
71.3205 1537.00
71.3858 1503.00
71.451 1591.00
71.5162 1431.00
71.5813 1456.00
71.6465 1442.00
71.7117 1342.00
71.7769 1415.00
71.8421 1302.00
71.9073 1234.00
71.9725 1239.00
72.0377 1230.00
72.1029 1250.00
72.1681 1208.00
72.2333 1229.00
72.2985 1230.00
72.3637 1150.00
72.4289 1240.00
72.4941 1251.00
72.5593 1196.00
72.6245 1310.00
72.6897 1266.00
72.7549 1218.00
72.8201 1263.00
72.8853 1230.00
72.9505 1154.00
73.0157 1250.00
73.0809 1225.00
73.1461 1178.00
73.2113 1223.00
73.2765 1142.00
73.3417 1245.00
73.4069 1206.00
73.4721 1274.00
73.5373 1237.00
73.6025 1249.00
73.6677 1241.00
73.7329 1362.00
73.7981 1317.00
73.8633 1356.00
73.9285 1314.00
73.9937 1409.00
74.0589 1325.00
74.1241 1376.00
74.1893 1299.00
74.2545 1282.00
74.3197 1255.00
74.3849 1326.00
74.4501 1322.00
74.5153 1255.00
74.5805 1325.00
74.6457 1371.00
74.7109 1291.00
74.7761 1386.00
74.8413 1369.00
74.9065 1348.00
74.9717 1312.00
75.0369 1359.00
75.1021 1423.00
75.1673 1405.00
75.2325 1426.00
75.2977 1495.00
75.3629 1600.00
75.4281 1501.00
75.4933 1630.00
75.5585 1510.00
75.6237 1559.00
75.6889 1528.00
75.7541 1510.00
75.8193 1445.00
75.8845 1413.00
75.9497 1429.00
76.0149 1335.00
76.0801 1262.00
76.1452 1300.00
76.2104 1245.00
76.2756 1255.00
76.3409 1234.00
76.406 1262.00
76.4712 1194.00
76.5364 1244.00
76.6016 1237.00
76.6668 1216.00
76.732 1331.00
76.7972 1223.00
76.8624 1178.00
76.9276 1228.00
76.9928 1246.00
77.058 1358.00
77.1232 1339.00
77.1884 1171.00
77.2536 1255.00
77.3188 1280.00
77.384 1307.00
77.4492 1307.00
77.5144 1214.00
77.5796 1274.00
77.6448 1259.00
77.71 1108.00
77.7752 1271.00
77.8404 1183.00
77.9056 1205.00
77.9708 1261.00
78.036 1201.00
78.1012 1164.00
78.1664 1127.00
78.2316 1159.00
78.2968 1145.00
78.362 1113.00
78.4272 1157.00
78.4924 1192.00
78.5576 1208.00
78.6228 1242.00
78.688 1254.00
78.7532 1355.00
78.8184 1383.00
78.8836 1415.00
78.9488 1386.00
79.014 1406.00
79.0792 1437.00
79.1444 1440.00
79.2096 1440.00
79.2748 1513.00
79.34 1378.00
79.4052 1358.00
79.4704 1273.00
79.5356 1256.00
79.6008 1247.00
79.666 1282.00
79.7312 1203.00
79.7964 1172.00
79.8616 1207.00
79.9268 1272.00
79.992 1182.00
80.0572 1161.00
80.1224 1143.00
80.1876 1221.00
80.2528 1213.00
80.318 1190.00
80.3832 1237.00
80.4484 1189.00
80.5136 1082.00
80.5788 1206.00
80.644 1221.00
80.7092 1163.00
80.7744 1146.00
80.8396 1235.00
80.9048 1239.00
80.9699 1192.00
81.0351 1286.00
81.1003 1348.00
81.1655 1270.00
81.2307 1310.00
81.2959 1360.00
81.3611 1299.00
81.4263 1310.00
81.4915 1346.00
81.5567 1311.00
81.6219 1245.00
81.6871 1244.00
81.7523 1207.00
81.8175 1253.00
81.8827 1229.00
81.9479 1143.00
82.0131 1205.00
82.0783 1183.00
82.1435 1096.00
82.2087 1180.00
82.2739 1089.00
82.3391 1101.00
82.4043 1203.00
82.4695 1134.00
82.5347 1226.00
82.5999 1185.00
82.6651 1236.00
82.7303 1187.00
82.7955 1115.00
82.8607 1153.00
82.9259 1202.00
82.9911 1190.00
83.0563 1226.00
83.1215 1194.00
83.1867 1189.00
83.2519 1259.00
83.3171 1315.00
83.3823 1265.00
83.4475 1287.00
83.5127 1249.00
83.5779 1269.00
83.6431 1346.00
83.7083 1366.00
83.7735 1360.00
83.8387 1405.00
83.9039 1311.00
83.9691 1422.00
84.0343 1377.00
84.0995 1404.00
84.1647 1379.00
84.2299 1380.00
84.2951 1252.00
84.3603 1272.00
84.4255 1217.00
84.4907 1249.00
84.5559 1204.00
84.6211 1191.00
84.6863 1269.00
84.7515 1263.00
84.8167 1325.00
84.8819 1368.00
84.9471 1380.00
85.0123 1366.00
85.0775 1360.00
85.1427 1295.00
85.2079 1310.00
85.2731 1240.00
85.3383 1348.00
85.4035 1280.00
85.4687 1307.00
85.5339 1230.00
85.5991 1275.00
85.6643 1269.00
85.7295 1284.00
85.7946 1185.00
85.8598 1295.00
85.925 1245.00
85.9903 1302.00
86.0554 1292.00
86.1206 1295.00
86.1858 1285.00
86.251 1318.00
86.3162 1296.00
86.3814 1209.00
86.4466 1236.00
86.5118 1311.00
86.577 1272.00
86.6422 1354.00
86.7074 1315.00
86.7726 1275.00
86.8378 1271.00
86.903 1247.00
86.9682 1235.00
87.0334 1207.00
87.0986 1247.00
87.1638 1197.00
87.229 1197.00
87.2942 1217.00
87.3594 1184.00
87.4246 1278.00
87.4898 1104.00
87.555 1184.00
87.6202 1228.00
87.6854 1186.00
87.7506 1173.00
87.8158 1153.00
87.881 1141.00
87.9462 1232.00
88.0114 1137.00
88.0766 1129.00
88.1418 1211.00
88.207 1184.00
88.2722 1249.00
88.3374 1216.00
88.4026 1243.00
88.4678 1264.00
88.533 1199.00
88.5982 1293.00
88.6634 1266.00
88.7286 1240.00
88.7938 1296.00
88.859 1263.00
88.9242 1324.00
88.9894 1247.00
89.0546 1199.00
89.1198 1224.00
89.185 1287.00
89.2502 1265.00
89.3154 1340.00
89.3806 1285.00
89.4458 1275.00
89.511 1296.00
89.5762 1308.00
89.6414 1408.00
89.7066 1340.00
89.7718 1453.00
89.837 1357.00
89.9022 1391.00
89.9674 1336.00
90.0326 1338.00
90.0978 1363.00
90.163 1350.00
90.2282 1406.00
90.2934 1297.00
90.3586 1291.00
90.4238 1285.00
90.489 1215.00
90.5542 1237.00
90.6193 1283.00
90.6845 1168.00
90.7497 1232.00
90.8149 1182.00
90.8801 1220.00
90.9453 1186.00
91.0105 1232.00
91.0757 1234.00
91.1409 1152.00
91.2061 1167.00
91.2713 1201.00
91.3365 1177.00
91.4017 1244.00
91.4669 1248.00
91.5321 1206.00
91.5973 1277.00
91.6625 1289.00
91.7277 1215.00
91.7929 1342.00
91.8581 1293.00
91.9233 1410.00
91.9885 1392.00
92.0537 1301.00
92.1189 1286.00
92.1841 1323.00
92.2493 1287.00
92.3145 1274.00
92.3797 1311.00
92.4449 1338.00
92.5101 1236.00
92.5753 1212.00
92.6405 1167.00
92.7057 1307.00
92.7709 1201.00
92.8361 1161.00
92.9013 1215.00
92.9665 1214.00
93.0317 1137.00
93.0969 1184.00
93.1621 1160.00
93.2273 1199.00
93.2925 1123.00
93.3577 1175.00
93.4229 1162.00
93.4881 1165.00
93.5533 1242.00
93.6185 1224.00
93.6837 1078.00
93.7489 1265.00
93.8141 1194.00
93.8793 1236.00
93.9445 1221.00
94.0097 1257.00
94.0749 1282.00
94.1401 1265.00
94.2053 1239.00
94.2705 1230.00
94.3357 1268.00
94.4009 1214.00
94.4661 1174.00
94.5313 1170.00
94.5965 1193.00
94.6617 1266.00
94.7269 1218.00
94.7921 1278.00
94.8573 1208.00
94.9225 1261.00
94.9877 1255.00
95.0529 1252.00
95.1181 1221.00
95.1833 1284.00
95.2485 1314.00
95.3137 1298.00
95.3789 1334.00
95.444 1251.00
95.5092 1274.00
95.5744 1297.00
95.6396 1289.00
95.7048 1287.00
95.77 1280.00
95.8352 1279.00
95.9004 1285.00
95.9656 1338.00
96.0308 1225.00
96.096 1261.00
96.1612 1205.00
96.2264 1319.00
96.2916 1351.00
96.3568 1276.00
96.422 1248.00
96.4872 1267.00
96.5524 1255.00
96.6176 1326.00
96.6828 1293.00
96.748 1337.00
96.8132 1283.00
96.8784 1303.00
96.9436 1369.00
97.0088 1377.00
97.074 1260.00
97.1392 1251.00
97.2044 1230.00
97.2696 1247.00
97.3348 1297.00
97.4 1160.00
97.4652 1233.00
97.5304 1196.00
97.5956 1204.00
97.6608 1195.00
97.726 1213.00
97.7912 1124.00
97.8564 1244.00
97.9216 1151.00
97.9868 1100.00
98.052 1174.00
98.1172 1112.00
98.1824 1139.00
98.2476 1101.00
98.3128 1218.00
98.378 1224.00
98.4432 1165.00
98.5084 1174.00
98.5736 1160.00
98.6388 1134.00
98.704 1195.00
98.7692 1253.00
98.8344 1124.00
98.8996 1165.00
98.9648 1185.00
99.03 1184.00
99.0952 1250.00
99.1604 1222.00
99.2256 1189.00
99.2908 1186.00
99.356 1191.00
99.4212 1317.00
99.4864 1312.00
99.5516 1148.00
99.6168 1280.00
99.682 1334.00
99.7472 1302.00
99.8124 1285.00
99.8776 1252.00
99.9428 1267.00
100.008 1247.00
100.073 1276.00
100.095 1291.00