File: data/xrd_creation/results/NSC_56.xy
9.903433 2604.00
9.968632 2677.00
10.0338 2453.00
10.099 2585.00
10.1642 2575.00
10.2294 2506.00
10.2946 2524.00
10.3598 2437.00
10.425 2379.00
10.4902 2426.00
10.5554 2430.00
10.6206 2350.00
10.6858 2324.00
10.751 2241.00
10.8162 2236.00
10.8814 2229.00
10.9466 2152.00
11.0118 2259.00
11.077 2152.00
11.1422 2188.00
11.2074 2093.00
11.2726 2061.00
11.3378 2100.00
11.403 2072.00
11.4682 2126.00
11.5334 2047.00
11.5986 2005.00
11.6638 1958.00
11.729 2078.00
11.7942 1969.00
11.8594 1954.00
11.9246 1946.00
11.9898 1997.00
12.055 1916.00
12.1202 1847.00
12.1854 1852.00
12.2506 1798.00
12.3158 1829.00
12.381 1851.00
12.4462 1823.00
12.5114 1793.00
12.5766 1743.00
12.6418 1755.00
12.707 1659.00
12.7722 1760.00
12.8374 1765.00
12.9026 1715.00
12.9678 1711.00
13.033 1646.00
13.0982 1691.00
13.1634 1556.00
13.2286 1660.00
13.2938 1658.00
13.359 1535.00
13.4242 1583.00
13.4894 1548.00
13.5546 1528.00
13.6198 1615.00
13.685 1471.00
13.7502 1575.00
13.8154 1516.00
13.8805 1527.00
13.9457 1451.00
14.0109 1450.00
14.0761 1420.00
14.1413 1452.00
14.2065 1437.00
14.2717 1422.00
14.3369 1474.00
14.4021 1454.00
14.4673 1422.00
14.5325 1379.00
14.5977 1389.00
14.6629 1444.00
14.7281 1377.00
14.7933 1394.00
14.8585 1416.00
14.9237 1309.00
14.9889 1320.00
15.0541 1316.00
15.1193 1299.00
15.1845 1358.00
15.2497 1314.00
15.3149 1218.00
15.3801 1307.00
15.4453 1272.00
15.5105 1347.00
15.5757 1259.00
15.6409 1307.00
15.7061 1330.00
15.7713 1300.00
15.8365 1254.00
15.9017 1260.00
15.9669 1301.00
16.0321 1316.00
16.0973 1219.00
16.1625 1178.00
16.2277 1259.00
16.2929 1232.00
16.3581 1235.00
16.4233 1192.00
16.4885 1187.00
16.5537 1242.00
16.6189 1194.00
16.6841 1261.00
16.7493 1178.00
16.8145 1138.00
16.8797 1256.00
16.9449 1223.00
17.0101 1098.00
17.0753 1141.00
17.1405 1208.00
17.2057 1192.00
17.2709 1153.00
17.3361 1159.00
17.4013 1179.00
17.4665 1122.00
17.5317 1087.00
17.5969 1073.00
17.6621 1129.00
17.7273 1078.00
17.7925 1079.00
17.8577 1064.00
17.9229 1073.00
17.9881 1128.00
18.0533 1105.00
18.1185 1086.00
18.1837 1034.00
18.2489 1051.00
18.3141 1050.00
18.3793 1058.00
18.4445 1031.00
18.5097 1050.00
18.5749 1057.00
18.6401 993.00
18.7052 1051.00
18.7704 1054.00
18.8356 994.00
18.9008 981.00
18.966 1041.00
19.0312 956.00
19.0964 957.00
19.1616 945.00
19.2268 1009.00
19.292 963.00
19.3572 931.00
19.4224 942.00
19.4876 935.00
19.5528 908.00
19.618 955.00
19.6832 954.00
19.7484 922.00
19.8136 912.00
19.8788 888.00
19.944 948.00
20.0092 902.00
20.0744 911.00
20.1396 908.00
20.2048 887.00
20.27 883.00
20.3352 900.00
20.4004 850.00
20.4656 903.00
20.5308 847.00
20.596 905.00
20.6612 891.00
20.7264 867.00
20.7916 882.00
20.8568 882.00
20.922 882.00
20.9872 878.00
21.0524 880.00
21.1176 836.00
21.1828 900.00
21.248 805.00
21.3132 821.00
21.3784 867.00
21.4436 793.00
21.5088 848.00
21.574 849.00
21.6392 837.00
21.7044 797.00
21.7696 853.00
21.8348 814.00
21.9 855.00
21.9652 783.00
22.0304 866.00
22.0956 844.00
22.1608 798.00
22.226 770.00
22.2912 773.00
22.3564 791.00
22.4216 833.00
22.4868 783.00
22.552 783.00
22.6172 804.00
22.6824 798.00
22.7476 738.00
22.8128 723.00
22.878 766.00
22.9432 805.00
23.0084 743.00
23.0736 735.00
23.1388 697.00
23.204 788.00
23.2692 720.00
23.3344 792.00
23.3996 729.00
23.4647 721.00
23.5299 782.00
23.5951 743.00
23.6603 750.00
23.7255 779.00
23.7907 692.00
23.8559 758.00
23.9211 710.00
23.9863 679.00
24.0515 744.00
24.1167 692.00
24.1819 731.00
24.2471 711.00
24.3123 679.00
24.3775 708.00
24.4427 710.00
24.5079 704.00
24.5731 779.00
24.6383 681.00
24.7035 732.00
24.7687 682.00
24.8339 739.00
24.8991 781.00
24.9643 679.00
25.0295 694.00
25.0947 658.00
25.1599 693.00
25.2251 709.00
25.2903 670.00
25.3555 656.00
25.4207 660.00
25.4859 650.00
25.5511 663.00
25.6163 623.00
25.6815 688.00
25.7467 645.00
25.8119 669.00
25.8771 624.00
25.9423 667.00
26.0075 669.00
26.0727 697.00
26.1379 627.00
26.2031 650.00
26.2683 603.00
26.3335 645.00
26.3987 624.00
26.4639 619.00
26.5291 639.00
26.5943 623.00
26.6595 619.00
26.7247 589.00
26.7899 617.00
26.8551 645.00
26.9203 672.00
26.9855 606.00
27.0507 591.00
27.1159 619.00
27.1811 567.00
27.2463 622.00
27.3115 621.00
27.3767 594.00
27.4419 544.00
27.5071 611.00
27.5723 614.00
27.6375 575.00
27.7027 580.00
27.7679 595.00
27.8331 624.00
27.8983 584.00
27.9635 566.00
28.0287 576.00
28.0939 637.00
28.1591 622.00
28.2243 598.00
28.2894 612.00
28.3546 565.00
28.4198 591.00
28.485 573.00
28.5502 587.00
28.6154 532.00
28.6806 585.00
28.7458 565.00
28.811 565.00
28.8762 568.00
28.9414 534.00
29.0066 587.00
29.0718 542.00
29.137 578.00
29.2022 598.00
29.2674 560.00
29.3326 553.00
29.3978 520.00
29.463 519.00
29.5282 535.00
29.5934 516.00
29.6586 578.00
29.7238 582.00
29.789 519.00
29.8542 520.00
29.9194 514.00
29.9846 547.00
30.0498 536.00
30.115 501.00
30.1802 514.00
30.2454 529.00
30.3106 538.00
30.3758 500.00
30.441 516.00
30.5062 513.00
30.5714 540.00
30.6366 517.00
30.7018 523.00
30.767 501.00
30.8322 495.00
30.8974 524.00
30.9626 515.00
31.0278 502.00
31.093 527.00
31.1582 552.00
31.2234 511.00
31.2886 539.00
31.3538 526.00
31.419 535.00
31.4842 501.00
31.5494 506.00
31.6146 466.00
31.6798 500.00
31.745 439.00
31.8102 516.00
31.8754 492.00
31.9406 500.00
32.0058 520.00
32.071 492.00
32.1362 505.00
32.2014 491.00
32.2666 441.00
32.3318 486.00
32.397 504.00
32.4622 503.00
32.5274 468.00
32.5926 511.00
32.6578 447.00
32.723 495.00
32.7882 478.00
32.8534 474.00
32.9186 487.00
32.9838 487.00
33.0489 498.00
33.1141 488.00
33.1793 432.00
33.2445 481.00
33.3097 448.00
33.3749 452.00
33.4401 409.00
33.5053 407.00
33.5705 427.00
33.6357 399.00
33.7009 457.00
33.7661 484.00
33.8313 454.00
33.8965 435.00
33.9617 454.00
34.0269 432.00
34.0921 461.00
34.1573 436.00
34.2225 454.00
34.2877 422.00
34.3529 458.00
34.4181 467.00
34.4833 437.00
34.5485 421.00
34.6137 437.00
34.6789 420.00
34.7441 397.00
34.8093 412.00
34.8745 421.00
34.9397 446.00
35.0049 437.00
35.0701 443.00
35.1353 438.00
35.2005 417.00
35.2657 407.00
35.3309 451.00
35.3961 412.00
35.4613 424.00
35.5265 411.00
35.5917 420.00
35.6569 432.00
35.7221 403.00
35.7873 402.00
35.8525 418.00
35.9177 382.00
35.9829 436.00
36.0481 397.00
36.1133 383.00
36.1785 415.00
36.2437 370.00
36.3089 386.00
36.3741 394.00
36.4393 422.00
36.5045 420.00
36.5697 347.00
36.6349 399.00
36.7001 382.00
36.7653 336.00
36.8305 385.00
36.8957 387.00
36.9609 369.00
37.0261 383.00
37.0913 394.00
37.1565 390.00
37.2217 448.00
37.2869 368.00
37.3521 366.00
37.4173 401.00
37.4825 392.00
37.5477 376.00
37.6129 414.00
37.6781 419.00
37.7433 411.00
37.8085 494.00
37.8736 479.00
37.9388 511.00
38.004 529.00
38.0692 486.00
38.1344 437.00
38.1996 391.00
38.2648 445.00
38.33 365.00
38.3952 394.00
38.4604 359.00
38.5256 396.00
38.5908 373.00
38.656 338.00
38.7212 316.00
38.7864 362.00
38.8516 344.00
38.9168 338.00
38.982 350.00
39.0472 344.00
39.1124 377.00
39.1776 372.00
39.2428 358.00
39.308 348.00
39.3732 345.00
39.4384 326.00
39.5036 366.00
39.5688 330.00
39.634 321.00
39.6992 354.00
39.7644 365.00
39.8296 345.00
39.8948 353.00
39.96 340.00
40.0252 336.00
40.0904 350.00
40.1556 332.00
40.2208 322.00
40.286 349.00
40.3512 310.00
40.4164 323.00
40.4816 363.00
40.5468 336.00
40.612 298.00
40.6772 343.00
40.7424 340.00
40.8076 323.00
40.8728 316.00
40.938 344.00
41.0032 320.00
41.0684 317.00
41.1336 359.00
41.1988 314.00
41.264 361.00
41.3292 333.00
41.3944 355.00
41.4596 281.00
41.5248 323.00
41.59 331.00
41.6552 299.00
41.7204 327.00
41.7856 342.00
41.8508 333.00
41.916 307.00
41.9812 319.00
42.0464 304.00
42.1116 291.00
42.1768 293.00
42.242 271.00
42.3072 309.00
42.3724 303.00
42.4376 293.00
42.5028 313.00
42.568 285.00
42.6332 296.00
42.6983 302.00
42.7635 307.00
42.8287 299.00
42.8939 324.00
42.9591 314.00
43.0243 309.00
43.0895 344.00
43.1547 314.00
43.2199 369.00
43.2851 302.00
43.3503 324.00
43.4155 310.00
43.4807 320.00
43.5459 349.00
43.6111 312.00
43.6763 298.00
43.7415 298.00
43.8067 275.00
43.8719 324.00
43.9371 301.00
44.0023 359.00
44.0675 356.00
44.1327 330.00
44.1979 328.00
44.2631 286.00
44.3283 337.00
44.3935 302.00
44.4587 318.00
44.5239 278.00
44.5891 308.00
44.6543 317.00
44.7195 300.00
44.7847 293.00
44.8499 267.00
44.9151 309.00
44.9803 290.00
45.0455 293.00
45.1107 275.00
45.1759 272.00
45.2411 302.00
45.3063 286.00
45.3715 279.00
45.4367 276.00
45.5019 258.00
45.5671 263.00
45.6323 276.00
45.6975 295.00
45.7627 266.00
45.8279 290.00
45.8931 268.00
45.9583 291.00
46.0235 248.00
46.0887 293.00
46.1539 273.00
46.2191 265.00
46.2843 260.00
46.3495 250.00
46.4147 266.00
46.4799 294.00
46.5451 276.00
46.6103 285.00
46.6755 286.00
46.7407 269.00
46.8059 261.00
46.8711 264.00
46.9363 230.00
47.0015 282.00
47.0667 290.00
47.1319 282.00
47.1971 236.00
47.2623 269.00
47.3275 257.00
47.3927 225.00
47.4579 250.00
47.523 278.00
47.5882 264.00
47.6534 284.00
47.7186 230.00
47.7838 272.00
47.849 226.00
47.9142 234.00
47.9794 216.00
48.0446 281.00
48.1098 276.00
48.175 240.00
48.2402 233.00
48.3054 240.00
48.3706 264.00
48.4358 271.00
48.501 258.00
48.5662 261.00
48.6314 270.00
48.6966 250.00
48.7618 263.00
48.827 280.00
48.8922 267.00
48.9574 279.00
49.0226 279.00
49.0878 226.00
49.153 269.00
49.2182 228.00
49.2834 268.00
49.3486 270.00
49.4138 247.00
49.479 267.00
49.5442 261.00
49.6094 242.00
49.6746 259.00
49.7398 226.00
49.805 271.00
49.8702 247.00
49.9354 261.00
50.0006 272.00
50.0658 268.00
50.131 247.00
50.1962 246.00
50.2614 248.00
50.3266 272.00
50.3918 257.00
50.457 234.00
50.5222 237.00
50.5874 264.00
50.6526 238.00
50.7178 257.00
50.783 226.00
50.8482 233.00
50.9134 245.00
50.9786 240.00
51.0438 235.00
51.109 237.00
51.1742 257.00
51.2394 238.00
51.3046 228.00
51.3698 238.00
51.435 237.00
51.5002 227.00
51.5654 269.00
51.6306 220.00
51.6958 289.00
51.761 272.00
51.8262 232.00
51.8914 259.00
51.9566 296.00
52.0218 246.00
52.087 245.00
52.1522 214.00
52.2174 266.00
52.2826 239.00
52.3477 234.00
52.4129 236.00
52.4781 259.00
52.5433 243.00
52.6085 218.00
52.6737 240.00
52.7389 223.00
52.8041 258.00
52.8693 270.00
52.9345 219.00
52.9997 237.00
53.0649 238.00
53.1301 238.00
53.1953 211.00
53.2605 234.00
53.3257 228.00
53.3909 256.00
53.4561 203.00
53.5213 194.00
53.5865 262.00
53.6517 236.00
53.7169 200.00
53.7821 243.00
53.8473 212.00
53.9125 235.00
53.9777 240.00
54.0429 210.00
54.1081 261.00
54.1733 266.00
54.2385 231.00
54.3037 227.00
54.3689 243.00
54.4341 231.00
54.4993 215.00
54.5645 201.00
54.6297 220.00
54.6949 233.00
54.7601 213.00
54.8253 182.00
54.8905 230.00
54.9557 229.00
55.0209 219.00
55.0861 227.00
55.1513 241.00
55.2165 213.00
55.2817 219.00
55.3469 211.00
55.4121 197.00
55.4773 178.00
55.5425 226.00
55.6077 210.00
55.6729 224.00
55.7381 218.00
55.8033 229.00
55.8685 198.00
55.9337 234.00
55.9989 206.00
56.0641 213.00
56.1293 218.00
56.1945 228.00
56.2597 227.00
56.3249 184.00
56.3901 215.00
56.4553 208.00
56.5205 192.00
56.5857 211.00
56.6509 201.00
56.7161 210.00
56.7813 211.00
56.8465 184.00
56.9117 237.00
56.9769 198.00
57.042 208.00
57.1073 204.00
57.1724 229.00
57.2376 189.00
57.3028 197.00
57.368 214.00
57.4332 237.00
57.4984 211.00
57.5636 194.00
57.6288 199.00
57.694 214.00
57.7592 192.00
57.8244 200.00
57.8896 194.00
57.9548 205.00
58.02 200.00
58.0852 189.00
58.1504 203.00
58.2156 193.00
58.2808 214.00
58.346 207.00
58.4112 183.00
58.4764 187.00
58.5416 179.00
58.6068 211.00
58.672 163.00
58.7372 201.00
58.8024 193.00
58.8676 199.00
58.9328 200.00
58.998 206.00
59.0632 204.00
59.1284 203.00
59.1936 215.00
59.2588 193.00
59.324 200.00
59.3892 181.00
59.4544 190.00
59.5196 165.00
59.5848 188.00
59.65 204.00
59.7152 190.00
59.7804 202.00
59.8456 204.00
59.9108 191.00
59.976 219.00
60.0412 198.00
60.1064 205.00
60.1716 194.00
60.2368 161.00
60.302 195.00
60.3672 193.00
60.4324 181.00
60.4976 196.00
60.5628 191.00
60.628 195.00
60.6932 188.00
60.7584 162.00
60.8236 194.00
60.8888 188.00
60.954 180.00
61.0192 196.00
61.0844 195.00
61.1496 188.00
61.2148 213.00
61.28 193.00
61.3452 191.00
61.4104 189.00
61.4756 213.00
61.5408 194.00
61.606 217.00
61.6712 179.00
61.7364 203.00
61.8016 202.00
61.8667 173.00
61.932 192.00
61.9971 183.00
62.0623 167.00
62.1275 173.00
62.1927 201.00
62.2579 183.00
62.3231 197.00
62.3883 204.00
62.4535 190.00
62.5187 181.00
62.5839 172.00
62.6491 180.00
62.7143 194.00
62.7795 205.00
62.8447 188.00
62.9099 176.00
62.9751 211.00
63.0403 229.00
63.1055 192.00
63.1707 156.00
63.2359 191.00
63.3011 176.00
63.3663 198.00
63.4315 191.00
63.4967 197.00
63.5619 165.00
63.6271 180.00
63.6923 188.00
63.7575 202.00
63.8227 186.00
63.8879 171.00
63.9531 214.00
64.0183 189.00
64.0835 181.00
64.1487 197.00
64.2139 210.00
64.2791 216.00
64.3443 191.00
64.4095 217.00
64.4747 200.00
64.5399 201.00
64.6051 201.00
64.6703 210.00
64.7355 191.00
64.8007 191.00
64.8659 189.00
64.9311 198.00
64.9963 178.00
65.0615 180.00
65.1267 194.00
65.1919 188.00
65.2571 186.00
65.3223 196.00
65.3875 204.00
65.4527 182.00
65.5179 163.00
65.5831 159.00
65.6483 184.00
65.7135 183.00
65.7787 183.00
65.8439 199.00
65.9091 182.00
65.9743 169.00
66.0395 193.00
66.1047 186.00
66.1699 164.00
66.2351 180.00
66.3003 181.00
66.3655 137.00
66.4307 173.00
66.4959 171.00
66.561 159.00
66.6263 156.00
66.6915 209.00
66.7566 163.00
66.8218 173.00
66.887 188.00
66.9522 166.00
67.0174 176.00
67.0826 192.00
67.1478 162.00
67.213 185.00
67.2782 166.00
67.3434 178.00
67.4086 198.00
67.4738 179.00
67.539 168.00
67.6042 188.00
67.6694 181.00
67.7346 192.00
67.7998 184.00
67.865 156.00
67.9302 170.00
67.9954 171.00
68.0606 179.00
68.1258 206.00
68.191 184.00
68.2562 157.00
68.3214 175.00
68.3866 190.00
68.4518 185.00
68.517 186.00
68.5822 160.00
68.6474 190.00
68.7126 177.00
68.7778 193.00
68.843 162.00
68.9082 175.00
68.9734 152.00
69.0386 200.00
69.1038 182.00
69.169 151.00
69.2342 181.00
69.2994 175.00
69.3646 191.00
69.4298 176.00
69.495 176.00
69.5602 192.00
69.6254 187.00
69.6906 189.00
69.7558 182.00
69.821 177.00
69.8862 191.00
69.9514 186.00
70.0166 182.00
70.0818 180.00
70.147 178.00
70.2122 176.00
70.2774 176.00
70.3426 168.00
70.4078 190.00
70.473 196.00
70.5382 176.00
70.6034 176.00
70.6686 185.00
70.7338 178.00
70.799 209.00
70.8642 170.00
70.9294 184.00
70.9946 188.00
71.0598 191.00
71.125 203.00
71.1902 182.00
71.2554 206.00
71.3205 165.00
71.3858 184.00
71.451 199.00
71.5162 181.00
71.5813 211.00
71.6465 178.00
71.7117 199.00
71.7769 175.00
71.8421 199.00
71.9073 158.00
71.9725 177.00
72.0377 180.00
72.1029 199.00
72.1681 194.00
72.2333 202.00
72.2985 209.00
72.3637 162.00
72.4289 192.00
72.4941 197.00
72.5593 208.00
72.6245 179.00
72.6897 173.00
72.7549 189.00
72.8201 190.00
72.8853 183.00
72.9505 200.00
73.0157 182.00
73.0809 197.00
73.1461 187.00
73.2113 213.00
73.2765 176.00
73.3417 169.00
73.4069 168.00
73.4721 198.00
73.5373 202.00
73.6025 165.00
73.6677 194.00
73.7329 173.00
73.7981 184.00
73.8633 173.00
73.9285 189.00
73.9937 197.00
74.0589 200.00
74.1241 193.00
74.1893 208.00
74.2545 191.00
74.3197 185.00
74.3849 202.00
74.4501 194.00
74.5153 188.00
74.5805 201.00
74.6457 205.00
74.7109 184.00
74.7761 197.00
74.8413 157.00
74.9065 188.00
74.9717 185.00
75.0369 204.00
75.1021 176.00
75.1673 199.00
75.2325 178.00
75.2977 197.00
75.3629 173.00
75.4281 200.00
75.4933 210.00
75.5585 189.00
75.6237 198.00
75.6889 198.00
75.7541 225.00
75.8193 189.00
75.8845 200.00
75.9497 176.00
76.0149 213.00
76.0801 210.00
76.1452 189.00
76.2104 206.00
76.2756 181.00
76.3409 210.00
76.406 201.00
76.4712 202.00
76.5364 197.00
76.6016 187.00
76.6668 222.00
76.732 180.00
76.7972 231.00
76.8624 183.00
76.9276 207.00
76.9928 267.00
77.058 194.00
77.1232 194.00
77.1884 220.00
77.2536 213.00
77.3188 244.00
77.384 226.00
77.4492 200.00
77.5144 217.00
77.5796 202.00
77.6448 227.00
77.71 198.00
77.7752 206.00
77.8404 202.00
77.9056 223.00
77.9708 211.00
78.036 196.00
78.1012 192.00
78.1664 204.00
78.2316 233.00
78.2968 234.00
78.362 194.00
78.4272 184.00
78.4924 207.00
78.5576 223.00
78.6228 205.00
78.688 211.00
78.7532 188.00
78.8184 194.00
78.8836 200.00
78.9488 224.00
79.014 222.00
79.0792 224.00
79.1444 235.00
79.2096 224.00
79.2748 204.00
79.34 216.00
79.4052 222.00
79.4704 188.00
79.5356 211.00
79.6008 220.00
79.666 225.00
79.7312 204.00
79.7964 208.00
79.8616 170.00
79.9268 195.00
79.992 205.00
80.0572 201.00
80.1224 187.00
80.1876 220.00
80.2528 212.00
80.318 222.00
80.3832 203.00
80.4484 217.00
80.5136 198.00
80.5788 206.00
80.644 224.00
80.7092 220.00
80.7744 211.00
80.8396 196.00
80.9048 209.00
80.9699 217.00
81.0351 221.00
81.1003 226.00
81.1655 232.00
81.2307 207.00
81.2959 220.00
81.3611 248.00
81.4263 214.00
81.4915 230.00
81.5567 209.00
81.6219 262.00
81.6871 235.00
81.7523 213.00
81.8175 189.00
81.8827 222.00
81.9479 205.00
82.0131 223.00
82.0783 203.00
82.1435 266.00
82.2087 232.00
82.2739 237.00
82.3391 233.00
82.4043 249.00
82.4695 217.00
82.5347 197.00
82.5999 232.00
82.6651 208.00
82.7303 204.00
82.7955 225.00
82.8607 211.00
82.9259 204.00
82.9911 222.00
83.0563 206.00
83.1215 216.00
83.1867 220.00
83.2519 199.00
83.3171 220.00
83.3823 197.00
83.4475 208.00
83.5127 230.00
83.5779 193.00
83.6431 221.00
83.7083 226.00
83.7735 201.00
83.8387 219.00
83.9039 193.00
83.9691 224.00
84.0343 225.00
84.0995 218.00
84.1647 202.00
84.2299 223.00
84.2951 231.00
84.3603 211.00
84.4255 206.00
84.4907 224.00
84.5559 212.00
84.6211 183.00
84.6863 194.00
84.7515 198.00
84.8167 194.00
84.8819 223.00
84.9471 227.00
85.0123 201.00
85.0775 192.00
85.1427 215.00
85.2079 180.00
85.2731 184.00
85.3383 193.00
85.4035 199.00
85.4687 174.00
85.5339 209.00
85.5991 183.00
85.6643 217.00
85.7295 199.00
85.7946 193.00
85.8598 179.00
85.925 192.00
85.9903 202.00
86.0554 203.00
86.1206 203.00
86.1858 211.00
86.251 172.00
86.3162 168.00
86.3814 210.00
86.4466 185.00
86.5118 197.00
86.577 174.00
86.6422 200.00
86.7074 200.00
86.7726 198.00
86.8378 192.00
86.903 216.00
86.9682 214.00
87.0334 205.00
87.0986 194.00
87.1638 191.00
87.229 172.00
87.2942 223.00
87.3594 195.00
87.4246 183.00
87.4898 188.00
87.555 187.00
87.6202 190.00
87.6854 196.00
87.7506 169.00
87.8158 219.00
87.881 202.00
87.9462 215.00
88.0114 184.00
88.0766 184.00
88.1418 204.00
88.207 195.00
88.2722 177.00
88.3374 199.00
88.4026 203.00
88.4678 201.00
88.533 199.00
88.5982 196.00
88.6634 164.00
88.7286 173.00
88.7938 182.00
88.859 170.00
88.9242 172.00
88.9894 162.00
89.0546 178.00
89.1198 167.00
89.185 175.00
89.2502 185.00
89.3154 184.00
89.3806 200.00
89.4458 165.00
89.511 207.00
89.5762 173.00
89.6414 188.00
89.7066 204.00
89.7718 174.00
89.837 177.00
89.9022 157.00
89.9674 204.00
90.0326 185.00
90.0978 185.00
90.163 166.00
90.2282 185.00
90.2934 166.00
90.3586 167.00
90.4238 179.00
90.489 184.00
90.5542 185.00
90.6193 198.00
90.6845 188.00
90.7497 177.00
90.8149 186.00
90.8801 221.00
90.9453 202.00
91.0105 200.00
91.0757 184.00
91.1409 205.00
91.2061 196.00
91.2713 173.00
91.3365 178.00
91.4017 202.00
91.4669 204.00
91.5321 189.00
91.5973 184.00
91.6625 177.00
91.7277 169.00
91.7929 190.00
91.8581 171.00
91.9233 188.00
91.9885 181.00
92.0537 178.00
92.1189 184.00
92.1841 193.00
92.2493 179.00
92.3145 171.00
92.3797 171.00
92.4449 174.00
92.5101 179.00
92.5753 179.00
92.6405 180.00
92.7057 154.00
92.7709 176.00
92.8361 173.00
92.9013 163.00
92.9665 183.00
93.0317 160.00
93.0969 169.00
93.1621 162.00
93.2273 186.00
93.2925 179.00
93.3577 180.00
93.4229 159.00
93.4881 171.00
93.5533 167.00
93.6185 191.00
93.6837 195.00
93.7489 162.00
93.8141 169.00
93.8793 151.00
93.9445 182.00
94.0097 192.00
94.0749 160.00
94.1401 193.00
94.2053 168.00
94.2705 171.00
94.3357 178.00
94.4009 173.00
94.4661 206.00
94.5313 189.00
94.5965 172.00
94.6617 163.00
94.7269 168.00
94.7921 176.00
94.8573 163.00
94.9225 170.00
94.9877 176.00
95.0529 162.00
95.1181 167.00
95.1833 182.00
95.2485 160.00
95.3137 179.00
95.3789 191.00
95.444 188.00
95.5092 186.00
95.5744 177.00
95.6396 197.00
95.7048 157.00
95.77 182.00
95.8352 194.00
95.9004 171.00
95.9656 171.00
96.0308 182.00
96.096 158.00
96.1612 187.00
96.2264 191.00
96.2916 162.00
96.3568 186.00
96.422 178.00
96.4872 218.00
96.5524 193.00
96.6176 162.00
96.6828 151.00
96.748 172.00
96.8132 181.00
96.8784 166.00
96.9436 164.00
97.0088 177.00
97.074 183.00
97.1392 159.00
97.2044 168.00
97.2696 193.00
97.3348 177.00
97.4 187.00
97.4652 184.00
97.5304 187.00
97.5956 179.00
97.6608 172.00
97.726 178.00
97.7912 180.00
97.8564 198.00
97.9216 177.00
97.9868 176.00
98.052 152.00
98.1172 160.00
98.1824 149.00
98.2476 166.00
98.3128 183.00
98.378 170.00
98.4432 189.00
98.5084 191.00
98.5736 166.00
98.6388 169.00
98.704 182.00
98.7692 168.00
98.8344 171.00
98.8996 175.00
98.9648 171.00
99.03 151.00
99.0952 177.00
99.1604 166.00
99.2256 166.00
99.2908 175.00
99.356 161.00
99.4212 159.00
99.4864 168.00
99.5516 163.00
99.6168 150.00
99.682 161.00
99.7472 176.00
99.8124 174.00
99.8776 210.00
99.9428 155.00
100.008 193.00
100.073 144.00
100.095 160.00