File: data/xrd_creation/results/NSC_78.xy
9.903433 2899.00
9.968632 2936.00
10.0338 2937.00
10.099 2836.00
10.1642 2833.00
10.2294 2818.00
10.2946 2803.00
10.3598 2716.00
10.425 2682.00
10.4902 2834.00
10.5554 2702.00
10.6206 2723.00
10.6858 2678.00
10.751 2630.00
10.8162 2699.00
10.8814 2640.00
10.9466 2551.00
11.0118 2675.00
11.077 2512.00
11.1422 2686.00
11.2074 2527.00
11.2726 2610.00
11.3378 2525.00
11.403 2538.00
11.4682 2553.00
11.5334 2488.00
11.5986 2385.00
11.6638 2458.00
11.729 2480.00
11.7942 2571.00
11.8594 2455.00
11.9246 2345.00
11.9898 2381.00
12.055 2366.00
12.1202 2411.00
12.1854 2272.00
12.2506 2418.00
12.3158 2331.00
12.381 2252.00
12.4462 2264.00
12.5114 2272.00
12.5766 2257.00
12.6418 2233.00
12.707 2248.00
12.7722 2282.00
12.8374 2253.00
12.9026 2246.00
12.9678 2234.00
13.033 2214.00
13.0982 2242.00
13.1634 2151.00
13.2286 2109.00
13.2938 2113.00
13.359 2136.00
13.4242 2163.00
13.4894 2125.00
13.5546 2097.00
13.6198 2106.00
13.685 2108.00
13.7502 2054.00
13.8154 2056.00
13.8805 2041.00
13.9457 1961.00
14.0109 2073.00
14.0761 2025.00
14.1413 2009.00
14.2065 2002.00
14.2717 1966.00
14.3369 2042.00
14.4021 2062.00
14.4673 1961.00
14.5325 1889.00
14.5977 1940.00
14.6629 1987.00
14.7281 1909.00
14.7933 1987.00
14.8585 1886.00
14.9237 1859.00
14.9889 1951.00
15.0541 1920.00
15.1193 1972.00
15.1845 1869.00
15.2497 1995.00
15.3149 1887.00
15.3801 1935.00
15.4453 1911.00
15.5105 1832.00
15.5757 1960.00
15.6409 1901.00
15.7061 1908.00
15.7713 1884.00
15.8365 1943.00
15.9017 1808.00
15.9669 1829.00
16.0321 1966.00
16.0973 1801.00
16.1625 1848.00
16.2277 1763.00
16.2929 1774.00
16.3581 1981.00
16.4233 1831.00
16.4885 1776.00
16.5537 1723.00
16.6189 1817.00
16.6841 1800.00
16.7493 1835.00
16.8145 1829.00
16.8797 1807.00
16.9449 1838.00
17.0101 1834.00
17.0753 1760.00
17.1405 1764.00
17.2057 1755.00
17.2709 1797.00
17.3361 1830.00
17.4013 1780.00
17.4665 1780.00
17.5317 1766.00
17.5969 1744.00
17.6621 1776.00
17.7273 1704.00
17.7925 1723.00
17.8577 1769.00
17.9229 1689.00
17.9881 1718.00
18.0533 1591.00
18.1185 1716.00
18.1837 1704.00
18.2489 1619.00
18.3141 1735.00
18.3793 1680.00
18.4445 1749.00
18.5097 1666.00
18.5749 1703.00
18.6401 1647.00
18.7052 1694.00
18.7704 1567.00
18.8356 1541.00
18.9008 1765.00
18.966 1730.00
19.0312 1623.00
19.0964 1712.00
19.1616 1778.00
19.2268 1745.00
19.292 1919.00
19.3572 2272.00
19.4224 3091.00
19.4876 4227.00
19.5528 4599.00
19.618 2923.00
19.6832 1979.00
19.7484 1703.00
19.8136 1663.00
19.8788 1642.00
19.944 1656.00
20.0092 1593.00
20.0744 1652.00
20.1396 1558.00
20.2048 1638.00
20.27 1650.00
20.3352 1608.00
20.4004 1685.00
20.4656 1685.00
20.5308 1590.00
20.596 1595.00
20.6612 1670.00
20.7264 1548.00
20.7916 1605.00
20.8568 1680.00
20.922 1646.00
20.9872 1596.00
21.0524 1591.00
21.1176 1626.00
21.1828 1629.00
21.248 1760.00
21.3132 1843.00
21.3784 2049.00
21.4436 2313.00
21.5088 2593.00
21.574 2525.00
21.6392 2274.00
21.7044 1980.00
21.7696 1805.00
21.8348 1655.00
21.9 1625.00
21.9652 1568.00
22.0304 1687.00
22.0956 1556.00
22.1608 1544.00
22.226 1599.00
22.2912 1554.00
22.3564 1525.00
22.4216 1524.00
22.4868 1448.00
22.552 1466.00
22.6172 1522.00
22.6824 1523.00
22.7476 1548.00
22.8128 1575.00
22.878 1492.00
22.9432 1542.00
23.0084 1511.00
23.0736 1553.00
23.1388 1494.00
23.204 1536.00
23.2692 1502.00
23.3344 1504.00
23.3996 1461.00
23.4647 1506.00
23.5299 1503.00
23.5951 1466.00
23.6603 1505.00
23.7255 1466.00
23.7907 1470.00
23.8559 1492.00
23.9211 1488.00
23.9863 1453.00
24.0515 1459.00
24.1167 1471.00
24.1819 1476.00
24.2471 1464.00
24.3123 1509.00
24.3775 1424.00
24.4427 1441.00
24.5079 1433.00
24.5731 1427.00
24.6383 1462.00
24.7035 1445.00
24.7687 1508.00
24.8339 1446.00
24.8991 1673.00
24.9643 1589.00
25.0295 1698.00
25.0947 1710.00
25.1599 1768.00
25.2251 1866.00
25.2903 2022.00
25.3555 2259.00
25.4207 3069.00
25.4859 4955.00
25.5511 8998.00
25.6163 16805.00
25.6815 19643.00
25.7467 12159.00
25.8119 4972.00
25.8771 2580.00
25.9423 2050.00
26.0075 1908.00
26.0727 1735.00
26.1379 1599.00
26.2031 1566.00
26.2683 1569.00
26.3335 1496.00
26.3987 1490.00
26.4639 1435.00
26.5291 1531.00
26.5943 1451.00
26.6595 1425.00
26.7247 1474.00
26.7899 1448.00
26.8551 1425.00
26.9203 1469.00
26.9855 1486.00
27.0507 1473.00
27.1159 1552.00
27.1811 1527.00
27.2463 1540.00
27.3115 1524.00
27.3767 1612.00
27.4419 1752.00
27.5071 1907.00
27.5723 2349.00
27.6375 3836.00
27.7027 7288.00
27.7679 13015.00
27.8331 12105.00
27.8983 6350.00
27.9635 2866.00
28.0287 1921.00
28.0939 1870.00
28.1591 1676.00
28.2243 1572.00
28.2894 1494.00
28.3546 1460.00
28.4198 1463.00
28.485 1429.00
28.5502 1449.00
28.6154 1407.00
28.6806 1369.00
28.7458 1473.00
28.811 1523.00
28.8762 1543.00
28.9414 1489.00
29.0066 1666.00
29.0718 2023.00
29.137 2804.00
29.2022 4565.00
29.2674 5847.00
29.3326 4403.00
29.3978 2785.00
29.463 2172.00
29.5282 2182.00
29.5934 2393.00
29.6586 2014.00
29.7238 1622.00
29.789 1463.00
29.8542 1416.00
29.9194 1485.00
29.9846 1637.00
30.0498 1584.00
30.115 1447.00
30.1802 1381.00
30.2454 1340.00
30.3106 1345.00
30.3758 1404.00
30.441 1406.00
30.5062 1442.00
30.5714 1399.00
30.6366 1400.00
30.7018 1267.00
30.767 1304.00
30.8322 1223.00
30.8974 1220.00
30.9626 1317.00
31.0278 1284.00
31.093 1288.00
31.1582 1275.00
31.2234 1246.00
31.2886 1300.00
31.3538 1233.00
31.419 1178.00
31.4842 1279.00
31.5494 1242.00
31.6146 1172.00
31.6798 1214.00
31.745 1187.00
31.8102 1231.00
31.8754 1188.00
31.9406 1238.00
32.0058 1187.00
32.071 1260.00
32.1362 1216.00
32.2014 1131.00
32.2666 1179.00
32.3318 1163.00
32.397 1156.00
32.4622 1183.00
32.5274 1215.00
32.5926 1166.00
32.6578 1175.00
32.723 1130.00
32.7882 1097.00
32.8534 1069.00
32.9186 1092.00
32.9838 1100.00
33.0489 1140.00
33.1141 1074.00
33.1793 1172.00
33.2445 1100.00
33.3097 1051.00
33.3749 1053.00
33.4401 1077.00
33.5053 1093.00
33.5705 1036.00
33.6357 1096.00
33.7009 1102.00
33.7661 1127.00
33.8313 1032.00
33.8965 1048.00
33.9617 1083.00
34.0269 1056.00
34.0921 1093.00
34.1573 991.00
34.2225 1033.00
34.2877 1039.00
34.3529 999.00
34.4181 1057.00
34.4833 1063.00
34.5485 992.00
34.6137 1059.00
34.6789 1048.00
34.7441 942.00
34.8093 1038.00
34.8745 936.00
34.9397 1008.00
35.0049 968.00
35.0701 1055.00
35.1353 1000.00
35.2005 1021.00
35.2657 1023.00
35.3309 1034.00
35.3961 1100.00
35.4613 1093.00
35.5265 1156.00
35.5917 1099.00
35.6569 1028.00
35.7221 1052.00
35.7873 1026.00
35.8525 1042.00
35.9177 961.00
35.9829 958.00
36.0481 935.00
36.1133 852.00
36.1785 950.00
36.2437 854.00
36.3089 889.00
36.3741 928.00
36.4393 912.00
36.5045 892.00
36.5697 920.00
36.6349 890.00
36.7001 857.00
36.7653 890.00
36.8305 888.00
36.8957 910.00
36.9609 892.00
37.0261 960.00
37.0913 889.00
37.1565 944.00
37.2217 877.00
37.2869 923.00
37.3521 876.00
37.4173 861.00
37.4825 884.00
37.5477 899.00
37.6129 831.00
37.6781 853.00
37.7433 900.00
37.8085 896.00
37.8736 971.00
37.9388 843.00
38.004 968.00
38.0692 1080.00
38.1344 1510.00
38.1996 2330.00
38.2648 2484.00
38.33 2046.00
38.3952 1333.00
38.4604 973.00
38.5256 930.00
38.5908 912.00
38.656 868.00
38.7212 803.00
38.7864 862.00
38.8516 850.00
38.9168 849.00
38.982 855.00
39.0472 858.00
39.1124 809.00
39.1776 878.00
39.2428 869.00
39.308 846.00
39.3732 855.00
39.4384 842.00
39.5036 888.00
39.5688 939.00
39.634 1137.00
39.6992 1740.00
39.7644 2284.00
39.8296 1997.00
39.8948 1558.00
39.96 1016.00
40.0252 893.00
40.0904 843.00
40.1556 857.00
40.2208 783.00
40.286 788.00
40.3512 817.00
40.4164 812.00
40.4816 719.00
40.5468 804.00
40.612 775.00
40.6772 761.00
40.7424 749.00
40.8076 781.00
40.8728 795.00
40.938 754.00
41.0032 770.00
41.0684 744.00
41.1336 792.00
41.1988 789.00
41.264 738.00
41.3292 800.00
41.3944 824.00
41.4596 784.00
41.5248 759.00
41.59 763.00
41.6552 741.00
41.7204 770.00
41.7856 800.00
41.8508 814.00
41.916 772.00
41.9812 782.00
42.0464 761.00
42.1116 727.00
42.1768 748.00
42.242 791.00
42.3072 789.00
42.3724 770.00
42.4376 753.00
42.5028 781.00
42.568 855.00
42.6332 753.00
42.6983 779.00
42.7635 852.00
42.8287 824.00
42.8939 822.00
42.9591 856.00
43.0243 857.00
43.0895 845.00
43.1547 855.00
43.2199 849.00
43.2851 840.00
43.3503 842.00
43.4155 834.00
43.4807 877.00
43.5459 820.00
43.6111 919.00
43.6763 950.00
43.7415 1072.00
43.8067 1224.00
43.8719 1932.00
43.9371 3253.00
44.0023 3235.00
44.0675 2602.00
44.1327 1780.00
44.1979 1166.00
44.2631 1093.00
44.3283 982.00
44.3935 928.00
44.4587 953.00
44.5239 1027.00
44.5891 1430.00
44.6543 2502.00
44.7195 3186.00
44.7847 2454.00
44.8499 1982.00
44.9151 1235.00
44.9803 935.00
45.0455 880.00
45.1107 792.00
45.1759 781.00
45.2411 823.00
45.3063 780.00
45.3715 774.00
45.4367 740.00
45.5019 818.00
45.5671 752.00
45.6323 743.00
45.6975 736.00
45.7627 719.00
45.8279 762.00
45.8931 770.00
45.9583 759.00
46.0235 697.00
46.0887 773.00
46.1539 818.00
46.2191 800.00
46.2843 890.00
46.3495 987.00
46.4147 898.00
46.4799 828.00
46.5451 784.00
46.6103 723.00
46.6755 771.00
46.7407 809.00
46.8059 810.00
46.8711 708.00
46.9363 730.00
47.0015 712.00
47.0667 792.00
47.1319 753.00
47.1971 797.00
47.2623 777.00
47.3275 775.00
47.3927 778.00
47.4579 845.00
47.523 835.00
47.5882 916.00
47.6534 821.00
47.7186 1008.00
47.7838 1083.00
47.849 1487.00
47.9142 2830.00
47.9794 4344.00
48.0446 3280.00
48.1098 2933.00
48.175 1852.00
48.2402 1265.00
48.3054 1276.00
48.3706 1420.00
48.4358 1854.00
48.501 3337.00
48.5662 4968.00
48.6314 4048.00
48.6966 3292.00
48.7618 2119.00
48.827 1294.00
48.8922 1007.00
48.9574 865.00
49.0226 885.00
49.0878 877.00
49.153 745.00
49.2182 836.00
49.2834 780.00
49.3486 716.00
49.4138 694.00
49.479 743.00
49.5442 724.00
49.6094 704.00
49.6746 717.00
49.7398 716.00
49.805 744.00
49.8702 753.00
49.9354 729.00
50.0006 797.00
50.0658 909.00
50.131 1345.00
50.1962 1475.00
50.2614 1221.00
50.3266 1161.00
50.3918 914.00
50.457 737.00
50.5222 730.00
50.5874 697.00
50.6526 668.00
50.7178 690.00
50.783 696.00
50.8482 701.00
50.9134 707.00
50.9786 697.00
51.0438 690.00
51.109 655.00
51.1742 667.00
51.2394 647.00
51.3046 669.00
51.3698 697.00
51.435 642.00
51.5002 634.00
51.5654 711.00
51.6306 617.00
51.6958 712.00
51.761 639.00
51.8262 666.00
51.8914 666.00
51.9566 670.00
52.0218 617.00
52.087 682.00
52.1522 670.00
52.2174 666.00
52.2826 726.00
52.3477 742.00
52.4129 689.00
52.4781 677.00
52.5433 697.00
52.6085 752.00
52.6737 821.00
52.7389 881.00
52.8041 1371.00
52.8693 1776.00
52.9345 1541.00
52.9997 1386.00
53.0649 1046.00
53.1301 869.00
53.1953 741.00
53.2605 741.00
53.3257 682.00
53.3909 682.00
53.4561 677.00
53.5213 692.00
53.5865 631.00
53.6517 664.00
53.7169 681.00
53.7821 684.00
53.8473 623.00
53.9125 663.00
53.9777 744.00
54.0429 674.00
54.1081 709.00
54.1733 645.00
54.2385 692.00
54.3037 646.00
54.3689 640.00
54.4341 632.00
54.4993 632.00
54.5645 670.00
54.6297 690.00
54.6949 722.00
54.7601 790.00
54.8253 898.00
54.8905 1216.00
54.9557 1356.00
55.0209 1076.00
55.0861 1007.00
55.1513 774.00
55.2165 731.00
55.2817 690.00
55.3469 632.00
55.4121 657.00
55.4773 592.00
55.5425 653.00
55.6077 623.00
55.6729 655.00
55.7381 663.00
55.8033 680.00
55.8685 682.00
55.9337 694.00
55.9989 676.00
56.0641 641.00
56.1293 733.00
56.1945 800.00
56.2597 932.00
56.3249 1330.00
56.3901 2035.00
56.4553 1849.00
56.5205 1620.00
56.5857 1385.00
56.6509 996.00
56.7161 814.00
56.7813 760.00
56.8465 699.00
56.9117 703.00
56.9769 725.00
57.042 641.00
57.1073 680.00
57.1724 717.00
57.2376 691.00
57.3028 777.00
57.368 810.00
57.4332 973.00
57.4984 1541.00
57.5636 1827.00
57.6288 1411.00
57.694 1377.00
57.7592 1073.00
57.8244 757.00
57.8896 662.00
57.9548 623.00
58.02 653.00
58.0852 673.00
58.1504 605.00
58.2156 631.00
58.2808 625.00
58.346 619.00
58.4112 709.00
58.4764 682.00
58.5416 708.00
58.6068 618.00
58.672 630.00
58.7372 645.00
58.8024 659.00
58.8676 588.00
58.9328 595.00
58.998 620.00
59.0632 571.00
59.1284 584.00
59.1936 590.00
59.2588 612.00
59.324 611.00
59.3892 649.00
59.4544 598.00
59.5196 570.00
59.5848 617.00
59.65 592.00
59.7152 609.00
59.7804 599.00
59.8456 549.00
59.9108 585.00
59.976 581.00
60.0412 594.00
60.1064 621.00
60.1716 543.00
60.2368 600.00
60.302 596.00
60.3672 603.00
60.4324 572.00
60.4976 607.00
60.5628 583.00
60.628 653.00
60.6932 570.00
60.7584 603.00
60.8236 725.00
60.8888 699.00
60.954 652.00
61.0192 627.00
61.0844 609.00
61.1496 603.00
61.2148 676.00
61.28 642.00
61.3452 847.00
61.4104 1029.00
61.4756 950.00
61.5408 893.00
61.606 849.00
61.6712 699.00
61.7364 619.00
61.8016 599.00
61.8667 606.00
61.932 521.00
61.9971 543.00
62.0623 592.00
62.1275 597.00
62.1927 623.00
62.2579 575.00
62.3231 622.00
62.3883 569.00
62.4535 568.00
62.5187 628.00
62.5839 543.00
62.6491 577.00
62.7143 585.00
62.7795 558.00
62.8447 601.00
62.9099 601.00
62.9751 596.00
63.0403 607.00
63.1055 589.00
63.1707 590.00
63.2359 581.00
63.3011 566.00
63.3663 624.00
63.4315 597.00
63.4967 558.00
63.5619 631.00
63.6271 582.00
63.6923 568.00
63.7575 586.00
63.8227 669.00
63.8879 649.00
63.9531 789.00
64.0183 1146.00
64.0835 1480.00
64.1487 1134.00
64.2139 1155.00
64.2791 1227.00
64.3443 1086.00
64.4095 1267.00
64.4747 1868.00
64.5399 3352.00
64.6051 3315.00
64.6703 2380.00
64.7355 2425.00
64.8007 1851.00
64.8659 1201.00
64.9311 986.00
64.9963 848.00
65.0615 1111.00
65.1267 1523.00
65.1919 1326.00
65.2571 1039.00
65.3223 1088.00
65.3875 872.00
65.4527 676.00
65.5179 647.00
65.5831 581.00
65.6483 612.00
65.7135 596.00
65.7787 565.00
65.8439 556.00
65.9091 656.00
65.9743 653.00
66.0395 574.00
66.1047 632.00
66.1699 581.00
66.2351 511.00
66.3003 488.00
66.3655 529.00
66.4307 504.00
66.4959 462.00
66.561 504.00
66.6263 523.00
66.6915 548.00
66.7566 551.00
66.8218 512.00
66.887 555.00
66.9522 527.00
67.0174 491.00
67.0826 506.00
67.1478 507.00
67.213 494.00
67.2782 513.00
67.3434 517.00
67.4086 506.00
67.4738 517.00
67.539 533.00
67.6042 524.00
67.6694 534.00
67.7346 525.00
67.7998 565.00
67.865 505.00
67.9302 519.00
67.9954 551.00
68.0606 515.00
68.1258 479.00
68.191 550.00
68.2562 605.00
68.3214 567.00
68.3866 606.00
68.4518 596.00
68.517 560.00
68.5822 608.00
68.6474 561.00
68.7126 534.00
68.7778 515.00
68.843 491.00
68.9082 517.00
68.9734 507.00
69.0386 532.00
69.1038 498.00
69.169 499.00
69.2342 505.00
69.2994 499.00
69.3646 521.00
69.4298 502.00
69.495 498.00
69.5602 542.00
69.6254 544.00
69.6906 542.00
69.7558 547.00
69.821 572.00
69.8862 582.00
69.9514 660.00
70.0166 750.00
70.0818 885.00
70.147 1184.00
70.2122 1276.00
70.2774 902.00
70.3426 890.00
70.4078 849.00
70.473 717.00
70.5382 565.00
70.6034 581.00
70.6686 541.00
70.7338 483.00
70.799 501.00
70.8642 506.00
70.9294 542.00
70.9946 537.00
71.0598 527.00
71.125 510.00
71.1902 538.00
71.2554 480.00
71.3205 556.00
71.3858 499.00
71.451 521.00
71.5162 513.00
71.5813 485.00
71.6465 506.00
71.7117 500.00
71.7769 548.00
71.8421 545.00
71.9073 656.00
71.9725 641.00
72.0377 569.00
72.1029 565.00
72.1681 568.00
72.2333 532.00
72.2985 517.00
72.3637 503.00
72.4289 512.00
72.4941 455.00
72.5593 512.00
72.6245 487.00
72.6897 448.00
72.7549 480.00
72.8201 449.00
72.8853 502.00
72.9505 527.00
73.0157 455.00
73.0809 489.00
73.1461 463.00
73.2113 470.00
73.2765 467.00
73.3417 471.00
73.4069 477.00
73.4721 442.00
73.5373 490.00
73.6025 474.00
73.6677 454.00
73.7329 467.00
73.7981 457.00
73.8633 454.00
73.9285 463.00
73.9937 463.00
74.0589 433.00
74.1241 459.00
74.1893 439.00
74.2545 445.00
74.3197 472.00
74.3849 470.00
74.4501 490.00
74.5153 474.00
74.5805 457.00
74.6457 485.00
74.7109 467.00
74.7761 511.00
74.8413 524.00
74.9065 507.00
74.9717 473.00
75.0369 516.00
75.1021 622.00
75.1673 696.00
75.2325 850.00
75.2977 820.00
75.3629 998.00
75.4281 1181.00
75.4933 927.00
75.5585 772.00
75.6237 860.00
75.6889 738.00
75.7541 660.00
75.8193 582.00
75.8845 548.00
75.9497 520.00
76.0149 517.00
76.0801 499.00
76.1452 483.00
76.2104 523.00
76.2756 492.00
76.3409 461.00
76.406 465.00
76.4712 529.00
76.5364 473.00
76.6016 424.00
76.6668 526.00
76.732 501.00
76.7972 488.00
76.8624 564.00
76.9276 595.00
76.9928 571.00
77.058 684.00
77.1232 787.00
77.1884 729.00
77.2536 656.00
77.3188 625.00
77.384 700.00
77.4492 565.00
77.5144 496.00
77.5796 469.00
77.6448 481.00
77.71 535.00
77.7752 582.00
77.8404 560.00
77.9056 507.00
77.9708 563.00
78.036 613.00
78.1012 791.00
78.1664 1195.00
78.2316 1134.00
78.2968 877.00
78.362 886.00
78.4272 1027.00
78.4924 907.00
78.5576 966.00
78.6228 1270.00
78.688 1076.00
78.7532 849.00
78.8184 859.00
78.8836 946.00
78.9488 690.00
79.014 625.00
79.0792 571.00
79.1444 488.00
79.2096 545.00
79.2748 456.00
79.34 523.00
79.4052 481.00
79.4704 506.00
79.5356 468.00
79.6008 488.00
79.666 495.00
79.7312 524.00
79.7964 527.00
79.8616 575.00
79.9268 608.00
79.992 574.00
80.0572 530.00
80.1224 540.00
80.1876 542.00
80.2528 474.00
80.318 490.00
80.3832 446.00
80.4484 444.00
80.5136 467.00
80.5788 435.00
80.644 425.00
80.7092 466.00
80.7744 454.00
80.8396 459.00
80.9048 472.00
80.9699 446.00
81.0351 486.00
81.1003 490.00
81.1655 456.00
81.2307 478.00
81.2959 429.00
81.3611 448.00
81.4263 446.00
81.4915 510.00
81.5567 463.00
81.6219 488.00
81.6871 529.00
81.7523 452.00
81.8175 504.00
81.8827 548.00
81.9479 563.00
82.0131 685.00
82.0783 726.00
82.1435 854.00
82.2087 1013.00
82.2739 937.00
82.3391 731.00
82.4043 709.00
82.4695 716.00
82.5347 652.00
82.5999 537.00
82.6651 480.00
82.7303 482.00
82.7955 497.00
82.8607 461.00
82.9259 458.00
82.9911 474.00
83.0563 466.00
83.1215 512.00
83.1867 495.00
83.2519 451.00
83.3171 454.00
83.3823 476.00
83.4475 479.00
83.5127 456.00
83.5779 493.00
83.6431 492.00
83.7083 520.00
83.7735 545.00
83.8387 700.00
83.9039 787.00
83.9691 628.00
84.0343 667.00
84.0995 575.00
84.1647 650.00
84.2299 583.00
84.2951 486.00
84.3603 458.00
84.4255 405.00
84.4907 440.00
84.5559 409.00
84.6211 436.00
84.6863 498.00
84.7515 407.00
84.8167 458.00
84.8819 536.00
84.9471 553.00
85.0123 496.00
85.0775 503.00
85.1427 514.00
85.2079 514.00
85.2731 461.00
85.3383 467.00
85.4035 455.00
85.4687 423.00
85.5339 433.00
85.5991 484.00
85.6643 477.00
85.7295 515.00
85.7946 483.00
85.8598 618.00
85.925 613.00
85.9903 541.00
86.0554 502.00
86.1206 524.00
86.1858 494.00
86.251 427.00
86.3162 441.00
86.3814 447.00
86.4466 391.00
86.5118 477.00
86.577 424.00
86.6422 431.00
86.7074 436.00
86.7726 437.00
86.8378 418.00
86.903 423.00
86.9682 423.00
87.0334 442.00
87.0986 414.00
87.1638 395.00
87.229 408.00
87.2942 380.00
87.3594 391.00
87.4246 440.00
87.4898 420.00
87.555 434.00
87.6202 413.00
87.6854 421.00
87.7506 437.00
87.8158 438.00
87.881 402.00
87.9462 401.00
88.0114 430.00
88.0766 411.00
88.1418 426.00
88.207 398.00
88.2722 406.00
88.3374 345.00
88.4026 422.00
88.4678 427.00
88.533 422.00
88.5982 424.00
88.6634 434.00
88.7286 393.00
88.7938 389.00
88.859 397.00
88.9242 431.00
88.9894 435.00
89.0546 421.00
89.1198 413.00
89.185 490.00
89.2502 495.00
89.3154 504.00
89.3806 437.00
89.4458 429.00
89.511 448.00
89.5762 472.00
89.6414 415.00
89.7066 398.00
89.7718 393.00
89.837 428.00
89.9022 429.00
89.9674 440.00
90.0326 443.00
90.0978 432.00
90.163 422.00
90.2282 456.00
90.2934 469.00
90.3586 532.00
90.4238 530.00
90.489 595.00
90.5542 677.00
90.6193 641.00
90.6845 548.00
90.7497 554.00
90.8149 518.00
90.8801 582.00
90.9453 514.00
91.0105 407.00
91.0757 394.00
91.1409 424.00
91.2061 448.00
91.2713 455.00
91.3365 418.00
91.4017 414.00
91.4669 441.00
91.5321 435.00
91.5973 443.00
91.6625 421.00
91.7277 440.00
91.7929 422.00
91.8581 499.00
91.9233 544.00
91.9885 710.00
92.0537 803.00
92.1189 749.00
92.1841 647.00
92.2493 598.00
92.3145 619.00
92.3797 635.00
92.4449 549.00
92.5101 622.00
92.5753 621.00
92.6405 495.00
92.7057 536.00
92.7709 559.00
92.8361 517.00
92.9013 446.00
92.9665 468.00
93.0317 471.00
93.0969 452.00
93.1621 476.00
93.2273 436.00
93.2925 477.00
93.3577 459.00
93.4229 417.00
93.4881 423.00
93.5533 508.00
93.6185 428.00
93.6837 445.00
93.7489 386.00
93.8141 385.00
93.8793 388.00
93.9445 395.00
94.0097 417.00
94.0749 394.00
94.1401 405.00
94.2053 420.00
94.2705 376.00
94.3357 420.00
94.4009 449.00
94.4661 400.00
94.5313 418.00
94.5965 394.00
94.6617 424.00
94.7269 457.00
94.7921 425.00
94.8573 406.00
94.9225 412.00
94.9877 464.00
95.0529 413.00
95.1181 386.00
95.1833 376.00
95.2485 382.00
95.3137 390.00
95.3789 459.00
95.444 440.00
95.5092 466.00
95.5744 523.00
95.6396 491.00
95.7048 501.00
95.77 437.00
95.8352 508.00
95.9004 440.00
95.9656 415.00
96.0308 390.00
96.096 431.00
96.1612 426.00
96.2264 456.00
96.2916 432.00
96.3568 399.00
96.422 419.00
96.4872 422.00
96.5524 385.00
96.6176 421.00
96.6828 417.00
96.748 397.00
96.8132 426.00
96.8784 460.00
96.9436 524.00
97.0088 535.00
97.074 561.00
97.1392 660.00
97.2044 661.00
97.2696 715.00
97.3348 609.00
97.4 597.00
97.4652 534.00
97.5304 557.00
97.5956 555.00
97.6608 534.00
97.726 459.00
97.7912 407.00
97.8564 452.00
97.9216 408.00
97.9868 442.00
98.052 429.00
98.1172 426.00
98.1824 462.00
98.2476 554.00
98.3128 631.00
98.378 595.00
98.4432 495.00
98.5084 516.00
98.5736 498.00
98.6388 563.00
98.704 503.00
98.7692 547.00
98.8344 536.00
98.8996 549.00
98.9648 472.00
99.03 458.00
99.0952 460.00
99.1604 526.00
99.2256 670.00
99.2908 640.00
99.356 548.00
99.4212 535.00
99.4864 500.00
99.5516 531.00
99.6168 525.00
99.682 542.00
99.7472 446.00
99.8124 388.00
99.8776 418.00
99.9428 408.00
100.008 396.00
100.073 417.00
100.095 402.00