File: data/xrd_creation/results/NSC_24.xy
9.903433 2962.00
9.968632 2782.00
10.0338 2697.00
10.099 2880.00
10.1642 2946.00
10.2294 2856.00
10.2946 2901.00
10.3598 2692.00
10.425 2727.00
10.4902 2726.00
10.5554 2610.00
10.6206 2658.00
10.6858 2775.00
10.751 2692.00
10.8162 2637.00
10.8814 2622.00
10.9466 2522.00
11.0118 2628.00
11.077 2577.00
11.1422 2537.00
11.2074 2513.00
11.2726 2494.00
11.3378 2479.00
11.403 2380.00
11.4682 2505.00
11.5334 2528.00
11.5986 2527.00
11.6638 2415.00
11.729 2568.00
11.7942 2360.00
11.8594 2540.00
11.9246 2408.00
11.9898 2501.00
12.055 2503.00
12.1202 2401.00
12.1854 2401.00
12.2506 2335.00
12.3158 2269.00
12.381 2370.00
12.4462 2274.00
12.5114 2309.00
12.5766 2298.00
12.6418 2343.00
12.707 2251.00
12.7722 2333.00
12.8374 2222.00
12.9026 2258.00
12.9678 2243.00
13.033 2228.00
13.0982 2232.00
13.1634 2258.00
13.2286 2145.00
13.2938 2156.00
13.359 2217.00
13.4242 2111.00
13.4894 2264.00
13.5546 2338.00
13.6198 2362.00
13.685 2324.00
13.7502 2314.00
13.8154 2389.00
13.8805 2343.00
13.9457 2258.00
14.0109 2122.00
14.0761 2188.00
14.1413 2204.00
14.2065 2170.00
14.2717 2256.00
14.3369 2145.00
14.4021 2213.00
14.4673 2316.00
14.5325 2321.00
14.5977 2395.00
14.6629 2355.00
14.7281 2335.00
14.7933 2313.00
14.8585 2232.00
14.9237 2225.00
14.9889 2077.00
15.0541 2025.00
15.1193 2118.00
15.1845 2015.00
15.2497 2191.00
15.3149 2082.00
15.3801 2004.00
15.4453 2031.00
15.5105 2011.00
15.5757 2031.00
15.6409 1980.00
15.7061 2003.00
15.7713 2043.00
15.8365 2014.00
15.9017 2088.00
15.9669 1961.00
16.0321 2024.00
16.0973 2015.00
16.1625 1985.00
16.2277 2001.00
16.2929 2026.00
16.3581 1985.00
16.4233 1955.00
16.4885 2062.00
16.5537 2016.00
16.6189 1952.00
16.6841 2039.00
16.7493 2038.00
16.8145 2236.00
16.8797 2208.00
16.9449 2104.00
17.0101 2043.00
17.0753 2021.00
17.1405 1920.00
17.2057 2038.00
17.2709 1973.00
17.3361 2031.00
17.4013 2012.00
17.4665 1997.00
17.5317 1961.00
17.5969 1983.00
17.6621 1984.00
17.7273 1883.00
17.7925 1888.00
17.8577 1829.00
17.9229 1923.00
17.9881 1852.00
18.0533 1872.00
18.1185 1845.00
18.1837 1858.00
18.2489 1896.00
18.3141 1819.00
18.3793 1840.00
18.4445 1760.00
18.5097 1850.00
18.5749 1825.00
18.6401 1792.00
18.7052 1795.00
18.7704 1842.00
18.8356 1840.00
18.9008 1884.00
18.966 1950.00
19.0312 1988.00
19.0964 2149.00
19.1616 2500.00
19.2268 3086.00
19.292 3634.00
19.3572 4257.00
19.4224 4289.00
19.4876 4099.00
19.5528 3398.00
19.618 2871.00
19.6832 2491.00
19.7484 2125.00
19.8136 1985.00
19.8788 1869.00
19.944 1796.00
20.0092 1778.00
20.0744 1739.00
20.1396 1778.00
20.2048 1829.00
20.27 1746.00
20.3352 1755.00
20.4004 1719.00
20.4656 1820.00
20.5308 1834.00
20.596 1799.00
20.6612 1846.00
20.7264 1753.00
20.7916 1894.00
20.8568 1832.00
20.922 1883.00
20.9872 1901.00
21.0524 2077.00
21.1176 1993.00
21.1828 2141.00
21.248 2018.00
21.3132 2103.00
21.3784 2046.00
21.4436 1897.00
21.5088 1900.00
21.574 1910.00
21.6392 1777.00
21.7044 1707.00
21.7696 1762.00
21.8348 1824.00
21.9 1725.00
21.9652 1732.00
22.0304 1918.00
22.0956 1876.00
22.1608 2029.00
22.226 2045.00
22.2912 2184.00
22.3564 2299.00
22.4216 2322.00
22.4868 2301.00
22.552 2295.00
22.6172 2332.00
22.6824 2349.00
22.7476 2358.00
22.8128 2282.00
22.878 1979.00
22.9432 1858.00
23.0084 1793.00
23.0736 1687.00
23.1388 1646.00
23.204 1621.00
23.2692 1556.00
23.3344 1610.00
23.3996 1587.00
23.4647 1606.00
23.5299 1545.00
23.5951 1562.00
23.6603 1631.00
23.7255 1591.00
23.7907 1735.00
23.8559 1697.00
23.9211 1981.00
23.9863 2119.00
24.0515 2200.00
24.1167 2212.00
24.1819 2097.00
24.2471 1942.00
24.3123 1992.00
24.3775 1892.00
24.4427 1944.00
24.5079 1983.00
24.5731 1857.00
24.6383 1721.00
24.7035 1707.00
24.7687 1689.00
24.8339 1572.00
24.8991 1612.00
24.9643 1668.00
25.0295 1711.00
25.0947 1656.00
25.1599 1545.00
25.2251 1545.00
25.2903 1587.00
25.3555 1518.00
25.4207 1522.00
25.4859 1498.00
25.5511 1537.00
25.6163 1574.00
25.6815 1571.00
25.7467 1592.00
25.8119 1599.00
25.8771 1511.00
25.9423 1470.00
26.0075 1563.00
26.0727 1483.00
26.1379 1448.00
26.2031 1511.00
26.2683 1420.00
26.3335 1451.00
26.3987 1515.00
26.4639 1475.00
26.5291 1548.00
26.5943 1688.00
26.6595 1697.00
26.7247 1816.00
26.7899 1903.00
26.8551 1841.00
26.9203 1769.00
26.9855 1606.00
27.0507 1560.00
27.1159 1632.00
27.1811 1542.00
27.2463 1720.00
27.3115 1735.00
27.3767 1937.00
27.4419 2053.00
27.5071 2318.00
27.5723 2324.00
27.6375 2344.00
27.7027 2105.00
27.7679 1947.00
27.8331 1810.00
27.8983 1985.00
27.9635 2275.00
28.0287 2834.00
28.0939 3763.00
28.1591 4617.00
28.2243 4894.00
28.2894 4488.00
28.3546 3811.00
28.4198 2975.00
28.485 2450.00
28.5502 2072.00
28.6154 1761.00
28.6806 1575.00
28.7458 1497.00
28.811 1425.00
28.8762 1517.00
28.9414 1445.00
29.0066 1441.00
29.0718 1462.00
29.137 1548.00
29.2022 1738.00
29.2674 1870.00
29.3326 2106.00
29.3978 2165.00
29.463 2085.00
29.5282 1936.00
29.5934 1709.00
29.6586 1545.00
29.7238 1544.00
29.789 1567.00
29.8542 1671.00
29.9194 1685.00
29.9846 1867.00
30.0498 1858.00
30.115 1738.00
30.1802 1708.00
30.2454 1656.00
30.3106 1588.00
30.3758 1579.00
30.441 1600.00
30.5062 1779.00
30.5714 1998.00
30.6366 2196.00
30.7018 2362.00
30.767 2651.00
30.8322 2995.00
30.8974 3409.00
30.9626 3617.00
31.0278 3571.00
31.093 3280.00
31.1582 2927.00
31.2234 2567.00
31.2886 2744.00
31.3538 3133.00
31.419 3694.00
31.4842 3751.00
31.5494 3617.00
31.6146 2994.00
31.6798 2517.00
31.745 1925.00
31.8102 1767.00
31.8754 1596.00
31.9406 1574.00
32.0058 1444.00
32.071 1416.00
32.1362 1445.00
32.2014 1478.00
32.2666 1450.00
32.3318 1369.00
32.397 1402.00
32.4622 1354.00
32.5274 1423.00
32.5926 1387.00
32.6578 1516.00
32.723 1462.00
32.7882 1526.00
32.8534 1521.00
32.9186 1665.00
32.9838 1726.00
33.0489 1920.00
33.1141 1902.00
33.1793 1872.00
33.2445 1682.00
33.3097 1655.00
33.3749 1653.00
33.4401 1590.00
33.5053 1675.00
33.5705 1767.00
33.6357 1926.00
33.7009 2547.00
33.7661 3174.00
33.8313 3718.00
33.8965 3770.00
33.9617 3869.00
34.0269 3846.00
34.0921 3685.00
34.1573 3447.00
34.2225 3258.00
34.2877 2930.00
34.3529 2574.00
34.4181 2231.00
34.4833 2001.00
34.5485 1912.00
34.6137 1808.00
34.6789 1720.00
34.7441 1817.00
34.8093 1903.00
34.8745 1965.00
34.9397 1849.00
35.0049 1699.00
35.0701 1610.00
35.1353 1654.00
35.2005 1667.00
35.2657 1781.00
35.3309 1789.00
35.3961 1736.00
35.4613 1620.00
35.5265 1356.00
35.5917 1346.00
35.6569 1224.00
35.7221 1262.00
35.7873 1353.00
35.8525 1295.00
35.9177 1226.00
35.9829 1287.00
36.0481 1218.00
36.1133 1258.00
36.1785 1252.00
36.2437 1203.00
36.3089 1115.00
36.3741 1129.00
36.4393 1173.00
36.5045 1174.00
36.5697 1147.00
36.6349 1170.00
36.7001 1186.00
36.7653 1191.00
36.8305 1210.00
36.8957 1207.00
36.9609 1248.00
37.0261 1214.00
37.0913 1261.00
37.1565 1288.00
37.2217 1466.00
37.2869 1520.00
37.3521 1491.00
37.4173 1291.00
37.4825 1209.00
37.5477 1155.00
37.6129 1141.00
37.6781 1099.00
37.7433 1142.00
37.8085 1079.00
37.8736 1153.00
37.9388 1143.00
38.004 1155.00
38.0692 1139.00
38.1344 1130.00
38.1996 1138.00
38.2648 1120.00
38.33 1204.00
38.3952 1095.00
38.4604 1204.00
38.5256 1289.00
38.5908 1323.00
38.656 1255.00
38.7212 1284.00
38.7864 1219.00
38.8516 1217.00
38.9168 1068.00
38.982 1145.00
39.0472 1167.00
39.1124 1158.00
39.1776 1118.00
39.2428 1140.00
39.308 1200.00
39.3732 1232.00
39.4384 1298.00
39.5036 1289.00
39.5688 1343.00
39.634 1338.00
39.6992 1225.00
39.7644 1163.00
39.8296 1183.00
39.8948 1155.00
39.96 1124.00
40.0252 1134.00
40.0904 1087.00
40.1556 1027.00
40.2208 1107.00
40.286 1106.00
40.3512 1048.00
40.4164 1161.00
40.4816 1140.00
40.5468 1184.00
40.612 1335.00
40.6772 1452.00
40.7424 1511.00
40.8076 1569.00
40.8728 1720.00
40.938 1602.00
41.0032 1582.00
41.0684 1664.00
41.1336 1679.00
41.1988 1627.00
41.264 1595.00
41.3292 1608.00
41.3944 1503.00
41.4596 1354.00
41.5248 1335.00
41.59 1309.00
41.6552 1273.00
41.7204 1223.00
41.7856 1210.00
41.8508 1162.00
41.916 1165.00
41.9812 1137.00
42.0464 1098.00
42.1116 1073.00
42.1768 1120.00
42.242 1059.00
42.3072 1027.00
42.3724 1053.00
42.4376 1064.00
42.5028 1101.00
42.568 1085.00
42.6332 1155.00
42.6983 1163.00
42.7635 1176.00
42.8287 1126.00
42.8939 1034.00
42.9591 1057.00
43.0243 1054.00
43.0895 1087.00
43.1547 1078.00
43.2199 1189.00
43.2851 1147.00
43.3503 1160.00
43.4155 1043.00
43.4807 1080.00
43.5459 1054.00
43.6111 1061.00
43.6763 1075.00
43.7415 1055.00
43.8067 1065.00
43.8719 1092.00
43.9371 1127.00
44.0023 1272.00
44.0675 1393.00
44.1327 1403.00
44.1979 1524.00
44.2631 1677.00
44.3283 1632.00
44.3935 1514.00
44.4587 1498.00
44.5239 1435.00
44.5891 1394.00
44.6543 1359.00
44.7195 1381.00
44.7847 1344.00
44.8499 1362.00
44.9151 1326.00
44.9803 1238.00
45.0455 1274.00
45.1107 1171.00
45.1759 1121.00
45.2411 1180.00
45.3063 1264.00
45.3715 1225.00
45.4367 1358.00
45.5019 1316.00
45.5671 1362.00
45.6323 1334.00
45.6975 1279.00
45.7627 1217.00
45.8279 1214.00
45.8931 1197.00
45.9583 1212.00
46.0235 1071.00
46.0887 1161.00
46.1539 1190.00
46.2191 1180.00
46.2843 1373.00
46.3495 1418.00
46.4147 1680.00
46.4799 2027.00
46.5451 1968.00
46.6103 1915.00
46.6755 1886.00
46.7407 1557.00
46.8059 1508.00
46.8711 1268.00
46.9363 1212.00
47.0015 1173.00
47.0667 1101.00
47.1319 1001.00
47.1971 1109.00
47.2623 1026.00
47.3275 1006.00
47.3927 1006.00
47.4579 990.00
47.523 1015.00
47.5882 1017.00
47.6534 948.00
47.7186 1045.00
47.7838 933.00
47.849 964.00
47.9142 1065.00
47.9794 1120.00
48.0446 1265.00
48.1098 1171.00
48.175 1379.00
48.2402 1204.00
48.3054 1189.00
48.3706 1152.00
48.4358 1118.00
48.501 1067.00
48.5662 1129.00
48.6314 1131.00
48.6966 1175.00
48.7618 1165.00
48.827 1277.00
48.8922 1277.00
48.9574 1311.00
49.0226 1239.00
49.0878 1417.00
49.153 1453.00
49.2182 1656.00
49.2834 1776.00
49.3486 1854.00
49.4138 1812.00
49.479 1782.00
49.5442 1702.00
49.6094 1475.00
49.6746 1271.00
49.7398 1217.00
49.805 1141.00
49.8702 1155.00
49.9354 1203.00
50.0006 1359.00
50.0658 1598.00
50.131 1912.00
50.1962 1893.00
50.2614 1882.00
50.3266 1931.00
50.3918 1814.00
50.457 1642.00
50.5222 1738.00
50.5874 1558.00
50.6526 1597.00
50.7178 1502.00
50.783 1508.00
50.8482 1374.00
50.9134 1339.00
50.9786 1395.00
51.0438 1408.00
51.109 1450.00
51.1742 1457.00
51.2394 1410.00
51.3046 1400.00
51.3698 1358.00
51.435 1207.00
51.5002 1219.00
51.5654 1181.00
51.6306 1142.00
51.6958 1018.00
51.761 1060.00
51.8262 1172.00
51.8914 1080.00
51.9566 1127.00
52.0218 1243.00
52.087 1359.00
52.1522 1171.00
52.2174 1142.00
52.2826 1133.00
52.3477 1170.00
52.4129 1029.00
52.4781 1128.00
52.5433 1178.00
52.6085 1244.00
52.6737 1467.00
52.7389 1540.00
52.8041 1646.00
52.8693 1595.00
52.9345 1531.00
52.9997 1442.00
53.0649 1310.00
53.1301 1210.00
53.1953 1077.00
53.2605 1076.00
53.3257 1024.00
53.3909 997.00
53.4561 1052.00
53.5213 1045.00
53.5865 1054.00
53.6517 1049.00
53.7169 1136.00
53.7821 1152.00
53.8473 1243.00
53.9125 1293.00
53.9777 1298.00
54.0429 1274.00
54.1081 1327.00
54.1733 1390.00
54.2385 1187.00
54.3037 1182.00
54.3689 1129.00
54.4341 1066.00
54.4993 1062.00
54.5645 975.00
54.6297 958.00
54.6949 959.00
54.7601 1018.00
54.8253 954.00
54.8905 1025.00
54.9557 986.00
55.0209 1111.00
55.0861 1116.00
55.1513 1201.00
55.2165 1261.00
55.2817 1391.00
55.3469 1436.00
55.4121 1537.00
55.4773 1379.00
55.5425 1470.00
55.6077 1346.00
55.6729 1297.00
55.7381 1149.00
55.8033 1153.00
55.8685 1129.00
55.9337 1168.00
55.9989 1146.00
56.0641 1179.00
56.1293 1188.00
56.1945 1127.00
56.2597 1173.00
56.3249 1023.00
56.3901 1009.00
56.4553 990.00
56.5205 996.00
56.5857 954.00
56.6509 992.00
56.7161 1020.00
56.7813 1039.00
56.8465 1042.00
56.9117 1099.00
56.9769 1131.00
57.042 1202.00
57.1073 1278.00
57.1724 1237.00
57.2376 1284.00
57.3028 1241.00
57.368 1267.00
57.4332 1133.00
57.4984 1159.00
57.5636 1099.00
57.6288 1090.00
57.694 1036.00
57.7592 1054.00
57.8244 1077.00
57.8896 1060.00
57.9548 1145.00
58.02 1109.00
58.0852 1275.00
58.1504 1126.00
58.2156 1186.00
58.2808 1238.00
58.346 1182.00
58.4112 1221.00
58.4764 1118.00
58.5416 1329.00
58.6068 1336.00
58.672 1487.00
58.7372 1566.00
58.8024 1672.00
58.8676 1656.00
58.9328 1594.00
58.998 1433.00
59.0632 1316.00
59.1284 1250.00
59.1936 1166.00
59.2588 1074.00
59.324 1090.00
59.3892 1069.00
59.4544 922.00
59.5196 995.00
59.5848 1047.00
59.65 1088.00
59.7152 1133.00
59.7804 1219.00
59.8456 1308.00
59.9108 1391.00
59.976 1371.00
60.0412 1381.00
60.1064 1356.00
60.1716 1332.00
60.2368 1312.00
60.302 1239.00
60.3672 1282.00
60.4324 1353.00
60.4976 1312.00
60.5628 1351.00
60.628 1369.00
60.6932 1335.00
60.7584 1325.00
60.8236 1330.00
60.8888 1313.00
60.954 1271.00
61.0192 1225.00
61.0844 1228.00
61.1496 1242.00
61.2148 1211.00
61.28 1167.00
61.3452 1193.00
61.4104 1188.00
61.4756 1064.00
61.5408 1036.00
61.606 983.00
61.6712 1049.00
61.7364 996.00
61.8016 1095.00
61.8667 1123.00
61.932 1156.00
61.9971 1174.00
62.0623 1112.00
62.1275 1175.00
62.1927 1195.00
62.2579 1097.00
62.3231 1046.00
62.3883 1057.00
62.4535 1067.00
62.5187 1130.00
62.5839 1153.00
62.6491 1298.00
62.7143 1304.00
62.7795 1312.00
62.8447 1329.00
62.9099 1377.00
62.9751 1278.00
63.0403 1175.00
63.1055 1161.00
63.1707 1044.00
63.2359 921.00
63.3011 953.00
63.3663 948.00
63.4315 891.00
63.4967 818.00
63.5619 891.00
63.6271 849.00
63.6923 844.00
63.7575 890.00
63.8227 972.00
63.8879 866.00
63.9531 933.00
64.0183 983.00
64.0835 1034.00
64.1487 1081.00
64.2139 1123.00
64.2791 1126.00
64.3443 1155.00
64.4095 1003.00
64.4747 987.00
64.5399 936.00
64.6051 906.00
64.6703 905.00
64.7355 850.00
64.8007 875.00
64.8659 939.00
64.9311 857.00
64.9963 884.00
65.0615 828.00
65.1267 858.00
65.1919 917.00
65.2571 889.00
65.3223 979.00
65.3875 1013.00
65.4527 1101.00
65.5179 1230.00
65.5831 1306.00
65.6483 1397.00
65.7135 1441.00
65.7787 1453.00
65.8439 1392.00
65.9091 1324.00
65.9743 1320.00
66.0395 1198.00
66.1047 1146.00
66.1699 1121.00
66.2351 1087.00
66.3003 1049.00
66.3655 1037.00
66.4307 950.00
66.4959 933.00
66.561 963.00
66.6263 901.00
66.6915 944.00
66.7566 877.00
66.8218 829.00
66.887 855.00
66.9522 802.00
67.0174 815.00
67.0826 729.00
67.1478 847.00
67.213 754.00
67.2782 779.00
67.3434 789.00
67.4086 842.00
67.4738 828.00
67.539 896.00
67.6042 901.00
67.6694 885.00
67.7346 974.00
67.7998 922.00
67.865 923.00
67.9302 920.00
67.9954 831.00
68.0606 888.00
68.1258 845.00
68.191 755.00
68.2562 853.00
68.3214 854.00
68.3866 865.00
68.4518 834.00
68.517 815.00
68.5822 833.00
68.6474 826.00
68.7126 782.00
68.7778 851.00
68.843 855.00
68.9082 900.00
68.9734 840.00
69.0386 923.00
69.1038 890.00
69.169 877.00
69.2342 881.00
69.2994 879.00
69.3646 856.00
69.4298 872.00
69.495 830.00
69.5602 809.00
69.6254 833.00
69.6906 797.00
69.7558 821.00
69.821 825.00
69.8862 711.00
69.9514 812.00
70.0166 801.00
70.0818 775.00
70.147 765.00
70.2122 873.00
70.2774 802.00
70.3426 763.00
70.4078 798.00
70.473 775.00
70.5382 810.00
70.6034 780.00
70.6686 835.00
70.7338 902.00
70.799 911.00
70.8642 942.00
70.9294 1059.00
70.9946 1090.00
71.0598 1111.00
71.125 1174.00
71.1902 1179.00
71.2554 1104.00
71.3205 1116.00
71.3858 1057.00
71.451 1037.00
71.5162 1004.00
71.5813 956.00
71.6465 978.00
71.7117 886.00
71.7769 903.00
71.8421 929.00
71.9073 924.00
71.9725 959.00
72.0377 845.00
72.1029 1012.00
72.1681 928.00
72.2333 923.00
72.2985 860.00
72.3637 884.00
72.4289 878.00
72.4941 847.00
72.5593 873.00
72.6245 841.00
72.6897 853.00
72.7549 837.00
72.8201 885.00
72.8853 783.00
72.9505 879.00
73.0157 826.00
73.0809 893.00
73.1461 895.00
73.2113 879.00
73.2765 826.00
73.3417 840.00
73.4069 873.00
73.4721 871.00
73.5373 873.00
73.6025 845.00
73.6677 868.00
73.7329 839.00
73.7981 806.00
73.8633 827.00
73.9285 745.00
73.9937 817.00
74.0589 739.00
74.1241 780.00
74.1893 783.00
74.2545 749.00
74.3197 825.00
74.3849 873.00
74.4501 872.00
74.5153 913.00
74.5805 894.00
74.6457 864.00
74.7109 910.00
74.7761 892.00
74.8413 909.00
74.9065 821.00
74.9717 854.00
75.0369 887.00
75.1021 870.00
75.1673 897.00
75.2325 855.00
75.2977 932.00
75.3629 883.00
75.4281 860.00
75.4933 874.00
75.5585 880.00
75.6237 856.00
75.6889 843.00
75.7541 803.00
75.8193 794.00
75.8845 733.00
75.9497 741.00
76.0149 826.00
76.0801 851.00
76.1452 870.00
76.2104 863.00
76.2756 885.00
76.3409 918.00
76.406 885.00
76.4712 881.00
76.5364 924.00
76.6016 926.00
76.6668 866.00
76.732 815.00
76.7972 875.00
76.8624 851.00
76.9276 812.00
76.9928 790.00
77.058 853.00
77.1232 850.00
77.1884 800.00
77.2536 768.00
77.3188 779.00
77.384 769.00
77.4492 822.00
77.5144 809.00
77.5796 780.00
77.6448 844.00
77.71 815.00
77.7752 743.00
77.8404 829.00
77.9056 818.00
77.9708 787.00
78.036 761.00
78.1012 758.00
78.1664 766.00
78.2316 748.00
78.2968 793.00
78.362 747.00
78.4272 733.00
78.4924 761.00
78.5576 746.00
78.6228 750.00
78.688 771.00
78.7532 810.00
78.8184 819.00
78.8836 897.00
78.9488 832.00
79.014 822.00
79.0792 867.00
79.1444 821.00
79.2096 866.00
79.2748 892.00
79.34 870.00
79.4052 944.00
79.4704 922.00
79.5356 993.00
79.6008 910.00
79.666 871.00
79.7312 917.00
79.7964 938.00
79.8616 883.00
79.9268 873.00
79.992 893.00
80.0572 849.00
80.1224 789.00
80.1876 823.00
80.2528 771.00
80.318 824.00
80.3832 735.00
80.4484 785.00
80.5136 762.00
80.5788 744.00
80.644 764.00
80.7092 705.00
80.7744 661.00
80.8396 750.00
80.9048 719.00
80.9699 817.00
81.0351 839.00
81.1003 792.00
81.1655 752.00
81.2307 804.00
81.2959 897.00
81.3611 913.00
81.4263 870.00
81.4915 909.00
81.5567 898.00
81.6219 842.00
81.6871 896.00
81.7523 837.00
81.8175 849.00
81.8827 760.00
81.9479 772.00
82.0131 801.00
82.0783 823.00
82.1435 852.00
82.2087 795.00
82.2739 849.00
82.3391 773.00
82.4043 851.00
82.4695 839.00
82.5347 919.00
82.5999 840.00
82.6651 830.00
82.7303 877.00
82.7955 884.00
82.8607 821.00
82.9259 840.00
82.9911 845.00
83.0563 832.00
83.1215 904.00
83.1867 857.00
83.2519 854.00
83.3171 842.00
83.3823 818.00
83.4475 899.00
83.5127 850.00
83.5779 820.00
83.6431 799.00
83.7083 887.00
83.7735 878.00
83.8387 849.00
83.9039 822.00
83.9691 809.00
84.0343 839.00
84.0995 823.00
84.1647 805.00
84.2299 852.00
84.2951 807.00
84.3603 792.00
84.4255 884.00
84.4907 810.00
84.5559 737.00
84.6211 805.00
84.6863 796.00
84.7515 761.00
84.8167 799.00
84.8819 776.00
84.9471 735.00
85.0123 776.00
85.0775 687.00
85.1427 737.00
85.2079 735.00
85.2731 734.00
85.3383 770.00
85.4035 775.00
85.4687 730.00
85.5339 680.00
85.5991 786.00
85.6643 713.00
85.7295 740.00
85.7946 780.00
85.8598 770.00
85.925 738.00
85.9903 817.00
86.0554 874.00
86.1206 847.00
86.1858 793.00
86.251 843.00
86.3162 917.00
86.3814 837.00
86.4466 830.00
86.5118 797.00
86.577 842.00
86.6422 761.00
86.7074 844.00
86.7726 807.00
86.8378 796.00
86.903 833.00
86.9682 829.00
87.0334 872.00
87.0986 914.00
87.1638 847.00
87.229 828.00
87.2942 847.00
87.3594 841.00
87.4246 869.00
87.4898 861.00
87.555 775.00
87.6202 833.00
87.6854 842.00
87.7506 842.00
87.8158 913.00
87.881 843.00
87.9462 883.00
88.0114 828.00
88.0766 915.00
88.1418 983.00
88.207 842.00
88.2722 906.00
88.3374 928.00
88.4026 851.00
88.4678 892.00
88.533 911.00
88.5982 870.00
88.6634 819.00
88.7286 818.00
88.7938 821.00
88.859 849.00
88.9242 750.00
88.9894 794.00
89.0546 744.00
89.1198 794.00
89.185 865.00
89.2502 864.00
89.3154 831.00
89.3806 846.00
89.4458 850.00
89.511 836.00
89.5762 914.00
89.6414 812.00
89.7066 794.00
89.7718 852.00
89.837 814.00
89.9022 856.00
89.9674 836.00
90.0326 875.00
90.0978 753.00
90.163 788.00
90.2282 828.00
90.2934 747.00
90.3586 816.00
90.4238 763.00
90.489 771.00
90.5542 700.00
90.6193 780.00
90.6845 742.00
90.7497 793.00
90.8149 770.00
90.8801 784.00
90.9453 857.00
91.0105 792.00
91.0757 792.00
91.1409 798.00
91.2061 800.00
91.2713 751.00
91.3365 741.00
91.4017 812.00
91.4669 750.00
91.5321 824.00
91.5973 762.00
91.6625 859.00
91.7277 687.00
91.7929 730.00
91.8581 677.00
91.9233 683.00
91.9885 716.00
92.0537 702.00
92.1189 691.00
92.1841 730.00
92.2493 739.00
92.3145 735.00
92.3797 726.00
92.4449 777.00
92.5101 716.00
92.5753 705.00
92.6405 760.00
92.7057 766.00
92.7709 714.00
92.8361 786.00
92.9013 757.00
92.9665 771.00
93.0317 782.00
93.0969 794.00
93.1621 794.00
93.2273 720.00
93.2925 776.00
93.3577 787.00
93.4229 791.00
93.4881 767.00
93.5533 734.00
93.6185 693.00
93.6837 706.00
93.7489 755.00
93.8141 793.00
93.8793 764.00
93.9445 815.00
94.0097 778.00
94.0749 826.00
94.1401 802.00
94.2053 816.00
94.2705 797.00
94.3357 797.00
94.4009 754.00
94.4661 806.00
94.5313 780.00
94.5965 832.00
94.6617 791.00
94.7269 765.00
94.7921 784.00
94.8573 701.00
94.9225 794.00
94.9877 764.00
95.0529 694.00
95.1181 771.00
95.1833 800.00
95.2485 819.00
95.3137 812.00
95.3789 766.00
95.444 759.00
95.5092 807.00
95.5744 777.00
95.6396 749.00
95.7048 797.00
95.77 740.00
95.8352 776.00
95.9004 794.00
95.9656 796.00
96.0308 786.00
96.096 773.00
96.1612 769.00
96.2264 793.00
96.2916 817.00
96.3568 799.00
96.422 839.00
96.4872 824.00
96.5524 820.00
96.6176 849.00
96.6828 854.00
96.748 884.00
96.8132 914.00
96.8784 879.00
96.9436 810.00
97.0088 843.00
97.074 758.00
97.1392 799.00
97.2044 747.00
97.2696 760.00
97.3348 709.00
97.4 750.00
97.4652 708.00
97.5304 701.00
97.5956 703.00
97.6608 692.00
97.726 694.00
97.7912 713.00
97.8564 716.00
97.9216 728.00
97.9868 715.00
98.052 744.00
98.1172 748.00
98.1824 773.00
98.2476 786.00
98.3128 771.00
98.378 785.00
98.4432 725.00
98.5084 823.00
98.5736 772.00
98.6388 817.00
98.704 769.00
98.7692 809.00
98.8344 821.00
98.8996 849.00
98.9648 961.00
99.03 938.00
99.0952 924.00
99.1604 916.00
99.2256 981.00
99.2908 933.00
99.356 929.00
99.4212 883.00
99.4864 958.00
99.5516 837.00
99.6168 863.00
99.682 813.00
99.7472 801.00
99.8124 823.00
99.8776 772.00
99.9428 796.00
100.008 774.00
100.073 778.00
100.095 798.00