File: data/xrd_creation/results/NSC_186.xy
9.903433 2719.00
9.968632 2705.00
10.0338 2645.00
10.099 2625.00
10.1642 2627.00
10.2294 2583.00
10.2946 2562.00
10.3598 2484.00
10.425 2388.00
10.4902 2437.00
10.5554 2436.00
10.6206 2432.00
10.6858 2366.00
10.751 2462.00
10.8162 2377.00
10.8814 2231.00
10.9466 2345.00
11.0118 2303.00
11.077 2270.00
11.1422 2282.00
11.2074 2285.00
11.2726 2229.00
11.3378 2220.00
11.403 2209.00
11.4682 2271.00
11.5334 2146.00
11.5986 2082.00
11.6638 2157.00
11.729 2071.00
11.7942 2147.00
11.8594 2040.00
11.9246 2073.00
11.9898 2050.00
12.055 2057.00
12.1202 1936.00
12.1854 1908.00
12.2506 1989.00
12.3158 2007.00
12.381 2044.00
12.4462 2022.00
12.5114 1890.00
12.5766 1929.00
12.6418 1937.00
12.707 2011.00
12.7722 1878.00
12.8374 1856.00
12.9026 1778.00
12.9678 1884.00
13.033 1828.00
13.0982 1860.00
13.1634 1821.00
13.2286 1788.00
13.2938 1833.00
13.359 1770.00
13.4242 1706.00
13.4894 1824.00
13.5546 1757.00
13.6198 1798.00
13.685 1726.00
13.7502 1650.00
13.8154 1743.00
13.8805 1735.00
13.9457 1625.00
14.0109 1646.00
14.0761 1707.00
14.1413 1615.00
14.2065 1712.00
14.2717 1624.00
14.3369 1622.00
14.4021 1669.00
14.4673 1649.00
14.5325 1716.00
14.5977 1573.00
14.6629 1650.00
14.7281 1596.00
14.7933 1681.00
14.8585 1631.00
14.9237 1585.00
14.9889 1542.00
15.0541 1502.00
15.1193 1536.00
15.1845 1584.00
15.2497 1561.00
15.3149 1545.00
15.3801 1575.00
15.4453 1543.00
15.5105 1484.00
15.5757 1527.00
15.6409 1534.00
15.7061 1498.00
15.7713 1504.00
15.8365 1485.00
15.9017 1512.00
15.9669 1501.00
16.0321 1536.00
16.0973 1560.00
16.1625 1535.00
16.2277 1564.00
16.2929 1584.00
16.3581 1613.00
16.4233 1704.00
16.4885 1679.00
16.5537 1847.00
16.6189 1934.00
16.6841 2395.00
16.7493 2780.00
16.8145 3342.00
16.8797 3648.00
16.9449 3686.00
17.0101 3471.00
17.0753 3477.00
17.1405 3227.00
17.2057 2408.00
17.2709 1814.00
17.3361 1632.00
17.4013 1558.00
17.4665 1665.00
17.5317 1594.00
17.5969 1470.00
17.6621 1528.00
17.7273 1456.00
17.7925 1436.00
17.8577 1400.00
17.9229 1398.00
17.9881 1356.00
18.0533 1397.00
18.1185 1348.00
18.1837 1392.00
18.2489 1385.00
18.3141 1455.00
18.3793 1375.00
18.4445 1340.00
18.5097 1376.00
18.5749 1344.00
18.6401 1394.00
18.7052 1386.00
18.7704 1333.00
18.8356 1310.00
18.9008 1365.00
18.966 1299.00
19.0312 1309.00
19.0964 1311.00
19.1616 1319.00
19.2268 1362.00
19.292 1329.00
19.3572 1238.00
19.4224 1261.00
19.4876 1326.00
19.5528 1262.00
19.618 1246.00
19.6832 1350.00
19.7484 1281.00
19.8136 1320.00
19.8788 1307.00
19.944 1343.00
20.0092 1363.00
20.0744 1357.00
20.1396 1403.00
20.2048 1488.00
20.27 1684.00
20.3352 1678.00
20.4004 2048.00
20.4656 2589.00
20.5308 3852.00
20.596 6174.00
20.6612 9346.00
20.7264 12389.00
20.7916 14403.00
20.8568 14758.00
20.922 14444.00
20.9872 14514.00
21.0524 11664.00
21.1176 5466.00
21.1828 2495.00
21.248 1781.00
21.3132 1629.00
21.3784 1485.00
21.4436 1412.00
21.5088 1352.00
21.574 1241.00
21.6392 1286.00
21.7044 1316.00
21.7696 1316.00
21.8348 1287.00
21.9 1207.00
21.9652 1308.00
22.0304 1262.00
22.0956 1207.00
22.1608 1214.00
22.226 1238.00
22.2912 1225.00
22.3564 1249.00
22.4216 1142.00
22.4868 1161.00
22.552 1211.00
22.6172 1177.00
22.6824 1177.00
22.7476 1213.00
22.8128 1227.00
22.878 1219.00
22.9432 1146.00
23.0084 1190.00
23.0736 1180.00
23.1388 1244.00
23.204 1129.00
23.2692 1150.00
23.3344 1167.00
23.3996 1123.00
23.4647 1122.00
23.5299 1179.00
23.5951 1159.00
23.6603 1166.00
23.7255 1113.00
23.7907 1211.00
23.8559 1143.00
23.9211 1143.00
23.9863 1143.00
24.0515 1164.00
24.1167 1149.00
24.1819 1115.00
24.2471 1112.00
24.3123 1174.00
24.3775 1142.00
24.4427 1169.00
24.5079 1119.00
24.5731 1134.00
24.6383 1166.00
24.7035 1233.00
24.7687 1415.00
24.8339 1673.00
24.8991 2051.00
24.9643 2648.00
25.0295 3055.00
25.0947 3172.00
25.1599 3370.00
25.2251 3452.00
25.2903 3088.00
25.3555 2079.00
25.4207 1397.00
25.4859 1225.00
25.5511 1161.00
25.6163 1203.00
25.6815 1107.00
25.7467 1151.00
25.8119 1138.00
25.8771 1180.00
25.9423 1196.00
26.0075 1142.00
26.0727 1234.00
26.1379 1187.00
26.2031 1241.00
26.2683 1247.00
26.3335 1208.00
26.3987 1254.00
26.4639 1283.00
26.5291 1260.00
26.5943 1334.00
26.6595 1383.00
26.7247 1339.00
26.7899 1408.00
26.8551 1309.00
26.9203 1295.00
26.9855 1305.00
27.0507 1308.00
27.1159 1294.00
27.1811 1134.00
27.2463 1163.00
27.3115 1069.00
27.3767 1088.00
27.4419 1104.00
27.5071 1063.00
27.5723 1028.00
27.6375 968.00
27.7027 1023.00
27.7679 1019.00
27.8331 1013.00
27.8983 1014.00
27.9635 930.00
28.0287 972.00
28.0939 980.00
28.1591 962.00
28.2243 972.00
28.2894 989.00
28.3546 1032.00
28.4198 1001.00
28.485 999.00
28.5502 1026.00
28.6154 1022.00
28.6806 1080.00
28.7458 1074.00
28.811 1098.00
28.8762 1098.00
28.9414 1165.00
29.0066 1181.00
29.0718 1331.00
29.137 1624.00
29.2022 2439.00
29.2674 3779.00
29.3326 5623.00
29.3978 7326.00
29.463 8440.00
29.5282 9057.00
29.5934 9449.00
29.6586 8284.00
29.7238 5300.00
29.789 2756.00
29.8542 1680.00
29.9194 1285.00
29.9846 1205.00
30.0498 1112.00
30.115 1086.00
30.1802 998.00
30.2454 1035.00
30.3106 978.00
30.3758 963.00
30.441 955.00
30.5062 940.00
30.5714 912.00
30.6366 932.00
30.7018 915.00
30.767 982.00
30.8322 956.00
30.8974 1064.00
30.9626 1006.00
31.0278 967.00
31.093 939.00
31.1582 923.00
31.2234 923.00
31.2886 901.00
31.3538 915.00
31.419 956.00
31.4842 898.00
31.5494 907.00
31.6146 928.00
31.6798 955.00
31.745 922.00
31.8102 910.00
31.8754 913.00
31.9406 894.00
32.0058 895.00
32.071 916.00
32.1362 866.00
32.2014 887.00
32.2666 886.00
32.3318 869.00
32.397 933.00
32.4622 862.00
32.5274 942.00
32.5926 886.00
32.6578 897.00
32.723 876.00
32.7882 911.00
32.8534 972.00
32.9186 943.00
32.9838 983.00
33.0489 956.00
33.1141 982.00
33.1793 1091.00
33.2445 1112.00
33.3097 1101.00
33.3749 1108.00
33.4401 1173.00
33.5053 1176.00
33.5705 1130.00
33.6357 1237.00
33.7009 1404.00
33.7661 1466.00
33.8313 1633.00
33.8965 2036.00
33.9617 3173.00
34.0269 5246.00
34.0921 8805.00
34.1573 13670.00
34.2225 18398.00
34.2877 22827.00
34.3529 25150.00
34.4181 25695.00
34.4833 20573.00
34.5485 12415.00
34.6137 6053.00
34.6789 3546.00
34.7441 3246.00
34.8093 3651.00
34.8745 4398.00
34.9397 5177.00
35.0049 5811.00
35.0701 5998.00
35.1353 5327.00
35.2005 3702.00
35.2657 2210.00
35.3309 1533.00
35.3961 1301.00
35.4613 1308.00
35.5265 1296.00
35.5917 1381.00
35.6569 1595.00
35.7221 1923.00
35.7873 2236.00
35.8525 2672.00
35.9177 2981.00
35.9829 3159.00
36.0481 3111.00
36.1133 2869.00
36.1785 2341.00
36.2437 1934.00
36.3089 1502.00
36.3741 1346.00
36.4393 1288.00
36.5045 1321.00
36.5697 1230.00
36.6349 1205.00
36.7001 1222.00
36.7653 1179.00
36.8305 1163.00
36.8957 1171.00
36.9609 1382.00
37.0261 1728.00
37.0913 2382.00
37.1565 3133.00
37.2217 4056.00
37.2869 4780.00
37.3521 5264.00
37.4173 5513.00
37.4825 4883.00
37.5477 3516.00
37.6129 2153.00
37.6781 1356.00
37.7433 1078.00
37.8085 1006.00
37.8736 939.00
37.9388 912.00
38.004 924.00
38.0692 941.00
38.1344 961.00
38.1996 878.00
38.2648 1001.00
38.33 946.00
38.3952 940.00
38.4604 950.00
38.5256 948.00
38.5908 929.00
38.656 906.00
38.7212 871.00
38.7864 891.00
38.8516 964.00
38.9168 1013.00
38.982 1140.00
39.0472 1226.00
39.1124 1257.00
39.1776 1262.00
39.2428 1142.00
39.308 987.00
39.3732 954.00
39.4384 809.00
39.5036 736.00
39.5688 805.00
39.634 798.00
39.6992 863.00
39.7644 782.00
39.8296 828.00
39.8948 802.00
39.96 815.00
40.0252 916.00
40.0904 959.00
40.1556 1029.00
40.2208 1345.00
40.286 1720.00
40.3512 2169.00
40.4164 2596.00
40.4816 2818.00
40.5468 2864.00
40.612 2588.00
40.6772 1898.00
40.7424 1360.00
40.8076 1053.00
40.8728 931.00
40.938 829.00
41.0032 768.00
41.0684 859.00
41.1336 797.00
41.1988 818.00
41.264 823.00
41.3292 798.00
41.3944 824.00
41.4596 758.00
41.5248 725.00
41.59 689.00
41.6552 734.00
41.7204 775.00
41.7856 751.00
41.8508 724.00
41.916 776.00
41.9812 697.00
42.0464 735.00
42.1116 776.00
42.1768 769.00
42.242 816.00
42.3072 811.00
42.3724 893.00
42.4376 865.00
42.5028 789.00
42.568 781.00
42.6332 711.00
42.6983 751.00
42.7635 719.00
42.8287 724.00
42.8939 706.00
42.9591 725.00
43.0243 712.00
43.0895 713.00
43.1547 720.00
43.2199 716.00
43.2851 756.00
43.3503 736.00
43.4155 792.00
43.4807 746.00
43.5459 730.00
43.6111 754.00
43.6763 780.00
43.7415 815.00
43.8067 742.00
43.8719 767.00
43.9371 712.00
44.0023 731.00
44.0675 760.00
44.1327 711.00
44.1979 738.00
44.2631 712.00
44.3283 733.00
44.3935 749.00
44.4587 679.00
44.5239 668.00
44.5891 680.00
44.6543 737.00
44.7195 634.00
44.7847 652.00
44.8499 657.00
44.9151 676.00
44.9803 714.00
45.0455 686.00
45.1107 680.00
45.1759 620.00
45.2411 602.00
45.3063 711.00
45.3715 735.00
45.4367 792.00
45.5019 938.00
45.5671 1127.00
45.6323 1269.00
45.6975 1351.00
45.7627 1431.00
45.8279 1421.00
45.8931 1246.00
45.9583 1091.00
46.0235 930.00
46.0887 902.00
46.1539 831.00
46.2191 773.00
46.2843 699.00
46.3495 685.00
46.4147 661.00
46.4799 699.00
46.5451 684.00
46.6103 678.00
46.6755 709.00
46.7407 689.00
46.8059 714.00
46.8711 712.00
46.9363 764.00
47.0015 802.00
47.0667 776.00
47.1319 746.00
47.1971 751.00
47.2623 766.00
47.3275 762.00
47.3927 740.00
47.4579 729.00
47.523 735.00
47.5882 791.00
47.6534 770.00
47.7186 770.00
47.7838 776.00
47.849 830.00
47.9142 1047.00
47.9794 1320.00
48.0446 1828.00
48.1098 2352.00
48.175 2982.00
48.2402 3221.00
48.3054 3309.00
48.3706 3077.00
48.4358 2130.00
48.501 1629.00
48.5662 1068.00
48.6314 881.00
48.6966 795.00
48.7618 812.00
48.827 864.00
48.8922 1032.00
48.9574 1254.00
49.0226 1843.00
49.0878 2647.00
49.153 3221.00
49.2182 4104.00
49.2834 4547.00
49.3486 4685.00
49.4138 4168.00
49.479 3453.00
49.5442 2684.00
49.6094 2313.00
49.6746 2108.00
49.7398 1885.00
49.805 1618.00
49.8702 1295.00
49.9354 1036.00
50.0006 858.00
50.0658 758.00
50.131 651.00
50.1962 718.00
50.2614 746.00
50.3266 708.00
50.3918 700.00
50.457 721.00
50.5222 781.00
50.5874 814.00
50.6526 833.00
50.7178 825.00
50.783 815.00
50.8482 841.00
50.9134 781.00
50.9786 757.00
51.0438 739.00
51.109 748.00
51.1742 790.00
51.2394 801.00
51.3046 908.00
51.3698 938.00
51.435 977.00
51.5002 1109.00
51.5654 1009.00
51.6306 847.00
51.6958 887.00
51.761 868.00
51.8262 893.00
51.8914 1025.00
51.9566 1379.00
52.0218 1857.00
52.087 2631.00
52.1522 3228.00
52.2174 3855.00
52.2826 4168.00
52.3477 3820.00
52.4129 3142.00
52.4781 2315.00
52.5433 1740.00
52.6085 1353.00
52.6737 1062.00
52.7389 883.00
52.8041 883.00
52.8693 822.00
52.9345 743.00
52.9997 759.00
53.0649 760.00
53.1301 732.00
53.1953 719.00
53.2605 717.00
53.3257 719.00
53.3909 739.00
53.4561 727.00
53.5213 775.00
53.5865 845.00
53.6517 934.00
53.7169 1078.00
53.7821 1385.00
53.8473 1700.00
53.9125 1983.00
53.9777 2252.00
54.0429 2540.00
54.1081 2407.00
54.1733 2066.00
54.2385 1589.00
54.3037 1244.00
54.3689 964.00
54.4341 803.00
54.4993 833.00
54.5645 688.00
54.6297 754.00
54.6949 679.00
54.7601 692.00
54.8253 671.00
54.8905 691.00
54.9557 645.00
55.0209 702.00
55.0861 661.00
55.1513 688.00
55.2165 694.00
55.2817 629.00
55.3469 686.00
55.4121 706.00
55.4773 722.00
55.5425 693.00
55.6077 702.00
55.6729 802.00
55.7381 762.00
55.8033 790.00
55.8685 834.00
55.9337 867.00
55.9989 784.00
56.0641 780.00
56.1293 789.00
56.1945 742.00
56.2597 701.00
56.3249 760.00
56.3901 744.00
56.4553 749.00
56.5205 756.00
56.5857 758.00
56.6509 806.00
56.7161 763.00
56.7813 811.00
56.8465 785.00
56.9117 749.00
56.9769 800.00
57.042 775.00
57.1073 700.00
57.1724 714.00
57.2376 636.00
57.3028 742.00
57.368 688.00
57.4332 646.00
57.4984 620.00
57.5636 671.00
57.6288 652.00
57.694 665.00
57.7592 678.00
57.8244 676.00
57.8896 685.00
57.9548 650.00
58.02 662.00
58.0852 684.00
58.1504 678.00
58.2156 668.00
58.2808 701.00
58.346 694.00
58.4112 704.00
58.4764 706.00
58.5416 744.00
58.6068 742.00
58.672 783.00
58.7372 746.00
58.8024 736.00
58.8676 710.00
58.9328 694.00
58.998 714.00
59.0632 698.00
59.1284 723.00
59.1936 645.00
59.2588 714.00
59.324 718.00
59.3892 716.00
59.4544 736.00
59.5196 729.00
59.5848 694.00
59.65 701.00
59.7152 716.00
59.7804 719.00
59.8456 717.00
59.9108 751.00
59.976 862.00
60.0412 891.00
60.1064 935.00
60.1716 1047.00
60.2368 1156.00
60.302 1248.00
60.3672 1228.00
60.4324 1223.00
60.4976 1113.00
60.5628 1021.00
60.628 1026.00
60.6932 988.00
60.7584 875.00
60.8236 1094.00
60.8888 1207.00
60.954 1452.00
61.0192 2058.00
61.0844 3070.00
61.1496 4398.00
61.2148 5994.00
61.28 7507.00
61.3452 8661.00
61.4104 8884.00
61.4756 7599.00
61.5408 5797.00
61.606 4538.00
61.6712 3130.00
61.7364 2128.00
61.8016 1566.00
61.8667 1202.00
61.932 1021.00
61.9971 942.00
62.0623 929.00
62.1275 871.00
62.1927 835.00
62.2579 835.00
62.3231 833.00
62.3883 796.00
62.4535 833.00
62.5187 842.00
62.5839 849.00
62.6491 824.00
62.7143 818.00
62.7795 773.00
62.8447 757.00
62.9099 744.00
62.9751 691.00
63.0403 726.00
63.1055 768.00
63.1707 722.00
63.2359 700.00
63.3011 658.00
63.3663 697.00
63.4315 694.00
63.4967 677.00
63.5619 694.00
63.6271 704.00
63.6923 737.00
63.7575 673.00
63.8227 791.00
63.8879 852.00
63.9531 809.00
64.0183 933.00
64.0835 924.00
64.1487 1105.00
64.2139 1299.00
64.2791 1519.00
64.3443 1728.00
64.4095 1744.00
64.4747 1668.00
64.5399 1452.00
64.6051 1276.00
64.6703 1023.00
64.7355 891.00
64.8007 790.00
64.8659 784.00
64.9311 675.00
64.9963 797.00
65.0615 779.00
65.1267 843.00
65.1919 992.00
65.2571 1285.00
65.3223 1549.00
65.3875 1980.00
65.4527 2506.00
65.5179 2899.00
65.5831 3378.00
65.6483 3475.00
65.7135 3850.00
65.7787 4003.00
65.8439 4097.00
65.9091 3745.00
65.9743 3457.00
66.0395 2672.00
66.1047 2042.00
66.1699 1571.00
66.2351 1180.00
66.3003 856.00
66.3655 747.00
66.4307 669.00
66.4959 633.00
66.561 629.00
66.6263 652.00
66.6915 611.00
66.7566 610.00
66.8218 665.00
66.887 685.00
66.9522 713.00
67.0174 804.00
67.0826 749.00
67.1478 727.00
67.213 724.00
67.2782 696.00
67.3434 657.00
67.4086 693.00
67.4738 709.00
67.539 677.00
67.6042 654.00
67.6694 666.00
67.7346 649.00
67.7998 652.00
67.865 664.00
67.9302 674.00
67.9954 709.00
68.0606 732.00
68.1258 717.00
68.191 731.00
68.2562 706.00
68.3214 812.00
68.3866 762.00
68.4518 728.00
68.517 736.00
68.5822 678.00
68.6474 618.00
68.7126 625.00
68.7778 632.00
68.843 519.00
68.9082 546.00
68.9734 521.00
69.0386 553.00
69.1038 550.00
69.169 540.00
69.2342 553.00
69.2994 582.00
69.3646 520.00
69.4298 565.00
69.495 577.00
69.5602 585.00
69.6254 564.00
69.6906 554.00
69.7558 546.00
69.821 540.00
69.8862 550.00
69.9514 585.00
70.0166 572.00
70.0818 503.00
70.147 529.00
70.2122 529.00
70.2774 533.00
70.3426 542.00
70.4078 564.00
70.473 524.00
70.5382 555.00
70.6034 493.00
70.6686 561.00
70.7338 550.00
70.799 541.00
70.8642 533.00
70.9294 560.00
70.9946 548.00
71.0598 524.00
71.125 561.00
71.1902 539.00
71.2554 506.00
71.3205 550.00
71.3858 585.00
71.451 537.00
71.5162 594.00
71.5813 652.00
71.6465 704.00
71.7117 738.00
71.7769 816.00
71.8421 972.00
71.9073 1174.00
71.9725 1435.00
72.0377 1604.00
72.1029 1897.00
72.1681 1978.00
72.2333 1893.00
72.2985 1709.00
72.3637 1433.00
72.4289 1227.00
72.4941 1048.00
72.5593 877.00
72.6245 724.00
72.6897 667.00
72.7549 709.00
72.8201 641.00
72.8853 628.00
72.9505 626.00
73.0157 653.00
73.0809 654.00
73.1461 685.00
73.2113 601.00
73.2765 626.00
73.3417 678.00
73.4069 637.00
73.4721 678.00
73.5373 723.00
73.6025 778.00
73.6677 800.00
73.7329 791.00
73.7981 782.00
73.8633 776.00
73.9285 704.00
73.9937 648.00
74.0589 640.00
74.1241 585.00
74.1893 546.00
74.2545 500.00
74.3197 548.00
74.3849 533.00
74.4501 580.00
74.5153 536.00
74.5805 559.00
74.6457 552.00
74.7109 605.00
74.7761 623.00
74.8413 651.00
74.9065 658.00
74.9717 592.00
75.0369 590.00
75.1021 593.00
75.1673 533.00
75.2325 563.00
75.2977 535.00
75.3629 582.00
75.4281 546.00
75.4933 530.00
75.5585 587.00
75.6237 682.00
75.6889 700.00
75.7541 804.00
75.8193 1059.00
75.8845 1209.00
75.9497 1271.00
76.0149 1498.00
76.0801 1440.00
76.1452 1399.00
76.2104 1326.00
76.2756 1150.00
76.3409 950.00
76.406 902.00
76.4712 730.00
76.5364 660.00
76.6016 584.00
76.6668 598.00
76.732 551.00
76.7972 491.00
76.8624 475.00
76.9276 471.00
76.9928 542.00
77.058 512.00
77.1232 520.00
77.1884 514.00
77.2536 498.00
77.3188 460.00
77.384 497.00
77.4492 512.00
77.5144 474.00
77.5796 495.00
77.6448 520.00
77.71 511.00
77.7752 545.00
77.8404 461.00
77.9056 527.00
77.9708 520.00
78.036 490.00
78.1012 519.00
78.1664 522.00
78.2316 490.00
78.2968 552.00
78.362 514.00
78.4272 486.00
78.4924 507.00
78.5576 480.00
78.6228 515.00
78.688 461.00
78.7532 557.00
78.8184 523.00
78.8836 436.00
78.9488 498.00
79.014 532.00
79.0792 458.00
79.1444 500.00
79.2096 577.00
79.2748 630.00
79.34 609.00
79.4052 632.00
79.4704 623.00
79.5356 648.00
79.6008 608.00
79.666 604.00
79.7312 553.00
79.7964 582.00
79.8616 510.00
79.9268 505.00
79.992 530.00
80.0572 519.00
80.1224 514.00
80.1876 522.00
80.2528 516.00
80.318 498.00
80.3832 478.00
80.4484 506.00
80.5136 549.00
80.5788 542.00
80.644 461.00
80.7092 504.00
80.7744 489.00
80.8396 497.00
80.9048 504.00
80.9699 558.00
81.0351 581.00
81.1003 569.00
81.1655 554.00
81.2307 570.00
81.2959 578.00
81.3611 557.00
81.4263 576.00
81.4915 545.00
81.5567 536.00
81.6219 535.00
81.6871 594.00
81.7523 614.00
81.8175 698.00
81.8827 710.00
81.9479 846.00
82.0131 988.00
82.0783 1296.00
82.1435 1573.00
82.2087 1807.00
82.2739 2049.00
82.3391 2155.00
82.4043 1986.00
82.4695 1848.00
82.5347 1676.00
82.5999 1466.00
82.6651 1272.00
82.7303 983.00
82.7955 815.00
82.8607 715.00
82.9259 638.00
82.9911 621.00
83.0563 550.00
83.1215 552.00
83.1867 533.00
83.2519 501.00
83.3171 516.00
83.3823 539.00
83.4475 519.00
83.5127 487.00
83.5779 517.00
83.6431 540.00
83.7083 527.00
83.7735 578.00
83.8387 593.00
83.9039 559.00
83.9691 574.00
84.0343 538.00
84.0995 587.00
84.1647 602.00
84.2299 584.00
84.2951 623.00
84.3603 681.00
84.4255 620.00
84.4907 648.00
84.5559 631.00
84.6211 617.00
84.6863 528.00
84.7515 524.00
84.8167 589.00
84.8819 513.00
84.9471 513.00
85.0123 540.00
85.0775 476.00
85.1427 478.00
85.2079 560.00
85.2731 443.00
85.3383 492.00
85.4035 527.00
85.4687 494.00
85.5339 485.00
85.5991 476.00
85.6643 519.00
85.7295 534.00
85.7946 561.00
85.8598 605.00
85.925 639.00
85.9903 630.00
86.0554 651.00
86.1206 672.00
86.1858 646.00
86.251 660.00
86.3162 639.00
86.3814 584.00
86.4466 590.00
86.5118 570.00
86.577 632.00
86.6422 621.00
86.7074 619.00
86.7726 646.00
86.8378 707.00
86.903 772.00
86.9682 868.00
87.0334 945.00
87.0986 1102.00
87.1638 1290.00
87.229 1466.00
87.2942 1484.00
87.3594 1434.00
87.4246 1364.00
87.4898 1252.00
87.555 1190.00
87.6202 973.00
87.6854 921.00
87.7506 808.00
87.8158 687.00
87.881 643.00
87.9462 638.00
88.0114 608.00
88.0766 618.00
88.1418 608.00
88.207 647.00
88.2722 629.00
88.3374 701.00
88.4026 804.00
88.4678 823.00
88.533 871.00
88.5982 874.00
88.6634 877.00
88.7286 797.00
88.7938 731.00
88.859 691.00
88.9242 681.00
88.9894 656.00
89.0546 579.00
89.1198 588.00
89.185 554.00
89.2502 551.00
89.3154 493.00
89.3806 544.00
89.4458 581.00
89.511 490.00
89.5762 539.00
89.6414 513.00
89.7066 462.00
89.7718 451.00
89.837 496.00
89.9022 489.00
89.9674 453.00
90.0326 446.00
90.0978 474.00
90.163 431.00
90.2282 464.00
90.2934 449.00
90.3586 443.00
90.4238 481.00
90.489 476.00
90.5542 443.00
90.6193 465.00
90.6845 473.00
90.7497 465.00
90.8149 532.00
90.8801 567.00
90.9453 542.00
91.0105 625.00
91.0757 629.00
91.1409 585.00
91.2061 567.00
91.2713 562.00
91.3365 529.00
91.4017 479.00
91.4669 490.00
91.5321 477.00
91.5973 479.00
91.6625 449.00
91.7277 466.00
91.7929 490.00
91.8581 516.00
91.9233 546.00
91.9885 547.00
92.0537 673.00
92.1189 760.00
92.1841 780.00
92.2493 790.00
92.3145 711.00
92.3797 723.00
92.4449 682.00
92.5101 676.00
92.5753 678.00
92.6405 600.00
92.7057 557.00
92.7709 556.00
92.8361 506.00
92.9013 476.00
92.9665 519.00
93.0317 494.00
93.0969 513.00
93.1621 489.00
93.2273 499.00
93.2925 471.00
93.3577 482.00
93.4229 470.00
93.4881 444.00
93.5533 463.00
93.6185 472.00
93.6837 474.00
93.7489 453.00
93.8141 450.00
93.8793 467.00
93.9445 480.00
94.0097 440.00
94.0749 446.00
94.1401 462.00
94.2053 474.00
94.2705 412.00
94.3357 444.00
94.4009 393.00
94.4661 453.00
94.5313 442.00
94.5965 466.00
94.6617 427.00
94.7269 474.00
94.7921 450.00
94.8573 456.00
94.9225 470.00
94.9877 441.00
95.0529 456.00
95.1181 430.00
95.1833 455.00
95.2485 460.00
95.3137 490.00
95.3789 471.00
95.444 522.00
95.5092 497.00
95.5744 540.00
95.6396 552.00
95.7048 584.00
95.77 675.00
95.8352 718.00
95.9004 836.00
95.9656 865.00
96.0308 891.00
96.096 857.00
96.1612 807.00
96.2264 826.00
96.2916 744.00
96.3568 632.00
96.422 702.00
96.4872 629.00
96.5524 603.00
96.6176 596.00
96.6828 601.00
96.748 544.00
96.8132 559.00
96.8784 508.00
96.9436 511.00
97.0088 520.00
97.074 530.00
97.1392 442.00
97.2044 464.00
97.2696 520.00
97.3348 511.00
97.4 441.00
97.4652 470.00
97.5304 494.00
97.5956 512.00
97.6608 478.00
97.726 470.00
97.7912 486.00
97.8564 446.00
97.9216 467.00
97.9868 486.00
98.052 488.00
98.1172 502.00
98.1824 469.00
98.2476 478.00
98.3128 464.00
98.378 466.00
98.4432 508.00
98.5084 525.00
98.5736 476.00
98.6388 505.00
98.704 536.00
98.7692 493.00
98.8344 497.00
98.8996 571.00
98.9648 526.00
99.03 597.00
99.0952 633.00
99.1604 534.00
99.2256 544.00
99.2908 550.00
99.356 558.00
99.4212 562.00
99.4864 532.00
99.5516 504.00
99.6168 468.00
99.682 502.00
99.7472 495.00
99.8124 485.00
99.8776 446.00
99.9428 512.00
100.008 532.00
100.073 471.00
100.095 471.00