File: data/xrd_creation/results/NSC_165.xy
9.903433 2574.00
9.968632 2473.00
10.0338 2491.00
10.099 2398.00
10.1642 2481.00
10.2294 2342.00
10.2946 2302.00
10.3598 2349.00
10.425 2344.00
10.4902 2248.00
10.5554 2216.00
10.6206 2212.00
10.6858 2190.00
10.751 2154.00
10.8162 2236.00
10.8814 2196.00
10.9466 2092.00
11.0118 2153.00
11.077 2177.00
11.1422 2136.00
11.2074 2091.00
11.2726 2070.00
11.3378 1986.00
11.403 2005.00
11.4682 1985.00
11.5334 2028.00
11.5986 1960.00
11.6638 1935.00
11.729 1921.00
11.7942 1941.00
11.8594 1933.00
11.9246 1836.00
11.9898 1789.00
12.055 1823.00
12.1202 1758.00
12.1854 1775.00
12.2506 1782.00
12.3158 1700.00
12.381 1837.00
12.4462 1765.00
12.5114 1788.00
12.5766 1687.00
12.6418 1653.00
12.707 1658.00
12.7722 1710.00
12.8374 1669.00
12.9026 1650.00
12.9678 1537.00
13.033 1620.00
13.0982 1590.00
13.1634 1544.00
13.2286 1588.00
13.2938 1485.00
13.359 1514.00
13.4242 1556.00
13.4894 1546.00
13.5546 1534.00
13.6198 1500.00
13.685 1543.00
13.7502 1432.00
13.8154 1432.00
13.8805 1427.00
13.9457 1513.00
14.0109 1436.00
14.0761 1444.00
14.1413 1423.00
14.2065 1422.00
14.2717 1351.00
14.3369 1324.00
14.4021 1361.00
14.4673 1385.00
14.5325 1386.00
14.5977 1328.00
14.6629 1290.00
14.7281 1344.00
14.7933 1311.00
14.8585 1368.00
14.9237 1320.00
14.9889 1312.00
15.0541 1304.00
15.1193 1324.00
15.1845 1419.00
15.2497 1278.00
15.3149 1319.00
15.3801 1264.00
15.4453 1298.00
15.5105 1282.00
15.5757 1290.00
15.6409 1273.00
15.7061 1281.00
15.7713 1306.00
15.8365 1288.00
15.9017 1264.00
15.9669 1204.00
16.0321 1271.00
16.0973 1335.00
16.1625 1256.00
16.2277 1221.00
16.2929 1200.00
16.3581 1170.00
16.4233 1170.00
16.4885 1173.00
16.5537 1215.00
16.6189 1197.00
16.6841 1160.00
16.7493 1150.00
16.8145 1222.00
16.8797 1196.00
16.9449 1189.00
17.0101 1114.00
17.0753 1087.00
17.1405 1172.00
17.2057 1188.00
17.2709 1152.00
17.3361 1134.00
17.4013 1099.00
17.4665 1153.00
17.5317 1099.00
17.5969 1133.00
17.6621 1113.00
17.7273 1103.00
17.7925 1122.00
17.8577 1108.00
17.9229 1081.00
17.9881 1133.00
18.0533 1085.00
18.1185 1109.00
18.1837 1067.00
18.2489 1001.00
18.3141 1045.00
18.3793 1065.00
18.4445 1061.00
18.5097 1058.00
18.5749 957.00
18.6401 1034.00
18.7052 1007.00
18.7704 1011.00
18.8356 1039.00
18.9008 1045.00
18.966 912.00
19.0312 1017.00
19.0964 953.00
19.1616 960.00
19.2268 957.00
19.292 978.00
19.3572 1028.00
19.4224 956.00
19.4876 939.00
19.5528 907.00
19.618 950.00
19.6832 911.00
19.7484 941.00
19.8136 924.00
19.8788 898.00
19.944 908.00
20.0092 923.00
20.0744 886.00
20.1396 886.00
20.2048 946.00
20.27 854.00
20.3352 886.00
20.4004 946.00
20.4656 936.00
20.5308 901.00
20.596 874.00
20.6612 830.00
20.7264 852.00
20.7916 807.00
20.8568 873.00
20.922 927.00
20.9872 858.00
21.0524 903.00
21.1176 882.00
21.1828 862.00
21.248 946.00
21.3132 880.00
21.3784 887.00
21.4436 864.00
21.5088 798.00
21.574 876.00
21.6392 820.00
21.7044 813.00
21.7696 809.00
21.8348 810.00
21.9 836.00
21.9652 819.00
22.0304 791.00
22.0956 810.00
22.1608 799.00
22.226 835.00
22.2912 825.00
22.3564 832.00
22.4216 801.00
22.4868 793.00
22.552 748.00
22.6172 830.00
22.6824 798.00
22.7476 813.00
22.8128 786.00
22.878 808.00
22.9432 769.00
23.0084 805.00
23.0736 776.00
23.1388 715.00
23.204 748.00
23.2692 781.00
23.3344 761.00
23.3996 757.00
23.4647 723.00
23.5299 755.00
23.5951 740.00
23.6603 767.00
23.7255 770.00
23.7907 768.00
23.8559 750.00
23.9211 727.00
23.9863 730.00
24.0515 765.00
24.1167 745.00
24.1819 729.00
24.2471 717.00
24.3123 725.00
24.3775 697.00
24.4427 767.00
24.5079 744.00
24.5731 705.00
24.6383 735.00
24.7035 659.00
24.7687 694.00
24.8339 643.00
24.8991 696.00
24.9643 665.00
25.0295 660.00
25.0947 684.00
25.1599 711.00
25.2251 728.00
25.2903 670.00
25.3555 665.00
25.4207 651.00
25.4859 665.00
25.5511 706.00
25.6163 682.00
25.6815 696.00
25.7467 661.00
25.8119 678.00
25.8771 681.00
25.9423 665.00
26.0075 692.00
26.0727 682.00
26.1379 664.00
26.2031 667.00
26.2683 674.00
26.3335 630.00
26.3987 735.00
26.4639 664.00
26.5291 706.00
26.5943 643.00
26.6595 568.00
26.7247 676.00
26.7899 625.00
26.8551 610.00
26.9203 663.00
26.9855 657.00
27.0507 635.00
27.1159 673.00
27.1811 603.00
27.2463 635.00
27.3115 646.00
27.3767 623.00
27.4419 651.00
27.5071 674.00
27.5723 639.00
27.6375 672.00
27.7027 621.00
27.7679 633.00
27.8331 626.00
27.8983 600.00
27.9635 658.00
28.0287 585.00
28.0939 641.00
28.1591 645.00
28.2243 567.00
28.2894 580.00
28.3546 532.00
28.4198 565.00
28.485 590.00
28.5502 593.00
28.6154 600.00
28.6806 576.00
28.7458 590.00
28.811 600.00
28.8762 549.00
28.9414 562.00
29.0066 580.00
29.0718 573.00
29.137 584.00
29.2022 551.00
29.2674 587.00
29.3326 545.00
29.3978 560.00
29.463 558.00
29.5282 551.00
29.5934 533.00
29.6586 559.00
29.7238 594.00
29.789 565.00
29.8542 578.00
29.9194 571.00
29.9846 560.00
30.0498 550.00
30.115 530.00
30.1802 560.00
30.2454 541.00
30.3106 543.00
30.3758 553.00
30.441 543.00
30.5062 547.00
30.5714 525.00
30.6366 503.00
30.7018 536.00
30.767 506.00
30.8322 516.00
30.8974 537.00
30.9626 496.00
31.0278 509.00
31.093 518.00
31.1582 501.00
31.2234 482.00
31.2886 508.00
31.3538 470.00
31.419 521.00
31.4842 515.00
31.5494 521.00
31.6146 470.00
31.6798 497.00
31.745 497.00
31.8102 514.00
31.8754 530.00
31.9406 501.00
32.0058 516.00
32.071 527.00
32.1362 529.00
32.2014 511.00
32.2666 526.00
32.3318 487.00
32.397 485.00
32.4622 465.00
32.5274 499.00
32.5926 477.00
32.6578 477.00
32.723 465.00
32.7882 488.00
32.8534 472.00
32.9186 491.00
32.9838 434.00
33.0489 452.00
33.1141 474.00
33.1793 489.00
33.2445 448.00
33.3097 490.00
33.3749 468.00
33.4401 453.00
33.5053 492.00
33.5705 463.00
33.6357 490.00
33.7009 487.00
33.7661 484.00
33.8313 496.00
33.8965 487.00
33.9617 440.00
34.0269 476.00
34.0921 507.00
34.1573 445.00
34.2225 474.00
34.2877 437.00
34.3529 433.00
34.4181 415.00
34.4833 434.00
34.5485 390.00
34.6137 418.00
34.6789 438.00
34.7441 439.00
34.8093 458.00
34.8745 420.00
34.9397 448.00
35.0049 393.00
35.0701 460.00
35.1353 436.00
35.2005 405.00
35.2657 415.00
35.3309 417.00
35.3961 446.00
35.4613 418.00
35.5265 393.00
35.5917 413.00
35.6569 368.00
35.7221 405.00
35.7873 398.00
35.8525 368.00
35.9177 436.00
35.9829 389.00
36.0481 443.00
36.1133 437.00
36.1785 395.00
36.2437 374.00
36.3089 404.00
36.3741 414.00
36.4393 384.00
36.5045 392.00
36.5697 410.00
36.6349 381.00
36.7001 369.00
36.7653 386.00
36.8305 389.00
36.8957 411.00
36.9609 371.00
37.0261 409.00
37.0913 397.00
37.1565 397.00
37.2217 333.00
37.2869 352.00
37.3521 403.00
37.4173 393.00
37.4825 368.00
37.5477 371.00
37.6129 369.00
37.6781 410.00
37.7433 349.00
37.8085 349.00
37.8736 399.00
37.9388 376.00
38.004 367.00
38.0692 355.00
38.1344 392.00
38.1996 379.00
38.2648 393.00
38.33 363.00
38.3952 349.00
38.4604 356.00
38.5256 316.00
38.5908 381.00
38.656 365.00
38.7212 373.00
38.7864 353.00
38.8516 331.00
38.9168 353.00
38.982 337.00
39.0472 355.00
39.1124 378.00
39.1776 352.00
39.2428 390.00
39.308 355.00
39.3732 357.00
39.4384 374.00
39.5036 369.00
39.5688 339.00
39.634 344.00
39.6992 369.00
39.7644 351.00
39.8296 369.00
39.8948 343.00
39.96 320.00
40.0252 345.00
40.0904 347.00
40.1556 331.00
40.2208 335.00
40.286 357.00
40.3512 349.00
40.4164 314.00
40.4816 383.00
40.5468 338.00
40.612 321.00
40.6772 347.00
40.7424 367.00
40.8076 339.00
40.8728 338.00
40.938 353.00
41.0032 341.00
41.0684 338.00
41.1336 308.00
41.1988 317.00
41.264 318.00
41.3292 361.00
41.3944 320.00
41.4596 326.00
41.5248 335.00
41.59 337.00
41.6552 316.00
41.7204 334.00
41.7856 312.00
41.8508 336.00
41.916 308.00
41.9812 311.00
42.0464 308.00
42.1116 308.00
42.1768 337.00
42.242 351.00
42.3072 285.00
42.3724 342.00
42.4376 303.00
42.5028 311.00
42.568 324.00
42.6332 268.00
42.6983 298.00
42.7635 343.00
42.8287 328.00
42.8939 323.00
42.9591 335.00
43.0243 341.00
43.0895 346.00
43.1547 354.00
43.2199 370.00
43.2851 308.00
43.3503 330.00
43.4155 328.00
43.4807 325.00
43.5459 327.00
43.6111 318.00
43.6763 318.00
43.7415 319.00
43.8067 289.00
43.8719 317.00
43.9371 313.00
44.0023 307.00
44.0675 308.00
44.1327 289.00
44.1979 304.00
44.2631 301.00
44.3283 305.00
44.3935 285.00
44.4587 337.00
44.5239 312.00
44.5891 306.00
44.6543 278.00
44.7195 299.00
44.7847 336.00
44.8499 298.00
44.9151 256.00
44.9803 274.00
45.0455 282.00
45.1107 299.00
45.1759 304.00
45.2411 291.00
45.3063 291.00
45.3715 276.00
45.4367 324.00
45.5019 278.00
45.5671 288.00
45.6323 283.00
45.6975 275.00
45.7627 268.00
45.8279 327.00
45.8931 288.00
45.9583 290.00
46.0235 312.00
46.0887 309.00
46.1539 286.00
46.2191 293.00
46.2843 296.00
46.3495 313.00
46.4147 302.00
46.4799 294.00
46.5451 263.00
46.6103 274.00
46.6755 260.00
46.7407 236.00
46.8059 275.00
46.8711 298.00
46.9363 259.00
47.0015 278.00
47.0667 273.00
47.1319 266.00
47.1971 260.00
47.2623 261.00
47.3275 277.00
47.3927 271.00
47.4579 295.00
47.523 293.00
47.5882 262.00
47.6534 262.00
47.7186 284.00
47.7838 311.00
47.849 301.00
47.9142 271.00
47.9794 261.00
48.0446 273.00
48.1098 286.00
48.175 276.00
48.2402 295.00
48.3054 274.00
48.3706 275.00
48.4358 273.00
48.501 239.00
48.5662 284.00
48.6314 271.00
48.6966 288.00
48.7618 281.00
48.827 242.00
48.8922 279.00
48.9574 289.00
49.0226 267.00
49.0878 274.00
49.153 260.00
49.2182 286.00
49.2834 272.00
49.3486 276.00
49.4138 273.00
49.479 263.00
49.5442 283.00
49.6094 263.00
49.6746 294.00
49.7398 267.00
49.805 272.00
49.8702 258.00
49.9354 256.00
50.0006 278.00
50.0658 263.00
50.131 292.00
50.1962 277.00
50.2614 262.00
50.3266 237.00
50.3918 256.00
50.457 245.00
50.5222 285.00
50.5874 259.00
50.6526 224.00
50.7178 282.00
50.783 277.00
50.8482 267.00
50.9134 285.00
50.9786 234.00
51.0438 238.00
51.109 276.00
51.1742 270.00
51.2394 268.00
51.3046 270.00
51.3698 266.00
51.435 270.00
51.5002 289.00
51.5654 282.00
51.6306 296.00
51.6958 261.00
51.761 265.00
51.8262 269.00
51.8914 237.00
51.9566 230.00
52.0218 244.00
52.087 225.00
52.1522 256.00
52.2174 256.00
52.2826 266.00
52.3477 230.00
52.4129 225.00
52.4781 245.00
52.5433 245.00
52.6085 259.00
52.6737 260.00
52.7389 235.00
52.8041 248.00
52.8693 224.00
52.9345 240.00
52.9997 264.00
53.0649 237.00
53.1301 215.00
53.1953 258.00
53.2605 247.00
53.3257 245.00
53.3909 241.00
53.4561 239.00
53.5213 243.00
53.5865 241.00
53.6517 218.00
53.7169 265.00
53.7821 231.00
53.8473 266.00
53.9125 224.00
53.9777 240.00
54.0429 240.00
54.1081 243.00
54.1733 244.00
54.2385 233.00
54.3037 241.00
54.3689 230.00
54.4341 243.00
54.4993 236.00
54.5645 236.00
54.6297 240.00
54.6949 217.00
54.7601 208.00
54.8253 242.00
54.8905 222.00
54.9557 247.00
55.0209 218.00
55.0861 208.00
55.1513 275.00
55.2165 247.00
55.2817 233.00
55.3469 232.00
55.4121 240.00
55.4773 227.00
55.5425 259.00
55.6077 225.00
55.6729 210.00
55.7381 235.00
55.8033 225.00
55.8685 220.00
55.9337 215.00
55.9989 185.00
56.0641 216.00
56.1293 231.00
56.1945 215.00
56.2597 230.00
56.3249 240.00
56.3901 230.00
56.4553 200.00
56.5205 237.00
56.5857 198.00
56.6509 190.00
56.7161 213.00
56.7813 206.00
56.8465 191.00
56.9117 206.00
56.9769 203.00
57.042 219.00
57.1073 224.00
57.1724 239.00
57.2376 223.00
57.3028 201.00
57.368 215.00
57.4332 199.00
57.4984 210.00
57.5636 222.00
57.6288 204.00
57.694 193.00
57.7592 205.00
57.8244 222.00
57.8896 192.00
57.9548 225.00
58.02 211.00
58.0852 204.00
58.1504 222.00
58.2156 204.00
58.2808 223.00
58.346 219.00
58.4112 186.00
58.4764 218.00
58.5416 224.00
58.6068 209.00
58.672 184.00
58.7372 196.00
58.8024 258.00
58.8676 220.00
58.9328 206.00
58.998 220.00
59.0632 198.00
59.1284 229.00
59.1936 213.00
59.2588 208.00
59.324 184.00
59.3892 186.00
59.4544 206.00
59.5196 225.00
59.5848 218.00
59.65 208.00
59.7152 210.00
59.7804 231.00
59.8456 212.00
59.9108 216.00
59.976 192.00
60.0412 200.00
60.1064 220.00
60.1716 209.00
60.2368 186.00
60.302 190.00
60.3672 215.00
60.4324 186.00
60.4976 189.00
60.5628 192.00
60.628 216.00
60.6932 208.00
60.7584 226.00
60.8236 220.00
60.8888 204.00
60.954 180.00
61.0192 207.00
61.0844 188.00
61.1496 217.00
61.2148 162.00
61.28 204.00
61.3452 200.00
61.4104 210.00
61.4756 173.00
61.5408 190.00
61.606 178.00
61.6712 209.00
61.7364 184.00
61.8016 183.00
61.8667 195.00
61.932 194.00
61.9971 207.00
62.0623 198.00
62.1275 190.00
62.1927 192.00
62.2579 197.00
62.3231 209.00
62.3883 185.00
62.4535 213.00
62.5187 198.00
62.5839 207.00
62.6491 213.00
62.7143 234.00
62.7795 185.00
62.8447 186.00
62.9099 216.00
62.9751 207.00
63.0403 183.00
63.1055 172.00
63.1707 209.00
63.2359 182.00
63.3011 195.00
63.3663 210.00
63.4315 207.00
63.4967 223.00
63.5619 176.00
63.6271 212.00
63.6923 171.00
63.7575 182.00
63.8227 193.00
63.8879 184.00
63.9531 217.00
64.0183 197.00
64.0835 222.00
64.1487 206.00
64.2139 195.00
64.2791 181.00
64.3443 180.00
64.4095 186.00
64.4747 183.00
64.5399 197.00
64.6051 183.00
64.6703 180.00
64.7355 179.00
64.8007 207.00
64.8659 185.00
64.9311 196.00
64.9963 187.00
65.0615 182.00
65.1267 210.00
65.1919 186.00
65.2571 162.00
65.3223 186.00
65.3875 191.00
65.4527 208.00
65.5179 161.00
65.5831 205.00
65.6483 175.00
65.7135 172.00
65.7787 214.00
65.8439 213.00
65.9091 215.00
65.9743 200.00
66.0395 185.00
66.1047 197.00
66.1699 196.00
66.2351 197.00
66.3003 198.00
66.3655 159.00
66.4307 163.00
66.4959 182.00
66.561 169.00
66.6263 164.00
66.6915 205.00
66.7566 190.00
66.8218 176.00
66.887 172.00
66.9522 214.00
67.0174 180.00
67.0826 180.00
67.1478 190.00
67.213 192.00
67.2782 173.00
67.3434 189.00
67.4086 203.00
67.4738 196.00
67.539 195.00
67.6042 173.00
67.6694 192.00
67.7346 218.00
67.7998 170.00
67.865 182.00
67.9302 187.00
67.9954 204.00
68.0606 207.00
68.1258 182.00
68.191 177.00
68.2562 205.00
68.3214 191.00
68.3866 188.00
68.4518 170.00
68.517 190.00
68.5822 182.00
68.6474 141.00
68.7126 179.00
68.7778 183.00
68.843 187.00
68.9082 173.00
68.9734 206.00
69.0386 204.00
69.1038 181.00
69.169 198.00
69.2342 192.00
69.2994 191.00
69.3646 200.00
69.4298 185.00
69.495 209.00
69.5602 205.00
69.6254 193.00
69.6906 185.00
69.7558 189.00
69.821 192.00
69.8862 209.00
69.9514 173.00
70.0166 210.00
70.0818 164.00
70.147 151.00
70.2122 195.00
70.2774 181.00
70.3426 158.00
70.4078 196.00
70.473 184.00
70.5382 185.00
70.6034 211.00
70.6686 190.00
70.7338 182.00
70.799 180.00
70.8642 174.00
70.9294 192.00
70.9946 197.00
71.0598 171.00
71.125 164.00
71.1902 193.00
71.2554 180.00
71.3205 197.00
71.3858 204.00
71.451 184.00
71.5162 194.00
71.5813 198.00
71.6465 201.00
71.7117 177.00
71.7769 187.00
71.8421 203.00
71.9073 214.00
71.9725 184.00
72.0377 184.00
72.1029 203.00
72.1681 201.00
72.2333 214.00
72.2985 210.00
72.3637 183.00
72.4289 160.00
72.4941 213.00
72.5593 181.00
72.6245 170.00
72.6897 186.00
72.7549 212.00
72.8201 187.00
72.8853 183.00
72.9505 201.00
73.0157 203.00
73.0809 207.00
73.1461 200.00
73.2113 174.00
73.2765 195.00
73.3417 190.00
73.4069 179.00
73.4721 191.00
73.5373 182.00
73.6025 222.00
73.6677 190.00
73.7329 219.00
73.7981 215.00
73.8633 202.00
73.9285 155.00
73.9937 189.00
74.0589 178.00
74.1241 181.00
74.1893 224.00
74.2545 182.00
74.3197 198.00
74.3849 179.00
74.4501 184.00
74.5153 203.00
74.5805 198.00
74.6457 167.00
74.7109 200.00
74.7761 176.00
74.8413 207.00
74.9065 179.00
74.9717 200.00
75.0369 216.00
75.1021 200.00
75.1673 194.00
75.2325 195.00
75.2977 203.00
75.3629 165.00
75.4281 206.00
75.4933 184.00
75.5585 197.00
75.6237 188.00
75.6889 198.00
75.7541 196.00
75.8193 206.00
75.8845 203.00
75.9497 171.00
76.0149 192.00
76.0801 181.00
76.1452 187.00
76.2104 182.00
76.2756 214.00
76.3409 200.00
76.406 185.00
76.4712 240.00
76.5364 183.00
76.6016 181.00
76.6668 213.00
76.732 201.00
76.7972 218.00
76.8624 198.00
76.9276 218.00
76.9928 211.00
77.058 195.00
77.1232 186.00
77.1884 209.00
77.2536 188.00
77.3188 206.00
77.384 206.00
77.4492 186.00
77.5144 210.00
77.5796 212.00
77.6448 236.00
77.71 180.00
77.7752 221.00
77.8404 206.00
77.9056 235.00
77.9708 209.00
78.036 193.00
78.1012 206.00
78.1664 228.00
78.2316 216.00
78.2968 188.00
78.362 216.00
78.4272 211.00
78.4924 193.00
78.5576 213.00
78.6228 216.00
78.688 206.00
78.7532 223.00
78.8184 225.00
78.8836 214.00
78.9488 207.00
79.014 219.00
79.0792 202.00
79.1444 232.00
79.2096 231.00
79.2748 206.00
79.34 231.00
79.4052 246.00
79.4704 209.00
79.5356 235.00
79.6008 205.00
79.666 210.00
79.7312 194.00
79.7964 206.00
79.8616 191.00
79.9268 226.00
79.992 200.00
80.0572 215.00
80.1224 264.00
80.1876 216.00
80.2528 233.00
80.318 240.00
80.3832 203.00
80.4484 230.00
80.5136 214.00
80.5788 226.00
80.644 225.00
80.7092 215.00
80.7744 239.00
80.8396 227.00
80.9048 223.00
80.9699 234.00
81.0351 237.00
81.1003 227.00
81.1655 227.00
81.2307 248.00
81.2959 204.00
81.3611 210.00
81.4263 212.00
81.4915 228.00
81.5567 211.00
81.6219 228.00
81.6871 216.00
81.7523 212.00
81.8175 225.00
81.8827 230.00
81.9479 257.00
82.0131 222.00
82.0783 231.00
82.1435 204.00
82.2087 201.00
82.2739 202.00
82.3391 218.00
82.4043 221.00
82.4695 231.00
82.5347 187.00
82.5999 199.00
82.6651 230.00
82.7303 235.00
82.7955 222.00
82.8607 209.00
82.9259 214.00
82.9911 213.00
83.0563 200.00
83.1215 206.00
83.1867 191.00
83.2519 216.00
83.3171 212.00
83.3823 202.00
83.4475 223.00
83.5127 226.00
83.5779 207.00
83.6431 227.00
83.7083 224.00
83.7735 198.00
83.8387 240.00
83.9039 196.00
83.9691 213.00
84.0343 202.00
84.0995 224.00
84.1647 223.00
84.2299 229.00
84.2951 225.00
84.3603 217.00
84.4255 193.00
84.4907 187.00
84.5559 214.00
84.6211 215.00
84.6863 218.00
84.7515 201.00
84.8167 212.00
84.8819 181.00
84.9471 219.00
85.0123 221.00
85.0775 210.00
85.1427 203.00
85.2079 221.00
85.2731 201.00
85.3383 207.00
85.4035 202.00
85.4687 198.00
85.5339 182.00
85.5991 198.00
85.6643 186.00
85.7295 193.00
85.7946 228.00
85.8598 189.00
85.925 185.00
85.9903 206.00
86.0554 230.00
86.1206 228.00
86.1858 189.00
86.251 206.00
86.3162 207.00
86.3814 201.00
86.4466 201.00
86.5118 184.00
86.577 209.00
86.6422 185.00
86.7074 225.00
86.7726 207.00
86.8378 187.00
86.903 203.00
86.9682 170.00
87.0334 204.00
87.0986 200.00
87.1638 202.00
87.229 203.00
87.2942 170.00
87.3594 201.00
87.4246 190.00
87.4898 179.00
87.555 214.00
87.6202 171.00
87.6854 189.00
87.7506 181.00
87.8158 187.00
87.881 184.00
87.9462 200.00
88.0114 188.00
88.0766 185.00
88.1418 211.00
88.207 196.00
88.2722 165.00
88.3374 202.00
88.4026 208.00
88.4678 208.00
88.533 189.00
88.5982 179.00
88.6634 214.00
88.7286 186.00
88.7938 200.00
88.859 186.00
88.9242 196.00
88.9894 188.00
89.0546 191.00
89.1198 177.00
89.185 186.00
89.2502 172.00
89.3154 226.00
89.3806 177.00
89.4458 188.00
89.511 176.00
89.5762 192.00
89.6414 185.00
89.7066 205.00
89.7718 189.00
89.837 224.00
89.9022 223.00
89.9674 189.00
90.0326 165.00
90.0978 207.00
90.163 212.00
90.2282 189.00
90.2934 169.00
90.3586 176.00
90.4238 202.00
90.489 203.00
90.5542 185.00
90.6193 185.00
90.6845 184.00
90.7497 188.00
90.8149 164.00
90.8801 179.00
90.9453 189.00
91.0105 183.00
91.0757 175.00
91.1409 173.00
91.2061 201.00
91.2713 187.00
91.3365 205.00
91.4017 146.00
91.4669 163.00
91.5321 172.00
91.5973 183.00
91.6625 151.00
91.7277 176.00
91.7929 177.00
91.8581 170.00
91.9233 185.00
91.9885 193.00
92.0537 168.00
92.1189 180.00
92.1841 191.00
92.2493 175.00
92.3145 174.00
92.3797 161.00
92.4449 183.00
92.5101 183.00
92.5753 175.00
92.6405 170.00
92.7057 213.00
92.7709 172.00
92.8361 167.00
92.9013 194.00
92.9665 188.00
93.0317 176.00
93.0969 173.00
93.1621 174.00
93.2273 182.00
93.2925 170.00
93.3577 150.00
93.4229 142.00
93.4881 193.00
93.5533 213.00
93.6185 183.00
93.6837 179.00
93.7489 179.00
93.8141 179.00
93.8793 166.00
93.9445 195.00
94.0097 183.00
94.0749 181.00
94.1401 200.00
94.2053 164.00
94.2705 149.00
94.3357 179.00
94.4009 174.00
94.4661 198.00
94.5313 186.00
94.5965 227.00
94.6617 155.00
94.7269 173.00
94.7921 156.00
94.8573 172.00
94.9225 186.00
94.9877 210.00
95.0529 172.00
95.1181 178.00
95.1833 161.00
95.2485 172.00
95.3137 204.00
95.3789 185.00
95.444 148.00
95.5092 182.00
95.5744 195.00
95.6396 179.00
95.7048 190.00
95.77 167.00
95.8352 154.00
95.9004 149.00
95.9656 206.00
96.0308 176.00
96.096 191.00
96.1612 177.00
96.2264 181.00
96.2916 164.00
96.3568 176.00
96.422 168.00
96.4872 169.00
96.5524 186.00
96.6176 181.00
96.6828 185.00
96.748 165.00
96.8132 153.00
96.8784 179.00
96.9436 181.00
97.0088 174.00
97.074 190.00
97.1392 179.00
97.2044 189.00
97.2696 181.00
97.3348 174.00
97.4 183.00
97.4652 175.00
97.5304 195.00
97.5956 157.00
97.6608 175.00
97.726 167.00
97.7912 152.00
97.8564 180.00
97.9216 184.00
97.9868 174.00
98.052 158.00
98.1172 175.00
98.1824 165.00
98.2476 160.00
98.3128 186.00
98.378 199.00
98.4432 182.00
98.5084 172.00
98.5736 185.00
98.6388 202.00
98.704 206.00
98.7692 172.00
98.8344 164.00
98.8996 191.00
98.9648 169.00
99.03 156.00
99.0952 178.00
99.1604 161.00
99.2256 177.00
99.2908 169.00
99.356 175.00
99.4212 176.00
99.4864 148.00
99.5516 153.00
99.6168 187.00
99.682 202.00
99.7472 176.00
99.8124 159.00
99.8776 176.00
99.9428 178.00
100.008 184.00
100.073 155.00
100.095 174.00