File: data/xrd_creation/results/NSC_34.xy
9.903433 2897.00
9.968632 2764.00
10.0338 2851.00
10.099 2772.00
10.1642 2882.00
10.2294 2763.00
10.2946 2793.00
10.3598 2626.00
10.425 2752.00
10.4902 2729.00
10.5554 2762.00
10.6206 2593.00
10.6858 2627.00
10.751 2674.00
10.8162 2664.00
10.8814 2561.00
10.9466 2605.00
11.0118 2526.00
11.077 2568.00
11.1422 2468.00
11.2074 2533.00
11.2726 2435.00
11.3378 2519.00
11.403 2548.00
11.4682 2513.00
11.5334 2414.00
11.5986 2521.00
11.6638 2508.00
11.729 2485.00
11.7942 2314.00
11.8594 2351.00
11.9246 2375.00
11.9898 2372.00
12.055 2401.00
12.1202 2410.00
12.1854 2281.00
12.2506 2260.00
12.3158 2449.00
12.381 2468.00
12.4462 2400.00
12.5114 2567.00
12.5766 2623.00
12.6418 2907.00
12.707 3023.00
12.7722 2930.00
12.8374 2726.00
12.9026 2503.00
12.9678 2281.00
13.033 2242.00
13.0982 2229.00
13.1634 2206.00
13.2286 2066.00
13.2938 2191.00
13.359 2134.00
13.4242 2140.00
13.4894 2137.00
13.5546 2077.00
13.6198 2258.00
13.685 2205.00
13.7502 2293.00
13.8154 2318.00
13.8805 2453.00
13.9457 2538.00
14.0109 2733.00
14.0761 2986.00
14.1413 2805.00
14.2065 2558.00
14.2717 2163.00
14.3369 2159.00
14.4021 2097.00
14.4673 2042.00
14.5325 2001.00
14.5977 2023.00
14.6629 1963.00
14.7281 2083.00
14.7933 2120.00
14.8585 1944.00
14.9237 2111.00
14.9889 2004.00
15.0541 1945.00
15.1193 1974.00
15.1845 2027.00
15.2497 2022.00
15.3149 1996.00
15.3801 1943.00
15.4453 1975.00
15.5105 2058.00
15.5757 1981.00
15.6409 2017.00
15.7061 1944.00
15.7713 1928.00
15.8365 2083.00
15.9017 1911.00
15.9669 1925.00
16.0321 1931.00
16.0973 1891.00
16.1625 1947.00
16.2277 2020.00
16.2929 1901.00
16.3581 2018.00
16.4233 1912.00
16.4885 1987.00
16.5537 1906.00
16.6189 1940.00
16.6841 1963.00
16.7493 1955.00
16.8145 1968.00
16.8797 1848.00
16.9449 1907.00
17.0101 2006.00
17.0753 1996.00
17.1405 2003.00
17.2057 2005.00
17.2709 1953.00
17.3361 1952.00
17.4013 1983.00
17.4665 1909.00
17.5317 1956.00
17.5969 1910.00
17.6621 2026.00
17.7273 1946.00
17.7925 1773.00
17.8577 1895.00
17.9229 1779.00
17.9881 1831.00
18.0533 1880.00
18.1185 1852.00
18.1837 1888.00
18.2489 1905.00
18.3141 1709.00
18.3793 1834.00
18.4445 1816.00
18.5097 1801.00
18.5749 1775.00
18.6401 1733.00
18.7052 1745.00
18.7704 1809.00
18.8356 1791.00
18.9008 1797.00
18.966 1915.00
19.0312 1836.00
19.0964 1904.00
19.1616 1970.00
19.2268 2074.00
19.292 2427.00
19.3572 2608.00
19.4224 3091.00
19.4876 3596.00
19.5528 4317.00
19.618 4512.00
19.6832 4292.00
19.7484 3821.00
19.8136 3480.00
19.8788 3201.00
19.944 3190.00
20.0092 3428.00
20.0744 3862.00
20.1396 4023.00
20.2048 3699.00
20.27 3117.00
20.3352 2642.00
20.4004 2144.00
20.4656 1902.00
20.5308 1867.00
20.596 1826.00
20.6612 1783.00
20.7264 1812.00
20.7916 1784.00
20.8568 1850.00
20.922 1894.00
20.9872 1986.00
21.0524 1872.00
21.1176 1860.00
21.1828 1967.00
21.248 1985.00
21.3132 2080.00
21.3784 2235.00
21.4436 2245.00
21.5088 2400.00
21.574 2334.00
21.6392 2302.00
21.7044 2227.00
21.7696 2058.00
21.8348 1940.00
21.9 1742.00
21.9652 1835.00
22.0304 1680.00
22.0956 1701.00
22.1608 1774.00
22.226 1662.00
22.2912 1691.00
22.3564 1686.00
22.4216 1779.00
22.4868 1659.00
22.552 1697.00
22.6172 1840.00
22.6824 1796.00
22.7476 1783.00
22.8128 1893.00
22.878 2238.00
22.9432 2374.00
23.0084 2693.00
23.0736 2984.00
23.1388 3358.00
23.204 3449.00
23.2692 3558.00
23.3344 3683.00
23.3996 3790.00
23.4647 3392.00
23.5299 2533.00
23.5951 2043.00
23.6603 1928.00
23.7255 1739.00
23.7907 1738.00
23.8559 1611.00
23.9211 1712.00
23.9863 1575.00
24.0515 1754.00
24.1167 1819.00
24.1819 1881.00
24.2471 1956.00
24.3123 1866.00
24.3775 1766.00
24.4427 1774.00
24.5079 1683.00
24.5731 1668.00
24.6383 1805.00
24.7035 1780.00
24.7687 1695.00
24.8339 1660.00
24.8991 1570.00
24.9643 1489.00
25.0295 1602.00
25.0947 1584.00
25.1599 1621.00
25.2251 1539.00
25.2903 1607.00
25.3555 1613.00
25.4207 1551.00
25.4859 1553.00
25.5511 1534.00
25.6163 1501.00
25.6815 1588.00
25.7467 1515.00
25.8119 1633.00
25.8771 1495.00
25.9423 1601.00
26.0075 1631.00
26.0727 1529.00
26.1379 1590.00
26.2031 1534.00
26.2683 1571.00
26.3335 1570.00
26.3987 1552.00
26.4639 1539.00
26.5291 1481.00
26.5943 1478.00
26.6595 1476.00
26.7247 1515.00
26.7899 1518.00
26.8551 1464.00
26.9203 1528.00
26.9855 1461.00
27.0507 1410.00
27.1159 1462.00
27.1811 1508.00
27.2463 1518.00
27.3115 1509.00
27.3767 1582.00
27.4419 1481.00
27.5071 1514.00
27.5723 1570.00
27.6375 1520.00
27.7027 1626.00
27.7679 1735.00
27.8331 1809.00
27.8983 1939.00
27.9635 2329.00
28.0287 2871.00
28.0939 3495.00
28.1591 3805.00
28.2243 3680.00
28.2894 3721.00
28.3546 3929.00
28.4198 3918.00
28.485 3146.00
28.5502 2268.00
28.6154 1888.00
28.6806 1671.00
28.7458 1587.00
28.811 1532.00
28.8762 1560.00
28.9414 1520.00
29.0066 1612.00
29.0718 1724.00
29.137 1753.00
29.2022 1844.00
29.2674 1908.00
29.3326 1917.00
29.3978 1853.00
29.463 1749.00
29.5282 1635.00
29.5934 1528.00
29.6586 1432.00
29.7238 1473.00
29.789 1441.00
29.8542 1471.00
29.9194 1424.00
29.9846 1433.00
30.0498 1543.00
30.115 1556.00
30.1802 1516.00
30.2454 1594.00
30.3106 1653.00
30.3758 1746.00
30.441 1837.00
30.5062 1995.00
30.5714 2150.00
30.6366 2547.00
30.7018 3504.00
30.767 4653.00
30.8322 5129.00
30.8974 4941.00
30.9626 5380.00
31.0278 5959.00
31.093 6627.00
31.1582 6689.00
31.2234 6226.00
31.2886 5128.00
31.3538 3781.00
31.419 3026.00
31.4842 2689.00
31.5494 2717.00
31.6146 2951.00
31.6798 3018.00
31.745 2608.00
31.8102 2212.00
31.8754 1687.00
31.9406 1511.00
32.0058 1403.00
32.071 1412.00
32.1362 1424.00
32.2014 1316.00
32.2666 1353.00
32.3318 1318.00
32.397 1296.00
32.4622 1306.00
32.5274 1325.00
32.5926 1352.00
32.6578 1377.00
32.723 1291.00
32.7882 1351.00
32.8534 1413.00
32.9186 1384.00
32.9838 1424.00
33.0489 1387.00
33.1141 1402.00
33.1793 1281.00
33.2445 1294.00
33.3097 1307.00
33.3749 1317.00
33.4401 1373.00
33.5053 1348.00
33.5705 1412.00
33.6357 1359.00
33.7009 1337.00
33.7661 1359.00
33.8313 1422.00
33.8965 1444.00
33.9617 1416.00
34.0269 1511.00
34.0921 1562.00
34.1573 1759.00
34.2225 2139.00
34.2877 2474.00
34.3529 3084.00
34.4181 3443.00
34.4833 3463.00
34.5485 3169.00
34.6137 2876.00
34.6789 2858.00
34.7441 2844.00
34.8093 2901.00
34.8745 2878.00
34.9397 2939.00
35.0049 2876.00
35.0701 2743.00
35.1353 2663.00
35.2005 2423.00
35.2657 2332.00
35.3309 1985.00
35.3961 2056.00
35.4613 2119.00
35.5265 2212.00
35.5917 2223.00
35.6569 2155.00
35.7221 1865.00
35.7873 1585.00
35.8525 1462.00
35.9177 1425.00
35.9829 1337.00
36.0481 1278.00
36.1133 1303.00
36.1785 1291.00
36.2437 1252.00
36.3089 1211.00
36.3741 1281.00
36.4393 1223.00
36.5045 1171.00
36.5697 1252.00
36.6349 1154.00
36.7001 1225.00
36.7653 1147.00
36.8305 1182.00
36.8957 1218.00
36.9609 1193.00
37.0261 1110.00
37.0913 1156.00
37.1565 1178.00
37.2217 1206.00
37.2869 1216.00
37.3521 1155.00
37.4173 1180.00
37.4825 1251.00
37.5477 1116.00
37.6129 1240.00
37.6781 1227.00
37.7433 1178.00
37.8085 1255.00
37.8736 1273.00
37.9388 1358.00
38.004 1226.00
38.0692 1259.00
38.1344 1157.00
38.1996 1177.00
38.2648 1176.00
38.33 1156.00
38.3952 1168.00
38.4604 1180.00
38.5256 1194.00
38.5908 1166.00
38.656 1173.00
38.7212 1302.00
38.7864 1259.00
38.8516 1270.00
38.9168 1216.00
38.982 1183.00
39.0472 1127.00
39.1124 1146.00
39.1776 1244.00
39.2428 1206.00
39.308 1232.00
39.3732 1249.00
39.4384 1312.00
39.5036 1264.00
39.5688 1323.00
39.634 1259.00
39.6992 1285.00
39.7644 1237.00
39.8296 1257.00
39.8948 1203.00
39.96 1202.00
40.0252 1194.00
40.0904 1169.00
40.1556 1209.00
40.2208 1209.00
40.286 1232.00
40.3512 1237.00
40.4164 1250.00
40.4816 1289.00
40.5468 1218.00
40.612 1249.00
40.6772 1277.00
40.7424 1333.00
40.8076 1374.00
40.8728 1467.00
40.938 1510.00
41.0032 1565.00
41.0684 1401.00
41.1336 1465.00
41.1988 1408.00
41.264 1402.00
41.3292 1328.00
41.3944 1344.00
41.4596 1404.00
41.5248 1395.00
41.59 1485.00
41.6552 1521.00
41.7204 1483.00
41.7856 1503.00
41.8508 1449.00
41.916 1493.00
41.9812 1493.00
42.0464 1491.00
42.1116 1389.00
42.1768 1418.00
42.242 1354.00
42.3072 1515.00
42.3724 1352.00
42.4376 1335.00
42.5028 1497.00
42.568 1468.00
42.6332 1543.00
42.6983 1451.00
42.7635 1416.00
42.8287 1342.00
42.8939 1232.00
42.9591 1346.00
43.0243 1247.00
43.0895 1233.00
43.1547 1201.00
43.2199 1157.00
43.2851 1275.00
43.3503 1166.00
43.4155 1235.00
43.4807 1228.00
43.5459 1139.00
43.6111 1160.00
43.6763 1085.00
43.7415 1097.00
43.8067 1139.00
43.8719 1095.00
43.9371 1172.00
44.0023 1188.00
44.0675 1143.00
44.1327 1172.00
44.1979 1213.00
44.2631 1216.00
44.3283 1108.00
44.3935 1212.00
44.4587 1362.00
44.5239 1380.00
44.5891 1474.00
44.6543 1481.00
44.7195 1518.00
44.7847 1427.00
44.8499 1464.00
44.9151 1363.00
44.9803 1430.00
45.0455 1359.00
45.1107 1340.00
45.1759 1395.00
45.2411 1437.00
45.3063 1444.00
45.3715 1614.00
45.4367 1710.00
45.5019 1682.00
45.5671 1715.00
45.6323 1712.00
45.6975 1695.00
45.7627 1738.00
45.8279 1656.00
45.8931 1584.00
45.9583 1407.00
46.0235 1295.00
46.0887 1256.00
46.1539 1285.00
46.2191 1305.00
46.2843 1282.00
46.3495 1348.00
46.4147 1426.00
46.4799 1452.00
46.5451 1496.00
46.6103 1528.00
46.6755 1673.00
46.7407 1693.00
46.8059 1857.00
46.8711 1937.00
46.9363 1991.00
47.0015 2009.00
47.0667 1983.00
47.1319 1837.00
47.1971 1808.00
47.2623 1829.00
47.3275 2009.00
47.3927 2131.00
47.4579 2142.00
47.523 2146.00
47.5882 2081.00
47.6534 1954.00
47.7186 1832.00
47.7838 1734.00
47.849 1487.00
47.9142 1503.00
47.9794 1489.00
48.0446 1402.00
48.1098 1340.00
48.175 1369.00
48.2402 1357.00
48.3054 1322.00
48.3706 1403.00
48.4358 1279.00
48.501 1311.00
48.5662 1312.00
48.6314 1230.00
48.6966 1237.00
48.7618 1212.00
48.827 1303.00
48.8922 1230.00
48.9574 1221.00
49.0226 1189.00
49.0878 1168.00
49.153 1244.00
49.2182 1298.00
49.2834 1299.00
49.3486 1383.00
49.4138 1503.00
49.479 1482.00
49.5442 1508.00
49.6094 1333.00
49.6746 1262.00
49.7398 1198.00
49.805 1247.00
49.8702 1098.00
49.9354 1189.00
50.0006 1229.00
50.0658 1262.00
50.131 1377.00
50.1962 1413.00
50.2614 1624.00
50.3266 1674.00
50.3918 1602.00
50.457 1511.00
50.5222 1463.00
50.5874 1445.00
50.6526 1458.00
50.7178 1653.00
50.783 1764.00
50.8482 1835.00
50.9134 1828.00
50.9786 1959.00
51.0438 2102.00
51.109 2225.00
51.1742 2532.00
51.2394 2465.00
51.3046 2179.00
51.3698 1981.00
51.435 1712.00
51.5002 1440.00
51.5654 1343.00
51.6306 1266.00
51.6958 1196.00
51.761 1125.00
51.8262 1186.00
51.8914 1118.00
51.9566 1039.00
52.0218 1130.00
52.087 1109.00
52.1522 1038.00
52.2174 1066.00
52.2826 1218.00
52.3477 1120.00
52.4129 1144.00
52.4781 1140.00
52.5433 1112.00
52.6085 1161.00
52.6737 1179.00
52.7389 1134.00
52.8041 1194.00
52.8693 1185.00
52.9345 1164.00
52.9997 1186.00
53.0649 1208.00
53.1301 1171.00
53.1953 1194.00
53.2605 1177.00
53.3257 1183.00
53.3909 1215.00
53.4561 1283.00
53.5213 1286.00
53.5865 1463.00
53.6517 1399.00
53.7169 1476.00
53.7821 1328.00
53.8473 1416.00
53.9125 1384.00
53.9777 1427.00
54.0429 1521.00
54.1081 1583.00
54.1733 1735.00
54.2385 1912.00
54.3037 1813.00
54.3689 1906.00
54.4341 1900.00
54.4993 1927.00
54.5645 1747.00
54.6297 1688.00
54.6949 1664.00
54.7601 1588.00
54.8253 1607.00
54.8905 1475.00
54.9557 1443.00
55.0209 1366.00
55.0861 1343.00
55.1513 1282.00
55.2165 1235.00
55.2817 1341.00
55.3469 1305.00
55.4121 1361.00
55.4773 1335.00
55.5425 1366.00
55.6077 1353.00
55.6729 1333.00
55.7381 1322.00
55.8033 1243.00
55.8685 1192.00
55.9337 1223.00
55.9989 1243.00
56.0641 1314.00
56.1293 1335.00
56.1945 1270.00
56.2597 1319.00
56.3249 1206.00
56.3901 1208.00
56.4553 1187.00
56.5205 1125.00
56.5857 1093.00
56.6509 1056.00
56.7161 1060.00
56.7813 1078.00
56.8465 1057.00
56.9117 1063.00
56.9769 1070.00
57.042 1045.00
57.1073 1096.00
57.1724 1140.00
57.2376 1197.00
57.3028 1148.00
57.368 1205.00
57.4332 1198.00
57.4984 1179.00
57.5636 1165.00
57.6288 1174.00
57.694 1153.00
57.7592 1184.00
57.8244 1150.00
57.8896 1171.00
57.9548 1137.00
58.02 1183.00
58.0852 1229.00
58.1504 1168.00
58.2156 1199.00
58.2808 1245.00
58.346 1227.00
58.4112 1153.00
58.4764 1140.00
58.5416 1121.00
58.6068 1119.00
58.672 1076.00
58.7372 1132.00
58.8024 1141.00
58.8676 1116.00
58.9328 1176.00
58.998 1251.00
59.0632 1258.00
59.1284 1363.00
59.1936 1524.00
59.2588 1585.00
59.324 1735.00
59.3892 1831.00
59.4544 1868.00
59.5196 1863.00
59.5848 1670.00
59.65 1615.00
59.7152 1543.00
59.7804 1436.00
59.8456 1465.00
59.9108 1489.00
59.976 1598.00
60.0412 1772.00
60.1064 1749.00
60.1716 1729.00
60.2368 1796.00
60.302 1762.00
60.3672 1666.00
60.4324 1677.00
60.4976 1551.00
60.5628 1590.00
60.628 1579.00
60.6932 1664.00
60.7584 1841.00
60.8236 1835.00
60.8888 1762.00
60.954 1688.00
61.0192 1562.00
61.0844 1401.00
61.1496 1312.00
61.2148 1272.00
61.28 1278.00
61.3452 1352.00
61.4104 1374.00
61.4756 1304.00
61.5408 1382.00
61.606 1334.00
61.6712 1327.00
61.7364 1310.00
61.8016 1208.00
61.8667 1239.00
61.932 1281.00
61.9971 1332.00
62.0623 1400.00
62.1275 1427.00
62.1927 1472.00
62.2579 1445.00
62.3231 1514.00
62.3883 1527.00
62.4535 1409.00
62.5187 1376.00
62.5839 1271.00
62.6491 1295.00
62.7143 1344.00
62.7795 1337.00
62.8447 1382.00
62.9099 1424.00
62.9751 1409.00
63.0403 1389.00
63.1055 1378.00
63.1707 1291.00
63.2359 1274.00
63.3011 1219.00
63.3663 1213.00
63.4315 1117.00
63.4967 1157.00
63.5619 1109.00
63.6271 1043.00
63.6923 1135.00
63.7575 1139.00
63.8227 1154.00
63.8879 1160.00
63.9531 1093.00
64.0183 1119.00
64.0835 1109.00
64.1487 1115.00
64.2139 1100.00
64.2791 1056.00
64.3443 1063.00
64.4095 1063.00
64.4747 1070.00
64.5399 1046.00
64.6051 1048.00
64.6703 1038.00
64.7355 1033.00
64.8007 1089.00
64.8659 1034.00
64.9311 1118.00
64.9963 1086.00
65.0615 990.00
65.1267 1057.00
65.1919 1089.00
65.2571 1111.00
65.3223 1142.00
65.3875 1144.00
65.4527 1137.00
65.5179 1085.00
65.5831 1197.00
65.6483 1169.00
65.7135 1205.00
65.7787 1340.00
65.8439 1370.00
65.9091 1326.00
65.9743 1324.00
66.0395 1282.00
66.1047 1295.00
66.1699 1254.00
66.2351 1169.00
66.3003 1221.00
66.3655 1107.00
66.4307 1129.00
66.4959 1174.00
66.561 1128.00
66.6263 1122.00
66.6915 1213.00
66.7566 1143.00
66.8218 1166.00
66.887 1177.00
66.9522 1206.00
67.0174 1186.00
67.0826 1230.00
67.1478 1128.00
67.213 1131.00
67.2782 1159.00
67.3434 1130.00
67.4086 1131.00
67.4738 1113.00
67.539 1084.00
67.6042 1050.00
67.6694 1079.00
67.7346 1128.00
67.7998 1095.00
67.865 1043.00
67.9302 1108.00
67.9954 1042.00
68.0606 1144.00
68.1258 1073.00
68.191 1064.00
68.2562 1094.00
68.3214 966.00
68.3866 1050.00
68.4518 1036.00
68.517 1009.00
68.5822 977.00
68.6474 935.00
68.7126 993.00
68.7778 939.00
68.843 943.00
68.9082 973.00
68.9734 983.00
69.0386 1027.00
69.1038 969.00
69.169 1063.00
69.2342 994.00
69.2994 1037.00
69.3646 1071.00
69.4298 1102.00
69.495 1115.00
69.5602 1178.00
69.6254 1078.00
69.6906 1180.00
69.7558 1117.00
69.821 1141.00
69.8862 1054.00
69.9514 1079.00
70.0166 1183.00
70.0818 1041.00
70.147 1114.00
70.2122 1133.00
70.2774 1027.00
70.3426 1034.00
70.4078 1048.00
70.473 1009.00
70.5382 986.00
70.6034 1027.00
70.6686 1022.00
70.7338 1020.00
70.799 973.00
70.8642 1027.00
70.9294 1015.00
70.9946 1034.00
71.0598 1055.00
71.125 1059.00
71.1902 1066.00
71.2554 1067.00
71.3205 1096.00
71.3858 1078.00
71.451 1034.00
71.5162 1017.00
71.5813 964.00
71.6465 959.00
71.7117 994.00
71.7769 957.00
71.8421 979.00
71.9073 935.00
71.9725 1060.00
72.0377 956.00
72.1029 1030.00
72.1681 990.00
72.2333 1044.00
72.2985 1099.00
72.3637 1027.00
72.4289 1087.00
72.4941 1069.00
72.5593 912.00
72.6245 1025.00
72.6897 1016.00
72.7549 1011.00
72.8201 1069.00
72.8853 991.00
72.9505 1002.00
73.0157 942.00
73.0809 1052.00
73.1461 996.00
73.2113 1089.00
73.2765 1048.00
73.3417 1050.00
73.4069 1111.00
73.4721 1114.00
73.5373 1088.00
73.6025 1121.00
73.6677 1102.00
73.7329 1105.00
73.7981 1124.00
73.8633 1133.00
73.9285 1127.00
73.9937 1101.00
74.0589 1087.00
74.1241 1094.00
74.1893 1054.00
74.2545 1027.00
74.3197 1072.00
74.3849 1041.00
74.4501 962.00
74.5153 1072.00
74.5805 1012.00
74.6457 1003.00
74.7109 1011.00
74.7761 1044.00
74.8413 967.00
74.9065 1007.00
74.9717 1026.00
75.0369 969.00
75.1021 1111.00
75.1673 1131.00
75.2325 1028.00
75.2977 1023.00
75.3629 1016.00
75.4281 1083.00
75.4933 1028.00
75.5585 1073.00
75.6237 1009.00
75.6889 985.00
75.7541 950.00
75.8193 975.00
75.8845 898.00
75.9497 954.00
76.0149 883.00
76.0801 950.00
76.1452 938.00
76.2104 909.00
76.2756 995.00
76.3409 921.00
76.406 991.00
76.4712 953.00
76.5364 1072.00
76.6016 1084.00
76.6668 958.00
76.732 1071.00
76.7972 993.00
76.8624 1004.00
76.9276 1019.00
76.9928 983.00
77.058 987.00
77.1232 973.00
77.1884 997.00
77.2536 1035.00
77.3188 1022.00
77.384 1024.00
77.4492 1059.00
77.5144 1022.00
77.5796 1030.00
77.6448 1057.00
77.71 1008.00
77.7752 1087.00
77.8404 1069.00
77.9056 1150.00
77.9708 1087.00
78.036 1009.00
78.1012 1011.00
78.1664 1022.00
78.2316 1008.00
78.2968 969.00
78.362 898.00
78.4272 891.00
78.4924 961.00
78.5576 982.00
78.6228 937.00
78.688 939.00
78.7532 960.00
78.8184 990.00
78.8836 979.00
78.9488 927.00
79.014 935.00
79.0792 936.00
79.1444 1024.00
79.2096 934.00
79.2748 905.00
79.34 1007.00
79.4052 963.00
79.4704 868.00
79.5356 930.00
79.6008 826.00
79.666 870.00
79.7312 921.00
79.7964 888.00
79.8616 941.00
79.9268 962.00
79.992 985.00
80.0572 911.00
80.1224 911.00
80.1876 965.00
80.2528 1068.00
80.318 1014.00
80.3832 1053.00
80.4484 1049.00
80.5136 1007.00
80.5788 1056.00
80.644 999.00
80.7092 991.00
80.7744 1014.00
80.8396 1007.00
80.9048 1048.00
80.9699 991.00
81.0351 1046.00
81.1003 971.00
81.1655 938.00
81.2307 958.00
81.2959 927.00
81.3611 988.00
81.4263 955.00
81.4915 951.00
81.5567 1014.00
81.6219 986.00
81.6871 1111.00
81.7523 1053.00
81.8175 1099.00
81.8827 1113.00
81.9479 1101.00
82.0131 1036.00
82.0783 1052.00
82.1435 1017.00
82.2087 1060.00
82.2739 1027.00
82.3391 1080.00
82.4043 1020.00
82.4695 1031.00
82.5347 958.00
82.5999 935.00
82.6651 991.00
82.7303 959.00
82.7955 1014.00
82.8607 977.00
82.9259 991.00
82.9911 1005.00
83.0563 1023.00
83.1215 1081.00
83.1867 1106.00
83.2519 1119.00
83.3171 1076.00
83.3823 1003.00
83.4475 1007.00
83.5127 1008.00
83.5779 1032.00
83.6431 1028.00
83.7083 1022.00
83.7735 981.00
83.8387 1021.00
83.9039 996.00
83.9691 998.00
84.0343 1010.00
84.0995 1016.00
84.1647 989.00
84.2299 1030.00
84.2951 1045.00
84.3603 1021.00
84.4255 981.00
84.4907 969.00
84.5559 984.00
84.6211 984.00
84.6863 951.00
84.7515 938.00
84.8167 1002.00
84.8819 927.00
84.9471 1016.00
85.0123 934.00
85.0775 960.00
85.1427 883.00
85.2079 936.00
85.2731 904.00
85.3383 864.00
85.4035 891.00
85.4687 964.00
85.5339 908.00
85.5991 953.00
85.6643 917.00
85.7295 975.00
85.7946 964.00
85.8598 945.00
85.925 1004.00
85.9903 946.00
86.0554 1055.00
86.1206 1045.00
86.1858 992.00
86.251 967.00
86.3162 968.00
86.3814 904.00
86.4466 937.00
86.5118 889.00
86.577 940.00
86.6422 881.00
86.7074 889.00
86.7726 957.00
86.8378 984.00
86.903 923.00
86.9682 886.00
87.0334 935.00
87.0986 925.00
87.1638 919.00
87.229 949.00
87.2942 979.00
87.3594 941.00
87.4246 985.00
87.4898 990.00
87.555 988.00
87.6202 989.00
87.6854 998.00
87.7506 997.00
87.8158 1120.00
87.881 1085.00
87.9462 1043.00
88.0114 1095.00
88.0766 1128.00
88.1418 1073.00
88.207 1079.00
88.2722 1049.00
88.3374 1086.00
88.4026 1159.00
88.4678 1161.00
88.533 1090.00
88.5982 1060.00
88.6634 1110.00
88.7286 1031.00
88.7938 986.00
88.859 1006.00
88.9242 998.00
88.9894 1018.00
89.0546 915.00
89.1198 952.00
89.185 953.00
89.2502 979.00
89.3154 954.00
89.3806 871.00
89.4458 905.00
89.511 952.00
89.5762 975.00
89.6414 915.00
89.7066 948.00
89.7718 1018.00
89.837 1011.00
89.9022 1051.00
89.9674 969.00
90.0326 950.00
90.0978 959.00
90.163 952.00
90.2282 1000.00
90.2934 1014.00
90.3586 999.00
90.4238 1021.00
90.489 1017.00
90.5542 1044.00
90.6193 998.00
90.6845 1049.00
90.7497 1028.00
90.8149 1010.00
90.8801 994.00
90.9453 949.00
91.0105 909.00
91.0757 943.00
91.1409 962.00
91.2061 983.00
91.2713 966.00
91.3365 982.00
91.4017 958.00
91.4669 1011.00
91.5321 977.00
91.5973 961.00
91.6625 889.00
91.7277 961.00
91.7929 861.00
91.8581 904.00
91.9233 948.00
91.9885 929.00
92.0537 885.00
92.1189 951.00
92.1841 898.00
92.2493 897.00
92.3145 915.00
92.3797 958.00
92.4449 920.00
92.5101 923.00
92.5753 988.00
92.6405 979.00
92.7057 936.00
92.7709 899.00
92.8361 932.00
92.9013 912.00
92.9665 940.00
93.0317 939.00
93.0969 950.00
93.1621 945.00
93.2273 979.00
93.2925 921.00
93.3577 1004.00
93.4229 938.00
93.4881 1003.00
93.5533 992.00
93.6185 976.00
93.6837 1002.00
93.7489 1002.00
93.8141 939.00
93.8793 931.00
93.9445 998.00
94.0097 1060.00
94.0749 908.00
94.1401 951.00
94.2053 990.00
94.2705 1063.00
94.3357 978.00
94.4009 1011.00
94.4661 952.00
94.5313 979.00
94.5965 948.00
94.6617 988.00
94.7269 970.00
94.7921 980.00
94.8573 1036.00
94.9225 1014.00
94.9877 1068.00
95.0529 995.00
95.1181 1013.00
95.1833 1037.00
95.2485 1031.00
95.3137 1054.00
95.3789 998.00
95.444 961.00
95.5092 986.00
95.5744 1029.00
95.6396 964.00
95.7048 994.00
95.77 923.00
95.8352 981.00
95.9004 972.00
95.9656 962.00
96.0308 961.00
96.096 945.00
96.1612 896.00
96.2264 891.00
96.2916 956.00
96.3568 969.00
96.422 946.00
96.4872 944.00
96.5524 988.00
96.6176 993.00
96.6828 1026.00
96.748 971.00
96.8132 1037.00
96.8784 1087.00
96.9436 958.00
97.0088 1000.00
97.074 997.00
97.1392 927.00
97.2044 1018.00
97.2696 965.00
97.3348 941.00
97.4 909.00
97.4652 911.00
97.5304 906.00
97.5956 867.00
97.6608 971.00
97.726 876.00
97.7912 937.00
97.8564 984.00
97.9216 982.00
97.9868 959.00
98.052 945.00
98.1172 965.00
98.1824 962.00
98.2476 947.00
98.3128 952.00
98.378 1017.00
98.4432 976.00
98.5084 996.00
98.5736 957.00
98.6388 971.00
98.704 954.00
98.7692 935.00
98.8344 909.00
98.8996 998.00
98.9648 929.00
99.03 960.00
99.0952 952.00
99.1604 899.00
99.2256 993.00
99.2908 973.00
99.356 959.00
99.4212 975.00
99.4864 1018.00
99.5516 894.00
99.6168 965.00
99.682 939.00
99.7472 882.00
99.8124 955.00
99.8776 925.00
99.9428 927.00
100.008 928.00
100.073 966.00
100.095 921.00