File: data/xrd_creation/results/NSC_45.xy
9.903433 2866.00
9.968632 2805.00
10.0338 2717.00
10.099 2707.00
10.1642 2779.00
10.2294 2697.00
10.2946 2704.00
10.3598 2657.00
10.425 2708.00
10.4902 2654.00
10.5554 2647.00
10.6206 2660.00
10.6858 2557.00
10.751 2567.00
10.8162 2530.00
10.8814 2574.00
10.9466 2528.00
11.0118 2502.00
11.077 2408.00
11.1422 2438.00
11.2074 2401.00
11.2726 2468.00
11.3378 2418.00
11.403 2468.00
11.4682 2403.00
11.5334 2429.00
11.5986 2359.00
11.6638 2328.00
11.729 2258.00
11.7942 2329.00
11.8594 2277.00
11.9246 2234.00
11.9898 2294.00
12.055 2364.00
12.1202 2237.00
12.1854 2291.00
12.2506 2239.00
12.3158 2269.00
12.381 2270.00
12.4462 2229.00
12.5114 2253.00
12.5766 2344.00
12.6418 2449.00
12.707 2437.00
12.7722 2556.00
12.8374 2742.00
12.9026 2371.00
12.9678 2150.00
13.033 2073.00
13.0982 2136.00
13.1634 1996.00
13.2286 2033.00
13.2938 2041.00
13.359 2070.00
13.4242 2012.00
13.4894 2015.00
13.5546 1992.00
13.6198 1987.00
13.685 1941.00
13.7502 1988.00
13.8154 2031.00
13.8805 1928.00
13.9457 2114.00
14.0109 2060.00
14.0761 2060.00
14.1413 2108.00
14.2065 2120.00
14.2717 2012.00
14.3369 1951.00
14.4021 1929.00
14.4673 1933.00
14.5325 1941.00
14.5977 1982.00
14.6629 1891.00
14.7281 1942.00
14.7933 1779.00
14.8585 1785.00
14.9237 1891.00
14.9889 1908.00
15.0541 1927.00
15.1193 1825.00
15.1845 1892.00
15.2497 1820.00
15.3149 1867.00
15.3801 1863.00
15.4453 1776.00
15.5105 1833.00
15.5757 1911.00
15.6409 1742.00
15.7061 1762.00
15.7713 1853.00
15.8365 1752.00
15.9017 1882.00
15.9669 1733.00
16.0321 1746.00
16.0973 1728.00
16.1625 1825.00
16.2277 1767.00
16.2929 1730.00
16.3581 1823.00
16.4233 1735.00
16.4885 1808.00
16.5537 1806.00
16.6189 1770.00
16.6841 1768.00
16.7493 1780.00
16.8145 1780.00
16.8797 1708.00
16.9449 1718.00
17.0101 1763.00
17.0753 1859.00
17.1405 1813.00
17.2057 1775.00
17.2709 1782.00
17.3361 1712.00
17.4013 1687.00
17.4665 1785.00
17.5317 1636.00
17.5969 1712.00
17.6621 1670.00
17.7273 1716.00
17.7925 1673.00
17.8577 1644.00
17.9229 1701.00
17.9881 1629.00
18.0533 1682.00
18.1185 1697.00
18.1837 1615.00
18.2489 1600.00
18.3141 1708.00
18.3793 1639.00
18.4445 1597.00
18.5097 1620.00
18.5749 1538.00
18.6401 1619.00
18.7052 1662.00
18.7704 1610.00
18.8356 1595.00
18.9008 1590.00
18.966 1604.00
19.0312 1538.00
19.0964 1564.00
19.1616 1640.00
19.2268 1564.00
19.292 1616.00
19.3572 1771.00
19.4224 1760.00
19.4876 1929.00
19.5528 1928.00
19.618 1790.00
19.6832 1776.00
19.7484 1832.00
19.8136 2145.00
19.8788 2479.00
19.944 2528.00
20.0092 2339.00
20.0744 2037.00
20.1396 1794.00
20.2048 1629.00
20.27 1582.00
20.3352 1566.00
20.4004 1523.00
20.4656 1551.00
20.5308 1478.00
20.596 1525.00
20.6612 1620.00
20.7264 1678.00
20.7916 1700.00
20.8568 1733.00
20.922 1786.00
20.9872 1965.00
21.0524 1885.00
21.1176 1619.00
21.1828 1486.00
21.248 1503.00
21.3132 1511.00
21.3784 1503.00
21.4436 1499.00
21.5088 1670.00
21.574 1795.00
21.6392 2176.00
21.7044 2706.00
21.7696 3407.00
21.8348 2858.00
21.9 1812.00
21.9652 1695.00
22.0304 1539.00
22.0956 1601.00
22.1608 1500.00
22.226 1486.00
22.2912 1360.00
22.3564 1383.00
22.4216 1421.00
22.4868 1458.00
22.552 1417.00
22.6172 1443.00
22.6824 1435.00
22.7476 1425.00
22.8128 1350.00
22.878 1392.00
22.9432 1414.00
23.0084 1426.00
23.0736 1463.00
23.1388 1636.00
23.204 1803.00
23.2692 2180.00
23.3344 2318.00
23.3996 2147.00
23.4647 1756.00
23.5299 1479.00
23.5951 1360.00
23.6603 1413.00
23.7255 1322.00
23.7907 1358.00
23.8559 1380.00
23.9211 1375.00
23.9863 1363.00
24.0515 1476.00
24.1167 1459.00
24.1819 1650.00
24.2471 1939.00
24.3123 1968.00
24.3775 1899.00
24.4427 1631.00
24.5079 1363.00
24.5731 1326.00
24.6383 1312.00
24.7035 1290.00
24.7687 1282.00
24.8339 1211.00
24.8991 1318.00
24.9643 1304.00
25.0295 1256.00
25.0947 1205.00
25.1599 1192.00
25.2251 1191.00
25.2903 1244.00
25.3555 1224.00
25.4207 1252.00
25.4859 1237.00
25.5511 1197.00
25.6163 1237.00
25.6815 1217.00
25.7467 1252.00
25.8119 1209.00
25.8771 1185.00
25.9423 1208.00
26.0075 1204.00
26.0727 1180.00
26.1379 1126.00
26.2031 1182.00
26.2683 1173.00
26.3335 1155.00
26.3987 1174.00
26.4639 1145.00
26.5291 1078.00
26.5943 1194.00
26.6595 1169.00
26.7247 1197.00
26.7899 1156.00
26.8551 1140.00
26.9203 1119.00
26.9855 1150.00
27.0507 1176.00
27.1159 1192.00
27.1811 1095.00
27.2463 1152.00
27.3115 1186.00
27.3767 1083.00
27.4419 1166.00
27.5071 1193.00
27.5723 1167.00
27.6375 1122.00
27.7027 1155.00
27.7679 1154.00
27.8331 1128.00
27.8983 1204.00
27.9635 1154.00
28.0287 1228.00
28.0939 1244.00
28.1591 1406.00
28.2243 1474.00
28.2894 1470.00
28.3546 1311.00
28.4198 1170.00
28.485 1138.00
28.5502 1130.00
28.6154 1090.00
28.6806 1122.00
28.7458 1170.00
28.811 1116.00
28.8762 1096.00
28.9414 1130.00
29.0066 1041.00
29.0718 1133.00
29.137 1111.00
29.2022 1126.00
29.2674 1105.00
29.3326 1068.00
29.3978 1020.00
29.463 1047.00
29.5282 1109.00
29.5934 1139.00
29.6586 1222.00
29.7238 1243.00
29.789 1195.00
29.8542 1244.00
29.9194 1227.00
29.9846 1210.00
30.0498 1216.00
30.115 1152.00
30.1802 1257.00
30.2454 1276.00
30.3106 1283.00
30.3758 1381.00
30.441 1436.00
30.5062 1677.00
30.5714 1937.00
30.6366 2981.00
30.7018 5455.00
30.767 11407.00
30.8322 19987.00
30.8974 18643.00
30.9626 10061.00
31.0278 3474.00
31.093 2039.00
31.1582 1734.00
31.2234 1515.00
31.2886 1441.00
31.3538 1405.00
31.419 1657.00
31.4842 2081.00
31.5494 2427.00
31.6146 2290.00
31.6798 1852.00
31.745 1471.00
31.8102 1316.00
31.8754 1258.00
31.9406 1352.00
32.0058 1462.00
32.071 1701.00
32.1362 2255.00
32.2014 2395.00
32.2666 2132.00
32.3318 1623.00
32.397 1391.00
32.4622 1167.00
32.5274 1164.00
32.5926 1144.00
32.6578 1069.00
32.723 1091.00
32.7882 1070.00
32.8534 1204.00
32.9186 1343.00
32.9838 1441.00
33.0489 1477.00
33.1141 1558.00
33.1793 1418.00
33.2445 1273.00
33.3097 1246.00
33.3749 1320.00
33.4401 1287.00
33.5053 1122.00
33.5705 1035.00
33.6357 1040.00
33.7009 1008.00
33.7661 988.00
33.8313 1031.00
33.8965 1053.00
33.9617 975.00
34.0269 1056.00
34.0921 1129.00
34.1573 1200.00
34.2225 1337.00
34.2877 1521.00
34.3529 2026.00
34.4181 2820.00
34.4833 2854.00
34.5485 2172.00
34.6137 1808.00
34.6789 1799.00
34.7441 1688.00
34.8093 1627.00
34.8745 1421.00
34.9397 1365.00
35.0049 1150.00
35.0701 1068.00
35.1353 997.00
35.2005 1083.00
35.2657 1190.00
35.3309 1316.00
35.3961 1606.00
35.4613 1897.00
35.5265 2226.00
35.5917 3001.00
35.6569 4867.00
35.7221 7123.00
35.7873 5670.00
35.8525 3353.00
35.9177 1644.00
35.9829 1165.00
36.0481 1101.00
36.1133 1009.00
36.1785 919.00
36.2437 916.00
36.3089 877.00
36.3741 899.00
36.4393 900.00
36.5045 875.00
36.5697 913.00
36.6349 889.00
36.7001 884.00
36.7653 830.00
36.8305 842.00
36.8957 869.00
36.9609 828.00
37.0261 826.00
37.0913 841.00
37.1565 858.00
37.2217 755.00
37.2869 817.00
37.3521 844.00
37.4173 795.00
37.4825 794.00
37.5477 805.00
37.6129 854.00
37.6781 918.00
37.7433 1010.00
37.8085 1166.00
37.8736 1481.00
37.9388 1986.00
38.004 1745.00
38.0692 1407.00
38.1344 991.00
38.1996 875.00
38.2648 863.00
38.33 858.00
38.3952 864.00
38.4604 880.00
38.5256 902.00
38.5908 820.00
38.656 848.00
38.7212 826.00
38.7864 812.00
38.8516 774.00
38.9168 769.00
38.982 780.00
39.0472 785.00
39.1124 846.00
39.1776 851.00
39.2428 838.00
39.308 786.00
39.3732 744.00
39.4384 798.00
39.5036 705.00
39.5688 736.00
39.634 746.00
39.6992 769.00
39.7644 807.00
39.8296 734.00
39.8948 745.00
39.96 837.00
40.0252 954.00
40.0904 1000.00
40.1556 945.00
40.2208 848.00
40.286 779.00
40.3512 792.00
40.4164 766.00
40.4816 765.00
40.5468 688.00
40.612 742.00
40.6772 743.00
40.7424 750.00
40.8076 677.00
40.8728 746.00
40.938 716.00
41.0032 756.00
41.0684 698.00
41.1336 699.00
41.1988 723.00
41.264 790.00
41.3292 734.00
41.3944 754.00
41.4596 777.00
41.5248 850.00
41.59 783.00
41.6552 756.00
41.7204 733.00
41.7856 754.00
41.8508 848.00
41.916 895.00
41.9812 1257.00
42.0464 1639.00
42.1116 1849.00
42.1768 1568.00
42.242 1277.00
42.3072 951.00
42.3724 803.00
42.4376 820.00
42.5028 872.00
42.568 800.00
42.6332 838.00
42.6983 861.00
42.7635 806.00
42.8287 799.00
42.8939 780.00
42.9591 712.00
43.0243 704.00
43.0895 701.00
43.1547 749.00
43.2199 742.00
43.2851 726.00
43.3503 818.00
43.4155 905.00
43.4807 829.00
43.5459 801.00
43.6111 720.00
43.6763 739.00
43.7415 703.00
43.8067 704.00
43.8719 727.00
43.9371 855.00
44.0023 893.00
44.0675 991.00
44.1327 887.00
44.1979 838.00
44.2631 780.00
44.3283 749.00
44.3935 677.00
44.4587 667.00
44.5239 703.00
44.5891 706.00
44.6543 656.00
44.7195 666.00
44.7847 683.00
44.8499 677.00
44.9151 767.00
44.9803 709.00
45.0455 736.00
45.1107 735.00
45.1759 805.00
45.2411 781.00
45.3063 700.00
45.3715 754.00
45.4367 675.00
45.5019 743.00
45.5671 718.00
45.6323 784.00
45.6975 736.00
45.7627 907.00
45.8279 1244.00
45.8931 2001.00
45.9583 2219.00
46.0235 1756.00
46.0887 1460.00
46.1539 934.00
46.2191 728.00
46.2843 722.00
46.3495 684.00
46.4147 615.00
46.4799 641.00
46.5451 662.00
46.6103 634.00
46.6755 650.00
46.7407 639.00
46.8059 653.00
46.8711 672.00
46.9363 707.00
47.0015 719.00
47.0667 773.00
47.1319 852.00
47.1971 1018.00
47.2623 1063.00
47.3275 1224.00
47.3927 1224.00
47.4579 1147.00
47.523 1044.00
47.5882 1028.00
47.6534 896.00
47.7186 779.00
47.7838 753.00
47.849 672.00
47.9142 613.00
47.9794 634.00
48.0446 631.00
48.1098 668.00
48.175 685.00
48.2402 638.00
48.3054 618.00
48.3706 635.00
48.4358 641.00
48.501 598.00
48.5662 655.00
48.6314 581.00
48.6966 654.00
48.7618 684.00
48.827 626.00
48.8922 661.00
48.9574 691.00
49.0226 654.00
49.0878 682.00
49.153 706.00
49.2182 747.00
49.2834 913.00
49.3486 1037.00
49.4138 1158.00
49.479 1306.00
49.5442 1317.00
49.6094 1212.00
49.6746 1100.00
49.7398 890.00
49.805 839.00
49.8702 758.00
49.9354 750.00
50.0006 707.00
50.0658 669.00
50.131 654.00
50.1962 622.00
50.2614 692.00
50.3266 687.00
50.3918 658.00
50.457 648.00
50.5222 660.00
50.5874 630.00
50.6526 678.00
50.7178 693.00
50.783 728.00
50.8482 735.00
50.9134 873.00
50.9786 910.00
51.0438 1201.00
51.109 1931.00
51.1742 3831.00
51.2394 7046.00
51.3046 6715.00
51.3698 5161.00
51.435 3898.00
51.5002 1917.00
51.5654 1313.00
51.6306 1011.00
51.6958 981.00
51.761 887.00
51.8262 878.00
51.8914 840.00
51.9566 777.00
52.0218 836.00
52.087 765.00
52.1522 703.00
52.2174 720.00
52.2826 700.00
52.3477 632.00
52.4129 634.00
52.4781 635.00
52.5433 640.00
52.6085 628.00
52.6737 660.00
52.7389 682.00
52.8041 718.00
52.8693 872.00
52.9345 1026.00
52.9997 1014.00
53.0649 890.00
53.1301 883.00
53.1953 801.00
53.2605 725.00
53.3257 731.00
53.3909 645.00
53.4561 639.00
53.5213 633.00
53.5865 617.00
53.6517 625.00
53.7169 604.00
53.7821 642.00
53.8473 665.00
53.9125 701.00
53.9777 728.00
54.0429 764.00
54.1081 738.00
54.1733 696.00
54.2385 731.00
54.3037 772.00
54.3689 756.00
54.4341 758.00
54.4993 685.00
54.5645 712.00
54.6297 710.00
54.6949 672.00
54.7601 591.00
54.8253 600.00
54.8905 579.00
54.9557 605.00
55.0209 588.00
55.0861 548.00
55.1513 582.00
55.2165 545.00
55.2817 585.00
55.3469 553.00
55.4121 629.00
55.4773 546.00
55.5425 613.00
55.6077 636.00
55.6729 622.00
55.7381 619.00
55.8033 701.00
55.8685 755.00
55.9337 725.00
55.9989 785.00
56.0641 932.00
56.1293 1149.00
56.1945 1402.00
56.2597 1341.00
56.3249 1211.00
56.3901 1049.00
56.4553 825.00
56.5205 667.00
56.5857 662.00
56.6509 636.00
56.7161 605.00
56.7813 654.00
56.8465 631.00
56.9117 588.00
56.9769 603.00
57.042 541.00
57.1073 615.00
57.1724 560.00
57.2376 555.00
57.3028 568.00
57.368 556.00
57.4332 537.00
57.4984 578.00
57.5636 594.00
57.6288 613.00
57.694 681.00
57.7592 797.00
57.8244 777.00
57.8896 705.00
57.9548 725.00
58.02 657.00
58.0852 610.00
58.1504 674.00
58.2156 649.00
58.2808 700.00
58.346 705.00
58.4112 702.00
58.4764 626.00
58.5416 581.00
58.6068 590.00
58.672 600.00
58.7372 593.00
58.8024 589.00
58.8676 555.00
58.9328 528.00
58.998 582.00
59.0632 604.00
59.1284 642.00
59.1936 692.00
59.2588 854.00
59.324 1225.00
59.3892 1227.00
59.4544 1068.00
59.5196 1008.00
59.5848 862.00
59.65 736.00
59.7152 681.00
59.7804 651.00
59.8456 753.00
59.9108 771.00
59.976 776.00
60.0412 803.00
60.1064 815.00
60.1716 782.00
60.2368 793.00
60.302 808.00
60.3672 809.00
60.4324 866.00
60.4976 880.00
60.5628 896.00
60.628 958.00
60.6932 1225.00
60.7584 1959.00
60.8236 3602.00
60.8888 5116.00
60.954 4200.00
61.0192 3514.00
61.0844 3005.00
61.1496 1835.00
61.2148 1186.00
61.28 972.00
61.3452 942.00
61.4104 952.00
61.4756 942.00
61.5408 910.00
61.606 786.00
61.6712 714.00
61.7364 732.00
61.8016 678.00
61.8667 760.00
61.932 732.00
61.9971 692.00
62.0623 721.00
62.1275 740.00
62.1927 851.00
62.2579 940.00
62.3231 1183.00
62.3883 1592.00
62.4535 1386.00
62.5187 1168.00
62.5839 1209.00
62.6491 852.00
62.7143 732.00
62.7795 614.00
62.8447 611.00
62.9099 620.00
62.9751 623.00
63.0403 513.00
63.1055 578.00
63.1707 609.00
63.2359 551.00
63.3011 538.00
63.3663 563.00
63.4315 565.00
63.4967 560.00
63.5619 598.00
63.6271 589.00
63.6923 688.00
63.7575 772.00
63.8227 1085.00
63.8879 1389.00
63.9531 1119.00
64.0183 1089.00
64.0835 1024.00
64.1487 780.00
64.2139 689.00
64.2791 608.00
64.3443 607.00
64.4095 585.00
64.4747 615.00
64.5399 612.00
64.6051 635.00
64.6703 565.00
64.7355 584.00
64.8007 556.00
64.8659 567.00
64.9311 538.00
64.9963 569.00
65.0615 525.00
65.1267 591.00
65.1919 590.00
65.2571 693.00
65.3223 786.00
65.3875 819.00
65.4527 729.00
65.5179 694.00
65.5831 704.00
65.6483 578.00
65.7135 540.00
65.7787 555.00
65.8439 524.00
65.9091 521.00
65.9743 567.00
66.0395 543.00
66.1047 554.00
66.1699 547.00
66.2351 510.00
66.3003 518.00
66.3655 606.00
66.4307 577.00
66.4959 536.00
66.561 543.00
66.6263 558.00
66.6915 595.00
66.7566 603.00
66.8218 679.00
66.887 679.00
66.9522 675.00
67.0174 617.00
67.0826 601.00
67.1478 518.00
67.213 579.00
67.2782 535.00
67.3434 505.00
67.4086 582.00
67.4738 582.00
67.539 536.00
67.6042 557.00
67.6694 532.00
67.7346 493.00
67.7998 507.00
67.865 508.00
67.9302 548.00
67.9954 487.00
68.0606 601.00
68.1258 685.00
68.191 892.00
68.2562 963.00
68.3214 887.00
68.3866 803.00
68.4518 763.00
68.517 669.00
68.5822 589.00
68.6474 542.00
68.7126 489.00
68.7778 532.00
68.843 518.00
68.9082 495.00
68.9734 565.00
69.0386 522.00
69.1038 552.00
69.169 601.00
69.2342 568.00
69.2994 544.00
69.3646 506.00
69.4298 517.00
69.495 567.00
69.5602 580.00
69.6254 709.00
69.6906 741.00
69.7558 668.00
69.821 674.00
69.8862 660.00
69.9514 603.00
70.0166 525.00
70.0818 504.00
70.147 470.00
70.2122 492.00
70.2774 487.00
70.3426 488.00
70.4078 508.00
70.473 481.00
70.5382 462.00
70.6034 458.00
70.6686 460.00
70.7338 463.00
70.799 407.00
70.8642 483.00
70.9294 430.00
70.9946 427.00
71.0598 445.00
71.125 465.00
71.1902 465.00
71.2554 465.00
71.3205 473.00
71.3858 451.00
71.451 474.00
71.5162 429.00
71.5813 431.00
71.6465 424.00
71.7117 456.00
71.7769 454.00
71.8421 456.00
71.9073 453.00
71.9725 475.00
72.0377 465.00
72.1029 468.00
72.1681 459.00
72.2333 555.00
72.2985 509.00
72.3637 504.00
72.4289 485.00
72.4941 482.00
72.5593 530.00
72.6245 483.00
72.6897 525.00
72.7549 473.00
72.8201 476.00
72.8853 455.00
72.9505 466.00
73.0157 439.00
73.0809 455.00
73.1461 468.00
73.2113 470.00
73.2765 469.00
73.3417 449.00
73.4069 474.00
73.4721 485.00
73.5373 484.00
73.6025 479.00
73.6677 498.00
73.7329 563.00
73.7981 639.00
73.8633 775.00
73.9285 732.00
73.9937 602.00
74.0589 653.00
74.1241 623.00
74.1893 566.00
74.2545 511.00
74.3197 528.00
74.3849 466.00
74.4501 451.00
74.5153 540.00
74.5805 470.00
74.6457 479.00
74.7109 464.00
74.7761 476.00
74.8413 489.00
74.9065 473.00
74.9717 463.00
75.0369 541.00
75.1021 575.00
75.1673 743.00
75.2325 984.00
75.2977 896.00
75.3629 792.00
75.4281 723.00
75.4933 725.00
75.5585 539.00
75.6237 520.00
75.6889 505.00
75.7541 423.00
75.8193 460.00
75.8845 472.00
75.9497 506.00
76.0149 515.00
76.0801 538.00
76.1452 535.00
76.2104 547.00
76.2756 491.00
76.3409 505.00
76.406 537.00
76.4712 662.00
76.5364 759.00
76.6016 920.00
76.6668 879.00
76.732 777.00
76.7972 735.00
76.8624 724.00
76.9276 595.00
76.9928 501.00
77.058 480.00
77.1232 498.00
77.1884 454.00
77.2536 434.00
77.3188 472.00
77.384 430.00
77.4492 472.00
77.5144 454.00
77.5796 456.00
77.6448 511.00
77.71 474.00
77.7752 484.00
77.8404 541.00
77.9056 674.00
77.9708 716.00
78.036 700.00
78.1012 593.00
78.1664 613.00
78.2316 652.00
78.2968 507.00
78.362 450.00
78.4272 467.00
78.4924 486.00
78.5576 444.00
78.6228 472.00
78.688 420.00
78.7532 432.00
78.8184 437.00
78.8836 442.00
78.9488 434.00
79.014 474.00
79.0792 437.00
79.1444 451.00
79.2096 537.00
79.2748 620.00
79.34 734.00
79.4052 660.00
79.4704 576.00
79.5356 598.00
79.6008 558.00
79.666 521.00
79.7312 470.00
79.7964 437.00
79.8616 431.00
79.9268 410.00
79.992 493.00
80.0572 426.00
80.1224 410.00
80.1876 442.00
80.2528 445.00
80.318 410.00
80.3832 415.00
80.4484 493.00
80.5136 416.00
80.5788 533.00
80.644 613.00
80.7092 655.00
80.7744 553.00
80.8396 542.00
80.9048 542.00
80.9699 553.00
81.0351 459.00
81.1003 468.00
81.1655 522.00
81.2307 457.00
81.2959 505.00
81.3611 494.00
81.4263 476.00
81.4915 492.00
81.5567 510.00
81.6219 506.00
81.6871 492.00
81.7523 560.00
81.8175 575.00
81.8827 671.00
81.9479 727.00
82.0131 889.00
82.0783 787.00
82.1435 725.00
82.2087 728.00
82.2739 710.00
82.3391 647.00
82.4043 553.00
82.4695 506.00
82.5347 454.00
82.5999 455.00
82.6651 491.00
82.7303 468.00
82.7955 476.00
82.8607 477.00
82.9259 479.00
82.9911 510.00
83.0563 513.00
83.1215 622.00
83.1867 695.00
83.2519 898.00
83.3171 1224.00
83.3823 1382.00
83.4475 1067.00
83.5127 992.00
83.5779 1014.00
83.6431 922.00
83.7083 769.00
83.7735 614.00
83.8387 502.00
83.9039 532.00
83.9691 488.00
84.0343 436.00
84.0995 423.00
84.1647 442.00
84.2299 456.00
84.2951 405.00
84.3603 416.00
84.4255 418.00
84.4907 415.00
84.5559 444.00
84.6211 432.00
84.6863 430.00
84.7515 451.00
84.8167 446.00
84.8819 452.00
84.9471 401.00
85.0123 429.00
85.0775 430.00
85.1427 461.00
85.2079 469.00
85.2731 461.00
85.3383 456.00
85.4035 504.00
85.4687 452.00
85.5339 503.00
85.5991 548.00
85.6643 519.00
85.7295 508.00
85.7946 513.00
85.8598 638.00
85.925 788.00
85.9903 946.00
86.0554 1012.00
86.1206 884.00
86.1858 771.00
86.251 773.00
86.3162 760.00
86.3814 711.00
86.4466 534.00
86.5118 479.00
86.577 449.00
86.6422 418.00
86.7074 417.00
86.7726 416.00
86.8378 430.00
86.903 430.00
86.9682 420.00
87.0334 406.00
87.0986 476.00
87.1638 450.00
87.229 496.00
87.2942 532.00
87.3594 566.00
87.4246 520.00
87.4898 466.00
87.555 455.00
87.6202 508.00
87.6854 499.00
87.7506 473.00
87.8158 422.00
87.881 411.00
87.9462 395.00
88.0114 453.00
88.0766 423.00
88.1418 414.00
88.207 400.00
88.2722 445.00
88.3374 444.00
88.4026 452.00
88.4678 450.00
88.533 485.00
88.5982 553.00
88.6634 550.00
88.7286 571.00
88.7938 522.00
88.859 508.00
88.9242 461.00
88.9894 518.00
89.0546 474.00
89.1198 433.00
89.185 385.00
89.2502 425.00
89.3154 440.00
89.3806 446.00
89.4458 422.00
89.511 445.00
89.5762 439.00
89.6414 416.00
89.7066 471.00
89.7718 451.00
89.837 494.00
89.9022 602.00
89.9674 686.00
90.0326 698.00
90.0978 575.00
90.163 543.00
90.2282 539.00
90.2934 550.00
90.3586 521.00
90.4238 478.00
90.489 451.00
90.5542 415.00
90.6193 479.00
90.6845 401.00
90.7497 385.00
90.8149 424.00
90.8801 416.00
90.9453 422.00
91.0105 372.00
91.0757 435.00
91.1409 412.00
91.2061 443.00
91.2713 358.00
91.3365 452.00
91.4017 446.00
91.4669 476.00
91.5321 412.00
91.5973 396.00
91.6625 437.00
91.7277 464.00
91.7929 394.00
91.8581 439.00
91.9233 485.00
91.9885 408.00
92.0537 434.00
92.1189 430.00
92.1841 458.00
92.2493 454.00
92.3145 476.00
92.3797 483.00
92.4449 480.00
92.5101 549.00
92.5753 657.00
92.6405 731.00
92.7057 642.00
92.7709 567.00
92.8361 592.00
92.9013 593.00
92.9665 583.00
93.0317 480.00
93.0969 504.00
93.1621 454.00
93.2273 478.00
93.2925 448.00
93.3577 371.00
93.4229 460.00
93.4881 391.00
93.5533 418.00
93.6185 430.00
93.6837 400.00
93.7489 408.00
93.8141 421.00
93.8793 388.00
93.9445 374.00
94.0097 421.00
94.0749 460.00
94.1401 392.00
94.2053 389.00
94.2705 409.00
94.3357 397.00
94.4009 434.00
94.4661 406.00
94.5313 439.00
94.5965 453.00
94.6617 440.00
94.7269 425.00
94.7921 448.00
94.8573 483.00
94.9225 442.00
94.9877 500.00
95.0529 491.00
95.1181 496.00
95.1833 572.00
95.2485 614.00
95.3137 706.00
95.3789 654.00
95.444 600.00
95.5092 541.00
95.5744 599.00
95.6396 606.00
95.7048 520.00
95.77 472.00
95.8352 439.00
95.9004 467.00
95.9656 474.00
96.0308 451.00
96.096 465.00
96.1612 471.00
96.2264 437.00
96.2916 550.00
96.3568 520.00
96.422 577.00
96.4872 637.00
96.5524 820.00
96.6176 960.00
96.6828 940.00
96.748 863.00
96.8132 732.00
96.8784 738.00
96.9436 733.00
97.0088 719.00
97.074 645.00
97.1392 522.00
97.2044 518.00
97.2696 464.00
97.3348 406.00
97.4 439.00
97.4652 451.00
97.5304 427.00
97.5956 408.00
97.6608 430.00
97.726 461.00
97.7912 467.00
97.8564 548.00
97.9216 687.00
97.9868 693.00
98.052 701.00
98.1172 597.00
98.1824 554.00
98.2476 579.00
98.3128 578.00
98.378 537.00
98.4432 487.00
98.5084 455.00
98.5736 472.00
98.6388 412.00
98.704 446.00
98.7692 399.00
98.8344 389.00
98.8996 417.00
98.9648 410.00
99.03 430.00
99.0952 478.00
99.1604 501.00
99.2256 492.00
99.2908 578.00
99.356 604.00
99.4212 511.00
99.4864 509.00
99.5516 506.00
99.6168 498.00
99.682 533.00
99.7472 481.00
99.8124 453.00
99.8776 459.00
99.9428 377.00
100.008 367.00
100.073 419.00
100.095 416.00