File: data/xrd_creation/results/NSC_143.xy
9.903433 3130.00
9.968632 3217.00
10.0338 3169.00
10.099 3014.00
10.1642 3228.00
10.2294 3020.00
10.2946 3072.00
10.3598 2991.00
10.425 3125.00
10.4902 2937.00
10.5554 2952.00
10.6206 2958.00
10.6858 2836.00
10.751 2972.00
10.8162 2789.00
10.8814 2948.00
10.9466 2873.00
11.0118 2896.00
11.077 2901.00
11.1422 2804.00
11.2074 2790.00
11.2726 2813.00
11.3378 2760.00
11.403 2811.00
11.4682 2802.00
11.5334 2742.00
11.5986 2764.00
11.6638 2808.00
11.729 2745.00
11.7942 2740.00
11.8594 2790.00
11.9246 2652.00
11.9898 2879.00
12.055 2662.00
12.1202 2796.00
12.1854 2742.00
12.2506 2761.00
12.3158 2747.00
12.381 2603.00
12.4462 2613.00
12.5114 2567.00
12.5766 2723.00
12.6418 2720.00
12.707 2677.00
12.7722 2648.00
12.8374 2645.00
12.9026 2638.00
12.9678 2629.00
13.033 2627.00
13.0982 2677.00
13.1634 2636.00
13.2286 2510.00
13.2938 2643.00
13.359 2799.00
13.4242 2627.00
13.4894 2714.00
13.5546 2809.00
13.6198 2975.00
13.685 3001.00
13.7502 3395.00
13.8154 3836.00
13.8805 4865.00
13.9457 6219.00
14.0109 7365.00
14.0761 6148.00
14.1413 3518.00
14.2065 2969.00
14.2717 2939.00
14.3369 2929.00
14.4021 3044.00
14.4673 2977.00
14.5325 2896.00
14.5977 2910.00
14.6629 2941.00
14.7281 2930.00
14.7933 2921.00
14.8585 2761.00
14.9237 2705.00
14.9889 2553.00
15.0541 2588.00
15.1193 2495.00
15.1845 2652.00
15.2497 2543.00
15.3149 2558.00
15.3801 2554.00
15.4453 2423.00
15.5105 2580.00
15.5757 2418.00
15.6409 2653.00
15.7061 2447.00
15.7713 2438.00
15.8365 2417.00
15.9017 2483.00
15.9669 2391.00
16.0321 2480.00
16.0973 2405.00
16.1625 2512.00
16.2277 2511.00
16.2929 2511.00
16.3581 2447.00
16.4233 2461.00
16.4885 2478.00
16.5537 2448.00
16.6189 2468.00
16.6841 2506.00
16.7493 2469.00
16.8145 2454.00
16.8797 2442.00
16.9449 2379.00
17.0101 2468.00
17.0753 2382.00
17.1405 2383.00
17.2057 2450.00
17.2709 2496.00
17.3361 2408.00
17.4013 2423.00
17.4665 2373.00
17.5317 2486.00
17.5969 2387.00
17.6621 2378.00
17.7273 2377.00
17.7925 2452.00
17.8577 2470.00
17.9229 2294.00
17.9881 2358.00
18.0533 2321.00
18.1185 2419.00
18.1837 2522.00
18.2489 2539.00
18.3141 2489.00
18.3793 2494.00
18.4445 2427.00
18.5097 2404.00
18.5749 2383.00
18.6401 2357.00
18.7052 2396.00
18.7704 2384.00
18.8356 2388.00
18.9008 2427.00
18.966 2528.00
19.0312 2582.00
19.0964 2476.00
19.1616 2638.00
19.2268 2707.00
19.292 2773.00
19.3572 2936.00
19.4224 3326.00
19.4876 4153.00
19.5528 5779.00
19.618 8785.00
19.6832 13124.00
19.7484 13814.00
19.8136 10149.00
19.8788 5425.00
19.944 3067.00
20.0092 2641.00
20.0744 2434.00
20.1396 2364.00
20.2048 2304.00
20.27 2224.00
20.3352 2300.00
20.4004 2278.00
20.4656 2372.00
20.5308 2302.00
20.596 2404.00
20.6612 2384.00
20.7264 2801.00
20.7916 3158.00
20.8568 3066.00
20.922 2659.00
20.9872 2361.00
21.0524 2134.00
21.1176 2145.00
21.1828 2253.00
21.248 2049.00
21.3132 2049.00
21.3784 2099.00
21.4436 2225.00
21.5088 2328.00
21.574 2288.00
21.6392 2448.00
21.7044 2215.00
21.7696 2246.00
21.8348 2164.00
21.9 2135.00
21.9652 2188.00
22.0304 2206.00
22.0956 2093.00
22.1608 2201.00
22.226 2263.00
22.2912 2219.00
22.3564 2380.00
22.4216 2489.00
22.4868 2401.00
22.552 2543.00
22.6172 2553.00
22.6824 2526.00
22.7476 2594.00
22.8128 2720.00
22.878 3092.00
22.9432 4013.00
23.0084 5921.00
23.0736 8827.00
23.1388 10638.00
23.204 6846.00
23.2692 3465.00
23.3344 2836.00
23.3996 2720.00
23.4647 2702.00
23.5299 2644.00
23.5951 2806.00
23.6603 2863.00
23.7255 2701.00
23.7907 2518.00
23.8559 2411.00
23.9211 2307.00
23.9863 2429.00
24.0515 2713.00
24.1167 3017.00
24.1819 2865.00
24.2471 2418.00
24.3123 2265.00
24.3775 2313.00
24.4427 2124.00
24.5079 2187.00
24.5731 2143.00
24.6383 2282.00
24.7035 2269.00
24.7687 2247.00
24.8339 2201.00
24.8991 2279.00
24.9643 2135.00
25.0295 2240.00
25.0947 2156.00
25.1599 2201.00
25.2251 2227.00
25.2903 2200.00
25.3555 2120.00
25.4207 2164.00
25.4859 2096.00
25.5511 2239.00
25.6163 2108.00
25.6815 2095.00
25.7467 2077.00
25.8119 2115.00
25.8771 2145.00
25.9423 2137.00
26.0075 2170.00
26.0727 2094.00
26.1379 2153.00
26.2031 2103.00
26.2683 2214.00
26.3335 2169.00
26.3987 2155.00
26.4639 2298.00
26.5291 2240.00
26.5943 2369.00
26.6595 2179.00
26.7247 2331.00
26.7899 2299.00
26.8551 2387.00
26.9203 2345.00
26.9855 2493.00
27.0507 2312.00
27.1159 2358.00
27.1811 2267.00
27.2463 2320.00
27.3115 2280.00
27.3767 2214.00
27.4419 2225.00
27.5071 2185.00
27.5723 2179.00
27.6375 2297.00
27.7027 2448.00
27.7679 3140.00
27.8331 4306.00
27.8983 5981.00
27.9635 5459.00
28.0287 3419.00
28.0939 2431.00
28.1591 2095.00
28.2243 2284.00
28.2894 2046.00
28.3546 2082.00
28.4198 2077.00
28.485 2163.00
28.5502 2050.00
28.6154 2189.00
28.6806 2115.00
28.7458 2086.00
28.811 2217.00
28.8762 2139.00
28.9414 2244.00
29.0066 2280.00
29.0718 2302.00
29.137 2484.00
29.2022 2847.00
29.2674 3404.00
29.3326 4627.00
29.3978 7391.00
29.463 9900.00
29.5282 8108.00
29.5934 4799.00
29.6586 3136.00
29.7238 2729.00
29.789 2445.00
29.8542 2255.00
29.9194 2294.00
29.9846 2281.00
30.0498 2311.00
30.115 2315.00
30.1802 2441.00
30.2454 2598.00
30.3106 3077.00
30.3758 3627.00
30.441 3341.00
30.5062 2734.00
30.5714 2509.00
30.6366 2463.00
30.7018 2418.00
30.767 2474.00
30.8322 2692.00
30.8974 2844.00
30.9626 3152.00
31.0278 3794.00
31.093 5527.00
31.1582 8879.00
31.2234 13915.00
31.2886 19276.00
31.3538 17756.00
31.419 10428.00
31.4842 4656.00
31.5494 2765.00
31.6146 2559.00
31.6798 2287.00
31.745 2275.00
31.8102 2188.00
31.8754 2060.00
31.9406 2050.00
32.0058 1996.00
32.071 2161.00
32.1362 2265.00
32.2014 2389.00
32.2666 2538.00
32.3318 2644.00
32.397 2700.00
32.4622 2672.00
32.5274 2642.00
32.5926 2635.00
32.6578 2521.00
32.723 2541.00
32.7882 2652.00
32.8534 2523.00
32.9186 2542.00
32.9838 2384.00
33.0489 2305.00
33.1141 2221.00
33.1793 2085.00
33.2445 2046.00
33.3097 2023.00
33.3749 2012.00
33.4401 2045.00
33.5053 2168.00
33.5705 2070.00
33.6357 2105.00
33.7009 2154.00
33.7661 2298.00
33.8313 2475.00
33.8965 2819.00
33.9617 3478.00
34.0269 5257.00
34.0921 8723.00
34.1573 15171.00
34.2225 19352.00
34.2877 13958.00
34.3529 7764.00
34.4181 4235.00
34.4833 2991.00
34.5485 2629.00
34.6137 2377.00
34.6789 2116.00
34.7441 2045.00
34.8093 2015.00
34.8745 1893.00
34.9397 1930.00
35.0049 1962.00
35.0701 1899.00
35.1353 1906.00
35.2005 1834.00
35.2657 1874.00
35.3309 1770.00
35.3961 1906.00
35.4613 1847.00
35.5265 1767.00
35.5917 1828.00
35.6569 1780.00
35.7221 1703.00
35.7873 1905.00
35.8525 1737.00
35.9177 1817.00
35.9829 1942.00
36.0481 1933.00
36.1133 1837.00
36.1785 2121.00
36.2437 2174.00
36.3089 1988.00
36.3741 1939.00
36.4393 1874.00
36.5045 1803.00
36.5697 1843.00
36.6349 1832.00
36.7001 1862.00
36.7653 1792.00
36.8305 1805.00
36.8957 1783.00
36.9609 1807.00
37.0261 1788.00
37.0913 1865.00
37.1565 1812.00
37.2217 1804.00
37.2869 1799.00
37.3521 1821.00
37.4173 1810.00
37.4825 1835.00
37.5477 1797.00
37.6129 1784.00
37.6781 1746.00
37.7433 1786.00
37.8085 1728.00
37.8736 1753.00
37.9388 1692.00
38.004 1685.00
38.0692 1740.00
38.1344 1767.00
38.1996 1766.00
38.2648 1811.00
38.33 1776.00
38.3952 1820.00
38.4604 1811.00
38.5256 1808.00
38.5908 1787.00
38.656 1760.00
38.7212 1753.00
38.7864 1752.00
38.8516 1717.00
38.9168 1777.00
38.982 1786.00
39.0472 1800.00
39.1124 1781.00
39.1776 1752.00
39.2428 1822.00
39.308 1784.00
39.3732 1733.00
39.4384 1888.00
39.5036 1840.00
39.5688 2073.00
39.634 2047.00
39.6992 2016.00
39.7644 1917.00
39.8296 1756.00
39.8948 1811.00
39.96 1886.00
40.0252 1836.00
40.0904 1988.00
40.1556 2203.00
40.2208 2081.00
40.286 2017.00
40.3512 1927.00
40.4164 1853.00
40.4816 1718.00
40.5468 1835.00
40.612 1796.00
40.6772 1878.00
40.7424 1894.00
40.8076 1816.00
40.8728 1837.00
40.938 1781.00
41.0032 1863.00
41.0684 1882.00
41.1336 1842.00
41.1988 1716.00
41.264 1862.00
41.3292 1889.00
41.3944 2051.00
41.4596 2523.00
41.5248 3072.00
41.59 3154.00
41.6552 2835.00
41.7204 2544.00
41.7856 2322.00
41.8508 2205.00
41.916 2150.00
41.9812 2227.00
42.0464 2518.00
42.1116 2905.00
42.1768 3577.00
42.242 3688.00
42.3072 3123.00
42.3724 2783.00
42.4376 2376.00
42.5028 2263.00
42.568 2180.00
42.6332 1975.00
42.6983 2009.00
42.7635 1935.00
42.8287 1908.00
42.8939 2006.00
42.9591 1871.00
43.0243 1927.00
43.0895 2060.00
43.1547 1816.00
43.2199 1819.00
43.2851 1844.00
43.3503 1844.00
43.4155 1772.00
43.4807 1829.00
43.5459 1877.00
43.6111 1968.00
43.6763 2146.00
43.7415 2333.00
43.8067 2519.00
43.8719 2369.00
43.9371 2141.00
44.0023 2009.00
44.0675 1874.00
44.1327 1897.00
44.1979 1960.00
44.2631 1933.00
44.3283 1990.00
44.3935 2070.00
44.4587 2411.00
44.5239 3036.00
44.5891 3153.00
44.6543 2681.00
44.7195 2199.00
44.7847 2051.00
44.8499 1801.00
44.9151 1831.00
44.9803 1808.00
45.0455 1767.00
45.1107 1811.00
45.1759 1778.00
45.2411 1787.00
45.3063 1897.00
45.3715 1992.00
45.4367 1971.00
45.5019 2144.00
45.5671 1963.00
45.6323 1998.00
45.6975 2020.00
45.7627 1950.00
45.8279 1928.00
45.8931 1946.00
45.9583 1854.00
46.0235 1962.00
46.0887 1895.00
46.1539 1907.00
46.2191 1927.00
46.2843 1984.00
46.3495 2010.00
46.4147 2191.00
46.4799 2247.00
46.5451 2326.00
46.6103 2489.00
46.6755 2989.00
46.7407 4273.00
46.8059 6541.00
46.8711 9112.00
46.9363 8211.00
47.0015 6555.00
47.0667 4963.00
47.1319 3514.00
47.1971 2975.00
47.2623 2529.00
47.3275 2322.00
47.3927 2074.00
47.4579 2199.00
47.523 2130.00
47.5882 2181.00
47.6534 2095.00
47.7186 2025.00
47.7838 2008.00
47.849 2038.00
47.9142 1962.00
47.9794 2038.00
48.0446 2004.00
48.1098 2025.00
48.175 1963.00
48.2402 2045.00
48.3054 1997.00
48.3706 2025.00
48.4358 2113.00
48.501 2036.00
48.5662 2162.00
48.6314 2311.00
48.6966 2744.00
48.7618 3794.00
48.827 4533.00
48.8922 4161.00
48.9574 3905.00
49.0226 3280.00
49.0878 2792.00
49.153 2649.00
49.2182 2464.00
49.2834 2579.00
49.3486 2550.00
49.4138 2485.00
49.479 2338.00
49.5442 2131.00
49.6094 1911.00
49.6746 1882.00
49.7398 1787.00
49.805 1807.00
49.8702 1819.00
49.9354 1763.00
50.0006 1664.00
50.0658 1783.00
50.131 1740.00
50.1962 1802.00
50.2614 1707.00
50.3266 1881.00
50.3918 1939.00
50.457 1818.00
50.5222 1961.00
50.5874 2044.00
50.6526 2102.00
50.7178 2141.00
50.783 2069.00
50.8482 2019.00
50.9134 1902.00
50.9786 2030.00
51.0438 2134.00
51.109 2378.00
51.1742 2524.00
51.2394 2808.00
51.3046 2987.00
51.3698 3207.00
51.435 2961.00
51.5002 2575.00
51.5654 2094.00
51.6306 1905.00
51.6958 1779.00
51.761 1758.00
51.8262 1794.00
51.8914 1706.00
51.9566 1671.00
52.0218 1725.00
52.087 1594.00
52.1522 1632.00
52.2174 1656.00
52.2826 1837.00
52.3477 1695.00
52.4129 1712.00
52.4781 1687.00
52.5433 1790.00
52.6085 1698.00
52.6737 1795.00
52.7389 1811.00
52.8041 1877.00
52.8693 1890.00
52.9345 2066.00
52.9997 2214.00
53.0649 2668.00
53.1301 3653.00
53.1953 4229.00
53.2605 3937.00
53.3257 3499.00
53.3909 3096.00
53.4561 2765.00
53.5213 2623.00
53.5865 2539.00
53.6517 2360.00
53.7169 2073.00
53.7821 1938.00
53.8473 1848.00
53.9125 1833.00
53.9777 1794.00
54.0429 1775.00
54.1081 1699.00
54.1733 1670.00
54.2385 1794.00
54.3037 1779.00
54.3689 1727.00
54.4341 1777.00
54.4993 1741.00
54.5645 1817.00
54.6297 1961.00
54.6949 2045.00
54.7601 2037.00
54.8253 1992.00
54.8905 1901.00
54.9557 1838.00
55.0209 1741.00
55.0861 1783.00
55.1513 1775.00
55.2165 1660.00
55.2817 1728.00
55.3469 1589.00
55.4121 1643.00
55.4773 1599.00
55.5425 1663.00
55.6077 1594.00
55.6729 1628.00
55.7381 1638.00
55.8033 1680.00
55.8685 1632.00
55.9337 1724.00
55.9989 1685.00
56.0641 1649.00
56.1293 1724.00
56.1945 1671.00
56.2597 1864.00
56.3249 1844.00
56.3901 1957.00
56.4553 2003.00
56.5205 2006.00
56.5857 1867.00
56.6509 1879.00
56.7161 1830.00
56.7813 1690.00
56.8465 1730.00
56.9117 1605.00
56.9769 1638.00
57.042 1664.00
57.1073 1621.00
57.1724 1579.00
57.2376 1681.00
57.3028 1627.00
57.368 1616.00
57.4332 1740.00
57.4984 1722.00
57.5636 1679.00
57.6288 1760.00
57.694 1866.00
57.7592 2106.00
57.8244 2587.00
57.8896 3135.00
57.9548 3040.00
58.02 2639.00
58.0852 2390.00
58.1504 2098.00
58.2156 2029.00
58.2808 1825.00
58.346 1799.00
58.4112 1712.00
58.4764 1607.00
58.5416 1705.00
58.6068 1720.00
58.672 1685.00
58.7372 1812.00
58.8024 1857.00
58.8676 2031.00
58.9328 2298.00
58.998 2861.00
59.0632 3786.00
59.1284 4951.00
59.1936 4358.00
59.2588 4374.00
59.324 3902.00
59.3892 3108.00
59.4544 2676.00
59.5196 2254.00
59.5848 2041.00
59.65 1908.00
59.7152 1827.00
59.7804 1830.00
59.8456 1817.00
59.9108 1815.00
59.976 1690.00
60.0412 1783.00
60.1064 1697.00
60.1716 1716.00
60.2368 1718.00
60.302 1721.00
60.3672 1631.00
60.4324 1854.00
60.4976 1820.00
60.5628 1915.00
60.628 1958.00
60.6932 2226.00
60.7584 2317.00
60.8236 2623.00
60.8888 3167.00
60.954 3422.00
61.0192 3224.00
61.0844 3289.00
61.1496 3127.00
61.2148 2973.00
61.28 2823.00
61.3452 2603.00
61.4104 2350.00
61.4756 2080.00
61.5408 1914.00
61.606 1783.00
61.6712 1753.00
61.7364 1671.00
61.8016 1657.00
61.8667 1658.00
61.932 1686.00
61.9971 1655.00
62.0623 1684.00
62.1275 1730.00
62.1927 1708.00
62.2579 1747.00
62.3231 1789.00
62.3883 1654.00
62.4535 1679.00
62.5187 1734.00
62.5839 1645.00
62.6491 1643.00
62.7143 1727.00
62.7795 1742.00
62.8447 1751.00
62.9099 1808.00
62.9751 1835.00
63.0403 1778.00
63.1055 1761.00
63.1707 1751.00
63.2359 1629.00
63.3011 1606.00
63.3663 1599.00
63.4315 1636.00
63.4967 1605.00
63.5619 1621.00
63.6271 1556.00
63.6923 1558.00
63.7575 1637.00
63.8227 1567.00
63.8879 1558.00
63.9531 1538.00
64.0183 1603.00
64.0835 1575.00
64.1487 1548.00
64.2139 1647.00
64.2791 1537.00
64.3443 1688.00
64.4095 1710.00
64.4747 1727.00
64.5399 1758.00
64.6051 1834.00
64.6703 1912.00
64.7355 1840.00
64.8007 1914.00
64.8659 1813.00
64.9311 1761.00
64.9963 1833.00
65.0615 1699.00
65.1267 1656.00
65.1919 1625.00
65.2571 1633.00
65.3223 1530.00
65.3875 1542.00
65.4527 1545.00
65.5179 1554.00
65.5831 1517.00
65.6483 1567.00
65.7135 1544.00
65.7787 1601.00
65.8439 1612.00
65.9091 1831.00
65.9743 1826.00
66.0395 1891.00
66.1047 1914.00
66.1699 1838.00
66.2351 1765.00
66.3003 1738.00
66.3655 1850.00
66.4307 1859.00
66.4959 1870.00
66.561 1852.00
66.6263 1981.00
66.6915 1801.00
66.7566 1827.00
66.8218 1753.00
66.887 1625.00
66.9522 1596.00
67.0174 1582.00
67.0826 1570.00
67.1478 1520.00
67.213 1503.00
67.2782 1480.00
67.3434 1484.00
67.4086 1521.00
67.4738 1570.00
67.539 1516.00
67.6042 1525.00
67.6694 1497.00
67.7346 1570.00
67.7998 1582.00
67.865 1569.00
67.9302 1498.00
67.9954 1614.00
68.0606 1746.00
68.1258 1881.00
68.191 1927.00
68.2562 1812.00
68.3214 1745.00
68.3866 1791.00
68.4518 1694.00
68.517 1641.00
68.5822 1648.00
68.6474 1634.00
68.7126 1605.00
68.7778 1605.00
68.843 1606.00
68.9082 1577.00
68.9734 1550.00
69.0386 1460.00
69.1038 1552.00
69.169 1553.00
69.2342 1447.00
69.2994 1467.00
69.3646 1532.00
69.4298 1503.00
69.495 1567.00
69.5602 1475.00
69.6254 1619.00
69.6906 1640.00
69.7558 1569.00
69.821 1544.00
69.8862 1491.00
69.9514 1520.00
70.0166 1609.00
70.0818 1552.00
70.147 1506.00
70.2122 1517.00
70.2774 1511.00
70.3426 1483.00
70.4078 1516.00
70.473 1511.00
70.5382 1432.00
70.6034 1440.00
70.6686 1516.00
70.7338 1424.00
70.799 1510.00
70.8642 1519.00
70.9294 1474.00
70.9946 1494.00
71.0598 1469.00
71.125 1685.00
71.1902 1657.00
71.2554 1671.00
71.3205 1770.00
71.3858 1724.00
71.451 1942.00
71.5162 2153.00
71.5813 2499.00
71.6465 2372.00
71.7117 2174.00
71.7769 2212.00
71.8421 1915.00
71.9073 1800.00
71.9725 1749.00
72.0377 1617.00
72.1029 1729.00
72.1681 1559.00
72.2333 1592.00
72.2985 1592.00
72.3637 1602.00
72.4289 1562.00
72.4941 1601.00
72.5593 1650.00
72.6245 1603.00
72.6897 1598.00
72.7549 1641.00
72.8201 1619.00
72.8853 1678.00
72.9505 1552.00
73.0157 1620.00
73.0809 1555.00
73.1461 1598.00
73.2113 1589.00
73.2765 1587.00
73.3417 1710.00
73.4069 1555.00
73.4721 1586.00
73.5373 1590.00
73.6025 1612.00
73.6677 1553.00
73.7329 1508.00
73.7981 1528.00
73.8633 1577.00
73.9285 1596.00
73.9937 1541.00
74.0589 1499.00
74.1241 1464.00
74.1893 1504.00
74.2545 1424.00
74.3197 1489.00
74.3849 1553.00
74.4501 1429.00
74.5153 1428.00
74.5805 1494.00
74.6457 1432.00
74.7109 1500.00
74.7761 1530.00
74.8413 1630.00
74.9065 1684.00
74.9717 1809.00
75.0369 1822.00
75.1021 1827.00
75.1673 1903.00
75.2325 1940.00
75.2977 1833.00
75.3629 1816.00
75.4281 1749.00
75.4933 1740.00
75.5585 1766.00
75.6237 1704.00
75.6889 1514.00
75.7541 1545.00
75.8193 1576.00
75.8845 1473.00
75.9497 1521.00
76.0149 1469.00
76.0801 1469.00
76.1452 1509.00
76.2104 1528.00
76.2756 1518.00
76.3409 1546.00
76.406 1502.00
76.4712 1468.00
76.5364 1567.00
76.6016 1536.00
76.6668 1586.00
76.732 1680.00
76.7972 1526.00
76.8624 1587.00
76.9276 1568.00
76.9928 1555.00
77.058 1498.00
77.1232 1553.00
77.1884 1380.00
77.2536 1510.00
77.3188 1474.00
77.384 1481.00
77.4492 1569.00
77.5144 1499.00
77.5796 1594.00
77.6448 1558.00
77.71 1557.00
77.7752 1522.00
77.8404 1652.00
77.9056 1526.00
77.9708 1491.00
78.036 1493.00
78.1012 1483.00
78.1664 1496.00
78.2316 1530.00
78.2968 1452.00
78.362 1548.00
78.4272 1486.00
78.4924 1505.00
78.5576 1468.00
78.6228 1601.00
78.688 1502.00
78.7532 1611.00
78.8184 1865.00
78.8836 1717.00
78.9488 1705.00
79.014 1709.00
79.0792 1684.00
79.1444 1567.00
79.2096 1551.00
79.2748 1509.00
79.34 1527.00
79.4052 1501.00
79.4704 1532.00
79.5356 1578.00
79.6008 1564.00
79.666 1583.00
79.7312 1582.00
79.7964 1647.00
79.8616 1846.00
79.9268 1983.00
79.992 2159.00
80.0572 2155.00
80.1224 2095.00
80.1876 1962.00
80.2528 2058.00
80.318 1756.00
80.3832 1746.00
80.4484 1705.00
80.5136 1547.00
80.5788 1640.00
80.644 1592.00
80.7092 1555.00
80.7744 1584.00
80.8396 1546.00
80.9048 1578.00
80.9699 1538.00
81.0351 1573.00
81.1003 1513.00
81.1655 1622.00
81.2307 1610.00
81.2959 1697.00
81.3611 1627.00
81.4263 1638.00
81.4915 1704.00
81.5567 1741.00
81.6219 1686.00
81.6871 1675.00
81.7523 1704.00
81.8175 1770.00
81.8827 1940.00
81.9479 1754.00
82.0131 1778.00
82.0783 1663.00
82.1435 1657.00
82.2087 1717.00
82.2739 1563.00
82.3391 1576.00
82.4043 1565.00
82.4695 1611.00
82.5347 1572.00
82.5999 1576.00
82.6651 1524.00
82.7303 1539.00
82.7955 1482.00
82.8607 1488.00
82.9259 1502.00
82.9911 1572.00
83.0563 1521.00
83.1215 1512.00
83.1867 1427.00
83.2519 1458.00
83.3171 1432.00
83.3823 1535.00
83.4475 1507.00
83.5127 1459.00
83.5779 1538.00
83.6431 1492.00
83.7083 1538.00
83.7735 1611.00
83.8387 1511.00
83.9039 1484.00
83.9691 1483.00
84.0343 1495.00
84.0995 1415.00
84.1647 1418.00
84.2299 1444.00
84.2951 1413.00
84.3603 1472.00
84.4255 1435.00
84.4907 1325.00
84.5559 1432.00
84.6211 1470.00
84.6863 1452.00
84.7515 1492.00
84.8167 1484.00
84.8819 1554.00
84.9471 1481.00
85.0123 1498.00
85.0775 1585.00
85.1427 1462.00
85.2079 1549.00
85.2731 1508.00
85.3383 1466.00
85.4035 1488.00
85.4687 1491.00
85.5339 1553.00
85.5991 1506.00
85.6643 1442.00
85.7295 1496.00
85.7946 1392.00
85.8598 1488.00
85.925 1482.00
85.9903 1444.00
86.0554 1497.00
86.1206 1528.00
86.1858 1610.00
86.251 1563.00
86.3162 1572.00
86.3814 1674.00
86.4466 1663.00
86.5118 1723.00
86.577 1772.00
86.6422 1743.00
86.7074 1805.00
86.7726 1668.00
86.8378 1645.00
86.903 1694.00
86.9682 1697.00
87.0334 1597.00
87.0986 1518.00
87.1638 1493.00
87.229 1490.00
87.2942 1539.00
87.3594 1587.00
87.4246 1541.00
87.4898 1480.00
87.555 1601.00
87.6202 1520.00
87.6854 1570.00
87.7506 1470.00
87.8158 1444.00
87.881 1502.00
87.9462 1472.00
88.0114 1550.00
88.0766 1585.00
88.1418 1560.00
88.207 1501.00
88.2722 1631.00
88.3374 1506.00
88.4026 1480.00
88.4678 1584.00
88.533 1594.00
88.5982 1556.00
88.6634 1560.00
88.7286 1535.00
88.7938 1602.00
88.859 1575.00
88.9242 1519.00
88.9894 1483.00
89.0546 1473.00
89.1198 1510.00
89.185 1503.00
89.2502 1429.00
89.3154 1450.00
89.3806 1492.00
89.4458 1530.00
89.511 1582.00
89.5762 1575.00
89.6414 1651.00
89.7066 1713.00
89.7718 1750.00
89.837 1817.00
89.9022 1727.00
89.9674 1707.00
90.0326 1677.00
90.0978 1657.00
90.163 1564.00
90.2282 1554.00
90.2934 1522.00
90.3586 1530.00
90.4238 1491.00
90.489 1513.00
90.5542 1489.00
90.6193 1456.00
90.6845 1474.00
90.7497 1492.00
90.8149 1508.00
90.8801 1616.00
90.9453 1640.00
91.0105 1691.00
91.0757 1637.00
91.1409 1664.00
91.2061 1715.00
91.2713 1705.00
91.3365 1649.00
91.4017 1675.00
91.4669 1745.00
91.5321 1611.00
91.5973 1740.00
91.6625 1650.00
91.7277 1663.00
91.7929 1643.00
91.8581 1656.00
91.9233 1613.00
91.9885 1574.00
92.0537 1545.00
92.1189 1625.00
92.1841 1584.00
92.2493 1474.00
92.3145 1555.00
92.3797 1535.00
92.4449 1494.00
92.5101 1565.00
92.5753 1500.00
92.6405 1495.00
92.7057 1507.00
92.7709 1518.00
92.8361 1565.00
92.9013 1471.00
92.9665 1466.00
93.0317 1578.00
93.0969 1623.00
93.1621 1578.00
93.2273 1590.00
93.2925 1573.00
93.3577 1649.00
93.4229 1566.00
93.4881 1546.00
93.5533 1557.00
93.6185 1515.00
93.6837 1593.00
93.7489 1532.00
93.8141 1437.00
93.8793 1431.00
93.9445 1445.00
94.0097 1474.00
94.0749 1469.00
94.1401 1455.00
94.2053 1501.00
94.2705 1507.00
94.3357 1394.00
94.4009 1494.00
94.4661 1530.00
94.5313 1522.00
94.5965 1523.00
94.6617 1726.00
94.7269 1483.00
94.7921 1544.00
94.8573 1600.00
94.9225 1569.00
94.9877 1600.00
95.0529 1547.00
95.1181 1568.00
95.1833 1576.00
95.2485 1596.00
95.3137 1536.00
95.3789 1488.00
95.444 1499.00
95.5092 1562.00
95.5744 1503.00
95.6396 1476.00
95.7048 1573.00
95.77 1541.00
95.8352 1553.00
95.9004 1503.00
95.9656 1528.00
96.0308 1521.00
96.096 1500.00
96.1612 1489.00
96.2264 1554.00
96.2916 1505.00
96.3568 1502.00
96.422 1408.00
96.4872 1414.00
96.5524 1490.00
96.6176 1459.00
96.6828 1445.00
96.748 1437.00
96.8132 1404.00
96.8784 1410.00
96.9436 1402.00
97.0088 1388.00
97.074 1412.00
97.1392 1438.00
97.2044 1404.00
97.2696 1443.00
97.3348 1449.00
97.4 1421.00
97.4652 1480.00
97.5304 1550.00
97.5956 1383.00
97.6608 1513.00
97.726 1397.00
97.7912 1443.00
97.8564 1503.00
97.9216 1447.00
97.9868 1431.00
98.052 1558.00
98.1172 1548.00
98.1824 1565.00
98.2476 1538.00
98.3128 1597.00
98.378 1649.00
98.4432 1614.00
98.5084 1544.00
98.5736 1568.00
98.6388 1514.00
98.704 1446.00
98.7692 1514.00
98.8344 1424.00
98.8996 1453.00
98.9648 1463.00
99.03 1492.00
99.0952 1514.00
99.1604 1547.00
99.2256 1530.00
99.2908 1626.00
99.356 1587.00
99.4212 1721.00
99.4864 1830.00
99.5516 1860.00
99.6168 1864.00
99.682 1792.00
99.7472 1732.00
99.8124 1733.00
99.8776 1657.00
99.9428 1629.00
100.008 1693.00
100.073 1605.00
100.095 1645.00