File: data/xrd_creation/results/NSC_159.xy
9.903433 2784.00
9.968632 2793.00
10.0338 2781.00
10.099 2778.00
10.1642 2812.00
10.2294 2637.00
10.2946 2730.00
10.3598 2738.00
10.425 2735.00
10.4902 2637.00
10.5554 2694.00
10.6206 2742.00
10.6858 2645.00
10.751 2555.00
10.8162 2600.00
10.8814 2552.00
10.9466 2558.00
11.0118 2483.00
11.077 2466.00
11.1422 2559.00
11.2074 2488.00
11.2726 2469.00
11.3378 2503.00
11.403 2371.00
11.4682 2466.00
11.5334 2342.00
11.5986 2425.00
11.6638 2467.00
11.729 2306.00
11.7942 2244.00
11.8594 2314.00
11.9246 2225.00
11.9898 2262.00
12.055 2309.00
12.1202 2320.00
12.1854 2341.00
12.2506 2359.00
12.3158 2231.00
12.381 2245.00
12.4462 2251.00
12.5114 2195.00
12.5766 2149.00
12.6418 2124.00
12.707 2152.00
12.7722 2055.00
12.8374 2133.00
12.9026 2140.00
12.9678 2088.00
13.033 2025.00
13.0982 2024.00
13.1634 2045.00
13.2286 2017.00
13.2938 2045.00
13.359 2086.00
13.4242 2017.00
13.4894 2045.00
13.5546 1990.00
13.6198 2068.00
13.685 2035.00
13.7502 1959.00
13.8154 1937.00
13.8805 1989.00
13.9457 1972.00
14.0109 1900.00
14.0761 1908.00
14.1413 1949.00
14.2065 1978.00
14.2717 1920.00
14.3369 1925.00
14.4021 1977.00
14.4673 1910.00
14.5325 1920.00
14.5977 1842.00
14.6629 1845.00
14.7281 1893.00
14.7933 1802.00
14.8585 1952.00
14.9237 1853.00
14.9889 1906.00
15.0541 1836.00
15.1193 1847.00
15.1845 1884.00
15.2497 1866.00
15.3149 1737.00
15.3801 1910.00
15.4453 1895.00
15.5105 1763.00
15.5757 1839.00
15.6409 1820.00
15.7061 1739.00
15.7713 1726.00
15.8365 1778.00
15.9017 1783.00
15.9669 1791.00
16.0321 1743.00
16.0973 1767.00
16.1625 1726.00
16.2277 1796.00
16.2929 1799.00
16.3581 1789.00
16.4233 1765.00
16.4885 1815.00
16.5537 1821.00
16.6189 1813.00
16.6841 1780.00
16.7493 1863.00
16.8145 1922.00
16.8797 2039.00
16.9449 2017.00
17.0101 2186.00
17.0753 2209.00
17.1405 2314.00
17.2057 2447.00
17.2709 2389.00
17.3361 2255.00
17.4013 1842.00
17.4665 1751.00
17.5317 1715.00
17.5969 1686.00
17.6621 1697.00
17.7273 1730.00
17.7925 1687.00
17.8577 1595.00
17.9229 1682.00
17.9881 1663.00
18.0533 1708.00
18.1185 1649.00
18.1837 1582.00
18.2489 1666.00
18.3141 1606.00
18.3793 1571.00
18.4445 1638.00
18.5097 1681.00
18.5749 1721.00
18.6401 1580.00
18.7052 1668.00
18.7704 1588.00
18.8356 1568.00
18.9008 1678.00
18.966 1651.00
19.0312 1629.00
19.0964 1672.00
19.1616 1588.00
19.2268 1587.00
19.292 1670.00
19.3572 1538.00
19.4224 1505.00
19.4876 1594.00
19.5528 1514.00
19.618 1560.00
19.6832 1527.00
19.7484 1505.00
19.8136 1606.00
19.8788 1559.00
19.944 1599.00
20.0092 1572.00
20.0744 1563.00
20.1396 1611.00
20.2048 1522.00
20.27 1567.00
20.3352 1514.00
20.4004 1556.00
20.4656 1601.00
20.5308 1728.00
20.596 1823.00
20.6612 2157.00
20.7264 2501.00
20.7916 3030.00
20.8568 3430.00
20.922 3810.00
20.9872 4311.00
21.0524 5613.00
21.1176 6821.00
21.1828 7590.00
21.248 6319.00
21.3132 4893.00
21.3784 4011.00
21.4436 3261.00
21.5088 2402.00
21.574 1837.00
21.6392 1673.00
21.7044 1574.00
21.7696 1566.00
21.8348 1556.00
21.9 1496.00
21.9652 1526.00
22.0304 1430.00
22.0956 1455.00
22.1608 1485.00
22.226 1394.00
22.2912 1437.00
22.3564 1440.00
22.4216 1447.00
22.4868 1409.00
22.552 1415.00
22.6172 1490.00
22.6824 1372.00
22.7476 1464.00
22.8128 1456.00
22.878 1468.00
22.9432 1429.00
23.0084 1523.00
23.0736 1434.00
23.1388 1489.00
23.204 1394.00
23.2692 1451.00
23.3344 1350.00
23.3996 1476.00
23.4647 1470.00
23.5299 1429.00
23.5951 1372.00
23.6603 1423.00
23.7255 1385.00
23.7907 1423.00
23.8559 1427.00
23.9211 1386.00
23.9863 1437.00
24.0515 1451.00
24.1167 1395.00
24.1819 1416.00
24.2471 1471.00
24.3123 1382.00
24.3775 1351.00
24.4427 1353.00
24.5079 1397.00
24.5731 1373.00
24.6383 1379.00
24.7035 1373.00
24.7687 1502.00
24.8339 1494.00
24.8991 1528.00
24.9643 1648.00
25.0295 1698.00
25.0947 1874.00
25.1599 1952.00
25.2251 2135.00
25.2903 2181.00
25.3555 1863.00
25.4207 1577.00
25.4859 1554.00
25.5511 1594.00
25.6163 1527.00
25.6815 1485.00
25.7467 1434.00
25.8119 1306.00
25.8771 1329.00
25.9423 1309.00
26.0075 1325.00
26.0727 1277.00
26.1379 1310.00
26.2031 1316.00
26.2683 1325.00
26.3335 1391.00
26.3987 1349.00
26.4639 1305.00
26.5291 1321.00
26.5943 1273.00
26.6595 1319.00
26.7247 1321.00
26.7899 1363.00
26.8551 1433.00
26.9203 1494.00
26.9855 1495.00
27.0507 1585.00
27.1159 1548.00
27.1811 1444.00
27.2463 1379.00
27.3115 1351.00
27.3767 1303.00
27.4419 1305.00
27.5071 1311.00
27.5723 1258.00
27.6375 1257.00
27.7027 1298.00
27.7679 1335.00
27.8331 1296.00
27.8983 1252.00
27.9635 1299.00
28.0287 1213.00
28.0939 1321.00
28.1591 1268.00
28.2243 1256.00
28.2894 1195.00
28.3546 1298.00
28.4198 1265.00
28.485 1287.00
28.5502 1209.00
28.6154 1182.00
28.6806 1224.00
28.7458 1231.00
28.811 1327.00
28.8762 1229.00
28.9414 1358.00
29.0066 1285.00
29.0718 1371.00
29.137 1414.00
29.2022 1453.00
29.2674 1670.00
29.3326 1874.00
29.3978 2134.00
29.463 2646.00
29.5282 2996.00
29.5934 3503.00
29.6586 3969.00
29.7238 4263.00
29.789 4246.00
29.8542 3916.00
29.9194 3145.00
29.9846 2591.00
30.0498 2277.00
30.115 2096.00
30.1802 1872.00
30.2454 1844.00
30.3106 1801.00
30.3758 1843.00
30.441 1816.00
30.5062 1582.00
30.5714 1546.00
30.6366 1610.00
30.7018 1524.00
30.767 1467.00
30.8322 1551.00
30.8974 1550.00
30.9626 1594.00
31.0278 1535.00
31.093 1373.00
31.1582 1341.00
31.2234 1333.00
31.2886 1331.00
31.3538 1288.00
31.419 1336.00
31.4842 1343.00
31.5494 1307.00
31.6146 1370.00
31.6798 1393.00
31.745 1446.00
31.8102 1586.00
31.8754 1486.00
31.9406 1452.00
32.0058 1326.00
32.071 1278.00
32.1362 1289.00
32.2014 1262.00
32.2666 1263.00
32.3318 1273.00
32.397 1286.00
32.4622 1239.00
32.5274 1221.00
32.5926 1191.00
32.6578 1217.00
32.723 1223.00
32.7882 1282.00
32.8534 1265.00
32.9186 1289.00
32.9838 1297.00
33.0489 1236.00
33.1141 1252.00
33.1793 1342.00
33.2445 1335.00
33.3097 1379.00
33.3749 1396.00
33.4401 1414.00
33.5053 1545.00
33.5705 1582.00
33.6357 1496.00
33.7009 1627.00
33.7661 1694.00
33.8313 1875.00
33.8965 2005.00
33.9617 2354.00
34.0269 3011.00
34.0921 3527.00
34.1573 4215.00
34.2225 5293.00
34.2877 5948.00
34.3529 6828.00
34.4181 7336.00
34.4833 7847.00
34.5485 8191.00
34.6137 8904.00
34.6789 9585.00
34.7441 9334.00
34.8093 8339.00
34.8745 6959.00
34.9397 5776.00
35.0049 5115.00
35.0701 4409.00
35.1353 4292.00
35.2005 3943.00
35.2657 3630.00
35.3309 2897.00
35.3961 2262.00
35.4613 1791.00
35.5265 1519.00
35.5917 1467.00
35.6569 1397.00
35.7221 1404.00
35.7873 1440.00
35.8525 1396.00
35.9177 1411.00
35.9829 1422.00
36.0481 1353.00
36.1133 1455.00
36.1785 1470.00
36.2437 1409.00
36.3089 1338.00
36.3741 1332.00
36.4393 1392.00
36.5045 1283.00
36.5697 1379.00
36.6349 1397.00
36.7001 1409.00
36.7653 1401.00
36.8305 1490.00
36.8957 1599.00
36.9609 1719.00
37.0261 2058.00
37.0913 2284.00
37.1565 2758.00
37.2217 3094.00
37.2869 3179.00
37.3521 2749.00
37.4173 2186.00
37.4825 1752.00
37.5477 1445.00
37.6129 1358.00
37.6781 1233.00
37.7433 1199.00
37.8085 1237.00
37.8736 1252.00
37.9388 1111.00
38.004 1227.00
38.0692 1232.00
38.1344 1240.00
38.1996 1234.00
38.2648 1264.00
38.33 1199.00
38.3952 1161.00
38.4604 1189.00
38.5256 1121.00
38.5908 1121.00
38.656 1121.00
38.7212 1062.00
38.7864 1068.00
38.8516 1105.00
38.9168 1095.00
38.982 1045.00
39.0472 1161.00
39.1124 1029.00
39.1776 1033.00
39.2428 1071.00
39.308 1050.00
39.3732 1089.00
39.4384 1109.00
39.5036 1060.00
39.5688 1034.00
39.634 1058.00
39.6992 1076.00
39.7644 1049.00
39.8296 999.00
39.8948 1108.00
39.96 1124.00
40.0252 1173.00
40.0904 1195.00
40.1556 1227.00
40.2208 1300.00
40.286 1284.00
40.3512 1121.00
40.4164 1129.00
40.4816 1096.00
40.5468 1086.00
40.612 1041.00
40.6772 1031.00
40.7424 1045.00
40.8076 1042.00
40.8728 1032.00
40.938 1008.00
41.0032 961.00
41.0684 1030.00
41.1336 1014.00
41.1988 996.00
41.264 989.00
41.3292 1001.00
41.3944 998.00
41.4596 970.00
41.5248 1037.00
41.59 998.00
41.6552 1008.00
41.7204 1041.00
41.7856 1034.00
41.8508 1039.00
41.916 1014.00
41.9812 1025.00
42.0464 1017.00
42.1116 981.00
42.1768 953.00
42.242 942.00
42.3072 892.00
42.3724 985.00
42.4376 983.00
42.5028 1017.00
42.568 964.00
42.6332 1050.00
42.6983 1040.00
42.7635 1038.00
42.8287 1067.00
42.8939 1067.00
42.9591 1060.00
43.0243 1093.00
43.0895 1014.00
43.1547 1035.00
43.2199 1063.00
43.2851 1066.00
43.3503 987.00
43.4155 1023.00
43.4807 1009.00
43.5459 994.00
43.6111 972.00
43.6763 1002.00
43.7415 905.00
43.8067 981.00
43.8719 914.00
43.9371 923.00
44.0023 939.00
44.0675 945.00
44.1327 892.00
44.1979 837.00
44.2631 886.00
44.3283 838.00
44.3935 899.00
44.4587 930.00
44.5239 920.00
44.5891 881.00
44.6543 925.00
44.7195 919.00
44.7847 984.00
44.8499 1013.00
44.9151 1009.00
44.9803 956.00
45.0455 899.00
45.1107 945.00
45.1759 891.00
45.2411 945.00
45.3063 881.00
45.3715 910.00
45.4367 898.00
45.5019 915.00
45.5671 910.00
45.6323 926.00
45.6975 952.00
45.7627 1012.00
45.8279 1068.00
45.8931 1102.00
45.9583 1069.00
46.0235 1113.00
46.0887 1129.00
46.1539 1152.00
46.2191 1113.00
46.2843 1097.00
46.3495 1023.00
46.4147 959.00
46.4799 981.00
46.5451 888.00
46.6103 911.00
46.6755 912.00
46.7407 896.00
46.8059 888.00
46.8711 871.00
46.9363 858.00
47.0015 814.00
47.0667 828.00
47.1319 887.00
47.1971 785.00
47.2623 849.00
47.3275 791.00
47.3927 832.00
47.4579 830.00
47.523 842.00
47.5882 819.00
47.6534 882.00
47.7186 917.00
47.7838 970.00
47.849 946.00
47.9142 1113.00
47.9794 1251.00
48.0446 1348.00
48.1098 1566.00
48.175 1806.00
48.2402 1795.00
48.3054 1675.00
48.3706 1520.00
48.4358 1343.00
48.501 1166.00
48.5662 1095.00
48.6314 1053.00
48.6966 1044.00
48.7618 983.00
48.827 971.00
48.8922 1056.00
48.9574 993.00
49.0226 1104.00
49.0878 1186.00
49.153 1182.00
49.2182 1212.00
49.2834 1273.00
49.3486 1271.00
49.4138 1265.00
49.479 1270.00
49.5442 1295.00
49.6094 1436.00
49.6746 1415.00
49.7398 1426.00
49.805 1409.00
49.8702 1300.00
49.9354 1200.00
50.0006 1213.00
50.0658 1107.00
50.131 1074.00
50.1962 1062.00
50.2614 1055.00
50.3266 1119.00
50.3918 1074.00
50.457 1072.00
50.5222 1095.00
50.5874 1099.00
50.6526 1125.00
50.7178 1056.00
50.783 1082.00
50.8482 1037.00
50.9134 1034.00
50.9786 1086.00
51.0438 1006.00
51.109 974.00
51.1742 1024.00
51.2394 983.00
51.3046 1011.00
51.3698 1067.00
51.435 1078.00
51.5002 1026.00
51.5654 996.00
51.6306 926.00
51.6958 869.00
51.761 852.00
51.8262 898.00
51.8914 912.00
51.9566 868.00
52.0218 955.00
52.087 948.00
52.1522 1142.00
52.2174 1205.00
52.2826 1335.00
52.3477 1432.00
52.4129 1516.00
52.4781 1609.00
52.5433 1653.00
52.6085 1571.00
52.6737 1503.00
52.7389 1311.00
52.8041 1314.00
52.8693 1118.00
52.9345 992.00
52.9997 959.00
53.0649 910.00
53.1301 826.00
53.1953 785.00
53.2605 782.00
53.3257 791.00
53.3909 754.00
53.4561 799.00
53.5213 839.00
53.5865 793.00
53.6517 777.00
53.7169 763.00
53.7821 806.00
53.8473 815.00
53.9125 754.00
53.9777 827.00
54.0429 821.00
54.1081 826.00
54.1733 779.00
54.2385 850.00
54.3037 826.00
54.3689 806.00
54.4341 860.00
54.4993 819.00
54.5645 779.00
54.6297 839.00
54.6949 822.00
54.7601 788.00
54.8253 807.00
54.8905 802.00
54.9557 803.00
55.0209 747.00
55.0861 727.00
55.1513 735.00
55.2165 696.00
55.2817 707.00
55.3469 752.00
55.4121 691.00
55.4773 704.00
55.5425 763.00
55.6077 772.00
55.6729 744.00
55.7381 730.00
55.8033 749.00
55.8685 755.00
55.9337 718.00
55.9989 785.00
56.0641 736.00
56.1293 778.00
56.1945 760.00
56.2597 752.00
56.3249 734.00
56.3901 764.00
56.4553 762.00
56.5205 790.00
56.5857 707.00
56.6509 734.00
56.7161 754.00
56.7813 742.00
56.8465 764.00
56.9117 753.00
56.9769 745.00
57.042 757.00
57.1073 779.00
57.1724 792.00
57.2376 759.00
57.3028 790.00
57.368 807.00
57.4332 794.00
57.4984 824.00
57.5636 763.00
57.6288 788.00
57.694 776.00
57.7592 812.00
57.8244 822.00
57.8896 843.00
57.9548 761.00
58.02 764.00
58.0852 787.00
58.1504 785.00
58.2156 805.00
58.2808 773.00
58.346 800.00
58.4112 823.00
58.4764 815.00
58.5416 803.00
58.6068 815.00
58.672 817.00
58.7372 807.00
58.8024 817.00
58.8676 768.00
58.9328 778.00
58.998 771.00
59.0632 754.00
59.1284 740.00
59.1936 787.00
59.2588 750.00
59.324 809.00
59.3892 818.00
59.4544 899.00
59.5196 840.00
59.5848 808.00
59.65 829.00
59.7152 769.00
59.7804 796.00
59.8456 856.00
59.9108 867.00
59.976 910.00
60.0412 873.00
60.1064 914.00
60.1716 927.00
60.2368 935.00
60.302 920.00
60.3672 886.00
60.4324 864.00
60.4976 886.00
60.5628 831.00
60.628 847.00
60.6932 841.00
60.7584 880.00
60.8236 881.00
60.8888 877.00
60.954 906.00
61.0192 949.00
61.0844 1038.00
61.1496 1097.00
61.2148 1217.00
61.28 1305.00
61.3452 1362.00
61.4104 1543.00
61.4756 1549.00
61.5408 1544.00
61.606 1632.00
61.6712 1637.00
61.7364 1656.00
61.8016 1522.00
61.8667 1603.00
61.932 1630.00
61.9971 1628.00
62.0623 1619.00
62.1275 1659.00
62.1927 1746.00
62.2579 1644.00
62.3231 1529.00
62.3883 1469.00
62.4535 1363.00
62.5187 1259.00
62.5839 1131.00
62.6491 1107.00
62.7143 1022.00
62.7795 981.00
62.8447 934.00
62.9099 943.00
62.9751 923.00
63.0403 972.00
63.1055 963.00
63.1707 1031.00
63.2359 1036.00
63.3011 1054.00
63.3663 1083.00
63.4315 967.00
63.4967 972.00
63.5619 856.00
63.6271 844.00
63.6923 831.00
63.7575 804.00
63.8227 821.00
63.8879 829.00
63.9531 877.00
64.0183 897.00
64.0835 924.00
64.1487 782.00
64.2139 847.00
64.2791 890.00
64.3443 888.00
64.4095 944.00
64.4747 938.00
64.5399 937.00
64.6051 1013.00
64.6703 994.00
64.7355 981.00
64.8007 1015.00
64.8659 987.00
64.9311 998.00
64.9963 983.00
65.0615 900.00
65.1267 928.00
65.1919 902.00
65.2571 1005.00
65.3223 1112.00
65.3875 1151.00
65.4527 1233.00
65.5179 1235.00
65.5831 1295.00
65.6483 1387.00
65.7135 1458.00
65.7787 1529.00
65.8439 1481.00
65.9091 1576.00
65.9743 1389.00
66.0395 1487.00
66.1047 1343.00
66.1699 1259.00
66.2351 1111.00
66.3003 1111.00
66.3655 993.00
66.4307 926.00
66.4959 854.00
66.561 822.00
66.6263 704.00
66.6915 811.00
66.7566 730.00
66.8218 752.00
66.887 743.00
66.9522 700.00
67.0174 715.00
67.0826 724.00
67.1478 690.00
67.213 785.00
67.2782 697.00
67.3434 650.00
67.4086 715.00
67.4738 766.00
67.539 735.00
67.6042 740.00
67.6694 733.00
67.7346 726.00
67.7998 733.00
67.865 706.00
67.9302 716.00
67.9954 724.00
68.0606 743.00
68.1258 724.00
68.191 721.00
68.2562 743.00
68.3214 706.00
68.3866 702.00
68.4518 718.00
68.517 698.00
68.5822 723.00
68.6474 680.00
68.7126 672.00
68.7778 684.00
68.843 711.00
68.9082 731.00
68.9734 741.00
69.0386 686.00
69.1038 681.00
69.169 738.00
69.2342 705.00
69.2994 683.00
69.3646 621.00
69.4298 679.00
69.495 661.00
69.5602 670.00
69.6254 671.00
69.6906 668.00
69.7558 642.00
69.821 637.00
69.8862 636.00
69.9514 640.00
70.0166 598.00
70.0818 650.00
70.147 604.00
70.2122 573.00
70.2774 599.00
70.3426 549.00
70.4078 629.00
70.473 599.00
70.5382 570.00
70.6034 605.00
70.6686 625.00
70.7338 588.00
70.799 574.00
70.8642 589.00
70.9294 568.00
70.9946 583.00
71.0598 599.00
71.125 589.00
71.1902 558.00
71.2554 575.00
71.3205 565.00
71.3858 614.00
71.451 543.00
71.5162 563.00
71.5813 537.00
71.6465 609.00
71.7117 584.00
71.7769 614.00
71.8421 625.00
71.9073 637.00
71.9725 660.00
72.0377 661.00
72.1029 675.00
72.1681 623.00
72.2333 660.00
72.2985 639.00
72.3637 658.00
72.4289 704.00
72.4941 668.00
72.5593 683.00
72.6245 738.00
72.6897 739.00
72.7549 741.00
72.8201 777.00
72.8853 725.00
72.9505 782.00
73.0157 760.00
73.0809 750.00
73.1461 728.00
73.2113 745.00
73.2765 793.00
73.3417 707.00
73.4069 686.00
73.4721 692.00
73.5373 729.00
73.6025 734.00
73.6677 741.00
73.7329 714.00
73.7981 748.00
73.8633 703.00
73.9285 695.00
73.9937 710.00
74.0589 734.00
74.1241 702.00
74.1893 659.00
74.2545 656.00
74.3197 716.00
74.3849 633.00
74.4501 618.00
74.5153 581.00
74.5805 636.00
74.6457 595.00
74.7109 632.00
74.7761 586.00
74.8413 543.00
74.9065 595.00
74.9717 618.00
75.0369 556.00
75.1021 579.00
75.1673 613.00
75.2325 595.00
75.2977 601.00
75.3629 534.00
75.4281 578.00
75.4933 566.00
75.5585 566.00
75.6237 612.00
75.6889 555.00
75.7541 588.00
75.8193 587.00
75.8845 562.00
75.9497 596.00
76.0149 549.00
76.0801 547.00
76.1452 568.00
76.2104 573.00
76.2756 564.00
76.3409 569.00
76.406 565.00
76.4712 560.00
76.5364 563.00
76.6016 588.00
76.6668 550.00
76.732 553.00
76.7972 564.00
76.8624 535.00
76.9276 545.00
76.9928 563.00
77.058 549.00
77.1232 581.00
77.1884 527.00
77.2536 532.00
77.3188 543.00
77.384 558.00
77.4492 530.00
77.5144 542.00
77.5796 534.00
77.6448 539.00
77.71 527.00
77.7752 515.00
77.8404 468.00
77.9056 521.00
77.9708 503.00
78.036 563.00
78.1012 536.00
78.1664 506.00
78.2316 508.00
78.2968 514.00
78.362 582.00
78.4272 545.00
78.4924 540.00
78.5576 552.00
78.6228 520.00
78.688 556.00
78.7532 522.00
78.8184 577.00
78.8836 568.00
78.9488 540.00
79.014 572.00
79.0792 551.00
79.1444 588.00
79.2096 556.00
79.2748 563.00
79.34 539.00
79.4052 545.00
79.4704 492.00
79.5356 510.00
79.6008 486.00
79.666 484.00
79.7312 539.00
79.7964 486.00
79.8616 493.00
79.9268 506.00
79.992 499.00
80.0572 475.00
80.1224 523.00
80.1876 519.00
80.2528 475.00
80.318 507.00
80.3832 446.00
80.4484 452.00
80.5136 505.00
80.5788 511.00
80.644 511.00
80.7092 491.00
80.7744 497.00
80.8396 549.00
80.9048 480.00
80.9699 510.00
81.0351 548.00
81.1003 536.00
81.1655 528.00
81.2307 512.00
81.2959 534.00
81.3611 539.00
81.4263 542.00
81.4915 523.00
81.5567 563.00
81.6219 565.00
81.6871 558.00
81.7523 551.00
81.8175 536.00
81.8827 499.00
81.9479 530.00
82.0131 597.00
82.0783 518.00
82.1435 508.00
82.2087 533.00
82.2739 533.00
82.3391 532.00
82.4043 563.00
82.4695 562.00
82.5347 585.00
82.5999 546.00
82.6651 541.00
82.7303 584.00
82.7955 526.00
82.8607 506.00
82.9259 548.00
82.9911 563.00
83.0563 563.00
83.1215 619.00
83.1867 555.00
83.2519 613.00
83.3171 575.00
83.3823 600.00
83.4475 557.00
83.5127 596.00
83.5779 583.00
83.6431 557.00
83.7083 538.00
83.7735 573.00
83.8387 539.00
83.9039 513.00
83.9691 570.00
84.0343 570.00
84.0995 600.00
84.1647 583.00
84.2299 609.00
84.2951 632.00
84.3603 564.00
84.4255 636.00
84.4907 590.00
84.5559 574.00
84.6211 606.00
84.6863 616.00
84.7515 562.00
84.8167 593.00
84.8819 584.00
84.9471 591.00
85.0123 544.00
85.0775 590.00
85.1427 574.00
85.2079 544.00
85.2731 560.00
85.3383 529.00
85.4035 584.00
85.4687 544.00
85.5339 503.00
85.5991 522.00
85.6643 551.00
85.7295 563.00
85.7946 556.00
85.8598 575.00
85.925 605.00
85.9903 611.00
86.0554 526.00
86.1206 526.00
86.1858 613.00
86.251 515.00
86.3162 554.00
86.3814 529.00
86.4466 599.00
86.5118 549.00
86.577 487.00
86.6422 555.00
86.7074 483.00
86.7726 530.00
86.8378 565.00
86.903 565.00
86.9682 557.00
87.0334 569.00
87.0986 599.00
87.1638 598.00
87.229 600.00
87.2942 677.00
87.3594 631.00
87.4246 625.00
87.4898 659.00
87.555 702.00
87.6202 704.00
87.6854 685.00
87.7506 655.00
87.8158 635.00
87.881 632.00
87.9462 660.00
88.0114 620.00
88.0766 584.00
88.1418 665.00
88.207 649.00
88.2722 602.00
88.3374 590.00
88.4026 562.00
88.4678 620.00
88.533 545.00
88.5982 616.00
88.6634 576.00
88.7286 544.00
88.7938 572.00
88.859 578.00
88.9242 515.00
88.9894 524.00
89.0546 520.00
89.1198 527.00
89.185 500.00
89.2502 523.00
89.3154 496.00
89.3806 512.00
89.4458 502.00
89.511 475.00
89.5762 520.00
89.6414 431.00
89.7066 430.00
89.7718 473.00
89.837 476.00
89.9022 459.00
89.9674 482.00
90.0326 455.00
90.0978 485.00
90.163 456.00
90.2282 470.00
90.2934 457.00
90.3586 458.00
90.4238 447.00
90.489 494.00
90.5542 472.00
90.6193 449.00
90.6845 447.00
90.7497 449.00
90.8149 452.00
90.8801 465.00
90.9453 462.00
91.0105 451.00
91.0757 471.00
91.1409 476.00
91.2061 468.00
91.2713 435.00
91.3365 440.00
91.4017 476.00
91.4669 471.00
91.5321 469.00
91.5973 446.00
91.6625 519.00
91.7277 455.00
91.7929 493.00
91.8581 480.00
91.9233 461.00
91.9885 457.00
92.0537 467.00
92.1189 456.00
92.1841 470.00
92.2493 469.00
92.3145 406.00
92.3797 442.00
92.4449 432.00
92.5101 453.00
92.5753 487.00
92.6405 418.00
92.7057 466.00
92.7709 480.00
92.8361 507.00
92.9013 473.00
92.9665 474.00
93.0317 470.00
93.0969 457.00
93.1621 485.00
93.2273 448.00
93.2925 474.00
93.3577 471.00
93.4229 478.00
93.4881 445.00
93.5533 493.00
93.6185 461.00
93.6837 418.00
93.7489 431.00
93.8141 452.00
93.8793 410.00
93.9445 461.00
94.0097 398.00
94.0749 428.00
94.1401 414.00
94.2053 475.00
94.2705 443.00
94.3357 492.00
94.4009 443.00
94.4661 480.00
94.5313 430.00
94.5965 465.00
94.6617 474.00
94.7269 468.00
94.7921 487.00
94.8573 472.00
94.9225 514.00
94.9877 452.00
95.0529 446.00
95.1181 439.00
95.1833 485.00
95.2485 472.00
95.3137 511.00
95.3789 467.00
95.444 488.00
95.5092 473.00
95.5744 473.00
95.6396 470.00
95.7048 502.00
95.77 494.00
95.8352 466.00
95.9004 503.00
95.9656 540.00
96.0308 524.00
96.096 508.00
96.1612 514.00
96.2264 545.00
96.2916 530.00
96.3568 511.00
96.422 534.00
96.4872 496.00
96.5524 479.00
96.6176 504.00
96.6828 521.00
96.748 458.00
96.8132 455.00
96.8784 451.00
96.9436 489.00
97.0088 468.00
97.074 465.00
97.1392 456.00
97.2044 443.00
97.2696 456.00
97.3348 472.00
97.4 443.00
97.4652 462.00
97.5304 500.00
97.5956 433.00
97.6608 414.00
97.726 449.00
97.7912 460.00
97.8564 461.00
97.9216 476.00
97.9868 435.00
98.052 452.00
98.1172 445.00
98.1824 448.00
98.2476 454.00
98.3128 441.00
98.378 497.00
98.4432 487.00
98.5084 458.00
98.5736 471.00
98.6388 458.00
98.704 475.00
98.7692 418.00
98.8344 456.00
98.8996 446.00
98.9648 420.00
99.03 460.00
99.0952 463.00
99.1604 448.00
99.2256 542.00
99.2908 492.00
99.356 500.00
99.4212 453.00
99.4864 460.00
99.5516 479.00
99.6168 456.00
99.682 458.00
99.7472 522.00
99.8124 482.00
99.8776 456.00
99.9428 480.00
100.008 508.00
100.073 480.00
100.095 526.00