File: data/xrd_creation/results/NSC_137.xy
9.903433 2611.00
9.968632 2644.00
10.0338 2553.00
10.099 2589.00
10.1642 2527.00
10.2294 2573.00
10.2946 2552.00
10.3598 2501.00
10.425 2466.00
10.4902 2404.00
10.5554 2500.00
10.6206 2479.00
10.6858 2356.00
10.751 2268.00
10.8162 2357.00
10.8814 2329.00
10.9466 2355.00
11.0118 2336.00
11.077 2318.00
11.1422 2224.00
11.2074 2329.00
11.2726 2186.00
11.3378 2274.00
11.403 2246.00
11.4682 2279.00
11.5334 2191.00
11.5986 2155.00
11.6638 2167.00
11.729 2213.00
11.7942 2141.00
11.8594 2120.00
11.9246 2155.00
11.9898 2099.00
12.055 2155.00
12.1202 2063.00
12.1854 2039.00
12.2506 2002.00
12.3158 2091.00
12.381 2056.00
12.4462 2113.00
12.5114 2181.00
12.5766 2269.00
12.6418 2147.00
12.707 1989.00
12.7722 1916.00
12.8374 1967.00
12.9026 1911.00
12.9678 1845.00
13.033 1951.00
13.0982 1823.00
13.1634 1898.00
13.2286 1907.00
13.2938 1830.00
13.359 1797.00
13.4242 1831.00
13.4894 1868.00
13.5546 1848.00
13.6198 1873.00
13.685 1777.00
13.7502 1806.00
13.8154 1816.00
13.8805 1754.00
13.9457 1792.00
14.0109 1795.00
14.0761 1789.00
14.1413 1806.00
14.2065 1777.00
14.2717 1780.00
14.3369 1745.00
14.4021 1816.00
14.4673 1838.00
14.5325 1813.00
14.5977 1720.00
14.6629 1705.00
14.7281 1753.00
14.7933 1777.00
14.8585 1771.00
14.9237 1837.00
14.9889 1638.00
15.0541 1716.00
15.1193 1836.00
15.1845 1722.00
15.2497 1799.00
15.3149 2012.00
15.3801 1967.00
15.4453 2248.00
15.5105 2469.00
15.5757 2880.00
15.6409 3557.00
15.7061 4633.00
15.7713 6297.00
15.8365 7557.00
15.9017 7188.00
15.9669 8619.00
16.0321 11541.00
16.0973 5551.00
16.1625 2269.00
16.2277 1885.00
16.2929 1881.00
16.3581 1878.00
16.4233 1802.00
16.4885 1760.00
16.5537 1692.00
16.6189 1728.00
16.6841 1713.00
16.7493 1671.00
16.8145 1671.00
16.8797 1735.00
16.9449 1739.00
17.0101 1694.00
17.0753 1679.00
17.1405 1657.00
17.2057 1622.00
17.2709 1679.00
17.3361 1584.00
17.4013 1638.00
17.4665 1603.00
17.5317 1585.00
17.5969 1567.00
17.6621 1694.00
17.7273 1634.00
17.7925 1694.00
17.8577 1535.00
17.9229 1667.00
17.9881 1616.00
18.0533 1630.00
18.1185 1645.00
18.1837 1577.00
18.2489 1676.00
18.3141 1685.00
18.3793 1703.00
18.4445 2072.00
18.5097 2057.00
18.5749 1721.00
18.6401 1612.00
18.7052 1529.00
18.7704 1659.00
18.8356 1540.00
18.9008 1510.00
18.966 1562.00
19.0312 1553.00
19.0964 1573.00
19.1616 1600.00
19.2268 1529.00
19.292 1446.00
19.3572 1504.00
19.4224 1469.00
19.4876 1520.00
19.5528 1441.00
19.618 1514.00
19.6832 1512.00
19.7484 1469.00
19.8136 1489.00
19.8788 1485.00
19.944 1491.00
20.0092 1458.00
20.0744 1590.00
20.1396 1523.00
20.2048 1494.00
20.27 1622.00
20.3352 1665.00
20.4004 1713.00
20.4656 1865.00
20.5308 2075.00
20.596 2318.00
20.6612 2618.00
20.7264 3390.00
20.7916 4684.00
20.8568 7530.00
20.922 12096.00
20.9872 13045.00
21.0524 9523.00
21.1176 4322.00
21.1828 2177.00
21.248 1983.00
21.3132 1979.00
21.3784 2159.00
21.4436 2426.00
21.5088 3184.00
21.574 4512.00
21.6392 6583.00
21.7044 10737.00
21.7696 17317.00
21.8348 19137.00
21.9 7568.00
21.9652 2495.00
22.0304 2093.00
22.0956 2057.00
22.1608 1991.00
22.226 1839.00
22.2912 1883.00
22.3564 1928.00
22.4216 2188.00
22.4868 2270.00
22.552 1861.00
22.6172 1608.00
22.6824 1607.00
22.7476 1648.00
22.8128 1742.00
22.878 1878.00
22.9432 2271.00
23.0084 3161.00
23.0736 4922.00
23.1388 7826.00
23.204 11894.00
23.2692 10879.00
23.3344 7278.00
23.3996 5491.00
23.4647 2721.00
23.5299 1752.00
23.5951 1600.00
23.6603 1595.00
23.7255 1481.00
23.7907 1602.00
23.8559 1507.00
23.9211 1500.00
23.9863 1438.00
24.0515 1398.00
24.1167 1396.00
24.1819 1493.00
24.2471 1452.00
24.3123 1432.00
24.3775 1380.00
24.4427 1461.00
24.5079 1462.00
24.5731 1491.00
24.6383 1432.00
24.7035 1516.00
24.7687 1520.00
24.8339 1624.00
24.8991 1975.00
24.9643 1894.00
25.0295 1674.00
25.0947 1382.00
25.1599 1362.00
25.2251 1353.00
25.2903 1266.00
25.3555 1308.00
25.4207 1322.00
25.4859 1335.00
25.5511 1304.00
25.6163 1275.00
25.6815 1244.00
25.7467 1256.00
25.8119 1263.00
25.8771 1301.00
25.9423 1256.00
26.0075 1317.00
26.0727 1329.00
26.1379 1333.00
26.2031 1390.00
26.2683 1370.00
26.3335 1433.00
26.3987 1387.00
26.4639 1357.00
26.5291 1379.00
26.5943 1399.00
26.6595 1456.00
26.7247 1743.00
26.7899 2149.00
26.8551 3372.00
26.9203 5969.00
26.9855 10572.00
27.0507 12462.00
27.1159 8852.00
27.1811 4241.00
27.2463 2191.00
27.3115 1916.00
27.3767 2072.00
27.4419 2951.00
27.5071 4418.00
27.5723 4384.00
27.6375 3907.00
27.7027 2418.00
27.7679 1460.00
27.8331 1314.00
27.8983 1286.00
27.9635 1244.00
28.0287 1254.00
28.0939 1289.00
28.1591 1343.00
28.2243 1464.00
28.2894 1640.00
28.3546 1966.00
28.4198 2018.00
28.485 1922.00
28.5502 1896.00
28.6154 1784.00
28.6806 1524.00
28.7458 1256.00
28.811 1200.00
28.8762 1253.00
28.9414 1183.00
29.0066 1104.00
29.0718 1206.00
29.137 1202.00
29.2022 1123.00
29.2674 1097.00
29.3326 1150.00
29.3978 1125.00
29.463 1185.00
29.5282 1255.00
29.5934 1257.00
29.6586 1208.00
29.7238 1180.00
29.789 1171.00
29.8542 1151.00
29.9194 1199.00
29.9846 1282.00
30.0498 1241.00
30.115 1218.00
30.1802 1155.00
30.2454 1132.00
30.3106 1093.00
30.3758 1112.00
30.441 1140.00
30.5062 1083.00
30.5714 1123.00
30.6366 1086.00
30.7018 1116.00
30.767 1131.00
30.8322 1086.00
30.8974 1167.00
30.9626 1083.00
31.0278 1171.00
31.093 1142.00
31.1582 1152.00
31.2234 1190.00
31.2886 1203.00
31.3538 1298.00
31.419 1505.00
31.4842 1985.00
31.5494 2635.00
31.6146 2495.00
31.6798 2366.00
31.745 1819.00
31.8102 1254.00
31.8754 1280.00
31.9406 1244.00
32.0058 1493.00
32.071 1449.00
32.1362 1326.00
32.2014 1303.00
32.2666 1577.00
32.3318 2260.00
32.397 3741.00
32.4622 4920.00
32.5274 4899.00
32.5926 3176.00
32.6578 2237.00
32.723 1682.00
32.7882 1537.00
32.8534 1482.00
32.9186 1689.00
32.9838 2433.00
33.0489 4728.00
33.1141 8763.00
33.1793 11002.00
33.2445 7705.00
33.3097 3531.00
33.3749 1752.00
33.4401 1512.00
33.5053 1652.00
33.5705 1692.00
33.6357 1424.00
33.7009 1362.00
33.7661 1313.00
33.8313 1308.00
33.8965 1277.00
33.9617 1393.00
34.0269 1643.00
34.0921 2589.00
34.1573 4579.00
34.2225 6101.00
34.2877 4083.00
34.3529 2270.00
34.4181 1714.00
34.4833 1654.00
34.5485 1452.00
34.6137 1508.00
34.6789 1814.00
34.7441 3089.00
34.8093 4633.00
34.8745 4701.00
34.9397 4193.00
35.0049 2593.00
35.0701 1592.00
35.1353 1148.00
35.2005 1166.00
35.2657 1191.00
35.3309 1173.00
35.3961 1199.00
35.4613 1247.00
35.5265 1508.00
35.5917 1632.00
35.6569 1416.00
35.7221 1348.00
35.7873 1376.00
35.8525 1795.00
35.9177 2628.00
35.9829 3483.00
36.0481 3449.00
36.1133 2816.00
36.1785 2490.00
36.2437 3152.00
36.3089 6371.00
36.3741 10516.00
36.4393 8704.00
36.5045 6617.00
36.5697 3199.00
36.6349 2064.00
36.7001 1376.00
36.7653 1304.00
36.8305 1174.00
36.8957 1201.00
36.9609 1144.00
37.0261 1182.00
37.0913 1260.00
37.1565 1195.00
37.2217 1196.00
37.2869 1116.00
37.3521 1110.00
37.4173 1027.00
37.4825 1096.00
37.5477 1025.00
37.6129 1193.00
37.6781 1591.00
37.7433 2443.00
37.8085 3114.00
37.8736 3411.00
37.9388 2363.00
38.004 1679.00
38.0692 1132.00
38.1344 1031.00
38.1996 1010.00
38.2648 1044.00
38.33 981.00
38.3952 1037.00
38.4604 1231.00
38.5256 1145.00
38.5908 1122.00
38.656 983.00
38.7212 960.00
38.7864 1028.00
38.8516 1003.00
38.9168 1092.00
38.982 1039.00
39.0472 1035.00
39.1124 960.00
39.1776 1001.00
39.2428 954.00
39.308 961.00
39.3732 933.00
39.4384 1026.00
39.5036 979.00
39.5688 946.00
39.634 984.00
39.6992 921.00
39.7644 1021.00
39.8296 953.00
39.8948 966.00
39.96 970.00
40.0252 991.00
40.0904 1108.00
40.1556 1370.00
40.2208 1797.00
40.286 2747.00
40.3512 3365.00
40.4164 2877.00
40.4816 1973.00
40.5468 1335.00
40.612 1081.00
40.6772 1038.00
40.7424 952.00
40.8076 1007.00
40.8728 954.00
40.938 990.00
41.0032 1004.00
41.0684 1022.00
41.1336 945.00
41.1988 976.00
41.264 930.00
41.3292 1002.00
41.3944 1017.00
41.4596 1083.00
41.5248 959.00
41.59 1056.00
41.6552 1104.00
41.7204 1242.00
41.7856 1407.00
41.8508 1955.00
41.916 3043.00
41.9812 3089.00
42.0464 2298.00
42.1116 1605.00
42.1768 1163.00
42.242 1071.00
42.3072 999.00
42.3724 973.00
42.4376 989.00
42.5028 964.00
42.568 966.00
42.6332 919.00
42.6983 895.00
42.7635 926.00
42.8287 905.00
42.8939 884.00
42.9591 903.00
43.0243 988.00
43.0895 892.00
43.1547 911.00
43.2199 981.00
43.2851 879.00
43.3503 926.00
43.4155 928.00
43.4807 944.00
43.5459 967.00
43.6111 898.00
43.6763 906.00
43.7415 895.00
43.8067 946.00
43.8719 966.00
43.9371 927.00
44.0023 1127.00
44.0675 1400.00
44.1327 1420.00
44.1979 1297.00
44.2631 1287.00
44.3283 1155.00
44.3935 1086.00
44.4587 1101.00
44.5239 1005.00
44.5891 1015.00
44.6543 1069.00
44.7195 1301.00
44.7847 1756.00
44.8499 2408.00
44.9151 2097.00
44.9803 1778.00
45.0455 1396.00
45.1107 1028.00
45.1759 1021.00
45.2411 960.00
45.3063 962.00
45.3715 1129.00
45.4367 1255.00
45.5019 1360.00
45.5671 1308.00
45.6323 1247.00
45.6975 1326.00
45.7627 1723.00
45.8279 1665.00
45.8931 1817.00
45.9583 2108.00
46.0235 1923.00
46.0887 1938.00
46.1539 1788.00
46.2191 1421.00
46.2843 1218.00
46.3495 1038.00
46.4147 969.00
46.4799 940.00
46.5451 1007.00
46.6103 976.00
46.6755 938.00
46.7407 961.00
46.8059 956.00
46.8711 1077.00
46.9363 1330.00
47.0015 1860.00
47.0667 2724.00
47.1319 2821.00
47.1971 2450.00
47.2623 1770.00
47.3275 1278.00
47.3927 1043.00
47.4579 977.00
47.523 953.00
47.5882 972.00
47.6534 1047.00
47.7186 1112.00
47.7838 1155.00
47.849 1193.00
47.9142 1176.00
47.9794 1102.00
48.0446 1050.00
48.1098 1083.00
48.175 1040.00
48.2402 1033.00
48.3054 981.00
48.3706 1009.00
48.4358 1066.00
48.501 1156.00
48.5662 1190.00
48.6314 1429.00
48.6966 1638.00
48.7618 1333.00
48.827 1373.00
48.8922 1483.00
48.9574 2369.00
49.0226 2766.00
49.0878 2292.00
49.153 2729.00
49.2182 3002.00
49.2834 2412.00
49.3486 2695.00
49.4138 3473.00
49.479 3909.00
49.5442 3944.00
49.6094 2811.00
49.6746 2109.00
49.7398 1361.00
49.805 1106.00
49.8702 986.00
49.9354 962.00
50.0006 1020.00
50.0658 1062.00
50.131 1032.00
50.1962 978.00
50.2614 1058.00
50.3266 1150.00
50.3918 1018.00
50.457 1386.00
50.5222 2048.00
50.5874 3687.00
50.6526 4106.00
50.7178 4817.00
50.783 3953.00
50.8482 2870.00
50.9134 2248.00
50.9786 1709.00
51.0438 2206.00
51.109 3629.00
51.1742 4197.00
51.2394 3381.00
51.3046 4810.00
51.3698 3668.00
51.435 2638.00
51.5002 2283.00
51.5654 1374.00
51.6306 1270.00
51.6958 1372.00
51.761 1726.00
51.8262 2711.00
51.8914 3194.00
51.9566 2101.00
52.0218 2135.00
52.087 1355.00
52.1522 1173.00
52.2174 1089.00
52.2826 1066.00
52.3477 1164.00
52.4129 1079.00
52.4781 1080.00
52.5433 1107.00
52.6085 991.00
52.6737 992.00
52.7389 967.00
52.8041 992.00
52.8693 1022.00
52.9345 988.00
52.9997 1087.00
53.0649 1062.00
53.1301 1061.00
53.1953 1028.00
53.2605 1088.00
53.3257 976.00
53.3909 1016.00
53.4561 1056.00
53.5213 1101.00
53.5865 1101.00
53.6517 1333.00
53.7169 2101.00
53.7821 2600.00
53.8473 2862.00
53.9125 3041.00
53.9777 2313.00
54.0429 2766.00
54.1081 3011.00
54.1733 2189.00
54.2385 2099.00
54.3037 1689.00
54.3689 1319.00
54.4341 1256.00
54.4993 1227.00
54.5645 1245.00
54.6297 1234.00
54.6949 1536.00
54.7601 2079.00
54.8253 2337.00
54.8905 2598.00
54.9557 3767.00
55.0209 5105.00
55.0861 4259.00
55.1513 3259.00
55.2165 2693.00
55.2817 1619.00
55.3469 1208.00
55.4121 1106.00
55.4773 1263.00
55.5425 1124.00
55.6077 1154.00
55.6729 1208.00
55.7381 1212.00
55.8033 1105.00
55.8685 1089.00
55.9337 1070.00
55.9989 958.00
56.0641 962.00
56.1293 993.00
56.1945 961.00
56.2597 1074.00
56.3249 1231.00
56.3901 1634.00
56.4553 1504.00
56.5205 1424.00
56.5857 1713.00
56.6509 2310.00
56.7161 2683.00
56.7813 2161.00
56.8465 1783.00
56.9117 1537.00
56.9769 1026.00
57.042 996.00
57.1073 940.00
57.1724 943.00
57.2376 946.00
57.3028 904.00
57.368 957.00
57.4332 936.00
57.4984 891.00
57.5636 910.00
57.6288 892.00
57.694 928.00
57.7592 911.00
57.8244 947.00
57.8896 927.00
57.9548 927.00
58.02 903.00
58.0852 945.00
58.1504 1009.00
58.2156 1030.00
58.2808 1029.00
58.346 1097.00
58.4112 1002.00
58.4764 957.00
58.5416 1091.00
58.6068 1020.00
58.672 972.00
58.7372 1034.00
58.8024 1083.00
58.8676 1143.00
58.9328 1069.00
58.998 1181.00
59.0632 1278.00
59.1284 1652.00
59.1936 2333.00
59.2588 2895.00
59.324 2723.00
59.3892 2240.00
59.4544 2035.00
59.5196 1605.00
59.5848 1222.00
59.65 1319.00
59.7152 1226.00
59.7804 1319.00
59.8456 1560.00
59.9108 1503.00
59.976 1398.00
60.0412 1517.00
60.1064 1336.00
60.1716 1606.00
60.2368 2297.00
60.302 2855.00
60.3672 2049.00
60.4324 1883.00
60.4976 1662.00
60.5628 1378.00
60.628 1609.00
60.6932 1876.00
60.7584 1577.00
60.8236 1682.00
60.8888 2006.00
60.954 2335.00
61.0192 2189.00
61.0844 2465.00
61.1496 2861.00
61.2148 2589.00
61.28 2595.00
61.3452 2831.00
61.4104 3601.00
61.4756 2843.00
61.5408 2634.00
61.606 2612.00
61.6712 3053.00
61.7364 2352.00
61.8016 1817.00
61.8667 1976.00
61.932 1523.00
61.9971 1428.00
62.0623 1546.00
62.1275 1795.00
62.1927 1654.00
62.2579 1793.00
62.3231 2601.00
62.3883 3266.00
62.4535 2514.00
62.5187 2563.00
62.5839 2174.00
62.6491 1607.00
62.7143 1276.00
62.7795 1063.00
62.8447 943.00
62.9099 892.00
62.9751 914.00
63.0403 861.00
63.1055 846.00
63.1707 826.00
63.2359 880.00
63.3011 847.00
63.3663 807.00
63.4315 848.00
63.4967 902.00
63.5619 887.00
63.6271 928.00
63.6923 931.00
63.7575 904.00
63.8227 959.00
63.8879 991.00
63.9531 1126.00
64.0183 1133.00
64.0835 1111.00
64.1487 1135.00
64.2139 1275.00
64.2791 1133.00
64.3443 1042.00
64.4095 1119.00
64.4747 1006.00
64.5399 893.00
64.6051 959.00
64.6703 933.00
64.7355 906.00
64.8007 935.00
64.8659 934.00
64.9311 859.00
64.9963 933.00
65.0615 949.00
65.1267 984.00
65.1919 952.00
65.2571 938.00
65.3223 929.00
65.3875 890.00
65.4527 885.00
65.5179 835.00
65.5831 889.00
65.6483 853.00
65.7135 823.00
65.7787 888.00
65.8439 878.00
65.9091 847.00
65.9743 872.00
66.0395 814.00
66.1047 876.00
66.1699 836.00
66.2351 876.00
66.3003 858.00
66.3655 861.00
66.4307 933.00
66.4959 1152.00
66.561 1315.00
66.6263 1056.00
66.6915 1091.00
66.7566 1121.00
66.8218 967.00
66.887 973.00
66.9522 1042.00
67.0174 1244.00
67.0826 1557.00
67.1478 1203.00
67.213 1323.00
67.2782 1672.00
67.3434 1715.00
67.4086 1611.00
67.4738 1762.00
67.539 1554.00
67.6042 1327.00
67.6694 1358.00
67.7346 1195.00
67.7998 1022.00
67.865 1000.00
67.9302 970.00
67.9954 982.00
68.0606 973.00
68.1258 991.00
68.191 927.00
68.2562 970.00
68.3214 995.00
68.3866 1006.00
68.4518 918.00
68.517 879.00
68.5822 905.00
68.6474 902.00
68.7126 883.00
68.7778 866.00
68.843 913.00
68.9082 961.00
68.9734 1016.00
69.0386 1140.00
69.1038 1377.00
69.169 1422.00
69.2342 1413.00
69.2994 1518.00
69.3646 1337.00
69.4298 1293.00
69.495 1200.00
69.5602 1089.00
69.6254 1045.00
69.6906 1098.00
69.7558 1072.00
69.821 1016.00
69.8862 1049.00
69.9514 1280.00
70.0166 1429.00
70.0818 1428.00
70.147 1386.00
70.2122 1267.00
70.2774 1101.00
70.3426 1164.00
70.4078 1001.00
70.473 981.00
70.5382 1166.00
70.6034 1267.00
70.6686 1289.00
70.7338 1814.00
70.799 1877.00
70.8642 2107.00
70.9294 2030.00
70.9946 1692.00
71.0598 1528.00
71.125 1393.00
71.1902 1118.00
71.2554 979.00
71.3205 980.00
71.3858 1019.00
71.451 1020.00
71.5162 1115.00
71.5813 1406.00
71.6465 1619.00
71.7117 1292.00
71.7769 1381.00
71.8421 1629.00
71.9073 1958.00
71.9725 1715.00
72.0377 1553.00
72.1029 1951.00
72.1681 1809.00
72.2333 1227.00
72.2985 1300.00
72.3637 1223.00
72.4289 1010.00
72.4941 953.00
72.5593 967.00
72.6245 1155.00
72.6897 1181.00
72.7549 1012.00
72.8201 1008.00
72.8853 1142.00
72.9505 1232.00
73.0157 1296.00
73.0809 1427.00
73.1461 1354.00
73.2113 1442.00
73.2765 1700.00
73.3417 1870.00
73.4069 1782.00
73.4721 1938.00
73.5373 2017.00
73.6025 1569.00
73.6677 1494.00
73.7329 1637.00
73.7981 1698.00
73.8633 1997.00
73.9285 2364.00
73.9937 1930.00
74.0589 1573.00
74.1241 1653.00
74.1893 1435.00
74.2545 1082.00
74.3197 989.00
74.3849 1059.00
74.4501 1056.00
74.5153 1074.00
74.5805 946.00
74.6457 965.00
74.7109 958.00
74.7761 955.00
74.8413 981.00
74.9065 905.00
74.9717 882.00
75.0369 940.00
75.1021 943.00
75.1673 923.00
75.2325 988.00
75.2977 1055.00
75.3629 1199.00
75.4281 1488.00
75.4933 1887.00
75.5585 1736.00
75.6237 1516.00
75.6889 1471.00
75.7541 1364.00
75.8193 1228.00
75.8845 1039.00
75.9497 1051.00
76.0149 1135.00
76.0801 1256.00
76.1452 1064.00
76.2104 1219.00
76.2756 1316.00
76.3409 1047.00
76.406 997.00
76.4712 1065.00
76.5364 1009.00
76.6016 962.00
76.6668 1047.00
76.732 1292.00
76.7972 1815.00
76.8624 1577.00
76.9276 1295.00
76.9928 1361.00
77.058 1441.00
77.1232 1187.00
77.1884 998.00
77.2536 945.00
77.3188 926.00
77.384 873.00
77.4492 823.00
77.5144 867.00
77.5796 853.00
77.6448 920.00
77.71 836.00
77.7752 851.00
77.8404 861.00
77.9056 796.00
77.9708 888.00
78.036 875.00
78.1012 873.00
78.1664 941.00
78.2316 1005.00
78.2968 965.00
78.362 917.00
78.4272 919.00
78.4924 956.00
78.5576 884.00
78.6228 983.00
78.688 1008.00
78.7532 1064.00
78.8184 976.00
78.8836 947.00
78.9488 967.00
79.014 1131.00
79.0792 1024.00
79.1444 907.00
79.2096 925.00
79.2748 953.00
79.34 886.00
79.4052 809.00
79.4704 905.00
79.5356 850.00
79.6008 876.00
79.666 940.00
79.7312 912.00
79.7964 909.00
79.8616 921.00
79.9268 1016.00
79.992 1142.00
80.0572 1255.00
80.1224 1448.00
80.1876 1549.00
80.2528 1410.00
80.318 1417.00
80.3832 1452.00
80.4484 1357.00
80.5136 1125.00
80.5788 1125.00
80.644 1252.00
80.7092 1183.00
80.7744 963.00
80.8396 1021.00
80.9048 1049.00
80.9699 1147.00
81.0351 1140.00
81.1003 915.00
81.1655 983.00
81.2307 998.00
81.2959 948.00
81.3611 949.00
81.4263 874.00
81.4915 872.00
81.5567 903.00
81.6219 895.00
81.6871 1017.00
81.7523 1085.00
81.8175 1164.00
81.8827 1333.00
81.9479 1598.00
82.0131 1996.00
82.0783 1983.00
82.1435 1617.00
82.2087 1684.00
82.2739 1981.00
82.3391 1964.00
82.4043 1465.00
82.4695 1239.00
82.5347 1353.00
82.5999 1407.00
82.6651 1344.00
82.7303 1249.00
82.7955 1167.00
82.8607 1399.00
82.9259 1606.00
82.9911 1623.00
83.0563 1299.00
83.1215 1273.00
83.1867 1266.00
83.2519 1340.00
83.3171 1127.00
83.3823 986.00
83.4475 955.00
83.5127 1029.00
83.5779 971.00
83.6431 1041.00
83.7083 997.00
83.7735 905.00
83.8387 853.00
83.9039 901.00
83.9691 875.00
84.0343 811.00
84.0995 893.00
84.1647 876.00
84.2299 822.00
84.2951 926.00
84.3603 937.00
84.4255 996.00
84.4907 913.00
84.5559 1007.00
84.6211 1052.00
84.6863 1105.00
84.7515 1220.00
84.8167 1178.00
84.8819 1069.00
84.9471 1091.00
85.0123 1287.00
85.0775 1261.00
85.1427 1066.00
85.2079 946.00
85.2731 1001.00
85.3383 1003.00
85.4035 939.00
85.4687 892.00
85.5339 854.00
85.5991 790.00
85.6643 815.00
85.7295 832.00
85.7946 859.00
85.8598 834.00
85.925 809.00
85.9903 923.00
86.0554 1002.00
86.1206 1154.00
86.1858 1271.00
86.251 1155.00
86.3162 1277.00
86.3814 1643.00
86.4466 1851.00
86.5118 1499.00
86.577 1434.00
86.6422 1509.00
86.7074 1370.00
86.7726 1219.00
86.8378 1141.00
86.903 1140.00
86.9682 1058.00
87.0334 1018.00
87.0986 1047.00
87.1638 1129.00
87.229 1078.00
87.2942 1057.00
87.3594 1122.00
87.4246 1178.00
87.4898 1125.00
87.555 934.00
87.6202 1045.00
87.6854 1083.00
87.7506 1012.00
87.8158 961.00
87.881 990.00
87.9462 986.00
88.0114 986.00
88.0766 983.00
88.1418 952.00
88.207 967.00
88.2722 905.00
88.3374 1032.00
88.4026 1005.00
88.4678 936.00
88.533 958.00
88.5982 914.00
88.6634 1018.00
88.7286 1191.00
88.7938 1204.00
88.859 1152.00
88.9242 1068.00
88.9894 1000.00
89.0546 1052.00
89.1198 987.00
89.185 956.00
89.2502 877.00
89.3154 911.00
89.3806 854.00
89.4458 861.00
89.511 837.00
89.5762 873.00
89.6414 907.00
89.7066 950.00
89.7718 1092.00
89.837 1235.00
89.9022 1238.00
89.9674 1316.00
90.0326 1342.00
90.0978 1353.00
90.163 1431.00
90.2282 1341.00
90.2934 1278.00
90.3586 1401.00
90.4238 1566.00
90.489 1593.00
90.5542 1579.00
90.6193 1503.00
90.6845 1573.00
90.7497 1594.00
90.8149 1432.00
90.8801 1241.00
90.9453 1271.00
91.0105 1286.00
91.0757 1191.00
91.1409 1156.00
91.2061 1125.00
91.2713 1085.00
91.3365 1155.00
91.4017 1262.00
91.4669 1305.00
91.5321 1284.00
91.5973 1273.00
91.6625 1212.00
91.7277 1183.00
91.7929 1042.00
91.8581 1051.00
91.9233 992.00
91.9885 956.00
92.0537 990.00
92.1189 931.00
92.1841 940.00
92.2493 979.00
92.3145 947.00
92.3797 1021.00
92.4449 1073.00
92.5101 905.00
92.5753 967.00
92.6405 1040.00
92.7057 1201.00
92.7709 1109.00
92.8361 1162.00
92.9013 1108.00
92.9665 1125.00
93.0317 1066.00
93.0969 1074.00
93.1621 1197.00
93.2273 1163.00
93.2925 1106.00
93.3577 1043.00
93.4229 1149.00
93.4881 1143.00
93.5533 1216.00
93.6185 1294.00
93.6837 1213.00
93.7489 1037.00
93.8141 1020.00
93.8793 1021.00
93.9445 1095.00
94.0097 984.00
94.0749 937.00
94.1401 912.00
94.2053 990.00
94.2705 870.00
94.3357 886.00
94.4009 903.00
94.4661 984.00
94.5313 836.00
94.5965 817.00
94.6617 851.00
94.7269 893.00
94.7921 927.00
94.8573 970.00
94.9225 997.00
94.9877 892.00
95.0529 867.00
95.1181 991.00
95.1833 994.00
95.2485 1091.00
95.3137 1003.00
95.3789 1094.00
95.444 1150.00
95.5092 1045.00
95.5744 1028.00
95.6396 1054.00
95.7048 1036.00
95.77 1133.00
95.8352 1047.00
95.9004 1060.00
95.9656 1100.00
96.0308 1120.00
96.096 1093.00
96.1612 1157.00
96.2264 1177.00
96.2916 1042.00
96.3568 991.00
96.422 933.00
96.4872 997.00
96.5524 901.00
96.6176 871.00
96.6828 874.00
96.748 936.00
96.8132 921.00
96.8784 867.00
96.9436 822.00
97.0088 862.00
97.074 852.00
97.1392 932.00
97.2044 942.00
97.2696 1009.00
97.3348 1085.00
97.4 1021.00
97.4652 1079.00
97.5304 1192.00
97.5956 1348.00
97.6608 1278.00
97.726 1132.00
97.7912 1122.00
97.8564 1142.00
97.9216 1071.00
97.9868 1028.00
98.052 1009.00
98.1172 1044.00
98.1824 1025.00
98.2476 1027.00
98.3128 1026.00
98.378 1061.00
98.4432 1144.00
98.5084 1378.00
98.5736 1226.00
98.6388 1021.00
98.704 1037.00
98.7692 1058.00
98.8344 1128.00
98.8996 1146.00
98.9648 1022.00
99.03 1004.00
99.0952 920.00
99.1604 1005.00
99.2256 985.00
99.2908 968.00
99.356 991.00
99.4212 992.00
99.4864 1123.00
99.5516 1320.00
99.6168 1298.00
99.682 1340.00
99.7472 1467.00
99.8124 1462.00
99.8776 1384.00
99.9428 1407.00
100.008 1479.00
100.073 1416.00
100.095 1372.00