File: data/xrd_creation/results/NSC_195.xy
9.903433 3056.00
9.968632 2874.00
10.0338 2911.00
10.099 2906.00
10.1642 2778.00
10.2294 2816.00
10.2946 2786.00
10.3598 2768.00
10.425 2877.00
10.4902 2772.00
10.5554 2773.00
10.6206 2759.00
10.6858 2810.00
10.751 2673.00
10.8162 2751.00
10.8814 2742.00
10.9466 2614.00
11.0118 2725.00
11.077 2653.00
11.1422 2518.00
11.2074 2693.00
11.2726 2518.00
11.3378 2537.00
11.403 2588.00
11.4682 2449.00
11.5334 2530.00
11.5986 2504.00
11.6638 2416.00
11.729 2414.00
11.7942 2435.00
11.8594 2397.00
11.9246 2341.00
11.9898 2424.00
12.055 2368.00
12.1202 2501.00
12.1854 2574.00
12.2506 2547.00
12.3158 2506.00
12.381 2494.00
12.4462 2543.00
12.5114 2308.00
12.5766 2361.00
12.6418 2261.00
12.707 2309.00
12.7722 2338.00
12.8374 2290.00
12.9026 2305.00
12.9678 2259.00
13.033 2268.00
13.0982 2249.00
13.1634 2202.00
13.2286 2281.00
13.2938 2186.00
13.359 2237.00
13.4242 2182.00
13.4894 2144.00
13.5546 2225.00
13.6198 2133.00
13.685 2176.00
13.7502 2230.00
13.8154 2189.00
13.8805 2394.00
13.9457 2560.00
14.0109 2699.00
14.0761 3009.00
14.1413 3073.00
14.2065 2738.00
14.2717 2246.00
14.3369 2157.00
14.4021 2107.00
14.4673 2032.00
14.5325 2141.00
14.5977 2213.00
14.6629 2207.00
14.7281 2208.00
14.7933 2204.00
14.8585 2301.00
14.9237 2278.00
14.9889 2301.00
15.0541 2431.00
15.1193 2322.00
15.1845 2236.00
15.2497 2148.00
15.3149 1997.00
15.3801 2127.00
15.4453 2158.00
15.5105 2033.00
15.5757 2107.00
15.6409 2068.00
15.7061 2017.00
15.7713 1903.00
15.8365 2006.00
15.9017 1978.00
15.9669 2070.00
16.0321 2056.00
16.0973 1892.00
16.1625 1980.00
16.2277 2002.00
16.2929 2029.00
16.3581 1945.00
16.4233 2022.00
16.4885 1996.00
16.5537 2014.00
16.6189 1900.00
16.6841 1943.00
16.7493 2015.00
16.8145 1991.00
16.8797 2104.00
16.9449 2151.00
17.0101 2320.00
17.0753 2673.00
17.1405 2821.00
17.2057 2699.00
17.2709 2171.00
17.3361 1923.00
17.4013 1907.00
17.4665 1911.00
17.5317 1947.00
17.5969 2008.00
17.6621 1928.00
17.7273 2014.00
17.7925 2001.00
17.8577 1875.00
17.9229 1871.00
17.9881 1865.00
18.0533 1921.00
18.1185 1801.00
18.1837 1847.00
18.2489 1728.00
18.3141 1730.00
18.3793 1829.00
18.4445 1878.00
18.5097 1774.00
18.5749 1808.00
18.6401 1764.00
18.7052 1795.00
18.7704 1762.00
18.8356 1692.00
18.9008 1640.00
18.966 1712.00
19.0312 1790.00
19.0964 1849.00
19.1616 1787.00
19.2268 1781.00
19.292 1801.00
19.3572 1974.00
19.4224 2126.00
19.4876 2109.00
19.5528 2647.00
19.618 3320.00
19.6832 4731.00
19.7484 7058.00
19.8136 9137.00
19.8788 10788.00
19.944 9994.00
20.0092 7021.00
20.0744 3955.00
20.1396 2441.00
20.2048 1982.00
20.27 2005.00
20.3352 1807.00
20.4004 1697.00
20.4656 1790.00
20.5308 1754.00
20.596 1781.00
20.6612 1769.00
20.7264 1736.00
20.7916 1706.00
20.8568 1680.00
20.922 1812.00
20.9872 1688.00
21.0524 1744.00
21.1176 1653.00
21.1828 1710.00
21.248 1701.00
21.3132 1703.00
21.3784 1716.00
21.4436 1808.00
21.5088 1855.00
21.574 1894.00
21.6392 1839.00
21.7044 1893.00
21.7696 1927.00
21.8348 1823.00
21.9 1786.00
21.9652 1641.00
22.0304 1676.00
22.0956 1718.00
22.1608 1626.00
22.226 1642.00
22.2912 1520.00
22.3564 1642.00
22.4216 1598.00
22.4868 1687.00
22.552 1731.00
22.6172 1810.00
22.6824 1906.00
22.7476 2032.00
22.8128 1921.00
22.878 1899.00
22.9432 1853.00
23.0084 1931.00
23.0736 2022.00
23.1388 2144.00
23.204 2193.00
23.2692 2421.00
23.3344 2377.00
23.3996 2088.00
23.4647 1737.00
23.5299 1570.00
23.5951 1476.00
23.6603 1391.00
23.7255 1515.00
23.7907 1504.00
23.8559 1495.00
23.9211 1495.00
23.9863 1595.00
24.0515 1534.00
24.1167 1569.00
24.1819 1693.00
24.2471 1790.00
24.3123 2041.00
24.3775 2188.00
24.4427 1934.00
24.5079 1730.00
24.5731 1646.00
24.6383 1646.00
24.7035 1819.00
24.7687 1801.00
24.8339 1789.00
24.8991 1552.00
24.9643 1435.00
25.0295 1460.00
25.0947 1523.00
25.1599 1566.00
25.2251 1772.00
25.2903 2185.00
25.3555 2157.00
25.4207 1673.00
25.4859 1438.00
25.5511 1402.00
25.6163 1402.00
25.6815 1405.00
25.7467 1391.00
25.8119 1371.00
25.8771 1467.00
25.9423 1496.00
26.0075 1470.00
26.0727 1524.00
26.1379 1424.00
26.2031 1514.00
26.2683 1551.00
26.3335 1531.00
26.3987 1526.00
26.4639 1710.00
26.5291 1703.00
26.5943 1996.00
26.6595 2506.00
26.7247 3274.00
26.7899 5375.00
26.8551 7877.00
26.9203 8754.00
26.9855 6371.00
27.0507 3747.00
27.1159 2582.00
27.1811 2189.00
27.2463 1970.00
27.3115 1790.00
27.3767 1564.00
27.4419 1527.00
27.5071 1478.00
27.5723 1507.00
27.6375 1478.00
27.7027 1581.00
27.7679 1691.00
27.8331 1845.00
27.8983 1960.00
27.9635 2451.00
28.0287 2866.00
28.0939 3501.00
28.1591 3889.00
28.2243 3586.00
28.2894 3072.00
28.3546 3098.00
28.4198 4061.00
28.485 5087.00
28.5502 4797.00
28.6154 3225.00
28.6806 2355.00
28.7458 1827.00
28.811 1666.00
28.8762 1465.00
28.9414 1456.00
29.0066 1392.00
29.0718 1365.00
29.137 1332.00
29.2022 1382.00
29.2674 1430.00
29.3326 1361.00
29.3978 1434.00
29.463 1587.00
29.5282 1970.00
29.5934 3203.00
29.6586 4440.00
29.7238 3726.00
29.789 2335.00
29.8542 1538.00
29.9194 1405.00
29.9846 1336.00
30.0498 1404.00
30.115 1290.00
30.1802 1403.00
30.2454 1350.00
30.3106 1421.00
30.3758 1463.00
30.441 1584.00
30.5062 1784.00
30.5714 1932.00
30.6366 1967.00
30.7018 1823.00
30.767 1724.00
30.8322 1547.00
30.8974 1471.00
30.9626 1524.00
31.0278 1630.00
31.093 1796.00
31.1582 1995.00
31.2234 2239.00
31.2886 2648.00
31.3538 3278.00
31.419 4163.00
31.4842 5449.00
31.5494 6596.00
31.6146 6957.00
31.6798 5931.00
31.745 5205.00
31.8102 4076.00
31.8754 3022.00
31.9406 2044.00
32.0058 1656.00
32.071 1452.00
32.1362 1394.00
32.2014 1324.00
32.2666 1223.00
32.3318 1243.00
32.397 1278.00
32.4622 1210.00
32.5274 1234.00
32.5926 1213.00
32.6578 1202.00
32.723 1216.00
32.7882 1246.00
32.8534 1199.00
32.9186 1244.00
32.9838 1313.00
33.0489 1332.00
33.1141 1313.00
33.1793 1311.00
33.2445 1292.00
33.3097 1294.00
33.3749 1341.00
33.4401 1386.00
33.5053 1451.00
33.5705 1507.00
33.6357 1520.00
33.7009 1609.00
33.7661 1656.00
33.8313 1832.00
33.8965 2059.00
33.9617 2489.00
34.0269 3569.00
34.0921 5338.00
34.1573 7686.00
34.2225 7805.00
34.2877 7004.00
34.3529 6098.00
34.4181 6171.00
34.4833 6427.00
34.5485 6059.00
34.6137 5036.00
34.6789 4139.00
34.7441 3194.00
34.8093 2496.00
34.8745 2013.00
34.9397 1751.00
35.0049 1762.00
35.0701 2080.00
35.1353 2656.00
35.2005 2552.00
35.2657 2016.00
35.3309 1486.00
35.3961 1480.00
35.4613 1539.00
35.5265 1655.00
35.5917 1679.00
35.6569 1640.00
35.7221 1384.00
35.7873 1236.00
35.8525 1136.00
35.9177 1151.00
35.9829 1099.00
36.0481 1135.00
36.1133 1138.00
36.1785 1156.00
36.2437 1074.00
36.3089 1102.00
36.3741 1109.00
36.4393 1068.00
36.5045 1104.00
36.5697 1084.00
36.6349 1062.00
36.7001 1097.00
36.7653 1095.00
36.8305 990.00
36.8957 1021.00
36.9609 1043.00
37.0261 1094.00
37.0913 1094.00
37.1565 1174.00
37.2217 1101.00
37.2869 1123.00
37.3521 1328.00
37.4173 1543.00
37.4825 1946.00
37.5477 2426.00
37.6129 2110.00
37.6781 1587.00
37.7433 1234.00
37.8085 1103.00
37.8736 1120.00
37.9388 1117.00
38.004 1251.00
38.0692 1425.00
38.1344 1816.00
38.1996 2165.00
38.2648 2433.00
38.33 2194.00
38.3952 1650.00
38.4604 1430.00
38.5256 1158.00
38.5908 1119.00
38.656 1093.00
38.7212 1033.00
38.7864 1118.00
38.8516 1122.00
38.9168 1195.00
38.982 1160.00
39.0472 1147.00
39.1124 1107.00
39.1776 1308.00
39.2428 1434.00
39.308 1344.00
39.3732 1287.00
39.4384 1166.00
39.5036 1029.00
39.5688 1035.00
39.634 1014.00
39.6992 1119.00
39.7644 1131.00
39.8296 1113.00
39.8948 1154.00
39.96 1242.00
40.0252 1220.00
40.0904 1423.00
40.1556 1369.00
40.2208 1395.00
40.286 1311.00
40.3512 1195.00
40.4164 1109.00
40.4816 1040.00
40.5468 1075.00
40.612 965.00
40.6772 918.00
40.7424 966.00
40.8076 1038.00
40.8728 1108.00
40.938 1276.00
41.0032 1363.00
41.0684 1334.00
41.1336 1299.00
41.1988 1201.00
41.264 1195.00
41.3292 1226.00
41.3944 1280.00
41.4596 1260.00
41.5248 1221.00
41.59 1248.00
41.6552 1295.00
41.7204 1305.00
41.7856 1477.00
41.8508 1445.00
41.916 1413.00
41.9812 1304.00
42.0464 1255.00
42.1116 1161.00
42.1768 1120.00
42.242 1107.00
42.3072 1101.00
42.3724 1069.00
42.4376 1164.00
42.5028 1106.00
42.568 1163.00
42.6332 1228.00
42.6983 1228.00
42.7635 1177.00
42.8287 1200.00
42.8939 1224.00
42.9591 1125.00
43.0243 1098.00
43.0895 1030.00
43.1547 981.00
43.2199 954.00
43.2851 955.00
43.3503 912.00
43.4155 929.00
43.4807 943.00
43.5459 950.00
43.6111 1015.00
43.6763 967.00
43.7415 936.00
43.8067 917.00
43.8719 888.00
43.9371 890.00
44.0023 940.00
44.0675 965.00
44.1327 971.00
44.1979 915.00
44.2631 896.00
44.3283 918.00
44.3935 944.00
44.4587 1044.00
44.5239 1062.00
44.5891 1138.00
44.6543 1156.00
44.7195 1407.00
44.7847 1560.00
44.8499 1917.00
44.9151 2008.00
44.9803 2280.00
45.0455 2363.00
45.1107 2215.00
45.1759 2015.00
45.2411 1722.00
45.3063 1388.00
45.3715 1150.00
45.4367 1080.00
45.5019 1035.00
45.5671 1097.00
45.6323 1055.00
45.6975 1130.00
45.7627 1255.00
45.8279 1230.00
45.8931 1277.00
45.9583 1147.00
46.0235 1073.00
46.0887 1020.00
46.1539 1015.00
46.2191 978.00
46.2843 912.00
46.3495 940.00
46.4147 947.00
46.4799 943.00
46.5451 934.00
46.6103 1025.00
46.6755 1067.00
46.7407 1073.00
46.8059 1087.00
46.8711 1227.00
46.9363 1328.00
47.0015 1420.00
47.0667 1619.00
47.1319 1894.00
47.1971 2106.00
47.2623 2463.00
47.3275 2447.00
47.3927 2398.00
47.4579 2113.00
47.523 1926.00
47.5882 1558.00
47.6534 1372.00
47.7186 1146.00
47.7838 980.00
47.849 1031.00
47.9142 951.00
47.9794 933.00
48.0446 933.00
48.1098 935.00
48.175 917.00
48.2402 1005.00
48.3054 1227.00
48.3706 1553.00
48.4358 1551.00
48.501 1402.00
48.5662 1221.00
48.6314 976.00
48.6966 980.00
48.7618 900.00
48.827 892.00
48.8922 927.00
48.9574 949.00
49.0226 914.00
49.0878 971.00
49.153 987.00
49.2182 1035.00
49.2834 1131.00
49.3486 1233.00
49.4138 1359.00
49.479 1439.00
49.5442 1636.00
49.6094 1528.00
49.6746 1618.00
49.7398 1627.00
49.805 1532.00
49.8702 1433.00
49.9354 1347.00
50.0006 1191.00
50.0658 1099.00
50.131 1067.00
50.1962 1141.00
50.2614 1100.00
50.3266 1285.00
50.3918 1652.00
50.457 1626.00
50.5222 1530.00
50.5874 1426.00
50.6526 1257.00
50.7178 1261.00
50.783 1307.00
50.8482 1352.00
50.9134 1329.00
50.9786 1361.00
51.0438 1279.00
51.109 1171.00
51.1742 1242.00
51.2394 1219.00
51.3046 1122.00
51.3698 1213.00
51.435 1325.00
51.5002 1444.00
51.5654 1524.00
51.6306 1720.00
51.6958 1821.00
51.761 2122.00
51.8262 2259.00
51.8914 2761.00
51.9566 3548.00
52.0218 4899.00
52.087 4939.00
52.1522 4119.00
52.2174 3596.00
52.2826 2972.00
52.3477 2577.00
52.4129 2054.00
52.4781 1773.00
52.5433 1441.00
52.6085 1156.00
52.6737 1049.00
52.7389 980.00
52.8041 970.00
52.8693 982.00
52.9345 959.00
52.9997 1013.00
53.0649 988.00
53.1301 1014.00
53.1953 1119.00
53.2605 1157.00
53.3257 1241.00
53.3909 1398.00
53.4561 1452.00
53.5213 1621.00
53.5865 1801.00
53.6517 1860.00
53.7169 1950.00
53.7821 1844.00
53.8473 1766.00
53.9125 1606.00
53.9777 1454.00
54.0429 1288.00
54.1081 1213.00
54.1733 1165.00
54.2385 1249.00
54.3037 1256.00
54.3689 1237.00
54.4341 1057.00
54.4993 1064.00
54.5645 1005.00
54.6297 870.00
54.6949 957.00
54.7601 1012.00
54.8253 1092.00
54.8905 1245.00
54.9557 1480.00
55.0209 1837.00
55.0861 1694.00
55.1513 1539.00
55.2165 1428.00
55.2817 1216.00
55.3469 1163.00
55.4121 1134.00
55.4773 1133.00
55.5425 1215.00
55.6077 1228.00
55.6729 1248.00
55.7381 1193.00
55.8033 1097.00
55.8685 1192.00
55.9337 1059.00
55.9989 1041.00
56.0641 949.00
56.1293 994.00
56.1945 1035.00
56.2597 1049.00
56.3249 1043.00
56.3901 1034.00
56.4553 942.00
56.5205 919.00
56.5857 802.00
56.6509 873.00
56.7161 857.00
56.7813 812.00
56.8465 805.00
56.9117 830.00
56.9769 794.00
57.042 802.00
57.1073 849.00
57.1724 840.00
57.2376 944.00
57.3028 967.00
57.368 1101.00
57.4332 1027.00
57.4984 1141.00
57.5636 1035.00
57.6288 1013.00
57.694 1048.00
57.7592 1030.00
57.8244 1017.00
57.8896 998.00
57.9548 1151.00
58.02 1291.00
58.0852 1284.00
58.1504 1372.00
58.2156 1357.00
58.2808 1234.00
58.346 1121.00
58.4112 1058.00
58.4764 1027.00
58.5416 1020.00
58.6068 930.00
58.672 963.00
58.7372 933.00
58.8024 868.00
58.8676 854.00
58.9328 891.00
58.998 940.00
59.0632 970.00
59.1284 965.00
59.1936 978.00
59.2588 1031.00
59.324 1174.00
59.3892 1253.00
59.4544 1401.00
59.5196 1513.00
59.5848 1690.00
59.65 1744.00
59.7152 1841.00
59.7804 1862.00
59.8456 1816.00
59.9108 1791.00
59.976 1729.00
60.0412 1635.00
60.1064 1569.00
60.1716 1459.00
60.2368 1432.00
60.302 1282.00
60.3672 1247.00
60.4324 1156.00
60.4976 1168.00
60.5628 1001.00
60.628 891.00
60.6932 902.00
60.7584 936.00
60.8236 834.00
60.8888 903.00
60.954 905.00
61.0192 955.00
61.0844 1102.00
61.1496 1120.00
61.2148 1123.00
61.28 1165.00
61.3452 1340.00
61.4104 1381.00
61.4756 1445.00
61.5408 1464.00
61.606 1462.00
61.6712 1450.00
61.7364 1322.00
61.8016 1408.00
61.8667 1303.00
61.932 1281.00
61.9971 1380.00
62.0623 1531.00
62.1275 1604.00
62.1927 1595.00
62.2579 1450.00
62.3231 1383.00
62.3883 1175.00
62.4535 1117.00
62.5187 1031.00
62.5839 956.00
62.6491 956.00
62.7143 944.00
62.7795 929.00
62.8447 960.00
62.9099 1043.00
62.9751 1010.00
63.0403 1125.00
63.1055 1221.00
63.1707 1170.00
63.2359 1043.00
63.3011 1019.00
63.3663 971.00
63.4315 1007.00
63.4967 1070.00
63.5619 995.00
63.6271 992.00
63.6923 1053.00
63.7575 1046.00
63.8227 951.00
63.8879 1065.00
63.9531 1046.00
64.0183 975.00
64.0835 859.00
64.1487 864.00
64.2139 803.00
64.2791 859.00
64.3443 987.00
64.4095 1106.00
64.4747 1169.00
64.5399 1110.00
64.6051 1033.00
64.6703 1002.00
64.7355 1004.00
64.8007 1016.00
64.8659 1173.00
64.9311 1428.00
64.9963 1545.00
65.0615 1550.00
65.1267 1408.00
65.1919 1315.00
65.2571 1210.00
65.3223 1061.00
65.3875 1075.00
65.4527 1064.00
65.5179 1023.00
65.5831 985.00
65.6483 1057.00
65.7135 1101.00
65.7787 1245.00
65.8439 1472.00
65.9091 1689.00
65.9743 1851.00
66.0395 1940.00
66.1047 1899.00
66.1699 2019.00
66.2351 1944.00
66.3003 1679.00
66.3655 1599.00
66.4307 1453.00
66.4959 1260.00
66.561 1140.00
66.6263 1065.00
66.6915 996.00
66.7566 1006.00
66.8218 995.00
66.887 1003.00
66.9522 924.00
67.0174 1038.00
67.0826 1054.00
67.1478 1093.00
67.213 1101.00
67.2782 1100.00
67.3434 1051.00
67.4086 1112.00
67.4738 1063.00
67.539 979.00
67.6042 988.00
67.6694 863.00
67.7346 802.00
67.7998 815.00
67.865 746.00
67.9302 804.00
67.9954 765.00
68.0606 742.00
68.1258 789.00
68.191 678.00
68.2562 776.00
68.3214 759.00
68.3866 780.00
68.4518 778.00
68.517 826.00
68.5822 934.00
68.6474 828.00
68.7126 921.00
68.7778 931.00
68.843 957.00
68.9082 937.00
68.9734 890.00
69.0386 921.00
69.1038 888.00
69.169 877.00
69.2342 832.00
69.2994 775.00
69.3646 800.00
69.4298 766.00
69.495 766.00
69.5602 753.00
69.6254 741.00
69.6906 762.00
69.7558 713.00
69.821 709.00
69.8862 685.00
69.9514 732.00
70.0166 754.00
70.0818 715.00
70.147 756.00
70.2122 735.00
70.2774 782.00
70.3426 704.00
70.4078 747.00
70.473 764.00
70.5382 687.00
70.6034 738.00
70.6686 693.00
70.7338 674.00
70.799 693.00
70.8642 694.00
70.9294 710.00
70.9946 718.00
71.0598 787.00
71.125 798.00
71.1902 820.00
71.2554 854.00
71.3205 929.00
71.3858 1014.00
71.451 1104.00
71.5162 1180.00
71.5813 1171.00
71.6465 1036.00
71.7117 1011.00
71.7769 1035.00
71.8421 995.00
71.9073 930.00
71.9725 970.00
72.0377 917.00
72.1029 909.00
72.1681 977.00
72.2333 976.00
72.2985 1011.00
72.3637 946.00
72.4289 1013.00
72.4941 974.00
72.5593 870.00
72.6245 923.00
72.6897 927.00
72.7549 800.00
72.8201 859.00
72.8853 784.00
72.9505 862.00
73.0157 837.00
73.0809 789.00
73.1461 731.00
73.2113 703.00
73.2765 714.00
73.3417 701.00
73.4069 675.00
73.4721 678.00
73.5373 745.00
73.6025 755.00
73.6677 766.00
73.7329 818.00
73.7981 812.00
73.8633 806.00
73.9285 807.00
73.9937 778.00
74.0589 816.00
74.1241 821.00
74.1893 797.00
74.2545 859.00
74.3197 807.00
74.3849 857.00
74.4501 831.00
74.5153 776.00
74.5805 821.00
74.6457 797.00
74.7109 831.00
74.7761 823.00
74.8413 802.00
74.9065 832.00
74.9717 801.00
75.0369 691.00
75.1021 721.00
75.1673 768.00
75.2325 753.00
75.2977 784.00
75.3629 796.00
75.4281 782.00
75.4933 826.00
75.5585 848.00
75.6237 918.00
75.6889 915.00
75.7541 878.00
75.8193 861.00
75.8845 893.00
75.9497 840.00
76.0149 844.00
76.0801 816.00
76.1452 766.00
76.2104 819.00
76.2756 788.00
76.3409 795.00
76.406 760.00
76.4712 767.00
76.5364 776.00
76.6016 780.00
76.6668 726.00
76.732 749.00
76.7972 706.00
76.8624 647.00
76.9276 715.00
76.9928 661.00
77.058 722.00
77.1232 682.00
77.1884 691.00
77.2536 719.00
77.3188 731.00
77.384 780.00
77.4492 797.00
77.5144 776.00
77.5796 746.00
77.6448 859.00
77.71 805.00
77.7752 813.00
77.8404 768.00
77.9056 776.00
77.9708 735.00
78.036 776.00
78.1012 818.00
78.1664 679.00
78.2316 763.00
78.2968 734.00
78.362 744.00
78.4272 709.00
78.4924 717.00
78.5576 743.00
78.6228 730.00
78.688 735.00
78.7532 749.00
78.8184 984.00
78.8836 1024.00
78.9488 1149.00
79.014 1106.00
79.0792 1029.00
79.1444 1068.00
79.2096 940.00
79.2748 899.00
79.34 864.00
79.4052 781.00
79.4704 742.00
79.5356 786.00
79.6008 723.00
79.666 681.00
79.7312 663.00
79.7964 732.00
79.8616 666.00
79.9268 688.00
79.992 712.00
80.0572 683.00
80.1224 681.00
80.1876 683.00
80.2528 683.00
80.318 704.00
80.3832 761.00
80.4484 757.00
80.5136 799.00
80.5788 800.00
80.644 813.00
80.7092 894.00
80.7744 866.00
80.8396 891.00
80.9048 925.00
80.9699 865.00
81.0351 942.00
81.1003 916.00
81.1655 918.00
81.2307 995.00
81.2959 915.00
81.3611 954.00
81.4263 929.00
81.4915 904.00
81.5567 869.00
81.6219 913.00
81.6871 794.00
81.7523 797.00
81.8175 762.00
81.8827 748.00
81.9479 785.00
82.0131 732.00
82.0783 706.00
82.1435 743.00
82.2087 767.00
82.2739 801.00
82.3391 762.00
82.4043 769.00
82.4695 814.00
82.5347 795.00
82.5999 762.00
82.6651 800.00
82.7303 842.00
82.7955 759.00
82.8607 767.00
82.9259 737.00
82.9911 830.00
83.0563 792.00
83.1215 748.00
83.1867 717.00
83.2519 742.00
83.3171 688.00
83.3823 761.00
83.4475 753.00
83.5127 773.00
83.5779 718.00
83.6431 746.00
83.7083 859.00
83.7735 906.00
83.8387 993.00
83.9039 977.00
83.9691 1044.00
84.0343 978.00
84.0995 900.00
84.1647 967.00
84.2299 894.00
84.2951 841.00
84.3603 947.00
84.4255 781.00
84.4907 824.00
84.5559 699.00
84.6211 780.00
84.6863 752.00
84.7515 631.00
84.8167 679.00
84.8819 687.00
84.9471 694.00
85.0123 657.00
85.0775 677.00
85.1427 705.00
85.2079 652.00
85.2731 642.00
85.3383 653.00
85.4035 659.00
85.4687 645.00
85.5339 638.00
85.5991 632.00
85.6643 627.00
85.7295 678.00
85.7946 641.00
85.8598 616.00
85.925 690.00
85.9903 688.00
86.0554 663.00
86.1206 707.00
86.1858 635.00
86.251 711.00
86.3162 687.00
86.3814 652.00
86.4466 646.00
86.5118 678.00
86.577 663.00
86.6422 649.00
86.7074 716.00
86.7726 656.00
86.8378 743.00
86.903 693.00
86.9682 749.00
87.0334 689.00
87.0986 758.00
87.1638 829.00
87.229 917.00
87.2942 1004.00
87.3594 1153.00
87.4246 1072.00
87.4898 1116.00
87.555 1114.00
87.6202 1078.00
87.6854 1046.00
87.7506 996.00
87.8158 952.00
87.881 878.00
87.9462 890.00
88.0114 884.00
88.0766 835.00
88.1418 876.00
88.207 859.00
88.2722 822.00
88.3374 822.00
88.4026 800.00
88.4678 847.00
88.533 792.00
88.5982 843.00
88.6634 843.00
88.7286 756.00
88.7938 795.00
88.859 794.00
88.9242 770.00
88.9894 759.00
89.0546 737.00
89.1198 690.00
89.185 721.00
89.2502 724.00
89.3154 715.00
89.3806 774.00
89.4458 735.00
89.511 792.00
89.5762 849.00
89.6414 834.00
89.7066 860.00
89.7718 865.00
89.837 893.00
89.9022 1030.00
89.9674 1139.00
90.0326 1104.00
90.0978 1047.00
90.163 1016.00
90.2282 965.00
90.2934 1014.00
90.3586 929.00
90.4238 887.00
90.489 796.00
90.5542 837.00
90.6193 788.00
90.6845 816.00
90.7497 852.00
90.8149 895.00
90.8801 889.00
90.9453 962.00
91.0105 1121.00
91.0757 1150.00
91.1409 1088.00
91.2061 1103.00
91.2713 1034.00
91.3365 1026.00
91.4017 927.00
91.4669 912.00
91.5321 925.00
91.5973 787.00
91.6625 762.00
91.7277 727.00
91.7929 711.00
91.8581 685.00
91.9233 705.00
91.9885 704.00
92.0537 672.00
92.1189 735.00
92.1841 665.00
92.2493 693.00
92.3145 689.00
92.3797 656.00
92.4449 694.00
92.5101 708.00
92.5753 689.00
92.6405 669.00
92.7057 705.00
92.7709 683.00
92.8361 615.00
92.9013 687.00
92.9665 725.00
93.0317 714.00
93.0969 712.00
93.1621 695.00
93.2273 693.00
93.2925 716.00
93.3577 768.00
93.4229 807.00
93.4881 821.00
93.5533 778.00
93.6185 767.00
93.6837 838.00
93.7489 778.00
93.8141 795.00
93.8793 810.00
93.9445 793.00
94.0097 760.00
94.0749 738.00
94.1401 798.00
94.2053 777.00
94.2705 783.00
94.3357 790.00
94.4009 740.00
94.4661 762.00
94.5313 761.00
94.5965 735.00
94.6617 739.00
94.7269 693.00
94.7921 730.00
94.8573 719.00
94.9225 688.00
94.9877 725.00
95.0529 662.00
95.1181 676.00
95.1833 675.00
95.2485 668.00
95.3137 737.00
95.3789 679.00
95.444 732.00
95.5092 690.00
95.5744 762.00
95.6396 772.00
95.7048 748.00
95.77 703.00
95.8352 748.00
95.9004 778.00
95.9656 799.00
96.0308 884.00
96.096 883.00
96.1612 881.00
96.2264 939.00
96.2916 876.00
96.3568 838.00
96.422 941.00
96.4872 860.00
96.5524 848.00
96.6176 847.00
96.6828 824.00
96.748 788.00
96.8132 836.00
96.8784 793.00
96.9436 732.00
97.0088 764.00
97.074 715.00
97.1392 701.00
97.2044 695.00
97.2696 700.00
97.3348 749.00
97.4 654.00
97.4652 610.00
97.5304 669.00
97.5956 675.00
97.6608 639.00
97.726 639.00
97.7912 640.00
97.8564 576.00
97.9216 629.00
97.9868 569.00
98.052 691.00
98.1172 611.00
98.1824 632.00
98.2476 599.00
98.3128 633.00
98.378 575.00
98.4432 647.00
98.5084 593.00
98.5736 634.00
98.6388 655.00
98.704 632.00
98.7692 661.00
98.8344 685.00
98.8996 676.00
98.9648 733.00
99.03 682.00
99.0952 672.00
99.1604 735.00
99.2256 732.00
99.2908 705.00
99.356 698.00
99.4212 738.00
99.4864 720.00
99.5516 701.00
99.6168 668.00
99.682 701.00
99.7472 690.00
99.8124 738.00
99.8776 729.00
99.9428 672.00
100.008 673.00
100.073 677.00
100.095 712.00