File: data/xrd_creation/results/NSC_208.xy
9.903433 2955.00
9.968632 3029.00
10.0338 3055.00
10.099 2926.00
10.1642 2845.00
10.2294 3014.00
10.2946 2834.00
10.3598 2915.00
10.425 2956.00
10.4902 2830.00
10.5554 2969.00
10.6206 2747.00
10.6858 2811.00
10.751 2860.00
10.8162 2764.00
10.8814 2762.00
10.9466 2676.00
11.0118 2672.00
11.077 2692.00
11.1422 2672.00
11.2074 2703.00
11.2726 2655.00
11.3378 2713.00
11.403 2693.00
11.4682 2567.00
11.5334 2588.00
11.5986 2651.00
11.6638 2508.00
11.729 2602.00
11.7942 2621.00
11.8594 2473.00
11.9246 2549.00
11.9898 2506.00
12.055 2502.00
12.1202 2491.00
12.1854 2428.00
12.2506 2420.00
12.3158 2436.00
12.381 2414.00
12.4462 2499.00
12.5114 2374.00
12.5766 2425.00
12.6418 2455.00
12.707 2401.00
12.7722 2383.00
12.8374 2456.00
12.9026 2359.00
12.9678 2329.00
13.033 2373.00
13.0982 2399.00
13.1634 2411.00
13.2286 2325.00
13.2938 2271.00
13.359 2307.00
13.4242 2302.00
13.4894 2214.00
13.5546 2292.00
13.6198 2318.00
13.685 2218.00
13.7502 2309.00
13.8154 2232.00
13.8805 2186.00
13.9457 2407.00
14.0109 2206.00
14.0761 2182.00
14.1413 2207.00
14.2065 2189.00
14.2717 2160.00
14.3369 2267.00
14.4021 2191.00
14.4673 2195.00
14.5325 2115.00
14.5977 2210.00
14.6629 2306.00
14.7281 2119.00
14.7933 2166.00
14.8585 2214.00
14.9237 2111.00
14.9889 2174.00
15.0541 2132.00
15.1193 2177.00
15.1845 2127.00
15.2497 2215.00
15.3149 2159.00
15.3801 2062.00
15.4453 2176.00
15.5105 2075.00
15.5757 2141.00
15.6409 2040.00
15.7061 2095.00
15.7713 2214.00
15.8365 2104.00
15.9017 2078.00
15.9669 2124.00
16.0321 2032.00
16.0973 2097.00
16.1625 2080.00
16.2277 2068.00
16.2929 2017.00
16.3581 2086.00
16.4233 2085.00
16.4885 2061.00
16.5537 2142.00
16.6189 2055.00
16.6841 2047.00
16.7493 2051.00
16.8145 2136.00
16.8797 2073.00
16.9449 2037.00
17.0101 2103.00
17.0753 1955.00
17.1405 2016.00
17.2057 2054.00
17.2709 2021.00
17.3361 2033.00
17.4013 2151.00
17.4665 2082.00
17.5317 2232.00
17.5969 2326.00
17.6621 2434.00
17.7273 2732.00
17.7925 2910.00
17.8577 2913.00
17.9229 2548.00
17.9881 2252.00
18.0533 2136.00
18.1185 2124.00
18.1837 2065.00
18.2489 2073.00
18.3141 1970.00
18.3793 1969.00
18.4445 2088.00
18.5097 1974.00
18.5749 1923.00
18.6401 2037.00
18.7052 1860.00
18.7704 1955.00
18.8356 1921.00
18.9008 1969.00
18.966 1982.00
19.0312 1987.00
19.0964 1970.00
19.1616 2009.00
19.2268 2021.00
19.292 2042.00
19.3572 2089.00
19.4224 1951.00
19.4876 1862.00
19.5528 1947.00
19.618 1890.00
19.6832 1962.00
19.7484 1960.00
19.8136 1982.00
19.8788 2053.00
19.944 1930.00
20.0092 2005.00
20.0744 2065.00
20.1396 2084.00
20.2048 2280.00
20.27 2320.00
20.3352 2570.00
20.4004 2838.00
20.4656 2637.00
20.5308 2356.00
20.596 2226.00
20.6612 2227.00
20.7264 2241.00
20.7916 2182.00
20.8568 2246.00
20.922 2403.00
20.9872 2391.00
21.0524 2350.00
21.1176 2441.00
21.1828 2201.00
21.248 2188.00
21.3132 2048.00
21.3784 2033.00
21.4436 2006.00
21.5088 1960.00
21.574 1949.00
21.6392 1917.00
21.7044 1870.00
21.7696 1901.00
21.8348 1870.00
21.9 1959.00
21.9652 1937.00
22.0304 1915.00
22.0956 1987.00
22.1608 1982.00
22.226 1985.00
22.2912 2037.00
22.3564 2005.00
22.4216 2009.00
22.4868 1930.00
22.552 1882.00
22.6172 1982.00
22.6824 1956.00
22.7476 1852.00
22.8128 1836.00
22.878 1859.00
22.9432 1886.00
23.0084 1875.00
23.0736 1817.00
23.1388 1792.00
23.204 1820.00
23.2692 1924.00
23.3344 1900.00
23.3996 1937.00
23.4647 1933.00
23.5299 1938.00
23.5951 1953.00
23.6603 1914.00
23.7255 2029.00
23.7907 1966.00
23.8559 1844.00
23.9211 1899.00
23.9863 2052.00
24.0515 2150.00
24.1167 2265.00
24.1819 2559.00
24.2471 2828.00
24.3123 3493.00
24.3775 4356.00
24.4427 4728.00
24.5079 4752.00
24.5731 3944.00
24.6383 3336.00
24.7035 3212.00
24.7687 3643.00
24.8339 3826.00
24.8991 3951.00
24.9643 3524.00
25.0295 2669.00
25.0947 2174.00
25.1599 1973.00
25.2251 1944.00
25.2903 1876.00
25.3555 1772.00
25.4207 1789.00
25.4859 1676.00
25.5511 1774.00
25.6163 1757.00
25.6815 1805.00
25.7467 1764.00
25.8119 1873.00
25.8771 1772.00
25.9423 1839.00
26.0075 1687.00
26.0727 1818.00
26.1379 1823.00
26.2031 1752.00
26.2683 1811.00
26.3335 1752.00
26.3987 1817.00
26.4639 1737.00
26.5291 1780.00
26.5943 1833.00
26.6595 1958.00
26.7247 1941.00
26.7899 1988.00
26.8551 1830.00
26.9203 1794.00
26.9855 1796.00
27.0507 1777.00
27.1159 1688.00
27.1811 1699.00
27.2463 1756.00
27.3115 1664.00
27.3767 1719.00
27.4419 1796.00
27.5071 1787.00
27.5723 1785.00
27.6375 1828.00
27.7027 1871.00
27.7679 1902.00
27.8331 2085.00
27.8983 2088.00
27.9635 2192.00
28.0287 2307.00
28.0939 2516.00
28.1591 2874.00
28.2243 3373.00
28.2894 4533.00
28.3546 6565.00
28.4198 10287.00
28.485 14526.00
28.5502 16612.00
28.6154 17500.00
28.6806 15974.00
28.7458 10951.00
28.811 6435.00
28.8762 4280.00
28.9414 3288.00
29.0066 2792.00
29.0718 2443.00
29.137 2329.00
29.2022 2175.00
29.2674 2097.00
29.3326 2026.00
29.3978 1937.00
29.463 1891.00
29.5282 1851.00
29.5934 1899.00
29.6586 1850.00
29.7238 1754.00
29.789 1781.00
29.8542 1833.00
29.9194 1752.00
29.9846 1778.00
30.0498 1756.00
30.115 1782.00
30.1802 1849.00
30.2454 1755.00
30.3106 1740.00
30.3758 2006.00
30.441 2100.00
30.5062 1969.00
30.5714 1882.00
30.6366 1756.00
30.7018 1782.00
30.767 1957.00
30.8322 1856.00
30.8974 1867.00
30.9626 1887.00
31.0278 1971.00
31.093 2003.00
31.1582 2073.00
31.2234 2182.00
31.2886 2250.00
31.3538 2474.00
31.419 2749.00
31.4842 3134.00
31.5494 3836.00
31.6146 5022.00
31.6798 6975.00
31.745 9613.00
31.8102 11363.00
31.8754 12249.00
31.9406 13168.00
32.0058 11843.00
32.071 8189.00
32.1362 4988.00
32.2014 3432.00
32.2666 2739.00
32.3318 2405.00
32.397 2233.00
32.4622 1999.00
32.5274 1876.00
32.5926 1913.00
32.6578 1788.00
32.723 1808.00
32.7882 1801.00
32.8534 1888.00
32.9186 2014.00
32.9838 2024.00
33.0489 2020.00
33.1141 1907.00
33.1793 1853.00
33.2445 1929.00
33.3097 1995.00
33.3749 2243.00
33.4401 2295.00
33.5053 2296.00
33.5705 2193.00
33.6357 1977.00
33.7009 1989.00
33.7661 1851.00
33.8313 1830.00
33.8965 1758.00
33.9617 1968.00
34.0269 1952.00
34.0921 2058.00
34.1573 2277.00
34.2225 2501.00
34.2877 2889.00
34.3529 3689.00
34.4181 4652.00
34.4833 5456.00
34.5485 5982.00
34.6137 6760.00
34.6789 6842.00
34.7441 5786.00
34.8093 5187.00
34.8745 5261.00
34.9397 5131.00
35.0049 3967.00
35.0701 2951.00
35.1353 2293.00
35.2005 2116.00
35.2657 2009.00
35.3309 2054.00
35.3961 2160.00
35.4613 2447.00
35.5265 3005.00
35.5917 3486.00
35.6569 3664.00
35.7221 4099.00
35.7873 4841.00
35.8525 5013.00
35.9177 3804.00
35.9829 2567.00
36.0481 2038.00
36.1133 1919.00
36.1785 2065.00
36.2437 2124.00
36.3089 2282.00
36.3741 2407.00
36.4393 2199.00
36.5045 1933.00
36.5697 1735.00
36.6349 1567.00
36.7001 1542.00
36.7653 1482.00
36.8305 1415.00
36.8957 1464.00
36.9609 1463.00
37.0261 1403.00
37.0913 1389.00
37.1565 1424.00
37.2217 1375.00
37.2869 1421.00
37.3521 1370.00
37.4173 1418.00
37.4825 1372.00
37.5477 1371.00
37.6129 1348.00
37.6781 1363.00
37.7433 1389.00
37.8085 1365.00
37.8736 1286.00
37.9388 1325.00
38.004 1308.00
38.0692 1378.00
38.1344 1394.00
38.1996 1471.00
38.2648 1693.00
38.33 1718.00
38.3952 1591.00
38.4604 1399.00
38.5256 1408.00
38.5908 1371.00
38.656 1503.00
38.7212 1731.00
38.7864 1834.00
38.8516 2076.00
38.9168 2140.00
38.982 2192.00
39.0472 2475.00
39.1124 2539.00
39.1776 2250.00
39.2428 1962.00
39.308 1604.00
39.3732 1493.00
39.4384 1413.00
39.5036 1434.00
39.5688 1398.00
39.634 1332.00
39.6992 1391.00
39.7644 1432.00
39.8296 1383.00
39.8948 1275.00
39.96 1281.00
40.0252 1331.00
40.0904 1356.00
40.1556 1403.00
40.2208 1471.00
40.286 1479.00
40.3512 1545.00
40.4164 1558.00
40.4816 1506.00
40.5468 1550.00
40.612 1466.00
40.6772 1459.00
40.7424 1530.00
40.8076 1677.00
40.8728 1822.00
40.938 2130.00
41.0032 2494.00
41.0684 2685.00
41.1336 2647.00
41.1988 2984.00
41.264 3207.00
41.3292 3073.00
41.3944 2908.00
41.4596 2592.00
41.5248 2285.00
41.59 2287.00
41.6552 2436.00
41.7204 2453.00
41.7856 2312.00
41.8508 2120.00
41.916 2022.00
41.9812 1802.00
42.0464 1553.00
42.1116 1484.00
42.1768 1429.00
42.242 1317.00
42.3072 1272.00
42.3724 1362.00
42.4376 1302.00
42.5028 1240.00
42.568 1262.00
42.6332 1285.00
42.6983 1235.00
42.7635 1307.00
42.8287 1199.00
42.8939 1250.00
42.9591 1267.00
43.0243 1247.00
43.0895 1207.00
43.1547 1283.00
43.2199 1228.00
43.2851 1235.00
43.3503 1319.00
43.4155 1307.00
43.4807 1212.00
43.5459 1235.00
43.6111 1245.00
43.6763 1195.00
43.7415 1223.00
43.8067 1267.00
43.8719 1246.00
43.9371 1220.00
44.0023 1238.00
44.0675 1217.00
44.1327 1206.00
44.1979 1131.00
44.2631 1211.00
44.3283 1190.00
44.3935 1131.00
44.4587 1283.00
44.5239 1247.00
44.5891 1241.00
44.6543 1237.00
44.7195 1277.00
44.7847 1338.00
44.8499 1345.00
44.9151 1340.00
44.9803 1522.00
45.0455 1599.00
45.1107 1755.00
45.1759 1810.00
45.2411 1834.00
45.3063 1899.00
45.3715 1830.00
45.4367 1828.00
45.5019 1721.00
45.5671 1586.00
45.6323 1443.00
45.6975 1515.00
45.7627 1714.00
45.8279 1846.00
45.8931 1927.00
45.9583 1980.00
46.0235 1979.00
46.0887 2105.00
46.1539 1888.00
46.2191 1684.00
46.2843 1405.00
46.3495 1232.00
46.4147 1244.00
46.4799 1270.00
46.5451 1188.00
46.6103 1237.00
46.6755 1202.00
46.7407 1188.00
46.8059 1392.00
46.8711 1248.00
46.9363 1161.00
47.0015 1151.00
47.0667 1203.00
47.1319 1168.00
47.1971 1168.00
47.2623 1242.00
47.3275 1281.00
47.3927 1295.00
47.4579 1259.00
47.523 1320.00
47.5882 1338.00
47.6534 1323.00
47.7186 1219.00
47.7838 1256.00
47.849 1225.00
47.9142 1224.00
47.9794 1123.00
48.0446 1191.00
48.1098 1160.00
48.175 1131.00
48.2402 1228.00
48.3054 1220.00
48.3706 1164.00
48.4358 1173.00
48.501 1303.00
48.5662 1265.00
48.6314 1257.00
48.6966 1253.00
48.7618 1165.00
48.827 1276.00
48.8922 1225.00
48.9574 1290.00
49.0226 1347.00
49.0878 1394.00
49.153 1498.00
49.2182 1619.00
49.2834 1685.00
49.3486 1886.00
49.4138 2104.00
49.479 2607.00
49.5442 3086.00
49.6094 2964.00
49.6746 3011.00
49.7398 3201.00
49.805 3730.00
49.8702 3678.00
49.9354 3033.00
50.0006 2586.00
50.0658 2080.00
50.131 1884.00
50.1962 1898.00
50.2614 2126.00
50.3266 2744.00
50.3918 3309.00
50.457 3159.00
50.5222 3125.00
50.5874 3285.00
50.6526 4033.00
50.7178 4865.00
50.783 4655.00
50.8482 4062.00
50.9134 3345.00
50.9786 2819.00
51.0438 2677.00
51.109 2872.00
51.1742 2932.00
51.2394 2485.00
51.3046 2211.00
51.3698 1996.00
51.435 1761.00
51.5002 1846.00
51.5654 1753.00
51.6306 1657.00
51.6958 1702.00
51.761 1766.00
51.8262 1763.00
51.8914 1679.00
51.9566 1448.00
52.0218 1408.00
52.087 1319.00
52.1522 1279.00
52.2174 1288.00
52.2826 1278.00
52.3477 1205.00
52.4129 1222.00
52.4781 1316.00
52.5433 1355.00
52.6085 1345.00
52.6737 1354.00
52.7389 1477.00
52.8041 1454.00
52.8693 1433.00
52.9345 1433.00
52.9997 1330.00
53.0649 1306.00
53.1301 1250.00
53.1953 1207.00
53.2605 1199.00
53.3257 1203.00
53.3909 1165.00
53.4561 1183.00
53.5213 1174.00
53.5865 1073.00
53.6517 1187.00
53.7169 1144.00
53.7821 1248.00
53.8473 1259.00
53.9125 1299.00
53.9777 1250.00
54.0429 1333.00
54.1081 1385.00
54.1733 1428.00
54.2385 1706.00
54.3037 1831.00
54.3689 2106.00
54.4341 2194.00
54.4993 2109.00
54.5645 2232.00
54.6297 2319.00
54.6949 2634.00
54.7601 2540.00
54.8253 2311.00
54.8905 2027.00
54.9557 1739.00
55.0209 1459.00
55.0861 1433.00
55.1513 1406.00
55.2165 1454.00
55.2817 1473.00
55.3469 1469.00
55.4121 1589.00
55.4773 1782.00
55.5425 2020.00
55.6077 2203.00
55.6729 2464.00
55.7381 2540.00
55.8033 2727.00
55.8685 3166.00
55.9337 3461.00
55.9989 3416.00
56.0641 3349.00
56.1293 3384.00
56.1945 3134.00
56.2597 2635.00
56.3249 2424.00
56.3901 2215.00
56.4553 2294.00
56.5205 2467.00
56.5857 2325.00
56.6509 2162.00
56.7161 1791.00
56.7813 1499.00
56.8465 1380.00
56.9117 1324.00
56.9769 1308.00
57.042 1282.00
57.1073 1260.00
57.1724 1305.00
57.2376 1371.00
57.3028 1464.00
57.368 1653.00
57.4332 1872.00
57.4984 1763.00
57.5636 1824.00
57.6288 1828.00
57.694 1910.00
57.7592 2102.00
57.8244 2138.00
57.8896 2026.00
57.9548 1942.00
58.02 1778.00
58.0852 1764.00
58.1504 1742.00
58.2156 1659.00
58.2808 1676.00
58.346 1625.00
58.4112 1882.00
58.4764 2020.00
58.5416 2242.00
58.6068 2034.00
58.672 1976.00
58.7372 1844.00
58.8024 1741.00
58.8676 1766.00
58.9328 1785.00
58.998 1570.00
59.0632 1472.00
59.1284 1421.00
59.1936 1299.00
59.2588 1352.00
59.324 1332.00
59.3892 1215.00
59.4544 1291.00
59.5196 1277.00
59.5848 1290.00
59.65 1280.00
59.7152 1345.00
59.7804 1349.00
59.8456 1478.00
59.9108 1528.00
59.976 1792.00
60.0412 1938.00
60.1064 1926.00
60.1716 1934.00
60.2368 2138.00
60.302 2221.00
60.3672 2423.00
60.4324 2737.00
60.4976 2663.00
60.5628 2441.00
60.628 2399.00
60.6932 2258.00
60.7584 1994.00
60.8236 1752.00
60.8888 1505.00
60.954 1516.00
61.0192 1384.00
61.0844 1364.00
61.1496 1303.00
61.2148 1343.00
61.28 1311.00
61.3452 1311.00
61.4104 1409.00
61.4756 1396.00
61.5408 1541.00
61.606 1719.00
61.6712 1634.00
61.7364 1628.00
61.8016 1691.00
61.8667 1782.00
61.932 1945.00
61.9971 2150.00
62.0623 2012.00
62.1275 1930.00
62.1927 2030.00
62.2579 2011.00
62.3231 1932.00
62.3883 1841.00
62.4535 1985.00
62.5187 2079.00
62.5839 2172.00
62.6491 2149.00
62.7143 1968.00
62.7795 1878.00
62.8447 1755.00
62.9099 1756.00
62.9751 1860.00
63.0403 1933.00
63.1055 2028.00
63.1707 1919.00
63.2359 1867.00
63.3011 1743.00
63.3663 1864.00
63.4315 1966.00
63.4967 2158.00
63.5619 2175.00
63.6271 1919.00
63.6923 1805.00
63.7575 1560.00
63.8227 1365.00
63.8879 1198.00
63.9531 1169.00
64.0183 1178.00
64.0835 1188.00
64.1487 1185.00
64.2139 1228.00
64.2791 1196.00
64.3443 1352.00
64.4095 1300.00
64.4747 1340.00
64.5399 1335.00
64.6051 1402.00
64.6703 1364.00
64.7355 1485.00
64.8007 1413.00
64.8659 1444.00
64.9311 1512.00
64.9963 1441.00
65.0615 1281.00
65.1267 1284.00
65.1919 1223.00
65.2571 1193.00
65.3223 1175.00
65.3875 1210.00
65.4527 1262.00
65.5179 1302.00
65.5831 1407.00
65.6483 1532.00
65.7135 1406.00
65.7787 1489.00
65.8439 1570.00
65.9091 1667.00
65.9743 1855.00
66.0395 1884.00
66.1047 1927.00
66.1699 1889.00
66.2351 1858.00
66.3003 1989.00
66.3655 2130.00
66.4307 2055.00
66.4959 1915.00
66.561 1767.00
66.6263 1634.00
66.6915 1420.00
66.7566 1261.00
66.8218 1205.00
66.887 1127.00
66.9522 1113.00
67.0174 1057.00
67.0826 1094.00
67.1478 1020.00
67.213 961.00
67.2782 1027.00
67.3434 1005.00
67.4086 996.00
67.4738 979.00
67.539 1014.00
67.6042 1001.00
67.6694 1034.00
67.7346 950.00
67.7998 961.00
67.865 918.00
67.9302 1001.00
67.9954 931.00
68.0606 974.00
68.1258 974.00
68.191 975.00
68.2562 960.00
68.3214 1031.00
68.3866 948.00
68.4518 1001.00
68.517 937.00
68.5822 1026.00
68.6474 993.00
68.7126 981.00
68.7778 975.00
68.843 1030.00
68.9082 985.00
68.9734 1024.00
69.0386 1028.00
69.1038 1077.00
69.169 1166.00
69.2342 1160.00
69.2994 1130.00
69.3646 1107.00
69.4298 1189.00
69.495 1263.00
69.5602 1358.00
69.6254 1301.00
69.6906 1313.00
69.7558 1269.00
69.821 1241.00
69.8862 1143.00
69.9514 1116.00
70.0166 1141.00
70.0818 1122.00
70.147 1136.00
70.2122 1114.00
70.2774 1132.00
70.3426 1113.00
70.4078 1129.00
70.473 1114.00
70.5382 1060.00
70.6034 1159.00
70.6686 1067.00
70.7338 1074.00
70.799 1056.00
70.8642 1137.00
70.9294 1062.00
70.9946 1097.00
71.0598 982.00
71.125 1124.00
71.1902 1109.00
71.2554 1123.00
71.3205 1269.00
71.3858 1352.00
71.451 1404.00
71.5162 1364.00
71.5813 1421.00
71.6465 1451.00
71.7117 1526.00
71.7769 1684.00
71.8421 1630.00
71.9073 1658.00
71.9725 1640.00
72.0377 1464.00
72.1029 1382.00
72.1681 1339.00
72.2333 1315.00
72.2985 1249.00
72.3637 1256.00
72.4289 1220.00
72.4941 1191.00
72.5593 1241.00
72.6245 1157.00
72.6897 1265.00
72.7549 1343.00
72.8201 1296.00
72.8853 1296.00
72.9505 1255.00
73.0157 1206.00
73.0809 1191.00
73.1461 1195.00
73.2113 1248.00
73.2765 1167.00
73.3417 1244.00
73.4069 1201.00
73.4721 1105.00
73.5373 1070.00
73.6025 1080.00
73.6677 1045.00
73.7329 1060.00
73.7981 1027.00
73.8633 963.00
73.9285 1047.00
73.9937 1030.00
74.0589 1003.00
74.1241 1031.00
74.1893 1054.00
74.2545 1021.00
74.3197 980.00
74.3849 1030.00
74.4501 988.00
74.5153 1024.00
74.5805 1001.00
74.6457 1032.00
74.7109 1050.00
74.7761 1052.00
74.8413 1056.00
74.9065 1086.00
74.9717 1011.00
75.0369 1093.00
75.1021 1163.00
75.1673 1068.00
75.2325 1301.00
75.2977 1379.00
75.3629 1399.00
75.4281 1436.00
75.4933 1432.00
75.5585 1375.00
75.6237 1407.00
75.6889 1306.00
75.7541 1445.00
75.8193 1506.00
75.8845 1518.00
75.9497 1328.00
76.0149 1403.00
76.0801 1248.00
76.1452 1191.00
76.2104 1154.00
76.2756 1083.00
76.3409 1066.00
76.406 1071.00
76.4712 1026.00
76.5364 1108.00
76.6016 1091.00
76.6668 1104.00
76.732 1166.00
76.7972 1102.00
76.8624 1131.00
76.9276 1145.00
76.9928 1137.00
77.058 1158.00
77.1232 1203.00
77.1884 1231.00
77.2536 1216.00
77.3188 1253.00
77.384 1189.00
77.4492 1136.00
77.5144 1218.00
77.5796 1136.00
77.6448 1128.00
77.71 1181.00
77.7752 1112.00
77.8404 1087.00
77.9056 1101.00
77.9708 1138.00
78.036 1170.00
78.1012 1246.00
78.1664 1173.00
78.2316 1287.00
78.2968 1217.00
78.362 1145.00
78.4272 1083.00
78.4924 1133.00
78.5576 1096.00
78.6228 1080.00
78.688 1114.00
78.7532 1161.00
78.8184 1176.00
78.8836 1169.00
78.9488 1185.00
79.014 1166.00
79.0792 1203.00
79.1444 1258.00
79.2096 1123.00
79.2748 1134.00
79.34 1157.00
79.4052 1187.00
79.4704 1165.00
79.5356 1165.00
79.6008 1283.00
79.666 1359.00
79.7312 1253.00
79.7964 1178.00
79.8616 1161.00
79.9268 1169.00
79.992 1111.00
80.0572 1009.00
80.1224 964.00
80.1876 992.00
80.2528 975.00
80.318 983.00
80.3832 1015.00
80.4484 998.00
80.5136 994.00
80.5788 1018.00
80.644 1067.00
80.7092 939.00
80.7744 959.00
80.8396 1006.00
80.9048 1023.00
80.9699 1011.00
81.0351 998.00
81.1003 1009.00
81.1655 1034.00
81.2307 1000.00
81.2959 1015.00
81.3611 982.00
81.4263 1050.00
81.4915 1069.00
81.5567 1032.00
81.6219 971.00
81.6871 1107.00
81.7523 1094.00
81.8175 1115.00
81.8827 1101.00
81.9479 1140.00
82.0131 1176.00
82.0783 1135.00
82.1435 1143.00
82.2087 1169.00
82.2739 1242.00
82.3391 1283.00
82.4043 1263.00
82.4695 1203.00
82.5347 1235.00
82.5999 1221.00
82.6651 1275.00
82.7303 1255.00
82.7955 1194.00
82.8607 1159.00
82.9259 1168.00
82.9911 1182.00
83.0563 1210.00
83.1215 1150.00
83.1867 1251.00
83.2519 1335.00
83.3171 1450.00
83.3823 1543.00
83.4475 1363.00
83.5127 1309.00
83.5779 1304.00
83.6431 1297.00
83.7083 1339.00
83.7735 1333.00
83.8387 1352.00
83.9039 1470.00
83.9691 1292.00
84.0343 1364.00
84.0995 1335.00
84.1647 1416.00
84.2299 1370.00
84.2951 1384.00
84.3603 1271.00
84.4255 1224.00
84.4907 1208.00
84.5559 1234.00
84.6211 1288.00
84.6863 1323.00
84.7515 1362.00
84.8167 1287.00
84.8819 1330.00
84.9471 1376.00
85.0123 1369.00
85.0775 1364.00
85.1427 1289.00
85.2079 1203.00
85.2731 1150.00
85.3383 1168.00
85.4035 1099.00
85.4687 1092.00
85.5339 1109.00
85.5991 1073.00
85.6643 1093.00
85.7295 1141.00
85.7946 1114.00
85.8598 1091.00
85.925 1096.00
85.9903 1060.00
86.0554 1067.00
86.1206 994.00
86.1858 993.00
86.251 996.00
86.3162 1065.00
86.3814 998.00
86.4466 1076.00
86.5118 1028.00
86.577 1080.00
86.6422 1079.00
86.7074 1060.00
86.7726 1073.00
86.8378 1020.00
86.903 1114.00
86.9682 1089.00
87.0334 1106.00
87.0986 1040.00
87.1638 1040.00
87.229 1079.00
87.2942 990.00
87.3594 977.00
87.4246 1058.00
87.4898 1024.00
87.555 1054.00
87.6202 1164.00
87.6854 1132.00
87.7506 1066.00
87.8158 1098.00
87.881 1101.00
87.9462 1053.00
88.0114 1086.00
88.0766 1097.00
88.1418 1100.00
88.207 1219.00
88.2722 1304.00
88.3374 1300.00
88.4026 1252.00
88.4678 1249.00
88.533 1303.00
88.5982 1262.00
88.6634 1298.00
88.7286 1281.00
88.7938 1313.00
88.859 1203.00
88.9242 1323.00
88.9894 1319.00
89.0546 1414.00
89.1198 1280.00
89.185 1237.00
89.2502 1305.00
89.3154 1313.00
89.3806 1356.00
89.4458 1350.00
89.511 1261.00
89.5762 1257.00
89.6414 1183.00
89.7066 1129.00
89.7718 1224.00
89.837 1126.00
89.9022 1199.00
89.9674 1217.00
90.0326 1190.00
90.0978 1283.00
90.163 1264.00
90.2282 1196.00
90.2934 1223.00
90.3586 1311.00
90.4238 1260.00
90.489 1237.00
90.5542 1223.00
90.6193 1313.00
90.6845 1259.00
90.7497 1267.00
90.8149 1270.00
90.8801 1243.00
90.9453 1181.00
91.0105 1167.00
91.0757 1072.00
91.1409 1017.00
91.2061 1010.00
91.2713 1057.00
91.3365 1000.00
91.4017 1061.00
91.4669 1021.00
91.5321 1093.00
91.5973 1057.00
91.6625 1007.00
91.7277 938.00
91.7929 990.00
91.8581 995.00
91.9233 997.00
91.9885 1035.00
92.0537 1055.00
92.1189 1017.00
92.1841 1040.00
92.2493 1039.00
92.3145 1051.00
92.3797 1015.00
92.4449 968.00
92.5101 981.00
92.5753 947.00
92.6405 912.00
92.7057 931.00
92.7709 904.00
92.8361 886.00
92.9013 890.00
92.9665 863.00
93.0317 905.00
93.0969 905.00
93.1621 961.00
93.2273 939.00
93.2925 959.00
93.3577 907.00
93.4229 972.00
93.4881 932.00
93.5533 965.00
93.6185 1007.00
93.6837 963.00
93.7489 947.00
93.8141 1051.00
93.8793 1039.00
93.9445 1021.00
94.0097 1066.00
94.0749 1016.00
94.1401 1043.00
94.2053 986.00
94.2705 975.00
94.3357 985.00
94.4009 991.00
94.4661 1024.00
94.5313 1041.00
94.5965 1095.00
94.6617 1134.00
94.7269 1059.00
94.7921 1096.00
94.8573 1046.00
94.9225 1041.00
94.9877 1133.00
95.0529 1102.00
95.1181 1019.00
95.1833 1133.00
95.2485 1045.00
95.3137 1100.00
95.3789 1127.00
95.444 1076.00
95.5092 1095.00
95.5744 1147.00
95.6396 1116.00
95.7048 1193.00
95.77 1213.00
95.8352 1141.00
95.9004 1241.00
95.9656 1238.00
96.0308 1250.00
96.096 1290.00
96.1612 1225.00
96.2264 1256.00
96.2916 1253.00
96.3568 1249.00
96.422 1206.00
96.4872 1202.00
96.5524 1178.00
96.6176 1240.00
96.6828 1221.00
96.748 1261.00
96.8132 1280.00
96.8784 1269.00
96.9436 1340.00
97.0088 1355.00
97.074 1393.00
97.1392 1327.00
97.2044 1319.00
97.2696 1322.00
97.3348 1320.00
97.4 1460.00
97.4652 1419.00
97.5304 1441.00
97.5956 1370.00
97.6608 1338.00
97.726 1336.00
97.7912 1348.00
97.8564 1416.00
97.9216 1333.00
97.9868 1340.00
98.052 1266.00
98.1172 1303.00
98.1824 1229.00
98.2476 1242.00
98.3128 1220.00
98.378 1104.00
98.4432 1071.00
98.5084 1134.00
98.5736 1055.00
98.6388 1073.00
98.704 1120.00
98.7692 1200.00
98.8344 1271.00
98.8996 1246.00
98.9648 1227.00
99.03 1216.00
99.0952 1262.00
99.1604 1235.00
99.2256 1266.00
99.2908 1215.00
99.356 1270.00
99.4212 1235.00
99.4864 1241.00
99.5516 1289.00
99.6168 1409.00
99.682 1302.00
99.7472 1256.00
99.8124 1320.00
99.8776 1304.00
99.9428 1268.00
100.008 1308.00
100.073 1258.00
100.095 1254.00