File: data/xrd_creation/results/NSC_17.xy
9.903433 2660.00
9.968632 2688.00
10.0338 2653.00
10.099 2581.00
10.1642 2620.00
10.2294 2645.00
10.2946 2536.00
10.3598 2510.00
10.425 2524.00
10.4902 2502.00
10.5554 2527.00
10.6206 2462.00
10.6858 2379.00
10.751 2340.00
10.8162 2360.00
10.8814 2395.00
10.9466 2339.00
11.0118 2314.00
11.077 2256.00
11.1422 2303.00
11.2074 2241.00
11.2726 2230.00
11.3378 2218.00
11.403 2263.00
11.4682 2267.00
11.5334 2173.00
11.5986 2245.00
11.6638 2026.00
11.729 2065.00
11.7942 2070.00
11.8594 2122.00
11.9246 2106.00
11.9898 2119.00
12.055 2104.00
12.1202 2081.00
12.1854 2042.00
12.2506 2009.00
12.3158 2011.00
12.381 2017.00
12.4462 1992.00
12.5114 1927.00
12.5766 1943.00
12.6418 1989.00
12.707 1919.00
12.7722 1923.00
12.8374 1862.00
12.9026 1845.00
12.9678 1893.00
13.033 1865.00
13.0982 1792.00
13.1634 1850.00
13.2286 1862.00
13.2938 1790.00
13.359 1814.00
13.4242 1840.00
13.4894 1790.00
13.5546 1756.00
13.6198 1843.00
13.685 1774.00
13.7502 1779.00
13.8154 1729.00
13.8805 1811.00
13.9457 1858.00
14.0109 1825.00
14.0761 1960.00
14.1413 1994.00
14.2065 1950.00
14.2717 1960.00
14.3369 1831.00
14.4021 1799.00
14.4673 1733.00
14.5325 1785.00
14.5977 1687.00
14.6629 1885.00
14.7281 1878.00
14.7933 2125.00
14.8585 2440.00
14.9237 2671.00
14.9889 3032.00
15.0541 3286.00
15.1193 3512.00
15.1845 3148.00
15.2497 3101.00
15.3149 2680.00
15.3801 2016.00
15.4453 1808.00
15.5105 1711.00
15.5757 1635.00
15.6409 1635.00
15.7061 1605.00
15.7713 1676.00
15.8365 1531.00
15.9017 1575.00
15.9669 1554.00
16.0321 1533.00
16.0973 1529.00
16.1625 1612.00
16.2277 1528.00
16.2929 1565.00
16.3581 1547.00
16.4233 1591.00
16.4885 1569.00
16.5537 1528.00
16.6189 1545.00
16.6841 1570.00
16.7493 1551.00
16.8145 1499.00
16.8797 1495.00
16.9449 1489.00
17.0101 1486.00
17.0753 1492.00
17.1405 1524.00
17.2057 1521.00
17.2709 1432.00
17.3361 1490.00
17.4013 1551.00
17.4665 1382.00
17.5317 1452.00
17.5969 1457.00
17.6621 1474.00
17.7273 1436.00
17.7925 1413.00
17.8577 1457.00
17.9229 1496.00
17.9881 1448.00
18.0533 1440.00
18.1185 1390.00
18.1837 1420.00
18.2489 1391.00
18.3141 1438.00
18.3793 1435.00
18.4445 1501.00
18.5097 1445.00
18.5749 1394.00
18.6401 1411.00
18.7052 1476.00
18.7704 1385.00
18.8356 1335.00
18.9008 1461.00
18.966 1382.00
19.0312 1468.00
19.0964 1467.00
19.1616 1448.00
19.2268 1388.00
19.292 1481.00
19.3572 1632.00
19.4224 1730.00
19.4876 1904.00
19.5528 2006.00
19.618 2103.00
19.6832 2111.00
19.7484 2025.00
19.8136 1969.00
19.8788 1796.00
19.944 1667.00
20.0092 1685.00
20.0744 1688.00
20.1396 1769.00
20.2048 2072.00
20.27 2406.00
20.3352 2758.00
20.4004 3137.00
20.4656 3801.00
20.5308 4538.00
20.596 5352.00
20.6612 6406.00
20.7264 7089.00
20.7916 7163.00
20.8568 6750.00
20.922 6314.00
20.9872 5471.00
21.0524 3996.00
21.1176 2445.00
21.1828 1754.00
21.248 1638.00
21.3132 1624.00
21.3784 1650.00
21.4436 1722.00
21.5088 1782.00
21.574 2149.00
21.6392 2680.00
21.7044 3854.00
21.7696 4959.00
21.8348 6218.00
21.9 7111.00
21.9652 7364.00
22.0304 7553.00
22.0956 6856.00
22.1608 5239.00
22.226 3274.00
22.2912 2103.00
22.3564 1671.00
22.4216 1523.00
22.4868 1451.00
22.552 1447.00
22.6172 1338.00
22.6824 1329.00
22.7476 1403.00
22.8128 1387.00
22.878 1270.00
22.9432 1291.00
23.0084 1294.00
23.0736 1335.00
23.1388 1379.00
23.204 1424.00
23.2692 1547.00
23.3344 1665.00
23.3996 1777.00
23.4647 1975.00
23.5299 1978.00
23.5951 2198.00
23.6603 2290.00
23.7255 2200.00
23.7907 1930.00
23.8559 1695.00
23.9211 1644.00
23.9863 1432.00
24.0515 1469.00
24.1167 1302.00
24.1819 1306.00
24.2471 1306.00
24.3123 1284.00
24.3775 1264.00
24.4427 1283.00
24.5079 1352.00
24.5731 1413.00
24.6383 1464.00
24.7035 1498.00
24.7687 1511.00
24.8339 1758.00
24.8991 2311.00
24.9643 3170.00
25.0295 4579.00
25.0947 6501.00
25.1599 7945.00
25.2251 8977.00
25.2903 9438.00
25.3555 9235.00
25.4207 8020.00
25.4859 5680.00
25.5511 3348.00
25.6163 2386.00
25.6815 2449.00
25.7467 3115.00
25.8119 4298.00
25.8771 6133.00
25.9423 7618.00
26.0075 8648.00
26.0727 9083.00
26.1379 9074.00
26.2031 7917.00
26.2683 5287.00
26.3335 2950.00
26.3987 1915.00
26.4639 1617.00
26.5291 1518.00
26.5943 1361.00
26.6595 1441.00
26.7247 1387.00
26.7899 1290.00
26.8551 1265.00
26.9203 1276.00
26.9855 1236.00
27.0507 1149.00
27.1159 1131.00
27.1811 1121.00
27.2463 1140.00
27.3115 1058.00
27.3767 1113.00
27.4419 1094.00
27.5071 1112.00
27.5723 1036.00
27.6375 1102.00
27.7027 1173.00
27.7679 1116.00
27.8331 1106.00
27.8983 1115.00
27.9635 1163.00
28.0287 1127.00
28.0939 1348.00
28.1591 1457.00
28.2243 1463.00
28.2894 1654.00
28.3546 1680.00
28.4198 1796.00
28.485 1748.00
28.5502 1671.00
28.6154 1495.00
28.6806 1460.00
28.7458 1369.00
28.811 1280.00
28.8762 1303.00
28.9414 1171.00
29.0066 1096.00
29.0718 1016.00
29.137 1014.00
29.2022 1077.00
29.2674 1022.00
29.3326 995.00
29.3978 1031.00
29.463 1048.00
29.5282 1008.00
29.5934 1014.00
29.6586 1034.00
29.7238 1070.00
29.789 1150.00
29.8542 1088.00
29.9194 1192.00
29.9846 1290.00
30.0498 1488.00
30.115 1876.00
30.1802 2611.00
30.2454 3584.00
30.3106 4546.00
30.3758 5355.00
30.441 5736.00
30.5062 5786.00
30.5714 5147.00
30.6366 3703.00
30.7018 2436.00
30.767 1540.00
30.8322 1253.00
30.8974 1188.00
30.9626 1255.00
31.0278 1280.00
31.093 1408.00
31.1582 1575.00
31.2234 1646.00
31.2886 1815.00
31.3538 2066.00
31.419 2021.00
31.4842 1944.00
31.5494 1885.00
31.6146 1782.00
31.6798 1572.00
31.745 1365.00
31.8102 1194.00
31.8754 1118.00
31.9406 1053.00
32.0058 1081.00
32.071 1083.00
32.1362 988.00
32.2014 1034.00
32.2666 1012.00
32.3318 1030.00
32.397 1010.00
32.4622 996.00
32.5274 1045.00
32.5926 1033.00
32.6578 1090.00
32.723 1080.00
32.7882 1197.00
32.8534 1247.00
32.9186 1436.00
32.9838 1623.00
33.0489 2314.00
33.1141 3293.00
33.1793 4774.00
33.2445 6303.00
33.3097 7951.00
33.3749 8483.00
33.4401 8807.00
33.5053 7700.00
33.5705 5588.00
33.6357 3512.00
33.7009 2194.00
33.7661 1778.00
33.8313 1817.00
33.8965 1889.00
33.9617 2175.00
34.0269 2254.00
34.0921 2207.00
34.1573 2277.00
34.2225 1991.00
34.2877 1676.00
34.3529 1337.00
34.4181 1128.00
34.4833 1020.00
34.5485 1061.00
34.6137 1046.00
34.6789 1011.00
34.7441 1058.00
34.8093 1025.00
34.8745 1042.00
34.9397 1109.00
35.0049 1115.00
35.0701 1032.00
35.1353 1074.00
35.2005 1086.00
35.2657 1223.00
35.3309 1262.00
35.3961 1210.00
35.4613 1329.00
35.5265 1365.00
35.5917 1434.00
35.6569 1539.00
35.7221 1595.00
35.7873 1761.00
35.8525 1744.00
35.9177 1919.00
35.9829 1962.00
36.0481 1895.00
36.1133 1863.00
36.1785 1779.00
36.2437 1407.00
36.3089 1221.00
36.3741 1066.00
36.4393 983.00
36.5045 984.00
36.5697 891.00
36.6349 880.00
36.7001 850.00
36.7653 860.00
36.8305 872.00
36.8957 827.00
36.9609 825.00
37.0261 861.00
37.0913 868.00
37.1565 833.00
37.2217 909.00
37.2869 908.00
37.3521 973.00
37.4173 948.00
37.4825 1063.00
37.5477 1268.00
37.6129 1412.00
37.6781 1728.00
37.7433 1926.00
37.8085 2009.00
37.8736 2147.00
37.9388 2272.00
38.004 2378.00
38.0692 2557.00
38.1344 2875.00
38.1996 3210.00
38.2648 3870.00
38.33 3974.00
38.3952 3948.00
38.4604 3843.00
38.5256 3770.00
38.5908 3290.00
38.656 2752.00
38.7212 2105.00
38.7864 1536.00
38.8516 1287.00
38.9168 1091.00
38.982 1023.00
39.0472 989.00
39.1124 990.00
39.1776 945.00
39.2428 992.00
39.308 1202.00
39.3732 1364.00
39.4384 1579.00
39.5036 1839.00
39.5688 1889.00
39.634 1895.00
39.6992 1744.00
39.7644 1498.00
39.8296 1172.00
39.8948 1049.00
39.96 970.00
40.0252 918.00
40.0904 872.00
40.1556 892.00
40.2208 909.00
40.286 956.00
40.3512 1040.00
40.4164 1110.00
40.4816 1317.00
40.5468 1410.00
40.612 1410.00
40.6772 1314.00
40.7424 1277.00
40.8076 1099.00
40.8728 965.00
40.938 876.00
41.0032 882.00
41.0684 904.00
41.1336 913.00
41.1988 842.00
41.264 886.00
41.3292 918.00
41.3944 976.00
41.4596 931.00
41.5248 1060.00
41.59 1220.00
41.6552 1514.00
41.7204 1746.00
41.7856 1997.00
41.8508 2251.00
41.916 2321.00
41.9812 2200.00
42.0464 1850.00
42.1116 1520.00
42.1768 1311.00
42.242 1361.00
42.3072 1294.00
42.3724 1259.00
42.4376 1260.00
42.5028 1106.00
42.568 1083.00
42.6332 862.00
42.6983 827.00
42.7635 782.00
42.8287 870.00
42.8939 819.00
42.9591 860.00
43.0243 800.00
43.0895 866.00
43.1547 865.00
43.2199 861.00
43.2851 875.00
43.3503 905.00
43.4155 923.00
43.4807 889.00
43.5459 902.00
43.6111 882.00
43.6763 922.00
43.7415 1109.00
43.8067 1250.00
43.8719 1335.00
43.9371 1442.00
44.0023 1552.00
44.0675 1377.00
44.1327 1369.00
44.1979 1047.00
44.2631 901.00
44.3283 911.00
44.3935 840.00
44.4587 816.00
44.5239 949.00
44.5891 1017.00
44.6543 1046.00
44.7195 1129.00
44.7847 1203.00
44.8499 1236.00
44.9151 1321.00
44.9803 1312.00
45.0455 1305.00
45.1107 1254.00
45.1759 1248.00
45.2411 1170.00
45.3063 1052.00
45.3715 968.00
45.4367 904.00
45.5019 907.00
45.5671 763.00
45.6323 760.00
45.6975 801.00
45.7627 803.00
45.8279 831.00
45.8931 851.00
45.9583 943.00
46.0235 1042.00
46.0887 1165.00
46.1539 1333.00
46.2191 1538.00
46.2843 1687.00
46.3495 1829.00
46.4147 1665.00
46.4799 1660.00
46.5451 1464.00
46.6103 1234.00
46.6755 1152.00
46.7407 1063.00
46.8059 992.00
46.8711 906.00
46.9363 823.00
47.0015 897.00
47.0667 819.00
47.1319 838.00
47.1971 799.00
47.2623 907.00
47.3275 858.00
47.3927 985.00
47.4579 960.00
47.523 1038.00
47.5882 931.00
47.6534 977.00
47.7186 959.00
47.7838 1078.00
47.849 1179.00
47.9142 1525.00
47.9794 1907.00
48.0446 2127.00
48.1098 2457.00
48.175 2559.00
48.2402 2531.00
48.3054 2432.00
48.3706 2152.00
48.4358 1876.00
48.501 1652.00
48.5662 1670.00
48.6314 1766.00
48.6966 1784.00
48.7618 1930.00
48.827 1945.00
48.8922 1943.00
48.9574 1541.00
49.0226 1359.00
49.0878 1191.00
49.153 959.00
49.2182 927.00
49.2834 930.00
49.3486 1057.00
49.4138 1196.00
49.479 1330.00
49.5442 1654.00
49.6094 1869.00
49.6746 2087.00
49.7398 2210.00
49.805 2186.00
49.8702 2063.00
49.9354 1757.00
50.0006 1426.00
50.0658 1192.00
50.131 1004.00
50.1962 915.00
50.2614 887.00
50.3266 800.00
50.3918 856.00
50.457 772.00
50.5222 804.00
50.5874 892.00
50.6526 845.00
50.7178 927.00
50.783 988.00
50.8482 1098.00
50.9134 988.00
50.9786 1145.00
51.0438 1019.00
51.109 1042.00
51.1742 1034.00
51.2394 949.00
51.3046 1089.00
51.3698 1165.00
51.435 1321.00
51.5002 1556.00
51.5654 1943.00
51.6306 2308.00
51.6958 2814.00
51.761 3086.00
51.8262 3202.00
51.8914 3138.00
51.9566 2707.00
52.0218 2082.00
52.087 1568.00
52.1522 1279.00
52.2174 950.00
52.2826 882.00
52.3477 846.00
52.4129 779.00
52.4781 799.00
52.5433 857.00
52.6085 893.00
52.6737 958.00
52.7389 945.00
52.8041 991.00
52.8693 1009.00
52.9345 1035.00
52.9997 1068.00
53.0649 1005.00
53.1301 988.00
53.1953 1061.00
53.2605 1122.00
53.3257 1212.00
53.3909 1221.00
53.4561 1248.00
53.5213 1266.00
53.5865 1187.00
53.6517 1145.00
53.7169 975.00
53.7821 861.00
53.8473 757.00
53.9125 730.00
53.9777 783.00
54.0429 763.00
54.1081 723.00
54.1733 807.00
54.2385 780.00
54.3037 842.00
54.3689 881.00
54.4341 874.00
54.4993 1024.00
54.5645 1058.00
54.6297 1253.00
54.6949 1599.00
54.7601 1877.00
54.8253 2186.00
54.8905 2309.00
54.9557 2368.00
55.0209 2297.00
55.0861 1946.00
55.1513 1640.00
55.2165 1307.00
55.2817 1172.00
55.3469 1088.00
55.4121 1072.00
55.4773 1015.00
55.5425 1100.00
55.6077 1026.00
55.6729 1190.00
55.7381 1213.00
55.8033 1222.00
55.8685 1286.00
55.9337 1238.00
55.9989 1224.00
56.0641 1211.00
56.1293 1099.00
56.1945 1006.00
56.2597 1030.00
56.3249 855.00
56.3901 906.00
56.4553 903.00
56.5205 835.00
56.5857 825.00
56.6509 791.00
56.7161 764.00
56.7813 776.00
56.8465 761.00
56.9117 718.00
56.9769 761.00
57.042 756.00
57.1073 813.00
57.1724 777.00
57.2376 809.00
57.3028 827.00
57.368 858.00
57.4332 834.00
57.4984 798.00
57.5636 803.00
57.6288 808.00
57.694 716.00
57.7592 736.00
57.8244 737.00
57.8896 796.00
57.9548 792.00
58.02 860.00
58.0852 921.00
58.1504 1007.00
58.2156 1120.00
58.2808 1278.00
58.346 1495.00
58.4112 1702.00
58.4764 1712.00
58.5416 1830.00
58.6068 1810.00
58.672 1783.00
58.7372 1912.00
58.8024 1980.00
58.8676 1966.00
58.9328 1994.00
58.998 1866.00
59.0632 1645.00
59.1284 1408.00
59.1936 1184.00
59.2588 1050.00
59.324 932.00
59.3892 863.00
59.4544 880.00
59.5196 988.00
59.5848 1138.00
59.65 1215.00
59.7152 1405.00
59.7804 1571.00
59.8456 1731.00
59.9108 1950.00
59.976 1987.00
60.0412 2046.00
60.1064 2012.00
60.1716 2172.00
60.2368 2240.00
60.302 2310.00
60.3672 2402.00
60.4324 2335.00
60.4976 2209.00
60.5628 2056.00
60.628 1723.00
60.6932 1499.00
60.7584 1206.00
60.8236 1047.00
60.8888 935.00
60.954 950.00
61.0192 878.00
61.0844 916.00
61.1496 933.00
61.2148 985.00
61.28 940.00
61.3452 1074.00
61.4104 1144.00
61.4756 1235.00
61.5408 1251.00
61.606 1351.00
61.6712 1397.00
61.7364 1472.00
61.8016 1543.00
61.8667 1500.00
61.932 1502.00
61.9971 1353.00
62.0623 1333.00
62.1275 1101.00
62.1927 979.00
62.2579 934.00
62.3231 894.00
62.3883 850.00
62.4535 806.00
62.5187 748.00
62.5839 760.00
62.6491 753.00
62.7143 795.00
62.7795 763.00
62.8447 868.00
62.9099 882.00
62.9751 893.00
63.0403 960.00
63.1055 1080.00
63.1707 1151.00
63.2359 1129.00
63.3011 1137.00
63.3663 1109.00
63.4315 1041.00
63.4967 1025.00
63.5619 873.00
63.6271 803.00
63.6923 800.00
63.7575 849.00
63.8227 837.00
63.8879 824.00
63.9531 851.00
64.0183 869.00
64.0835 889.00
64.1487 1055.00
64.2139 1201.00
64.2791 1407.00
64.3443 1623.00
64.4095 1789.00
64.4747 1816.00
64.5399 1771.00
64.6051 1807.00
64.6703 1751.00
64.7355 1443.00
64.8007 1250.00
64.8659 1058.00
64.9311 940.00
64.9963 870.00
65.0615 839.00
65.1267 893.00
65.1919 962.00
65.2571 943.00
65.3223 1104.00
65.3875 1018.00
65.4527 1157.00
65.5179 1211.00
65.5831 1219.00
65.6483 1236.00
65.7135 1425.00
65.7787 1574.00
65.8439 1863.00
65.9091 2204.00
65.9743 2476.00
66.0395 2825.00
66.1047 3172.00
66.1699 3351.00
66.2351 3597.00
66.3003 3472.00
66.3655 3158.00
66.4307 2875.00
66.4959 2486.00
66.561 2192.00
66.6263 1669.00
66.6915 1375.00
66.7566 1246.00
66.8218 1213.00
66.887 1259.00
66.9522 1217.00
67.0174 1275.00
67.0826 1282.00
67.1478 1347.00
67.213 1260.00
67.2782 1140.00
67.3434 1048.00
67.4086 941.00
67.4738 877.00
67.539 908.00
67.6042 876.00
67.6694 864.00
67.7346 926.00
67.7998 867.00
67.865 819.00
67.9302 837.00
67.9954 775.00
68.0606 818.00
68.1258 774.00
68.191 817.00
68.2562 775.00
68.3214 767.00
68.3866 761.00
68.4518 790.00
68.517 781.00
68.5822 802.00
68.6474 825.00
68.7126 989.00
68.7778 1032.00
68.843 1185.00
68.9082 1286.00
68.9734 1380.00
69.0386 1452.00
69.1038 1575.00
69.169 1549.00
69.2342 1533.00
69.2994 1545.00
69.3646 1601.00
69.4298 1585.00
69.495 1587.00
69.5602 1515.00
69.6254 1418.00
69.6906 1339.00
69.7558 1193.00
69.821 1093.00
69.8862 1007.00
69.9514 934.00
70.0166 869.00
70.0818 926.00
70.147 1023.00
70.2122 1007.00
70.2774 1146.00
70.3426 1271.00
70.4078 1340.00
70.473 1338.00
70.5382 1333.00
70.6034 1347.00
70.6686 1393.00
70.7338 1440.00
70.799 1467.00
70.8642 1362.00
70.9294 1301.00
70.9946 1198.00
71.0598 1111.00
71.125 1013.00
71.1902 900.00
71.2554 850.00
71.3205 749.00
71.3858 758.00
71.451 696.00
71.5162 709.00
71.5813 696.00
71.6465 662.00
71.7117 683.00
71.7769 628.00
71.8421 615.00
71.9073 664.00
71.9725 673.00
72.0377 684.00
72.1029 594.00
72.1681 629.00
72.2333 600.00
72.2985 624.00
72.3637 681.00
72.4289 597.00
72.4941 664.00
72.5593 662.00
72.6245 656.00
72.6897 687.00
72.7549 644.00
72.8201 639.00
72.8853 688.00
72.9505 741.00
73.0157 835.00
73.0809 792.00
73.1461 883.00
73.2113 972.00
73.2765 1051.00
73.3417 1099.00
73.4069 1157.00
73.4721 1181.00
73.5373 1155.00
73.6025 1075.00
73.6677 1087.00
73.7329 1105.00
73.7981 1092.00
73.8633 1072.00
73.9285 1056.00
73.9937 1030.00
74.0589 868.00
74.1241 914.00
74.1893 822.00
74.2545 738.00
74.3197 776.00
74.3849 699.00
74.4501 696.00
74.5153 715.00
74.5805 714.00
74.6457 791.00
74.7109 762.00
74.7761 734.00
74.8413 762.00
74.9065 803.00
74.9717 862.00
75.0369 889.00
75.1021 923.00
75.1673 939.00
75.2325 922.00
75.2977 833.00
75.3629 862.00
75.4281 888.00
75.4933 891.00
75.5585 798.00
75.6237 879.00
75.6889 790.00
75.7541 799.00
75.8193 749.00
75.8845 791.00
75.9497 726.00
76.0149 720.00
76.0801 731.00
76.1452 725.00
76.2104 771.00
76.2756 753.00
76.3409 754.00
76.406 783.00
76.4712 763.00
76.5364 826.00
76.6016 760.00
76.6668 753.00
76.732 720.00
76.7972 725.00
76.8624 680.00
76.9276 674.00
76.9928 721.00
77.058 710.00
77.1232 725.00
77.1884 753.00
77.2536 859.00
77.3188 996.00
77.384 1070.00
77.4492 1088.00
77.5144 1229.00
77.5796 1355.00
77.6448 1309.00
77.71 1347.00
77.7752 1359.00
77.8404 1380.00
77.9056 1318.00
77.9708 1196.00
78.036 1137.00
78.1012 1077.00
78.1664 988.00
78.2316 889.00
78.2968 876.00
78.362 795.00
78.4272 803.00
78.4924 838.00
78.5576 841.00
78.6228 829.00
78.688 808.00
78.7532 825.00
78.8184 802.00
78.8836 881.00
78.9488 871.00
79.014 914.00
79.0792 949.00
79.1444 1029.00
79.2096 1036.00
79.2748 1043.00
79.34 1110.00
79.4052 1078.00
79.4704 1069.00
79.5356 1043.00
79.6008 1024.00
79.666 1027.00
79.7312 1025.00
79.7964 1011.00
79.8616 1038.00
79.9268 1055.00
79.992 1090.00
80.0572 1087.00
80.1224 1172.00
80.1876 1164.00
80.2528 1075.00
80.318 945.00
80.3832 946.00
80.4484 831.00
80.5136 872.00
80.5788 824.00
80.644 694.00
80.7092 739.00
80.7744 723.00
80.8396 689.00
80.9048 657.00
80.9699 635.00
81.0351 665.00
81.1003 685.00
81.1655 636.00
81.2307 686.00
81.2959 671.00
81.3611 631.00
81.4263 632.00
81.4915 650.00
81.5567 649.00
81.6219 694.00
81.6871 695.00
81.7523 723.00
81.8175 735.00
81.8827 734.00
81.9479 754.00
82.0131 888.00
82.0783 751.00
82.1435 918.00
82.2087 1023.00
82.2739 998.00
82.3391 1074.00
82.4043 1031.00
82.4695 986.00
82.5347 1010.00
82.5999 953.00
82.6651 971.00
82.7303 882.00
82.7955 832.00
82.8607 825.00
82.9259 745.00
82.9911 725.00
83.0563 703.00
83.1215 629.00
83.1867 715.00
83.2519 692.00
83.3171 683.00
83.3823 652.00
83.4475 726.00
83.5127 724.00
83.5779 767.00
83.6431 751.00
83.7083 718.00
83.7735 706.00
83.8387 728.00
83.9039 710.00
83.9691 736.00
84.0343 748.00
84.0995 691.00
84.1647 753.00
84.2299 685.00
84.2951 748.00
84.3603 811.00
84.4255 754.00
84.4907 823.00
84.5559 833.00
84.6211 786.00
84.6863 791.00
84.7515 770.00
84.8167 754.00
84.8819 725.00
84.9471 797.00
85.0123 715.00
85.0775 673.00
85.1427 709.00
85.2079 694.00
85.2731 683.00
85.3383 636.00
85.4035 633.00
85.4687 687.00
85.5339 634.00
85.5991 638.00
85.6643 674.00
85.7295 711.00
85.7946 730.00
85.8598 720.00
85.925 776.00
85.9903 789.00
86.0554 793.00
86.1206 857.00
86.1858 863.00
86.251 843.00
86.3162 877.00
86.3814 790.00
86.4466 880.00
86.5118 843.00
86.577 893.00
86.6422 797.00
86.7074 795.00
86.7726 807.00
86.8378 740.00
86.903 778.00
86.9682 708.00
87.0334 737.00
87.0986 747.00
87.1638 732.00
87.229 809.00
87.2942 806.00
87.3594 861.00
87.4246 919.00
87.4898 1002.00
87.555 949.00
87.6202 999.00
87.6854 1072.00
87.7506 1044.00
87.8158 992.00
87.881 944.00
87.9462 888.00
88.0114 836.00
88.0766 751.00
88.1418 776.00
88.207 752.00
88.2722 681.00
88.3374 696.00
88.4026 686.00
88.4678 729.00
88.533 756.00
88.5982 718.00
88.6634 782.00
88.7286 755.00
88.7938 715.00
88.859 730.00
88.9242 726.00
88.9894 703.00
89.0546 690.00
89.1198 721.00
89.185 641.00
89.2502 685.00
89.3154 654.00
89.3806 618.00
89.4458 599.00
89.511 641.00
89.5762 632.00
89.6414 676.00
89.7066 698.00
89.7718 685.00
89.837 743.00
89.9022 719.00
89.9674 691.00
90.0326 710.00
90.0978 743.00
90.163 728.00
90.2282 766.00
90.2934 692.00
90.3586 689.00
90.4238 668.00
90.489 661.00
90.5542 677.00
90.6193 669.00
90.6845 636.00
90.7497 678.00
90.8149 688.00
90.8801 670.00
90.9453 724.00
91.0105 625.00
91.0757 693.00
91.1409 700.00
91.2061 715.00
91.2713 777.00
91.3365 737.00
91.4017 781.00
91.4669 804.00
91.5321 817.00
91.5973 864.00
91.6625 859.00
91.7277 886.00
91.7929 889.00
91.8581 970.00
91.9233 945.00
91.9885 883.00
92.0537 915.00
92.1189 872.00
92.1841 837.00
92.2493 929.00
92.3145 972.00
92.3797 991.00
92.4449 1061.00
92.5101 1080.00
92.5753 1152.00
92.6405 1141.00
92.7057 1163.00
92.7709 1163.00
92.8361 1175.00
92.9013 1220.00
92.9665 1118.00
93.0317 1188.00
93.0969 1156.00
93.1621 1089.00
93.2273 1051.00
93.2925 1054.00
93.3577 1043.00
93.4229 877.00
93.4881 866.00
93.5533 831.00
93.6185 769.00
93.6837 744.00
93.7489 671.00
93.8141 688.00
93.8793 652.00
93.9445 686.00
94.0097 690.00
94.0749 647.00
94.1401 705.00
94.2053 667.00
94.2705 738.00
94.3357 740.00
94.4009 695.00
94.4661 689.00
94.5313 678.00
94.5965 730.00
94.6617 736.00
94.7269 702.00
94.7921 712.00
94.8573 668.00
94.9225 655.00
94.9877 652.00
95.0529 679.00
95.1181 700.00
95.1833 703.00
95.2485 640.00
95.3137 635.00
95.3789 645.00
95.444 694.00
95.5092 725.00
95.5744 729.00
95.6396 742.00
95.7048 738.00
95.77 851.00
95.8352 821.00
95.9004 832.00
95.9656 897.00
96.0308 839.00
96.096 829.00
96.1612 780.00
96.2264 848.00
96.2916 775.00
96.3568 735.00
96.422 761.00
96.4872 761.00
96.5524 787.00
96.6176 759.00
96.6828 733.00
96.748 723.00
96.8132 730.00
96.8784 699.00
96.9436 707.00
97.0088 688.00
97.074 685.00
97.1392 696.00
97.2044 714.00
97.2696 719.00
97.3348 707.00
97.4 757.00
97.4652 737.00
97.5304 745.00
97.5956 718.00
97.6608 671.00
97.726 691.00
97.7912 709.00
97.8564 680.00
97.9216 706.00
97.9868 743.00
98.052 747.00
98.1172 809.00
98.1824 849.00
98.2476 843.00
98.3128 841.00
98.378 888.00
98.4432 931.00
98.5084 910.00
98.5736 924.00
98.6388 974.00
98.704 854.00
98.7692 818.00
98.8344 808.00
98.8996 835.00
98.9648 827.00
99.03 870.00
99.0952 855.00
99.1604 840.00
99.2256 882.00
99.2908 899.00
99.356 907.00
99.4212 971.00
99.4864 949.00
99.5516 973.00
99.6168 971.00
99.682 963.00
99.7472 965.00
99.8124 994.00
99.8776 930.00
99.9428 947.00
100.008 955.00
100.073 913.00
100.095 905.00