File: data/xrd_creation/results/NSC_36.xy
9.903433 3016.00
9.968632 2902.00
10.0338 2966.00
10.099 3064.00
10.1642 3009.00
10.2294 2874.00
10.2946 2853.00
10.3598 2850.00
10.425 2906.00
10.4902 2799.00
10.5554 2967.00
10.6206 2904.00
10.6858 2881.00
10.751 2772.00
10.8162 2764.00
10.8814 2804.00
10.9466 2867.00
11.0118 2634.00
11.077 2757.00
11.1422 2719.00
11.2074 2649.00
11.2726 2687.00
11.3378 2587.00
11.403 2580.00
11.4682 2685.00
11.5334 2582.00
11.5986 2457.00
11.6638 2619.00
11.729 2562.00
11.7942 2471.00
11.8594 2489.00
11.9246 2563.00
11.9898 2490.00
12.055 2409.00
12.1202 2418.00
12.1854 2386.00
12.2506 2505.00
12.3158 2485.00
12.381 2446.00
12.4462 2397.00
12.5114 2364.00
12.5766 2488.00
12.6418 2496.00
12.707 2474.00
12.7722 2598.00
12.8374 2685.00
12.9026 2719.00
12.9678 2753.00
13.033 2730.00
13.0982 2636.00
13.1634 2575.00
13.2286 2562.00
13.2938 2457.00
13.359 2507.00
13.4242 2454.00
13.4894 2416.00
13.5546 2320.00
13.6198 2425.00
13.685 2379.00
13.7502 2530.00
13.8154 2511.00
13.8805 2586.00
13.9457 2854.00
14.0109 2911.00
14.0761 2933.00
14.1413 2668.00
14.2065 2544.00
14.2717 2398.00
14.3369 2360.00
14.4021 2406.00
14.4673 2255.00
14.5325 2334.00
14.5977 2299.00
14.6629 2294.00
14.7281 2337.00
14.7933 2341.00
14.8585 2265.00
14.9237 2319.00
14.9889 2269.00
15.0541 2231.00
15.1193 2178.00
15.1845 2190.00
15.2497 2208.00
15.3149 2199.00
15.3801 2289.00
15.4453 2218.00
15.5105 2303.00
15.5757 2255.00
15.6409 2214.00
15.7061 2302.00
15.7713 2160.00
15.8365 2257.00
15.9017 2133.00
15.9669 2095.00
16.0321 2199.00
16.0973 2202.00
16.1625 2282.00
16.2277 2115.00
16.2929 2124.00
16.3581 2280.00
16.4233 2226.00
16.4885 2140.00
16.5537 2177.00
16.6189 2177.00
16.6841 2098.00
16.7493 2183.00
16.8145 2083.00
16.8797 2111.00
16.9449 2185.00
17.0101 2141.00
17.0753 2206.00
17.1405 2171.00
17.2057 2215.00
17.2709 2151.00
17.3361 2199.00
17.4013 2193.00
17.4665 2111.00
17.5317 2118.00
17.5969 2203.00
17.6621 2195.00
17.7273 2309.00
17.7925 2314.00
17.8577 2206.00
17.9229 2157.00
17.9881 1961.00
18.0533 2063.00
18.1185 2029.00
18.1837 2051.00
18.2489 2043.00
18.3141 2121.00
18.3793 2073.00
18.4445 2054.00
18.5097 2023.00
18.5749 1930.00
18.6401 2034.00
18.7052 2031.00
18.7704 2015.00
18.8356 2088.00
18.9008 2024.00
18.966 2051.00
19.0312 2020.00
19.0964 2031.00
19.1616 2205.00
19.2268 2114.00
19.292 2218.00
19.3572 2346.00
19.4224 2555.00
19.4876 2949.00
19.5528 3637.00
19.618 4391.00
19.6832 4999.00
19.7484 5142.00
19.8136 5483.00
19.8788 5420.00
19.944 4153.00
20.0092 2904.00
20.0744 2533.00
20.1396 2576.00
20.2048 2454.00
20.27 2400.00
20.3352 2285.00
20.4004 2157.00
20.4656 2164.00
20.5308 2010.00
20.596 2108.00
20.6612 2056.00
20.7264 2144.00
20.7916 2106.00
20.8568 2360.00
20.922 2448.00
20.9872 2580.00
21.0524 2499.00
21.1176 2330.00
21.1828 2120.00
21.248 2132.00
21.3132 2153.00
21.3784 2180.00
21.4436 2147.00
21.5088 2347.00
21.574 2182.00
21.6392 2410.00
21.7044 2749.00
21.7696 3033.00
21.8348 2838.00
21.9 2289.00
21.9652 2110.00
22.0304 2077.00
22.0956 2038.00
22.1608 2065.00
22.226 2054.00
22.2912 1990.00
22.3564 1960.00
22.4216 1941.00
22.4868 1834.00
22.552 1916.00
22.6172 2019.00
22.6824 2120.00
22.7476 2082.00
22.8128 1935.00
22.878 1927.00
22.9432 1963.00
23.0084 2223.00
23.0736 2702.00
23.1388 3317.00
23.204 3775.00
23.2692 3392.00
23.3344 2550.00
23.3996 2251.00
23.4647 2078.00
23.5299 2239.00
23.5951 2102.00
23.6603 1934.00
23.7255 1940.00
23.7907 1912.00
23.8559 1870.00
23.9211 1869.00
23.9863 1914.00
24.0515 1922.00
24.1167 2177.00
24.1819 2267.00
24.2471 2573.00
24.3123 2738.00
24.3775 2686.00
24.4427 2294.00
24.5079 1987.00
24.5731 1995.00
24.6383 1942.00
24.7035 2206.00
24.7687 2305.00
24.8339 2133.00
24.8991 1919.00
24.9643 1867.00
25.0295 1785.00
25.0947 1724.00
25.1599 1723.00
25.2251 1725.00
25.2903 1663.00
25.3555 1679.00
25.4207 1761.00
25.4859 1743.00
25.5511 1807.00
25.6163 1712.00
25.6815 1690.00
25.7467 1669.00
25.8119 1656.00
25.8771 1727.00
25.9423 1744.00
26.0075 1645.00
26.0727 1793.00
26.1379 1801.00
26.2031 1730.00
26.2683 1691.00
26.3335 1778.00
26.3987 1677.00
26.4639 1731.00
26.5291 1690.00
26.5943 1706.00
26.6595 1657.00
26.7247 1664.00
26.7899 1688.00
26.8551 1695.00
26.9203 1650.00
26.9855 1683.00
27.0507 1700.00
27.1159 1704.00
27.1811 1759.00
27.2463 1677.00
27.3115 1684.00
27.3767 1697.00
27.4419 1668.00
27.5071 1727.00
27.5723 1830.00
27.6375 1889.00
27.7027 1913.00
27.7679 2108.00
27.8331 2401.00
27.8983 2754.00
27.9635 3123.00
28.0287 2969.00
28.0939 2601.00
28.1591 2507.00
28.2243 2449.00
28.2894 2927.00
28.3546 3956.00
28.4198 5419.00
28.485 6823.00
28.5502 5557.00
28.6154 3532.00
28.6806 2389.00
28.7458 2079.00
28.811 2022.00
28.8762 1940.00
28.9414 1756.00
29.0066 1775.00
29.0718 1851.00
29.137 1791.00
29.2022 1826.00
29.2674 1881.00
29.3326 1823.00
29.3978 1817.00
29.463 1770.00
29.5282 1777.00
29.5934 1687.00
29.6586 1679.00
29.7238 1744.00
29.789 1727.00
29.8542 1714.00
29.9194 1702.00
29.9846 1762.00
30.0498 1711.00
30.115 1720.00
30.1802 1701.00
30.2454 1749.00
30.3106 1952.00
30.3758 1959.00
30.441 2017.00
30.5062 2183.00
30.5714 2415.00
30.6366 2773.00
30.7018 3881.00
30.767 6198.00
30.8322 11182.00
30.8974 12825.00
30.9626 8815.00
31.0278 5344.00
31.093 5165.00
31.1582 5870.00
31.2234 6435.00
31.2886 6047.00
31.3538 5046.00
31.419 4185.00
31.4842 3263.00
31.5494 2879.00
31.6146 3158.00
31.6798 4063.00
31.745 5044.00
31.8102 4465.00
31.8754 3139.00
31.9406 2285.00
32.0058 1941.00
32.071 1792.00
32.1362 1744.00
32.2014 1636.00
32.2666 1658.00
32.3318 1642.00
32.397 1616.00
32.4622 1649.00
32.5274 1536.00
32.5926 1495.00
32.6578 1591.00
32.723 1553.00
32.7882 1569.00
32.8534 1597.00
32.9186 1582.00
32.9838 1584.00
33.0489 1606.00
33.1141 1614.00
33.1793 1543.00
33.2445 1651.00
33.3097 1714.00
33.3749 1748.00
33.4401 1647.00
33.5053 1619.00
33.5705 1581.00
33.6357 1551.00
33.7009 1527.00
33.7661 1717.00
33.8313 1611.00
33.8965 1638.00
33.9617 1704.00
34.0269 1742.00
34.0921 1899.00
34.1573 2053.00
34.2225 2506.00
34.2877 3358.00
34.3529 4703.00
34.4181 6500.00
34.4833 7461.00
34.5485 6832.00
34.6137 5280.00
34.6789 3816.00
34.7441 3092.00
34.8093 2470.00
34.8745 2262.00
34.9397 1877.00
35.0049 1859.00
35.0701 1828.00
35.1353 1764.00
35.2005 1713.00
35.2657 1766.00
35.3309 1747.00
35.3961 1846.00
35.4613 2052.00
35.5265 2275.00
35.5917 2737.00
35.6569 3547.00
35.7221 4845.00
35.7873 4392.00
35.8525 3086.00
35.9177 1956.00
35.9829 1591.00
36.0481 1518.00
36.1133 1674.00
36.1785 1711.00
36.2437 1529.00
36.3089 1461.00
36.3741 1438.00
36.4393 1436.00
36.5045 1410.00
36.5697 1478.00
36.6349 1428.00
36.7001 1331.00
36.7653 1342.00
36.8305 1321.00
36.8957 1261.00
36.9609 1320.00
37.0261 1396.00
37.0913 1330.00
37.1565 1305.00
37.2217 1305.00
37.2869 1336.00
37.3521 1401.00
37.4173 1360.00
37.4825 1341.00
37.5477 1314.00
37.6129 1310.00
37.6781 1372.00
37.7433 1379.00
37.8085 1422.00
37.8736 1543.00
37.9388 1751.00
38.004 1827.00
38.0692 1607.00
38.1344 1437.00
38.1996 1340.00
38.2648 1367.00
38.33 1308.00
38.3952 1366.00
38.4604 1226.00
38.5256 1274.00
38.5908 1249.00
38.656 1365.00
38.7212 1296.00
38.7864 1497.00
38.8516 1454.00
38.9168 1495.00
38.982 1418.00
39.0472 1362.00
39.1124 1334.00
39.1776 1344.00
39.2428 1290.00
39.308 1312.00
39.3732 1251.00
39.4384 1370.00
39.5036 1311.00
39.5688 1358.00
39.634 1376.00
39.6992 1498.00
39.7644 1407.00
39.8296 1387.00
39.8948 1327.00
39.96 1387.00
40.0252 1482.00
40.0904 1525.00
40.1556 1490.00
40.2208 1366.00
40.286 1315.00
40.3512 1299.00
40.4164 1275.00
40.4816 1346.00
40.5468 1319.00
40.612 1305.00
40.6772 1288.00
40.7424 1313.00
40.8076 1331.00
40.8728 1474.00
40.938 1622.00
41.0032 1848.00
41.0684 1898.00
41.1336 1640.00
41.1988 1551.00
41.264 1406.00
41.3292 1594.00
41.3944 1594.00
41.4596 1632.00
41.5248 1555.00
41.59 1635.00
41.6552 1688.00
41.7204 1690.00
41.7856 1784.00
41.8508 1728.00
41.916 1788.00
41.9812 1783.00
42.0464 1899.00
42.1116 2023.00
42.1768 1842.00
42.242 1713.00
42.3072 1539.00
42.3724 1531.00
42.4376 1597.00
42.5028 1509.00
42.568 1549.00
42.6332 1421.00
42.6983 1275.00
42.7635 1297.00
42.8287 1208.00
42.8939 1360.00
42.9591 1265.00
43.0243 1323.00
43.0895 1310.00
43.1547 1312.00
43.2199 1294.00
43.2851 1209.00
43.3503 1177.00
43.4155 1265.00
43.4807 1251.00
43.5459 1215.00
43.6111 1309.00
43.6763 1234.00
43.7415 1251.00
43.8067 1329.00
43.8719 1233.00
43.9371 1273.00
44.0023 1347.00
44.0675 1348.00
44.1327 1421.00
44.1979 1362.00
44.2631 1441.00
44.3283 1315.00
44.3935 1450.00
44.4587 1451.00
44.5239 1533.00
44.5891 1557.00
44.6543 1574.00
44.7195 1616.00
44.7847 1701.00
44.8499 1743.00
44.9151 1726.00
44.9803 1806.00
45.0455 1901.00
45.1107 1695.00
45.1759 1628.00
45.2411 1433.00
45.3063 1364.00
45.3715 1375.00
45.4367 1317.00
45.5019 1407.00
45.5671 1409.00
45.6323 1496.00
45.6975 1543.00
45.7627 1709.00
45.8279 1773.00
45.8931 2088.00
45.9583 2290.00
46.0235 2002.00
46.0887 1743.00
46.1539 1440.00
46.2191 1348.00
46.2843 1356.00
46.3495 1285.00
46.4147 1351.00
46.4799 1363.00
46.5451 1414.00
46.6103 1432.00
46.6755 1450.00
46.7407 1726.00
46.8059 1779.00
46.8711 1921.00
46.9363 2059.00
47.0015 2445.00
47.0667 2694.00
47.1319 2742.00
47.1971 2610.00
47.2623 2285.00
47.3275 1852.00
47.3927 1712.00
47.4579 1516.00
47.523 1442.00
47.5882 1388.00
47.6534 1385.00
47.7186 1345.00
47.7838 1378.00
47.849 1352.00
47.9142 1287.00
47.9794 1338.00
48.0446 1278.00
48.1098 1251.00
48.175 1244.00
48.2402 1270.00
48.3054 1254.00
48.3706 1313.00
48.4358 1264.00
48.501 1316.00
48.5662 1311.00
48.6314 1327.00
48.6966 1370.00
48.7618 1283.00
48.827 1354.00
48.8922 1339.00
48.9574 1435.00
49.0226 1321.00
49.0878 1429.00
49.153 1449.00
49.2182 1571.00
49.2834 1662.00
49.3486 1825.00
49.4138 1999.00
49.479 2253.00
49.5442 2477.00
49.6094 2163.00
49.6746 1917.00
49.7398 1623.00
49.805 1466.00
49.8702 1296.00
49.9354 1367.00
50.0006 1388.00
50.0658 1256.00
50.131 1350.00
50.1962 1344.00
50.2614 1516.00
50.3266 1797.00
50.3918 2202.00
50.457 2295.00
50.5222 2089.00
50.5874 1886.00
50.6526 1623.00
50.7178 1793.00
50.783 1903.00
50.8482 2117.00
50.9134 2127.00
50.9786 2091.00
51.0438 2016.00
51.109 2138.00
51.1742 2881.00
51.2394 4349.00
51.3046 4990.00
51.3698 3910.00
51.435 3439.00
51.5002 2374.00
51.5654 1839.00
51.6306 1587.00
51.6958 1463.00
51.761 1347.00
51.8262 1369.00
51.8914 1235.00
51.9566 1259.00
52.0218 1196.00
52.087 1201.00
52.1522 1260.00
52.2174 1210.00
52.2826 1257.00
52.3477 1247.00
52.4129 1263.00
52.4781 1197.00
52.5433 1249.00
52.6085 1206.00
52.6737 1267.00
52.7389 1269.00
52.8041 1280.00
52.8693 1278.00
52.9345 1429.00
52.9997 1350.00
53.0649 1407.00
53.1301 1352.00
53.1953 1347.00
53.2605 1418.00
53.3257 1352.00
53.3909 1450.00
53.4561 1553.00
53.5213 1649.00
53.5865 1820.00
53.6517 1936.00
53.7169 2073.00
53.7821 2030.00
53.8473 1841.00
53.9125 1763.00
53.9777 1530.00
54.0429 1484.00
54.1081 1424.00
54.1733 1489.00
54.2385 1659.00
54.3037 1661.00
54.3689 1650.00
54.4341 1562.00
54.4993 1627.00
54.5645 1376.00
54.6297 1397.00
54.6949 1253.00
54.7601 1312.00
54.8253 1339.00
54.8905 1288.00
54.9557 1253.00
55.0209 1244.00
55.0861 1159.00
55.1513 1224.00
55.2165 1215.00
55.2817 1309.00
55.3469 1242.00
55.4121 1402.00
55.4773 1465.00
55.5425 1666.00
55.6077 1669.00
55.6729 1565.00
55.7381 1644.00
55.8033 1670.00
55.8685 1520.00
55.9337 1451.00
55.9989 1441.00
56.0641 1417.00
56.1293 1448.00
56.1945 1759.00
56.2597 1807.00
56.3249 1713.00
56.3901 1587.00
56.4553 1329.00
56.5205 1236.00
56.5857 1214.00
56.6509 1199.00
56.7161 1142.00
56.7813 1106.00
56.8465 1104.00
56.9117 1196.00
56.9769 1109.00
57.042 1167.00
57.1073 1139.00
57.1724 1245.00
57.2376 1205.00
57.3028 1317.00
57.368 1292.00
57.4332 1477.00
57.4984 1421.00
57.5636 1352.00
57.6288 1362.00
57.694 1279.00
57.7592 1229.00
57.8244 1324.00
57.8896 1239.00
57.9548 1251.00
58.02 1288.00
58.0852 1297.00
58.1504 1303.00
58.2156 1258.00
58.2808 1381.00
58.346 1314.00
58.4112 1303.00
58.4764 1292.00
58.5416 1400.00
58.6068 1391.00
58.672 1302.00
58.7372 1417.00
58.8024 1343.00
58.8676 1299.00
58.9328 1322.00
58.998 1380.00
59.0632 1504.00
59.1284 1521.00
59.1936 1477.00
59.2588 1674.00
59.324 1784.00
59.3892 2032.00
59.4544 2088.00
59.5196 2228.00
59.5848 2053.00
59.65 1928.00
59.7152 1792.00
59.7804 1713.00
59.8456 1492.00
59.9108 1519.00
59.976 1498.00
60.0412 1529.00
60.1064 1624.00
60.1716 1641.00
60.2368 1632.00
60.302 1652.00
60.3672 1577.00
60.4324 1570.00
60.4976 1478.00
60.5628 1494.00
60.628 1408.00
60.6932 1479.00
60.7584 1764.00
60.8236 2321.00
60.8888 3325.00
60.954 3177.00
61.0192 2750.00
61.0844 2568.00
61.1496 2068.00
61.2148 1759.00
61.28 1638.00
61.3452 1693.00
61.4104 1808.00
61.4756 1921.00
61.5408 1890.00
61.606 1882.00
61.6712 1666.00
61.7364 1587.00
61.8016 1441.00
61.8667 1351.00
61.932 1344.00
61.9971 1295.00
62.0623 1333.00
62.1275 1431.00
62.1927 1516.00
62.2579 1508.00
62.3231 1647.00
62.3883 1797.00
62.4535 1626.00
62.5187 1580.00
62.5839 1529.00
62.6491 1355.00
62.7143 1339.00
62.7795 1364.00
62.8447 1379.00
62.9099 1400.00
62.9751 1535.00
63.0403 1626.00
63.1055 1597.00
63.1707 1568.00
63.2359 1426.00
63.3011 1347.00
63.3663 1228.00
63.4315 1183.00
63.4967 1216.00
63.5619 1138.00
63.6271 1153.00
63.6923 1182.00
63.7575 1156.00
63.8227 1285.00
63.8879 1484.00
63.9531 1507.00
64.0183 1300.00
64.0835 1347.00
64.1487 1257.00
64.2139 1129.00
64.2791 1207.00
64.3443 1224.00
64.4095 1149.00
64.4747 1251.00
64.5399 1270.00
64.6051 1201.00
64.6703 1142.00
64.7355 1225.00
64.8007 1126.00
64.8659 1204.00
64.9311 1101.00
64.9963 1118.00
65.0615 1140.00
65.1267 1172.00
65.1919 1214.00
65.2571 1277.00
65.3223 1332.00
65.3875 1339.00
65.4527 1243.00
65.5179 1287.00
65.5831 1307.00
65.6483 1304.00
65.7135 1345.00
65.7787 1307.00
65.8439 1363.00
65.9091 1467.00
65.9743 1395.00
66.0395 1298.00
66.1047 1324.00
66.1699 1390.00
66.2351 1358.00
66.3003 1289.00
66.3655 1236.00
66.4307 1269.00
66.4959 1280.00
66.561 1223.00
66.6263 1215.00
66.6915 1312.00
66.7566 1310.00
66.8218 1349.00
66.887 1344.00
66.9522 1219.00
67.0174 1199.00
67.0826 1176.00
67.1478 1117.00
67.213 1048.00
67.2782 1033.00
67.3434 1016.00
67.4086 1033.00
67.4738 1056.00
67.539 1017.00
67.6042 1078.00
67.6694 1087.00
67.7346 1118.00
67.7998 1118.00
67.865 1096.00
67.9302 1007.00
67.9954 1115.00
68.0606 1115.00
68.1258 1129.00
68.191 1237.00
68.2562 1263.00
68.3214 1238.00
68.3866 1201.00
68.4518 1207.00
68.517 1101.00
68.5822 1091.00
68.6474 1088.00
68.7126 1121.00
68.7778 1123.00
68.843 1155.00
68.9082 1112.00
68.9734 1161.00
69.0386 1217.00
69.1038 1162.00
69.169 1137.00
69.2342 1131.00
69.2994 1151.00
69.3646 1130.00
69.4298 1110.00
69.495 1102.00
69.5602 1150.00
69.6254 1152.00
69.6906 1168.00
69.7558 1170.00
69.821 1092.00
69.8862 1137.00
69.9514 1096.00
70.0166 1146.00
70.0818 1074.00
70.147 1060.00
70.2122 1005.00
70.2774 1083.00
70.3426 982.00
70.4078 1064.00
70.473 1002.00
70.5382 988.00
70.6034 1004.00
70.6686 996.00
70.7338 1024.00
70.799 1015.00
70.8642 964.00
70.9294 993.00
70.9946 977.00
71.0598 1050.00
71.125 1085.00
71.1902 1080.00
71.2554 1154.00
71.3205 1123.00
71.3858 1123.00
71.451 1233.00
71.5162 1235.00
71.5813 1113.00
71.6465 1168.00
71.7117 1053.00
71.7769 1008.00
71.8421 1044.00
71.9073 1058.00
71.9725 1068.00
72.0377 1107.00
72.1029 1150.00
72.1681 1122.00
72.2333 1191.00
72.2985 1241.00
72.3637 1219.00
72.4289 1289.00
72.4941 1275.00
72.5593 1204.00
72.6245 1224.00
72.6897 1212.00
72.7549 1137.00
72.8201 1111.00
72.8853 1115.00
72.9505 1144.00
73.0157 1087.00
73.0809 1070.00
73.1461 1038.00
73.2113 1034.00
73.2765 1026.00
73.3417 1041.00
73.4069 1072.00
73.4721 1041.00
73.5373 1011.00
73.6025 1034.00
73.6677 1046.00
73.7329 1090.00
73.7981 1210.00
73.8633 1232.00
73.9285 1201.00
73.9937 1109.00
74.0589 1133.00
74.1241 1108.00
74.1893 1084.00
74.2545 1026.00
74.3197 988.00
74.3849 967.00
74.4501 1015.00
74.5153 1030.00
74.5805 943.00
74.6457 998.00
74.7109 1057.00
74.7761 992.00
74.8413 1082.00
74.9065 991.00
74.9717 1091.00
75.0369 1033.00
75.1021 1186.00
75.1673 1182.00
75.2325 1286.00
75.2977 1316.00
75.3629 1270.00
75.4281 1240.00
75.4933 1280.00
75.5585 1208.00
75.6237 1158.00
75.6889 1161.00
75.7541 1092.00
75.8193 1154.00
75.8845 1065.00
75.9497 1043.00
76.0149 1097.00
76.0801 1033.00
76.1452 1056.00
76.2104 1045.00
76.2756 1099.00
76.3409 1028.00
76.406 997.00
76.4712 1114.00
76.5364 1175.00
76.6016 1274.00
76.6668 1293.00
76.732 1235.00
76.7972 1212.00
76.8624 1192.00
76.9276 1171.00
76.9928 1030.00
77.058 1021.00
77.1232 1097.00
77.1884 1059.00
77.2536 1002.00
77.3188 978.00
77.384 1051.00
77.4492 1049.00
77.5144 1051.00
77.5796 1059.00
77.6448 1035.00
77.71 1026.00
77.7752 1106.00
77.8404 1042.00
77.9056 1026.00
77.9708 1114.00
78.036 1068.00
78.1012 1083.00
78.1664 1086.00
78.2316 1076.00
78.2968 990.00
78.362 1010.00
78.4272 1020.00
78.4924 955.00
78.5576 959.00
78.6228 954.00
78.688 956.00
78.7532 975.00
78.8184 1014.00
78.8836 924.00
78.9488 966.00
79.014 1054.00
79.0792 1105.00
79.1444 1095.00
79.2096 1055.00
79.2748 1119.00
79.34 1158.00
79.4052 1064.00
79.4704 1058.00
79.5356 1013.00
79.6008 1054.00
79.666 1025.00
79.7312 1034.00
79.7964 980.00
79.8616 972.00
79.9268 930.00
79.992 969.00
80.0572 961.00
80.1224 990.00
80.1876 1052.00
80.2528 1019.00
80.318 1032.00
80.3832 1088.00
80.4484 1022.00
80.5136 1079.00
80.5788 1196.00
80.644 1217.00
80.7092 1261.00
80.7744 1237.00
80.8396 1141.00
80.9048 1189.00
80.9699 1087.00
81.0351 1101.00
81.1003 1040.00
81.1655 1040.00
81.2307 981.00
81.2959 980.00
81.3611 1025.00
81.4263 1089.00
81.4915 962.00
81.5567 1036.00
81.6219 955.00
81.6871 1047.00
81.7523 1039.00
81.8175 1081.00
81.8827 1144.00
81.9479 1142.00
82.0131 1200.00
82.0783 1232.00
82.1435 1155.00
82.2087 1167.00
82.2739 1070.00
82.3391 1174.00
82.4043 1128.00
82.4695 1144.00
82.5347 1090.00
82.5999 1045.00
82.6651 1043.00
82.7303 1019.00
82.7955 1064.00
82.8607 1046.00
82.9259 1068.00
82.9911 1041.00
83.0563 1038.00
83.1215 1059.00
83.1867 1167.00
83.2519 1202.00
83.3171 1444.00
83.3823 1384.00
83.4475 1393.00
83.5127 1299.00
83.5779 1198.00
83.6431 1265.00
83.7083 1081.00
83.7735 1098.00
83.8387 1056.00
83.9039 991.00
83.9691 1018.00
84.0343 1020.00
84.0995 988.00
84.1647 996.00
84.2299 1077.00
84.2951 1103.00
84.3603 1039.00
84.4255 1034.00
84.4907 1017.00
84.5559 1023.00
84.6211 989.00
84.6863 967.00
84.7515 1031.00
84.8167 989.00
84.8819 956.00
84.9471 1015.00
85.0123 1044.00
85.0775 1051.00
85.1427 1036.00
85.2079 981.00
85.2731 991.00
85.3383 958.00
85.4035 934.00
85.4687 961.00
85.5339 960.00
85.5991 951.00
85.6643 966.00
85.7295 984.00
85.7946 970.00
85.8598 1023.00
85.925 1099.00
85.9903 1185.00
86.0554 1261.00
86.1206 1189.00
86.1858 1121.00
86.251 1103.00
86.3162 1150.00
86.3814 1115.00
86.4466 1157.00
86.5118 1011.00
86.577 988.00
86.6422 998.00
86.7074 989.00
86.7726 986.00
86.8378 981.00
86.903 988.00
86.9682 1062.00
87.0334 991.00
87.0986 1018.00
87.1638 1075.00
87.229 1038.00
87.2942 1087.00
87.3594 1094.00
87.4246 1121.00
87.4898 1029.00
87.555 1078.00
87.6202 1089.00
87.6854 1032.00
87.7506 1092.00
87.8158 1012.00
87.881 1092.00
87.9462 1069.00
88.0114 1035.00
88.0766 1106.00
88.1418 1010.00
88.207 1047.00
88.2722 1055.00
88.3374 1124.00
88.4026 1106.00
88.4678 1193.00
88.533 1048.00
88.5982 1156.00
88.6634 1160.00
88.7286 1129.00
88.7938 1085.00
88.859 998.00
88.9242 1083.00
88.9894 1046.00
89.0546 1065.00
89.1198 974.00
89.185 970.00
89.2502 936.00
89.3154 1001.00
89.3806 979.00
89.4458 1004.00
89.511 989.00
89.5762 1039.00
89.6414 1006.00
89.7066 1002.00
89.7718 1027.00
89.837 998.00
89.9022 1086.00
89.9674 1171.00
90.0326 1167.00
90.0978 1123.00
90.163 1083.00
90.2282 1121.00
90.2934 1132.00
90.3586 1073.00
90.4238 1025.00
90.489 1014.00
90.5542 1011.00
90.6193 1030.00
90.6845 1062.00
90.7497 962.00
90.8149 1049.00
90.8801 1028.00
90.9453 1015.00
91.0105 964.00
91.0757 964.00
91.1409 1026.00
91.2061 988.00
91.2713 976.00
91.3365 1040.00
91.4017 1060.00
91.4669 950.00
91.5321 1035.00
91.5973 923.00
91.6625 851.00
91.7277 1009.00
91.7929 921.00
91.8581 1024.00
91.9233 983.00
91.9885 908.00
92.0537 955.00
92.1189 991.00
92.1841 974.00
92.2493 992.00
92.3145 947.00
92.3797 968.00
92.4449 987.00
92.5101 1015.00
92.5753 1088.00
92.6405 1124.00
92.7057 1069.00
92.7709 1026.00
92.8361 1064.00
92.9013 1057.00
92.9665 1034.00
93.0317 1038.00
93.0969 971.00
93.1621 1044.00
93.2273 972.00
93.2925 999.00
93.3577 1020.00
93.4229 1045.00
93.4881 1001.00
93.5533 998.00
93.6185 962.00
93.6837 1022.00
93.7489 973.00
93.8141 1000.00
93.8793 1050.00
93.9445 1072.00
94.0097 965.00
94.0749 1011.00
94.1401 1007.00
94.2053 1034.00
94.2705 971.00
94.3357 974.00
94.4009 980.00
94.4661 1046.00
94.5313 945.00
94.5965 949.00
94.6617 998.00
94.7269 1008.00
94.7921 996.00
94.8573 1005.00
94.9225 978.00
94.9877 961.00
95.0529 1020.00
95.1181 1021.00
95.1833 1089.00
95.2485 1098.00
95.3137 1186.00
95.3789 1169.00
95.444 1033.00
95.5092 1153.00
95.5744 1127.00
95.6396 1065.00
95.7048 1085.00
95.77 1078.00
95.8352 1109.00
95.9004 1039.00
95.9656 965.00
96.0308 991.00
96.096 1004.00
96.1612 1045.00
96.2264 1053.00
96.2916 949.00
96.3568 1056.00
96.422 1025.00
96.4872 1104.00
96.5524 1198.00
96.6176 1246.00
96.6828 1300.00
96.748 1244.00
96.8132 1138.00
96.8784 1239.00
96.9436 1172.00
97.0088 1181.00
97.074 1126.00
97.1392 1080.00
97.2044 1088.00
97.2696 1015.00
97.3348 1016.00
97.4 998.00
97.4652 974.00
97.5304 950.00
97.5956 996.00
97.6608 1048.00
97.726 999.00
97.7912 975.00
97.8564 937.00
97.9216 1087.00
97.9868 1102.00
98.052 1057.00
98.1172 1018.00
98.1824 1009.00
98.2476 987.00
98.3128 1100.00
98.378 967.00
98.4432 978.00
98.5084 976.00
98.5736 1020.00
98.6388 999.00
98.704 1043.00
98.7692 986.00
98.8344 970.00
98.8996 998.00
98.9648 986.00
99.03 1027.00
99.0952 1057.00
99.1604 990.00
99.2256 1077.00
99.2908 1069.00
99.356 1090.00
99.4212 1078.00
99.4864 1023.00
99.5516 1047.00
99.6168 1056.00
99.682 1049.00
99.7472 1060.00
99.8124 1110.00
99.8776 996.00
99.9428 1023.00
100.008 1003.00
100.073 980.00
100.095 985.00