File: data/xrd_creation/results/NSC_83.xy
9.903433 2776.00
9.968632 2777.00
10.0338 2772.00
10.099 2700.00
10.1642 2808.00
10.2294 2766.00
10.2946 2731.00
10.3598 2663.00
10.425 2571.00
10.4902 2622.00
10.5554 2645.00
10.6206 2556.00
10.6858 2500.00
10.751 2487.00
10.8162 2598.00
10.8814 2449.00
10.9466 2483.00
11.0118 2440.00
11.077 2346.00
11.1422 2369.00
11.2074 2297.00
11.2726 2407.00
11.3378 2341.00
11.403 2349.00
11.4682 2312.00
11.5334 2227.00
11.5986 2299.00
11.6638 2249.00
11.729 2133.00
11.7942 2252.00
11.8594 2277.00
11.9246 2279.00
11.9898 2061.00
12.055 2115.00
12.1202 2108.00
12.1854 2150.00
12.2506 2101.00
12.3158 2124.00
12.381 2105.00
12.4462 2062.00
12.5114 1976.00
12.5766 1991.00
12.6418 1967.00
12.707 2028.00
12.7722 2009.00
12.8374 1980.00
12.9026 1940.00
12.9678 1987.00
13.033 1994.00
13.0982 1993.00
13.1634 1958.00
13.2286 1932.00
13.2938 1893.00
13.359 1854.00
13.4242 1958.00
13.4894 1903.00
13.5546 1818.00
13.6198 1911.00
13.685 1813.00
13.7502 1832.00
13.8154 1809.00
13.8805 1883.00
13.9457 1827.00
14.0109 1805.00
14.0761 1779.00
14.1413 1898.00
14.2065 1908.00
14.2717 1962.00
14.3369 1912.00
14.4021 1870.00
14.4673 1739.00
14.5325 1853.00
14.5977 1710.00
14.6629 1715.00
14.7281 1744.00
14.7933 1742.00
14.8585 1765.00
14.9237 1758.00
14.9889 1739.00
15.0541 1717.00
15.1193 1679.00
15.1845 1651.00
15.2497 1668.00
15.3149 1650.00
15.3801 1620.00
15.4453 1618.00
15.5105 1658.00
15.5757 1651.00
15.6409 1579.00
15.7061 1582.00
15.7713 1633.00
15.8365 1526.00
15.9017 1592.00
15.9669 1579.00
16.0321 1611.00
16.0973 1611.00
16.1625 1644.00
16.2277 1540.00
16.2929 1568.00
16.3581 1569.00
16.4233 1540.00
16.4885 1548.00
16.5537 1552.00
16.6189 1553.00
16.6841 1608.00
16.7493 1527.00
16.8145 1552.00
16.8797 1476.00
16.9449 1476.00
17.0101 1539.00
17.0753 1475.00
17.1405 1487.00
17.2057 1502.00
17.2709 1502.00
17.3361 1512.00
17.4013 1425.00
17.4665 1506.00
17.5317 1455.00
17.5969 1445.00
17.6621 1487.00
17.7273 1478.00
17.7925 1471.00
17.8577 1505.00
17.9229 1422.00
17.9881 1381.00
18.0533 1447.00
18.1185 1421.00
18.1837 1491.00
18.2489 1448.00
18.3141 1433.00
18.3793 1460.00
18.4445 1341.00
18.5097 1397.00
18.5749 1388.00
18.6401 1383.00
18.7052 1408.00
18.7704 1377.00
18.8356 1403.00
18.9008 1434.00
18.966 1445.00
19.0312 1381.00
19.0964 1371.00
19.1616 1437.00
19.2268 1424.00
19.292 1295.00
19.3572 1397.00
19.4224 1382.00
19.4876 1386.00
19.5528 1378.00
19.618 1433.00
19.6832 1606.00
19.7484 1573.00
19.8136 1575.00
19.8788 1600.00
19.944 1737.00
20.0092 1685.00
20.0744 1750.00
20.1396 1982.00
20.2048 2176.00
20.27 2494.00
20.3352 2414.00
20.4004 2150.00
20.4656 1864.00
20.5308 1794.00
20.596 1632.00
20.6612 1557.00
20.7264 1672.00
20.7916 1594.00
20.8568 1773.00
20.922 1801.00
20.9872 2046.00
21.0524 2176.00
21.1176 2356.00
21.1828 2539.00
21.248 2665.00
21.3132 3045.00
21.3784 3258.00
21.4436 3076.00
21.5088 3153.00
21.574 3018.00
21.6392 2518.00
21.7044 2001.00
21.7696 1596.00
21.8348 1504.00
21.9 1469.00
21.9652 1366.00
22.0304 1345.00
22.0956 1312.00
22.1608 1325.00
22.226 1308.00
22.2912 1315.00
22.3564 1307.00
22.4216 1319.00
22.4868 1304.00
22.552 1284.00
22.6172 1356.00
22.6824 1474.00
22.7476 1446.00
22.8128 1404.00
22.878 1490.00
22.9432 1403.00
23.0084 1430.00
23.0736 1443.00
23.1388 1551.00
23.204 1614.00
23.2692 1735.00
23.3344 1903.00
23.3996 2229.00
23.4647 2281.00
23.5299 2234.00
23.5951 2388.00
23.6603 3029.00
23.7255 3896.00
23.7907 4284.00
23.8559 3952.00
23.9211 3292.00
23.9863 2287.00
24.0515 1838.00
24.1167 1525.00
24.1819 1488.00
24.2471 1461.00
24.3123 1352.00
24.3775 1303.00
24.4427 1324.00
24.5079 1280.00
24.5731 1292.00
24.6383 1439.00
24.7035 1557.00
24.7687 2016.00
24.8339 2638.00
24.8991 3308.00
24.9643 3374.00
25.0295 2952.00
25.0947 2534.00
25.1599 2005.00
25.2251 1699.00
25.2903 1417.00
25.3555 1263.00
25.4207 1376.00
25.4859 1303.00
25.5511 1264.00
25.6163 1216.00
25.6815 1196.00
25.7467 1206.00
25.8119 1114.00
25.8771 1146.00
25.9423 1166.00
26.0075 1242.00
26.0727 1160.00
26.1379 1206.00
26.2031 1147.00
26.2683 1175.00
26.3335 1159.00
26.3987 1132.00
26.4639 1169.00
26.5291 1192.00
26.5943 1246.00
26.6595 1374.00
26.7247 1713.00
26.7899 2265.00
26.8551 2324.00
26.9203 1872.00
26.9855 1467.00
27.0507 1282.00
27.1159 1308.00
27.1811 1319.00
27.2463 1556.00
27.3115 1997.00
27.3767 2673.00
27.4419 3173.00
27.5071 2879.00
27.5723 2157.00
27.6375 1674.00
27.7027 1400.00
27.7679 1202.00
27.8331 1224.00
27.8983 1179.00
27.9635 1090.00
28.0287 1105.00
28.0939 1204.00
28.1591 1173.00
28.2243 1132.00
28.2894 1186.00
28.3546 1134.00
28.4198 1168.00
28.485 1186.00
28.5502 1184.00
28.6154 1203.00
28.6806 1324.00
28.7458 1500.00
28.811 1640.00
28.8762 1611.00
28.9414 1505.00
29.0066 1409.00
29.0718 1221.00
29.137 1185.00
29.2022 1064.00
29.2674 1089.00
29.3326 1092.00
29.3978 1160.00
29.463 1314.00
29.5282 1507.00
29.5934 1621.00
29.6586 1735.00
29.7238 1812.00
29.789 1747.00
29.8542 1709.00
29.9194 1663.00
29.9846 1912.00
30.0498 1965.00
30.115 1828.00
30.1802 1604.00
30.2454 1306.00
30.3106 1112.00
30.3758 1068.00
30.441 1068.00
30.5062 1053.00
30.5714 1105.00
30.6366 1056.00
30.7018 1047.00
30.767 1063.00
30.8322 1065.00
30.8974 1071.00
30.9626 1149.00
31.0278 1128.00
31.093 1114.00
31.1582 1314.00
31.2234 1585.00
31.2886 2255.00
31.3538 2803.00
31.419 3086.00
31.4842 2872.00
31.5494 2345.00
31.6146 1939.00
31.6798 1571.00
31.745 1421.00
31.8102 1258.00
31.8754 1360.00
31.9406 1556.00
32.0058 1808.00
32.071 1999.00
32.1362 2353.00
32.2014 3292.00
32.2666 4445.00
32.3318 5345.00
32.397 5301.00
32.4622 4442.00
32.5274 3285.00
32.5926 2459.00
32.6578 1907.00
32.723 1640.00
32.7882 1490.00
32.8534 1190.00
32.9186 1247.00
32.9838 1000.00
33.0489 1007.00
33.1141 981.00
33.1793 964.00
33.2445 981.00
33.3097 977.00
33.3749 888.00
33.4401 920.00
33.5053 943.00
33.5705 948.00
33.6357 957.00
33.7009 890.00
33.7661 908.00
33.8313 896.00
33.8965 922.00
33.9617 904.00
34.0269 948.00
34.0921 940.00
34.1573 986.00
34.2225 1043.00
34.2877 1158.00
34.3529 1122.00
34.4181 1228.00
34.4833 1573.00
34.5485 1648.00
34.6137 1683.00
34.6789 1424.00
34.7441 1261.00
34.8093 1108.00
34.8745 1116.00
34.9397 1041.00
35.0049 1117.00
35.0701 1211.00
35.1353 1210.00
35.2005 1416.00
35.2657 1893.00
35.3309 2582.00
35.3961 3276.00
35.4613 3175.00
35.5265 2833.00
35.5917 2430.00
35.6569 1880.00
35.7221 1401.00
35.7873 1146.00
35.8525 1012.00
35.9177 970.00
35.9829 914.00
36.0481 903.00
36.1133 900.00
36.1785 870.00
36.2437 880.00
36.3089 880.00
36.3741 836.00
36.4393 897.00
36.5045 777.00
36.5697 787.00
36.6349 778.00
36.7001 739.00
36.7653 786.00
36.8305 780.00
36.8957 742.00
36.9609 785.00
37.0261 742.00
37.0913 747.00
37.1565 764.00
37.2217 734.00
37.2869 845.00
37.3521 802.00
37.4173 821.00
37.4825 825.00
37.5477 875.00
37.6129 863.00
37.6781 849.00
37.7433 840.00
37.8085 755.00
37.8736 719.00
37.9388 737.00
38.004 673.00
38.0692 710.00
38.1344 773.00
38.1996 690.00
38.2648 829.00
38.33 826.00
38.3952 734.00
38.4604 810.00
38.5256 781.00
38.5908 765.00
38.656 825.00
38.7212 867.00
38.7864 829.00
38.8516 795.00
38.9168 759.00
38.982 689.00
39.0472 696.00
39.1124 721.00
39.1776 702.00
39.2428 662.00
39.308 662.00
39.3732 632.00
39.4384 646.00
39.5036 669.00
39.5688 653.00
39.634 666.00
39.6992 711.00
39.7644 655.00
39.8296 718.00
39.8948 713.00
39.96 750.00
40.0252 744.00
40.0904 669.00
40.1556 691.00
40.2208 695.00
40.286 656.00
40.3512 651.00
40.4164 625.00
40.4816 666.00
40.5468 680.00
40.612 624.00
40.6772 628.00
40.7424 650.00
40.8076 621.00
40.8728 636.00
40.938 717.00
41.0032 861.00
41.0684 930.00
41.1336 1004.00
41.1988 1108.00
41.264 1051.00
41.3292 989.00
41.3944 922.00
41.4596 916.00
41.5248 757.00
41.59 715.00
41.6552 716.00
41.7204 653.00
41.7856 583.00
41.8508 714.00
41.916 614.00
41.9812 728.00
42.0464 672.00
42.1116 669.00
42.1768 813.00
42.242 754.00
42.3072 773.00
42.3724 789.00
42.4376 702.00
42.5028 742.00
42.568 742.00
42.6332 749.00
42.6983 725.00
42.7635 796.00
42.8287 958.00
42.8939 1124.00
42.9591 1542.00
43.0243 1835.00
43.0895 2123.00
43.1547 2064.00
43.2199 1880.00
43.2851 1611.00
43.3503 1363.00
43.4155 1153.00
43.4807 1016.00
43.5459 998.00
43.6111 946.00
43.6763 897.00
43.7415 1005.00
43.8067 1063.00
43.8719 1051.00
43.9371 1055.00
44.0023 1158.00
44.0675 985.00
44.1327 964.00
44.1979 839.00
44.2631 780.00
44.3283 728.00
44.3935 665.00
44.4587 631.00
44.5239 645.00
44.5891 664.00
44.6543 710.00
44.7195 662.00
44.7847 630.00
44.8499 654.00
44.9151 645.00
44.9803 592.00
45.0455 598.00
45.1107 633.00
45.1759 629.00
45.2411 662.00
45.3063 613.00
45.3715 682.00
45.4367 723.00
45.5019 791.00
45.5671 777.00
45.6323 872.00
45.6975 827.00
45.7627 802.00
45.8279 732.00
45.8931 688.00
45.9583 651.00
46.0235 633.00
46.0887 703.00
46.1539 707.00
46.2191 891.00
46.2843 1039.00
46.3495 1228.00
46.4147 1190.00
46.4799 1183.00
46.5451 1038.00
46.6103 947.00
46.6755 852.00
46.7407 701.00
46.8059 644.00
46.8711 621.00
46.9363 582.00
47.0015 578.00
47.0667 611.00
47.1319 587.00
47.1971 574.00
47.2623 612.00
47.3275 613.00
47.3927 557.00
47.4579 560.00
47.523 578.00
47.5882 571.00
47.6534 597.00
47.7186 597.00
47.7838 689.00
47.849 707.00
47.9142 689.00
47.9794 808.00
48.0446 783.00
48.1098 930.00
48.175 819.00
48.2402 861.00
48.3054 809.00
48.3706 771.00
48.4358 761.00
48.501 960.00
48.5662 1165.00
48.6314 1570.00
48.6966 1821.00
48.7618 1985.00
48.827 1827.00
48.8922 1649.00
48.9574 1447.00
49.0226 1129.00
49.0878 954.00
49.153 838.00
49.2182 696.00
49.2834 619.00
49.3486 622.00
49.4138 564.00
49.479 506.00
49.5442 566.00
49.6094 526.00
49.6746 533.00
49.7398 544.00
49.805 565.00
49.8702 553.00
49.9354 527.00
50.0006 539.00
50.0658 547.00
50.131 518.00
50.1962 525.00
50.2614 534.00
50.3266 558.00
50.3918 531.00
50.457 560.00
50.5222 565.00
50.5874 512.00
50.6526 544.00
50.7178 606.00
50.783 569.00
50.8482 629.00
50.9134 765.00
50.9786 823.00
51.0438 852.00
51.109 988.00
51.1742 968.00
51.2394 1077.00
51.3046 991.00
51.3698 987.00
51.435 909.00
51.5002 851.00
51.5654 819.00
51.6306 685.00
51.6958 591.00
51.761 631.00
51.8262 611.00
51.8914 546.00
51.9566 550.00
52.0218 547.00
52.087 528.00
52.1522 542.00
52.2174 537.00
52.2826 552.00
52.3477 597.00
52.4129 569.00
52.4781 633.00
52.5433 809.00
52.6085 881.00
52.6737 985.00
52.7389 1039.00
52.8041 1046.00
52.8693 997.00
52.9345 897.00
52.9997 842.00
53.0649 815.00
53.1301 687.00
53.1953 750.00
53.2605 723.00
53.3257 777.00
53.3909 748.00
53.4561 796.00
53.5213 771.00
53.5865 674.00
53.6517 727.00
53.7169 641.00
53.7821 654.00
53.8473 603.00
53.9125 589.00
53.9777 575.00
54.0429 576.00
54.1081 558.00
54.1733 676.00
54.2385 682.00
54.3037 782.00
54.3689 800.00
54.4341 793.00
54.4993 708.00
54.5645 675.00
54.6297 658.00
54.6949 589.00
54.7601 629.00
54.8253 557.00
54.8905 548.00
54.9557 532.00
55.0209 513.00
55.0861 537.00
55.1513 578.00
55.2165 638.00
55.2817 761.00
55.3469 875.00
55.4121 893.00
55.4773 893.00
55.5425 935.00
55.6077 859.00
55.6729 766.00
55.7381 720.00
55.8033 626.00
55.8685 655.00
55.9337 588.00
55.9989 536.00
56.0641 583.00
56.1293 523.00
56.1945 512.00
56.2597 526.00
56.3249 508.00
56.3901 479.00
56.4553 511.00
56.5205 541.00
56.5857 554.00
56.6509 501.00
56.7161 631.00
56.7813 614.00
56.8465 613.00
56.9117 657.00
56.9769 740.00
57.042 795.00
57.1073 807.00
57.1724 737.00
57.2376 684.00
57.3028 640.00
57.368 668.00
57.4332 588.00
57.4984 603.00
57.5636 542.00
57.6288 548.00
57.694 527.00
57.7592 544.00
57.8244 504.00
57.8896 558.00
57.9548 594.00
58.02 599.00
58.0852 473.00
58.1504 513.00
58.2156 484.00
58.2808 511.00
58.346 529.00
58.4112 478.00
58.4764 525.00
58.5416 533.00
58.6068 525.00
58.672 515.00
58.7372 514.00
58.8024 575.00
58.8676 560.00
58.9328 577.00
58.998 580.00
59.0632 519.00
59.1284 526.00
59.1936 556.00
59.2588 491.00
59.324 520.00
59.3892 475.00
59.4544 481.00
59.5196 527.00
59.5848 487.00
59.65 541.00
59.7152 595.00
59.7804 590.00
59.8456 625.00
59.9108 638.00
59.976 536.00
60.0412 555.00
60.1064 536.00
60.1716 533.00
60.2368 551.00
60.302 512.00
60.3672 585.00
60.4324 560.00
60.4976 567.00
60.5628 544.00
60.628 539.00
60.6932 502.00
60.7584 529.00
60.8236 506.00
60.8888 493.00
60.954 539.00
61.0192 568.00
61.0844 519.00
61.1496 532.00
61.2148 549.00
61.28 542.00
61.3452 605.00
61.4104 695.00
61.4756 751.00
61.5408 878.00
61.606 930.00
61.6712 1009.00
61.7364 1078.00
61.8016 1147.00
61.8667 1046.00
61.932 975.00
61.9971 900.00
62.0623 906.00
62.1275 730.00
62.1927 718.00
62.2579 620.00
62.3231 558.00
62.3883 518.00
62.4535 553.00
62.5187 548.00
62.5839 531.00
62.6491 488.00
62.7143 478.00
62.7795 559.00
62.8447 509.00
62.9099 508.00
62.9751 514.00
63.0403 538.00
63.1055 504.00
63.1707 474.00
63.2359 516.00
63.3011 531.00
63.3663 591.00
63.4315 606.00
63.4967 673.00
63.5619 666.00
63.6271 782.00
63.6923 878.00
63.7575 804.00
63.8227 909.00
63.8879 878.00
63.9531 893.00
64.0183 828.00
64.0835 777.00
64.1487 743.00
64.2139 701.00
64.2791 650.00
64.3443 585.00
64.4095 591.00
64.4747 514.00
64.5399 527.00
64.6051 523.00
64.6703 536.00
64.7355 509.00
64.8007 509.00
64.8659 503.00
64.9311 534.00
64.9963 579.00
65.0615 561.00
65.1267 642.00
65.1919 603.00
65.2571 667.00
65.3223 707.00
65.3875 641.00
65.4527 627.00
65.5179 607.00
65.5831 633.00
65.6483 598.00
65.7135 609.00
65.7787 623.00
65.8439 661.00
65.9091 652.00
65.9743 663.00
66.0395 650.00
66.1047 572.00
66.1699 577.00
66.2351 544.00
66.3003 554.00
66.3655 500.00
66.4307 443.00
66.4959 481.00
66.561 503.00
66.6263 469.00
66.6915 465.00
66.7566 484.00
66.8218 535.00
66.887 507.00
66.9522 513.00
67.0174 480.00
67.0826 523.00
67.1478 485.00
67.213 440.00
67.2782 435.00
67.3434 434.00
67.4086 411.00
67.4738 447.00
67.539 442.00
67.6042 479.00
67.6694 423.00
67.7346 439.00
67.7998 522.00
67.865 494.00
67.9302 490.00
67.9954 462.00
68.0606 504.00
68.1258 454.00
68.191 482.00
68.2562 444.00
68.3214 430.00
68.3866 447.00
68.4518 432.00
68.517 478.00
68.5822 490.00
68.6474 513.00
68.7126 547.00
68.7778 587.00
68.843 703.00
68.9082 690.00
68.9734 740.00
69.0386 749.00
69.1038 745.00
69.169 795.00
69.2342 774.00
69.2994 745.00
69.3646 732.00
69.4298 692.00
69.495 658.00
69.5602 656.00
69.6254 628.00
69.6906 574.00
69.7558 592.00
69.821 550.00
69.8862 524.00
69.9514 538.00
70.0166 482.00
70.0818 528.00
70.147 559.00
70.2122 488.00
70.2774 464.00
70.3426 471.00
70.4078 482.00
70.473 506.00
70.5382 440.00
70.6034 407.00
70.6686 409.00
70.7338 405.00
70.799 396.00
70.8642 428.00
70.9294 430.00
70.9946 414.00
71.0598 381.00
71.125 410.00
71.1902 460.00
71.2554 501.00
71.3205 482.00
71.3858 473.00
71.451 531.00
71.5162 475.00
71.5813 478.00
71.6465 443.00
71.7117 409.00
71.7769 448.00
71.8421 403.00
71.9073 404.00
71.9725 439.00
72.0377 422.00
72.1029 410.00
72.1681 451.00
72.2333 417.00
72.2985 399.00
72.3637 455.00
72.4289 450.00
72.4941 472.00
72.5593 474.00
72.6245 563.00
72.6897 570.00
72.7549 562.00
72.8201 651.00
72.8853 592.00
72.9505 613.00
73.0157 552.00
73.0809 562.00
73.1461 548.00
73.2113 490.00
73.2765 475.00
73.3417 412.00
73.4069 414.00
73.4721 387.00
73.5373 400.00
73.6025 409.00
73.6677 358.00
73.7329 417.00
73.7981 398.00
73.8633 382.00
73.9285 411.00
73.9937 375.00
74.0589 427.00
74.1241 380.00
74.1893 402.00
74.2545 423.00
74.3197 387.00
74.3849 385.00
74.4501 405.00
74.5153 419.00
74.5805 406.00
74.6457 418.00
74.7109 457.00
74.7761 491.00
74.8413 511.00
74.9065 593.00
74.9717 566.00
75.0369 616.00
75.1021 622.00
75.1673 605.00
75.2325 532.00
75.2977 554.00
75.3629 513.00
75.4281 454.00
75.4933 474.00
75.5585 443.00
75.6237 415.00
75.6889 413.00
75.7541 383.00
75.8193 408.00
75.8845 380.00
75.9497 358.00
76.0149 360.00
76.0801 352.00
76.1452 406.00
76.2104 436.00
76.2756 379.00
76.3409 457.00
76.406 505.00
76.4712 455.00
76.5364 498.00
76.6016 461.00
76.6668 513.00
76.732 445.00
76.7972 501.00
76.8624 478.00
76.9276 431.00
76.9928 477.00
77.058 444.00
77.1232 459.00
77.1884 441.00
77.2536 455.00
77.3188 424.00
77.384 376.00
77.4492 368.00
77.5144 403.00
77.5796 374.00
77.6448 365.00
77.71 352.00
77.7752 332.00
77.8404 343.00
77.9056 341.00
77.9708 340.00
78.036 375.00
78.1012 326.00
78.1664 319.00
78.2316 377.00
78.2968 358.00
78.362 321.00
78.4272 341.00
78.4924 381.00
78.5576 343.00
78.6228 355.00
78.688 371.00
78.7532 373.00
78.8184 337.00
78.8836 369.00
78.9488 392.00
79.014 376.00
79.0792 381.00
79.1444 349.00
79.2096 403.00
79.2748 353.00
79.34 383.00
79.4052 368.00
79.4704 353.00
79.5356 427.00
79.6008 405.00
79.666 351.00
79.7312 373.00
79.7964 351.00
79.8616 390.00
79.9268 367.00
79.992 366.00
80.0572 378.00
80.1224 376.00
80.1876 455.00
80.2528 394.00
80.318 409.00
80.3832 397.00
80.4484 397.00
80.5136 450.00
80.5788 438.00
80.644 441.00
80.7092 430.00
80.7744 403.00
80.8396 413.00
80.9048 432.00
80.9699 448.00
81.0351 406.00
81.1003 407.00
81.1655 383.00
81.2307 427.00
81.2959 382.00
81.3611 359.00
81.4263 383.00
81.4915 356.00
81.5567 352.00
81.6219 351.00
81.6871 361.00
81.7523 355.00
81.8175 354.00
81.8827 358.00
81.9479 382.00
82.0131 378.00
82.0783 355.00
82.1435 362.00
82.2087 362.00
82.2739 349.00
82.3391 369.00
82.4043 348.00
82.4695 352.00
82.5347 355.00
82.5999 352.00
82.6651 347.00
82.7303 384.00
82.7955 343.00
82.8607 360.00
82.9259 341.00
82.9911 358.00
83.0563 382.00
83.1215 373.00
83.1867 382.00
83.2519 371.00
83.3171 392.00
83.3823 414.00
83.4475 402.00
83.5127 419.00
83.5779 430.00
83.6431 439.00
83.7083 433.00
83.7735 479.00
83.8387 475.00
83.9039 507.00
83.9691 466.00
84.0343 575.00
84.0995 533.00
84.1647 503.00
84.2299 515.00
84.2951 511.00
84.3603 522.00
84.4255 488.00
84.4907 464.00
84.5559 401.00
84.6211 428.00
84.6863 427.00
84.7515 458.00
84.8167 380.00
84.8819 382.00
84.9471 396.00
85.0123 368.00
85.0775 345.00
85.1427 371.00
85.2079 304.00
85.2731 336.00
85.3383 350.00
85.4035 330.00
85.4687 341.00
85.5339 345.00
85.5991 365.00
85.6643 396.00
85.7295 408.00
85.7946 380.00
85.8598 453.00
85.925 473.00
85.9903 418.00
86.0554 431.00
86.1206 417.00
86.1858 431.00
86.251 409.00
86.3162 390.00
86.3814 384.00
86.4466 382.00
86.5118 359.00
86.577 374.00
86.6422 340.00
86.7074 373.00
86.7726 310.00
86.8378 351.00
86.903 301.00
86.9682 372.00
87.0334 344.00
87.0986 352.00
87.1638 389.00
87.229 372.00
87.2942 365.00
87.3594 391.00
87.4246 358.00
87.4898 377.00
87.555 355.00
87.6202 359.00
87.6854 369.00
87.7506 342.00
87.8158 375.00
87.881 380.00
87.9462 311.00
88.0114 346.00
88.0766 344.00
88.1418 339.00
88.207 329.00
88.2722 321.00
88.3374 324.00
88.4026 342.00
88.4678 331.00
88.533 322.00
88.5982 304.00
88.6634 350.00
88.7286 355.00
88.7938 343.00
88.859 299.00
88.9242 303.00
88.9894 300.00
89.0546 298.00
89.1198 310.00
89.185 296.00
89.2502 307.00
89.3154 292.00
89.3806 320.00
89.4458 295.00
89.511 324.00
89.5762 328.00
89.6414 320.00
89.7066 315.00
89.7718 293.00
89.837 331.00
89.9022 311.00
89.9674 283.00
90.0326 308.00
90.0978 325.00
90.163 306.00
90.2282 331.00
90.2934 298.00
90.3586 325.00
90.4238 327.00
90.489 325.00
90.5542 368.00
90.6193 366.00
90.6845 380.00
90.7497 371.00
90.8149 364.00
90.8801 393.00
90.9453 381.00
91.0105 413.00
91.0757 379.00
91.1409 398.00
91.2061 414.00
91.2713 408.00
91.3365 422.00
91.4017 415.00
91.4669 421.00
91.5321 415.00
91.5973 415.00
91.6625 388.00
91.7277 339.00
91.7929 418.00
91.8581 340.00
91.9233 361.00
91.9885 368.00
92.0537 331.00
92.1189 341.00
92.1841 358.00
92.2493 313.00
92.3145 311.00
92.3797 338.00
92.4449 297.00
92.5101 342.00
92.5753 314.00
92.6405 336.00
92.7057 330.00
92.7709 299.00
92.8361 317.00
92.9013 337.00
92.9665 345.00
93.0317 329.00
93.0969 325.00
93.1621 360.00
93.2273 331.00
93.2925 344.00
93.3577 326.00
93.4229 324.00
93.4881 346.00
93.5533 343.00
93.6185 338.00
93.6837 317.00
93.7489 326.00
93.8141 335.00
93.8793 323.00
93.9445 356.00
94.0097 342.00
94.0749 344.00
94.1401 331.00
94.2053 354.00
94.2705 378.00
94.3357 360.00
94.4009 374.00
94.4661 375.00
94.5313 385.00
94.5965 385.00
94.6617 412.00
94.7269 380.00
94.7921 387.00
94.8573 406.00
94.9225 408.00
94.9877 391.00
95.0529 368.00
95.1181 363.00
95.1833 389.00
95.2485 356.00
95.3137 353.00
95.3789 381.00
95.444 355.00
95.5092 339.00
95.5744 340.00
95.6396 385.00
95.7048 341.00
95.77 335.00
95.8352 316.00
95.9004 330.00
95.9656 309.00
96.0308 320.00
96.096 316.00
96.1612 312.00
96.2264 320.00
96.2916 343.00
96.3568 352.00
96.422 358.00
96.4872 366.00
96.5524 341.00
96.6176 336.00
96.6828 366.00
96.748 361.00
96.8132 369.00
96.8784 418.00
96.9436 359.00
97.0088 395.00
97.074 337.00
97.1392 362.00
97.2044 320.00
97.2696 329.00
97.3348 349.00
97.4 338.00
97.4652 307.00
97.5304 312.00
97.5956 383.00
97.6608 355.00
97.726 329.00
97.7912 363.00
97.8564 351.00
97.9216 350.00
97.9868 340.00
98.052 342.00
98.1172 345.00
98.1824 354.00
98.2476 385.00
98.3128 351.00
98.378 327.00
98.4432 342.00
98.5084 372.00
98.5736 369.00
98.6388 332.00
98.704 356.00
98.7692 333.00
98.8344 296.00
98.8996 321.00
98.9648 315.00
99.03 340.00
99.0952 342.00
99.1604 279.00
99.2256 303.00
99.2908 298.00
99.356 319.00
99.4212 323.00
99.4864 322.00
99.5516 290.00
99.6168 293.00
99.682 319.00
99.7472 286.00
99.8124 298.00
99.8776 345.00
99.9428 330.00
100.008 355.00
100.073 338.00
100.095 340.00