File: data/xrd_creation/results/NSC_22.xy
9.903433 3077.00
9.968632 3015.00
10.0338 3002.00
10.099 2974.00
10.1642 2983.00
10.2294 2968.00
10.2946 2873.00
10.3598 2824.00
10.425 2927.00
10.4902 2774.00
10.5554 2847.00
10.6206 2830.00
10.6858 2756.00
10.751 2834.00
10.8162 2706.00
10.8814 2823.00
10.9466 2750.00
11.0118 2746.00
11.077 2774.00
11.1422 2715.00
11.2074 2683.00
11.2726 2666.00
11.3378 2666.00
11.403 2744.00
11.4682 2552.00
11.5334 2628.00
11.5986 2571.00
11.6638 2555.00
11.729 2543.00
11.7942 2631.00
11.8594 2547.00
11.9246 2678.00
11.9898 2599.00
12.055 2584.00
12.1202 2633.00
12.1854 2649.00
12.2506 2786.00
12.3158 2828.00
12.381 3014.00
12.4462 2993.00
12.5114 2764.00
12.5766 2445.00
12.6418 2527.00
12.707 2464.00
12.7722 2494.00
12.8374 2395.00
12.9026 2383.00
12.9678 2375.00
13.033 2321.00
13.0982 2433.00
13.1634 2274.00
13.2286 2255.00
13.2938 2325.00
13.359 2289.00
13.4242 2295.00
13.4894 2277.00
13.5546 2379.00
13.6198 2220.00
13.685 2456.00
13.7502 2371.00
13.8154 2452.00
13.8805 2484.00
13.9457 2700.00
14.0109 2944.00
14.0761 3269.00
14.1413 3653.00
14.2065 4272.00
14.2717 4001.00
14.3369 2815.00
14.4021 2339.00
14.4673 2335.00
14.5325 2259.00
14.5977 2241.00
14.6629 2264.00
14.7281 2260.00
14.7933 2235.00
14.8585 2324.00
14.9237 2193.00
14.9889 2230.00
15.0541 2311.00
15.1193 2220.00
15.1845 2111.00
15.2497 2258.00
15.3149 2113.00
15.3801 2200.00
15.4453 2176.00
15.5105 2109.00
15.5757 2207.00
15.6409 2171.00
15.7061 2232.00
15.7713 2218.00
15.8365 2167.00
15.9017 2242.00
15.9669 2277.00
16.0321 2200.00
16.0973 2186.00
16.1625 2234.00
16.2277 2103.00
16.2929 2232.00
16.3581 2182.00
16.4233 2191.00
16.4885 2108.00
16.5537 2192.00
16.6189 2122.00
16.6841 2087.00
16.7493 2071.00
16.8145 2127.00
16.8797 2107.00
16.9449 2068.00
17.0101 2178.00
17.0753 2020.00
17.1405 2053.00
17.2057 2200.00
17.2709 2081.00
17.3361 2113.00
17.4013 2191.00
17.4665 2269.00
17.5317 2139.00
17.5969 2088.00
17.6621 2293.00
17.7273 2231.00
17.7925 2209.00
17.8577 2094.00
17.9229 1951.00
17.9881 2079.00
18.0533 2094.00
18.1185 2070.00
18.1837 2179.00
18.2489 2188.00
18.3141 2111.00
18.3793 2157.00
18.4445 2107.00
18.5097 2111.00
18.5749 2080.00
18.6401 2070.00
18.7052 2100.00
18.7704 2001.00
18.8356 2057.00
18.9008 2148.00
18.966 2150.00
19.0312 2154.00
19.0964 2194.00
19.1616 2156.00
19.2268 2152.00
19.292 2389.00
19.3572 2615.00
19.4224 3013.00
19.4876 3988.00
19.5528 5519.00
19.618 7590.00
19.6832 9122.00
19.7484 7404.00
19.8136 4086.00
19.8788 2718.00
19.944 2498.00
20.0092 2578.00
20.0744 2788.00
20.1396 3273.00
20.2048 4179.00
20.27 6089.00
20.3352 8633.00
20.4004 10791.00
20.4656 8882.00
20.5308 4681.00
20.596 2838.00
20.6612 2371.00
20.7264 2288.00
20.7916 2190.00
20.8568 2140.00
20.922 2138.00
20.9872 2055.00
21.0524 2117.00
21.1176 2054.00
21.1828 2120.00
21.248 2122.00
21.3132 2161.00
21.3784 2082.00
21.4436 2088.00
21.5088 2147.00
21.574 2157.00
21.6392 2110.00
21.7044 2136.00
21.7696 2224.00
21.8348 2365.00
21.9 2411.00
21.9652 2594.00
22.0304 2530.00
22.0956 2597.00
22.1608 2405.00
22.226 2353.00
22.2912 2551.00
22.3564 2343.00
22.4216 2499.00
22.4868 2308.00
22.552 2285.00
22.6172 2074.00
22.6824 2088.00
22.7476 2143.00
22.8128 2143.00
22.878 2241.00
22.9432 2418.00
23.0084 2757.00
23.0736 3038.00
23.1388 3232.00
23.204 2826.00
23.2692 2961.00
23.3344 3344.00
23.3996 4496.00
23.4647 6471.00
23.5299 9886.00
23.5951 11675.00
23.6603 8264.00
23.7255 4253.00
23.7907 2589.00
23.8559 2215.00
23.9211 2186.00
23.9863 2089.00
24.0515 2046.00
24.1167 2138.00
24.1819 2251.00
24.2471 2465.00
24.3123 2585.00
24.3775 2316.00
24.4427 2198.00
24.5079 2149.00
24.5731 2050.00
24.6383 2270.00
24.7035 2188.00
24.7687 2195.00
24.8339 2051.00
24.8991 1911.00
24.9643 1933.00
25.0295 1793.00
25.0947 1813.00
25.1599 1927.00
25.2251 1832.00
25.2903 1803.00
25.3555 1837.00
25.4207 1806.00
25.4859 1848.00
25.5511 1776.00
25.6163 1767.00
25.6815 1821.00
25.7467 1825.00
25.8119 1870.00
25.8771 1808.00
25.9423 1799.00
26.0075 1757.00
26.0727 1773.00
26.1379 1703.00
26.2031 1776.00
26.2683 1697.00
26.3335 1702.00
26.3987 1798.00
26.4639 1663.00
26.5291 1768.00
26.5943 1731.00
26.6595 1874.00
26.7247 1776.00
26.7899 1749.00
26.8551 1783.00
26.9203 1810.00
26.9855 1776.00
27.0507 1795.00
27.1159 1736.00
27.1811 1783.00
27.2463 1715.00
27.3115 1714.00
27.3767 1770.00
27.4419 1753.00
27.5071 1735.00
27.5723 1794.00
27.6375 1738.00
27.7027 1875.00
27.7679 1816.00
27.8331 1951.00
27.8983 1831.00
27.9635 1929.00
28.0287 2131.00
28.0939 2283.00
28.1591 2931.00
28.2243 4130.00
28.2894 6314.00
28.3546 9522.00
28.4198 10606.00
28.485 7842.00
28.5502 4644.00
28.6154 2917.00
28.6806 2387.00
28.7458 1962.00
28.811 1848.00
28.8762 1834.00
28.9414 1751.00
29.0066 1796.00
29.0718 1697.00
29.137 1738.00
29.2022 1706.00
29.2674 1705.00
29.3326 1739.00
29.3978 1738.00
29.463 1617.00
29.5282 1782.00
29.5934 1627.00
29.6586 1765.00
29.7238 1846.00
29.789 1832.00
29.8542 1863.00
29.9194 1919.00
29.9846 1915.00
30.0498 1832.00
30.115 1826.00
30.1802 1969.00
30.2454 1919.00
30.3106 1870.00
30.3758 1826.00
30.441 1830.00
30.5062 1962.00
30.5714 1976.00
30.6366 1852.00
30.7018 1910.00
30.767 2069.00
30.8322 2070.00
30.8974 2314.00
30.9626 2524.00
31.0278 3018.00
31.093 4149.00
31.1582 5934.00
31.2234 8675.00
31.2886 11766.00
31.3538 11577.00
31.419 8268.00
31.4842 5767.00
31.5494 4501.00
31.6146 4305.00
31.6798 4501.00
31.745 4268.00
31.8102 3255.00
31.8754 2416.00
31.9406 2025.00
32.0058 1883.00
32.071 1755.00
32.1362 1738.00
32.2014 1713.00
32.2666 1719.00
32.3318 1630.00
32.397 1675.00
32.4622 1628.00
32.5274 1537.00
32.5926 1568.00
32.6578 1662.00
32.723 1589.00
32.7882 1612.00
32.8534 1593.00
32.9186 1633.00
32.9838 1644.00
33.0489 1558.00
33.1141 1604.00
33.1793 1631.00
33.2445 1648.00
33.3097 1650.00
33.3749 1601.00
33.4401 1642.00
33.5053 1641.00
33.5705 1750.00
33.6357 1679.00
33.7009 1863.00
33.7661 1776.00
33.8313 1913.00
33.8965 1805.00
33.9617 1760.00
34.0269 1859.00
34.0921 2045.00
34.1573 2486.00
34.2225 2969.00
34.2877 3393.00
34.3529 3017.00
34.4181 2567.00
34.4833 2174.00
34.5485 1982.00
34.6137 2082.00
34.6789 2150.00
34.7441 2189.00
34.8093 2055.00
34.8745 2090.00
34.9397 2399.00
35.0049 3025.00
35.0701 3819.00
35.1353 3834.00
35.2005 3241.00
35.2657 2778.00
35.3309 2926.00
35.3961 3774.00
35.4613 5337.00
35.5265 5999.00
35.5917 5144.00
35.6569 3721.00
35.7221 2498.00
35.7873 2117.00
35.8525 1815.00
35.9177 1731.00
35.9829 1741.00
36.0481 1674.00
36.1133 1684.00
36.1785 1693.00
36.2437 1674.00
36.3089 1635.00
36.3741 1645.00
36.4393 1622.00
36.5045 1634.00
36.5697 1572.00
36.6349 1456.00
36.7001 1506.00
36.7653 1498.00
36.8305 1431.00
36.8957 1497.00
36.9609 1426.00
37.0261 1499.00
37.0913 1442.00
37.1565 1490.00
37.2217 1489.00
37.2869 1435.00
37.3521 1495.00
37.4173 1477.00
37.4825 1394.00
37.5477 1447.00
37.6129 1453.00
37.6781 1542.00
37.7433 1460.00
37.8085 1402.00
37.8736 1435.00
37.9388 1396.00
38.004 1386.00
38.0692 1429.00
38.1344 1425.00
38.1996 1413.00
38.2648 1438.00
38.33 1423.00
38.3952 1363.00
38.4604 1498.00
38.5256 1450.00
38.5908 1462.00
38.656 1449.00
38.7212 1547.00
38.7864 1627.00
38.8516 1583.00
38.9168 1597.00
38.982 1491.00
39.0472 1506.00
39.1124 1388.00
39.1776 1503.00
39.2428 1489.00
39.308 1491.00
39.3732 1482.00
39.4384 1527.00
39.5036 1616.00
39.5688 1721.00
39.634 1877.00
39.6992 1941.00
39.7644 1915.00
39.8296 1867.00
39.8948 1545.00
39.96 1556.00
40.0252 1554.00
40.0904 1415.00
40.1556 1436.00
40.2208 1437.00
40.286 1369.00
40.3512 1453.00
40.4164 1466.00
40.4816 1478.00
40.5468 1418.00
40.612 1423.00
40.6772 1451.00
40.7424 1499.00
40.8076 1639.00
40.8728 1795.00
40.938 1885.00
41.0032 1943.00
41.0684 2039.00
41.1336 2125.00
41.1988 2224.00
41.264 2163.00
41.3292 2401.00
41.3944 2211.00
41.4596 2067.00
41.5248 2055.00
41.59 2026.00
41.6552 2014.00
41.7204 1806.00
41.7856 1647.00
41.8508 1618.00
41.916 1649.00
41.9812 1608.00
42.0464 1682.00
42.1116 1754.00
42.1768 1611.00
42.242 1460.00
42.3072 1475.00
42.3724 1459.00
42.4376 1431.00
42.5028 1465.00
42.568 1515.00
42.6332 1554.00
42.6983 1438.00
42.7635 1578.00
42.8287 1725.00
42.8939 1998.00
42.9591 2408.00
43.0243 2637.00
43.0895 2339.00
43.1547 1908.00
43.2199 1644.00
43.2851 1468.00
43.3503 1419.00
43.4155 1383.00
43.4807 1454.00
43.5459 1543.00
43.6111 1551.00
43.6763 1493.00
43.7415 1548.00
43.8067 1572.00
43.8719 1395.00
43.9371 1480.00
44.0023 1333.00
44.0675 1365.00
44.1327 1415.00
44.1979 1384.00
44.2631 1389.00
44.3283 1433.00
44.3935 1467.00
44.4587 1482.00
44.5239 1487.00
44.5891 1556.00
44.6543 1658.00
44.7195 1865.00
44.7847 2232.00
44.8499 2810.00
44.9151 3366.00
44.9803 3302.00
45.0455 2822.00
45.1107 2339.00
45.1759 1867.00
45.2411 1596.00
45.3063 1579.00
45.3715 1583.00
45.4367 1528.00
45.5019 1582.00
45.5671 1563.00
45.6323 1708.00
45.6975 1865.00
45.7627 1958.00
45.8279 2222.00
45.8931 2465.00
45.9583 2809.00
46.0235 2594.00
46.0887 2252.00
46.1539 1911.00
46.2191 1685.00
46.2843 1659.00
46.3495 1658.00
46.4147 1741.00
46.4799 1871.00
46.5451 1968.00
46.6103 2071.00
46.6755 2108.00
46.7407 2169.00
46.8059 2017.00
46.8711 1987.00
46.9363 2045.00
47.0015 1869.00
47.0667 1644.00
47.1319 1574.00
47.1971 1518.00
47.2623 1488.00
47.3275 1504.00
47.3927 1529.00
47.4579 1554.00
47.523 1667.00
47.5882 1694.00
47.6534 1824.00
47.7186 2045.00
47.7838 2397.00
47.849 3249.00
47.9142 3903.00
47.9794 4025.00
48.0446 3558.00
48.1098 2830.00
48.175 2101.00
48.2402 1791.00
48.3054 1651.00
48.3706 1549.00
48.4358 1551.00
48.501 1630.00
48.5662 1820.00
48.6314 1838.00
48.6966 1714.00
48.7618 1634.00
48.827 1542.00
48.8922 1449.00
48.9574 1510.00
49.0226 1503.00
49.0878 1472.00
49.153 1490.00
49.2182 1607.00
49.2834 1548.00
49.3486 1756.00
49.4138 1828.00
49.479 2074.00
49.5442 2070.00
49.6094 1877.00
49.6746 1706.00
49.7398 1638.00
49.805 1531.00
49.8702 1451.00
49.9354 1415.00
50.0006 1524.00
50.0658 1515.00
50.131 1489.00
50.1962 1664.00
50.2614 1908.00
50.3266 2248.00
50.3918 2222.00
50.457 2059.00
50.5222 1963.00
50.5874 1786.00
50.6526 1781.00
50.7178 1865.00
50.783 2118.00
50.8482 2030.00
50.9134 1955.00
50.9786 1910.00
51.0438 2055.00
51.109 2326.00
51.1742 2779.00
51.2394 3195.00
51.3046 3429.00
51.3698 3075.00
51.435 2742.00
51.5002 2328.00
51.5654 1953.00
51.6306 1852.00
51.6958 1934.00
51.761 1818.00
51.8262 1665.00
51.8914 1589.00
51.9566 1407.00
52.0218 1438.00
52.087 1363.00
52.1522 1263.00
52.2174 1284.00
52.2826 1350.00
52.3477 1388.00
52.4129 1453.00
52.4781 1343.00
52.5433 1351.00
52.6085 1387.00
52.6737 1483.00
52.7389 1448.00
52.8041 1505.00
52.8693 1453.00
52.9345 1394.00
52.9997 1414.00
53.0649 1335.00
53.1301 1406.00
53.1953 1436.00
53.2605 1490.00
53.3257 1504.00
53.3909 1528.00
53.4561 1447.00
53.5213 1449.00
53.5865 1369.00
53.6517 1373.00
53.7169 1405.00
53.7821 1427.00
53.8473 1474.00
53.9125 1517.00
53.9777 1629.00
54.0429 1938.00
54.1081 2237.00
54.1733 2354.00
54.2385 2416.00
54.3037 2363.00
54.3689 2141.00
54.4341 1921.00
54.4993 1718.00
54.5645 1611.00
54.6297 1591.00
54.6949 1523.00
54.7601 1598.00
54.8253 1760.00
54.8905 1899.00
54.9557 2081.00
55.0209 2467.00
55.0861 2725.00
55.1513 2701.00
55.2165 2943.00
55.2817 3380.00
55.3469 3692.00
55.4121 3650.00
55.4773 3377.00
55.5425 3130.00
55.6077 2630.00
55.6729 2328.00
55.7381 2140.00
55.8033 1833.00
55.8685 1712.00
55.9337 1499.00
55.9989 1584.00
56.0641 1532.00
56.1293 1589.00
56.1945 1542.00
56.2597 1554.00
56.3249 1572.00
56.3901 1504.00
56.4553 1435.00
56.5205 1494.00
56.5857 1556.00
56.6509 1481.00
56.7161 1485.00
56.7813 1591.00
56.8465 1578.00
56.9117 1604.00
56.9769 1431.00
57.042 1306.00
57.1073 1405.00
57.1724 1427.00
57.2376 1533.00
57.3028 1561.00
57.368 1533.00
57.4332 1594.00
57.4984 1540.00
57.5636 1630.00
57.6288 1541.00
57.694 1556.00
57.7592 1456.00
57.8244 1560.00
57.8896 1550.00
57.9548 1668.00
58.02 1750.00
58.0852 1920.00
58.1504 1935.00
58.2156 2008.00
58.2808 1965.00
58.346 1933.00
58.4112 1960.00
58.4764 1819.00
58.5416 1750.00
58.6068 1583.00
58.672 1541.00
58.7372 1431.00
58.8024 1413.00
58.8676 1411.00
58.9328 1375.00
58.998 1463.00
59.0632 1462.00
59.1284 1529.00
59.1936 1563.00
59.2588 1561.00
59.324 1481.00
59.3892 1503.00
59.4544 1498.00
59.5196 1575.00
59.5848 1646.00
59.65 1824.00
59.7152 2083.00
59.7804 2436.00
59.8456 2556.00
59.9108 2441.00
59.976 2259.00
60.0412 2128.00
60.1064 2040.00
60.1716 1885.00
60.2368 1912.00
60.302 1744.00
60.3672 1596.00
60.4324 1697.00
60.4976 1502.00
60.5628 1535.00
60.628 1568.00
60.6932 1686.00
60.7584 1874.00
60.8236 2209.00
60.8888 2743.00
60.954 2639.00
61.0192 2522.00
61.0844 2289.00
61.1496 2213.00
61.2148 1958.00
61.28 1780.00
61.3452 1679.00
61.4104 1578.00
61.4756 1576.00
61.5408 1615.00
61.606 1580.00
61.6712 1586.00
61.7364 1599.00
61.8016 1533.00
61.8667 1528.00
61.932 1677.00
61.9971 1842.00
62.0623 1888.00
62.1275 2128.00
62.1927 2070.00
62.2579 2028.00
62.3231 2032.00
62.3883 1830.00
62.4535 1829.00
62.5187 1637.00
62.5839 1554.00
62.6491 1536.00
62.7143 1610.00
62.7795 1471.00
62.8447 1526.00
62.9099 1701.00
62.9751 1745.00
63.0403 1779.00
63.1055 1943.00
63.1707 1982.00
63.2359 1872.00
63.3011 1889.00
63.3663 1938.00
63.4315 1864.00
63.4967 1878.00
63.5619 1900.00
63.6271 1878.00
63.6923 1963.00
63.7575 1844.00
63.8227 1817.00
63.8879 1641.00
63.9531 1592.00
64.0183 1542.00
64.0835 1460.00
64.1487 1461.00
64.2139 1378.00
64.2791 1309.00
64.3443 1325.00
64.4095 1397.00
64.4747 1386.00
64.5399 1417.00
64.6051 1419.00
64.6703 1353.00
64.7355 1381.00
64.8007 1489.00
64.8659 1401.00
64.9311 1431.00
64.9963 1475.00
65.0615 1513.00
65.1267 1545.00
65.1919 1477.00
65.2571 1532.00
65.3223 1518.00
65.3875 1535.00
65.4527 1445.00
65.5179 1375.00
65.5831 1557.00
65.6483 1552.00
65.7135 1605.00
65.7787 1667.00
65.8439 1780.00
65.9091 1886.00
65.9743 1950.00
66.0395 2013.00
66.1047 1991.00
66.1699 1787.00
66.2351 1751.00
66.3003 1568.00
66.3655 1581.00
66.4307 1439.00
66.4959 1302.00
66.561 1418.00
66.6263 1317.00
66.6915 1313.00
66.7566 1345.00
66.8218 1296.00
66.887 1315.00
66.9522 1455.00
67.0174 1526.00
67.0826 1533.00
67.1478 1621.00
67.213 1584.00
67.2782 1539.00
67.3434 1514.00
67.4086 1510.00
67.4738 1544.00
67.539 1628.00
67.6042 1636.00
67.6694 1584.00
67.7346 1546.00
67.7998 1545.00
67.865 1483.00
67.9302 1407.00
67.9954 1331.00
68.0606 1237.00
68.1258 1283.00
68.191 1342.00
68.2562 1309.00
68.3214 1297.00
68.3866 1375.00
68.4518 1371.00
68.517 1312.00
68.5822 1432.00
68.6474 1418.00
68.7126 1492.00
68.7778 1458.00
68.843 1412.00
68.9082 1462.00
68.9734 1460.00
69.0386 1437.00
69.1038 1449.00
69.169 1324.00
69.2342 1331.00
69.2994 1384.00
69.3646 1282.00
69.4298 1362.00
69.495 1274.00
69.5602 1284.00
69.6254 1296.00
69.6906 1219.00
69.7558 1270.00
69.821 1355.00
69.8862 1264.00
69.9514 1261.00
70.0166 1281.00
70.0818 1302.00
70.147 1296.00
70.2122 1250.00
70.2774 1359.00
70.3426 1348.00
70.4078 1297.00
70.473 1389.00
70.5382 1348.00
70.6034 1427.00
70.6686 1585.00
70.7338 1584.00
70.799 1877.00
70.8642 1780.00
70.9294 1827.00
70.9946 1766.00
71.0598 1695.00
71.125 1604.00
71.1902 1663.00
71.2554 1478.00
71.3205 1507.00
71.3858 1466.00
71.451 1352.00
71.5162 1428.00
71.5813 1349.00
71.6465 1402.00
71.7117 1348.00
71.7769 1346.00
71.8421 1330.00
71.9073 1296.00
71.9725 1332.00
72.0377 1387.00
72.1029 1331.00
72.1681 1292.00
72.2333 1364.00
72.2985 1277.00
72.3637 1370.00
72.4289 1224.00
72.4941 1235.00
72.5593 1297.00
72.6245 1231.00
72.6897 1328.00
72.7549 1285.00
72.8201 1343.00
72.8853 1228.00
72.9505 1315.00
73.0157 1303.00
73.0809 1312.00
73.1461 1357.00
73.2113 1349.00
73.2765 1337.00
73.3417 1458.00
73.4069 1498.00
73.4721 1557.00
73.5373 1587.00
73.6025 1606.00
73.6677 1546.00
73.7329 1660.00
73.7981 1422.00
73.8633 1413.00
73.9285 1381.00
73.9937 1362.00
74.0589 1339.00
74.1241 1279.00
74.1893 1405.00
74.2545 1337.00
74.3197 1299.00
74.3849 1331.00
74.4501 1391.00
74.5153 1412.00
74.5805 1454.00
74.6457 1569.00
74.7109 1737.00
74.7761 1812.00
74.8413 1764.00
74.9065 1796.00
74.9717 1735.00
75.0369 1612.00
75.1021 1713.00
75.1673 1635.00
75.2325 1664.00
75.2977 1619.00
75.3629 1580.00
75.4281 1503.00
75.4933 1453.00
75.5585 1408.00
75.6237 1401.00
75.6889 1306.00
75.7541 1322.00
75.8193 1294.00
75.8845 1223.00
75.9497 1273.00
76.0149 1177.00
76.0801 1205.00
76.1452 1276.00
76.2104 1320.00
76.2756 1316.00
76.3409 1248.00
76.406 1316.00
76.4712 1345.00
76.5364 1318.00
76.6016 1272.00
76.6668 1323.00
76.732 1277.00
76.7972 1227.00
76.8624 1289.00
76.9276 1190.00
76.9928 1262.00
77.058 1311.00
77.1232 1310.00
77.1884 1293.00
77.2536 1346.00
77.3188 1356.00
77.384 1249.00
77.4492 1307.00
77.5144 1280.00
77.5796 1285.00
77.6448 1286.00
77.71 1219.00
77.7752 1260.00
77.8404 1280.00
77.9056 1243.00
77.9708 1283.00
78.036 1361.00
78.1012 1321.00
78.1664 1425.00
78.2316 1482.00
78.2968 1501.00
78.362 1539.00
78.4272 1632.00
78.4924 1611.00
78.5576 1564.00
78.6228 1703.00
78.688 1505.00
78.7532 1491.00
78.8184 1520.00
78.8836 1495.00
78.9488 1451.00
79.014 1473.00
79.0792 1360.00
79.1444 1357.00
79.2096 1238.00
79.2748 1341.00
79.34 1361.00
79.4052 1247.00
79.4704 1272.00
79.5356 1253.00
79.6008 1324.00
79.666 1360.00
79.7312 1294.00
79.7964 1317.00
79.8616 1239.00
79.9268 1287.00
79.992 1166.00
80.0572 1223.00
80.1224 1225.00
80.1876 1384.00
80.2528 1312.00
80.318 1250.00
80.3832 1304.00
80.4484 1424.00
80.5136 1437.00
80.5788 1533.00
80.644 1539.00
80.7092 1572.00
80.7744 1594.00
80.8396 1525.00
80.9048 1427.00
80.9699 1439.00
81.0351 1414.00
81.1003 1316.00
81.1655 1255.00
81.2307 1221.00
81.2959 1298.00
81.3611 1287.00
81.4263 1276.00
81.4915 1247.00
81.5567 1221.00
81.6219 1256.00
81.6871 1257.00
81.7523 1216.00
81.8175 1277.00
81.8827 1311.00
81.9479 1204.00
82.0131 1220.00
82.0783 1216.00
82.1435 1254.00
82.2087 1250.00
82.2739 1209.00
82.3391 1239.00
82.4043 1181.00
82.4695 1271.00
82.5347 1273.00
82.5999 1287.00
82.6651 1307.00
82.7303 1331.00
82.7955 1379.00
82.8607 1409.00
82.9259 1378.00
82.9911 1470.00
83.0563 1519.00
83.1215 1516.00
83.1867 1547.00
83.2519 1585.00
83.3171 1590.00
83.3823 1618.00
83.4475 1492.00
83.5127 1456.00
83.5779 1415.00
83.6431 1336.00
83.7083 1248.00
83.7735 1304.00
83.8387 1241.00
83.9039 1338.00
83.9691 1324.00
84.0343 1425.00
84.0995 1251.00
84.1647 1321.00
84.2299 1361.00
84.2951 1418.00
84.3603 1455.00
84.4255 1466.00
84.4907 1501.00
84.5559 1491.00
84.6211 1482.00
84.6863 1364.00
84.7515 1452.00
84.8167 1338.00
84.8819 1305.00
84.9471 1404.00
85.0123 1452.00
85.0775 1444.00
85.1427 1437.00
85.2079 1424.00
85.2731 1429.00
85.3383 1403.00
85.4035 1331.00
85.4687 1352.00
85.5339 1391.00
85.5991 1316.00
85.6643 1315.00
85.7295 1362.00
85.7946 1332.00
85.8598 1401.00
85.925 1305.00
85.9903 1342.00
86.0554 1369.00
86.1206 1297.00
86.1858 1328.00
86.251 1286.00
86.3162 1341.00
86.3814 1358.00
86.4466 1382.00
86.5118 1406.00
86.577 1307.00
86.6422 1249.00
86.7074 1303.00
86.7726 1305.00
86.8378 1247.00
86.903 1189.00
86.9682 1292.00
87.0334 1236.00
87.0986 1264.00
87.1638 1228.00
87.229 1275.00
87.2942 1218.00
87.3594 1279.00
87.4246 1244.00
87.4898 1250.00
87.555 1292.00
87.6202 1335.00
87.6854 1374.00
87.7506 1343.00
87.8158 1418.00
87.881 1458.00
87.9462 1349.00
88.0114 1284.00
88.0766 1319.00
88.1418 1275.00
88.207 1398.00
88.2722 1401.00
88.3374 1391.00
88.4026 1293.00
88.4678 1421.00
88.533 1358.00
88.5982 1484.00
88.6634 1442.00
88.7286 1372.00
88.7938 1444.00
88.859 1394.00
88.9242 1507.00
88.9894 1490.00
89.0546 1545.00
89.1198 1660.00
89.185 1590.00
89.2502 1670.00
89.3154 1554.00
89.3806 1638.00
89.4458 1523.00
89.511 1546.00
89.5762 1398.00
89.6414 1356.00
89.7066 1411.00
89.7718 1339.00
89.837 1365.00
89.9022 1274.00
89.9674 1333.00
90.0326 1334.00
90.0978 1381.00
90.163 1273.00
90.2282 1219.00
90.2934 1211.00
90.3586 1237.00
90.4238 1246.00
90.489 1310.00
90.5542 1275.00
90.6193 1299.00
90.6845 1268.00
90.7497 1212.00
90.8149 1266.00
90.8801 1351.00
90.9453 1320.00
91.0105 1268.00
91.0757 1364.00
91.1409 1310.00
91.2061 1465.00
91.2713 1453.00
91.3365 1362.00
91.4017 1368.00
91.4669 1428.00
91.5321 1443.00
91.5973 1407.00
91.6625 1279.00
91.7277 1280.00
91.7929 1299.00
91.8581 1290.00
91.9233 1393.00
91.9885 1247.00
92.0537 1187.00
92.1189 1302.00
92.1841 1295.00
92.2493 1269.00
92.3145 1170.00
92.3797 1256.00
92.4449 1255.00
92.5101 1230.00
92.5753 1239.00
92.6405 1220.00
92.7057 1160.00
92.7709 1200.00
92.8361 1234.00
92.9013 1208.00
92.9665 1209.00
93.0317 1217.00
93.0969 1274.00
93.1621 1281.00
93.2273 1189.00
93.2925 1260.00
93.3577 1283.00
93.4229 1370.00
93.4881 1298.00
93.5533 1354.00
93.6185 1327.00
93.6837 1363.00
93.7489 1350.00
93.8141 1399.00
93.8793 1311.00
93.9445 1377.00
94.0097 1386.00
94.0749 1298.00
94.1401 1243.00
94.2053 1273.00
94.2705 1333.00
94.3357 1380.00
94.4009 1311.00
94.4661 1309.00
94.5313 1373.00
94.5965 1362.00
94.6617 1455.00
94.7269 1469.00
94.7921 1540.00
94.8573 1503.00
94.9225 1415.00
94.9877 1413.00
95.0529 1406.00
95.1181 1474.00
95.1833 1411.00
95.2485 1391.00
95.3137 1440.00
95.3789 1390.00
95.444 1385.00
95.5092 1314.00
95.5744 1426.00
95.6396 1423.00
95.7048 1414.00
95.77 1519.00
95.8352 1393.00
95.9004 1395.00
95.9656 1470.00
96.0308 1503.00
96.096 1423.00
96.1612 1435.00
96.2264 1508.00
96.2916 1376.00
96.3568 1388.00
96.422 1384.00
96.4872 1390.00
96.5524 1343.00
96.6176 1387.00
96.6828 1371.00
96.748 1360.00
96.8132 1267.00
96.8784 1360.00
96.9436 1389.00
97.0088 1256.00
97.074 1347.00
97.1392 1237.00
97.2044 1283.00
97.2696 1320.00
97.3348 1233.00
97.4 1225.00
97.4652 1159.00
97.5304 1236.00
97.5956 1228.00
97.6608 1189.00
97.726 1245.00
97.7912 1235.00
97.8564 1265.00
97.9216 1243.00
97.9868 1163.00
98.052 1175.00
98.1172 1226.00
98.1824 1139.00
98.2476 1261.00
98.3128 1300.00
98.378 1236.00
98.4432 1257.00
98.5084 1399.00
98.5736 1357.00
98.6388 1407.00
98.704 1370.00
98.7692 1328.00
98.8344 1294.00
98.8996 1247.00
98.9648 1317.00
99.03 1333.00
99.0952 1377.00
99.1604 1408.00
99.2256 1304.00
99.2908 1340.00
99.356 1421.00
99.4212 1422.00
99.4864 1471.00
99.5516 1471.00
99.6168 1386.00
99.682 1407.00
99.7472 1428.00
99.8124 1520.00
99.8776 1437.00
99.9428 1457.00
100.008 1505.00
100.073 1546.00
100.095 1469.00