File: data/xrd_creation/results/NSC_158.xy
9.903433 2627.00
9.968632 2535.00
10.0338 2481.00
10.099 2593.00
10.1642 2477.00
10.2294 2556.00
10.2946 2456.00
10.3598 2553.00
10.425 2517.00
10.4902 2477.00
10.5554 2502.00
10.6206 2371.00
10.6858 2408.00
10.751 2271.00
10.8162 2342.00
10.8814 2330.00
10.9466 2235.00
11.0118 2305.00
11.077 2189.00
11.1422 2245.00
11.2074 2223.00
11.2726 2162.00
11.3378 2166.00
11.403 2222.00
11.4682 2158.00
11.5334 2214.00
11.5986 2171.00
11.6638 2157.00
11.729 2168.00
11.7942 2135.00
11.8594 2095.00
11.9246 2033.00
11.9898 1965.00
12.055 1993.00
12.1202 2098.00
12.1854 2102.00
12.2506 2029.00
12.3158 1917.00
12.381 1954.00
12.4462 1912.00
12.5114 1961.00
12.5766 1912.00
12.6418 1885.00
12.707 1905.00
12.7722 1850.00
12.8374 1885.00
12.9026 1831.00
12.9678 1800.00
13.033 1769.00
13.0982 1810.00
13.1634 1801.00
13.2286 1765.00
13.2938 1728.00
13.359 1739.00
13.4242 1711.00
13.4894 1705.00
13.5546 1678.00
13.6198 1697.00
13.685 1594.00
13.7502 1585.00
13.8154 1623.00
13.8805 1591.00
13.9457 1643.00
14.0109 1556.00
14.0761 1623.00
14.1413 1550.00
14.2065 1622.00
14.2717 1552.00
14.3369 1613.00
14.4021 1565.00
14.4673 1568.00
14.5325 1581.00
14.5977 1493.00
14.6629 1519.00
14.7281 1480.00
14.7933 1529.00
14.8585 1534.00
14.9237 1554.00
14.9889 1493.00
15.0541 1435.00
15.1193 1493.00
15.1845 1456.00
15.2497 1547.00
15.3149 1424.00
15.3801 1510.00
15.4453 1436.00
15.5105 1517.00
15.5757 1382.00
15.6409 1442.00
15.7061 1420.00
15.7713 1348.00
15.8365 1389.00
15.9017 1411.00
15.9669 1367.00
16.0321 1375.00
16.0973 1378.00
16.1625 1389.00
16.2277 1468.00
16.2929 1400.00
16.3581 1462.00
16.4233 1398.00
16.4885 1469.00
16.5537 1426.00
16.6189 1405.00
16.6841 1424.00
16.7493 1436.00
16.8145 1419.00
16.8797 1318.00
16.9449 1472.00
17.0101 1444.00
17.0753 1488.00
17.1405 1497.00
17.2057 1435.00
17.2709 1402.00
17.3361 1288.00
17.4013 1364.00
17.4665 1392.00
17.5317 1386.00
17.5969 1265.00
17.6621 1295.00
17.7273 1298.00
17.7925 1283.00
17.8577 1271.00
17.9229 1351.00
17.9881 1299.00
18.0533 1314.00
18.1185 1305.00
18.1837 1295.00
18.2489 1286.00
18.3141 1354.00
18.3793 1334.00
18.4445 1346.00
18.5097 1274.00
18.5749 1300.00
18.6401 1405.00
18.7052 1428.00
18.7704 1415.00
18.8356 1472.00
18.9008 1417.00
18.966 1403.00
19.0312 1373.00
19.0964 1330.00
19.1616 1298.00
19.2268 1253.00
19.292 1284.00
19.3572 1281.00
19.4224 1284.00
19.4876 1222.00
19.5528 1346.00
19.618 1247.00
19.6832 1262.00
19.7484 1293.00
19.8136 1299.00
19.8788 1358.00
19.944 1355.00
20.0092 1294.00
20.0744 1454.00
20.1396 1560.00
20.2048 1540.00
20.27 1651.00
20.3352 1607.00
20.4004 1646.00
20.4656 1565.00
20.5308 1693.00
20.596 1912.00
20.6612 2239.00
20.7264 2501.00
20.7916 2827.00
20.8568 3643.00
20.922 5238.00
20.9872 6671.00
21.0524 7073.00
21.1176 5155.00
21.1828 3179.00
21.248 2194.00
21.3132 1708.00
21.3784 1496.00
21.4436 1429.00
21.5088 1353.00
21.574 1294.00
21.6392 1324.00
21.7044 1304.00
21.7696 1346.00
21.8348 1318.00
21.9 1299.00
21.9652 1295.00
22.0304 1293.00
22.0956 1270.00
22.1608 1251.00
22.226 1253.00
22.2912 1276.00
22.3564 1246.00
22.4216 1235.00
22.4868 1230.00
22.552 1285.00
22.6172 1232.00
22.6824 1291.00
22.7476 1271.00
22.8128 1272.00
22.878 1324.00
22.9432 1345.00
23.0084 1421.00
23.0736 1377.00
23.1388 1508.00
23.204 1608.00
23.2692 1694.00
23.3344 1765.00
23.3996 1769.00
23.4647 1769.00
23.5299 1654.00
23.5951 1485.00
23.6603 1256.00
23.7255 1246.00
23.7907 1205.00
23.8559 1194.00
23.9211 1318.00
23.9863 1300.00
24.0515 1483.00
24.1167 1576.00
24.1819 1637.00
24.2471 1653.00
24.3123 1737.00
24.3775 1535.00
24.4427 1354.00
24.5079 1274.00
24.5731 1211.00
24.6383 1177.00
24.7035 1146.00
24.7687 1187.00
24.8339 1158.00
24.8991 1201.00
24.9643 1216.00
25.0295 1308.00
25.0947 1353.00
25.1599 1289.00
25.2251 1290.00
25.2903 1196.00
25.3555 1225.00
25.4207 1176.00
25.4859 1211.00
25.5511 1231.00
25.6163 1195.00
25.6815 1133.00
25.7467 1189.00
25.8119 1116.00
25.8771 1091.00
25.9423 1161.00
26.0075 1123.00
26.0727 1143.00
26.1379 1177.00
26.2031 1224.00
26.2683 1175.00
26.3335 1209.00
26.3987 1241.00
26.4639 1231.00
26.5291 1171.00
26.5943 1203.00
26.6595 1153.00
26.7247 1095.00
26.7899 1092.00
26.8551 1121.00
26.9203 1224.00
26.9855 1226.00
27.0507 1208.00
27.1159 1299.00
27.1811 1389.00
27.2463 1202.00
27.3115 1177.00
27.3767 1093.00
27.4419 1140.00
27.5071 1074.00
27.5723 1087.00
27.6375 1022.00
27.7027 1017.00
27.7679 1007.00
27.8331 1065.00
27.8983 1120.00
27.9635 1080.00
28.0287 1104.00
28.0939 1042.00
28.1591 1061.00
28.2243 1002.00
28.2894 1074.00
28.3546 1109.00
28.4198 1053.00
28.485 1012.00
28.5502 1049.00
28.6154 1087.00
28.6806 1062.00
28.7458 1030.00
28.811 1047.00
28.8762 1060.00
28.9414 1053.00
29.0066 993.00
29.0718 1061.00
29.137 1022.00
29.2022 1039.00
29.2674 1103.00
29.3326 1149.00
29.3978 1248.00
29.463 1326.00
29.5282 1351.00
29.5934 1402.00
29.6586 1391.00
29.7238 1331.00
29.789 1240.00
29.8542 1202.00
29.9194 1096.00
29.9846 1059.00
30.0498 1080.00
30.115 1066.00
30.1802 1087.00
30.2454 1040.00
30.3106 1037.00
30.3758 1010.00
30.441 1078.00
30.5062 1104.00
30.5714 1060.00
30.6366 1014.00
30.7018 999.00
30.767 1045.00
30.8322 1063.00
30.8974 1074.00
30.9626 1054.00
31.0278 1071.00
31.093 1040.00
31.1582 1070.00
31.2234 1028.00
31.2886 1081.00
31.3538 1051.00
31.419 1080.00
31.4842 1080.00
31.5494 1056.00
31.6146 1095.00
31.6798 979.00
31.745 1000.00
31.8102 1045.00
31.8754 977.00
31.9406 1020.00
32.0058 965.00
32.071 1010.00
32.1362 981.00
32.2014 1050.00
32.2666 1069.00
32.3318 1050.00
32.397 1190.00
32.4622 1190.00
32.5274 1225.00
32.5926 1226.00
32.6578 1267.00
32.723 1177.00
32.7882 1146.00
32.8534 1109.00
32.9186 1059.00
32.9838 1139.00
33.0489 1095.00
33.1141 1129.00
33.1793 1145.00
33.2445 1189.00
33.3097 1242.00
33.3749 1192.00
33.4401 1147.00
33.5053 1225.00
33.5705 1180.00
33.6357 1216.00
33.7009 1195.00
33.7661 1264.00
33.8313 1276.00
33.8965 1402.00
33.9617 1663.00
34.0269 2134.00
34.0921 3010.00
34.1573 4401.00
34.2225 6696.00
34.2877 9534.00
34.3529 12393.00
34.4181 15488.00
34.4833 17099.00
34.5485 17489.00
34.6137 11645.00
34.6789 6409.00
34.7441 3685.00
34.8093 2955.00
34.8745 2563.00
34.9397 2077.00
35.0049 1703.00
35.0701 1531.00
35.1353 1346.00
35.2005 1322.00
35.2657 1284.00
35.3309 1147.00
35.3961 1176.00
35.4613 1203.00
35.5265 1195.00
35.5917 1160.00
35.6569 1174.00
35.7221 1209.00
35.7873 1381.00
35.8525 1504.00
35.9177 1702.00
35.9829 2002.00
36.0481 2409.00
36.1133 2805.00
36.1785 2867.00
36.2437 2207.00
36.3089 1805.00
36.3741 1457.00
36.4393 1371.00
36.5045 1323.00
36.5697 1274.00
36.6349 1270.00
36.7001 1211.00
36.7653 1211.00
36.8305 1109.00
36.8957 1181.00
36.9609 1166.00
37.0261 1219.00
37.0913 1176.00
37.1565 1267.00
37.2217 1251.00
37.2869 1163.00
37.3521 1117.00
37.4173 970.00
37.4825 1068.00
37.5477 1052.00
37.6129 1048.00
37.6781 1032.00
37.7433 996.00
37.8085 1046.00
37.8736 959.00
37.9388 993.00
38.004 1013.00
38.0692 1047.00
38.1344 1082.00
38.1996 1034.00
38.2648 1099.00
38.33 1127.00
38.3952 1152.00
38.4604 1179.00
38.5256 1152.00
38.5908 1112.00
38.656 1177.00
38.7212 1085.00
38.7864 1007.00
38.8516 1018.00
38.9168 1010.00
38.982 978.00
39.0472 929.00
39.1124 967.00
39.1776 942.00
39.2428 928.00
39.308 978.00
39.3732 960.00
39.4384 932.00
39.5036 986.00
39.5688 989.00
39.634 912.00
39.6992 936.00
39.7644 957.00
39.8296 902.00
39.8948 950.00
39.96 920.00
40.0252 933.00
40.0904 947.00
40.1556 996.00
40.2208 1010.00
40.286 1063.00
40.3512 943.00
40.4164 1006.00
40.4816 1061.00
40.5468 1055.00
40.612 1045.00
40.6772 1074.00
40.7424 1108.00
40.8076 1055.00
40.8728 1038.00
40.938 983.00
41.0032 983.00
41.0684 877.00
41.1336 964.00
41.1988 948.00
41.264 980.00
41.3292 886.00
41.3944 909.00
41.4596 906.00
41.5248 936.00
41.59 921.00
41.6552 1003.00
41.7204 976.00
41.7856 1037.00
41.8508 903.00
41.916 986.00
41.9812 957.00
42.0464 1038.00
42.1116 978.00
42.1768 1189.00
42.242 1222.00
42.3072 1339.00
42.3724 1391.00
42.4376 1588.00
42.5028 1818.00
42.568 2030.00
42.6332 1830.00
42.6983 1661.00
42.7635 1391.00
42.8287 1219.00
42.8939 1140.00
42.9591 1081.00
43.0243 1026.00
43.0895 951.00
43.1547 978.00
43.2199 883.00
43.2851 911.00
43.3503 923.00
43.4155 914.00
43.4807 928.00
43.5459 893.00
43.6111 909.00
43.6763 889.00
43.7415 943.00
43.8067 943.00
43.8719 902.00
43.9371 917.00
44.0023 882.00
44.0675 829.00
44.1327 901.00
44.1979 912.00
44.2631 847.00
44.3283 868.00
44.3935 870.00
44.4587 904.00
44.5239 864.00
44.5891 893.00
44.6543 842.00
44.7195 890.00
44.7847 902.00
44.8499 812.00
44.9151 825.00
44.9803 772.00
45.0455 851.00
45.1107 778.00
45.1759 835.00
45.2411 886.00
45.3063 749.00
45.3715 806.00
45.4367 807.00
45.5019 818.00
45.5671 850.00
45.6323 818.00
45.6975 818.00
45.7627 772.00
45.8279 795.00
45.8931 814.00
45.9583 769.00
46.0235 857.00
46.0887 766.00
46.1539 777.00
46.2191 823.00
46.2843 770.00
46.3495 766.00
46.4147 791.00
46.4799 808.00
46.5451 794.00
46.6103 789.00
46.6755 828.00
46.7407 790.00
46.8059 862.00
46.8711 795.00
46.9363 821.00
47.0015 816.00
47.0667 794.00
47.1319 839.00
47.1971 835.00
47.2623 850.00
47.3275 891.00
47.3927 948.00
47.4579 889.00
47.523 869.00
47.5882 810.00
47.6534 854.00
47.7186 855.00
47.7838 867.00
47.849 916.00
47.9142 801.00
47.9794 940.00
48.0446 954.00
48.1098 915.00
48.175 883.00
48.2402 928.00
48.3054 873.00
48.3706 911.00
48.4358 830.00
48.501 877.00
48.5662 777.00
48.6314 827.00
48.6966 832.00
48.7618 869.00
48.827 889.00
48.8922 892.00
48.9574 965.00
49.0226 1118.00
49.0878 1255.00
49.153 1574.00
49.2182 1886.00
49.2834 2267.00
49.3486 2803.00
49.4138 3356.00
49.479 3674.00
49.5442 3578.00
49.6094 3056.00
49.6746 2519.00
49.7398 1909.00
49.805 1541.00
49.8702 1280.00
49.9354 1125.00
50.0006 1051.00
50.0658 1067.00
50.131 916.00
50.1962 867.00
50.2614 890.00
50.3266 855.00
50.3918 837.00
50.457 811.00
50.5222 871.00
50.5874 833.00
50.6526 815.00
50.7178 864.00
50.783 824.00
50.8482 925.00
50.9134 834.00
50.9786 927.00
51.0438 816.00
51.109 926.00
51.1742 911.00
51.2394 867.00
51.3046 846.00
51.3698 835.00
51.435 874.00
51.5002 817.00
51.5654 869.00
51.6306 824.00
51.6958 805.00
51.761 797.00
51.8262 860.00
51.8914 859.00
51.9566 862.00
52.0218 878.00
52.087 893.00
52.1522 881.00
52.2174 948.00
52.2826 941.00
52.3477 976.00
52.4129 927.00
52.4781 987.00
52.5433 979.00
52.6085 976.00
52.6737 963.00
52.7389 990.00
52.8041 886.00
52.8693 956.00
52.9345 928.00
52.9997 911.00
53.0649 875.00
53.1301 890.00
53.1953 895.00
53.2605 858.00
53.3257 852.00
53.3909 876.00
53.4561 880.00
53.5213 851.00
53.5865 890.00
53.6517 906.00
53.7169 923.00
53.7821 932.00
53.8473 989.00
53.9125 1020.00
53.9777 1099.00
54.0429 1020.00
54.1081 1030.00
54.1733 1061.00
54.2385 1097.00
54.3037 1111.00
54.3689 1127.00
54.4341 1072.00
54.4993 988.00
54.5645 979.00
54.6297 947.00
54.6949 882.00
54.7601 961.00
54.8253 852.00
54.8905 926.00
54.9557 885.00
55.0209 936.00
55.0861 859.00
55.1513 856.00
55.2165 868.00
55.2817 889.00
55.3469 958.00
55.4121 970.00
55.4773 916.00
55.5425 1023.00
55.6077 1086.00
55.6729 1179.00
55.7381 1171.00
55.8033 1243.00
55.8685 1186.00
55.9337 1152.00
55.9989 1037.00
56.0641 991.00
56.1293 1037.00
56.1945 976.00
56.2597 916.00
56.3249 910.00
56.3901 959.00
56.4553 891.00
56.5205 955.00
56.5857 914.00
56.6509 906.00
56.7161 915.00
56.7813 921.00
56.8465 945.00
56.9117 929.00
56.9769 962.00
57.042 939.00
57.1073 991.00
57.1724 906.00
57.2376 905.00
57.3028 875.00
57.368 847.00
57.4332 816.00
57.4984 802.00
57.5636 865.00
57.6288 831.00
57.694 828.00
57.7592 814.00
57.8244 868.00
57.8896 806.00
57.9548 789.00
58.02 805.00
58.0852 832.00
58.1504 756.00
58.2156 804.00
58.2808 836.00
58.346 817.00
58.4112 771.00
58.4764 791.00
58.5416 803.00
58.6068 855.00
58.672 803.00
58.7372 826.00
58.8024 837.00
58.8676 847.00
58.9328 835.00
58.998 791.00
59.0632 801.00
59.1284 773.00
59.1936 843.00
59.2588 804.00
59.324 866.00
59.3892 816.00
59.4544 809.00
59.5196 806.00
59.5848 911.00
59.65 895.00
59.7152 905.00
59.7804 901.00
59.8456 904.00
59.9108 905.00
59.976 934.00
60.0412 907.00
60.1064 891.00
60.1716 889.00
60.2368 965.00
60.302 860.00
60.3672 843.00
60.4324 878.00
60.4976 825.00
60.5628 896.00
60.628 915.00
60.6932 877.00
60.7584 919.00
60.8236 952.00
60.8888 1019.00
60.954 1129.00
61.0192 1197.00
61.0844 1323.00
61.1496 1585.00
61.2148 1793.00
61.28 1987.00
61.3452 2475.00
61.4104 2892.00
61.4756 3375.00
61.5408 4384.00
61.606 4896.00
61.6712 4603.00
61.7364 3980.00
61.8016 3320.00
61.8667 2603.00
61.932 1943.00
61.9971 1692.00
62.0623 1491.00
62.1275 1305.00
62.1927 1226.00
62.2579 1280.00
62.3231 1246.00
62.3883 1121.00
62.4535 1056.00
62.5187 1067.00
62.5839 1029.00
62.6491 914.00
62.7143 833.00
62.7795 930.00
62.8447 885.00
62.9099 895.00
62.9751 909.00
63.0403 960.00
63.1055 917.00
63.1707 872.00
63.2359 915.00
63.3011 930.00
63.3663 853.00
63.4315 851.00
63.4967 867.00
63.5619 861.00
63.6271 896.00
63.6923 871.00
63.7575 810.00
63.8227 811.00
63.8879 841.00
63.9531 816.00
64.0183 807.00
64.0835 843.00
64.1487 858.00
64.2139 858.00
64.2791 882.00
64.3443 908.00
64.4095 837.00
64.4747 872.00
64.5399 936.00
64.6051 902.00
64.6703 937.00
64.7355 838.00
64.8007 912.00
64.8659 871.00
64.9311 898.00
64.9963 882.00
65.0615 900.00
65.1267 901.00
65.1919 972.00
65.2571 917.00
65.3223 916.00
65.3875 995.00
65.4527 992.00
65.5179 1010.00
65.5831 1065.00
65.6483 1175.00
65.7135 1189.00
65.7787 1233.00
65.8439 1267.00
65.9091 1194.00
65.9743 1188.00
66.0395 1121.00
66.1047 1018.00
66.1699 993.00
66.2351 881.00
66.3003 896.00
66.3655 887.00
66.4307 954.00
66.4959 872.00
66.561 839.00
66.6263 810.00
66.6915 899.00
66.7566 840.00
66.8218 828.00
66.887 846.00
66.9522 762.00
67.0174 800.00
67.0826 785.00
67.1478 791.00
67.213 806.00
67.2782 813.00
67.3434 769.00
67.4086 753.00
67.4738 761.00
67.539 771.00
67.6042 846.00
67.6694 871.00
67.7346 814.00
67.7998 805.00
67.865 826.00
67.9302 837.00
67.9954 835.00
68.0606 835.00
68.1258 859.00
68.191 814.00
68.2562 865.00
68.3214 809.00
68.3866 846.00
68.4518 850.00
68.517 873.00
68.5822 790.00
68.6474 758.00
68.7126 780.00
68.7778 810.00
68.843 812.00
68.9082 743.00
68.9734 743.00
69.0386 716.00
69.1038 729.00
69.169 745.00
69.2342 744.00
69.2994 703.00
69.3646 685.00
69.4298 706.00
69.495 739.00
69.5602 664.00
69.6254 688.00
69.6906 718.00
69.7558 721.00
69.821 756.00
69.8862 717.00
69.9514 714.00
70.0166 737.00
70.0818 692.00
70.147 738.00
70.2122 652.00
70.2774 652.00
70.3426 707.00
70.4078 686.00
70.473 662.00
70.5382 647.00
70.6034 696.00
70.6686 689.00
70.7338 653.00
70.799 685.00
70.8642 679.00
70.9294 660.00
70.9946 697.00
71.0598 660.00
71.125 708.00
71.1902 669.00
71.2554 657.00
71.3205 662.00
71.3858 628.00
71.451 646.00
71.5162 696.00
71.5813 678.00
71.6465 670.00
71.7117 694.00
71.7769 669.00
71.8421 711.00
71.9073 745.00
71.9725 771.00
72.0377 704.00
72.1029 832.00
72.1681 849.00
72.2333 966.00
72.2985 1055.00
72.3637 1215.00
72.4289 1272.00
72.4941 1358.00
72.5593 1285.00
72.6245 1176.00
72.6897 1150.00
72.7549 986.00
72.8201 858.00
72.8853 753.00
72.9505 750.00
73.0157 771.00
73.0809 696.00
73.1461 766.00
73.2113 678.00
73.2765 719.00
73.3417 714.00
73.4069 697.00
73.4721 662.00
73.5373 715.00
73.6025 646.00
73.6677 653.00
73.7329 714.00
73.7981 654.00
73.8633 681.00
73.9285 678.00
73.9937 609.00
74.0589 640.00
74.1241 676.00
74.1893 695.00
74.2545 651.00
74.3197 708.00
74.3849 696.00
74.4501 657.00
74.5153 647.00
74.5805 626.00
74.6457 630.00
74.7109 607.00
74.7761 607.00
74.8413 575.00
74.9065 696.00
74.9717 595.00
75.0369 656.00
75.1021 663.00
75.1673 630.00
75.2325 641.00
75.2977 637.00
75.3629 659.00
75.4281 637.00
75.4933 689.00
75.5585 663.00
75.6237 684.00
75.6889 720.00
75.7541 674.00
75.8193 717.00
75.8845 663.00
75.9497 706.00
76.0149 658.00
76.0801 701.00
76.1452 675.00
76.2104 744.00
76.2756 755.00
76.3409 748.00
76.406 720.00
76.4712 751.00
76.5364 722.00
76.6016 726.00
76.6668 745.00
76.732 689.00
76.7972 638.00
76.8624 703.00
76.9276 641.00
76.9928 703.00
77.058 659.00
77.1232 648.00
77.1884 694.00
77.2536 676.00
77.3188 705.00
77.384 696.00
77.4492 644.00
77.5144 698.00
77.5796 633.00
77.6448 641.00
77.71 633.00
77.7752 651.00
77.8404 670.00
77.9056 609.00
77.9708 625.00
78.036 660.00
78.1012 642.00
78.1664 684.00
78.2316 639.00
78.2968 642.00
78.362 645.00
78.4272 602.00
78.4924 644.00
78.5576 602.00
78.6228 615.00
78.688 634.00
78.7532 590.00
78.8184 616.00
78.8836 625.00
78.9488 606.00
79.014 622.00
79.0792 597.00
79.1444 686.00
79.2096 588.00
79.2748 663.00
79.34 598.00
79.4052 570.00
79.4704 599.00
79.5356 566.00
79.6008 631.00
79.666 619.00
79.7312 625.00
79.7964 658.00
79.8616 634.00
79.9268 594.00
79.992 588.00
80.0572 631.00
80.1224 589.00
80.1876 635.00
80.2528 638.00
80.318 586.00
80.3832 612.00
80.4484 660.00
80.5136 610.00
80.5788 622.00
80.644 599.00
80.7092 630.00
80.7744 612.00
80.8396 631.00
80.9048 651.00
80.9699 625.00
81.0351 621.00
81.1003 598.00
81.1655 644.00
81.2307 632.00
81.2959 634.00
81.3611 622.00
81.4263 696.00
81.4915 616.00
81.5567 632.00
81.6219 626.00
81.6871 685.00
81.7523 645.00
81.8175 647.00
81.8827 669.00
81.9479 705.00
82.0131 760.00
82.0783 795.00
82.1435 842.00
82.2087 863.00
82.2739 948.00
82.3391 966.00
82.4043 1103.00
82.4695 1265.00
82.5347 1333.00
82.5999 1562.00
82.6651 1736.00
82.7303 1836.00
82.7955 1857.00
82.8607 1535.00
82.9259 1381.00
82.9911 1390.00
83.0563 1256.00
83.1215 1018.00
83.1867 925.00
83.2519 789.00
83.3171 730.00
83.3823 780.00
83.4475 721.00
83.5127 772.00
83.5779 756.00
83.6431 659.00
83.7083 714.00
83.7735 705.00
83.8387 669.00
83.9039 676.00
83.9691 603.00
84.0343 636.00
84.0995 681.00
84.1647 602.00
84.2299 582.00
84.2951 622.00
84.3603 622.00
84.4255 602.00
84.4907 643.00
84.5559 595.00
84.6211 669.00
84.6863 588.00
84.7515 580.00
84.8167 530.00
84.8819 580.00
84.9471 602.00
85.0123 620.00
85.0775 601.00
85.1427 530.00
85.2079 548.00
85.2731 570.00
85.3383 564.00
85.4035 614.00
85.4687 538.00
85.5339 578.00
85.5991 523.00
85.6643 619.00
85.7295 592.00
85.7946 623.00
85.8598 549.00
85.925 607.00
85.9903 590.00
86.0554 545.00
86.1206 561.00
86.1858 556.00
86.251 562.00
86.3162 597.00
86.3814 659.00
86.4466 611.00
86.5118 656.00
86.577 606.00
86.6422 566.00
86.7074 595.00
86.7726 549.00
86.8378 547.00
86.903 580.00
86.9682 588.00
87.0334 604.00
87.0986 610.00
87.1638 596.00
87.229 588.00
87.2942 569.00
87.3594 561.00
87.4246 597.00
87.4898 617.00
87.555 586.00
87.6202 555.00
87.6854 583.00
87.7506 580.00
87.8158 571.00
87.881 586.00
87.9462 586.00
88.0114 552.00
88.0766 592.00
88.1418 572.00
88.207 603.00
88.2722 598.00
88.3374 596.00
88.4026 540.00
88.4678 572.00
88.533 570.00
88.5982 575.00
88.6634 582.00
88.7286 577.00
88.7938 608.00
88.859 599.00
88.9242 630.00
88.9894 623.00
89.0546 573.00
89.1198 604.00
89.185 557.00
89.2502 639.00
89.3154 545.00
89.3806 521.00
89.4458 524.00
89.511 603.00
89.5762 548.00
89.6414 460.00
89.7066 521.00
89.7718 552.00
89.837 554.00
89.9022 560.00
89.9674 519.00
90.0326 539.00
90.0978 539.00
90.163 542.00
90.2282 581.00
90.2934 510.00
90.3586 573.00
90.4238 585.00
90.489 533.00
90.5542 545.00
90.6193 583.00
90.6845 534.00
90.7497 558.00
90.8149 544.00
90.8801 537.00
90.9453 539.00
91.0105 552.00
91.0757 580.00
91.1409 539.00
91.2061 570.00
91.2713 507.00
91.3365 614.00
91.4017 476.00
91.4669 538.00
91.5321 569.00
91.5973 585.00
91.6625 550.00
91.7277 557.00
91.7929 538.00
91.8581 566.00
91.9233 530.00
91.9885 574.00
92.0537 584.00
92.1189 638.00
92.1841 639.00
92.2493 577.00
92.3145 612.00
92.3797 615.00
92.4449 645.00
92.5101 677.00
92.5753 735.00
92.6405 746.00
92.7057 905.00
92.7709 818.00
92.8361 759.00
92.9013 749.00
92.9665 753.00
93.0317 699.00
93.0969 667.00
93.1621 637.00
93.2273 638.00
93.2925 618.00
93.3577 617.00
93.4229 571.00
93.4881 550.00
93.5533 546.00
93.6185 545.00
93.6837 555.00
93.7489 543.00
93.8141 597.00
93.8793 572.00
93.9445 529.00
94.0097 550.00
94.0749 506.00
94.1401 570.00
94.2053 569.00
94.2705 551.00
94.3357 534.00
94.4009 552.00
94.4661 564.00
94.5313 505.00
94.5965 518.00
94.6617 569.00
94.7269 549.00
94.7921 513.00
94.8573 578.00
94.9225 584.00
94.9877 542.00
95.0529 523.00
95.1181 536.00
95.1833 540.00
95.2485 559.00
95.3137 568.00
95.3789 514.00
95.444 549.00
95.5092 596.00
95.5744 564.00
95.6396 547.00
95.7048 557.00
95.77 526.00
95.8352 548.00
95.9004 546.00
95.9656 551.00
96.0308 574.00
96.096 583.00
96.1612 591.00
96.2264 577.00
96.2916 593.00
96.3568 566.00
96.422 564.00
96.4872 610.00
96.5524 606.00
96.6176 586.00
96.6828 583.00
96.748 581.00
96.8132 544.00
96.8784 523.00
96.9436 597.00
97.0088 569.00
97.074 585.00
97.1392 541.00
97.2044 534.00
97.2696 553.00
97.3348 548.00
97.4 545.00
97.4652 557.00
97.5304 512.00
97.5956 571.00
97.6608 556.00
97.726 532.00
97.7912 545.00
97.8564 571.00
97.9216 556.00
97.9868 576.00
98.052 594.00
98.1172 530.00
98.1824 585.00
98.2476 541.00
98.3128 527.00
98.378 544.00
98.4432 535.00
98.5084 539.00
98.5736 586.00
98.6388 555.00
98.704 544.00
98.7692 536.00
98.8344 601.00
98.8996 587.00
98.9648 596.00
99.03 567.00
99.0952 580.00
99.1604 553.00
99.2256 572.00
99.2908 553.00
99.356 596.00
99.4212 576.00
99.4864 570.00
99.5516 597.00
99.6168 579.00
99.682 578.00
99.7472 568.00
99.8124 575.00
99.8776 555.00
99.9428 581.00
100.008 599.00
100.073 596.00
100.095 611.00