File: data/xrd_creation/results/NSC_100.xy
9.903433 2715.00
9.968632 2689.00
10.0338 2600.00
10.099 2737.00
10.1642 2496.00
10.2294 2588.00
10.2946 2586.00
10.3598 2465.00
10.425 2534.00
10.4902 2514.00
10.5554 2535.00
10.6206 2549.00
10.6858 2374.00
10.751 2470.00
10.8162 2470.00
10.8814 2408.00
10.9466 2373.00
11.0118 2312.00
11.077 2397.00
11.1422 2345.00
11.2074 2316.00
11.2726 2264.00
11.3378 2270.00
11.403 2209.00
11.4682 2231.00
11.5334 2171.00
11.5986 2167.00
11.6638 2178.00
11.729 2001.00
11.7942 2153.00
11.8594 2202.00
11.9246 2051.00
11.9898 2114.00
12.055 2050.00
12.1202 2030.00
12.1854 2092.00
12.2506 2042.00
12.3158 2031.00
12.381 1961.00
12.4462 2077.00
12.5114 1968.00
12.5766 2000.00
12.6418 1940.00
12.707 1970.00
12.7722 2032.00
12.8374 1968.00
12.9026 2000.00
12.9678 1849.00
13.033 1948.00
13.0982 1880.00
13.1634 1836.00
13.2286 1957.00
13.2938 1746.00
13.359 1896.00
13.4242 1845.00
13.4894 1869.00
13.5546 1765.00
13.6198 1868.00
13.685 1739.00
13.7502 1799.00
13.8154 1788.00
13.8805 1810.00
13.9457 1794.00
14.0109 1796.00
14.0761 1809.00
14.1413 1792.00
14.2065 1962.00
14.2717 1943.00
14.3369 1988.00
14.4021 2135.00
14.4673 2279.00
14.5325 2622.00
14.5977 3174.00
14.6629 3918.00
14.7281 2768.00
14.7933 1971.00
14.8585 1703.00
14.9237 1741.00
14.9889 1779.00
15.0541 1701.00
15.1193 1662.00
15.1845 1643.00
15.2497 1637.00
15.3149 1662.00
15.3801 1655.00
15.4453 1663.00
15.5105 1728.00
15.5757 1616.00
15.6409 1669.00
15.7061 1623.00
15.7713 1648.00
15.8365 1667.00
15.9017 1684.00
15.9669 1574.00
16.0321 1575.00
16.0973 1608.00
16.1625 1588.00
16.2277 1612.00
16.2929 1628.00
16.3581 1588.00
16.4233 1583.00
16.4885 1563.00
16.5537 1565.00
16.6189 1627.00
16.6841 1584.00
16.7493 1596.00
16.8145 1634.00
16.8797 1587.00
16.9449 1590.00
17.0101 1616.00
17.0753 1613.00
17.1405 1623.00
17.2057 1671.00
17.2709 1782.00
17.3361 1738.00
17.4013 1660.00
17.4665 1523.00
17.5317 1447.00
17.5969 1550.00
17.6621 1547.00
17.7273 1520.00
17.7925 1593.00
17.8577 1616.00
17.9229 1644.00
17.9881 1540.00
18.0533 1437.00
18.1185 1484.00
18.1837 1413.00
18.2489 1458.00
18.3141 1434.00
18.3793 1417.00
18.4445 1368.00
18.5097 1407.00
18.5749 1368.00
18.6401 1387.00
18.7052 1405.00
18.7704 1376.00
18.8356 1376.00
18.9008 1381.00
18.966 1373.00
19.0312 1400.00
19.0964 1355.00
19.1616 1477.00
19.2268 1507.00
19.292 1519.00
19.3572 1503.00
19.4224 1570.00
19.4876 1884.00
19.5528 2273.00
19.618 2637.00
19.6832 2397.00
19.7484 2068.00
19.8136 2203.00
19.8788 2454.00
19.944 3138.00
20.0092 4540.00
20.0744 7257.00
20.1396 10688.00
20.2048 6683.00
20.27 2412.00
20.3352 1717.00
20.4004 1626.00
20.4656 1603.00
20.5308 1605.00
20.596 1529.00
20.6612 1576.00
20.7264 1710.00
20.7916 1897.00
20.8568 2200.00
20.922 2713.00
20.9872 3698.00
21.0524 5946.00
21.1176 9533.00
21.1828 12389.00
21.248 6474.00
21.3132 2273.00
21.3784 1746.00
21.4436 1574.00
21.5088 1463.00
21.574 1406.00
21.6392 1293.00
21.7044 1377.00
21.7696 1308.00
21.8348 1330.00
21.9 1285.00
21.9652 1363.00
22.0304 1380.00
22.0956 1277.00
22.1608 1388.00
22.226 1336.00
22.2912 1391.00
22.3564 1409.00
22.4216 1546.00
22.4868 1891.00
22.552 2376.00
22.6172 3241.00
22.6824 3186.00
22.7476 2123.00
22.8128 1364.00
22.878 1279.00
22.9432 1289.00
23.0084 1358.00
23.0736 1326.00
23.1388 1276.00
23.204 1318.00
23.2692 1220.00
23.3344 1189.00
23.3996 1255.00
23.4647 1197.00
23.5299 1223.00
23.5951 1231.00
23.6603 1293.00
23.7255 1266.00
23.7907 1284.00
23.8559 1351.00
23.9211 1512.00
23.9863 1555.00
24.0515 1702.00
24.1167 1958.00
24.1819 2845.00
24.2471 4804.00
24.3123 7503.00
24.3775 6184.00
24.4427 2601.00
24.5079 1392.00
24.5731 1305.00
24.6383 1238.00
24.7035 1139.00
24.7687 1125.00
24.8339 1099.00
24.8991 1114.00
24.9643 1116.00
25.0295 1106.00
25.0947 1157.00
25.1599 1132.00
25.2251 1350.00
25.2903 1484.00
25.3555 1493.00
25.4207 1283.00
25.4859 1129.00
25.5511 1081.00
25.6163 1039.00
25.6815 1081.00
25.7467 1035.00
25.8119 1027.00
25.8771 1112.00
25.9423 1131.00
26.0075 1047.00
26.0727 1049.00
26.1379 1035.00
26.2031 1011.00
26.2683 989.00
26.3335 1012.00
26.3987 1025.00
26.4639 1002.00
26.5291 1025.00
26.5943 1007.00
26.6595 1073.00
26.7247 1096.00
26.7899 1133.00
26.8551 1108.00
26.9203 1061.00
26.9855 1045.00
27.0507 992.00
27.1159 908.00
27.1811 979.00
27.2463 942.00
27.3115 982.00
27.3767 921.00
27.4419 958.00
27.5071 894.00
27.5723 1044.00
27.6375 1116.00
27.7027 1337.00
27.7679 1385.00
27.8331 1263.00
27.8983 1067.00
27.9635 972.00
28.0287 901.00
28.0939 934.00
28.1591 950.00
28.2243 963.00
28.2894 937.00
28.3546 1041.00
28.4198 939.00
28.485 984.00
28.5502 950.00
28.6154 946.00
28.6806 988.00
28.7458 1059.00
28.811 1087.00
28.8762 1166.00
28.9414 1187.00
29.0066 1433.00
29.0718 1943.00
29.137 3664.00
29.2022 6666.00
29.2674 7629.00
29.3326 4245.00
29.3978 1596.00
29.463 1202.00
29.5282 1126.00
29.5934 1119.00
29.6586 1015.00
29.7238 1026.00
29.789 997.00
29.8542 974.00
29.9194 1026.00
29.9846 1060.00
30.0498 1115.00
30.115 1092.00
30.1802 951.00
30.2454 932.00
30.3106 849.00
30.3758 836.00
30.441 907.00
30.5062 844.00
30.5714 866.00
30.6366 948.00
30.7018 905.00
30.767 946.00
30.8322 955.00
30.8974 947.00
30.9626 984.00
31.0278 968.00
31.093 999.00
31.1582 964.00
31.2234 921.00
31.2886 832.00
31.3538 858.00
31.419 865.00
31.4842 926.00
31.5494 967.00
31.6146 1016.00
31.6798 1058.00
31.745 1182.00
31.8102 1404.00
31.8754 2204.00
31.9406 3830.00
32.0058 8203.00
32.071 13109.00
32.1362 9383.00
32.2014 4523.00
32.2666 1814.00
32.3318 1286.00
32.397 1146.00
32.4622 1061.00
32.5274 1191.00
32.5926 1441.00
32.6578 1773.00
32.723 1505.00
32.7882 1099.00
32.8534 847.00
32.9186 821.00
32.9838 815.00
33.0489 808.00
33.1141 800.00
33.1793 800.00
33.2445 790.00
33.3097 795.00
33.3749 806.00
33.4401 781.00
33.5053 781.00
33.5705 757.00
33.6357 764.00
33.7009 745.00
33.7661 800.00
33.8313 805.00
33.8965 814.00
33.9617 881.00
34.0269 828.00
34.0921 914.00
34.1573 866.00
34.2225 916.00
34.2877 1050.00
34.3529 1274.00
34.4181 1270.00
34.4833 1002.00
34.5485 833.00
34.6137 741.00
34.6789 736.00
34.7441 741.00
34.8093 738.00
34.8745 690.00
34.9397 782.00
35.0049 692.00
35.0701 697.00
35.1353 707.00
35.2005 697.00
35.2657 729.00
35.3309 729.00
35.3961 707.00
35.4613 753.00
35.5265 679.00
35.5917 718.00
35.6569 782.00
35.7221 731.00
35.7873 813.00
35.8525 849.00
35.9177 988.00
35.9829 1010.00
36.0481 1109.00
36.1133 1628.00
36.1785 2886.00
36.2437 4341.00
36.3089 3179.00
36.3741 1911.00
36.4393 1165.00
36.5045 929.00
36.5697 972.00
36.6349 1185.00
36.7001 1742.00
36.7653 3178.00
36.8305 5382.00
36.8957 4656.00
36.9609 2993.00
37.0261 1495.00
37.0913 924.00
37.1565 796.00
37.2217 783.00
37.2869 788.00
37.3521 770.00
37.4173 739.00
37.4825 762.00
37.5477 789.00
37.6129 917.00
37.6781 1279.00
37.7433 1694.00
37.8085 1741.00
37.8736 1491.00
37.9388 1080.00
38.004 839.00
38.0692 702.00
38.1344 662.00
38.1996 669.00
38.2648 688.00
38.33 633.00
38.3952 617.00
38.4604 631.00
38.5256 604.00
38.5908 683.00
38.656 686.00
38.7212 778.00
38.7864 968.00
38.8516 956.00
38.9168 827.00
38.982 779.00
39.0472 684.00
39.1124 683.00
39.1776 685.00
39.2428 711.00
39.308 702.00
39.3732 757.00
39.4384 832.00
39.5036 888.00
39.5688 900.00
39.634 786.00
39.6992 651.00
39.7644 689.00
39.8296 609.00
39.8948 631.00
39.96 658.00
40.0252 672.00
40.0904 595.00
40.1556 630.00
40.2208 653.00
40.286 658.00
40.3512 659.00
40.4164 666.00
40.4816 895.00
40.5468 1301.00
40.612 1405.00
40.6772 1197.00
40.7424 856.00
40.8076 625.00
40.8728 624.00
40.938 580.00
41.0032 623.00
41.0684 647.00
41.1336 600.00
41.1988 614.00
41.264 629.00
41.3292 620.00
41.3944 612.00
41.4596 554.00
41.5248 588.00
41.59 561.00
41.6552 561.00
41.7204 614.00
41.7856 585.00
41.8508 557.00
41.916 665.00
41.9812 656.00
42.0464 840.00
42.1116 1210.00
42.1768 1555.00
42.242 1591.00
42.3072 1230.00
42.3724 852.00
42.4376 731.00
42.5028 725.00
42.568 749.00
42.6332 979.00
42.6983 1369.00
42.7635 1597.00
42.8287 1328.00
42.8939 1006.00
42.9591 733.00
43.0243 600.00
43.0895 635.00
43.1547 734.00
43.2199 801.00
43.2851 687.00
43.3503 646.00
43.4155 561.00
43.4807 541.00
43.5459 618.00
43.6111 610.00
43.6763 607.00
43.7415 613.00
43.8067 629.00
43.8719 560.00
43.9371 586.00
44.0023 574.00
44.0675 655.00
44.1327 708.00
44.1979 973.00
44.2631 1788.00
44.3283 2490.00
44.3935 1726.00
44.4587 1492.00
44.5239 921.00
44.5891 768.00
44.6543 701.00
44.7195 682.00
44.7847 654.00
44.8499 644.00
44.9151 527.00
44.9803 550.00
45.0455 616.00
45.1107 613.00
45.1759 629.00
45.2411 755.00
45.3063 884.00
45.3715 818.00
45.4367 776.00
45.5019 676.00
45.5671 601.00
45.6323 584.00
45.6975 610.00
45.7627 648.00
45.8279 684.00
45.8931 825.00
45.9583 1034.00
46.0235 1837.00
46.0887 2751.00
46.1539 1971.00
46.2191 1642.00
46.2843 961.00
46.3495 682.00
46.4147 657.00
46.4799 586.00
46.5451 592.00
46.6103 559.00
46.6755 522.00
46.7407 540.00
46.8059 516.00
46.8711 537.00
46.9363 509.00
47.0015 568.00
47.0667 582.00
47.1319 609.00
47.1971 601.00
47.2623 619.00
47.3275 733.00
47.3927 1004.00
47.4579 1631.00
47.523 3297.00
47.5882 3680.00
47.6534 2755.00
47.7186 1953.00
47.7838 1104.00
47.849 712.00
47.9142 623.00
47.9794 595.00
48.0446 607.00
48.1098 516.00
48.175 555.00
48.2402 536.00
48.3054 559.00
48.3706 503.00
48.4358 542.00
48.501 549.00
48.5662 537.00
48.6314 557.00
48.6966 627.00
48.7618 738.00
48.827 723.00
48.8922 681.00
48.9574 612.00
49.0226 605.00
49.0878 687.00
49.153 655.00
49.2182 837.00
49.2834 872.00
49.3486 1291.00
49.4138 2513.00
49.479 4045.00
49.5442 2983.00
49.6094 2410.00
49.6746 1518.00
49.7398 829.00
49.805 606.00
49.8702 673.00
49.9354 620.00
50.0006 602.00
50.0658 634.00
50.131 708.00
50.1962 811.00
50.2614 872.00
50.3266 992.00
50.3918 1110.00
50.457 1000.00
50.5222 823.00
50.5874 698.00
50.6526 602.00
50.7178 500.00
50.783 506.00
50.8482 480.00
50.9134 513.00
50.9786 509.00
51.0438 497.00
51.109 495.00
51.1742 480.00
51.2394 529.00
51.3046 526.00
51.3698 575.00
51.435 630.00
51.5002 670.00
51.5654 770.00
51.6306 949.00
51.6958 923.00
51.761 816.00
51.8262 688.00
51.8914 596.00
51.9566 640.00
52.0218 642.00
52.087 645.00
52.1522 609.00
52.2174 697.00
52.2826 784.00
52.3477 1147.00
52.4129 2482.00
52.4781 3779.00
52.5433 2964.00
52.6085 2410.00
52.6737 1721.00
52.7389 802.00
52.8041 626.00
52.8693 613.00
52.9345 574.00
52.9997 560.00
53.0649 567.00
53.1301 585.00
53.1953 581.00
53.2605 689.00
53.3257 790.00
53.3909 627.00
53.4561 624.00
53.5213 574.00
53.5865 467.00
53.6517 468.00
53.7169 474.00
53.7821 464.00
53.8473 462.00
53.9125 458.00
53.9777 453.00
54.0429 455.00
54.1081 488.00
54.1733 466.00
54.2385 437.00
54.3037 461.00
54.3689 487.00
54.4341 474.00
54.4993 459.00
54.5645 553.00
54.6297 597.00
54.6949 575.00
54.7601 527.00
54.8253 496.00
54.8905 558.00
54.9557 520.00
55.0209 540.00
55.0861 555.00
55.1513 562.00
55.2165 541.00
55.2817 493.00
55.3469 496.00
55.4121 494.00
55.4773 507.00
55.5425 499.00
55.6077 557.00
55.6729 721.00
55.7381 1064.00
55.8033 1468.00
55.8685 1175.00
55.9337 1138.00
55.9989 871.00
56.0641 586.00
56.1293 529.00
56.1945 474.00
56.2597 492.00
56.3249 457.00
56.3901 467.00
56.4553 523.00
56.5205 482.00
56.5857 520.00
56.6509 531.00
56.7161 568.00
56.7813 625.00
56.8465 779.00
56.9117 947.00
56.9769 1412.00
57.042 2152.00
57.1073 2259.00
57.1724 1884.00
57.2376 1578.00
57.3028 1314.00
57.368 1350.00
57.4332 2030.00
57.4984 2722.00
57.5636 2701.00
57.6288 2208.00
57.694 1751.00
57.7592 1190.00
57.8244 758.00
57.8896 566.00
57.9548 547.00
58.02 507.00
58.0852 489.00
58.1504 504.00
58.2156 498.00
58.2808 526.00
58.346 479.00
58.4112 516.00
58.4764 554.00
58.5416 556.00
58.6068 559.00
58.672 558.00
58.7372 520.00
58.8024 636.00
58.8676 831.00
58.9328 1039.00
58.998 1194.00
59.0632 1069.00
59.1284 879.00
59.1936 797.00
59.2588 655.00
59.324 510.00
59.3892 520.00
59.4544 440.00
59.5196 458.00
59.5848 424.00
59.65 454.00
59.7152 469.00
59.7804 420.00
59.8456 458.00
59.9108 470.00
59.976 479.00
60.0412 487.00
60.1064 543.00
60.1716 638.00
60.2368 811.00
60.302 727.00
60.3672 726.00
60.4324 641.00
60.4976 667.00
60.5628 622.00
60.628 712.00
60.6932 802.00
60.7584 798.00
60.8236 839.00
60.8888 762.00
60.954 710.00
61.0192 627.00
61.0844 611.00
61.1496 599.00
61.2148 591.00
61.28 636.00
61.3452 874.00
61.4104 1629.00
61.4756 2358.00
61.5408 1630.00
61.606 1452.00
61.6712 1266.00
61.7364 787.00
61.8016 609.00
61.8667 565.00
61.932 474.00
61.9971 477.00
62.0623 502.00
62.1275 500.00
62.1927 543.00
62.2579 531.00
62.3231 575.00
62.3883 582.00
62.4535 719.00
62.5187 707.00
62.5839 632.00
62.6491 657.00
62.7143 653.00
62.7795 584.00
62.8447 609.00
62.9099 750.00
62.9751 1193.00
63.0403 1963.00
63.1055 2431.00
63.1707 2150.00
63.2359 2328.00
63.3011 2071.00
63.3663 1598.00
63.4315 1209.00
63.4967 944.00
63.5619 775.00
63.6271 599.00
63.6923 576.00
63.7575 557.00
63.8227 420.00
63.8879 485.00
63.9531 477.00
64.0183 471.00
64.0835 470.00
64.1487 462.00
64.2139 515.00
64.2791 430.00
64.3443 504.00
64.4095 556.00
64.4747 687.00
64.5399 593.00
64.6051 633.00
64.6703 621.00
64.7355 549.00
64.8007 492.00
64.8659 457.00
64.9311 487.00
64.9963 449.00
65.0615 443.00
65.1267 455.00
65.1919 475.00
65.2571 463.00
65.3223 482.00
65.3875 492.00
65.4527 508.00
65.5179 659.00
65.5831 1007.00
65.6483 1401.00
65.7135 1451.00
65.7787 1077.00
65.8439 1125.00
65.9091 1031.00
65.9743 1015.00
66.0395 1173.00
66.1047 1145.00
66.1699 1144.00
66.2351 1061.00
66.3003 943.00
66.3655 697.00
66.4307 619.00
66.4959 541.00
66.561 488.00
66.6263 499.00
66.6915 533.00
66.7566 563.00
66.8218 554.00
66.887 521.00
66.9522 501.00
67.0174 471.00
67.0826 478.00
67.1478 485.00
67.213 539.00
67.2782 668.00
67.3434 973.00
67.4086 1290.00
67.4738 1356.00
67.539 1038.00
67.6042 963.00
67.6694 911.00
67.7346 649.00
67.7998 508.00
67.865 545.00
67.9302 544.00
67.9954 495.00
68.0606 535.00
68.1258 514.00
68.191 461.00
68.2562 506.00
68.3214 419.00
68.3866 405.00
68.4518 404.00
68.517 413.00
68.5822 384.00
68.6474 365.00
68.7126 377.00
68.7778 359.00
68.843 409.00
68.9082 365.00
68.9734 417.00
69.0386 453.00
69.1038 440.00
69.169 426.00
69.2342 423.00
69.2994 428.00
69.3646 471.00
69.4298 485.00
69.495 502.00
69.5602 603.00
69.6254 912.00
69.6906 1410.00
69.7558 1501.00
69.821 1150.00
69.8862 1063.00
69.9514 971.00
70.0166 777.00
70.0818 612.00
70.147 544.00
70.2122 508.00
70.2774 490.00
70.3426 471.00
70.4078 486.00
70.473 444.00
70.5382 397.00
70.6034 372.00
70.6686 438.00
70.7338 387.00
70.799 381.00
70.8642 403.00
70.9294 427.00
70.9946 451.00
71.0598 528.00
71.125 527.00
71.1902 646.00
71.2554 695.00
71.3205 662.00
71.3858 670.00
71.451 696.00
71.5162 646.00
71.5813 577.00
71.6465 569.00
71.7117 502.00
71.7769 471.00
71.8421 454.00
71.9073 456.00
71.9725 444.00
72.0377 467.00
72.1029 496.00
72.1681 438.00
72.2333 455.00
72.2985 411.00
72.3637 414.00
72.4289 410.00
72.4941 430.00
72.5593 405.00
72.6245 449.00
72.6897 448.00
72.7549 429.00
72.8201 385.00
72.8853 401.00
72.9505 411.00
73.0157 424.00
73.0809 398.00
73.1461 394.00
73.2113 411.00
73.2765 404.00
73.3417 424.00
73.4069 461.00
73.4721 507.00
73.5373 591.00
73.6025 851.00
73.6677 1062.00
73.7329 1063.00
73.7981 960.00
73.8633 845.00
73.9285 758.00
73.9937 619.00
74.0589 498.00
74.1241 433.00
74.1893 473.00
74.2545 446.00
74.3197 439.00
74.3849 411.00
74.4501 423.00
74.5153 403.00
74.5805 392.00
74.6457 376.00
74.7109 379.00
74.7761 397.00
74.8413 432.00
74.9065 475.00
74.9717 425.00
75.0369 451.00
75.1021 456.00
75.1673 475.00
75.2325 535.00
75.2977 780.00
75.3629 966.00
75.4281 860.00
75.4933 755.00
75.5585 716.00
75.6237 695.00
75.6889 580.00
75.7541 524.00
75.8193 535.00
75.8845 573.00
75.9497 586.00
76.0149 530.00
76.0801 527.00
76.1452 563.00
76.2104 577.00
76.2756 519.00
76.3409 568.00
76.406 570.00
76.4712 593.00
76.5364 495.00
76.6016 458.00
76.6668 501.00
76.732 420.00
76.7972 366.00
76.8624 354.00
76.9276 330.00
76.9928 390.00
77.058 373.00
77.1232 354.00
77.1884 391.00
77.2536 406.00
77.3188 353.00
77.384 390.00
77.4492 431.00
77.5144 449.00
77.5796 500.00
77.6448 462.00
77.71 493.00
77.7752 566.00
77.8404 687.00
77.9056 774.00
77.9708 752.00
78.036 747.00
78.1012 597.00
78.1664 663.00
78.2316 607.00
78.2968 536.00
78.362 496.00
78.4272 448.00
78.4924 417.00
78.5576 392.00
78.6228 353.00
78.688 396.00
78.7532 377.00
78.8184 374.00
78.8836 430.00
78.9488 404.00
79.014 429.00
79.0792 432.00
79.1444 509.00
79.2096 542.00
79.2748 519.00
79.34 520.00
79.4052 491.00
79.4704 517.00
79.5356 451.00
79.6008 434.00
79.666 473.00
79.7312 466.00
79.7964 471.00
79.8616 428.00
79.9268 437.00
79.992 461.00
80.0572 481.00
80.1224 461.00
80.1876 519.00
80.2528 511.00
80.318 460.00
80.3832 475.00
80.4484 479.00
80.5136 430.00
80.5788 427.00
80.644 400.00
80.7092 371.00
80.7744 381.00
80.8396 355.00
80.9048 360.00
80.9699 377.00
81.0351 400.00
81.1003 390.00
81.1655 400.00
81.2307 467.00
81.2959 626.00
81.3611 849.00
81.4263 838.00
81.4915 742.00
81.5567 682.00
81.6219 767.00
81.6871 830.00
81.7523 795.00
81.8175 756.00
81.8827 655.00
81.9479 562.00
82.0131 556.00
82.0783 504.00
82.1435 437.00
82.2087 403.00
82.2739 402.00
82.3391 371.00
82.4043 352.00
82.4695 393.00
82.5347 368.00
82.5999 401.00
82.6651 428.00
82.7303 425.00
82.7955 600.00
82.8607 656.00
82.9259 793.00
82.9911 1072.00
83.0563 1022.00
83.1215 741.00
83.1867 680.00
83.2519 747.00
83.3171 684.00
83.3823 480.00
83.4475 440.00
83.5127 405.00
83.5779 400.00
83.6431 372.00
83.7083 362.00
83.7735 328.00
83.8387 366.00
83.9039 381.00
83.9691 368.00
84.0343 340.00
84.0995 330.00
84.1647 319.00
84.2299 400.00
84.2951 327.00
84.3603 333.00
84.4255 369.00
84.4907 382.00
84.5559 344.00
84.6211 346.00
84.6863 329.00
84.7515 338.00
84.8167 349.00
84.8819 291.00
84.9471 351.00
85.0123 391.00
85.0775 446.00
85.1427 450.00
85.2079 496.00
85.2731 424.00
85.3383 458.00
85.4035 449.00
85.4687 462.00
85.5339 441.00
85.5991 384.00
85.6643 383.00
85.7295 381.00
85.7946 374.00
85.8598 373.00
85.925 357.00
85.9903 383.00
86.0554 417.00
86.1206 406.00
86.1858 378.00
86.251 355.00
86.3162 374.00
86.3814 459.00
86.4466 519.00
86.5118 671.00
86.577 798.00
86.6422 805.00
86.7074 738.00
86.7726 681.00
86.8378 630.00
86.903 586.00
86.9682 545.00
87.0334 465.00
87.0986 371.00
87.1638 440.00
87.229 390.00
87.2942 439.00
87.3594 401.00
87.4246 458.00
87.4898 495.00
87.555 527.00
87.6202 643.00
87.6854 663.00
87.7506 840.00
87.8158 890.00
87.881 993.00
87.9462 900.00
88.0114 805.00
88.0766 757.00
88.1418 637.00
88.207 602.00
88.2722 557.00
88.3374 498.00
88.4026 437.00
88.4678 437.00
88.533 365.00
88.5982 405.00
88.6634 399.00
88.7286 424.00
88.7938 458.00
88.859 565.00
88.9242 553.00
88.9894 557.00
89.0546 525.00
89.1198 482.00
89.185 510.00
89.2502 458.00
89.3154 402.00
89.3806 381.00
89.4458 391.00
89.511 384.00
89.5762 364.00
89.6414 345.00
89.7066 375.00
89.7718 359.00
89.837 356.00
89.9022 360.00
89.9674 356.00
90.0326 389.00
90.0978 355.00
90.163 333.00
90.2282 356.00
90.2934 358.00
90.3586 383.00
90.4238 433.00
90.489 541.00
90.5542 578.00
90.6193 510.00
90.6845 447.00
90.7497 458.00
90.8149 517.00
90.8801 464.00
90.9453 436.00
91.0105 494.00
91.0757 551.00
91.1409 482.00
91.2061 449.00
91.2713 430.00
91.3365 469.00
91.4017 464.00
91.4669 474.00
91.5321 454.00
91.5973 482.00
91.6625 405.00
91.7277 459.00
91.7929 451.00
91.8581 413.00
91.9233 435.00
91.9885 412.00
92.0537 368.00
92.1189 393.00
92.1841 367.00
92.2493 393.00
92.3145 377.00
92.3797 384.00
92.4449 373.00
92.5101 511.00
92.5753 649.00
92.6405 827.00
92.7057 858.00
92.7709 724.00
92.8361 654.00
92.9013 696.00
92.9665 740.00
93.0317 686.00
93.0969 645.00
93.1621 554.00
93.2273 511.00
93.2925 475.00
93.3577 459.00
93.4229 400.00
93.4881 403.00
93.5533 393.00
93.6185 386.00
93.6837 372.00
93.7489 376.00
93.8141 329.00
93.8793 346.00
93.9445 351.00
94.0097 367.00
94.0749 359.00
94.1401 426.00
94.2053 540.00
94.2705 652.00
94.3357 623.00
94.4009 544.00
94.4661 501.00
94.5313 521.00
94.5965 539.00
94.6617 558.00
94.7269 453.00
94.7921 420.00
94.8573 388.00
94.9225 355.00
94.9877 348.00
95.0529 400.00
95.1181 423.00
95.1833 474.00
95.2485 499.00
95.3137 567.00
95.3789 649.00
95.444 626.00
95.5092 560.00
95.5744 546.00
95.6396 550.00
95.7048 497.00
95.77 485.00
95.8352 471.00
95.9004 463.00
95.9656 416.00
96.0308 397.00
96.096 436.00
96.1612 450.00
96.2264 443.00
96.2916 549.00
96.3568 530.00
96.422 576.00
96.4872 547.00
96.5524 568.00
96.6176 522.00
96.6828 498.00
96.748 491.00
96.8132 485.00
96.8784 479.00
96.9436 464.00
97.0088 387.00
97.074 393.00
97.1392 417.00
97.2044 387.00
97.2696 408.00
97.3348 429.00
97.4 394.00
97.4652 368.00
97.5304 375.00
97.5956 449.00
97.6608 408.00
97.726 477.00
97.7912 494.00
97.8564 523.00
97.9216 585.00
97.9868 741.00
98.052 879.00
98.1172 819.00
98.1824 616.00
98.2476 556.00
98.3128 609.00
98.378 654.00
98.4432 632.00
98.5084 550.00
98.5736 485.00
98.6388 482.00
98.704 417.00
98.7692 380.00
98.8344 402.00
98.8996 368.00
98.9648 401.00
99.03 337.00
99.0952 335.00
99.1604 361.00
99.2256 393.00
99.2908 347.00
99.356 351.00
99.4212 358.00
99.4864 324.00
99.5516 347.00
99.6168 336.00
99.682 361.00
99.7472 363.00
99.8124 362.00
99.8776 441.00
99.9428 432.00
100.008 474.00
100.073 506.00
100.095 553.00