File: data/xrd_creation/results/NSC_95.xy
9.903433 2817.00
9.968632 2590.00
10.0338 2631.00
10.099 2630.00
10.1642 2671.00
10.2294 2588.00
10.2946 2550.00
10.3598 2514.00
10.425 2539.00
10.4902 2438.00
10.5554 2439.00
10.6206 2541.00
10.6858 2413.00
10.751 2420.00
10.8162 2465.00
10.8814 2459.00
10.9466 2334.00
11.0118 2353.00
11.077 2275.00
11.1422 2372.00
11.2074 2293.00
11.2726 2339.00
11.3378 2270.00
11.403 2221.00
11.4682 2170.00
11.5334 2222.00
11.5986 2177.00
11.6638 2183.00
11.729 2178.00
11.7942 2150.00
11.8594 2130.00
11.9246 2096.00
11.9898 2136.00
12.055 2019.00
12.1202 2098.00
12.1854 1987.00
12.2506 1967.00
12.3158 2028.00
12.381 1982.00
12.4462 1955.00
12.5114 1992.00
12.5766 1884.00
12.6418 1966.00
12.707 1912.00
12.7722 1865.00
12.8374 1869.00
12.9026 1891.00
12.9678 1850.00
13.033 1740.00
13.0982 1751.00
13.1634 1853.00
13.2286 1868.00
13.2938 1832.00
13.359 1889.00
13.4242 1783.00
13.4894 1771.00
13.5546 1845.00
13.6198 1751.00
13.685 1705.00
13.7502 1794.00
13.8154 1715.00
13.8805 1736.00
13.9457 1752.00
14.0109 1863.00
14.0761 1781.00
14.1413 1910.00
14.2065 1985.00
14.2717 2018.00
14.3369 2239.00
14.4021 2178.00
14.4673 2233.00
14.5325 2308.00
14.5977 2307.00
14.6629 2552.00
14.7281 2074.00
14.7933 1761.00
14.8585 1638.00
14.9237 1625.00
14.9889 1604.00
15.0541 1639.00
15.1193 1571.00
15.1845 1609.00
15.2497 1682.00
15.3149 1668.00
15.3801 1585.00
15.4453 1560.00
15.5105 1612.00
15.5757 1575.00
15.6409 1505.00
15.7061 1564.00
15.7713 1551.00
15.8365 1553.00
15.9017 1561.00
15.9669 1498.00
16.0321 1541.00
16.0973 1493.00
16.1625 1543.00
16.2277 1489.00
16.2929 1508.00
16.3581 1515.00
16.4233 1492.00
16.4885 1505.00
16.5537 1514.00
16.6189 1542.00
16.6841 1483.00
16.7493 1554.00
16.8145 1465.00
16.8797 1453.00
16.9449 1486.00
17.0101 1487.00
17.0753 1453.00
17.1405 1500.00
17.2057 1467.00
17.2709 1463.00
17.3361 1463.00
17.4013 1446.00
17.4665 1367.00
17.5317 1393.00
17.5969 1318.00
17.6621 1418.00
17.7273 1387.00
17.7925 1383.00
17.8577 1444.00
17.9229 1395.00
17.9881 1389.00
18.0533 1411.00
18.1185 1368.00
18.1837 1365.00
18.2489 1358.00
18.3141 1360.00
18.3793 1422.00
18.4445 1328.00
18.5097 1324.00
18.5749 1286.00
18.6401 1324.00
18.7052 1372.00
18.7704 1377.00
18.8356 1351.00
18.9008 1344.00
18.966 1205.00
19.0312 1320.00
19.0964 1353.00
19.1616 1288.00
19.2268 1287.00
19.292 1303.00
19.3572 1340.00
19.4224 1386.00
19.4876 1433.00
19.5528 1495.00
19.618 1780.00
19.6832 2094.00
19.7484 2685.00
19.8136 3075.00
19.8788 3237.00
19.944 3409.00
20.0092 3445.00
20.0744 3778.00
20.1396 4666.00
20.2048 3941.00
20.27 2139.00
20.3352 1636.00
20.4004 1541.00
20.4656 1627.00
20.5308 1701.00
20.596 1973.00
20.6612 2350.00
20.7264 2891.00
20.7916 3426.00
20.8568 3517.00
20.922 3685.00
20.9872 3828.00
21.0524 4278.00
21.1176 5077.00
21.1828 5111.00
21.248 2910.00
21.3132 1648.00
21.3784 1428.00
21.4436 1421.00
21.5088 1347.00
21.574 1284.00
21.6392 1299.00
21.7044 1298.00
21.7696 1244.00
21.8348 1304.00
21.9 1235.00
21.9652 1192.00
22.0304 1191.00
22.0956 1218.00
22.1608 1134.00
22.226 1128.00
22.2912 1110.00
22.3564 1158.00
22.4216 1114.00
22.4868 1128.00
22.552 1078.00
22.6172 1115.00
22.6824 1103.00
22.7476 1150.00
22.8128 1076.00
22.878 1091.00
22.9432 1147.00
23.0084 1184.00
23.0736 1120.00
23.1388 1148.00
23.204 1176.00
23.2692 1197.00
23.3344 1215.00
23.3996 1156.00
23.4647 1158.00
23.5299 1148.00
23.5951 1129.00
23.6603 1170.00
23.7255 1255.00
23.7907 1408.00
23.8559 1681.00
23.9211 2023.00
23.9863 2361.00
24.0515 2379.00
24.1167 2509.00
24.1819 2596.00
24.2471 2990.00
24.3123 3775.00
24.3775 3114.00
24.4427 1695.00
24.5079 1242.00
24.5731 1068.00
24.6383 1054.00
24.7035 1111.00
24.7687 1053.00
24.8339 1004.00
24.8991 1008.00
24.9643 1035.00
25.0295 944.00
25.0947 980.00
25.1599 928.00
25.2251 1016.00
25.2903 921.00
25.3555 991.00
25.4207 929.00
25.4859 950.00
25.5511 984.00
25.6163 964.00
25.6815 906.00
25.7467 913.00
25.8119 962.00
25.8771 931.00
25.9423 936.00
26.0075 926.00
26.0727 938.00
26.1379 952.00
26.2031 935.00
26.2683 990.00
26.3335 1093.00
26.3987 1242.00
26.4639 1397.00
26.5291 1750.00
26.5943 1862.00
26.6595 1882.00
26.7247 2031.00
26.7899 2179.00
26.8551 2568.00
26.9203 2792.00
26.9855 1751.00
27.0507 1105.00
27.1159 990.00
27.1811 904.00
27.2463 839.00
27.3115 884.00
27.3767 894.00
27.4419 833.00
27.5071 803.00
27.5723 875.00
27.6375 890.00
27.7027 850.00
27.7679 877.00
27.8331 806.00
27.8983 852.00
27.9635 868.00
28.0287 870.00
28.0939 853.00
28.1591 847.00
28.2243 878.00
28.2894 880.00
28.3546 809.00
28.4198 836.00
28.485 852.00
28.5502 907.00
28.6154 884.00
28.6806 1053.00
28.7458 1168.00
28.811 1571.00
28.8762 1843.00
28.9414 2216.00
29.0066 2231.00
29.0718 2426.00
29.137 2599.00
29.2022 3241.00
29.2674 3544.00
29.3326 2194.00
29.3978 1214.00
29.463 958.00
29.5282 842.00
29.5934 902.00
29.6586 869.00
29.7238 793.00
29.789 791.00
29.8542 819.00
29.9194 845.00
29.9846 808.00
30.0498 814.00
30.115 772.00
30.1802 813.00
30.2454 756.00
30.3106 842.00
30.3758 771.00
30.441 767.00
30.5062 774.00
30.5714 722.00
30.6366 737.00
30.7018 797.00
30.767 789.00
30.8322 811.00
30.8974 749.00
30.9626 734.00
31.0278 792.00
31.093 773.00
31.1582 772.00
31.2234 792.00
31.2886 811.00
31.3538 824.00
31.419 866.00
31.4842 945.00
31.5494 1147.00
31.6146 1464.00
31.6798 2086.00
31.745 2580.00
31.8102 2904.00
31.8754 3159.00
31.9406 3420.00
32.0058 4075.00
32.071 5485.00
32.1362 4400.00
32.2014 2568.00
32.2666 1370.00
32.3318 1107.00
32.397 1089.00
32.4622 1106.00
32.5274 1053.00
32.5926 1085.00
32.6578 1155.00
32.723 1020.00
32.7882 768.00
32.8534 777.00
32.9186 746.00
32.9838 730.00
33.0489 689.00
33.1141 734.00
33.1793 745.00
33.2445 705.00
33.3097 779.00
33.3749 713.00
33.4401 742.00
33.5053 737.00
33.5705 782.00
33.6357 825.00
33.7009 918.00
33.7661 1107.00
33.8313 1372.00
33.8965 1471.00
33.9617 1684.00
34.0269 1786.00
34.0921 1972.00
34.1573 2535.00
34.2225 2178.00
34.2877 1572.00
34.3529 1058.00
34.4181 999.00
34.4833 917.00
34.5485 735.00
34.6137 731.00
34.6789 666.00
34.7441 667.00
34.8093 686.00
34.8745 653.00
34.9397 614.00
35.0049 627.00
35.0701 674.00
35.1353 634.00
35.2005 675.00
35.2657 643.00
35.3309 639.00
35.3961 688.00
35.4613 656.00
35.5265 694.00
35.5917 703.00
35.6569 701.00
35.7221 791.00
35.7873 894.00
35.8525 1066.00
35.9177 1214.00
35.9829 1362.00
36.0481 1542.00
36.1133 1637.00
36.1785 2005.00
36.2437 2247.00
36.3089 1796.00
36.3741 1426.00
36.4393 1339.00
36.5045 1531.00
36.5697 1664.00
36.6349 1765.00
36.7001 1995.00
36.7653 2367.00
36.8305 2712.00
36.8957 2053.00
36.9609 1369.00
37.0261 834.00
37.0913 739.00
37.1565 702.00
37.2217 694.00
37.2869 640.00
37.3521 613.00
37.4173 646.00
37.4825 612.00
37.5477 562.00
37.6129 616.00
37.6781 625.00
37.7433 598.00
37.8085 694.00
37.8736 741.00
37.9388 717.00
38.004 823.00
38.0692 890.00
38.1344 947.00
38.1996 1017.00
38.2648 1154.00
38.33 930.00
38.3952 731.00
38.4604 631.00
38.5256 633.00
38.5908 673.00
38.656 654.00
38.7212 702.00
38.7864 756.00
38.8516 770.00
38.9168 658.00
38.982 658.00
39.0472 626.00
39.1124 613.00
39.1776 604.00
39.2428 644.00
39.308 629.00
39.3732 615.00
39.4384 619.00
39.5036 543.00
39.5688 504.00
39.634 536.00
39.6992 565.00
39.7644 527.00
39.8296 503.00
39.8948 534.00
39.96 525.00
40.0252 550.00
40.0904 570.00
40.1556 536.00
40.2208 627.00
40.286 655.00
40.3512 671.00
40.4164 693.00
40.4816 793.00
40.5468 816.00
40.612 873.00
40.6772 859.00
40.7424 722.00
40.8076 546.00
40.8728 532.00
40.938 527.00
41.0032 528.00
41.0684 506.00
41.1336 510.00
41.1988 513.00
41.264 450.00
41.3292 476.00
41.3944 505.00
41.4596 545.00
41.5248 509.00
41.59 516.00
41.6552 546.00
41.7204 551.00
41.7856 571.00
41.8508 620.00
41.916 752.00
41.9812 783.00
42.0464 825.00
42.1116 939.00
42.1768 1087.00
42.242 1028.00
42.3072 943.00
42.3724 906.00
42.4376 823.00
42.5028 835.00
42.568 859.00
42.6332 897.00
42.6983 935.00
42.7635 935.00
42.8287 755.00
42.8939 696.00
42.9591 571.00
43.0243 617.00
43.0895 557.00
43.1547 546.00
43.2199 598.00
43.2851 541.00
43.3503 550.00
43.4155 507.00
43.4807 500.00
43.5459 466.00
43.6111 472.00
43.6763 472.00
43.7415 522.00
43.8067 562.00
43.8719 561.00
43.9371 731.00
44.0023 827.00
44.0675 851.00
44.1327 996.00
44.1979 1045.00
44.2631 1293.00
44.3283 1328.00
44.3935 1003.00
44.4587 869.00
44.5239 572.00
44.5891 605.00
44.6543 536.00
44.7195 528.00
44.7847 471.00
44.8499 497.00
44.9151 485.00
44.9803 591.00
45.0455 552.00
45.1107 554.00
45.1759 596.00
45.2411 630.00
45.3063 597.00
45.3715 574.00
45.4367 565.00
45.5019 505.00
45.5671 503.00
45.6323 585.00
45.6975 700.00
45.7627 759.00
45.8279 874.00
45.8931 974.00
45.9583 1037.00
46.0235 1160.00
46.0887 1591.00
46.1539 1141.00
46.2191 1006.00
46.2843 712.00
46.3495 516.00
46.4147 479.00
46.4799 510.00
46.5451 456.00
46.6103 469.00
46.6755 488.00
46.7407 470.00
46.8059 489.00
46.8711 519.00
46.9363 486.00
47.0015 556.00
47.0667 586.00
47.1319 665.00
47.1971 823.00
47.2623 1066.00
47.3275 1166.00
47.3927 1449.00
47.4579 1623.00
47.523 2011.00
47.5882 1780.00
47.6534 1418.00
47.7186 1092.00
47.7838 735.00
47.849 574.00
47.9142 543.00
47.9794 504.00
48.0446 497.00
48.1098 503.00
48.175 484.00
48.2402 476.00
48.3054 456.00
48.3706 451.00
48.4358 457.00
48.501 553.00
48.5662 480.00
48.6314 555.00
48.6966 556.00
48.7618 519.00
48.827 621.00
48.8922 615.00
48.9574 670.00
49.0226 701.00
49.0878 830.00
49.153 1074.00
49.2182 1261.00
49.2834 1422.00
49.3486 1550.00
49.4138 2090.00
49.479 2236.00
49.5442 1514.00
49.6094 1218.00
49.6746 778.00
49.7398 547.00
49.805 502.00
49.8702 541.00
49.9354 465.00
50.0006 522.00
50.0658 502.00
50.131 566.00
50.1962 562.00
50.2614 584.00
50.3266 600.00
50.3918 610.00
50.457 617.00
50.5222 529.00
50.5874 489.00
50.6526 464.00
50.7178 464.00
50.783 440.00
50.8482 408.00
50.9134 383.00
50.9786 467.00
51.0438 412.00
51.109 448.00
51.1742 469.00
51.2394 436.00
51.3046 430.00
51.3698 494.00
51.435 450.00
51.5002 492.00
51.5654 541.00
51.6306 615.00
51.6958 858.00
51.761 1016.00
51.8262 1238.00
51.8914 1392.00
51.9566 1649.00
52.0218 2243.00
52.087 1948.00
52.1522 1756.00
52.2174 1682.00
52.2826 1539.00
52.3477 1481.00
52.4129 1690.00
52.4781 2119.00
52.5433 1720.00
52.6085 1395.00
52.6737 1086.00
52.7389 656.00
52.8041 565.00
52.8693 495.00
52.9345 474.00
52.9997 490.00
53.0649 521.00
53.1301 458.00
53.1953 513.00
53.2605 517.00
53.3257 540.00
53.3909 509.00
53.4561 461.00
53.5213 456.00
53.5865 418.00
53.6517 434.00
53.7169 421.00
53.7821 384.00
53.8473 403.00
53.9125 416.00
53.9777 427.00
54.0429 395.00
54.1081 416.00
54.1733 428.00
54.2385 427.00
54.3037 421.00
54.3689 443.00
54.4341 478.00
54.4993 414.00
54.5645 452.00
54.6297 457.00
54.6949 510.00
54.7601 523.00
54.8253 641.00
54.8905 653.00
54.9557 723.00
55.0209 863.00
55.0861 694.00
55.1513 544.00
55.2165 540.00
55.2817 536.00
55.3469 464.00
55.4121 479.00
55.4773 556.00
55.5425 609.00
55.6077 672.00
55.6729 746.00
55.7381 914.00
55.8033 905.00
55.8685 709.00
55.9337 652.00
55.9989 497.00
56.0641 470.00
56.1293 451.00
56.1945 428.00
56.2597 416.00
56.3249 433.00
56.3901 452.00
56.4553 455.00
56.5205 469.00
56.5857 463.00
56.6509 554.00
56.7161 684.00
56.7813 803.00
56.8465 899.00
56.9117 1122.00
56.9769 1249.00
57.042 1422.00
57.1073 1363.00
57.1724 1369.00
57.2376 1456.00
57.3028 1419.00
57.368 1539.00
57.4332 1705.00
57.4984 1598.00
57.5636 1308.00
57.6288 1037.00
57.694 809.00
57.7592 622.00
57.8244 545.00
57.8896 564.00
57.9548 547.00
58.02 579.00
58.0852 624.00
58.1504 561.00
58.2156 505.00
58.2808 510.00
58.346 427.00
58.4112 456.00
58.4764 489.00
58.5416 485.00
58.6068 542.00
58.672 543.00
58.7372 592.00
58.8024 641.00
58.8676 681.00
58.9328 718.00
58.998 806.00
59.0632 751.00
59.1284 703.00
59.1936 604.00
59.2588 532.00
59.324 420.00
59.3892 478.00
59.4544 440.00
59.5196 438.00
59.5848 400.00
59.65 379.00
59.7152 379.00
59.7804 446.00
59.8456 413.00
59.9108 476.00
59.976 415.00
60.0412 526.00
60.1064 536.00
60.1716 577.00
60.2368 585.00
60.302 502.00
60.3672 458.00
60.4324 459.00
60.4976 375.00
60.5628 382.00
60.628 377.00
60.6932 376.00
60.7584 372.00
60.8236 415.00
60.8888 409.00
60.954 397.00
61.0192 436.00
61.0844 554.00
61.1496 618.00
61.2148 730.00
61.28 881.00
61.3452 1028.00
61.4104 1232.00
61.4756 1444.00
61.5408 950.00
61.606 931.00
61.6712 711.00
61.7364 614.00
61.8016 539.00
61.8667 525.00
61.932 608.00
61.9971 609.00
62.0623 738.00
62.1275 789.00
62.1927 766.00
62.2579 687.00
62.3231 666.00
62.3883 556.00
62.4535 600.00
62.5187 585.00
62.5839 565.00
62.6491 613.00
62.7143 746.00
62.7795 852.00
62.8447 958.00
62.9099 1182.00
62.9751 1414.00
63.0403 1609.00
63.1055 1404.00
63.1707 1323.00
63.2359 1249.00
63.3011 1125.00
63.3663 940.00
63.4315 775.00
63.4967 701.00
63.5619 574.00
63.6271 543.00
63.6923 458.00
63.7575 436.00
63.8227 418.00
63.8879 355.00
63.9531 379.00
64.0183 400.00
64.0835 453.00
64.1487 393.00
64.2139 428.00
64.2791 447.00
64.3443 461.00
64.4095 526.00
64.4747 521.00
64.5399 498.00
64.6051 486.00
64.6703 556.00
64.7355 566.00
64.8007 569.00
64.8659 625.00
64.9311 713.00
64.9963 773.00
65.0615 597.00
65.1267 580.00
65.1919 550.00
65.2571 580.00
65.3223 594.00
65.3875 634.00
65.4527 758.00
65.5179 885.00
65.5831 995.00
65.6483 1133.00
65.7135 988.00
65.7787 926.00
65.8439 947.00
65.9091 976.00
65.9743 1016.00
66.0395 996.00
66.1047 1036.00
66.1699 1081.00
66.2351 1059.00
66.3003 802.00
66.3655 696.00
66.4307 671.00
66.4959 513.00
66.561 458.00
66.6263 406.00
66.6915 397.00
66.7566 375.00
66.8218 370.00
66.887 391.00
66.9522 373.00
67.0174 415.00
67.0826 456.00
67.1478 527.00
67.213 624.00
67.2782 670.00
67.3434 751.00
67.4086 861.00
67.4738 948.00
67.539 744.00
67.6042 675.00
67.6694 578.00
67.7346 512.00
67.7998 450.00
67.865 419.00
67.9302 427.00
67.9954 430.00
68.0606 400.00
68.1258 414.00
68.191 412.00
68.2562 362.00
68.3214 373.00
68.3866 340.00
68.4518 337.00
68.517 360.00
68.5822 324.00
68.6474 309.00
68.7126 352.00
68.7778 333.00
68.843 311.00
68.9082 348.00
68.9734 334.00
69.0386 394.00
69.1038 385.00
69.169 373.00
69.2342 377.00
69.2994 445.00
69.3646 493.00
69.4298 597.00
69.495 690.00
69.5602 808.00
69.6254 887.00
69.6906 1003.00
69.7558 905.00
69.821 659.00
69.8862 632.00
69.9514 587.00
70.0166 426.00
70.0818 322.00
70.147 337.00
70.2122 321.00
70.2774 330.00
70.3426 331.00
70.4078 288.00
70.473 347.00
70.5382 337.00
70.6034 333.00
70.6686 347.00
70.7338 364.00
70.799 350.00
70.8642 375.00
70.9294 440.00
70.9946 404.00
71.0598 447.00
71.125 480.00
71.1902 574.00
71.2554 560.00
71.3205 552.00
71.3858 592.00
71.451 604.00
71.5162 610.00
71.5813 496.00
71.6465 458.00
71.7117 487.00
71.7769 422.00
71.8421 387.00
71.9073 373.00
71.9725 396.00
72.0377 379.00
72.1029 387.00
72.1681 377.00
72.2333 323.00
72.2985 320.00
72.3637 340.00
72.4289 341.00
72.4941 380.00
72.5593 308.00
72.6245 345.00
72.6897 374.00
72.7549 301.00
72.8201 371.00
72.8853 339.00
72.9505 320.00
73.0157 326.00
73.0809 349.00
73.1461 390.00
73.2113 373.00
73.2765 406.00
73.3417 498.00
73.4069 583.00
73.4721 619.00
73.5373 713.00
73.6025 785.00
73.6677 692.00
73.7329 636.00
73.7981 558.00
73.8633 424.00
73.9285 429.00
73.9937 382.00
74.0589 340.00
74.1241 346.00
74.1893 369.00
74.2545 314.00
74.3197 372.00
74.3849 310.00
74.4501 340.00
74.5153 351.00
74.5805 349.00
74.6457 344.00
74.7109 321.00
74.7761 378.00
74.8413 380.00
74.9065 361.00
74.9717 370.00
75.0369 390.00
75.1021 462.00
75.1673 503.00
75.2325 549.00
75.2977 612.00
75.3629 668.00
75.4281 670.00
75.4933 587.00
75.5585 467.00
75.6237 527.00
75.6889 400.00
75.7541 424.00
75.8193 404.00
75.8845 434.00
75.9497 429.00
76.0149 402.00
76.0801 460.00
76.1452 412.00
76.2104 501.00
76.2756 486.00
76.3409 484.00
76.406 508.00
76.4712 484.00
76.5364 461.00
76.6016 400.00
76.6668 400.00
76.732 306.00
76.7972 331.00
76.8624 357.00
76.9276 362.00
76.9928 325.00
77.058 307.00
77.1232 309.00
77.1884 331.00
77.2536 340.00
77.3188 341.00
77.384 380.00
77.4492 394.00
77.5144 436.00
77.5796 498.00
77.6448 518.00
77.71 536.00
77.7752 591.00
77.8404 622.00
77.9056 590.00
77.9708 535.00
78.036 513.00
78.1012 463.00
78.1664 495.00
78.2316 390.00
78.2968 360.00
78.362 330.00
78.4272 392.00
78.4924 361.00
78.5576 373.00
78.6228 367.00
78.688 415.00
78.7532 485.00
78.8184 550.00
78.8836 597.00
78.9488 654.00
79.014 571.00
79.0792 510.00
79.1444 545.00
79.2096 531.00
79.2748 459.00
79.34 410.00
79.4052 397.00
79.4704 388.00
79.5356 348.00
79.6008 412.00
79.666 383.00
79.7312 376.00
79.7964 328.00
79.8616 315.00
79.9268 332.00
79.992 379.00
80.0572 336.00
80.1224 349.00
80.1876 376.00
80.2528 344.00
80.318 350.00
80.3832 354.00
80.4484 352.00
80.5136 353.00
80.5788 323.00
80.644 355.00
80.7092 337.00
80.7744 353.00
80.8396 324.00
80.9048 352.00
80.9699 391.00
81.0351 397.00
81.1003 488.00
81.1655 599.00
81.2307 564.00
81.2959 674.00
81.3611 763.00
81.4263 713.00
81.4915 682.00
81.5567 686.00
81.6219 645.00
81.6871 593.00
81.7523 543.00
81.8175 484.00
81.8827 449.00
81.9479 421.00
82.0131 361.00
82.0783 339.00
82.1435 328.00
82.2087 307.00
82.2739 278.00
82.3391 356.00
82.4043 338.00
82.4695 342.00
82.5347 367.00
82.5999 405.00
82.6651 396.00
82.7303 524.00
82.7955 550.00
82.8607 595.00
82.9259 675.00
82.9911 738.00
83.0563 712.00
83.1215 589.00
83.1867 519.00
83.2519 507.00
83.3171 519.00
83.3823 401.00
83.4475 355.00
83.5127 353.00
83.5779 356.00
83.6431 385.00
83.7083 450.00
83.7735 443.00
83.8387 449.00
83.9039 535.00
83.9691 509.00
84.0343 431.00
84.0995 389.00
84.1647 401.00
84.2299 380.00
84.2951 331.00
84.3603 275.00
84.4255 316.00
84.4907 313.00
84.5559 284.00
84.6211 288.00
84.6863 301.00
84.7515 266.00
84.8167 333.00
84.8819 324.00
84.9471 321.00
85.0123 367.00
85.0775 364.00
85.1427 354.00
85.2079 353.00
85.2731 366.00
85.3383 310.00
85.4035 340.00
85.4687 315.00
85.5339 307.00
85.5991 305.00
85.6643 288.00
85.7295 294.00
85.7946 304.00
85.8598 337.00
85.925 320.00
85.9903 313.00
86.0554 370.00
86.1206 374.00
86.1858 393.00
86.251 450.00
86.3162 534.00
86.3814 560.00
86.4466 553.00
86.5118 582.00
86.577 590.00
86.6422 513.00
86.7074 475.00
86.7726 454.00
86.8378 406.00
86.903 401.00
86.9682 378.00
87.0334 327.00
87.0986 357.00
87.1638 344.00
87.229 385.00
87.2942 377.00
87.3594 442.00
87.4246 507.00
87.4898 519.00
87.555 503.00
87.6202 615.00
87.6854 664.00
87.7506 685.00
87.8158 700.00
87.881 634.00
87.9462 625.00
88.0114 604.00
88.0766 545.00
88.1418 482.00
88.207 443.00
88.2722 408.00
88.3374 381.00
88.4026 372.00
88.4678 355.00
88.533 362.00
88.5982 362.00
88.6634 354.00
88.7286 418.00
88.7938 433.00
88.859 400.00
88.9242 395.00
88.9894 375.00
89.0546 337.00
89.1198 353.00
89.185 385.00
89.2502 293.00
89.3154 319.00
89.3806 317.00
89.4458 321.00
89.511 312.00
89.5762 368.00
89.6414 353.00
89.7066 348.00
89.7718 388.00
89.837 439.00
89.9022 460.00
89.9674 548.00
90.0326 468.00
90.0978 463.00
90.163 457.00
90.2282 439.00
90.2934 444.00
90.3586 433.00
90.4238 472.00
90.489 471.00
90.5542 467.00
90.6193 398.00
90.6845 437.00
90.7497 433.00
90.8149 498.00
90.8801 505.00
90.9453 510.00
91.0105 590.00
91.0757 618.00
91.1409 580.00
91.2061 510.00
91.2713 504.00
91.3365 535.00
91.4017 468.00
91.4669 438.00
91.5321 390.00
91.5973 392.00
91.6625 379.00
91.7277 399.00
91.7929 344.00
91.8581 328.00
91.9233 381.00
91.9885 329.00
92.0537 363.00
92.1189 342.00
92.1841 351.00
92.2493 342.00
92.3145 400.00
92.3797 424.00
92.4449 542.00
92.5101 627.00
92.5753 655.00
92.6405 683.00
92.7057 609.00
92.7709 568.00
92.8361 547.00
92.9013 515.00
92.9665 542.00
93.0317 446.00
93.0969 421.00
93.1621 360.00
93.2273 345.00
93.2925 356.00
93.3577 409.00
93.4229 433.00
93.4881 399.00
93.5533 370.00
93.6185 357.00
93.6837 386.00
93.7489 372.00
93.8141 353.00
93.8793 311.00
93.9445 321.00
94.0097 330.00
94.0749 401.00
94.1401 434.00
94.2053 454.00
94.2705 508.00
94.3357 495.00
94.4009 459.00
94.4661 392.00
94.5313 399.00
94.5965 434.00
94.6617 426.00
94.7269 361.00
94.7921 331.00
94.8573 343.00
94.9225 329.00
94.9877 331.00
95.0529 361.00
95.1181 385.00
95.1833 395.00
95.2485 424.00
95.3137 429.00
95.3789 456.00
95.444 397.00
95.5092 456.00
95.5744 437.00
95.6396 406.00
95.7048 427.00
95.77 392.00
95.8352 379.00
95.9004 405.00
95.9656 382.00
96.0308 457.00
96.096 460.00
96.1612 472.00
96.2264 513.00
96.2916 454.00
96.3568 471.00
96.422 470.00
96.4872 461.00
96.5524 379.00
96.6176 394.00
96.6828 383.00
96.748 320.00
96.8132 340.00
96.8784 316.00
96.9436 305.00
97.0088 300.00
97.074 327.00
97.1392 343.00
97.2044 293.00
97.2696 340.00
97.3348 332.00
97.4 335.00
97.4652 362.00
97.5304 399.00
97.5956 404.00
97.6608 361.00
97.726 440.00
97.7912 501.00
97.8564 546.00
97.9216 569.00
97.9868 669.00
98.052 615.00
98.1172 566.00
98.1824 460.00
98.2476 475.00
98.3128 460.00
98.378 491.00
98.4432 392.00
98.5084 386.00
98.5736 361.00
98.6388 324.00
98.704 332.00
98.7692 250.00
98.8344 306.00
98.8996 348.00
98.9648 308.00
99.03 302.00
99.0952 296.00
99.1604 304.00
99.2256 291.00
99.2908 319.00
99.356 325.00
99.4212 301.00
99.4864 336.00
99.5516 320.00
99.6168 319.00
99.682 346.00
99.7472 333.00
99.8124 403.00
99.8776 447.00
99.9428 507.00
100.008 603.00
100.073 555.00
100.095 643.00