File: data/xrd_creation/results/NSC_108.xy
9.903433 2647.00
9.968632 2625.00
10.0338 2528.00
10.099 2646.00
10.1642 2578.00
10.2294 2567.00
10.2946 2527.00
10.3598 2558.00
10.425 2328.00
10.4902 2465.00
10.5554 2405.00
10.6206 2473.00
10.6858 2466.00
10.751 2321.00
10.8162 2362.00
10.8814 2343.00
10.9466 2341.00
11.0118 2412.00
11.077 2236.00
11.1422 2256.00
11.2074 2261.00
11.2726 2268.00
11.3378 2193.00
11.403 2169.00
11.4682 2166.00
11.5334 2143.00
11.5986 2093.00
11.6638 2119.00
11.729 2141.00
11.7942 2080.00
11.8594 2046.00
11.9246 2081.00
11.9898 2118.00
12.055 2044.00
12.1202 2043.00
12.1854 1937.00
12.2506 2019.00
12.3158 1988.00
12.381 2073.00
12.4462 1984.00
12.5114 1951.00
12.5766 1893.00
12.6418 1845.00
12.707 1877.00
12.7722 1880.00
12.8374 1906.00
12.9026 1938.00
12.9678 1841.00
13.033 1881.00
13.0982 1737.00
13.1634 1853.00
13.2286 1815.00
13.2938 1767.00
13.359 1835.00
13.4242 1774.00
13.4894 1804.00
13.5546 1756.00
13.6198 1842.00
13.685 1752.00
13.7502 1780.00
13.8154 1670.00
13.8805 1801.00
13.9457 1739.00
14.0109 1780.00
14.0761 1718.00
14.1413 1719.00
14.2065 1701.00
14.2717 1682.00
14.3369 1734.00
14.4021 1618.00
14.4673 1780.00
14.5325 1682.00
14.5977 1642.00
14.6629 1726.00
14.7281 1690.00
14.7933 1637.00
14.8585 1657.00
14.9237 1611.00
14.9889 1567.00
15.0541 1595.00
15.1193 1558.00
15.1845 1598.00
15.2497 1645.00
15.3149 1615.00
15.3801 1601.00
15.4453 1602.00
15.5105 1580.00
15.5757 1578.00
15.6409 1534.00
15.7061 1544.00
15.7713 1632.00
15.8365 1539.00
15.9017 1566.00
15.9669 1471.00
16.0321 1462.00
16.0973 1545.00
16.1625 1469.00
16.2277 1519.00
16.2929 1601.00
16.3581 1616.00
16.4233 1531.00
16.4885 1470.00
16.5537 1524.00
16.6189 1546.00
16.6841 1532.00
16.7493 1440.00
16.8145 1553.00
16.8797 1472.00
16.9449 1465.00
17.0101 1457.00
17.0753 1532.00
17.1405 1516.00
17.2057 1463.00
17.2709 1464.00
17.3361 1512.00
17.4013 1455.00
17.4665 1484.00
17.5317 1426.00
17.5969 1510.00
17.6621 1412.00
17.7273 1401.00
17.7925 1440.00
17.8577 1377.00
17.9229 1423.00
17.9881 1409.00
18.0533 1454.00
18.1185 1398.00
18.1837 1369.00
18.2489 1405.00
18.3141 1422.00
18.3793 1429.00
18.4445 1366.00
18.5097 1391.00
18.5749 1304.00
18.6401 1372.00
18.7052 1379.00
18.7704 1435.00
18.8356 1350.00
18.9008 1370.00
18.966 1373.00
19.0312 1416.00
19.0964 1323.00
19.1616 1350.00
19.2268 1346.00
19.292 1349.00
19.3572 1337.00
19.4224 1274.00
19.4876 1417.00
19.5528 1332.00
19.618 1323.00
19.6832 1269.00
19.7484 1274.00
19.8136 1265.00
19.8788 1238.00
19.944 1282.00
20.0092 1325.00
20.0744 1292.00
20.1396 1309.00
20.2048 1296.00
20.27 1247.00
20.3352 1189.00
20.4004 1302.00
20.4656 1288.00
20.5308 1197.00
20.596 1295.00
20.6612 1210.00
20.7264 1254.00
20.7916 1255.00
20.8568 1223.00
20.922 1207.00
20.9872 1250.00
21.0524 1296.00
21.1176 1288.00
21.1828 1300.00
21.248 1286.00
21.3132 1188.00
21.3784 1195.00
21.4436 1279.00
21.5088 1281.00
21.574 1239.00
21.6392 1293.00
21.7044 1204.00
21.7696 1210.00
21.8348 1209.00
21.9 1223.00
21.9652 1163.00
22.0304 1206.00
22.0956 1157.00
22.1608 1230.00
22.226 1189.00
22.2912 1166.00
22.3564 1176.00
22.4216 1174.00
22.4868 1252.00
22.552 1191.00
22.6172 1204.00
22.6824 1132.00
22.7476 1180.00
22.8128 1162.00
22.878 1158.00
22.9432 1166.00
23.0084 1192.00
23.0736 1172.00
23.1388 1180.00
23.204 1162.00
23.2692 1123.00
23.3344 1154.00
23.3996 1076.00
23.4647 1119.00
23.5299 1174.00
23.5951 1075.00
23.6603 1138.00
23.7255 1108.00
23.7907 1069.00
23.8559 1126.00
23.9211 1094.00
23.9863 1136.00
24.0515 1119.00
24.1167 1115.00
24.1819 1162.00
24.2471 1117.00
24.3123 1132.00
24.3775 1062.00
24.4427 1098.00
24.5079 1031.00
24.5731 1093.00
24.6383 1135.00
24.7035 1073.00
24.7687 1083.00
24.8339 1081.00
24.8991 1032.00
24.9643 1093.00
25.0295 1120.00
25.0947 1041.00
25.1599 1076.00
25.2251 1020.00
25.2903 1074.00
25.3555 1018.00
25.4207 1017.00
25.4859 1092.00
25.5511 1089.00
25.6163 1003.00
25.6815 997.00
25.7467 1086.00
25.8119 1126.00
25.8771 1095.00
25.9423 1080.00
26.0075 1132.00
26.0727 1186.00
26.1379 1169.00
26.2031 1326.00
26.2683 1457.00
26.3335 2031.00
26.3987 2985.00
26.4639 4694.00
26.5291 5860.00
26.5943 5810.00
26.6595 5375.00
26.7247 5615.00
26.7899 6633.00
26.8551 6486.00
26.9203 4000.00
26.9855 2101.00
27.0507 1405.00
27.1159 1184.00
27.1811 1173.00
27.2463 1043.00
27.3115 1063.00
27.3767 1040.00
27.4419 1075.00
27.5071 1013.00
27.5723 968.00
27.6375 1051.00
27.7027 953.00
27.7679 1038.00
27.8331 991.00
27.8983 1011.00
27.9635 978.00
28.0287 918.00
28.0939 1076.00
28.1591 974.00
28.2243 1015.00
28.2894 967.00
28.3546 964.00
28.4198 984.00
28.485 961.00
28.5502 952.00
28.6154 931.00
28.6806 971.00
28.7458 953.00
28.811 997.00
28.8762 973.00
28.9414 912.00
29.0066 968.00
29.0718 949.00
29.137 982.00
29.2022 911.00
29.2674 954.00
29.3326 881.00
29.3978 1011.00
29.463 915.00
29.5282 923.00
29.5934 910.00
29.6586 978.00
29.7238 896.00
29.789 949.00
29.8542 921.00
29.9194 892.00
29.9846 883.00
30.0498 952.00
30.115 897.00
30.1802 906.00
30.2454 882.00
30.3106 910.00
30.3758 950.00
30.441 906.00
30.5062 931.00
30.5714 870.00
30.6366 854.00
30.7018 877.00
30.767 911.00
30.8322 842.00
30.8974 889.00
30.9626 893.00
31.0278 846.00
31.093 858.00
31.1582 871.00
31.2234 871.00
31.2886 857.00
31.3538 859.00
31.419 858.00
31.4842 800.00
31.5494 908.00
31.6146 876.00
31.6798 841.00
31.745 854.00
31.8102 750.00
31.8754 869.00
31.9406 851.00
32.0058 890.00
32.071 818.00
32.1362 813.00
32.2014 895.00
32.2666 784.00
32.3318 861.00
32.397 802.00
32.4622 790.00
32.5274 861.00
32.5926 850.00
32.6578 808.00
32.723 798.00
32.7882 796.00
32.8534 899.00
32.9186 871.00
32.9838 826.00
33.0489 880.00
33.1141 871.00
33.1793 822.00
33.2445 893.00
33.3097 951.00
33.3749 943.00
33.4401 960.00
33.5053 1020.00
33.5705 1221.00
33.6357 1673.00
33.7009 2532.00
33.7661 3819.00
33.8313 4903.00
33.8965 5067.00
33.9617 5160.00
34.0269 5652.00
34.0921 6546.00
34.1573 5694.00
34.2225 3571.00
34.2877 1990.00
34.3529 1285.00
34.4181 1054.00
34.4833 885.00
34.5485 843.00
34.6137 810.00
34.6789 817.00
34.7441 758.00
34.8093 782.00
34.8745 799.00
34.9397 753.00
35.0049 803.00
35.0701 775.00
35.1353 744.00
35.2005 709.00
35.2657 725.00
35.3309 756.00
35.3961 721.00
35.4613 719.00
35.5265 764.00
35.5917 774.00
35.6569 698.00
35.7221 694.00
35.7873 725.00
35.8525 719.00
35.9177 695.00
35.9829 621.00
36.0481 704.00
36.1133 680.00
36.1785 629.00
36.2437 693.00
36.3089 683.00
36.3741 693.00
36.4393 684.00
36.5045 676.00
36.5697 676.00
36.6349 672.00
36.7001 697.00
36.7653 665.00
36.8305 621.00
36.8957 731.00
36.9609 632.00
37.0261 673.00
37.0913 669.00
37.1565 656.00
37.2217 687.00
37.2869 649.00
37.3521 628.00
37.4173 682.00
37.4825 697.00
37.5477 717.00
37.6129 736.00
37.6781 814.00
37.7433 941.00
37.8085 1254.00
37.8736 1653.00
37.9388 1837.00
38.004 1906.00
38.0692 1923.00
38.1344 2033.00
38.1996 2093.00
38.2648 1692.00
38.33 1339.00
38.3952 929.00
38.4604 796.00
38.5256 690.00
38.5908 671.00
38.656 621.00
38.7212 664.00
38.7864 642.00
38.8516 761.00
38.9168 844.00
38.982 831.00
39.0472 863.00
39.1124 875.00
39.1776 934.00
39.2428 940.00
39.308 768.00
39.3732 693.00
39.4384 616.00
39.5036 582.00
39.5688 623.00
39.634 570.00
39.6992 591.00
39.7644 586.00
39.8296 578.00
39.8948 583.00
39.96 645.00
40.0252 607.00
40.0904 529.00
40.1556 546.00
40.2208 569.00
40.286 582.00
40.3512 583.00
40.4164 557.00
40.4816 574.00
40.5468 529.00
40.612 550.00
40.6772 528.00
40.7424 585.00
40.8076 557.00
40.8728 597.00
40.938 588.00
41.0032 561.00
41.0684 527.00
41.1336 550.00
41.1988 531.00
41.264 526.00
41.3292 516.00
41.3944 589.00
41.4596 560.00
41.5248 578.00
41.59 569.00
41.6552 527.00
41.7204 537.00
41.7856 557.00
41.8508 567.00
41.916 567.00
41.9812 537.00
42.0464 552.00
42.1116 552.00
42.1768 544.00
42.242 509.00
42.3072 541.00
42.3724 533.00
42.4376 524.00
42.5028 539.00
42.568 593.00
42.6332 620.00
42.6983 645.00
42.7635 668.00
42.8287 619.00
42.8939 631.00
42.9591 611.00
43.0243 569.00
43.0895 537.00
43.1547 504.00
43.2199 525.00
43.2851 563.00
43.3503 543.00
43.4155 551.00
43.4807 522.00
43.5459 578.00
43.6111 461.00
43.6763 535.00
43.7415 566.00
43.8067 515.00
43.8719 543.00
43.9371 493.00
44.0023 542.00
44.0675 540.00
44.1327 509.00
44.1979 501.00
44.2631 511.00
44.3283 515.00
44.3935 432.00
44.4587 500.00
44.5239 486.00
44.5891 514.00
44.6543 548.00
44.7195 545.00
44.7847 497.00
44.8499 511.00
44.9151 496.00
44.9803 500.00
45.0455 509.00
45.1107 492.00
45.1759 570.00
45.2411 512.00
45.3063 496.00
45.3715 517.00
45.4367 511.00
45.5019 449.00
45.5671 496.00
45.6323 498.00
45.6975 503.00
45.7627 492.00
45.8279 478.00
45.8931 471.00
45.9583 478.00
46.0235 491.00
46.0887 461.00
46.1539 479.00
46.2191 508.00
46.2843 545.00
46.3495 516.00
46.4147 501.00
46.4799 496.00
46.5451 494.00
46.6103 487.00
46.6755 525.00
46.7407 502.00
46.8059 515.00
46.8711 489.00
46.9363 523.00
47.0015 515.00
47.0667 493.00
47.1319 493.00
47.1971 490.00
47.2623 474.00
47.3275 478.00
47.3927 456.00
47.4579 432.00
47.523 482.00
47.5882 473.00
47.6534 477.00
47.7186 474.00
47.7838 453.00
47.849 487.00
47.9142 490.00
47.9794 496.00
48.0446 484.00
48.1098 487.00
48.175 480.00
48.2402 485.00
48.3054 461.00
48.3706 463.00
48.4358 448.00
48.501 501.00
48.5662 454.00
48.6314 526.00
48.6966 453.00
48.7618 482.00
48.827 450.00
48.8922 442.00
48.9574 459.00
49.0226 395.00
49.0878 482.00
49.153 454.00
49.2182 472.00
49.2834 451.00
49.3486 481.00
49.4138 462.00
49.479 448.00
49.5442 469.00
49.6094 437.00
49.6746 440.00
49.7398 454.00
49.805 470.00
49.8702 474.00
49.9354 474.00
50.0006 481.00
50.0658 427.00
50.131 472.00
50.1962 470.00
50.2614 442.00
50.3266 488.00
50.3918 475.00
50.457 489.00
50.5222 470.00
50.5874 491.00
50.6526 500.00
50.7178 482.00
50.783 468.00
50.8482 518.00
50.9134 512.00
50.9786 534.00
51.0438 551.00
51.109 547.00
51.1742 544.00
51.2394 494.00
51.3046 635.00
51.3698 650.00
51.435 765.00
51.5002 891.00
51.5654 1288.00
51.6306 1962.00
51.6958 3017.00
51.761 3873.00
51.8262 4730.00
51.8914 5527.00
51.9566 6169.00
52.0218 5798.00
52.087 4250.00
52.1522 3192.00
52.2174 1861.00
52.2826 1176.00
52.3477 845.00
52.4129 702.00
52.4781 662.00
52.5433 536.00
52.6085 565.00
52.6737 528.00
52.7389 515.00
52.8041 545.00
52.8693 524.00
52.9345 481.00
52.9997 481.00
53.0649 510.00
53.1301 471.00
53.1953 411.00
53.2605 472.00
53.3257 468.00
53.3909 440.00
53.4561 471.00
53.5213 428.00
53.5865 466.00
53.6517 473.00
53.7169 471.00
53.7821 422.00
53.8473 475.00
53.9125 483.00
53.9777 489.00
54.0429 461.00
54.1081 459.00
54.1733 494.00
54.2385 496.00
54.3037 449.00
54.3689 502.00
54.4341 517.00
54.4993 555.00
54.5645 659.00
54.6297 796.00
54.6949 1101.00
54.7601 1295.00
54.8253 1489.00
54.8905 1752.00
54.9557 1946.00
55.0209 1712.00
55.0861 1290.00
55.1513 1011.00
55.2165 721.00
55.2817 576.00
55.3469 474.00
55.4121 476.00
55.4773 502.00
55.5425 483.00
55.6077 487.00
55.6729 446.00
55.7381 440.00
55.8033 442.00
55.8685 401.00
55.9337 426.00
55.9989 427.00
56.0641 431.00
56.1293 413.00
56.1945 444.00
56.2597 435.00
56.3249 445.00
56.3901 433.00
56.4553 411.00
56.5205 393.00
56.5857 450.00
56.6509 419.00
56.7161 407.00
56.7813 451.00
56.8465 387.00
56.9117 427.00
56.9769 428.00
57.042 412.00
57.1073 436.00
57.1724 461.00
57.2376 417.00
57.3028 459.00
57.368 443.00
57.4332 471.00
57.4984 508.00
57.5636 516.00
57.6288 565.00
57.694 653.00
57.7592 784.00
57.8244 900.00
57.8896 1014.00
57.9548 1112.00
58.02 1129.00
58.0852 1077.00
58.1504 873.00
58.2156 767.00
58.2808 571.00
58.346 505.00
58.4112 476.00
58.4764 437.00
58.5416 418.00
58.6068 429.00
58.672 408.00
58.7372 423.00
58.8024 393.00
58.8676 438.00
58.9328 435.00
58.998 443.00
59.0632 377.00
59.1284 408.00
59.1936 421.00
59.2588 415.00
59.324 391.00
59.3892 431.00
59.4544 396.00
59.5196 430.00
59.5848 451.00
59.65 407.00
59.7152 404.00
59.7804 405.00
59.8456 412.00
59.9108 440.00
59.976 429.00
60.0412 382.00
60.1064 412.00
60.1716 418.00
60.2368 405.00
60.302 422.00
60.3672 409.00
60.4324 380.00
60.4976 395.00
60.5628 437.00
60.628 393.00
60.6932 397.00
60.7584 393.00
60.8236 385.00
60.8888 411.00
60.954 385.00
61.0192 375.00
61.0844 410.00
61.1496 369.00
61.2148 408.00
61.28 398.00
61.3452 403.00
61.4104 461.00
61.4756 434.00
61.5408 496.00
61.606 488.00
61.6712 614.00
61.7364 685.00
61.8016 947.00
61.8667 1075.00
61.932 1401.00
61.9971 1509.00
62.0623 1657.00
62.1275 1546.00
62.1927 1251.00
62.2579 1083.00
62.3231 802.00
62.3883 650.00
62.4535 600.00
62.5187 464.00
62.5839 463.00
62.6491 411.00
62.7143 444.00
62.7795 421.00
62.8447 406.00
62.9099 454.00
62.9751 404.00
63.0403 403.00
63.1055 398.00
63.1707 386.00
63.2359 416.00
63.3011 421.00
63.3663 390.00
63.4315 369.00
63.4967 411.00
63.5619 419.00
63.6271 426.00
63.6923 367.00
63.7575 413.00
63.8227 461.00
63.8879 392.00
63.9531 411.00
64.0183 445.00
64.0835 420.00
64.1487 403.00
64.2139 450.00
64.2791 429.00
64.3443 489.00
64.4095 525.00
64.4747 488.00
64.5399 541.00
64.6051 758.00
64.6703 1058.00
64.7355 1240.00
64.8007 1472.00
64.8659 1718.00
64.9311 1826.00
64.9963 1513.00
65.0615 1275.00
65.1267 1090.00
65.1919 844.00
65.2571 681.00
65.3223 545.00
65.3875 522.00
65.4527 482.00
65.5179 504.00
65.5831 504.00
65.6483 546.00
65.7135 622.00
65.7787 732.00
65.8439 972.00
65.9091 1216.00
65.9743 1457.00
66.0395 1753.00
66.1047 1928.00
66.1699 1880.00
66.2351 1773.00
66.3003 1367.00
66.3655 1146.00
66.4307 948.00
66.4959 721.00
66.561 543.00
66.6263 528.00
66.6915 462.00
66.7566 451.00
66.8218 444.00
66.887 419.00
66.9522 400.00
67.0174 396.00
67.0826 353.00
67.1478 398.00
67.213 370.00
67.2782 395.00
67.3434 377.00
67.4086 375.00
67.4738 374.00
67.539 364.00
67.6042 378.00
67.6694 368.00
67.7346 358.00
67.7998 352.00
67.865 376.00
67.9302 392.00
67.9954 377.00
68.0606 369.00
68.1258 371.00
68.191 363.00
68.2562 392.00
68.3214 382.00
68.3866 378.00
68.4518 373.00
68.517 355.00
68.5822 372.00
68.6474 381.00
68.7126 342.00
68.7778 364.00
68.843 370.00
68.9082 372.00
68.9734 379.00
69.0386 371.00
69.1038 384.00
69.169 378.00
69.2342 377.00
69.2994 364.00
69.3646 390.00
69.4298 363.00
69.495 349.00
69.5602 371.00
69.6254 358.00
69.6906 366.00
69.7558 353.00
69.821 366.00
69.8862 392.00
69.9514 383.00
70.0166 383.00
70.0818 377.00
70.147 351.00
70.2122 366.00
70.2774 377.00
70.3426 359.00
70.4078 346.00
70.473 370.00
70.5382 342.00
70.6034 380.00
70.6686 371.00
70.7338 382.00
70.799 359.00
70.8642 392.00
70.9294 384.00
70.9946 428.00
71.0598 439.00
71.125 528.00
71.1902 662.00
71.2554 762.00
71.3205 861.00
71.3858 1033.00
71.451 1023.00
71.5162 981.00
71.5813 797.00
71.6465 735.00
71.7117 627.00
71.7769 517.00
71.8421 446.00
71.9073 423.00
71.9725 422.00
72.0377 359.00
72.1029 371.00
72.1681 342.00
72.2333 354.00
72.2985 364.00
72.3637 340.00
72.4289 345.00
72.4941 346.00
72.5593 346.00
72.6245 352.00
72.6897 346.00
72.7549 332.00
72.8201 343.00
72.8853 373.00
72.9505 342.00
73.0157 346.00
73.0809 364.00
73.1461 366.00
73.2113 335.00
73.2765 304.00
73.3417 328.00
73.4069 349.00
73.4721 327.00
73.5373 327.00
73.6025 318.00
73.6677 344.00
73.7329 370.00
73.7981 333.00
73.8633 306.00
73.9285 360.00
73.9937 343.00
74.0589 344.00
74.1241 344.00
74.1893 354.00
74.2545 347.00
74.3197 322.00
74.3849 319.00
74.4501 362.00
74.5153 351.00
74.5805 330.00
74.6457 358.00
74.7109 304.00
74.7761 377.00
74.8413 299.00
74.9065 337.00
74.9717 332.00
75.0369 346.00
75.1021 343.00
75.1673 314.00
75.2325 313.00
75.2977 332.00
75.3629 329.00
75.4281 340.00
75.4933 314.00
75.5585 340.00
75.6237 313.00
75.6889 323.00
75.7541 341.00
75.8193 290.00
75.8845 328.00
75.9497 338.00
76.0149 329.00
76.0801 339.00
76.1452 330.00
76.2104 327.00
76.2756 336.00
76.3409 308.00
76.406 314.00
76.4712 337.00
76.5364 348.00
76.6016 335.00
76.6668 342.00
76.732 343.00
76.7972 323.00
76.8624 339.00
76.9276 332.00
76.9928 342.00
77.058 318.00
77.1232 329.00
77.1884 367.00
77.2536 313.00
77.3188 306.00
77.384 338.00
77.4492 380.00
77.5144 320.00
77.5796 318.00
77.6448 339.00
77.71 325.00
77.7752 351.00
77.8404 340.00
77.9056 338.00
77.9708 333.00
78.036 324.00
78.1012 329.00
78.1664 336.00
78.2316 365.00
78.2968 368.00
78.362 391.00
78.4272 428.00
78.4924 504.00
78.5576 620.00
78.6228 799.00
78.688 974.00
78.7532 1139.00
78.8184 1296.00
78.8836 1414.00
78.9488 1299.00
79.014 1056.00
79.0792 968.00
79.1444 865.00
79.2096 664.00
79.2748 540.00
79.34 452.00
79.4052 367.00
79.4704 421.00
79.5356 412.00
79.6008 342.00
79.666 331.00
79.7312 335.00
79.7964 323.00
79.8616 328.00
79.9268 344.00
79.992 332.00
80.0572 315.00
80.1224 288.00
80.1876 345.00
80.2528 351.00
80.318 351.00
80.3832 362.00
80.4484 329.00
80.5136 349.00
80.5788 341.00
80.644 340.00
80.7092 335.00
80.7744 389.00
80.8396 356.00
80.9048 392.00
80.9699 389.00
81.0351 462.00
81.1003 479.00
81.1655 536.00
81.2307 604.00
81.2959 581.00
81.3611 545.00
81.4263 567.00
81.4915 530.00
81.5567 436.00
81.6219 426.00
81.6871 419.00
81.7523 382.00
81.8175 367.00
81.8827 336.00
81.9479 310.00
82.0131 335.00
82.0783 367.00
82.1435 312.00
82.2087 335.00
82.2739 332.00
82.3391 296.00
82.4043 311.00
82.4695 294.00
82.5347 316.00
82.5999 328.00
82.6651 320.00
82.7303 355.00
82.7955 311.00
82.8607 310.00
82.9259 306.00
82.9911 300.00
83.0563 322.00
83.1215 327.00
83.1867 381.00
83.2519 385.00
83.3171 346.00
83.3823 372.00
83.4475 452.00
83.5127 430.00
83.5779 487.00
83.6431 649.00
83.7083 835.00
83.7735 951.00
83.8387 1056.00
83.9039 1048.00
83.9691 941.00
84.0343 804.00
84.0995 674.00
84.1647 655.00
84.2299 567.00
84.2951 523.00
84.3603 399.00
84.4255 383.00
84.4907 368.00
84.5559 339.00
84.6211 299.00
84.6863 318.00
84.7515 299.00
84.8167 313.00
84.8819 299.00
84.9471 329.00
85.0123 311.00
85.0775 319.00
85.1427 297.00
85.2079 324.00
85.2731 313.00
85.3383 307.00
85.4035 281.00
85.4687 336.00
85.5339 334.00
85.5991 293.00
85.6643 334.00
85.7295 321.00
85.7946 295.00
85.8598 332.00
85.925 297.00
85.9903 283.00
86.0554 340.00
86.1206 292.00
86.1858 339.00
86.251 289.00
86.3162 286.00
86.3814 295.00
86.4466 306.00
86.5118 332.00
86.577 309.00
86.6422 324.00
86.7074 356.00
86.7726 314.00
86.8378 299.00
86.903 334.00
86.9682 369.00
87.0334 375.00
87.0986 403.00
87.1638 451.00
87.229 547.00
87.2942 618.00
87.3594 670.00
87.4246 677.00
87.4898 626.00
87.555 561.00
87.6202 498.00
87.6854 518.00
87.7506 441.00
87.8158 371.00
87.881 362.00
87.9462 349.00
88.0114 353.00
88.0766 305.00
88.1418 344.00
88.207 315.00
88.2722 355.00
88.3374 322.00
88.4026 285.00
88.4678 317.00
88.533 287.00
88.5982 300.00
88.6634 305.00
88.7286 334.00
88.7938 320.00
88.859 294.00
88.9242 295.00
88.9894 344.00
89.0546 331.00
89.1198 337.00
89.185 335.00
89.2502 336.00
89.3154 346.00
89.3806 391.00
89.4458 389.00
89.511 473.00
89.5762 564.00
89.6414 569.00
89.7066 786.00
89.7718 882.00
89.837 1042.00
89.9022 1178.00
89.9674 1160.00
90.0326 1053.00
90.0978 953.00
90.163 922.00
90.2282 823.00
90.2934 699.00
90.3586 607.00
90.4238 493.00
90.489 527.00
90.5542 487.00
90.6193 537.00
90.6845 512.00
90.7497 662.00
90.8149 756.00
90.8801 902.00
90.9453 962.00
91.0105 1104.00
91.0757 1117.00
91.1409 1022.00
91.2061 977.00
91.2713 913.00
91.3365 789.00
91.4017 678.00
91.4669 624.00
91.5321 550.00
91.5973 405.00
91.6625 436.00
91.7277 345.00
91.7929 350.00
91.8581 354.00
91.9233 337.00
91.9885 313.00
92.0537 313.00
92.1189 323.00
92.1841 354.00
92.2493 324.00
92.3145 305.00
92.3797 333.00
92.4449 304.00
92.5101 303.00
92.5753 321.00
92.6405 302.00
92.7057 336.00
92.7709 347.00
92.8361 350.00
92.9013 304.00
92.9665 341.00
93.0317 375.00
93.0969 406.00
93.1621 471.00
93.2273 512.00
93.2925 620.00
93.3577 684.00
93.4229 697.00
93.4881 674.00
93.5533 664.00
93.6185 638.00
93.6837 551.00
93.7489 542.00
93.8141 498.00
93.8793 437.00
93.9445 384.00
94.0097 354.00
94.0749 338.00
94.1401 309.00
94.2053 342.00
94.2705 303.00
94.3357 304.00
94.4009 298.00
94.4661 290.00
94.5313 316.00
94.5965 319.00
94.6617 268.00
94.7269 300.00
94.7921 318.00
94.8573 315.00
94.9225 289.00
94.9877 330.00
95.0529 311.00
95.1181 291.00
95.1833 319.00
95.2485 319.00
95.3137 269.00
95.3789 277.00
95.444 325.00
95.5092 312.00
95.5744 324.00
95.6396 363.00
95.7048 332.00
95.77 347.00
95.8352 397.00
95.9004 456.00
95.9656 518.00
96.0308 607.00
96.096 697.00
96.1612 670.00
96.2264 673.00
96.2916 605.00
96.3568 569.00
96.422 543.00
96.4872 512.00
96.5524 499.00
96.6176 391.00
96.6828 362.00
96.748 365.00
96.8132 290.00
96.8784 288.00
96.9436 296.00
97.0088 324.00
97.074 288.00
97.1392 317.00
97.2044 283.00
97.2696 329.00
97.3348 299.00
97.4 312.00
97.4652 327.00
97.5304 325.00
97.5956 296.00
97.6608 289.00
97.726 266.00
97.7912 286.00
97.8564 273.00
97.9216 276.00
97.9868 323.00
98.052 275.00
98.1172 273.00
98.1824 304.00
98.2476 291.00
98.3128 302.00
98.378 312.00
98.4432 298.00
98.5084 281.00
98.5736 293.00
98.6388 275.00
98.704 263.00
98.7692 274.00
98.8344 302.00
98.8996 272.00
98.9648 278.00
99.03 326.00
99.0952 316.00
99.1604 330.00
99.2256 313.00
99.2908 316.00
99.356 327.00
99.4212 287.00
99.4864 324.00
99.5516 303.00
99.6168 297.00
99.682 282.00
99.7472 279.00
99.8124 307.00
99.8776 309.00
99.9428 279.00
100.008 296.00
100.073 297.00
100.095 289.00