File: data/xrd_creation/results/NSC_101.xy
9.903433 2684.00
9.968632 2645.00
10.0338 2634.00
10.099 2628.00
10.1642 2618.00
10.2294 2518.00
10.2946 2586.00
10.3598 2563.00
10.425 2476.00
10.4902 2501.00
10.5554 2367.00
10.6206 2444.00
10.6858 2406.00
10.751 2408.00
10.8162 2286.00
10.8814 2390.00
10.9466 2364.00
11.0118 2378.00
11.077 2279.00
11.1422 2223.00
11.2074 2308.00
11.2726 2311.00
11.3378 2317.00
11.403 2186.00
11.4682 2157.00
11.5334 2173.00
11.5986 2025.00
11.6638 2045.00
11.729 2099.00
11.7942 2014.00
11.8594 2084.00
11.9246 2010.00
11.9898 2041.00
12.055 2106.00
12.1202 2075.00
12.1854 2044.00
12.2506 1934.00
12.3158 1905.00
12.381 2037.00
12.4462 1950.00
12.5114 1979.00
12.5766 1930.00
12.6418 1860.00
12.707 1893.00
12.7722 1806.00
12.8374 1829.00
12.9026 1850.00
12.9678 1852.00
13.033 1816.00
13.0982 1835.00
13.1634 1843.00
13.2286 1853.00
13.2938 1726.00
13.359 1780.00
13.4242 1755.00
13.4894 1692.00
13.5546 1762.00
13.6198 1692.00
13.685 1693.00
13.7502 1753.00
13.8154 1807.00
13.8805 1697.00
13.9457 1677.00
14.0109 1676.00
14.0761 1720.00
14.1413 1804.00
14.2065 1802.00
14.2717 1877.00
14.3369 1864.00
14.4021 1959.00
14.4673 2064.00
14.5325 2231.00
14.5977 2798.00
14.6629 3106.00
14.7281 2249.00
14.7933 1738.00
14.8585 1653.00
14.9237 1581.00
14.9889 1550.00
15.0541 1586.00
15.1193 1646.00
15.1845 1599.00
15.2497 1565.00
15.3149 1521.00
15.3801 1600.00
15.4453 1545.00
15.5105 1620.00
15.5757 1617.00
15.6409 1525.00
15.7061 1520.00
15.7713 1544.00
15.8365 1534.00
15.9017 1489.00
15.9669 1513.00
16.0321 1564.00
16.0973 1420.00
16.1625 1515.00
16.2277 1478.00
16.2929 1481.00
16.3581 1526.00
16.4233 1458.00
16.4885 1452.00
16.5537 1506.00
16.6189 1464.00
16.6841 1477.00
16.7493 1407.00
16.8145 1403.00
16.8797 1423.00
16.9449 1457.00
17.0101 1484.00
17.0753 1458.00
17.1405 1412.00
17.2057 1482.00
17.2709 1455.00
17.3361 1403.00
17.4013 1447.00
17.4665 1490.00
17.5317 1442.00
17.5969 1461.00
17.6621 1393.00
17.7273 1444.00
17.7925 1390.00
17.8577 1382.00
17.9229 1381.00
17.9881 1341.00
18.0533 1352.00
18.1185 1414.00
18.1837 1410.00
18.2489 1418.00
18.3141 1357.00
18.3793 1328.00
18.4445 1361.00
18.5097 1271.00
18.5749 1354.00
18.6401 1303.00
18.7052 1286.00
18.7704 1316.00
18.8356 1376.00
18.9008 1295.00
18.966 1334.00
19.0312 1303.00
19.0964 1272.00
19.1616 1370.00
19.2268 1334.00
19.292 1350.00
19.3572 1356.00
19.4224 1346.00
19.4876 1394.00
19.5528 1413.00
19.618 1473.00
19.6832 1619.00
19.7484 1795.00
19.8136 2022.00
19.8788 2109.00
19.944 2503.00
20.0092 3417.00
20.0744 5499.00
20.1396 7749.00
20.2048 4822.00
20.27 1961.00
20.3352 1508.00
20.4004 1491.00
20.4656 1429.00
20.5308 1462.00
20.596 1519.00
20.6612 1643.00
20.7264 1737.00
20.7916 1981.00
20.8568 2155.00
20.922 2436.00
20.9872 3174.00
21.0524 4803.00
21.1176 7551.00
21.1828 8766.00
21.248 4248.00
21.3132 1770.00
21.3784 1440.00
21.4436 1347.00
21.5088 1397.00
21.574 1279.00
21.6392 1222.00
21.7044 1250.00
21.7696 1221.00
21.8348 1291.00
21.9 1158.00
21.9652 1168.00
22.0304 1174.00
22.0956 1183.00
22.1608 1147.00
22.226 1155.00
22.2912 1121.00
22.3564 1215.00
22.4216 1118.00
22.4868 1083.00
22.552 1183.00
22.6172 1069.00
22.6824 1128.00
22.7476 1037.00
22.8128 1100.00
22.878 1160.00
22.9432 1050.00
23.0084 1081.00
23.0736 1100.00
23.1388 1086.00
23.204 1093.00
23.2692 1109.00
23.3344 1092.00
23.3996 1141.00
23.4647 1149.00
23.5299 1125.00
23.5951 1136.00
23.6603 1210.00
23.7255 1140.00
23.7907 1237.00
23.8559 1342.00
23.9211 1436.00
23.9863 1562.00
24.0515 1609.00
24.1167 1779.00
24.1819 2467.00
24.2471 3763.00
24.3123 5731.00
24.3775 4558.00
24.4427 1973.00
24.5079 1279.00
24.5731 1163.00
24.6383 1065.00
24.7035 1059.00
24.7687 1049.00
24.8339 987.00
24.8991 1065.00
24.9643 1027.00
25.0295 971.00
25.0947 1037.00
25.1599 927.00
25.2251 970.00
25.2903 964.00
25.3555 1021.00
25.4207 963.00
25.4859 981.00
25.5511 977.00
25.6163 979.00
25.6815 909.00
25.7467 957.00
25.8119 988.00
25.8771 933.00
25.9423 952.00
26.0075 977.00
26.0727 931.00
26.1379 948.00
26.2031 996.00
26.2683 989.00
26.3335 988.00
26.3987 999.00
26.4639 1069.00
26.5291 1084.00
26.5943 1138.00
26.6595 1171.00
26.7247 1381.00
26.7899 1972.00
26.8551 2896.00
26.9203 2907.00
26.9855 1830.00
27.0507 1105.00
27.1159 989.00
27.1811 920.00
27.2463 965.00
27.3115 969.00
27.3767 930.00
27.4419 876.00
27.5071 926.00
27.5723 906.00
27.6375 779.00
27.7027 845.00
27.7679 794.00
27.8331 845.00
27.8983 867.00
27.9635 887.00
28.0287 864.00
28.0939 782.00
28.1591 883.00
28.2243 838.00
28.2894 908.00
28.3546 871.00
28.4198 892.00
28.485 868.00
28.5502 864.00
28.6154 903.00
28.6806 921.00
28.7458 874.00
28.811 1070.00
28.8762 1138.00
28.9414 1258.00
29.0066 1398.00
29.0718 1894.00
29.137 3048.00
29.2022 5276.00
29.2674 5707.00
29.3326 3042.00
29.3978 1259.00
29.463 967.00
29.5282 988.00
29.5934 906.00
29.6586 901.00
29.7238 812.00
29.789 791.00
29.8542 800.00
29.9194 804.00
29.9846 800.00
30.0498 854.00
30.115 765.00
30.1802 810.00
30.2454 801.00
30.3106 817.00
30.3758 806.00
30.441 755.00
30.5062 792.00
30.5714 788.00
30.6366 760.00
30.7018 757.00
30.767 781.00
30.8322 842.00
30.8974 798.00
30.9626 734.00
31.0278 769.00
31.093 805.00
31.1582 832.00
31.2234 787.00
31.2886 799.00
31.3538 855.00
31.419 802.00
31.4842 868.00
31.5494 907.00
31.6146 936.00
31.6798 1151.00
31.745 1236.00
31.8102 1497.00
31.8754 1948.00
31.9406 3003.00
32.0058 6031.00
32.071 9345.00
32.1362 6433.00
32.2014 2905.00
32.2666 1270.00
32.3318 995.00
32.397 919.00
32.4622 982.00
32.5274 1071.00
32.5926 1305.00
32.6578 1489.00
32.723 1238.00
32.7882 904.00
32.8534 744.00
32.9186 783.00
32.9838 814.00
33.0489 749.00
33.1141 690.00
33.1793 763.00
33.2445 751.00
33.3097 765.00
33.3749 811.00
33.4401 757.00
33.5053 756.00
33.5705 714.00
33.6357 729.00
33.7009 725.00
33.7661 824.00
33.8313 869.00
33.8965 852.00
33.9617 936.00
34.0269 1156.00
34.0921 1918.00
34.1573 2643.00
34.2225 2310.00
34.2877 1603.00
34.3529 1277.00
34.4181 1159.00
34.4833 921.00
34.5485 705.00
34.6137 714.00
34.6789 745.00
34.7441 726.00
34.8093 668.00
34.8745 666.00
34.9397 689.00
35.0049 660.00
35.0701 672.00
35.1353 697.00
35.2005 601.00
35.2657 677.00
35.3309 678.00
35.3961 678.00
35.4613 611.00
35.5265 666.00
35.5917 698.00
35.6569 655.00
35.7221 661.00
35.7873 677.00
35.8525 783.00
35.9177 850.00
35.9829 867.00
36.0481 1022.00
36.1133 1468.00
36.1785 2453.00
36.2437 3384.00
36.3089 2390.00
36.3741 1591.00
36.4393 926.00
36.5045 919.00
36.5697 980.00
36.6349 1172.00
36.7001 1670.00
36.7653 2981.00
36.8305 4394.00
36.8957 3586.00
36.9609 2279.00
37.0261 1020.00
37.0913 803.00
37.1565 729.00
37.2217 636.00
37.2869 687.00
37.3521 691.00
37.4173 592.00
37.4825 614.00
37.5477 607.00
37.6129 568.00
37.6781 644.00
37.7433 610.00
37.8085 654.00
37.8736 661.00
37.9388 596.00
38.004 630.00
38.0692 751.00
38.1344 799.00
38.1996 1034.00
38.2648 1169.00
38.33 934.00
38.3952 754.00
38.4604 655.00
38.5256 632.00
38.5908 662.00
38.656 629.00
38.7212 731.00
38.7864 835.00
38.8516 836.00
38.9168 727.00
38.982 621.00
39.0472 598.00
39.1124 580.00
39.1776 647.00
39.2428 705.00
39.308 666.00
39.3732 604.00
39.4384 564.00
39.5036 592.00
39.5688 582.00
39.634 554.00
39.6992 556.00
39.7644 552.00
39.8296 595.00
39.8948 588.00
39.96 523.00
40.0252 552.00
40.0904 573.00
40.1556 583.00
40.2208 594.00
40.286 580.00
40.3512 567.00
40.4164 633.00
40.4816 793.00
40.5468 1083.00
40.612 1170.00
40.6772 917.00
40.7424 723.00
40.8076 552.00
40.8728 545.00
40.938 540.00
41.0032 515.00
41.0684 540.00
41.1336 547.00
41.1988 535.00
41.264 530.00
41.3292 535.00
41.3944 546.00
41.4596 532.00
41.5248 546.00
41.59 572.00
41.6552 542.00
41.7204 541.00
41.7856 506.00
41.8508 552.00
41.916 597.00
41.9812 610.00
42.0464 777.00
42.1116 1038.00
42.1768 1303.00
42.242 1414.00
42.3072 1118.00
42.3724 828.00
42.4376 680.00
42.5028 610.00
42.568 681.00
42.6332 855.00
42.6983 1162.00
42.7635 1394.00
42.8287 1088.00
42.8939 891.00
42.9591 682.00
43.0243 622.00
43.0895 570.00
43.1547 670.00
43.2199 723.00
43.2851 630.00
43.3503 609.00
43.4155 520.00
43.4807 511.00
43.5459 508.00
43.6111 519.00
43.6763 476.00
43.7415 499.00
43.8067 559.00
43.8719 529.00
43.9371 578.00
44.0023 530.00
44.0675 633.00
44.1327 772.00
44.1979 942.00
44.2631 1675.00
44.3283 2034.00
44.3935 1420.00
44.4587 1195.00
44.5239 782.00
44.5891 651.00
44.6543 599.00
44.7195 529.00
44.7847 593.00
44.8499 540.00
44.9151 524.00
44.9803 470.00
45.0455 509.00
45.1107 518.00
45.1759 546.00
45.2411 681.00
45.3063 762.00
45.3715 749.00
45.4367 616.00
45.5019 570.00
45.5671 566.00
45.6323 490.00
45.6975 514.00
45.7627 536.00
45.8279 629.00
45.8931 679.00
45.9583 876.00
46.0235 1409.00
46.0887 2226.00
46.1539 1592.00
46.2191 1384.00
46.2843 737.00
46.3495 594.00
46.4147 533.00
46.4799 491.00
46.5451 536.00
46.6103 479.00
46.6755 477.00
46.7407 500.00
46.8059 526.00
46.8711 513.00
46.9363 445.00
47.0015 520.00
47.0667 519.00
47.1319 509.00
47.1971 617.00
47.2623 624.00
47.3275 742.00
47.3927 938.00
47.4579 1439.00
47.523 2795.00
47.5882 3031.00
47.6534 2204.00
47.7186 1636.00
47.7838 928.00
47.849 651.00
47.9142 589.00
47.9794 523.00
48.0446 494.00
48.1098 520.00
48.175 510.00
48.2402 523.00
48.3054 428.00
48.3706 471.00
48.4358 488.00
48.501 495.00
48.5662 519.00
48.6314 494.00
48.6966 592.00
48.7618 674.00
48.827 649.00
48.8922 602.00
48.9574 531.00
49.0226 579.00
49.0878 589.00
49.153 635.00
49.2182 736.00
49.2834 813.00
49.3486 1281.00
49.4138 2344.00
49.479 3225.00
49.5442 2408.00
49.6094 2132.00
49.6746 1107.00
49.7398 612.00
49.805 524.00
49.8702 537.00
49.9354 516.00
50.0006 480.00
50.0658 477.00
50.131 427.00
50.1962 465.00
50.2614 507.00
50.3266 614.00
50.3918 742.00
50.457 787.00
50.5222 666.00
50.5874 579.00
50.6526 483.00
50.7178 522.00
50.783 460.00
50.8482 431.00
50.9134 448.00
50.9786 463.00
51.0438 469.00
51.109 434.00
51.1742 458.00
51.2394 450.00
51.3046 408.00
51.3698 409.00
51.435 447.00
51.5002 435.00
51.5654 487.00
51.6306 535.00
51.6958 512.00
51.761 532.00
51.8262 602.00
51.8914 762.00
51.9566 1200.00
52.0218 2037.00
52.087 2006.00
52.1522 1595.00
52.2174 1434.00
52.2826 966.00
52.3477 1162.00
52.4129 2095.00
52.4781 3236.00
52.5433 2517.00
52.6085 2159.00
52.6737 1382.00
52.7389 700.00
52.8041 603.00
52.8693 483.00
52.9345 470.00
52.9997 485.00
53.0649 465.00
53.1301 463.00
53.1953 486.00
53.2605 575.00
53.3257 709.00
53.3909 588.00
53.4561 594.00
53.5213 530.00
53.5865 417.00
53.6517 434.00
53.7169 428.00
53.7821 436.00
53.8473 412.00
53.9125 399.00
53.9777 409.00
54.0429 427.00
54.1081 402.00
54.1733 421.00
54.2385 436.00
54.3037 395.00
54.3689 369.00
54.4341 423.00
54.4993 462.00
54.5645 445.00
54.6297 533.00
54.6949 491.00
54.7601 528.00
54.8253 497.00
54.8905 512.00
54.9557 648.00
55.0209 791.00
55.0861 713.00
55.1513 706.00
55.2165 631.00
55.2817 480.00
55.3469 496.00
55.4121 449.00
55.4773 427.00
55.5425 477.00
55.6077 535.00
55.6729 609.00
55.7381 1025.00
55.8033 1334.00
55.8685 967.00
55.9337 941.00
55.9989 764.00
56.0641 496.00
56.1293 485.00
56.1945 434.00
56.2597 422.00
56.3249 466.00
56.3901 448.00
56.4553 451.00
56.5205 422.00
56.5857 442.00
56.6509 433.00
56.7161 498.00
56.7813 506.00
56.8465 575.00
56.9117 719.00
56.9769 1013.00
57.042 1662.00
57.1073 1747.00
57.1724 1374.00
57.2376 1361.00
57.3028 1154.00
57.368 1185.00
57.4332 1782.00
57.4984 2560.00
57.5636 2241.00
57.6288 1665.00
57.694 1371.00
57.7592 867.00
57.8244 575.00
57.8896 521.00
57.9548 497.00
58.02 570.00
58.0852 607.00
58.1504 543.00
58.2156 503.00
58.2808 527.00
58.346 499.00
58.4112 445.00
58.4764 524.00
58.5416 551.00
58.6068 492.00
58.672 482.00
58.7372 489.00
58.8024 562.00
58.8676 716.00
58.9328 942.00
58.998 1119.00
59.0632 966.00
59.1284 830.00
59.1936 652.00
59.2588 557.00
59.324 398.00
59.3892 415.00
59.4544 437.00
59.5196 428.00
59.5848 377.00
59.65 375.00
59.7152 389.00
59.7804 400.00
59.8456 417.00
59.9108 432.00
59.976 437.00
60.0412 423.00
60.1064 508.00
60.1716 634.00
60.2368 735.00
60.302 575.00
60.3672 543.00
60.4324 564.00
60.4976 423.00
60.5628 383.00
60.628 422.00
60.6932 366.00
60.7584 386.00
60.8236 401.00
60.8888 410.00
60.954 426.00
61.0192 417.00
61.0844 414.00
61.1496 491.00
61.2148 534.00
61.28 562.00
61.3452 735.00
61.4104 1461.00
61.4756 2066.00
61.5408 1308.00
61.606 1235.00
61.6712 1066.00
61.7364 666.00
61.8016 472.00
61.8667 495.00
61.932 461.00
61.9971 501.00
62.0623 546.00
62.1275 750.00
62.1927 765.00
62.2579 640.00
62.3231 634.00
62.3883 581.00
62.4535 644.00
62.5187 579.00
62.5839 523.00
62.6491 578.00
62.7143 549.00
62.7795 510.00
62.8447 614.00
62.9099 752.00
62.9751 1083.00
63.0403 1862.00
63.1055 2170.00
63.1707 1598.00
63.2359 1877.00
63.3011 1693.00
63.3663 1200.00
63.4315 1003.00
63.4967 831.00
63.5619 620.00
63.6271 537.00
63.6923 503.00
63.7575 430.00
63.8227 394.00
63.8879 407.00
63.9531 385.00
64.0183 401.00
64.0835 403.00
64.1487 386.00
64.2139 393.00
64.2791 398.00
64.3443 434.00
64.4095 481.00
64.4747 582.00
64.5399 527.00
64.6051 564.00
64.6703 549.00
64.7355 470.00
64.8007 469.00
64.8659 512.00
64.9311 597.00
64.9963 797.00
65.0615 629.00
65.1267 579.00
65.1919 596.00
65.2571 523.00
65.3223 490.00
65.3875 437.00
65.4527 539.00
65.5179 661.00
65.5831 944.00
65.6483 1330.00
65.7135 1310.00
65.7787 1053.00
65.8439 1031.00
65.9091 929.00
65.9743 976.00
66.0395 1164.00
66.1047 1165.00
66.1699 1126.00
66.2351 1255.00
66.3003 981.00
66.3655 820.00
66.4307 708.00
66.4959 578.00
66.561 450.00
66.6263 431.00
66.6915 414.00
66.7566 388.00
66.8218 377.00
66.887 419.00
66.9522 392.00
67.0174 384.00
67.0826 391.00
67.1478 415.00
67.213 497.00
67.2782 554.00
67.3434 893.00
67.4086 1198.00
67.4738 1073.00
67.539 874.00
67.6042 915.00
67.6694 721.00
67.7346 529.00
67.7998 463.00
67.865 453.00
67.9302 460.00
67.9954 475.00
68.0606 459.00
68.1258 431.00
68.191 379.00
68.2562 388.00
68.3214 373.00
68.3866 346.00
68.4518 365.00
68.517 344.00
68.5822 382.00
68.6474 344.00
68.7126 343.00
68.7778 361.00
68.843 363.00
68.9082 345.00
68.9734 393.00
69.0386 375.00
69.1038 387.00
69.169 392.00
69.2342 325.00
69.2994 372.00
69.3646 401.00
69.4298 398.00
69.495 444.00
69.5602 566.00
69.6254 779.00
69.6906 1199.00
69.7558 1308.00
69.821 975.00
69.8862 884.00
69.9514 864.00
70.0166 576.00
70.0818 438.00
70.147 375.00
70.2122 357.00
70.2774 360.00
70.3426 366.00
70.4078 351.00
70.473 378.00
70.5382 316.00
70.6034 363.00
70.6686 323.00
70.7338 329.00
70.799 348.00
70.8642 350.00
70.9294 380.00
70.9946 434.00
71.0598 427.00
71.125 509.00
71.1902 565.00
71.2554 595.00
71.3205 534.00
71.3858 523.00
71.451 590.00
71.5162 680.00
71.5813 610.00
71.6465 544.00
71.7117 484.00
71.7769 506.00
71.8421 400.00
71.9073 441.00
71.9725 433.00
72.0377 423.00
72.1029 394.00
72.1681 414.00
72.2333 406.00
72.2985 397.00
72.3637 376.00
72.4289 393.00
72.4941 387.00
72.5593 348.00
72.6245 354.00
72.6897 396.00
72.7549 386.00
72.8201 348.00
72.8853 368.00
72.9505 359.00
73.0157 327.00
73.0809 347.00
73.1461 344.00
73.2113 359.00
73.2765 340.00
73.3417 363.00
73.4069 385.00
73.4721 437.00
73.5373 556.00
73.6025 776.00
73.6677 1001.00
73.7329 924.00
73.7981 747.00
73.8633 687.00
73.9285 645.00
73.9937 492.00
74.0589 425.00
74.1241 368.00
74.1893 357.00
74.2545 386.00
74.3197 371.00
74.3849 406.00
74.4501 409.00
74.5153 333.00
74.5805 360.00
74.6457 359.00
74.7109 350.00
74.7761 374.00
74.8413 356.00
74.9065 363.00
74.9717 412.00
75.0369 364.00
75.1021 408.00
75.1673 477.00
75.2325 504.00
75.2977 723.00
75.3629 872.00
75.4281 727.00
75.4933 621.00
75.5585 643.00
75.6237 557.00
75.6889 468.00
75.7541 461.00
75.8193 467.00
75.8845 523.00
75.9497 493.00
76.0149 469.00
76.0801 444.00
76.1452 494.00
76.2104 529.00
76.2756 494.00
76.3409 505.00
76.406 553.00
76.4712 514.00
76.5364 470.00
76.6016 422.00
76.6668 412.00
76.732 400.00
76.7972 365.00
76.8624 312.00
76.9276 359.00
76.9928 310.00
77.058 342.00
77.1232 322.00
77.1884 305.00
77.2536 304.00
77.3188 346.00
77.384 344.00
77.4492 345.00
77.5144 425.00
77.5796 479.00
77.6448 469.00
77.71 439.00
77.7752 480.00
77.8404 607.00
77.9056 740.00
77.9708 748.00
78.036 606.00
78.1012 564.00
78.1664 594.00
78.2316 604.00
78.2968 498.00
78.362 394.00
78.4272 424.00
78.4924 412.00
78.5576 374.00
78.6228 363.00
78.688 389.00
78.7532 395.00
78.8184 410.00
78.8836 488.00
78.9488 621.00
79.014 552.00
79.0792 431.00
79.1444 583.00
79.2096 607.00
79.2748 534.00
79.34 474.00
79.4052 435.00
79.4704 426.00
79.5356 395.00
79.6008 428.00
79.666 410.00
79.7312 450.00
79.7964 409.00
79.8616 426.00
79.9268 405.00
79.992 397.00
80.0572 396.00
80.1224 421.00
80.1876 368.00
80.2528 358.00
80.318 385.00
80.3832 420.00
80.4484 394.00
80.5136 378.00
80.5788 381.00
80.644 364.00
80.7092 330.00
80.7744 359.00
80.8396 316.00
80.9048 327.00
80.9699 358.00
81.0351 354.00
81.1003 379.00
81.1655 409.00
81.2307 491.00
81.2959 634.00
81.3611 816.00
81.4263 790.00
81.4915 626.00
81.5567 680.00
81.6219 727.00
81.6871 806.00
81.7523 694.00
81.8175 591.00
81.8827 540.00
81.9479 485.00
82.0131 516.00
82.0783 374.00
82.1435 376.00
82.2087 352.00
82.2739 318.00
82.3391 360.00
82.4043 336.00
82.4695 372.00
82.5347 373.00
82.5999 368.00
82.6651 384.00
82.7303 436.00
82.7955 560.00
82.8607 530.00
82.9259 724.00
82.9911 951.00
83.0563 937.00
83.1215 705.00
83.1867 603.00
83.2519 679.00
83.3171 530.00
83.3823 466.00
83.4475 382.00
83.5127 366.00
83.5779 422.00
83.6431 350.00
83.7083 397.00
83.7735 384.00
83.8387 461.00
83.9039 521.00
83.9691 468.00
84.0343 416.00
84.0995 371.00
84.1647 475.00
84.2299 468.00
84.2951 349.00
84.3603 363.00
84.4255 376.00
84.4907 325.00
84.5559 340.00
84.6211 330.00
84.6863 337.00
84.7515 333.00
84.8167 298.00
84.8819 315.00
84.9471 325.00
85.0123 341.00
85.0775 425.00
85.1427 418.00
85.2079 460.00
85.2731 360.00
85.3383 366.00
85.4035 401.00
85.4687 378.00
85.5339 376.00
85.5991 328.00
85.6643 326.00
85.7295 320.00
85.7946 308.00
85.8598 342.00
85.925 348.00
85.9903 390.00
86.0554 406.00
86.1206 387.00
86.1858 345.00
86.251 333.00
86.3162 404.00
86.3814 426.00
86.4466 528.00
86.5118 639.00
86.577 756.00
86.6422 733.00
86.7074 656.00
86.7726 569.00
86.8378 561.00
86.903 578.00
86.9682 471.00
87.0334 353.00
87.0986 392.00
87.1638 337.00
87.229 353.00
87.2942 408.00
87.3594 388.00
87.4246 485.00
87.4898 489.00
87.555 493.00
87.6202 584.00
87.6854 690.00
87.7506 791.00
87.8158 916.00
87.881 914.00
87.9462 783.00
88.0114 673.00
88.0766 670.00
88.1418 564.00
88.207 526.00
88.2722 405.00
88.3374 414.00
88.4026 361.00
88.4678 357.00
88.533 316.00
88.5982 338.00
88.6634 359.00
88.7286 398.00
88.7938 401.00
88.859 440.00
88.9242 483.00
88.9894 454.00
89.0546 432.00
89.1198 408.00
89.185 420.00
89.2502 375.00
89.3154 375.00
89.3806 377.00
89.4458 362.00
89.511 353.00
89.5762 327.00
89.6414 351.00
89.7066 362.00
89.7718 354.00
89.837 378.00
89.9022 422.00
89.9674 502.00
90.0326 536.00
90.0978 477.00
90.163 454.00
90.2282 424.00
90.2934 453.00
90.3586 427.00
90.4238 457.00
90.489 506.00
90.5542 567.00
90.6193 492.00
90.6845 423.00
90.7497 419.00
90.8149 465.00
90.8801 467.00
90.9453 490.00
91.0105 500.00
91.0757 645.00
91.1409 611.00
91.2061 516.00
91.2713 480.00
91.3365 482.00
91.4017 512.00
91.4669 527.00
91.5321 449.00
91.5973 477.00
91.6625 406.00
91.7277 433.00
91.7929 376.00
91.8581 403.00
91.9233 415.00
91.9885 385.00
92.0537 362.00
92.1189 354.00
92.1841 327.00
92.2493 322.00
92.3145 346.00
92.3797 387.00
92.4449 424.00
92.5101 481.00
92.5753 641.00
92.6405 793.00
92.7057 840.00
92.7709 687.00
92.8361 581.00
92.9013 636.00
92.9665 679.00
93.0317 620.00
93.0969 527.00
93.1621 443.00
93.2273 388.00
93.2925 393.00
93.3577 441.00
93.4229 429.00
93.4881 436.00
93.5533 387.00
93.6185 363.00
93.6837 388.00
93.7489 359.00
93.8141 399.00
93.8793 385.00
93.9445 332.00
94.0097 352.00
94.0749 354.00
94.1401 473.00
94.2053 497.00
94.2705 596.00
94.3357 577.00
94.4009 447.00
94.4661 414.00
94.5313 439.00
94.5965 469.00
94.6617 490.00
94.7269 379.00
94.7921 357.00
94.8573 383.00
94.9225 348.00
94.9877 411.00
95.0529 376.00
95.1181 347.00
95.1833 436.00
95.2485 494.00
95.3137 533.00
95.3789 588.00
95.444 571.00
95.5092 466.00
95.5744 463.00
95.6396 490.00
95.7048 483.00
95.77 491.00
95.8352 423.00
95.9004 371.00
95.9656 380.00
96.0308 379.00
96.096 401.00
96.1612 439.00
96.2264 475.00
96.2916 440.00
96.3568 469.00
96.422 567.00
96.4872 538.00
96.5524 492.00
96.6176 395.00
96.6828 393.00
96.748 426.00
96.8132 397.00
96.8784 307.00
96.9436 357.00
97.0088 334.00
97.074 360.00
97.1392 343.00
97.2044 353.00
97.2696 381.00
97.3348 300.00
97.4 361.00
97.4652 318.00
97.5304 351.00
97.5956 374.00
97.6608 362.00
97.726 398.00
97.7912 462.00
97.8564 519.00
97.9216 618.00
97.9868 722.00
98.052 859.00
98.1172 745.00
98.1824 566.00
98.2476 480.00
98.3128 563.00
98.378 537.00
98.4432 533.00
98.5084 421.00
98.5736 431.00
98.6388 367.00
98.704 371.00
98.7692 341.00
98.8344 343.00
98.8996 345.00
98.9648 344.00
99.03 323.00
99.0952 332.00
99.1604 323.00
99.2256 308.00
99.2908 326.00
99.356 311.00
99.4212 303.00
99.4864 313.00
99.5516 274.00
99.6168 340.00
99.682 321.00
99.7472 297.00
99.8124 335.00
99.8776 350.00
99.9428 383.00
100.008 421.00
100.073 544.00
100.095 559.00