File: data/xrd_creation/results/NSC_16.xy
9.903433 2823.00
9.968632 2736.00
10.0338 2716.00
10.099 2637.00
10.1642 2671.00
10.2294 2657.00
10.2946 2664.00
10.3598 2603.00
10.425 2615.00
10.4902 2542.00
10.5554 2565.00
10.6206 2529.00
10.6858 2517.00
10.751 2407.00
10.8162 2475.00
10.8814 2397.00
10.9466 2354.00
11.0118 2356.00
11.077 2397.00
11.1422 2336.00
11.2074 2328.00
11.2726 2273.00
11.3378 2270.00
11.403 2269.00
11.4682 2264.00
11.5334 2259.00
11.5986 2259.00
11.6638 2222.00
11.729 2212.00
11.7942 2187.00
11.8594 2095.00
11.9246 2158.00
11.9898 2088.00
12.055 2048.00
12.1202 2059.00
12.1854 2103.00
12.2506 2042.00
12.3158 2117.00
12.381 1987.00
12.4462 2125.00
12.5114 1966.00
12.5766 1977.00
12.6418 1912.00
12.707 1920.00
12.7722 1956.00
12.8374 1963.00
12.9026 1836.00
12.9678 1883.00
13.033 1901.00
13.0982 1866.00
13.1634 1809.00
13.2286 1849.00
13.2938 1862.00
13.359 1853.00
13.4242 1869.00
13.4894 1776.00
13.5546 1810.00
13.6198 1851.00
13.685 1704.00
13.7502 1803.00
13.8154 1823.00
13.8805 1694.00
13.9457 1790.00
14.0109 1707.00
14.0761 1798.00
14.1413 1681.00
14.2065 1733.00
14.2717 1793.00
14.3369 1711.00
14.4021 1762.00
14.4673 1719.00
14.5325 1940.00
14.5977 1801.00
14.6629 1831.00
14.7281 1743.00
14.7933 1681.00
14.8585 1695.00
14.9237 1628.00
14.9889 1575.00
15.0541 1619.00
15.1193 1653.00
15.1845 1693.00
15.2497 1588.00
15.3149 1627.00
15.3801 1583.00
15.4453 1572.00
15.5105 1606.00
15.5757 1570.00
15.6409 1536.00
15.7061 1570.00
15.7713 1460.00
15.8365 1584.00
15.9017 1540.00
15.9669 1582.00
16.0321 1576.00
16.0973 1519.00
16.1625 1537.00
16.2277 1577.00
16.2929 1530.00
16.3581 1500.00
16.4233 1515.00
16.4885 1536.00
16.5537 1526.00
16.6189 1602.00
16.6841 1607.00
16.7493 1537.00
16.8145 1596.00
16.8797 1480.00
16.9449 1524.00
17.0101 1448.00
17.0753 1516.00
17.1405 1470.00
17.2057 1508.00
17.2709 1560.00
17.3361 1581.00
17.4013 1479.00
17.4665 1521.00
17.5317 1453.00
17.5969 1359.00
17.6621 1370.00
17.7273 1459.00
17.7925 1352.00
17.8577 1438.00
17.9229 1473.00
17.9881 1459.00
18.0533 1328.00
18.1185 1406.00
18.1837 1317.00
18.2489 1336.00
18.3141 1350.00
18.3793 1316.00
18.4445 1290.00
18.5097 1315.00
18.5749 1288.00
18.6401 1290.00
18.7052 1393.00
18.7704 1274.00
18.8356 1343.00
18.9008 1379.00
18.966 1335.00
19.0312 1214.00
19.0964 1425.00
19.1616 1477.00
19.2268 1656.00
19.292 1667.00
19.3572 1590.00
19.4224 1644.00
19.4876 1445.00
19.5528 1438.00
19.618 1348.00
19.6832 1298.00
19.7484 1262.00
19.8136 1261.00
19.8788 1247.00
19.944 1203.00
20.0092 1212.00
20.0744 1240.00
20.1396 1233.00
20.2048 1249.00
20.27 1209.00
20.3352 1197.00
20.4004 1195.00
20.4656 1301.00
20.5308 1361.00
20.596 1363.00
20.6612 1308.00
20.7264 1292.00
20.7916 1405.00
20.8568 1414.00
20.922 1384.00
20.9872 1376.00
21.0524 1376.00
21.1176 1386.00
21.1828 1362.00
21.248 1377.00
21.3132 1298.00
21.3784 1322.00
21.4436 1212.00
21.5088 1253.00
21.574 1187.00
21.6392 1181.00
21.7044 1196.00
21.7696 1180.00
21.8348 1255.00
21.9 1208.00
21.9652 1174.00
22.0304 1183.00
22.0956 1305.00
22.1608 1237.00
22.226 1436.00
22.2912 1359.00
22.3564 1249.00
22.4216 1202.00
22.4868 1116.00
22.552 1221.00
22.6172 1120.00
22.6824 1156.00
22.7476 1146.00
22.8128 1067.00
22.878 1136.00
22.9432 1167.00
23.0084 1081.00
23.0736 1107.00
23.1388 1050.00
23.204 1081.00
23.2692 1123.00
23.3344 1043.00
23.3996 1112.00
23.4647 1138.00
23.5299 1048.00
23.5951 1096.00
23.6603 1079.00
23.7255 1093.00
23.7907 1159.00
23.8559 1274.00
23.9211 1422.00
23.9863 1493.00
24.0515 1359.00
24.1167 1177.00
24.1819 1189.00
24.2471 1113.00
24.3123 1278.00
24.3775 1325.00
24.4427 1352.00
24.5079 1180.00
24.5731 1108.00
24.6383 1088.00
24.7035 1044.00
24.7687 1006.00
24.8339 1087.00
24.8991 1071.00
24.9643 1035.00
25.0295 1037.00
25.0947 1009.00
25.1599 1009.00
25.2251 967.00
25.2903 1001.00
25.3555 1061.00
25.4207 1103.00
25.4859 1084.00
25.5511 1080.00
25.6163 1095.00
25.6815 1024.00
25.7467 1035.00
25.8119 1043.00
25.8771 965.00
25.9423 953.00
26.0075 936.00
26.0727 963.00
26.1379 960.00
26.2031 995.00
26.2683 1016.00
26.3335 948.00
26.3987 917.00
26.4639 902.00
26.5291 954.00
26.5943 986.00
26.6595 1003.00
26.7247 1055.00
26.7899 1085.00
26.8551 1083.00
26.9203 1051.00
26.9855 1023.00
27.0507 971.00
27.1159 958.00
27.1811 1006.00
27.2463 938.00
27.3115 1016.00
27.3767 961.00
27.4419 1079.00
27.5071 1067.00
27.5723 1097.00
27.6375 1087.00
27.7027 1078.00
27.7679 1102.00
27.8331 1193.00
27.8983 1357.00
27.9635 1879.00
28.0287 2726.00
28.0939 3441.00
28.1591 3314.00
28.2243 2402.00
28.2894 1806.00
28.3546 1395.00
28.4198 1198.00
28.485 1101.00
28.5502 1002.00
28.6154 927.00
28.6806 975.00
28.7458 965.00
28.811 918.00
28.8762 907.00
28.9414 909.00
29.0066 890.00
29.0718 909.00
29.137 1017.00
29.2022 966.00
29.2674 1029.00
29.3326 1046.00
29.3978 984.00
29.463 1013.00
29.5282 1014.00
29.5934 950.00
29.6586 1033.00
29.7238 1098.00
29.789 1012.00
29.8542 1057.00
29.9194 1031.00
29.9846 1063.00
30.0498 1001.00
30.115 983.00
30.1802 951.00
30.2454 940.00
30.3106 909.00
30.3758 1021.00
30.441 1089.00
30.5062 1111.00
30.5714 1133.00
30.6366 1156.00
30.7018 1172.00
30.767 1177.00
30.8322 1075.00
30.8974 1177.00
30.9626 1034.00
31.0278 1053.00
31.093 1024.00
31.1582 1134.00
31.2234 1504.00
31.2886 1980.00
31.3538 2418.00
31.419 2479.00
31.4842 2055.00
31.5494 1548.00
31.6146 1195.00
31.6798 1009.00
31.745 878.00
31.8102 874.00
31.8754 815.00
31.9406 855.00
32.0058 792.00
32.071 851.00
32.1362 791.00
32.2014 796.00
32.2666 816.00
32.3318 831.00
32.397 847.00
32.4622 847.00
32.5274 841.00
32.5926 944.00
32.6578 897.00
32.723 930.00
32.7882 954.00
32.8534 992.00
32.9186 974.00
32.9838 1034.00
33.0489 925.00
33.1141 889.00
33.1793 879.00
33.2445 835.00
33.3097 839.00
33.3749 817.00
33.4401 838.00
33.5053 923.00
33.5705 903.00
33.6357 970.00
33.7009 1120.00
33.7661 1219.00
33.8313 1357.00
33.8965 1322.00
33.9617 1466.00
34.0269 1580.00
34.0921 1588.00
34.1573 1401.00
34.2225 1210.00
34.2877 1162.00
34.3529 1165.00
34.4181 1146.00
34.4833 996.00
34.5485 881.00
34.6137 880.00
34.6789 825.00
34.7441 887.00
34.8093 846.00
34.8745 822.00
34.9397 878.00
35.0049 930.00
35.0701 1013.00
35.1353 1144.00
35.2005 1224.00
35.2657 1140.00
35.3309 996.00
35.3961 938.00
35.4613 777.00
35.5265 700.00
35.5917 725.00
35.6569 726.00
35.7221 722.00
35.7873 705.00
35.8525 763.00
35.9177 703.00
35.9829 705.00
36.0481 653.00
36.1133 686.00
36.1785 666.00
36.2437 613.00
36.3089 635.00
36.3741 673.00
36.4393 671.00
36.5045 681.00
36.5697 673.00
36.6349 633.00
36.7001 664.00
36.7653 693.00
36.8305 724.00
36.8957 647.00
36.9609 653.00
37.0261 671.00
37.0913 708.00
37.1565 685.00
37.2217 750.00
37.2869 627.00
37.3521 616.00
37.4173 656.00
37.4825 600.00
37.5477 678.00
37.6129 637.00
37.6781 610.00
37.7433 675.00
37.8085 731.00
37.8736 731.00
37.9388 763.00
38.004 740.00
38.0692 617.00
38.1344 657.00
38.1996 604.00
38.2648 642.00
38.33 653.00
38.3952 687.00
38.4604 686.00
38.5256 754.00
38.5908 678.00
38.656 665.00
38.7212 644.00
38.7864 599.00
38.8516 607.00
38.9168 666.00
38.982 585.00
39.0472 602.00
39.1124 596.00
39.1776 623.00
39.2428 594.00
39.308 576.00
39.3732 646.00
39.4384 646.00
39.5036 671.00
39.5688 648.00
39.634 609.00
39.6992 665.00
39.7644 577.00
39.8296 623.00
39.8948 629.00
39.96 648.00
40.0252 626.00
40.0904 630.00
40.1556 597.00
40.2208 545.00
40.286 558.00
40.3512 558.00
40.4164 601.00
40.4816 658.00
40.5468 673.00
40.612 834.00
40.6772 900.00
40.7424 817.00
40.8076 888.00
40.8728 799.00
40.938 717.00
41.0032 813.00
41.0684 832.00
41.1336 758.00
41.1988 724.00
41.264 783.00
41.3292 739.00
41.3944 781.00
41.4596 734.00
41.5248 706.00
41.59 597.00
41.6552 625.00
41.7204 580.00
41.7856 585.00
41.8508 579.00
41.916 574.00
41.9812 546.00
42.0464 554.00
42.1116 534.00
42.1768 511.00
42.242 581.00
42.3072 527.00
42.3724 595.00
42.4376 532.00
42.5028 565.00
42.568 552.00
42.6332 578.00
42.6983 568.00
42.7635 605.00
42.8287 600.00
42.8939 549.00
42.9591 574.00
43.0243 586.00
43.0895 619.00
43.1547 529.00
43.2199 607.00
43.2851 577.00
43.3503 567.00
43.4155 590.00
43.4807 558.00
43.5459 545.00
43.6111 535.00
43.6763 544.00
43.7415 552.00
43.8067 512.00
43.8719 528.00
43.9371 512.00
44.0023 563.00
44.0675 551.00
44.1327 562.00
44.1979 585.00
44.2631 620.00
44.3283 628.00
44.3935 571.00
44.4587 632.00
44.5239 598.00
44.5891 616.00
44.6543 626.00
44.7195 703.00
44.7847 770.00
44.8499 654.00
44.9151 648.00
44.9803 646.00
45.0455 571.00
45.1107 569.00
45.1759 601.00
45.2411 585.00
45.3063 599.00
45.3715 659.00
45.4367 669.00
45.5019 751.00
45.5671 644.00
45.6323 649.00
45.6975 639.00
45.7627 528.00
45.8279 614.00
45.8931 576.00
45.9583 556.00
46.0235 548.00
46.0887 528.00
46.1539 557.00
46.2191 560.00
46.2843 546.00
46.3495 591.00
46.4147 632.00
46.4799 647.00
46.5451 649.00
46.6103 616.00
46.6755 569.00
46.7407 544.00
46.8059 513.00
46.8711 576.00
46.9363 539.00
47.0015 557.00
47.0667 550.00
47.1319 556.00
47.1971 513.00
47.2623 481.00
47.3275 516.00
47.3927 508.00
47.4579 478.00
47.523 476.00
47.5882 492.00
47.6534 460.00
47.7186 531.00
47.7838 553.00
47.849 514.00
47.9142 591.00
47.9794 630.00
48.0446 593.00
48.1098 635.00
48.175 628.00
48.2402 631.00
48.3054 545.00
48.3706 594.00
48.4358 514.00
48.501 575.00
48.5662 542.00
48.6314 555.00
48.6966 563.00
48.7618 568.00
48.827 587.00
48.8922 594.00
48.9574 589.00
49.0226 604.00
49.0878 685.00
49.153 826.00
49.2182 921.00
49.2834 878.00
49.3486 781.00
49.4138 703.00
49.479 584.00
49.5442 581.00
49.6094 493.00
49.6746 521.00
49.7398 503.00
49.805 531.00
49.8702 561.00
49.9354 641.00
50.0006 839.00
50.0658 1028.00
50.131 995.00
50.1962 931.00
50.2614 806.00
50.3266 709.00
50.3918 774.00
50.457 709.00
50.5222 768.00
50.5874 697.00
50.6526 705.00
50.7178 639.00
50.783 570.00
50.8482 570.00
50.9134 588.00
50.9786 599.00
51.0438 548.00
51.109 611.00
51.1742 631.00
51.2394 571.00
51.3046 597.00
51.3698 567.00
51.435 506.00
51.5002 445.00
51.5654 509.00
51.6306 498.00
51.6958 514.00
51.761 497.00
51.8262 502.00
51.8914 465.00
51.9566 471.00
52.0218 522.00
52.087 549.00
52.1522 516.00
52.2174 466.00
52.2826 493.00
52.3477 448.00
52.4129 510.00
52.4781 506.00
52.5433 531.00
52.6085 522.00
52.6737 500.00
52.7389 574.00
52.8041 559.00
52.8693 506.00
52.9345 557.00
52.9997 547.00
53.0649 554.00
53.1301 514.00
53.1953 476.00
53.2605 473.00
53.3257 509.00
53.3909 490.00
53.4561 555.00
53.5213 501.00
53.5865 531.00
53.6517 517.00
53.7169 563.00
53.7821 603.00
53.8473 625.00
53.9125 701.00
53.9777 753.00
54.0429 699.00
54.1081 672.00
54.1733 565.00
54.2385 532.00
54.3037 515.00
54.3689 520.00
54.4341 518.00
54.4993 495.00
54.5645 467.00
54.6297 485.00
54.6949 445.00
54.7601 496.00
54.8253 464.00
54.8905 460.00
54.9557 503.00
55.0209 532.00
55.0861 587.00
55.1513 579.00
55.2165 734.00
55.2817 731.00
55.3469 690.00
55.4121 709.00
55.4773 660.00
55.5425 647.00
55.6077 555.00
55.6729 562.00
55.7381 568.00
55.8033 605.00
55.8685 536.00
55.9337 568.00
55.9989 592.00
56.0641 549.00
56.1293 512.00
56.1945 530.00
56.2597 517.00
56.3249 484.00
56.3901 460.00
56.4553 449.00
56.5205 492.00
56.5857 499.00
56.6509 427.00
56.7161 509.00
56.7813 455.00
56.8465 476.00
56.9117 484.00
56.9769 497.00
57.042 638.00
57.1073 599.00
57.1724 598.00
57.2376 639.00
57.3028 576.00
57.368 673.00
57.4332 616.00
57.4984 511.00
57.5636 620.00
57.6288 495.00
57.694 515.00
57.7592 521.00
57.8244 522.00
57.8896 498.00
57.9548 574.00
58.02 499.00
58.0852 518.00
58.1504 537.00
58.2156 545.00
58.2808 565.00
58.346 513.00
58.4112 527.00
58.4764 488.00
58.5416 489.00
58.6068 480.00
58.672 464.00
58.7372 488.00
58.8024 480.00
58.8676 476.00
58.9328 520.00
58.998 492.00
59.0632 474.00
59.1284 470.00
59.1936 471.00
59.2588 464.00
59.324 470.00
59.3892 500.00
59.4544 454.00
59.5196 458.00
59.5848 490.00
59.65 559.00
59.7152 580.00
59.7804 575.00
59.8456 697.00
59.9108 657.00
59.976 648.00
60.0412 608.00
60.1064 586.00
60.1716 522.00
60.2368 528.00
60.302 456.00
60.3672 483.00
60.4324 455.00
60.4976 482.00
60.5628 464.00
60.628 484.00
60.6932 452.00
60.7584 440.00
60.8236 459.00
60.8888 445.00
60.954 457.00
61.0192 478.00
61.0844 525.00
61.1496 527.00
61.2148 623.00
61.28 527.00
61.3452 524.00
61.4104 488.00
61.4756 514.00
61.5408 441.00
61.606 431.00
61.6712 405.00
61.7364 463.00
61.8016 495.00
61.8667 467.00
61.932 519.00
61.9971 507.00
62.0623 490.00
62.1275 575.00
62.1927 480.00
62.2579 466.00
62.3231 450.00
62.3883 490.00
62.4535 454.00
62.5187 491.00
62.5839 523.00
62.6491 560.00
62.7143 585.00
62.7795 606.00
62.8447 574.00
62.9099 538.00
62.9751 463.00
63.0403 452.00
63.1055 392.00
63.1707 447.00
63.2359 380.00
63.3011 405.00
63.3663 417.00
63.4315 359.00
63.4967 408.00
63.5619 362.00
63.6271 385.00
63.6923 420.00
63.7575 412.00
63.8227 420.00
63.8879 412.00
63.9531 432.00
64.0183 397.00
64.0835 441.00
64.1487 480.00
64.2139 489.00
64.2791 443.00
64.3443 479.00
64.4095 434.00
64.4747 420.00
64.5399 378.00
64.6051 411.00
64.6703 400.00
64.7355 404.00
64.8007 424.00
64.8659 368.00
64.9311 390.00
64.9963 395.00
65.0615 400.00
65.1267 468.00
65.1919 453.00
65.2571 401.00
65.3223 493.00
65.3875 437.00
65.4527 512.00
65.5179 522.00
65.5831 569.00
65.6483 516.00
65.7135 532.00
65.7787 516.00
65.8439 482.00
65.9091 457.00
65.9743 463.00
66.0395 464.00
66.1047 429.00
66.1699 380.00
66.2351 428.00
66.3003 414.00
66.3655 397.00
66.4307 386.00
66.4959 391.00
66.561 361.00
66.6263 368.00
66.6915 412.00
66.7566 364.00
66.8218 358.00
66.887 347.00
66.9522 373.00
67.0174 369.00
67.0826 376.00
67.1478 390.00
67.213 345.00
67.2782 379.00
67.3434 362.00
67.4086 383.00
67.4738 346.00
67.539 372.00
67.6042 408.00
67.6694 379.00
67.7346 382.00
67.7998 355.00
67.865 407.00
67.9302 362.00
67.9954 340.00
68.0606 376.00
68.1258 421.00
68.191 379.00
68.2562 391.00
68.3214 362.00
68.3866 377.00
68.4518 328.00
68.517 399.00
68.5822 394.00
68.6474 394.00
68.7126 382.00
68.7778 390.00
68.843 367.00
68.9082 426.00
68.9734 404.00
69.0386 386.00
69.1038 386.00
69.169 405.00
69.2342 429.00
69.2994 376.00
69.3646 373.00
69.4298 374.00
69.495 366.00
69.5602 383.00
69.6254 420.00
69.6906 386.00
69.7558 357.00
69.821 367.00
69.8862 369.00
69.9514 391.00
70.0166 394.00
70.0818 368.00
70.147 414.00
70.2122 388.00
70.2774 363.00
70.3426 377.00
70.4078 367.00
70.473 389.00
70.5382 411.00
70.6034 384.00
70.6686 411.00
70.7338 352.00
70.799 359.00
70.8642 370.00
70.9294 436.00
70.9946 426.00
71.0598 517.00
71.125 454.00
71.1902 452.00
71.2554 452.00
71.3205 466.00
71.3858 449.00
71.451 437.00
71.5162 431.00
71.5813 373.00
71.6465 407.00
71.7117 397.00
71.7769 412.00
71.8421 411.00
71.9073 374.00
71.9725 395.00
72.0377 428.00
72.1029 391.00
72.1681 398.00
72.2333 423.00
72.2985 374.00
72.3637 376.00
72.4289 419.00
72.4941 412.00
72.5593 352.00
72.6245 402.00
72.6897 392.00
72.7549 358.00
72.8201 351.00
72.8853 358.00
72.9505 333.00
73.0157 397.00
73.0809 383.00
73.1461 353.00
73.2113 333.00
73.2765 359.00
73.3417 325.00
73.4069 369.00
73.4721 381.00
73.5373 393.00
73.6025 365.00
73.6677 359.00
73.7329 345.00
73.7981 366.00
73.8633 340.00
73.9285 389.00
73.9937 332.00
74.0589 368.00
74.1241 330.00
74.1893 340.00
74.2545 349.00
74.3197 393.00
74.3849 385.00
74.4501 402.00
74.5153 362.00
74.5805 403.00
74.6457 430.00
74.7109 401.00
74.7761 418.00
74.8413 392.00
74.9065 413.00
74.9717 427.00
75.0369 435.00
75.1021 401.00
75.1673 407.00
75.2325 487.00
75.2977 414.00
75.3629 412.00
75.4281 403.00
75.4933 401.00
75.5585 373.00
75.6237 357.00
75.6889 326.00
75.7541 400.00
75.8193 366.00
75.8845 372.00
75.9497 372.00
76.0149 370.00
76.0801 392.00
76.1452 381.00
76.2104 362.00
76.2756 442.00
76.3409 432.00
76.406 412.00
76.4712 421.00
76.5364 420.00
76.6016 417.00
76.6668 403.00
76.732 495.00
76.7972 571.00
76.8624 378.00
76.9276 383.00
76.9928 466.00
77.058 395.00
77.1232 443.00
77.1884 406.00
77.2536 413.00
77.3188 425.00
77.384 385.00
77.4492 422.00
77.5144 409.00
77.5796 397.00
77.6448 378.00
77.71 393.00
77.7752 353.00
77.8404 380.00
77.9056 407.00
77.9708 349.00
78.036 356.00
78.1012 371.00
78.1664 384.00
78.2316 366.00
78.2968 354.00
78.362 351.00
78.4272 409.00
78.4924 380.00
78.5576 399.00
78.6228 361.00
78.688 388.00
78.7532 375.00
78.8184 408.00
78.8836 422.00
78.9488 369.00
79.014 392.00
79.0792 412.00
79.1444 385.00
79.2096 386.00
79.2748 379.00
79.34 391.00
79.4052 381.00
79.4704 405.00
79.5356 365.00
79.6008 384.00
79.666 380.00
79.7312 393.00
79.7964 390.00
79.8616 335.00
79.9268 421.00
79.992 394.00
80.0572 378.00
80.1224 398.00
80.1876 395.00
80.2528 377.00
80.318 365.00
80.3832 401.00
80.4484 376.00
80.5136 379.00
80.5788 379.00
80.644 365.00
80.7092 380.00
80.7744 397.00
80.8396 370.00
80.9048 365.00
80.9699 383.00
81.0351 359.00
81.1003 342.00
81.1655 354.00
81.2307 401.00
81.2959 365.00
81.3611 402.00
81.4263 404.00
81.4915 406.00
81.5567 392.00
81.6219 409.00
81.6871 417.00
81.7523 389.00
81.8175 374.00
81.8827 425.00
81.9479 416.00
82.0131 388.00
82.0783 389.00
82.1435 395.00
82.2087 357.00
82.2739 374.00
82.3391 383.00
82.4043 438.00
82.4695 379.00
82.5347 416.00
82.5999 417.00
82.6651 453.00
82.7303 395.00
82.7955 426.00
82.8607 390.00
82.9259 401.00
82.9911 415.00
83.0563 368.00
83.1215 454.00
83.1867 361.00
83.2519 418.00
83.3171 407.00
83.3823 388.00
83.4475 411.00
83.5127 388.00
83.5779 393.00
83.6431 411.00
83.7083 416.00
83.7735 437.00
83.8387 416.00
83.9039 389.00
83.9691 401.00
84.0343 406.00
84.0995 404.00
84.1647 388.00
84.2299 401.00
84.2951 403.00
84.3603 404.00
84.4255 424.00
84.4907 383.00
84.5559 404.00
84.6211 392.00
84.6863 369.00
84.7515 400.00
84.8167 413.00
84.8819 376.00
84.9471 397.00
85.0123 420.00
85.0775 403.00
85.1427 357.00
85.2079 400.00
85.2731 362.00
85.3383 375.00
85.4035 349.00
85.4687 345.00
85.5339 356.00
85.5991 389.00
85.6643 364.00
85.7295 342.00
85.7946 374.00
85.8598 375.00
85.925 348.00
85.9903 375.00
86.0554 360.00
86.1206 389.00
86.1858 384.00
86.251 379.00
86.3162 373.00
86.3814 404.00
86.4466 361.00
86.5118 370.00
86.577 412.00
86.6422 378.00
86.7074 393.00
86.7726 348.00
86.8378 386.00
86.903 358.00
86.9682 372.00
87.0334 356.00
87.0986 376.00
87.1638 396.00
87.229 377.00
87.2942 376.00
87.3594 382.00
87.4246 388.00
87.4898 417.00
87.555 398.00
87.6202 375.00
87.6854 439.00
87.7506 410.00
87.8158 435.00
87.881 383.00
87.9462 361.00
88.0114 425.00
88.0766 381.00
88.1418 443.00
88.207 391.00
88.2722 395.00
88.3374 415.00
88.4026 421.00
88.4678 392.00
88.533 347.00
88.5982 369.00
88.6634 353.00
88.7286 360.00
88.7938 361.00
88.859 360.00
88.9242 369.00
88.9894 383.00
89.0546 399.00
89.1198 392.00
89.185 390.00
89.2502 348.00
89.3154 341.00
89.3806 366.00
89.4458 375.00
89.511 327.00
89.5762 424.00
89.6414 394.00
89.7066 405.00
89.7718 369.00
89.837 407.00
89.9022 402.00
89.9674 381.00
90.0326 362.00
90.0978 364.00
90.163 373.00
90.2282 377.00
90.2934 344.00
90.3586 385.00
90.4238 330.00
90.489 350.00
90.5542 346.00
90.6193 401.00
90.6845 340.00
90.7497 371.00
90.8149 340.00
90.8801 391.00
90.9453 398.00
91.0105 354.00
91.0757 370.00
91.1409 368.00
91.2061 367.00
91.2713 347.00
91.3365 332.00
91.4017 343.00
91.4669 332.00
91.5321 323.00
91.5973 364.00
91.6625 351.00
91.7277 356.00
91.7929 342.00
91.8581 327.00
91.9233 350.00
91.9885 349.00
92.0537 317.00
92.1189 333.00
92.1841 326.00
92.2493 333.00
92.3145 314.00
92.3797 337.00
92.4449 322.00
92.5101 339.00
92.5753 316.00
92.6405 341.00
92.7057 319.00
92.7709 358.00
92.8361 337.00
92.9013 343.00
92.9665 372.00
93.0317 348.00
93.0969 300.00
93.1621 349.00
93.2273 326.00
93.2925 341.00
93.3577 368.00
93.4229 338.00
93.4881 391.00
93.5533 330.00
93.6185 385.00
93.6837 346.00
93.7489 332.00
93.8141 317.00
93.8793 335.00
93.9445 388.00
94.0097 384.00
94.0749 369.00
94.1401 372.00
94.2053 337.00
94.2705 380.00
94.3357 330.00
94.4009 333.00
94.4661 325.00
94.5313 322.00
94.5965 351.00
94.6617 349.00
94.7269 364.00
94.7921 344.00
94.8573 347.00
94.9225 363.00
94.9877 395.00
95.0529 372.00
95.1181 383.00
95.1833 379.00
95.2485 366.00
95.3137 355.00
95.3789 360.00
95.444 360.00
95.5092 350.00
95.5744 345.00
95.6396 355.00
95.7048 341.00
95.77 347.00
95.8352 336.00
95.9004 361.00
95.9656 354.00
96.0308 386.00
96.096 369.00
96.1612 355.00
96.2264 368.00
96.2916 388.00
96.3568 389.00
96.422 412.00
96.4872 394.00
96.5524 435.00
96.6176 403.00
96.6828 413.00
96.748 423.00
96.8132 452.00
96.8784 402.00
96.9436 412.00
97.0088 411.00
97.074 363.00
97.1392 381.00
97.2044 366.00
97.2696 366.00
97.3348 371.00
97.4 313.00
97.4652 344.00
97.5304 321.00
97.5956 350.00
97.6608 322.00
97.726 346.00
97.7912 295.00
97.8564 327.00
97.9216 367.00
97.9868 394.00
98.052 362.00
98.1172 339.00
98.1824 367.00
98.2476 345.00
98.3128 361.00
98.378 374.00
98.4432 378.00
98.5084 355.00
98.5736 326.00
98.6388 380.00
98.704 361.00
98.7692 366.00
98.8344 389.00
98.8996 388.00
98.9648 340.00
99.03 388.00
99.0952 401.00
99.1604 378.00
99.2256 402.00
99.2908 393.00
99.356 371.00
99.4212 371.00
99.4864 366.00
99.5516 372.00
99.6168 362.00
99.682 367.00
99.7472 376.00
99.8124 335.00
99.8776 335.00
99.9428 348.00
100.008 359.00
100.073 373.00
100.095 326.00