File: data/xrd_creation/results/NSC_145.xy
9.903433 2931.00
9.968632 2868.00
10.0338 2855.00
10.099 2840.00
10.1642 2786.00
10.2294 2725.00
10.2946 2745.00
10.3598 2773.00
10.425 2631.00
10.4902 2771.00
10.5554 2711.00
10.6206 2716.00
10.6858 2666.00
10.751 2610.00
10.8162 2653.00
10.8814 2598.00
10.9466 2615.00
11.0118 2583.00
11.077 2607.00
11.1422 2589.00
11.2074 2612.00
11.2726 2563.00
11.3378 2514.00
11.403 2405.00
11.4682 2629.00
11.5334 2410.00
11.5986 2368.00
11.6638 2486.00
11.729 2408.00
11.7942 2390.00
11.8594 2318.00
11.9246 2362.00
11.9898 2246.00
12.055 2371.00
12.1202 2255.00
12.1854 2341.00
12.2506 2308.00
12.3158 2207.00
12.381 2273.00
12.4462 2211.00
12.5114 2280.00
12.5766 2238.00
12.6418 2203.00
12.707 2176.00
12.7722 2168.00
12.8374 2299.00
12.9026 2199.00
12.9678 2238.00
13.033 2094.00
13.0982 2063.00
13.1634 2094.00
13.2286 2078.00
13.2938 2133.00
13.359 2097.00
13.4242 2083.00
13.4894 2040.00
13.5546 2000.00
13.6198 2096.00
13.685 1973.00
13.7502 2029.00
13.8154 1945.00
13.8805 1931.00
13.9457 2017.00
14.0109 2050.00
14.0761 2061.00
14.1413 2010.00
14.2065 1954.00
14.2717 1957.00
14.3369 2036.00
14.4021 2092.00
14.4673 1928.00
14.5325 1977.00
14.5977 1931.00
14.6629 2039.00
14.7281 1919.00
14.7933 1916.00
14.8585 1969.00
14.9237 1961.00
14.9889 1970.00
15.0541 1947.00
15.1193 1982.00
15.1845 1928.00
15.2497 1890.00
15.3149 1958.00
15.3801 1990.00
15.4453 2030.00
15.5105 1909.00
15.5757 1920.00
15.6409 2027.00
15.7061 1983.00
15.7713 1910.00
15.8365 1983.00
15.9017 1942.00
15.9669 2016.00
16.0321 1941.00
16.0973 1888.00
16.1625 1947.00
16.2277 1988.00
16.2929 1897.00
16.3581 1946.00
16.4233 1874.00
16.4885 1964.00
16.5537 1851.00
16.6189 1938.00
16.6841 1981.00
16.7493 1859.00
16.8145 1863.00
16.8797 1871.00
16.9449 1972.00
17.0101 1935.00
17.0753 1878.00
17.1405 1907.00
17.2057 1874.00
17.2709 1957.00
17.3361 1895.00
17.4013 1862.00
17.4665 1939.00
17.5317 1939.00
17.5969 1937.00
17.6621 1911.00
17.7273 1835.00
17.7925 1917.00
17.8577 1888.00
17.9229 1840.00
17.9881 1878.00
18.0533 1884.00
18.1185 1883.00
18.1837 1899.00
18.2489 1886.00
18.3141 1978.00
18.3793 1938.00
18.4445 1914.00
18.5097 1869.00
18.5749 2009.00
18.6401 1894.00
18.7052 2008.00
18.7704 1984.00
18.8356 2024.00
18.9008 1965.00
18.966 1995.00
19.0312 1924.00
19.0964 2089.00
19.1616 1966.00
19.2268 1945.00
19.292 1873.00
19.3572 2050.00
19.4224 2050.00
19.4876 2027.00
19.5528 2123.00
19.618 2042.00
19.6832 2031.00
19.7484 1998.00
19.8136 1959.00
19.8788 2083.00
19.944 2016.00
20.0092 2022.00
20.0744 2057.00
20.1396 2126.00
20.2048 2040.00
20.27 2252.00
20.3352 2157.00
20.4004 2138.00
20.4656 2192.00
20.5308 2113.00
20.596 2044.00
20.6612 2159.00
20.7264 2082.00
20.7916 2175.00
20.8568 2329.00
20.922 2253.00
20.9872 2279.00
21.0524 2230.00
21.1176 2167.00
21.1828 2263.00
21.248 2289.00
21.3132 2230.00
21.3784 2184.00
21.4436 2277.00
21.5088 2275.00
21.574 2343.00
21.6392 2276.00
21.7044 2328.00
21.7696 2275.00
21.8348 2397.00
21.9 2210.00
21.9652 2278.00
22.0304 2218.00
22.0956 2348.00
22.1608 2229.00
22.226 2253.00
22.2912 2328.00
22.3564 2409.00
22.4216 2207.00
22.4868 2291.00
22.552 2368.00
22.6172 2233.00
22.6824 2337.00
22.7476 2221.00
22.8128 2389.00
22.878 2231.00
22.9432 2232.00
23.0084 2225.00
23.0736 2207.00
23.1388 2229.00
23.204 2250.00
23.2692 2155.00
23.3344 2230.00
23.3996 2189.00
23.4647 2181.00
23.5299 2187.00
23.5951 2223.00
23.6603 2281.00
23.7255 2161.00
23.7907 2201.00
23.8559 2231.00
23.9211 2134.00
23.9863 2278.00
24.0515 2176.00
24.1167 2121.00
24.1819 2126.00
24.2471 2042.00
24.3123 2062.00
24.3775 2174.00
24.4427 2168.00
24.5079 2106.00
24.5731 2245.00
24.6383 2181.00
24.7035 2185.00
24.7687 2124.00
24.8339 2139.00
24.8991 2165.00
24.9643 2150.00
25.0295 2062.00
25.0947 2076.00
25.1599 2016.00
25.2251 2075.00
25.2903 2120.00
25.3555 2141.00
25.4207 2116.00
25.4859 2060.00
25.5511 2003.00
25.6163 2083.00
25.6815 2122.00
25.7467 2117.00
25.8119 2078.00
25.8771 2068.00
25.9423 2045.00
26.0075 2135.00
26.0727 2086.00
26.1379 2140.00
26.2031 2097.00
26.2683 2109.00
26.3335 2074.00
26.3987 2089.00
26.4639 2058.00
26.5291 2059.00
26.5943 2052.00
26.6595 2002.00
26.7247 2015.00
26.7899 2026.00
26.8551 2062.00
26.9203 1996.00
26.9855 2082.00
27.0507 2028.00
27.1159 2054.00
27.1811 2067.00
27.2463 2113.00
27.3115 2058.00
27.3767 2071.00
27.4419 2055.00
27.5071 1977.00
27.5723 2039.00
27.6375 2078.00
27.7027 2012.00
27.7679 2074.00
27.8331 2020.00
27.8983 2004.00
27.9635 2076.00
28.0287 2009.00
28.0939 2096.00
28.1591 1988.00
28.2243 2060.00
28.2894 1985.00
28.3546 2062.00
28.4198 2035.00
28.485 2040.00
28.5502 2024.00
28.6154 2001.00
28.6806 2059.00
28.7458 2054.00
28.811 2021.00
28.8762 2068.00
28.9414 2064.00
29.0066 1974.00
29.0718 2019.00
29.137 2026.00
29.2022 2044.00
29.2674 1958.00
29.3326 2062.00
29.3978 2000.00
29.463 1923.00
29.5282 1976.00
29.5934 2006.00
29.6586 1994.00
29.7238 2010.00
29.789 1990.00
29.8542 2034.00
29.9194 2001.00
29.9846 1923.00
30.0498 2104.00
30.115 1990.00
30.1802 1983.00
30.2454 1951.00
30.3106 1947.00
30.3758 1937.00
30.441 1908.00
30.5062 1890.00
30.5714 1934.00
30.6366 1967.00
30.7018 1963.00
30.767 1949.00
30.8322 1944.00
30.8974 1878.00
30.9626 1873.00
31.0278 2018.00
31.093 1976.00
31.1582 1941.00
31.2234 1871.00
31.2886 1849.00
31.3538 1881.00
31.419 1840.00
31.4842 1882.00
31.5494 1903.00
31.6146 1880.00
31.6798 1826.00
31.745 1938.00
31.8102 1841.00
31.8754 1825.00
31.9406 1845.00
32.0058 1841.00
32.071 1785.00
32.1362 1807.00
32.2014 1767.00
32.2666 1754.00
32.3318 1719.00
32.397 1817.00
32.4622 1831.00
32.5274 1706.00
32.5926 1789.00
32.6578 1797.00
32.723 1705.00
32.7882 1695.00
32.8534 1698.00
32.9186 1669.00
32.9838 1684.00
33.0489 1666.00
33.1141 1664.00
33.1793 1692.00
33.2445 1633.00
33.3097 1644.00
33.3749 1586.00
33.4401 1678.00
33.5053 1608.00
33.5705 1583.00
33.6357 1578.00
33.7009 1630.00
33.7661 1619.00
33.8313 1524.00
33.8965 1561.00
33.9617 1498.00
34.0269 1553.00
34.0921 1510.00
34.1573 1560.00
34.2225 1525.00
34.2877 1491.00
34.3529 1551.00
34.4181 1478.00
34.4833 1475.00
34.5485 1486.00
34.6137 1555.00
34.6789 1440.00
34.7441 1475.00
34.8093 1478.00
34.8745 1470.00
34.9397 1377.00
35.0049 1464.00
35.0701 1366.00
35.1353 1400.00
35.2005 1480.00
35.2657 1342.00
35.3309 1364.00
35.3961 1422.00
35.4613 1308.00
35.5265 1270.00
35.5917 1330.00
35.6569 1278.00
35.7221 1332.00
35.7873 1269.00
35.8525 1289.00
35.9177 1282.00
35.9829 1284.00
36.0481 1261.00
36.1133 1217.00
36.1785 1305.00
36.2437 1314.00
36.3089 1250.00
36.3741 1200.00
36.4393 1152.00
36.5045 1234.00
36.5697 1226.00
36.6349 1179.00
36.7001 1231.00
36.7653 1224.00
36.8305 1141.00
36.8957 1169.00
36.9609 1151.00
37.0261 1162.00
37.0913 1130.00
37.1565 1126.00
37.2217 1166.00
37.2869 1148.00
37.3521 1120.00
37.4173 1136.00
37.4825 1106.00
37.5477 1127.00
37.6129 1140.00
37.6781 1068.00
37.7433 1145.00
37.8085 1126.00
37.8736 1116.00
37.9388 1100.00
38.004 1117.00
38.0692 1086.00
38.1344 1078.00
38.1996 1059.00
38.2648 1052.00
38.33 1086.00
38.3952 1064.00
38.4604 1065.00
38.5256 1085.00
38.5908 1089.00
38.656 1049.00
38.7212 1036.00
38.7864 991.00
38.8516 1037.00
38.9168 1090.00
38.982 1026.00
39.0472 1132.00
39.1124 1058.00
39.1776 1013.00
39.2428 1010.00
39.308 1040.00
39.3732 1053.00
39.4384 1081.00
39.5036 1014.00
39.5688 1014.00
39.634 1041.00
39.6992 1008.00
39.7644 988.00
39.8296 960.00
39.8948 968.00
39.96 977.00
40.0252 1008.00
40.0904 1057.00
40.1556 985.00
40.2208 1006.00
40.286 1028.00
40.3512 985.00
40.4164 969.00
40.4816 976.00
40.5468 1008.00
40.612 983.00
40.6772 1005.00
40.7424 1055.00
40.8076 970.00
40.8728 930.00
40.938 963.00
41.0032 1048.00
41.0684 980.00
41.1336 969.00
41.1988 1009.00
41.264 934.00
41.3292 981.00
41.3944 987.00
41.4596 965.00
41.5248 975.00
41.59 978.00
41.6552 1050.00
41.7204 999.00
41.7856 996.00
41.8508 996.00
41.916 1015.00
41.9812 929.00
42.0464 1042.00
42.1116 1034.00
42.1768 945.00
42.242 982.00
42.3072 1027.00
42.3724 972.00
42.4376 953.00
42.5028 926.00
42.568 1015.00
42.6332 969.00
42.6983 965.00
42.7635 986.00
42.8287 947.00
42.8939 967.00
42.9591 972.00
43.0243 944.00
43.0895 976.00
43.1547 1010.00
43.2199 1040.00
43.2851 963.00
43.3503 904.00
43.4155 978.00
43.4807 962.00
43.5459 1013.00
43.6111 916.00
43.6763 969.00
43.7415 952.00
43.8067 944.00
43.8719 926.00
43.9371 941.00
44.0023 940.00
44.0675 1009.00
44.1327 957.00
44.1979 909.00
44.2631 974.00
44.3283 974.00
44.3935 964.00
44.4587 963.00
44.5239 974.00
44.5891 889.00
44.6543 925.00
44.7195 990.00
44.7847 890.00
44.8499 893.00
44.9151 925.00
44.9803 873.00
45.0455 890.00
45.1107 943.00
45.1759 914.00
45.2411 971.00
45.3063 868.00
45.3715 939.00
45.4367 943.00
45.5019 943.00
45.5671 928.00
45.6323 934.00
45.6975 892.00
45.7627 886.00
45.8279 945.00
45.8931 917.00
45.9583 933.00
46.0235 917.00
46.0887 950.00
46.1539 905.00
46.2191 872.00
46.2843 882.00
46.3495 932.00
46.4147 923.00
46.4799 908.00
46.5451 903.00
46.6103 853.00
46.6755 888.00
46.7407 797.00
46.8059 900.00
46.8711 878.00
46.9363 881.00
47.0015 911.00
47.0667 918.00
47.1319 930.00
47.1971 888.00
47.2623 846.00
47.3275 910.00
47.3927 877.00
47.4579 877.00
47.523 861.00
47.5882 857.00
47.6534 879.00
47.7186 893.00
47.7838 861.00
47.849 909.00
47.9142 958.00
47.9794 888.00
48.0446 901.00
48.1098 856.00
48.175 882.00
48.2402 849.00
48.3054 852.00
48.3706 870.00
48.4358 846.00
48.501 885.00
48.5662 841.00
48.6314 898.00
48.6966 920.00
48.7618 817.00
48.827 879.00
48.8922 826.00
48.9574 854.00
49.0226 826.00
49.0878 855.00
49.153 789.00
49.2182 844.00
49.2834 813.00
49.3486 828.00
49.4138 820.00
49.479 820.00
49.5442 802.00
49.6094 816.00
49.6746 839.00
49.7398 810.00
49.805 842.00
49.8702 886.00
49.9354 814.00
50.0006 815.00
50.0658 811.00
50.131 830.00
50.1962 757.00
50.2614 846.00
50.3266 866.00
50.3918 846.00
50.457 871.00
50.5222 833.00
50.5874 802.00
50.6526 903.00
50.7178 800.00
50.783 839.00
50.8482 792.00
50.9134 833.00
50.9786 776.00
51.0438 825.00
51.109 807.00
51.1742 830.00
51.2394 799.00
51.3046 806.00
51.3698 851.00
51.435 761.00
51.5002 738.00
51.5654 825.00
51.6306 838.00
51.6958 771.00
51.761 804.00
51.8262 814.00
51.8914 867.00
51.9566 831.00
52.0218 779.00
52.087 818.00
52.1522 799.00
52.2174 827.00
52.2826 797.00
52.3477 788.00
52.4129 828.00
52.4781 782.00
52.5433 784.00
52.6085 829.00
52.6737 804.00
52.7389 780.00
52.8041 804.00
52.8693 784.00
52.9345 834.00
52.9997 736.00
53.0649 815.00
53.1301 789.00
53.1953 822.00
53.2605 788.00
53.3257 780.00
53.3909 772.00
53.4561 799.00
53.5213 792.00
53.5865 803.00
53.6517 790.00
53.7169 762.00
53.7821 784.00
53.8473 823.00
53.9125 773.00
53.9777 746.00
54.0429 776.00
54.1081 742.00
54.1733 745.00
54.2385 829.00
54.3037 819.00
54.3689 754.00
54.4341 700.00
54.4993 743.00
54.5645 744.00
54.6297 806.00
54.6949 721.00
54.7601 779.00
54.8253 780.00
54.8905 771.00
54.9557 764.00
55.0209 791.00
55.0861 809.00
55.1513 770.00
55.2165 755.00
55.2817 823.00
55.3469 759.00
55.4121 729.00
55.4773 745.00
55.5425 764.00
55.6077 781.00
55.6729 765.00
55.7381 772.00
55.8033 799.00
55.8685 739.00
55.9337 764.00
55.9989 770.00
56.0641 750.00
56.1293 749.00
56.1945 757.00
56.2597 768.00
56.3249 760.00
56.3901 722.00
56.4553 812.00
56.5205 741.00
56.5857 755.00
56.6509 758.00
56.7161 740.00
56.7813 790.00
56.8465 800.00
56.9117 777.00
56.9769 756.00
57.042 782.00
57.1073 808.00
57.1724 808.00
57.2376 765.00
57.3028 792.00
57.368 768.00
57.4332 755.00
57.4984 783.00
57.5636 767.00
57.6288 746.00
57.694 733.00
57.7592 764.00
57.8244 757.00
57.8896 769.00
57.9548 766.00
58.02 768.00
58.0852 736.00
58.1504 753.00
58.2156 771.00
58.2808 741.00
58.346 776.00
58.4112 781.00
58.4764 712.00
58.5416 762.00
58.6068 726.00
58.672 740.00
58.7372 741.00
58.8024 731.00
58.8676 792.00
58.9328 748.00
58.998 706.00
59.0632 827.00
59.1284 728.00
59.1936 718.00
59.2588 752.00
59.324 717.00
59.3892 807.00
59.4544 734.00
59.5196 785.00
59.5848 757.00
59.65 704.00
59.7152 756.00
59.7804 748.00
59.8456 772.00
59.9108 793.00
59.976 745.00
60.0412 801.00
60.1064 809.00
60.1716 772.00
60.2368 777.00
60.302 714.00
60.3672 757.00
60.4324 787.00
60.4976 724.00
60.5628 747.00
60.628 767.00
60.6932 672.00
60.7584 696.00
60.8236 746.00
60.8888 692.00
60.954 726.00
61.0192 783.00
61.0844 749.00
61.1496 761.00
61.2148 751.00
61.28 781.00
61.3452 746.00
61.4104 737.00
61.4756 744.00
61.5408 739.00
61.606 750.00
61.6712 765.00
61.7364 717.00
61.8016 734.00
61.8667 738.00
61.932 737.00
61.9971 756.00
62.0623 761.00
62.1275 752.00
62.1927 760.00
62.2579 734.00
62.3231 748.00
62.3883 759.00
62.4535 739.00
62.5187 755.00
62.5839 727.00
62.6491 716.00
62.7143 791.00
62.7795 685.00
62.8447 748.00
62.9099 678.00
62.9751 669.00
63.0403 807.00
63.1055 757.00
63.1707 791.00
63.2359 711.00
63.3011 708.00
63.3663 731.00
63.4315 772.00
63.4967 674.00
63.5619 745.00
63.6271 745.00
63.6923 723.00
63.7575 764.00
63.8227 724.00
63.8879 725.00
63.9531 754.00
64.0183 757.00
64.0835 702.00
64.1487 732.00
64.2139 719.00
64.2791 762.00
64.3443 733.00
64.4095 749.00
64.4747 675.00
64.5399 727.00
64.6051 712.00
64.6703 708.00
64.7355 679.00
64.8007 707.00
64.8659 759.00
64.9311 726.00
64.9963 671.00
65.0615 700.00
65.1267 696.00
65.1919 718.00
65.2571 739.00
65.3223 735.00
65.3875 717.00
65.4527 716.00
65.5179 704.00
65.5831 734.00
65.6483 711.00
65.7135 690.00
65.7787 667.00
65.8439 707.00
65.9091 665.00
65.9743 693.00
66.0395 729.00
66.1047 708.00
66.1699 712.00
66.2351 674.00
66.3003 665.00
66.3655 736.00
66.4307 676.00
66.4959 706.00
66.561 671.00
66.6263 682.00
66.6915 647.00
66.7566 706.00
66.8218 710.00
66.887 675.00
66.9522 716.00
67.0174 792.00
67.0826 699.00
67.1478 691.00
67.213 730.00
67.2782 674.00
67.3434 670.00
67.4086 687.00
67.4738 666.00
67.539 667.00
67.6042 687.00
67.6694 679.00
67.7346 686.00
67.7998 693.00
67.865 648.00
67.9302 708.00
67.9954 665.00
68.0606 715.00
68.1258 621.00
68.191 658.00
68.2562 674.00
68.3214 694.00
68.3866 652.00
68.4518 639.00
68.517 662.00
68.5822 702.00
68.6474 625.00
68.7126 691.00
68.7778 651.00
68.843 704.00
68.9082 645.00
68.9734 704.00
69.0386 675.00
69.1038 667.00
69.169 712.00
69.2342 645.00
69.2994 677.00
69.3646 660.00
69.4298 595.00
69.495 633.00
69.5602 664.00
69.6254 626.00
69.6906 620.00
69.7558 631.00
69.821 657.00
69.8862 718.00
69.9514 561.00
70.0166 686.00
70.0818 623.00
70.147 629.00
70.2122 611.00
70.2774 610.00
70.3426 615.00
70.4078 623.00
70.473 615.00
70.5382 615.00
70.6034 620.00
70.6686 681.00
70.7338 661.00
70.799 654.00
70.8642 592.00
70.9294 643.00
70.9946 582.00
71.0598 640.00
71.125 672.00
71.1902 648.00
71.2554 629.00
71.3205 653.00
71.3858 603.00
71.451 580.00
71.5162 612.00
71.5813 644.00
71.6465 607.00
71.7117 626.00
71.7769 591.00
71.8421 618.00
71.9073 628.00
71.9725 564.00
72.0377 570.00
72.1029 610.00
72.1681 600.00
72.2333 600.00
72.2985 597.00
72.3637 561.00
72.4289 561.00
72.4941 557.00
72.5593 588.00
72.6245 593.00
72.6897 599.00
72.7549 640.00
72.8201 636.00
72.8853 623.00
72.9505 547.00
73.0157 638.00
73.0809 610.00
73.1461 567.00
73.2113 580.00
73.2765 576.00
73.3417 597.00
73.4069 550.00
73.4721 588.00
73.5373 562.00
73.6025 551.00
73.6677 567.00
73.7329 547.00
73.7981 633.00
73.8633 573.00
73.9285 551.00
73.9937 598.00
74.0589 548.00
74.1241 569.00
74.1893 590.00
74.2545 584.00
74.3197 579.00
74.3849 576.00
74.4501 574.00
74.5153 565.00
74.5805 599.00
74.6457 593.00
74.7109 557.00
74.7761 554.00
74.8413 579.00
74.9065 544.00
74.9717 555.00
75.0369 562.00
75.1021 552.00
75.1673 581.00
75.2325 552.00
75.2977 582.00
75.3629 563.00
75.4281 561.00
75.4933 532.00
75.5585 530.00
75.6237 539.00
75.6889 543.00
75.7541 546.00
75.8193 549.00
75.8845 580.00
75.9497 534.00
76.0149 538.00
76.0801 530.00
76.1452 543.00
76.2104 521.00
76.2756 573.00
76.3409 532.00
76.406 500.00
76.4712 515.00
76.5364 552.00
76.6016 498.00
76.6668 565.00
76.732 509.00
76.7972 552.00
76.8624 530.00
76.9276 504.00
76.9928 531.00
77.058 515.00
77.1232 536.00
77.1884 514.00
77.2536 513.00
77.3188 573.00
77.384 539.00
77.4492 493.00
77.5144 511.00
77.5796 532.00
77.6448 528.00
77.71 523.00
77.7752 456.00
77.8404 533.00
77.9056 517.00
77.9708 517.00
78.036 523.00
78.1012 575.00
78.1664 557.00
78.2316 513.00
78.2968 568.00
78.362 509.00
78.4272 584.00
78.4924 538.00
78.5576 515.00
78.6228 535.00
78.688 465.00
78.7532 475.00
78.8184 523.00
78.8836 488.00
78.9488 489.00
79.014 542.00
79.0792 533.00
79.1444 474.00
79.2096 492.00
79.2748 485.00
79.34 543.00
79.4052 492.00
79.4704 513.00
79.5356 513.00
79.6008 522.00
79.666 522.00
79.7312 514.00
79.7964 504.00
79.8616 468.00
79.9268 530.00
79.992 472.00
80.0572 492.00
80.1224 471.00
80.1876 508.00
80.2528 485.00
80.318 475.00
80.3832 511.00
80.4484 481.00
80.5136 473.00
80.5788 503.00
80.644 502.00
80.7092 489.00
80.7744 477.00
80.8396 486.00
80.9048 504.00
80.9699 461.00
81.0351 489.00
81.1003 493.00
81.1655 467.00
81.2307 490.00
81.2959 515.00
81.3611 550.00
81.4263 494.00
81.4915 446.00
81.5567 482.00
81.6219 476.00
81.6871 501.00
81.7523 510.00
81.8175 450.00
81.8827 455.00
81.9479 461.00
82.0131 519.00
82.0783 488.00
82.1435 474.00
82.2087 490.00
82.2739 469.00
82.3391 474.00
82.4043 496.00
82.4695 458.00
82.5347 453.00
82.5999 506.00
82.6651 445.00
82.7303 433.00
82.7955 469.00
82.8607 443.00
82.9259 493.00
82.9911 461.00
83.0563 483.00
83.1215 450.00
83.1867 448.00
83.2519 453.00
83.3171 490.00
83.3823 472.00
83.4475 469.00
83.5127 480.00
83.5779 429.00
83.6431 411.00
83.7083 503.00
83.7735 484.00
83.8387 478.00
83.9039 419.00
83.9691 454.00
84.0343 460.00
84.0995 473.00
84.1647 464.00
84.2299 458.00
84.2951 448.00
84.3603 472.00
84.4255 425.00
84.4907 433.00
84.5559 455.00
84.6211 504.00
84.6863 488.00
84.7515 494.00
84.8167 450.00
84.8819 485.00
84.9471 442.00
85.0123 477.00
85.0775 441.00
85.1427 442.00
85.2079 421.00
85.2731 463.00
85.3383 435.00
85.4035 435.00
85.4687 469.00
85.5339 471.00
85.5991 460.00
85.6643 429.00
85.7295 455.00
85.7946 422.00
85.8598 411.00
85.925 464.00
85.9903 469.00
86.0554 425.00
86.1206 441.00
86.1858 423.00
86.251 445.00
86.3162 475.00
86.3814 454.00
86.4466 415.00
86.5118 439.00
86.577 424.00
86.6422 451.00
86.7074 424.00
86.7726 423.00
86.8378 417.00
86.903 454.00
86.9682 422.00
87.0334 445.00
87.0986 423.00
87.1638 458.00
87.229 428.00
87.2942 399.00
87.3594 418.00
87.4246 418.00
87.4898 436.00
87.555 459.00
87.6202 369.00
87.6854 409.00
87.7506 449.00
87.8158 423.00
87.881 421.00
87.9462 416.00
88.0114 431.00
88.0766 414.00
88.1418 434.00
88.207 408.00
88.2722 396.00
88.3374 433.00
88.4026 438.00
88.4678 437.00
88.533 399.00
88.5982 461.00
88.6634 416.00
88.7286 428.00
88.7938 416.00
88.859 451.00
88.9242 420.00
88.9894 420.00
89.0546 423.00
89.1198 424.00
89.185 421.00
89.2502 434.00
89.3154 429.00
89.3806 383.00
89.4458 411.00
89.511 432.00
89.5762 428.00
89.6414 399.00
89.7066 397.00
89.7718 375.00
89.837 425.00
89.9022 416.00
89.9674 406.00
90.0326 389.00
90.0978 411.00
90.163 442.00
90.2282 440.00
90.2934 408.00
90.3586 420.00
90.4238 446.00
90.489 435.00
90.5542 447.00
90.6193 444.00
90.6845 398.00
90.7497 427.00
90.8149 418.00
90.8801 411.00
90.9453 413.00
91.0105 419.00
91.0757 416.00
91.1409 401.00
91.2061 432.00
91.2713 383.00
91.3365 442.00
91.4017 384.00
91.4669 382.00
91.5321 449.00
91.5973 411.00
91.6625 373.00
91.7277 403.00
91.7929 412.00
91.8581 381.00
91.9233 415.00
91.9885 415.00
92.0537 412.00
92.1189 413.00
92.1841 387.00
92.2493 440.00
92.3145 362.00
92.3797 430.00
92.4449 424.00
92.5101 406.00
92.5753 390.00
92.6405 422.00
92.7057 398.00
92.7709 432.00
92.8361 434.00
92.9013 370.00
92.9665 427.00
93.0317 421.00
93.0969 403.00
93.1621 366.00
93.2273 412.00
93.2925 397.00
93.3577 425.00
93.4229 462.00
93.4881 400.00
93.5533 381.00
93.6185 413.00
93.6837 413.00
93.7489 396.00
93.8141 415.00
93.8793 425.00
93.9445 406.00
94.0097 403.00
94.0749 366.00
94.1401 390.00
94.2053 352.00
94.2705 383.00
94.3357 420.00
94.4009 390.00
94.4661 383.00
94.5313 403.00
94.5965 408.00
94.6617 412.00
94.7269 414.00
94.7921 386.00
94.8573 391.00
94.9225 393.00
94.9877 390.00
95.0529 388.00
95.1181 444.00
95.1833 418.00
95.2485 425.00
95.3137 419.00
95.3789 408.00
95.444 402.00
95.5092 442.00
95.5744 387.00
95.6396 386.00
95.7048 430.00
95.77 430.00
95.8352 419.00
95.9004 358.00
95.9656 408.00
96.0308 431.00
96.096 409.00
96.1612 388.00
96.2264 411.00
96.2916 389.00
96.3568 420.00
96.422 385.00
96.4872 427.00
96.5524 409.00
96.6176 437.00
96.6828 418.00
96.748 418.00
96.8132 372.00
96.8784 410.00
96.9436 408.00
97.0088 439.00
97.074 425.00
97.1392 388.00
97.2044 434.00
97.2696 402.00
97.3348 388.00
97.4 404.00
97.4652 402.00
97.5304 387.00
97.5956 389.00
97.6608 405.00
97.726 397.00
97.7912 394.00
97.8564 380.00
97.9216 414.00
97.9868 383.00
98.052 388.00
98.1172 404.00
98.1824 419.00
98.2476 389.00
98.3128 397.00
98.378 389.00
98.4432 413.00
98.5084 419.00
98.5736 427.00
98.6388 415.00
98.704 389.00
98.7692 397.00
98.8344 416.00
98.8996 429.00
98.9648 398.00
99.03 414.00
99.0952 398.00
99.1604 432.00
99.2256 370.00
99.2908 418.00
99.356 435.00
99.4212 382.00
99.4864 403.00
99.5516 363.00
99.6168 369.00
99.682 401.00
99.7472 398.00
99.8124 415.00
99.8776 413.00
99.9428 407.00
100.008 380.00
100.073 360.00
100.095 351.00