File: data/xrd_creation/results/NSC_205.xy
9.903433 2644.00
9.968632 2715.00
10.0338 2611.00
10.099 2604.00
10.1642 2610.00
10.2294 2647.00
10.2946 2565.00
10.3598 2510.00
10.425 2521.00
10.4902 2495.00
10.5554 2486.00
10.6206 2519.00
10.6858 2534.00
10.751 2568.00
10.8162 2469.00
10.8814 2391.00
10.9466 2408.00
11.0118 2426.00
11.077 2404.00
11.1422 2333.00
11.2074 2318.00
11.2726 2304.00
11.3378 2129.00
11.403 2225.00
11.4682 2280.00
11.5334 2170.00
11.5986 2234.00
11.6638 2129.00
11.729 2115.00
11.7942 2199.00
11.8594 2170.00
11.9246 2114.00
11.9898 2161.00
12.055 2036.00
12.1202 2094.00
12.1854 2023.00
12.2506 2140.00
12.3158 1979.00
12.381 1932.00
12.4462 1962.00
12.5114 1975.00
12.5766 2035.00
12.6418 2007.00
12.707 1926.00
12.7722 1947.00
12.8374 1997.00
12.9026 1919.00
12.9678 1970.00
13.033 1858.00
13.0982 1930.00
13.1634 1858.00
13.2286 1920.00
13.2938 1939.00
13.359 1872.00
13.4242 1980.00
13.4894 1913.00
13.5546 1951.00
13.6198 2055.00
13.685 2025.00
13.7502 2214.00
13.8154 2321.00
13.8805 2394.00
13.9457 2149.00
14.0109 2055.00
14.0761 1931.00
14.1413 1743.00
14.2065 1798.00
14.2717 1880.00
14.3369 1743.00
14.4021 1823.00
14.4673 1762.00
14.5325 1843.00
14.5977 1838.00
14.6629 1849.00
14.7281 1897.00
14.7933 1917.00
14.8585 1816.00
14.9237 1864.00
14.9889 1794.00
15.0541 1753.00
15.1193 1703.00
15.1845 1693.00
15.2497 1605.00
15.3149 1649.00
15.3801 1700.00
15.4453 1653.00
15.5105 1639.00
15.5757 1678.00
15.6409 1560.00
15.7061 1554.00
15.7713 1659.00
15.8365 1653.00
15.9017 1579.00
15.9669 1621.00
16.0321 1654.00
16.0973 1578.00
16.1625 1653.00
16.2277 1571.00
16.2929 1714.00
16.3581 1618.00
16.4233 1670.00
16.4885 1545.00
16.5537 1569.00
16.6189 1565.00
16.6841 1619.00
16.7493 1546.00
16.8145 1725.00
16.8797 1571.00
16.9449 1675.00
17.0101 1521.00
17.0753 1563.00
17.1405 1570.00
17.2057 1615.00
17.2709 1522.00
17.3361 1551.00
17.4013 1544.00
17.4665 1565.00
17.5317 1606.00
17.5969 1677.00
17.6621 1635.00
17.7273 1650.00
17.7925 1550.00
17.8577 1518.00
17.9229 1460.00
17.9881 1432.00
18.0533 1461.00
18.1185 1423.00
18.1837 1469.00
18.2489 1536.00
18.3141 1478.00
18.3793 1438.00
18.4445 1457.00
18.5097 1416.00
18.5749 1379.00
18.6401 1469.00
18.7052 1441.00
18.7704 1455.00
18.8356 1523.00
18.9008 1495.00
18.966 1547.00
19.0312 1585.00
19.0964 1668.00
19.1616 1816.00
19.2268 2136.00
19.292 2620.00
19.3572 3313.00
19.4224 3980.00
19.4876 4586.00
19.5528 5025.00
19.618 4883.00
19.6832 4421.00
19.7484 3810.00
19.8136 2998.00
19.8788 2196.00
19.944 1691.00
20.0092 1617.00
20.0744 1429.00
20.1396 1441.00
20.2048 1468.00
20.27 1470.00
20.3352 1397.00
20.4004 1417.00
20.4656 1480.00
20.5308 1452.00
20.596 1435.00
20.6612 1492.00
20.7264 1558.00
20.7916 1639.00
20.8568 1649.00
20.922 1567.00
20.9872 1606.00
21.0524 1512.00
21.1176 1601.00
21.1828 1663.00
21.248 1706.00
21.3132 1729.00
21.3784 1755.00
21.4436 1726.00
21.5088 1674.00
21.574 1581.00
21.6392 1508.00
21.7044 1453.00
21.7696 1424.00
21.8348 1282.00
21.9 1338.00
21.9652 1330.00
22.0304 1362.00
22.0956 1385.00
22.1608 1389.00
22.226 1371.00
22.2912 1472.00
22.3564 1678.00
22.4216 1799.00
22.4868 1879.00
22.552 1882.00
22.6172 1767.00
22.6824 1569.00
22.7476 1491.00
22.8128 1585.00
22.878 1730.00
22.9432 1988.00
23.0084 2131.00
23.0736 2042.00
23.1388 1806.00
23.204 1502.00
23.2692 1354.00
23.3344 1335.00
23.3996 1241.00
23.4647 1235.00
23.5299 1243.00
23.5951 1307.00
23.6603 1278.00
23.7255 1247.00
23.7907 1230.00
23.8559 1271.00
23.9211 1430.00
23.9863 1447.00
24.0515 1469.00
24.1167 1592.00
24.1819 1559.00
24.2471 1668.00
24.3123 1570.00
24.3775 1572.00
24.4427 1501.00
24.5079 1352.00
24.5731 1413.00
24.6383 1380.00
24.7035 1480.00
24.7687 1388.00
24.8339 1343.00
24.8991 1288.00
24.9643 1171.00
25.0295 1194.00
25.0947 1120.00
25.1599 1255.00
25.2251 1173.00
25.2903 1145.00
25.3555 1205.00
25.4207 1116.00
25.4859 1193.00
25.5511 1259.00
25.6163 1158.00
25.6815 1121.00
25.7467 1149.00
25.8119 1231.00
25.8771 1146.00
25.9423 1213.00
26.0075 1168.00
26.0727 1143.00
26.1379 1130.00
26.2031 1137.00
26.2683 1090.00
26.3335 1135.00
26.3987 1239.00
26.4639 1142.00
26.5291 1164.00
26.5943 1093.00
26.6595 1118.00
26.7247 1118.00
26.7899 1136.00
26.8551 1122.00
26.9203 1117.00
26.9855 1102.00
27.0507 1144.00
27.1159 1117.00
27.1811 1181.00
27.2463 1128.00
27.3115 1199.00
27.3767 1166.00
27.4419 1208.00
27.5071 1353.00
27.5723 1475.00
27.6375 1977.00
27.7027 2420.00
27.7679 2730.00
27.8331 2960.00
27.8983 2550.00
27.9635 2126.00
28.0287 1783.00
28.0939 1705.00
28.1591 1746.00
28.2243 2083.00
28.2894 2434.00
28.3546 2939.00
28.4198 3222.00
28.485 3158.00
28.5502 2836.00
28.6154 2288.00
28.6806 1758.00
28.7458 1454.00
28.811 1288.00
28.8762 1207.00
28.9414 1173.00
29.0066 1077.00
29.0718 1101.00
29.137 1127.00
29.2022 1073.00
29.2674 1076.00
29.3326 1069.00
29.3978 1103.00
29.463 1112.00
29.5282 1068.00
29.5934 1117.00
29.6586 1095.00
29.7238 1131.00
29.789 1069.00
29.8542 1085.00
29.9194 1079.00
29.9846 1087.00
30.0498 1140.00
30.115 1137.00
30.1802 1193.00
30.2454 1253.00
30.3106 1387.00
30.3758 1516.00
30.441 1662.00
30.5062 1746.00
30.5714 1670.00
30.6366 1734.00
30.7018 1929.00
30.767 2297.00
30.8322 3033.00
30.8974 3764.00
30.9626 4296.00
31.0278 4560.00
31.093 4137.00
31.1582 3551.00
31.2234 2756.00
31.2886 2137.00
31.3538 1740.00
31.419 1707.00
31.4842 1779.00
31.5494 2033.00
31.6146 2199.00
31.6798 2501.00
31.745 2597.00
31.8102 2590.00
31.8754 2175.00
31.9406 1736.00
32.0058 1480.00
32.071 1264.00
32.1362 1146.00
32.2014 1135.00
32.2666 1143.00
32.3318 1130.00
32.397 1082.00
32.4622 1027.00
32.5274 1036.00
32.5926 1062.00
32.6578 1005.00
32.723 999.00
32.7882 1075.00
32.8534 1017.00
32.9186 1035.00
32.9838 1140.00
33.0489 1172.00
33.1141 1250.00
33.1793 1285.00
33.2445 1337.00
33.3097 1364.00
33.3749 1291.00
33.4401 1263.00
33.5053 1263.00
33.5705 1258.00
33.6357 1218.00
33.7009 1347.00
33.7661 1333.00
33.8313 1301.00
33.8965 1458.00
33.9617 1490.00
34.0269 1848.00
34.0921 2417.00
34.1573 3136.00
34.2225 4258.00
34.2877 5107.00
34.3529 5261.00
34.4181 4632.00
34.4833 3659.00
34.5485 2770.00
34.6137 2146.00
34.6789 1719.00
34.7441 1658.00
34.8093 1549.00
34.8745 1503.00
34.9397 1275.00
35.0049 1097.00
35.0701 1047.00
35.1353 1036.00
35.2005 1094.00
35.2657 1063.00
35.3309 1120.00
35.3961 1233.00
35.4613 1231.00
35.5265 1362.00
35.5917 1446.00
35.6569 1476.00
35.7221 1367.00
35.7873 1218.00
35.8525 1084.00
35.9177 1022.00
35.9829 1056.00
36.0481 1050.00
36.1133 1049.00
36.1785 1126.00
36.2437 1080.00
36.3089 1017.00
36.3741 938.00
36.4393 927.00
36.5045 938.00
36.5697 904.00
36.6349 872.00
36.7001 844.00
36.7653 897.00
36.8305 901.00
36.8957 932.00
36.9609 919.00
37.0261 876.00
37.0913 981.00
37.1565 866.00
37.2217 864.00
37.2869 861.00
37.3521 870.00
37.4173 940.00
37.4825 925.00
37.5477 841.00
37.6129 848.00
37.6781 862.00
37.7433 869.00
37.8085 856.00
37.8736 847.00
37.9388 899.00
38.004 854.00
38.0692 854.00
38.1344 831.00
38.1996 862.00
38.2648 807.00
38.33 845.00
38.3952 822.00
38.4604 848.00
38.5256 909.00
38.5908 835.00
38.656 904.00
38.7212 933.00
38.7864 1028.00
38.8516 995.00
38.9168 992.00
38.982 1025.00
39.0472 1032.00
39.1124 958.00
39.1776 917.00
39.2428 897.00
39.308 992.00
39.3732 960.00
39.4384 976.00
39.5036 1068.00
39.5688 1061.00
39.634 1014.00
39.6992 963.00
39.7644 1018.00
39.8296 1024.00
39.8948 1007.00
39.96 1032.00
40.0252 968.00
40.0904 940.00
40.1556 908.00
40.2208 858.00
40.286 821.00
40.3512 827.00
40.4164 888.00
40.4816 903.00
40.5468 853.00
40.612 890.00
40.6772 864.00
40.7424 933.00
40.8076 943.00
40.8728 1061.00
40.938 1069.00
41.0032 1121.00
41.0684 1218.00
41.1336 1201.00
41.1988 1283.00
41.264 1260.00
41.3292 1265.00
41.3944 1255.00
41.4596 1225.00
41.5248 1246.00
41.59 1320.00
41.6552 1408.00
41.7204 1457.00
41.7856 1434.00
41.8508 1314.00
41.916 1319.00
41.9812 1199.00
42.0464 1150.00
42.1116 1150.00
42.1768 1173.00
42.242 1163.00
42.3072 1169.00
42.3724 1045.00
42.4376 963.00
42.5028 966.00
42.568 820.00
42.6332 884.00
42.6983 807.00
42.7635 826.00
42.8287 806.00
42.8939 846.00
42.9591 858.00
43.0243 830.00
43.0895 874.00
43.1547 883.00
43.2199 849.00
43.2851 805.00
43.3503 903.00
43.4155 881.00
43.4807 956.00
43.5459 896.00
43.6111 874.00
43.6763 912.00
43.7415 821.00
43.8067 863.00
43.8719 771.00
43.9371 837.00
44.0023 864.00
44.0675 845.00
44.1327 863.00
44.1979 1006.00
44.2631 988.00
44.3283 1181.00
44.3935 1263.00
44.4587 1318.00
44.5239 1445.00
44.5891 1600.00
44.6543 1738.00
44.7195 1709.00
44.7847 1684.00
44.8499 1484.00
44.9151 1313.00
44.9803 1125.00
45.0455 1072.00
45.1107 1036.00
45.1759 999.00
45.2411 965.00
45.3063 937.00
45.3715 942.00
45.4367 907.00
45.5019 910.00
45.5671 912.00
45.6323 928.00
45.6975 968.00
45.7627 992.00
45.8279 1118.00
45.8931 1071.00
45.9583 993.00
46.0235 978.00
46.0887 1009.00
46.1539 959.00
46.2191 1028.00
46.2843 1053.00
46.3495 1051.00
46.4147 1120.00
46.4799 1192.00
46.5451 1273.00
46.6103 1326.00
46.6755 1465.00
46.7407 1583.00
46.8059 1869.00
46.8711 2124.00
46.9363 2203.00
47.0015 2228.00
47.0667 1884.00
47.1319 1668.00
47.1971 1335.00
47.2623 1177.00
47.3275 1072.00
47.3927 1013.00
47.4579 899.00
47.523 905.00
47.5882 886.00
47.6534 814.00
47.7186 831.00
47.7838 794.00
47.849 829.00
47.9142 795.00
47.9794 832.00
48.0446 854.00
48.1098 860.00
48.175 888.00
48.2402 895.00
48.3054 877.00
48.3706 878.00
48.4358 874.00
48.501 872.00
48.5662 904.00
48.6314 883.00
48.6966 892.00
48.7618 860.00
48.827 910.00
48.8922 861.00
48.9574 924.00
49.0226 943.00
49.0878 967.00
49.153 1069.00
49.2182 1129.00
49.2834 1221.00
49.3486 1174.00
49.4138 1144.00
49.479 1140.00
49.5442 1165.00
49.6094 1217.00
49.6746 1199.00
49.7398 1202.00
49.805 1079.00
49.8702 1007.00
49.9354 949.00
50.0006 888.00
50.0658 922.00
50.131 916.00
50.1962 972.00
50.2614 1053.00
50.3266 1062.00
50.3918 1100.00
50.457 1263.00
50.5222 1439.00
50.5874 1654.00
50.6526 1760.00
50.7178 1800.00
50.783 1754.00
50.8482 1775.00
50.9134 1775.00
50.9786 1783.00
51.0438 1717.00
51.109 1668.00
51.1742 1405.00
51.2394 1283.00
51.3046 1193.00
51.3698 1137.00
51.435 1077.00
51.5002 1021.00
51.5654 986.00
51.6306 995.00
51.6958 1015.00
51.761 994.00
51.8262 928.00
51.8914 918.00
51.9566 834.00
52.0218 783.00
52.087 836.00
52.1522 788.00
52.2174 819.00
52.2826 859.00
52.3477 858.00
52.4129 859.00
52.4781 874.00
52.5433 835.00
52.6085 886.00
52.6737 814.00
52.7389 869.00
52.8041 809.00
52.8693 835.00
52.9345 815.00
52.9997 868.00
53.0649 896.00
53.1301 1050.00
53.1953 1061.00
53.2605 1215.00
53.3257 1407.00
53.3909 1485.00
53.4561 1850.00
53.5213 1946.00
53.5865 1930.00
53.6517 1831.00
53.7169 1660.00
53.7821 1421.00
53.8473 1255.00
53.9125 1159.00
53.9777 1079.00
54.0429 1056.00
54.1081 944.00
54.1733 974.00
54.2385 959.00
54.3037 992.00
54.3689 1023.00
54.4341 998.00
54.4993 1074.00
54.5645 1108.00
54.6297 1035.00
54.6949 938.00
54.7601 934.00
54.8253 884.00
54.8905 896.00
54.9557 998.00
55.0209 896.00
55.0861 952.00
55.1513 884.00
55.2165 931.00
55.2817 957.00
55.3469 948.00
55.4121 960.00
55.4773 932.00
55.5425 1008.00
55.6077 1050.00
55.6729 1112.00
55.7381 1162.00
55.8033 1170.00
55.8685 1152.00
55.9337 1142.00
55.9989 1162.00
56.0641 1095.00
56.1293 975.00
56.1945 919.00
56.2597 957.00
56.3249 987.00
56.3901 1000.00
56.4553 1031.00
56.5205 1028.00
56.5857 1022.00
56.6509 893.00
56.7161 836.00
56.7813 844.00
56.8465 801.00
56.9117 790.00
56.9769 828.00
57.042 807.00
57.1073 819.00
57.1724 857.00
57.2376 965.00
57.3028 912.00
57.368 961.00
57.4332 988.00
57.4984 1030.00
57.5636 1075.00
57.6288 1102.00
57.694 1069.00
57.7592 1091.00
57.8244 1069.00
57.8896 1062.00
57.9548 1011.00
58.02 963.00
58.0852 830.00
58.1504 974.00
58.2156 931.00
58.2808 977.00
58.346 939.00
58.4112 1110.00
58.4764 1105.00
58.5416 1100.00
58.6068 1110.00
58.672 1178.00
58.7372 1158.00
58.8024 1189.00
58.8676 1282.00
58.9328 1360.00
58.998 1354.00
59.0632 1408.00
59.1284 1496.00
59.1936 1551.00
59.2588 1698.00
59.324 1823.00
59.3892 1787.00
59.4544 1624.00
59.5196 1621.00
59.5848 1386.00
59.65 1238.00
59.7152 1107.00
59.7804 1014.00
59.8456 954.00
59.9108 918.00
59.976 953.00
60.0412 1051.00
60.1064 990.00
60.1716 1062.00
60.2368 1042.00
60.302 1091.00
60.3672 1163.00
60.4324 1167.00
60.4976 1163.00
60.5628 1170.00
60.628 1229.00
60.6932 1148.00
60.7584 1062.00
60.8236 1060.00
60.8888 991.00
60.954 1083.00
61.0192 1039.00
61.0844 1118.00
61.1496 1135.00
61.2148 1236.00
61.28 1393.00
61.3452 1357.00
61.4104 1401.00
61.4756 1407.00
61.5408 1354.00
61.606 1242.00
61.6712 1158.00
61.7364 1058.00
61.8016 1116.00
61.8667 1032.00
61.932 991.00
61.9971 1023.00
62.0623 985.00
62.1275 993.00
62.1927 1017.00
62.2579 1052.00
62.3231 997.00
62.3883 1100.00
62.4535 1140.00
62.5187 1050.00
62.5839 1060.00
62.6491 1130.00
62.7143 1103.00
62.7795 1108.00
62.8447 1063.00
62.9099 1022.00
62.9751 1101.00
63.0403 1064.00
63.1055 1128.00
63.1707 1054.00
63.2359 1056.00
63.3011 921.00
63.3663 1055.00
63.4315 949.00
63.4967 894.00
63.5619 881.00
63.6271 827.00
63.6923 794.00
63.7575 804.00
63.8227 722.00
63.8879 830.00
63.9531 748.00
64.0183 787.00
64.0835 752.00
64.1487 730.00
64.2139 722.00
64.2791 734.00
64.3443 794.00
64.4095 860.00
64.4747 825.00
64.5399 849.00
64.6051 849.00
64.6703 877.00
64.7355 895.00
64.8007 859.00
64.8659 937.00
64.9311 989.00
64.9963 1015.00
65.0615 915.00
65.1267 971.00
65.1919 926.00
65.2571 950.00
65.3223 854.00
65.3875 816.00
65.4527 887.00
65.5179 903.00
65.5831 918.00
65.6483 874.00
65.7135 991.00
65.7787 930.00
65.8439 1014.00
65.9091 1059.00
65.9743 1140.00
66.0395 1077.00
66.1047 1216.00
66.1699 1239.00
66.2351 1230.00
66.3003 1293.00
66.3655 1313.00
66.4307 1213.00
66.4959 1247.00
66.561 1235.00
66.6263 1212.00
66.6915 1069.00
66.7566 1066.00
66.8218 1009.00
66.887 930.00
66.9522 863.00
67.0174 811.00
67.0826 822.00
67.1478 783.00
67.213 744.00
67.2782 757.00
67.3434 750.00
67.4086 775.00
67.4738 740.00
67.539 744.00
67.6042 748.00
67.6694 754.00
67.7346 705.00
67.7998 733.00
67.865 801.00
67.9302 725.00
67.9954 699.00
68.0606 748.00
68.1258 759.00
68.191 788.00
68.2562 843.00
68.3214 802.00
68.3866 781.00
68.4518 835.00
68.517 879.00
68.5822 1023.00
68.6474 976.00
68.7126 976.00
68.7778 995.00
68.843 979.00
68.9082 927.00
68.9734 837.00
69.0386 865.00
69.1038 834.00
69.169 795.00
69.2342 798.00
69.2994 770.00
69.3646 743.00
69.4298 763.00
69.495 757.00
69.5602 806.00
69.6254 796.00
69.6906 762.00
69.7558 792.00
69.821 782.00
69.8862 761.00
69.9514 762.00
70.0166 722.00
70.0818 724.00
70.147 747.00
70.2122 804.00
70.2774 699.00
70.3426 749.00
70.4078 695.00
70.473 728.00
70.5382 689.00
70.6034 770.00
70.6686 777.00
70.7338 788.00
70.799 798.00
70.8642 730.00
70.9294 777.00
70.9946 800.00
71.0598 780.00
71.125 793.00
71.1902 797.00
71.2554 800.00
71.3205 838.00
71.3858 779.00
71.451 772.00
71.5162 838.00
71.5813 929.00
71.6465 897.00
71.7117 981.00
71.7769 886.00
71.8421 919.00
71.9073 950.00
71.9725 868.00
72.0377 973.00
72.1029 1065.00
72.1681 1017.00
72.2333 1094.00
72.2985 1036.00
72.3637 989.00
72.4289 1047.00
72.4941 955.00
72.5593 887.00
72.6245 905.00
72.6897 932.00
72.7549 865.00
72.8201 865.00
72.8853 836.00
72.9505 846.00
73.0157 888.00
73.0809 860.00
73.1461 893.00
73.2113 907.00
73.2765 882.00
73.3417 884.00
73.4069 878.00
73.4721 862.00
73.5373 817.00
73.6025 852.00
73.6677 796.00
73.7329 815.00
73.7981 788.00
73.8633 783.00
73.9285 750.00
73.9937 746.00
74.0589 796.00
74.1241 730.00
74.1893 727.00
74.2545 787.00
74.3197 735.00
74.3849 798.00
74.4501 779.00
74.5153 812.00
74.5805 739.00
74.6457 745.00
74.7109 704.00
74.7761 769.00
74.8413 740.00
74.9065 778.00
74.9717 724.00
75.0369 753.00
75.1021 797.00
75.1673 834.00
75.2325 817.00
75.2977 885.00
75.3629 837.00
75.4281 880.00
75.4933 861.00
75.5585 956.00
75.6237 923.00
75.6889 926.00
75.7541 942.00
75.8193 979.00
75.8845 982.00
75.9497 910.00
76.0149 899.00
76.0801 893.00
76.1452 856.00
76.2104 845.00
76.2756 771.00
76.3409 771.00
76.406 769.00
76.4712 748.00
76.5364 829.00
76.6016 775.00
76.6668 773.00
76.732 811.00
76.7972 876.00
76.8624 827.00
76.9276 851.00
76.9928 893.00
77.058 943.00
77.1232 869.00
77.1884 852.00
77.2536 842.00
77.3188 809.00
77.384 847.00
77.4492 733.00
77.5144 754.00
77.5796 763.00
77.6448 675.00
77.71 697.00
77.7752 699.00
77.8404 685.00
77.9056 755.00
77.9708 788.00
78.036 753.00
78.1012 739.00
78.1664 731.00
78.2316 735.00
78.2968 727.00
78.362 746.00
78.4272 729.00
78.4924 695.00
78.5576 717.00
78.6228 721.00
78.688 743.00
78.7532 789.00
78.8184 761.00
78.8836 716.00
78.9488 699.00
79.014 745.00
79.0792 735.00
79.1444 806.00
79.2096 770.00
79.2748 761.00
79.34 770.00
79.4052 754.00
79.4704 782.00
79.5356 807.00
79.6008 822.00
79.666 866.00
79.7312 820.00
79.7964 829.00
79.8616 858.00
79.9268 847.00
79.992 897.00
80.0572 831.00
80.1224 827.00
80.1876 824.00
80.2528 844.00
80.318 840.00
80.3832 869.00
80.4484 931.00
80.5136 923.00
80.5788 995.00
80.644 974.00
80.7092 933.00
80.7744 915.00
80.8396 868.00
80.9048 892.00
80.9699 855.00
81.0351 821.00
81.1003 761.00
81.1655 765.00
81.2307 719.00
81.2959 741.00
81.3611 739.00
81.4263 691.00
81.4915 734.00
81.5567 749.00
81.6219 743.00
81.6871 742.00
81.7523 750.00
81.8175 736.00
81.8827 827.00
81.9479 769.00
82.0131 810.00
82.0783 803.00
82.1435 893.00
82.2087 858.00
82.2739 934.00
82.3391 905.00
82.4043 882.00
82.4695 833.00
82.5347 868.00
82.5999 806.00
82.6651 799.00
82.7303 826.00
82.7955 756.00
82.8607 713.00
82.9259 765.00
82.9911 755.00
83.0563 806.00
83.1215 801.00
83.1867 776.00
83.2519 789.00
83.3171 791.00
83.3823 799.00
83.4475 777.00
83.5127 758.00
83.5779 791.00
83.6431 797.00
83.7083 803.00
83.7735 807.00
83.8387 759.00
83.9039 839.00
83.9691 788.00
84.0343 764.00
84.0995 809.00
84.1647 783.00
84.2299 770.00
84.2951 791.00
84.3603 785.00
84.4255 816.00
84.4907 807.00
84.5559 784.00
84.6211 817.00
84.6863 726.00
84.7515 731.00
84.8167 783.00
84.8819 763.00
84.9471 784.00
85.0123 745.00
85.0775 767.00
85.1427 736.00
85.2079 686.00
85.2731 769.00
85.3383 711.00
85.4035 723.00
85.4687 749.00
85.5339 811.00
85.5991 752.00
85.6643 776.00
85.7295 795.00
85.7946 783.00
85.8598 825.00
85.925 839.00
85.9903 770.00
86.0554 778.00
86.1206 762.00
86.1858 794.00
86.251 812.00
86.3162 770.00
86.3814 814.00
86.4466 786.00
86.5118 825.00
86.577 848.00
86.6422 856.00
86.7074 834.00
86.7726 812.00
86.8378 899.00
86.903 899.00
86.9682 922.00
87.0334 963.00
87.0986 970.00
87.1638 888.00
87.229 955.00
87.2942 929.00
87.3594 844.00
87.4246 847.00
87.4898 884.00
87.555 817.00
87.6202 797.00
87.6854 871.00
87.7506 766.00
87.8158 824.00
87.881 818.00
87.9462 790.00
88.0114 773.00
88.0766 782.00
88.1418 778.00
88.207 777.00
88.2722 839.00
88.3374 829.00
88.4026 807.00
88.4678 837.00
88.533 855.00
88.5982 801.00
88.6634 809.00
88.7286 828.00
88.7938 866.00
88.859 823.00
88.9242 851.00
88.9894 839.00
89.0546 864.00
89.1198 884.00
89.185 895.00
89.2502 896.00
89.3154 820.00
89.3806 897.00
89.4458 820.00
89.511 873.00
89.5762 753.00
89.6414 799.00
89.7066 830.00
89.7718 843.00
89.837 805.00
89.9022 876.00
89.9674 827.00
90.0326 803.00
90.0978 858.00
90.163 852.00
90.2282 822.00
90.2934 831.00
90.3586 832.00
90.4238 856.00
90.489 880.00
90.5542 952.00
90.6193 927.00
90.6845 871.00
90.7497 875.00
90.8149 837.00
90.8801 804.00
90.9453 796.00
91.0105 781.00
91.0757 772.00
91.1409 803.00
91.2061 744.00
91.2713 712.00
91.3365 737.00
91.4017 779.00
91.4669 811.00
91.5321 770.00
91.5973 787.00
91.6625 761.00
91.7277 846.00
91.7929 753.00
91.8581 763.00
91.9233 733.00
91.9885 790.00
92.0537 842.00
92.1189 866.00
92.1841 855.00
92.2493 812.00
92.3145 798.00
92.3797 783.00
92.4449 803.00
92.5101 761.00
92.5753 770.00
92.6405 758.00
92.7057 830.00
92.7709 829.00
92.8361 762.00
92.9013 817.00
92.9665 780.00
93.0317 757.00
93.0969 812.00
93.1621 805.00
93.2273 769.00
93.2925 837.00
93.3577 837.00
93.4229 820.00
93.4881 834.00
93.5533 844.00
93.6185 887.00
93.6837 875.00
93.7489 815.00
93.8141 870.00
93.8793 851.00
93.9445 824.00
94.0097 888.00
94.0749 865.00
94.1401 829.00
94.2053 832.00
94.2705 829.00
94.3357 793.00
94.4009 824.00
94.4661 781.00
94.5313 723.00
94.5965 743.00
94.6617 813.00
94.7269 786.00
94.7921 778.00
94.8573 797.00
94.9225 822.00
94.9877 709.00
95.0529 742.00
95.1181 784.00
95.1833 774.00
95.2485 794.00
95.3137 781.00
95.3789 793.00
95.444 870.00
95.5092 877.00
95.5744 849.00
95.6396 778.00
95.7048 868.00
95.77 789.00
95.8352 850.00
95.9004 842.00
95.9656 862.00
96.0308 783.00
96.096 826.00
96.1612 802.00
96.2264 831.00
96.2916 835.00
96.3568 790.00
96.422 786.00
96.4872 780.00
96.5524 754.00
96.6176 808.00
96.6828 787.00
96.748 793.00
96.8132 788.00
96.8784 829.00
96.9436 813.00
97.0088 773.00
97.074 818.00
97.1392 785.00
97.2044 816.00
97.2696 807.00
97.3348 814.00
97.4 819.00
97.4652 829.00
97.5304 831.00
97.5956 759.00
97.6608 868.00
97.726 795.00
97.7912 781.00
97.8564 797.00
97.9216 816.00
97.9868 763.00
98.052 803.00
98.1172 760.00
98.1824 780.00
98.2476 787.00
98.3128 753.00
98.378 774.00
98.4432 737.00
98.5084 766.00
98.5736 734.00
98.6388 755.00
98.704 820.00
98.7692 792.00
98.8344 782.00
98.8996 768.00
98.9648 758.00
99.03 800.00
99.0952 819.00
99.1604 863.00
99.2256 766.00
99.2908 875.00
99.356 875.00
99.4212 826.00
99.4864 833.00
99.5516 814.00
99.6168 824.00
99.682 866.00
99.7472 871.00
99.8124 914.00
99.8776 925.00
99.9428 897.00
100.008 955.00
100.073 918.00
100.095 1049.00