File: data/xrd_creation/results/NSC_72.xy
9.903433 3112.00
9.968632 3182.00
10.0338 3089.00
10.099 3086.00
10.1642 2963.00
10.2294 2821.00
10.2946 2905.00
10.3598 2922.00
10.425 3020.00
10.4902 3157.00
10.5554 3115.00
10.6206 3102.00
10.6858 2972.00
10.751 2738.00
10.8162 2532.00
10.8814 2584.00
10.9466 2663.00
11.0118 2600.00
11.077 2539.00
11.1422 2464.00
11.2074 2442.00
11.2726 2498.00
11.3378 2503.00
11.403 2379.00
11.4682 2492.00
11.5334 2410.00
11.5986 2352.00
11.6638 2376.00
11.729 2407.00
11.7942 2241.00
11.8594 2397.00
11.9246 2293.00
11.9898 2241.00
12.055 2160.00
12.1202 2239.00
12.1854 2187.00
12.2506 2229.00
12.3158 2139.00
12.381 2193.00
12.4462 2223.00
12.5114 2182.00
12.5766 2140.00
12.6418 2238.00
12.707 2230.00
12.7722 2267.00
12.8374 2292.00
12.9026 2440.00
12.9678 2655.00
13.033 3007.00
13.0982 3275.00
13.1634 3296.00
13.2286 2939.00
13.2938 2503.00
13.359 2177.00
13.4242 2144.00
13.4894 2116.00
13.5546 1953.00
13.6198 2028.00
13.685 2021.00
13.7502 1916.00
13.8154 1862.00
13.8805 1967.00
13.9457 1985.00
14.0109 1965.00
14.0761 2013.00
14.1413 1905.00
14.2065 1904.00
14.2717 1952.00
14.3369 1905.00
14.4021 1832.00
14.4673 1839.00
14.5325 1869.00
14.5977 1915.00
14.6629 1797.00
14.7281 1880.00
14.7933 1914.00
14.8585 1836.00
14.9237 1889.00
14.9889 1864.00
15.0541 1869.00
15.1193 1885.00
15.1845 1803.00
15.2497 1787.00
15.3149 1783.00
15.3801 1711.00
15.4453 1827.00
15.5105 1782.00
15.5757 1801.00
15.6409 1899.00
15.7061 1968.00
15.7713 1950.00
15.8365 2058.00
15.9017 2013.00
15.9669 2007.00
16.0321 1991.00
16.0973 1841.00
16.1625 1837.00
16.2277 1773.00
16.2929 1732.00
16.3581 1743.00
16.4233 1685.00
16.4885 1691.00
16.5537 1652.00
16.6189 1679.00
16.6841 1649.00
16.7493 1764.00
16.8145 1766.00
16.8797 1697.00
16.9449 1707.00
17.0101 1688.00
17.0753 1656.00
17.1405 1663.00
17.2057 1674.00
17.2709 1636.00
17.3361 1606.00
17.4013 1722.00
17.4665 1671.00
17.5317 1681.00
17.5969 1546.00
17.6621 1724.00
17.7273 1692.00
17.7925 1665.00
17.8577 1535.00
17.9229 1685.00
17.9881 1679.00
18.0533 1653.00
18.1185 1714.00
18.1837 1641.00
18.2489 1572.00
18.3141 1568.00
18.3793 1591.00
18.4445 1513.00
18.5097 1505.00
18.5749 1627.00
18.6401 1596.00
18.7052 1528.00
18.7704 1544.00
18.8356 1723.00
18.9008 1678.00
18.966 1628.00
19.0312 1662.00
19.0964 1551.00
19.1616 1567.00
19.2268 1500.00
19.292 1497.00
19.3572 1576.00
19.4224 1638.00
19.4876 1638.00
19.5528 1682.00
19.618 1708.00
19.6832 1838.00
19.7484 1972.00
19.8136 2442.00
19.8788 3107.00
19.944 3734.00
20.0092 4020.00
20.0744 3954.00
20.1396 3310.00
20.2048 2570.00
20.27 2130.00
20.3352 1969.00
20.4004 1726.00
20.4656 1723.00
20.5308 1890.00
20.596 2043.00
20.6612 2733.00
20.7264 3868.00
20.7916 5492.00
20.8568 7344.00
20.922 8845.00
20.9872 9607.00
21.0524 9696.00
21.1176 9823.00
21.1828 9106.00
21.248 7990.00
21.3132 5913.00
21.3784 3744.00
21.4436 2257.00
21.5088 1774.00
21.574 1671.00
21.6392 1517.00
21.7044 1534.00
21.7696 1496.00
21.8348 1441.00
21.9 1406.00
21.9652 1366.00
22.0304 1358.00
22.0956 1358.00
22.1608 1382.00
22.226 1327.00
22.2912 1353.00
22.3564 1433.00
22.4216 1379.00
22.4868 1344.00
22.552 1376.00
22.6172 1450.00
22.6824 1477.00
22.7476 1458.00
22.8128 1523.00
22.878 1446.00
22.9432 1411.00
23.0084 1456.00
23.0736 1515.00
23.1388 1644.00
23.204 1837.00
23.2692 2017.00
23.3344 2144.00
23.3996 2134.00
23.4647 1987.00
23.5299 1859.00
23.5951 1732.00
23.6603 1701.00
23.7255 1597.00
23.7907 1675.00
23.8559 1710.00
23.9211 1826.00
23.9863 1945.00
24.0515 1859.00
24.1167 1773.00
24.1819 1613.00
24.2471 1416.00
24.3123 1264.00
24.3775 1376.00
24.4427 1363.00
24.5079 1288.00
24.5731 1244.00
24.6383 1315.00
24.7035 1228.00
24.7687 1213.00
24.8339 1236.00
24.8991 1315.00
24.9643 1301.00
25.0295 1563.00
25.0947 1839.00
25.1599 2126.00
25.2251 2361.00
25.2903 2210.00
25.3555 1784.00
25.4207 1561.00
25.4859 1483.00
25.5511 1571.00
25.6163 1598.00
25.6815 1578.00
25.7467 1469.00
25.8119 1452.00
25.8771 1430.00
25.9423 1501.00
26.0075 1483.00
26.0727 1638.00
26.1379 1558.00
26.2031 1510.00
26.2683 1590.00
26.3335 1749.00
26.3987 1896.00
26.4639 1972.00
26.5291 2014.00
26.5943 1843.00
26.6595 1698.00
26.7247 1740.00
26.7899 1682.00
26.8551 1523.00
26.9203 1399.00
26.9855 1266.00
27.0507 1174.00
27.1159 1108.00
27.1811 1175.00
27.2463 1138.00
27.3115 1203.00
27.3767 1211.00
27.4419 1192.00
27.5071 1253.00
27.5723 1233.00
27.6375 1301.00
27.7027 1244.00
27.7679 1169.00
27.8331 1139.00
27.8983 1081.00
27.9635 1098.00
28.0287 1088.00
28.0939 1010.00
28.1591 1029.00
28.2243 1098.00
28.2894 1054.00
28.3546 1047.00
28.4198 1072.00
28.485 1084.00
28.5502 1062.00
28.6154 1109.00
28.6806 1140.00
28.7458 1106.00
28.811 1079.00
28.8762 1131.00
28.9414 1127.00
29.0066 1116.00
29.0718 1167.00
29.137 1215.00
29.2022 1296.00
29.2674 1534.00
29.3326 1653.00
29.3978 1632.00
29.463 1564.00
29.5282 1371.00
29.5934 1185.00
29.6586 1154.00
29.7238 1056.00
29.789 1071.00
29.8542 1056.00
29.9194 1080.00
29.9846 1090.00
30.0498 1041.00
30.115 1134.00
30.1802 1203.00
30.2454 1215.00
30.3106 1250.00
30.3758 1189.00
30.441 1151.00
30.5062 1134.00
30.5714 1058.00
30.6366 993.00
30.7018 997.00
30.767 995.00
30.8322 1011.00
30.8974 961.00
30.9626 997.00
31.0278 1032.00
31.093 959.00
31.1582 1015.00
31.2234 1050.00
31.2886 968.00
31.3538 1023.00
31.419 1041.00
31.4842 1207.00
31.5494 1191.00
31.6146 1293.00
31.6798 1355.00
31.745 1394.00
31.8102 1388.00
31.8754 1389.00
31.9406 1316.00
32.0058 1376.00
32.071 1577.00
32.1362 1726.00
32.2014 1657.00
32.2666 1821.00
32.3318 1884.00
32.397 2180.00
32.4622 2489.00
32.5274 2769.00
32.5926 2930.00
32.6578 2835.00
32.723 2677.00
32.7882 2198.00
32.8534 2069.00
32.9186 2052.00
32.9838 2410.00
33.0489 2799.00
33.1141 2693.00
33.1793 2560.00
33.2445 1890.00
33.3097 1548.00
33.3749 1219.00
33.4401 1129.00
33.5053 1130.00
33.5705 1230.00
33.6357 1294.00
33.7009 1398.00
33.7661 1440.00
33.8313 1455.00
33.8965 1432.00
33.9617 1517.00
34.0269 1683.00
34.0921 1990.00
34.1573 2585.00
34.2225 3595.00
34.2877 4557.00
34.3529 4853.00
34.4181 5002.00
34.4833 4618.00
34.5485 4910.00
34.6137 5585.00
34.6789 6532.00
34.7441 6778.00
34.8093 6749.00
34.8745 6470.00
34.9397 5598.00
35.0049 4559.00
35.0701 3913.00
35.1353 3504.00
35.2005 3115.00
35.2657 2550.00
35.3309 1941.00
35.3961 1505.00
35.4613 1248.00
35.5265 1118.00
35.5917 1056.00
35.6569 1249.00
35.7221 1336.00
35.7873 1464.00
35.8525 1501.00
35.9177 1462.00
35.9829 1273.00
36.0481 1266.00
36.1133 1270.00
36.1785 1265.00
36.2437 1235.00
36.3089 1156.00
36.3741 1172.00
36.4393 1282.00
36.5045 1516.00
36.5697 1605.00
36.6349 1524.00
36.7001 1399.00
36.7653 1240.00
36.8305 1139.00
36.8957 1097.00
36.9609 1043.00
37.0261 1019.00
37.0913 1030.00
37.1565 1044.00
37.2217 993.00
37.2869 912.00
37.3521 911.00
37.4173 909.00
37.4825 848.00
37.5477 897.00
37.6129 886.00
37.6781 939.00
37.7433 946.00
37.8085 920.00
37.8736 810.00
37.9388 825.00
38.004 858.00
38.0692 812.00
38.1344 902.00
38.1996 904.00
38.2648 1048.00
38.33 1138.00
38.3952 1249.00
38.4604 1320.00
38.5256 1279.00
38.5908 1159.00
38.656 1034.00
38.7212 895.00
38.7864 856.00
38.8516 857.00
38.9168 751.00
38.982 807.00
39.0472 754.00
39.1124 800.00
39.1776 790.00
39.2428 849.00
39.308 831.00
39.3732 811.00
39.4384 801.00
39.5036 817.00
39.5688 782.00
39.634 803.00
39.6992 840.00
39.7644 744.00
39.8296 876.00
39.8948 909.00
39.96 960.00
40.0252 1201.00
40.0904 1454.00
40.1556 1781.00
40.2208 1952.00
40.286 1812.00
40.3512 1459.00
40.4164 1344.00
40.4816 1353.00
40.5468 1511.00
40.612 1861.00
40.6772 2084.00
40.7424 2257.00
40.8076 2324.00
40.8728 2206.00
40.938 1855.00
41.0032 1590.00
41.0684 1203.00
41.1336 1059.00
41.1988 962.00
41.264 969.00
41.3292 964.00
41.3944 984.00
41.4596 994.00
41.5248 917.00
41.59 843.00
41.6552 845.00
41.7204 802.00
41.7856 816.00
41.8508 892.00
41.916 942.00
41.9812 930.00
42.0464 908.00
42.1116 903.00
42.1768 906.00
42.242 915.00
42.3072 871.00
42.3724 971.00
42.4376 1191.00
42.5028 1458.00
42.568 1474.00
42.6332 1554.00
42.6983 1386.00
42.7635 1311.00
42.8287 1244.00
42.8939 1119.00
42.9591 1155.00
43.0243 1161.00
43.0895 1044.00
43.1547 1092.00
43.2199 1100.00
43.2851 1099.00
43.3503 994.00
43.4155 1048.00
43.4807 1116.00
43.5459 1098.00
43.6111 1145.00
43.6763 1128.00
43.7415 1065.00
43.8067 872.00
43.8719 878.00
43.9371 809.00
44.0023 811.00
44.0675 797.00
44.1327 815.00
44.1979 820.00
44.2631 870.00
44.3283 922.00
44.3935 988.00
44.4587 1206.00
44.5239 1318.00
44.5891 1511.00
44.6543 1596.00
44.7195 1677.00
44.7847 1676.00
44.8499 1460.00
44.9151 1195.00
44.9803 1012.00
45.0455 896.00
45.1107 882.00
45.1759 951.00
45.2411 891.00
45.3063 823.00
45.3715 773.00
45.4367 731.00
45.5019 659.00
45.5671 715.00
45.6323 673.00
45.6975 701.00
45.7627 641.00
45.8279 703.00
45.8931 675.00
45.9583 697.00
46.0235 686.00
46.0887 722.00
46.1539 739.00
46.2191 840.00
46.2843 878.00
46.3495 851.00
46.4147 908.00
46.4799 910.00
46.5451 864.00
46.6103 780.00
46.6755 819.00
46.7407 710.00
46.8059 720.00
46.8711 746.00
46.9363 751.00
47.0015 802.00
47.0667 846.00
47.1319 887.00
47.1971 980.00
47.2623 989.00
47.3275 1065.00
47.3927 958.00
47.4579 919.00
47.523 915.00
47.5882 877.00
47.6534 869.00
47.7186 829.00
47.7838 827.00
47.849 864.00
47.9142 945.00
47.9794 1038.00
48.0446 1058.00
48.1098 1078.00
48.175 1035.00
48.2402 940.00
48.3054 929.00
48.3706 847.00
48.4358 826.00
48.501 816.00
48.5662 854.00
48.6314 860.00
48.6966 920.00
48.7618 881.00
48.827 810.00
48.8922 935.00
48.9574 1034.00
49.0226 990.00
49.0878 1155.00
49.153 1300.00
49.2182 1364.00
49.2834 1509.00
49.3486 1502.00
49.4138 1454.00
49.479 1317.00
49.5442 1174.00
49.6094 977.00
49.6746 1008.00
49.7398 1095.00
49.805 1219.00
49.8702 1257.00
49.9354 1142.00
50.0006 1129.00
50.0658 1139.00
50.131 1337.00
50.1962 1490.00
50.2614 1660.00
50.3266 1668.00
50.3918 1582.00
50.457 1522.00
50.5222 1535.00
50.5874 1297.00
50.6526 1202.00
50.7178 1127.00
50.783 934.00
50.8482 814.00
50.9134 726.00
50.9786 760.00
51.0438 658.00
51.109 644.00
51.1742 668.00
51.2394 616.00
51.3046 638.00
51.3698 630.00
51.435 658.00
51.5002 628.00
51.5654 681.00
51.6306 709.00
51.6958 745.00
51.761 699.00
51.8262 782.00
51.8914 744.00
51.9566 751.00
52.0218 843.00
52.087 929.00
52.1522 875.00
52.2174 922.00
52.2826 881.00
52.3477 825.00
52.4129 814.00
52.4781 802.00
52.5433 765.00
52.6085 796.00
52.6737 806.00
52.7389 717.00
52.8041 739.00
52.8693 694.00
52.9345 711.00
52.9997 664.00
53.0649 704.00
53.1301 680.00
53.1953 698.00
53.2605 731.00
53.3257 848.00
53.3909 980.00
53.4561 1018.00
53.5213 1059.00
53.5865 1068.00
53.6517 982.00
53.7169 940.00
53.7821 941.00
53.8473 1000.00
53.9125 921.00
53.9777 904.00
54.0429 880.00
54.1081 892.00
54.1733 823.00
54.2385 866.00
54.3037 892.00
54.3689 841.00
54.4341 885.00
54.4993 820.00
54.5645 972.00
54.6297 975.00
54.6949 1092.00
54.7601 1132.00
54.8253 1208.00
54.8905 1123.00
54.9557 1109.00
55.0209 969.00
55.0861 876.00
55.1513 884.00
55.2165 805.00
55.2817 779.00
55.3469 820.00
55.4121 816.00
55.4773 844.00
55.5425 896.00
55.6077 878.00
55.6729 839.00
55.7381 882.00
55.8033 707.00
55.8685 802.00
55.9337 789.00
55.9989 811.00
56.0641 830.00
56.1293 875.00
56.1945 825.00
56.2597 830.00
56.3249 809.00
56.3901 761.00
56.4553 652.00
56.5205 724.00
56.5857 777.00
56.6509 782.00
56.7161 812.00
56.7813 831.00
56.8465 789.00
56.9117 757.00
56.9769 688.00
57.042 706.00
57.1073 655.00
57.1724 672.00
57.2376 615.00
57.3028 614.00
57.368 709.00
57.4332 702.00
57.4984 678.00
57.5636 720.00
57.6288 681.00
57.694 702.00
57.7592 728.00
57.8244 778.00
57.8896 813.00
57.9548 803.00
58.02 821.00
58.0852 836.00
58.1504 838.00
58.2156 828.00
58.2808 806.00
58.346 759.00
58.4112 715.00
58.4764 629.00
58.5416 627.00
58.6068 673.00
58.672 650.00
58.7372 677.00
58.8024 706.00
58.8676 752.00
58.9328 796.00
58.998 791.00
59.0632 765.00
59.1284 774.00
59.1936 742.00
59.2588 699.00
59.324 757.00
59.3892 709.00
59.4544 725.00
59.5196 743.00
59.5848 757.00
59.65 754.00
59.7152 631.00
59.7804 681.00
59.8456 662.00
59.9108 608.00
59.976 677.00
60.0412 721.00
60.1064 875.00
60.1716 856.00
60.2368 913.00
60.302 970.00
60.3672 864.00
60.4324 848.00
60.4976 812.00
60.5628 757.00
60.628 759.00
60.6932 701.00
60.7584 644.00
60.8236 685.00
60.8888 656.00
60.954 639.00
61.0192 682.00
61.0844 645.00
61.1496 702.00
61.2148 704.00
61.28 747.00
61.3452 823.00
61.4104 815.00
61.4756 876.00
61.5408 994.00
61.606 1002.00
61.6712 1023.00
61.7364 1135.00
61.8016 1211.00
61.8667 1263.00
61.932 1435.00
61.9971 1551.00
62.0623 1417.00
62.1275 1334.00
62.1927 1487.00
62.2579 1423.00
62.3231 1529.00
62.3883 1450.00
62.4535 1406.00
62.5187 1283.00
62.5839 1172.00
62.6491 1113.00
62.7143 1169.00
62.7795 1121.00
62.8447 1092.00
62.9099 1108.00
62.9751 1132.00
63.0403 1052.00
63.1055 1001.00
63.1707 929.00
63.2359 817.00
63.3011 839.00
63.3663 746.00
63.4315 687.00
63.4967 647.00
63.5619 635.00
63.6271 611.00
63.6923 685.00
63.7575 675.00
63.8227 642.00
63.8879 677.00
63.9531 754.00
64.0183 661.00
64.0835 662.00
64.1487 628.00
64.2139 663.00
64.2791 603.00
64.3443 612.00
64.4095 604.00
64.4747 598.00
64.5399 620.00
64.6051 600.00
64.6703 571.00
64.7355 607.00
64.8007 548.00
64.8659 691.00
64.9311 617.00
64.9963 630.00
65.0615 655.00
65.1267 715.00
65.1919 708.00
65.2571 784.00
65.3223 737.00
65.3875 713.00
65.4527 720.00
65.5179 727.00
65.5831 742.00
65.6483 659.00
65.7135 608.00
65.7787 663.00
65.8439 589.00
65.9091 601.00
65.9743 586.00
66.0395 608.00
66.1047 610.00
66.1699 636.00
66.2351 596.00
66.3003 647.00
66.3655 663.00
66.4307 628.00
66.4959 717.00
66.561 723.00
66.6263 718.00
66.6915 699.00
66.7566 644.00
66.8218 662.00
66.887 673.00
66.9522 696.00
67.0174 710.00
67.0826 714.00
67.1478 716.00
67.213 708.00
67.2782 704.00
67.3434 715.00
67.4086 729.00
67.4738 653.00
67.539 557.00
67.6042 609.00
67.6694 563.00
67.7346 553.00
67.7998 568.00
67.865 536.00
67.9302 566.00
67.9954 544.00
68.0606 501.00
68.1258 518.00
68.191 499.00
68.2562 498.00
68.3214 480.00
68.3866 515.00
68.4518 465.00
68.517 496.00
68.5822 467.00
68.6474 508.00
68.7126 528.00
68.7778 510.00
68.843 563.00
68.9082 631.00
68.9734 676.00
69.0386 729.00
69.1038 733.00
69.169 718.00
69.2342 711.00
69.2994 697.00
69.3646 659.00
69.4298 680.00
69.495 637.00
69.5602 637.00
69.6254 676.00
69.6906 660.00
69.7558 723.00
69.821 631.00
69.8862 650.00
69.9514 607.00
70.0166 609.00
70.0818 573.00
70.147 572.00
70.2122 571.00
70.2774 574.00
70.3426 551.00
70.4078 543.00
70.473 558.00
70.5382 548.00
70.6034 523.00
70.6686 483.00
70.7338 507.00
70.799 510.00
70.8642 480.00
70.9294 491.00
70.9946 477.00
71.0598 523.00
71.125 492.00
71.1902 504.00
71.2554 532.00
71.3205 554.00
71.3858 526.00
71.451 498.00
71.5162 547.00
71.5813 508.00
71.6465 543.00
71.7117 497.00
71.7769 512.00
71.8421 475.00
71.9073 550.00
71.9725 506.00
72.0377 512.00
72.1029 581.00
72.1681 570.00
72.2333 647.00
72.2985 661.00
72.3637 710.00
72.4289 701.00
72.4941 724.00
72.5593 652.00
72.6245 671.00
72.6897 634.00
72.7549 631.00
72.8201 543.00
72.8853 597.00
72.9505 565.00
73.0157 592.00
73.0809 578.00
73.1461 559.00
73.2113 613.00
73.2765 579.00
73.3417 582.00
73.4069 639.00
73.4721 603.00
73.5373 587.00
73.6025 582.00
73.6677 579.00
73.7329 589.00
73.7981 619.00
73.8633 608.00
73.9285 599.00
73.9937 606.00
74.0589 582.00
74.1241 587.00
74.1893 685.00
74.2545 713.00
74.3197 673.00
74.3849 628.00
74.4501 677.00
74.5153 637.00
74.5805 671.00
74.6457 672.00
74.7109 636.00
74.7761 647.00
74.8413 634.00
74.9065 607.00
74.9717 577.00
75.0369 571.00
75.1021 583.00
75.1673 555.00
75.2325 493.00
75.2977 514.00
75.3629 490.00
75.4281 536.00
75.4933 464.00
75.5585 552.00
75.6237 486.00
75.6889 532.00
75.7541 483.00
75.8193 548.00
75.8845 491.00
75.9497 484.00
76.0149 503.00
76.0801 538.00
76.1452 544.00
76.2104 511.00
76.2756 442.00
76.3409 441.00
76.406 422.00
76.4712 438.00
76.5364 451.00
76.6016 480.00
76.6668 486.00
76.732 502.00
76.7972 493.00
76.8624 503.00
76.9276 502.00
76.9928 575.00
77.058 484.00
77.1232 544.00
77.1884 528.00
77.2536 529.00
77.3188 490.00
77.384 491.00
77.4492 567.00
77.5144 529.00
77.5796 542.00
77.6448 523.00
77.71 558.00
77.7752 552.00
77.8404 566.00
77.9056 594.00
77.9708 516.00
78.036 586.00
78.1012 609.00
78.1664 611.00
78.2316 594.00
78.2968 567.00
78.362 507.00
78.4272 556.00
78.4924 481.00
78.5576 505.00
78.6228 506.00
78.688 467.00
78.7532 526.00
78.8184 523.00
78.8836 512.00
78.9488 535.00
79.014 537.00
79.0792 547.00
79.1444 573.00
79.2096 561.00
79.2748 535.00
79.34 515.00
79.4052 507.00
79.4704 533.00
79.5356 455.00
79.6008 449.00
79.666 416.00
79.7312 433.00
79.7964 437.00
79.8616 433.00
79.9268 434.00
79.992 395.00
80.0572 437.00
80.1224 397.00
80.1876 432.00
80.2528 436.00
80.318 491.00
80.3832 497.00
80.4484 522.00
80.5136 474.00
80.5788 437.00
80.644 450.00
80.7092 430.00
80.7744 413.00
80.8396 454.00
80.9048 427.00
80.9699 429.00
81.0351 416.00
81.1003 404.00
81.1655 425.00
81.2307 435.00
81.2959 418.00
81.3611 397.00
81.4263 437.00
81.4915 445.00
81.5567 452.00
81.6219 490.00
81.6871 457.00
81.7523 462.00
81.8175 468.00
81.8827 459.00
81.9479 458.00
82.0131 444.00
82.0783 470.00
82.1435 487.00
82.2087 479.00
82.2739 507.00
82.3391 523.00
82.4043 495.00
82.4695 483.00
82.5347 511.00
82.5999 521.00
82.6651 513.00
82.7303 520.00
82.7955 457.00
82.8607 475.00
82.9259 457.00
82.9911 454.00
83.0563 477.00
83.1215 444.00
83.1867 443.00
83.2519 410.00
83.3171 457.00
83.3823 464.00
83.4475 506.00
83.5127 547.00
83.5779 599.00
83.6431 557.00
83.7083 555.00
83.7735 522.00
83.8387 538.00
83.9039 517.00
83.9691 510.00
84.0343 486.00
84.0995 525.00
84.1647 547.00
84.2299 543.00
84.2951 536.00
84.3603 533.00
84.4255 523.00
84.4907 616.00
84.5559 651.00
84.6211 601.00
84.6863 624.00
84.7515 600.00
84.8167 637.00
84.8819 599.00
84.9471 580.00
85.0123 590.00
85.0775 571.00
85.1427 472.00
85.2079 478.00
85.2731 475.00
85.3383 432.00
85.4035 441.00
85.4687 443.00
85.5339 422.00
85.5991 459.00
85.6643 434.00
85.7295 406.00
85.7946 401.00
85.8598 408.00
85.925 402.00
85.9903 398.00
86.0554 412.00
86.1206 467.00
86.1858 421.00
86.251 430.00
86.3162 421.00
86.3814 419.00
86.4466 481.00
86.5118 433.00
86.577 448.00
86.6422 439.00
86.7074 394.00
86.7726 416.00
86.8378 415.00
86.903 411.00
86.9682 379.00
87.0334 386.00
87.0986 427.00
87.1638 433.00
87.229 382.00
87.2942 422.00
87.3594 382.00
87.4246 387.00
87.4898 444.00
87.555 435.00
87.6202 441.00
87.6854 460.00
87.7506 428.00
87.8158 433.00
87.881 462.00
87.9462 473.00
88.0114 466.00
88.0766 467.00
88.1418 489.00
88.207 494.00
88.2722 517.00
88.3374 481.00
88.4026 509.00
88.4678 564.00
88.533 563.00
88.5982 475.00
88.6634 521.00
88.7286 534.00
88.7938 465.00
88.859 488.00
88.9242 436.00
88.9894 449.00
89.0546 417.00
89.1198 422.00
89.185 401.00
89.2502 414.00
89.3154 466.00
89.3806 431.00
89.4458 427.00
89.511 416.00
89.5762 414.00
89.6414 430.00
89.7066 441.00
89.7718 456.00
89.837 459.00
89.9022 451.00
89.9674 485.00
90.0326 460.00
90.0978 466.00
90.163 449.00
90.2282 415.00
90.2934 489.00
90.3586 476.00
90.4238 527.00
90.489 505.00
90.5542 504.00
90.6193 563.00
90.6845 500.00
90.7497 546.00
90.8149 499.00
90.8801 453.00
90.9453 468.00
91.0105 485.00
91.0757 459.00
91.1409 422.00
91.2061 455.00
91.2713 439.00
91.3365 467.00
91.4017 446.00
91.4669 408.00
91.5321 443.00
91.5973 421.00
91.6625 378.00
91.7277 418.00
91.7929 404.00
91.8581 476.00
91.9233 446.00
91.9885 462.00
92.0537 417.00
92.1189 444.00
92.1841 431.00
92.2493 424.00
92.3145 408.00
92.3797 392.00
92.4449 400.00
92.5101 424.00
92.5753 396.00
92.6405 391.00
92.7057 395.00
92.7709 425.00
92.8361 420.00
92.9013 377.00
92.9665 370.00
93.0317 415.00
93.0969 434.00
93.1621 481.00
93.2273 452.00
93.2925 474.00
93.3577 500.00
93.4229 479.00
93.4881 462.00
93.5533 478.00
93.6185 462.00
93.6837 466.00
93.7489 431.00
93.8141 454.00
93.8793 485.00
93.9445 436.00
94.0097 490.00
94.0749 450.00
94.1401 431.00
94.2053 439.00
94.2705 427.00
94.3357 407.00
94.4009 448.00
94.4661 390.00
94.5313 472.00
94.5965 456.00
94.6617 469.00
94.7269 539.00
94.7921 497.00
94.8573 466.00
94.9225 457.00
94.9877 459.00
95.0529 512.00
95.1181 431.00
95.1833 406.00
95.2485 451.00
95.3137 388.00
95.3789 445.00
95.444 439.00
95.5092 490.00
95.5744 455.00
95.6396 447.00
95.7048 414.00
95.77 442.00
95.8352 498.00
95.9004 413.00
95.9656 499.00
96.0308 487.00
96.096 479.00
96.1612 416.00
96.2264 463.00
96.2916 461.00
96.3568 458.00
96.422 427.00
96.4872 453.00
96.5524 422.00
96.6176 391.00
96.6828 422.00
96.748 421.00
96.8132 420.00
96.8784 393.00
96.9436 395.00
97.0088 406.00
97.074 361.00
97.1392 392.00
97.2044 381.00
97.2696 421.00
97.3348 415.00
97.4 384.00
97.4652 408.00
97.5304 403.00
97.5956 390.00
97.6608 420.00
97.726 427.00
97.7912 468.00
97.8564 412.00
97.9216 451.00
97.9868 474.00
98.052 457.00
98.1172 475.00
98.1824 424.00
98.2476 462.00
98.3128 444.00
98.378 472.00
98.4432 441.00
98.5084 447.00
98.5736 454.00
98.6388 504.00
98.704 442.00
98.7692 426.00
98.8344 471.00
98.8996 452.00
98.9648 474.00
99.03 452.00
99.0952 510.00
99.1604 418.00
99.2256 514.00
99.2908 454.00
99.356 495.00
99.4212 441.00
99.4864 418.00
99.5516 437.00
99.6168 453.00
99.682 469.00
99.7472 432.00
99.8124 412.00
99.8776 387.00
99.9428 373.00
100.008 487.00
100.073 427.00
100.095 397.00