File: data/xrd_creation/results/NSC_61.xy
9.903433 2812.00
9.968632 2774.00
10.0338 2783.00
10.099 2719.00
10.1642 2759.00
10.2294 2587.00
10.2946 2748.00
10.3598 2697.00
10.425 2608.00
10.4902 2620.00
10.5554 2678.00
10.6206 2620.00
10.6858 2705.00
10.751 2893.00
10.8162 2948.00
10.8814 2934.00
10.9466 2723.00
11.0118 2452.00
11.077 2523.00
11.1422 2409.00
11.2074 2364.00
11.2726 2300.00
11.3378 2310.00
11.403 2335.00
11.4682 2299.00
11.5334 2200.00
11.5986 2264.00
11.6638 2175.00
11.729 2273.00
11.7942 2217.00
11.8594 2231.00
11.9246 2252.00
11.9898 2309.00
12.055 2162.00
12.1202 2087.00
12.1854 2159.00
12.2506 2122.00
12.3158 2087.00
12.381 2161.00
12.4462 2095.00
12.5114 2056.00
12.5766 2081.00
12.6418 2109.00
12.707 2050.00
12.7722 2189.00
12.8374 2127.00
12.9026 2183.00
12.9678 2189.00
13.033 2245.00
13.0982 2338.00
13.1634 2567.00
13.2286 2781.00
13.2938 2621.00
13.359 2112.00
13.4242 1956.00
13.4894 1926.00
13.5546 1980.00
13.6198 1960.00
13.685 1953.00
13.7502 1929.00
13.8154 1938.00
13.8805 1926.00
13.9457 1958.00
14.0109 2050.00
14.0761 1981.00
14.1413 2083.00
14.2065 2361.00
14.2717 2584.00
14.3369 2488.00
14.4021 2123.00
14.4673 1919.00
14.5325 1928.00
14.5977 1875.00
14.6629 1865.00
14.7281 1886.00
14.7933 1863.00
14.8585 1806.00
14.9237 1810.00
14.9889 1859.00
15.0541 1821.00
15.1193 1865.00
15.1845 1895.00
15.2497 1850.00
15.3149 1877.00
15.3801 1836.00
15.4453 1830.00
15.5105 2001.00
15.5757 2055.00
15.6409 2192.00
15.7061 2320.00
15.7713 2193.00
15.8365 2068.00
15.9017 2240.00
15.9669 2590.00
16.0321 3184.00
16.0973 3172.00
16.1625 2431.00
16.2277 2084.00
16.2929 1874.00
16.3581 1723.00
16.4233 1637.00
16.4885 1759.00
16.5537 1646.00
16.6189 1703.00
16.6841 1687.00
16.7493 1663.00
16.8145 1601.00
16.8797 1650.00
16.9449 1613.00
17.0101 1607.00
17.0753 1659.00
17.1405 1695.00
17.2057 1720.00
17.2709 1774.00
17.3361 1694.00
17.4013 1676.00
17.4665 1640.00
17.5317 1696.00
17.5969 1628.00
17.6621 1581.00
17.7273 1613.00
17.7925 1614.00
17.8577 1509.00
17.9229 1586.00
17.9881 1588.00
18.0533 1656.00
18.1185 1579.00
18.1837 1656.00
18.2489 1695.00
18.3141 1600.00
18.3793 1596.00
18.4445 1590.00
18.5097 1564.00
18.5749 1508.00
18.6401 1456.00
18.7052 1591.00
18.7704 1529.00
18.8356 1545.00
18.9008 1508.00
18.966 1440.00
19.0312 1511.00
19.0964 1499.00
19.1616 1488.00
19.2268 1528.00
19.292 1563.00
19.3572 1572.00
19.4224 1550.00
19.4876 1701.00
19.5528 1652.00
19.618 1743.00
19.6832 1832.00
19.7484 1987.00
19.8136 2359.00
19.8788 2788.00
19.944 2859.00
20.0092 2650.00
20.0744 2307.00
20.1396 2319.00
20.2048 2729.00
20.27 2876.00
20.3352 2208.00
20.4004 1890.00
20.4656 1810.00
20.5308 1580.00
20.596 1771.00
20.6612 1709.00
20.7264 1944.00
20.7916 1872.00
20.8568 1611.00
20.922 1527.00
20.9872 1571.00
21.0524 1541.00
21.1176 1487.00
21.1828 1366.00
21.248 1454.00
21.3132 1488.00
21.3784 1512.00
21.4436 1438.00
21.5088 1393.00
21.574 1401.00
21.6392 1378.00
21.7044 1510.00
21.7696 1502.00
21.8348 1705.00
21.9 1718.00
21.9652 1652.00
22.0304 1839.00
22.0956 1901.00
22.1608 1896.00
22.226 1584.00
22.2912 1434.00
22.3564 1469.00
22.4216 1516.00
22.4868 1552.00
22.552 1970.00
22.6172 2590.00
22.6824 2972.00
22.7476 2866.00
22.8128 2747.00
22.878 2639.00
22.9432 2454.00
23.0084 2328.00
23.0736 2337.00
23.1388 2482.00
23.204 2626.00
23.2692 2983.00
23.3344 2927.00
23.3996 2663.00
23.4647 2505.00
23.5299 2509.00
23.5951 2422.00
23.6603 2077.00
23.7255 1614.00
23.7907 1436.00
23.8559 1431.00
23.9211 1484.00
23.9863 1376.00
24.0515 1394.00
24.1167 1381.00
24.1819 1337.00
24.2471 1357.00
24.3123 1344.00
24.3775 1375.00
24.4427 1333.00
24.5079 1333.00
24.5731 1403.00
24.6383 1433.00
24.7035 1479.00
24.7687 1359.00
24.8339 1436.00
24.8991 1428.00
24.9643 1492.00
25.0295 1553.00
25.0947 1512.00
25.1599 1413.00
25.2251 1294.00
25.2903 1290.00
25.3555 1296.00
25.4207 1313.00
25.4859 1368.00
25.5511 1288.00
25.6163 1240.00
25.6815 1242.00
25.7467 1220.00
25.8119 1210.00
25.8771 1286.00
25.9423 1168.00
26.0075 1181.00
26.0727 1198.00
26.1379 1193.00
26.2031 1239.00
26.2683 1185.00
26.3335 1129.00
26.3987 1179.00
26.4639 1195.00
26.5291 1194.00
26.5943 1194.00
26.6595 1152.00
26.7247 1173.00
26.7899 1202.00
26.8551 1247.00
26.9203 1232.00
26.9855 1209.00
27.0507 1220.00
27.1159 1239.00
27.1811 1262.00
27.2463 1226.00
27.3115 1259.00
27.3767 1232.00
27.4419 1188.00
27.5071 1142.00
27.5723 1169.00
27.6375 1288.00
27.7027 1511.00
27.7679 1720.00
27.8331 1734.00
27.8983 1523.00
27.9635 1448.00
28.0287 1402.00
28.0939 1315.00
28.1591 1231.00
28.2243 1366.00
28.2894 1614.00
28.3546 2142.00
28.4198 2476.00
28.485 2293.00
28.5502 1760.00
28.6154 1483.00
28.6806 1444.00
28.7458 1700.00
28.811 1914.00
28.8762 1745.00
28.9414 1365.00
29.0066 1181.00
29.0718 1133.00
29.137 1137.00
29.2022 1159.00
29.2674 1077.00
29.3326 1145.00
29.3978 1128.00
29.463 1147.00
29.5282 1161.00
29.5934 1165.00
29.6586 1083.00
29.7238 1090.00
29.789 1136.00
29.8542 1074.00
29.9194 1054.00
29.9846 1127.00
30.0498 1142.00
30.115 1276.00
30.1802 1543.00
30.2454 1752.00
30.3106 2020.00
30.3758 2234.00
30.441 2098.00
30.5062 1840.00
30.5714 1798.00
30.6366 1882.00
30.7018 2043.00
30.767 2588.00
30.8322 3421.00
30.8974 4502.00
30.9626 4720.00
31.0278 3727.00
31.093 2303.00
31.1582 1648.00
31.2234 1509.00
31.2886 1460.00
31.3538 1612.00
31.419 1763.00
31.4842 2221.00
31.5494 2810.00
31.6146 3011.00
31.6798 2801.00
31.745 2209.00
31.8102 1680.00
31.8754 1643.00
31.9406 1969.00
32.0058 2761.00
32.071 3138.00
32.1362 3050.00
32.2014 2533.00
32.2666 2092.00
32.3318 1732.00
32.397 1483.00
32.4622 1365.00
32.5274 1566.00
32.5926 2231.00
32.6578 2873.00
32.723 2736.00
32.7882 2026.00
32.8534 1496.00
32.9186 1254.00
32.9838 1292.00
33.0489 1417.00
33.1141 1389.00
33.1793 1427.00
33.2445 1279.00
33.3097 1181.00
33.3749 1221.00
33.4401 1222.00
33.5053 1204.00
33.5705 1160.00
33.6357 1062.00
33.7009 1036.00
33.7661 1108.00
33.8313 1122.00
33.8965 1393.00
33.9617 1577.00
34.0269 1560.00
34.0921 1293.00
34.1573 1076.00
34.2225 975.00
34.2877 890.00
34.3529 977.00
34.4181 1071.00
34.4833 1027.00
34.5485 1245.00
34.6137 1310.00
34.6789 1641.00
34.7441 2014.00
34.8093 2070.00
34.8745 2083.00
34.9397 2180.00
35.0049 2422.00
35.0701 2948.00
35.1353 3318.00
35.2005 3237.00
35.2657 2582.00
35.3309 1948.00
35.3961 1496.00
35.4613 1301.00
35.5265 1332.00
35.5917 1690.00
35.6569 1790.00
35.7221 2065.00
35.7873 2304.00
35.8525 2195.00
35.9177 1945.00
35.9829 1570.00
36.0481 1493.00
36.1133 1440.00
36.1785 1316.00
36.2437 1198.00
36.3089 1108.00
36.3741 1056.00
36.4393 987.00
36.5045 918.00
36.5697 903.00
36.6349 796.00
36.7001 862.00
36.7653 861.00
36.8305 1017.00
36.8957 1100.00
36.9609 1025.00
37.0261 1002.00
37.0913 976.00
37.1565 881.00
37.2217 939.00
37.2869 842.00
37.3521 922.00
37.4173 932.00
37.4825 840.00
37.5477 873.00
37.6129 859.00
37.6781 767.00
37.7433 826.00
37.8085 827.00
37.8736 847.00
37.9388 901.00
38.004 904.00
38.0692 919.00
38.1344 942.00
38.1996 898.00
38.2648 971.00
38.33 1031.00
38.3952 1019.00
38.4604 946.00
38.5256 907.00
38.5908 843.00
38.656 812.00
38.7212 858.00
38.7864 929.00
38.8516 964.00
38.9168 791.00
38.982 801.00
39.0472 801.00
39.1124 780.00
39.1776 764.00
39.2428 768.00
39.308 767.00
39.3732 738.00
39.4384 730.00
39.5036 793.00
39.5688 872.00
39.634 867.00
39.6992 929.00
39.7644 1017.00
39.8296 1060.00
39.8948 1036.00
39.96 1062.00
40.0252 899.00
40.0904 923.00
40.1556 858.00
40.2208 863.00
40.286 794.00
40.3512 743.00
40.4164 785.00
40.4816 747.00
40.5468 802.00
40.612 792.00
40.6772 915.00
40.7424 922.00
40.8076 951.00
40.8728 1047.00
40.938 1048.00
41.0032 1037.00
41.0684 951.00
41.1336 811.00
41.1988 782.00
41.264 738.00
41.3292 758.00
41.3944 728.00
41.4596 775.00
41.5248 789.00
41.59 807.00
41.6552 813.00
41.7204 889.00
41.7856 898.00
41.8508 836.00
41.916 866.00
41.9812 878.00
42.0464 950.00
42.1116 909.00
42.1768 1115.00
42.242 1156.00
42.3072 1090.00
42.3724 1098.00
42.4376 1046.00
42.5028 1140.00
42.568 1172.00
42.6332 1311.00
42.6983 1338.00
42.7635 1270.00
42.8287 1141.00
42.8939 1105.00
42.9591 1274.00
43.0243 1464.00
43.0895 1493.00
43.1547 1276.00
43.2199 1169.00
43.2851 1028.00
43.3503 993.00
43.4155 903.00
43.4807 824.00
43.5459 801.00
43.6111 938.00
43.6763 1009.00
43.7415 947.00
43.8067 881.00
43.8719 846.00
43.9371 775.00
44.0023 775.00
44.0675 827.00
44.1327 862.00
44.1979 954.00
44.2631 989.00
44.3283 897.00
44.3935 848.00
44.4587 763.00
44.5239 727.00
44.5891 794.00
44.6543 761.00
44.7195 759.00
44.7847 737.00
44.8499 825.00
44.9151 929.00
44.9803 902.00
45.0455 880.00
45.1107 949.00
45.1759 888.00
45.2411 911.00
45.3063 885.00
45.3715 800.00
45.4367 922.00
45.5019 935.00
45.5671 1120.00
45.6323 1114.00
45.6975 1163.00
45.7627 1157.00
45.8279 1066.00
45.8931 1077.00
45.9583 1060.00
46.0235 1159.00
46.0887 1313.00
46.1539 1251.00
46.2191 1247.00
46.2843 1254.00
46.3495 1152.00
46.4147 983.00
46.4799 893.00
46.5451 910.00
46.6103 947.00
46.6755 876.00
46.7407 918.00
46.8059 897.00
46.8711 928.00
46.9363 870.00
47.0015 863.00
47.0667 937.00
47.1319 956.00
47.1971 976.00
47.2623 952.00
47.3275 1041.00
47.3927 982.00
47.4579 980.00
47.523 932.00
47.5882 1016.00
47.6534 1234.00
47.7186 1599.00
47.7838 1914.00
47.849 1849.00
47.9142 1654.00
47.9794 1330.00
48.0446 1073.00
48.1098 1004.00
48.175 827.00
48.2402 752.00
48.3054 679.00
48.3706 732.00
48.4358 707.00
48.501 657.00
48.5662 689.00
48.6314 694.00
48.6966 640.00
48.7618 643.00
48.827 692.00
48.8922 656.00
48.9574 780.00
49.0226 766.00
49.0878 803.00
49.153 860.00
49.2182 979.00
49.2834 1080.00
49.3486 1153.00
49.4138 1170.00
49.479 1081.00
49.5442 1015.00
49.6094 850.00
49.6746 744.00
49.7398 734.00
49.805 733.00
49.8702 653.00
49.9354 705.00
50.0006 661.00
50.0658 709.00
50.131 817.00
50.1962 767.00
50.2614 851.00
50.3266 758.00
50.3918 809.00
50.457 721.00
50.5222 779.00
50.5874 735.00
50.6526 718.00
50.7178 697.00
50.783 686.00
50.8482 688.00
50.9134 748.00
50.9786 748.00
51.0438 832.00
51.109 1012.00
51.1742 1245.00
51.2394 1424.00
51.3046 1639.00
51.3698 1768.00
51.435 1621.00
51.5002 1376.00
51.5654 1244.00
51.6306 1180.00
51.6958 1188.00
51.761 1198.00
51.8262 1197.00
51.8914 1124.00
51.9566 1059.00
52.0218 991.00
52.087 845.00
52.1522 847.00
52.2174 809.00
52.2826 702.00
52.3477 672.00
52.4129 754.00
52.4781 786.00
52.5433 712.00
52.6085 774.00
52.6737 754.00
52.7389 740.00
52.8041 732.00
52.8693 660.00
52.9345 678.00
52.9997 722.00
53.0649 692.00
53.1301 693.00
53.1953 696.00
53.2605 708.00
53.3257 724.00
53.3909 668.00
53.4561 765.00
53.5213 720.00
53.5865 693.00
53.6517 697.00
53.7169 725.00
53.7821 758.00
53.8473 775.00
53.9125 762.00
53.9777 748.00
54.0429 757.00
54.1081 849.00
54.1733 848.00
54.2385 848.00
54.3037 905.00
54.3689 949.00
54.4341 1069.00
54.4993 1200.00
54.5645 1234.00
54.6297 1270.00
54.6949 1217.00
54.7601 1085.00
54.8253 1019.00
54.8905 884.00
54.9557 768.00
55.0209 767.00
55.0861 784.00
55.1513 746.00
55.2165 745.00
55.2817 688.00
55.3469 675.00
55.4121 695.00
55.4773 675.00
55.5425 664.00
55.6077 716.00
55.6729 678.00
55.7381 701.00
55.8033 698.00
55.8685 720.00
55.9337 744.00
55.9989 803.00
56.0641 810.00
56.1293 880.00
56.1945 980.00
56.2597 945.00
56.3249 895.00
56.3901 829.00
56.4553 778.00
56.5205 750.00
56.5857 694.00
56.6509 714.00
56.7161 766.00
56.7813 827.00
56.8465 936.00
56.9117 1028.00
56.9769 992.00
57.042 1047.00
57.1073 1075.00
57.1724 1260.00
57.2376 1218.00
57.3028 1079.00
57.368 928.00
57.4332 880.00
57.4984 776.00
57.5636 716.00
57.6288 735.00
57.694 719.00
57.7592 732.00
57.8244 811.00
57.8896 753.00
57.9548 735.00
58.02 726.00
58.0852 748.00
58.1504 798.00
58.2156 734.00
58.2808 796.00
58.346 812.00
58.4112 730.00
58.4764 724.00
58.5416 734.00
58.6068 677.00
58.672 736.00
58.7372 669.00
58.8024 728.00
58.8676 755.00
58.9328 793.00
58.998 810.00
59.0632 789.00
59.1284 790.00
59.1936 781.00
59.2588 788.00
59.324 831.00
59.3892 916.00
59.4544 897.00
59.5196 909.00
59.5848 941.00
59.65 1014.00
59.7152 921.00
59.7804 915.00
59.8456 987.00
59.9108 988.00
59.976 919.00
60.0412 915.00
60.1064 945.00
60.1716 926.00
60.2368 944.00
60.302 894.00
60.3672 988.00
60.4324 1109.00
60.4976 1192.00
60.5628 1098.00
60.628 1009.00
60.6932 930.00
60.7584 938.00
60.8236 974.00
60.8888 1161.00
60.954 1273.00
61.0192 1390.00
61.0844 1220.00
61.1496 1163.00
61.2148 1006.00
61.28 893.00
61.3452 766.00
61.4104 810.00
61.4756 789.00
61.5408 853.00
61.606 928.00
61.6712 933.00
61.7364 958.00
61.8016 922.00
61.8667 830.00
61.932 831.00
61.9971 726.00
62.0623 750.00
62.1275 810.00
62.1927 835.00
62.2579 881.00
62.3231 973.00
62.3883 1184.00
62.4535 1186.00
62.5187 1357.00
62.5839 1395.00
62.6491 1292.00
62.7143 1252.00
62.7795 1113.00
62.8447 972.00
62.9099 833.00
62.9751 818.00
63.0403 815.00
63.1055 803.00
63.1707 825.00
63.2359 758.00
63.3011 814.00
63.3663 784.00
63.4315 796.00
63.4967 723.00
63.5619 717.00
63.6271 651.00
63.6923 620.00
63.7575 667.00
63.8227 681.00
63.8879 730.00
63.9531 755.00
64.0183 713.00
64.0835 758.00
64.1487 708.00
64.2139 629.00
64.2791 661.00
64.3443 620.00
64.4095 595.00
64.4747 587.00
64.5399 582.00
64.6051 590.00
64.6703 664.00
64.7355 669.00
64.8007 690.00
64.8659 715.00
64.9311 676.00
64.9963 685.00
65.0615 691.00
65.1267 656.00
65.1919 716.00
65.2571 670.00
65.3223 685.00
65.3875 687.00
65.4527 758.00
65.5179 721.00
65.5831 688.00
65.6483 701.00
65.7135 648.00
65.7787 644.00
65.8439 619.00
65.9091 642.00
65.9743 633.00
66.0395 642.00
66.1047 657.00
66.1699 676.00
66.2351 703.00
66.3003 736.00
66.3655 830.00
66.4307 835.00
66.4959 762.00
66.561 805.00
66.6263 752.00
66.6915 727.00
66.7566 701.00
66.8218 665.00
66.887 684.00
66.9522 669.00
67.0174 614.00
67.0826 638.00
67.1478 632.00
67.213 649.00
67.2782 631.00
67.3434 612.00
67.4086 590.00
67.4738 652.00
67.539 691.00
67.6042 695.00
67.6694 756.00
67.7346 721.00
67.7998 708.00
67.865 716.00
67.9302 679.00
67.9954 757.00
68.0606 670.00
68.1258 636.00
68.191 726.00
68.2562 694.00
68.3214 752.00
68.3866 714.00
68.4518 696.00
68.517 677.00
68.5822 639.00
68.6474 629.00
68.7126 608.00
68.7778 542.00
68.843 597.00
68.9082 581.00
68.9734 553.00
69.0386 593.00
69.1038 656.00
69.169 591.00
69.2342 561.00
69.2994 582.00
69.3646 553.00
69.4298 532.00
69.495 531.00
69.5602 531.00
69.6254 592.00
69.6906 617.00
69.7558 650.00
69.821 701.00
69.8862 669.00
69.9514 713.00
70.0166 654.00
70.0818 608.00
70.147 631.00
70.2122 564.00
70.2774 573.00
70.3426 530.00
70.4078 504.00
70.473 535.00
70.5382 477.00
70.6034 521.00
70.6686 518.00
70.7338 516.00
70.799 521.00
70.8642 501.00
70.9294 551.00
70.9946 546.00
71.0598 529.00
71.125 492.00
71.1902 526.00
71.2554 498.00
71.3205 549.00
71.3858 545.00
71.451 543.00
71.5162 514.00
71.5813 570.00
71.6465 555.00
71.7117 617.00
71.7769 553.00
71.8421 612.00
71.9073 586.00
71.9725 557.00
72.0377 582.00
72.1029 556.00
72.1681 521.00
72.2333 531.00
72.2985 531.00
72.3637 474.00
72.4289 547.00
72.4941 524.00
72.5593 523.00
72.6245 525.00
72.6897 553.00
72.7549 573.00
72.8201 562.00
72.8853 589.00
72.9505 563.00
73.0157 535.00
73.0809 536.00
73.1461 491.00
73.2113 503.00
73.2765 535.00
73.3417 513.00
73.4069 514.00
73.4721 609.00
73.5373 575.00
73.6025 598.00
73.6677 628.00
73.7329 635.00
73.7981 614.00
73.8633 593.00
73.9285 606.00
73.9937 607.00
74.0589 574.00
74.1241 603.00
74.1893 584.00
74.2545 612.00
74.3197 583.00
74.3849 526.00
74.4501 598.00
74.5153 538.00
74.5805 571.00
74.6457 552.00
74.7109 519.00
74.7761 566.00
74.8413 522.00
74.9065 550.00
74.9717 587.00
75.0369 597.00
75.1021 636.00
75.1673 626.00
75.2325 628.00
75.2977 676.00
75.3629 608.00
75.4281 591.00
75.4933 582.00
75.5585 617.00
75.6237 586.00
75.6889 554.00
75.7541 560.00
75.8193 590.00
75.8845 597.00
75.9497 557.00
76.0149 573.00
76.0801 534.00
76.1452 572.00
76.2104 525.00
76.2756 562.00
76.3409 533.00
76.406 534.00
76.4712 522.00
76.5364 536.00
76.6016 543.00
76.6668 576.00
76.732 591.00
76.7972 538.00
76.8624 586.00
76.9276 632.00
76.9928 622.00
77.058 618.00
77.1232 637.00
77.1884 685.00
77.2536 640.00
77.3188 592.00
77.384 626.00
77.4492 602.00
77.5144 572.00
77.5796 569.00
77.6448 559.00
77.71 490.00
77.7752 527.00
77.8404 492.00
77.9056 496.00
77.9708 524.00
78.036 508.00
78.1012 587.00
78.1664 531.00
78.2316 546.00
78.2968 559.00
78.362 613.00
78.4272 599.00
78.4924 575.00
78.5576 545.00
78.6228 575.00
78.688 555.00
78.7532 573.00
78.8184 568.00
78.8836 602.00
78.9488 541.00
79.014 555.00
79.0792 509.00
79.1444 519.00
79.2096 539.00
79.2748 568.00
79.34 502.00
79.4052 521.00
79.4704 578.00
79.5356 525.00
79.6008 555.00
79.666 493.00
79.7312 548.00
79.7964 471.00
79.8616 524.00
79.9268 467.00
79.992 502.00
80.0572 498.00
80.1224 455.00
80.1876 510.00
80.2528 477.00
80.318 522.00
80.3832 555.00
80.4484 533.00
80.5136 496.00
80.5788 513.00
80.644 508.00
80.7092 483.00
80.7744 558.00
80.8396 552.00
80.9048 525.00
80.9699 520.00
81.0351 540.00
81.1003 548.00
81.1655 553.00
81.2307 549.00
81.2959 519.00
81.3611 560.00
81.4263 569.00
81.4915 610.00
81.5567 619.00
81.6219 582.00
81.6871 561.00
81.7523 572.00
81.8175 593.00
81.8827 594.00
81.9479 619.00
82.0131 609.00
82.0783 673.00
82.1435 667.00
82.2087 630.00
82.2739 671.00
82.3391 649.00
82.4043 594.00
82.4695 624.00
82.5347 573.00
82.5999 555.00
82.6651 528.00
82.7303 546.00
82.7955 539.00
82.8607 546.00
82.9259 531.00
82.9911 543.00
83.0563 533.00
83.1215 562.00
83.1867 562.00
83.2519 595.00
83.3171 574.00
83.3823 613.00
83.4475 655.00
83.5127 614.00
83.5779 630.00
83.6431 600.00
83.7083 580.00
83.7735 565.00
83.8387 563.00
83.9039 574.00
83.9691 550.00
84.0343 533.00
84.0995 605.00
84.1647 572.00
84.2299 515.00
84.2951 512.00
84.3603 553.00
84.4255 495.00
84.4907 555.00
84.5559 506.00
84.6211 496.00
84.6863 477.00
84.7515 517.00
84.8167 490.00
84.8819 461.00
84.9471 474.00
85.0123 463.00
85.0775 435.00
85.1427 486.00
85.2079 409.00
85.2731 444.00
85.3383 475.00
85.4035 441.00
85.4687 434.00
85.5339 451.00
85.5991 420.00
85.6643 455.00
85.7295 461.00
85.7946 496.00
85.8598 538.00
85.925 484.00
85.9903 516.00
86.0554 522.00
86.1206 524.00
86.1858 516.00
86.251 541.00
86.3162 562.00
86.3814 550.00
86.4466 496.00
86.5118 491.00
86.577 481.00
86.6422 473.00
86.7074 416.00
86.7726 495.00
86.8378 481.00
86.903 444.00
86.9682 467.00
87.0334 524.00
87.0986 520.00
87.1638 534.00
87.229 545.00
87.2942 612.00
87.3594 580.00
87.4246 629.00
87.4898 527.00
87.555 540.00
87.6202 545.00
87.6854 503.00
87.7506 522.00
87.8158 534.00
87.881 482.00
87.9462 491.00
88.0114 522.00
88.0766 481.00
88.1418 490.00
88.207 472.00
88.2722 546.00
88.3374 528.00
88.4026 558.00
88.4678 537.00
88.533 556.00
88.5982 538.00
88.6634 572.00
88.7286 555.00
88.7938 561.00
88.859 560.00
88.9242 535.00
88.9894 505.00
89.0546 543.00
89.1198 508.00
89.185 492.00
89.2502 527.00
89.3154 494.00
89.3806 507.00
89.4458 486.00
89.511 494.00
89.5762 533.00
89.6414 554.00
89.7066 509.00
89.7718 503.00
89.837 505.00
89.9022 504.00
89.9674 511.00
90.0326 530.00
90.0978 527.00
90.163 517.00
90.2282 516.00
90.2934 555.00
90.3586 525.00
90.4238 506.00
90.489 497.00
90.5542 487.00
90.6193 521.00
90.6845 493.00
90.7497 497.00
90.8149 538.00
90.8801 504.00
90.9453 531.00
91.0105 494.00
91.0757 506.00
91.1409 524.00
91.2061 548.00
91.2713 505.00
91.3365 503.00
91.4017 488.00
91.4669 504.00
91.5321 464.00
91.5973 478.00
91.6625 551.00
91.7277 513.00
91.7929 545.00
91.8581 551.00
91.9233 477.00
91.9885 545.00
92.0537 547.00
92.1189 564.00
92.1841 507.00
92.2493 468.00
92.3145 500.00
92.3797 509.00
92.4449 526.00
92.5101 503.00
92.5753 519.00
92.6405 531.00
92.7057 525.00
92.7709 483.00
92.8361 564.00
92.9013 488.00
92.9665 469.00
93.0317 501.00
93.0969 487.00
93.1621 505.00
93.2273 501.00
93.2925 501.00
93.3577 469.00
93.4229 463.00
93.4881 495.00
93.5533 481.00
93.6185 476.00
93.6837 485.00
93.7489 416.00
93.8141 485.00
93.8793 441.00
93.9445 473.00
94.0097 488.00
94.0749 471.00
94.1401 510.00
94.2053 524.00
94.2705 492.00
94.3357 467.00
94.4009 523.00
94.4661 509.00
94.5313 469.00
94.5965 519.00
94.6617 473.00
94.7269 472.00
94.7921 509.00
94.8573 495.00
94.9225 485.00
94.9877 486.00
95.0529 502.00
95.1181 496.00
95.1833 473.00
95.2485 580.00
95.3137 571.00
95.3789 565.00
95.444 561.00
95.5092 595.00
95.5744 637.00
95.6396 585.00
95.7048 618.00
95.77 531.00
95.8352 572.00
95.9004 578.00
95.9656 553.00
96.0308 503.00
96.096 527.00
96.1612 538.00
96.2264 507.00
96.2916 524.00
96.3568 516.00
96.422 467.00
96.4872 531.00
96.5524 465.00
96.6176 572.00
96.6828 553.00
96.748 551.00
96.8132 568.00
96.8784 560.00
96.9436 573.00
97.0088 522.00
97.074 601.00
97.1392 570.00
97.2044 545.00
97.2696 600.00
97.3348 527.00
97.4 547.00
97.4652 531.00
97.5304 509.00
97.5956 530.00
97.6608 545.00
97.726 537.00
97.7912 520.00
97.8564 569.00
97.9216 493.00
97.9868 575.00
98.052 522.00
98.1172 506.00
98.1824 560.00
98.2476 524.00
98.3128 532.00
98.378 549.00
98.4432 558.00
98.5084 486.00
98.5736 499.00
98.6388 520.00
98.704 502.00
98.7692 534.00
98.8344 495.00
98.8996 486.00
98.9648 512.00
99.03 465.00
99.0952 555.00
99.1604 527.00
99.2256 561.00
99.2908 512.00
99.356 529.00
99.4212 506.00
99.4864 567.00
99.5516 549.00
99.6168 498.00
99.682 514.00
99.7472 490.00
99.8124 500.00
99.8776 446.00
99.9428 476.00
100.008 486.00
100.073 488.00
100.095 460.00