File: data/xrd_creation/results/NSC_102.xy
9.903433 2692.00
9.968632 2595.00
10.0338 2632.00
10.099 2691.00
10.1642 2564.00
10.2294 2479.00
10.2946 2563.00
10.3598 2444.00
10.425 2369.00
10.4902 2450.00
10.5554 2338.00
10.6206 2398.00
10.6858 2336.00
10.751 2364.00
10.8162 2275.00
10.8814 2275.00
10.9466 2281.00
11.0118 2248.00
11.077 2196.00
11.1422 2151.00
11.2074 2099.00
11.2726 2132.00
11.3378 2118.00
11.403 2097.00
11.4682 2022.00
11.5334 2092.00
11.5986 2144.00
11.6638 2027.00
11.729 1985.00
11.7942 2029.00
11.8594 1957.00
11.9246 1953.00
11.9898 1962.00
12.055 1976.00
12.1202 1870.00
12.1854 1900.00
12.2506 1870.00
12.3158 1905.00
12.381 1795.00
12.4462 1812.00
12.5114 1819.00
12.5766 1714.00
12.6418 1794.00
12.707 1731.00
12.7722 1730.00
12.8374 1809.00
12.9026 1621.00
12.9678 1703.00
13.033 1640.00
13.0982 1693.00
13.1634 1654.00
13.2286 1604.00
13.2938 1667.00
13.359 1546.00
13.4242 1573.00
13.4894 1616.00
13.5546 1563.00
13.6198 1567.00
13.685 1564.00
13.7502 1560.00
13.8154 1561.00
13.8805 1539.00
13.9457 1524.00
14.0109 1559.00
14.0761 1490.00
14.1413 1477.00
14.2065 1486.00
14.2717 1426.00
14.3369 1470.00
14.4021 1442.00
14.4673 1467.00
14.5325 1479.00
14.5977 1433.00
14.6629 1372.00
14.7281 1422.00
14.7933 1413.00
14.8585 1388.00
14.9237 1441.00
14.9889 1392.00
15.0541 1440.00
15.1193 1415.00
15.1845 1287.00
15.2497 1344.00
15.3149 1235.00
15.3801 1296.00
15.4453 1398.00
15.5105 1337.00
15.5757 1269.00
15.6409 1319.00
15.7061 1330.00
15.7713 1374.00
15.8365 1345.00
15.9017 1336.00
15.9669 1283.00
16.0321 1276.00
16.0973 1272.00
16.1625 1295.00
16.2277 1282.00
16.2929 1222.00
16.3581 1207.00
16.4233 1233.00
16.4885 1248.00
16.5537 1292.00
16.6189 1204.00
16.6841 1234.00
16.7493 1227.00
16.8145 1240.00
16.8797 1255.00
16.9449 1145.00
17.0101 1226.00
17.0753 1238.00
17.1405 1210.00
17.2057 1179.00
17.2709 1204.00
17.3361 1184.00
17.4013 1166.00
17.4665 1125.00
17.5317 1185.00
17.5969 1143.00
17.6621 1093.00
17.7273 1166.00
17.7925 1106.00
17.8577 1166.00
17.9229 1165.00
17.9881 1078.00
18.0533 1121.00
18.1185 1207.00
18.1837 1226.00
18.2489 1187.00
18.3141 1063.00
18.3793 1060.00
18.4445 1067.00
18.5097 1059.00
18.5749 1183.00
18.6401 1097.00
18.7052 1040.00
18.7704 1048.00
18.8356 1028.00
18.9008 1063.00
18.966 1027.00
19.0312 1049.00
19.0964 989.00
19.1616 1056.00
19.2268 1018.00
19.292 1021.00
19.3572 1004.00
19.4224 1032.00
19.4876 973.00
19.5528 1027.00
19.618 955.00
19.6832 962.00
19.7484 984.00
19.8136 1005.00
19.8788 1010.00
19.944 973.00
20.0092 946.00
20.0744 951.00
20.1396 957.00
20.2048 996.00
20.27 963.00
20.3352 978.00
20.4004 987.00
20.4656 961.00
20.5308 968.00
20.596 881.00
20.6612 935.00
20.7264 895.00
20.7916 940.00
20.8568 890.00
20.922 878.00
20.9872 857.00
21.0524 883.00
21.1176 918.00
21.1828 872.00
21.248 881.00
21.3132 954.00
21.3784 874.00
21.4436 907.00
21.5088 913.00
21.574 861.00
21.6392 835.00
21.7044 866.00
21.7696 878.00
21.8348 803.00
21.9 861.00
21.9652 851.00
22.0304 901.00
22.0956 835.00
22.1608 876.00
22.226 832.00
22.2912 858.00
22.3564 862.00
22.4216 837.00
22.4868 843.00
22.552 824.00
22.6172 776.00
22.6824 821.00
22.7476 802.00
22.8128 809.00
22.878 810.00
22.9432 778.00
23.0084 808.00
23.0736 797.00
23.1388 778.00
23.204 824.00
23.2692 765.00
23.3344 830.00
23.3996 803.00
23.4647 777.00
23.5299 744.00
23.5951 748.00
23.6603 800.00
23.7255 774.00
23.7907 805.00
23.8559 738.00
23.9211 787.00
23.9863 724.00
24.0515 716.00
24.1167 765.00
24.1819 761.00
24.2471 719.00
24.3123 770.00
24.3775 771.00
24.4427 740.00
24.5079 761.00
24.5731 738.00
24.6383 731.00
24.7035 756.00
24.7687 739.00
24.8339 754.00
24.8991 702.00
24.9643 747.00
25.0295 713.00
25.0947 731.00
25.1599 716.00
25.2251 767.00
25.2903 724.00
25.3555 699.00
25.4207 748.00
25.4859 729.00
25.5511 723.00
25.6163 687.00
25.6815 712.00
25.7467 685.00
25.8119 670.00
25.8771 736.00
25.9423 720.00
26.0075 759.00
26.0727 731.00
26.1379 791.00
26.2031 806.00
26.2683 989.00
26.3335 1102.00
26.3987 1533.00
26.4639 1843.00
26.5291 1630.00
26.5943 1127.00
26.6595 891.00
26.7247 833.00
26.7899 713.00
26.8551 768.00
26.9203 698.00
26.9855 727.00
27.0507 677.00
27.1159 695.00
27.1811 703.00
27.2463 709.00
27.3115 670.00
27.3767 774.00
27.4419 701.00
27.5071 692.00
27.5723 661.00
27.6375 684.00
27.7027 661.00
27.7679 648.00
27.8331 698.00
27.8983 627.00
27.9635 668.00
28.0287 696.00
28.0939 681.00
28.1591 703.00
28.2243 648.00
28.2894 689.00
28.3546 654.00
28.4198 672.00
28.485 633.00
28.5502 754.00
28.6154 687.00
28.6806 646.00
28.7458 697.00
28.811 624.00
28.8762 641.00
28.9414 663.00
29.0066 656.00
29.0718 635.00
29.137 580.00
29.2022 664.00
29.2674 620.00
29.3326 585.00
29.3978 616.00
29.463 642.00
29.5282 653.00
29.5934 619.00
29.6586 592.00
29.7238 563.00
29.789 561.00
29.8542 595.00
29.9194 576.00
29.9846 571.00
30.0498 546.00
30.115 547.00
30.1802 573.00
30.2454 573.00
30.3106 575.00
30.3758 537.00
30.441 562.00
30.5062 591.00
30.5714 569.00
30.6366 610.00
30.7018 619.00
30.767 548.00
30.8322 570.00
30.8974 559.00
30.9626 569.00
31.0278 553.00
31.093 511.00
31.1582 558.00
31.2234 533.00
31.2886 533.00
31.3538 557.00
31.419 517.00
31.4842 525.00
31.5494 505.00
31.6146 552.00
31.6798 520.00
31.745 585.00
31.8102 566.00
31.8754 563.00
31.9406 534.00
32.0058 549.00
32.071 511.00
32.1362 518.00
32.2014 485.00
32.2666 558.00
32.3318 536.00
32.397 502.00
32.4622 512.00
32.5274 531.00
32.5926 487.00
32.6578 530.00
32.723 518.00
32.7882 493.00
32.8534 566.00
32.9186 506.00
32.9838 539.00
33.0489 546.00
33.1141 483.00
33.1793 525.00
33.2445 565.00
33.3097 555.00
33.3749 579.00
33.4401 558.00
33.5053 637.00
33.5705 723.00
33.6357 965.00
33.7009 1304.00
33.7661 1451.00
33.8313 1316.00
33.8965 953.00
33.9617 659.00
34.0269 578.00
34.0921 537.00
34.1573 503.00
34.2225 515.00
34.2877 506.00
34.3529 499.00
34.4181 449.00
34.4833 456.00
34.5485 453.00
34.6137 435.00
34.6789 474.00
34.7441 497.00
34.8093 477.00
34.8745 523.00
34.9397 489.00
35.0049 493.00
35.0701 497.00
35.1353 443.00
35.2005 447.00
35.2657 463.00
35.3309 439.00
35.3961 479.00
35.4613 443.00
35.5265 448.00
35.5917 465.00
35.6569 431.00
35.7221 448.00
35.7873 442.00
35.8525 454.00
35.9177 445.00
35.9829 478.00
36.0481 418.00
36.1133 425.00
36.1785 477.00
36.2437 442.00
36.3089 428.00
36.3741 456.00
36.4393 427.00
36.5045 408.00
36.5697 418.00
36.6349 438.00
36.7001 382.00
36.7653 427.00
36.8305 372.00
36.8957 419.00
36.9609 429.00
37.0261 436.00
37.0913 369.00
37.1565 402.00
37.2217 419.00
37.2869 400.00
37.3521 400.00
37.4173 442.00
37.4825 449.00
37.5477 422.00
37.6129 434.00
37.6781 499.00
37.7433 514.00
37.8085 554.00
37.8736 615.00
37.9388 540.00
38.004 498.00
38.0692 407.00
38.1344 428.00
38.1996 414.00
38.2648 400.00
38.33 397.00
38.3952 414.00
38.4604 403.00
38.5256 401.00
38.5908 354.00
38.656 406.00
38.7212 382.00
38.7864 395.00
38.8516 422.00
38.9168 433.00
38.982 378.00
39.0472 395.00
39.1124 391.00
39.1776 378.00
39.2428 370.00
39.308 379.00
39.3732 374.00
39.4384 355.00
39.5036 389.00
39.5688 378.00
39.634 415.00
39.6992 376.00
39.7644 357.00
39.8296 361.00
39.8948 372.00
39.96 371.00
40.0252 349.00
40.0904 360.00
40.1556 410.00
40.2208 364.00
40.286 370.00
40.3512 402.00
40.4164 379.00
40.4816 417.00
40.5468 369.00
40.612 372.00
40.6772 362.00
40.7424 357.00
40.8076 326.00
40.8728 333.00
40.938 346.00
41.0032 349.00
41.0684 336.00
41.1336 354.00
41.1988 364.00
41.264 372.00
41.3292 357.00
41.3944 340.00
41.4596 327.00
41.5248 319.00
41.59 343.00
41.6552 320.00
41.7204 349.00
41.7856 308.00
41.8508 326.00
41.916 349.00
41.9812 394.00
42.0464 351.00
42.1116 306.00
42.1768 323.00
42.242 344.00
42.3072 328.00
42.3724 370.00
42.4376 351.00
42.5028 317.00
42.568 314.00
42.6332 310.00
42.6983 321.00
42.7635 313.00
42.8287 360.00
42.8939 362.00
42.9591 366.00
43.0243 334.00
43.0895 339.00
43.1547 339.00
43.2199 343.00
43.2851 357.00
43.3503 370.00
43.4155 323.00
43.4807 342.00
43.5459 324.00
43.6111 359.00
43.6763 337.00
43.7415 350.00
43.8067 316.00
43.8719 318.00
43.9371 346.00
44.0023 308.00
44.0675 316.00
44.1327 320.00
44.1979 334.00
44.2631 298.00
44.3283 318.00
44.3935 312.00
44.4587 305.00
44.5239 334.00
44.5891 283.00
44.6543 312.00
44.7195 323.00
44.7847 309.00
44.8499 333.00
44.9151 292.00
44.9803 302.00
45.0455 294.00
45.1107 309.00
45.1759 312.00
45.2411 286.00
45.3063 286.00
45.3715 353.00
45.4367 320.00
45.5019 351.00
45.5671 313.00
45.6323 325.00
45.6975 315.00
45.7627 348.00
45.8279 320.00
45.8931 286.00
45.9583 302.00
46.0235 299.00
46.0887 276.00
46.1539 293.00
46.2191 334.00
46.2843 275.00
46.3495 281.00
46.4147 310.00
46.4799 302.00
46.5451 297.00
46.6103 270.00
46.6755 313.00
46.7407 290.00
46.8059 315.00
46.8711 326.00
46.9363 300.00
47.0015 322.00
47.0667 298.00
47.1319 274.00
47.1971 297.00
47.2623 289.00
47.3275 290.00
47.3927 291.00
47.4579 284.00
47.523 313.00
47.5882 309.00
47.6534 279.00
47.7186 310.00
47.7838 307.00
47.849 271.00
47.9142 317.00
47.9794 316.00
48.0446 297.00
48.1098 304.00
48.175 308.00
48.2402 270.00
48.3054 286.00
48.3706 322.00
48.4358 269.00
48.501 293.00
48.5662 281.00
48.6314 291.00
48.6966 327.00
48.7618 304.00
48.827 325.00
48.8922 301.00
48.9574 286.00
49.0226 309.00
49.0878 292.00
49.153 291.00
49.2182 267.00
49.2834 310.00
49.3486 273.00
49.4138 274.00
49.479 276.00
49.5442 279.00
49.6094 295.00
49.6746 279.00
49.7398 279.00
49.805 264.00
49.8702 275.00
49.9354 281.00
50.0006 294.00
50.0658 308.00
50.131 305.00
50.1962 305.00
50.2614 302.00
50.3266 298.00
50.3918 294.00
50.457 310.00
50.5222 290.00
50.5874 274.00
50.6526 286.00
50.7178 289.00
50.783 271.00
50.8482 290.00
50.9134 308.00
50.9786 309.00
51.0438 277.00
51.109 285.00
51.1742 270.00
51.2394 327.00
51.3046 323.00
51.3698 344.00
51.435 411.00
51.5002 498.00
51.5654 677.00
51.6306 803.00
51.6958 846.00
51.761 745.00
51.8262 654.00
51.8914 502.00
51.9566 411.00
52.0218 350.00
52.087 368.00
52.1522 318.00
52.2174 321.00
52.2826 277.00
52.3477 314.00
52.4129 286.00
52.4781 294.00
52.5433 256.00
52.6085 263.00
52.6737 246.00
52.7389 291.00
52.8041 265.00
52.8693 225.00
52.9345 274.00
52.9997 259.00
53.0649 262.00
53.1301 293.00
53.1953 269.00
53.2605 246.00
53.3257 282.00
53.3909 262.00
53.4561 259.00
53.5213 270.00
53.5865 273.00
53.6517 218.00
53.7169 290.00
53.7821 288.00
53.8473 296.00
53.9125 279.00
53.9777 275.00
54.0429 237.00
54.1081 256.00
54.1733 261.00
54.2385 289.00
54.3037 272.00
54.3689 274.00
54.4341 304.00
54.4993 304.00
54.5645 357.00
54.6297 390.00
54.6949 425.00
54.7601 371.00
54.8253 320.00
54.8905 278.00
54.9557 284.00
55.0209 241.00
55.0861 263.00
55.1513 260.00
55.2165 247.00
55.2817 229.00
55.3469 269.00
55.4121 260.00
55.4773 276.00
55.5425 290.00
55.6077 219.00
55.6729 223.00
55.7381 232.00
55.8033 261.00
55.8685 265.00
55.9337 262.00
55.9989 246.00
56.0641 260.00
56.1293 201.00
56.1945 247.00
56.2597 230.00
56.3249 219.00
56.3901 235.00
56.4553 204.00
56.5205 240.00
56.5857 235.00
56.6509 235.00
56.7161 219.00
56.7813 242.00
56.8465 234.00
56.9117 204.00
56.9769 246.00
57.042 214.00
57.1073 237.00
57.1724 246.00
57.2376 244.00
57.3028 275.00
57.368 239.00
57.4332 269.00
57.4984 263.00
57.5636 264.00
57.6288 298.00
57.694 297.00
57.7592 311.00
57.8244 305.00
57.8896 291.00
57.9548 300.00
58.02 241.00
58.0852 243.00
58.1504 242.00
58.2156 227.00
58.2808 198.00
58.346 236.00
58.4112 212.00
58.4764 221.00
58.5416 230.00
58.6068 233.00
58.672 204.00
58.7372 241.00
58.8024 206.00
58.8676 219.00
58.9328 236.00
58.998 197.00
59.0632 171.00
59.1284 250.00
59.1936 240.00
59.2588 208.00
59.324 231.00
59.3892 210.00
59.4544 220.00
59.5196 213.00
59.5848 244.00
59.65 213.00
59.7152 229.00
59.7804 248.00
59.8456 232.00
59.9108 229.00
59.976 219.00
60.0412 206.00
60.1064 179.00
60.1716 228.00
60.2368 221.00
60.302 225.00
60.3672 220.00
60.4324 221.00
60.4976 217.00
60.5628 205.00
60.628 221.00
60.6932 240.00
60.7584 221.00
60.8236 211.00
60.8888 226.00
60.954 223.00
61.0192 220.00
61.0844 234.00
61.1496 201.00
61.2148 258.00
61.28 210.00
61.3452 234.00
61.4104 229.00
61.4756 243.00
61.5408 242.00
61.606 261.00
61.6712 263.00
61.7364 326.00
61.8016 349.00
61.8667 299.00
61.932 317.00
61.9971 285.00
62.0623 220.00
62.1275 238.00
62.1927 225.00
62.2579 229.00
62.3231 235.00
62.3883 232.00
62.4535 237.00
62.5187 224.00
62.5839 197.00
62.6491 207.00
62.7143 230.00
62.7795 218.00
62.8447 224.00
62.9099 194.00
62.9751 191.00
63.0403 205.00
63.1055 205.00
63.1707 197.00
63.2359 206.00
63.3011 209.00
63.3663 212.00
63.4315 220.00
63.4967 196.00
63.5619 204.00
63.6271 207.00
63.6923 221.00
63.7575 211.00
63.8227 229.00
63.8879 207.00
63.9531 227.00
64.0183 206.00
64.0835 206.00
64.1487 228.00
64.2139 234.00
64.2791 258.00
64.3443 225.00
64.4095 244.00
64.4747 268.00
64.5399 282.00
64.6051 310.00
64.6703 317.00
64.7355 316.00
64.8007 293.00
64.8659 274.00
64.9311 235.00
64.9963 245.00
65.0615 226.00
65.1267 215.00
65.1919 257.00
65.2571 214.00
65.3223 211.00
65.3875 242.00
65.4527 227.00
65.5179 232.00
65.5831 201.00
65.6483 247.00
65.7135 236.00
65.7787 243.00
65.8439 301.00
65.9091 311.00
65.9743 289.00
66.0395 277.00
66.1047 283.00
66.1699 268.00
66.2351 265.00
66.3003 221.00
66.3655 206.00
66.4307 188.00
66.4959 202.00
66.561 209.00
66.6263 196.00
66.6915 181.00
66.7566 236.00
66.8218 197.00
66.887 196.00
66.9522 219.00
67.0174 202.00
67.0826 219.00
67.1478 193.00
67.213 187.00
67.2782 200.00
67.3434 186.00
67.4086 188.00
67.4738 197.00
67.539 188.00
67.6042 209.00
67.6694 183.00
67.7346 211.00
67.7998 178.00
67.865 204.00
67.9302 189.00
67.9954 247.00
68.0606 216.00
68.1258 220.00
68.191 201.00
68.2562 200.00
68.3214 220.00
68.3866 203.00
68.4518 219.00
68.517 208.00
68.5822 191.00
68.6474 203.00
68.7126 192.00
68.7778 217.00
68.843 221.00
68.9082 174.00
68.9734 200.00
69.0386 197.00
69.1038 197.00
69.169 209.00
69.2342 205.00
69.2994 195.00
69.3646 213.00
69.4298 197.00
69.495 222.00
69.5602 205.00
69.6254 201.00
69.6906 199.00
69.7558 200.00
69.821 208.00
69.8862 201.00
69.9514 204.00
70.0166 214.00
70.0818 193.00
70.147 218.00
70.2122 201.00
70.2774 215.00
70.3426 210.00
70.4078 210.00
70.473 199.00
70.5382 198.00
70.6034 200.00
70.6686 205.00
70.7338 217.00
70.799 217.00
70.8642 238.00
70.9294 201.00
70.9946 213.00
71.0598 232.00
71.125 241.00
71.1902 233.00
71.2554 243.00
71.3205 208.00
71.3858 244.00
71.451 236.00
71.5162 222.00
71.5813 222.00
71.6465 235.00
71.7117 202.00
71.7769 219.00
71.8421 206.00
71.9073 225.00
71.9725 203.00
72.0377 206.00
72.1029 189.00
72.1681 175.00
72.2333 222.00
72.2985 184.00
72.3637 195.00
72.4289 189.00
72.4941 187.00
72.5593 214.00
72.6245 209.00
72.6897 195.00
72.7549 184.00
72.8201 216.00
72.8853 202.00
72.9505 184.00
73.0157 195.00
73.0809 208.00
73.1461 178.00
73.2113 201.00
73.2765 211.00
73.3417 188.00
73.4069 184.00
73.4721 211.00
73.5373 178.00
73.6025 190.00
73.6677 193.00
73.7329 229.00
73.7981 212.00
73.8633 203.00
73.9285 206.00
73.9937 183.00
74.0589 216.00
74.1241 211.00
74.1893 220.00
74.2545 200.00
74.3197 213.00
74.3849 224.00
74.4501 205.00
74.5153 217.00
74.5805 219.00
74.6457 202.00
74.7109 198.00
74.7761 211.00
74.8413 209.00
74.9065 209.00
74.9717 187.00
75.0369 216.00
75.1021 191.00
75.1673 229.00
75.2325 223.00
75.2977 228.00
75.3629 229.00
75.4281 218.00
75.4933 215.00
75.5585 214.00
75.6237 225.00
75.6889 191.00
75.7541 219.00
75.8193 203.00
75.8845 207.00
75.9497 221.00
76.0149 200.00
76.0801 176.00
76.1452 212.00
76.2104 231.00
76.2756 195.00
76.3409 223.00
76.406 217.00
76.4712 223.00
76.5364 201.00
76.6016 221.00
76.6668 206.00
76.732 220.00
76.7972 205.00
76.8624 227.00
76.9276 193.00
76.9928 207.00
77.058 222.00
77.1232 228.00
77.1884 214.00
77.2536 199.00
77.3188 236.00
77.384 235.00
77.4492 237.00
77.5144 208.00
77.5796 212.00
77.6448 221.00
77.71 211.00
77.7752 211.00
77.8404 231.00
77.9056 186.00
77.9708 217.00
78.036 242.00
78.1012 229.00
78.1664 197.00
78.2316 246.00
78.2968 227.00
78.362 231.00
78.4272 263.00
78.4924 285.00
78.5576 281.00
78.6228 250.00
78.688 304.00
78.7532 285.00
78.8184 308.00
78.8836 267.00
78.9488 226.00
79.014 235.00
79.0792 226.00
79.1444 237.00
79.2096 218.00
79.2748 219.00
79.34 244.00
79.4052 216.00
79.4704 238.00
79.5356 249.00
79.6008 216.00
79.666 216.00
79.7312 210.00
79.7964 216.00
79.8616 198.00
79.9268 263.00
79.992 223.00
80.0572 230.00
80.1224 246.00
80.1876 242.00
80.2528 206.00
80.318 221.00
80.3832 236.00
80.4484 212.00
80.5136 218.00
80.5788 211.00
80.644 221.00
80.7092 229.00
80.7744 230.00
80.8396 236.00
80.9048 244.00
80.9699 242.00
81.0351 241.00
81.1003 259.00
81.1655 246.00
81.2307 230.00
81.2959 215.00
81.3611 224.00
81.4263 237.00
81.4915 223.00
81.5567 227.00
81.6219 206.00
81.6871 236.00
81.7523 235.00
81.8175 260.00
81.8827 247.00
81.9479 217.00
82.0131 246.00
82.0783 226.00
82.1435 239.00
82.2087 207.00
82.2739 230.00
82.3391 225.00
82.4043 227.00
82.4695 234.00
82.5347 267.00
82.5999 246.00
82.6651 218.00
82.7303 233.00
82.7955 197.00
82.8607 231.00
82.9259 234.00
82.9911 210.00
83.0563 242.00
83.1215 222.00
83.1867 216.00
83.2519 216.00
83.3171 220.00
83.3823 230.00
83.4475 215.00
83.5127 289.00
83.5779 271.00
83.6431 279.00
83.7083 306.00
83.7735 261.00
83.8387 319.00
83.9039 274.00
83.9691 244.00
84.0343 230.00
84.0995 216.00
84.1647 228.00
84.2299 222.00
84.2951 242.00
84.3603 195.00
84.4255 220.00
84.4907 235.00
84.5559 225.00
84.6211 219.00
84.6863 219.00
84.7515 224.00
84.8167 239.00
84.8819 213.00
84.9471 208.00
85.0123 212.00
85.0775 229.00
85.1427 235.00
85.2079 206.00
85.2731 204.00
85.3383 227.00
85.4035 195.00
85.4687 221.00
85.5339 200.00
85.5991 234.00
85.6643 205.00
85.7295 214.00
85.7946 221.00
85.8598 220.00
85.925 225.00
85.9903 226.00
86.0554 215.00
86.1206 200.00
86.1858 235.00
86.251 216.00
86.3162 201.00
86.3814 197.00
86.4466 222.00
86.5118 203.00
86.577 193.00
86.6422 214.00
86.7074 222.00
86.7726 227.00
86.8378 207.00
86.903 192.00
86.9682 216.00
87.0334 224.00
87.0986 218.00
87.1638 233.00
87.229 229.00
87.2942 236.00
87.3594 180.00
87.4246 214.00
87.4898 192.00
87.555 214.00
87.6202 196.00
87.6854 195.00
87.7506 203.00
87.8158 210.00
87.881 228.00
87.9462 228.00
88.0114 215.00
88.0766 189.00
88.1418 188.00
88.207 210.00
88.2722 195.00
88.3374 208.00
88.4026 190.00
88.4678 180.00
88.533 201.00
88.5982 196.00
88.6634 211.00
88.7286 227.00
88.7938 190.00
88.859 208.00
88.9242 196.00
88.9894 196.00
89.0546 193.00
89.1198 201.00
89.185 176.00
89.2502 217.00
89.3154 201.00
89.3806 216.00
89.4458 206.00
89.511 242.00
89.5762 223.00
89.6414 246.00
89.7066 226.00
89.7718 247.00
89.837 224.00
89.9022 221.00
89.9674 227.00
90.0326 211.00
90.0978 246.00
90.163 217.00
90.2282 209.00
90.2934 194.00
90.3586 198.00
90.4238 191.00
90.489 207.00
90.5542 225.00
90.6193 241.00
90.6845 249.00
90.7497 230.00
90.8149 219.00
90.8801 231.00
90.9453 193.00
91.0105 228.00
91.0757 205.00
91.1409 220.00
91.2061 205.00
91.2713 218.00
91.3365 197.00
91.4017 193.00
91.4669 183.00
91.5321 174.00
91.5973 177.00
91.6625 205.00
91.7277 181.00
91.7929 178.00
91.8581 197.00
91.9233 193.00
91.9885 203.00
92.0537 180.00
92.1189 188.00
92.1841 175.00
92.2493 197.00
92.3145 209.00
92.3797 190.00
92.4449 178.00
92.5101 209.00
92.5753 222.00
92.6405 169.00
92.7057 190.00
92.7709 214.00
92.8361 190.00
92.9013 190.00
92.9665 196.00
93.0317 197.00
93.0969 228.00
93.1621 205.00
93.2273 235.00
93.2925 211.00
93.3577 213.00
93.4229 208.00
93.4881 212.00
93.5533 227.00
93.6185 212.00
93.6837 211.00
93.7489 219.00
93.8141 210.00
93.8793 192.00
93.9445 209.00
94.0097 173.00
94.0749 193.00
94.1401 197.00
94.2053 176.00
94.2705 210.00
94.3357 167.00
94.4009 192.00
94.4661 206.00
94.5313 199.00
94.5965 191.00
94.6617 206.00
94.7269 184.00
94.7921 208.00
94.8573 202.00
94.9225 195.00
94.9877 196.00
95.0529 158.00
95.1181 193.00
95.1833 188.00
95.2485 193.00
95.3137 184.00
95.3789 202.00
95.444 214.00
95.5092 194.00
95.5744 216.00
95.6396 210.00
95.7048 181.00
95.77 220.00
95.8352 191.00
95.9004 200.00
95.9656 211.00
96.0308 196.00
96.096 203.00
96.1612 226.00
96.2264 188.00
96.2916 184.00
96.3568 214.00
96.422 214.00
96.4872 175.00
96.5524 197.00
96.6176 218.00
96.6828 194.00
96.748 175.00
96.8132 181.00
96.8784 181.00
96.9436 176.00
97.0088 169.00
97.074 218.00
97.1392 189.00
97.2044 198.00
97.2696 202.00
97.3348 169.00
97.4 186.00
97.4652 225.00
97.5304 189.00
97.5956 193.00
97.6608 167.00
97.726 176.00
97.7912 189.00
97.8564 192.00
97.9216 186.00
97.9868 220.00
98.052 165.00
98.1172 182.00
98.1824 181.00
98.2476 154.00
98.3128 180.00
98.378 174.00
98.4432 196.00
98.5084 170.00
98.5736 187.00
98.6388 190.00
98.704 171.00
98.7692 171.00
98.8344 201.00
98.8996 189.00
98.9648 193.00
99.03 196.00
99.0952 193.00
99.1604 190.00
99.2256 171.00
99.2908 179.00
99.356 177.00
99.4212 182.00
99.4864 189.00
99.5516 172.00
99.6168 175.00
99.682 192.00
99.7472 168.00
99.8124 222.00
99.8776 203.00
99.9428 188.00
100.008 199.00
100.073 193.00
100.095 200.00