File: data/xrd_creation/results/NSC_149.xy
9.903433 2814.00
9.968632 2722.00
10.0338 2705.00
10.099 2750.00
10.1642 2715.00
10.2294 2628.00
10.2946 2715.00
10.3598 2662.00
10.425 2645.00
10.4902 2553.00
10.5554 2561.00
10.6206 2508.00
10.6858 2493.00
10.751 2507.00
10.8162 2475.00
10.8814 2533.00
10.9466 2585.00
11.0118 2495.00
11.077 2405.00
11.1422 2393.00
11.2074 2508.00
11.2726 2368.00
11.3378 2340.00
11.403 2272.00
11.4682 2311.00
11.5334 2243.00
11.5986 2237.00
11.6638 2276.00
11.729 2236.00
11.7942 2296.00
11.8594 2145.00
11.9246 2198.00
11.9898 2223.00
12.055 2239.00
12.1202 2135.00
12.1854 2175.00
12.2506 2090.00
12.3158 2164.00
12.381 2163.00
12.4462 2034.00
12.5114 2037.00
12.5766 2117.00
12.6418 2004.00
12.707 2112.00
12.7722 2004.00
12.8374 2055.00
12.9026 2089.00
12.9678 1999.00
13.033 1951.00
13.0982 1982.00
13.1634 1958.00
13.2286 1994.00
13.2938 2034.00
13.359 2063.00
13.4242 2125.00
13.4894 2391.00
13.5546 2630.00
13.6198 2873.00
13.685 2842.00
13.7502 2525.00
13.8154 2047.00
13.8805 1952.00
13.9457 1867.00
14.0109 1884.00
14.0761 1991.00
14.1413 1855.00
14.2065 1881.00
14.2717 1880.00
14.3369 1803.00
14.4021 1864.00
14.4673 2038.00
14.5325 2096.00
14.5977 2338.00
14.6629 2312.00
14.7281 2257.00
14.7933 2041.00
14.8585 1952.00
14.9237 1820.00
14.9889 1806.00
15.0541 1755.00
15.1193 1782.00
15.1845 1744.00
15.2497 1723.00
15.3149 1661.00
15.3801 1729.00
15.4453 1780.00
15.5105 1668.00
15.5757 1794.00
15.6409 1804.00
15.7061 1718.00
15.7713 1632.00
15.8365 1627.00
15.9017 1650.00
15.9669 1653.00
16.0321 1662.00
16.0973 1751.00
16.1625 1742.00
16.2277 1662.00
16.2929 1666.00
16.3581 1623.00
16.4233 1630.00
16.4885 1651.00
16.5537 1655.00
16.6189 1694.00
16.6841 1594.00
16.7493 1660.00
16.8145 1626.00
16.8797 1652.00
16.9449 1566.00
17.0101 1681.00
17.0753 1614.00
17.1405 1597.00
17.2057 1609.00
17.2709 1577.00
17.3361 1534.00
17.4013 1550.00
17.4665 1577.00
17.5317 1632.00
17.5969 1521.00
17.6621 1560.00
17.7273 1603.00
17.7925 1558.00
17.8577 1513.00
17.9229 1496.00
17.9881 1548.00
18.0533 1522.00
18.1185 1490.00
18.1837 1454.00
18.2489 1559.00
18.3141 1556.00
18.3793 1455.00
18.4445 1532.00
18.5097 1480.00
18.5749 1579.00
18.6401 1499.00
18.7052 1622.00
18.7704 1638.00
18.8356 1734.00
18.9008 1730.00
18.966 1977.00
19.0312 2376.00
19.0964 3360.00
19.1616 5250.00
19.2268 8116.00
19.292 10642.00
19.3572 10797.00
19.4224 11092.00
19.4876 9839.00
19.5528 6198.00
19.618 3492.00
19.6832 2116.00
19.7484 1695.00
19.8136 1618.00
19.8788 1468.00
19.944 1528.00
20.0092 1496.00
20.0744 1448.00
20.1396 1381.00
20.2048 1468.00
20.27 1435.00
20.3352 1422.00
20.4004 1412.00
20.4656 1537.00
20.5308 1597.00
20.596 1739.00
20.6612 2090.00
20.7264 2156.00
20.7916 1963.00
20.8568 1645.00
20.922 1471.00
20.9872 1404.00
21.0524 1378.00
21.1176 1379.00
21.1828 1418.00
21.248 1391.00
21.3132 1344.00
21.3784 1408.00
21.4436 1392.00
21.5088 1359.00
21.574 1202.00
21.6392 1353.00
21.7044 1393.00
21.7696 1525.00
21.8348 1535.00
21.9 1666.00
21.9652 1798.00
22.0304 1745.00
22.0956 1585.00
22.1608 1418.00
22.226 1356.00
22.2912 1309.00
22.3564 1335.00
22.4216 1426.00
22.4868 1470.00
22.552 1720.00
22.6172 2407.00
22.6824 3297.00
22.7476 3789.00
22.8128 2939.00
22.878 2054.00
22.9432 1445.00
23.0084 1357.00
23.0736 1321.00
23.1388 1225.00
23.204 1200.00
23.2692 1205.00
23.3344 1224.00
23.3996 1279.00
23.4647 1267.00
23.5299 1253.00
23.5951 1260.00
23.6603 1286.00
23.7255 1229.00
23.7907 1206.00
23.8559 1257.00
23.9211 1391.00
23.9863 1403.00
24.0515 1392.00
24.1167 1276.00
24.1819 1273.00
24.2471 1202.00
24.3123 1171.00
24.3775 1223.00
24.4427 1207.00
24.5079 1189.00
24.5731 1174.00
24.6383 1178.00
24.7035 1215.00
24.7687 1168.00
24.8339 1171.00
24.8991 1209.00
24.9643 1253.00
25.0295 1273.00
25.0947 1192.00
25.1599 1241.00
25.2251 1101.00
25.2903 1282.00
25.3555 1395.00
25.4207 1609.00
25.4859 1692.00
25.5511 1596.00
25.6163 1441.00
25.6815 1338.00
25.7467 1166.00
25.8119 1162.00
25.8771 1086.00
25.9423 1093.00
26.0075 1107.00
26.0727 1042.00
26.1379 1113.00
26.2031 1078.00
26.2683 1080.00
26.3335 1072.00
26.3987 1170.00
26.4639 1107.00
26.5291 1084.00
26.5943 1147.00
26.6595 1010.00
26.7247 1165.00
26.7899 1198.00
26.8551 1109.00
26.9203 1101.00
26.9855 1108.00
27.0507 1078.00
27.1159 1127.00
27.1811 1120.00
27.2463 1225.00
27.3115 1478.00
27.3767 1995.00
27.4419 3487.00
27.5071 5301.00
27.5723 4980.00
27.6375 3210.00
27.7027 1942.00
27.7679 1364.00
27.8331 1169.00
27.8983 1256.00
27.9635 1171.00
28.0287 1215.00
28.0939 1325.00
28.1591 1339.00
28.2243 1422.00
28.2894 1292.00
28.3546 1211.00
28.4198 1058.00
28.485 1040.00
28.5502 1040.00
28.6154 1018.00
28.6806 1035.00
28.7458 1008.00
28.811 981.00
28.8762 998.00
28.9414 1041.00
29.0066 1096.00
29.0718 964.00
29.137 1058.00
29.2022 1153.00
29.2674 1193.00
29.3326 1319.00
29.3978 1253.00
29.463 1241.00
29.5282 1223.00
29.5934 1127.00
29.6586 1172.00
29.7238 1310.00
29.789 1904.00
29.8542 2611.00
29.9194 3510.00
29.9846 3053.00
30.0498 2276.00
30.115 1594.00
30.1802 1223.00
30.2454 1139.00
30.3106 1210.00
30.3758 1323.00
30.441 1314.00
30.5062 1313.00
30.5714 1281.00
30.6366 1347.00
30.7018 1556.00
30.767 2320.00
30.8322 4470.00
30.8974 8673.00
30.9626 12718.00
31.0278 11690.00
31.093 6928.00
31.1582 3383.00
31.2234 1898.00
31.2886 1453.00
31.3538 1482.00
31.419 1413.00
31.4842 1472.00
31.5494 1617.00
31.6146 1623.00
31.6798 1612.00
31.745 1282.00
31.8102 1125.00
31.8754 1029.00
31.9406 888.00
32.0058 898.00
32.071 982.00
32.1362 1042.00
32.2014 1003.00
32.2666 1079.00
32.3318 1108.00
32.397 1115.00
32.4622 1130.00
32.5274 1198.00
32.5926 1453.00
32.6578 1748.00
32.723 1560.00
32.7882 1341.00
32.8534 1089.00
32.9186 1036.00
32.9838 976.00
33.0489 973.00
33.1141 1013.00
33.1793 1040.00
33.2445 1029.00
33.3097 1081.00
33.3749 1141.00
33.4401 1203.00
33.5053 1399.00
33.5705 2236.00
33.6357 4752.00
33.7009 8412.00
33.7661 10672.00
33.8313 9276.00
33.8965 6346.00
33.9617 3678.00
34.0269 2337.00
34.0921 1835.00
34.1573 1873.00
34.2225 1830.00
34.2877 1656.00
34.3529 1419.00
34.4181 1219.00
34.4833 1137.00
34.5485 997.00
34.6137 895.00
34.6789 966.00
34.7441 959.00
34.8093 982.00
34.8745 1037.00
34.9397 897.00
35.0049 960.00
35.0701 963.00
35.1353 967.00
35.2005 945.00
35.2657 929.00
35.3309 890.00
35.3961 864.00
35.4613 850.00
35.5265 876.00
35.5917 832.00
35.6569 834.00
35.7221 836.00
35.7873 818.00
35.8525 846.00
35.9177 920.00
35.9829 914.00
36.0481 853.00
36.1133 855.00
36.1785 820.00
36.2437 840.00
36.3089 841.00
36.3741 870.00
36.4393 832.00
36.5045 867.00
36.5697 840.00
36.6349 798.00
36.7001 865.00
36.7653 823.00
36.8305 861.00
36.8957 850.00
36.9609 853.00
37.0261 903.00
37.0913 841.00
37.1565 898.00
37.2217 914.00
37.2869 897.00
37.3521 779.00
37.4173 761.00
37.4825 816.00
37.5477 750.00
37.6129 767.00
37.6781 785.00
37.7433 745.00
37.8085 834.00
37.8736 724.00
37.9388 764.00
38.004 861.00
38.0692 761.00
38.1344 800.00
38.1996 797.00
38.2648 822.00
38.33 818.00
38.3952 875.00
38.4604 778.00
38.5256 796.00
38.5908 828.00
38.656 779.00
38.7212 823.00
38.7864 812.00
38.8516 796.00
38.9168 810.00
38.982 802.00
39.0472 802.00
39.1124 907.00
39.1776 911.00
39.2428 873.00
39.308 851.00
39.3732 1013.00
39.4384 1147.00
39.5036 1604.00
39.5688 1584.00
39.634 1238.00
39.6992 1049.00
39.7644 844.00
39.8296 781.00
39.8948 757.00
39.96 804.00
40.0252 800.00
40.0904 756.00
40.1556 711.00
40.2208 761.00
40.286 775.00
40.3512 741.00
40.4164 670.00
40.4816 807.00
40.5468 745.00
40.612 760.00
40.6772 802.00
40.7424 801.00
40.8076 771.00
40.8728 851.00
40.938 1041.00
41.0032 1661.00
41.0684 2157.00
41.1336 2013.00
41.1988 1799.00
41.264 1304.00
41.3292 1090.00
41.3944 971.00
41.4596 906.00
41.5248 743.00
41.59 855.00
41.6552 855.00
41.7204 898.00
41.7856 988.00
41.8508 1010.00
41.916 938.00
41.9812 922.00
42.0464 934.00
42.1116 961.00
42.1768 982.00
42.242 1021.00
42.3072 961.00
42.3724 878.00
42.4376 789.00
42.5028 704.00
42.568 733.00
42.6332 739.00
42.6983 745.00
42.7635 759.00
42.8287 789.00
42.8939 842.00
42.9591 792.00
43.0243 723.00
43.0895 772.00
43.1547 773.00
43.2199 779.00
43.2851 763.00
43.3503 739.00
43.4155 788.00
43.4807 763.00
43.5459 713.00
43.6111 786.00
43.6763 739.00
43.7415 762.00
43.8067 732.00
43.8719 763.00
43.9371 910.00
44.0023 1442.00
44.0675 2169.00
44.1327 2421.00
44.1979 2327.00
44.2631 2501.00
44.3283 3041.00
44.3935 2834.00
44.4587 2310.00
44.5239 1473.00
44.5891 1131.00
44.6543 932.00
44.7195 857.00
44.7847 968.00
44.8499 1012.00
44.9151 1154.00
44.9803 1078.00
45.0455 918.00
45.1107 823.00
45.1759 766.00
45.2411 775.00
45.3063 751.00
45.3715 730.00
45.4367 789.00
45.5019 740.00
45.5671 719.00
45.6323 776.00
45.6975 858.00
45.7627 1037.00
45.8279 1199.00
45.8931 1159.00
45.9583 1102.00
46.0235 1007.00
46.0887 983.00
46.1539 923.00
46.2191 1078.00
46.2843 1506.00
46.3495 2202.00
46.4147 4039.00
46.4799 4775.00
46.5451 4257.00
46.6103 3265.00
46.6755 2238.00
46.7407 1874.00
46.8059 1706.00
46.8711 1467.00
46.9363 1262.00
47.0015 946.00
47.0667 793.00
47.1319 779.00
47.1971 727.00
47.2623 670.00
47.3275 623.00
47.3927 662.00
47.4579 663.00
47.523 679.00
47.5882 644.00
47.6534 729.00
47.7186 657.00
47.7838 655.00
47.849 688.00
47.9142 751.00
47.9794 803.00
48.0446 968.00
48.1098 1087.00
48.175 1049.00
48.2402 902.00
48.3054 842.00
48.3706 766.00
48.4358 778.00
48.501 921.00
48.5662 933.00
48.6314 935.00
48.6966 911.00
48.7618 891.00
48.827 868.00
48.8922 794.00
48.9574 833.00
49.0226 862.00
49.0878 1021.00
49.153 1187.00
49.2182 1154.00
49.2834 1070.00
49.3486 888.00
49.4138 767.00
49.479 737.00
49.5442 665.00
49.6094 649.00
49.6746 736.00
49.7398 704.00
49.805 635.00
49.8702 705.00
49.9354 738.00
50.0006 810.00
50.0658 893.00
50.131 948.00
50.1962 1068.00
50.2614 1365.00
50.3266 1294.00
50.3918 1216.00
50.457 1054.00
50.5222 863.00
50.5874 829.00
50.6526 739.00
50.7178 798.00
50.783 805.00
50.8482 855.00
50.9134 1073.00
50.9786 1735.00
51.0438 2453.00
51.109 2468.00
51.1742 2064.00
51.2394 1558.00
51.3046 1105.00
51.3698 802.00
51.435 788.00
51.5002 684.00
51.5654 725.00
51.6306 684.00
51.6958 701.00
51.761 733.00
51.8262 724.00
51.8914 712.00
51.9566 676.00
52.0218 719.00
52.087 733.00
52.1522 730.00
52.2174 749.00
52.2826 735.00
52.3477 809.00
52.4129 868.00
52.4781 1052.00
52.5433 1741.00
52.6085 2874.00
52.6737 3385.00
52.7389 3310.00
52.8041 2811.00
52.8693 2327.00
52.9345 1910.00
52.9997 1480.00
53.0649 1213.00
53.1301 946.00
53.1953 802.00
53.2605 717.00
53.3257 644.00
53.3909 658.00
53.4561 627.00
53.5213 602.00
53.5865 623.00
53.6517 596.00
53.7169 612.00
53.7821 648.00
53.8473 601.00
53.9125 676.00
53.9777 720.00
54.0429 733.00
54.1081 755.00
54.1733 833.00
54.2385 901.00
54.3037 838.00
54.3689 753.00
54.4341 673.00
54.4993 673.00
54.5645 622.00
54.6297 553.00
54.6949 627.00
54.7601 591.00
54.8253 610.00
54.8905 637.00
54.9557 621.00
55.0209 623.00
55.0861 573.00
55.1513 629.00
55.2165 651.00
55.2817 643.00
55.3469 574.00
55.4121 637.00
55.4773 623.00
55.5425 620.00
55.6077 591.00
55.6729 681.00
55.7381 630.00
55.8033 630.00
55.8685 614.00
55.9337 531.00
55.9989 592.00
56.0641 598.00
56.1293 589.00
56.1945 592.00
56.2597 620.00
56.3249 596.00
56.3901 548.00
56.4553 540.00
56.5205 590.00
56.5857 652.00
56.6509 742.00
56.7161 703.00
56.7813 788.00
56.8465 932.00
56.9117 869.00
56.9769 803.00
57.042 781.00
57.1073 693.00
57.1724 606.00
57.2376 672.00
57.3028 682.00
57.368 669.00
57.4332 690.00
57.4984 661.00
57.5636 664.00
57.6288 759.00
57.694 692.00
57.7592 745.00
57.8244 706.00
57.8896 691.00
57.9548 604.00
58.02 675.00
58.0852 723.00
58.1504 693.00
58.2156 783.00
58.2808 861.00
58.346 885.00
58.4112 919.00
58.4764 1012.00
58.5416 1550.00
58.6068 2724.00
58.672 3198.00
58.7372 2741.00
58.8024 2519.00
58.8676 2432.00
58.9328 2202.00
58.998 1751.00
59.0632 1612.00
59.1284 1336.00
59.1936 1137.00
59.2588 1058.00
59.324 1274.00
59.3892 1184.00
59.4544 1015.00
59.5196 932.00
59.5848 787.00
59.65 681.00
59.7152 637.00
59.7804 662.00
59.8456 586.00
59.9108 618.00
59.976 633.00
60.0412 596.00
60.1064 689.00
60.1716 661.00
60.2368 816.00
60.302 1217.00
60.3672 1587.00
60.4324 1574.00
60.4976 1442.00
60.5628 1465.00
60.628 1383.00
60.6932 1094.00
60.7584 909.00
60.8236 947.00
60.8888 901.00
60.954 938.00
61.0192 1039.00
61.0844 880.00
61.1496 828.00
61.2148 786.00
61.28 707.00
61.3452 638.00
61.4104 632.00
61.4756 596.00
61.5408 637.00
61.606 592.00
61.6712 576.00
61.7364 626.00
61.8016 616.00
61.8667 633.00
61.932 605.00
61.9971 613.00
62.0623 620.00
62.1275 588.00
62.1927 722.00
62.2579 700.00
62.3231 679.00
62.3883 700.00
62.4535 772.00
62.5187 797.00
62.5839 872.00
62.6491 935.00
62.7143 890.00
62.7795 905.00
62.8447 857.00
62.9099 901.00
62.9751 944.00
63.0403 1049.00
63.1055 909.00
63.1707 902.00
63.2359 853.00
63.3011 742.00
63.3663 708.00
63.4315 595.00
63.4967 592.00
63.5619 615.00
63.6271 570.00
63.6923 603.00
63.7575 507.00
63.8227 562.00
63.8879 567.00
63.9531 666.00
64.0183 830.00
64.0835 966.00
64.1487 884.00
64.2139 920.00
64.2791 797.00
64.3443 697.00
64.4095 603.00
64.4747 656.00
64.5399 606.00
64.6051 600.00
64.6703 645.00
64.7355 613.00
64.8007 572.00
64.8659 515.00
64.9311 528.00
64.9963 519.00
65.0615 482.00
65.1267 549.00
65.1919 537.00
65.2571 627.00
65.3223 766.00
65.3875 882.00
65.4527 894.00
65.5179 855.00
65.5831 847.00
65.6483 796.00
65.7135 715.00
65.7787 731.00
65.8439 673.00
65.9091 700.00
65.9743 739.00
66.0395 686.00
66.1047 868.00
66.1699 1151.00
66.2351 1141.00
66.3003 1026.00
66.3655 1020.00
66.4307 1032.00
66.4959 1048.00
66.561 1129.00
66.6263 1134.00
66.6915 957.00
66.7566 862.00
66.8218 761.00
66.887 687.00
66.9522 558.00
67.0174 509.00
67.0826 535.00
67.1478 524.00
67.213 561.00
67.2782 565.00
67.3434 497.00
67.4086 554.00
67.4738 692.00
67.539 898.00
67.6042 1141.00
67.6694 1043.00
67.7346 1007.00
67.7998 894.00
67.865 756.00
67.9302 688.00
67.9954 582.00
68.0606 551.00
68.1258 521.00
68.191 556.00
68.2562 478.00
68.3214 509.00
68.3866 562.00
68.4518 640.00
68.517 621.00
68.5822 635.00
68.6474 632.00
68.7126 617.00
68.7778 604.00
68.843 587.00
68.9082 635.00
68.9734 672.00
69.0386 695.00
69.1038 653.00
69.169 601.00
69.2342 640.00
69.2994 616.00
69.3646 576.00
69.4298 619.00
69.495 564.00
69.5602 563.00
69.6254 551.00
69.6906 518.00
69.7558 558.00
69.821 527.00
69.8862 526.00
69.9514 539.00
70.0166 534.00
70.0818 535.00
70.147 469.00
70.2122 483.00
70.2774 507.00
70.3426 521.00
70.4078 497.00
70.473 536.00
70.5382 545.00
70.6034 511.00
70.6686 535.00
70.7338 579.00
70.799 567.00
70.8642 762.00
70.9294 1177.00
70.9946 1507.00
71.0598 1310.00
71.125 1146.00
71.1902 1275.00
71.2554 1098.00
71.3205 924.00
71.3858 712.00
71.451 677.00
71.5162 654.00
71.5813 593.00
71.6465 564.00
71.7117 496.00
71.7769 529.00
71.8421 538.00
71.9073 561.00
71.9725 513.00
72.0377 592.00
72.1029 620.00
72.1681 551.00
72.2333 531.00
72.2985 596.00
72.3637 587.00
72.4289 646.00
72.4941 656.00
72.5593 584.00
72.6245 641.00
72.6897 620.00
72.7549 619.00
72.8201 578.00
72.8853 532.00
72.9505 541.00
73.0157 541.00
73.0809 564.00
73.1461 512.00
73.2113 615.00
73.2765 635.00
73.3417 693.00
73.4069 787.00
73.4721 909.00
73.5373 845.00
73.6025 716.00
73.6677 757.00
73.7329 575.00
73.7981 600.00
73.8633 514.00
73.9285 509.00
73.9937 489.00
74.0589 472.00
74.1241 484.00
74.1893 526.00
74.2545 534.00
74.3197 738.00
74.3849 867.00
74.4501 816.00
74.5153 735.00
74.5805 776.00
74.6457 652.00
74.7109 601.00
74.7761 533.00
74.8413 523.00
74.9065 490.00
74.9717 522.00
75.0369 532.00
75.1021 526.00
75.1673 465.00
75.2325 466.00
75.2977 552.00
75.3629 583.00
75.4281 562.00
75.4933 565.00
75.5585 525.00
75.6237 517.00
75.6889 536.00
75.7541 494.00
75.8193 498.00
75.8845 534.00
75.9497 477.00
76.0149 520.00
76.0801 491.00
76.1452 498.00
76.2104 602.00
76.2756 609.00
76.3409 694.00
76.406 808.00
76.4712 785.00
76.5364 690.00
76.6016 691.00
76.6668 667.00
76.732 643.00
76.7972 638.00
76.8624 615.00
76.9276 543.00
76.9928 538.00
77.058 560.00
77.1232 533.00
77.1884 571.00
77.2536 586.00
77.3188 596.00
77.384 626.00
77.4492 567.00
77.5144 568.00
77.5796 548.00
77.6448 502.00
77.71 496.00
77.7752 501.00
77.8404 506.00
77.9056 488.00
77.9708 518.00
78.036 455.00
78.1012 480.00
78.1664 505.00
78.2316 486.00
78.2968 466.00
78.362 482.00
78.4272 450.00
78.4924 503.00
78.5576 474.00
78.6228 504.00
78.688 431.00
78.7532 478.00
78.8184 447.00
78.8836 546.00
78.9488 580.00
79.014 512.00
79.0792 548.00
79.1444 521.00
79.2096 585.00
79.2748 535.00
79.34 667.00
79.4052 896.00
79.4704 1069.00
79.5356 908.00
79.6008 837.00
79.666 846.00
79.7312 857.00
79.7964 773.00
79.8616 659.00
79.9268 634.00
79.992 707.00
80.0572 876.00
80.1224 807.00
80.1876 706.00
80.2528 699.00
80.318 689.00
80.3832 598.00
80.4484 574.00
80.5136 539.00
80.5788 555.00
80.644 541.00
80.7092 488.00
80.7744 508.00
80.8396 511.00
80.9048 539.00
80.9699 620.00
81.0351 759.00
81.1003 780.00
81.1655 755.00
81.2307 766.00
81.2959 726.00
81.3611 684.00
81.4263 681.00
81.4915 679.00
81.5567 642.00
81.6219 591.00
81.6871 582.00
81.7523 589.00
81.8175 535.00
81.8827 534.00
81.9479 503.00
82.0131 485.00
82.0783 496.00
82.1435 478.00
82.2087 486.00
82.2739 494.00
82.3391 476.00
82.4043 473.00
82.4695 502.00
82.5347 504.00
82.5999 535.00
82.6651 606.00
82.7303 526.00
82.7955 566.00
82.8607 470.00
82.9259 489.00
82.9911 551.00
83.0563 491.00
83.1215 497.00
83.1867 474.00
83.2519 459.00
83.3171 464.00
83.3823 500.00
83.4475 443.00
83.5127 502.00
83.5779 451.00
83.6431 430.00
83.7083 471.00
83.7735 419.00
83.8387 424.00
83.9039 466.00
83.9691 461.00
84.0343 479.00
84.0995 502.00
84.1647 496.00
84.2299 570.00
84.2951 526.00
84.3603 507.00
84.4255 480.00
84.4907 501.00
84.5559 475.00
84.6211 467.00
84.6863 466.00
84.7515 470.00
84.8167 489.00
84.8819 461.00
84.9471 465.00
85.0123 449.00
85.0775 508.00
85.1427 421.00
85.2079 473.00
85.2731 481.00
85.3383 429.00
85.4035 476.00
85.4687 503.00
85.5339 528.00
85.5991 476.00
85.6643 544.00
85.7295 506.00
85.7946 524.00
85.8598 549.00
85.925 574.00
85.9903 581.00
86.0554 576.00
86.1206 711.00
86.1858 861.00
86.251 893.00
86.3162 747.00
86.3814 728.00
86.4466 730.00
86.5118 712.00
86.577 707.00
86.6422 582.00
86.7074 597.00
86.7726 562.00
86.8378 634.00
86.903 627.00
86.9682 619.00
87.0334 577.00
87.0986 652.00
87.1638 602.00
87.229 576.00
87.2942 580.00
87.3594 571.00
87.4246 609.00
87.4898 533.00
87.555 563.00
87.6202 545.00
87.6854 590.00
87.7506 576.00
87.8158 547.00
87.881 517.00
87.9462 559.00
88.0114 485.00
88.0766 510.00
88.1418 512.00
88.207 465.00
88.2722 450.00
88.3374 485.00
88.4026 550.00
88.4678 508.00
88.533 482.00
88.5982 440.00
88.6634 513.00
88.7286 506.00
88.7938 584.00
88.859 530.00
88.9242 542.00
88.9894 554.00
89.0546 556.00
89.1198 642.00
89.185 734.00
89.2502 707.00
89.3154 651.00
89.3806 612.00
89.4458 622.00
89.511 570.00
89.5762 546.00
89.6414 576.00
89.7066 575.00
89.7718 625.00
89.837 677.00
89.9022 562.00
89.9674 544.00
90.0326 598.00
90.0978 620.00
90.163 522.00
90.2282 510.00
90.2934 465.00
90.3586 491.00
90.4238 442.00
90.489 416.00
90.5542 441.00
90.6193 540.00
90.6845 615.00
90.7497 564.00
90.8149 546.00
90.8801 516.00
90.9453 547.00
91.0105 612.00
91.0757 598.00
91.1409 574.00
91.2061 598.00
91.2713 539.00
91.3365 537.00
91.4017 528.00
91.4669 476.00
91.5321 536.00
91.5973 485.00
91.6625 511.00
91.7277 438.00
91.7929 500.00
91.8581 459.00
91.9233 477.00
91.9885 519.00
92.0537 517.00
92.1189 534.00
92.1841 543.00
92.2493 526.00
92.3145 519.00
92.3797 499.00
92.4449 529.00
92.5101 519.00
92.5753 551.00
92.6405 651.00
92.7057 645.00
92.7709 539.00
92.8361 557.00
92.9013 671.00
92.9665 714.00
93.0317 843.00
93.0969 655.00
93.1621 646.00
93.2273 598.00
93.2925 646.00
93.3577 558.00
93.4229 534.00
93.4881 490.00
93.5533 524.00
93.6185 437.00
93.6837 426.00
93.7489 475.00
93.8141 505.00
93.8793 581.00
93.9445 584.00
94.0097 588.00
94.0749 608.00
94.1401 637.00
94.2053 659.00
94.2705 580.00
94.3357 573.00
94.4009 516.00
94.4661 552.00
94.5313 506.00
94.5965 495.00
94.6617 458.00
94.7269 507.00
94.7921 490.00
94.8573 485.00
94.9225 506.00
94.9877 477.00
95.0529 479.00
95.1181 479.00
95.1833 516.00
95.2485 533.00
95.3137 540.00
95.3789 580.00
95.444 584.00
95.5092 573.00
95.5744 595.00
95.6396 530.00
95.7048 547.00
95.77 527.00
95.8352 481.00
95.9004 506.00
95.9656 488.00
96.0308 434.00
96.096 491.00
96.1612 445.00
96.2264 433.00
96.2916 451.00
96.3568 469.00
96.422 448.00
96.4872 481.00
96.5524 469.00
96.6176 496.00
96.6828 514.00
96.748 499.00
96.8132 456.00
96.8784 505.00
96.9436 478.00
97.0088 467.00
97.074 519.00
97.1392 451.00
97.2044 483.00
97.2696 445.00
97.3348 469.00
97.4 446.00
97.4652 470.00
97.5304 464.00
97.5956 470.00
97.6608 501.00
97.726 424.00
97.7912 420.00
97.8564 372.00
97.9216 440.00
97.9868 425.00
98.052 436.00
98.1172 492.00
98.1824 418.00
98.2476 453.00
98.3128 468.00
98.378 522.00
98.4432 461.00
98.5084 463.00
98.5736 441.00
98.6388 484.00
98.704 489.00
98.7692 515.00
98.8344 623.00
98.8996 747.00
98.9648 731.00
99.03 742.00
99.0952 811.00
99.1604 817.00
99.2256 805.00
99.2908 763.00
99.356 676.00
99.4212 719.00
99.4864 788.00
99.5516 704.00
99.6168 591.00
99.682 511.00
99.7472 512.00
99.8124 520.00
99.8776 559.00
99.9428 522.00
100.008 536.00
100.073 518.00
100.095 491.00