File: data/xrd_creation/results/NSC_47.xy
9.903433 2801.00
9.968632 2765.00
10.0338 2766.00
10.099 2705.00
10.1642 2687.00
10.2294 2757.00
10.2946 2618.00
10.3598 2682.00
10.425 2584.00
10.4902 2614.00
10.5554 2580.00
10.6206 2656.00
10.6858 2431.00
10.751 2494.00
10.8162 2507.00
10.8814 2528.00
10.9466 2420.00
11.0118 2521.00
11.077 2439.00
11.1422 2480.00
11.2074 2348.00
11.2726 2355.00
11.3378 2357.00
11.403 2349.00
11.4682 2163.00
11.5334 2305.00
11.5986 2250.00
11.6638 2284.00
11.729 2284.00
11.7942 2385.00
11.8594 2308.00
11.9246 2304.00
11.9898 2216.00
12.055 2304.00
12.1202 2261.00
12.1854 2383.00
12.2506 2463.00
12.3158 2750.00
12.381 3381.00
12.4462 3822.00
12.5114 4278.00
12.5766 3820.00
12.6418 2795.00
12.707 2344.00
12.7722 2136.00
12.8374 2047.00
12.9026 2120.00
12.9678 2092.00
13.033 1975.00
13.0982 2046.00
13.1634 2082.00
13.2286 1932.00
13.2938 1985.00
13.359 1920.00
13.4242 1904.00
13.4894 1857.00
13.5546 1900.00
13.6198 1876.00
13.685 1925.00
13.7502 1848.00
13.8154 1898.00
13.8805 1911.00
13.9457 1869.00
14.0109 1778.00
14.0761 1870.00
14.1413 1769.00
14.2065 1812.00
14.2717 1860.00
14.3369 1791.00
14.4021 1773.00
14.4673 1854.00
14.5325 1801.00
14.5977 1735.00
14.6629 1804.00
14.7281 1760.00
14.7933 1747.00
14.8585 1688.00
14.9237 1722.00
14.9889 1755.00
15.0541 1766.00
15.1193 1698.00
15.1845 1739.00
15.2497 1686.00
15.3149 1641.00
15.3801 1643.00
15.4453 1742.00
15.5105 1715.00
15.5757 1688.00
15.6409 1706.00
15.7061 1574.00
15.7713 1641.00
15.8365 1686.00
15.9017 1629.00
15.9669 1635.00
16.0321 1573.00
16.0973 1615.00
16.1625 1715.00
16.2277 1579.00
16.2929 1630.00
16.3581 1559.00
16.4233 1680.00
16.4885 1607.00
16.5537 1530.00
16.6189 1595.00
16.6841 1596.00
16.7493 1484.00
16.8145 1567.00
16.8797 1569.00
16.9449 1543.00
17.0101 1590.00
17.0753 1511.00
17.1405 1582.00
17.2057 1470.00
17.2709 1493.00
17.3361 1608.00
17.4013 1463.00
17.4665 1530.00
17.5317 1505.00
17.5969 1546.00
17.6621 1487.00
17.7273 1535.00
17.7925 1476.00
17.8577 1458.00
17.9229 1407.00
17.9881 1544.00
18.0533 1399.00
18.1185 1415.00
18.1837 1394.00
18.2489 1444.00
18.3141 1452.00
18.3793 1385.00
18.4445 1365.00
18.5097 1367.00
18.5749 1371.00
18.6401 1491.00
18.7052 1403.00
18.7704 1358.00
18.8356 1468.00
18.9008 1527.00
18.966 1562.00
19.0312 1797.00
19.0964 2049.00
19.1616 2482.00
19.2268 2529.00
19.292 2097.00
19.3572 1673.00
19.4224 1524.00
19.4876 1534.00
19.5528 1553.00
19.618 1619.00
19.6832 1613.00
19.7484 1531.00
19.8136 1408.00
19.8788 1350.00
19.944 1284.00
20.0092 1340.00
20.0744 1325.00
20.1396 1348.00
20.2048 1348.00
20.27 1382.00
20.3352 1454.00
20.4004 1610.00
20.4656 1714.00
20.5308 1873.00
20.596 1885.00
20.6612 1838.00
20.7264 1699.00
20.7916 1443.00
20.8568 1371.00
20.922 1245.00
20.9872 1300.00
21.0524 1345.00
21.1176 1378.00
21.1828 1421.00
21.248 1488.00
21.3132 1569.00
21.3784 1736.00
21.4436 1764.00
21.5088 1580.00
21.574 1438.00
21.6392 1322.00
21.7044 1269.00
21.7696 1240.00
21.8348 1170.00
21.9 1220.00
21.9652 1189.00
22.0304 1162.00
22.0956 1153.00
22.1608 1183.00
22.226 1103.00
22.2912 1132.00
22.3564 1225.00
22.4216 1201.00
22.4868 1242.00
22.552 1219.00
22.6172 1166.00
22.6824 1261.00
22.7476 1564.00
22.8128 1841.00
22.878 2660.00
22.9432 3635.00
23.0084 4195.00
23.0736 3567.00
23.1388 2363.00
23.204 1716.00
23.2692 1369.00
23.3344 1255.00
23.3996 1217.00
23.4647 1204.00
23.5299 1179.00
23.5951 1216.00
23.6603 1187.00
23.7255 1270.00
23.7907 1354.00
23.8559 1633.00
23.9211 2040.00
23.9863 2662.00
24.0515 2969.00
24.1167 2685.00
24.1819 1881.00
24.2471 1448.00
24.3123 1201.00
24.3775 1149.00
24.4427 1022.00
24.5079 1089.00
24.5731 1012.00
24.6383 1049.00
24.7035 1034.00
24.7687 1084.00
24.8339 1070.00
24.8991 996.00
24.9643 1070.00
25.0295 1000.00
25.0947 997.00
25.1599 1031.00
25.2251 1047.00
25.2903 1067.00
25.3555 994.00
25.4207 978.00
25.4859 997.00
25.5511 955.00
25.6163 981.00
25.6815 998.00
25.7467 991.00
25.8119 1009.00
25.8771 990.00
25.9423 980.00
26.0075 914.00
26.0727 908.00
26.1379 961.00
26.2031 1017.00
26.2683 952.00
26.3335 923.00
26.3987 917.00
26.4639 945.00
26.5291 924.00
26.5943 952.00
26.6595 947.00
26.7247 947.00
26.7899 950.00
26.8551 928.00
26.9203 919.00
26.9855 925.00
27.0507 931.00
27.1159 977.00
27.1811 1039.00
27.2463 1110.00
27.3115 1112.00
27.3767 1056.00
27.4419 998.00
27.5071 921.00
27.5723 958.00
27.6375 924.00
27.7027 953.00
27.7679 930.00
27.8331 983.00
27.8983 985.00
27.9635 976.00
28.0287 899.00
28.0939 894.00
28.1591 930.00
28.2243 875.00
28.2894 848.00
28.3546 857.00
28.4198 898.00
28.485 788.00
28.5502 861.00
28.6154 846.00
28.6806 852.00
28.7458 880.00
28.811 897.00
28.8762 817.00
28.9414 881.00
29.0066 853.00
29.0718 875.00
29.137 796.00
29.2022 886.00
29.2674 857.00
29.3326 874.00
29.3978 883.00
29.463 848.00
29.5282 889.00
29.5934 950.00
29.6586 1099.00
29.7238 1077.00
29.789 1014.00
29.8542 908.00
29.9194 981.00
29.9846 885.00
30.0498 935.00
30.115 934.00
30.1802 1029.00
30.2454 1083.00
30.3106 1454.00
30.3758 2255.00
30.441 3935.00
30.5062 5983.00
30.5714 6466.00
30.6366 4695.00
30.7018 2516.00
30.767 1476.00
30.8322 1159.00
30.8974 1040.00
30.9626 1041.00
31.0278 1162.00
31.093 1162.00
31.1582 1221.00
31.2234 1232.00
31.2886 1201.00
31.3538 1145.00
31.419 1009.00
31.4842 1079.00
31.5494 1090.00
31.6146 1373.00
31.6798 1851.00
31.745 3199.00
31.8102 4898.00
31.8754 6242.00
31.9406 5923.00
32.0058 4035.00
32.071 2348.00
32.1362 1448.00
32.2014 1050.00
32.2666 1023.00
32.3318 945.00
32.397 1014.00
32.4622 1101.00
32.5274 1467.00
32.5926 1926.00
32.6578 2472.00
32.723 3084.00
32.7882 2986.00
32.8534 2428.00
32.9186 1629.00
32.9838 1195.00
33.0489 1108.00
33.1141 947.00
33.1793 851.00
33.2445 849.00
33.3097 795.00
33.3749 746.00
33.4401 766.00
33.5053 789.00
33.5705 697.00
33.6357 739.00
33.7009 714.00
33.7661 787.00
33.8313 727.00
33.8965 806.00
33.9617 981.00
34.0269 1066.00
34.0921 1238.00
34.1573 1415.00
34.2225 1219.00
34.2877 1113.00
34.3529 1020.00
34.4181 964.00
34.4833 994.00
34.5485 1002.00
34.6137 909.00
34.6789 962.00
34.7441 881.00
34.8093 900.00
34.8745 1082.00
34.9397 1234.00
35.0049 1679.00
35.0701 2533.00
35.1353 3686.00
35.2005 4053.00
35.2657 3578.00
35.3309 3100.00
35.3961 2938.00
35.4613 2673.00
35.5265 1910.00
35.5917 1177.00
35.6569 925.00
35.7221 767.00
35.7873 697.00
35.8525 786.00
35.9177 734.00
35.9829 725.00
36.0481 681.00
36.1133 612.00
36.1785 609.00
36.2437 618.00
36.3089 643.00
36.3741 623.00
36.4393 582.00
36.5045 632.00
36.5697 652.00
36.6349 610.00
36.7001 620.00
36.7653 640.00
36.8305 639.00
36.8957 619.00
36.9609 634.00
37.0261 614.00
37.0913 647.00
37.1565 650.00
37.2217 697.00
37.2869 787.00
37.3521 887.00
37.4173 1128.00
37.4825 1336.00
37.5477 1339.00
37.6129 1369.00
37.6781 1171.00
37.7433 970.00
37.8085 741.00
37.8736 671.00
37.9388 625.00
38.004 665.00
38.0692 675.00
38.1344 712.00
38.1996 763.00
38.2648 730.00
38.33 800.00
38.3952 775.00
38.4604 713.00
38.5256 680.00
38.5908 651.00
38.656 582.00
38.7212 603.00
38.7864 576.00
38.8516 636.00
38.9168 587.00
38.982 669.00
39.0472 680.00
39.1124 705.00
39.1776 612.00
39.2428 623.00
39.308 589.00
39.3732 592.00
39.4384 540.00
39.5036 574.00
39.5688 549.00
39.634 594.00
39.6992 603.00
39.7644 630.00
39.8296 623.00
39.8948 627.00
39.96 566.00
40.0252 531.00
40.0904 558.00
40.1556 587.00
40.2208 545.00
40.286 554.00
40.3512 543.00
40.4164 580.00
40.4816 499.00
40.5468 521.00
40.612 554.00
40.6772 552.00
40.7424 571.00
40.8076 559.00
40.8728 593.00
40.938 627.00
41.0032 758.00
41.0684 931.00
41.1336 1000.00
41.1988 909.00
41.264 847.00
41.3292 717.00
41.3944 638.00
41.4596 670.00
41.5248 710.00
41.59 775.00
41.6552 1171.00
41.7204 1704.00
41.7856 1947.00
41.8508 1812.00
41.916 1363.00
41.9812 989.00
42.0464 813.00
42.1116 678.00
42.1768 638.00
42.242 573.00
42.3072 564.00
42.3724 583.00
42.4376 582.00
42.5028 614.00
42.568 569.00
42.6332 553.00
42.6983 521.00
42.7635 547.00
42.8287 575.00
42.8939 592.00
42.9591 698.00
43.0243 908.00
43.0895 1159.00
43.1547 1340.00
43.2199 1253.00
43.2851 1062.00
43.3503 754.00
43.4155 660.00
43.4807 692.00
43.5459 655.00
43.6111 835.00
43.6763 1008.00
43.7415 1104.00
43.8067 1058.00
43.8719 974.00
43.9371 726.00
44.0023 643.00
44.0675 597.00
44.1327 531.00
44.1979 480.00
44.2631 519.00
44.3283 489.00
44.3935 460.00
44.4587 440.00
44.5239 489.00
44.5891 486.00
44.6543 499.00
44.7195 467.00
44.7847 508.00
44.8499 554.00
44.9151 491.00
44.9803 516.00
45.0455 505.00
45.1107 511.00
45.1759 475.00
45.2411 470.00
45.3063 476.00
45.3715 563.00
45.4367 575.00
45.5019 618.00
45.5671 817.00
45.6323 956.00
45.6975 1017.00
45.7627 780.00
45.8279 649.00
45.8931 581.00
45.9583 490.00
46.0235 457.00
46.0887 487.00
46.1539 492.00
46.2191 442.00
46.2843 456.00
46.3495 491.00
46.4147 485.00
46.4799 528.00
46.5451 547.00
46.6103 549.00
46.6755 609.00
46.7407 701.00
46.8059 978.00
46.8711 1367.00
46.9363 1851.00
47.0015 2160.00
47.0667 2040.00
47.1319 1714.00
47.1971 1339.00
47.2623 996.00
47.3275 760.00
47.3927 663.00
47.4579 556.00
47.523 522.00
47.5882 494.00
47.6534 471.00
47.7186 462.00
47.7838 462.00
47.849 458.00
47.9142 462.00
47.9794 434.00
48.0446 432.00
48.1098 458.00
48.175 432.00
48.2402 445.00
48.3054 435.00
48.3706 448.00
48.4358 446.00
48.501 434.00
48.5662 474.00
48.6314 430.00
48.6966 422.00
48.7618 429.00
48.827 501.00
48.8922 471.00
48.9574 491.00
49.0226 555.00
49.0878 646.00
49.153 726.00
49.2182 907.00
49.2834 1031.00
49.3486 1048.00
49.4138 976.00
49.479 939.00
49.5442 953.00
49.6094 765.00
49.6746 675.00
49.7398 568.00
49.805 519.00
49.8702 476.00
49.9354 414.00
50.0006 450.00
50.0658 418.00
50.131 430.00
50.1962 468.00
50.2614 407.00
50.3266 427.00
50.3918 461.00
50.457 487.00
50.5222 495.00
50.5874 468.00
50.6526 532.00
50.7178 591.00
50.783 765.00
50.8482 1166.00
50.9134 1978.00
50.9786 2551.00
51.0438 2435.00
51.109 2094.00
51.1742 1702.00
51.2394 1443.00
51.3046 1176.00
51.3698 924.00
51.435 798.00
51.5002 678.00
51.5654 626.00
51.6306 658.00
51.6958 850.00
51.761 1008.00
51.8262 942.00
51.8914 709.00
51.9566 620.00
52.0218 521.00
52.087 475.00
52.1522 428.00
52.2174 426.00
52.2826 428.00
52.3477 457.00
52.4129 476.00
52.4781 454.00
52.5433 507.00
52.6085 564.00
52.6737 697.00
52.7389 859.00
52.8041 970.00
52.8693 985.00
52.9345 996.00
52.9997 977.00
53.0649 826.00
53.1301 728.00
53.1953 594.00
53.2605 511.00
53.3257 487.00
53.3909 446.00
53.4561 433.00
53.5213 418.00
53.5865 434.00
53.6517 435.00
53.7169 484.00
53.7821 479.00
53.8473 502.00
53.9125 547.00
53.9777 575.00
54.0429 630.00
54.1081 649.00
54.1733 628.00
54.2385 587.00
54.3037 562.00
54.3689 511.00
54.4341 467.00
54.4993 412.00
54.5645 419.00
54.6297 413.00
54.6949 376.00
54.7601 386.00
54.8253 423.00
54.8905 373.00
54.9557 389.00
55.0209 383.00
55.0861 382.00
55.1513 375.00
55.2165 475.00
55.2817 430.00
55.3469 444.00
55.4121 468.00
55.4773 560.00
55.5425 624.00
55.6077 771.00
55.6729 1118.00
55.7381 1189.00
55.8033 1242.00
55.8685 1227.00
55.9337 1073.00
55.9989 885.00
56.0641 798.00
56.1293 655.00
56.1945 687.00
56.2597 686.00
56.3249 728.00
56.3901 742.00
56.4553 625.00
56.5205 596.00
56.5857 539.00
56.6509 437.00
56.7161 433.00
56.7813 396.00
56.8465 408.00
56.9117 411.00
56.9769 426.00
57.042 451.00
57.1073 474.00
57.1724 486.00
57.2376 538.00
57.3028 605.00
57.368 620.00
57.4332 670.00
57.4984 673.00
57.5636 622.00
57.6288 608.00
57.694 547.00
57.7592 623.00
57.8244 714.00
57.8896 835.00
57.9548 1063.00
58.02 1072.00
58.0852 970.00
58.1504 808.00
58.2156 748.00
58.2808 564.00
58.346 460.00
58.4112 474.00
58.4764 409.00
58.5416 404.00
58.6068 404.00
58.672 396.00
58.7372 428.00
58.8024 408.00
58.8676 387.00
58.9328 468.00
58.998 554.00
59.0632 635.00
59.1284 617.00
59.1936 610.00
59.2588 611.00
59.324 559.00
59.3892 540.00
59.4544 456.00
59.5196 452.00
59.5848 499.00
59.65 460.00
59.7152 495.00
59.7804 512.00
59.8456 612.00
59.9108 589.00
59.976 730.00
60.0412 883.00
60.1064 990.00
60.1716 931.00
60.2368 937.00
60.302 874.00
60.3672 903.00
60.4324 1028.00
60.4976 1460.00
60.5628 2184.00
60.628 2572.00
60.6932 2378.00
60.7584 2065.00
60.8236 1547.00
60.8888 1159.00
60.954 759.00
61.0192 623.00
61.0844 576.00
61.1496 586.00
61.2148 522.00
61.28 481.00
61.3452 493.00
61.4104 459.00
61.4756 459.00
61.5408 524.00
61.606 575.00
61.6712 632.00
61.7364 623.00
61.8016 630.00
61.8667 703.00
61.932 798.00
61.9971 921.00
62.0623 1015.00
62.1275 1142.00
62.1927 996.00
62.2579 922.00
62.3231 768.00
62.3883 636.00
62.4535 579.00
62.5187 524.00
62.5839 613.00
62.6491 624.00
62.7143 588.00
62.7795 542.00
62.8447 486.00
62.9099 408.00
62.9751 408.00
63.0403 415.00
63.1055 355.00
63.1707 397.00
63.2359 389.00
63.3011 372.00
63.3663 426.00
63.4315 411.00
63.4967 508.00
63.5619 583.00
63.6271 652.00
63.6923 630.00
63.7575 595.00
63.8227 584.00
63.8879 556.00
63.9531 676.00
64.0183 756.00
64.0835 651.00
64.1487 733.00
64.2139 761.00
64.2791 785.00
64.3443 660.00
64.4095 609.00
64.4747 551.00
64.5399 529.00
64.6051 489.00
64.6703 476.00
64.7355 425.00
64.8007 445.00
64.8659 392.00
64.9311 423.00
64.9963 430.00
65.0615 425.00
65.1267 459.00
65.1919 453.00
65.2571 452.00
65.3223 469.00
65.3875 407.00
65.4527 392.00
65.5179 416.00
65.5831 382.00
65.6483 436.00
65.7135 499.00
65.7787 456.00
65.8439 437.00
65.9091 419.00
65.9743 431.00
66.0395 442.00
66.1047 520.00
66.1699 549.00
66.2351 488.00
66.3003 468.00
66.3655 441.00
66.4307 449.00
66.4959 442.00
66.561 441.00
66.6263 439.00
66.6915 446.00
66.7566 512.00
66.8218 460.00
66.887 432.00
66.9522 369.00
67.0174 369.00
67.0826 376.00
67.1478 368.00
67.213 346.00
67.2782 328.00
67.3434 326.00
67.4086 375.00
67.4738 343.00
67.539 351.00
67.6042 366.00
67.6694 383.00
67.7346 410.00
67.7998 428.00
67.865 497.00
67.9302 599.00
67.9954 621.00
68.0606 684.00
68.1258 593.00
68.191 650.00
68.2562 633.00
68.3214 547.00
68.3866 504.00
68.4518 499.00
68.517 476.00
68.5822 543.00
68.6474 565.00
68.7126 633.00
68.7778 624.00
68.843 563.00
68.9082 537.00
68.9734 526.00
69.0386 408.00
69.1038 432.00
69.169 373.00
69.2342 346.00
69.2994 378.00
69.3646 432.00
69.4298 473.00
69.495 450.00
69.5602 452.00
69.6254 529.00
69.6906 508.00
69.7558 491.00
69.821 561.00
69.8862 466.00
69.9514 501.00
70.0166 470.00
70.0818 476.00
70.147 436.00
70.2122 426.00
70.2774 430.00
70.3426 350.00
70.4078 385.00
70.473 329.00
70.5382 319.00
70.6034 349.00
70.6686 287.00
70.7338 353.00
70.799 311.00
70.8642 284.00
70.9294 282.00
70.9946 305.00
71.0598 282.00
71.125 259.00
71.1902 288.00
71.2554 288.00
71.3205 293.00
71.3858 282.00
71.451 272.00
71.5162 315.00
71.5813 310.00
71.6465 292.00
71.7117 331.00
71.7769 303.00
71.8421 292.00
71.9073 301.00
71.9725 339.00
72.0377 353.00
72.1029 332.00
72.1681 326.00
72.2333 261.00
72.2985 323.00
72.3637 298.00
72.4289 323.00
72.4941 353.00
72.5593 316.00
72.6245 328.00
72.6897 300.00
72.7549 343.00
72.8201 321.00
72.8853 339.00
72.9505 297.00
73.0157 332.00
73.0809 298.00
73.1461 287.00
73.2113 291.00
73.2765 322.00
73.3417 318.00
73.4069 340.00
73.4721 445.00
73.5373 436.00
73.6025 492.00
73.6677 479.00
73.7329 422.00
73.7981 417.00
73.8633 374.00
73.9285 414.00
73.9937 405.00
74.0589 435.00
74.1241 404.00
74.1893 408.00
74.2545 443.00
74.3197 462.00
74.3849 457.00
74.4501 429.00
74.5153 437.00
74.5805 395.00
74.6457 397.00
74.7109 346.00
74.7761 369.00
74.8413 390.00
74.9065 388.00
74.9717 475.00
75.0369 476.00
75.1021 462.00
75.1673 463.00
75.2325 401.00
75.2977 366.00
75.3629 337.00
75.4281 356.00
75.4933 293.00
75.5585 387.00
75.6237 368.00
75.6889 414.00
75.7541 489.00
75.8193 532.00
75.8845 594.00
75.9497 540.00
76.0149 607.00
76.0801 523.00
76.1452 485.00
76.2104 457.00
76.2756 457.00
76.3409 472.00
76.406 441.00
76.4712 401.00
76.5364 404.00
76.6016 395.00
76.6668 375.00
76.732 369.00
76.7972 329.00
76.8624 300.00
76.9276 323.00
76.9928 395.00
77.058 383.00
77.1232 392.00
77.1884 418.00
77.2536 417.00
77.3188 480.00
77.384 441.00
77.4492 429.00
77.5144 413.00
77.5796 434.00
77.6448 439.00
77.71 425.00
77.7752 423.00
77.8404 389.00
77.9056 416.00
77.9708 489.00
78.036 425.00
78.1012 448.00
78.1664 462.00
78.2316 446.00
78.2968 432.00
78.362 395.00
78.4272 365.00
78.4924 327.00
78.5576 340.00
78.6228 302.00
78.688 337.00
78.7532 307.00
78.8184 289.00
78.8836 270.00
78.9488 334.00
79.014 387.00
79.0792 361.00
79.1444 377.00
79.2096 375.00
79.2748 378.00
79.34 397.00
79.4052 375.00
79.4704 352.00
79.5356 379.00
79.6008 359.00
79.666 386.00
79.7312 425.00
79.7964 415.00
79.8616 393.00
79.9268 375.00
79.992 338.00
80.0572 348.00
80.1224 305.00
80.1876 310.00
80.2528 272.00
80.318 352.00
80.3832 328.00
80.4484 372.00
80.5136 337.00
80.5788 345.00
80.644 359.00
80.7092 322.00
80.7744 335.00
80.8396 345.00
80.9048 376.00
80.9699 366.00
81.0351 364.00
81.1003 366.00
81.1655 413.00
81.2307 432.00
81.2959 431.00
81.3611 485.00
81.4263 457.00
81.4915 486.00
81.5567 534.00
81.6219 471.00
81.6871 480.00
81.7523 515.00
81.8175 518.00
81.8827 439.00
81.9479 409.00
82.0131 405.00
82.0783 400.00
82.1435 391.00
82.2087 309.00
82.2739 320.00
82.3391 294.00
82.4043 335.00
82.4695 280.00
82.5347 334.00
82.5999 274.00
82.6651 282.00
82.7303 319.00
82.7955 327.00
82.8607 377.00
82.9259 390.00
82.9911 455.00
83.0563 628.00
83.1215 707.00
83.1867 685.00
83.2519 599.00
83.3171 613.00
83.3823 679.00
83.4475 582.00
83.5127 488.00
83.5779 496.00
83.6431 467.00
83.7083 383.00
83.7735 377.00
83.8387 375.00
83.9039 374.00
83.9691 321.00
84.0343 319.00
84.0995 264.00
84.1647 306.00
84.2299 318.00
84.2951 312.00
84.3603 273.00
84.4255 287.00
84.4907 325.00
84.5559 324.00
84.6211 334.00
84.6863 330.00
84.7515 356.00
84.8167 326.00
84.8819 398.00
84.9471 417.00
85.0123 513.00
85.0775 611.00
85.1427 715.00
85.2079 680.00
85.2731 655.00
85.3383 651.00
85.4035 584.00
85.4687 580.00
85.5339 495.00
85.5991 447.00
85.6643 449.00
85.7295 536.00
85.7946 547.00
85.8598 493.00
85.925 413.00
85.9903 422.00
86.0554 433.00
86.1206 396.00
86.1858 364.00
86.251 268.00
86.3162 333.00
86.3814 275.00
86.4466 291.00
86.5118 299.00
86.577 292.00
86.6422 324.00
86.7074 305.00
86.7726 307.00
86.8378 300.00
86.903 296.00
86.9682 331.00
87.0334 318.00
87.0986 327.00
87.1638 345.00
87.229 345.00
87.2942 337.00
87.3594 359.00
87.4246 373.00
87.4898 329.00
87.555 329.00
87.6202 318.00
87.6854 319.00
87.7506 272.00
87.8158 307.00
87.881 339.00
87.9462 353.00
88.0114 314.00
88.0766 264.00
88.1418 319.00
88.207 310.00
88.2722 341.00
88.3374 383.00
88.4026 393.00
88.4678 421.00
88.533 368.00
88.5982 368.00
88.6634 378.00
88.7286 399.00
88.7938 355.00
88.859 329.00
88.9242 313.00
88.9894 312.00
89.0546 322.00
89.1198 359.00
89.185 393.00
89.2502 392.00
89.3154 407.00
89.3806 412.00
89.4458 412.00
89.511 376.00
89.5762 385.00
89.6414 410.00
89.7066 402.00
89.7718 426.00
89.837 377.00
89.9022 355.00
89.9674 326.00
90.0326 339.00
90.0978 276.00
90.163 333.00
90.2282 307.00
90.2934 299.00
90.3586 267.00
90.4238 290.00
90.489 272.00
90.5542 277.00
90.6193 300.00
90.6845 335.00
90.7497 286.00
90.8149 307.00
90.8801 336.00
90.9453 393.00
91.0105 414.00
91.0757 443.00
91.1409 391.00
91.2061 343.00
91.2713 357.00
91.3365 376.00
91.4017 361.00
91.4669 324.00
91.5321 367.00
91.5973 377.00
91.6625 403.00
91.7277 402.00
91.7929 367.00
91.8581 400.00
91.9233 399.00
91.9885 392.00
92.0537 426.00
92.1189 453.00
92.1841 454.00
92.2493 428.00
92.3145 496.00
92.3797 469.00
92.4449 498.00
92.5101 456.00
92.5753 385.00
92.6405 344.00
92.7057 357.00
92.7709 339.00
92.8361 308.00
92.9013 278.00
92.9665 286.00
93.0317 295.00
93.0969 294.00
93.1621 279.00
93.2273 238.00
93.2925 247.00
93.3577 262.00
93.4229 244.00
93.4881 230.00
93.5533 266.00
93.6185 243.00
93.6837 250.00
93.7489 260.00
93.8141 245.00
93.8793 311.00
93.9445 258.00
94.0097 243.00
94.0749 280.00
94.1401 246.00
94.2053 319.00
94.2705 273.00
94.3357 280.00
94.4009 356.00
94.4661 394.00
94.5313 457.00
94.5965 418.00
94.6617 410.00
94.7269 407.00
94.7921 510.00
94.8573 467.00
94.9225 444.00
94.9877 403.00
95.0529 467.00
95.1181 468.00
95.1833 403.00
95.2485 376.00
95.3137 370.00
95.3789 387.00
95.444 387.00
95.5092 398.00
95.5744 358.00
95.6396 346.00
95.7048 383.00
95.77 388.00
95.8352 346.00
95.9004 387.00
95.9656 385.00
96.0308 443.00
96.096 506.00
96.1612 591.00
96.2264 698.00
96.2916 680.00
96.3568 653.00
96.422 726.00
96.4872 687.00
96.5524 618.00
96.6176 576.00
96.6828 619.00
96.748 588.00
96.8132 528.00
96.8784 433.00
96.9436 403.00
97.0088 358.00
97.074 325.00
97.1392 305.00
97.2044 321.00
97.2696 287.00
97.3348 284.00
97.4 305.00
97.4652 294.00
97.5304 285.00
97.5956 324.00
97.6608 361.00
97.726 391.00
97.7912 375.00
97.8564 389.00
97.9216 426.00
97.9868 413.00
98.052 425.00
98.1172 425.00
98.1824 379.00
98.2476 379.00
98.3128 365.00
98.378 369.00
98.4432 360.00
98.5084 307.00
98.5736 277.00
98.6388 278.00
98.704 311.00
98.7692 285.00
98.8344 330.00
98.8996 317.00
98.9648 320.00
99.03 341.00
99.0952 362.00
99.1604 354.00
99.2256 333.00
99.2908 333.00
99.356 365.00
99.4212 321.00
99.4864 362.00
99.5516 318.00
99.6168 309.00
99.682 314.00
99.7472 347.00
99.8124 332.00
99.8776 303.00
99.9428 314.00
100.008 310.00
100.073 320.00
100.095 327.00