File: data/xrd_creation/results/NSC_96.xy
9.903433 2631.00
9.968632 2522.00
10.0338 2528.00
10.099 2481.00
10.1642 2582.00
10.2294 2443.00
10.2946 2441.00
10.3598 2323.00
10.425 2347.00
10.4902 2455.00
10.5554 2338.00
10.6206 2279.00
10.6858 2325.00
10.751 2328.00
10.8162 2320.00
10.8814 2210.00
10.9466 2252.00
11.0118 2190.00
11.077 2214.00
11.1422 2155.00
11.2074 2071.00
11.2726 2119.00
11.3378 1971.00
11.403 2146.00
11.4682 2111.00
11.5334 2007.00
11.5986 2000.00
11.6638 1916.00
11.729 1976.00
11.7942 2019.00
11.8594 1959.00
11.9246 1972.00
11.9898 1867.00
12.055 1874.00
12.1202 1819.00
12.1854 1808.00
12.2506 1837.00
12.3158 1776.00
12.381 1810.00
12.4462 1763.00
12.5114 1803.00
12.5766 1732.00
12.6418 1748.00
12.707 1753.00
12.7722 1730.00
12.8374 1741.00
12.9026 1753.00
12.9678 1686.00
13.033 1705.00
13.0982 1565.00
13.1634 1625.00
13.2286 1620.00
13.2938 1663.00
13.359 1627.00
13.4242 1558.00
13.4894 1562.00
13.5546 1602.00
13.6198 1487.00
13.685 1507.00
13.7502 1527.00
13.8154 1484.00
13.8805 1526.00
13.9457 1537.00
14.0109 1455.00
14.0761 1516.00
14.1413 1482.00
14.2065 1442.00
14.2717 1508.00
14.3369 1444.00
14.4021 1484.00
14.4673 1387.00
14.5325 1354.00
14.5977 1411.00
14.6629 1346.00
14.7281 1361.00
14.7933 1401.00
14.8585 1352.00
14.9237 1342.00
14.9889 1346.00
15.0541 1378.00
15.1193 1347.00
15.1845 1313.00
15.2497 1321.00
15.3149 1308.00
15.3801 1289.00
15.4453 1356.00
15.5105 1340.00
15.5757 1308.00
15.6409 1252.00
15.7061 1266.00
15.7713 1279.00
15.8365 1290.00
15.9017 1292.00
15.9669 1294.00
16.0321 1269.00
16.0973 1292.00
16.1625 1171.00
16.2277 1225.00
16.2929 1167.00
16.3581 1211.00
16.4233 1246.00
16.4885 1204.00
16.5537 1206.00
16.6189 1174.00
16.6841 1187.00
16.7493 1205.00
16.8145 1177.00
16.8797 1191.00
16.9449 1186.00
17.0101 1170.00
17.0753 1187.00
17.1405 1131.00
17.2057 1107.00
17.2709 1160.00
17.3361 1118.00
17.4013 1121.00
17.4665 1128.00
17.5317 1164.00
17.5969 1126.00
17.6621 1097.00
17.7273 1099.00
17.7925 1103.00
17.8577 1081.00
17.9229 1102.00
17.9881 1034.00
18.0533 1105.00
18.1185 1049.00
18.1837 1048.00
18.2489 1044.00
18.3141 988.00
18.3793 1065.00
18.4445 1057.00
18.5097 976.00
18.5749 1007.00
18.6401 1026.00
18.7052 1034.00
18.7704 931.00
18.8356 1005.00
18.9008 1064.00
18.966 935.00
19.0312 931.00
19.0964 1028.00
19.1616 986.00
19.2268 1019.00
19.292 994.00
19.3572 941.00
19.4224 1037.00
19.4876 990.00
19.5528 987.00
19.618 990.00
19.6832 1052.00
19.7484 1051.00
19.8136 941.00
19.8788 956.00
19.944 894.00
20.0092 900.00
20.0744 919.00
20.1396 927.00
20.2048 923.00
20.27 868.00
20.3352 924.00
20.4004 929.00
20.4656 897.00
20.5308 986.00
20.596 926.00
20.6612 1028.00
20.7264 1028.00
20.7916 917.00
20.8568 845.00
20.922 846.00
20.9872 923.00
21.0524 865.00
21.1176 859.00
21.1828 865.00
21.248 841.00
21.3132 805.00
21.3784 849.00
21.4436 819.00
21.5088 848.00
21.574 841.00
21.6392 879.00
21.7044 799.00
21.7696 834.00
21.8348 797.00
21.9 811.00
21.9652 784.00
22.0304 774.00
22.0956 816.00
22.1608 792.00
22.226 779.00
22.2912 819.00
22.3564 811.00
22.4216 773.00
22.4868 772.00
22.552 745.00
22.6172 810.00
22.6824 757.00
22.7476 786.00
22.8128 759.00
22.878 801.00
22.9432 771.00
23.0084 748.00
23.0736 761.00
23.1388 748.00
23.204 731.00
23.2692 767.00
23.3344 701.00
23.3996 754.00
23.4647 773.00
23.5299 752.00
23.5951 792.00
23.6603 797.00
23.7255 722.00
23.7907 790.00
23.8559 778.00
23.9211 791.00
23.9863 764.00
24.0515 700.00
24.1167 708.00
24.1819 677.00
24.2471 752.00
24.3123 656.00
24.3775 687.00
24.4427 731.00
24.5079 725.00
24.5731 680.00
24.6383 665.00
24.7035 670.00
24.7687 730.00
24.8339 729.00
24.8991 698.00
24.9643 712.00
25.0295 652.00
25.0947 699.00
25.1599 671.00
25.2251 647.00
25.2903 673.00
25.3555 679.00
25.4207 626.00
25.4859 596.00
25.5511 646.00
25.6163 633.00
25.6815 655.00
25.7467 633.00
25.8119 642.00
25.8771 668.00
25.9423 646.00
26.0075 635.00
26.0727 635.00
26.1379 651.00
26.2031 627.00
26.2683 663.00
26.3335 680.00
26.3987 710.00
26.4639 718.00
26.5291 665.00
26.5943 623.00
26.6595 609.00
26.7247 612.00
26.7899 648.00
26.8551 668.00
26.9203 626.00
26.9855 657.00
27.0507 625.00
27.1159 601.00
27.1811 545.00
27.2463 636.00
27.3115 623.00
27.3767 616.00
27.4419 593.00
27.5071 606.00
27.5723 607.00
27.6375 626.00
27.7027 602.00
27.7679 622.00
27.8331 567.00
27.8983 584.00
27.9635 581.00
28.0287 618.00
28.0939 613.00
28.1591 618.00
28.2243 562.00
28.2894 591.00
28.3546 569.00
28.4198 624.00
28.485 576.00
28.5502 543.00
28.6154 601.00
28.6806 604.00
28.7458 633.00
28.811 584.00
28.8762 595.00
28.9414 574.00
29.0066 631.00
29.0718 523.00
29.137 588.00
29.2022 557.00
29.2674 549.00
29.3326 609.00
29.3978 560.00
29.463 539.00
29.5282 550.00
29.5934 542.00
29.6586 540.00
29.7238 583.00
29.789 496.00
29.8542 559.00
29.9194 551.00
29.9846 541.00
30.0498 589.00
30.115 530.00
30.1802 513.00
30.2454 567.00
30.3106 545.00
30.3758 523.00
30.441 516.00
30.5062 532.00
30.5714 523.00
30.6366 499.00
30.7018 517.00
30.767 489.00
30.8322 464.00
30.8974 483.00
30.9626 490.00
31.0278 499.00
31.093 512.00
31.1582 531.00
31.2234 551.00
31.2886 529.00
31.3538 503.00
31.419 477.00
31.4842 560.00
31.5494 506.00
31.6146 568.00
31.6798 570.00
31.745 538.00
31.8102 495.00
31.8754 494.00
31.9406 495.00
32.0058 485.00
32.071 509.00
32.1362 486.00
32.2014 485.00
32.2666 449.00
32.3318 481.00
32.397 471.00
32.4622 465.00
32.5274 471.00
32.5926 481.00
32.6578 499.00
32.723 443.00
32.7882 465.00
32.8534 481.00
32.9186 478.00
32.9838 482.00
33.0489 484.00
33.1141 413.00
33.1793 496.00
33.2445 472.00
33.3097 455.00
33.3749 471.00
33.4401 438.00
33.5053 421.00
33.5705 486.00
33.6357 456.00
33.7009 495.00
33.7661 527.00
33.8313 488.00
33.8965 480.00
33.9617 434.00
34.0269 470.00
34.0921 409.00
34.1573 421.00
34.2225 424.00
34.2877 453.00
34.3529 440.00
34.4181 436.00
34.4833 394.00
34.5485 412.00
34.6137 422.00
34.6789 447.00
34.7441 383.00
34.8093 397.00
34.8745 433.00
34.9397 416.00
35.0049 417.00
35.0701 438.00
35.1353 408.00
35.2005 456.00
35.2657 421.00
35.3309 370.00
35.3961 414.00
35.4613 422.00
35.5265 417.00
35.5917 380.00
35.6569 415.00
35.7221 408.00
35.7873 411.00
35.8525 398.00
35.9177 401.00
35.9829 405.00
36.0481 397.00
36.1133 408.00
36.1785 365.00
36.2437 416.00
36.3089 417.00
36.3741 448.00
36.4393 428.00
36.5045 402.00
36.5697 400.00
36.6349 372.00
36.7001 401.00
36.7653 363.00
36.8305 395.00
36.8957 413.00
36.9609 410.00
37.0261 379.00
37.0913 377.00
37.1565 410.00
37.2217 367.00
37.2869 373.00
37.3521 381.00
37.4173 373.00
37.4825 360.00
37.5477 384.00
37.6129 361.00
37.6781 360.00
37.7433 382.00
37.8085 401.00
37.8736 416.00
37.9388 418.00
38.004 350.00
38.0692 377.00
38.1344 359.00
38.1996 355.00
38.2648 346.00
38.33 379.00
38.3952 328.00
38.4604 335.00
38.5256 393.00
38.5908 343.00
38.656 342.00
38.7212 335.00
38.7864 336.00
38.8516 349.00
38.9168 332.00
38.982 348.00
39.0472 310.00
39.1124 382.00
39.1776 331.00
39.2428 309.00
39.308 332.00
39.3732 325.00
39.4384 343.00
39.5036 341.00
39.5688 329.00
39.634 353.00
39.6992 338.00
39.7644 351.00
39.8296 337.00
39.8948 308.00
39.96 322.00
40.0252 338.00
40.0904 336.00
40.1556 297.00
40.2208 320.00
40.286 330.00
40.3512 344.00
40.4164 312.00
40.4816 333.00
40.5468 351.00
40.612 306.00
40.6772 363.00
40.7424 343.00
40.8076 317.00
40.8728 316.00
40.938 305.00
41.0032 311.00
41.0684 285.00
41.1336 298.00
41.1988 305.00
41.264 306.00
41.3292 319.00
41.3944 310.00
41.4596 319.00
41.5248 315.00
41.59 313.00
41.6552 262.00
41.7204 310.00
41.7856 321.00
41.8508 275.00
41.916 304.00
41.9812 300.00
42.0464 326.00
42.1116 310.00
42.1768 289.00
42.242 312.00
42.3072 308.00
42.3724 310.00
42.4376 348.00
42.5028 270.00
42.568 295.00
42.6332 306.00
42.6983 286.00
42.7635 334.00
42.8287 301.00
42.8939 311.00
42.9591 321.00
43.0243 317.00
43.0895 289.00
43.1547 295.00
43.2199 266.00
43.2851 304.00
43.3503 361.00
43.4155 280.00
43.4807 305.00
43.5459 308.00
43.6111 286.00
43.6763 322.00
43.7415 282.00
43.8067 272.00
43.8719 304.00
43.9371 303.00
44.0023 271.00
44.0675 292.00
44.1327 277.00
44.1979 288.00
44.2631 277.00
44.3283 256.00
44.3935 312.00
44.4587 286.00
44.5239 305.00
44.5891 269.00
44.6543 309.00
44.7195 289.00
44.7847 314.00
44.8499 278.00
44.9151 288.00
44.9803 288.00
45.0455 260.00
45.1107 256.00
45.1759 298.00
45.2411 268.00
45.3063 259.00
45.3715 235.00
45.4367 267.00
45.5019 280.00
45.5671 278.00
45.6323 278.00
45.6975 275.00
45.7627 303.00
45.8279 284.00
45.8931 242.00
45.9583 268.00
46.0235 313.00
46.0887 286.00
46.1539 259.00
46.2191 278.00
46.2843 248.00
46.3495 280.00
46.4147 283.00
46.4799 280.00
46.5451 284.00
46.6103 302.00
46.6755 278.00
46.7407 275.00
46.8059 219.00
46.8711 246.00
46.9363 276.00
47.0015 285.00
47.0667 236.00
47.1319 280.00
47.1971 274.00
47.2623 284.00
47.3275 289.00
47.3927 262.00
47.4579 260.00
47.523 229.00
47.5882 264.00
47.6534 270.00
47.7186 228.00
47.7838 273.00
47.849 248.00
47.9142 268.00
47.9794 273.00
48.0446 261.00
48.1098 284.00
48.175 276.00
48.2402 278.00
48.3054 236.00
48.3706 283.00
48.4358 268.00
48.501 284.00
48.5662 237.00
48.6314 239.00
48.6966 259.00
48.7618 275.00
48.827 287.00
48.8922 264.00
48.9574 248.00
49.0226 268.00
49.0878 281.00
49.153 245.00
49.2182 285.00
49.2834 239.00
49.3486 204.00
49.4138 281.00
49.479 235.00
49.5442 248.00
49.6094 281.00
49.6746 273.00
49.7398 246.00
49.805 207.00
49.8702 276.00
49.9354 258.00
50.0006 268.00
50.0658 249.00
50.131 272.00
50.1962 237.00
50.2614 271.00
50.3266 227.00
50.3918 262.00
50.457 242.00
50.5222 246.00
50.5874 224.00
50.6526 258.00
50.7178 265.00
50.783 262.00
50.8482 248.00
50.9134 257.00
50.9786 250.00
51.0438 236.00
51.109 243.00
51.1742 265.00
51.2394 267.00
51.3046 260.00
51.3698 243.00
51.435 223.00
51.5002 240.00
51.5654 237.00
51.6306 256.00
51.6958 247.00
51.761 288.00
51.8262 232.00
51.8914 245.00
51.9566 276.00
52.0218 248.00
52.087 266.00
52.1522 278.00
52.2174 243.00
52.2826 256.00
52.3477 274.00
52.4129 224.00
52.4781 236.00
52.5433 229.00
52.6085 234.00
52.6737 279.00
52.7389 269.00
52.8041 205.00
52.8693 245.00
52.9345 237.00
52.9997 228.00
53.0649 230.00
53.1301 236.00
53.1953 244.00
53.2605 219.00
53.3257 226.00
53.3909 278.00
53.4561 220.00
53.5213 236.00
53.5865 234.00
53.6517 220.00
53.7169 260.00
53.7821 245.00
53.8473 243.00
53.9125 246.00
53.9777 275.00
54.0429 202.00
54.1081 246.00
54.1733 233.00
54.2385 239.00
54.3037 218.00
54.3689 217.00
54.4341 219.00
54.4993 229.00
54.5645 212.00
54.6297 220.00
54.6949 234.00
54.7601 233.00
54.8253 234.00
54.8905 205.00
54.9557 241.00
55.0209 231.00
55.0861 221.00
55.1513 204.00
55.2165 206.00
55.2817 226.00
55.3469 229.00
55.4121 233.00
55.4773 214.00
55.5425 234.00
55.6077 222.00
55.6729 229.00
55.7381 204.00
55.8033 233.00
55.8685 191.00
55.9337 229.00
55.9989 226.00
56.0641 190.00
56.1293 189.00
56.1945 237.00
56.2597 216.00
56.3249 231.00
56.3901 197.00
56.4553 209.00
56.5205 228.00
56.5857 239.00
56.6509 213.00
56.7161 231.00
56.7813 217.00
56.8465 205.00
56.9117 213.00
56.9769 216.00
57.042 208.00
57.1073 199.00
57.1724 200.00
57.2376 223.00
57.3028 196.00
57.368 208.00
57.4332 189.00
57.4984 178.00
57.5636 199.00
57.6288 213.00
57.694 225.00
57.7592 225.00
57.8244 213.00
57.8896 205.00
57.9548 217.00
58.02 202.00
58.0852 204.00
58.1504 209.00
58.2156 177.00
58.2808 183.00
58.346 202.00
58.4112 209.00
58.4764 212.00
58.5416 186.00
58.6068 200.00
58.672 212.00
58.7372 212.00
58.8024 219.00
58.8676 210.00
58.9328 184.00
58.998 194.00
59.0632 205.00
59.1284 188.00
59.1936 213.00
59.2588 193.00
59.324 223.00
59.3892 193.00
59.4544 204.00
59.5196 181.00
59.5848 208.00
59.65 198.00
59.7152 196.00
59.7804 216.00
59.8456 186.00
59.9108 183.00
59.976 210.00
60.0412 178.00
60.1064 199.00
60.1716 206.00
60.2368 181.00
60.302 173.00
60.3672 186.00
60.4324 183.00
60.4976 206.00
60.5628 196.00
60.628 207.00
60.6932 153.00
60.7584 173.00
60.8236 208.00
60.8888 172.00
60.954 177.00
61.0192 187.00
61.0844 172.00
61.1496 213.00
61.2148 208.00
61.28 181.00
61.3452 204.00
61.4104 217.00
61.4756 195.00
61.5408 184.00
61.606 183.00
61.6712 210.00
61.7364 207.00
61.8016 186.00
61.8667 180.00
61.932 183.00
61.9971 189.00
62.0623 184.00
62.1275 177.00
62.1927 197.00
62.2579 159.00
62.3231 187.00
62.3883 176.00
62.4535 165.00
62.5187 207.00
62.5839 183.00
62.6491 188.00
62.7143 185.00
62.7795 164.00
62.8447 206.00
62.9099 218.00
62.9751 205.00
63.0403 177.00
63.1055 215.00
63.1707 199.00
63.2359 183.00
63.3011 164.00
63.3663 182.00
63.4315 212.00
63.4967 186.00
63.5619 178.00
63.6271 152.00
63.6923 197.00
63.7575 161.00
63.8227 201.00
63.8879 172.00
63.9531 198.00
64.0183 197.00
64.0835 170.00
64.1487 189.00
64.2139 180.00
64.2791 198.00
64.3443 177.00
64.4095 181.00
64.4747 191.00
64.5399 154.00
64.6051 186.00
64.6703 187.00
64.7355 184.00
64.8007 185.00
64.8659 186.00
64.9311 187.00
64.9963 196.00
65.0615 184.00
65.1267 184.00
65.1919 176.00
65.2571 160.00
65.3223 192.00
65.3875 178.00
65.4527 189.00
65.5179 182.00
65.5831 196.00
65.6483 180.00
65.7135 177.00
65.7787 185.00
65.8439 184.00
65.9091 190.00
65.9743 178.00
66.0395 157.00
66.1047 194.00
66.1699 182.00
66.2351 196.00
66.3003 193.00
66.3655 177.00
66.4307 197.00
66.4959 169.00
66.561 148.00
66.6263 207.00
66.6915 150.00
66.7566 179.00
66.8218 176.00
66.887 205.00
66.9522 170.00
67.0174 182.00
67.0826 181.00
67.1478 178.00
67.213 176.00
67.2782 180.00
67.3434 193.00
67.4086 135.00
67.4738 184.00
67.539 179.00
67.6042 174.00
67.6694 174.00
67.7346 168.00
67.7998 195.00
67.865 169.00
67.9302 198.00
67.9954 170.00
68.0606 174.00
68.1258 197.00
68.191 208.00
68.2562 167.00
68.3214 177.00
68.3866 153.00
68.4518 182.00
68.517 174.00
68.5822 182.00
68.6474 177.00
68.7126 165.00
68.7778 190.00
68.843 191.00
68.9082 189.00
68.9734 192.00
69.0386 173.00
69.1038 199.00
69.169 161.00
69.2342 206.00
69.2994 188.00
69.3646 181.00
69.4298 188.00
69.495 173.00
69.5602 173.00
69.6254 184.00
69.6906 193.00
69.7558 207.00
69.821 158.00
69.8862 198.00
69.9514 172.00
70.0166 181.00
70.0818 165.00
70.147 153.00
70.2122 203.00
70.2774 165.00
70.3426 196.00
70.4078 191.00
70.473 193.00
70.5382 174.00
70.6034 202.00
70.6686 180.00
70.7338 159.00
70.799 185.00
70.8642 183.00
70.9294 170.00
70.9946 212.00
71.0598 166.00
71.125 200.00
71.1902 182.00
71.2554 202.00
71.3205 196.00
71.3858 213.00
71.451 173.00
71.5162 158.00
71.5813 173.00
71.6465 187.00
71.7117 194.00
71.7769 168.00
71.8421 178.00
71.9073 174.00
71.9725 176.00
72.0377 171.00
72.1029 175.00
72.1681 175.00
72.2333 188.00
72.2985 187.00
72.3637 152.00
72.4289 188.00
72.4941 200.00
72.5593 186.00
72.6245 202.00
72.6897 219.00
72.7549 170.00
72.8201 182.00
72.8853 182.00
72.9505 188.00
73.0157 200.00
73.0809 169.00
73.1461 179.00
73.2113 185.00
73.2765 156.00
73.3417 190.00
73.4069 185.00
73.4721 182.00
73.5373 185.00
73.6025 191.00
73.6677 174.00
73.7329 199.00
73.7981 202.00
73.8633 192.00
73.9285 197.00
73.9937 204.00
74.0589 173.00
74.1241 198.00
74.1893 183.00
74.2545 201.00
74.3197 221.00
74.3849 200.00
74.4501 214.00
74.5153 203.00
74.5805 215.00
74.6457 179.00
74.7109 183.00
74.7761 194.00
74.8413 184.00
74.9065 181.00
74.9717 189.00
75.0369 187.00
75.1021 207.00
75.1673 199.00
75.2325 167.00
75.2977 171.00
75.3629 188.00
75.4281 183.00
75.4933 218.00
75.5585 225.00
75.6237 193.00
75.6889 190.00
75.7541 222.00
75.8193 204.00
75.8845 167.00
75.9497 175.00
76.0149 180.00
76.0801 212.00
76.1452 186.00
76.2104 187.00
76.2756 197.00
76.3409 177.00
76.406 200.00
76.4712 210.00
76.5364 193.00
76.6016 168.00
76.6668 199.00
76.732 208.00
76.7972 188.00
76.8624 216.00
76.9276 174.00
76.9928 224.00
77.058 213.00
77.1232 200.00
77.1884 209.00
77.2536 213.00
77.3188 203.00
77.384 181.00
77.4492 176.00
77.5144 202.00
77.5796 179.00
77.6448 216.00
77.71 208.00
77.7752 197.00
77.8404 226.00
77.9056 191.00
77.9708 214.00
78.036 177.00
78.1012 191.00
78.1664 195.00
78.2316 190.00
78.2968 191.00
78.362 200.00
78.4272 199.00
78.4924 201.00
78.5576 209.00
78.6228 211.00
78.688 194.00
78.7532 219.00
78.8184 212.00
78.8836 211.00
78.9488 194.00
79.014 210.00
79.0792 244.00
79.1444 203.00
79.2096 216.00
79.2748 197.00
79.34 221.00
79.4052 232.00
79.4704 182.00
79.5356 227.00
79.6008 207.00
79.666 208.00
79.7312 238.00
79.7964 187.00
79.8616 204.00
79.9268 210.00
79.992 190.00
80.0572 231.00
80.1224 231.00
80.1876 199.00
80.2528 229.00
80.318 205.00
80.3832 243.00
80.4484 202.00
80.5136 232.00
80.5788 197.00
80.644 201.00
80.7092 195.00
80.7744 218.00
80.8396 230.00
80.9048 217.00
80.9699 213.00
81.0351 203.00
81.1003 231.00
81.1655 216.00
81.2307 231.00
81.2959 215.00
81.3611 215.00
81.4263 220.00
81.4915 234.00
81.5567 201.00
81.6219 210.00
81.6871 185.00
81.7523 210.00
81.8175 227.00
81.8827 208.00
81.9479 245.00
82.0131 229.00
82.0783 210.00
82.1435 191.00
82.2087 215.00
82.2739 235.00
82.3391 214.00
82.4043 216.00
82.4695 228.00
82.5347 206.00
82.5999 222.00
82.6651 223.00
82.7303 220.00
82.7955 210.00
82.8607 239.00
82.9259 213.00
82.9911 203.00
83.0563 230.00
83.1215 256.00
83.1867 176.00
83.2519 201.00
83.3171 187.00
83.3823 225.00
83.4475 199.00
83.5127 229.00
83.5779 225.00
83.6431 227.00
83.7083 236.00
83.7735 197.00
83.8387 238.00
83.9039 223.00
83.9691 236.00
84.0343 222.00
84.0995 223.00
84.1647 200.00
84.2299 208.00
84.2951 225.00
84.3603 173.00
84.4255 210.00
84.4907 225.00
84.5559 204.00
84.6211 219.00
84.6863 195.00
84.7515 221.00
84.8167 217.00
84.8819 202.00
84.9471 190.00
85.0123 182.00
85.0775 202.00
85.1427 184.00
85.2079 210.00
85.2731 212.00
85.3383 213.00
85.4035 224.00
85.4687 205.00
85.5339 206.00
85.5991 232.00
85.6643 211.00
85.7295 193.00
85.7946 215.00
85.8598 204.00
85.925 218.00
85.9903 204.00
86.0554 223.00
86.1206 197.00
86.1858 194.00
86.251 210.00
86.3162 183.00
86.3814 173.00
86.4466 209.00
86.5118 196.00
86.577 195.00
86.6422 198.00
86.7074 187.00
86.7726 194.00
86.8378 203.00
86.903 199.00
86.9682 197.00
87.0334 197.00
87.0986 170.00
87.1638 166.00
87.229 201.00
87.2942 205.00
87.3594 208.00
87.4246 180.00
87.4898 197.00
87.555 169.00
87.6202 191.00
87.6854 199.00
87.7506 194.00
87.8158 201.00
87.881 186.00
87.9462 206.00
88.0114 178.00
88.0766 203.00
88.1418 185.00
88.207 220.00
88.2722 176.00
88.3374 192.00
88.4026 161.00
88.4678 187.00
88.533 184.00
88.5982 202.00
88.6634 183.00
88.7286 178.00
88.7938 190.00
88.859 178.00
88.9242 172.00
88.9894 182.00
89.0546 178.00
89.1198 193.00
89.185 188.00
89.2502 161.00
89.3154 178.00
89.3806 188.00
89.4458 192.00
89.511 200.00
89.5762 174.00
89.6414 202.00
89.7066 161.00
89.7718 186.00
89.837 207.00
89.9022 149.00
89.9674 188.00
90.0326 190.00
90.0978 197.00
90.163 185.00
90.2282 180.00
90.2934 183.00
90.3586 165.00
90.4238 199.00
90.489 184.00
90.5542 188.00
90.6193 187.00
90.6845 158.00
90.7497 179.00
90.8149 170.00
90.8801 162.00
90.9453 199.00
91.0105 155.00
91.0757 172.00
91.1409 182.00
91.2061 202.00
91.2713 190.00
91.3365 168.00
91.4017 189.00
91.4669 183.00
91.5321 168.00
91.5973 181.00
91.6625 191.00
91.7277 193.00
91.7929 179.00
91.8581 166.00
91.9233 188.00
91.9885 178.00
92.0537 175.00
92.1189 162.00
92.1841 176.00
92.2493 167.00
92.3145 156.00
92.3797 171.00
92.4449 184.00
92.5101 185.00
92.5753 189.00
92.6405 168.00
92.7057 166.00
92.7709 173.00
92.8361 188.00
92.9013 192.00
92.9665 182.00
93.0317 190.00
93.0969 148.00
93.1621 204.00
93.2273 167.00
93.2925 158.00
93.3577 170.00
93.4229 190.00
93.4881 201.00
93.5533 163.00
93.6185 175.00
93.6837 170.00
93.7489 178.00
93.8141 174.00
93.8793 163.00
93.9445 174.00
94.0097 182.00
94.0749 196.00
94.1401 170.00
94.2053 158.00
94.2705 198.00
94.3357 176.00
94.4009 180.00
94.4661 182.00
94.5313 175.00
94.5965 183.00
94.6617 200.00
94.7269 215.00
94.7921 199.00
94.8573 185.00
94.9225 191.00
94.9877 163.00
95.0529 150.00
95.1181 171.00
95.1833 172.00
95.2485 189.00
95.3137 197.00
95.3789 181.00
95.444 204.00
95.5092 173.00
95.5744 167.00
95.6396 165.00
95.7048 196.00
95.77 191.00
95.8352 181.00
95.9004 185.00
95.9656 174.00
96.0308 189.00
96.096 166.00
96.1612 171.00
96.2264 166.00
96.2916 158.00
96.3568 175.00
96.422 179.00
96.4872 214.00
96.5524 174.00
96.6176 202.00
96.6828 163.00
96.748 181.00
96.8132 167.00
96.8784 165.00
96.9436 152.00
97.0088 186.00
97.074 179.00
97.1392 178.00
97.2044 163.00
97.2696 163.00
97.3348 180.00
97.4 176.00
97.4652 173.00
97.5304 174.00
97.5956 157.00
97.6608 165.00
97.726 167.00
97.7912 179.00
97.8564 180.00
97.9216 178.00
97.9868 169.00
98.052 186.00
98.1172 184.00
98.1824 174.00
98.2476 168.00
98.3128 173.00
98.378 175.00
98.4432 178.00
98.5084 187.00
98.5736 162.00
98.6388 158.00
98.704 173.00
98.7692 183.00
98.8344 183.00
98.8996 177.00
98.9648 167.00
99.03 170.00
99.0952 158.00
99.1604 181.00
99.2256 179.00
99.2908 186.00
99.356 175.00
99.4212 182.00
99.4864 181.00
99.5516 180.00
99.6168 186.00
99.682 159.00
99.7472 186.00
99.8124 172.00
99.8776 163.00
99.9428 158.00
100.008 172.00
100.073 186.00
100.095 149.00