File: data/xrd_creation/results/NSC_27.xy
9.903433 2630.00
9.968632 2608.00
10.0338 2755.00
10.099 2691.00
10.1642 2679.00
10.2294 2676.00
10.2946 2578.00
10.3598 2688.00
10.425 2671.00
10.4902 2679.00
10.5554 2561.00
10.6206 2469.00
10.6858 2521.00
10.751 2508.00
10.8162 2439.00
10.8814 2334.00
10.9466 2474.00
11.0118 2388.00
11.077 2484.00
11.1422 2388.00
11.2074 2447.00
11.2726 2419.00
11.3378 2304.00
11.403 2381.00
11.4682 2363.00
11.5334 2344.00
11.5986 2359.00
11.6638 2252.00
11.729 2283.00
11.7942 2284.00
11.8594 2204.00
11.9246 2208.00
11.9898 2194.00
12.055 2194.00
12.1202 2209.00
12.1854 2064.00
12.2506 2149.00
12.3158 2227.00
12.381 2077.00
12.4462 2141.00
12.5114 2088.00
12.5766 2061.00
12.6418 2112.00
12.707 2046.00
12.7722 1984.00
12.8374 2067.00
12.9026 1945.00
12.9678 2059.00
13.033 1989.00
13.0982 2070.00
13.1634 2055.00
13.2286 2064.00
13.2938 1906.00
13.359 1983.00
13.4242 1955.00
13.4894 2000.00
13.5546 1972.00
13.6198 1890.00
13.685 1937.00
13.7502 2085.00
13.8154 1950.00
13.8805 2048.00
13.9457 2110.00
14.0109 2184.00
14.0761 2368.00
14.1413 2548.00
14.2065 3183.00
14.2717 3879.00
14.3369 4176.00
14.4021 2992.00
14.4673 2250.00
14.5325 1971.00
14.5977 1911.00
14.6629 1796.00
14.7281 1925.00
14.7933 1908.00
14.8585 1961.00
14.9237 1953.00
14.9889 2017.00
15.0541 2068.00
15.1193 2159.00
15.1845 2324.00
15.2497 2721.00
15.3149 2813.00
15.3801 2520.00
15.4453 2109.00
15.5105 1829.00
15.5757 1877.00
15.6409 1844.00
15.7061 1805.00
15.7713 1800.00
15.8365 1737.00
15.9017 1840.00
15.9669 1792.00
16.0321 1846.00
16.0973 1753.00
16.1625 1790.00
16.2277 1758.00
16.2929 1710.00
16.3581 1810.00
16.4233 1764.00
16.4885 1754.00
16.5537 1730.00
16.6189 1770.00
16.6841 1738.00
16.7493 1795.00
16.8145 1749.00
16.8797 1693.00
16.9449 1789.00
17.0101 1726.00
17.0753 1710.00
17.1405 1662.00
17.2057 1705.00
17.2709 1764.00
17.3361 1687.00
17.4013 1654.00
17.4665 1710.00
17.5317 1651.00
17.5969 1728.00
17.6621 1675.00
17.7273 1672.00
17.7925 1736.00
17.8577 1680.00
17.9229 1674.00
17.9881 1686.00
18.0533 1632.00
18.1185 1608.00
18.1837 1651.00
18.2489 1559.00
18.3141 1612.00
18.3793 1632.00
18.4445 1602.00
18.5097 1594.00
18.5749 1631.00
18.6401 1564.00
18.7052 1652.00
18.7704 1620.00
18.8356 1586.00
18.9008 1569.00
18.966 1671.00
19.0312 1652.00
19.0964 1616.00
19.1616 1688.00
19.2268 1686.00
19.292 1792.00
19.3572 1867.00
19.4224 2079.00
19.4876 2460.00
19.5528 2896.00
19.618 4203.00
19.6832 6288.00
19.7484 8608.00
19.8136 8904.00
19.8788 5535.00
19.944 3128.00
20.0092 2339.00
20.0744 2048.00
20.1396 2188.00
20.2048 2400.00
20.27 2919.00
20.3352 3902.00
20.4004 6133.00
20.4656 9004.00
20.5308 11290.00
20.596 9454.00
20.6612 5638.00
20.7264 3682.00
20.7916 3115.00
20.8568 3309.00
20.922 3993.00
20.9872 4628.00
21.0524 4299.00
21.1176 3074.00
21.1828 2113.00
21.248 1774.00
21.3132 1769.00
21.3784 1649.00
21.4436 1715.00
21.5088 1655.00
21.574 1653.00
21.6392 1708.00
21.7044 1686.00
21.7696 1805.00
21.8348 1883.00
21.9 2271.00
21.9652 2766.00
22.0304 3651.00
22.0956 4555.00
22.1608 4858.00
22.226 3907.00
22.2912 2423.00
22.3564 1891.00
22.4216 1653.00
22.4868 1579.00
22.552 1526.00
22.6172 1592.00
22.6824 1562.00
22.7476 1503.00
22.8128 1549.00
22.878 1531.00
22.9432 1591.00
23.0084 1593.00
23.0736 1622.00
23.1388 1597.00
23.204 1730.00
23.2692 1798.00
23.3344 1924.00
23.3996 2132.00
23.4647 2779.00
23.5299 4200.00
23.5951 6807.00
23.6603 10472.00
23.7255 11880.00
23.7907 8744.00
23.8559 4816.00
23.9211 2941.00
23.9863 2117.00
24.0515 1791.00
24.1167 1638.00
24.1819 1665.00
24.2471 1495.00
24.3123 1578.00
24.3775 1545.00
24.4427 1584.00
24.5079 1544.00
24.5731 1548.00
24.6383 1661.00
24.7035 1509.00
24.7687 1580.00
24.8339 1554.00
24.8991 1622.00
24.9643 1612.00
25.0295 1746.00
25.0947 1807.00
25.1599 2103.00
25.2251 2509.00
25.2903 3503.00
25.3555 4833.00
25.4207 5771.00
25.4859 5109.00
25.5511 3591.00
25.6163 2253.00
25.6815 1757.00
25.7467 1659.00
25.8119 1568.00
25.8771 1617.00
25.9423 1664.00
26.0075 1847.00
26.0727 2249.00
26.1379 2826.00
26.2031 3340.00
26.2683 3561.00
26.3335 2635.00
26.3987 1922.00
26.4639 1664.00
26.5291 1515.00
26.5943 1410.00
26.6595 1492.00
26.7247 1484.00
26.7899 1452.00
26.8551 1374.00
26.9203 1380.00
26.9855 1368.00
27.0507 1418.00
27.1159 1324.00
27.1811 1349.00
27.2463 1366.00
27.3115 1354.00
27.3767 1334.00
27.4419 1358.00
27.5071 1304.00
27.5723 1326.00
27.6375 1469.00
27.7027 1330.00
27.7679 1377.00
27.8331 1408.00
27.8983 1361.00
27.9635 1412.00
28.0287 1454.00
28.0939 1508.00
28.1591 1590.00
28.2243 1829.00
28.2894 2350.00
28.3546 3157.00
28.4198 5065.00
28.485 7052.00
28.5502 7553.00
28.6154 5463.00
28.6806 3407.00
28.7458 2369.00
28.811 1842.00
28.8762 1581.00
28.9414 1494.00
29.0066 1440.00
29.0718 1368.00
29.137 1361.00
29.2022 1354.00
29.2674 1304.00
29.3326 1305.00
29.3978 1286.00
29.463 1303.00
29.5282 1259.00
29.5934 1329.00
29.6586 1266.00
29.7238 1245.00
29.789 1330.00
29.8542 1220.00
29.9194 1304.00
29.9846 1314.00
30.0498 1291.00
30.115 1342.00
30.1802 1427.00
30.2454 1439.00
30.3106 1618.00
30.3758 1980.00
30.441 2576.00
30.5062 3146.00
30.5714 3678.00
30.6366 3412.00
30.7018 2594.00
30.767 1889.00
30.8322 1610.00
30.8974 1549.00
30.9626 1580.00
31.0278 1558.00
31.093 1712.00
31.1582 1970.00
31.2234 2865.00
31.2886 4569.00
31.3538 7362.00
31.419 10316.00
31.4842 10590.00
31.5494 7974.00
31.6146 5749.00
31.6798 4453.00
31.745 3393.00
31.8102 2601.00
31.8754 2044.00
31.9406 1623.00
32.0058 1499.00
32.071 1396.00
32.1362 1316.00
32.2014 1353.00
32.2666 1368.00
32.3318 1203.00
32.397 1271.00
32.4622 1259.00
32.5274 1311.00
32.5926 1282.00
32.6578 1292.00
32.723 1251.00
32.7882 1300.00
32.8534 1237.00
32.9186 1318.00
32.9838 1392.00
33.0489 1381.00
33.1141 1392.00
33.1793 1492.00
33.2445 1793.00
33.3097 2272.00
33.3749 3046.00
33.4401 4230.00
33.5053 4923.00
33.5705 4540.00
33.6357 3435.00
33.7009 2302.00
33.7661 1839.00
33.8313 1731.00
33.8965 1690.00
33.9617 1726.00
34.0269 1704.00
34.0921 1684.00
34.1573 1880.00
34.2225 1863.00
34.2877 1841.00
34.3529 1664.00
34.4181 1447.00
34.4833 1324.00
34.5485 1293.00
34.6137 1223.00
34.6789 1293.00
34.7441 1402.00
34.8093 1360.00
34.8745 1325.00
34.9397 1386.00
35.0049 1451.00
35.0701 1745.00
35.1353 2256.00
35.2005 3110.00
35.2657 3583.00
35.3309 3382.00
35.3961 2730.00
35.4613 2580.00
35.5265 2866.00
35.5917 3698.00
35.6569 4775.00
35.7221 5041.00
35.7873 4728.00
35.8525 3611.00
35.9177 2704.00
35.9829 2146.00
36.0481 1693.00
36.1133 1569.00
36.1785 1458.00
36.2437 1401.00
36.3089 1399.00
36.3741 1264.00
36.4393 1269.00
36.5045 1209.00
36.5697 1176.00
36.6349 1154.00
36.7001 1177.00
36.7653 1154.00
36.8305 1096.00
36.8957 1131.00
36.9609 1034.00
37.0261 1053.00
37.0913 1104.00
37.1565 1139.00
37.2217 1129.00
37.2869 1111.00
37.3521 1158.00
37.4173 1179.00
37.4825 1085.00
37.5477 1101.00
37.6129 1165.00
37.6781 1303.00
37.7433 1332.00
37.8085 1448.00
37.8736 1511.00
37.9388 1516.00
38.004 1607.00
38.0692 1425.00
38.1344 1434.00
38.1996 1415.00
38.2648 1520.00
38.33 1693.00
38.3952 1735.00
38.4604 1939.00
38.5256 2117.00
38.5908 2127.00
38.656 2119.00
38.7212 1910.00
38.7864 1691.00
38.8516 1479.00
38.9168 1208.00
38.982 1170.00
39.0472 1216.00
39.1124 1155.00
39.1776 1183.00
39.2428 1062.00
39.308 1071.00
39.3732 1094.00
39.4384 1137.00
39.5036 1151.00
39.5688 1309.00
39.634 1371.00
39.6992 1561.00
39.7644 1808.00
39.8296 1829.00
39.8948 1770.00
39.96 1563.00
40.0252 1398.00
40.0904 1273.00
40.1556 1215.00
40.2208 1110.00
40.286 1093.00
40.3512 1111.00
40.4164 1172.00
40.4816 1131.00
40.5468 1245.00
40.612 1246.00
40.6772 1409.00
40.7424 1402.00
40.8076 1314.00
40.8728 1215.00
40.938 1137.00
41.0032 1101.00
41.0684 1191.00
41.1336 1193.00
41.1988 1249.00
41.264 1415.00
41.3292 1642.00
41.3944 1857.00
41.4596 2030.00
41.5248 1784.00
41.59 1819.00
41.6552 1683.00
41.7204 1605.00
41.7856 1446.00
41.8508 1409.00
41.916 1432.00
41.9812 1399.00
42.0464 1508.00
42.1116 1542.00
42.1768 1451.00
42.242 1436.00
42.3072 1472.00
42.3724 1369.00
42.4376 1322.00
42.5028 1359.00
42.568 1272.00
42.6332 1124.00
42.6983 1117.00
42.7635 1055.00
42.8287 1107.00
42.8939 1215.00
42.9591 1250.00
43.0243 1485.00
43.0895 1815.00
43.1547 2130.00
43.2199 2357.00
43.2851 1937.00
43.3503 1634.00
43.4155 1522.00
43.4807 1317.00
43.5459 1200.00
43.6111 1216.00
43.6763 1103.00
43.7415 1241.00
43.8067 1236.00
43.8719 1372.00
43.9371 1419.00
44.0023 1453.00
44.0675 1493.00
44.1327 1419.00
44.1979 1307.00
44.2631 1194.00
44.3283 1127.00
44.3935 1046.00
44.4587 1042.00
44.5239 1056.00
44.5891 1189.00
44.6543 1220.00
44.7195 1263.00
44.7847 1267.00
44.8499 1565.00
44.9151 1826.00
44.9803 2282.00
45.0455 2948.00
45.1107 3114.00
45.1759 2894.00
45.2411 2584.00
45.3063 1992.00
45.3715 1641.00
45.4367 1388.00
45.5019 1253.00
45.5671 1206.00
45.6323 1226.00
45.6975 1107.00
45.7627 1101.00
45.8279 1130.00
45.8931 1281.00
45.9583 1379.00
46.0235 1624.00
46.0887 2016.00
46.1539 2200.00
46.2191 2327.00
46.2843 2181.00
46.3495 2041.00
46.4147 1884.00
46.4799 1800.00
46.5451 1711.00
46.6103 1783.00
46.6755 1941.00
46.7407 1905.00
46.8059 1828.00
46.8711 1668.00
46.9363 1473.00
47.0015 1320.00
47.0667 1215.00
47.1319 1162.00
47.1971 1118.00
47.2623 1117.00
47.3275 1152.00
47.3927 1158.00
47.4579 1123.00
47.523 1167.00
47.5882 1184.00
47.6534 1248.00
47.7186 1285.00
47.7838 1359.00
47.849 1504.00
47.9142 1803.00
47.9794 2314.00
48.0446 3197.00
48.1098 4044.00
48.175 4381.00
48.2402 4078.00
48.3054 3569.00
48.3706 2847.00
48.4358 2194.00
48.501 1808.00
48.5662 1644.00
48.6314 1546.00
48.6966 1508.00
48.7618 1524.00
48.827 1594.00
48.8922 1651.00
48.9574 1547.00
49.0226 1443.00
49.0878 1400.00
49.153 1253.00
49.2182 1144.00
49.2834 1124.00
49.3486 1158.00
49.4138 1176.00
49.479 1202.00
49.5442 1262.00
49.6094 1317.00
49.6746 1446.00
49.7398 1540.00
49.805 1598.00
49.8702 1512.00
49.9354 1494.00
50.0006 1457.00
50.0658 1321.00
50.131 1144.00
50.1962 1162.00
50.2614 1102.00
50.3266 1156.00
50.3918 1231.00
50.457 1152.00
50.5222 1171.00
50.5874 1081.00
50.6526 1124.00
50.7178 1192.00
50.783 1281.00
50.8482 1353.00
50.9134 1263.00
50.9786 1372.00
51.0438 1354.00
51.109 1390.00
51.1742 1498.00
51.2394 1763.00
51.3046 2217.00
51.3698 2608.00
51.435 3113.00
51.5002 3173.00
51.5654 2942.00
51.6306 2663.00
51.6958 2295.00
51.761 2339.00
51.8262 2475.00
51.8914 2441.00
51.9566 2431.00
52.0218 2064.00
52.087 1843.00
52.1522 1514.00
52.2174 1333.00
52.2826 1267.00
52.3477 1104.00
52.4129 1190.00
52.4781 1068.00
52.5433 1062.00
52.6085 1045.00
52.6737 1010.00
52.7389 1127.00
52.8041 1186.00
52.8693 1140.00
52.9345 1228.00
52.9997 1176.00
53.0649 1153.00
53.1301 1069.00
53.1953 1093.00
53.2605 1087.00
53.3257 1095.00
53.3909 1060.00
53.4561 1175.00
53.5213 1132.00
53.5865 1109.00
53.6517 1048.00
53.7169 1056.00
53.7821 1102.00
53.8473 1059.00
53.9125 1100.00
53.9777 1047.00
54.0429 1123.00
54.1081 1178.00
54.1733 1297.00
54.2385 1487.00
54.3037 1659.00
54.3689 1875.00
54.4341 1857.00
54.4993 1811.00
54.5645 1635.00
54.6297 1511.00
54.6949 1513.00
54.7601 1487.00
54.8253 1531.00
54.8905 1618.00
54.9557 1697.00
55.0209 1806.00
55.0861 1871.00
55.1513 1914.00
55.2165 2106.00
55.2817 2245.00
55.3469 2433.00
55.4121 2650.00
55.4773 3013.00
55.5425 3277.00
55.6077 3415.00
55.6729 3287.00
55.7381 3173.00
55.8033 2728.00
55.8685 2357.00
55.9337 2112.00
55.9989 1737.00
56.0641 1626.00
56.1293 1481.00
56.1945 1306.00
56.2597 1244.00
56.3249 1148.00
56.3901 1166.00
56.4553 1059.00
56.5205 1127.00
56.5857 1073.00
56.6509 1165.00
56.7161 1115.00
56.7813 1076.00
56.8465 1154.00
56.9117 1199.00
56.9769 1263.00
57.042 1232.00
57.1073 1203.00
57.1724 1196.00
57.2376 1261.00
57.3028 1143.00
57.368 1185.00
57.4332 1164.00
57.4984 1059.00
57.5636 1129.00
57.6288 1066.00
57.694 1018.00
57.7592 1050.00
57.8244 1094.00
57.8896 1051.00
57.9548 1158.00
58.02 1193.00
58.0852 1237.00
58.1504 1433.00
58.2156 1544.00
58.2808 1579.00
58.346 1695.00
58.4112 1725.00
58.4764 1767.00
58.5416 1731.00
58.6068 1777.00
58.672 1818.00
58.7372 1636.00
58.8024 1444.00
58.8676 1433.00
58.9328 1328.00
58.998 1333.00
59.0632 1298.00
59.1284 1264.00
59.1936 1148.00
59.2588 1091.00
59.324 1056.00
59.3892 1068.00
59.4544 1033.00
59.5196 1147.00
59.5848 1253.00
59.65 1197.00
59.7152 1298.00
59.7804 1537.00
59.8456 1757.00
59.9108 2064.00
59.976 2300.00
60.0412 2504.00
60.1064 2436.00
60.1716 2331.00
60.2368 2135.00
60.302 1993.00
60.3672 1941.00
60.4324 1812.00
60.4976 1720.00
60.5628 1668.00
60.628 1647.00
60.6932 1471.00
60.7584 1282.00
60.8236 1289.00
60.8888 1247.00
60.954 1440.00
61.0192 1595.00
61.0844 1916.00
61.1496 2163.00
61.2148 2346.00
61.28 2251.00
61.3452 2173.00
61.4104 2059.00
61.4756 1773.00
61.5408 1630.00
61.606 1511.00
61.6712 1489.00
61.7364 1400.00
61.8016 1336.00
61.8667 1367.00
61.932 1458.00
61.9971 1431.00
62.0623 1404.00
62.1275 1433.00
62.1927 1523.00
62.2579 1583.00
62.3231 1602.00
62.3883 1680.00
62.4535 1554.00
62.5187 1480.00
62.5839 1434.00
62.6491 1342.00
62.7143 1401.00
62.7795 1318.00
62.8447 1315.00
62.9099 1270.00
62.9751 1226.00
63.0403 1313.00
63.1055 1262.00
63.1707 1273.00
63.2359 1327.00
63.3011 1348.00
63.3663 1327.00
63.4315 1403.00
63.4967 1502.00
63.5619 1606.00
63.6271 1576.00
63.6923 1614.00
63.7575 1692.00
63.8227 1698.00
63.8879 1776.00
63.9531 1775.00
64.0183 1696.00
64.0835 1735.00
64.1487 1571.00
64.2139 1513.00
64.2791 1484.00
64.3443 1397.00
64.4095 1509.00
64.4747 1514.00
64.5399 1462.00
64.6051 1414.00
64.6703 1450.00
64.7355 1336.00
64.8007 1279.00
64.8659 1168.00
64.9311 1189.00
64.9963 1181.00
65.0615 1196.00
65.1267 1270.00
65.1919 1247.00
65.2571 1324.00
65.3223 1349.00
65.3875 1366.00
65.4527 1272.00
65.5179 1293.00
65.5831 1247.00
65.6483 1201.00
65.7135 1222.00
65.7787 1221.00
65.8439 1293.00
65.9091 1469.00
65.9743 1523.00
66.0395 1656.00
66.1047 1965.00
66.1699 2057.00
66.2351 2227.00
66.3003 2428.00
66.3655 2342.00
66.4307 2211.00
66.4959 2027.00
66.561 1785.00
66.6263 1446.00
66.6915 1392.00
66.7566 1274.00
66.8218 1260.00
66.887 1125.00
66.9522 1074.00
67.0174 1137.00
67.0826 1096.00
67.1478 1191.00
67.213 1223.00
67.2782 1239.00
67.3434 1376.00
67.4086 1305.00
67.4738 1291.00
67.539 1339.00
67.6042 1386.00
67.6694 1434.00
67.7346 1405.00
67.7998 1467.00
67.865 1543.00
67.9302 1483.00
67.9954 1396.00
68.0606 1287.00
68.1258 1230.00
68.191 1152.00
68.2562 1167.00
68.3214 1134.00
68.3866 1043.00
68.4518 1050.00
68.517 1065.00
68.5822 1052.00
68.6474 1063.00
68.7126 1132.00
68.7778 1166.00
68.843 1284.00
68.9082 1306.00
68.9734 1363.00
69.0386 1499.00
69.1038 1503.00
69.169 1479.00
69.2342 1509.00
69.2994 1493.00
69.3646 1301.00
69.4298 1344.00
69.495 1292.00
69.5602 1294.00
69.6254 1217.00
69.6906 1229.00
69.7558 1197.00
69.821 1167.00
69.8862 1132.00
69.9514 1065.00
70.0166 1056.00
70.0818 1100.00
70.147 1054.00
70.2122 1061.00
70.2774 1116.00
70.3426 1063.00
70.4078 1142.00
70.473 1077.00
70.5382 1164.00
70.6034 1150.00
70.6686 1162.00
70.7338 1292.00
70.799 1265.00
70.8642 1295.00
70.9294 1360.00
70.9946 1385.00
71.0598 1537.00
71.125 1637.00
71.1902 1530.00
71.2554 1561.00
71.3205 1520.00
71.3858 1419.00
71.451 1386.00
71.5162 1223.00
71.5813 1262.00
71.6465 1198.00
71.7117 1120.00
71.7769 1048.00
71.8421 1002.00
71.9073 1048.00
71.9725 1009.00
72.0377 1002.00
72.1029 944.00
72.1681 932.00
72.2333 970.00
72.2985 986.00
72.3637 979.00
72.4289 1034.00
72.4941 1031.00
72.5593 1020.00
72.6245 973.00
72.6897 998.00
72.7549 966.00
72.8201 1002.00
72.8853 1032.00
72.9505 1056.00
73.0157 1058.00
73.0809 1054.00
73.1461 995.00
73.2113 1076.00
73.2765 1129.00
73.3417 1128.00
73.4069 1219.00
73.4721 1235.00
73.5373 1252.00
73.6025 1355.00
73.6677 1349.00
73.7329 1397.00
73.7981 1334.00
73.8633 1372.00
73.9285 1314.00
73.9937 1381.00
74.0589 1297.00
74.1241 1186.00
74.1893 1223.00
74.2545 1157.00
74.3197 1063.00
74.3849 1060.00
74.4501 1089.00
74.5153 1099.00
74.5805 1070.00
74.6457 1162.00
74.7109 1095.00
74.7761 1131.00
74.8413 1171.00
74.9065 1293.00
74.9717 1370.00
75.0369 1451.00
75.1021 1534.00
75.1673 1513.00
75.2325 1604.00
75.2977 1614.00
75.3629 1600.00
75.4281 1478.00
75.4933 1447.00
75.5585 1379.00
75.6237 1327.00
75.6889 1232.00
75.7541 1289.00
75.8193 1185.00
75.8845 1247.00
75.9497 1160.00
76.0149 1114.00
76.0801 1032.00
76.1452 987.00
76.2104 1044.00
76.2756 942.00
76.3409 961.00
76.406 947.00
76.4712 989.00
76.5364 970.00
76.6016 973.00
76.6668 1074.00
76.732 990.00
76.7972 1008.00
76.8624 1000.00
76.9276 1039.00
76.9928 1029.00
77.058 986.00
77.1232 1022.00
77.1884 1058.00
77.2536 1111.00
77.3188 1187.00
77.384 1174.00
77.4492 1150.00
77.5144 1129.00
77.5796 1201.00
77.6448 1220.00
77.71 1189.00
77.7752 1138.00
77.8404 1225.00
77.9056 1223.00
77.9708 1185.00
78.036 1092.00
78.1012 1066.00
78.1664 1028.00
78.2316 1062.00
78.2968 1088.00
78.362 1052.00
78.4272 1114.00
78.4924 1141.00
78.5576 1284.00
78.6228 1254.00
78.688 1283.00
78.7532 1324.00
78.8184 1367.00
78.8836 1462.00
78.9488 1451.00
79.014 1462.00
79.0792 1473.00
79.1444 1444.00
79.2096 1347.00
79.2748 1352.00
79.34 1313.00
79.4052 1242.00
79.4704 1201.00
79.5356 1222.00
79.6008 1198.00
79.666 1086.00
79.7312 1095.00
79.7964 1136.00
79.8616 1115.00
79.9268 1062.00
79.992 1151.00
80.0572 1149.00
80.1224 1131.00
80.1876 1113.00
80.2528 1096.00
80.318 1064.00
80.3832 1154.00
80.4484 1078.00
80.5136 1106.00
80.5788 1054.00
80.644 1071.00
80.7092 1071.00
80.7744 1089.00
80.8396 1151.00
80.9048 1220.00
80.9699 1254.00
81.0351 1285.00
81.1003 1255.00
81.1655 1318.00
81.2307 1250.00
81.2959 1072.00
81.3611 1092.00
81.4263 1049.00
81.4915 1069.00
81.5567 1018.00
81.6219 1068.00
81.6871 947.00
81.7523 997.00
81.8175 983.00
81.8827 1006.00
81.9479 1014.00
82.0131 976.00
82.0783 1016.00
82.1435 1021.00
82.2087 1016.00
82.2739 1179.00
82.3391 1039.00
82.4043 994.00
82.4695 1034.00
82.5347 1157.00
82.5999 1067.00
82.6651 1093.00
82.7303 978.00
82.7955 1009.00
82.8607 1023.00
82.9259 1015.00
82.9911 1025.00
83.0563 1007.00
83.1215 1039.00
83.1867 983.00
83.2519 1074.00
83.3171 1165.00
83.3823 1155.00
83.4475 1206.00
83.5127 1250.00
83.5779 1288.00
83.6431 1310.00
83.7083 1254.00
83.7735 1268.00
83.8387 1281.00
83.9039 1227.00
83.9691 1148.00
84.0343 1160.00
84.0995 1123.00
84.1647 1093.00
84.2299 1064.00
84.2951 1071.00
84.3603 1017.00
84.4255 1149.00
84.4907 1086.00
84.5559 1047.00
84.6211 1114.00
84.6863 1168.00
84.7515 1177.00
84.8167 1146.00
84.8819 1156.00
84.9471 1228.00
85.0123 1171.00
85.0775 1219.00
85.1427 1132.00
85.2079 1167.00
85.2731 1174.00
85.3383 1182.00
85.4035 1125.00
85.4687 1098.00
85.5339 1140.00
85.5991 1110.00
85.6643 1123.00
85.7295 1131.00
85.7946 1250.00
85.8598 1187.00
85.925 1133.00
85.9903 1184.00
86.0554 1245.00
86.1206 1275.00
86.1858 1145.00
86.251 1182.00
86.3162 1266.00
86.3814 1190.00
86.4466 1132.00
86.5118 1162.00
86.577 1131.00
86.6422 1133.00
86.7074 1100.00
86.7726 1154.00
86.8378 1100.00
86.903 1067.00
86.9682 1053.00
87.0334 1115.00
87.0986 1020.00
87.1638 1092.00
87.229 1141.00
87.2942 1088.00
87.3594 1077.00
87.4246 1064.00
87.4898 1106.00
87.555 1160.00
87.6202 1100.00
87.6854 1114.00
87.7506 1046.00
87.8158 1134.00
87.881 1115.00
87.9462 1171.00
88.0114 1127.00
88.0766 1181.00
88.1418 1189.00
88.207 1172.00
88.2722 1091.00
88.3374 1086.00
88.4026 1044.00
88.4678 1074.00
88.533 1097.00
88.5982 1033.00
88.6634 1007.00
88.7286 1012.00
88.7938 1028.00
88.859 1020.00
88.9242 978.00
88.9894 1025.00
89.0546 1062.00
89.1198 1063.00
89.185 1241.00
89.2502 1054.00
89.3154 1196.00
89.3806 1132.00
89.4458 1274.00
89.511 1260.00
89.5762 1381.00
89.6414 1398.00
89.7066 1319.00
89.7718 1346.00
89.837 1332.00
89.9022 1304.00
89.9674 1253.00
90.0326 1207.00
90.0978 1186.00
90.163 1178.00
90.2282 1087.00
90.2934 1085.00
90.3586 1094.00
90.4238 959.00
90.489 1017.00
90.5542 1008.00
90.6193 1001.00
90.6845 1007.00
90.7497 964.00
90.8149 1047.00
90.8801 1070.00
90.9453 1085.00
91.0105 1001.00
91.0757 1011.00
91.1409 1073.00
91.2061 1087.00
91.2713 1038.00
91.3365 1133.00
91.4017 1130.00
91.4669 1276.00
91.5321 1303.00
91.5973 1209.00
91.6625 1298.00
91.7277 1228.00
91.7929 1250.00
91.8581 1276.00
91.9233 1220.00
91.9885 1180.00
92.0537 1156.00
92.1189 1199.00
92.1841 1124.00
92.2493 1140.00
92.3145 1179.00
92.3797 1149.00
92.4449 1117.00
92.5101 1206.00
92.5753 1182.00
92.6405 1227.00
92.7057 1151.00
92.7709 1233.00
92.8361 1138.00
92.9013 1174.00
92.9665 1219.00
93.0317 1189.00
93.0969 1145.00
93.1621 1121.00
93.2273 1130.00
93.2925 1129.00
93.3577 1068.00
93.4229 1135.00
93.4881 1093.00
93.5533 1124.00
93.6185 1067.00
93.6837 1090.00
93.7489 981.00
93.8141 1063.00
93.8793 1100.00
93.9445 1090.00
94.0097 1079.00
94.0749 1103.00
94.1401 1162.00
94.2053 1150.00
94.2705 1153.00
94.3357 1184.00
94.4009 1078.00
94.4661 1135.00
94.5313 1105.00
94.5965 1155.00
94.6617 1001.00
94.7269 1070.00
94.7921 1068.00
94.8573 1121.00
94.9225 1166.00
94.9877 1245.00
95.0529 1159.00
95.1181 1178.00
95.1833 1210.00
95.2485 1174.00
95.3137 1142.00
95.3789 1191.00
95.444 1180.00
95.5092 1211.00
95.5744 1198.00
95.6396 1117.00
95.7048 1154.00
95.77 1141.00
95.8352 1179.00
95.9004 1163.00
95.9656 1189.00
96.0308 1164.00
96.096 1234.00
96.1612 1193.00
96.2264 1193.00
96.2916 1130.00
96.3568 1217.00
96.422 1238.00
96.4872 1212.00
96.5524 1299.00
96.6176 1165.00
96.6828 1210.00
96.748 1252.00
96.8132 1093.00
96.8784 1132.00
96.9436 1187.00
97.0088 1073.00
97.074 1077.00
97.1392 1034.00
97.2044 1027.00
97.2696 1057.00
97.3348 1063.00
97.4 1013.00
97.4652 1055.00
97.5304 1013.00
97.5956 1016.00
97.6608 977.00
97.726 964.00
97.7912 1001.00
97.8564 987.00
97.9216 973.00
97.9868 1002.00
98.052 1037.00
98.1172 1092.00
98.1824 991.00
98.2476 993.00
98.3128 1020.00
98.378 1070.00
98.4432 1082.00
98.5084 1072.00
98.5736 974.00
98.6388 1179.00
98.704 1067.00
98.7692 1055.00
98.8344 1091.00
98.8996 1088.00
98.9648 1106.00
99.03 1115.00
99.0952 1139.00
99.1604 1086.00
99.2256 1088.00
99.2908 1138.00
99.356 1064.00
99.4212 1138.00
99.4864 1141.00
99.5516 1139.00
99.6168 1093.00
99.682 1153.00
99.7472 1134.00
99.8124 1168.00
99.8776 1194.00
99.9428 1252.00
100.008 1248.00
100.073 1252.00
100.095 1271.00