File: data/xrd_creation/results/NSC_169.xy
9.903433 2962.00
9.968632 2971.00
10.0338 2974.00
10.099 2910.00
10.1642 2998.00
10.2294 2854.00
10.2946 2978.00
10.3598 2876.00
10.425 2795.00
10.4902 2830.00
10.5554 2845.00
10.6206 2803.00
10.6858 2879.00
10.751 2870.00
10.8162 2940.00
10.8814 2811.00
10.9466 2749.00
11.0118 2721.00
11.077 2793.00
11.1422 2676.00
11.2074 2599.00
11.2726 2733.00
11.3378 2575.00
11.403 2673.00
11.4682 2642.00
11.5334 2780.00
11.5986 2700.00
11.6638 2664.00
11.729 2548.00
11.7942 2534.00
11.8594 2576.00
11.9246 2549.00
11.9898 2523.00
12.055 2472.00
12.1202 2456.00
12.1854 2501.00
12.2506 2479.00
12.3158 2518.00
12.381 2489.00
12.4462 2460.00
12.5114 2441.00
12.5766 2507.00
12.6418 2371.00
12.707 2448.00
12.7722 2531.00
12.8374 2632.00
12.9026 2638.00
12.9678 2457.00
13.033 2425.00
13.0982 2425.00
13.1634 2409.00
13.2286 2264.00
13.2938 2351.00
13.359 2368.00
13.4242 2354.00
13.4894 2369.00
13.5546 2394.00
13.6198 2310.00
13.685 2273.00
13.7502 2317.00
13.8154 2482.00
13.8805 2549.00
13.9457 2614.00
14.0109 2772.00
14.0761 3207.00
14.1413 3745.00
14.2065 4771.00
14.2717 6116.00
14.3369 5455.00
14.4021 2936.00
14.4673 2540.00
14.5325 2379.00
14.5977 2395.00
14.6629 2417.00
14.7281 2292.00
14.7933 2367.00
14.8585 2368.00
14.9237 2342.00
14.9889 2318.00
15.0541 2254.00
15.1193 2306.00
15.1845 2229.00
15.2497 2269.00
15.3149 2127.00
15.3801 2283.00
15.4453 2298.00
15.5105 2252.00
15.5757 2246.00
15.6409 2310.00
15.7061 2197.00
15.7713 2255.00
15.8365 2258.00
15.9017 2299.00
15.9669 2218.00
16.0321 2149.00
16.0973 2194.00
16.1625 2126.00
16.2277 2135.00
16.2929 2200.00
16.3581 2061.00
16.4233 2187.00
16.4885 2299.00
16.5537 2173.00
16.6189 2135.00
16.6841 2235.00
16.7493 2125.00
16.8145 2069.00
16.8797 2168.00
16.9449 2193.00
17.0101 2038.00
17.0753 2112.00
17.1405 2171.00
17.2057 2200.00
17.2709 2148.00
17.3361 2083.00
17.4013 2124.00
17.4665 2087.00
17.5317 2120.00
17.5969 2062.00
17.6621 2099.00
17.7273 2110.00
17.7925 2091.00
17.8577 2038.00
17.9229 1978.00
17.9881 2100.00
18.0533 2044.00
18.1185 1974.00
18.1837 1969.00
18.2489 1963.00
18.3141 2020.00
18.3793 2076.00
18.4445 1905.00
18.5097 2067.00
18.5749 2005.00
18.6401 1998.00
18.7052 2025.00
18.7704 1929.00
18.8356 1954.00
18.9008 1938.00
18.966 1937.00
19.0312 1988.00
19.0964 1984.00
19.1616 1958.00
19.2268 2079.00
19.292 1972.00
19.3572 2203.00
19.4224 2190.00
19.4876 2357.00
19.5528 2506.00
19.618 3065.00
19.6832 4298.00
19.7484 6581.00
19.8136 10582.00
19.8788 14245.00
19.944 7546.00
20.0092 3277.00
20.0744 2881.00
20.1396 3242.00
20.2048 4764.00
20.27 7388.00
20.3352 11542.00
20.4004 8911.00
20.4656 3545.00
20.5308 2304.00
20.596 2090.00
20.6612 2025.00
20.7264 2074.00
20.7916 2069.00
20.8568 2021.00
20.922 1933.00
20.9872 1891.00
21.0524 2015.00
21.1176 1993.00
21.1828 1923.00
21.248 2008.00
21.3132 1953.00
21.3784 1957.00
21.4436 1927.00
21.5088 2059.00
21.574 2095.00
21.6392 2149.00
21.7044 2043.00
21.7696 2085.00
21.8348 1932.00
21.9 1872.00
21.9652 1840.00
22.0304 1822.00
22.0956 1837.00
22.1608 1906.00
22.226 1897.00
22.2912 1958.00
22.3564 1852.00
22.4216 1865.00
22.4868 1759.00
22.552 1880.00
22.6172 1883.00
22.6824 1888.00
22.7476 1943.00
22.8128 1880.00
22.878 2002.00
22.9432 1921.00
23.0084 2013.00
23.0736 2151.00
23.1388 2143.00
23.204 2372.00
23.2692 2731.00
23.3344 2936.00
23.3996 3673.00
23.4647 6360.00
23.5299 12598.00
23.5951 23008.00
23.6603 17491.00
23.7255 6026.00
23.7907 2741.00
23.8559 2533.00
23.9211 2480.00
23.9863 2627.00
24.0515 2444.00
24.1167 2005.00
24.1819 1899.00
24.2471 1946.00
24.3123 1953.00
24.3775 1879.00
24.4427 1895.00
24.5079 1901.00
24.5731 1883.00
24.6383 1884.00
24.7035 1868.00
24.7687 2024.00
24.8339 1959.00
24.8991 1816.00
24.9643 1790.00
25.0295 1758.00
25.0947 1749.00
25.1599 1750.00
25.2251 1751.00
25.2903 1651.00
25.3555 1685.00
25.4207 1816.00
25.4859 1740.00
25.5511 1803.00
25.6163 1739.00
25.6815 1770.00
25.7467 1766.00
25.8119 1702.00
25.8771 1761.00
25.9423 1672.00
26.0075 1663.00
26.0727 1670.00
26.1379 1633.00
26.2031 1683.00
26.2683 1703.00
26.3335 1676.00
26.3987 1732.00
26.4639 1626.00
26.5291 1690.00
26.5943 1730.00
26.6595 1602.00
26.7247 1696.00
26.7899 1672.00
26.8551 1675.00
26.9203 1667.00
26.9855 1661.00
27.0507 1695.00
27.1159 1660.00
27.1811 1652.00
27.2463 1568.00
27.3115 1616.00
27.3767 1651.00
27.4419 1642.00
27.5071 1680.00
27.5723 1641.00
27.6375 1578.00
27.7027 1683.00
27.7679 1590.00
27.8331 1671.00
27.8983 1665.00
27.9635 1686.00
28.0287 1716.00
28.0939 1815.00
28.1591 1957.00
28.2243 2313.00
28.2894 3400.00
28.3546 6710.00
28.4198 11930.00
28.485 8865.00
28.5502 4501.00
28.6154 2543.00
28.6806 1994.00
28.7458 1884.00
28.811 1748.00
28.8762 1727.00
28.9414 1663.00
29.0066 1551.00
29.0718 1565.00
29.137 1586.00
29.2022 1522.00
29.2674 1557.00
29.3326 1576.00
29.3978 1627.00
29.463 1778.00
29.5282 1668.00
29.5934 1716.00
29.6586 1455.00
29.7238 1568.00
29.789 1615.00
29.8542 1457.00
29.9194 1665.00
29.9846 1482.00
30.0498 1479.00
30.115 1553.00
30.1802 1529.00
30.2454 1537.00
30.3106 1496.00
30.3758 1670.00
30.441 1657.00
30.5062 1647.00
30.5714 1663.00
30.6366 1622.00
30.7018 1735.00
30.767 1668.00
30.8322 1661.00
30.8974 1731.00
30.9626 1803.00
31.0278 1978.00
31.093 2244.00
31.1582 2672.00
31.2234 3189.00
31.2886 5095.00
31.3538 9337.00
31.419 13223.00
31.4842 23039.00
31.5494 19344.00
31.6146 10081.00
31.6798 3172.00
31.745 2347.00
31.8102 2497.00
31.8754 2196.00
31.9406 1918.00
32.0058 1637.00
32.071 1535.00
32.1362 1604.00
32.2014 1539.00
32.2666 1566.00
32.3318 1513.00
32.397 1416.00
32.4622 1485.00
32.5274 1522.00
32.5926 1567.00
32.6578 1444.00
32.723 1512.00
32.7882 1439.00
32.8534 1419.00
32.9186 1369.00
32.9838 1446.00
33.0489 1425.00
33.1141 1436.00
33.1793 1492.00
33.2445 1408.00
33.3097 1407.00
33.3749 1398.00
33.4401 1374.00
33.5053 1425.00
33.5705 1366.00
33.6357 1376.00
33.7009 1376.00
33.7661 1491.00
33.8313 1414.00
33.8965 1432.00
33.9617 1310.00
34.0269 1472.00
34.0921 1543.00
34.1573 1595.00
34.2225 1660.00
34.2877 1567.00
34.3529 1613.00
34.4181 1612.00
34.4833 1657.00
34.5485 1677.00
34.6137 1747.00
34.6789 1824.00
34.7441 1754.00
34.8093 1708.00
34.8745 1741.00
34.9397 2293.00
35.0049 3509.00
35.0701 4425.00
35.1353 3402.00
35.2005 3199.00
35.2657 6012.00
35.3309 10971.00
35.3961 7335.00
35.4613 4259.00
35.5265 1959.00
35.5917 1690.00
35.6569 1734.00
35.7221 1534.00
35.7873 1488.00
35.8525 1360.00
35.9177 1365.00
35.9829 1317.00
36.0481 1406.00
36.1133 1400.00
36.1785 1369.00
36.2437 1333.00
36.3089 1425.00
36.3741 1393.00
36.4393 1379.00
36.5045 1340.00
36.5697 1288.00
36.6349 1283.00
36.7001 1382.00
36.7653 1338.00
36.8305 1323.00
36.8957 1359.00
36.9609 1342.00
37.0261 1252.00
37.0913 1349.00
37.1565 1354.00
37.2217 1261.00
37.2869 1284.00
37.3521 1309.00
37.4173 1297.00
37.4825 1284.00
37.5477 1260.00
37.6129 1332.00
37.6781 1271.00
37.7433 1371.00
37.8085 1243.00
37.8736 1260.00
37.9388 1391.00
38.004 1273.00
38.0692 1318.00
38.1344 1267.00
38.1996 1259.00
38.2648 1320.00
38.33 1247.00
38.3952 1267.00
38.4604 1344.00
38.5256 1250.00
38.5908 1317.00
38.656 1270.00
38.7212 1321.00
38.7864 1287.00
38.8516 1325.00
38.9168 1304.00
38.982 1329.00
39.0472 1269.00
39.1124 1322.00
39.1776 1234.00
39.2428 1277.00
39.308 1277.00
39.3732 1217.00
39.4384 1260.00
39.5036 1218.00
39.5688 1276.00
39.634 1298.00
39.6992 1283.00
39.7644 1390.00
39.8296 1416.00
39.8948 1792.00
39.96 2349.00
40.0252 1918.00
40.0904 1625.00
40.1556 1342.00
40.2208 1310.00
40.286 1263.00
40.3512 1237.00
40.4164 1279.00
40.4816 1251.00
40.5468 1205.00
40.612 1215.00
40.6772 1236.00
40.7424 1157.00
40.8076 1204.00
40.8728 1254.00
40.938 1252.00
41.0032 1328.00
41.0684 1426.00
41.1336 1342.00
41.1988 1279.00
41.264 1314.00
41.3292 1318.00
41.3944 1330.00
41.4596 1345.00
41.5248 1395.00
41.59 1576.00
41.6552 2069.00
41.7204 2070.00
41.7856 1854.00
41.8508 1465.00
41.916 1376.00
41.9812 1401.00
42.0464 1651.00
42.1116 1855.00
42.1768 2004.00
42.242 1698.00
42.3072 1587.00
42.3724 1395.00
42.4376 1360.00
42.5028 1301.00
42.568 1338.00
42.6332 1476.00
42.6983 1939.00
42.7635 2841.00
42.8287 2385.00
42.8939 2455.00
42.9591 2005.00
43.0243 2175.00
43.0895 1722.00
43.1547 1450.00
43.2199 1399.00
43.2851 1299.00
43.3503 1300.00
43.4155 1526.00
43.4807 1736.00
43.5459 1465.00
43.6111 1452.00
43.6763 1287.00
43.7415 1232.00
43.8067 1222.00
43.8719 1240.00
43.9371 1250.00
44.0023 1236.00
44.0675 1268.00
44.1327 1180.00
44.1979 1299.00
44.2631 1222.00
44.3283 1221.00
44.3935 1270.00
44.4587 1240.00
44.5239 1243.00
44.5891 1236.00
44.6543 1207.00
44.7195 1221.00
44.7847 1321.00
44.8499 1287.00
44.9151 1451.00
44.9803 1964.00
45.0455 3785.00
45.1107 4778.00
45.1759 3113.00
45.2411 2615.00
45.3063 1474.00
45.3715 1363.00
45.4367 1262.00
45.5019 1301.00
45.5671 1323.00
45.6323 1467.00
45.6975 2017.00
45.7627 3562.00
45.8279 2696.00
45.8931 2535.00
45.9583 1712.00
46.0235 1399.00
46.0887 1389.00
46.1539 1195.00
46.2191 1287.00
46.2843 1199.00
46.3495 1224.00
46.4147 1274.00
46.4799 1289.00
46.5451 1244.00
46.6103 1203.00
46.6755 1271.00
46.7407 1338.00
46.8059 1373.00
46.8711 1614.00
46.9363 2252.00
47.0015 2765.00
47.0667 2129.00
47.1319 2186.00
47.1971 1513.00
47.2623 1319.00
47.3275 1423.00
47.3927 1560.00
47.4579 1686.00
47.523 1607.00
47.5882 1603.00
47.6534 1444.00
47.7186 1912.00
47.7838 3300.00
47.849 7499.00
47.9142 6475.00
47.9794 4962.00
48.0446 3343.00
48.1098 1710.00
48.175 1517.00
48.2402 1870.00
48.3054 2408.00
48.3706 1959.00
48.4358 1917.00
48.501 1533.00
48.5662 1431.00
48.6314 1602.00
48.6966 1988.00
48.7618 2091.00
48.827 1782.00
48.8922 1563.00
48.9574 1249.00
49.0226 1243.00
49.0878 1233.00
49.153 1259.00
49.2182 1198.00
49.2834 1119.00
49.3486 1218.00
49.4138 1191.00
49.479 1300.00
49.5442 1289.00
49.6094 1284.00
49.6746 1313.00
49.7398 1226.00
49.805 1138.00
49.8702 1171.00
49.9354 1161.00
50.0006 1207.00
50.0658 1166.00
50.131 1205.00
50.1962 1190.00
50.2614 1225.00
50.3266 1281.00
50.3918 1376.00
50.457 1437.00
50.5222 1433.00
50.5874 1392.00
50.6526 1232.00
50.7178 1189.00
50.783 1233.00
50.8482 1295.00
50.9134 1283.00
50.9786 1337.00
51.0438 1250.00
51.109 1239.00
51.1742 1287.00
51.2394 1291.00
51.3046 1367.00
51.3698 1470.00
51.435 2054.00
51.5002 3777.00
51.5654 6476.00
51.6306 4696.00
51.6958 5148.00
51.761 2847.00
51.8262 2244.00
51.8914 1439.00
51.9566 1240.00
52.0218 1218.00
52.087 1155.00
52.1522 1254.00
52.2174 1258.00
52.2826 1439.00
52.3477 1283.00
52.4129 1325.00
52.4781 1228.00
52.5433 1240.00
52.6085 1176.00
52.6737 1136.00
52.7389 1207.00
52.8041 1180.00
52.8693 1166.00
52.9345 1229.00
52.9997 1206.00
53.0649 1166.00
53.1301 1176.00
53.1953 1164.00
53.2605 1218.00
53.3257 1239.00
53.3909 1189.00
53.4561 1210.00
53.5213 1122.00
53.5865 1084.00
53.6517 1157.00
53.7169 1211.00
53.7821 1192.00
53.8473 1212.00
53.9125 1255.00
53.9777 1144.00
54.0429 1275.00
54.1081 1589.00
54.1733 2350.00
54.2385 2002.00
54.3037 1793.00
54.3689 1832.00
54.4341 1405.00
54.4993 1370.00
54.5645 1312.00
54.6297 1468.00
54.6949 1742.00
54.7601 3084.00
54.8253 3071.00
54.8905 3004.00
54.9557 5288.00
55.0209 4384.00
55.0861 2998.00
55.1513 3067.00
55.2165 1721.00
55.2817 1363.00
55.3469 1239.00
55.4121 1275.00
55.4773 1299.00
55.5425 1328.00
55.6077 1349.00
55.6729 1281.00
55.7381 1258.00
55.8033 1215.00
55.8685 1270.00
55.9337 1171.00
55.9989 1149.00
56.0641 1167.00
56.1293 1351.00
56.1945 1466.00
56.2597 1504.00
56.3249 1369.00
56.3901 1755.00
56.4553 1841.00
56.5205 1459.00
56.5857 1449.00
56.6509 1309.00
56.7161 1216.00
56.7813 1269.00
56.8465 1126.00
56.9117 1092.00
56.9769 1136.00
57.042 1178.00
57.1073 1109.00
57.1724 1080.00
57.2376 1085.00
57.3028 1089.00
57.368 1174.00
57.4332 1197.00
57.4984 1110.00
57.5636 1153.00
57.6288 1196.00
57.694 1138.00
57.7592 1164.00
57.8244 1183.00
57.8896 1143.00
57.9548 1054.00
58.02 1194.00
58.0852 1128.00
58.1504 1159.00
58.2156 1204.00
58.2808 1328.00
58.346 1691.00
58.4112 1386.00
58.4764 1415.00
58.5416 1352.00
58.6068 1342.00
58.672 1346.00
58.7372 1543.00
58.8024 1992.00
58.8676 1709.00
58.9328 1485.00
58.998 1526.00
59.0632 1222.00
59.1284 1163.00
59.1936 1069.00
59.2588 1137.00
59.324 1168.00
59.3892 1185.00
59.4544 1120.00
59.5196 1228.00
59.5848 1195.00
59.65 1299.00
59.7152 1214.00
59.7804 1377.00
59.8456 1817.00
59.9108 3369.00
59.976 3291.00
60.0412 2320.00
60.1064 2684.00
60.1716 1768.00
60.2368 1375.00
60.302 1326.00
60.3672 1215.00
60.4324 1273.00
60.4976 1366.00
60.5628 1524.00
60.628 2771.00
60.6932 4370.00
60.7584 2426.00
60.8236 2600.00
60.8888 2373.00
60.954 1459.00
61.0192 1350.00
61.0844 1276.00
61.1496 1168.00
61.2148 1272.00
61.28 1293.00
61.3452 1598.00
61.4104 2139.00
61.4756 1581.00
61.5408 1555.00
61.606 1581.00
61.6712 1227.00
61.7364 1224.00
61.8016 1124.00
61.8667 1160.00
61.932 1071.00
61.9971 1147.00
62.0623 1198.00
62.1275 1133.00
62.1927 1105.00
62.2579 1218.00
62.3231 1385.00
62.3883 1259.00
62.4535 1292.00
62.5187 1316.00
62.5839 1365.00
62.6491 1403.00
62.7143 1931.00
62.7795 2619.00
62.8447 2538.00
62.9099 2487.00
62.9751 2359.00
63.0403 2669.00
63.1055 2491.00
63.1707 1988.00
63.2359 1843.00
63.3011 1678.00
63.3663 1298.00
63.4315 1174.00
63.4967 1202.00
63.5619 1138.00
63.6271 1103.00
63.6923 1100.00
63.7575 1295.00
63.8227 1649.00
63.8879 1817.00
63.9531 1354.00
64.0183 1441.00
64.0835 1340.00
64.1487 1175.00
64.2139 1106.00
64.2791 1067.00
64.3443 1217.00
64.4095 1391.00
64.4747 1216.00
64.5399 1205.00
64.6051 1231.00
64.6703 1100.00
64.7355 1131.00
64.8007 1063.00
64.8659 984.00
64.9311 1044.00
64.9963 1046.00
65.0615 1075.00
65.1267 1128.00
65.1919 1136.00
65.2571 1138.00
65.3223 1146.00
65.3875 1108.00
65.4527 1106.00
65.5179 1116.00
65.5831 1124.00
65.6483 1197.00
65.7135 1338.00
65.7787 1607.00
65.8439 1587.00
65.9091 1347.00
65.9743 1397.00
66.0395 1328.00
66.1047 1107.00
66.1699 1188.00
66.2351 1122.00
66.3003 1134.00
66.3655 1260.00
66.4307 1171.00
66.4959 1455.00
66.561 1900.00
66.6263 2296.00
66.6915 2162.00
66.7566 1954.00
66.8218 1681.00
66.887 1482.00
66.9522 1260.00
67.0174 1067.00
67.0826 1083.00
67.1478 1033.00
67.213 1055.00
67.2782 1108.00
67.3434 1283.00
67.4086 1392.00
67.4738 1202.00
67.539 1321.00
67.6042 1705.00
67.6694 1875.00
67.7346 1460.00
67.7998 1563.00
67.865 1547.00
67.9302 1285.00
67.9954 1322.00
68.0606 1235.00
68.1258 1168.00
68.191 1482.00
68.2562 1747.00
68.3214 1509.00
68.3866 1371.00
68.4518 1419.00
68.517 1263.00
68.5822 1095.00
68.6474 1080.00
68.7126 1054.00
68.7778 1101.00
68.843 1020.00
68.9082 1005.00
68.9734 1059.00
69.0386 967.00
69.1038 1012.00
69.169 1046.00
69.2342 998.00
69.2994 1075.00
69.3646 991.00
69.4298 999.00
69.495 1003.00
69.5602 1041.00
69.6254 1061.00
69.6906 1038.00
69.7558 1039.00
69.821 1021.00
69.8862 1051.00
69.9514 960.00
70.0166 1114.00
70.0818 1153.00
70.147 1297.00
70.2122 1155.00
70.2774 1379.00
70.3426 1762.00
70.4078 2581.00
70.473 1814.00
70.5382 1565.00
70.6034 1893.00
70.6686 1556.00
70.7338 1225.00
70.799 1053.00
70.8642 1114.00
70.9294 1041.00
70.9946 1040.00
71.0598 1013.00
71.125 1101.00
71.1902 1092.00
71.2554 1118.00
71.3205 1108.00
71.3858 1171.00
71.451 1333.00
71.5162 1247.00
71.5813 1255.00
71.6465 1479.00
71.7117 1429.00
71.7769 1190.00
71.8421 1149.00
71.9073 1182.00
71.9725 1008.00
72.0377 1031.00
72.1029 1008.00
72.1681 1020.00
72.2333 1013.00
72.2985 1029.00
72.3637 1041.00
72.4289 978.00
72.4941 1041.00
72.5593 982.00
72.6245 1030.00
72.6897 1002.00
72.7549 976.00
72.8201 1033.00
72.8853 1009.00
72.9505 1004.00
73.0157 1026.00
73.0809 1029.00
73.1461 1036.00
73.2113 958.00
73.2765 986.00
73.3417 1019.00
73.4069 998.00
73.4721 1083.00
73.5373 1153.00
73.6025 1094.00
73.6677 1000.00
73.7329 1123.00
73.7981 1172.00
73.8633 1376.00
73.9285 1660.00
73.9937 1537.00
74.0589 1409.00
74.1241 1855.00
74.1893 2555.00
74.2545 1944.00
74.3197 1547.00
74.3849 1661.00
74.4501 1599.00
74.5153 1192.00
74.5805 1156.00
74.6457 1064.00
74.7109 1023.00
74.7761 1036.00
74.8413 1044.00
74.9065 1101.00
74.9717 1365.00
75.0369 1629.00
75.1021 1462.00
75.1673 1260.00
75.2325 1289.00
75.2977 1257.00
75.3629 1126.00
75.4281 1028.00
75.4933 1068.00
75.5585 1045.00
75.6237 978.00
75.6889 1028.00
75.7541 1057.00
75.8193 1092.00
75.8845 1186.00
75.9497 1266.00
76.0149 1208.00
76.0801 1296.00
76.1452 1428.00
76.2104 1301.00
76.2756 1270.00
76.3409 1194.00
76.406 1192.00
76.4712 1044.00
76.5364 1029.00
76.6016 948.00
76.6668 946.00
76.732 1044.00
76.7972 991.00
76.8624 963.00
76.9276 1041.00
76.9928 1032.00
77.058 1043.00
77.1232 1016.00
77.1884 993.00
77.2536 1073.00
77.3188 1142.00
77.384 1145.00
77.4492 1152.00
77.5144 1145.00
77.5796 1245.00
77.6448 1185.00
77.71 1257.00
77.7752 1412.00
77.8404 1210.00
77.9056 1148.00
77.9708 1204.00
78.036 1141.00
78.1012 1000.00
78.1664 980.00
78.2316 985.00
78.2968 1049.00
78.362 989.00
78.4272 1170.00
78.4924 1384.00
78.5576 1224.00
78.6228 1139.00
78.688 1146.00
78.7532 1217.00
78.8184 1055.00
78.8836 1082.00
78.9488 1045.00
79.014 1049.00
79.0792 1036.00
79.1444 1002.00
79.2096 1008.00
79.2748 1065.00
79.34 1054.00
79.4052 1071.00
79.4704 1040.00
79.5356 1110.00
79.6008 1128.00
79.666 1070.00
79.7312 1039.00
79.7964 1001.00
79.8616 1040.00
79.9268 1049.00
79.992 1000.00
80.0572 985.00
80.1224 997.00
80.1876 933.00
80.2528 1033.00
80.318 1022.00
80.3832 960.00
80.4484 1006.00
80.5136 1005.00
80.5788 995.00
80.644 1005.00
80.7092 1049.00
80.7744 1002.00
80.8396 1054.00
80.9048 1188.00
80.9699 1652.00
81.0351 1722.00
81.1003 1313.00
81.1655 1173.00
81.2307 1420.00
81.2959 1301.00
81.3611 1104.00
81.4263 1039.00
81.4915 982.00
81.5567 969.00
81.6219 984.00
81.6871 972.00
81.7523 1008.00
81.8175 1021.00
81.8827 1006.00
81.9479 1026.00
82.0131 1021.00
82.0783 1060.00
82.1435 1147.00
82.2087 1061.00
82.2739 1103.00
82.3391 1153.00
82.4043 1027.00
82.4695 1084.00
82.5347 1292.00
82.5999 1684.00
82.6651 1769.00
82.7303 1275.00
82.7955 1166.00
82.8607 1472.00
82.9259 1394.00
82.9911 1167.00
83.0563 1036.00
83.1215 1046.00
83.1867 1075.00
83.2519 1087.00
83.3171 1079.00
83.3823 1040.00
83.4475 1043.00
83.5127 1052.00
83.5779 1009.00
83.6431 978.00
83.7083 970.00
83.7735 1020.00
83.8387 968.00
83.9039 968.00
83.9691 1095.00
84.0343 1325.00
84.0995 1463.00
84.1647 1200.00
84.2299 1097.00
84.2951 1186.00
84.3603 1266.00
84.4255 1208.00
84.4907 1179.00
84.5559 1219.00
84.6211 1240.00
84.6863 1159.00
84.7515 1207.00
84.8167 1460.00
84.8819 1289.00
84.9471 1067.00
85.0123 1002.00
85.0775 1192.00
85.1427 1046.00
85.2079 1056.00
85.2731 949.00
85.3383 983.00
85.4035 997.00
85.4687 996.00
85.5339 1003.00
85.5991 981.00
85.6643 969.00
85.7295 1018.00
85.7946 1001.00
85.8598 942.00
85.925 971.00
85.9903 959.00
86.0554 982.00
86.1206 973.00
86.1858 997.00
86.251 1016.00
86.3162 1028.00
86.3814 979.00
86.4466 1012.00
86.5118 1053.00
86.577 1145.00
86.6422 1265.00
86.7074 1227.00
86.7726 1033.00
86.8378 1053.00
86.903 1177.00
86.9682 1083.00
87.0334 1004.00
87.0986 1030.00
87.1638 1056.00
87.229 1117.00
87.2942 1105.00
87.3594 1078.00
87.4246 1087.00
87.4898 1143.00
87.555 1251.00
87.6202 1311.00
87.6854 1248.00
87.7506 1193.00
87.8158 1294.00
87.881 1326.00
87.9462 1438.00
88.0114 1142.00
88.0766 1115.00
88.1418 1128.00
88.207 1303.00
88.2722 1127.00
88.3374 1068.00
88.4026 1000.00
88.4678 1051.00
88.533 1052.00
88.5982 997.00
88.6634 1114.00
88.7286 1072.00
88.7938 1261.00
88.859 1757.00
88.9242 2164.00
88.9894 1657.00
89.0546 1417.00
89.1198 1449.00
89.185 1609.00
89.2502 1371.00
89.3154 1238.00
89.3806 1154.00
89.4458 1095.00
89.511 1007.00
89.5762 978.00
89.6414 969.00
89.7066 1025.00
89.7718 977.00
89.837 1078.00
89.9022 1065.00
89.9674 1020.00
90.0326 1034.00
90.0978 994.00
90.163 1033.00
90.2282 1068.00
90.2934 1009.00
90.3586 1011.00
90.4238 936.00
90.489 956.00
90.5542 1036.00
90.6193 952.00
90.6845 944.00
90.7497 980.00
90.8149 931.00
90.8801 1084.00
90.9453 1117.00
91.0105 1155.00
91.0757 1186.00
91.1409 1228.00
91.2061 1148.00
91.2713 1178.00
91.3365 1376.00
91.4017 1422.00
91.4669 1265.00
91.5321 1266.00
91.5973 1123.00
91.6625 1199.00
91.7277 1183.00
91.7929 1017.00
91.8581 1023.00
91.9233 977.00
91.9885 979.00
92.0537 1025.00
92.1189 966.00
92.1841 973.00
92.2493 957.00
92.3145 977.00
92.3797 951.00
92.4449 932.00
92.5101 932.00
92.5753 1022.00
92.6405 1045.00
92.7057 1043.00
92.7709 1029.00
92.8361 1024.00
92.9013 1177.00
92.9665 1270.00
93.0317 1239.00
93.0969 1105.00
93.1621 993.00
93.2273 1087.00
93.2925 1126.00
93.3577 989.00
93.4229 1037.00
93.4881 986.00
93.5533 1033.00
93.6185 1055.00
93.6837 1138.00
93.7489 1032.00
93.8141 975.00
93.8793 1000.00
93.9445 1076.00
94.0097 1036.00
94.0749 1091.00
94.1401 1009.00
94.2053 1022.00
94.2705 999.00
94.3357 1020.00
94.4009 1102.00
94.4661 1208.00
94.5313 1226.00
94.5965 1128.00
94.6617 1143.00
94.7269 1246.00
94.7921 1703.00
94.8573 1993.00
94.9225 1701.00
94.9877 1402.00
95.0529 1261.00
95.1181 1474.00
95.1833 1397.00
95.2485 1369.00
95.3137 1194.00
95.3789 1174.00
95.444 1043.00
95.5092 1087.00
95.5744 1118.00
95.6396 1040.00
95.7048 1162.00
95.77 1344.00
95.8352 1378.00
95.9004 1164.00
95.9656 1144.00
96.0308 1166.00
96.096 1216.00
96.1612 1257.00
96.2264 1165.00
96.2916 1093.00
96.3568 1038.00
96.422 1027.00
96.4872 1080.00
96.5524 995.00
96.6176 973.00
96.6828 951.00
96.748 1032.00
96.8132 965.00
96.8784 959.00
96.9436 1001.00
97.0088 973.00
97.074 974.00
97.1392 898.00
97.2044 993.00
97.2696 991.00
97.3348 999.00
97.4 953.00
97.4652 984.00
97.5304 980.00
97.5956 992.00
97.6608 996.00
97.726 956.00
97.7912 978.00
97.8564 1172.00
97.9216 1237.00
97.9868 1181.00
98.052 1067.00
98.1172 1035.00
98.1824 1117.00
98.2476 1157.00
98.3128 1036.00
98.378 1042.00
98.4432 1091.00
98.5084 1117.00
98.5736 1124.00
98.6388 1044.00
98.704 1054.00
98.7692 942.00
98.8344 1035.00
98.8996 1053.00
98.9648 1059.00
99.03 942.00
99.0952 1054.00
99.1604 960.00
99.2256 984.00
99.2908 1015.00
99.356 1208.00
99.4212 1324.00
99.4864 1079.00
99.5516 997.00
99.6168 1072.00
99.682 1033.00
99.7472 1128.00
99.8124 1037.00
99.8776 1065.00
99.9428 1002.00
100.008 953.00
100.073 943.00
100.095 966.00