File: data/xrd_creation/results/NSC_109.xy
9.903433 2778.00
9.968632 2784.00
10.0338 2622.00
10.099 2683.00
10.1642 2611.00
10.2294 2737.00
10.2946 2549.00
10.3598 2638.00
10.425 2741.00
10.4902 2551.00
10.5554 2496.00
10.6206 2520.00
10.6858 2523.00
10.751 2558.00
10.8162 2482.00
10.8814 2406.00
10.9466 2419.00
11.0118 2468.00
11.077 2416.00
11.1422 2357.00
11.2074 2358.00
11.2726 2324.00
11.3378 2208.00
11.403 2245.00
11.4682 2267.00
11.5334 2256.00
11.5986 2230.00
11.6638 2239.00
11.729 2157.00
11.7942 2106.00
11.8594 2090.00
11.9246 2144.00
11.9898 2080.00
12.055 2186.00
12.1202 2063.00
12.1854 2049.00
12.2506 2137.00
12.3158 2093.00
12.381 2074.00
12.4462 2050.00
12.5114 2056.00
12.5766 2017.00
12.6418 2005.00
12.707 1967.00
12.7722 1954.00
12.8374 1895.00
12.9026 1976.00
12.9678 1888.00
13.033 1865.00
13.0982 1864.00
13.1634 1958.00
13.2286 1902.00
13.2938 1880.00
13.359 1894.00
13.4242 1941.00
13.4894 1842.00
13.5546 1931.00
13.6198 1836.00
13.685 1831.00
13.7502 1761.00
13.8154 1788.00
13.8805 1817.00
13.9457 1808.00
14.0109 1857.00
14.0761 1967.00
14.1413 1992.00
14.2065 1911.00
14.2717 2112.00
14.3369 2140.00
14.4021 2385.00
14.4673 2595.00
14.5325 3059.00
14.5977 4030.00
14.6629 5084.00
14.7281 3007.00
14.7933 1838.00
14.8585 1759.00
14.9237 1722.00
14.9889 1750.00
15.0541 1669.00
15.1193 1774.00
15.1845 1756.00
15.2497 1723.00
15.3149 1699.00
15.3801 1717.00
15.4453 1619.00
15.5105 1711.00
15.5757 1627.00
15.6409 1644.00
15.7061 1678.00
15.7713 1630.00
15.8365 1633.00
15.9017 1577.00
15.9669 1629.00
16.0321 1618.00
16.0973 1637.00
16.1625 1655.00
16.2277 1594.00
16.2929 1609.00
16.3581 1633.00
16.4233 1552.00
16.4885 1634.00
16.5537 1575.00
16.6189 1640.00
16.6841 1593.00
16.7493 1587.00
16.8145 1505.00
16.8797 1618.00
16.9449 1619.00
17.0101 1555.00
17.0753 1561.00
17.1405 1553.00
17.2057 1552.00
17.2709 1462.00
17.3361 1565.00
17.4013 1553.00
17.4665 1544.00
17.5317 1487.00
17.5969 1455.00
17.6621 1540.00
17.7273 1498.00
17.7925 1527.00
17.8577 1478.00
17.9229 1480.00
17.9881 1474.00
18.0533 1533.00
18.1185 1450.00
18.1837 1451.00
18.2489 1456.00
18.3141 1477.00
18.3793 1531.00
18.4445 1481.00
18.5097 1376.00
18.5749 1428.00
18.6401 1462.00
18.7052 1393.00
18.7704 1335.00
18.8356 1419.00
18.9008 1474.00
18.966 1474.00
19.0312 1449.00
19.0964 1494.00
19.1616 1383.00
19.2268 1444.00
19.292 1389.00
19.3572 1366.00
19.4224 1387.00
19.4876 1480.00
19.5528 1496.00
19.618 1523.00
19.6832 1576.00
19.7484 1753.00
19.8136 2029.00
19.8788 2431.00
19.944 3271.00
20.0092 5113.00
20.0744 8705.00
20.1396 14381.00
20.2048 11562.00
20.27 3103.00
20.3352 1700.00
20.4004 1738.00
20.4656 1705.00
20.5308 1577.00
20.596 1559.00
20.6612 1711.00
20.7264 1795.00
20.7916 2021.00
20.8568 2450.00
20.922 3456.00
20.9872 5606.00
21.0524 10006.00
21.1176 17070.00
21.1828 14417.00
21.248 4108.00
21.3132 1978.00
21.3784 1709.00
21.4436 1587.00
21.5088 1463.00
21.574 1473.00
21.6392 1429.00
21.7044 1346.00
21.7696 1347.00
21.8348 1332.00
21.9 1419.00
21.9652 1472.00
22.0304 1447.00
22.0956 1411.00
22.1608 1342.00
22.226 1280.00
22.2912 1274.00
22.3564 1268.00
22.4216 1208.00
22.4868 1255.00
22.552 1200.00
22.6172 1212.00
22.6824 1296.00
22.7476 1275.00
22.8128 1187.00
22.878 1203.00
22.9432 1175.00
23.0084 1213.00
23.0736 1226.00
23.1388 1213.00
23.204 1195.00
23.2692 1185.00
23.3344 1213.00
23.3996 1157.00
23.4647 1214.00
23.5299 1268.00
23.5951 1218.00
23.6603 1160.00
23.7255 1256.00
23.7907 1305.00
23.8559 1280.00
23.9211 1408.00
23.9863 1535.00
24.0515 1963.00
24.1167 2309.00
24.1819 3751.00
24.2471 6993.00
24.3123 11631.00
24.3775 7142.00
24.4427 2226.00
24.5079 1332.00
24.5731 1322.00
24.6383 1271.00
24.7035 1269.00
24.7687 1138.00
24.8339 1080.00
24.8991 1111.00
24.9643 1119.00
25.0295 1137.00
25.0947 1075.00
25.1599 1043.00
25.2251 1127.00
25.2903 1113.00
25.3555 1039.00
25.4207 1075.00
25.4859 1078.00
25.5511 1020.00
25.6163 1038.00
25.6815 1082.00
25.7467 1061.00
25.8119 976.00
25.8771 1048.00
25.9423 977.00
26.0075 953.00
26.0727 983.00
26.1379 982.00
26.2031 1014.00
26.2683 1009.00
26.3335 1021.00
26.3987 1016.00
26.4639 984.00
26.5291 995.00
26.5943 991.00
26.6595 993.00
26.7247 960.00
26.7899 968.00
26.8551 951.00
26.9203 976.00
26.9855 923.00
27.0507 978.00
27.1159 934.00
27.1811 978.00
27.2463 962.00
27.3115 956.00
27.3767 945.00
27.4419 941.00
27.5071 942.00
27.5723 959.00
27.6375 868.00
27.7027 914.00
27.7679 866.00
27.8331 946.00
27.8983 909.00
27.9635 905.00
28.0287 958.00
28.0939 928.00
28.1591 927.00
28.2243 919.00
28.2894 1007.00
28.3546 893.00
28.4198 948.00
28.485 970.00
28.5502 1033.00
28.6154 1011.00
28.6806 1068.00
28.7458 1004.00
28.811 977.00
28.8762 1089.00
28.9414 1261.00
29.0066 1536.00
29.0718 2314.00
29.137 4809.00
29.2022 10160.00
29.2674 10258.00
29.3326 4911.00
29.3978 1436.00
29.463 1127.00
29.5282 996.00
29.5934 1014.00
29.6586 916.00
29.7238 915.00
29.789 908.00
29.8542 889.00
29.9194 858.00
29.9846 843.00
30.0498 847.00
30.115 837.00
30.1802 819.00
30.2454 830.00
30.3106 867.00
30.3758 841.00
30.441 822.00
30.5062 788.00
30.5714 791.00
30.6366 825.00
30.7018 776.00
30.767 831.00
30.8322 845.00
30.8974 849.00
30.9626 801.00
31.0278 841.00
31.093 918.00
31.1582 854.00
31.2234 853.00
31.2886 891.00
31.3538 908.00
31.419 926.00
31.4842 922.00
31.5494 970.00
31.6146 998.00
31.6798 1027.00
31.745 1110.00
31.8102 1266.00
31.8754 1703.00
31.9406 3204.00
32.0058 7759.00
32.071 16822.00
32.1362 13844.00
32.2014 7146.00
32.2666 1730.00
32.3318 1245.00
32.397 1185.00
32.4622 1223.00
32.5274 1528.00
32.5926 2253.00
32.6578 2027.00
32.723 1533.00
32.7882 977.00
32.8534 829.00
32.9186 787.00
32.9838 772.00
33.0489 746.00
33.1141 777.00
33.1793 760.00
33.2445 830.00
33.3097 838.00
33.3749 844.00
33.4401 805.00
33.5053 755.00
33.5705 762.00
33.6357 710.00
33.7009 737.00
33.7661 746.00
33.8313 729.00
33.8965 738.00
33.9617 767.00
34.0269 726.00
34.0921 716.00
34.1573 718.00
34.2225 736.00
34.2877 835.00
34.3529 1160.00
34.4181 1485.00
34.4833 1343.00
34.5485 1054.00
34.6137 774.00
34.6789 713.00
34.7441 724.00
34.8093 681.00
34.8745 758.00
34.9397 720.00
35.0049 701.00
35.0701 711.00
35.1353 725.00
35.2005 701.00
35.2657 716.00
35.3309 741.00
35.3961 711.00
35.4613 716.00
35.5265 754.00
35.5917 772.00
35.6569 733.00
35.7221 758.00
35.7873 690.00
35.8525 758.00
35.9177 816.00
35.9829 908.00
36.0481 1227.00
36.1133 2244.00
36.1785 4790.00
36.2437 5725.00
36.3089 3629.00
36.3741 1621.00
36.4393 974.00
36.5045 929.00
36.5697 1101.00
36.6349 1642.00
36.7001 3347.00
36.7653 7401.00
36.8305 6944.00
36.8957 4494.00
36.9609 1562.00
37.0261 969.00
37.0913 794.00
37.1565 797.00
37.2217 703.00
37.2869 744.00
37.3521 686.00
37.4173 743.00
37.4825 672.00
37.5477 685.00
37.6129 671.00
37.6781 620.00
37.7433 657.00
37.8085 644.00
37.8736 567.00
37.9388 627.00
38.004 585.00
38.0692 628.00
38.1344 658.00
38.1996 599.00
38.2648 592.00
38.33 617.00
38.3952 699.00
38.4604 598.00
38.5256 631.00
38.5908 631.00
38.656 709.00
38.7212 931.00
38.7864 1115.00
38.8516 973.00
38.9168 851.00
38.982 619.00
39.0472 599.00
39.1124 584.00
39.1776 576.00
39.2428 592.00
39.308 637.00
39.3732 614.00
39.4384 597.00
39.5036 596.00
39.5688 601.00
39.634 595.00
39.6992 579.00
39.7644 615.00
39.8296 563.00
39.8948 571.00
39.96 648.00
40.0252 564.00
40.0904 580.00
40.1556 603.00
40.2208 604.00
40.286 578.00
40.3512 600.00
40.4164 645.00
40.4816 767.00
40.5468 1125.00
40.612 1931.00
40.6772 1463.00
40.7424 1261.00
40.8076 752.00
40.8728 653.00
40.938 587.00
41.0032 606.00
41.0684 594.00
41.1336 569.00
41.1988 589.00
41.264 581.00
41.3292 561.00
41.3944 549.00
41.4596 609.00
41.5248 542.00
41.59 629.00
41.6552 535.00
41.7204 587.00
41.7856 557.00
41.8508 607.00
41.916 565.00
41.9812 561.00
42.0464 627.00
42.1116 813.00
42.1768 1312.00
42.242 1806.00
42.3072 2162.00
42.3724 1451.00
42.4376 1074.00
42.5028 844.00
42.568 941.00
42.6332 1632.00
42.6983 2154.00
42.7635 1602.00
42.8287 1186.00
42.8939 705.00
42.9591 566.00
43.0243 629.00
43.0895 610.00
43.1547 716.00
43.2199 841.00
43.2851 792.00
43.3503 711.00
43.4155 602.00
43.4807 558.00
43.5459 532.00
43.6111 549.00
43.6763 565.00
43.7415 575.00
43.8067 567.00
43.8719 568.00
43.9371 613.00
44.0023 555.00
44.0675 621.00
44.1327 785.00
44.1979 1233.00
44.2631 2705.00
44.3283 3080.00
44.3935 2111.00
44.4587 1590.00
44.5239 862.00
44.5891 716.00
44.6543 602.00
44.7195 601.00
44.7847 582.00
44.8499 545.00
44.9151 562.00
44.9803 510.00
45.0455 582.00
45.1107 583.00
45.1759 765.00
45.2411 974.00
45.3063 978.00
45.3715 868.00
45.4367 683.00
45.5019 570.00
45.5671 549.00
45.6323 560.00
45.6975 575.00
45.7627 500.00
45.8279 592.00
45.8931 658.00
45.9583 863.00
46.0235 1649.00
46.0887 3715.00
46.1539 2651.00
46.2191 2351.00
46.2843 1137.00
46.3495 668.00
46.4147 649.00
46.4799 562.00
46.5451 580.00
46.6103 524.00
46.6755 555.00
46.7407 544.00
46.8059 562.00
46.8711 545.00
46.9363 539.00
47.0015 504.00
47.0667 549.00
47.1319 568.00
47.1971 580.00
47.2623 638.00
47.3275 726.00
47.3927 1034.00
47.4579 2443.00
47.523 4074.00
47.5882 3853.00
47.6534 3823.00
47.7186 2167.00
47.7838 1440.00
47.849 768.00
47.9142 627.00
47.9794 589.00
48.0446 531.00
48.1098 527.00
48.175 508.00
48.2402 534.00
48.3054 505.00
48.3706 528.00
48.4358 512.00
48.501 516.00
48.5662 563.00
48.6314 544.00
48.6966 552.00
48.7618 579.00
48.827 816.00
48.8922 808.00
48.9574 853.00
49.0226 765.00
49.0878 706.00
49.153 788.00
49.2182 768.00
49.2834 863.00
49.3486 1646.00
49.4138 4573.00
49.479 5281.00
49.5442 3191.00
49.6094 2850.00
49.6746 967.00
49.7398 695.00
49.805 642.00
49.8702 548.00
49.9354 519.00
50.0006 517.00
50.0658 515.00
50.131 551.00
50.1962 576.00
50.2614 681.00
50.3266 1083.00
50.3918 949.00
50.457 864.00
50.5222 724.00
50.5874 489.00
50.6526 510.00
50.7178 482.00
50.783 487.00
50.8482 463.00
50.9134 487.00
50.9786 454.00
51.0438 480.00
51.109 438.00
51.1742 476.00
51.2394 462.00
51.3046 424.00
51.3698 492.00
51.435 471.00
51.5002 499.00
51.5654 455.00
51.6306 527.00
51.6958 469.00
51.761 451.00
51.8262 508.00
51.8914 483.00
51.9566 471.00
52.0218 527.00
52.087 551.00
52.1522 523.00
52.2174 615.00
52.2826 715.00
52.3477 945.00
52.4129 1775.00
52.4781 3946.00
52.5433 5370.00
52.6085 2976.00
52.6737 2885.00
52.7389 1239.00
52.8041 686.00
52.8693 604.00
52.9345 550.00
52.9997 537.00
53.0649 502.00
53.1301 494.00
53.1953 519.00
53.2605 803.00
53.3257 920.00
53.3909 653.00
53.4561 718.00
53.5213 547.00
53.5865 407.00
53.6517 493.00
53.7169 480.00
53.7821 450.00
53.8473 454.00
53.9125 431.00
53.9777 462.00
54.0429 437.00
54.1081 398.00
54.1733 459.00
54.2385 433.00
54.3037 439.00
54.3689 458.00
54.4341 457.00
54.4993 483.00
54.5645 570.00
54.6297 509.00
54.6949 479.00
54.7601 498.00
54.8253 448.00
54.8905 368.00
54.9557 435.00
55.0209 473.00
55.0861 498.00
55.1513 474.00
55.2165 452.00
55.2817 434.00
55.3469 434.00
55.4121 470.00
55.4773 503.00
55.5425 485.00
55.6077 511.00
55.6729 725.00
55.7381 1374.00
55.8033 1963.00
55.8685 1156.00
55.9337 1251.00
55.9989 907.00
56.0641 564.00
56.1293 509.00
56.1945 471.00
56.2597 440.00
56.3249 469.00
56.3901 469.00
56.4553 471.00
56.5205 491.00
56.5857 450.00
56.6509 500.00
56.7161 565.00
56.7813 527.00
56.8465 645.00
56.9117 1075.00
56.9769 2290.00
57.042 2997.00
57.1073 1770.00
57.1724 2033.00
57.2376 1401.00
57.3028 1403.00
57.368 2801.00
57.4332 4433.00
57.4984 2770.00
57.5636 2611.00
57.6288 1927.00
57.694 852.00
57.7592 666.00
57.8244 561.00
57.8896 509.00
57.9548 444.00
58.02 463.00
58.0852 448.00
58.1504 464.00
58.2156 451.00
58.2808 418.00
58.346 450.00
58.4112 556.00
58.4764 565.00
58.5416 511.00
58.6068 550.00
58.672 557.00
58.7372 541.00
58.8024 665.00
58.8676 808.00
58.9328 664.00
58.998 807.00
59.0632 1253.00
59.1284 1384.00
59.1936 1100.00
59.2588 1061.00
59.324 868.00
59.3892 597.00
59.4544 497.00
59.5196 464.00
59.5848 478.00
59.65 421.00
59.7152 449.00
59.7804 409.00
59.8456 416.00
59.9108 419.00
59.976 452.00
60.0412 446.00
60.1064 547.00
60.1716 802.00
60.2368 992.00
60.302 631.00
60.3672 776.00
60.4324 593.00
60.4976 475.00
60.5628 454.00
60.628 421.00
60.6932 476.00
60.7584 408.00
60.8236 436.00
60.8888 426.00
60.954 436.00
61.0192 510.00
61.0844 465.00
61.1496 493.00
61.2148 518.00
61.28 547.00
61.3452 715.00
61.4104 1575.00
61.4756 3393.00
61.5408 1870.00
61.606 1593.00
61.6712 1837.00
61.7364 820.00
61.8016 543.00
61.8667 485.00
61.932 459.00
61.9971 452.00
62.0623 448.00
62.1275 485.00
62.1927 581.00
62.2579 516.00
62.3231 486.00
62.3883 468.00
62.4535 580.00
62.5187 701.00
62.5839 709.00
62.6491 621.00
62.7143 788.00
62.7795 544.00
62.8447 649.00
62.9099 1017.00
62.9751 2442.00
63.0403 3543.00
63.1055 1846.00
63.1707 2013.00
63.2359 1869.00
63.3011 1213.00
63.3663 1760.00
63.4315 1646.00
63.4967 1224.00
63.5619 1274.00
63.6271 939.00
63.6923 643.00
63.7575 505.00
63.8227 476.00
63.8879 445.00
63.9531 433.00
64.0183 451.00
64.0835 410.00
64.1487 426.00
64.2139 409.00
64.2791 446.00
64.3443 446.00
64.4095 613.00
64.4747 778.00
64.5399 568.00
64.6051 632.00
64.6703 655.00
64.7355 517.00
64.8007 450.00
64.8659 469.00
64.9311 403.00
64.9963 427.00
65.0615 418.00
65.1267 424.00
65.1919 439.00
65.2571 433.00
65.3223 454.00
65.3875 486.00
65.4527 581.00
65.5179 875.00
65.5831 1523.00
65.6483 1798.00
65.7135 1608.00
65.7787 1232.00
65.8439 1468.00
65.9091 1517.00
65.9743 1570.00
66.0395 1074.00
66.1047 995.00
66.1699 947.00
66.2351 734.00
66.3003 729.00
66.3655 712.00
66.4307 592.00
66.4959 606.00
66.561 521.00
66.6263 466.00
66.6915 427.00
66.7566 442.00
66.8218 392.00
66.887 420.00
66.9522 418.00
67.0174 459.00
67.0826 425.00
67.1478 438.00
67.213 509.00
67.2782 520.00
67.3434 552.00
67.4086 775.00
67.4738 1586.00
67.539 1860.00
67.6042 1229.00
67.6694 1186.00
67.7346 1155.00
67.7998 706.00
67.865 527.00
67.9302 460.00
67.9954 446.00
68.0606 441.00
68.1258 521.00
68.191 520.00
68.2562 456.00
68.3214 433.00
68.3866 455.00
68.4518 391.00
68.517 406.00
68.5822 384.00
68.6474 392.00
68.7126 401.00
68.7778 385.00
68.843 382.00
68.9082 378.00
68.9734 377.00
69.0386 404.00
69.1038 381.00
69.169 408.00
69.2342 406.00
69.2994 443.00
69.3646 453.00
69.4298 448.00
69.495 542.00
69.5602 908.00
69.6254 1553.00
69.6906 1808.00
69.7558 1454.00
69.821 1196.00
69.8862 1102.00
69.9514 867.00
70.0166 535.00
70.0818 424.00
70.147 402.00
70.2122 372.00
70.2774 383.00
70.3426 393.00
70.4078 396.00
70.473 331.00
70.5382 365.00
70.6034 399.00
70.6686 372.00
70.7338 354.00
70.799 415.00
70.8642 435.00
70.9294 471.00
70.9946 452.00
71.0598 554.00
71.125 707.00
71.1902 861.00
71.2554 583.00
71.3205 589.00
71.3858 676.00
71.451 610.00
71.5162 502.00
71.5813 449.00
71.6465 483.00
71.7117 461.00
71.7769 397.00
71.8421 412.00
71.9073 369.00
71.9725 358.00
72.0377 418.00
72.1029 512.00
72.1681 539.00
72.2333 478.00
72.2985 423.00
72.3637 424.00
72.4289 397.00
72.4941 430.00
72.5593 389.00
72.6245 395.00
72.6897 385.00
72.7549 400.00
72.8201 372.00
72.8853 353.00
72.9505 395.00
73.0157 367.00
73.0809 361.00
73.1461 354.00
73.2113 393.00
73.2765 397.00
73.3417 412.00
73.4069 471.00
73.4721 722.00
73.5373 1226.00
73.6025 1621.00
73.6677 949.00
73.7329 894.00
73.7981 1072.00
73.8633 705.00
73.9285 460.00
73.9937 416.00
74.0589 380.00
74.1241 388.00
74.1893 404.00
74.2545 457.00
74.3197 415.00
74.3849 405.00
74.4501 407.00
74.5153 382.00
74.5805 376.00
74.6457 373.00
74.7109 388.00
74.7761 413.00
74.8413 414.00
74.9065 386.00
74.9717 333.00
75.0369 413.00
75.1021 414.00
75.1673 400.00
75.2325 415.00
75.2977 513.00
75.3629 852.00
75.4281 1265.00
75.4933 908.00
75.5585 737.00
75.6237 863.00
75.6889 787.00
75.7541 553.00
75.8193 429.00
75.8845 466.00
75.9497 513.00
76.0149 649.00
76.0801 568.00
76.1452 493.00
76.2104 531.00
76.2756 546.00
76.3409 603.00
76.406 749.00
76.4712 746.00
76.5364 650.00
76.6016 600.00
76.6668 611.00
76.732 546.00
76.7972 463.00
76.8624 364.00
76.9276 371.00
76.9928 343.00
77.058 357.00
77.1232 343.00
77.1884 357.00
77.2536 340.00
77.3188 335.00
77.384 382.00
77.4492 392.00
77.5144 527.00
77.5796 517.00
77.6448 562.00
77.71 782.00
77.7752 1087.00
77.8404 1008.00
77.9056 676.00
77.9708 688.00
78.036 809.00
78.1012 715.00
78.1664 631.00
78.2316 474.00
78.2968 426.00
78.362 445.00
78.4272 457.00
78.4924 376.00
78.5576 371.00
78.6228 338.00
78.688 310.00
78.7532 322.00
78.8184 328.00
78.8836 346.00
78.9488 352.00
79.014 351.00
79.0792 330.00
79.1444 394.00
79.2096 472.00
79.2748 598.00
79.34 532.00
79.4052 473.00
79.4704 472.00
79.5356 541.00
79.6008 591.00
79.666 478.00
79.7312 445.00
79.7964 410.00
79.8616 414.00
79.9268 413.00
79.992 328.00
80.0572 364.00
80.1224 340.00
80.1876 439.00
80.2528 456.00
80.318 461.00
80.3832 416.00
80.4484 438.00
80.5136 485.00
80.5788 495.00
80.644 445.00
80.7092 384.00
80.7744 413.00
80.8396 397.00
80.9048 383.00
80.9699 365.00
81.0351 329.00
81.1003 386.00
81.1655 518.00
81.2307 680.00
81.2959 924.00
81.3611 1104.00
81.4263 758.00
81.4915 832.00
81.5567 1225.00
81.6219 1285.00
81.6871 835.00
81.7523 622.00
81.8175 630.00
81.8827 642.00
81.9479 506.00
82.0131 415.00
82.0783 356.00
82.1435 371.00
82.2087 343.00
82.2739 354.00
82.3391 359.00
82.4043 365.00
82.4695 350.00
82.5347 364.00
82.5999 413.00
82.6651 496.00
82.7303 603.00
82.7955 574.00
82.8607 554.00
82.9259 663.00
82.9911 1040.00
83.0563 1483.00
83.1215 992.00
83.1867 645.00
83.2519 700.00
83.3171 876.00
83.3823 636.00
83.4475 474.00
83.5127 392.00
83.5779 388.00
83.6431 438.00
83.7083 395.00
83.7735 383.00
83.8387 346.00
83.9039 392.00
83.9691 410.00
84.0343 336.00
84.0995 342.00
84.1647 370.00
84.2299 350.00
84.2951 356.00
84.3603 354.00
84.4255 335.00
84.4907 368.00
84.5559 348.00
84.6211 344.00
84.6863 343.00
84.7515 366.00
84.8167 373.00
84.8819 368.00
84.9471 340.00
85.0123 444.00
85.0775 521.00
85.1427 584.00
85.2079 396.00
85.2731 362.00
85.3383 435.00
85.4035 442.00
85.4687 373.00
85.5339 356.00
85.5991 322.00
85.6643 355.00
85.7295 393.00
85.7946 360.00
85.8598 318.00
85.925 370.00
85.9903 358.00
86.0554 432.00
86.1206 412.00
86.1858 375.00
86.251 430.00
86.3162 503.00
86.3814 735.00
86.4466 1091.00
86.5118 1182.00
86.577 786.00
86.6422 645.00
86.7074 778.00
86.7726 745.00
86.8378 549.00
86.903 417.00
86.9682 345.00
87.0334 361.00
87.0986 350.00
87.1638 406.00
87.229 389.00
87.2942 375.00
87.3594 390.00
87.4246 419.00
87.4898 381.00
87.555 401.00
87.6202 485.00
87.6854 719.00
87.7506 1073.00
87.8158 956.00
87.881 856.00
87.9462 874.00
88.0114 1044.00
88.0766 993.00
88.1418 804.00
88.207 666.00
88.2722 627.00
88.3374 569.00
88.4026 489.00
88.4678 445.00
88.533 430.00
88.5982 408.00
88.6634 466.00
88.7286 539.00
88.7938 647.00
88.859 506.00
88.9242 393.00
88.9894 480.00
89.0546 460.00
89.1198 480.00
89.185 369.00
89.2502 344.00
89.3154 381.00
89.3806 342.00
89.4458 409.00
89.511 389.00
89.5762 333.00
89.6414 372.00
89.7066 377.00
89.7718 390.00
89.837 358.00
89.9022 336.00
89.9674 314.00
90.0326 321.00
90.0978 359.00
90.163 336.00
90.2282 343.00
90.2934 358.00
90.3586 340.00
90.4238 402.00
90.489 520.00
90.5542 687.00
90.6193 589.00
90.6845 480.00
90.7497 435.00
90.8149 526.00
90.8801 508.00
90.9453 452.00
91.0105 392.00
91.0757 455.00
91.1409 554.00
91.2061 465.00
91.2713 403.00
91.3365 375.00
91.4017 437.00
91.4669 489.00
91.5321 412.00
91.5973 381.00
91.6625 393.00
91.7277 432.00
91.7929 475.00
91.8581 472.00
91.9233 423.00
91.9885 430.00
92.0537 432.00
92.1189 439.00
92.1841 442.00
92.2493 430.00
92.3145 380.00
92.3797 393.00
92.4449 470.00
92.5101 783.00
92.5753 1167.00
92.6405 1076.00
92.7057 780.00
92.7709 668.00
92.8361 848.00
92.9013 981.00
92.9665 710.00
93.0317 485.00
93.0969 480.00
93.1621 471.00
93.2273 405.00
93.2925 359.00
93.3577 352.00
93.4229 365.00
93.4881 356.00
93.5533 343.00
93.6185 328.00
93.6837 320.00
93.7489 352.00
93.8141 337.00
93.8793 388.00
93.9445 323.00
94.0097 400.00
94.0749 379.00
94.1401 407.00
94.2053 539.00
94.2705 790.00
94.3357 834.00
94.4009 569.00
94.4661 498.00
94.5313 523.00
94.5965 670.00
94.6617 578.00
94.7269 464.00
94.7921 392.00
94.8573 369.00
94.9225 386.00
94.9877 384.00
95.0529 390.00
95.1181 418.00
95.1833 483.00
95.2485 552.00
95.3137 499.00
95.3789 428.00
95.444 578.00
95.5092 680.00
95.5744 711.00
95.6396 611.00
95.7048 510.00
95.77 511.00
95.8352 543.00
95.9004 483.00
95.9656 448.00
96.0308 444.00
96.096 490.00
96.1612 534.00
96.2264 595.00
96.2916 655.00
96.3568 572.00
96.422 491.00
96.4872 495.00
96.5524 487.00
96.6176 502.00
96.6828 395.00
96.748 363.00
96.8132 365.00
96.8784 335.00
96.9436 381.00
97.0088 343.00
97.074 344.00
97.1392 339.00
97.2044 366.00
97.2696 395.00
97.3348 432.00
97.4 351.00
97.4652 366.00
97.5304 376.00
97.5956 486.00
97.6608 516.00
97.726 594.00
97.7912 552.00
97.8564 534.00
97.9216 564.00
97.9868 873.00
98.052 1292.00
98.1172 981.00
98.1824 598.00
98.2476 484.00
98.3128 569.00
98.378 742.00
98.4432 646.00
98.5084 475.00
98.5736 401.00
98.6388 470.00
98.704 435.00
98.7692 371.00
98.8344 332.00
98.8996 313.00
98.9648 371.00
99.03 340.00
99.0952 356.00
99.1604 358.00
99.2256 328.00
99.2908 363.00
99.356 348.00
99.4212 315.00
99.4864 340.00
99.5516 360.00
99.6168 367.00
99.682 361.00
99.7472 405.00
99.8124 417.00
99.8776 476.00
99.9428 600.00
100.008 794.00
100.073 1016.00
100.095 1072.00