File: data/xrd_creation/results/NSC_140.xy
9.903433 2936.00
9.968632 2989.00
10.0338 2928.00
10.099 2881.00
10.1642 2905.00
10.2294 2972.00
10.2946 2924.00
10.3598 3046.00
10.425 2878.00
10.4902 2814.00
10.5554 2755.00
10.6206 2953.00
10.6858 2959.00
10.751 3252.00
10.8162 3181.00
10.8814 3092.00
10.9466 2997.00
11.0118 2643.00
11.077 2571.00
11.1422 2503.00
11.2074 2522.00
11.2726 2581.00
11.3378 2355.00
11.403 2399.00
11.4682 2441.00
11.5334 2466.00
11.5986 2355.00
11.6638 2431.00
11.729 2342.00
11.7942 2323.00
11.8594 2390.00
11.9246 2350.00
11.9898 2271.00
12.055 2362.00
12.1202 2294.00
12.1854 2297.00
12.2506 2306.00
12.3158 2288.00
12.381 2218.00
12.4462 2294.00
12.5114 2120.00
12.5766 2248.00
12.6418 2183.00
12.707 2172.00
12.7722 2100.00
12.8374 2156.00
12.9026 2179.00
12.9678 2164.00
13.033 2115.00
13.0982 2224.00
13.1634 2285.00
13.2286 2375.00
13.2938 2490.00
13.359 2703.00
13.4242 3053.00
13.4894 3336.00
13.5546 2880.00
13.6198 2830.00
13.685 3026.00
13.7502 3187.00
13.8154 2696.00
13.8805 2217.00
13.9457 2108.00
14.0109 1964.00
14.0761 1961.00
14.1413 2032.00
14.2065 2000.00
14.2717 1897.00
14.3369 1900.00
14.4021 1945.00
14.4673 1983.00
14.5325 1984.00
14.5977 2161.00
14.6629 1955.00
14.7281 1915.00
14.7933 1928.00
14.8585 1883.00
14.9237 1878.00
14.9889 1828.00
15.0541 1894.00
15.1193 1916.00
15.1845 1869.00
15.2497 1892.00
15.3149 1936.00
15.3801 1779.00
15.4453 1925.00
15.5105 1834.00
15.5757 1897.00
15.6409 1870.00
15.7061 1862.00
15.7713 1813.00
15.8365 1852.00
15.9017 1839.00
15.9669 1788.00
16.0321 1780.00
16.0973 1867.00
16.1625 1885.00
16.2277 2021.00
16.2929 1846.00
16.3581 1830.00
16.4233 1770.00
16.4885 1899.00
16.5537 1844.00
16.6189 1826.00
16.6841 1704.00
16.7493 1680.00
16.8145 1692.00
16.8797 1667.00
16.9449 1709.00
17.0101 1752.00
17.0753 1718.00
17.1405 1796.00
17.2057 1763.00
17.2709 1895.00
17.3361 1965.00
17.4013 2046.00
17.4665 2357.00
17.5317 2425.00
17.5969 2044.00
17.6621 1889.00
17.7273 1747.00
17.7925 1673.00
17.8577 1689.00
17.9229 1744.00
17.9881 1669.00
18.0533 1644.00
18.1185 1613.00
18.1837 1663.00
18.2489 1622.00
18.3141 1648.00
18.3793 1689.00
18.4445 1714.00
18.5097 1624.00
18.5749 1598.00
18.6401 1557.00
18.7052 1509.00
18.7704 1560.00
18.8356 1516.00
18.9008 1675.00
18.966 1622.00
19.0312 1668.00
19.0964 1670.00
19.1616 1793.00
19.2268 1966.00
19.292 1981.00
19.3572 1743.00
19.4224 1532.00
19.4876 1502.00
19.5528 1539.00
19.618 1513.00
19.6832 1517.00
19.7484 1436.00
19.8136 1418.00
19.8788 1503.00
19.944 1540.00
20.0092 1545.00
20.0744 1660.00
20.1396 1769.00
20.2048 2106.00
20.27 2221.00
20.3352 2216.00
20.4004 2413.00
20.4656 2658.00
20.5308 2710.00
20.596 2713.00
20.6612 2592.00
20.7264 2237.00
20.7916 2550.00
20.8568 3085.00
20.922 4288.00
20.9872 6966.00
21.0524 11915.00
21.1176 19364.00
21.1828 25088.00
21.248 20529.00
21.3132 14031.00
21.3784 10463.00
21.4436 6947.00
21.5088 6343.00
21.574 6304.00
21.6392 4483.00
21.7044 2643.00
21.7696 2091.00
21.8348 2015.00
21.9 1875.00
21.9652 1804.00
22.0304 1846.00
22.0956 1899.00
22.1608 1771.00
22.226 1617.00
22.2912 1524.00
22.3564 1462.00
22.4216 1425.00
22.4868 1428.00
22.552 1427.00
22.6172 1411.00
22.6824 1417.00
22.7476 1380.00
22.8128 1402.00
22.878 1372.00
22.9432 1436.00
23.0084 1436.00
23.0736 1498.00
23.1388 1688.00
23.204 1887.00
23.2692 2133.00
23.3344 2037.00
23.3996 1710.00
23.4647 1560.00
23.5299 1622.00
23.5951 1765.00
23.6603 1951.00
23.7255 1726.00
23.7907 1547.00
23.8559 1537.00
23.9211 1560.00
23.9863 1598.00
24.0515 1472.00
24.1167 1464.00
24.1819 1599.00
24.2471 1807.00
24.3123 2092.00
24.3775 2460.00
24.4427 2331.00
24.5079 1810.00
24.5731 1832.00
24.6383 1892.00
24.7035 1701.00
24.7687 1501.00
24.8339 1407.00
24.8991 1285.00
24.9643 1270.00
25.0295 1256.00
25.0947 1281.00
25.1599 1280.00
25.2251 1232.00
25.2903 1205.00
25.3555 1316.00
25.4207 1540.00
25.4859 1823.00
25.5511 1972.00
25.6163 1717.00
25.6815 1475.00
25.7467 1337.00
25.8119 1301.00
25.8771 1212.00
25.9423 1327.00
26.0075 1253.00
26.0727 1210.00
26.1379 1156.00
26.2031 1175.00
26.2683 1171.00
26.3335 1332.00
26.3987 1305.00
26.4639 1241.00
26.5291 1146.00
26.5943 1115.00
26.6595 1177.00
26.7247 1177.00
26.7899 1307.00
26.8551 1402.00
26.9203 1508.00
26.9855 1459.00
27.0507 1472.00
27.1159 1434.00
27.1811 1432.00
27.2463 1345.00
27.3115 1341.00
27.3767 1278.00
27.4419 1169.00
27.5071 1024.00
27.5723 1125.00
27.6375 1071.00
27.7027 1050.00
27.7679 1160.00
27.8331 1113.00
27.8983 1320.00
27.9635 1361.00
28.0287 1286.00
28.0939 1218.00
28.1591 1117.00
28.2243 1079.00
28.2894 1083.00
28.3546 1075.00
28.4198 1168.00
28.485 1240.00
28.5502 1218.00
28.6154 1065.00
28.6806 985.00
28.7458 1021.00
28.811 1021.00
28.8762 1047.00
28.9414 1057.00
29.0066 1115.00
29.0718 1164.00
29.137 1131.00
29.2022 1024.00
29.2674 1028.00
29.3326 1022.00
29.3978 1006.00
29.463 1121.00
29.5282 1167.00
29.5934 1287.00
29.6586 1384.00
29.7238 1494.00
29.789 1311.00
29.8542 1191.00
29.9194 1224.00
29.9846 1441.00
30.0498 1662.00
30.115 1664.00
30.1802 1399.00
30.2454 1081.00
30.3106 993.00
30.3758 1004.00
30.441 1085.00
30.5062 1067.00
30.5714 1107.00
30.6366 1095.00
30.7018 1059.00
30.767 989.00
30.8322 1011.00
30.8974 990.00
30.9626 884.00
31.0278 966.00
31.093 988.00
31.1582 994.00
31.2234 1017.00
31.2886 965.00
31.3538 998.00
31.419 1072.00
31.4842 987.00
31.5494 977.00
31.6146 1003.00
31.6798 968.00
31.745 1080.00
31.8102 1101.00
31.8754 1113.00
31.9406 1220.00
32.0058 1214.00
32.071 1269.00
32.1362 1216.00
32.2014 1187.00
32.2666 1108.00
32.3318 1125.00
32.397 1127.00
32.4622 1254.00
32.5274 1221.00
32.5926 1057.00
32.6578 1018.00
32.723 949.00
32.7882 997.00
32.8534 1003.00
32.9186 1090.00
32.9838 1089.00
33.0489 1031.00
33.1141 1069.00
33.1793 1039.00
33.2445 1044.00
33.3097 1060.00
33.3749 1008.00
33.4401 1045.00
33.5053 1039.00
33.5705 1071.00
33.6357 1086.00
33.7009 1197.00
33.7661 1286.00
33.8313 1327.00
33.8965 1303.00
33.9617 1252.00
34.0269 1272.00
34.0921 1253.00
34.1573 1382.00
34.2225 1508.00
34.2877 1753.00
34.3529 2352.00
34.4181 3994.00
34.4833 7206.00
34.5485 12613.00
34.6137 16971.00
34.6789 18354.00
34.7441 19107.00
34.8093 17595.00
34.8745 13244.00
34.9397 9116.00
35.0049 7447.00
35.0701 6950.00
35.1353 6063.00
35.2005 4982.00
35.2657 3974.00
35.3309 2901.00
35.3961 2553.00
35.4613 2479.00
35.5265 2379.00
35.5917 1983.00
35.6569 1464.00
35.7221 1264.00
35.7873 1158.00
35.8525 1134.00
35.9177 1098.00
35.9829 1116.00
36.0481 1273.00
36.1133 1363.00
36.1785 1331.00
36.2437 1246.00
36.3089 1196.00
36.3741 1258.00
36.4393 1327.00
36.5045 1246.00
36.5697 1224.00
36.6349 1147.00
36.7001 1167.00
36.7653 1203.00
36.8305 1288.00
36.8957 1391.00
36.9609 1287.00
37.0261 1229.00
37.0913 1227.00
37.1565 1253.00
37.2217 1392.00
37.2869 1450.00
37.3521 1201.00
37.4173 1088.00
37.4825 963.00
37.5477 960.00
37.6129 939.00
37.6781 945.00
37.7433 943.00
37.8085 951.00
37.8736 997.00
37.9388 973.00
38.004 1026.00
38.0692 1126.00
38.1344 1120.00
38.1996 1202.00
38.2648 1140.00
38.33 1131.00
38.3952 991.00
38.4604 1021.00
38.5256 916.00
38.5908 921.00
38.656 925.00
38.7212 987.00
38.7864 1068.00
38.8516 1104.00
38.9168 946.00
38.982 1046.00
39.0472 987.00
39.1124 930.00
39.1776 908.00
39.2428 877.00
39.308 878.00
39.3732 910.00
39.4384 973.00
39.5036 1105.00
39.5688 1168.00
39.634 1113.00
39.6992 1108.00
39.7644 1124.00
39.8296 1030.00
39.8948 939.00
39.96 955.00
40.0252 956.00
40.0904 980.00
40.1556 979.00
40.2208 1122.00
40.286 1329.00
40.3512 1658.00
40.4164 2178.00
40.4816 2739.00
40.5468 2493.00
40.612 2020.00
40.6772 1588.00
40.7424 1532.00
40.8076 1417.00
40.8728 1511.00
40.938 1681.00
41.0032 1955.00
41.0684 1904.00
41.1336 1925.00
41.1988 1903.00
41.264 1762.00
41.3292 1525.00
41.3944 1280.00
41.4596 1172.00
41.5248 1196.00
41.59 1185.00
41.6552 1080.00
41.7204 1052.00
41.7856 912.00
41.8508 900.00
41.916 858.00
41.9812 864.00
42.0464 848.00
42.1116 911.00
42.1768 910.00
42.242 915.00
42.3072 941.00
42.3724 955.00
42.4376 944.00
42.5028 1084.00
42.568 1339.00
42.6332 1572.00
42.6983 2018.00
42.7635 2344.00
42.8287 2303.00
42.8939 2125.00
42.9591 1848.00
43.0243 1788.00
43.0895 2120.00
43.1547 2479.00
43.2199 2632.00
43.2851 1977.00
43.3503 1652.00
43.4155 1368.00
43.4807 1242.00
43.5459 1270.00
43.6111 1171.00
43.6763 1112.00
43.7415 1315.00
43.8067 1554.00
43.8719 1696.00
43.9371 1683.00
44.0023 1495.00
44.0675 1294.00
44.1327 1114.00
44.1979 1069.00
44.2631 1038.00
44.3283 962.00
44.3935 813.00
44.4587 891.00
44.5239 915.00
44.5891 922.00
44.6543 996.00
44.7195 972.00
44.7847 1053.00
44.8499 1191.00
44.9151 1227.00
44.9803 1204.00
45.0455 1226.00
45.1107 1197.00
45.1759 1095.00
45.2411 1060.00
45.3063 954.00
45.3715 874.00
45.4367 935.00
45.5019 875.00
45.5671 930.00
45.6323 837.00
45.6975 810.00
45.7627 872.00
45.8279 898.00
45.8931 872.00
45.9583 788.00
46.0235 748.00
46.0887 735.00
46.1539 762.00
46.2191 742.00
46.2843 716.00
46.3495 821.00
46.4147 726.00
46.4799 767.00
46.5451 754.00
46.6103 827.00
46.6755 827.00
46.7407 994.00
46.8059 942.00
46.8711 928.00
46.9363 898.00
47.0015 926.00
47.0667 914.00
47.1319 856.00
47.1971 870.00
47.2623 798.00
47.3275 844.00
47.3927 760.00
47.4579 679.00
47.523 735.00
47.5882 764.00
47.6534 798.00
47.7186 821.00
47.7838 802.00
47.849 839.00
47.9142 773.00
47.9794 788.00
48.0446 828.00
48.1098 747.00
48.175 785.00
48.2402 876.00
48.3054 873.00
48.3706 956.00
48.4358 1030.00
48.501 916.00
48.5662 900.00
48.6314 914.00
48.6966 849.00
48.7618 783.00
48.827 855.00
48.8922 835.00
48.9574 921.00
49.0226 972.00
49.0878 1006.00
49.153 1004.00
49.2182 1087.00
49.2834 1192.00
49.3486 1614.00
49.4138 2272.00
49.479 3457.00
49.5442 4396.00
49.6094 4322.00
49.6746 3666.00
49.7398 2831.00
49.805 1924.00
49.8702 1532.00
49.9354 1396.00
50.0006 1612.00
50.0658 1757.00
50.131 1929.00
50.1962 2027.00
50.2614 2062.00
50.3266 1847.00
50.3918 1651.00
50.457 1531.00
50.5222 1457.00
50.5874 1495.00
50.6526 1430.00
50.7178 1393.00
50.783 1318.00
50.8482 1276.00
50.9134 1159.00
50.9786 1084.00
51.0438 950.00
51.109 911.00
51.1742 797.00
51.2394 696.00
51.3046 706.00
51.3698 718.00
51.435 640.00
51.5002 706.00
51.5654 686.00
51.6306 676.00
51.6958 662.00
51.761 680.00
51.8262 692.00
51.8914 681.00
51.9566 690.00
52.0218 696.00
52.087 756.00
52.1522 659.00
52.2174 725.00
52.2826 788.00
52.3477 846.00
52.4129 780.00
52.4781 780.00
52.5433 829.00
52.6085 773.00
52.6737 753.00
52.7389 707.00
52.8041 708.00
52.8693 727.00
52.9345 683.00
52.9997 669.00
53.0649 669.00
53.1301 646.00
53.1953 639.00
53.2605 695.00
53.3257 712.00
53.3909 734.00
53.4561 746.00
53.5213 810.00
53.5865 872.00
53.6517 933.00
53.7169 987.00
53.7821 1020.00
53.8473 921.00
53.9125 879.00
53.9777 834.00
54.0429 861.00
54.1081 829.00
54.1733 809.00
54.2385 834.00
54.3037 772.00
54.3689 782.00
54.4341 774.00
54.4993 875.00
54.5645 858.00
54.6297 866.00
54.6949 835.00
54.7601 914.00
54.8253 882.00
54.8905 927.00
54.9557 1012.00
55.0209 1015.00
55.0861 1028.00
55.1513 1041.00
55.2165 994.00
55.2817 961.00
55.3469 901.00
55.4121 848.00
55.4773 768.00
55.5425 749.00
55.6077 718.00
55.6729 728.00
55.7381 749.00
55.8033 844.00
55.8685 807.00
55.9337 782.00
55.9989 851.00
56.0641 779.00
56.1293 746.00
56.1945 721.00
56.2597 737.00
56.3249 752.00
56.3901 914.00
56.4553 943.00
56.5205 995.00
56.5857 939.00
56.6509 833.00
56.7161 757.00
56.7813 784.00
56.8465 802.00
56.9117 816.00
56.9769 823.00
57.042 805.00
57.1073 856.00
57.1724 847.00
57.2376 842.00
57.3028 818.00
57.368 701.00
57.4332 701.00
57.4984 690.00
57.5636 635.00
57.6288 669.00
57.694 645.00
57.7592 743.00
57.8244 642.00
57.8896 643.00
57.9548 662.00
58.02 696.00
58.0852 737.00
58.1504 763.00
58.2156 716.00
58.2808 779.00
58.346 817.00
58.4112 755.00
58.4764 734.00
58.5416 755.00
58.6068 681.00
58.672 699.00
58.7372 622.00
58.8024 652.00
58.8676 634.00
58.9328 600.00
58.998 619.00
59.0632 564.00
59.1284 608.00
59.1936 595.00
59.2588 575.00
59.324 556.00
59.3892 604.00
59.4544 613.00
59.5196 603.00
59.5848 586.00
59.65 652.00
59.7152 641.00
59.7804 599.00
59.8456 612.00
59.9108 656.00
59.976 685.00
60.0412 696.00
60.1064 676.00
60.1716 631.00
60.2368 673.00
60.302 680.00
60.3672 762.00
60.4324 854.00
60.4976 883.00
60.5628 814.00
60.628 838.00
60.6932 711.00
60.7584 733.00
60.8236 734.00
60.8888 690.00
60.954 678.00
61.0192 679.00
61.0844 681.00
61.1496 700.00
61.2148 725.00
61.28 732.00
61.3452 765.00
61.4104 787.00
61.4756 918.00
61.5408 1175.00
61.606 1712.00
61.6712 2675.00
61.7364 3448.00
61.8016 3517.00
61.8667 3100.00
61.932 3025.00
61.9971 2677.00
62.0623 2656.00
62.1275 2543.00
62.1927 2429.00
62.2579 2288.00
62.3231 2144.00
62.3883 2007.00
62.4535 2186.00
62.5187 2176.00
62.5839 2356.00
62.6491 1925.00
62.7143 1571.00
62.7795 1253.00
62.8447 1035.00
62.9099 860.00
62.9751 865.00
63.0403 866.00
63.1055 870.00
63.1707 800.00
63.2359 870.00
63.3011 874.00
63.3663 833.00
63.4315 793.00
63.4967 757.00
63.5619 692.00
63.6271 709.00
63.6923 630.00
63.7575 643.00
63.8227 653.00
63.8879 646.00
63.9531 686.00
64.0183 694.00
64.0835 646.00
64.1487 665.00
64.2139 644.00
64.2791 638.00
64.3443 610.00
64.4095 610.00
64.4747 573.00
64.5399 566.00
64.6051 538.00
64.6703 558.00
64.7355 510.00
64.8007 562.00
64.8659 547.00
64.9311 573.00
64.9963 535.00
65.0615 586.00
65.1267 605.00
65.1919 603.00
65.2571 633.00
65.3223 650.00
65.3875 653.00
65.4527 588.00
65.5179 607.00
65.5831 646.00
65.6483 676.00
65.7135 728.00
65.7787 813.00
65.8439 876.00
65.9091 905.00
65.9743 841.00
66.0395 810.00
66.1047 838.00
66.1699 734.00
66.2351 673.00
66.3003 682.00
66.3655 689.00
66.4307 614.00
66.4959 680.00
66.561 686.00
66.6263 689.00
66.6915 688.00
66.7566 715.00
66.8218 762.00
66.887 729.00
66.9522 715.00
67.0174 778.00
67.0826 755.00
67.1478 731.00
67.213 716.00
67.2782 713.00
67.3434 679.00
67.4086 673.00
67.4738 686.00
67.539 638.00
67.6042 662.00
67.6694 613.00
67.7346 580.00
67.7998 613.00
67.865 605.00
67.9302 598.00
67.9954 582.00
68.0606 544.00
68.1258 543.00
68.191 538.00
68.2562 525.00
68.3214 566.00
68.3866 583.00
68.4518 605.00
68.517 546.00
68.5822 514.00
68.6474 546.00
68.7126 566.00
68.7778 519.00
68.843 540.00
68.9082 538.00
68.9734 591.00
69.0386 557.00
69.1038 595.00
69.169 640.00
69.2342 711.00
69.2994 692.00
69.3646 671.00
69.4298 685.00
69.495 643.00
69.5602 638.00
69.6254 604.00
69.6906 592.00
69.7558 589.00
69.821 568.00
69.8862 588.00
69.9514 604.00
70.0166 591.00
70.0818 581.00
70.147 594.00
70.2122 629.00
70.2774 590.00
70.3426 567.00
70.4078 597.00
70.473 581.00
70.5382 573.00
70.6034 541.00
70.6686 550.00
70.7338 539.00
70.799 558.00
70.8642 540.00
70.9294 501.00
70.9946 526.00
71.0598 521.00
71.125 497.00
71.1902 538.00
71.2554 537.00
71.3205 559.00
71.3858 565.00
71.451 536.00
71.5162 555.00
71.5813 538.00
71.6465 533.00
71.7117 512.00
71.7769 488.00
71.8421 506.00
71.9073 541.00
71.9725 516.00
72.0377 537.00
72.1029 553.00
72.1681 605.00
72.2333 592.00
72.2985 662.00
72.3637 826.00
72.4289 978.00
72.4941 1165.00
72.5593 1157.00
72.6245 1049.00
72.6897 1102.00
72.7549 1049.00
72.8201 1108.00
72.8853 1123.00
72.9505 1131.00
73.0157 1012.00
73.0809 1015.00
73.1461 1016.00
73.2113 858.00
73.2765 824.00
73.3417 694.00
73.4069 755.00
73.4721 683.00
73.5373 709.00
73.6025 662.00
73.6677 590.00
73.7329 627.00
73.7981 593.00
73.8633 594.00
73.9285 652.00
73.9937 598.00
74.0589 589.00
74.1241 553.00
74.1893 523.00
74.2545 522.00
74.3197 597.00
74.3849 547.00
74.4501 565.00
74.5153 578.00
74.5805 638.00
74.6457 653.00
74.7109 618.00
74.7761 589.00
74.8413 660.00
74.9065 624.00
74.9717 572.00
75.0369 615.00
75.1021 607.00
75.1673 576.00
75.2325 516.00
75.2977 562.00
75.3629 558.00
75.4281 508.00
75.4933 520.00
75.5585 476.00
75.6237 463.00
75.6889 512.00
75.7541 461.00
75.8193 487.00
75.8845 485.00
75.9497 529.00
76.0149 485.00
76.0801 484.00
76.1452 503.00
76.2104 510.00
76.2756 571.00
76.3409 633.00
76.406 668.00
76.4712 641.00
76.5364 653.00
76.6016 638.00
76.6668 597.00
76.732 584.00
76.7972 558.00
76.8624 526.00
76.9276 560.00
76.9928 561.00
77.058 635.00
77.1232 653.00
77.1884 569.00
77.2536 570.00
77.3188 571.00
77.384 559.00
77.4492 569.00
77.5144 537.00
77.5796 574.00
77.6448 553.00
77.71 563.00
77.7752 497.00
77.8404 550.00
77.9056 505.00
77.9708 546.00
78.036 581.00
78.1012 530.00
78.1664 572.00
78.2316 530.00
78.2968 555.00
78.362 534.00
78.4272 565.00
78.4924 537.00
78.5576 476.00
78.6228 470.00
78.688 483.00
78.7532 545.00
78.8184 631.00
78.8836 612.00
78.9488 589.00
79.014 519.00
79.0792 614.00
79.1444 570.00
79.2096 482.00
79.2748 493.00
79.34 501.00
79.4052 560.00
79.4704 547.00
79.5356 492.00
79.6008 513.00
79.666 489.00
79.7312 474.00
79.7964 505.00
79.8616 467.00
79.9268 460.00
79.992 441.00
80.0572 446.00
80.1224 444.00
80.1876 396.00
80.2528 458.00
80.318 445.00
80.3832 418.00
80.4484 411.00
80.5136 398.00
80.5788 459.00
80.644 466.00
80.7092 472.00
80.7744 466.00
80.8396 466.00
80.9048 422.00
80.9699 441.00
81.0351 434.00
81.1003 428.00
81.1655 466.00
81.2307 461.00
81.2959 459.00
81.3611 431.00
81.4263 370.00
81.4915 448.00
81.5567 453.00
81.6219 454.00
81.6871 439.00
81.7523 448.00
81.8175 452.00
81.8827 466.00
81.9479 466.00
82.0131 441.00
82.0783 446.00
82.1435 444.00
82.2087 459.00
82.2739 485.00
82.3391 484.00
82.4043 543.00
82.4695 602.00
82.5347 702.00
82.5999 871.00
82.6651 973.00
82.7303 1082.00
82.7955 1061.00
82.8607 1124.00
82.9259 977.00
82.9911 917.00
83.0563 819.00
83.1215 722.00
83.1867 604.00
83.2519 570.00
83.3171 526.00
83.3823 550.00
83.4475 593.00
83.5127 566.00
83.5779 537.00
83.6431 555.00
83.7083 606.00
83.7735 616.00
83.8387 676.00
83.9039 710.00
83.9691 715.00
84.0343 671.00
84.0995 613.00
84.1647 588.00
84.2299 560.00
84.2951 575.00
84.3603 557.00
84.4255 524.00
84.4907 507.00
84.5559 476.00
84.6211 521.00
84.6863 541.00
84.7515 493.00
84.8167 517.00
84.8819 535.00
84.9471 521.00
85.0123 537.00
85.0775 503.00
85.1427 513.00
85.2079 505.00
85.2731 485.00
85.3383 482.00
85.4035 477.00
85.4687 448.00
85.5339 440.00
85.5991 466.00
85.6643 424.00
85.7295 452.00
85.7946 437.00
85.8598 459.00
85.925 393.00
85.9903 424.00
86.0554 424.00
86.1206 421.00
86.1858 434.00
86.251 398.00
86.3162 432.00
86.3814 459.00
86.4466 433.00
86.5118 490.00
86.577 441.00
86.6422 495.00
86.7074 487.00
86.7726 509.00
86.8378 469.00
86.903 499.00
86.9682 456.00
87.0334 467.00
87.0986 469.00
87.1638 469.00
87.229 419.00
87.2942 463.00
87.3594 396.00
87.4246 485.00
87.4898 473.00
87.555 433.00
87.6202 455.00
87.6854 446.00
87.7506 452.00
87.8158 458.00
87.881 429.00
87.9462 454.00
88.0114 430.00
88.0766 448.00
88.1418 484.00
88.207 478.00
88.2722 424.00
88.3374 435.00
88.4026 431.00
88.4678 462.00
88.533 446.00
88.5982 520.00
88.6634 499.00
88.7286 469.00
88.7938 460.00
88.859 463.00
88.9242 439.00
88.9894 458.00
89.0546 448.00
89.1198 468.00
89.185 455.00
89.2502 431.00
89.3154 447.00
89.3806 420.00
89.4458 462.00
89.511 442.00
89.5762 443.00
89.6414 528.00
89.7066 473.00
89.7718 502.00
89.837 458.00
89.9022 494.00
89.9674 465.00
90.0326 461.00
90.0978 428.00
90.163 475.00
90.2282 452.00
90.2934 481.00
90.3586 476.00
90.4238 491.00
90.489 475.00
90.5542 487.00
90.6193 494.00
90.6845 502.00
90.7497 491.00
90.8149 494.00
90.8801 492.00
90.9453 471.00
91.0105 518.00
91.0757 464.00
91.1409 396.00
91.2061 453.00
91.2713 431.00
91.3365 451.00
91.4017 431.00
91.4669 424.00
91.5321 437.00
91.5973 407.00
91.6625 404.00
91.7277 408.00
91.7929 425.00
91.8581 415.00
91.9233 405.00
91.9885 388.00
92.0537 402.00
92.1189 402.00
92.1841 421.00
92.2493 387.00
92.3145 390.00
92.3797 427.00
92.4449 424.00
92.5101 414.00
92.5753 447.00
92.6405 450.00
92.7057 463.00
92.7709 472.00
92.8361 497.00
92.9013 487.00
92.9665 572.00
93.0317 583.00
93.0969 517.00
93.1621 516.00
93.2273 513.00
93.2925 549.00
93.3577 512.00
93.4229 551.00
93.4881 513.00
93.5533 510.00
93.6185 492.00
93.6837 498.00
93.7489 505.00
93.8141 539.00
93.8793 503.00
93.9445 493.00
94.0097 479.00
94.0749 520.00
94.1401 524.00
94.2053 507.00
94.2705 491.00
94.3357 442.00
94.4009 467.00
94.4661 410.00
94.5313 504.00
94.5965 436.00
94.6617 434.00
94.7269 430.00
94.7921 454.00
94.8573 447.00
94.9225 460.00
94.9877 461.00
95.0529 466.00
95.1181 424.00
95.1833 445.00
95.2485 434.00
95.3137 417.00
95.3789 437.00
95.444 458.00
95.5092 436.00
95.5744 414.00
95.6396 464.00
95.7048 439.00
95.77 437.00
95.8352 437.00
95.9004 447.00
95.9656 462.00
96.0308 439.00
96.096 460.00
96.1612 491.00
96.2264 465.00
96.2916 484.00
96.3568 494.00
96.422 480.00
96.4872 498.00
96.5524 529.00
96.6176 462.00
96.6828 445.00
96.748 477.00
96.8132 479.00
96.8784 424.00
96.9436 468.00
97.0088 440.00
97.074 445.00
97.1392 467.00
97.2044 459.00
97.2696 467.00
97.3348 461.00
97.4 392.00
97.4652 447.00
97.5304 417.00
97.5956 440.00
97.6608 412.00
97.726 464.00
97.7912 419.00
97.8564 407.00
97.9216 445.00
97.9868 427.00
98.052 397.00
98.1172 432.00
98.1824 431.00
98.2476 433.00
98.3128 412.00
98.378 403.00
98.4432 444.00
98.5084 427.00
98.5736 443.00
98.6388 404.00
98.704 413.00
98.7692 432.00
98.8344 426.00
98.8996 443.00
98.9648 475.00
99.03 465.00
99.0952 446.00
99.1604 436.00
99.2256 418.00
99.2908 454.00
99.356 456.00
99.4212 474.00
99.4864 469.00
99.5516 457.00
99.6168 446.00
99.682 436.00
99.7472 443.00
99.8124 440.00
99.8776 416.00
99.9428 407.00
100.008 440.00
100.073 412.00
100.095 479.00