File: data/xrd_creation/results/NSC_151.xy
9.903433 2589.00
9.968632 2485.00
10.0338 2489.00
10.099 2456.00
10.1642 2525.00
10.2294 2336.00
10.2946 2457.00
10.3598 2345.00
10.425 2381.00
10.4902 2299.00
10.5554 2394.00
10.6206 2323.00
10.6858 2315.00
10.751 2226.00
10.8162 2188.00
10.8814 2230.00
10.9466 2213.00
11.0118 2110.00
11.077 2106.00
11.1422 2035.00
11.2074 2113.00
11.2726 2140.00
11.3378 2131.00
11.403 2050.00
11.4682 1919.00
11.5334 1958.00
11.5986 2003.00
11.6638 1949.00
11.729 1900.00
11.7942 1869.00
11.8594 1907.00
11.9246 1799.00
11.9898 1905.00
12.055 1814.00
12.1202 1821.00
12.1854 1771.00
12.2506 1792.00
12.3158 1778.00
12.381 1773.00
12.4462 1862.00
12.5114 1751.00
12.5766 1804.00
12.6418 1743.00
12.707 1704.00
12.7722 1611.00
12.8374 1696.00
12.9026 1624.00
12.9678 1597.00
13.033 1613.00
13.0982 1571.00
13.1634 1723.00
13.2286 1662.00
13.2938 1682.00
13.359 1812.00
13.4242 1800.00
13.4894 1649.00
13.5546 1574.00
13.6198 1500.00
13.685 1504.00
13.7502 1524.00
13.8154 1470.00
13.8805 1428.00
13.9457 1466.00
14.0109 1435.00
14.0761 1480.00
14.1413 1430.00
14.2065 1371.00
14.2717 1456.00
14.3369 1392.00
14.4021 1349.00
14.4673 1393.00
14.5325 1366.00
14.5977 1324.00
14.6629 1340.00
14.7281 1356.00
14.7933 1294.00
14.8585 1369.00
14.9237 1366.00
14.9889 1350.00
15.0541 1342.00
15.1193 1308.00
15.1845 1206.00
15.2497 1247.00
15.3149 1344.00
15.3801 1253.00
15.4453 1243.00
15.5105 1333.00
15.5757 1272.00
15.6409 1295.00
15.7061 1301.00
15.7713 1224.00
15.8365 1212.00
15.9017 1228.00
15.9669 1235.00
16.0321 1207.00
16.0973 1302.00
16.1625 1348.00
16.2277 1342.00
16.2929 1316.00
16.3581 1230.00
16.4233 1289.00
16.4885 1207.00
16.5537 1219.00
16.6189 1224.00
16.6841 1246.00
16.7493 1184.00
16.8145 1229.00
16.8797 1193.00
16.9449 1126.00
17.0101 1162.00
17.0753 1184.00
17.1405 1181.00
17.2057 1194.00
17.2709 1122.00
17.3361 1127.00
17.4013 1122.00
17.4665 1103.00
17.5317 1108.00
17.5969 1110.00
17.6621 1108.00
17.7273 1083.00
17.7925 1078.00
17.8577 1062.00
17.9229 1064.00
17.9881 1060.00
18.0533 1096.00
18.1185 1021.00
18.1837 1041.00
18.2489 1046.00
18.3141 1059.00
18.3793 1021.00
18.4445 1039.00
18.5097 1014.00
18.5749 1046.00
18.6401 1028.00
18.7052 967.00
18.7704 1086.00
18.8356 1051.00
18.9008 1008.00
18.966 1014.00
19.0312 1022.00
19.0964 990.00
19.1616 965.00
19.2268 965.00
19.292 973.00
19.3572 938.00
19.4224 920.00
19.4876 966.00
19.5528 983.00
19.618 919.00
19.6832 986.00
19.7484 964.00
19.8136 938.00
19.8788 1003.00
19.944 1026.00
20.0092 1101.00
20.0744 1249.00
20.1396 1269.00
20.2048 1206.00
20.27 1061.00
20.3352 990.00
20.4004 984.00
20.4656 902.00
20.5308 917.00
20.596 919.00
20.6612 912.00
20.7264 913.00
20.7916 912.00
20.8568 843.00
20.922 883.00
20.9872 886.00
21.0524 851.00
21.1176 834.00
21.1828 803.00
21.248 837.00
21.3132 826.00
21.3784 829.00
21.4436 902.00
21.5088 793.00
21.574 837.00
21.6392 841.00
21.7044 908.00
21.7696 841.00
21.8348 858.00
21.9 784.00
21.9652 811.00
22.0304 801.00
22.0956 873.00
22.1608 748.00
22.226 801.00
22.2912 752.00
22.3564 764.00
22.4216 790.00
22.4868 741.00
22.552 740.00
22.6172 836.00
22.6824 827.00
22.7476 815.00
22.8128 852.00
22.878 802.00
22.9432 748.00
23.0084 804.00
23.0736 738.00
23.1388 809.00
23.204 799.00
23.2692 791.00
23.3344 813.00
23.3996 755.00
23.4647 724.00
23.5299 739.00
23.5951 706.00
23.6603 753.00
23.7255 696.00
23.7907 680.00
23.8559 716.00
23.9211 701.00
23.9863 727.00
24.0515 742.00
24.1167 753.00
24.1819 730.00
24.2471 698.00
24.3123 713.00
24.3775 714.00
24.4427 735.00
24.5079 703.00
24.5731 720.00
24.6383 692.00
24.7035 712.00
24.7687 701.00
24.8339 657.00
24.8991 716.00
24.9643 663.00
25.0295 680.00
25.0947 660.00
25.1599 708.00
25.2251 693.00
25.2903 706.00
25.3555 656.00
25.4207 659.00
25.4859 671.00
25.5511 683.00
25.6163 710.00
25.6815 695.00
25.7467 679.00
25.8119 673.00
25.8771 702.00
25.9423 696.00
26.0075 672.00
26.0727 631.00
26.1379 608.00
26.2031 638.00
26.2683 664.00
26.3335 686.00
26.3987 593.00
26.4639 626.00
26.5291 673.00
26.5943 641.00
26.6595 669.00
26.7247 584.00
26.7899 660.00
26.8551 592.00
26.9203 635.00
26.9855 643.00
27.0507 710.00
27.1159 736.00
27.1811 704.00
27.2463 644.00
27.3115 682.00
27.3767 663.00
27.4419 609.00
27.5071 655.00
27.5723 615.00
27.6375 580.00
27.7027 602.00
27.7679 628.00
27.8331 613.00
27.8983 638.00
27.9635 583.00
28.0287 609.00
28.0939 592.00
28.1591 634.00
28.2243 624.00
28.2894 587.00
28.3546 630.00
28.4198 579.00
28.485 610.00
28.5502 593.00
28.6154 582.00
28.6806 559.00
28.7458 580.00
28.811 604.00
28.8762 558.00
28.9414 586.00
29.0066 581.00
29.0718 581.00
29.137 547.00
29.2022 581.00
29.2674 516.00
29.3326 583.00
29.3978 569.00
29.463 573.00
29.5282 600.00
29.5934 586.00
29.6586 582.00
29.7238 558.00
29.789 556.00
29.8542 568.00
29.9194 580.00
29.9846 568.00
30.0498 520.00
30.115 549.00
30.1802 518.00
30.2454 509.00
30.3106 532.00
30.3758 584.00
30.441 557.00
30.5062 613.00
30.5714 534.00
30.6366 541.00
30.7018 549.00
30.767 546.00
30.8322 535.00
30.8974 513.00
30.9626 549.00
31.0278 517.00
31.093 516.00
31.1582 522.00
31.2234 539.00
31.2886 503.00
31.3538 533.00
31.419 494.00
31.4842 537.00
31.5494 511.00
31.6146 486.00
31.6798 511.00
31.745 513.00
31.8102 483.00
31.8754 530.00
31.9406 524.00
32.0058 455.00
32.071 513.00
32.1362 517.00
32.2014 509.00
32.2666 491.00
32.3318 483.00
32.397 511.00
32.4622 551.00
32.5274 487.00
32.5926 515.00
32.6578 515.00
32.723 512.00
32.7882 534.00
32.8534 565.00
32.9186 527.00
32.9838 593.00
33.0489 697.00
33.1141 706.00
33.1793 785.00
33.2445 833.00
33.3097 1054.00
33.3749 946.00
33.4401 760.00
33.5053 607.00
33.5705 520.00
33.6357 516.00
33.7009 540.00
33.7661 442.00
33.8313 451.00
33.8965 475.00
33.9617 425.00
34.0269 444.00
34.0921 471.00
34.1573 421.00
34.2225 461.00
34.2877 428.00
34.3529 484.00
34.4181 506.00
34.4833 545.00
34.5485 483.00
34.6137 484.00
34.6789 477.00
34.7441 470.00
34.8093 459.00
34.8745 435.00
34.9397 439.00
35.0049 426.00
35.0701 456.00
35.1353 429.00
35.2005 472.00
35.2657 447.00
35.3309 449.00
35.3961 423.00
35.4613 413.00
35.5265 433.00
35.5917 415.00
35.6569 457.00
35.7221 402.00
35.7873 443.00
35.8525 413.00
35.9177 441.00
35.9829 478.00
36.0481 390.00
36.1133 399.00
36.1785 416.00
36.2437 421.00
36.3089 392.00
36.3741 384.00
36.4393 350.00
36.5045 417.00
36.5697 412.00
36.6349 394.00
36.7001 368.00
36.7653 371.00
36.8305 354.00
36.8957 420.00
36.9609 412.00
37.0261 412.00
37.0913 420.00
37.1565 379.00
37.2217 398.00
37.2869 425.00
37.3521 360.00
37.4173 397.00
37.4825 413.00
37.5477 348.00
37.6129 364.00
37.6781 411.00
37.7433 392.00
37.8085 445.00
37.8736 380.00
37.9388 369.00
38.004 407.00
38.0692 368.00
38.1344 387.00
38.1996 414.00
38.2648 431.00
38.33 433.00
38.3952 394.00
38.4604 369.00
38.5256 394.00
38.5908 372.00
38.656 347.00
38.7212 345.00
38.7864 363.00
38.8516 359.00
38.9168 364.00
38.982 371.00
39.0472 376.00
39.1124 385.00
39.1776 387.00
39.2428 390.00
39.308 397.00
39.3732 456.00
39.4384 463.00
39.5036 526.00
39.5688 568.00
39.634 486.00
39.6992 446.00
39.7644 408.00
39.8296 348.00
39.8948 364.00
39.96 396.00
40.0252 349.00
40.0904 340.00
40.1556 334.00
40.2208 333.00
40.286 352.00
40.3512 324.00
40.4164 302.00
40.4816 331.00
40.5468 323.00
40.612 365.00
40.6772 315.00
40.7424 333.00
40.8076 326.00
40.8728 308.00
40.938 341.00
41.0032 326.00
41.0684 345.00
41.1336 331.00
41.1988 363.00
41.264 365.00
41.3292 352.00
41.3944 366.00
41.4596 330.00
41.5248 300.00
41.59 348.00
41.6552 309.00
41.7204 316.00
41.7856 292.00
41.8508 297.00
41.916 332.00
41.9812 325.00
42.0464 291.00
42.1116 335.00
42.1768 324.00
42.242 323.00
42.3072 307.00
42.3724 317.00
42.4376 292.00
42.5028 314.00
42.568 317.00
42.6332 311.00
42.6983 329.00
42.7635 311.00
42.8287 303.00
42.8939 274.00
42.9591 313.00
43.0243 329.00
43.0895 308.00
43.1547 346.00
43.2199 307.00
43.2851 345.00
43.3503 326.00
43.4155 318.00
43.4807 327.00
43.5459 317.00
43.6111 269.00
43.6763 324.00
43.7415 329.00
43.8067 314.00
43.8719 324.00
43.9371 310.00
44.0023 412.00
44.0675 345.00
44.1327 383.00
44.1979 339.00
44.2631 315.00
44.3283 333.00
44.3935 293.00
44.4587 318.00
44.5239 297.00
44.5891 295.00
44.6543 306.00
44.7195 282.00
44.7847 287.00
44.8499 311.00
44.9151 318.00
44.9803 320.00
45.0455 281.00
45.1107 302.00
45.1759 286.00
45.2411 279.00
45.3063 274.00
45.3715 293.00
45.4367 256.00
45.5019 297.00
45.5671 300.00
45.6323 292.00
45.6975 243.00
45.7627 281.00
45.8279 307.00
45.8931 340.00
45.9583 311.00
46.0235 281.00
46.0887 318.00
46.1539 302.00
46.2191 296.00
46.2843 299.00
46.3495 286.00
46.4147 274.00
46.4799 317.00
46.5451 282.00
46.6103 297.00
46.6755 294.00
46.7407 292.00
46.8059 297.00
46.8711 304.00
46.9363 299.00
47.0015 300.00
47.0667 303.00
47.1319 256.00
47.1971 288.00
47.2623 304.00
47.3275 256.00
47.3927 258.00
47.4579 273.00
47.523 306.00
47.5882 289.00
47.6534 306.00
47.7186 357.00
47.7838 363.00
47.849 378.00
47.9142 384.00
47.9794 340.00
48.0446 363.00
48.1098 282.00
48.175 325.00
48.2402 316.00
48.3054 266.00
48.3706 301.00
48.4358 287.00
48.501 269.00
48.5662 282.00
48.6314 244.00
48.6966 279.00
48.7618 258.00
48.827 280.00
48.8922 270.00
48.9574 266.00
49.0226 274.00
49.0878 231.00
49.153 242.00
49.2182 302.00
49.2834 304.00
49.3486 250.00
49.4138 268.00
49.479 273.00
49.5442 265.00
49.6094 291.00
49.6746 291.00
49.7398 310.00
49.805 241.00
49.8702 267.00
49.9354 283.00
50.0006 284.00
50.0658 292.00
50.131 233.00
50.1962 271.00
50.2614 275.00
50.3266 271.00
50.3918 263.00
50.457 219.00
50.5222 242.00
50.5874 234.00
50.6526 261.00
50.7178 296.00
50.783 264.00
50.8482 245.00
50.9134 237.00
50.9786 244.00
51.0438 264.00
51.109 257.00
51.1742 279.00
51.2394 228.00
51.3046 244.00
51.3698 220.00
51.435 239.00
51.5002 271.00
51.5654 271.00
51.6306 242.00
51.6958 287.00
51.761 208.00
51.8262 274.00
51.8914 257.00
51.9566 272.00
52.0218 265.00
52.087 275.00
52.1522 243.00
52.2174 262.00
52.2826 273.00
52.3477 268.00
52.4129 295.00
52.4781 260.00
52.5433 277.00
52.6085 267.00
52.6737 239.00
52.7389 247.00
52.8041 239.00
52.8693 243.00
52.9345 257.00
52.9997 263.00
53.0649 245.00
53.1301 262.00
53.1953 264.00
53.2605 234.00
53.3257 245.00
53.3909 257.00
53.4561 231.00
53.5213 245.00
53.5865 260.00
53.6517 261.00
53.7169 285.00
53.7821 277.00
53.8473 248.00
53.9125 267.00
53.9777 237.00
54.0429 233.00
54.1081 262.00
54.1733 248.00
54.2385 239.00
54.3037 262.00
54.3689 239.00
54.4341 241.00
54.4993 238.00
54.5645 232.00
54.6297 210.00
54.6949 238.00
54.7601 204.00
54.8253 224.00
54.8905 203.00
54.9557 234.00
55.0209 220.00
55.0861 260.00
55.1513 213.00
55.2165 219.00
55.2817 223.00
55.3469 209.00
55.4121 226.00
55.4773 212.00
55.5425 246.00
55.6077 230.00
55.6729 261.00
55.7381 258.00
55.8033 198.00
55.8685 210.00
55.9337 266.00
55.9989 262.00
56.0641 237.00
56.1293 265.00
56.1945 237.00
56.2597 263.00
56.3249 244.00
56.3901 246.00
56.4553 240.00
56.5205 222.00
56.5857 239.00
56.6509 213.00
56.7161 204.00
56.7813 223.00
56.8465 243.00
56.9117 216.00
56.9769 224.00
57.042 227.00
57.1073 258.00
57.1724 216.00
57.2376 188.00
57.3028 214.00
57.368 249.00
57.4332 215.00
57.4984 211.00
57.5636 240.00
57.6288 266.00
57.694 239.00
57.7592 240.00
57.8244 226.00
57.8896 223.00
57.9548 247.00
58.02 213.00
58.0852 212.00
58.1504 230.00
58.2156 244.00
58.2808 218.00
58.346 228.00
58.4112 231.00
58.4764 230.00
58.5416 225.00
58.6068 216.00
58.672 187.00
58.7372 191.00
58.8024 236.00
58.8676 219.00
58.9328 209.00
58.998 210.00
59.0632 239.00
59.1284 230.00
59.1936 233.00
59.2588 257.00
59.324 289.00
59.3892 266.00
59.4544 264.00
59.5196 328.00
59.5848 282.00
59.65 242.00
59.7152 281.00
59.7804 257.00
59.8456 258.00
59.9108 228.00
59.976 221.00
60.0412 231.00
60.1064 197.00
60.1716 206.00
60.2368 182.00
60.302 205.00
60.3672 199.00
60.4324 216.00
60.4976 210.00
60.5628 186.00
60.628 205.00
60.6932 214.00
60.7584 171.00
60.8236 219.00
60.8888 204.00
60.954 209.00
61.0192 200.00
61.0844 225.00
61.1496 181.00
61.2148 193.00
61.28 170.00
61.3452 217.00
61.4104 214.00
61.4756 182.00
61.5408 228.00
61.606 217.00
61.6712 186.00
61.7364 198.00
61.8016 231.00
61.8667 197.00
61.932 186.00
61.9971 191.00
62.0623 227.00
62.1275 195.00
62.1927 182.00
62.2579 190.00
62.3231 212.00
62.3883 199.00
62.4535 183.00
62.5187 215.00
62.5839 186.00
62.6491 214.00
62.7143 197.00
62.7795 184.00
62.8447 202.00
62.9099 194.00
62.9751 200.00
63.0403 208.00
63.1055 205.00
63.1707 202.00
63.2359 196.00
63.3011 209.00
63.3663 176.00
63.4315 192.00
63.4967 183.00
63.5619 196.00
63.6271 172.00
63.6923 192.00
63.7575 197.00
63.8227 202.00
63.8879 194.00
63.9531 182.00
64.0183 168.00
64.0835 205.00
64.1487 196.00
64.2139 177.00
64.2791 208.00
64.3443 192.00
64.4095 180.00
64.4747 175.00
64.5399 198.00
64.6051 226.00
64.6703 167.00
64.7355 192.00
64.8007 215.00
64.8659 198.00
64.9311 192.00
64.9963 182.00
65.0615 196.00
65.1267 176.00
65.1919 182.00
65.2571 171.00
65.3223 176.00
65.3875 158.00
65.4527 208.00
65.5179 168.00
65.5831 178.00
65.6483 193.00
65.7135 180.00
65.7787 211.00
65.8439 185.00
65.9091 189.00
65.9743 188.00
66.0395 189.00
66.1047 180.00
66.1699 163.00
66.2351 190.00
66.3003 180.00
66.3655 194.00
66.4307 172.00
66.4959 203.00
66.561 199.00
66.6263 200.00
66.6915 199.00
66.7566 228.00
66.8218 220.00
66.887 204.00
66.9522 221.00
67.0174 192.00
67.0826 199.00
67.1478 191.00
67.213 206.00
67.2782 211.00
67.3434 182.00
67.4086 200.00
67.4738 222.00
67.539 232.00
67.6042 201.00
67.6694 187.00
67.7346 183.00
67.7998 217.00
67.865 204.00
67.9302 190.00
67.9954 187.00
68.0606 168.00
68.1258 170.00
68.191 196.00
68.2562 197.00
68.3214 207.00
68.3866 190.00
68.4518 211.00
68.517 223.00
68.5822 205.00
68.6474 178.00
68.7126 193.00
68.7778 173.00
68.843 192.00
68.9082 195.00
68.9734 170.00
69.0386 159.00
69.1038 191.00
69.169 217.00
69.2342 198.00
69.2994 172.00
69.3646 181.00
69.4298 182.00
69.495 184.00
69.5602 222.00
69.6254 190.00
69.6906 192.00
69.7558 203.00
69.821 176.00
69.8862 207.00
69.9514 164.00
70.0166 182.00
70.0818 197.00
70.147 196.00
70.2122 215.00
70.2774 190.00
70.3426 176.00
70.4078 206.00
70.473 182.00
70.5382 173.00
70.6034 189.00
70.6686 169.00
70.7338 191.00
70.799 201.00
70.8642 193.00
70.9294 213.00
70.9946 200.00
71.0598 164.00
71.125 177.00
71.1902 194.00
71.2554 202.00
71.3205 216.00
71.3858 203.00
71.451 147.00
71.5162 188.00
71.5813 184.00
71.6465 175.00
71.7117 190.00
71.7769 165.00
71.8421 186.00
71.9073 168.00
71.9725 206.00
72.0377 186.00
72.1029 177.00
72.1681 186.00
72.2333 175.00
72.2985 187.00
72.3637 176.00
72.4289 187.00
72.4941 190.00
72.5593 192.00
72.6245 200.00
72.6897 221.00
72.7549 211.00
72.8201 204.00
72.8853 187.00
72.9505 199.00
73.0157 184.00
73.0809 209.00
73.1461 191.00
73.2113 198.00
73.2765 201.00
73.3417 184.00
73.4069 207.00
73.4721 160.00
73.5373 230.00
73.6025 210.00
73.6677 218.00
73.7329 206.00
73.7981 199.00
73.8633 200.00
73.9285 210.00
73.9937 214.00
74.0589 185.00
74.1241 191.00
74.1893 198.00
74.2545 207.00
74.3197 198.00
74.3849 203.00
74.4501 184.00
74.5153 192.00
74.5805 215.00
74.6457 198.00
74.7109 214.00
74.7761 203.00
74.8413 202.00
74.9065 177.00
74.9717 206.00
75.0369 174.00
75.1021 164.00
75.1673 186.00
75.2325 195.00
75.2977 191.00
75.3629 196.00
75.4281 191.00
75.4933 192.00
75.5585 196.00
75.6237 211.00
75.6889 209.00
75.7541 210.00
75.8193 200.00
75.8845 185.00
75.9497 199.00
76.0149 214.00
76.0801 193.00
76.1452 190.00
76.2104 194.00
76.2756 201.00
76.3409 202.00
76.406 193.00
76.4712 224.00
76.5364 205.00
76.6016 204.00
76.6668 200.00
76.732 211.00
76.7972 192.00
76.8624 187.00
76.9276 181.00
76.9928 203.00
77.058 217.00
77.1232 221.00
77.1884 196.00
77.2536 246.00
77.3188 209.00
77.384 207.00
77.4492 197.00
77.5144 216.00
77.5796 224.00
77.6448 223.00
77.71 214.00
77.7752 201.00
77.8404 204.00
77.9056 208.00
77.9708 201.00
78.036 206.00
78.1012 235.00
78.1664 188.00
78.2316 212.00
78.2968 215.00
78.362 224.00
78.4272 214.00
78.4924 240.00
78.5576 209.00
78.6228 231.00
78.688 197.00
78.7532 230.00
78.8184 215.00
78.8836 222.00
78.9488 245.00
79.014 210.00
79.0792 208.00
79.1444 239.00
79.2096 210.00
79.2748 247.00
79.34 206.00
79.4052 211.00
79.4704 217.00
79.5356 235.00
79.6008 212.00
79.666 219.00
79.7312 223.00
79.7964 205.00
79.8616 219.00
79.9268 234.00
79.992 226.00
80.0572 237.00
80.1224 213.00
80.1876 219.00
80.2528 215.00
80.318 199.00
80.3832 234.00
80.4484 218.00
80.5136 188.00
80.5788 227.00
80.644 187.00
80.7092 230.00
80.7744 240.00
80.8396 236.00
80.9048 220.00
80.9699 190.00
81.0351 210.00
81.1003 221.00
81.1655 186.00
81.2307 243.00
81.2959 211.00
81.3611 236.00
81.4263 212.00
81.4915 266.00
81.5567 177.00
81.6219 235.00
81.6871 222.00
81.7523 213.00
81.8175 207.00
81.8827 228.00
81.9479 238.00
82.0131 225.00
82.0783 231.00
82.1435 244.00
82.2087 213.00
82.2739 208.00
82.3391 196.00
82.4043 211.00
82.4695 208.00
82.5347 217.00
82.5999 205.00
82.6651 201.00
82.7303 219.00
82.7955 244.00
82.8607 223.00
82.9259 242.00
82.9911 233.00
83.0563 256.00
83.1215 257.00
83.1867 216.00
83.2519 229.00
83.3171 219.00
83.3823 229.00
83.4475 230.00
83.5127 222.00
83.5779 209.00
83.6431 267.00
83.7083 211.00
83.7735 202.00
83.8387 205.00
83.9039 226.00
83.9691 177.00
84.0343 227.00
84.0995 208.00
84.1647 222.00
84.2299 195.00
84.2951 215.00
84.3603 207.00
84.4255 225.00
84.4907 204.00
84.5559 205.00
84.6211 221.00
84.6863 176.00
84.7515 200.00
84.8167 222.00
84.8819 169.00
84.9471 227.00
85.0123 214.00
85.0775 179.00
85.1427 222.00
85.2079 194.00
85.2731 206.00
85.3383 230.00
85.4035 175.00
85.4687 249.00
85.5339 187.00
85.5991 217.00
85.6643 195.00
85.7295 190.00
85.7946 213.00
85.8598 229.00
85.925 212.00
85.9903 220.00
86.0554 227.00
86.1206 217.00
86.1858 201.00
86.251 199.00
86.3162 192.00
86.3814 185.00
86.4466 206.00
86.5118 202.00
86.577 191.00
86.6422 216.00
86.7074 187.00
86.7726 195.00
86.8378 203.00
86.903 201.00
86.9682 196.00
87.0334 206.00
87.0986 213.00
87.1638 222.00
87.229 164.00
87.2942 217.00
87.3594 187.00
87.4246 184.00
87.4898 195.00
87.555 172.00
87.6202 204.00
87.6854 168.00
87.7506 195.00
87.8158 178.00
87.881 187.00
87.9462 170.00
88.0114 195.00
88.0766 168.00
88.1418 201.00
88.207 190.00
88.2722 202.00
88.3374 211.00
88.4026 182.00
88.4678 200.00
88.533 193.00
88.5982 182.00
88.6634 199.00
88.7286 192.00
88.7938 204.00
88.859 195.00
88.9242 195.00
88.9894 195.00
89.0546 197.00
89.1198 208.00
89.185 184.00
89.2502 208.00
89.3154 214.00
89.3806 178.00
89.4458 196.00
89.511 203.00
89.5762 204.00
89.6414 199.00
89.7066 187.00
89.7718 189.00
89.837 187.00
89.9022 184.00
89.9674 180.00
90.0326 208.00
90.0978 172.00
90.163 177.00
90.2282 169.00
90.2934 182.00
90.3586 199.00
90.4238 176.00
90.489 158.00
90.5542 194.00
90.6193 175.00
90.6845 180.00
90.7497 182.00
90.8149 192.00
90.8801 203.00
90.9453 183.00
91.0105 198.00
91.0757 199.00
91.1409 180.00
91.2061 182.00
91.2713 213.00
91.3365 156.00
91.4017 187.00
91.4669 159.00
91.5321 171.00
91.5973 172.00
91.6625 159.00
91.7277 183.00
91.7929 177.00
91.8581 194.00
91.9233 174.00
91.9885 152.00
92.0537 198.00
92.1189 200.00
92.1841 194.00
92.2493 165.00
92.3145 169.00
92.3797 182.00
92.4449 176.00
92.5101 177.00
92.5753 175.00
92.6405 144.00
92.7057 178.00
92.7709 179.00
92.8361 207.00
92.9013 173.00
92.9665 192.00
93.0317 172.00
93.0969 187.00
93.1621 175.00
93.2273 194.00
93.2925 195.00
93.3577 197.00
93.4229 201.00
93.4881 173.00
93.5533 188.00
93.6185 163.00
93.6837 185.00
93.7489 178.00
93.8141 181.00
93.8793 181.00
93.9445 178.00
94.0097 170.00
94.0749 182.00
94.1401 164.00
94.2053 180.00
94.2705 208.00
94.3357 206.00
94.4009 163.00
94.4661 174.00
94.5313 162.00
94.5965 178.00
94.6617 190.00
94.7269 176.00
94.7921 175.00
94.8573 193.00
94.9225 193.00
94.9877 158.00
95.0529 207.00
95.1181 165.00
95.1833 198.00
95.2485 187.00
95.3137 169.00
95.3789 176.00
95.444 176.00
95.5092 179.00
95.5744 193.00
95.6396 185.00
95.7048 194.00
95.77 204.00
95.8352 176.00
95.9004 164.00
95.9656 190.00
96.0308 200.00
96.096 162.00
96.1612 174.00
96.2264 188.00
96.2916 168.00
96.3568 185.00
96.422 193.00
96.4872 178.00
96.5524 196.00
96.6176 167.00
96.6828 153.00
96.748 200.00
96.8132 183.00
96.8784 178.00
96.9436 207.00
97.0088 234.00
97.074 189.00
97.1392 176.00
97.2044 153.00
97.2696 146.00
97.3348 172.00
97.4 171.00
97.4652 181.00
97.5304 156.00
97.5956 175.00
97.6608 184.00
97.726 176.00
97.7912 182.00
97.8564 172.00
97.9216 190.00
97.9868 191.00
98.052 193.00
98.1172 171.00
98.1824 148.00
98.2476 165.00
98.3128 195.00
98.378 200.00
98.4432 194.00
98.5084 171.00
98.5736 189.00
98.6388 200.00
98.704 179.00
98.7692 196.00
98.8344 163.00
98.8996 171.00
98.9648 171.00
99.03 192.00
99.0952 172.00
99.1604 190.00
99.2256 189.00
99.2908 170.00
99.356 161.00
99.4212 146.00
99.4864 166.00
99.5516 148.00
99.6168 180.00
99.682 186.00
99.7472 189.00
99.8124 196.00
99.8776 162.00
99.9428 182.00
100.008 166.00
100.073 175.00
100.095 164.00