File: data/xrd_creation/results/NSC_1.xy
10.0094 2399.00
10.0746 2408.00
10.1398 2400.00
10.205 2402.00
10.2702 2330.00
10.3354 2353.00
10.4006 2294.00
10.4658 2274.00
10.531 2266.00
10.5962 2155.00
10.6614 2159.00
10.7266 2208.00
10.7918 2106.00
10.857 2134.00
10.9222 2050.00
10.9874 2115.00
11.0526 2164.00
11.1178 2010.00
11.183 2021.00
11.2482 2059.00
11.3134 1984.00
11.3786 2059.00
11.4438 1999.00
11.509 2054.00
11.5742 2118.00
11.6394 2134.00
11.7046 2242.00
11.7698 2313.00
11.835 2314.00
11.9002 2249.00
11.9654 2062.00
12.0306 1993.00
12.0958 1924.00
12.161 1917.00
12.2262 1838.00
12.2914 1862.00
12.3566 1783.00
12.4218 1789.00
12.487 1741.00
12.5522 1711.00
12.6174 1787.00
12.6826 1786.00
12.7478 1701.00
12.813 1786.00
12.8782 1776.00
12.9434 1691.00
13.0086 1706.00
13.0738 1658.00
13.139 1674.00
13.2042 1656.00
13.2694 1661.00
13.3346 1734.00
13.3998 1695.00
13.465 1659.00
13.5302 1788.00
13.5954 1815.00
13.6606 1942.00
13.7258 2203.00
13.791 2434.00
13.8562 2731.00
13.9214 2695.00
13.9865 2152.00
14.0517 1842.00
14.1169 1639.00
14.1821 1510.00
14.2473 1567.00
14.3125 1573.00
14.3777 1535.00
14.4429 1473.00
14.5081 1542.00
14.5733 1470.00
14.6385 1481.00
14.7037 1442.00
14.7689 1517.00
14.8341 1498.00
14.8993 1490.00
14.9645 1464.00
15.0297 1442.00
15.0949 1432.00
15.1601 1458.00
15.2253 1465.00
15.2905 1422.00
15.3557 1397.00
15.4209 1469.00
15.4861 1434.00
15.5513 1425.00
15.6165 1398.00
15.6817 1383.00
15.7469 1458.00
15.8121 1352.00
15.8773 1452.00
15.9425 1428.00
16.0077 1416.00
16.0729 1363.00
16.1381 1445.00
16.2033 1377.00
16.2685 1362.00
16.3337 1294.00
16.3989 1350.00
16.4641 1350.00
16.5293 1362.00
16.5945 1390.00
16.6597 1351.00
16.7249 1341.00
16.7901 1305.00
16.8553 1340.00
16.9205 1328.00
16.9857 1346.00
17.0509 1342.00
17.1161 1299.00
17.1813 1255.00
17.2465 1346.00
17.3117 1323.00
17.3769 1272.00
17.4421 1291.00
17.5073 1321.00
17.5725 1324.00
17.6377 1325.00
17.7029 1312.00
17.7681 1201.00
17.8333 1219.00
17.8985 1312.00
17.9637 1239.00
18.0289 1282.00
18.0941 1223.00
18.1593 1242.00
18.2245 1233.00
18.2897 1191.00
18.3549 1251.00
18.4201 1221.00
18.4853 1247.00
18.5505 1336.00
18.6157 1229.00
18.6809 1299.00
18.7461 1358.00
18.8112 1299.00
18.8764 1366.00
18.9416 1491.00
19.0068 1660.00
19.072 1930.00
19.1372 2517.00
19.2024 3636.00
19.2676 5392.00
19.3328 6964.00
19.398 6833.00
19.4632 4709.00
19.5284 2813.00
19.5936 1979.00
19.6588 1891.00
19.724 2224.00
19.7892 3043.00
19.8544 4210.00
19.9196 5967.00
19.9848 7163.00
20.05 6500.00
20.1152 4545.00
20.1804 2907.00
20.2456 1900.00
20.3108 1448.00
20.376 1284.00
20.4412 1225.00
20.5064 1222.00
20.5716 1220.00
20.6368 1143.00
20.702 1174.00
20.7672 1166.00
20.8324 1164.00
20.8976 1149.00
20.9628 1198.00
21.028 1097.00
21.0932 1092.00
21.1584 1108.00
21.2236 1049.00
21.2888 1080.00
21.354 1147.00
21.4192 1178.00
21.4844 1129.00
21.5496 1212.00
21.6148 1271.00
21.68 1278.00
21.7452 1281.00
21.8104 1204.00
21.8756 1247.00
21.9408 1221.00
22.006 1171.00
22.0712 1184.00
22.1364 1116.00
22.2016 1127.00
22.2668 1082.00
22.332 1167.00
22.3972 1207.00
22.4624 1253.00
22.5276 1327.00
22.5928 1411.00
22.658 1450.00
22.7232 1498.00
22.7884 1492.00
22.8536 1505.00
22.9188 1412.00
22.984 1579.00
23.0492 2003.00
23.1144 2487.00
23.1796 2884.00
23.2448 2722.00
23.31 2090.00
23.3752 1699.00
23.4404 1323.00
23.5056 1137.00
23.5708 1056.00
23.6359 1092.00
23.7011 1038.00
23.7663 1065.00
23.8315 980.00
23.8967 1058.00
23.9619 1028.00
24.0271 1068.00
24.0923 1123.00
24.1575 1076.00
24.2227 975.00
24.2879 991.00
24.3531 1004.00
24.4183 1055.00
24.4835 1002.00
24.5487 1028.00
24.6139 1075.00
24.6791 1006.00
24.7443 896.00
24.8095 958.00
24.8747 921.00
24.9399 957.00
25.0051 942.00
25.0703 937.00
25.1355 953.00
25.2007 938.00
25.2659 959.00
25.3311 911.00
25.3963 915.00
25.4615 938.00
25.5267 901.00
25.5919 894.00
25.6571 893.00
25.7223 863.00
25.7875 1013.00
25.8527 876.00
25.9179 920.00
25.9831 856.00
26.0483 865.00
26.1135 883.00
26.1787 969.00
26.2439 886.00
26.3091 970.00
26.3743 1132.00
26.4395 1223.00
26.5047 1365.00
26.5699 1361.00
26.6351 1219.00
26.7003 1012.00
26.7655 966.00
26.8307 916.00
26.8959 828.00
26.9611 907.00
27.0263 900.00
27.0915 876.00
27.1567 869.00
27.2219 907.00
27.2871 962.00
27.3523 889.00
27.4175 1038.00
27.4827 960.00
27.5479 1032.00
27.6131 1157.00
27.6783 1155.00
27.7435 1505.00
27.8087 2059.00
27.8739 3083.00
27.9391 4230.00
28.0043 4530.00
28.0695 3853.00
28.1347 2612.00
28.1999 1896.00
28.2651 1625.00
28.3303 1662.00
28.3955 1599.00
28.4606 1205.00
28.5258 938.00
28.591 945.00
28.6562 848.00
28.7214 830.00
28.7866 842.00
28.8518 814.00
28.917 792.00
28.9822 788.00
29.0474 822.00
29.1126 798.00
29.1778 802.00
29.243 836.00
29.3082 790.00
29.3734 804.00
29.4386 816.00
29.5038 851.00
29.569 815.00
29.6342 853.00
29.6994 817.00
29.7646 856.00
29.8298 919.00
29.895 949.00
29.9602 1070.00
30.0254 1148.00
30.0906 1144.00
30.1558 1068.00
30.221 982.00
30.2862 989.00
30.3514 944.00
30.4166 947.00
30.4818 1037.00
30.547 1210.00
30.6122 1355.00
30.6774 1767.00
30.7426 2468.00
30.8078 3623.00
30.873 5484.00
30.9382 7013.00
31.0034 6819.00
31.0686 5219.00
31.1338 3280.00
31.199 2034.00
31.2642 1366.00
31.3294 1099.00
31.3946 1107.00
31.4598 1124.00
31.525 1321.00
31.5902 1381.00
31.6554 1354.00
31.7206 1113.00
31.7858 949.00
31.851 956.00
31.9162 898.00
31.9814 784.00
32.0466 816.00
32.1118 725.00
32.177 705.00
32.2422 761.00
32.3074 765.00
32.3726 750.00
32.4378 739.00
32.503 735.00
32.5682 733.00
32.6334 758.00
32.6986 679.00
32.7638 750.00
32.829 770.00
32.8942 697.00
32.9594 732.00
33.0246 736.00
33.0898 668.00
33.1549 712.00
33.2201 773.00
33.2853 838.00
33.3505 911.00
33.4157 1030.00
33.4809 1079.00
33.5461 1165.00
33.6113 1203.00
33.6765 1331.00
33.7417 1434.00
33.8069 1701.00
33.8721 1786.00
33.9373 1595.00
34.0025 1248.00
34.0677 1084.00
34.1329 976.00
34.1981 1010.00
34.2633 1029.00
34.3285 1061.00
34.3937 1171.00
34.4589 1627.00
34.5241 2228.00
34.5893 2940.00
34.6545 3197.00
34.7197 3238.00
34.7849 2904.00
34.8501 2720.00
34.9153 3074.00
34.9805 3223.00
35.0457 3332.00
35.1109 2901.00
35.1761 2367.00
35.2413 1772.00
35.3065 1339.00
35.3717 1142.00
35.4369 1088.00
35.5021 1015.00
35.5673 922.00
35.6325 794.00
35.6977 761.00
35.7629 735.00
35.8281 720.00
35.8933 761.00
35.9585 801.00
36.0237 806.00
36.0889 828.00
36.1541 765.00
36.2193 697.00
36.2845 689.00
36.3497 674.00
36.4149 693.00
36.4801 679.00
36.5453 634.00
36.6105 663.00
36.6757 636.00
36.7409 646.00
36.8061 611.00
36.8713 630.00
36.9365 656.00
37.0017 604.00
37.0669 614.00
37.1321 605.00
37.1973 621.00
37.2625 636.00
37.3277 598.00
37.3929 657.00
37.4581 630.00
37.5233 679.00
37.5885 664.00
37.6537 654.00
37.7189 631.00
37.7841 710.00
37.8493 748.00
37.9145 759.00
37.9796 733.00
38.0448 682.00
38.11 619.00
38.1752 658.00
38.2404 629.00
38.3056 630.00
38.3708 646.00
38.436 656.00
38.5012 575.00
38.5664 582.00
38.6316 686.00
38.6968 624.00
38.762 647.00
38.8272 721.00
38.8924 718.00
38.9576 712.00
39.0228 669.00
39.088 749.00
39.1532 717.00
39.2184 884.00
39.2836 883.00
39.3488 1028.00
39.414 1014.00
39.4792 949.00
39.5444 782.00
39.6096 698.00
39.6748 720.00
39.74 643.00
39.8052 619.00
39.8704 622.00
39.9356 629.00
40.0008 625.00
40.066 650.00
40.1312 616.00
40.1964 667.00
40.2616 655.00
40.3268 658.00
40.392 703.00
40.4572 786.00
40.5224 949.00
40.5876 1041.00
40.6528 1143.00
40.718 1134.00
40.7832 1040.00
40.8484 1094.00
40.9136 1029.00
40.9788 1093.00
41.044 1129.00
41.1092 1115.00
41.1744 1298.00
41.2396 1325.00
41.3048 1373.00
41.37 1260.00
41.4352 1046.00
41.5004 908.00
41.5656 877.00
41.6308 792.00
41.696 743.00
41.7612 686.00
41.8264 710.00
41.8916 657.00
41.9568 653.00
42.022 711.00
42.0872 658.00
42.1524 713.00
42.2176 737.00
42.2828 807.00
42.348 925.00
42.4132 1178.00
42.4784 1332.00
42.5436 1573.00
42.6088 1495.00
42.6739 1274.00
42.7392 1147.00
42.8043 968.00
42.8695 878.00
42.9347 783.00
42.9999 715.00
43.0651 753.00
43.1303 812.00
43.1955 840.00
43.2607 704.00
43.3259 679.00
43.3911 645.00
43.4563 662.00
43.5215 643.00
43.5867 558.00
43.6519 639.00
43.7171 626.00
43.7823 611.00
43.8475 609.00
43.9127 609.00
43.9779 634.00
44.0431 635.00
44.1083 678.00
44.1735 675.00
44.2387 786.00
44.3039 814.00
44.3691 1009.00
44.4343 1257.00
44.4995 1465.00
44.5647 1569.00
44.6299 1310.00
44.6951 1158.00
44.7603 949.00
44.8255 821.00
44.8907 848.00
44.9559 745.00
45.0211 703.00
45.0863 777.00
45.1515 871.00
45.2167 1037.00
45.2819 1325.00
45.3471 1637.00
45.4123 1814.00
45.4775 1874.00
45.5427 1641.00
45.6079 1476.00
45.6731 1224.00
45.7383 1097.00
45.8035 1015.00
45.8687 927.00
45.9339 904.00
45.9991 961.00
46.0643 1088.00
46.1295 1204.00
46.1947 1386.00
46.2599 1510.00
46.3251 1542.00
46.3903 1496.00
46.4555 1342.00
46.5207 1163.00
46.5859 971.00
46.6511 906.00
46.7163 761.00
46.7815 733.00
46.8467 717.00
46.9119 758.00
46.9771 747.00
47.0423 735.00
47.1075 821.00
47.1727 956.00
47.2379 1107.00
47.3031 1455.00
47.3683 1885.00
47.4335 2102.00
47.4986 2171.00
47.5639 1988.00
47.629 1660.00
47.6942 1330.00
47.7594 1191.00
47.8246 1053.00
47.8898 939.00
47.955 910.00
48.0202 889.00
48.0854 785.00
48.1506 783.00
48.2158 733.00
48.281 705.00
48.3462 710.00
48.4114 656.00
48.4766 610.00
48.5418 630.00
48.607 599.00
48.6722 625.00
48.7374 615.00
48.8026 580.00
48.8678 548.00
48.933 630.00
48.9982 565.00
49.0634 626.00
49.1286 638.00
49.1938 611.00
49.259 593.00
49.3242 638.00
49.3894 620.00
49.4546 726.00
49.5198 723.00
49.585 775.00
49.6502 725.00
49.7154 686.00
49.7806 652.00
49.8458 731.00
49.911 690.00
49.9762 765.00
50.0414 822.00
50.1066 909.00
50.1718 938.00
50.237 858.00
50.3022 915.00
50.3674 955.00
50.4326 1058.00
50.4978 1048.00
50.563 1075.00
50.6282 1141.00
50.6934 1300.00
50.7586 1704.00
50.8238 2165.00
50.889 2374.00
50.9542 2454.00
51.0194 2174.00
51.0846 1742.00
51.1498 1364.00
51.215 1260.00
51.2802 1026.00
51.3454 866.00
51.4106 826.00
51.4758 757.00
51.541 806.00
51.6062 928.00
51.6714 1008.00
51.7366 1012.00
51.8018 917.00
51.867 840.00
51.9322 707.00
51.9974 631.00
52.0626 652.00
52.1278 639.00
52.193 545.00
52.2582 615.00
52.3233 605.00
52.3886 599.00
52.4537 604.00
52.5189 631.00
52.5841 630.00
52.6493 699.00
52.7145 631.00
52.7797 682.00
52.8449 743.00
52.9101 697.00
52.9753 701.00
53.0405 696.00
53.1057 592.00
53.1709 623.00
53.2361 615.00
53.3013 650.00
53.3665 673.00
53.4317 711.00
53.4969 734.00
53.5621 828.00
53.6273 938.00
53.6925 956.00
53.7577 897.00
53.8229 929.00
53.8881 884.00
53.9533 854.00
54.0185 860.00
54.0837 840.00
54.1489 927.00
54.2141 992.00
54.2793 1275.00
54.3445 1447.00
54.4097 1725.00
54.4749 1898.00
54.5401 2131.00
54.6053 2269.00
54.6705 2370.00
54.7357 2352.00
54.8009 2175.00
54.8661 1855.00
54.9313 1631.00
54.9965 1445.00
55.0617 1150.00
55.1269 1089.00
55.1921 941.00
55.2573 765.00
55.3225 747.00
55.3877 679.00
55.4529 698.00
55.5181 663.00
55.5833 680.00
55.6485 688.00
55.7137 681.00
55.7789 665.00
55.8441 717.00
55.9093 698.00
55.9745 708.00
56.0397 635.00
56.1049 634.00
56.1701 654.00
56.2353 621.00
56.3005 656.00
56.3657 658.00
56.4309 624.00
56.4961 619.00
56.5613 618.00
56.6265 537.00
56.6917 559.00
56.7569 553.00
56.8221 562.00
56.8873 563.00
56.9525 537.00
57.0177 604.00
57.0829 573.00
57.148 587.00
57.2132 571.00
57.2784 541.00
57.3436 579.00
57.4088 647.00
57.474 680.00
57.5392 775.00
57.6044 837.00
57.6696 916.00
57.7348 982.00
57.8 1119.00
57.8652 1172.00
57.9304 1079.00
57.9956 1057.00
58.0608 949.00
58.126 940.00
58.1912 800.00
58.2564 744.00
58.3216 791.00
58.3868 756.00
58.452 724.00
58.5172 685.00
58.5824 709.00
58.6476 723.00
58.7128 787.00
58.778 733.00
58.8432 786.00
58.9084 761.00
58.9736 794.00
59.0388 914.00
59.104 1015.00
59.1692 1131.00
59.2344 1265.00
59.2996 1521.00
59.3648 1574.00
59.43 1520.00
59.4952 1423.00
59.5604 1279.00
59.6256 1040.00
59.6908 922.00
59.756 801.00
59.8212 792.00
59.8864 819.00
59.9516 810.00
60.0168 849.00
60.082 956.00
60.1472 1233.00
60.2124 1347.00
60.2776 1544.00
60.3428 1584.00
60.408 1565.00
60.4732 1517.00
60.5384 1376.00
60.6036 1202.00
60.6688 1146.00
60.734 1010.00
60.7992 1009.00
60.8644 825.00
60.9296 744.00
60.9948 778.00
61.06 696.00
61.1252 648.00
61.1904 710.00
61.2556 611.00
61.3208 675.00
61.386 634.00
61.4512 725.00
61.5164 794.00
61.5816 853.00
61.6468 974.00
61.712 1023.00
61.7772 1117.00
61.8424 1183.00
61.9076 1240.00
61.9727 1173.00
62.0379 1175.00
62.1031 1013.00
62.1683 990.00
62.2335 916.00
62.2987 912.00
62.3639 926.00
62.4291 944.00
62.4943 1004.00
62.5595 1041.00
62.6247 1098.00
62.6899 1066.00
62.7551 1137.00
62.8203 1107.00
62.8855 1049.00
62.9507 1093.00
63.0159 1084.00
63.0811 1083.00
63.1463 1088.00
63.2115 1138.00
63.2767 1093.00
63.3419 1088.00
63.4071 980.00
63.4723 858.00
63.5375 832.00
63.6027 762.00
63.6679 714.00
63.7331 640.00
63.7983 630.00
63.8635 631.00
63.9287 594.00
63.9939 604.00
64.0591 566.00
64.1243 646.00
64.1895 592.00
64.2547 640.00
64.3199 647.00
64.3851 645.00
64.4503 673.00
64.5155 680.00
64.5807 684.00
64.6459 748.00
64.7111 747.00
64.7763 714.00
64.8415 798.00
64.9067 768.00
64.9719 683.00
65.0371 677.00
65.1023 634.00
65.1675 672.00
65.2327 627.00
65.2979 746.00
65.3631 736.00
65.4283 815.00
65.4935 820.00
65.5587 952.00
65.6239 1000.00
65.6891 1177.00
65.7543 1274.00
65.8195 1301.00
65.8847 1283.00
65.9499 1126.00
66.0151 1113.00
66.0803 1013.00
66.1455 932.00
66.2107 893.00
66.2759 912.00
66.3411 921.00
66.4063 979.00
66.4715 996.00
66.5367 923.00
66.6019 961.00
66.6671 928.00
66.7322 849.00
66.7974 898.00
66.8626 916.00
66.9278 912.00
66.993 995.00
67.0582 1055.00
67.1234 997.00
67.1886 990.00
67.2538 998.00
67.319 917.00
67.3842 816.00
67.4494 758.00
67.5146 704.00
67.5798 679.00
67.645 746.00
67.7102 668.00
67.7754 703.00
67.8406 713.00
67.9058 789.00
67.971 762.00
68.0362 758.00
68.1014 739.00
68.1666 782.00
68.2318 746.00
68.297 710.00
68.3622 677.00
68.4274 683.00
68.4926 670.00
68.5578 584.00
68.623 568.00
68.6882 514.00
68.7534 603.00
68.8186 621.00
68.8838 529.00
68.949 602.00
69.0142 602.00
69.0794 604.00
69.1446 611.00
69.2098 600.00
69.275 628.00
69.3402 588.00
69.4054 675.00
69.4706 615.00
69.5358 620.00
69.601 651.00
69.6662 602.00
69.7314 683.00
69.7966 659.00
69.8618 706.00
69.927 805.00
69.9922 857.00
70.0574 918.00
70.1226 947.00
70.1878 987.00
70.253 1045.00
70.3182 964.00
70.3834 913.00
70.4486 854.00
70.5138 769.00
70.579 772.00
70.6442 748.00
70.7094 689.00
70.7746 719.00
70.8398 631.00
70.905 668.00
70.9702 630.00
71.0354 645.00
71.1006 603.00
71.1658 625.00
71.231 636.00
71.2962 590.00
71.3614 610.00
71.4266 633.00
71.4918 605.00
71.5569 720.00
71.6221 623.00
71.6873 636.00
71.7525 628.00
71.8177 611.00
71.8829 549.00
71.9481 556.00
72.0133 536.00
72.0785 552.00
72.1437 544.00
72.2089 518.00
72.2741 547.00
72.3393 548.00
72.4045 547.00
72.4697 548.00
72.5349 572.00
72.6001 573.00
72.6653 632.00
72.7305 643.00
72.7957 699.00
72.8609 721.00
72.9261 800.00
72.9913 863.00
73.0565 900.00
73.1217 954.00
73.1869 986.00
73.2521 951.00
73.3173 850.00
73.3825 835.00
73.4477 844.00
73.5129 754.00
73.5781 724.00
73.6433 718.00
73.7085 781.00
73.7737 769.00
73.8389 819.00
73.9041 829.00
73.9693 923.00
74.0345 932.00
74.0997 919.00
74.1649 915.00
74.2301 913.00
74.2953 882.00
74.3605 852.00
74.4257 843.00
74.4909 844.00
74.5561 748.00
74.6213 756.00
74.6865 744.00
74.7517 753.00
74.8169 728.00
74.8821 710.00
74.9473 693.00
75.0125 705.00
75.0777 674.00
75.1429 635.00
75.2081 667.00
75.2733 610.00
75.3385 633.00
75.4037 608.00
75.4689 650.00
75.5341 594.00
75.5993 615.00
75.6645 630.00
75.7297 624.00
75.7949 623.00
75.8601 584.00
75.9253 619.00
75.9905 617.00
76.0557 613.00
76.1209 596.00
76.186 596.00
76.2513 581.00
76.3165 616.00
76.3816 593.00
76.4468 655.00
76.512 592.00
76.5772 675.00
76.6424 663.00
76.7076 651.00
76.7728 696.00
76.838 681.00
76.9032 708.00
76.9684 714.00
77.0336 688.00
77.0988 672.00
77.164 693.00
77.2292 693.00
77.2944 749.00
77.3596 786.00
77.4248 849.00
77.49 849.00
77.5552 851.00
77.6204 878.00
77.6856 895.00
77.7508 883.00
77.816 921.00
77.8812 938.00
77.9464 883.00
78.0116 973.00
78.0768 893.00
78.142 934.00
78.2072 869.00
78.2724 852.00
78.3376 833.00
78.4028 824.00
78.468 784.00
78.5332 815.00
78.5984 791.00
78.6636 771.00
78.7288 770.00
78.794 722.00
78.8592 760.00
78.9244 712.00
78.9896 681.00
79.0548 677.00
79.12 654.00
79.1852 621.00
79.2504 610.00
79.3156 633.00
79.3808 613.00
79.446 634.00
79.5112 643.00
79.5764 643.00
79.6416 638.00
79.7068 623.00
79.772 673.00
79.8372 664.00
79.9024 720.00
79.9676 690.00
80.0328 695.00
80.098 784.00
80.1632 784.00
80.2284 865.00
80.2936 837.00
80.3588 823.00
80.424 813.00
80.4892 771.00
80.5544 723.00
80.6196 711.00
80.6848 663.00
80.75 660.00
80.8152 669.00
80.8804 635.00
80.9456 657.00
81.0108 703.00
81.076 629.00
81.1412 667.00
81.2063 678.00
81.2715 687.00
81.3367 675.00
81.4019 672.00
81.4671 705.00
81.5323 731.00
81.5975 718.00
81.6627 696.00
81.7279 657.00
81.7931 725.00
81.8583 748.00
81.9235 747.00
81.9887 687.00
82.0539 734.00
82.1191 752.00
82.1843 729.00
82.2495 785.00
82.3147 798.00
82.3799 840.00
82.4451 861.00
82.5103 847.00
82.5755 792.00
82.6407 761.00
82.7059 724.00
82.7711 735.00
82.8363 738.00
82.9015 693.00
82.9667 704.00
83.0319 607.00
83.0971 681.00
83.1623 604.00
83.2275 622.00
83.2927 607.00
83.3579 629.00
83.4231 614.00
83.4883 640.00
83.5535 710.00
83.6187 683.00
83.6839 725.00
83.7491 747.00
83.8143 752.00
83.8795 657.00
83.9447 718.00
84.0099 679.00
84.0751 699.00
84.1403 697.00
84.2055 705.00
84.2707 741.00
84.3359 761.00
84.4011 743.00
84.4663 758.00
84.5315 706.00
84.5967 716.00
84.6619 717.00
84.7271 741.00
84.7923 658.00
84.8575 693.00
84.9227 688.00
84.9879 646.00
85.0531 644.00
85.1183 610.00
85.1835 668.00
85.2487 651.00
85.3139 665.00
85.3791 655.00
85.4443 707.00
85.5095 726.00
85.5747 661.00
85.6399 712.00
85.7051 744.00
85.7703 736.00
85.8354 719.00
85.9006 744.00
85.9659 711.00
86.031 730.00
86.0962 755.00
86.1614 733.00
86.2266 720.00
86.2918 709.00
86.357 667.00
86.4222 695.00
86.4874 607.00
86.5526 676.00
86.6178 626.00
86.683 654.00
86.7482 655.00
86.8134 648.00
86.8786 620.00
86.9438 633.00
87.009 697.00
87.0742 656.00
87.1394 680.00
87.2046 718.00
87.2698 736.00
87.335 689.00
87.4002 682.00
87.4654 630.00
87.5306 634.00
87.5958 701.00
87.661 690.00
87.7262 658.00
87.7914 765.00
87.8566 710.00
87.9218 714.00
87.987 746.00
88.0522 780.00
88.1174 830.00
88.1826 839.00
88.2478 901.00
88.313 869.00
88.3782 955.00
88.4434 952.00
88.5086 962.00
88.5738 968.00
88.639 894.00
88.7042 927.00
88.7694 891.00
88.8346 844.00
88.8998 841.00
88.965 794.00
89.0302 737.00
89.0954 760.00
89.1606 753.00
89.2258 730.00
89.291 682.00
89.3562 753.00
89.4214 717.00
89.4866 707.00
89.5518 719.00
89.617 745.00
89.6822 727.00
89.7474 676.00
89.8126 705.00
89.8778 734.00
89.943 669.00
90.0082 690.00
90.0734 682.00
90.1386 657.00
90.2038 699.00
90.269 712.00
90.3342 673.00
90.3994 729.00
90.4646 789.00
90.5298 774.00
90.595 763.00
90.6601 845.00
90.7253 782.00
90.7905 823.00
90.8557 816.00
90.9209 822.00
90.9861 776.00
91.0513 802.00
91.1165 792.00
91.1817 798.00
91.2469 722.00
91.3121 750.00
91.3773 711.00
91.4425 703.00
91.5077 675.00
91.5729 735.00
91.6381 674.00
91.7033 671.00
91.7685 654.00
91.8337 677.00
91.8989 585.00
91.9641 608.00
92.0293 634.00
92.0945 652.00
92.1597 588.00
92.2249 622.00
92.2901 621.00
92.3553 604.00
92.4205 660.00
92.4857 646.00
92.5509 644.00
92.6161 680.00
92.6813 697.00
92.7465 695.00
92.8117 739.00
92.8769 725.00
92.9421 722.00
93.0073 743.00
93.0725 822.00
93.1377 747.00
93.2029 757.00
93.2681 763.00
93.3333 714.00
93.3985 753.00
93.4637 735.00
93.5289 708.00
93.5941 717.00
93.6593 738.00
93.7245 696.00
93.7897 741.00
93.8549 717.00
93.9201 688.00
93.9853 695.00
94.0505 835.00
94.1157 801.00
94.1809 830.00
94.2461 870.00
94.3113 837.00
94.3765 792.00
94.4417 852.00
94.5069 802.00
94.5721 794.00
94.6373 803.00
94.7025 865.00
94.7677 779.00
94.8329 807.00
94.8981 761.00
94.9633 832.00
95.0285 833.00
95.0937 814.00
95.1589 839.00
95.2241 755.00
95.2893 882.00
95.3545 847.00
95.4197 838.00
95.4848 799.00
95.55 741.00
95.6153 763.00
95.6804 718.00
95.7456 763.00
95.8108 739.00
95.876 764.00
95.9412 743.00
96.0064 723.00
96.0716 630.00
96.1368 640.00
96.202 672.00
96.2672 608.00
96.3324 645.00
96.3976 577.00
96.4628 616.00
96.528 585.00
96.5932 568.00
96.6584 598.00
96.7236 635.00
96.7888 600.00
96.854 608.00
96.9192 579.00
96.9844 601.00
97.0496 631.00
97.1148 652.00
97.18 646.00
97.2452 651.00
97.3104 680.00
97.3756 662.00
97.4408 688.00
97.506 710.00
97.5712 660.00
97.6364 679.00
97.7016 692.00
97.7668 720.00
97.832 692.00
97.8972 692.00
97.9624 587.00
98.0276 704.00
98.0928 677.00
98.158 672.00
98.2232 696.00
98.2884 746.00
98.3536 693.00
98.4188 730.00
98.484 684.00
98.5492 739.00
98.6144 813.00
98.6796 749.00
98.7448 768.00
98.81 738.00
98.8752 766.00
98.9404 719.00
99.0056 744.00
99.0708 747.00
99.136 755.00
99.2012 777.00
99.2664 696.00
99.3316 705.00
99.3968 733.00
99.462 805.00
99.5272 851.00
99.5924 779.00
99.6576 830.00
99.7228 838.00
99.788 756.00
99.8532 769.00
99.9184 849.00
99.9836 797.00
99.9944 764.00