File: data/xrd_creation/results/NSC_2.xy
9.903433 2710.00
9.968632 2757.00
10.0338 2628.00
10.099 2631.00
10.1642 2593.00
10.2294 2569.00
10.2946 2563.00
10.3598 2549.00
10.425 2458.00
10.4902 2502.00
10.5554 2461.00
10.6206 2498.00
10.6858 2454.00
10.751 2470.00
10.8162 2441.00
10.8814 2420.00
10.9466 2363.00
11.0118 2366.00
11.077 2432.00
11.1422 2340.00
11.2074 2366.00
11.2726 2370.00
11.3378 2314.00
11.403 2276.00
11.4682 2220.00
11.5334 2270.00
11.5986 2186.00
11.6638 2211.00
11.729 2184.00
11.7942 2247.00
11.8594 2137.00
11.9246 2135.00
11.9898 2183.00
12.055 2198.00
12.1202 2214.00
12.1854 2172.00
12.2506 2150.00
12.3158 2111.00
12.381 2011.00
12.4462 2015.00
12.5114 1979.00
12.5766 2026.00
12.6418 2119.00
12.707 2003.00
12.7722 1954.00
12.8374 1937.00
12.9026 1957.00
12.9678 2008.00
13.033 2035.00
13.0982 1969.00
13.1634 1881.00
13.2286 2001.00
13.2938 1960.00
13.359 1901.00
13.4242 1921.00
13.4894 1920.00
13.5546 1930.00
13.6198 1878.00
13.685 1880.00
13.7502 1828.00
13.8154 1974.00
13.8805 1839.00
13.9457 1856.00
14.0109 1894.00
14.0761 1873.00
14.1413 1848.00
14.2065 1928.00
14.2717 2012.00
14.3369 2112.00
14.4021 2271.00
14.4673 2157.00
14.5325 1954.00
14.5977 1943.00
14.6629 1792.00
14.7281 1898.00
14.7933 1850.00
14.8585 1844.00
14.9237 1997.00
14.9889 1993.00
15.0541 2143.00
15.1193 2268.00
15.1845 2593.00
15.2497 3253.00
15.3149 3961.00
15.3801 3636.00
15.4453 2506.00
15.5105 2092.00
15.5757 1870.00
15.6409 1876.00
15.7061 1815.00
15.7713 1865.00
15.8365 1865.00
15.9017 1794.00
15.9669 1791.00
16.0321 1730.00
16.0973 1673.00
16.1625 1742.00
16.2277 1714.00
16.2929 1689.00
16.3581 1664.00
16.4233 1696.00
16.4885 1763.00
16.5537 1692.00
16.6189 1668.00
16.6841 1673.00
16.7493 1714.00
16.8145 1637.00
16.8797 1632.00
16.9449 1689.00
17.0101 1748.00
17.0753 1630.00
17.1405 1642.00
17.2057 1614.00
17.2709 1674.00
17.3361 1637.00
17.4013 1630.00
17.4665 1675.00
17.5317 1771.00
17.5969 1721.00
17.6621 1756.00
17.7273 1804.00
17.7925 1676.00
17.8577 1719.00
17.9229 1661.00
17.9881 1709.00
18.0533 1690.00
18.1185 1634.00
18.1837 1639.00
18.2489 1599.00
18.3141 1642.00
18.3793 1674.00
18.4445 1691.00
18.5097 1693.00
18.5749 1648.00
18.6401 1692.00
18.7052 1839.00
18.7704 2006.00
18.8356 2558.00
18.9008 3197.00
18.966 3695.00
19.0312 3169.00
19.0964 2164.00
19.1616 1708.00
19.2268 1673.00
19.292 1621.00
19.3572 1680.00
19.4224 1629.00
19.4876 1571.00
19.5528 1603.00
19.618 1770.00
19.6832 1827.00
19.7484 2007.00
19.8136 2476.00
19.8788 2658.00
19.944 2821.00
20.0092 2398.00
20.0744 1906.00
20.1396 1659.00
20.2048 1743.00
20.27 1716.00
20.3352 1851.00
20.4004 1916.00
20.4656 2078.00
20.5308 2388.00
20.596 2975.00
20.6612 3773.00
20.7264 4211.00
20.7916 4462.00
20.8568 4971.00
20.922 6105.00
20.9872 7455.00
21.0524 7536.00
21.1176 5282.00
21.1828 3251.00
21.248 2240.00
21.3132 2094.00
21.3784 1950.00
21.4436 1967.00
21.5088 2047.00
21.574 2290.00
21.6392 2761.00
21.7044 3828.00
21.7696 5843.00
21.8348 9310.00
21.9 11298.00
21.9652 8616.00
22.0304 7141.00
22.0956 8606.00
22.1608 9074.00
22.226 6240.00
22.2912 3824.00
22.3564 2451.00
22.4216 2109.00
22.4868 1856.00
22.552 1609.00
22.6172 1647.00
22.6824 1559.00
22.7476 1605.00
22.8128 1598.00
22.878 1554.00
22.9432 1497.00
23.0084 1533.00
23.0736 1523.00
23.1388 1504.00
23.204 1470.00
23.2692 1572.00
23.3344 1521.00
23.3996 1541.00
23.4647 1552.00
23.5299 1549.00
23.5951 1622.00
23.6603 1781.00
23.7255 2072.00
23.7907 2637.00
23.8559 3233.00
23.9211 3357.00
23.9863 2668.00
24.0515 2204.00
24.1167 1834.00
24.1819 1850.00
24.2471 2027.00
24.3123 2577.00
24.3775 3531.00
24.4427 4490.00
24.5079 4019.00
24.5731 2859.00
24.6383 2051.00
24.7035 1861.00
24.7687 1748.00
24.8339 1905.00
24.8991 1729.00
24.9643 1810.00
25.0295 1839.00
25.0947 2015.00
25.1599 2335.00
25.2251 3264.00
25.2903 4899.00
25.3555 8082.00
25.4207 10499.00
25.4859 9313.00
25.5511 6034.00
25.6163 3513.00
25.6815 2554.00
25.7467 2159.00
25.8119 2212.00
25.8771 2449.00
25.9423 2642.00
26.0075 2474.00
26.0727 2851.00
26.1379 3985.00
26.2031 6293.00
26.2683 8956.00
26.3335 8767.00
26.3987 5473.00
26.4639 3009.00
26.5291 2309.00
26.5943 2181.00
26.6595 2591.00
26.7247 3201.00
26.7899 3967.00
26.8551 3688.00
26.9203 2614.00
26.9855 1974.00
27.0507 1671.00
27.1159 1550.00
27.1811 1547.00
27.2463 1394.00
27.3115 1454.00
27.3767 1463.00
27.4419 1495.00
27.5071 1534.00
27.5723 1487.00
27.6375 1485.00
27.7027 1364.00
27.7679 1393.00
27.8331 1449.00
27.8983 1348.00
27.9635 1454.00
28.0287 1544.00
28.0939 1433.00
28.1591 1453.00
28.2243 1505.00
28.2894 1692.00
28.3546 1886.00
28.4198 2374.00
28.485 3075.00
28.5502 3357.00
28.6154 3041.00
28.6806 2929.00
28.7458 2664.00
28.811 2370.00
28.8762 1996.00
28.9414 1720.00
29.0066 1506.00
29.0718 1448.00
29.137 1453.00
29.2022 1372.00
29.2674 1408.00
29.3326 1462.00
29.3978 1411.00
29.463 1445.00
29.5282 1428.00
29.5934 1414.00
29.6586 1571.00
29.7238 1597.00
29.789 1496.00
29.8542 1492.00
29.9194 1458.00
29.9846 1409.00
30.0498 1557.00
30.115 1496.00
30.1802 1603.00
30.2454 1820.00
30.3106 2073.00
30.3758 2611.00
30.441 3758.00
30.5062 5153.00
30.5714 6221.00
30.6366 5431.00
30.7018 3753.00
30.767 2825.00
30.8322 2658.00
30.8974 3090.00
30.9626 3963.00
31.0278 3736.00
31.093 2773.00
31.1582 1999.00
31.2234 1681.00
31.2886 1601.00
31.3538 1637.00
31.419 1792.00
31.4842 2046.00
31.5494 2520.00
31.6146 3090.00
31.6798 3563.00
31.745 3685.00
31.8102 3238.00
31.8754 2686.00
31.9406 2128.00
32.0058 1713.00
32.071 1539.00
32.1362 1403.00
32.2014 1342.00
32.2666 1288.00
32.3318 1266.00
32.397 1231.00
32.4622 1291.00
32.5274 1313.00
32.5926 1216.00
32.6578 1344.00
32.723 1456.00
32.7882 1374.00
32.8534 1383.00
32.9186 1404.00
32.9838 1429.00
33.0489 1429.00
33.1141 1514.00
33.1793 1738.00
33.2445 2104.00
33.3097 2959.00
33.3749 4584.00
33.4401 7143.00
33.5053 8637.00
33.5705 7545.00
33.6357 5407.00
33.7009 3292.00
33.7661 2331.00
33.8313 1759.00
33.8965 1648.00
33.9617 1693.00
34.0269 1871.00
34.0921 2221.00
34.1573 2453.00
34.2225 2398.00
34.2877 2092.00
34.3529 1909.00
34.4181 1829.00
34.4833 1702.00
34.5485 1584.00
34.6137 1447.00
34.6789 1394.00
34.7441 1407.00
34.8093 1424.00
34.8745 1339.00
34.9397 1314.00
35.0049 1312.00
35.0701 1291.00
35.1353 1280.00
35.2005 1252.00
35.2657 1330.00
35.3309 1556.00
35.3961 1903.00
35.4613 2586.00
35.5265 2368.00
35.5917 2125.00
35.6569 1839.00
35.7221 1776.00
35.7873 1748.00
35.8525 1924.00
35.9177 1938.00
35.9829 2127.00
36.0481 1991.00
36.1133 1975.00
36.1785 2050.00
36.2437 2531.00
36.3089 3181.00
36.3741 4153.00
36.4393 4767.00
36.5045 4064.00
36.5697 2789.00
36.6349 1850.00
36.7001 1483.00
36.7653 1326.00
36.8305 1237.00
36.8957 1206.00
36.9609 1124.00
37.0261 1141.00
37.0913 1177.00
37.1565 1045.00
37.2217 1083.00
37.2869 1112.00
37.3521 1153.00
37.4173 1057.00
37.4825 1132.00
37.5477 1251.00
37.6129 1268.00
37.6781 1286.00
37.7433 1449.00
37.8085 1772.00
37.8736 2038.00
37.9388 2332.00
38.004 2439.00
38.0692 2625.00
38.1344 2513.00
38.1996 2249.00
38.2648 2173.00
38.33 2778.00
38.3952 3530.00
38.4604 3815.00
38.5256 3857.00
38.5908 3524.00
38.656 2938.00
38.7212 2276.00
38.7864 1875.00
38.8516 1657.00
38.9168 1430.00
38.982 1249.00
39.0472 1253.00
39.1124 1288.00
39.1776 1183.00
39.2428 1104.00
39.308 1132.00
39.3732 1126.00
39.4384 1119.00
39.5036 1222.00
39.5688 1342.00
39.634 1605.00
39.6992 1935.00
39.7644 2085.00
39.8296 2080.00
39.8948 1782.00
39.96 1486.00
40.0252 1210.00
40.0904 1189.00
40.1556 1145.00
40.2208 1157.00
40.286 1163.00
40.3512 1081.00
40.4164 1177.00
40.4816 1233.00
40.5468 1314.00
40.612 1423.00
40.6772 1491.00
40.7424 1358.00
40.8076 1337.00
40.8728 1285.00
40.938 1220.00
41.0032 1185.00
41.0684 1231.00
41.1336 1255.00
41.1988 1192.00
41.264 1226.00
41.3292 1210.00
41.3944 1203.00
41.4596 1145.00
41.5248 1145.00
41.59 1167.00
41.6552 1246.00
41.7204 1331.00
41.7856 1369.00
41.8508 1413.00
41.916 1552.00
41.9812 1696.00
42.0464 2069.00
42.1116 2326.00
42.1768 2107.00
42.242 1742.00
42.3072 1601.00
42.3724 1555.00
42.4376 1529.00
42.5028 1420.00
42.568 1335.00
42.6332 1133.00
42.6983 1117.00
42.7635 1058.00
42.8287 1046.00
42.8939 1051.00
42.9591 1040.00
43.0243 968.00
43.0895 972.00
43.1547 1049.00
43.2199 1034.00
43.2851 1069.00
43.3503 1124.00
43.4155 1180.00
43.4807 1303.00
43.5459 1448.00
43.6111 2037.00
43.6763 2505.00
43.7415 1844.00
43.8067 1575.00
43.8719 1370.00
43.9371 1371.00
44.0023 1529.00
44.0675 1597.00
44.1327 1621.00
44.1979 1556.00
44.2631 1502.00
44.3283 1342.00
44.3935 1139.00
44.4587 1165.00
44.5239 1118.00
44.5891 1088.00
44.6543 1107.00
44.7195 1241.00
44.7847 1250.00
44.8499 1253.00
44.9151 1203.00
44.9803 1271.00
45.0455 1353.00
45.1107 1396.00
45.1759 1528.00
45.2411 1589.00
45.3063 1468.00
45.3715 1447.00
45.4367 1494.00
45.5019 1455.00
45.5671 1392.00
45.6323 1460.00
45.6975 1379.00
45.7627 1347.00
45.8279 1257.00
45.8931 1196.00
45.9583 1160.00
46.0235 1101.00
46.0887 1141.00
46.1539 1118.00
46.2191 1375.00
46.2843 1474.00
46.3495 1707.00
46.4147 1801.00
46.4799 1828.00
46.5451 1612.00
46.6103 1536.00
46.6755 1423.00
46.7407 1273.00
46.8059 1243.00
46.8711 1230.00
46.9363 1257.00
47.0015 1325.00
47.0667 1301.00
47.1319 1242.00
47.1971 1193.00
47.2623 1096.00
47.3275 1119.00
47.3927 1187.00
47.4579 1121.00
47.523 1171.00
47.5882 1147.00
47.6534 1102.00
47.7186 1022.00
47.7838 1081.00
47.849 1103.00
47.9142 1218.00
47.9794 1300.00
48.0446 1580.00
48.1098 2013.00
48.175 2397.00
48.2402 2691.00
48.3054 2922.00
48.3706 2925.00
48.4358 2722.00
48.501 2494.00
48.5662 2201.00
48.6314 1973.00
48.6966 1828.00
48.7618 1596.00
48.827 1639.00
48.8922 1701.00
48.9574 1758.00
49.0226 1843.00
49.0878 1710.00
49.153 1585.00
49.2182 1381.00
49.2834 1265.00
49.3486 1344.00
49.4138 1386.00
49.479 1590.00
49.5442 2096.00
49.6094 2878.00
49.6746 3504.00
49.7398 3651.00
49.805 3433.00
49.8702 2850.00
49.9354 2264.00
50.0006 1847.00
50.0658 1588.00
50.131 1339.00
50.1962 1312.00
50.2614 1285.00
50.3266 1278.00
50.3918 1352.00
50.457 1457.00
50.5222 1418.00
50.5874 1341.00
50.6526 1297.00
50.7178 1221.00
50.783 1224.00
50.8482 1398.00
50.9134 1432.00
50.9786 1537.00
51.0438 1454.00
51.109 1356.00
51.1742 1209.00
51.2394 1226.00
51.3046 1294.00
51.3698 1203.00
51.435 1282.00
51.5002 1486.00
51.5654 1581.00
51.6306 1924.00
51.6958 2414.00
51.761 2704.00
51.8262 3014.00
51.8914 2843.00
51.9566 2396.00
52.0218 2091.00
52.087 1678.00
52.1522 1494.00
52.2174 1381.00
52.2826 1258.00
52.3477 1081.00
52.4129 1076.00
52.4781 1182.00
52.5433 1109.00
52.6085 1075.00
52.6737 1167.00
52.7389 1240.00
52.8041 1712.00
52.8693 1736.00
52.9345 1485.00
52.9997 1481.00
53.0649 1181.00
53.1301 1152.00
53.1953 997.00
53.2605 1123.00
53.3257 1133.00
53.3909 1147.00
53.4561 1154.00
53.5213 1178.00
53.5865 1222.00
53.6517 1256.00
53.7169 1355.00
53.7821 1199.00
53.8473 1188.00
53.9125 1119.00
53.9777 1178.00
54.0429 1023.00
54.1081 1015.00
54.1733 1025.00
54.2385 1124.00
54.3037 1171.00
54.3689 1182.00
54.4341 1279.00
54.4993 1321.00
54.5645 1357.00
54.6297 1564.00
54.6949 1992.00
54.7601 2645.00
54.8253 2714.00
54.8905 2951.00
54.9557 2775.00
55.0209 2345.00
55.0861 2050.00
55.1513 1694.00
55.2165 1489.00
55.2817 1305.00
55.3469 1237.00
55.4121 1210.00
55.4773 1223.00
55.5425 1266.00
55.6077 1387.00
55.6729 1502.00
55.7381 1528.00
55.8033 1663.00
55.8685 1671.00
55.9337 1686.00
55.9989 1595.00
56.0641 1625.00
56.1293 1561.00
56.1945 1488.00
56.2597 1435.00
56.3249 1251.00
56.3901 1208.00
56.4553 1106.00
56.5205 1145.00
56.5857 1148.00
56.6509 1070.00
56.7161 1015.00
56.7813 987.00
56.8465 1009.00
56.9117 945.00
56.9769 1031.00
57.042 989.00
57.1073 1125.00
57.1724 1061.00
57.2376 1067.00
57.3028 1128.00
57.368 1115.00
57.4332 1168.00
57.4984 1160.00
57.5636 1152.00
57.6288 1163.00
57.694 1316.00
57.7592 1975.00
57.8244 1776.00
57.8896 1519.00
57.9548 1621.00
58.02 1244.00
58.0852 1195.00
58.1504 1334.00
58.2156 1673.00
58.2808 2157.00
58.346 2752.00
58.4112 2867.00
58.4764 2887.00
58.5416 2672.00
58.6068 2305.00
58.672 1948.00
58.7372 1728.00
58.8024 1611.00
58.8676 1435.00
58.9328 1383.00
58.998 1570.00
59.0632 1778.00
59.1284 1748.00
59.1936 1670.00
59.2588 1605.00
59.324 1491.00
59.3892 1370.00
59.4544 1260.00
59.5196 1213.00
59.5848 1256.00
59.65 1321.00
59.7152 1400.00
59.7804 1529.00
59.8456 1692.00
59.9108 1791.00
59.976 1879.00
60.0412 1785.00
60.1064 1898.00
60.1716 2042.00
60.2368 2179.00
60.302 2226.00
60.3672 2375.00
60.4324 2222.00
60.4976 2109.00
60.5628 1880.00
60.628 1720.00
60.6932 1514.00
60.7584 1337.00
60.8236 1253.00
60.8888 1142.00
60.954 1037.00
61.0192 1078.00
61.0844 1056.00
61.1496 1090.00
61.2148 1096.00
61.28 1166.00
61.3452 1241.00
61.4104 1274.00
61.4756 1336.00
61.5408 1525.00
61.606 1596.00
61.6712 1582.00
61.7364 1678.00
61.8016 1624.00
61.8667 1553.00
61.932 1528.00
61.9971 1629.00
62.0623 1487.00
62.1275 1377.00
62.1927 1273.00
62.2579 1194.00
62.3231 1049.00
62.3883 1146.00
62.4535 1017.00
62.5187 1003.00
62.5839 1010.00
62.6491 1088.00
62.7143 1042.00
62.7795 1075.00
62.8447 1091.00
62.9099 1089.00
62.9751 1270.00
63.0403 1272.00
63.1055 1292.00
63.1707 1329.00
63.2359 1294.00
63.3011 1251.00
63.3663 1217.00
63.4315 1141.00
63.4967 1070.00
63.5619 1092.00
63.6271 1029.00
63.6923 1017.00
63.7575 1067.00
63.8227 1090.00
63.8879 1072.00
63.9531 1192.00
64.0183 1388.00
64.0835 1619.00
64.1487 1677.00
64.2139 1654.00
64.2791 1740.00
64.3443 1912.00
64.4095 1965.00
64.4747 1907.00
64.5399 1777.00
64.6051 1734.00
64.6703 1577.00
64.7355 1345.00
64.8007 1312.00
64.8659 1225.00
64.9311 1078.00
64.9963 1055.00
65.0615 1103.00
65.1267 1113.00
65.1919 1143.00
65.2571 1153.00
65.3223 1135.00
65.3875 1224.00
65.4527 1269.00
65.5179 1293.00
65.5831 1236.00
65.6483 1250.00
65.7135 1372.00
65.7787 1282.00
65.8439 1394.00
65.9091 1515.00
65.9743 1761.00
66.0395 2112.00
66.1047 2407.00
66.1699 2608.00
66.2351 2757.00
66.3003 2899.00
66.3655 2784.00
66.4307 2568.00
66.4959 2284.00
66.561 2009.00
66.6263 1772.00
66.6915 1654.00
66.7566 1880.00
66.8218 1792.00
66.887 1299.00
66.9522 1428.00
67.0174 1287.00
67.0826 1192.00
67.1478 1296.00
67.213 1365.00
67.2782 1525.00
67.3434 1655.00
67.4086 1695.00
67.4738 1581.00
67.539 1452.00
67.6042 1457.00
67.6694 1244.00
67.7346 1204.00
67.7998 1021.00
67.865 1087.00
67.9302 1033.00
67.9954 1082.00
68.0606 1058.00
68.1258 1053.00
68.191 1169.00
68.2562 1180.00
68.3214 1262.00
68.3866 1536.00
68.4518 2266.00
68.517 1954.00
68.5822 1551.00
68.6474 1858.00
68.7126 1655.00
68.7778 1376.00
68.843 1481.00
68.9082 1496.00
68.9734 1486.00
69.0386 1436.00
69.1038 1446.00
69.169 1503.00
69.2342 1461.00
69.2994 1496.00
69.3646 1542.00
69.4298 1605.00
69.495 1528.00
69.5602 1461.00
69.6254 1344.00
69.6906 1284.00
69.7558 1166.00
69.821 1063.00
69.8862 1041.00
69.9514 1094.00
70.0166 1032.00
70.0818 993.00
70.147 962.00
70.2122 1061.00
70.2774 1123.00
70.3426 1247.00
70.4078 1307.00
70.473 1360.00
70.5382 1478.00
70.6034 1515.00
70.6686 1583.00
70.7338 1515.00
70.799 1425.00
70.8642 1433.00
70.9294 1297.00
70.9946 1183.00
71.0598 1079.00
71.125 1070.00
71.1902 1014.00
71.2554 1047.00
71.3205 982.00
71.3858 969.00
71.451 959.00
71.5162 1015.00
71.5813 995.00
71.6465 973.00
71.7117 911.00
71.7769 963.00
71.8421 987.00
71.9073 975.00
71.9725 982.00
72.0377 887.00
72.1029 876.00
72.1681 954.00
72.2333 908.00
72.2985 849.00
72.3637 895.00
72.4289 953.00
72.4941 936.00
72.5593 974.00
72.6245 997.00
72.6897 1035.00
72.7549 1039.00
72.8201 1098.00
72.8853 1055.00
72.9505 1051.00
73.0157 1017.00
73.0809 1108.00
73.1461 1154.00
73.2113 1133.00
73.2765 1141.00
73.3417 1160.00
73.4069 1150.00
73.4721 1130.00
73.5373 1038.00
73.6025 977.00
73.6677 1058.00
73.7329 1051.00
73.7981 1009.00
73.8633 967.00
73.9285 1042.00
73.9937 1083.00
74.0589 1164.00
74.1241 1113.00
74.1893 1131.00
74.2545 1053.00
74.3197 1039.00
74.3849 1028.00
74.4501 970.00
74.5153 983.00
74.5805 1042.00
74.6457 966.00
74.7109 1035.00
74.7761 1005.00
74.8413 1044.00
74.9065 1054.00
74.9717 980.00
75.0369 1017.00
75.1021 1081.00
75.1673 1063.00
75.2325 1028.00
75.2977 1063.00
75.3629 1073.00
75.4281 979.00
75.4933 1058.00
75.5585 1108.00
75.6237 1084.00
75.6889 1114.00
75.7541 1146.00
75.8193 1104.00
75.8845 1132.00
75.9497 1149.00
76.0149 1049.00
76.0801 1084.00
76.1452 961.00
76.2104 1023.00
76.2756 935.00
76.3409 1012.00
76.406 1001.00
76.4712 939.00
76.5364 956.00
76.6016 977.00
76.6668 1035.00
76.732 969.00
76.7972 1081.00
76.8624 1074.00
76.9276 1033.00
76.9928 1077.00
77.058 1177.00
77.1232 1325.00
77.1884 1198.00
77.2536 1149.00
77.3188 1264.00
77.384 1327.00
77.4492 1369.00
77.5144 1494.00
77.5796 1346.00
77.6448 1350.00
77.71 1391.00
77.7752 1277.00
77.8404 1238.00
77.9056 1264.00
77.9708 1171.00
78.036 1132.00
78.1012 1018.00
78.1664 1129.00
78.2316 948.00
78.2968 979.00
78.362 972.00
78.4272 910.00
78.4924 866.00
78.5576 910.00
78.6228 915.00
78.688 999.00
78.7532 1000.00
78.8184 1051.00
78.8836 1058.00
78.9488 1124.00
79.014 1114.00
79.0792 1135.00
79.1444 1182.00
79.2096 1165.00
79.2748 1187.00
79.34 1119.00
79.4052 1140.00
79.4704 1053.00
79.5356 1020.00
79.6008 1098.00
79.666 1027.00
79.7312 1029.00
79.7964 1044.00
79.8616 954.00
79.9268 1049.00
79.992 1010.00
80.0572 1057.00
80.1224 1112.00
80.1876 1102.00
80.2528 1160.00
80.318 1147.00
80.3832 1067.00
80.4484 1080.00
80.5136 1070.00
80.5788 979.00
80.644 1020.00
80.7092 963.00
80.7744 926.00
80.8396 1007.00
80.9048 879.00
80.9699 924.00
81.0351 859.00
81.1003 887.00
81.1655 830.00
81.2307 866.00
81.2959 863.00
81.3611 863.00
81.4263 889.00
81.4915 909.00
81.5567 920.00
81.6219 919.00
81.6871 917.00
81.7523 990.00
81.8175 994.00
81.8827 1021.00
81.9479 982.00
82.0131 985.00
82.0783 1045.00
82.1435 1067.00
82.2087 1108.00
82.2739 1089.00
82.3391 1082.00
82.4043 1119.00
82.4695 1095.00
82.5347 1050.00
82.5999 1042.00
82.6651 995.00
82.7303 934.00
82.7955 978.00
82.8607 917.00
82.9259 970.00
82.9911 978.00
83.0563 900.00
83.1215 862.00
83.1867 892.00
83.2519 939.00
83.3171 892.00
83.3823 942.00
83.4475 937.00
83.5127 899.00
83.5779 990.00
83.6431 874.00
83.7083 928.00
83.7735 961.00
83.8387 986.00
83.9039 1058.00
83.9691 1045.00
84.0343 1075.00
84.0995 1140.00
84.1647 1038.00
84.2299 1035.00
84.2951 1064.00
84.3603 1020.00
84.4255 978.00
84.4907 969.00
84.5559 1114.00
84.6211 968.00
84.6863 1029.00
84.7515 1029.00
84.8167 1070.00
84.8819 1116.00
84.9471 1104.00
85.0123 1055.00
85.0775 1068.00
85.1427 1012.00
85.2079 1036.00
85.2731 1020.00
85.3383 976.00
85.4035 907.00
85.4687 919.00
85.5339 962.00
85.5991 991.00
85.6643 942.00
85.7295 969.00
85.7946 1005.00
85.8598 991.00
85.925 980.00
85.9903 962.00
86.0554 1041.00
86.1206 1050.00
86.1858 1071.00
86.251 1042.00
86.3162 1055.00
86.3814 1084.00
86.4466 1012.00
86.5118 1015.00
86.577 994.00
86.6422 927.00
86.7074 975.00
86.7726 974.00
86.8378 1047.00
86.903 980.00
86.9682 971.00
87.0334 967.00
87.0986 960.00
87.1638 1088.00
87.229 1043.00
87.2942 1097.00
87.3594 1134.00
87.4246 1074.00
87.4898 1017.00
87.555 1138.00
87.6202 1066.00
87.6854 1095.00
87.7506 1107.00
87.8158 1088.00
87.881 971.00
87.9462 976.00
88.0114 970.00
88.0766 912.00
88.1418 896.00
88.207 904.00
88.2722 871.00
88.3374 968.00
88.4026 900.00
88.4678 892.00
88.533 914.00
88.5982 945.00
88.6634 927.00
88.7286 1032.00
88.7938 1069.00
88.859 1071.00
88.9242 1112.00
88.9894 1106.00
89.0546 1099.00
89.1198 1047.00
89.185 1142.00
89.2502 1104.00
89.3154 988.00
89.3806 908.00
89.4458 916.00
89.511 929.00
89.5762 903.00
89.6414 897.00
89.7066 903.00
89.7718 872.00
89.837 916.00
89.9022 967.00
89.9674 973.00
90.0326 983.00
90.0978 987.00
90.163 1059.00
90.2282 934.00
90.2934 969.00
90.3586 939.00
90.4238 937.00
90.489 932.00
90.5542 906.00
90.6193 910.00
90.6845 881.00
90.7497 969.00
90.8149 963.00
90.8801 870.00
90.9453 965.00
91.0105 925.00
91.0757 974.00
91.1409 1017.00
91.2061 1055.00
91.2713 975.00
91.3365 1136.00
91.4017 1168.00
91.4669 1136.00
91.5321 1017.00
91.5973 1044.00
91.6625 1105.00
91.7277 1150.00
91.7929 1204.00
91.8581 1164.00
91.9233 1212.00
91.9885 1176.00
92.0537 1223.00
92.1189 1162.00
92.1841 1175.00
92.2493 1170.00
92.3145 1201.00
92.3797 1175.00
92.4449 1258.00
92.5101 1201.00
92.5753 1233.00
92.6405 1335.00
92.7057 1237.00
92.7709 1288.00
92.8361 1280.00
92.9013 1215.00
92.9665 1220.00
93.0317 1099.00
93.0969 1067.00
93.1621 1045.00
93.2273 1089.00
93.2925 1015.00
93.3577 1016.00
93.4229 973.00
93.4881 999.00
93.5533 930.00
93.6185 958.00
93.6837 968.00
93.7489 972.00
93.8141 886.00
93.8793 913.00
93.9445 958.00
94.0097 936.00
94.0749 948.00
94.1401 959.00
94.2053 911.00
94.2705 890.00
94.3357 866.00
94.4009 879.00
94.4661 891.00
94.5313 886.00
94.5965 913.00
94.6617 876.00
94.7269 896.00
94.7921 920.00
94.8573 905.00
94.9225 872.00
94.9877 885.00
95.0529 874.00
95.1181 915.00
95.1833 959.00
95.2485 883.00
95.3137 959.00
95.3789 966.00
95.444 1205.00
95.5092 1057.00
95.5744 974.00
95.6396 944.00
95.7048 1076.00
95.77 1147.00
95.8352 1082.00
95.9004 1008.00
95.9656 1026.00
96.0308 1029.00
96.096 975.00
96.1612 998.00
96.2264 1003.00
96.2916 986.00
96.3568 961.00
96.422 933.00
96.4872 927.00
96.5524 948.00
96.6176 991.00
96.6828 952.00
96.748 935.00
96.8132 967.00
96.8784 919.00
96.9436 895.00
97.0088 1035.00
97.074 951.00
97.1392 980.00
97.2044 994.00
97.2696 906.00
97.3348 979.00
97.4 935.00
97.4652 1009.00
97.5304 927.00
97.5956 982.00
97.6608 996.00
97.726 957.00
97.7912 963.00
97.8564 1000.00
97.9216 1000.00
97.9868 982.00
98.052 1005.00
98.1172 1027.00
98.1824 1028.00
98.2476 1045.00
98.3128 997.00
98.378 1030.00
98.4432 1001.00
98.5084 1016.00
98.5736 1045.00
98.6388 924.00
98.704 979.00
98.7692 905.00
98.8344 988.00
98.8996 915.00
98.9648 959.00
99.03 937.00
99.0952 929.00
99.1604 913.00
99.2256 1004.00
99.2908 1017.00
99.356 1010.00
99.4212 1078.00
99.4864 1022.00
99.5516 1139.00
99.6168 1100.00
99.682 1157.00
99.7472 1096.00
99.8124 1219.00
99.8776 1147.00
99.9428 1150.00
100.008 1159.00
100.073 1119.00
100.095 1108.00