File: data/xrd_creation/results/NSC_210.xy
9.903433 3107.00
9.968632 3054.00
10.0338 3042.00
10.099 3036.00
10.1642 3038.00
10.2294 2988.00
10.2946 2939.00
10.3598 2973.00
10.425 2999.00
10.4902 2897.00
10.5554 2843.00
10.6206 2865.00
10.6858 2795.00
10.751 2804.00
10.8162 2815.00
10.8814 2793.00
10.9466 2722.00
11.0118 2936.00
11.077 2772.00
11.1422 2813.00
11.2074 2757.00
11.2726 2681.00
11.3378 2752.00
11.403 2791.00
11.4682 2701.00
11.5334 2604.00
11.5986 2566.00
11.6638 2631.00
11.729 2597.00
11.7942 2590.00
11.8594 2597.00
11.9246 2465.00
11.9898 2609.00
12.055 2615.00
12.1202 2479.00
12.1854 2525.00
12.2506 2529.00
12.3158 2478.00
12.381 2451.00
12.4462 2497.00
12.5114 2528.00
12.5766 2481.00
12.6418 2538.00
12.707 2440.00
12.7722 2467.00
12.8374 2485.00
12.9026 2403.00
12.9678 2296.00
13.033 2388.00
13.0982 2452.00
13.1634 2427.00
13.2286 2362.00
13.2938 2301.00
13.359 2334.00
13.4242 2352.00
13.4894 2343.00
13.5546 2308.00
13.6198 2372.00
13.685 2328.00
13.7502 2240.00
13.8154 2404.00
13.8805 2307.00
13.9457 2230.00
14.0109 2345.00
14.0761 2262.00
14.1413 2256.00
14.2065 2315.00
14.2717 2279.00
14.3369 2299.00
14.4021 2325.00
14.4673 2161.00
14.5325 2343.00
14.5977 2192.00
14.6629 2187.00
14.7281 2261.00
14.7933 2144.00
14.8585 2311.00
14.9237 2219.00
14.9889 2276.00
15.0541 2220.00
15.1193 2134.00
15.1845 2228.00
15.2497 2187.00
15.3149 2176.00
15.3801 2188.00
15.4453 2145.00
15.5105 2252.00
15.5757 2184.00
15.6409 2215.00
15.7061 2239.00
15.7713 2148.00
15.8365 2144.00
15.9017 2157.00
15.9669 2204.00
16.0321 2148.00
16.0973 2166.00
16.1625 2177.00
16.2277 2144.00
16.2929 2171.00
16.3581 2126.00
16.4233 2185.00
16.4885 2181.00
16.5537 2091.00
16.6189 2122.00
16.6841 2086.00
16.7493 2127.00
16.8145 2129.00
16.8797 2124.00
16.9449 2152.00
17.0101 2116.00
17.0753 2066.00
17.1405 2134.00
17.2057 2127.00
17.2709 2122.00
17.3361 2185.00
17.4013 2208.00
17.4665 2175.00
17.5317 2283.00
17.5969 2371.00
17.6621 2562.00
17.7273 2684.00
17.7925 2921.00
17.8577 2694.00
17.9229 2500.00
17.9881 2153.00
18.0533 2071.00
18.1185 2071.00
18.1837 2037.00
18.2489 2121.00
18.3141 1960.00
18.3793 2025.00
18.4445 2013.00
18.5097 2006.00
18.5749 1996.00
18.6401 1993.00
18.7052 1982.00
18.7704 1981.00
18.8356 1974.00
18.9008 2005.00
18.966 1896.00
19.0312 2041.00
19.0964 1990.00
19.1616 2108.00
19.2268 2120.00
19.292 2064.00
19.3572 1987.00
19.4224 2055.00
19.4876 2028.00
19.5528 1914.00
19.618 2003.00
19.6832 1995.00
19.7484 2032.00
19.8136 2001.00
19.8788 1942.00
19.944 1934.00
20.0092 2004.00
20.0744 2085.00
20.1396 2244.00
20.2048 2333.00
20.27 2701.00
20.3352 2972.00
20.4004 3184.00
20.4656 2846.00
20.5308 2350.00
20.596 2102.00
20.6612 2149.00
20.7264 2099.00
20.7916 2203.00
20.8568 2317.00
20.922 2414.00
20.9872 2541.00
21.0524 2425.00
21.1176 2472.00
21.1828 2277.00
21.248 2263.00
21.3132 2121.00
21.3784 2081.00
21.4436 2043.00
21.5088 2037.00
21.574 1965.00
21.6392 2093.00
21.7044 2191.00
21.7696 2437.00
21.8348 2408.00
21.9 2068.00
21.9652 1924.00
22.0304 1979.00
22.0956 1960.00
22.1608 1952.00
22.226 1991.00
22.2912 1881.00
22.3564 1934.00
22.4216 1940.00
22.4868 1966.00
22.552 1918.00
22.6172 1929.00
22.6824 1899.00
22.7476 1885.00
22.8128 1874.00
22.878 1928.00
22.9432 1981.00
23.0084 1911.00
23.0736 1911.00
23.1388 1830.00
23.204 1957.00
23.2692 1915.00
23.3344 1880.00
23.3996 1940.00
23.4647 1925.00
23.5299 1939.00
23.5951 1978.00
23.6603 1947.00
23.7255 1925.00
23.7907 2019.00
23.8559 2062.00
23.9211 2022.00
23.9863 2069.00
24.0515 2164.00
24.1167 2163.00
24.1819 2541.00
24.2471 3031.00
24.3123 3511.00
24.3775 4013.00
24.4427 3978.00
24.5079 3804.00
24.5731 3208.00
24.6383 2970.00
24.7035 3082.00
24.7687 3328.00
24.8339 3225.00
24.8991 3205.00
24.9643 2844.00
25.0295 2369.00
25.0947 2074.00
25.1599 1972.00
25.2251 2015.00
25.2903 1897.00
25.3555 2013.00
25.4207 2135.00
25.4859 2747.00
25.5511 3684.00
25.6163 4273.00
25.6815 3392.00
25.7467 2318.00
25.8119 2001.00
25.8771 1930.00
25.9423 1789.00
26.0075 1841.00
26.0727 1798.00
26.1379 1805.00
26.2031 1815.00
26.2683 1758.00
26.3335 1794.00
26.3987 1858.00
26.4639 1784.00
26.5291 1868.00
26.5943 1940.00
26.6595 2069.00
26.7247 2142.00
26.7899 2005.00
26.8551 1813.00
26.9203 1853.00
26.9855 1775.00
27.0507 1780.00
27.1159 1644.00
27.1811 1794.00
27.2463 1754.00
27.3115 1742.00
27.3767 1648.00
27.4419 1766.00
27.5071 1768.00
27.5723 1912.00
27.6375 1907.00
27.7027 1832.00
27.7679 1955.00
27.8331 2088.00
27.8983 2154.00
27.9635 2182.00
28.0287 2216.00
28.0939 2481.00
28.1591 2732.00
28.2243 3199.00
28.2894 4390.00
28.3546 6399.00
28.4198 10090.00
28.485 13564.00
28.5502 13144.00
28.6154 12068.00
28.6806 10189.00
28.7458 6914.00
28.811 4377.00
28.8762 3363.00
28.9414 2671.00
29.0066 2377.00
29.0718 2310.00
29.137 2119.00
29.2022 2071.00
29.2674 1933.00
29.3326 1887.00
29.3978 1911.00
29.463 1739.00
29.5282 1805.00
29.5934 1804.00
29.6586 1788.00
29.7238 1835.00
29.789 1785.00
29.8542 1764.00
29.9194 1753.00
29.9846 1780.00
30.0498 1823.00
30.115 1798.00
30.1802 1715.00
30.2454 1812.00
30.3106 1874.00
30.3758 2063.00
30.441 2260.00
30.5062 2140.00
30.5714 1984.00
30.6366 2064.00
30.7018 2503.00
30.767 3343.00
30.8322 5346.00
30.8974 6240.00
30.9626 4395.00
31.0278 2661.00
31.093 2194.00
31.1582 2103.00
31.2234 2111.00
31.2886 2134.00
31.3538 2358.00
31.419 2451.00
31.4842 2787.00
31.5494 3484.00
31.6146 4587.00
31.6798 6500.00
31.745 8766.00
31.8102 9827.00
31.8754 9150.00
31.9406 8764.00
32.0058 7147.00
32.071 5084.00
32.1362 3524.00
32.2014 2624.00
32.2666 2274.00
32.3318 1994.00
32.397 1939.00
32.4622 1817.00
32.5274 1745.00
32.5926 1728.00
32.6578 1734.00
32.723 1743.00
32.7882 1796.00
32.8534 1937.00
32.9186 1951.00
32.9838 2185.00
33.0489 2182.00
33.1141 1960.00
33.1793 1879.00
33.2445 1917.00
33.3097 2177.00
33.3749 2348.00
33.4401 2590.00
33.5053 2503.00
33.5705 2149.00
33.6357 1979.00
33.7009 1898.00
33.7661 1696.00
33.8313 1795.00
33.8965 1810.00
33.9617 1855.00
34.0269 1928.00
34.0921 2166.00
34.1573 2218.00
34.2225 2491.00
34.2877 2918.00
34.3529 3586.00
34.4181 4441.00
34.4833 5313.00
34.5485 5227.00
34.6137 5247.00
34.6789 5215.00
34.7441 4528.00
34.8093 4122.00
34.8745 3890.00
34.9397 3560.00
35.0049 2923.00
35.0701 2386.00
35.1353 1966.00
35.2005 1898.00
35.2657 1845.00
35.3309 1980.00
35.3961 2064.00
35.4613 2492.00
35.5265 3244.00
35.5917 3662.00
35.6569 3863.00
35.7221 4389.00
35.7873 4559.00
35.8525 3825.00
35.9177 2809.00
35.9829 2106.00
36.0481 1811.00
36.1133 1856.00
36.1785 1846.00
36.2437 1846.00
36.3089 1886.00
36.3741 1929.00
36.4393 1922.00
36.5045 1654.00
36.5697 1551.00
36.6349 1425.00
36.7001 1469.00
36.7653 1446.00
36.8305 1476.00
36.8957 1436.00
36.9609 1462.00
37.0261 1452.00
37.0913 1404.00
37.1565 1492.00
37.2217 1557.00
37.2869 1449.00
37.3521 1398.00
37.4173 1385.00
37.4825 1320.00
37.5477 1354.00
37.6129 1353.00
37.6781 1346.00
37.7433 1341.00
37.8085 1399.00
37.8736 1493.00
37.9388 1650.00
38.004 1841.00
38.0692 1858.00
38.1344 1789.00
38.1996 1756.00
38.2648 1759.00
38.33 1829.00
38.3952 1580.00
38.4604 1426.00
38.5256 1422.00
38.5908 1482.00
38.656 1594.00
38.7212 1770.00
38.7864 2104.00
38.8516 2158.00
38.9168 2055.00
38.982 2096.00
39.0472 2030.00
39.1124 2091.00
39.1776 1840.00
39.2428 1628.00
39.308 1442.00
39.3732 1367.00
39.4384 1391.00
39.5036 1320.00
39.5688 1331.00
39.634 1359.00
39.6992 1351.00
39.7644 1325.00
39.8296 1334.00
39.8948 1311.00
39.96 1289.00
40.0252 1325.00
40.0904 1371.00
40.1556 1483.00
40.2208 1445.00
40.286 1500.00
40.3512 1516.00
40.4164 1412.00
40.4816 1369.00
40.5468 1340.00
40.612 1397.00
40.6772 1371.00
40.7424 1426.00
40.8076 1596.00
40.8728 1737.00
40.938 2106.00
41.0032 2463.00
41.0684 2482.00
41.1336 2410.00
41.1988 2461.00
41.264 2380.00
41.3292 2453.00
41.3944 2317.00
41.4596 2285.00
41.5248 2079.00
41.59 2129.00
41.6552 2197.00
41.7204 2189.00
41.7856 2106.00
41.8508 1876.00
41.916 1820.00
41.9812 1610.00
42.0464 1545.00
42.1116 1535.00
42.1768 1426.00
42.242 1419.00
42.3072 1296.00
42.3724 1224.00
42.4376 1297.00
42.5028 1184.00
42.568 1252.00
42.6332 1231.00
42.6983 1220.00
42.7635 1242.00
42.8287 1221.00
42.8939 1151.00
42.9591 1254.00
43.0243 1182.00
43.0895 1346.00
43.1547 1412.00
43.2199 1484.00
43.2851 1392.00
43.3503 1312.00
43.4155 1243.00
43.4807 1191.00
43.5459 1125.00
43.6111 1223.00
43.6763 1208.00
43.7415 1243.00
43.8067 1176.00
43.8719 1219.00
43.9371 1236.00
44.0023 1223.00
44.0675 1184.00
44.1327 1305.00
44.1979 1170.00
44.2631 1265.00
44.3283 1233.00
44.3935 1132.00
44.4587 1207.00
44.5239 1180.00
44.5891 1217.00
44.6543 1185.00
44.7195 1294.00
44.7847 1237.00
44.8499 1393.00
44.9151 1394.00
44.9803 1450.00
45.0455 1668.00
45.1107 1825.00
45.1759 1754.00
45.2411 1703.00
45.3063 1681.00
45.3715 1579.00
45.4367 1488.00
45.5019 1475.00
45.5671 1510.00
45.6323 1472.00
45.6975 1555.00
45.7627 1712.00
45.8279 1973.00
45.8931 1937.00
45.9583 2083.00
46.0235 1910.00
46.0887 1801.00
46.1539 1621.00
46.2191 1347.00
46.2843 1347.00
46.3495 1206.00
46.4147 1183.00
46.4799 1188.00
46.5451 1178.00
46.6103 1166.00
46.6755 1146.00
46.7407 1187.00
46.8059 1295.00
46.8711 1213.00
46.9363 1202.00
47.0015 1185.00
47.0667 1170.00
47.1319 1138.00
47.1971 1162.00
47.2623 1152.00
47.3275 1265.00
47.3927 1215.00
47.4579 1296.00
47.523 1262.00
47.5882 1250.00
47.6534 1293.00
47.7186 1186.00
47.7838 1204.00
47.849 1202.00
47.9142 1180.00
47.9794 1217.00
48.0446 1159.00
48.1098 1229.00
48.175 1371.00
48.2402 1555.00
48.3054 1846.00
48.3706 1698.00
48.4358 1519.00
48.501 1452.00
48.5662 1365.00
48.6314 1248.00
48.6966 1212.00
48.7618 1155.00
48.827 1182.00
48.8922 1174.00
48.9574 1314.00
49.0226 1310.00
49.0878 1346.00
49.153 1418.00
49.2182 1567.00
49.2834 1678.00
49.3486 1769.00
49.4138 2141.00
49.479 2631.00
49.5442 3065.00
49.6094 2803.00
49.6746 2725.00
49.7398 2656.00
49.805 2730.00
49.8702 2561.00
49.9354 2294.00
50.0006 1931.00
50.0658 1702.00
50.131 1675.00
50.1962 1754.00
50.2614 2125.00
50.3266 2714.00
50.3918 3276.00
50.457 3128.00
50.5222 2929.00
50.5874 2733.00
50.6526 3082.00
50.7178 3398.00
50.783 3360.00
50.8482 3276.00
50.9134 2673.00
50.9786 2509.00
51.0438 2297.00
51.109 2396.00
51.1742 2646.00
51.2394 2978.00
51.3046 3191.00
51.3698 2524.00
51.435 2388.00
51.5002 1870.00
51.5654 1649.00
51.6306 1553.00
51.6958 1489.00
51.761 1540.00
51.8262 1551.00
51.8914 1345.00
51.9566 1371.00
52.0218 1326.00
52.087 1222.00
52.1522 1168.00
52.2174 1140.00
52.2826 1159.00
52.3477 1169.00
52.4129 1181.00
52.4781 1208.00
52.5433 1170.00
52.6085 1178.00
52.6737 1188.00
52.7389 1262.00
52.8041 1249.00
52.8693 1219.00
52.9345 1228.00
52.9997 1244.00
53.0649 1196.00
53.1301 1166.00
53.1953 1138.00
53.2605 1150.00
53.3257 1169.00
53.3909 1126.00
53.4561 1120.00
53.5213 1126.00
53.5865 1099.00
53.6517 1153.00
53.7169 1126.00
53.7821 1235.00
53.8473 1263.00
53.9125 1264.00
53.9777 1328.00
54.0429 1449.00
54.1081 1612.00
54.1733 1878.00
54.2385 1868.00
54.3037 2101.00
54.3689 2280.00
54.4341 2054.00
54.4993 2014.00
54.5645 1960.00
54.6297 1924.00
54.6949 1985.00
54.7601 1911.00
54.8253 1754.00
54.8905 1642.00
54.9557 1462.00
55.0209 1455.00
55.0861 1375.00
55.1513 1346.00
55.2165 1452.00
55.2817 1650.00
55.3469 1843.00
55.4121 1722.00
55.4773 1980.00
55.5425 2052.00
55.6077 2151.00
55.6729 2323.00
55.7381 2342.00
55.8033 2456.00
55.8685 2672.00
55.9337 2632.00
55.9989 2720.00
56.0641 2685.00
56.1293 2681.00
56.1945 2628.00
56.2597 2289.00
56.3249 2115.00
56.3901 1954.00
56.4553 1922.00
56.5205 2012.00
56.5857 1735.00
56.6509 1580.00
56.7161 1451.00
56.7813 1424.00
56.8465 1225.00
56.9117 1222.00
56.9769 1237.00
57.042 1180.00
57.1073 1162.00
57.1724 1269.00
57.2376 1240.00
57.3028 1403.00
57.368 1597.00
57.4332 1704.00
57.4984 1693.00
57.5636 1721.00
57.6288 1570.00
57.694 1595.00
57.7592 1730.00
57.8244 1786.00
57.8896 1764.00
57.9548 1624.00
58.02 1468.00
58.0852 1474.00
58.1504 1606.00
58.2156 1574.00
58.2808 1420.00
58.346 1452.00
58.4112 1567.00
58.4764 1723.00
58.5416 1732.00
58.6068 1635.00
58.672 1590.00
58.7372 1581.00
58.8024 1490.00
58.8676 1409.00
58.9328 1451.00
58.998 1411.00
59.0632 1321.00
59.1284 1332.00
59.1936 1233.00
59.2588 1274.00
59.324 1366.00
59.3892 1382.00
59.4544 1360.00
59.5196 1317.00
59.5848 1330.00
59.65 1252.00
59.7152 1261.00
59.7804 1329.00
59.8456 1370.00
59.9108 1572.00
59.976 1797.00
60.0412 1862.00
60.1064 1863.00
60.1716 1897.00
60.2368 1978.00
60.302 1966.00
60.3672 2112.00
60.4324 2160.00
60.4976 1994.00
60.5628 1911.00
60.628 1952.00
60.6932 1810.00
60.7584 1813.00
60.8236 1973.00
60.8888 2222.00
60.954 2091.00
61.0192 1655.00
61.0844 1696.00
61.1496 1452.00
61.2148 1362.00
61.28 1257.00
61.3452 1264.00
61.4104 1303.00
61.4756 1384.00
61.5408 1504.00
61.606 1608.00
61.6712 1579.00
61.7364 1528.00
61.8016 1541.00
61.8667 1593.00
61.932 1592.00
61.9971 1677.00
62.0623 1702.00
62.1275 1736.00
62.1927 1777.00
62.2579 1884.00
62.3231 1879.00
62.3883 1908.00
62.4535 1857.00
62.5187 1909.00
62.5839 1896.00
62.6491 1848.00
62.7143 1781.00
62.7795 1632.00
62.8447 1612.00
62.9099 1865.00
62.9751 1802.00
63.0403 1939.00
63.1055 2051.00
63.1707 1806.00
63.2359 1717.00
63.3011 1686.00
63.3663 1574.00
63.4315 1630.00
63.4967 1665.00
63.5619 1704.00
63.6271 1500.00
63.6923 1441.00
63.7575 1334.00
63.8227 1369.00
63.8879 1318.00
63.9531 1306.00
64.0183 1146.00
64.0835 1110.00
64.1487 1114.00
64.2139 1164.00
64.2791 1107.00
64.3443 1166.00
64.4095 1179.00
64.4747 1213.00
64.5399 1286.00
64.6051 1212.00
64.6703 1245.00
64.7355 1254.00
64.8007 1259.00
64.8659 1220.00
64.9311 1207.00
64.9963 1189.00
65.0615 1210.00
65.1267 1133.00
65.1919 1173.00
65.2571 1188.00
65.3223 1160.00
65.3875 1225.00
65.4527 1145.00
65.5179 1188.00
65.5831 1337.00
65.6483 1402.00
65.7135 1464.00
65.7787 1387.00
65.8439 1572.00
65.9091 1617.00
65.9743 1805.00
66.0395 1630.00
66.1047 1601.00
66.1699 1542.00
66.2351 1540.00
66.3003 1570.00
66.3655 1641.00
66.4307 1551.00
66.4959 1449.00
66.561 1443.00
66.6263 1320.00
66.6915 1206.00
66.7566 1100.00
66.8218 1109.00
66.887 1053.00
66.9522 1012.00
67.0174 966.00
67.0826 953.00
67.1478 987.00
67.213 978.00
67.2782 871.00
67.3434 931.00
67.4086 895.00
67.4738 975.00
67.539 932.00
67.6042 978.00
67.6694 1016.00
67.7346 892.00
67.7998 1011.00
67.865 913.00
67.9302 985.00
67.9954 957.00
68.0606 963.00
68.1258 918.00
68.191 1020.00
68.2562 1019.00
68.3214 977.00
68.3866 960.00
68.4518 986.00
68.517 963.00
68.5822 924.00
68.6474 958.00
68.7126 921.00
68.7778 936.00
68.843 966.00
68.9082 1046.00
68.9734 1083.00
69.0386 1105.00
69.1038 1041.00
69.169 1142.00
69.2342 1078.00
69.2994 1092.00
69.3646 1013.00
69.4298 1046.00
69.495 1025.00
69.5602 1093.00
69.6254 1109.00
69.6906 1199.00
69.7558 1131.00
69.821 1127.00
69.8862 1090.00
69.9514 1038.00
70.0166 989.00
70.0818 1039.00
70.147 1000.00
70.2122 969.00
70.2774 1001.00
70.3426 999.00
70.4078 1055.00
70.473 1157.00
70.5382 1089.00
70.6034 1081.00
70.6686 1004.00
70.7338 1064.00
70.799 1034.00
70.8642 929.00
70.9294 984.00
70.9946 979.00
71.0598 985.00
71.125 991.00
71.1902 1059.00
71.2554 1131.00
71.3205 1142.00
71.3858 1165.00
71.451 1260.00
71.5162 1291.00
71.5813 1256.00
71.6465 1263.00
71.7117 1292.00
71.7769 1354.00
71.8421 1322.00
71.9073 1235.00
71.9725 1308.00
72.0377 1218.00
72.1029 1187.00
72.1681 1114.00
72.2333 1197.00
72.2985 1133.00
72.3637 1163.00
72.4289 1100.00
72.4941 1071.00
72.5593 1056.00
72.6245 1085.00
72.6897 1132.00
72.7549 1142.00
72.8201 1149.00
72.8853 1195.00
72.9505 1157.00
73.0157 1095.00
73.0809 1069.00
73.1461 1072.00
73.2113 1020.00
73.2765 1093.00
73.3417 1007.00
73.4069 1017.00
73.4721 1025.00
73.5373 1035.00
73.6025 997.00
73.6677 989.00
73.7329 981.00
73.7981 975.00
73.8633 1050.00
73.9285 952.00
73.9937 1004.00
74.0589 950.00
74.1241 972.00
74.1893 896.00
74.2545 918.00
74.3197 965.00
74.3849 963.00
74.4501 912.00
74.5153 994.00
74.5805 928.00
74.6457 961.00
74.7109 998.00
74.7761 1015.00
74.8413 1042.00
74.9065 1073.00
74.9717 1098.00
75.0369 1089.00
75.1021 1124.00
75.1673 1235.00
75.2325 1438.00
75.2977 1595.00
75.3629 1373.00
75.4281 1387.00
75.4933 1394.00
75.5585 1275.00
75.6237 1195.00
75.6889 1230.00
75.7541 1162.00
75.8193 1250.00
75.8845 1215.00
75.9497 1117.00
76.0149 1121.00
76.0801 1119.00
76.1452 1060.00
76.2104 1104.00
76.2756 1052.00
76.3409 1018.00
76.406 1024.00
76.4712 1034.00
76.5364 1069.00
76.6016 1150.00
76.6668 1153.00
76.732 1104.00
76.7972 1086.00
76.8624 1093.00
76.9276 1016.00
76.9928 1022.00
77.058 1047.00
77.1232 1096.00
77.1884 1051.00
77.2536 1032.00
77.3188 1051.00
77.384 1035.00
77.4492 1103.00
77.5144 1059.00
77.5796 983.00
77.6448 1023.00
77.71 1018.00
77.7752 1076.00
77.8404 1052.00
77.9056 1039.00
77.9708 1016.00
78.036 1054.00
78.1012 1040.00
78.1664 1110.00
78.2316 1089.00
78.2968 1081.00
78.362 1043.00
78.4272 1057.00
78.4924 1036.00
78.5576 982.00
78.6228 954.00
78.688 950.00
78.7532 1064.00
78.8184 981.00
78.8836 1034.00
78.9488 1048.00
79.014 1099.00
79.0792 1086.00
79.1444 1115.00
79.2096 1058.00
79.2748 1040.00
79.34 1081.00
79.4052 1045.00
79.4704 1051.00
79.5356 1088.00
79.6008 1108.00
79.666 1095.00
79.7312 1069.00
79.7964 990.00
79.8616 979.00
79.9268 990.00
79.992 872.00
80.0572 963.00
80.1224 876.00
80.1876 863.00
80.2528 873.00
80.318 855.00
80.3832 906.00
80.4484 908.00
80.5136 957.00
80.5788 879.00
80.644 936.00
80.7092 984.00
80.7744 902.00
80.8396 947.00
80.9048 933.00
80.9699 892.00
81.0351 838.00
81.1003 942.00
81.1655 919.00
81.2307 945.00
81.2959 859.00
81.3611 912.00
81.4263 925.00
81.4915 973.00
81.5567 987.00
81.6219 900.00
81.6871 943.00
81.7523 993.00
81.8175 1029.00
81.8827 1053.00
81.9479 1030.00
82.0131 1099.00
82.0783 1064.00
82.1435 1071.00
82.2087 1066.00
82.2739 1120.00
82.3391 1098.00
82.4043 1072.00
82.4695 1059.00
82.5347 1079.00
82.5999 1092.00
82.6651 1068.00
82.7303 1101.00
82.7955 1096.00
82.8607 1109.00
82.9259 1144.00
82.9911 1065.00
83.0563 1126.00
83.1215 1122.00
83.1867 1214.00
83.2519 1234.00
83.3171 1418.00
83.3823 1471.00
83.4475 1307.00
83.5127 1221.00
83.5779 1339.00
83.6431 1300.00
83.7083 1228.00
83.7735 1191.00
83.8387 1169.00
83.9039 1148.00
83.9691 1185.00
84.0343 1212.00
84.0995 1253.00
84.1647 1188.00
84.2299 1128.00
84.2951 1134.00
84.3603 1151.00
84.4255 1158.00
84.4907 1065.00
84.5559 1101.00
84.6211 1082.00
84.6863 1164.00
84.7515 1141.00
84.8167 1127.00
84.8819 1151.00
84.9471 1171.00
85.0123 1173.00
85.0775 1140.00
85.1427 1118.00
85.2079 1040.00
85.2731 1002.00
85.3383 1086.00
85.4035 946.00
85.4687 1007.00
85.5339 947.00
85.5991 1009.00
85.6643 975.00
85.7295 1043.00
85.7946 977.00
85.8598 949.00
85.925 1027.00
85.9903 1027.00
86.0554 1032.00
86.1206 1004.00
86.1858 908.00
86.251 1014.00
86.3162 1009.00
86.3814 1039.00
86.4466 986.00
86.5118 933.00
86.577 928.00
86.6422 922.00
86.7074 944.00
86.7726 943.00
86.8378 935.00
86.903 965.00
86.9682 1009.00
87.0334 921.00
87.0986 905.00
87.1638 945.00
87.229 909.00
87.2942 944.00
87.3594 947.00
87.4246 975.00
87.4898 970.00
87.555 977.00
87.6202 1055.00
87.6854 962.00
87.7506 949.00
87.8158 929.00
87.881 903.00
87.9462 951.00
88.0114 924.00
88.0766 922.00
88.1418 1033.00
88.207 1092.00
88.2722 1109.00
88.3374 1208.00
88.4026 1145.00
88.4678 1111.00
88.533 1060.00
88.5982 1096.00
88.6634 1165.00
88.7286 1204.00
88.7938 1190.00
88.859 1109.00
88.9242 1122.00
88.9894 1143.00
89.0546 1141.00
89.1198 1143.00
89.185 1051.00
89.2502 1077.00
89.3154 1122.00
89.3806 1065.00
89.4458 1096.00
89.511 1108.00
89.5762 1137.00
89.6414 1124.00
89.7066 1014.00
89.7718 1010.00
89.837 1048.00
89.9022 1079.00
89.9674 1114.00
90.0326 1140.00
90.0978 1156.00
90.163 1180.00
90.2282 1119.00
90.2934 1152.00
90.3586 1097.00
90.4238 1030.00
90.489 1022.00
90.5542 1053.00
90.6193 982.00
90.6845 1024.00
90.7497 999.00
90.8149 1036.00
90.8801 1024.00
90.9453 1002.00
91.0105 974.00
91.0757 967.00
91.1409 894.00
91.2061 864.00
91.2713 901.00
91.3365 836.00
91.4017 930.00
91.4669 931.00
91.5321 935.00
91.5973 906.00
91.6625 889.00
91.7277 904.00
91.7929 848.00
91.8581 886.00
91.9233 868.00
91.9885 913.00
92.0537 839.00
92.1189 858.00
92.1841 844.00
92.2493 906.00
92.3145 867.00
92.3797 874.00
92.4449 882.00
92.5101 926.00
92.5753 883.00
92.6405 880.00
92.7057 862.00
92.7709 865.00
92.8361 837.00
92.9013 832.00
92.9665 857.00
93.0317 849.00
93.0969 789.00
93.1621 815.00
93.2273 800.00
93.2925 859.00
93.3577 853.00
93.4229 900.00
93.4881 861.00
93.5533 892.00
93.6185 868.00
93.6837 842.00
93.7489 913.00
93.8141 912.00
93.8793 996.00
93.9445 913.00
94.0097 935.00
94.0749 911.00
94.1401 882.00
94.2053 914.00
94.2705 909.00
94.3357 938.00
94.4009 959.00
94.4661 886.00
94.5313 918.00
94.5965 956.00
94.6617 980.00
94.7269 948.00
94.7921 935.00
94.8573 898.00
94.9225 946.00
94.9877 936.00
95.0529 1023.00
95.1181 994.00
95.1833 1009.00
95.2485 1007.00
95.3137 1134.00
95.3789 1056.00
95.444 1073.00
95.5092 983.00
95.5744 1045.00
95.6396 1077.00
95.7048 1048.00
95.77 1030.00
95.8352 1036.00
95.9004 1062.00
95.9656 1099.00
96.0308 1080.00
96.096 1045.00
96.1612 1002.00
96.2264 1129.00
96.2916 1050.00
96.3568 1112.00
96.422 1157.00
96.4872 1103.00
96.5524 1071.00
96.6176 1167.00
96.6828 1169.00
96.748 1178.00
96.8132 1136.00
96.8784 1151.00
96.9436 1164.00
97.0088 1186.00
97.074 1213.00
97.1392 1143.00
97.2044 1107.00
97.2696 1192.00
97.3348 1140.00
97.4 1143.00
97.4652 1207.00
97.5304 1172.00
97.5956 1128.00
97.6608 1070.00
97.726 1062.00
97.7912 1118.00
97.8564 1095.00
97.9216 1148.00
97.9868 1126.00
98.052 1115.00
98.1172 1132.00
98.1824 1071.00
98.2476 1061.00
98.3128 1027.00
98.378 1065.00
98.4432 1108.00
98.5084 946.00
98.5736 988.00
98.6388 960.00
98.704 980.00
98.7692 1043.00
98.8344 1118.00
98.8996 1073.00
98.9648 1123.00
99.03 1125.00
99.0952 1085.00
99.1604 1128.00
99.2256 1076.00
99.2908 1061.00
99.356 1096.00
99.4212 1092.00
99.4864 1127.00
99.5516 1106.00
99.6168 1274.00
99.682 1227.00
99.7472 1204.00
99.8124 1120.00
99.8776 1033.00
99.9428 1078.00
100.008 1061.00
100.073 1114.00
100.095 1061.00