File: data/xrd_creation/results/NSC_55.xy
9.903433 2534.00
9.968632 2565.00
10.0338 2510.00
10.099 2404.00
10.1642 2427.00
10.2294 2398.00
10.2946 2395.00
10.3598 2407.00
10.425 2368.00
10.4902 2352.00
10.5554 2354.00
10.6206 2260.00
10.6858 2326.00
10.751 2366.00
10.8162 2198.00
10.8814 2178.00
10.9466 2231.00
11.0118 2099.00
11.077 2136.00
11.1422 2200.00
11.2074 2167.00
11.2726 2170.00
11.3378 2043.00
11.403 1978.00
11.4682 2081.00
11.5334 1977.00
11.5986 1985.00
11.6638 1964.00
11.729 1905.00
11.7942 1946.00
11.8594 1917.00
11.9246 1949.00
11.9898 1998.00
12.055 1860.00
12.1202 1856.00
12.1854 1736.00
12.2506 1880.00
12.3158 1778.00
12.381 1789.00
12.4462 1794.00
12.5114 1753.00
12.5766 1708.00
12.6418 1752.00
12.707 1690.00
12.7722 1686.00
12.8374 1746.00
12.9026 1701.00
12.9678 1671.00
13.033 1635.00
13.0982 1705.00
13.1634 1651.00
13.2286 1628.00
13.2938 1657.00
13.359 1530.00
13.4242 1502.00
13.4894 1503.00
13.5546 1589.00
13.6198 1556.00
13.685 1516.00
13.7502 1497.00
13.8154 1489.00
13.8805 1480.00
13.9457 1522.00
14.0109 1453.00
14.0761 1468.00
14.1413 1434.00
14.2065 1421.00
14.2717 1460.00
14.3369 1469.00
14.4021 1447.00
14.4673 1470.00
14.5325 1449.00
14.5977 1417.00
14.6629 1381.00
14.7281 1380.00
14.7933 1350.00
14.8585 1347.00
14.9237 1335.00
14.9889 1402.00
15.0541 1364.00
15.1193 1300.00
15.1845 1363.00
15.2497 1277.00
15.3149 1355.00
15.3801 1310.00
15.4453 1294.00
15.5105 1241.00
15.5757 1282.00
15.6409 1321.00
15.7061 1318.00
15.7713 1206.00
15.8365 1304.00
15.9017 1285.00
15.9669 1271.00
16.0321 1283.00
16.0973 1223.00
16.1625 1301.00
16.2277 1261.00
16.2929 1217.00
16.3581 1215.00
16.4233 1260.00
16.4885 1208.00
16.5537 1206.00
16.6189 1277.00
16.6841 1248.00
16.7493 1188.00
16.8145 1175.00
16.8797 1180.00
16.9449 1235.00
17.0101 1173.00
17.0753 1164.00
17.1405 1140.00
17.2057 1108.00
17.2709 1192.00
17.3361 1131.00
17.4013 1106.00
17.4665 1110.00
17.5317 1060.00
17.5969 1131.00
17.6621 1108.00
17.7273 1121.00
17.7925 1115.00
17.8577 1082.00
17.9229 1075.00
17.9881 1060.00
18.0533 1038.00
18.1185 992.00
18.1837 1067.00
18.2489 1036.00
18.3141 1060.00
18.3793 1000.00
18.4445 1062.00
18.5097 1061.00
18.5749 1023.00
18.6401 1032.00
18.7052 999.00
18.7704 973.00
18.8356 1017.00
18.9008 972.00
18.966 977.00
19.0312 1045.00
19.0964 989.00
19.1616 1005.00
19.2268 937.00
19.292 966.00
19.3572 964.00
19.4224 874.00
19.4876 946.00
19.5528 959.00
19.618 981.00
19.6832 984.00
19.7484 977.00
19.8136 911.00
19.8788 921.00
19.944 958.00
20.0092 917.00
20.0744 861.00
20.1396 908.00
20.2048 918.00
20.27 876.00
20.3352 878.00
20.4004 942.00
20.4656 860.00
20.5308 850.00
20.596 897.00
20.6612 899.00
20.7264 865.00
20.7916 884.00
20.8568 896.00
20.922 868.00
20.9872 856.00
21.0524 867.00
21.1176 852.00
21.1828 839.00
21.248 856.00
21.3132 845.00
21.3784 803.00
21.4436 876.00
21.5088 844.00
21.574 889.00
21.6392 811.00
21.7044 819.00
21.7696 848.00
21.8348 756.00
21.9 813.00
21.9652 756.00
22.0304 817.00
22.0956 816.00
22.1608 793.00
22.226 838.00
22.2912 779.00
22.3564 768.00
22.4216 791.00
22.4868 823.00
22.552 806.00
22.6172 769.00
22.6824 837.00
22.7476 767.00
22.8128 772.00
22.878 808.00
22.9432 768.00
23.0084 780.00
23.0736 747.00
23.1388 752.00
23.204 725.00
23.2692 756.00
23.3344 774.00
23.3996 728.00
23.4647 779.00
23.5299 709.00
23.5951 790.00
23.6603 783.00
23.7255 699.00
23.7907 723.00
23.8559 720.00
23.9211 719.00
23.9863 764.00
24.0515 753.00
24.1167 702.00
24.1819 763.00
24.2471 697.00
24.3123 719.00
24.3775 726.00
24.4427 693.00
24.5079 679.00
24.5731 756.00
24.6383 721.00
24.7035 702.00
24.7687 680.00
24.8339 691.00
24.8991 716.00
24.9643 685.00
25.0295 654.00
25.0947 715.00
25.1599 680.00
25.2251 676.00
25.2903 627.00
25.3555 649.00
25.4207 666.00
25.4859 698.00
25.5511 666.00
25.6163 682.00
25.6815 624.00
25.7467 641.00
25.8119 685.00
25.8771 653.00
25.9423 651.00
26.0075 636.00
26.0727 635.00
26.1379 645.00
26.2031 633.00
26.2683 648.00
26.3335 679.00
26.3987 614.00
26.4639 640.00
26.5291 622.00
26.5943 624.00
26.6595 641.00
26.7247 617.00
26.7899 627.00
26.8551 618.00
26.9203 638.00
26.9855 664.00
27.0507 618.00
27.1159 588.00
27.1811 607.00
27.2463 590.00
27.3115 625.00
27.3767 658.00
27.4419 626.00
27.5071 573.00
27.5723 604.00
27.6375 601.00
27.7027 577.00
27.7679 594.00
27.8331 553.00
27.8983 612.00
27.9635 536.00
28.0287 598.00
28.0939 631.00
28.1591 589.00
28.2243 582.00
28.2894 603.00
28.3546 608.00
28.4198 587.00
28.485 606.00
28.5502 627.00
28.6154 570.00
28.6806 554.00
28.7458 561.00
28.811 574.00
28.8762 537.00
28.9414 516.00
29.0066 573.00
29.0718 511.00
29.137 555.00
29.2022 546.00
29.2674 517.00
29.3326 584.00
29.3978 574.00
29.463 524.00
29.5282 541.00
29.5934 509.00
29.6586 505.00
29.7238 570.00
29.789 537.00
29.8542 523.00
29.9194 531.00
29.9846 540.00
30.0498 561.00
30.115 528.00
30.1802 533.00
30.2454 493.00
30.3106 541.00
30.3758 593.00
30.441 530.00
30.5062 576.00
30.5714 500.00
30.6366 534.00
30.7018 508.00
30.767 498.00
30.8322 493.00
30.8974 504.00
30.9626 535.00
31.0278 495.00
31.093 558.00
31.1582 535.00
31.2234 517.00
31.2886 528.00
31.3538 459.00
31.419 460.00
31.4842 511.00
31.5494 518.00
31.6146 491.00
31.6798 512.00
31.745 477.00
31.8102 489.00
31.8754 483.00
31.9406 476.00
32.0058 511.00
32.071 448.00
32.1362 469.00
32.2014 451.00
32.2666 460.00
32.3318 470.00
32.397 404.00
32.4622 472.00
32.5274 476.00
32.5926 450.00
32.6578 479.00
32.723 481.00
32.7882 463.00
32.8534 438.00
32.9186 458.00
32.9838 453.00
33.0489 478.00
33.1141 464.00
33.1793 455.00
33.2445 458.00
33.3097 471.00
33.3749 455.00
33.4401 495.00
33.5053 429.00
33.5705 432.00
33.6357 483.00
33.7009 425.00
33.7661 430.00
33.8313 421.00
33.8965 462.00
33.9617 406.00
34.0269 435.00
34.0921 495.00
34.1573 443.00
34.2225 455.00
34.2877 417.00
34.3529 422.00
34.4181 413.00
34.4833 391.00
34.5485 439.00
34.6137 462.00
34.6789 462.00
34.7441 439.00
34.8093 455.00
34.8745 456.00
34.9397 395.00
35.0049 404.00
35.0701 428.00
35.1353 406.00
35.2005 419.00
35.2657 433.00
35.3309 389.00
35.3961 392.00
35.4613 417.00
35.5265 384.00
35.5917 432.00
35.6569 385.00
35.7221 423.00
35.7873 438.00
35.8525 423.00
35.9177 367.00
35.9829 418.00
36.0481 365.00
36.1133 361.00
36.1785 420.00
36.2437 382.00
36.3089 414.00
36.3741 454.00
36.4393 376.00
36.5045 403.00
36.5697 380.00
36.6349 378.00
36.7001 398.00
36.7653 376.00
36.8305 409.00
36.8957 421.00
36.9609 376.00
37.0261 382.00
37.0913 349.00
37.1565 342.00
37.2217 380.00
37.2869 367.00
37.3521 395.00
37.4173 391.00
37.4825 345.00
37.5477 340.00
37.6129 389.00
37.6781 371.00
37.7433 344.00
37.8085 351.00
37.8736 346.00
37.9388 399.00
38.004 347.00
38.0692 336.00
38.1344 353.00
38.1996 335.00
38.2648 350.00
38.33 326.00
38.3952 344.00
38.4604 339.00
38.5256 323.00
38.5908 369.00
38.656 366.00
38.7212 335.00
38.7864 330.00
38.8516 363.00
38.9168 371.00
38.982 349.00
39.0472 346.00
39.1124 346.00
39.1776 309.00
39.2428 362.00
39.308 327.00
39.3732 362.00
39.4384 306.00
39.5036 331.00
39.5688 356.00
39.634 323.00
39.6992 317.00
39.7644 329.00
39.8296 350.00
39.8948 348.00
39.96 337.00
40.0252 282.00
40.0904 317.00
40.1556 339.00
40.2208 363.00
40.286 346.00
40.3512 363.00
40.4164 347.00
40.4816 335.00
40.5468 331.00
40.612 349.00
40.6772 348.00
40.7424 346.00
40.8076 353.00
40.8728 303.00
40.938 302.00
41.0032 298.00
41.0684 311.00
41.1336 298.00
41.1988 319.00
41.264 319.00
41.3292 331.00
41.3944 288.00
41.4596 350.00
41.5248 338.00
41.59 313.00
41.6552 283.00
41.7204 285.00
41.7856 307.00
41.8508 282.00
41.916 316.00
41.9812 319.00
42.0464 306.00
42.1116 309.00
42.1768 297.00
42.242 304.00
42.3072 317.00
42.3724 294.00
42.4376 295.00
42.5028 322.00
42.568 324.00
42.6332 305.00
42.6983 322.00
42.7635 322.00
42.8287 329.00
42.8939 333.00
42.9591 298.00
43.0243 344.00
43.0895 308.00
43.1547 281.00
43.2199 283.00
43.2851 302.00
43.3503 292.00
43.4155 292.00
43.4807 308.00
43.5459 306.00
43.6111 321.00
43.6763 277.00
43.7415 293.00
43.8067 281.00
43.8719 299.00
43.9371 303.00
44.0023 271.00
44.0675 327.00
44.1327 317.00
44.1979 293.00
44.2631 328.00
44.3283 312.00
44.3935 289.00
44.4587 250.00
44.5239 265.00
44.5891 274.00
44.6543 342.00
44.7195 271.00
44.7847 317.00
44.8499 312.00
44.9151 282.00
44.9803 287.00
45.0455 302.00
45.1107 300.00
45.1759 287.00
45.2411 274.00
45.3063 275.00
45.3715 274.00
45.4367 280.00
45.5019 278.00
45.5671 291.00
45.6323 286.00
45.6975 284.00
45.7627 279.00
45.8279 272.00
45.8931 279.00
45.9583 278.00
46.0235 269.00
46.0887 310.00
46.1539 295.00
46.2191 276.00
46.2843 244.00
46.3495 276.00
46.4147 274.00
46.4799 293.00
46.5451 269.00
46.6103 296.00
46.6755 271.00
46.7407 274.00
46.8059 276.00
46.8711 266.00
46.9363 248.00
47.0015 276.00
47.0667 228.00
47.1319 306.00
47.1971 280.00
47.2623 264.00
47.3275 277.00
47.3927 266.00
47.4579 262.00
47.523 266.00
47.5882 290.00
47.6534 277.00
47.7186 289.00
47.7838 289.00
47.849 249.00
47.9142 275.00
47.9794 263.00
48.0446 266.00
48.1098 257.00
48.175 277.00
48.2402 239.00
48.3054 275.00
48.3706 275.00
48.4358 265.00
48.501 275.00
48.5662 282.00
48.6314 292.00
48.6966 269.00
48.7618 257.00
48.827 245.00
48.8922 289.00
48.9574 265.00
49.0226 240.00
49.0878 280.00
49.153 281.00
49.2182 250.00
49.2834 241.00
49.3486 235.00
49.4138 280.00
49.479 263.00
49.5442 230.00
49.6094 260.00
49.6746 266.00
49.7398 288.00
49.805 235.00
49.8702 257.00
49.9354 218.00
50.0006 258.00
50.0658 249.00
50.131 244.00
50.1962 271.00
50.2614 244.00
50.3266 256.00
50.3918 234.00
50.457 250.00
50.5222 232.00
50.5874 249.00
50.6526 212.00
50.7178 242.00
50.783 264.00
50.8482 240.00
50.9134 233.00
50.9786 257.00
51.0438 247.00
51.109 260.00
51.1742 240.00
51.2394 281.00
51.3046 270.00
51.3698 242.00
51.435 229.00
51.5002 260.00
51.5654 293.00
51.6306 247.00
51.6958 222.00
51.761 256.00
51.8262 276.00
51.8914 236.00
51.9566 231.00
52.0218 239.00
52.087 228.00
52.1522 257.00
52.2174 266.00
52.2826 230.00
52.3477 269.00
52.4129 228.00
52.4781 246.00
52.5433 230.00
52.6085 227.00
52.6737 223.00
52.7389 209.00
52.8041 211.00
52.8693 270.00
52.9345 230.00
52.9997 214.00
53.0649 225.00
53.1301 215.00
53.1953 213.00
53.2605 244.00
53.3257 246.00
53.3909 230.00
53.4561 231.00
53.5213 227.00
53.5865 236.00
53.6517 226.00
53.7169 248.00
53.7821 245.00
53.8473 223.00
53.9125 236.00
53.9777 236.00
54.0429 236.00
54.1081 206.00
54.1733 265.00
54.2385 244.00
54.3037 229.00
54.3689 229.00
54.4341 229.00
54.4993 184.00
54.5645 218.00
54.6297 243.00
54.6949 227.00
54.7601 238.00
54.8253 212.00
54.8905 227.00
54.9557 231.00
55.0209 250.00
55.0861 206.00
55.1513 222.00
55.2165 233.00
55.2817 213.00
55.3469 228.00
55.4121 235.00
55.4773 201.00
55.5425 219.00
55.6077 204.00
55.6729 220.00
55.7381 200.00
55.8033 231.00
55.8685 225.00
55.9337 241.00
55.9989 225.00
56.0641 208.00
56.1293 213.00
56.1945 223.00
56.2597 225.00
56.3249 197.00
56.3901 213.00
56.4553 203.00
56.5205 202.00
56.5857 208.00
56.6509 226.00
56.7161 219.00
56.7813 208.00
56.8465 193.00
56.9117 218.00
56.9769 238.00
57.042 208.00
57.1073 225.00
57.1724 223.00
57.2376 199.00
57.3028 194.00
57.368 207.00
57.4332 209.00
57.4984 218.00
57.5636 219.00
57.6288 192.00
57.694 201.00
57.7592 202.00
57.8244 200.00
57.8896 204.00
57.9548 219.00
58.02 214.00
58.0852 166.00
58.1504 220.00
58.2156 204.00
58.2808 201.00
58.346 203.00
58.4112 220.00
58.4764 208.00
58.5416 204.00
58.6068 218.00
58.672 204.00
58.7372 192.00
58.8024 201.00
58.8676 182.00
58.9328 199.00
58.998 180.00
59.0632 221.00
59.1284 204.00
59.1936 191.00
59.2588 176.00
59.324 205.00
59.3892 187.00
59.4544 204.00
59.5196 192.00
59.5848 213.00
59.65 205.00
59.7152 200.00
59.7804 205.00
59.8456 203.00
59.9108 190.00
59.976 222.00
60.0412 183.00
60.1064 193.00
60.1716 194.00
60.2368 208.00
60.302 209.00
60.3672 218.00
60.4324 209.00
60.4976 201.00
60.5628 200.00
60.628 211.00
60.6932 182.00
60.7584 213.00
60.8236 195.00
60.8888 201.00
60.954 198.00
61.0192 183.00
61.0844 203.00
61.1496 180.00
61.2148 205.00
61.28 215.00
61.3452 192.00
61.4104 204.00
61.4756 198.00
61.5408 191.00
61.606 172.00
61.6712 179.00
61.7364 220.00
61.8016 180.00
61.8667 201.00
61.932 176.00
61.9971 194.00
62.0623 179.00
62.1275 184.00
62.1927 200.00
62.2579 184.00
62.3231 190.00
62.3883 218.00
62.4535 190.00
62.5187 199.00
62.5839 193.00
62.6491 211.00
62.7143 197.00
62.7795 183.00
62.8447 171.00
62.9099 193.00
62.9751 176.00
63.0403 167.00
63.1055 190.00
63.1707 178.00
63.2359 203.00
63.3011 190.00
63.3663 185.00
63.4315 196.00
63.4967 172.00
63.5619 161.00
63.6271 182.00
63.6923 193.00
63.7575 186.00
63.8227 151.00
63.8879 176.00
63.9531 193.00
64.0183 197.00
64.0835 185.00
64.1487 167.00
64.2139 167.00
64.2791 179.00
64.3443 186.00
64.4095 187.00
64.4747 192.00
64.5399 189.00
64.6051 181.00
64.6703 192.00
64.7355 183.00
64.8007 177.00
64.8659 176.00
64.9311 164.00
64.9963 168.00
65.0615 160.00
65.1267 175.00
65.1919 176.00
65.2571 167.00
65.3223 171.00
65.3875 188.00
65.4527 183.00
65.5179 196.00
65.5831 202.00
65.6483 185.00
65.7135 187.00
65.7787 147.00
65.8439 166.00
65.9091 149.00
65.9743 170.00
66.0395 184.00
66.1047 205.00
66.1699 190.00
66.2351 180.00
66.3003 177.00
66.3655 189.00
66.4307 191.00
66.4959 168.00
66.561 182.00
66.6263 173.00
66.6915 183.00
66.7566 177.00
66.8218 160.00
66.887 166.00
66.9522 175.00
67.0174 164.00
67.0826 192.00
67.1478 150.00
67.213 176.00
67.2782 198.00
67.3434 187.00
67.4086 175.00
67.4738 176.00
67.539 218.00
67.6042 185.00
67.6694 198.00
67.7346 189.00
67.7998 183.00
67.865 197.00
67.9302 160.00
67.9954 198.00
68.0606 197.00
68.1258 184.00
68.191 176.00
68.2562 188.00
68.3214 192.00
68.3866 170.00
68.4518 170.00
68.517 185.00
68.5822 180.00
68.6474 181.00
68.7126 199.00
68.7778 208.00
68.843 192.00
68.9082 193.00
68.9734 176.00
69.0386 171.00
69.1038 192.00
69.169 168.00
69.2342 188.00
69.2994 182.00
69.3646 172.00
69.4298 170.00
69.495 187.00
69.5602 176.00
69.6254 156.00
69.6906 186.00
69.7558 185.00
69.821 182.00
69.8862 199.00
69.9514 172.00
70.0166 194.00
70.0818 168.00
70.147 190.00
70.2122 202.00
70.2774 180.00
70.3426 157.00
70.4078 205.00
70.473 185.00
70.5382 192.00
70.6034 177.00
70.6686 155.00
70.7338 182.00
70.799 188.00
70.8642 172.00
70.9294 171.00
70.9946 179.00
71.0598 167.00
71.125 171.00
71.1902 198.00
71.2554 174.00
71.3205 197.00
71.3858 178.00
71.451 193.00
71.5162 177.00
71.5813 160.00
71.6465 212.00
71.7117 195.00
71.7769 205.00
71.8421 185.00
71.9073 196.00
71.9725 206.00
72.0377 181.00
72.1029 179.00
72.1681 185.00
72.2333 202.00
72.2985 181.00
72.3637 203.00
72.4289 193.00
72.4941 192.00
72.5593 190.00
72.6245 172.00
72.6897 170.00
72.7549 194.00
72.8201 191.00
72.8853 189.00
72.9505 184.00
73.0157 178.00
73.0809 214.00
73.1461 187.00
73.2113 204.00
73.2765 193.00
73.3417 188.00
73.4069 207.00
73.4721 178.00
73.5373 188.00
73.6025 157.00
73.6677 181.00
73.7329 162.00
73.7981 166.00
73.8633 206.00
73.9285 183.00
73.9937 192.00
74.0589 188.00
74.1241 205.00
74.1893 191.00
74.2545 189.00
74.3197 191.00
74.3849 200.00
74.4501 196.00
74.5153 215.00
74.5805 167.00
74.6457 164.00
74.7109 188.00
74.7761 173.00
74.8413 162.00
74.9065 191.00
74.9717 222.00
75.0369 196.00
75.1021 188.00
75.1673 178.00
75.2325 208.00
75.2977 173.00
75.3629 209.00
75.4281 198.00
75.4933 206.00
75.5585 202.00
75.6237 177.00
75.6889 195.00
75.7541 213.00
75.8193 204.00
75.8845 185.00
75.9497 209.00
76.0149 193.00
76.0801 179.00
76.1452 181.00
76.2104 187.00
76.2756 204.00
76.3409 184.00
76.406 221.00
76.4712 177.00
76.5364 200.00
76.6016 191.00
76.6668 234.00
76.732 182.00
76.7972 213.00
76.8624 199.00
76.9276 237.00
76.9928 216.00
77.058 204.00
77.1232 182.00
77.1884 205.00
77.2536 211.00
77.3188 227.00
77.384 223.00
77.4492 194.00
77.5144 185.00
77.5796 211.00
77.6448 192.00
77.71 202.00
77.7752 184.00
77.8404 200.00
77.9056 192.00
77.9708 196.00
78.036 179.00
78.1012 196.00
78.1664 178.00
78.2316 195.00
78.2968 200.00
78.362 206.00
78.4272 204.00
78.4924 173.00
78.5576 197.00
78.6228 210.00
78.688 205.00
78.7532 194.00
78.8184 214.00
78.8836 183.00
78.9488 195.00
79.014 226.00
79.0792 198.00
79.1444 205.00
79.2096 222.00
79.2748 222.00
79.34 212.00
79.4052 211.00
79.4704 201.00
79.5356 238.00
79.6008 220.00
79.666 212.00
79.7312 210.00
79.7964 221.00
79.8616 196.00
79.9268 203.00
79.992 204.00
80.0572 211.00
80.1224 169.00
80.1876 214.00
80.2528 205.00
80.318 238.00
80.3832 219.00
80.4484 241.00
80.5136 223.00
80.5788 213.00
80.644 185.00
80.7092 228.00
80.7744 203.00
80.8396 176.00
80.9048 220.00
80.9699 250.00
81.0351 206.00
81.1003 227.00
81.1655 204.00
81.2307 234.00
81.2959 234.00
81.3611 221.00
81.4263 203.00
81.4915 240.00
81.5567 203.00
81.6219 227.00
81.6871 200.00
81.7523 215.00
81.8175 201.00
81.8827 229.00
81.9479 219.00
82.0131 212.00
82.0783 189.00
82.1435 223.00
82.2087 203.00
82.2739 208.00
82.3391 241.00
82.4043 215.00
82.4695 228.00
82.5347 197.00
82.5999 220.00
82.6651 205.00
82.7303 215.00
82.7955 204.00
82.8607 211.00
82.9259 218.00
82.9911 234.00
83.0563 206.00
83.1215 210.00
83.1867 212.00
83.2519 197.00
83.3171 233.00
83.3823 246.00
83.4475 194.00
83.5127 214.00
83.5779 180.00
83.6431 218.00
83.7083 178.00
83.7735 225.00
83.8387 218.00
83.9039 176.00
83.9691 225.00
84.0343 195.00
84.0995 215.00
84.1647 199.00
84.2299 235.00
84.2951 206.00
84.3603 232.00
84.4255 202.00
84.4907 201.00
84.5559 198.00
84.6211 212.00
84.6863 206.00
84.7515 196.00
84.8167 210.00
84.8819 214.00
84.9471 205.00
85.0123 200.00
85.0775 184.00
85.1427 203.00
85.2079 198.00
85.2731 202.00
85.3383 219.00
85.4035 219.00
85.4687 192.00
85.5339 205.00
85.5991 204.00
85.6643 220.00
85.7295 195.00
85.7946 189.00
85.8598 183.00
85.925 194.00
85.9903 209.00
86.0554 182.00
86.1206 208.00
86.1858 228.00
86.251 203.00
86.3162 186.00
86.3814 197.00
86.4466 202.00
86.5118 201.00
86.577 180.00
86.6422 201.00
86.7074 175.00
86.7726 185.00
86.8378 200.00
86.903 202.00
86.9682 173.00
87.0334 205.00
87.0986 204.00
87.1638 196.00
87.229 183.00
87.2942 178.00
87.3594 194.00
87.4246 183.00
87.4898 165.00
87.555 203.00
87.6202 188.00
87.6854 171.00
87.7506 160.00
87.8158 174.00
87.881 180.00
87.9462 178.00
88.0114 225.00
88.0766 160.00
88.1418 181.00
88.207 167.00
88.2722 192.00
88.3374 171.00
88.4026 199.00
88.4678 212.00
88.533 176.00
88.5982 178.00
88.6634 165.00
88.7286 195.00
88.7938 192.00
88.859 158.00
88.9242 197.00
88.9894 175.00
89.0546 218.00
89.1198 202.00
89.185 187.00
89.2502 217.00
89.3154 210.00
89.3806 157.00
89.4458 210.00
89.511 182.00
89.5762 213.00
89.6414 193.00
89.7066 194.00
89.7718 183.00
89.837 191.00
89.9022 182.00
89.9674 204.00
90.0326 170.00
90.0978 214.00
90.163 211.00
90.2282 170.00
90.2934 149.00
90.3586 201.00
90.4238 182.00
90.489 188.00
90.5542 170.00
90.6193 197.00
90.6845 194.00
90.7497 174.00
90.8149 192.00
90.8801 166.00
90.9453 164.00
91.0105 202.00
91.0757 193.00
91.1409 178.00
91.2061 157.00
91.2713 151.00
91.3365 186.00
91.4017 171.00
91.4669 171.00
91.5321 184.00
91.5973 176.00
91.6625 186.00
91.7277 167.00
91.7929 191.00
91.8581 166.00
91.9233 187.00
91.9885 170.00
92.0537 182.00
92.1189 153.00
92.1841 191.00
92.2493 190.00
92.3145 169.00
92.3797 185.00
92.4449 183.00
92.5101 177.00
92.5753 164.00
92.6405 196.00
92.7057 181.00
92.7709 164.00
92.8361 193.00
92.9013 184.00
92.9665 164.00
93.0317 186.00
93.0969 190.00
93.1621 190.00
93.2273 170.00
93.2925 189.00
93.3577 175.00
93.4229 190.00
93.4881 189.00
93.5533 184.00
93.6185 173.00
93.6837 168.00
93.7489 169.00
93.8141 182.00
93.8793 162.00
93.9445 174.00
94.0097 204.00
94.0749 173.00
94.1401 171.00
94.2053 164.00
94.2705 169.00
94.3357 179.00
94.4009 178.00
94.4661 167.00
94.5313 168.00
94.5965 178.00
94.6617 163.00
94.7269 163.00
94.7921 164.00
94.8573 176.00
94.9225 177.00
94.9877 156.00
95.0529 191.00
95.1181 187.00
95.1833 184.00
95.2485 186.00
95.3137 172.00
95.3789 186.00
95.444 177.00
95.5092 200.00
95.5744 182.00
95.6396 188.00
95.7048 198.00
95.77 172.00
95.8352 176.00
95.9004 171.00
95.9656 173.00
96.0308 166.00
96.096 170.00
96.1612 166.00
96.2264 180.00
96.2916 199.00
96.3568 178.00
96.422 173.00
96.4872 208.00
96.5524 182.00
96.6176 174.00
96.6828 193.00
96.748 198.00
96.8132 190.00
96.8784 175.00
96.9436 187.00
97.0088 189.00
97.074 185.00
97.1392 189.00
97.2044 193.00
97.2696 168.00
97.3348 178.00
97.4 203.00
97.4652 175.00
97.5304 191.00
97.5956 179.00
97.6608 171.00
97.726 215.00
97.7912 174.00
97.8564 173.00
97.9216 165.00
97.9868 187.00
98.052 177.00
98.1172 169.00
98.1824 174.00
98.2476 173.00
98.3128 153.00
98.378 185.00
98.4432 184.00
98.5084 192.00
98.5736 166.00
98.6388 177.00
98.704 196.00
98.7692 178.00
98.8344 165.00
98.8996 167.00
98.9648 167.00
99.03 205.00
99.0952 184.00
99.1604 183.00
99.2256 190.00
99.2908 186.00
99.356 176.00
99.4212 191.00
99.4864 155.00
99.5516 184.00
99.6168 186.00
99.682 158.00
99.7472 185.00
99.8124 174.00
99.8776 183.00
99.9428 166.00
100.008 140.00
100.073 175.00
100.095 169.00