File: data/xrd_creation/results/NSC_135.xy
9.903433 2571.00
9.968632 2612.00
10.0338 2565.00
10.099 2536.00
10.1642 2569.00
10.2294 2597.00
10.2946 2446.00
10.3598 2522.00
10.425 2471.00
10.4902 2546.00
10.5554 2447.00
10.6206 2451.00
10.6858 2539.00
10.751 2478.00
10.8162 2394.00
10.8814 2409.00
10.9466 2386.00
11.0118 2256.00
11.077 2376.00
11.1422 2290.00
11.2074 2321.00
11.2726 2226.00
11.3378 2140.00
11.403 2212.00
11.4682 2162.00
11.5334 2141.00
11.5986 2134.00
11.6638 2136.00
11.729 2140.00
11.7942 2167.00
11.8594 2151.00
11.9246 2091.00
11.9898 2014.00
12.055 2032.00
12.1202 2010.00
12.1854 1978.00
12.2506 2067.00
12.3158 1974.00
12.381 2043.00
12.4462 1939.00
12.5114 1892.00
12.5766 1936.00
12.6418 1934.00
12.707 1921.00
12.7722 1976.00
12.8374 1942.00
12.9026 1902.00
12.9678 1915.00
13.033 1850.00
13.0982 1904.00
13.1634 1824.00
13.2286 1810.00
13.2938 1874.00
13.359 1739.00
13.4242 1884.00
13.4894 1859.00
13.5546 1829.00
13.6198 1860.00
13.685 1833.00
13.7502 1872.00
13.8154 1889.00
13.8805 1988.00
13.9457 2111.00
14.0109 2206.00
14.0761 2203.00
14.1413 2410.00
14.2065 2480.00
14.2717 2674.00
14.3369 2910.00
14.4021 3794.00
14.4673 3919.00
14.5325 2459.00
14.5977 1879.00
14.6629 1737.00
14.7281 1814.00
14.7933 1786.00
14.8585 1728.00
14.9237 1701.00
14.9889 1671.00
15.0541 1616.00
15.1193 1717.00
15.1845 1668.00
15.2497 1770.00
15.3149 1696.00
15.3801 1685.00
15.4453 1660.00
15.5105 1642.00
15.5757 1629.00
15.6409 1615.00
15.7061 1634.00
15.7713 1690.00
15.8365 1653.00
15.9017 1629.00
15.9669 1658.00
16.0321 1602.00
16.0973 1590.00
16.1625 1699.00
16.2277 1529.00
16.2929 1607.00
16.3581 1698.00
16.4233 1590.00
16.4885 1621.00
16.5537 1530.00
16.6189 1574.00
16.6841 1489.00
16.7493 1520.00
16.8145 1553.00
16.8797 1585.00
16.9449 1607.00
17.0101 1524.00
17.0753 1535.00
17.1405 1539.00
17.2057 1593.00
17.2709 1574.00
17.3361 1510.00
17.4013 1624.00
17.4665 1534.00
17.5317 1533.00
17.5969 1489.00
17.6621 1445.00
17.7273 1491.00
17.7925 1482.00
17.8577 1427.00
17.9229 1505.00
17.9881 1481.00
18.0533 1553.00
18.1185 1542.00
18.1837 1493.00
18.2489 1437.00
18.3141 1492.00
18.3793 1436.00
18.4445 1456.00
18.5097 1447.00
18.5749 1480.00
18.6401 1430.00
18.7052 1453.00
18.7704 1469.00
18.8356 1433.00
18.9008 1426.00
18.966 1501.00
19.0312 1450.00
19.0964 1507.00
19.1616 1496.00
19.2268 1561.00
19.292 1659.00
19.3572 1860.00
19.4224 2095.00
19.4876 2447.00
19.5528 2897.00
19.618 3373.00
19.6832 3927.00
19.7484 4443.00
19.8136 5771.00
19.8788 7980.00
19.944 11114.00
20.0092 9546.00
20.0744 4739.00
20.1396 2989.00
20.2048 2865.00
20.27 3388.00
20.3352 3954.00
20.4004 4376.00
20.4656 5282.00
20.5308 6503.00
20.596 8792.00
20.6612 12604.00
20.7264 13191.00
20.7916 7710.00
20.8568 3625.00
20.922 2477.00
20.9872 2199.00
21.0524 2165.00
21.1176 1844.00
21.1828 1612.00
21.248 1528.00
21.3132 1546.00
21.3784 1523.00
21.4436 1530.00
21.5088 1575.00
21.574 1520.00
21.6392 1510.00
21.7044 1560.00
21.7696 1644.00
21.8348 1712.00
21.9 1718.00
21.9652 1657.00
22.0304 1851.00
22.0956 1974.00
22.1608 1725.00
22.226 1567.00
22.2912 1419.00
22.3564 1493.00
22.4216 1389.00
22.4868 1375.00
22.552 1422.00
22.6172 1568.00
22.6824 1457.00
22.7476 1349.00
22.8128 1379.00
22.878 1425.00
22.9432 1370.00
23.0084 1369.00
23.0736 1406.00
23.1388 1473.00
23.204 1484.00
23.2692 1586.00
23.3344 1682.00
23.3996 1831.00
23.4647 2236.00
23.5299 2414.00
23.5951 2767.00
23.6603 3227.00
23.7255 3898.00
23.7907 4911.00
23.8559 7153.00
23.9211 8542.00
23.9863 6040.00
24.0515 3086.00
24.1167 1876.00
24.1819 1472.00
24.2471 1405.00
24.3123 1348.00
24.3775 1327.00
24.4427 1295.00
24.5079 1312.00
24.5731 1315.00
24.6383 1297.00
24.7035 1328.00
24.7687 1263.00
24.8339 1282.00
24.8991 1286.00
24.9643 1327.00
25.0295 1331.00
25.0947 1339.00
25.1599 1281.00
25.2251 1282.00
25.2903 1259.00
25.3555 1363.00
25.4207 1338.00
25.4859 1392.00
25.5511 1265.00
25.6163 1283.00
25.6815 1287.00
25.7467 1424.00
25.8119 1561.00
25.8771 1575.00
25.9423 1750.00
26.0075 1902.00
26.0727 2244.00
26.1379 2609.00
26.2031 3409.00
26.2683 3899.00
26.3335 3252.00
26.3987 2310.00
26.4639 2012.00
26.5291 2001.00
26.5943 2395.00
26.6595 3016.00
26.7247 3625.00
26.7899 2443.00
26.8551 1734.00
26.9203 1502.00
26.9855 1390.00
27.0507 1254.00
27.1159 1271.00
27.1811 1167.00
27.2463 1210.00
27.3115 1272.00
27.3767 1279.00
27.4419 1124.00
27.5071 1187.00
27.5723 1252.00
27.6375 1132.00
27.7027 1159.00
27.7679 1183.00
27.8331 1177.00
27.8983 1242.00
27.9635 1110.00
28.0287 1244.00
28.0939 1287.00
28.1591 1351.00
28.2243 1424.00
28.2894 1568.00
28.3546 1778.00
28.4198 2164.00
28.485 2692.00
28.5502 3337.00
28.6154 4139.00
28.6806 5868.00
28.7458 7873.00
28.811 7357.00
28.8762 4623.00
28.9414 2447.00
29.0066 1656.00
29.0718 1326.00
29.137 1217.00
29.2022 1188.00
29.2674 1140.00
29.3326 1136.00
29.3978 1108.00
29.463 1090.00
29.5282 1102.00
29.5934 1148.00
29.6586 1042.00
29.7238 1093.00
29.789 1062.00
29.8542 1054.00
29.9194 1101.00
29.9846 1139.00
30.0498 1171.00
30.115 1091.00
30.1802 1029.00
30.2454 1118.00
30.3106 1075.00
30.3758 1119.00
30.441 1059.00
30.5062 1126.00
30.5714 1188.00
30.6366 1162.00
30.7018 1084.00
30.767 1165.00
30.8322 1085.00
30.8974 1151.00
30.9626 1184.00
31.0278 1215.00
31.093 1252.00
31.1582 1458.00
31.2234 1509.00
31.2886 1872.00
31.3538 2369.00
31.419 2968.00
31.4842 3998.00
31.5494 5183.00
31.6146 7084.00
31.6798 10176.00
31.745 11279.00
31.8102 8554.00
31.8754 5259.00
31.9406 3403.00
32.0058 2250.00
32.071 1700.00
32.1362 1443.00
32.2014 1199.00
32.2666 1127.00
32.3318 1126.00
32.397 1067.00
32.4622 1080.00
32.5274 1079.00
32.5926 1036.00
32.6578 1063.00
32.723 1079.00
32.7882 1040.00
32.8534 1048.00
32.9186 1058.00
32.9838 1059.00
33.0489 1049.00
33.1141 1074.00
33.1793 1070.00
33.2445 1079.00
33.3097 1040.00
33.3749 1001.00
33.4401 985.00
33.5053 1033.00
33.5705 1075.00
33.6357 1049.00
33.7009 1071.00
33.7661 1094.00
33.8313 1077.00
33.8965 1199.00
33.9617 1155.00
34.0269 1227.00
34.0921 1467.00
34.1573 1722.00
34.2225 1805.00
34.2877 1658.00
34.3529 1378.00
34.4181 1213.00
34.4833 1042.00
34.5485 1029.00
34.6137 1031.00
34.6789 1033.00
34.7441 1078.00
34.8093 1086.00
34.8745 1069.00
34.9397 1099.00
35.0049 1105.00
35.0701 1124.00
35.1353 1273.00
35.2005 1503.00
35.2657 1622.00
35.3309 1984.00
35.3961 2435.00
35.4613 3418.00
35.5265 4501.00
35.5917 4863.00
35.6569 4255.00
35.7221 3321.00
35.7873 3098.00
35.8525 3656.00
35.9177 4922.00
35.9829 5933.00
36.0481 5558.00
36.1133 4090.00
36.1785 2719.00
36.2437 1910.00
36.3089 1510.00
36.3741 1339.00
36.4393 1160.00
36.5045 1134.00
36.5697 1158.00
36.6349 1202.00
36.7001 1134.00
36.7653 970.00
36.8305 971.00
36.8957 886.00
36.9609 963.00
37.0261 961.00
37.0913 926.00
37.1565 939.00
37.2217 930.00
37.2869 999.00
37.3521 900.00
37.4173 962.00
37.4825 926.00
37.5477 950.00
37.6129 931.00
37.6781 987.00
37.7433 859.00
37.8085 861.00
37.8736 938.00
37.9388 993.00
38.004 947.00
38.0692 984.00
38.1344 1110.00
38.1996 1127.00
38.2648 1305.00
38.33 1436.00
38.3952 1384.00
38.4604 1239.00
38.5256 1145.00
38.5908 1033.00
38.656 946.00
38.7212 894.00
38.7864 965.00
38.8516 913.00
38.9168 872.00
38.982 955.00
39.0472 977.00
39.1124 960.00
39.1776 977.00
39.2428 1062.00
39.308 1178.00
39.3732 1042.00
39.4384 1061.00
39.5036 992.00
39.5688 968.00
39.634 1076.00
39.6992 1137.00
39.7644 1256.00
39.8296 1192.00
39.8948 1201.00
39.96 1182.00
40.0252 1301.00
40.0904 1385.00
40.1556 1659.00
40.2208 1814.00
40.286 1533.00
40.3512 1267.00
40.4164 1118.00
40.4816 957.00
40.5468 895.00
40.612 886.00
40.6772 918.00
40.7424 887.00
40.8076 964.00
40.8728 901.00
40.938 895.00
41.0032 902.00
41.0684 904.00
41.1336 924.00
41.1988 931.00
41.264 942.00
41.3292 976.00
41.3944 1082.00
41.4596 1031.00
41.5248 1244.00
41.59 1414.00
41.6552 1735.00
41.7204 2097.00
41.7856 2211.00
41.8508 2231.00
41.916 2152.00
41.9812 2125.00
42.0464 2116.00
42.1116 1997.00
42.1768 1716.00
42.242 1377.00
42.3072 1209.00
42.3724 1193.00
42.4376 1195.00
42.5028 1152.00
42.568 1160.00
42.6332 1091.00
42.6983 1065.00
42.7635 942.00
42.8287 925.00
42.8939 877.00
42.9591 928.00
43.0243 853.00
43.0895 924.00
43.1547 972.00
43.2199 1105.00
43.2851 1219.00
43.3503 1381.00
43.4155 1726.00
43.4807 2225.00
43.5459 2451.00
43.6111 2346.00
43.6763 1914.00
43.7415 1569.00
43.8067 1260.00
43.8719 1042.00
43.9371 980.00
44.0023 949.00
44.0675 953.00
44.1327 1004.00
44.1979 1081.00
44.2631 1141.00
44.3283 1106.00
44.3935 998.00
44.4587 978.00
44.5239 946.00
44.5891 837.00
44.6543 925.00
44.7195 837.00
44.7847 814.00
44.8499 843.00
44.9151 930.00
44.9803 974.00
45.0455 993.00
45.1107 1108.00
45.1759 1217.00
45.2411 1423.00
45.3063 1635.00
45.3715 2002.00
45.4367 2724.00
45.5019 3021.00
45.5671 2791.00
45.6323 2300.00
45.6975 1738.00
45.7627 1337.00
45.8279 1175.00
45.8931 1027.00
45.9583 974.00
46.0235 954.00
46.0887 977.00
46.1539 1014.00
46.2191 1145.00
46.2843 1209.00
46.3495 1437.00
46.4147 1786.00
46.4799 2405.00
46.5451 2666.00
46.6103 2614.00
46.6755 2160.00
46.7407 1814.00
46.8059 1460.00
46.8711 1356.00
46.9363 1203.00
47.0015 1401.00
47.0667 1514.00
47.1319 1859.00
47.1971 2000.00
47.2623 1913.00
47.3275 1735.00
47.3927 1447.00
47.4579 1164.00
47.523 1001.00
47.5882 927.00
47.6534 838.00
47.7186 973.00
47.7838 876.00
47.849 916.00
47.9142 895.00
47.9794 936.00
48.0446 995.00
48.1098 1182.00
48.175 1293.00
48.2402 1448.00
48.3054 1634.00
48.3706 2051.00
48.4358 2715.00
48.501 3772.00
48.5662 4056.00
48.6314 3881.00
48.6966 3372.00
48.7618 2501.00
48.827 1897.00
48.8922 1610.00
48.9574 1457.00
49.0226 1273.00
49.0878 1300.00
49.153 1306.00
49.2182 1310.00
49.2834 1265.00
49.3486 1181.00
49.4138 1069.00
49.479 1012.00
49.5442 930.00
49.6094 912.00
49.6746 966.00
49.7398 806.00
49.805 999.00
49.8702 1030.00
49.9354 1123.00
50.0006 1004.00
50.0658 1002.00
50.131 908.00
50.1962 864.00
50.2614 861.00
50.3266 840.00
50.3918 806.00
50.457 855.00
50.5222 786.00
50.5874 873.00
50.6526 856.00
50.7178 838.00
50.783 854.00
50.8482 817.00
50.9134 847.00
50.9786 804.00
51.0438 839.00
51.109 918.00
51.1742 1001.00
51.2394 1082.00
51.3046 1164.00
51.3698 1180.00
51.435 1215.00
51.5002 1205.00
51.5654 1349.00
51.6306 1417.00
51.6958 1561.00
51.761 2066.00
51.8262 2778.00
51.8914 3430.00
51.9566 3539.00
52.0218 3133.00
52.087 2687.00
52.1522 2104.00
52.2174 1646.00
52.2826 1485.00
52.3477 1351.00
52.4129 1179.00
52.4781 1091.00
52.5433 997.00
52.6085 898.00
52.6737 863.00
52.7389 837.00
52.8041 847.00
52.8693 815.00
52.9345 832.00
52.9997 832.00
53.0649 833.00
53.1301 830.00
53.1953 874.00
53.2605 881.00
53.3257 889.00
53.3909 909.00
53.4561 906.00
53.5213 911.00
53.5865 934.00
53.6517 917.00
53.7169 902.00
53.7821 892.00
53.8473 916.00
53.9125 853.00
53.9777 833.00
54.0429 866.00
54.1081 883.00
54.1733 801.00
54.2385 787.00
54.3037 804.00
54.3689 893.00
54.4341 901.00
54.4993 977.00
54.5645 1012.00
54.6297 1187.00
54.6949 1227.00
54.7601 1548.00
54.8253 1748.00
54.8905 1759.00
54.9557 1721.00
55.0209 1573.00
55.0861 1448.00
55.1513 1199.00
55.2165 1119.00
55.2817 1029.00
55.3469 1017.00
55.4121 1063.00
55.4773 1168.00
55.5425 1341.00
55.6077 1625.00
55.6729 2001.00
55.7381 2344.00
55.8033 2673.00
55.8685 2842.00
55.9337 3168.00
55.9989 3356.00
56.0641 3684.00
56.1293 3464.00
56.1945 3173.00
56.2597 2678.00
56.3249 2142.00
56.3901 1715.00
56.4553 1399.00
56.5205 1149.00
56.5857 1063.00
56.6509 957.00
56.7161 931.00
56.7813 820.00
56.8465 858.00
56.9117 823.00
56.9769 832.00
57.042 829.00
57.1073 911.00
57.1724 853.00
57.2376 891.00
57.3028 918.00
57.368 904.00
57.4332 986.00
57.4984 1038.00
57.5636 964.00
57.6288 963.00
57.694 970.00
57.7592 879.00
57.8244 860.00
57.8896 811.00
57.9548 811.00
58.02 772.00
58.0852 736.00
58.1504 841.00
58.2156 818.00
58.2808 891.00
58.346 837.00
58.4112 932.00
58.4764 984.00
58.5416 1007.00
58.6068 1111.00
58.672 1185.00
58.7372 1437.00
58.8024 1604.00
58.8676 1514.00
58.9328 1611.00
58.998 1582.00
59.0632 1670.00
59.1284 1594.00
59.1936 1492.00
59.2588 1394.00
59.324 1249.00
59.3892 1107.00
59.4544 1046.00
59.5196 963.00
59.5848 898.00
59.65 972.00
59.7152 988.00
59.7804 1034.00
59.8456 985.00
59.9108 1003.00
59.976 965.00
60.0412 953.00
60.1064 998.00
60.1716 970.00
60.2368 1063.00
60.302 1171.00
60.3672 1335.00
60.4324 1622.00
60.4976 2011.00
60.5628 2180.00
60.628 2214.00
60.6932 1989.00
60.7584 1692.00
60.8236 1405.00
60.8888 1214.00
60.954 1160.00
61.0192 989.00
61.0844 961.00
61.1496 965.00
61.2148 985.00
61.28 1027.00
61.3452 1026.00
61.4104 1120.00
61.4756 1227.00
61.5408 1505.00
61.606 1821.00
61.6712 2206.00
61.7364 2358.00
61.8016 2444.00
61.8667 2137.00
61.932 2004.00
61.9971 1644.00
62.0623 1320.00
62.1275 1199.00
62.1927 1071.00
62.2579 976.00
62.3231 1024.00
62.3883 880.00
62.4535 843.00
62.5187 933.00
62.5839 914.00
62.6491 1041.00
62.7143 1125.00
62.7795 1261.00
62.8447 1383.00
62.9099 1560.00
62.9751 1550.00
63.0403 1572.00
63.1055 1553.00
63.1707 1398.00
63.2359 1247.00
63.3011 1229.00
63.3663 1154.00
63.4315 1120.00
63.4967 993.00
63.5619 1034.00
63.6271 972.00
63.6923 1021.00
63.7575 1045.00
63.8227 1036.00
63.8879 1041.00
63.9531 1178.00
64.0183 1319.00
64.0835 1383.00
64.1487 1448.00
64.2139 1613.00
64.2791 1687.00
64.3443 1747.00
64.4095 1739.00
64.4747 1741.00
64.5399 1723.00
64.6051 1609.00
64.6703 1512.00
64.7355 1450.00
64.8007 1248.00
64.8659 1153.00
64.9311 1091.00
64.9963 924.00
65.0615 854.00
65.1267 819.00
65.1919 845.00
65.2571 853.00
65.3223 783.00
65.3875 816.00
65.4527 810.00
65.5179 893.00
65.5831 867.00
65.6483 910.00
65.7135 934.00
65.7787 1025.00
65.8439 954.00
65.9091 1070.00
65.9743 1202.00
66.0395 1198.00
66.1047 1121.00
66.1699 1201.00
66.2351 1183.00
66.3003 1160.00
66.3655 1203.00
66.4307 1121.00
66.4959 1115.00
66.561 1194.00
66.6263 1124.00
66.6915 1215.00
66.7566 1389.00
66.8218 1477.00
66.887 1569.00
66.9522 1571.00
67.0174 1589.00
67.0826 1475.00
67.1478 1395.00
67.213 1283.00
67.2782 1241.00
67.3434 1147.00
67.4086 1185.00
67.4738 1024.00
67.539 1088.00
67.6042 1123.00
67.6694 967.00
67.7346 1027.00
67.7998 1104.00
67.865 1152.00
67.9302 1305.00
67.9954 1395.00
68.0606 1410.00
68.1258 1339.00
68.191 1377.00
68.2562 1295.00
68.3214 1262.00
68.3866 1327.00
68.4518 1301.00
68.517 1332.00
68.5822 1326.00
68.6474 1256.00
68.7126 1154.00
68.7778 1081.00
68.843 930.00
68.9082 910.00
68.9734 908.00
69.0386 802.00
69.1038 853.00
69.169 797.00
69.2342 857.00
69.2994 844.00
69.3646 898.00
69.4298 946.00
69.495 1025.00
69.5602 1061.00
69.6254 1080.00
69.6906 1106.00
69.7558 1036.00
69.821 979.00
69.8862 952.00
69.9514 890.00
70.0166 912.00
70.0818 800.00
70.147 810.00
70.2122 842.00
70.2774 808.00
70.3426 896.00
70.4078 855.00
70.473 814.00
70.5382 825.00
70.6034 786.00
70.6686 814.00
70.7338 773.00
70.799 805.00
70.8642 780.00
70.9294 759.00
70.9946 762.00
71.0598 819.00
71.125 799.00
71.1902 795.00
71.2554 820.00
71.3205 819.00
71.3858 862.00
71.451 841.00
71.5162 975.00
71.5813 1032.00
71.6465 1137.00
71.7117 1275.00
71.7769 1409.00
71.8421 1487.00
71.9073 1507.00
71.9725 1420.00
72.0377 1263.00
72.1029 1206.00
72.1681 1073.00
72.2333 981.00
72.2985 899.00
72.3637 885.00
72.4289 818.00
72.4941 760.00
72.5593 788.00
72.6245 782.00
72.6897 829.00
72.7549 795.00
72.8201 760.00
72.8853 816.00
72.9505 806.00
73.0157 835.00
73.0809 798.00
73.1461 774.00
73.2113 766.00
73.2765 770.00
73.3417 800.00
73.4069 747.00
73.4721 750.00
73.5373 755.00
73.6025 726.00
73.6677 755.00
73.7329 800.00
73.7981 794.00
73.8633 795.00
73.9285 807.00
73.9937 783.00
74.0589 898.00
74.1241 903.00
74.1893 903.00
74.2545 977.00
74.3197 1118.00
74.3849 1134.00
74.4501 1252.00
74.5153 1270.00
74.5805 1253.00
74.6457 1294.00
74.7109 1235.00
74.7761 1144.00
74.8413 1100.00
74.9065 1018.00
74.9717 1026.00
75.0369 929.00
75.1021 964.00
75.1673 992.00
75.2325 927.00
75.2977 889.00
75.3629 982.00
75.4281 912.00
75.4933 966.00
75.5585 1026.00
75.6237 1075.00
75.6889 1162.00
75.7541 1228.00
75.8193 1364.00
75.8845 1375.00
75.9497 1376.00
76.0149 1321.00
76.0801 1255.00
76.1452 1187.00
76.2104 1191.00
76.2756 1050.00
76.3409 1078.00
76.406 956.00
76.4712 964.00
76.5364 925.00
76.6016 867.00
76.6668 814.00
76.732 819.00
76.7972 751.00
76.8624 827.00
76.9276 745.00
76.9928 739.00
77.058 702.00
77.1232 786.00
77.1884 782.00
77.2536 767.00
77.3188 816.00
77.384 836.00
77.4492 793.00
77.5144 771.00
77.5796 851.00
77.6448 840.00
77.71 872.00
77.7752 840.00
77.8404 827.00
77.9056 846.00
77.9708 883.00
78.036 847.00
78.1012 867.00
78.1664 921.00
78.2316 837.00
78.2968 849.00
78.362 858.00
78.4272 826.00
78.4924 848.00
78.5576 826.00
78.6228 858.00
78.688 805.00
78.7532 811.00
78.8184 870.00
78.8836 829.00
78.9488 854.00
79.014 906.00
79.0792 931.00
79.1444 1021.00
79.2096 1074.00
79.2748 1140.00
79.34 1138.00
79.4052 1284.00
79.4704 1364.00
79.5356 1345.00
79.6008 1400.00
79.666 1439.00
79.7312 1327.00
79.7964 1320.00
79.8616 1289.00
79.9268 1190.00
79.992 1144.00
80.0572 1066.00
80.1224 1034.00
80.1876 1005.00
80.2528 914.00
80.318 942.00
80.3832 843.00
80.4484 833.00
80.5136 904.00
80.5788 882.00
80.644 937.00
80.7092 864.00
80.7744 857.00
80.8396 893.00
80.9048 851.00
80.9699 893.00
81.0351 867.00
81.1003 901.00
81.1655 808.00
81.2307 785.00
81.2959 802.00
81.3611 802.00
81.4263 865.00
81.4915 846.00
81.5567 912.00
81.6219 928.00
81.6871 1064.00
81.7523 1121.00
81.8175 1145.00
81.8827 1211.00
81.9479 1148.00
82.0131 1140.00
82.0783 1068.00
82.1435 1058.00
82.2087 954.00
82.2739 858.00
82.3391 832.00
82.4043 844.00
82.4695 720.00
82.5347 792.00
82.5999 697.00
82.6651 782.00
82.7303 760.00
82.7955 782.00
82.8607 738.00
82.9259 696.00
82.9911 759.00
83.0563 758.00
83.1215 760.00
83.1867 814.00
83.2519 772.00
83.3171 761.00
83.3823 834.00
83.4475 846.00
83.5127 829.00
83.5779 799.00
83.6431 863.00
83.7083 812.00
83.7735 839.00
83.8387 741.00
83.9039 817.00
83.9691 763.00
84.0343 824.00
84.0995 880.00
84.1647 944.00
84.2299 1043.00
84.2951 1072.00
84.3603 1057.00
84.4255 1113.00
84.4907 1102.00
84.5559 1070.00
84.6211 1046.00
84.6863 999.00
84.7515 932.00
84.8167 825.00
84.8819 891.00
84.9471 841.00
85.0123 806.00
85.0775 809.00
85.1427 758.00
85.2079 790.00
85.2731 748.00
85.3383 769.00
85.4035 800.00
85.4687 843.00
85.5339 907.00
85.5991 924.00
85.6643 848.00
85.7295 932.00
85.7946 935.00
85.8598 933.00
85.925 906.00
85.9903 969.00
86.0554 892.00
86.1206 910.00
86.1858 907.00
86.251 931.00
86.3162 875.00
86.3814 945.00
86.4466 904.00
86.5118 1003.00
86.577 971.00
86.6422 928.00
86.7074 893.00
86.7726 955.00
86.8378 922.00
86.903 947.00
86.9682 969.00
87.0334 900.00
87.0986 920.00
87.1638 945.00
87.229 871.00
87.2942 858.00
87.3594 902.00
87.4246 862.00
87.4898 894.00
87.555 960.00
87.6202 945.00
87.6854 911.00
87.7506 869.00
87.8158 842.00
87.881 848.00
87.9462 826.00
88.0114 769.00
88.0766 778.00
88.1418 762.00
88.207 754.00
88.2722 794.00
88.3374 714.00
88.4026 735.00
88.4678 727.00
88.533 717.00
88.5982 754.00
88.6634 780.00
88.7286 776.00
88.7938 782.00
88.859 890.00
88.9242 880.00
88.9894 850.00
89.0546 906.00
89.1198 872.00
89.185 919.00
89.2502 888.00
89.3154 856.00
89.3806 840.00
89.4458 828.00
89.511 811.00
89.5762 864.00
89.6414 800.00
89.7066 834.00
89.7718 858.00
89.837 895.00
89.9022 867.00
89.9674 913.00
90.0326 965.00
90.0978 1005.00
90.163 1037.00
90.2282 1100.00
90.2934 1162.00
90.3586 1164.00
90.4238 1249.00
90.489 1230.00
90.5542 1231.00
90.6193 1271.00
90.6845 1209.00
90.7497 1218.00
90.8149 1085.00
90.8801 1038.00
90.9453 1046.00
91.0105 965.00
91.0757 926.00
91.1409 898.00
91.2061 901.00
91.2713 835.00
91.3365 842.00
91.4017 788.00
91.4669 756.00
91.5321 804.00
91.5973 821.00
91.6625 778.00
91.7277 734.00
91.7929 788.00
91.8581 772.00
91.9233 736.00
91.9885 828.00
92.0537 739.00
92.1189 767.00
92.1841 811.00
92.2493 796.00
92.3145 819.00
92.3797 912.00
92.4449 982.00
92.5101 990.00
92.5753 970.00
92.6405 1031.00
92.7057 1015.00
92.7709 1001.00
92.8361 970.00
92.9013 967.00
92.9665 1006.00
93.0317 951.00
93.0969 909.00
93.1621 870.00
93.2273 901.00
93.2925 901.00
93.3577 903.00
93.4229 956.00
93.4881 873.00
93.5533 851.00
93.6185 887.00
93.6837 867.00
93.7489 806.00
93.8141 816.00
93.8793 825.00
93.9445 830.00
94.0097 766.00
94.0749 782.00
94.1401 801.00
94.2053 792.00
94.2705 791.00
94.3357 783.00
94.4009 734.00
94.4661 838.00
94.5313 782.00
94.5965 850.00
94.6617 892.00
94.7269 916.00
94.7921 884.00
94.8573 955.00
94.9225 932.00
94.9877 932.00
95.0529 969.00
95.1181 984.00
95.1833 971.00
95.2485 948.00
95.3137 918.00
95.3789 893.00
95.444 903.00
95.5092 896.00
95.5744 913.00
95.6396 893.00
95.7048 809.00
95.77 895.00
95.8352 804.00
95.9004 908.00
95.9656 955.00
96.0308 958.00
96.096 1033.00
96.1612 1027.00
96.2264 1053.00
96.2916 1048.00
96.3568 1079.00
96.422 1025.00
96.4872 1015.00
96.5524 919.00
96.6176 885.00
96.6828 907.00
96.748 910.00
96.8132 819.00
96.8784 888.00
96.9436 893.00
97.0088 933.00
97.074 935.00
97.1392 1004.00
97.2044 953.00
97.2696 1001.00
97.3348 1043.00
97.4 1026.00
97.4652 1033.00
97.5304 936.00
97.5956 1092.00
97.6608 997.00
97.726 1081.00
97.7912 1009.00
97.8564 997.00
97.9216 931.00
97.9868 959.00
98.052 889.00
98.1172 794.00
98.1824 857.00
98.2476 794.00
98.3128 811.00
98.378 785.00
98.4432 758.00
98.5084 751.00
98.5736 749.00
98.6388 683.00
98.704 753.00
98.7692 726.00
98.8344 765.00
98.8996 746.00
98.9648 739.00
99.03 758.00
99.0952 773.00
99.1604 753.00
99.2256 799.00
99.2908 776.00
99.356 759.00
99.4212 778.00
99.4864 795.00
99.5516 798.00
99.6168 768.00
99.682 743.00
99.7472 819.00
99.8124 820.00
99.8776 840.00
99.9428 864.00
100.008 893.00
100.073 916.00
100.095 898.00