File: data/xrd_creation/results/NSC_23.xy
9.903433 2922.00
9.968632 2905.00
10.0338 2937.00
10.099 2832.00
10.1642 2786.00
10.2294 2988.00
10.2946 2895.00
10.3598 2867.00
10.425 2831.00
10.4902 2936.00
10.5554 2847.00
10.6206 2941.00
10.6858 2844.00
10.751 2752.00
10.8162 2706.00
10.8814 2637.00
10.9466 2668.00
11.0118 2643.00
11.077 2567.00
11.1422 2505.00
11.2074 2546.00
11.2726 2686.00
11.3378 2493.00
11.403 2531.00
11.4682 2448.00
11.5334 2577.00
11.5986 2387.00
11.6638 2516.00
11.729 2484.00
11.7942 2399.00
11.8594 2396.00
11.9246 2382.00
11.9898 2346.00
12.055 2324.00
12.1202 2284.00
12.1854 2271.00
12.2506 2359.00
12.3158 2257.00
12.381 2255.00
12.4462 2388.00
12.5114 2228.00
12.5766 2325.00
12.6418 2407.00
12.707 2352.00
12.7722 2215.00
12.8374 2230.00
12.9026 2262.00
12.9678 2191.00
13.033 2216.00
13.0982 2216.00
13.1634 2201.00
13.2286 2111.00
13.2938 2160.00
13.359 2110.00
13.4242 2176.00
13.4894 2145.00
13.5546 2137.00
13.6198 2262.00
13.685 2239.00
13.7502 2190.00
13.8154 2189.00
13.8805 2171.00
13.9457 2115.00
14.0109 2196.00
14.0761 2245.00
14.1413 2189.00
14.2065 2141.00
14.2717 2099.00
14.3369 2284.00
14.4021 2250.00
14.4673 2367.00
14.5325 2490.00
14.5977 2771.00
14.6629 2865.00
14.7281 2818.00
14.7933 2716.00
14.8585 2432.00
14.9237 2277.00
14.9889 2147.00
15.0541 2082.00
15.1193 2093.00
15.1845 2114.00
15.2497 2023.00
15.3149 2099.00
15.3801 2057.00
15.4453 2058.00
15.5105 2114.00
15.5757 2038.00
15.6409 2052.00
15.7061 1997.00
15.7713 2042.00
15.8365 2056.00
15.9017 2060.00
15.9669 2042.00
16.0321 2028.00
16.0973 2019.00
16.1625 2023.00
16.2277 2060.00
16.2929 2077.00
16.3581 2012.00
16.4233 2043.00
16.4885 1915.00
16.5537 2045.00
16.6189 2043.00
16.6841 2102.00
16.7493 2058.00
16.8145 1981.00
16.8797 2031.00
16.9449 1945.00
17.0101 2146.00
17.0753 2032.00
17.1405 1998.00
17.2057 1956.00
17.2709 2043.00
17.3361 2075.00
17.4013 2033.00
17.4665 2067.00
17.5317 2055.00
17.5969 1996.00
17.6621 1996.00
17.7273 1908.00
17.7925 1940.00
17.8577 1929.00
17.9229 1918.00
17.9881 1951.00
18.0533 1959.00
18.1185 1949.00
18.1837 1818.00
18.2489 1888.00
18.3141 1980.00
18.3793 1952.00
18.4445 1886.00
18.5097 1825.00
18.5749 1980.00
18.6401 1883.00
18.7052 1943.00
18.7704 1914.00
18.8356 1888.00
18.9008 1863.00
18.966 1829.00
19.0312 1907.00
19.0964 2027.00
19.1616 2084.00
19.2268 2305.00
19.292 2426.00
19.3572 2498.00
19.4224 2479.00
19.4876 2251.00
19.5528 2078.00
19.618 1971.00
19.6832 1937.00
19.7484 1942.00
19.8136 2006.00
19.8788 1956.00
19.944 1847.00
20.0092 1923.00
20.0744 1941.00
20.1396 2018.00
20.2048 2074.00
20.27 2032.00
20.3352 2092.00
20.4004 1916.00
20.4656 1975.00
20.5308 2041.00
20.596 2229.00
20.6612 2381.00
20.7264 2557.00
20.7916 2732.00
20.8568 2869.00
20.922 3160.00
20.9872 3510.00
21.0524 3765.00
21.1176 3856.00
21.1828 3896.00
21.248 4324.00
21.3132 4075.00
21.3784 3681.00
21.4436 3241.00
21.5088 2660.00
21.574 2482.00
21.6392 2246.00
21.7044 2177.00
21.7696 2029.00
21.8348 1961.00
21.9 1927.00
21.9652 2207.00
22.0304 2355.00
22.0956 2701.00
22.1608 3289.00
22.226 4012.00
22.2912 4410.00
22.3564 4434.00
22.4216 3936.00
22.4868 3092.00
22.552 2235.00
22.6172 2106.00
22.6824 1929.00
22.7476 1871.00
22.8128 1911.00
22.878 1793.00
22.9432 1730.00
23.0084 1707.00
23.0736 1706.00
23.1388 1711.00
23.204 1699.00
23.2692 1721.00
23.3344 1690.00
23.3996 1756.00
23.4647 1790.00
23.5299 1637.00
23.5951 1777.00
23.6603 1695.00
23.7255 1807.00
23.7907 1751.00
23.8559 1976.00
23.9211 2080.00
23.9863 2367.00
24.0515 2399.00
24.1167 2329.00
24.1819 2168.00
24.2471 2034.00
24.3123 2028.00
24.3775 2113.00
24.4427 2062.00
24.5079 2065.00
24.5731 1939.00
24.6383 1853.00
24.7035 1706.00
24.7687 1720.00
24.8339 1662.00
24.8991 1667.00
24.9643 1673.00
25.0295 1659.00
25.0947 1568.00
25.1599 1563.00
25.2251 1555.00
25.2903 1565.00
25.3555 1520.00
25.4207 1622.00
25.4859 1698.00
25.5511 1784.00
25.6163 1852.00
25.6815 2076.00
25.7467 2024.00
25.8119 2002.00
25.8771 1831.00
25.9423 1752.00
26.0075 1651.00
26.0727 1658.00
26.1379 1660.00
26.2031 1647.00
26.2683 1701.00
26.3335 1664.00
26.3987 1656.00
26.4639 1540.00
26.5291 1570.00
26.5943 1564.00
26.6595 1593.00
26.7247 1661.00
26.7899 1700.00
26.8551 1761.00
26.9203 1675.00
26.9855 1689.00
27.0507 1733.00
27.1159 1662.00
27.1811 1674.00
27.2463 1584.00
27.3115 1629.00
27.3767 1688.00
27.4419 1683.00
27.5071 1740.00
27.5723 1688.00
27.6375 1897.00
27.7027 1818.00
27.7679 1879.00
27.8331 2004.00
27.8983 2431.00
27.9635 2739.00
28.0287 3534.00
28.0939 4483.00
28.1591 5289.00
28.2243 5703.00
28.2894 5267.00
28.3546 4127.00
28.4198 3135.00
28.485 2537.00
28.5502 2078.00
28.6154 1881.00
28.6806 1693.00
28.7458 1648.00
28.811 1592.00
28.8762 1614.00
28.9414 1520.00
29.0066 1692.00
29.0718 1722.00
29.137 1717.00
29.2022 1739.00
29.2674 1699.00
29.3326 1715.00
29.3978 1549.00
29.463 1614.00
29.5282 1617.00
29.5934 1572.00
29.6586 1577.00
29.7238 1659.00
29.789 1596.00
29.8542 1655.00
29.9194 1614.00
29.9846 1566.00
30.0498 1572.00
30.115 1653.00
30.1802 1669.00
30.2454 1705.00
30.3106 1901.00
30.3758 2169.00
30.441 2630.00
30.5062 3330.00
30.5714 3857.00
30.6366 4419.00
30.7018 4502.00
30.767 4331.00
30.8322 3663.00
30.8974 3052.00
30.9626 2569.00
31.0278 2242.00
31.093 2112.00
31.1582 2146.00
31.2234 2136.00
31.2886 2670.00
31.3538 3356.00
31.419 4068.00
31.4842 4345.00
31.5494 3916.00
31.6146 3207.00
31.6798 2540.00
31.745 2077.00
31.8102 2000.00
31.8754 1964.00
31.9406 1922.00
32.0058 2044.00
32.071 2153.00
32.1362 2130.00
32.2014 1873.00
32.2666 1858.00
32.3318 1680.00
32.397 1715.00
32.4622 1752.00
32.5274 1764.00
32.5926 1798.00
32.6578 2017.00
32.723 2141.00
32.7882 2334.00
32.8534 2609.00
32.9186 3085.00
32.9838 3331.00
33.0489 3383.00
33.1141 3522.00
33.1793 3225.00
33.2445 3095.00
33.3097 2812.00
33.3749 2825.00
33.4401 2877.00
33.5053 2909.00
33.5705 2810.00
33.6357 2643.00
33.7009 2713.00
33.7661 2913.00
33.8313 3080.00
33.8965 3079.00
33.9617 3291.00
34.0269 3487.00
34.0921 3529.00
34.1573 3569.00
34.2225 3258.00
34.2877 2778.00
34.3529 2369.00
34.4181 2213.00
34.4833 2115.00
34.5485 2031.00
34.6137 1867.00
34.6789 1800.00
34.7441 1597.00
34.8093 1541.00
34.8745 1553.00
34.9397 1481.00
35.0049 1486.00
35.0701 1659.00
35.1353 1795.00
35.2005 1958.00
35.2657 2060.00
35.3309 2128.00
35.3961 1973.00
35.4613 1922.00
35.5265 1720.00
35.5917 1616.00
35.6569 1641.00
35.7221 1656.00
35.7873 1744.00
35.8525 1781.00
35.9177 1739.00
35.9829 1644.00
36.0481 1568.00
36.1133 1477.00
36.1785 1449.00
36.2437 1357.00
36.3089 1404.00
36.3741 1313.00
36.4393 1417.00
36.5045 1472.00
36.5697 1499.00
36.6349 1599.00
36.7001 1617.00
36.7653 1512.00
36.8305 1571.00
36.8957 1584.00
36.9609 1420.00
37.0261 1522.00
37.0913 1413.00
37.1565 1368.00
37.2217 1369.00
37.2869 1321.00
37.3521 1292.00
37.4173 1232.00
37.4825 1373.00
37.5477 1243.00
37.6129 1233.00
37.6781 1238.00
37.7433 1279.00
37.8085 1209.00
37.8736 1241.00
37.9388 1216.00
38.004 1290.00
38.0692 1223.00
38.1344 1318.00
38.1996 1251.00
38.2648 1304.00
38.33 1315.00
38.3952 1381.00
38.4604 1394.00
38.5256 1487.00
38.5908 1521.00
38.656 1559.00
38.7212 1447.00
38.7864 1405.00
38.8516 1353.00
38.9168 1264.00
38.982 1347.00
39.0472 1260.00
39.1124 1228.00
39.1776 1279.00
39.2428 1369.00
39.308 1340.00
39.3732 1318.00
39.4384 1419.00
39.5036 1664.00
39.5688 1638.00
39.634 1801.00
39.6992 1645.00
39.7644 1689.00
39.8296 1553.00
39.8948 1441.00
39.96 1318.00
40.0252 1326.00
40.0904 1316.00
40.1556 1339.00
40.2208 1256.00
40.286 1311.00
40.3512 1379.00
40.4164 1320.00
40.4816 1424.00
40.5468 1609.00
40.612 1621.00
40.6772 1951.00
40.7424 2102.00
40.8076 2240.00
40.8728 2305.00
40.938 2420.00
41.0032 2409.00
41.0684 2354.00
41.1336 2134.00
41.1988 1970.00
41.264 1868.00
41.3292 1795.00
41.3944 1751.00
41.4596 1777.00
41.5248 1744.00
41.59 1692.00
41.6552 1588.00
41.7204 1475.00
41.7856 1418.00
41.8508 1300.00
41.916 1267.00
41.9812 1224.00
42.0464 1230.00
42.1116 1246.00
42.1768 1312.00
42.242 1174.00
42.3072 1188.00
42.3724 1212.00
42.4376 1171.00
42.5028 1156.00
42.568 1217.00
42.6332 1306.00
42.6983 1271.00
42.7635 1395.00
42.8287 1356.00
42.8939 1424.00
42.9591 1382.00
43.0243 1519.00
43.0895 1456.00
43.1547 1557.00
43.2199 1611.00
43.2851 1659.00
43.3503 1630.00
43.4155 1623.00
43.4807 1450.00
43.5459 1460.00
43.6111 1326.00
43.6763 1267.00
43.7415 1333.00
43.8067 1235.00
43.8719 1253.00
43.9371 1246.00
44.0023 1291.00
44.0675 1297.00
44.1327 1303.00
44.1979 1312.00
44.2631 1388.00
44.3283 1369.00
44.3935 1351.00
44.4587 1497.00
44.5239 1517.00
44.5891 1526.00
44.6543 1558.00
44.7195 1582.00
44.7847 1617.00
44.8499 1648.00
44.9151 1690.00
44.9803 1740.00
45.0455 1660.00
45.1107 1585.00
45.1759 1705.00
45.2411 1616.00
45.3063 1656.00
45.3715 1811.00
45.4367 1935.00
45.5019 1973.00
45.5671 2057.00
45.6323 2049.00
45.6975 1873.00
45.7627 1784.00
45.8279 1591.00
45.8931 1539.00
45.9583 1461.00
46.0235 1378.00
46.0887 1508.00
46.1539 1496.00
46.2191 1520.00
46.2843 1479.00
46.3495 1513.00
46.4147 1453.00
46.4799 1516.00
46.5451 1494.00
46.6103 1501.00
46.6755 1531.00
46.7407 1550.00
46.8059 1600.00
46.8711 1616.00
46.9363 1738.00
47.0015 1832.00
47.0667 1860.00
47.1319 1852.00
47.1971 1812.00
47.2623 1715.00
47.3275 1580.00
47.3927 1548.00
47.4579 1353.00
47.523 1435.00
47.5882 1374.00
47.6534 1508.00
47.7186 1394.00
47.7838 1408.00
47.849 1325.00
47.9142 1472.00
47.9794 1439.00
48.0446 1495.00
48.1098 1471.00
48.175 1436.00
48.2402 1382.00
48.3054 1357.00
48.3706 1316.00
48.4358 1273.00
48.501 1272.00
48.5662 1203.00
48.6314 1270.00
48.6966 1191.00
48.7618 1306.00
48.827 1291.00
48.8922 1324.00
48.9574 1456.00
49.0226 1549.00
49.0878 1700.00
49.153 1782.00
49.2182 1881.00
49.2834 1936.00
49.3486 1964.00
49.4138 1896.00
49.479 1672.00
49.5442 1505.00
49.6094 1365.00
49.6746 1279.00
49.7398 1325.00
49.805 1241.00
49.8702 1260.00
49.9354 1328.00
50.0006 1496.00
50.0658 1793.00
50.131 1951.00
50.1962 2091.00
50.2614 2198.00
50.3266 1969.00
50.3918 1957.00
50.457 1793.00
50.5222 1718.00
50.5874 1726.00
50.6526 1877.00
50.7178 1763.00
50.783 1651.00
50.8482 1593.00
50.9134 1476.00
50.9786 1435.00
51.0438 1414.00
51.109 1489.00
51.1742 1457.00
51.2394 1490.00
51.3046 1375.00
51.3698 1406.00
51.435 1368.00
51.5002 1427.00
51.5654 1351.00
51.6306 1338.00
51.6958 1363.00
51.761 1428.00
51.8262 1507.00
51.8914 1506.00
51.9566 1516.00
52.0218 1392.00
52.087 1532.00
52.1522 1500.00
52.2174 1477.00
52.2826 1444.00
52.3477 1417.00
52.4129 1487.00
52.4781 1386.00
52.5433 1475.00
52.6085 1359.00
52.6737 1335.00
52.7389 1334.00
52.8041 1385.00
52.8693 1317.00
52.9345 1342.00
52.9997 1351.00
53.0649 1362.00
53.1301 1369.00
53.1953 1426.00
53.2605 1394.00
53.3257 1404.00
53.3909 1492.00
53.4561 1538.00
53.5213 1592.00
53.5865 1591.00
53.6517 1740.00
53.7169 1721.00
53.7821 1827.00
53.8473 1774.00
53.9125 1762.00
53.9777 1869.00
54.0429 1834.00
54.1081 1820.00
54.1733 1663.00
54.2385 1645.00
54.3037 1428.00
54.3689 1477.00
54.4341 1441.00
54.4993 1436.00
54.5645 1382.00
54.6297 1367.00
54.6949 1357.00
54.7601 1341.00
54.8253 1355.00
54.8905 1385.00
54.9557 1397.00
55.0209 1418.00
55.0861 1443.00
55.1513 1574.00
55.2165 1710.00
55.2817 1624.00
55.3469 1782.00
55.4121 1780.00
55.4773 1822.00
55.5425 1815.00
55.6077 1681.00
55.6729 1614.00
55.7381 1603.00
55.8033 1560.00
55.8685 1486.00
55.9337 1470.00
55.9989 1525.00
56.0641 1509.00
56.1293 1544.00
56.1945 1496.00
56.2597 1511.00
56.3249 1428.00
56.3901 1351.00
56.4553 1275.00
56.5205 1259.00
56.5857 1287.00
56.6509 1194.00
56.7161 1307.00
56.7813 1227.00
56.8465 1255.00
56.9117 1346.00
56.9769 1439.00
57.042 1477.00
57.1073 1672.00
57.1724 1686.00
57.2376 1727.00
57.3028 1916.00
57.368 1834.00
57.4332 1901.00
57.4984 1799.00
57.5636 1749.00
57.6288 1635.00
57.694 1653.00
57.7592 1532.00
57.8244 1595.00
57.8896 1540.00
57.9548 1559.00
58.02 1545.00
58.0852 1568.00
58.1504 1656.00
58.2156 1703.00
58.2808 1628.00
58.346 1521.00
58.4112 1478.00
58.4764 1416.00
58.5416 1447.00
58.6068 1358.00
58.672 1335.00
58.7372 1293.00
58.8024 1372.00
58.8676 1347.00
58.9328 1333.00
58.998 1325.00
59.0632 1354.00
59.1284 1297.00
59.1936 1306.00
59.2588 1295.00
59.324 1325.00
59.3892 1278.00
59.4544 1236.00
59.5196 1321.00
59.5848 1362.00
59.65 1556.00
59.7152 1563.00
59.7804 1771.00
59.8456 1915.00
59.9108 1903.00
59.976 1944.00
60.0412 2037.00
60.1064 2054.00
60.1716 1964.00
60.2368 1874.00
60.302 1797.00
60.3672 1717.00
60.4324 1617.00
60.4976 1551.00
60.5628 1554.00
60.628 1489.00
60.6932 1457.00
60.7584 1449.00
60.8236 1356.00
60.8888 1281.00
60.954 1316.00
61.0192 1399.00
61.0844 1427.00
61.1496 1482.00
61.2148 1609.00
61.28 1454.00
61.3452 1470.00
61.4104 1400.00
61.4756 1376.00
61.5408 1303.00
61.606 1304.00
61.6712 1246.00
61.7364 1278.00
61.8016 1330.00
61.8667 1385.00
61.932 1348.00
61.9971 1434.00
62.0623 1377.00
62.1275 1375.00
62.1927 1303.00
62.2579 1328.00
62.3231 1307.00
62.3883 1328.00
62.4535 1297.00
62.5187 1328.00
62.5839 1407.00
62.6491 1341.00
62.7143 1435.00
62.7795 1521.00
62.8447 1579.00
62.9099 1554.00
62.9751 1458.00
63.0403 1361.00
63.1055 1240.00
63.1707 1236.00
63.2359 1151.00
63.3011 1166.00
63.3663 1051.00
63.4315 1097.00
63.4967 1065.00
63.5619 1105.00
63.6271 1092.00
63.6923 1063.00
63.7575 1096.00
63.8227 1120.00
63.8879 1118.00
63.9531 1066.00
64.0183 1150.00
64.0835 1197.00
64.1487 1275.00
64.2139 1330.00
64.2791 1325.00
64.3443 1382.00
64.4095 1307.00
64.4747 1249.00
64.5399 1398.00
64.6051 1282.00
64.6703 1284.00
64.7355 1264.00
64.8007 1259.00
64.8659 1285.00
64.9311 1298.00
64.9963 1182.00
65.0615 1248.00
65.1267 1174.00
65.1919 1312.00
65.2571 1235.00
65.3223 1257.00
65.3875 1430.00
65.4527 1307.00
65.5179 1416.00
65.5831 1423.00
65.6483 1544.00
65.7135 1480.00
65.7787 1467.00
65.8439 1385.00
65.9091 1372.00
65.9743 1358.00
66.0395 1272.00
66.1047 1284.00
66.1699 1159.00
66.2351 1162.00
66.3003 1173.00
66.3655 1118.00
66.4307 1112.00
66.4959 1131.00
66.561 1061.00
66.6263 1152.00
66.6915 1026.00
66.7566 1052.00
66.8218 1059.00
66.887 1078.00
66.9522 1156.00
67.0174 1070.00
67.0826 1125.00
67.1478 1098.00
67.213 1131.00
67.2782 1029.00
67.3434 1062.00
67.4086 1041.00
67.4738 1041.00
67.539 1039.00
67.6042 1047.00
67.6694 1067.00
67.7346 1110.00
67.7998 1103.00
67.865 1065.00
67.9302 1072.00
67.9954 1072.00
68.0606 1024.00
68.1258 973.00
68.191 1016.00
68.2562 1007.00
68.3214 999.00
68.3866 955.00
68.4518 938.00
68.517 928.00
68.5822 1046.00
68.6474 975.00
68.7126 986.00
68.7778 1103.00
68.843 1021.00
68.9082 999.00
68.9734 1035.00
69.0386 1017.00
69.1038 1042.00
69.169 1042.00
69.2342 1100.00
69.2994 1097.00
69.3646 1064.00
69.4298 1031.00
69.495 1038.00
69.5602 974.00
69.6254 1078.00
69.6906 1070.00
69.7558 1050.00
69.821 1001.00
69.8862 1066.00
69.9514 1045.00
70.0166 1045.00
70.0818 1036.00
70.147 1113.00
70.2122 1182.00
70.2774 1234.00
70.3426 1181.00
70.4078 1227.00
70.473 1202.00
70.5382 1167.00
70.6034 1172.00
70.6686 1142.00
70.7338 1050.00
70.799 1111.00
70.8642 1172.00
70.9294 1189.00
70.9946 1147.00
71.0598 1209.00
71.125 1288.00
71.1902 1232.00
71.2554 1347.00
71.3205 1236.00
71.3858 1181.00
71.451 1253.00
71.5162 1198.00
71.5813 1131.00
71.6465 1129.00
71.7117 1140.00
71.7769 1145.00
71.8421 1134.00
71.9073 1136.00
71.9725 1164.00
72.0377 1206.00
72.1029 1167.00
72.1681 1189.00
72.2333 1192.00
72.2985 1148.00
72.3637 1124.00
72.4289 1139.00
72.4941 1115.00
72.5593 1070.00
72.6245 1121.00
72.6897 1072.00
72.7549 1014.00
72.8201 1057.00
72.8853 980.00
72.9505 1033.00
73.0157 1039.00
73.0809 990.00
73.1461 964.00
73.2113 1049.00
73.2765 962.00
73.3417 1004.00
73.4069 1006.00
73.4721 988.00
73.5373 1017.00
73.6025 1013.00
73.6677 1051.00
73.7329 1033.00
73.7981 1018.00
73.8633 1071.00
73.9285 1076.00
73.9937 1016.00
74.0589 1033.00
74.1241 1053.00
74.1893 1064.00
74.2545 1036.00
74.3197 1097.00
74.3849 1009.00
74.4501 1110.00
74.5153 1071.00
74.5805 1115.00
74.6457 1150.00
74.7109 1107.00
74.7761 1140.00
74.8413 1025.00
74.9065 1092.00
74.9717 1041.00
75.0369 1062.00
75.1021 1084.00
75.1673 1161.00
75.2325 1111.00
75.2977 1179.00
75.3629 1130.00
75.4281 1121.00
75.4933 1103.00
75.5585 1123.00
75.6237 1143.00
75.6889 1071.00
75.7541 1022.00
75.8193 1013.00
75.8845 1035.00
75.9497 1029.00
76.0149 1009.00
76.0801 1060.00
76.1452 1106.00
76.2104 1093.00
76.2756 1071.00
76.3409 1118.00
76.406 1159.00
76.4712 1102.00
76.5364 1106.00
76.6016 1037.00
76.6668 1117.00
76.732 1039.00
76.7972 1026.00
76.8624 1006.00
76.9276 1040.00
76.9928 964.00
77.058 1023.00
77.1232 1003.00
77.1884 966.00
77.2536 1059.00
77.3188 1000.00
77.384 997.00
77.4492 1006.00
77.5144 1034.00
77.5796 983.00
77.6448 1031.00
77.71 1011.00
77.7752 1085.00
77.8404 1019.00
77.9056 1011.00
77.9708 1056.00
78.036 1049.00
78.1012 978.00
78.1664 1049.00
78.2316 996.00
78.2968 1095.00
78.362 976.00
78.4272 939.00
78.4924 925.00
78.5576 963.00
78.6228 914.00
78.688 991.00
78.7532 1022.00
78.8184 1028.00
78.8836 1068.00
78.9488 1008.00
79.014 977.00
79.0792 1044.00
79.1444 961.00
79.2096 1068.00
79.2748 1071.00
79.34 992.00
79.4052 998.00
79.4704 1039.00
79.5356 1015.00
79.6008 1030.00
79.666 1054.00
79.7312 1015.00
79.7964 977.00
79.8616 1056.00
79.9268 1026.00
79.992 976.00
80.0572 1009.00
80.1224 983.00
80.1876 945.00
80.2528 991.00
80.318 1041.00
80.3832 1015.00
80.4484 973.00
80.5136 915.00
80.5788 936.00
80.644 990.00
80.7092 917.00
80.7744 945.00
80.8396 890.00
80.9048 946.00
80.9699 916.00
81.0351 928.00
81.1003 911.00
81.1655 964.00
81.2307 915.00
81.2959 950.00
81.3611 947.00
81.4263 965.00
81.4915 1030.00
81.5567 992.00
81.6219 996.00
81.6871 985.00
81.7523 989.00
81.8175 1026.00
81.8827 1116.00
81.9479 980.00
82.0131 1012.00
82.0783 1075.00
82.1435 1111.00
82.2087 927.00
82.2739 1070.00
82.3391 1016.00
82.4043 1083.00
82.4695 1120.00
82.5347 1127.00
82.5999 1058.00
82.6651 1094.00
82.7303 1145.00
82.7955 1079.00
82.8607 1061.00
82.9259 1094.00
82.9911 1099.00
83.0563 1112.00
83.1215 1099.00
83.1867 1155.00
83.2519 1089.00
83.3171 1154.00
83.3823 1069.00
83.4475 1157.00
83.5127 1044.00
83.5779 1102.00
83.6431 1196.00
83.7083 1042.00
83.7735 1073.00
83.8387 1094.00
83.9039 1036.00
83.9691 1027.00
84.0343 1064.00
84.0995 1125.00
84.1647 1123.00
84.2299 1038.00
84.2951 1040.00
84.3603 1000.00
84.4255 1016.00
84.4907 938.00
84.5559 979.00
84.6211 922.00
84.6863 987.00
84.7515 986.00
84.8167 965.00
84.8819 918.00
84.9471 938.00
85.0123 929.00
85.0775 1004.00
85.1427 1000.00
85.2079 945.00
85.2731 893.00
85.3383 924.00
85.4035 909.00
85.4687 907.00
85.5339 950.00
85.5991 964.00
85.6643 933.00
85.7295 922.00
85.7946 926.00
85.8598 947.00
85.925 927.00
85.9903 960.00
86.0554 991.00
86.1206 945.00
86.1858 976.00
86.251 941.00
86.3162 940.00
86.3814 939.00
86.4466 937.00
86.5118 895.00
86.577 981.00
86.6422 905.00
86.7074 886.00
86.7726 928.00
86.8378 929.00
86.903 937.00
86.9682 912.00
87.0334 917.00
87.0986 1018.00
87.1638 889.00
87.229 937.00
87.2942 1017.00
87.3594 971.00
87.4246 1002.00
87.4898 950.00
87.555 1027.00
87.6202 1021.00
87.6854 1071.00
87.7506 1009.00
87.8158 1042.00
87.881 1048.00
87.9462 1082.00
88.0114 1010.00
88.0766 1069.00
88.1418 1108.00
88.207 1060.00
88.2722 1079.00
88.3374 1093.00
88.4026 1112.00
88.4678 1111.00
88.533 1121.00
88.5982 1096.00
88.6634 1085.00
88.7286 1075.00
88.7938 1006.00
88.859 1059.00
88.9242 1032.00
88.9894 977.00
89.0546 1033.00
89.1198 988.00
89.185 1051.00
89.2502 998.00
89.3154 999.00
89.3806 1093.00
89.4458 1083.00
89.511 1112.00
89.5762 1085.00
89.6414 1101.00
89.7066 1106.00
89.7718 1087.00
89.837 1140.00
89.9022 1046.00
89.9674 1121.00
90.0326 1156.00
90.0978 1059.00
90.163 1022.00
90.2282 1061.00
90.2934 1067.00
90.3586 998.00
90.4238 1043.00
90.489 1046.00
90.5542 1003.00
90.6193 960.00
90.6845 1037.00
90.7497 1094.00
90.8149 1072.00
90.8801 1063.00
90.9453 1001.00
91.0105 1011.00
91.0757 1049.00
91.1409 1020.00
91.2061 1050.00
91.2713 984.00
91.3365 1035.00
91.4017 1064.00
91.4669 1056.00
91.5321 1036.00
91.5973 1000.00
91.6625 972.00
91.7277 1018.00
91.7929 999.00
91.8581 1023.00
91.9233 986.00
91.9885 897.00
92.0537 1000.00
92.1189 939.00
92.1841 855.00
92.2493 949.00
92.3145 872.00
92.3797 929.00
92.4449 900.00
92.5101 984.00
92.5753 921.00
92.6405 900.00
92.7057 914.00
92.7709 966.00
92.8361 863.00
92.9013 884.00
92.9665 926.00
93.0317 917.00
93.0969 928.00
93.1621 835.00
93.2273 941.00
93.2925 852.00
93.3577 975.00
93.4229 915.00
93.4881 920.00
93.5533 927.00
93.6185 942.00
93.6837 943.00
93.7489 974.00
93.8141 984.00
93.8793 983.00
93.9445 968.00
94.0097 996.00
94.0749 939.00
94.1401 961.00
94.2053 976.00
94.2705 979.00
94.3357 918.00
94.4009 970.00
94.4661 910.00
94.5313 962.00
94.5965 925.00
94.6617 967.00
94.7269 1008.00
94.7921 953.00
94.8573 970.00
94.9225 911.00
94.9877 956.00
95.0529 1009.00
95.1181 1023.00
95.1833 984.00
95.2485 991.00
95.3137 1131.00
95.3789 1013.00
95.444 1039.00
95.5092 1023.00
95.5744 962.00
95.6396 1003.00
95.7048 963.00
95.77 994.00
95.8352 1016.00
95.9004 938.00
95.9656 1017.00
96.0308 999.00
96.096 995.00
96.1612 976.00
96.2264 943.00
96.2916 1002.00
96.3568 1014.00
96.422 1012.00
96.4872 1073.00
96.5524 1069.00
96.6176 1063.00
96.6828 1131.00
96.748 1086.00
96.8132 997.00
96.8784 1131.00
96.9436 1075.00
97.0088 1058.00
97.074 1009.00
97.1392 1079.00
97.2044 1065.00
97.2696 1020.00
97.3348 999.00
97.4 1072.00
97.4652 975.00
97.5304 973.00
97.5956 911.00
97.6608 995.00
97.726 930.00
97.7912 926.00
97.8564 1037.00
97.9216 969.00
97.9868 1020.00
98.052 965.00
98.1172 919.00
98.1824 938.00
98.2476 971.00
98.3128 1037.00
98.378 1031.00
98.4432 980.00
98.5084 986.00
98.5736 912.00
98.6388 961.00
98.704 922.00
98.7692 990.00
98.8344 933.00
98.8996 996.00
98.9648 1016.00
99.03 1083.00
99.0952 1003.00
99.1604 1012.00
99.2256 1047.00
99.2908 1054.00
99.356 1009.00
99.4212 1020.00
99.4864 1081.00
99.5516 1059.00
99.6168 1000.00
99.682 1047.00
99.7472 948.00
99.8124 980.00
99.8776 991.00
99.9428 979.00
100.008 938.00
100.073 1008.00
100.095 958.00