File: data/xrd_creation/results/NSC_10.xy
9.903433 2714.00
9.968632 2766.00
10.0338 2725.00
10.099 2687.00
10.1642 2571.00
10.2294 2576.00
10.2946 2703.00
10.3598 2512.00
10.425 2564.00
10.4902 2580.00
10.5554 2360.00
10.6206 2516.00
10.6858 2477.00
10.751 2377.00
10.8162 2379.00
10.8814 2435.00
10.9466 2412.00
11.0118 2373.00
11.077 2405.00
11.1422 2308.00
11.2074 2336.00
11.2726 2367.00
11.3378 2309.00
11.403 2307.00
11.4682 2311.00
11.5334 2280.00
11.5986 2216.00
11.6638 2239.00
11.729 2253.00
11.7942 2263.00
11.8594 2152.00
11.9246 2143.00
11.9898 2087.00
12.055 2069.00
12.1202 2222.00
12.1854 2079.00
12.2506 2093.00
12.3158 2186.00
12.381 2057.00
12.4462 2068.00
12.5114 2043.00
12.5766 2092.00
12.6418 2027.00
12.707 1960.00
12.7722 1963.00
12.8374 1945.00
12.9026 1955.00
12.9678 1884.00
13.033 1939.00
13.0982 2017.00
13.1634 1947.00
13.2286 1922.00
13.2938 1901.00
13.359 1952.00
13.4242 1861.00
13.4894 1967.00
13.5546 1883.00
13.6198 1870.00
13.685 1811.00
13.7502 1844.00
13.8154 1984.00
13.8805 1958.00
13.9457 1999.00
14.0109 1940.00
14.0761 1955.00
14.1413 2142.00
14.2065 2357.00
14.2717 2469.00
14.3369 2641.00
14.4021 2338.00
14.4673 2023.00
14.5325 1936.00
14.5977 1838.00
14.6629 1850.00
14.7281 1856.00
14.7933 1890.00
14.8585 1887.00
14.9237 2050.00
14.9889 2274.00
15.0541 2400.00
15.1193 2649.00
15.1845 3033.00
15.2497 3393.00
15.3149 2958.00
15.3801 2318.00
15.4453 1866.00
15.5105 1776.00
15.5757 1772.00
15.6409 1781.00
15.7061 1850.00
15.7713 1798.00
15.8365 1730.00
15.9017 1712.00
15.9669 1652.00
16.0321 1751.00
16.0973 1703.00
16.1625 1767.00
16.2277 1685.00
16.2929 1627.00
16.3581 1759.00
16.4233 1601.00
16.4885 1656.00
16.5537 1706.00
16.6189 1678.00
16.6841 1636.00
16.7493 1609.00
16.8145 1679.00
16.8797 1638.00
16.9449 1578.00
17.0101 1669.00
17.0753 1660.00
17.1405 1701.00
17.2057 1649.00
17.2709 1756.00
17.3361 1725.00
17.4013 1718.00
17.4665 1733.00
17.5317 1838.00
17.5969 1698.00
17.6621 1644.00
17.7273 1712.00
17.7925 1650.00
17.8577 1646.00
17.9229 1667.00
17.9881 1588.00
18.0533 1633.00
18.1185 1638.00
18.1837 1584.00
18.2489 1624.00
18.3141 1665.00
18.3793 1621.00
18.4445 1573.00
18.5097 1740.00
18.5749 1749.00
18.6401 1829.00
18.7052 1974.00
18.7704 2257.00
18.8356 2627.00
18.9008 2811.00
18.966 2326.00
19.0312 1827.00
19.0964 1725.00
19.1616 1657.00
19.2268 1528.00
19.292 1588.00
19.3572 1735.00
19.4224 1782.00
19.4876 1891.00
19.5528 2062.00
19.618 2371.00
19.6832 2921.00
19.7484 3529.00
19.8136 4030.00
19.8788 3690.00
19.944 2731.00
20.0092 1962.00
20.0744 1868.00
20.1396 1924.00
20.2048 2046.00
20.27 2209.00
20.3352 2538.00
20.4004 3076.00
20.4656 3911.00
20.5308 4941.00
20.596 5350.00
20.6612 4927.00
20.7264 4502.00
20.7916 4385.00
20.8568 5353.00
20.922 6139.00
20.9872 5654.00
21.0524 3810.00
21.1176 2461.00
21.1828 1941.00
21.248 1900.00
21.3132 1955.00
21.3784 2065.00
21.4436 2466.00
21.5088 2619.00
21.574 3139.00
21.6392 4037.00
21.7044 5528.00
21.7696 7124.00
21.8348 7772.00
21.9 6530.00
21.9652 6121.00
22.0304 6851.00
22.0956 6770.00
22.1608 4766.00
22.226 2930.00
22.2912 2037.00
22.3564 1784.00
22.4216 1605.00
22.4868 1564.00
22.552 1443.00
22.6172 1515.00
22.6824 1452.00
22.7476 1507.00
22.8128 1459.00
22.878 1484.00
22.9432 1515.00
23.0084 1443.00
23.0736 1512.00
23.1388 1485.00
23.204 1528.00
23.2692 1737.00
23.3344 1751.00
23.3996 1893.00
23.4647 2136.00
23.5299 2431.00
23.5951 2933.00
23.6603 3817.00
23.7255 4408.00
23.7907 4673.00
23.8559 3923.00
23.9211 2754.00
23.9863 2060.00
24.0515 1786.00
24.1167 1891.00
24.1819 1900.00
24.2471 2349.00
24.3123 2776.00
24.3775 3134.00
24.4427 2861.00
24.5079 2115.00
24.5731 1805.00
24.6383 1552.00
24.7035 1582.00
24.7687 1631.00
24.8339 1660.00
24.8991 1820.00
24.9643 2098.00
25.0295 2569.00
25.0947 2869.00
25.1599 3776.00
25.2251 5195.00
25.2903 7004.00
25.3555 8330.00
25.4207 6728.00
25.4859 4215.00
25.5511 2460.00
25.6163 1893.00
25.6815 1777.00
25.7467 1774.00
25.8119 1828.00
25.8771 2002.00
25.9423 2197.00
26.0075 2516.00
26.0727 3276.00
26.1379 4096.00
26.2031 4757.00
26.2683 4091.00
26.3335 2867.00
26.3987 2102.00
26.4639 1877.00
26.5291 2049.00
26.5943 2189.00
26.6595 2685.00
26.7247 2831.00
26.7899 2495.00
26.8551 1910.00
26.9203 1560.00
26.9855 1426.00
27.0507 1398.00
27.1159 1345.00
27.1811 1295.00
27.2463 1259.00
27.3115 1248.00
27.3767 1358.00
27.4419 1258.00
27.5071 1401.00
27.5723 1284.00
27.6375 1322.00
27.7027 1210.00
27.7679 1305.00
27.8331 1294.00
27.8983 1355.00
27.9635 1281.00
28.0287 1477.00
28.0939 1448.00
28.1591 1530.00
28.2243 1588.00
28.2894 1833.00
28.3546 2096.00
28.4198 2427.00
28.485 2700.00
28.5502 2937.00
28.6154 3179.00
28.6806 3016.00
28.7458 2374.00
28.811 1781.00
28.8762 1518.00
28.9414 1392.00
29.0066 1291.00
29.0718 1198.00
29.137 1203.00
29.2022 1189.00
29.2674 1253.00
29.3326 1212.00
29.3978 1277.00
29.463 1252.00
29.5282 1245.00
29.5934 1318.00
29.6586 1322.00
29.7238 1319.00
29.789 1225.00
29.8542 1285.00
29.9194 1389.00
29.9846 1478.00
30.0498 1569.00
30.115 1768.00
30.1802 2017.00
30.2454 2315.00
30.3106 2897.00
30.3758 3838.00
30.441 4828.00
30.5062 5117.00
30.5714 4154.00
30.6366 2998.00
30.7018 2274.00
30.767 2327.00
30.8322 2755.00
30.8974 2978.00
30.9626 2664.00
31.0278 2188.00
31.093 1821.00
31.1582 1810.00
31.2234 1899.00
31.2886 2254.00
31.3538 2770.00
31.419 3291.00
31.4842 3939.00
31.5494 4276.00
31.6146 4066.00
31.6798 3335.00
31.745 2517.00
31.8102 1998.00
31.8754 1621.00
31.9406 1519.00
32.0058 1297.00
32.071 1225.00
32.1362 1218.00
32.2014 1204.00
32.2666 1181.00
32.3318 1170.00
32.397 1219.00
32.4622 1191.00
32.5274 1240.00
32.5926 1294.00
32.6578 1226.00
32.723 1327.00
32.7882 1271.00
32.8534 1352.00
32.9186 1387.00
32.9838 1590.00
33.0489 1753.00
33.1141 2168.00
33.1793 2671.00
33.2445 3470.00
33.3097 4922.00
33.3749 6629.00
33.4401 6980.00
33.5053 5459.00
33.5705 3597.00
33.6357 2343.00
33.7009 1842.00
33.7661 1606.00
33.8313 1490.00
33.8965 1574.00
33.9617 1749.00
34.0269 2106.00
34.0921 2197.00
34.1573 2037.00
34.2225 1729.00
34.2877 1490.00
34.3529 1354.00
34.4181 1277.00
34.4833 1165.00
34.5485 1238.00
34.6137 1217.00
34.6789 1331.00
34.7441 1232.00
34.8093 1179.00
34.8745 1276.00
34.9397 1186.00
35.0049 1189.00
35.0701 1163.00
35.1353 1381.00
35.2005 1484.00
35.2657 1648.00
35.3309 1736.00
35.3961 1924.00
35.4613 1985.00
35.5265 1877.00
35.5917 1915.00
35.6569 2067.00
35.7221 2325.00
35.7873 2503.00
35.8525 2414.00
35.9177 2363.00
35.9829 2059.00
36.0481 2058.00
36.1133 1954.00
36.1785 2127.00
36.2437 2468.00
36.3089 3174.00
36.3741 3248.00
36.4393 2715.00
36.5045 1826.00
36.5697 1495.00
36.6349 1216.00
36.7001 1159.00
36.7653 1070.00
36.8305 1104.00
36.8957 1093.00
36.9609 1033.00
37.0261 1011.00
37.0913 1038.00
37.1565 1040.00
37.2217 994.00
37.2869 1069.00
37.3521 1095.00
37.4173 1043.00
37.4825 1102.00
37.5477 1215.00
37.6129 1267.00
37.6781 1510.00
37.7433 1705.00
37.8085 1907.00
37.8736 1945.00
37.9388 1894.00
38.004 1790.00
38.0692 1722.00
38.1344 1737.00
38.1996 1818.00
38.2648 2239.00
38.33 2681.00
38.3952 2983.00
38.4604 3105.00
38.5256 2907.00
38.5908 2477.00
38.656 1876.00
38.7212 1569.00
38.7864 1293.00
38.8516 1144.00
38.9168 1175.00
38.982 1118.00
39.0472 1098.00
39.1124 1058.00
39.1776 1101.00
39.2428 974.00
39.308 1034.00
39.3732 1054.00
39.4384 1205.00
39.5036 1285.00
39.5688 1497.00
39.634 1587.00
39.6992 1546.00
39.7644 1520.00
39.8296 1307.00
39.8948 1187.00
39.96 1181.00
40.0252 1204.00
40.0904 1162.00
40.1556 1126.00
40.2208 1110.00
40.286 1074.00
40.3512 1049.00
40.4164 1167.00
40.4816 1214.00
40.5468 1290.00
40.612 1270.00
40.6772 1322.00
40.7424 1134.00
40.8076 1105.00
40.8728 1071.00
40.938 1097.00
41.0032 1006.00
41.0684 1059.00
41.1336 1050.00
41.1988 1048.00
41.264 1103.00
41.3292 1173.00
41.3944 1071.00
41.4596 1200.00
41.5248 1230.00
41.59 1362.00
41.6552 1273.00
41.7204 1372.00
41.7856 1382.00
41.8508 1444.00
41.916 1533.00
41.9812 1648.00
42.0464 1576.00
42.1116 1473.00
42.1768 1315.00
42.242 1338.00
42.3072 1328.00
42.3724 1374.00
42.4376 1238.00
42.5028 1212.00
42.568 1058.00
42.6332 1010.00
42.6983 934.00
42.7635 972.00
42.8287 960.00
42.8939 958.00
42.9591 967.00
43.0243 1001.00
43.0895 1032.00
43.1547 1209.00
43.2199 1081.00
43.2851 1229.00
43.3503 1281.00
43.4155 1291.00
43.4807 1271.00
43.5459 1210.00
43.6111 1128.00
43.6763 1222.00
43.7415 1126.00
43.8067 1240.00
43.8719 1389.00
43.9371 1423.00
44.0023 1474.00
44.0675 1450.00
44.1327 1420.00
44.1979 1241.00
44.2631 1167.00
44.3283 1087.00
44.3935 1059.00
44.4587 1059.00
44.5239 1045.00
44.5891 1148.00
44.6543 1182.00
44.7195 1178.00
44.7847 1178.00
44.8499 1170.00
44.9151 1237.00
44.9803 1318.00
45.0455 1445.00
45.1107 1495.00
45.1759 1582.00
45.2411 1692.00
45.3063 1625.00
45.3715 1570.00
45.4367 1561.00
45.5019 1415.00
45.5671 1304.00
45.6323 1179.00
45.6975 1083.00
45.7627 1010.00
45.8279 1048.00
45.8931 1073.00
45.9583 1088.00
46.0235 1215.00
46.0887 1299.00
46.1539 1454.00
46.2191 1681.00
46.2843 1895.00
46.3495 1870.00
46.4147 1745.00
46.4799 1603.00
46.5451 1411.00
46.6103 1311.00
46.6755 1291.00
46.7407 1119.00
46.8059 1302.00
46.8711 1197.00
46.9363 1305.00
47.0015 1281.00
47.0667 1274.00
47.1319 1143.00
47.1971 1115.00
47.2623 1068.00
47.3275 1048.00
47.3927 1134.00
47.4579 1125.00
47.523 1093.00
47.5882 1038.00
47.6534 1054.00
47.7186 1065.00
47.7838 1175.00
47.849 1260.00
47.9142 1465.00
47.9794 1837.00
48.0446 2171.00
48.1098 2650.00
48.175 2799.00
48.2402 2983.00
48.3054 2743.00
48.3706 2730.00
48.4358 2304.00
48.501 2147.00
48.5662 1798.00
48.6314 1624.00
48.6966 1494.00
48.7618 1320.00
48.827 1356.00
48.8922 1419.00
48.9574 1386.00
49.0226 1318.00
49.0878 1307.00
49.153 1178.00
49.2182 1239.00
49.2834 1227.00
49.3486 1294.00
49.4138 1492.00
49.479 1914.00
49.5442 2326.00
49.6094 2672.00
49.6746 2885.00
49.7398 2690.00
49.805 2254.00
49.8702 1800.00
49.9354 1429.00
50.0006 1257.00
50.0658 1155.00
50.131 1074.00
50.1962 1089.00
50.2614 1013.00
50.3266 1021.00
50.3918 1015.00
50.457 1052.00
50.5222 1005.00
50.5874 1027.00
50.6526 1014.00
50.7178 1082.00
50.783 1198.00
50.8482 1304.00
50.9134 1236.00
50.9786 1264.00
51.0438 1170.00
51.109 1214.00
51.1742 1083.00
51.2394 1231.00
51.3046 1304.00
51.3698 1407.00
51.435 1713.00
51.5002 1827.00
51.5654 2210.00
51.6306 2693.00
51.6958 2896.00
51.761 2952.00
51.8262 2690.00
51.8914 2276.00
51.9566 1791.00
52.0218 1572.00
52.087 1305.00
52.1522 1316.00
52.2174 1208.00
52.2826 1116.00
52.3477 1045.00
52.4129 972.00
52.4781 1001.00
52.5433 968.00
52.6085 1069.00
52.6737 1133.00
52.7389 1131.00
52.8041 1113.00
52.8693 1108.00
52.9345 1089.00
52.9997 1010.00
53.0649 1082.00
53.1301 955.00
53.1953 942.00
53.2605 1006.00
53.3257 1030.00
53.3909 1021.00
53.4561 1043.00
53.5213 1013.00
53.5865 1071.00
53.6517 1029.00
53.7169 1023.00
53.7821 1006.00
53.8473 945.00
53.9125 932.00
53.9777 971.00
54.0429 969.00
54.1081 930.00
54.1733 1009.00
54.2385 1088.00
54.3037 1101.00
54.3689 1170.00
54.4341 1263.00
54.4993 1422.00
54.5645 1681.00
54.6297 2069.00
54.6949 2448.00
54.7601 2615.00
54.8253 2653.00
54.8905 2480.00
54.9557 1980.00
55.0209 1750.00
55.0861 1355.00
55.1513 1338.00
55.2165 1291.00
55.2817 1197.00
55.3469 1151.00
55.4121 1346.00
55.4773 1477.00
55.5425 1578.00
55.6077 1620.00
55.6729 1680.00
55.7381 1790.00
55.8033 1887.00
55.8685 1808.00
55.9337 1775.00
55.9989 1606.00
56.0641 1504.00
56.1293 1293.00
56.1945 1143.00
56.2597 1082.00
56.3249 1080.00
56.3901 1015.00
56.4553 954.00
56.5205 979.00
56.5857 956.00
56.6509 967.00
56.7161 929.00
56.7813 919.00
56.8465 996.00
56.9117 987.00
56.9769 956.00
57.042 966.00
57.1073 1067.00
57.1724 1044.00
57.2376 1046.00
57.3028 1058.00
57.368 1047.00
57.4332 1009.00
57.4984 982.00
57.5636 963.00
57.6288 953.00
57.694 960.00
57.7592 994.00
57.8244 918.00
57.8896 946.00
57.9548 1000.00
58.02 1081.00
58.0852 1312.00
58.1504 1570.00
58.2156 1969.00
58.2808 2387.00
58.346 2502.00
58.4112 2375.00
58.4764 2107.00
58.5416 1852.00
58.6068 1646.00
58.672 1465.00
58.7372 1351.00
58.8024 1326.00
58.8676 1338.00
58.9328 1350.00
58.998 1434.00
59.0632 1355.00
59.1284 1299.00
59.1936 1225.00
59.2588 1110.00
59.324 1064.00
59.3892 987.00
59.4544 1072.00
59.5196 1176.00
59.5848 1198.00
59.65 1341.00
59.7152 1402.00
59.7804 1655.00
59.8456 1673.00
59.9108 1625.00
59.976 1689.00
60.0412 1739.00
60.1064 1947.00
60.1716 2015.00
60.2368 2120.00
60.302 2256.00
60.3672 2114.00
60.4324 1995.00
60.4976 1711.00
60.5628 1572.00
60.628 1281.00
60.6932 1219.00
60.7584 1181.00
60.8236 1090.00
60.8888 1057.00
60.954 977.00
61.0192 1117.00
61.0844 1067.00
61.1496 1144.00
61.2148 1149.00
61.28 1325.00
61.3452 1384.00
61.4104 1401.00
61.4756 1542.00
61.5408 1537.00
61.606 1580.00
61.6712 1493.00
61.7364 1473.00
61.8016 1462.00
61.8667 1366.00
61.932 1344.00
61.9971 1207.00
62.0623 1087.00
62.1275 1062.00
62.1927 1014.00
62.2579 1057.00
62.3231 971.00
62.3883 1056.00
62.4535 1057.00
62.5187 1085.00
62.5839 1066.00
62.6491 1052.00
62.7143 1066.00
62.7795 1105.00
62.8447 1137.00
62.9099 1075.00
62.9751 1223.00
63.0403 1201.00
63.1055 1217.00
63.1707 1222.00
63.2359 1104.00
63.3011 1036.00
63.3663 1041.00
63.4315 983.00
63.4967 1051.00
63.5619 1011.00
63.6271 1058.00
63.6923 1032.00
63.7575 1099.00
63.8227 1175.00
63.8879 1349.00
63.9531 1399.00
64.0183 1515.00
64.0835 1571.00
64.1487 1749.00
64.2139 1742.00
64.2791 1816.00
64.3443 1853.00
64.4095 1730.00
64.4747 1644.00
64.5399 1633.00
64.6051 1359.00
64.6703 1239.00
64.7355 1159.00
64.8007 1003.00
64.8659 977.00
64.9311 957.00
64.9963 1016.00
65.0615 972.00
65.1267 1041.00
65.1919 1070.00
65.2571 1143.00
65.3223 1082.00
65.3875 1198.00
65.4527 1156.00
65.5179 1200.00
65.5831 1188.00
65.6483 1122.00
65.7135 1191.00
65.7787 1304.00
65.8439 1380.00
65.9091 1576.00
65.9743 1847.00
66.0395 2062.00
66.1047 2410.00
66.1699 2506.00
66.2351 2356.00
66.3003 2274.00
66.3655 2023.00
66.4307 1758.00
66.4959 1688.00
66.561 1474.00
66.6263 1278.00
66.6915 1288.00
66.7566 1230.00
66.8218 1189.00
66.887 1067.00
66.9522 1072.00
67.0174 1092.00
67.0826 1148.00
67.1478 1211.00
67.213 1279.00
67.2782 1309.00
67.3434 1359.00
67.4086 1187.00
67.4738 1303.00
67.539 1265.00
67.6042 1098.00
67.6694 1169.00
67.7346 1121.00
67.7998 1108.00
67.865 1051.00
67.9302 1047.00
67.9954 1105.00
68.0606 1046.00
68.1258 1058.00
68.191 1132.00
68.2562 1151.00
68.3214 1266.00
68.3866 1233.00
68.4518 1268.00
68.517 1275.00
68.5822 1176.00
68.6474 1188.00
68.7126 1273.00
68.7778 1275.00
68.843 1310.00
68.9082 1351.00
68.9734 1330.00
69.0386 1318.00
69.1038 1287.00
69.169 1283.00
69.2342 1396.00
69.2994 1574.00
69.3646 1414.00
69.4298 1393.00
69.495 1339.00
69.5602 1262.00
69.6254 1163.00
69.6906 1147.00
69.7558 964.00
69.821 958.00
69.8862 919.00
69.9514 987.00
70.0166 913.00
70.0818 930.00
70.147 993.00
70.2122 1018.00
70.2774 1048.00
70.3426 1155.00
70.4078 1232.00
70.473 1398.00
70.5382 1358.00
70.6034 1364.00
70.6686 1365.00
70.7338 1273.00
70.799 1203.00
70.8642 1138.00
70.9294 1067.00
70.9946 1022.00
71.0598 989.00
71.125 984.00
71.1902 974.00
71.2554 955.00
71.3205 986.00
71.3858 956.00
71.451 1019.00
71.5162 1009.00
71.5813 941.00
71.6465 1006.00
71.7117 988.00
71.7769 949.00
71.8421 864.00
71.9073 891.00
71.9725 884.00
72.0377 882.00
72.1029 825.00
72.1681 795.00
72.2333 810.00
72.2985 897.00
72.3637 823.00
72.4289 834.00
72.4941 912.00
72.5593 959.00
72.6245 983.00
72.6897 923.00
72.7549 939.00
72.8201 927.00
72.8853 1014.00
72.9505 1007.00
73.0157 1058.00
73.0809 1021.00
73.1461 1120.00
73.2113 1099.00
73.2765 1139.00
73.3417 1051.00
73.4069 1039.00
73.4721 960.00
73.5373 1005.00
73.6025 980.00
73.6677 998.00
73.7329 946.00
73.7981 924.00
73.8633 995.00
73.9285 1009.00
73.9937 1047.00
74.0589 1059.00
74.1241 1007.00
74.1893 1019.00
74.2545 928.00
74.3197 958.00
74.3849 959.00
74.4501 958.00
74.5153 943.00
74.5805 908.00
74.6457 935.00
74.7109 985.00
74.7761 994.00
74.8413 1045.00
74.9065 949.00
74.9717 962.00
75.0369 984.00
75.1021 1043.00
75.1673 982.00
75.2325 979.00
75.2977 1096.00
75.3629 1043.00
75.4281 1075.00
75.4933 1076.00
75.5585 1102.00
75.6237 1103.00
75.6889 1144.00
75.7541 1143.00
75.8193 1096.00
75.8845 1043.00
75.9497 1022.00
76.0149 962.00
76.0801 895.00
76.1452 894.00
76.2104 877.00
76.2756 897.00
76.3409 951.00
76.406 940.00
76.4712 896.00
76.5364 948.00
76.6016 953.00
76.6668 881.00
76.732 940.00
76.7972 930.00
76.8624 926.00
76.9276 858.00
76.9928 930.00
77.058 948.00
77.1232 917.00
77.1884 971.00
77.2536 1017.00
77.3188 1108.00
77.384 1130.00
77.4492 1214.00
77.5144 1193.00
77.5796 1194.00
77.6448 1281.00
77.71 1246.00
77.7752 1176.00
77.8404 1030.00
77.9056 1051.00
77.9708 1008.00
78.036 929.00
78.1012 989.00
78.1664 889.00
78.2316 892.00
78.2968 851.00
78.362 866.00
78.4272 893.00
78.4924 917.00
78.5576 910.00
78.6228 901.00
78.688 944.00
78.7532 967.00
78.8184 1039.00
78.8836 979.00
78.9488 1077.00
79.014 1159.00
79.0792 1188.00
79.1444 1155.00
79.2096 1176.00
79.2748 1149.00
79.34 1109.00
79.4052 1076.00
79.4704 1104.00
79.5356 1108.00
79.6008 1001.00
79.666 984.00
79.7312 1013.00
79.7964 1019.00
79.8616 1010.00
79.9268 1023.00
79.992 1009.00
80.0572 1006.00
80.1224 962.00
80.1876 972.00
80.2528 958.00
80.318 937.00
80.3832 869.00
80.4484 849.00
80.5136 793.00
80.5788 832.00
80.644 845.00
80.7092 820.00
80.7744 838.00
80.8396 839.00
80.9048 857.00
80.9699 832.00
81.0351 889.00
81.1003 775.00
81.1655 848.00
81.2307 849.00
81.2959 820.00
81.3611 910.00
81.4263 882.00
81.4915 861.00
81.5567 866.00
81.6219 994.00
81.6871 897.00
81.7523 954.00
81.8175 1006.00
81.8827 977.00
81.9479 1024.00
82.0131 1053.00
82.0783 1033.00
82.1435 1015.00
82.2087 1078.00
82.2739 1014.00
82.3391 1036.00
82.4043 992.00
82.4695 936.00
82.5347 953.00
82.5999 849.00
82.6651 889.00
82.7303 886.00
82.7955 887.00
82.8607 810.00
82.9259 848.00
82.9911 802.00
83.0563 882.00
83.1215 844.00
83.1867 866.00
83.2519 932.00
83.3171 878.00
83.3823 867.00
83.4475 786.00
83.5127 899.00
83.5779 949.00
83.6431 938.00
83.7083 956.00
83.7735 990.00
83.8387 966.00
83.9039 1040.00
83.9691 1041.00
84.0343 1008.00
84.0995 1011.00
84.1647 1022.00
84.2299 1081.00
84.2951 988.00
84.3603 982.00
84.4255 915.00
84.4907 914.00
84.5559 885.00
84.6211 896.00
84.6863 972.00
84.7515 1030.00
84.8167 920.00
84.8819 980.00
84.9471 1032.00
85.0123 956.00
85.0775 928.00
85.1427 964.00
85.2079 974.00
85.2731 893.00
85.3383 884.00
85.4035 946.00
85.4687 851.00
85.5339 895.00
85.5991 902.00
85.6643 989.00
85.7295 999.00
85.7946 932.00
85.8598 957.00
85.925 941.00
85.9903 1011.00
86.0554 1011.00
86.1206 972.00
86.1858 1015.00
86.251 1007.00
86.3162 955.00
86.3814 993.00
86.4466 938.00
86.5118 936.00
86.577 945.00
86.6422 928.00
86.7074 870.00
86.7726 862.00
86.8378 898.00
86.903 920.00
86.9682 997.00
87.0334 923.00
87.0986 1004.00
87.1638 1003.00
87.229 961.00
87.2942 1062.00
87.3594 1062.00
87.4246 1108.00
87.4898 1028.00
87.555 1060.00
87.6202 1024.00
87.6854 960.00
87.7506 951.00
87.8158 884.00
87.881 920.00
87.9462 813.00
88.0114 782.00
88.0766 855.00
88.1418 799.00
88.207 846.00
88.2722 824.00
88.3374 776.00
88.4026 823.00
88.4678 865.00
88.533 895.00
88.5982 882.00
88.6634 953.00
88.7286 994.00
88.7938 968.00
88.859 944.00
88.9242 972.00
88.9894 1012.00
89.0546 958.00
89.1198 937.00
89.185 893.00
89.2502 828.00
89.3154 837.00
89.3806 861.00
89.4458 952.00
89.511 878.00
89.5762 861.00
89.6414 878.00
89.7066 943.00
89.7718 791.00
89.837 913.00
89.9022 940.00
89.9674 963.00
90.0326 907.00
90.0978 887.00
90.163 866.00
90.2282 943.00
90.2934 894.00
90.3586 918.00
90.4238 916.00
90.489 890.00
90.5542 846.00
90.6193 855.00
90.6845 871.00
90.7497 775.00
90.8149 857.00
90.8801 900.00
90.9453 877.00
91.0105 907.00
91.0757 867.00
91.1409 926.00
91.2061 930.00
91.2713 971.00
91.3365 967.00
91.4017 973.00
91.4669 1036.00
91.5321 990.00
91.5973 1078.00
91.6625 1086.00
91.7277 1061.00
91.7929 1162.00
91.8581 1185.00
91.9233 1140.00
91.9885 1136.00
92.0537 1098.00
92.1189 1224.00
92.1841 1157.00
92.2493 1153.00
92.3145 1124.00
92.3797 1146.00
92.4449 1160.00
92.5101 1244.00
92.5753 1187.00
92.6405 1163.00
92.7057 1071.00
92.7709 1090.00
92.8361 1180.00
92.9013 1154.00
92.9665 1079.00
93.0317 1006.00
93.0969 995.00
93.1621 998.00
93.2273 949.00
93.2925 932.00
93.3577 892.00
93.4229 887.00
93.4881 902.00
93.5533 833.00
93.6185 836.00
93.6837 872.00
93.7489 854.00
93.8141 848.00
93.8793 836.00
93.9445 857.00
94.0097 884.00
94.0749 896.00
94.1401 900.00
94.2053 914.00
94.2705 865.00
94.3357 907.00
94.4009 865.00
94.4661 814.00
94.5313 843.00
94.5965 830.00
94.6617 853.00
94.7269 866.00
94.7921 851.00
94.8573 816.00
94.9225 866.00
94.9877 800.00
95.0529 885.00
95.1181 889.00
95.1833 878.00
95.2485 871.00
95.3137 883.00
95.3789 914.00
95.444 922.00
95.5092 948.00
95.5744 888.00
95.6396 961.00
95.7048 939.00
95.77 947.00
95.8352 912.00
95.9004 981.00
95.9656 932.00
96.0308 1009.00
96.096 862.00
96.1612 913.00
96.2264 914.00
96.2916 862.00
96.3568 923.00
96.422 881.00
96.4872 932.00
96.5524 892.00
96.6176 838.00
96.6828 873.00
96.748 929.00
96.8132 872.00
96.8784 909.00
96.9436 908.00
97.0088 898.00
97.074 886.00
97.1392 878.00
97.2044 885.00
97.2696 875.00
97.3348 859.00
97.4 924.00
97.4652 861.00
97.5304 919.00
97.5956 886.00
97.6608 939.00
97.726 876.00
97.7912 908.00
97.8564 946.00
97.9216 954.00
97.9868 923.00
98.052 963.00
98.1172 936.00
98.1824 897.00
98.2476 957.00
98.3128 943.00
98.378 919.00
98.4432 930.00
98.5084 915.00
98.5736 840.00
98.6388 879.00
98.704 855.00
98.7692 843.00
98.8344 873.00
98.8996 812.00
98.9648 891.00
99.03 825.00
99.0952 838.00
99.1604 845.00
99.2256 881.00
99.2908 824.00
99.356 963.00
99.4212 903.00
99.4864 986.00
99.5516 1049.00
99.6168 961.00
99.682 973.00
99.7472 995.00
99.8124 1045.00
99.8776 1062.00
99.9428 1073.00
100.008 1038.00
100.073 949.00
100.095 1015.00