File: data/xrd_creation/results/NSC_183.xy
9.903433 2432.00
9.968632 2478.00
10.0338 2454.00
10.099 2494.00
10.1642 2391.00
10.2294 2434.00
10.2946 2369.00
10.3598 2320.00
10.425 2342.00
10.4902 2218.00
10.5554 2312.00
10.6206 2262.00
10.6858 2167.00
10.751 2206.00
10.8162 2190.00
10.8814 2120.00
10.9466 2053.00
11.0118 2146.00
11.077 2085.00
11.1422 2101.00
11.2074 2069.00
11.2726 2020.00
11.3378 2051.00
11.403 2015.00
11.4682 1935.00
11.5334 1973.00
11.5986 1964.00
11.6638 1950.00
11.729 1891.00
11.7942 1924.00
11.8594 1862.00
11.9246 1839.00
11.9898 1915.00
12.055 1811.00
12.1202 1810.00
12.1854 1753.00
12.2506 1833.00
12.3158 1713.00
12.381 1803.00
12.4462 1769.00
12.5114 1717.00
12.5766 1660.00
12.6418 1675.00
12.707 1660.00
12.7722 1709.00
12.8374 1653.00
12.9026 1586.00
12.9678 1683.00
13.033 1589.00
13.0982 1625.00
13.1634 1634.00
13.2286 1630.00
13.2938 1537.00
13.359 1478.00
13.4242 1477.00
13.4894 1522.00
13.5546 1499.00
13.6198 1523.00
13.685 1482.00
13.7502 1468.00
13.8154 1432.00
13.8805 1500.00
13.9457 1415.00
14.0109 1427.00
14.0761 1478.00
14.1413 1426.00
14.2065 1393.00
14.2717 1350.00
14.3369 1360.00
14.4021 1325.00
14.4673 1303.00
14.5325 1375.00
14.5977 1363.00
14.6629 1345.00
14.7281 1344.00
14.7933 1322.00
14.8585 1367.00
14.9237 1323.00
14.9889 1344.00
15.0541 1271.00
15.1193 1280.00
15.1845 1320.00
15.2497 1337.00
15.3149 1346.00
15.3801 1221.00
15.4453 1258.00
15.5105 1268.00
15.5757 1345.00
15.6409 1222.00
15.7061 1222.00
15.7713 1260.00
15.8365 1218.00
15.9017 1286.00
15.9669 1277.00
16.0321 1273.00
16.0973 1258.00
16.1625 1221.00
16.2277 1249.00
16.2929 1206.00
16.3581 1178.00
16.4233 1237.00
16.4885 1189.00
16.5537 1197.00
16.6189 1235.00
16.6841 1122.00
16.7493 1190.00
16.8145 1130.00
16.8797 1187.00
16.9449 1166.00
17.0101 1182.00
17.0753 1111.00
17.1405 1153.00
17.2057 1184.00
17.2709 1092.00
17.3361 1169.00
17.4013 1079.00
17.4665 1072.00
17.5317 1040.00
17.5969 1042.00
17.6621 1041.00
17.7273 1079.00
17.7925 1110.00
17.8577 1130.00
17.9229 1075.00
17.9881 1076.00
18.0533 1073.00
18.1185 1071.00
18.1837 1059.00
18.2489 1091.00
18.3141 1030.00
18.3793 1083.00
18.4445 1060.00
18.5097 1060.00
18.5749 982.00
18.6401 956.00
18.7052 995.00
18.7704 1039.00
18.8356 962.00
18.9008 1002.00
18.966 1014.00
19.0312 956.00
19.0964 961.00
19.1616 972.00
19.2268 995.00
19.292 1012.00
19.3572 947.00
19.4224 937.00
19.4876 918.00
19.5528 947.00
19.618 960.00
19.6832 925.00
19.7484 913.00
19.8136 1006.00
19.8788 893.00
19.944 862.00
20.0092 930.00
20.0744 941.00
20.1396 895.00
20.2048 857.00
20.27 872.00
20.3352 865.00
20.4004 912.00
20.4656 886.00
20.5308 853.00
20.596 859.00
20.6612 904.00
20.7264 863.00
20.7916 865.00
20.8568 830.00
20.922 863.00
20.9872 872.00
21.0524 884.00
21.1176 880.00
21.1828 848.00
21.248 832.00
21.3132 826.00
21.3784 841.00
21.4436 837.00
21.5088 841.00
21.574 789.00
21.6392 838.00
21.7044 814.00
21.7696 831.00
21.8348 799.00
21.9 816.00
21.9652 738.00
22.0304 776.00
22.0956 809.00
22.1608 825.00
22.226 827.00
22.2912 832.00
22.3564 792.00
22.4216 806.00
22.4868 794.00
22.552 756.00
22.6172 796.00
22.6824 787.00
22.7476 852.00
22.8128 836.00
22.878 767.00
22.9432 779.00
23.0084 797.00
23.0736 794.00
23.1388 769.00
23.204 758.00
23.2692 765.00
23.3344 721.00
23.3996 763.00
23.4647 737.00
23.5299 711.00
23.5951 759.00
23.6603 742.00
23.7255 766.00
23.7907 744.00
23.8559 747.00
23.9211 751.00
23.9863 703.00
24.0515 725.00
24.1167 709.00
24.1819 692.00
24.2471 704.00
24.3123 679.00
24.3775 723.00
24.4427 720.00
24.5079 706.00
24.5731 700.00
24.6383 698.00
24.7035 675.00
24.7687 694.00
24.8339 668.00
24.8991 631.00
24.9643 698.00
25.0295 688.00
25.0947 692.00
25.1599 706.00
25.2251 712.00
25.2903 690.00
25.3555 685.00
25.4207 658.00
25.4859 681.00
25.5511 651.00
25.6163 644.00
25.6815 659.00
25.7467 698.00
25.8119 658.00
25.8771 657.00
25.9423 657.00
26.0075 612.00
26.0727 635.00
26.1379 603.00
26.2031 617.00
26.2683 676.00
26.3335 647.00
26.3987 626.00
26.4639 671.00
26.5291 670.00
26.5943 647.00
26.6595 667.00
26.7247 718.00
26.7899 630.00
26.8551 660.00
26.9203 652.00
26.9855 655.00
27.0507 613.00
27.1159 663.00
27.1811 608.00
27.2463 645.00
27.3115 658.00
27.3767 619.00
27.4419 611.00
27.5071 626.00
27.5723 589.00
27.6375 562.00
27.7027 606.00
27.7679 595.00
27.8331 605.00
27.8983 633.00
27.9635 544.00
28.0287 529.00
28.0939 598.00
28.1591 629.00
28.2243 576.00
28.2894 628.00
28.3546 574.00
28.4198 605.00
28.485 567.00
28.5502 548.00
28.6154 574.00
28.6806 628.00
28.7458 522.00
28.811 592.00
28.8762 490.00
28.9414 550.00
29.0066 539.00
29.0718 572.00
29.137 562.00
29.2022 567.00
29.2674 531.00
29.3326 550.00
29.3978 530.00
29.463 520.00
29.5282 536.00
29.5934 543.00
29.6586 594.00
29.7238 582.00
29.789 567.00
29.8542 578.00
29.9194 568.00
29.9846 537.00
30.0498 491.00
30.115 530.00
30.1802 519.00
30.2454 498.00
30.3106 599.00
30.3758 547.00
30.441 547.00
30.5062 539.00
30.5714 462.00
30.6366 541.00
30.7018 464.00
30.767 496.00
30.8322 510.00
30.8974 488.00
30.9626 518.00
31.0278 507.00
31.093 465.00
31.1582 537.00
31.2234 523.00
31.2886 543.00
31.3538 488.00
31.419 548.00
31.4842 541.00
31.5494 468.00
31.6146 549.00
31.6798 537.00
31.745 473.00
31.8102 514.00
31.8754 478.00
31.9406 518.00
32.0058 463.00
32.071 482.00
32.1362 447.00
32.2014 464.00
32.2666 504.00
32.3318 514.00
32.397 483.00
32.4622 445.00
32.5274 452.00
32.5926 468.00
32.6578 479.00
32.723 501.00
32.7882 438.00
32.8534 440.00
32.9186 426.00
32.9838 452.00
33.0489 453.00
33.1141 475.00
33.1793 499.00
33.2445 468.00
33.3097 461.00
33.3749 505.00
33.4401 441.00
33.5053 460.00
33.5705 467.00
33.6357 467.00
33.7009 472.00
33.7661 512.00
33.8313 470.00
33.8965 454.00
33.9617 422.00
34.0269 447.00
34.0921 442.00
34.1573 451.00
34.2225 484.00
34.2877 434.00
34.3529 455.00
34.4181 437.00
34.4833 471.00
34.5485 420.00
34.6137 411.00
34.6789 378.00
34.7441 436.00
34.8093 414.00
34.8745 460.00
34.9397 443.00
35.0049 410.00
35.0701 449.00
35.1353 413.00
35.2005 440.00
35.2657 436.00
35.3309 389.00
35.3961 414.00
35.4613 365.00
35.5265 394.00
35.5917 399.00
35.6569 415.00
35.7221 405.00
35.7873 428.00
35.8525 399.00
35.9177 431.00
35.9829 409.00
36.0481 411.00
36.1133 417.00
36.1785 422.00
36.2437 441.00
36.3089 416.00
36.3741 375.00
36.4393 412.00
36.5045 368.00
36.5697 377.00
36.6349 385.00
36.7001 399.00
36.7653 384.00
36.8305 396.00
36.8957 412.00
36.9609 388.00
37.0261 400.00
37.0913 456.00
37.1565 409.00
37.2217 388.00
37.2869 413.00
37.3521 375.00
37.4173 391.00
37.4825 374.00
37.5477 361.00
37.6129 357.00
37.6781 390.00
37.7433 368.00
37.8085 412.00
37.8736 395.00
37.9388 386.00
38.004 383.00
38.0692 366.00
38.1344 360.00
38.1996 366.00
38.2648 400.00
38.33 360.00
38.3952 354.00
38.4604 352.00
38.5256 352.00
38.5908 338.00
38.656 386.00
38.7212 310.00
38.7864 399.00
38.8516 323.00
38.9168 345.00
38.982 374.00
39.0472 363.00
39.1124 362.00
39.1776 345.00
39.2428 377.00
39.308 380.00
39.3732 352.00
39.4384 344.00
39.5036 333.00
39.5688 334.00
39.634 357.00
39.6992 350.00
39.7644 379.00
39.8296 347.00
39.8948 350.00
39.96 377.00
40.0252 354.00
40.0904 329.00
40.1556 347.00
40.2208 340.00
40.286 342.00
40.3512 344.00
40.4164 315.00
40.4816 326.00
40.5468 350.00
40.612 325.00
40.6772 326.00
40.7424 304.00
40.8076 362.00
40.8728 338.00
40.938 322.00
41.0032 333.00
41.0684 346.00
41.1336 333.00
41.1988 350.00
41.264 296.00
41.3292 326.00
41.3944 314.00
41.4596 338.00
41.5248 343.00
41.59 323.00
41.6552 341.00
41.7204 334.00
41.7856 320.00
41.8508 362.00
41.916 307.00
41.9812 318.00
42.0464 312.00
42.1116 331.00
42.1768 302.00
42.242 326.00
42.3072 327.00
42.3724 313.00
42.4376 290.00
42.5028 314.00
42.568 325.00
42.6332 288.00
42.6983 315.00
42.7635 297.00
42.8287 322.00
42.8939 300.00
42.9591 368.00
43.0243 347.00
43.0895 347.00
43.1547 341.00
43.2199 317.00
43.2851 319.00
43.3503 330.00
43.4155 323.00
43.4807 283.00
43.5459 304.00
43.6111 307.00
43.6763 294.00
43.7415 304.00
43.8067 302.00
43.8719 313.00
43.9371 315.00
44.0023 292.00
44.0675 323.00
44.1327 319.00
44.1979 266.00
44.2631 299.00
44.3283 308.00
44.3935 323.00
44.4587 327.00
44.5239 271.00
44.5891 310.00
44.6543 319.00
44.7195 291.00
44.7847 282.00
44.8499 287.00
44.9151 301.00
44.9803 285.00
45.0455 234.00
45.1107 277.00
45.1759 297.00
45.2411 293.00
45.3063 303.00
45.3715 269.00
45.4367 296.00
45.5019 295.00
45.5671 273.00
45.6323 283.00
45.6975 289.00
45.7627 282.00
45.8279 283.00
45.8931 320.00
45.9583 300.00
46.0235 294.00
46.0887 283.00
46.1539 311.00
46.2191 281.00
46.2843 272.00
46.3495 281.00
46.4147 276.00
46.4799 282.00
46.5451 317.00
46.6103 277.00
46.6755 278.00
46.7407 276.00
46.8059 274.00
46.8711 283.00
46.9363 289.00
47.0015 268.00
47.0667 246.00
47.1319 317.00
47.1971 295.00
47.2623 274.00
47.3275 242.00
47.3927 300.00
47.4579 287.00
47.523 292.00
47.5882 291.00
47.6534 276.00
47.7186 290.00
47.7838 293.00
47.849 227.00
47.9142 283.00
47.9794 288.00
48.0446 273.00
48.1098 269.00
48.175 278.00
48.2402 246.00
48.3054 294.00
48.3706 279.00
48.4358 263.00
48.501 270.00
48.5662 262.00
48.6314 285.00
48.6966 260.00
48.7618 270.00
48.827 263.00
48.8922 285.00
48.9574 244.00
49.0226 240.00
49.0878 259.00
49.153 282.00
49.2182 290.00
49.2834 296.00
49.3486 271.00
49.4138 278.00
49.479 234.00
49.5442 284.00
49.6094 264.00
49.6746 272.00
49.7398 215.00
49.805 265.00
49.8702 277.00
49.9354 282.00
50.0006 261.00
50.0658 230.00
50.131 244.00
50.1962 218.00
50.2614 250.00
50.3266 241.00
50.3918 269.00
50.457 258.00
50.5222 264.00
50.5874 239.00
50.6526 226.00
50.7178 297.00
50.783 286.00
50.8482 267.00
50.9134 286.00
50.9786 242.00
51.0438 278.00
51.109 263.00
51.1742 283.00
51.2394 258.00
51.3046 280.00
51.3698 248.00
51.435 293.00
51.5002 238.00
51.5654 250.00
51.6306 259.00
51.6958 222.00
51.761 281.00
51.8262 242.00
51.8914 241.00
51.9566 280.00
52.0218 267.00
52.087 260.00
52.1522 259.00
52.2174 279.00
52.2826 230.00
52.3477 213.00
52.4129 236.00
52.4781 256.00
52.5433 238.00
52.6085 249.00
52.6737 237.00
52.7389 257.00
52.8041 224.00
52.8693 228.00
52.9345 222.00
52.9997 275.00
53.0649 237.00
53.1301 239.00
53.1953 263.00
53.2605 260.00
53.3257 217.00
53.3909 228.00
53.4561 243.00
53.5213 249.00
53.5865 236.00
53.6517 244.00
53.7169 230.00
53.7821 239.00
53.8473 248.00
53.9125 238.00
53.9777 229.00
54.0429 231.00
54.1081 245.00
54.1733 249.00
54.2385 213.00
54.3037 205.00
54.3689 233.00
54.4341 222.00
54.4993 256.00
54.5645 216.00
54.6297 213.00
54.6949 223.00
54.7601 228.00
54.8253 235.00
54.8905 232.00
54.9557 212.00
55.0209 222.00
55.0861 242.00
55.1513 246.00
55.2165 243.00
55.2817 212.00
55.3469 250.00
55.4121 194.00
55.4773 238.00
55.5425 260.00
55.6077 256.00
55.6729 218.00
55.7381 258.00
55.8033 225.00
55.8685 245.00
55.9337 225.00
55.9989 232.00
56.0641 240.00
56.1293 245.00
56.1945 203.00
56.2597 220.00
56.3249 200.00
56.3901 222.00
56.4553 227.00
56.5205 220.00
56.5857 206.00
56.6509 186.00
56.7161 220.00
56.7813 222.00
56.8465 221.00
56.9117 198.00
56.9769 190.00
57.042 229.00
57.1073 226.00
57.1724 193.00
57.2376 201.00
57.3028 225.00
57.368 222.00
57.4332 207.00
57.4984 212.00
57.5636 216.00
57.6288 219.00
57.694 205.00
57.7592 271.00
57.8244 215.00
57.8896 200.00
57.9548 220.00
58.02 204.00
58.0852 226.00
58.1504 231.00
58.2156 180.00
58.2808 205.00
58.346 215.00
58.4112 205.00
58.4764 199.00
58.5416 188.00
58.6068 223.00
58.672 204.00
58.7372 205.00
58.8024 231.00
58.8676 213.00
58.9328 235.00
58.998 212.00
59.0632 203.00
59.1284 216.00
59.1936 210.00
59.2588 203.00
59.324 211.00
59.3892 220.00
59.4544 194.00
59.5196 178.00
59.5848 212.00
59.65 219.00
59.7152 215.00
59.7804 206.00
59.8456 191.00
59.9108 215.00
59.976 218.00
60.0412 191.00
60.1064 211.00
60.1716 211.00
60.2368 229.00
60.302 217.00
60.3672 201.00
60.4324 181.00
60.4976 218.00
60.5628 199.00
60.628 217.00
60.6932 187.00
60.7584 177.00
60.8236 194.00
60.8888 219.00
60.954 192.00
61.0192 191.00
61.0844 218.00
61.1496 183.00
61.2148 232.00
61.28 189.00
61.3452 183.00
61.4104 199.00
61.4756 204.00
61.5408 169.00
61.606 213.00
61.6712 188.00
61.7364 201.00
61.8016 187.00
61.8667 206.00
61.932 205.00
61.9971 212.00
62.0623 188.00
62.1275 201.00
62.1927 227.00
62.2579 224.00
62.3231 187.00
62.3883 198.00
62.4535 207.00
62.5187 206.00
62.5839 208.00
62.6491 215.00
62.7143 195.00
62.7795 193.00
62.8447 235.00
62.9099 221.00
62.9751 201.00
63.0403 205.00
63.1055 211.00
63.1707 191.00
63.2359 175.00
63.3011 205.00
63.3663 190.00
63.4315 214.00
63.4967 210.00
63.5619 206.00
63.6271 179.00
63.6923 187.00
63.7575 184.00
63.8227 210.00
63.8879 189.00
63.9531 208.00
64.0183 186.00
64.0835 210.00
64.1487 213.00
64.2139 219.00
64.2791 227.00
64.3443 198.00
64.4095 199.00
64.4747 152.00
64.5399 192.00
64.6051 175.00
64.6703 185.00
64.7355 186.00
64.8007 181.00
64.8659 200.00
64.9311 177.00
64.9963 173.00
65.0615 180.00
65.1267 195.00
65.1919 194.00
65.2571 196.00
65.3223 186.00
65.3875 173.00
65.4527 184.00
65.5179 191.00
65.5831 188.00
65.6483 195.00
65.7135 184.00
65.7787 199.00
65.8439 194.00
65.9091 182.00
65.9743 172.00
66.0395 196.00
66.1047 175.00
66.1699 203.00
66.2351 172.00
66.3003 214.00
66.3655 185.00
66.4307 181.00
66.4959 160.00
66.561 191.00
66.6263 192.00
66.6915 182.00
66.7566 188.00
66.8218 180.00
66.887 192.00
66.9522 184.00
67.0174 190.00
67.0826 163.00
67.1478 194.00
67.213 169.00
67.2782 194.00
67.3434 191.00
67.4086 174.00
67.4738 184.00
67.539 216.00
67.6042 202.00
67.6694 175.00
67.7346 190.00
67.7998 206.00
67.865 168.00
67.9302 196.00
67.9954 161.00
68.0606 198.00
68.1258 193.00
68.191 186.00
68.2562 214.00
68.3214 194.00
68.3866 168.00
68.4518 198.00
68.517 153.00
68.5822 202.00
68.6474 180.00
68.7126 191.00
68.7778 180.00
68.843 190.00
68.9082 221.00
68.9734 205.00
69.0386 183.00
69.1038 190.00
69.169 155.00
69.2342 211.00
69.2994 183.00
69.3646 174.00
69.4298 174.00
69.495 198.00
69.5602 208.00
69.6254 171.00
69.6906 214.00
69.7558 210.00
69.821 201.00
69.8862 171.00
69.9514 166.00
70.0166 188.00
70.0818 174.00
70.147 175.00
70.2122 188.00
70.2774 203.00
70.3426 179.00
70.4078 181.00
70.473 199.00
70.5382 192.00
70.6034 200.00
70.6686 179.00
70.7338 176.00
70.799 184.00
70.8642 182.00
70.9294 195.00
70.9946 194.00
71.0598 174.00
71.125 178.00
71.1902 178.00
71.2554 186.00
71.3205 197.00
71.3858 203.00
71.451 219.00
71.5162 184.00
71.5813 183.00
71.6465 192.00
71.7117 187.00
71.7769 215.00
71.8421 198.00
71.9073 176.00
71.9725 192.00
72.0377 196.00
72.1029 194.00
72.1681 199.00
72.2333 210.00
72.2985 200.00
72.3637 191.00
72.4289 154.00
72.4941 187.00
72.5593 187.00
72.6245 190.00
72.6897 179.00
72.7549 179.00
72.8201 216.00
72.8853 176.00
72.9505 175.00
73.0157 193.00
73.0809 197.00
73.1461 212.00
73.2113 188.00
73.2765 174.00
73.3417 188.00
73.4069 198.00
73.4721 216.00
73.5373 218.00
73.6025 192.00
73.6677 179.00
73.7329 194.00
73.7981 215.00
73.8633 192.00
73.9285 210.00
73.9937 179.00
74.0589 171.00
74.1241 189.00
74.1893 178.00
74.2545 172.00
74.3197 206.00
74.3849 197.00
74.4501 215.00
74.5153 197.00
74.5805 183.00
74.6457 184.00
74.7109 191.00
74.7761 196.00
74.8413 170.00
74.9065 197.00
74.9717 177.00
75.0369 207.00
75.1021 205.00
75.1673 207.00
75.2325 198.00
75.2977 197.00
75.3629 224.00
75.4281 216.00
75.4933 196.00
75.5585 200.00
75.6237 203.00
75.6889 191.00
75.7541 202.00
75.8193 213.00
75.8845 214.00
75.9497 177.00
76.0149 215.00
76.0801 200.00
76.1452 210.00
76.2104 211.00
76.2756 196.00
76.3409 204.00
76.406 219.00
76.4712 188.00
76.5364 205.00
76.6016 196.00
76.6668 180.00
76.732 219.00
76.7972 197.00
76.8624 179.00
76.9276 180.00
76.9928 177.00
77.058 193.00
77.1232 172.00
77.1884 204.00
77.2536 200.00
77.3188 170.00
77.384 197.00
77.4492 194.00
77.5144 193.00
77.5796 224.00
77.6448 219.00
77.71 206.00
77.7752 216.00
77.8404 213.00
77.9056 202.00
77.9708 219.00
78.036 203.00
78.1012 211.00
78.1664 199.00
78.2316 208.00
78.2968 231.00
78.362 199.00
78.4272 217.00
78.4924 196.00
78.5576 207.00
78.6228 215.00
78.688 231.00
78.7532 221.00
78.8184 216.00
78.8836 212.00
78.9488 221.00
79.014 210.00
79.0792 211.00
79.1444 224.00
79.2096 213.00
79.2748 217.00
79.34 195.00
79.4052 219.00
79.4704 219.00
79.5356 192.00
79.6008 220.00
79.666 232.00
79.7312 206.00
79.7964 210.00
79.8616 218.00
79.9268 231.00
79.992 202.00
80.0572 236.00
80.1224 228.00
80.1876 218.00
80.2528 207.00
80.318 221.00
80.3832 216.00
80.4484 250.00
80.5136 205.00
80.5788 239.00
80.644 233.00
80.7092 236.00
80.7744 208.00
80.8396 240.00
80.9048 210.00
80.9699 221.00
81.0351 207.00
81.1003 209.00
81.1655 215.00
81.2307 251.00
81.2959 226.00
81.3611 234.00
81.4263 211.00
81.4915 231.00
81.5567 204.00
81.6219 207.00
81.6871 232.00
81.7523 216.00
81.8175 238.00
81.8827 223.00
81.9479 204.00
82.0131 214.00
82.0783 214.00
82.1435 237.00
82.2087 222.00
82.2739 216.00
82.3391 216.00
82.4043 191.00
82.4695 218.00
82.5347 206.00
82.5999 237.00
82.6651 235.00
82.7303 239.00
82.7955 223.00
82.8607 199.00
82.9259 230.00
82.9911 203.00
83.0563 238.00
83.1215 241.00
83.1867 201.00
83.2519 228.00
83.3171 218.00
83.3823 214.00
83.4475 225.00
83.5127 210.00
83.5779 204.00
83.6431 207.00
83.7083 210.00
83.7735 222.00
83.8387 249.00
83.9039 208.00
83.9691 211.00
84.0343 195.00
84.0995 199.00
84.1647 212.00
84.2299 219.00
84.2951 227.00
84.3603 204.00
84.4255 201.00
84.4907 218.00
84.5559 198.00
84.6211 230.00
84.6863 228.00
84.7515 217.00
84.8167 191.00
84.8819 194.00
84.9471 230.00
85.0123 182.00
85.0775 203.00
85.1427 241.00
85.2079 193.00
85.2731 191.00
85.3383 198.00
85.4035 182.00
85.4687 193.00
85.5339 224.00
85.5991 168.00
85.6643 193.00
85.7295 217.00
85.7946 192.00
85.8598 197.00
85.925 186.00
85.9903 216.00
86.0554 193.00
86.1206 210.00
86.1858 194.00
86.251 216.00
86.3162 180.00
86.3814 226.00
86.4466 195.00
86.5118 216.00
86.577 188.00
86.6422 216.00
86.7074 197.00
86.7726 180.00
86.8378 202.00
86.903 192.00
86.9682 210.00
87.0334 178.00
87.0986 196.00
87.1638 218.00
87.229 184.00
87.2942 191.00
87.3594 188.00
87.4246 212.00
87.4898 189.00
87.555 203.00
87.6202 189.00
87.6854 201.00
87.7506 197.00
87.8158 184.00
87.881 200.00
87.9462 182.00
88.0114 179.00
88.0766 191.00
88.1418 190.00
88.207 202.00
88.2722 194.00
88.3374 187.00
88.4026 171.00
88.4678 172.00
88.533 184.00
88.5982 192.00
88.6634 212.00
88.7286 200.00
88.7938 164.00
88.859 172.00
88.9242 176.00
88.9894 218.00
89.0546 195.00
89.1198 176.00
89.185 221.00
89.2502 185.00
89.3154 174.00
89.3806 204.00
89.4458 215.00
89.511 200.00
89.5762 179.00
89.6414 175.00
89.7066 202.00
89.7718 181.00
89.837 180.00
89.9022 202.00
89.9674 171.00
90.0326 181.00
90.0978 201.00
90.163 173.00
90.2282 185.00
90.2934 189.00
90.3586 164.00
90.4238 175.00
90.489 205.00
90.5542 158.00
90.6193 184.00
90.6845 162.00
90.7497 188.00
90.8149 199.00
90.8801 172.00
90.9453 199.00
91.0105 202.00
91.0757 170.00
91.1409 191.00
91.2061 191.00
91.2713 183.00
91.3365 209.00
91.4017 177.00
91.4669 175.00
91.5321 176.00
91.5973 178.00
91.6625 186.00
91.7277 209.00
91.7929 181.00
91.8581 187.00
91.9233 178.00
91.9885 164.00
92.0537 191.00
92.1189 158.00
92.1841 182.00
92.2493 185.00
92.3145 178.00
92.3797 183.00
92.4449 187.00
92.5101 175.00
92.5753 198.00
92.6405 186.00
92.7057 175.00
92.7709 187.00
92.8361 194.00
92.9013 167.00
92.9665 182.00
93.0317 191.00
93.0969 174.00
93.1621 191.00
93.2273 191.00
93.2925 172.00
93.3577 196.00
93.4229 175.00
93.4881 192.00
93.5533 170.00
93.6185 181.00
93.6837 153.00
93.7489 183.00
93.8141 156.00
93.8793 175.00
93.9445 169.00
94.0097 162.00
94.0749 197.00
94.1401 172.00
94.2053 168.00
94.2705 173.00
94.3357 174.00
94.4009 142.00
94.4661 187.00
94.5313 169.00
94.5965 198.00
94.6617 175.00
94.7269 158.00
94.7921 180.00
94.8573 171.00
94.9225 175.00
94.9877 178.00
95.0529 188.00
95.1181 173.00
95.1833 189.00
95.2485 192.00
95.3137 156.00
95.3789 175.00
95.444 190.00
95.5092 172.00
95.5744 192.00
95.6396 206.00
95.7048 180.00
95.77 173.00
95.8352 158.00
95.9004 197.00
95.9656 160.00
96.0308 158.00
96.096 184.00
96.1612 161.00
96.2264 184.00
96.2916 177.00
96.3568 191.00
96.422 155.00
96.4872 194.00
96.5524 170.00
96.6176 185.00
96.6828 180.00
96.748 193.00
96.8132 157.00
96.8784 177.00
96.9436 162.00
97.0088 169.00
97.074 185.00
97.1392 201.00
97.2044 188.00
97.2696 162.00
97.3348 183.00
97.4 170.00
97.4652 183.00
97.5304 177.00
97.5956 164.00
97.6608 184.00
97.726 186.00
97.7912 201.00
97.8564 169.00
97.9216 167.00
97.9868 174.00
98.052 182.00
98.1172 173.00
98.1824 178.00
98.2476 181.00
98.3128 154.00
98.378 196.00
98.4432 178.00
98.5084 168.00
98.5736 187.00
98.6388 195.00
98.704 219.00
98.7692 172.00
98.8344 197.00
98.8996 185.00
98.9648 173.00
99.03 192.00
99.0952 167.00
99.1604 168.00
99.2256 190.00
99.2908 191.00
99.356 178.00
99.4212 179.00
99.4864 172.00
99.5516 202.00
99.6168 208.00
99.682 170.00
99.7472 178.00
99.8124 182.00
99.8776 202.00
99.9428 194.00
100.008 144.00
100.073 201.00
100.095 182.00