File: data/xrd_creation/results/NSC_171.xy
9.903433 2497.00
9.968632 2576.00
10.0338 2619.00
10.099 2589.00
10.1642 2589.00
10.2294 2519.00
10.2946 2497.00
10.3598 2499.00
10.425 2450.00
10.4902 2415.00
10.5554 2479.00
10.6206 2255.00
10.6858 2309.00
10.751 2268.00
10.8162 2328.00
10.8814 2344.00
10.9466 2372.00
11.0118 2283.00
11.077 2186.00
11.1422 2160.00
11.2074 2210.00
11.2726 2191.00
11.3378 2247.00
11.403 2119.00
11.4682 2130.00
11.5334 2232.00
11.5986 2054.00
11.6638 2061.00
11.729 2003.00
11.7942 2070.00
11.8594 2086.00
11.9246 2041.00
11.9898 1950.00
12.055 2019.00
12.1202 1925.00
12.1854 1954.00
12.2506 1914.00
12.3158 1915.00
12.381 1962.00
12.4462 1977.00
12.5114 1947.00
12.5766 1915.00
12.6418 1957.00
12.707 1898.00
12.7722 1879.00
12.8374 1851.00
12.9026 1838.00
12.9678 1840.00
13.033 1762.00
13.0982 1812.00
13.1634 1837.00
13.2286 1751.00
13.2938 1742.00
13.359 1744.00
13.4242 1718.00
13.4894 1774.00
13.5546 1838.00
13.6198 1715.00
13.685 1817.00
13.7502 1730.00
13.8154 1764.00
13.8805 1733.00
13.9457 1784.00
14.0109 1706.00
14.0761 1714.00
14.1413 1677.00
14.2065 1651.00
14.2717 1722.00
14.3369 1648.00
14.4021 1716.00
14.4673 1725.00
14.5325 1790.00
14.5977 1927.00
14.6629 2081.00
14.7281 2369.00
14.7933 2525.00
14.8585 2904.00
14.9237 3085.00
14.9889 2926.00
15.0541 2660.00
15.1193 2259.00
15.1845 1980.00
15.2497 1826.00
15.3149 1711.00
15.3801 1720.00
15.4453 1647.00
15.5105 1617.00
15.5757 1611.00
15.6409 1595.00
15.7061 1576.00
15.7713 1479.00
15.8365 1578.00
15.9017 1532.00
15.9669 1526.00
16.0321 1511.00
16.0973 1563.00
16.1625 1511.00
16.2277 1476.00
16.2929 1522.00
16.3581 1464.00
16.4233 1515.00
16.4885 1463.00
16.5537 1546.00
16.6189 1439.00
16.6841 1613.00
16.7493 1544.00
16.8145 1419.00
16.8797 1496.00
16.9449 1473.00
17.0101 1445.00
17.0753 1509.00
17.1405 1467.00
17.2057 1450.00
17.2709 1433.00
17.3361 1401.00
17.4013 1358.00
17.4665 1373.00
17.5317 1453.00
17.5969 1439.00
17.6621 1385.00
17.7273 1393.00
17.7925 1393.00
17.8577 1414.00
17.9229 1353.00
17.9881 1444.00
18.0533 1347.00
18.1185 1400.00
18.1837 1309.00
18.2489 1440.00
18.3141 1360.00
18.3793 1293.00
18.4445 1429.00
18.5097 1348.00
18.5749 1340.00
18.6401 1281.00
18.7052 1328.00
18.7704 1342.00
18.8356 1266.00
18.9008 1269.00
18.966 1280.00
19.0312 1290.00
19.0964 1346.00
19.1616 1250.00
19.2268 1325.00
19.292 1306.00
19.3572 1338.00
19.4224 1281.00
19.4876 1299.00
19.5528 1254.00
19.618 1334.00
19.6832 1370.00
19.7484 1285.00
19.8136 1323.00
19.8788 1413.00
19.944 1386.00
20.0092 1515.00
20.0744 1573.00
20.1396 1933.00
20.2048 2231.00
20.27 2884.00
20.3352 3672.00
20.4004 4986.00
20.4656 5625.00
20.5308 5523.00
20.596 4606.00
20.6612 3734.00
20.7264 3026.00
20.7916 2610.00
20.8568 2426.00
20.922 2073.00
20.9872 1823.00
21.0524 1598.00
21.1176 1578.00
21.1828 1785.00
21.248 2029.00
21.3132 2613.00
21.3784 3545.00
21.4436 4686.00
21.5088 5720.00
21.574 6346.00
21.6392 6079.00
21.7044 5067.00
21.7696 4034.00
21.8348 3363.00
21.9 2858.00
21.9652 2343.00
22.0304 1948.00
22.0956 1647.00
22.1608 1565.00
22.226 1315.00
22.2912 1306.00
22.3564 1167.00
22.4216 1316.00
22.4868 1217.00
22.552 1197.00
22.6172 1091.00
22.6824 1177.00
22.7476 1024.00
22.8128 1136.00
22.878 1059.00
22.9432 1095.00
23.0084 1101.00
23.0736 1013.00
23.1388 1133.00
23.204 1086.00
23.2692 1093.00
23.3344 1063.00
23.3996 1063.00
23.4647 1089.00
23.5299 1022.00
23.5951 1027.00
23.6603 1137.00
23.7255 1103.00
23.7907 1040.00
23.8559 1094.00
23.9211 1089.00
23.9863 1043.00
24.0515 1094.00
24.1167 1059.00
24.1819 1155.00
24.2471 1166.00
24.3123 1225.00
24.3775 1270.00
24.4427 1484.00
24.5079 1829.00
24.5731 2428.00
24.6383 3188.00
24.7035 4039.00
24.7687 4649.00
24.8339 4343.00
24.8991 3832.00
24.9643 3382.00
25.0295 2816.00
25.0947 2441.00
25.1599 2249.00
25.2251 1978.00
25.2903 1745.00
25.3555 1519.00
25.4207 1338.00
25.4859 1133.00
25.5511 1185.00
25.6163 1102.00
25.6815 1061.00
25.7467 1005.00
25.8119 980.00
25.8771 983.00
25.9423 990.00
26.0075 1055.00
26.0727 1198.00
26.1379 1400.00
26.2031 1735.00
26.2683 1859.00
26.3335 1693.00
26.3987 1270.00
26.4639 1014.00
26.5291 1011.00
26.5943 999.00
26.6595 930.00
26.7247 1014.00
26.7899 967.00
26.8551 932.00
26.9203 982.00
26.9855 1000.00
27.0507 930.00
27.1159 954.00
27.1811 941.00
27.2463 896.00
27.3115 843.00
27.3767 911.00
27.4419 901.00
27.5071 907.00
27.5723 932.00
27.6375 809.00
27.7027 915.00
27.7679 917.00
27.8331 918.00
27.8983 872.00
27.9635 887.00
28.0287 863.00
28.0939 843.00
28.1591 858.00
28.2243 843.00
28.2894 809.00
28.3546 833.00
28.4198 841.00
28.485 792.00
28.5502 823.00
28.6154 865.00
28.6806 832.00
28.7458 882.00
28.811 842.00
28.8762 835.00
28.9414 803.00
29.0066 854.00
29.0718 883.00
29.137 894.00
29.2022 922.00
29.2674 885.00
29.3326 1014.00
29.3978 1136.00
29.463 1299.00
29.5282 1684.00
29.5934 2108.00
29.6586 2872.00
29.7238 3413.00
29.789 3582.00
29.8542 3397.00
29.9194 2910.00
29.9846 2405.00
30.0498 2108.00
30.115 1977.00
30.1802 1739.00
30.2454 1563.00
30.3106 1451.00
30.3758 1263.00
30.441 1126.00
30.5062 965.00
30.5714 991.00
30.6366 906.00
30.7018 878.00
30.767 827.00
30.8322 781.00
30.8974 749.00
30.9626 740.00
31.0278 735.00
31.093 783.00
31.1582 774.00
31.2234 789.00
31.2886 755.00
31.3538 808.00
31.419 772.00
31.4842 759.00
31.5494 775.00
31.6146 785.00
31.6798 789.00
31.745 739.00
31.8102 810.00
31.8754 820.00
31.9406 845.00
32.0058 894.00
32.071 956.00
32.1362 884.00
32.2014 1053.00
32.2666 1333.00
32.3318 1649.00
32.397 2290.00
32.4622 3091.00
32.5274 4104.00
32.5926 4838.00
32.6578 4977.00
32.723 4566.00
32.7882 3887.00
32.8534 3343.00
32.9186 2840.00
32.9838 2505.00
33.0489 2256.00
33.1141 2125.00
33.1793 2011.00
33.2445 1912.00
33.3097 1800.00
33.3749 1585.00
33.4401 1416.00
33.5053 1258.00
33.5705 1179.00
33.6357 1114.00
33.7009 965.00
33.7661 922.00
33.8313 874.00
33.8965 841.00
33.9617 807.00
34.0269 816.00
34.0921 804.00
34.1573 766.00
34.2225 764.00
34.2877 720.00
34.3529 693.00
34.4181 735.00
34.4833 685.00
34.5485 682.00
34.6137 706.00
34.6789 780.00
34.7441 773.00
34.8093 813.00
34.8745 809.00
34.9397 942.00
35.0049 878.00
35.0701 775.00
35.1353 750.00
35.2005 773.00
35.2657 721.00
35.3309 738.00
35.3961 698.00
35.4613 696.00
35.5265 692.00
35.5917 689.00
35.6569 660.00
35.7221 686.00
35.7873 681.00
35.8525 638.00
35.9177 644.00
35.9829 683.00
36.0481 634.00
36.1133 671.00
36.1785 792.00
36.2437 753.00
36.3089 738.00
36.3741 753.00
36.4393 732.00
36.5045 810.00
36.5697 862.00
36.6349 914.00
36.7001 1114.00
36.7653 1306.00
36.8305 1489.00
36.8957 1614.00
36.9609 1683.00
37.0261 1607.00
37.0913 1403.00
37.1565 1382.00
37.2217 1460.00
37.2869 1553.00
37.3521 1738.00
37.4173 1951.00
37.4825 2159.00
37.5477 2325.00
37.6129 2241.00
37.6781 2131.00
37.7433 1850.00
37.8085 1660.00
37.8736 1511.00
37.9388 1310.00
38.004 1258.00
38.0692 1204.00
38.1344 1110.00
38.1996 1063.00
38.2648 1056.00
38.33 972.00
38.3952 1031.00
38.4604 946.00
38.5256 827.00
38.5908 728.00
38.656 701.00
38.7212 654.00
38.7864 602.00
38.8516 608.00
38.9168 606.00
38.982 607.00
39.0472 568.00
39.1124 615.00
39.1776 632.00
39.2428 593.00
39.308 640.00
39.3732 671.00
39.4384 686.00
39.5036 766.00
39.5688 802.00
39.634 833.00
39.6992 829.00
39.7644 784.00
39.8296 866.00
39.8948 680.00
39.96 643.00
40.0252 649.00
40.0904 617.00
40.1556 632.00
40.2208 630.00
40.286 592.00
40.3512 620.00
40.4164 589.00
40.4816 611.00
40.5468 591.00
40.612 577.00
40.6772 603.00
40.7424 575.00
40.8076 569.00
40.8728 586.00
40.938 608.00
41.0032 635.00
41.0684 646.00
41.1336 767.00
41.1988 856.00
41.264 832.00
41.3292 840.00
41.3944 792.00
41.4596 761.00
41.5248 771.00
41.59 658.00
41.6552 709.00
41.7204 663.00
41.7856 704.00
41.8508 658.00
41.916 688.00
41.9812 787.00
42.0464 726.00
42.1116 667.00
42.1768 671.00
42.242 640.00
42.3072 626.00
42.3724 611.00
42.4376 601.00
42.5028 605.00
42.568 585.00
42.6332 656.00
42.6983 717.00
42.7635 836.00
42.8287 901.00
42.8939 962.00
42.9591 913.00
43.0243 839.00
43.0895 810.00
43.1547 797.00
43.2199 799.00
43.2851 833.00
43.3503 760.00
43.4155 935.00
43.4807 937.00
43.5459 904.00
43.6111 885.00
43.6763 875.00
43.7415 872.00
43.8067 866.00
43.8719 777.00
43.9371 736.00
44.0023 731.00
44.0675 707.00
44.1327 628.00
44.1979 643.00
44.2631 686.00
44.3283 635.00
44.3935 618.00
44.4587 630.00
44.5239 625.00
44.5891 572.00
44.6543 581.00
44.7195 656.00
44.7847 627.00
44.8499 778.00
44.9151 816.00
44.9803 909.00
45.0455 1013.00
45.1107 1111.00
45.1759 1027.00
45.2411 996.00
45.3063 1001.00
45.3715 907.00
45.4367 905.00
45.5019 842.00
45.5671 873.00
45.6323 711.00
45.6975 712.00
45.7627 725.00
45.8279 689.00
45.8931 683.00
45.9583 630.00
46.0235 677.00
46.0887 718.00
46.1539 726.00
46.2191 702.00
46.2843 715.00
46.3495 684.00
46.4147 675.00
46.4799 676.00
46.5451 712.00
46.6103 753.00
46.6755 827.00
46.7407 1029.00
46.8059 1051.00
46.8711 1117.00
46.9363 1173.00
47.0015 1171.00
47.0667 1068.00
47.1319 1002.00
47.1971 991.00
47.2623 777.00
47.3275 790.00
47.3927 772.00
47.4579 800.00
47.523 772.00
47.5882 694.00
47.6534 725.00
47.7186 679.00
47.7838 706.00
47.849 677.00
47.9142 726.00
47.9794 753.00
48.0446 801.00
48.1098 834.00
48.175 1000.00
48.2402 1165.00
48.3054 1236.00
48.3706 1343.00
48.4358 1408.00
48.501 1426.00
48.5662 1374.00
48.6314 1326.00
48.6966 1167.00
48.7618 1139.00
48.827 1058.00
48.8922 1012.00
48.9574 992.00
49.0226 932.00
49.0878 859.00
49.153 819.00
49.2182 734.00
49.2834 731.00
49.3486 765.00
49.4138 699.00
49.479 719.00
49.5442 685.00
49.6094 688.00
49.6746 703.00
49.7398 693.00
49.805 672.00
49.8702 671.00
49.9354 722.00
50.0006 815.00
50.0658 840.00
50.131 896.00
50.1962 1165.00
50.2614 1278.00
50.3266 1432.00
50.3918 1447.00
50.457 1481.00
50.5222 1443.00
50.5874 1309.00
50.6526 1271.00
50.7178 1185.00
50.783 1046.00
50.8482 1006.00
50.9134 923.00
50.9786 937.00
51.0438 857.00
51.109 846.00
51.1742 901.00
51.2394 797.00
51.3046 820.00
51.3698 814.00
51.435 841.00
51.5002 789.00
51.5654 722.00
51.6306 698.00
51.6958 660.00
51.761 602.00
51.8262 634.00
51.8914 594.00
51.9566 588.00
52.0218 579.00
52.087 564.00
52.1522 588.00
52.2174 606.00
52.2826 523.00
52.3477 509.00
52.4129 529.00
52.4781 536.00
52.5433 497.00
52.6085 505.00
52.6737 506.00
52.7389 499.00
52.8041 511.00
52.8693 544.00
52.9345 636.00
52.9997 654.00
53.0649 735.00
53.1301 827.00
53.1953 1027.00
53.2605 1153.00
53.3257 1207.00
53.3909 1308.00
53.4561 1376.00
53.5213 1313.00
53.5865 1238.00
53.6517 1113.00
53.7169 1079.00
53.7821 1005.00
53.8473 986.00
53.9125 875.00
53.9777 843.00
54.0429 775.00
54.1081 787.00
54.1733 759.00
54.2385 742.00
54.3037 741.00
54.3689 707.00
54.4341 707.00
54.4993 671.00
54.5645 630.00
54.6297 606.00
54.6949 589.00
54.7601 569.00
54.8253 544.00
54.8905 530.00
54.9557 531.00
55.0209 537.00
55.0861 533.00
55.1513 528.00
55.2165 473.00
55.2817 514.00
55.3469 499.00
55.4121 495.00
55.4773 494.00
55.5425 548.00
55.6077 493.00
55.6729 544.00
55.7381 470.00
55.8033 511.00
55.8685 456.00
55.9337 479.00
55.9989 509.00
56.0641 473.00
56.1293 510.00
56.1945 495.00
56.2597 485.00
56.3249 488.00
56.3901 496.00
56.4553 503.00
56.5205 554.00
56.5857 595.00
56.6509 676.00
56.7161 676.00
56.7813 683.00
56.8465 745.00
56.9117 773.00
56.9769 700.00
57.042 730.00
57.1073 676.00
57.1724 659.00
57.2376 646.00
57.3028 623.00
57.368 620.00
57.4332 579.00
57.4984 610.00
57.5636 654.00
57.6288 616.00
57.694 612.00
57.7592 653.00
57.8244 760.00
57.8896 723.00
57.9548 778.00
58.02 859.00
58.0852 1008.00
58.1504 1006.00
58.2156 1127.00
58.2808 1123.00
58.346 1151.00
58.4112 1194.00
58.4764 1267.00
58.5416 1347.00
58.6068 1290.00
58.672 1377.00
58.7372 1381.00
58.8024 1338.00
58.8676 1258.00
58.9328 1229.00
58.998 1216.00
59.0632 1177.00
59.1284 1093.00
59.1936 1000.00
59.2588 967.00
59.324 922.00
59.3892 833.00
59.4544 811.00
59.5196 808.00
59.5848 810.00
59.65 827.00
59.7152 783.00
59.7804 868.00
59.8456 837.00
59.9108 812.00
59.976 836.00
60.0412 801.00
60.1064 816.00
60.1716 767.00
60.2368 692.00
60.302 692.00
60.3672 662.00
60.4324 616.00
60.4976 635.00
60.5628 582.00
60.628 564.00
60.6932 530.00
60.7584 523.00
60.8236 532.00
60.8888 531.00
60.954 514.00
61.0192 538.00
61.0844 523.00
61.1496 559.00
61.2148 584.00
61.28 555.00
61.3452 600.00
61.4104 591.00
61.4756 596.00
61.5408 556.00
61.606 567.00
61.6712 562.00
61.7364 528.00
61.8016 526.00
61.8667 603.00
61.932 599.00
61.9971 619.00
62.0623 582.00
62.1275 636.00
62.1927 627.00
62.2579 687.00
62.3231 757.00
62.3883 738.00
62.4535 836.00
62.5187 936.00
62.5839 950.00
62.6491 965.00
62.7143 906.00
62.7795 928.00
62.8447 866.00
62.9099 838.00
62.9751 741.00
63.0403 704.00
63.1055 717.00
63.1707 719.00
63.2359 691.00
63.3011 697.00
63.3663 671.00
63.4315 672.00
63.4967 693.00
63.5619 751.00
63.6271 730.00
63.6923 722.00
63.7575 693.00
63.8227 724.00
63.8879 746.00
63.9531 828.00
64.0183 870.00
64.0835 955.00
64.1487 1125.00
64.2139 1086.00
64.2791 1173.00
64.3443 1289.00
64.4095 1226.00
64.4747 1273.00
64.5399 1241.00
64.6051 1129.00
64.6703 1088.00
64.7355 1003.00
64.8007 1005.00
64.8659 893.00
64.9311 822.00
64.9963 811.00
65.0615 760.00
65.1267 713.00
65.1919 750.00
65.2571 685.00
65.3223 721.00
65.3875 691.00
65.4527 701.00
65.5179 641.00
65.5831 680.00
65.6483 661.00
65.7135 633.00
65.7787 642.00
65.8439 657.00
65.9091 628.00
65.9743 624.00
66.0395 647.00
66.1047 643.00
66.1699 642.00
66.2351 688.00
66.3003 651.00
66.3655 670.00
66.4307 666.00
66.4959 599.00
66.561 595.00
66.6263 638.00
66.6915 661.00
66.7566 710.00
66.8218 765.00
66.887 780.00
66.9522 808.00
67.0174 839.00
67.0826 872.00
67.1478 883.00
67.213 873.00
67.2782 921.00
67.3434 951.00
67.4086 911.00
67.4738 833.00
67.539 844.00
67.6042 803.00
67.6694 746.00
67.7346 723.00
67.7998 756.00
67.865 685.00
67.9302 688.00
67.9954 680.00
68.0606 656.00
68.1258 690.00
68.191 706.00
68.2562 662.00
68.3214 777.00
68.3866 719.00
68.4518 755.00
68.517 777.00
68.5822 808.00
68.6474 795.00
68.7126 801.00
68.7778 791.00
68.843 754.00
68.9082 723.00
68.9734 725.00
69.0386 667.00
69.1038 624.00
69.169 641.00
69.2342 643.00
69.2994 598.00
69.3646 573.00
69.4298 526.00
69.495 565.00
69.5602 570.00
69.6254 529.00
69.6906 511.00
69.7558 523.00
69.821 469.00
69.8862 492.00
69.9514 493.00
70.0166 442.00
70.0818 464.00
70.147 461.00
70.2122 488.00
70.2774 446.00
70.3426 518.00
70.4078 455.00
70.473 475.00
70.5382 531.00
70.6034 540.00
70.6686 548.00
70.7338 527.00
70.799 531.00
70.8642 598.00
70.9294 636.00
70.9946 605.00
71.0598 665.00
71.125 636.00
71.1902 674.00
71.2554 616.00
71.3205 642.00
71.3858 597.00
71.451 580.00
71.5162 573.00
71.5813 545.00
71.6465 579.00
71.7117 538.00
71.7769 547.00
71.8421 565.00
71.9073 551.00
71.9725 494.00
72.0377 478.00
72.1029 519.00
72.1681 535.00
72.2333 507.00
72.2985 469.00
72.3637 484.00
72.4289 517.00
72.4941 538.00
72.5593 510.00
72.6245 504.00
72.6897 493.00
72.7549 518.00
72.8201 508.00
72.8853 532.00
72.9505 512.00
73.0157 519.00
73.0809 492.00
73.1461 517.00
73.2113 537.00
73.2765 466.00
73.3417 473.00
73.4069 510.00
73.4721 453.00
73.5373 479.00
73.6025 472.00
73.6677 450.00
73.7329 416.00
73.7981 423.00
73.8633 432.00
73.9285 460.00
73.9937 490.00
74.0589 486.00
74.1241 459.00
74.1893 447.00
74.2545 452.00
74.3197 419.00
74.3849 434.00
74.4501 439.00
74.5153 417.00
74.5805 438.00
74.6457 464.00
74.7109 467.00
74.7761 500.00
74.8413 464.00
74.9065 514.00
74.9717 517.00
75.0369 499.00
75.1021 525.00
75.1673 555.00
75.2325 569.00
75.2977 548.00
75.3629 585.00
75.4281 545.00
75.4933 599.00
75.5585 605.00
75.6237 554.00
75.6889 595.00
75.7541 536.00
75.8193 505.00
75.8845 501.00
75.9497 518.00
76.0149 514.00
76.0801 466.00
76.1452 520.00
76.2104 478.00
76.2756 530.00
76.3409 562.00
76.406 525.00
76.4712 581.00
76.5364 548.00
76.6016 595.00
76.6668 534.00
76.732 610.00
76.7972 619.00
76.8624 546.00
76.9276 633.00
76.9928 560.00
77.058 560.00
77.1232 593.00
77.1884 621.00
77.2536 602.00
77.3188 550.00
77.384 593.00
77.4492 571.00
77.5144 587.00
77.5796 579.00
77.6448 541.00
77.71 570.00
77.7752 587.00
77.8404 542.00
77.9056 576.00
77.9708 555.00
78.036 520.00
78.1012 535.00
78.1664 521.00
78.2316 494.00
78.2968 453.00
78.362 480.00
78.4272 477.00
78.4924 489.00
78.5576 474.00
78.6228 478.00
78.688 454.00
78.7532 454.00
78.8184 475.00
78.8836 421.00
78.9488 456.00
79.014 487.00
79.0792 475.00
79.1444 500.00
79.2096 515.00
79.2748 513.00
79.34 520.00
79.4052 517.00
79.4704 538.00
79.5356 537.00
79.6008 549.00
79.666 485.00
79.7312 540.00
79.7964 565.00
79.8616 542.00
79.9268 551.00
79.992 539.00
80.0572 504.00
80.1224 503.00
80.1876 514.00
80.2528 516.00
80.318 499.00
80.3832 501.00
80.4484 532.00
80.5136 470.00
80.5788 453.00
80.644 478.00
80.7092 461.00
80.7744 507.00
80.8396 507.00
80.9048 436.00
80.9699 480.00
81.0351 440.00
81.1003 498.00
81.1655 485.00
81.2307 511.00
81.2959 447.00
81.3611 466.00
81.4263 488.00
81.4915 501.00
81.5567 444.00
81.6219 478.00
81.6871 454.00
81.7523 459.00
81.8175 459.00
81.8827 446.00
81.9479 471.00
82.0131 471.00
82.0783 406.00
82.1435 467.00
82.2087 447.00
82.2739 497.00
82.3391 440.00
82.4043 458.00
82.4695 419.00
82.5347 438.00
82.5999 450.00
82.6651 490.00
82.7303 510.00
82.7955 471.00
82.8607 502.00
82.9259 497.00
82.9911 494.00
83.0563 562.00
83.1215 511.00
83.1867 547.00
83.2519 518.00
83.3171 554.00
83.3823 532.00
83.4475 547.00
83.5127 566.00
83.5779 546.00
83.6431 524.00
83.7083 565.00
83.7735 540.00
83.8387 497.00
83.9039 501.00
83.9691 493.00
84.0343 550.00
84.0995 553.00
84.1647 522.00
84.2299 513.00
84.2951 532.00
84.3603 578.00
84.4255 564.00
84.4907 562.00
84.5559 565.00
84.6211 605.00
84.6863 599.00
84.7515 625.00
84.8167 601.00
84.8819 571.00
84.9471 594.00
85.0123 574.00
85.0775 572.00
85.1427 540.00
85.2079 548.00
85.2731 558.00
85.3383 461.00
85.4035 500.00
85.4687 481.00
85.5339 469.00
85.5991 486.00
85.6643 498.00
85.7295 451.00
85.7946 497.00
85.8598 450.00
85.925 450.00
85.9903 450.00
86.0554 447.00
86.1206 450.00
86.1858 441.00
86.251 435.00
86.3162 423.00
86.3814 431.00
86.4466 422.00
86.5118 398.00
86.577 406.00
86.6422 477.00
86.7074 468.00
86.7726 379.00
86.8378 406.00
86.903 441.00
86.9682 419.00
87.0334 394.00
87.0986 407.00
87.1638 390.00
87.229 433.00
87.2942 430.00
87.3594 403.00
87.4246 413.00
87.4898 421.00
87.555 432.00
87.6202 413.00
87.6854 389.00
87.7506 433.00
87.8158 432.00
87.881 442.00
87.9462 465.00
88.0114 426.00
88.0766 456.00
88.1418 444.00
88.207 446.00
88.2722 467.00
88.3374 483.00
88.4026 513.00
88.4678 539.00
88.533 512.00
88.5982 548.00
88.6634 595.00
88.7286 539.00
88.7938 520.00
88.859 576.00
88.9242 560.00
88.9894 595.00
89.0546 525.00
89.1198 560.00
89.185 580.00
89.2502 548.00
89.3154 628.00
89.3806 607.00
89.4458 591.00
89.511 592.00
89.5762 608.00
89.6414 575.00
89.7066 578.00
89.7718 620.00
89.837 578.00
89.9022 613.00
89.9674 582.00
90.0326 574.00
90.0978 633.00
90.163 597.00
90.2282 582.00
90.2934 555.00
90.3586 530.00
90.4238 552.00
90.489 506.00
90.5542 520.00
90.6193 549.00
90.6845 541.00
90.7497 515.00
90.8149 541.00
90.8801 503.00
90.9453 539.00
91.0105 462.00
91.0757 521.00
91.1409 510.00
91.2061 509.00
91.2713 497.00
91.3365 504.00
91.4017 476.00
91.4669 488.00
91.5321 476.00
91.5973 453.00
91.6625 485.00
91.7277 459.00
91.7929 436.00
91.8581 417.00
91.9233 455.00
91.9885 438.00
92.0537 473.00
92.1189 482.00
92.1841 458.00
92.2493 463.00
92.3145 479.00
92.3797 481.00
92.4449 498.00
92.5101 458.00
92.5753 482.00
92.6405 486.00
92.7057 493.00
92.7709 502.00
92.8361 492.00
92.9013 504.00
92.9665 501.00
93.0317 493.00
93.0969 506.00
93.1621 491.00
93.2273 478.00
93.2925 469.00
93.3577 506.00
93.4229 441.00
93.4881 461.00
93.5533 517.00
93.6185 420.00
93.6837 480.00
93.7489 469.00
93.8141 463.00
93.8793 467.00
93.9445 472.00
94.0097 408.00
94.0749 495.00
94.1401 468.00
94.2053 457.00
94.2705 508.00
94.3357 499.00
94.4009 469.00
94.4661 459.00
94.5313 506.00
94.5965 529.00
94.6617 532.00
94.7269 498.00
94.7921 551.00
94.8573 562.00
94.9225 538.00
94.9877 549.00
95.0529 542.00
95.1181 543.00
95.1833 535.00
95.2485 520.00
95.3137 529.00
95.3789 474.00
95.444 534.00
95.5092 545.00
95.5744 467.00
95.6396 494.00
95.7048 527.00
95.77 479.00
95.8352 507.00
95.9004 451.00
95.9656 503.00
96.0308 509.00
96.096 520.00
96.1612 556.00
96.2264 527.00
96.2916 532.00
96.3568 575.00
96.422 549.00
96.4872 486.00
96.5524 539.00
96.6176 475.00
96.6828 479.00
96.748 527.00
96.8132 524.00
96.8784 483.00
96.9436 490.00
97.0088 512.00
97.074 507.00
97.1392 527.00
97.2044 516.00
97.2696 520.00
97.3348 538.00
97.4 542.00
97.4652 507.00
97.5304 528.00
97.5956 535.00
97.6608 456.00
97.726 534.00
97.7912 545.00
97.8564 517.00
97.9216 498.00
97.9868 479.00
98.052 436.00
98.1172 522.00
98.1824 467.00
98.2476 477.00
98.3128 487.00
98.378 472.00
98.4432 459.00
98.5084 481.00
98.5736 486.00
98.6388 487.00
98.704 485.00
98.7692 466.00
98.8344 412.00
98.8996 484.00
98.9648 468.00
99.03 465.00
99.0952 475.00
99.1604 486.00
99.2256 469.00
99.2908 486.00
99.356 500.00
99.4212 481.00
99.4864 508.00
99.5516 471.00
99.6168 544.00
99.682 493.00
99.7472 476.00
99.8124 508.00
99.8776 538.00
99.9428 543.00
100.008 501.00
100.073 536.00
100.095 553.00