File: data/xrd_creation/results/NSC_48.xy
9.903433 3011.00
9.968632 2956.00
10.0338 2850.00
10.099 2779.00
10.1642 2824.00
10.2294 2704.00
10.2946 2884.00
10.3598 2888.00
10.425 2800.00
10.4902 2782.00
10.5554 2716.00
10.6206 2802.00
10.6858 2819.00
10.751 2569.00
10.8162 2588.00
10.8814 2672.00
10.9466 2655.00
11.0118 2582.00
11.077 2574.00
11.1422 2655.00
11.2074 2552.00
11.2726 2550.00
11.3378 2497.00
11.403 2484.00
11.4682 2528.00
11.5334 2388.00
11.5986 2561.00
11.6638 2437.00
11.729 2430.00
11.7942 2546.00
11.8594 2447.00
11.9246 2374.00
11.9898 2394.00
12.055 2339.00
12.1202 2390.00
12.1854 2348.00
12.2506 2362.00
12.3158 2254.00
12.381 2258.00
12.4462 2271.00
12.5114 2246.00
12.5766 2219.00
12.6418 2200.00
12.707 2329.00
12.7722 2449.00
12.8374 2404.00
12.9026 2415.00
12.9678 2347.00
13.033 2183.00
13.0982 2225.00
13.1634 2162.00
13.2286 2178.00
13.2938 2129.00
13.359 2104.00
13.4242 2158.00
13.4894 2094.00
13.5546 2234.00
13.6198 2182.00
13.685 2115.00
13.7502 2235.00
13.8154 1992.00
13.8805 2129.00
13.9457 2108.00
14.0109 2011.00
14.0761 1961.00
14.1413 2081.00
14.2065 2107.00
14.2717 2138.00
14.3369 2127.00
14.4021 2190.00
14.4673 2259.00
14.5325 2425.00
14.5977 2622.00
14.6629 2909.00
14.7281 2905.00
14.7933 3322.00
14.8585 3822.00
14.9237 3824.00
14.9889 2780.00
15.0541 2126.00
15.1193 2117.00
15.1845 2040.00
15.2497 2029.00
15.3149 2000.00
15.3801 1991.00
15.4453 1989.00
15.5105 2005.00
15.5757 1993.00
15.6409 1972.00
15.7061 1870.00
15.7713 1970.00
15.8365 1880.00
15.9017 1876.00
15.9669 1891.00
16.0321 1882.00
16.0973 1877.00
16.1625 1926.00
16.2277 1950.00
16.2929 1954.00
16.3581 1978.00
16.4233 2013.00
16.4885 2002.00
16.5537 2062.00
16.6189 2067.00
16.6841 1983.00
16.7493 1906.00
16.8145 1853.00
16.8797 1843.00
16.9449 1964.00
17.0101 1945.00
17.0753 2084.00
17.1405 2139.00
17.2057 2009.00
17.2709 1984.00
17.3361 1823.00
17.4013 1887.00
17.4665 1732.00
17.5317 1755.00
17.5969 1774.00
17.6621 1833.00
17.7273 1814.00
17.7925 1854.00
17.8577 1844.00
17.9229 1785.00
17.9881 1797.00
18.0533 1858.00
18.1185 1882.00
18.1837 1767.00
18.2489 1818.00
18.3141 1712.00
18.3793 1728.00
18.4445 1745.00
18.5097 1667.00
18.5749 1719.00
18.6401 1707.00
18.7052 1638.00
18.7704 1710.00
18.8356 1679.00
18.9008 1725.00
18.966 1608.00
19.0312 1710.00
19.0964 1672.00
19.1616 1691.00
19.2268 1603.00
19.292 1717.00
19.3572 1708.00
19.4224 1654.00
19.4876 1786.00
19.5528 1731.00
19.618 1662.00
19.6832 1682.00
19.7484 1692.00
19.8136 1656.00
19.8788 1668.00
19.944 1649.00
20.0092 1633.00
20.0744 1660.00
20.1396 1653.00
20.2048 1660.00
20.27 1674.00
20.3352 1644.00
20.4004 1606.00
20.4656 1573.00
20.5308 1618.00
20.596 1666.00
20.6612 1650.00
20.7264 1763.00
20.7916 1826.00
20.8568 2152.00
20.922 2335.00
20.9872 2676.00
21.0524 2962.00
21.1176 2451.00
21.1828 1794.00
21.248 1632.00
21.3132 1662.00
21.3784 1725.00
21.4436 1830.00
21.5088 1932.00
21.574 2199.00
21.6392 2338.00
21.7044 2782.00
21.7696 3713.00
21.8348 3942.00
21.9 2597.00
21.9652 1923.00
22.0304 1766.00
22.0956 1730.00
22.1608 1619.00
22.226 1554.00
22.2912 1636.00
22.3564 1698.00
22.4216 2048.00
22.4868 2606.00
22.552 3582.00
22.6172 4759.00
22.6824 5194.00
22.7476 3862.00
22.8128 2248.00
22.878 1687.00
22.9432 1632.00
23.0084 1525.00
23.0736 1575.00
23.1388 1667.00
23.204 1783.00
23.2692 1909.00
23.3344 2059.00
23.3996 2111.00
23.4647 2065.00
23.5299 1764.00
23.5951 1486.00
23.6603 1437.00
23.7255 1411.00
23.7907 1424.00
23.8559 1431.00
23.9211 1364.00
23.9863 1469.00
24.0515 1540.00
24.1167 1472.00
24.1819 1721.00
24.2471 1990.00
24.3123 2134.00
24.3775 2008.00
24.4427 1631.00
24.5079 1492.00
24.5731 1385.00
24.6383 1310.00
24.7035 1296.00
24.7687 1374.00
24.8339 1346.00
24.8991 1564.00
24.9643 1517.00
25.0295 1422.00
25.0947 1361.00
25.1599 1342.00
25.2251 1267.00
25.2903 1255.00
25.3555 1305.00
25.4207 1322.00
25.4859 1410.00
25.5511 1289.00
25.6163 1273.00
25.6815 1358.00
25.7467 1360.00
25.8119 1379.00
25.8771 1308.00
25.9423 1207.00
26.0075 1252.00
26.0727 1293.00
26.1379 1235.00
26.2031 1380.00
26.2683 1351.00
26.3335 1358.00
26.3987 1488.00
26.4639 1529.00
26.5291 1365.00
26.5943 1269.00
26.6595 1165.00
26.7247 1171.00
26.7899 1241.00
26.8551 1224.00
26.9203 1177.00
26.9855 1201.00
27.0507 1198.00
27.1159 1218.00
27.1811 1144.00
27.2463 1208.00
27.3115 1248.00
27.3767 1357.00
27.4419 1426.00
27.5071 1556.00
27.5723 1658.00
27.6375 1641.00
27.7027 1508.00
27.7679 1527.00
27.8331 1474.00
27.8983 1470.00
27.9635 1275.00
28.0287 1209.00
28.0939 1227.00
28.1591 1204.00
28.2243 1217.00
28.2894 1252.00
28.3546 1296.00
28.4198 1406.00
28.485 1273.00
28.5502 1218.00
28.6154 1234.00
28.6806 1210.00
28.7458 1274.00
28.811 1094.00
28.8762 1102.00
28.9414 1192.00
29.0066 1168.00
29.0718 1252.00
29.137 1136.00
29.2022 1150.00
29.2674 1190.00
29.3326 1138.00
29.3978 1188.00
29.463 1204.00
29.5282 1288.00
29.5934 1351.00
29.6586 1318.00
29.7238 1374.00
29.789 1404.00
29.8542 1350.00
29.9194 1503.00
29.9846 1740.00
30.0498 1755.00
30.115 1691.00
30.1802 1530.00
30.2454 1590.00
30.3106 1668.00
30.3758 1627.00
30.441 1647.00
30.5062 1701.00
30.5714 1792.00
30.6366 2278.00
30.7018 3789.00
30.767 7634.00
30.8322 16202.00
30.8974 22993.00
30.9626 15174.00
31.0278 6494.00
31.093 2616.00
31.1582 1971.00
31.2234 1705.00
31.2886 1649.00
31.3538 1542.00
31.419 1462.00
31.4842 1411.00
31.5494 1403.00
31.6146 1320.00
31.6798 1330.00
31.745 1261.00
31.8102 1209.00
31.8754 1228.00
31.9406 1252.00
32.0058 1259.00
32.071 1305.00
32.1362 1519.00
32.2014 1739.00
32.2666 1845.00
32.3318 1672.00
32.397 1637.00
32.4622 1343.00
32.5274 1302.00
32.5926 1248.00
32.6578 1259.00
32.723 1254.00
32.7882 1192.00
32.8534 1132.00
32.9186 1240.00
32.9838 1362.00
33.0489 1674.00
33.1141 2054.00
33.1793 2244.00
33.2445 2452.00
33.3097 2572.00
33.3749 2320.00
33.4401 1851.00
33.5053 1428.00
33.5705 1277.00
33.6357 1173.00
33.7009 1242.00
33.7661 1248.00
33.8313 1214.00
33.8965 1177.00
33.9617 1211.00
34.0269 1296.00
34.0921 1418.00
34.1573 1684.00
34.2225 2273.00
34.2877 3466.00
34.3529 4502.00
34.4181 5866.00
34.4833 6487.00
34.5485 4748.00
34.6137 2958.00
34.6789 1778.00
34.7441 1539.00
34.8093 1528.00
34.8745 1377.00
34.9397 1215.00
35.0049 1234.00
35.0701 1196.00
35.1353 1345.00
35.2005 1304.00
35.2657 1285.00
35.3309 1212.00
35.3961 1333.00
35.4613 1446.00
35.5265 1658.00
35.5917 2046.00
35.6569 3376.00
35.7221 6252.00
35.7873 6888.00
35.8525 4876.00
35.9177 2451.00
35.9829 1424.00
36.0481 1178.00
36.1133 1168.00
36.1785 1106.00
36.2437 1059.00
36.3089 979.00
36.3741 967.00
36.4393 946.00
36.5045 944.00
36.5697 930.00
36.6349 970.00
36.7001 963.00
36.7653 909.00
36.8305 900.00
36.8957 931.00
36.9609 919.00
37.0261 937.00
37.0913 939.00
37.1565 960.00
37.2217 1004.00
37.2869 1045.00
37.3521 1192.00
37.4173 1166.00
37.4825 1290.00
37.5477 1353.00
37.6129 1344.00
37.6781 1336.00
37.7433 1313.00
37.8085 1224.00
37.8736 1301.00
37.9388 1826.00
38.004 1983.00
38.0692 1665.00
38.1344 1227.00
38.1996 987.00
38.2648 919.00
38.33 867.00
38.3952 941.00
38.4604 930.00
38.5256 939.00
38.5908 896.00
38.656 1051.00
38.7212 1123.00
38.7864 1145.00
38.8516 960.00
38.9168 980.00
38.982 918.00
39.0472 989.00
39.1124 1010.00
39.1776 1003.00
39.2428 1082.00
39.308 1034.00
39.3732 961.00
39.4384 1010.00
39.5036 990.00
39.5688 905.00
39.634 919.00
39.6992 868.00
39.7644 860.00
39.8296 848.00
39.8948 843.00
39.96 911.00
40.0252 945.00
40.0904 1155.00
40.1556 1063.00
40.2208 1035.00
40.286 865.00
40.3512 787.00
40.4164 832.00
40.4816 826.00
40.5468 794.00
40.612 861.00
40.6772 807.00
40.7424 805.00
40.8076 870.00
40.8728 855.00
40.938 895.00
41.0032 869.00
41.0684 881.00
41.1336 847.00
41.1988 909.00
41.264 932.00
41.3292 1106.00
41.3944 1030.00
41.4596 1080.00
41.5248 1005.00
41.59 984.00
41.6552 954.00
41.7204 892.00
41.7856 894.00
41.8508 886.00
41.916 905.00
41.9812 963.00
42.0464 1308.00
42.1116 1711.00
42.1768 1735.00
42.242 1506.00
42.3072 1423.00
42.3724 1273.00
42.4376 1174.00
42.5028 1039.00
42.568 861.00
42.6332 828.00
42.6983 882.00
42.7635 818.00
42.8287 840.00
42.8939 836.00
42.9591 859.00
43.0243 783.00
43.0895 835.00
43.1547 795.00
43.2199 852.00
43.2851 874.00
43.3503 937.00
43.4155 910.00
43.4807 938.00
43.5459 960.00
43.6111 934.00
43.6763 906.00
43.7415 852.00
43.8067 895.00
43.8719 850.00
43.9371 900.00
44.0023 887.00
44.0675 979.00
44.1327 1033.00
44.1979 984.00
44.2631 794.00
44.3283 796.00
44.3935 767.00
44.4587 740.00
44.5239 735.00
44.5891 764.00
44.6543 830.00
44.7195 751.00
44.7847 877.00
44.8499 889.00
44.9151 982.00
44.9803 1115.00
45.0455 1104.00
45.1107 1135.00
45.1759 1057.00
45.2411 979.00
45.3063 778.00
45.3715 743.00
45.4367 750.00
45.5019 799.00
45.5671 838.00
45.6323 794.00
45.6975 825.00
45.7627 889.00
45.8279 1038.00
45.8931 1534.00
45.9583 2341.00
46.0235 2075.00
46.0887 1841.00
46.1539 1253.00
46.2191 911.00
46.2843 903.00
46.3495 772.00
46.4147 759.00
46.4799 703.00
46.5451 682.00
46.6103 737.00
46.6755 686.00
46.7407 657.00
46.8059 762.00
46.8711 776.00
46.9363 801.00
47.0015 772.00
47.0667 776.00
47.1319 784.00
47.1971 848.00
47.2623 831.00
47.3275 942.00
47.3927 836.00
47.4579 834.00
47.523 806.00
47.5882 708.00
47.6534 708.00
47.7186 684.00
47.7838 762.00
47.849 696.00
47.9142 748.00
47.9794 706.00
48.0446 735.00
48.1098 767.00
48.175 801.00
48.2402 902.00
48.3054 964.00
48.3706 992.00
48.4358 1017.00
48.501 1029.00
48.5662 1017.00
48.6314 879.00
48.6966 936.00
48.7618 882.00
48.827 853.00
48.8922 813.00
48.9574 845.00
49.0226 826.00
49.0878 833.00
49.153 844.00
49.2182 922.00
49.2834 1142.00
49.3486 1346.00
49.4138 1555.00
49.479 1598.00
49.5442 1663.00
49.6094 1535.00
49.6746 1184.00
49.7398 1021.00
49.805 878.00
49.8702 803.00
49.9354 759.00
50.0006 745.00
50.0658 771.00
50.131 676.00
50.1962 741.00
50.2614 731.00
50.3266 695.00
50.3918 657.00
50.457 715.00
50.5222 681.00
50.5874 741.00
50.6526 712.00
50.7178 757.00
50.783 773.00
50.8482 827.00
50.9134 845.00
50.9786 1000.00
51.0438 1063.00
51.109 1407.00
51.1742 2476.00
51.2394 5076.00
51.3046 7106.00
51.3698 5556.00
51.435 4816.00
51.5002 2982.00
51.5654 1865.00
51.6306 1461.00
51.6958 1282.00
51.761 1159.00
51.8262 955.00
51.8914 848.00
51.9566 771.00
52.0218 773.00
52.087 708.00
52.1522 701.00
52.2174 682.00
52.2826 693.00
52.3477 628.00
52.4129 670.00
52.4781 650.00
52.5433 726.00
52.6085 650.00
52.6737 693.00
52.7389 674.00
52.8041 668.00
52.8693 779.00
52.9345 911.00
52.9997 1066.00
53.0649 1012.00
53.1301 924.00
53.1953 844.00
53.2605 813.00
53.3257 778.00
53.3909 708.00
53.4561 739.00
53.5213 678.00
53.5865 691.00
53.6517 665.00
53.7169 690.00
53.7821 651.00
53.8473 645.00
53.9125 658.00
53.9777 639.00
54.0429 666.00
54.1081 665.00
54.1733 683.00
54.2385 684.00
54.3037 692.00
54.3689 739.00
54.4341 775.00
54.4993 810.00
54.5645 811.00
54.6297 837.00
54.6949 841.00
54.7601 822.00
54.8253 729.00
54.8905 735.00
54.9557 687.00
55.0209 665.00
55.0861 644.00
55.1513 630.00
55.2165 657.00
55.2817 676.00
55.3469 658.00
55.4121 636.00
55.4773 685.00
55.5425 695.00
55.6077 747.00
55.6729 806.00
55.7381 772.00
55.8033 797.00
55.8685 779.00
55.9337 833.00
55.9989 796.00
56.0641 867.00
56.1293 1021.00
56.1945 1310.00
56.2597 1572.00
56.3249 1299.00
56.3901 1239.00
56.4553 996.00
56.5205 893.00
56.5857 755.00
56.6509 753.00
56.7161 757.00
56.7813 687.00
56.8465 675.00
56.9117 631.00
56.9769 689.00
57.042 618.00
57.1073 649.00
57.1724 709.00
57.2376 654.00
57.3028 697.00
57.368 782.00
57.4332 765.00
57.4984 782.00
57.5636 866.00
57.6288 951.00
57.694 1081.00
57.7592 1119.00
57.8244 1179.00
57.8896 1081.00
57.9548 957.00
58.02 836.00
58.0852 789.00
58.1504 694.00
58.2156 710.00
58.2808 646.00
58.346 662.00
58.4112 722.00
58.4764 680.00
58.5416 649.00
58.6068 641.00
58.672 672.00
58.7372 767.00
58.8024 750.00
58.8676 693.00
58.9328 676.00
58.998 710.00
59.0632 679.00
59.1284 736.00
59.1936 704.00
59.2588 805.00
59.324 1074.00
59.3892 1349.00
59.4544 1244.00
59.5196 1138.00
59.5848 1073.00
59.65 883.00
59.7152 793.00
59.7804 734.00
59.8456 712.00
59.9108 684.00
59.976 691.00
60.0412 697.00
60.1064 721.00
60.1716 718.00
60.2368 680.00
60.302 744.00
60.3672 754.00
60.4324 813.00
60.4976 807.00
60.5628 914.00
60.628 889.00
60.6932 1142.00
60.7584 1415.00
60.8236 2362.00
60.8888 4308.00
60.954 4808.00
61.0192 3746.00
61.0844 3384.00
61.1496 2472.00
61.2148 1682.00
61.28 1412.00
61.3452 1333.00
61.4104 1412.00
61.4756 1353.00
61.5408 1287.00
61.606 1094.00
61.6712 997.00
61.7364 749.00
61.8016 681.00
61.8667 657.00
61.932 642.00
61.9971 654.00
62.0623 675.00
62.1275 725.00
62.1927 718.00
62.2579 711.00
62.3231 978.00
62.3883 1202.00
62.4535 1461.00
62.5187 1220.00
62.5839 1200.00
62.6491 1003.00
62.7143 778.00
62.7795 666.00
62.8447 695.00
62.9099 598.00
62.9751 642.00
63.0403 607.00
63.1055 642.00
63.1707 641.00
63.2359 630.00
63.3011 645.00
63.3663 641.00
63.4315 642.00
63.4967 656.00
63.5619 608.00
63.6271 591.00
63.6923 650.00
63.7575 708.00
63.8227 913.00
63.8879 1172.00
63.9531 1265.00
64.0183 1159.00
64.0835 1000.00
64.1487 932.00
64.2139 787.00
64.2791 680.00
64.3443 658.00
64.4095 618.00
64.4747 590.00
64.5399 639.00
64.6051 619.00
64.6703 656.00
64.7355 585.00
64.8007 606.00
64.8659 593.00
64.9311 549.00
64.9963 578.00
65.0615 560.00
65.1267 601.00
65.1919 594.00
65.2571 588.00
65.3223 741.00
65.3875 797.00
65.4527 799.00
65.5179 816.00
65.5831 800.00
65.6483 674.00
65.7135 664.00
65.7787 696.00
65.8439 727.00
65.9091 705.00
65.9743 645.00
66.0395 717.00
66.1047 674.00
66.1699 695.00
66.2351 693.00
66.3003 678.00
66.3655 683.00
66.4307 652.00
66.4959 597.00
66.561 609.00
66.6263 585.00
66.6915 581.00
66.7566 641.00
66.8218 762.00
66.887 684.00
66.9522 691.00
67.0174 706.00
67.0826 618.00
67.1478 633.00
67.213 572.00
67.2782 573.00
67.3434 608.00
67.4086 575.00
67.4738 576.00
67.539 605.00
67.6042 633.00
67.6694 600.00
67.7346 608.00
67.7998 636.00
67.865 626.00
67.9302 610.00
67.9954 635.00
68.0606 654.00
68.1258 560.00
68.191 805.00
68.2562 923.00
68.3214 960.00
68.3866 858.00
68.4518 816.00
68.517 824.00
68.5822 734.00
68.6474 687.00
68.7126 629.00
68.7778 647.00
68.843 649.00
68.9082 609.00
68.9734 655.00
69.0386 625.00
69.1038 531.00
69.169 609.00
69.2342 527.00
69.2994 529.00
69.3646 496.00
69.4298 490.00
69.495 506.00
69.5602 571.00
69.6254 610.00
69.6906 723.00
69.7558 687.00
69.821 612.00
69.8862 643.00
69.9514 595.00
70.0166 573.00
70.0818 538.00
70.147 517.00
70.2122 517.00
70.2774 525.00
70.3426 507.00
70.4078 513.00
70.473 485.00
70.5382 463.00
70.6034 460.00
70.6686 514.00
70.7338 465.00
70.799 489.00
70.8642 496.00
70.9294 521.00
70.9946 538.00
71.0598 614.00
71.125 510.00
71.1902 629.00
71.2554 616.00
71.3205 637.00
71.3858 599.00
71.451 569.00
71.5162 587.00
71.5813 636.00
71.6465 620.00
71.7117 579.00
71.7769 585.00
71.8421 553.00
71.9073 550.00
71.9725 533.00
72.0377 565.00
72.1029 595.00
72.1681 654.00
72.2333 674.00
72.2985 684.00
72.3637 669.00
72.4289 592.00
72.4941 573.00
72.5593 535.00
72.6245 520.00
72.6897 544.00
72.7549 476.00
72.8201 494.00
72.8853 458.00
72.9505 549.00
73.0157 533.00
73.0809 470.00
73.1461 476.00
73.2113 471.00
73.2765 512.00
73.3417 458.00
73.4069 533.00
73.4721 496.00
73.5373 494.00
73.6025 504.00
73.6677 480.00
73.7329 496.00
73.7981 625.00
73.8633 757.00
73.9285 806.00
73.9937 734.00
74.0589 677.00
74.1241 673.00
74.1893 597.00
74.2545 561.00
74.3197 512.00
74.3849 530.00
74.4501 547.00
74.5153 496.00
74.5805 512.00
74.6457 489.00
74.7109 464.00
74.7761 446.00
74.8413 519.00
74.9065 475.00
74.9717 489.00
75.0369 513.00
75.1021 565.00
75.1673 643.00
75.2325 927.00
75.2977 947.00
75.3629 840.00
75.4281 762.00
75.4933 715.00
75.5585 646.00
75.6237 629.00
75.6889 491.00
75.7541 528.00
75.8193 485.00
75.8845 466.00
75.9497 462.00
76.0149 462.00
76.0801 507.00
76.1452 527.00
76.2104 510.00
76.2756 536.00
76.3409 551.00
76.406 496.00
76.4712 591.00
76.5364 683.00
76.6016 858.00
76.6668 923.00
76.732 846.00
76.7972 760.00
76.8624 677.00
76.9276 688.00
76.9928 559.00
77.058 558.00
77.1232 536.00
77.1884 489.00
77.2536 530.00
77.3188 521.00
77.384 491.00
77.4492 524.00
77.5144 483.00
77.5796 521.00
77.6448 457.00
77.71 493.00
77.7752 458.00
77.8404 550.00
77.9056 541.00
77.9708 715.00
78.036 747.00
78.1012 655.00
78.1664 605.00
78.2316 583.00
78.2968 579.00
78.362 487.00
78.4272 515.00
78.4924 446.00
78.5576 449.00
78.6228 440.00
78.688 455.00
78.7532 524.00
78.8184 486.00
78.8836 426.00
78.9488 486.00
79.014 464.00
79.0792 490.00
79.1444 521.00
79.2096 539.00
79.2748 629.00
79.34 691.00
79.4052 680.00
79.4704 635.00
79.5356 611.00
79.6008 632.00
79.666 577.00
79.7312 548.00
79.7964 514.00
79.8616 475.00
79.9268 468.00
79.992 475.00
80.0572 471.00
80.1224 504.00
80.1876 481.00
80.2528 442.00
80.318 455.00
80.3832 456.00
80.4484 432.00
80.5136 464.00
80.5788 497.00
80.644 577.00
80.7092 568.00
80.7744 583.00
80.8396 532.00
80.9048 508.00
80.9699 508.00
81.0351 509.00
81.1003 499.00
81.1655 467.00
81.2307 487.00
81.2959 491.00
81.3611 505.00
81.4263 505.00
81.4915 495.00
81.5567 520.00
81.6219 549.00
81.6871 534.00
81.7523 560.00
81.8175 550.00
81.8827 602.00
81.9479 720.00
82.0131 835.00
82.0783 837.00
82.1435 770.00
82.2087 704.00
82.2739 806.00
82.3391 771.00
82.4043 669.00
82.4695 657.00
82.5347 570.00
82.5999 499.00
82.6651 548.00
82.7303 519.00
82.7955 482.00
82.8607 502.00
82.9259 483.00
82.9911 480.00
83.0563 494.00
83.1215 515.00
83.1867 548.00
83.2519 739.00
83.3171 989.00
83.3823 1216.00
83.4475 1153.00
83.5127 968.00
83.5779 903.00
83.6431 912.00
83.7083 860.00
83.7735 688.00
83.8387 589.00
83.9039 546.00
83.9691 530.00
84.0343 493.00
84.0995 462.00
84.1647 497.00
84.2299 538.00
84.2951 487.00
84.3603 480.00
84.4255 383.00
84.4907 445.00
84.5559 476.00
84.6211 448.00
84.6863 440.00
84.7515 474.00
84.8167 482.00
84.8819 413.00
84.9471 424.00
85.0123 469.00
85.0775 423.00
85.1427 495.00
85.2079 441.00
85.2731 508.00
85.3383 495.00
85.4035 489.00
85.4687 508.00
85.5339 474.00
85.5991 522.00
85.6643 511.00
85.7295 489.00
85.7946 529.00
85.8598 618.00
85.925 690.00
85.9903 820.00
86.0554 1048.00
86.1206 936.00
86.1858 810.00
86.251 852.00
86.3162 789.00
86.3814 710.00
86.4466 645.00
86.5118 600.00
86.577 557.00
86.6422 539.00
86.7074 566.00
86.7726 478.00
86.8378 494.00
86.903 474.00
86.9682 423.00
87.0334 460.00
87.0986 447.00
87.1638 487.00
87.229 457.00
87.2942 506.00
87.3594 567.00
87.4246 570.00
87.4898 526.00
87.555 478.00
87.6202 509.00
87.6854 502.00
87.7506 462.00
87.8158 426.00
87.881 449.00
87.9462 414.00
88.0114 467.00
88.0766 487.00
88.1418 483.00
88.207 427.00
88.2722 446.00
88.3374 485.00
88.4026 464.00
88.4678 463.00
88.533 514.00
88.5982 514.00
88.6634 534.00
88.7286 596.00
88.7938 567.00
88.859 490.00
88.9242 551.00
88.9894 481.00
89.0546 473.00
89.1198 459.00
89.185 467.00
89.2502 460.00
89.3154 401.00
89.3806 442.00
89.4458 458.00
89.511 420.00
89.5762 452.00
89.6414 456.00
89.7066 448.00
89.7718 485.00
89.837 497.00
89.9022 509.00
89.9674 623.00
90.0326 663.00
90.0978 628.00
90.163 605.00
90.2282 599.00
90.2934 591.00
90.3586 529.00
90.4238 541.00
90.489 459.00
90.5542 429.00
90.6193 450.00
90.6845 375.00
90.7497 422.00
90.8149 414.00
90.8801 434.00
90.9453 439.00
91.0105 443.00
91.0757 459.00
91.1409 460.00
91.2061 455.00
91.2713 449.00
91.3365 472.00
91.4017 476.00
91.4669 439.00
91.5321 459.00
91.5973 437.00
91.6625 403.00
91.7277 435.00
91.7929 445.00
91.8581 447.00
91.9233 429.00
91.9885 456.00
92.0537 440.00
92.1189 428.00
92.1841 452.00
92.2493 500.00
92.3145 475.00
92.3797 523.00
92.4449 499.00
92.5101 503.00
92.5753 578.00
92.6405 678.00
92.7057 751.00
92.7709 627.00
92.8361 591.00
92.9013 541.00
92.9665 579.00
93.0317 583.00
93.0969 535.00
93.1621 498.00
93.2273 483.00
93.2925 447.00
93.3577 463.00
93.4229 373.00
93.4881 432.00
93.5533 432.00
93.6185 441.00
93.6837 469.00
93.7489 433.00
93.8141 448.00
93.8793 437.00
93.9445 437.00
94.0097 468.00
94.0749 444.00
94.1401 451.00
94.2053 465.00
94.2705 427.00
94.3357 432.00
94.4009 471.00
94.4661 427.00
94.5313 446.00
94.5965 402.00
94.6617 437.00
94.7269 432.00
94.7921 445.00
94.8573 440.00
94.9225 412.00
94.9877 456.00
95.0529 476.00
95.1181 492.00
95.1833 480.00
95.2485 606.00
95.3137 694.00
95.3789 682.00
95.444 588.00
95.5092 615.00
95.5744 592.00
95.6396 579.00
95.7048 559.00
95.77 544.00
95.8352 506.00
95.9004 488.00
95.9656 493.00
96.0308 468.00
96.096 476.00
96.1612 513.00
96.2264 520.00
96.2916 481.00
96.3568 539.00
96.422 568.00
96.4872 592.00
96.5524 728.00
96.6176 873.00
96.6828 960.00
96.748 886.00
96.8132 794.00
96.8784 714.00
96.9436 722.00
97.0088 684.00
97.074 651.00
97.1392 597.00
97.2044 520.00
97.2696 504.00
97.3348 468.00
97.4 497.00
97.4652 476.00
97.5304 508.00
97.5956 504.00
97.6608 482.00
97.726 453.00
97.7912 488.00
97.8564 504.00
97.9216 599.00
97.9868 725.00
98.052 679.00
98.1172 627.00
98.1824 607.00
98.2476 590.00
98.3128 569.00
98.378 530.00
98.4432 568.00
98.5084 506.00
98.5736 447.00
98.6388 437.00
98.704 471.00
98.7692 477.00
98.8344 427.00
98.8996 430.00
98.9648 430.00
99.03 463.00
99.0952 469.00
99.1604 452.00
99.2256 510.00
99.2908 543.00
99.356 563.00
99.4212 536.00
99.4864 511.00
99.5516 484.00
99.6168 469.00
99.682 514.00
99.7472 503.00
99.8124 460.00
99.8776 470.00
99.9428 445.00
100.008 439.00
100.073 419.00
100.095 439.00