File: data/xrd_creation/results/NSC_215.xy
9.903433 2637.00
9.968632 2673.00
10.0338 2715.00
10.099 2647.00
10.1642 2712.00
10.2294 2623.00
10.2946 2610.00
10.3598 2599.00
10.425 2544.00
10.4902 2569.00
10.5554 2539.00
10.6206 2568.00
10.6858 2483.00
10.751 2486.00
10.8162 2432.00
10.8814 2451.00
10.9466 2359.00
11.0118 2352.00
11.077 2294.00
11.1422 2280.00
11.2074 2254.00
11.2726 2292.00
11.3378 2246.00
11.403 2268.00
11.4682 2147.00
11.5334 2241.00
11.5986 2180.00
11.6638 2157.00
11.729 2177.00
11.7942 2172.00
11.8594 2223.00
11.9246 2149.00
11.9898 2126.00
12.055 2133.00
12.1202 2054.00
12.1854 2049.00
12.2506 2027.00
12.3158 2130.00
12.381 2102.00
12.4462 2018.00
12.5114 1957.00
12.5766 1932.00
12.6418 1929.00
12.707 1963.00
12.7722 1965.00
12.8374 2015.00
12.9026 2091.00
12.9678 1857.00
13.033 1926.00
13.0982 1909.00
13.1634 1928.00
13.2286 1907.00
13.2938 1979.00
13.359 1938.00
13.4242 1927.00
13.4894 2051.00
13.5546 2193.00
13.6198 2461.00
13.685 2562.00
13.7502 2488.00
13.8154 2376.00
13.8805 2063.00
13.9457 1918.00
14.0109 1791.00
14.0761 1822.00
14.1413 1832.00
14.2065 1772.00
14.2717 1775.00
14.3369 1834.00
14.4021 1830.00
14.4673 1935.00
14.5325 1980.00
14.5977 2235.00
14.6629 2410.00
14.7281 2564.00
14.7933 2435.00
14.8585 2090.00
14.9237 1843.00
14.9889 1751.00
15.0541 1773.00
15.1193 1766.00
15.1845 1670.00
15.2497 1707.00
15.3149 1629.00
15.3801 1715.00
15.4453 1674.00
15.5105 1648.00
15.5757 1721.00
15.6409 1627.00
15.7061 1687.00
15.7713 1574.00
15.8365 1698.00
15.9017 1670.00
15.9669 1689.00
16.0321 1655.00
16.0973 1635.00
16.1625 1631.00
16.2277 1691.00
16.2929 1624.00
16.3581 1672.00
16.4233 1523.00
16.4885 1546.00
16.5537 1545.00
16.6189 1508.00
16.6841 1630.00
16.7493 1636.00
16.8145 1529.00
16.8797 1551.00
16.9449 1557.00
17.0101 1585.00
17.0753 1529.00
17.1405 1527.00
17.2057 1564.00
17.2709 1535.00
17.3361 1595.00
17.4013 1566.00
17.4665 1643.00
17.5317 1674.00
17.5969 1630.00
17.6621 1576.00
17.7273 1562.00
17.7925 1561.00
17.8577 1464.00
17.9229 1569.00
17.9881 1516.00
18.0533 1506.00
18.1185 1493.00
18.1837 1522.00
18.2489 1459.00
18.3141 1502.00
18.3793 1506.00
18.4445 1436.00
18.5097 1440.00
18.5749 1579.00
18.6401 1536.00
18.7052 1491.00
18.7704 1562.00
18.8356 1627.00
18.9008 1815.00
18.966 2035.00
19.0312 2571.00
19.0964 3442.00
19.1616 4122.00
19.2268 4158.00
19.292 3868.00
19.3572 3559.00
19.4224 3001.00
19.4876 2887.00
19.5528 3160.00
19.618 3863.00
19.6832 4515.00
19.7484 4219.00
19.8136 3016.00
19.8788 2026.00
19.944 1647.00
20.0092 1581.00
20.0744 1541.00
20.1396 1648.00
20.2048 1675.00
20.27 1737.00
20.3352 1745.00
20.4004 1509.00
20.4656 1504.00
20.5308 1550.00
20.596 1556.00
20.6612 1472.00
20.7264 1589.00
20.7916 1645.00
20.8568 1644.00
20.922 1871.00
20.9872 2256.00
21.0524 2512.00
21.1176 2763.00
21.1828 2718.00
21.248 2972.00
21.3132 3045.00
21.3784 3054.00
21.4436 2545.00
21.5088 2083.00
21.574 1752.00
21.6392 1594.00
21.7044 1425.00
21.7696 1418.00
21.8348 1416.00
21.9 1398.00
21.9652 1534.00
22.0304 1548.00
22.0956 1764.00
22.1608 1880.00
22.226 2344.00
22.2912 2806.00
22.3564 3140.00
22.4216 2940.00
22.4868 2324.00
22.552 1822.00
22.6172 1596.00
22.6824 1564.00
22.7476 1810.00
22.8128 2086.00
22.878 2190.00
22.9432 2096.00
23.0084 1967.00
23.0736 1789.00
23.1388 1535.00
23.204 1420.00
23.2692 1374.00
23.3344 1287.00
23.3996 1331.00
23.4647 1235.00
23.5299 1280.00
23.5951 1340.00
23.6603 1266.00
23.7255 1329.00
23.7907 1373.00
23.8559 1456.00
23.9211 1429.00
23.9863 1480.00
24.0515 1631.00
24.1167 1677.00
24.1819 1694.00
24.2471 1632.00
24.3123 1525.00
24.3775 1461.00
24.4427 1458.00
24.5079 1490.00
24.5731 1542.00
24.6383 1554.00
24.7035 1433.00
24.7687 1300.00
24.8339 1235.00
24.8991 1237.00
24.9643 1227.00
25.0295 1225.00
25.0947 1174.00
25.1599 1151.00
25.2251 1212.00
25.2903 1178.00
25.3555 1235.00
25.4207 1174.00
25.4859 1218.00
25.5511 1265.00
25.6163 1298.00
25.6815 1244.00
25.7467 1415.00
25.8119 1367.00
25.8771 1381.00
25.9423 1293.00
26.0075 1218.00
26.0727 1093.00
26.1379 1096.00
26.2031 1252.00
26.2683 1134.00
26.3335 1271.00
26.3987 1314.00
26.4639 1270.00
26.5291 1226.00
26.5943 1243.00
26.6595 1230.00
26.7247 1219.00
26.7899 1259.00
26.8551 1228.00
26.9203 1243.00
26.9855 1280.00
27.0507 1321.00
27.1159 1240.00
27.1811 1252.00
27.2463 1269.00
27.3115 1437.00
27.3767 1603.00
27.4419 1993.00
27.5071 2376.00
27.5723 2658.00
27.6375 2956.00
27.7027 3257.00
27.7679 2809.00
27.8331 2102.00
27.8983 1806.00
27.9635 1719.00
28.0287 1647.00
28.0939 1880.00
28.1591 2308.00
28.2243 3025.00
28.2894 3602.00
28.3546 3701.00
28.4198 3353.00
28.485 2758.00
28.5502 2143.00
28.6154 1642.00
28.6806 1381.00
28.7458 1219.00
28.811 1214.00
28.8762 1160.00
28.9414 1114.00
29.0066 1087.00
29.0718 1137.00
29.137 1164.00
29.2022 1171.00
29.2674 1100.00
29.3326 1147.00
29.3978 1182.00
29.463 1125.00
29.5282 1100.00
29.5934 1129.00
29.6586 1123.00
29.7238 1128.00
29.789 1098.00
29.8542 1167.00
29.9194 1170.00
29.9846 1094.00
30.0498 1166.00
30.115 1179.00
30.1802 1254.00
30.2454 1343.00
30.3106 1607.00
30.3758 2132.00
30.441 2966.00
30.5062 3706.00
30.5714 4629.00
30.6366 5175.00
30.7018 5418.00
30.767 5225.00
30.8322 4265.00
30.8974 2979.00
30.9626 1942.00
31.0278 1495.00
31.093 1317.00
31.1582 1403.00
31.2234 1346.00
31.2886 1558.00
31.3538 1561.00
31.419 1785.00
31.4842 2232.00
31.5494 2642.00
31.6146 2842.00
31.6798 2889.00
31.745 2461.00
31.8102 2049.00
31.8754 1604.00
31.9406 1376.00
32.0058 1340.00
32.071 1379.00
32.1362 1443.00
32.2014 1339.00
32.2666 1324.00
32.3318 1267.00
32.397 1156.00
32.4622 1196.00
32.5274 1163.00
32.5926 1202.00
32.6578 1249.00
32.723 1414.00
32.7882 1532.00
32.8534 1456.00
32.9186 1631.00
32.9838 1742.00
33.0489 1989.00
33.1141 2271.00
33.1793 2291.00
33.2445 2245.00
33.3097 1988.00
33.3749 1847.00
33.4401 1821.00
33.5053 2001.00
33.5705 1884.00
33.6357 1780.00
33.7009 1591.00
33.7661 1602.00
33.8313 1829.00
33.8965 2254.00
33.9617 2631.00
34.0269 3025.00
34.0921 3077.00
34.1573 3156.00
34.2225 3200.00
34.2877 3471.00
34.3529 3864.00
34.4181 4035.00
34.4833 3550.00
34.5485 2976.00
34.6137 2241.00
34.6789 1855.00
34.7441 1514.00
34.8093 1378.00
34.8745 1180.00
34.9397 1122.00
35.0049 1068.00
35.0701 1097.00
35.1353 1129.00
35.2005 1165.00
35.2657 1182.00
35.3309 1291.00
35.3961 1463.00
35.4613 1609.00
35.5265 1608.00
35.5917 1594.00
35.6569 1416.00
35.7221 1219.00
35.7873 1184.00
35.8525 1211.00
35.9177 1257.00
35.9829 1220.00
36.0481 1389.00
36.1133 1270.00
36.1785 1152.00
36.2437 1111.00
36.3089 1059.00
36.3741 1009.00
36.4393 1016.00
36.5045 1065.00
36.5697 1031.00
36.6349 1146.00
36.7001 1116.00
36.7653 1096.00
36.8305 1131.00
36.8957 1091.00
36.9609 1130.00
37.0261 951.00
37.0913 1049.00
37.1565 960.00
37.2217 906.00
37.2869 989.00
37.3521 916.00
37.4173 918.00
37.4825 857.00
37.5477 932.00
37.6129 883.00
37.6781 810.00
37.7433 910.00
37.8085 825.00
37.8736 893.00
37.9388 880.00
38.004 883.00
38.0692 850.00
38.1344 868.00
38.1996 873.00
38.2648 921.00
38.33 932.00
38.3952 973.00
38.4604 1071.00
38.5256 1003.00
38.5908 1055.00
38.656 1071.00
38.7212 1066.00
38.7864 1195.00
38.8516 1146.00
38.9168 1109.00
38.982 1073.00
39.0472 1057.00
39.1124 1070.00
39.1776 1001.00
39.2428 1011.00
39.308 1069.00
39.3732 985.00
39.4384 1022.00
39.5036 1060.00
39.5688 1028.00
39.634 1205.00
39.6992 1229.00
39.7644 1341.00
39.8296 1323.00
39.8948 1225.00
39.96 1172.00
40.0252 1172.00
40.0904 1128.00
40.1556 1094.00
40.2208 1037.00
40.286 1029.00
40.3512 962.00
40.4164 1003.00
40.4816 1053.00
40.5468 1091.00
40.612 1047.00
40.6772 1160.00
40.7424 1262.00
40.8076 1497.00
40.8728 1622.00
40.938 1880.00
41.0032 1971.00
41.0684 2021.00
41.1336 1800.00
41.1988 1616.00
41.264 1438.00
41.3292 1336.00
41.3944 1325.00
41.4596 1210.00
41.5248 1238.00
41.59 1345.00
41.6552 1466.00
41.7204 1532.00
41.7856 1448.00
41.8508 1372.00
41.916 1290.00
41.9812 1240.00
42.0464 1219.00
42.1116 1150.00
42.1768 1095.00
42.242 1009.00
42.3072 992.00
42.3724 950.00
42.4376 1001.00
42.5028 963.00
42.568 982.00
42.6332 962.00
42.6983 967.00
42.7635 997.00
42.8287 975.00
42.8939 1036.00
42.9591 996.00
43.0243 1057.00
43.0895 1021.00
43.1547 1122.00
43.2199 1153.00
43.2851 1352.00
43.3503 1367.00
43.4155 1336.00
43.4807 1211.00
43.5459 1066.00
43.6111 943.00
43.6763 987.00
43.7415 1037.00
43.8067 1026.00
43.8719 1054.00
43.9371 1101.00
44.0023 1203.00
44.0675 1193.00
44.1327 1190.00
44.1979 1240.00
44.2631 1122.00
44.3283 1180.00
44.3935 1158.00
44.4587 1298.00
44.5239 1417.00
44.5891 1604.00
44.6543 1706.00
44.7195 1762.00
44.7847 1734.00
44.8499 1571.00
44.9151 1430.00
44.9803 1237.00
45.0455 1205.00
45.1107 1195.00
45.1759 1174.00
45.2411 1103.00
45.3063 1118.00
45.3715 1153.00
45.4367 1213.00
45.5019 1396.00
45.5671 1527.00
45.6323 1614.00
45.6975 1549.00
45.7627 1597.00
45.8279 1512.00
45.8931 1451.00
45.9583 1521.00
46.0235 1549.00
46.0887 1440.00
46.1539 1228.00
46.2191 1237.00
46.2843 1159.00
46.3495 1188.00
46.4147 1347.00
46.4799 1553.00
46.5451 1577.00
46.6103 1793.00
46.6755 1964.00
46.7407 1950.00
46.8059 1840.00
46.8711 1916.00
46.9363 1891.00
47.0015 1791.00
47.0667 1635.00
47.1319 1631.00
47.1971 1512.00
47.2623 1393.00
47.3275 1203.00
47.3927 1134.00
47.4579 1057.00
47.523 1003.00
47.5882 1005.00
47.6534 1055.00
47.7186 1021.00
47.7838 1011.00
47.849 970.00
47.9142 969.00
47.9794 1051.00
48.0446 1003.00
48.1098 1070.00
48.175 1073.00
48.2402 1024.00
48.3054 998.00
48.3706 988.00
48.4358 876.00
48.501 909.00
48.5662 939.00
48.6314 928.00
48.6966 893.00
48.7618 898.00
48.827 906.00
48.8922 924.00
48.9574 996.00
49.0226 925.00
49.0878 1033.00
49.153 1114.00
49.2182 1089.00
49.2834 1133.00
49.3486 1242.00
49.4138 1377.00
49.479 1378.00
49.5442 1493.00
49.6094 1361.00
49.6746 1195.00
49.7398 1200.00
49.805 1040.00
49.8702 1056.00
49.9354 1093.00
50.0006 1179.00
50.0658 1420.00
50.131 1678.00
50.1962 1925.00
50.2614 1978.00
50.3266 1995.00
50.3918 2021.00
50.457 2040.00
50.5222 2091.00
50.5874 1944.00
50.6526 1906.00
50.7178 1705.00
50.783 1631.00
50.8482 1532.00
50.9134 1364.00
50.9786 1308.00
51.0438 1190.00
51.109 1091.00
51.1742 1133.00
51.2394 1100.00
51.3046 1039.00
51.3698 964.00
51.435 977.00
51.5002 1039.00
51.5654 1146.00
51.6306 1066.00
51.6958 1073.00
51.761 1104.00
51.8262 1117.00
51.8914 1093.00
51.9566 1191.00
52.0218 1198.00
52.087 1167.00
52.1522 1112.00
52.2174 1162.00
52.2826 1092.00
52.3477 988.00
52.4129 998.00
52.4781 1067.00
52.5433 1108.00
52.6085 1146.00
52.6737 1172.00
52.7389 1126.00
52.8041 1111.00
52.8693 1110.00
52.9345 1193.00
52.9997 1135.00
53.0649 1119.00
53.1301 1157.00
53.1953 1181.00
53.2605 1383.00
53.3257 1460.00
53.3909 1515.00
53.4561 1622.00
53.5213 1694.00
53.5865 2022.00
53.6517 2104.00
53.7169 2368.00
53.7821 2426.00
53.8473 2300.00
53.9125 1955.00
53.9777 1694.00
54.0429 1444.00
54.1081 1228.00
54.1733 1227.00
54.2385 1251.00
54.3037 1274.00
54.3689 1264.00
54.4341 1253.00
54.4993 1233.00
54.5645 1163.00
54.6297 1150.00
54.6949 1101.00
54.7601 1084.00
54.8253 1167.00
54.8905 1069.00
54.9557 1040.00
55.0209 1070.00
55.0861 1064.00
55.1513 1169.00
55.2165 1065.00
55.2817 1191.00
55.3469 1109.00
55.4121 1174.00
55.4773 1250.00
55.5425 1315.00
55.6077 1375.00
55.6729 1363.00
55.7381 1331.00
55.8033 1353.00
55.8685 1304.00
55.9337 1321.00
55.9989 1201.00
56.0641 1177.00
56.1293 1169.00
56.1945 1179.00
56.2597 1134.00
56.3249 1165.00
56.3901 1199.00
56.4553 1234.00
56.5205 1113.00
56.5857 1031.00
56.6509 1041.00
56.7161 1015.00
56.7813 921.00
56.8465 979.00
56.9117 997.00
56.9769 1013.00
57.042 1065.00
57.1073 1189.00
57.1724 1198.00
57.2376 1268.00
57.3028 1417.00
57.368 1428.00
57.4332 1528.00
57.4984 1606.00
57.5636 1602.00
57.6288 1497.00
57.694 1433.00
57.7592 1265.00
57.8244 1208.00
57.8896 1181.00
57.9548 1137.00
58.02 1195.00
58.0852 1335.00
58.1504 1439.00
58.2156 1445.00
58.2808 1506.00
58.346 1402.00
58.4112 1375.00
58.4764 1330.00
58.5416 1381.00
58.6068 1422.00
58.672 1476.00
58.7372 1493.00
58.8024 1561.00
58.8676 1436.00
58.9328 1367.00
58.998 1439.00
59.0632 1465.00
59.1284 1428.00
59.1936 1496.00
59.2588 1464.00
59.324 1469.00
59.3892 1450.00
59.4544 1441.00
59.5196 1410.00
59.5848 1366.00
59.65 1320.00
59.7152 1211.00
59.7804 1286.00
59.8456 1319.00
59.9108 1340.00
59.976 1380.00
60.0412 1453.00
60.1064 1569.00
60.1716 1551.00
60.2368 1623.00
60.302 1537.00
60.3672 1544.00
60.4324 1472.00
60.4976 1317.00
60.5628 1252.00
60.628 1250.00
60.6932 1231.00
60.7584 1196.00
60.8236 1219.00
60.8888 1173.00
60.954 1178.00
61.0192 1146.00
61.0844 1223.00
61.1496 1274.00
61.2148 1326.00
61.28 1285.00
61.3452 1370.00
61.4104 1406.00
61.4756 1459.00
61.5408 1573.00
61.606 1640.00
61.6712 1595.00
61.7364 1562.00
61.8016 1395.00
61.8667 1324.00
61.932 1330.00
61.9971 1272.00
62.0623 1305.00
62.1275 1358.00
62.1927 1370.00
62.2579 1372.00
62.3231 1166.00
62.3883 1269.00
62.4535 1216.00
62.5187 1194.00
62.5839 1031.00
62.6491 1083.00
62.7143 1117.00
62.7795 1199.00
62.8447 1204.00
62.9099 1069.00
62.9751 1146.00
63.0403 1123.00
63.1055 1168.00
63.1707 1129.00
63.2359 1152.00
63.3011 1086.00
63.3663 1015.00
63.4315 1012.00
63.4967 966.00
63.5619 972.00
63.6271 962.00
63.6923 901.00
63.7575 933.00
63.8227 899.00
63.8879 883.00
63.9531 948.00
64.0183 984.00
64.0835 946.00
64.1487 937.00
64.2139 920.00
64.2791 988.00
64.3443 1036.00
64.4095 1114.00
64.4747 1225.00
64.5399 1082.00
64.6051 1145.00
64.6703 1207.00
64.7355 1133.00
64.8007 1132.00
64.8659 1081.00
64.9311 1205.00
64.9963 1056.00
65.0615 1217.00
65.1267 1292.00
65.1919 1331.00
65.2571 1281.00
65.3223 1342.00
65.3875 1378.00
65.4527 1368.00
65.5179 1271.00
65.5831 1311.00
65.6483 1287.00
65.7135 1298.00
65.7787 1262.00
65.8439 1278.00
65.9091 1299.00
65.9743 1291.00
66.0395 1381.00
66.1047 1339.00
66.1699 1264.00
66.2351 1294.00
66.3003 1139.00
66.3655 1216.00
66.4307 1103.00
66.4959 1131.00
66.561 1102.00
66.6263 1097.00
66.6915 1055.00
66.7566 1036.00
66.8218 1018.00
66.887 1020.00
66.9522 985.00
67.0174 1005.00
67.0826 969.00
67.1478 891.00
67.213 970.00
67.2782 877.00
67.3434 999.00
67.4086 868.00
67.4738 851.00
67.539 924.00
67.6042 950.00
67.6694 885.00
67.7346 909.00
67.7998 836.00
67.865 915.00
67.9302 836.00
67.9954 875.00
68.0606 828.00
68.1258 804.00
68.191 875.00
68.2562 870.00
68.3214 860.00
68.3866 871.00
68.4518 881.00
68.517 891.00
68.5822 979.00
68.6474 939.00
68.7126 1029.00
68.7778 1065.00
68.843 1073.00
68.9082 1006.00
68.9734 1089.00
69.0386 1046.00
69.1038 1087.00
69.169 1092.00
69.2342 1036.00
69.2994 990.00
69.3646 1011.00
69.4298 965.00
69.495 916.00
69.5602 1006.00
69.6254 1040.00
69.6906 977.00
69.7558 983.00
69.821 974.00
69.8862 880.00
69.9514 900.00
70.0166 973.00
70.0818 923.00
70.147 927.00
70.2122 1011.00
70.2774 1020.00
70.3426 1074.00
70.4078 996.00
70.473 960.00
70.5382 1021.00
70.6034 1001.00
70.6686 894.00
70.7338 878.00
70.799 891.00
70.8642 847.00
70.9294 827.00
70.9946 893.00
71.0598 881.00
71.125 876.00
71.1902 957.00
71.2554 966.00
71.3205 974.00
71.3858 1021.00
71.451 1013.00
71.5162 1097.00
71.5813 972.00
71.6465 1057.00
71.7117 1050.00
71.7769 1046.00
71.8421 1021.00
71.9073 1024.00
71.9725 1085.00
72.0377 1080.00
72.1029 1080.00
72.1681 1197.00
72.2333 1172.00
72.2985 1193.00
72.3637 1240.00
72.4289 1213.00
72.4941 1262.00
72.5593 1341.00
72.6245 1303.00
72.6897 1255.00
72.7549 1200.00
72.8201 1195.00
72.8853 1089.00
72.9505 1010.00
73.0157 1127.00
73.0809 1018.00
73.1461 937.00
73.2113 954.00
73.2765 958.00
73.3417 1042.00
73.4069 985.00
73.4721 911.00
73.5373 913.00
73.6025 885.00
73.6677 942.00
73.7329 962.00
73.7981 905.00
73.8633 920.00
73.9285 981.00
73.9937 974.00
74.0589 1021.00
74.1241 1005.00
74.1893 1000.00
74.2545 1017.00
74.3197 1001.00
74.3849 959.00
74.4501 937.00
74.5153 947.00
74.5805 931.00
74.6457 948.00
74.7109 970.00
74.7761 922.00
74.8413 917.00
74.9065 971.00
74.9717 927.00
75.0369 915.00
75.1021 979.00
75.1673 962.00
75.2325 961.00
75.2977 995.00
75.3629 974.00
75.4281 1019.00
75.4933 1026.00
75.5585 1073.00
75.6237 1044.00
75.6889 1081.00
75.7541 1101.00
75.8193 1096.00
75.8845 1093.00
75.9497 1186.00
76.0149 1188.00
76.0801 1104.00
76.1452 1148.00
76.2104 1144.00
76.2756 1026.00
76.3409 1015.00
76.406 996.00
76.4712 985.00
76.5364 1020.00
76.6016 976.00
76.6668 1001.00
76.732 937.00
76.7972 967.00
76.8624 1018.00
76.9276 980.00
76.9928 1022.00
77.058 1000.00
77.1232 928.00
77.1884 954.00
77.2536 958.00
77.3188 872.00
77.384 891.00
77.4492 904.00
77.5144 904.00
77.5796 831.00
77.6448 901.00
77.71 940.00
77.7752 893.00
77.8404 878.00
77.9056 894.00
77.9708 941.00
78.036 986.00
78.1012 929.00
78.1664 947.00
78.2316 902.00
78.2968 863.00
78.362 896.00
78.4272 953.00
78.4924 913.00
78.5576 988.00
78.6228 908.00
78.688 944.00
78.7532 964.00
78.8184 921.00
78.8836 948.00
78.9488 901.00
79.014 950.00
79.0792 991.00
79.1444 960.00
79.2096 952.00
79.2748 1010.00
79.34 1019.00
79.4052 1034.00
79.4704 1023.00
79.5356 1024.00
79.6008 943.00
79.666 1046.00
79.7312 983.00
79.7964 958.00
79.8616 954.00
79.9268 963.00
79.992 934.00
80.0572 939.00
80.1224 864.00
80.1876 876.00
80.2528 939.00
80.318 874.00
80.3832 928.00
80.4484 931.00
80.5136 1052.00
80.5788 1032.00
80.644 995.00
80.7092 1062.00
80.7744 985.00
80.8396 939.00
80.9048 1032.00
80.9699 982.00
81.0351 971.00
81.1003 955.00
81.1655 976.00
81.2307 925.00
81.2959 887.00
81.3611 871.00
81.4263 912.00
81.4915 840.00
81.5567 835.00
81.6219 918.00
81.6871 892.00
81.7523 907.00
81.8175 928.00
81.8827 933.00
81.9479 924.00
82.0131 979.00
82.0783 913.00
82.1435 997.00
82.2087 983.00
82.2739 971.00
82.3391 933.00
82.4043 1008.00
82.4695 1010.00
82.5347 1015.00
82.5999 984.00
82.6651 1028.00
82.7303 1096.00
82.7955 1033.00
82.8607 942.00
82.9259 970.00
82.9911 1049.00
83.0563 974.00
83.1215 956.00
83.1867 1038.00
83.2519 1010.00
83.3171 1065.00
83.3823 969.00
83.4475 979.00
83.5127 947.00
83.5779 965.00
83.6431 925.00
83.7083 989.00
83.7735 1013.00
83.8387 973.00
83.9039 961.00
83.9691 919.00
84.0343 906.00
84.0995 954.00
84.1647 939.00
84.2299 907.00
84.2951 950.00
84.3603 950.00
84.4255 941.00
84.4907 932.00
84.5559 912.00
84.6211 896.00
84.6863 970.00
84.7515 968.00
84.8167 974.00
84.8819 952.00
84.9471 907.00
85.0123 961.00
85.0775 971.00
85.1427 941.00
85.2079 870.00
85.2731 983.00
85.3383 936.00
85.4035 920.00
85.4687 1027.00
85.5339 908.00
85.5991 962.00
85.6643 990.00
85.7295 1047.00
85.7946 897.00
85.8598 931.00
85.925 947.00
85.9903 996.00
86.0554 954.00
86.1206 937.00
86.1858 934.00
86.251 1035.00
86.3162 973.00
86.3814 998.00
86.4466 1014.00
86.5118 1056.00
86.577 1036.00
86.6422 1086.00
86.7074 1021.00
86.7726 1090.00
86.8378 986.00
86.903 1049.00
86.9682 982.00
87.0334 1040.00
87.0986 982.00
87.1638 994.00
87.229 1004.00
87.2942 1068.00
87.3594 953.00
87.4246 1021.00
87.4898 971.00
87.555 985.00
87.6202 981.00
87.6854 948.00
87.7506 975.00
87.8158 984.00
87.881 965.00
87.9462 949.00
88.0114 1002.00
88.0766 961.00
88.1418 920.00
88.207 946.00
88.2722 997.00
88.3374 954.00
88.4026 903.00
88.4678 974.00
88.533 998.00
88.5982 1014.00
88.6634 1012.00
88.7286 1101.00
88.7938 1025.00
88.859 997.00
88.9242 998.00
88.9894 1011.00
89.0546 1106.00
89.1198 1009.00
89.185 1056.00
89.2502 1053.00
89.3154 1000.00
89.3806 1020.00
89.4458 1026.00
89.511 1012.00
89.5762 1004.00
89.6414 1043.00
89.7066 1026.00
89.7718 990.00
89.837 974.00
89.9022 1044.00
89.9674 1046.00
90.0326 1064.00
90.0978 979.00
90.163 1060.00
90.2282 1028.00
90.2934 1012.00
90.3586 1098.00
90.4238 1048.00
90.489 1001.00
90.5542 985.00
90.6193 1034.00
90.6845 1000.00
90.7497 953.00
90.8149 989.00
90.8801 929.00
90.9453 950.00
91.0105 973.00
91.0757 941.00
91.1409 942.00
91.2061 979.00
91.2713 994.00
91.3365 947.00
91.4017 968.00
91.4669 951.00
91.5321 968.00
91.5973 964.00
91.6625 953.00
91.7277 933.00
91.7929 978.00
91.8581 975.00
91.9233 954.00
91.9885 948.00
92.0537 1027.00
92.1189 966.00
92.1841 995.00
92.2493 931.00
92.3145 967.00
92.3797 962.00
92.4449 932.00
92.5101 1054.00
92.5753 1010.00
92.6405 983.00
92.7057 987.00
92.7709 1006.00
92.8361 1047.00
92.9013 1103.00
92.9665 1085.00
93.0317 1047.00
93.0969 985.00
93.1621 1008.00
93.2273 1010.00
93.2925 953.00
93.3577 904.00
93.4229 916.00
93.4881 936.00
93.5533 909.00
93.6185 965.00
93.6837 933.00
93.7489 959.00
93.8141 1016.00
93.8793 972.00
93.9445 980.00
94.0097 1010.00
94.0749 963.00
94.1401 991.00
94.2053 914.00
94.2705 976.00
94.3357 887.00
94.4009 968.00
94.4661 894.00
94.5313 906.00
94.5965 888.00
94.6617 874.00
94.7269 888.00
94.7921 883.00
94.8573 874.00
94.9225 815.00
94.9877 925.00
95.0529 928.00
95.1181 844.00
95.1833 892.00
95.2485 921.00
95.3137 931.00
95.3789 883.00
95.444 947.00
95.5092 932.00
95.5744 949.00
95.6396 938.00
95.7048 989.00
95.77 944.00
95.8352 987.00
95.9004 1030.00
95.9656 977.00
96.0308 1067.00
96.096 1016.00
96.1612 994.00
96.2264 1012.00
96.2916 1018.00
96.3568 985.00
96.422 985.00
96.4872 1050.00
96.5524 1006.00
96.6176 992.00
96.6828 989.00
96.748 1037.00
96.8132 1007.00
96.8784 991.00
96.9436 1033.00
97.0088 996.00
97.074 1050.00
97.1392 1040.00
97.2044 1043.00
97.2696 1097.00
97.3348 1048.00
97.4 1094.00
97.4652 1130.00
97.5304 1010.00
97.5956 1018.00
97.6608 1046.00
97.726 1016.00
97.7912 1038.00
97.8564 1016.00
97.9216 984.00
97.9868 911.00
98.052 875.00
98.1172 969.00
98.1824 944.00
98.2476 1004.00
98.3128 947.00
98.378 980.00
98.4432 1009.00
98.5084 967.00
98.5736 934.00
98.6388 1011.00
98.704 969.00
98.7692 966.00
98.8344 1012.00
98.8996 966.00
98.9648 939.00
99.03 977.00
99.0952 1035.00
99.1604 1046.00
99.2256 1030.00
99.2908 985.00
99.356 1028.00
99.4212 957.00
99.4864 1020.00
99.5516 1025.00
99.6168 1019.00
99.682 1072.00
99.7472 1117.00
99.8124 1168.00
99.8776 1141.00
99.9428 1103.00
100.008 1135.00
100.073 1104.00
100.095 1081.00