File: data/xrd_creation/results/NSC_138.xy
9.903433 2713.00
9.968632 2797.00
10.0338 2707.00
10.099 2620.00
10.1642 2616.00
10.2294 2678.00
10.2946 2622.00
10.3598 2611.00
10.425 2618.00
10.4902 2557.00
10.5554 2600.00
10.6206 2563.00
10.6858 2537.00
10.751 2515.00
10.8162 2481.00
10.8814 2429.00
10.9466 2451.00
11.0118 2472.00
11.077 2446.00
11.1422 2379.00
11.2074 2338.00
11.2726 2327.00
11.3378 2323.00
11.403 2243.00
11.4682 2260.00
11.5334 2166.00
11.5986 2242.00
11.6638 2309.00
11.729 2190.00
11.7942 2210.00
11.8594 2148.00
11.9246 2113.00
11.9898 2212.00
12.055 2161.00
12.1202 2212.00
12.1854 2128.00
12.2506 2147.00
12.3158 2085.00
12.381 2138.00
12.4462 2085.00
12.5114 2102.00
12.5766 2003.00
12.6418 2034.00
12.707 2057.00
12.7722 1995.00
12.8374 2046.00
12.9026 1912.00
12.9678 2065.00
13.033 2055.00
13.0982 1932.00
13.1634 1968.00
13.2286 1933.00
13.2938 1887.00
13.359 1885.00
13.4242 1896.00
13.4894 1794.00
13.5546 1777.00
13.6198 1843.00
13.685 1850.00
13.7502 1804.00
13.8154 1961.00
13.8805 1971.00
13.9457 2059.00
14.0109 2214.00
14.0761 2500.00
14.1413 3094.00
14.2065 3786.00
14.2717 3876.00
14.3369 2171.00
14.4021 1850.00
14.4673 1719.00
14.5325 1737.00
14.5977 1811.00
14.6629 1669.00
14.7281 1765.00
14.7933 1734.00
14.8585 1649.00
14.9237 1664.00
14.9889 1650.00
15.0541 1584.00
15.1193 1633.00
15.1845 1680.00
15.2497 1583.00
15.3149 1657.00
15.3801 1640.00
15.4453 1637.00
15.5105 1614.00
15.5757 1575.00
15.6409 1659.00
15.7061 1635.00
15.7713 1512.00
15.8365 1611.00
15.9017 1578.00
15.9669 1636.00
16.0321 1532.00
16.0973 1553.00
16.1625 1496.00
16.2277 1488.00
16.2929 1528.00
16.3581 1508.00
16.4233 1570.00
16.4885 1525.00
16.5537 1575.00
16.6189 1523.00
16.6841 1560.00
16.7493 1523.00
16.8145 1475.00
16.8797 1477.00
16.9449 1493.00
17.0101 1518.00
17.0753 1460.00
17.1405 1487.00
17.2057 1495.00
17.2709 1533.00
17.3361 1471.00
17.4013 1478.00
17.4665 1405.00
17.5317 1434.00
17.5969 1469.00
17.6621 1454.00
17.7273 1461.00
17.7925 1353.00
17.8577 1412.00
17.9229 1469.00
17.9881 1464.00
18.0533 1461.00
18.1185 1372.00
18.1837 1356.00
18.2489 1358.00
18.3141 1453.00
18.3793 1387.00
18.4445 1278.00
18.5097 1309.00
18.5749 1379.00
18.6401 1431.00
18.7052 1327.00
18.7704 1341.00
18.8356 1369.00
18.9008 1337.00
18.966 1397.00
19.0312 1334.00
19.0964 1313.00
19.1616 1363.00
19.2268 1348.00
19.292 1337.00
19.3572 1402.00
19.4224 1406.00
19.4876 1450.00
19.5528 1424.00
19.618 1562.00
19.6832 1789.00
19.7484 2244.00
19.8136 3385.00
19.8788 5346.00
19.944 7842.00
20.0092 5600.00
20.0744 2645.00
20.1396 2864.00
20.2048 2525.00
20.27 1542.00
20.3352 1269.00
20.4004 1254.00
20.4656 1243.00
20.5308 1251.00
20.596 1296.00
20.6612 1256.00
20.7264 1230.00
20.7916 1249.00
20.8568 1267.00
20.922 1266.00
20.9872 1315.00
21.0524 1395.00
21.1176 1460.00
21.1828 1278.00
21.248 1296.00
21.3132 1201.00
21.3784 1204.00
21.4436 1167.00
21.5088 1126.00
21.574 1208.00
21.6392 1213.00
21.7044 1149.00
21.7696 1110.00
21.8348 1179.00
21.9 1232.00
21.9652 1101.00
22.0304 1147.00
22.0956 1140.00
22.1608 1117.00
22.226 1104.00
22.2912 1209.00
22.3564 1173.00
22.4216 1206.00
22.4868 1191.00
22.552 1138.00
22.6172 1163.00
22.6824 1079.00
22.7476 1187.00
22.8128 1200.00
22.878 1230.00
22.9432 1274.00
23.0084 1220.00
23.0736 1297.00
23.1388 1426.00
23.204 1569.00
23.2692 2047.00
23.3344 3361.00
23.3996 6554.00
23.4647 12640.00
23.5299 19723.00
23.5951 10061.00
23.6603 2417.00
23.7255 1499.00
23.7907 1403.00
23.8559 1294.00
23.9211 1274.00
23.9863 1235.00
24.0515 1395.00
24.1167 1697.00
24.1819 2439.00
24.2471 3735.00
24.3123 4603.00
24.3775 2521.00
24.4427 1339.00
24.5079 1173.00
24.5731 1201.00
24.6383 1189.00
24.7035 1097.00
24.7687 988.00
24.8339 1114.00
24.8991 1038.00
24.9643 992.00
25.0295 935.00
25.0947 1041.00
25.1599 986.00
25.2251 997.00
25.2903 1030.00
25.3555 960.00
25.4207 1043.00
25.4859 996.00
25.5511 1006.00
25.6163 975.00
25.6815 1057.00
25.7467 947.00
25.8119 979.00
25.8771 972.00
25.9423 1027.00
26.0075 874.00
26.0727 880.00
26.1379 986.00
26.2031 913.00
26.2683 925.00
26.3335 971.00
26.3987 974.00
26.4639 1001.00
26.5291 930.00
26.5943 963.00
26.6595 965.00
26.7247 916.00
26.7899 988.00
26.8551 938.00
26.9203 951.00
26.9855 937.00
27.0507 972.00
27.1159 935.00
27.1811 950.00
27.2463 944.00
27.3115 969.00
27.3767 968.00
27.4419 900.00
27.5071 945.00
27.5723 886.00
27.6375 921.00
27.7027 864.00
27.7679 992.00
27.8331 917.00
27.8983 998.00
27.9635 980.00
28.0287 944.00
28.0939 1046.00
28.1591 1209.00
28.2243 1905.00
28.2894 3520.00
28.3546 6357.00
28.4198 4544.00
28.485 1926.00
28.5502 1070.00
28.6154 892.00
28.6806 872.00
28.7458 884.00
28.811 859.00
28.8762 838.00
28.9414 823.00
29.0066 849.00
29.0718 879.00
29.137 842.00
29.2022 802.00
29.2674 786.00
29.3326 858.00
29.3978 781.00
29.463 805.00
29.5282 776.00
29.5934 803.00
29.6586 823.00
29.7238 797.00
29.789 871.00
29.8542 768.00
29.9194 825.00
29.9846 793.00
30.0498 795.00
30.115 867.00
30.1802 880.00
30.2454 830.00
30.3106 918.00
30.3758 848.00
30.441 907.00
30.5062 874.00
30.5714 909.00
30.6366 940.00
30.7018 978.00
30.767 1067.00
30.8322 1048.00
30.8974 1226.00
30.9626 2040.00
31.0278 4347.00
31.093 7536.00
31.1582 4471.00
31.2234 2011.00
31.2886 1257.00
31.3538 1432.00
31.419 2091.00
31.4842 4501.00
31.5494 10996.00
31.6146 20776.00
31.6798 12937.00
31.745 5708.00
31.8102 1800.00
31.8754 1398.00
31.9406 1117.00
32.0058 1031.00
32.071 853.00
32.1362 830.00
32.2014 840.00
32.2666 794.00
32.3318 717.00
32.397 746.00
32.4622 772.00
32.5274 716.00
32.5926 779.00
32.6578 738.00
32.723 765.00
32.7882 763.00
32.8534 745.00
32.9186 663.00
32.9838 701.00
33.0489 647.00
33.1141 712.00
33.1793 682.00
33.2445 664.00
33.3097 671.00
33.3749 639.00
33.4401 721.00
33.5053 643.00
33.5705 625.00
33.6357 658.00
33.7009 704.00
33.7661 641.00
33.8313 675.00
33.8965 758.00
33.9617 703.00
34.0269 700.00
34.0921 663.00
34.1573 746.00
34.2225 695.00
34.2877 711.00
34.3529 736.00
34.4181 893.00
34.4833 984.00
34.5485 1139.00
34.6137 1107.00
34.6789 966.00
34.7441 1046.00
34.8093 1426.00
34.8745 2491.00
34.9397 4745.00
35.0049 9727.00
35.0701 7588.00
35.1353 4671.00
35.2005 1100.00
35.2657 824.00
35.3309 771.00
35.3961 710.00
35.4613 706.00
35.5265 653.00
35.5917 650.00
35.6569 615.00
35.7221 614.00
35.7873 597.00
35.8525 631.00
35.9177 587.00
35.9829 600.00
36.0481 608.00
36.1133 609.00
36.1785 589.00
36.2437 579.00
36.3089 571.00
36.3741 568.00
36.4393 582.00
36.5045 555.00
36.5697 587.00
36.6349 555.00
36.7001 602.00
36.7653 622.00
36.8305 670.00
36.8957 560.00
36.9609 603.00
37.0261 685.00
37.0913 611.00
37.1565 588.00
37.2217 575.00
37.2869 522.00
37.3521 589.00
37.4173 546.00
37.4825 524.00
37.5477 557.00
37.6129 582.00
37.6781 598.00
37.7433 532.00
37.8085 553.00
37.8736 586.00
37.9388 550.00
38.004 554.00
38.0692 564.00
38.1344 585.00
38.1996 574.00
38.2648 522.00
38.33 566.00
38.3952 513.00
38.4604 573.00
38.5256 576.00
38.5908 556.00
38.656 547.00
38.7212 551.00
38.7864 598.00
38.8516 539.00
38.9168 520.00
38.982 537.00
39.0472 530.00
39.1124 567.00
39.1776 530.00
39.2428 521.00
39.308 530.00
39.3732 541.00
39.4384 516.00
39.5036 502.00
39.5688 558.00
39.634 522.00
39.6992 551.00
39.7644 507.00
39.8296 565.00
39.8948 578.00
39.96 576.00
40.0252 608.00
40.0904 794.00
40.1556 1114.00
40.2208 928.00
40.286 777.00
40.3512 559.00
40.4164 544.00
40.4816 567.00
40.5468 773.00
40.612 969.00
40.6772 764.00
40.7424 684.00
40.8076 550.00
40.8728 540.00
40.938 540.00
41.0032 546.00
41.0684 544.00
41.1336 528.00
41.1988 540.00
41.264 571.00
41.3292 543.00
41.3944 525.00
41.4596 510.00
41.5248 533.00
41.59 570.00
41.6552 542.00
41.7204 490.00
41.7856 551.00
41.8508 643.00
41.916 748.00
41.9812 1047.00
42.0464 1066.00
42.1116 1045.00
42.1768 1193.00
42.242 1319.00
42.3072 1129.00
42.3724 1369.00
42.4376 2635.00
42.5028 3670.00
42.568 2445.00
42.6332 1488.00
42.6983 738.00
42.7635 573.00
42.8287 617.00
42.8939 782.00
42.9591 812.00
43.0243 693.00
43.0895 749.00
43.1547 748.00
43.2199 599.00
43.2851 627.00
43.3503 555.00
43.4155 527.00
43.4807 492.00
43.5459 486.00
43.6111 483.00
43.6763 499.00
43.7415 404.00
43.8067 474.00
43.8719 469.00
43.9371 479.00
44.0023 476.00
44.0675 479.00
44.1327 457.00
44.1979 461.00
44.2631 461.00
44.3283 492.00
44.3935 460.00
44.4587 469.00
44.5239 474.00
44.5891 460.00
44.6543 474.00
44.7195 526.00
44.7847 505.00
44.8499 511.00
44.9151 557.00
44.9803 556.00
45.0455 697.00
45.1107 1036.00
45.1759 2194.00
45.2411 2452.00
45.3063 1493.00
45.3715 1220.00
45.4367 1004.00
45.5019 1636.00
45.5671 1061.00
45.6323 1092.00
45.6975 598.00
45.7627 469.00
45.8279 494.00
45.8931 439.00
45.9583 452.00
46.0235 482.00
46.0887 452.00
46.1539 475.00
46.2191 465.00
46.2843 496.00
46.3495 441.00
46.4147 440.00
46.4799 532.00
46.5451 481.00
46.6103 471.00
46.6755 475.00
46.7407 451.00
46.8059 502.00
46.8711 462.00
46.9363 496.00
47.0015 565.00
47.0667 593.00
47.1319 760.00
47.1971 1169.00
47.2623 1243.00
47.3275 1614.00
47.3927 1435.00
47.4579 1138.00
47.523 963.00
47.5882 1195.00
47.6534 2885.00
47.7186 6983.00
47.7838 4594.00
47.849 4210.00
47.9142 2496.00
47.9794 1131.00
48.0446 1000.00
48.1098 710.00
48.175 554.00
48.2402 552.00
48.3054 479.00
48.3706 451.00
48.4358 465.00
48.501 477.00
48.5662 485.00
48.6314 430.00
48.6966 455.00
48.7618 458.00
48.827 469.00
48.8922 483.00
48.9574 531.00
49.0226 513.00
49.0878 514.00
49.153 551.00
49.2182 615.00
49.2834 932.00
49.3486 1599.00
49.4138 1633.00
49.479 1192.00
49.5442 1053.00
49.6094 604.00
49.6746 500.00
49.7398 486.00
49.805 449.00
49.8702 439.00
49.9354 456.00
50.0006 464.00
50.0658 437.00
50.131 424.00
50.1962 401.00
50.2614 391.00
50.3266 393.00
50.3918 469.00
50.457 418.00
50.5222 411.00
50.5874 413.00
50.6526 459.00
50.7178 463.00
50.783 409.00
50.8482 430.00
50.9134 419.00
50.9786 440.00
51.0438 466.00
51.109 428.00
51.1742 470.00
51.2394 437.00
51.3046 468.00
51.3698 485.00
51.435 665.00
51.5002 1194.00
51.5654 2372.00
51.6306 1545.00
51.6958 1713.00
51.761 2270.00
51.8262 3760.00
51.8914 2127.00
51.9566 1949.00
52.0218 1246.00
52.087 600.00
52.1522 487.00
52.2174 461.00
52.2826 433.00
52.3477 416.00
52.4129 374.00
52.4781 409.00
52.5433 400.00
52.6085 406.00
52.6737 418.00
52.7389 515.00
52.8041 589.00
52.8693 586.00
52.9345 520.00
52.9997 495.00
53.0649 453.00
53.1301 428.00
53.1953 455.00
53.2605 379.00
53.3257 421.00
53.3909 429.00
53.4561 382.00
53.5213 378.00
53.5865 401.00
53.6517 382.00
53.7169 462.00
53.7821 407.00
53.8473 493.00
53.9125 427.00
53.9777 472.00
54.0429 503.00
54.1081 700.00
54.1733 937.00
54.2385 630.00
54.3037 856.00
54.3689 1242.00
54.4341 2133.00
54.4993 2771.00
54.5645 2055.00
54.6297 1592.00
54.6949 1120.00
54.7601 503.00
54.8253 480.00
54.8905 411.00
54.9557 388.00
55.0209 421.00
55.0861 394.00
55.1513 372.00
55.2165 366.00
55.2817 354.00
55.3469 382.00
55.4121 403.00
55.4773 390.00
55.5425 393.00
55.6077 394.00
55.6729 416.00
55.7381 373.00
55.8033 414.00
55.8685 682.00
55.9337 1044.00
55.9989 931.00
56.0641 764.00
56.1293 642.00
56.1945 541.00
56.2597 357.00
56.3249 396.00
56.3901 335.00
56.4553 336.00
56.5205 341.00
56.5857 335.00
56.6509 357.00
56.7161 317.00
56.7813 364.00
56.8465 341.00
56.9117 344.00
56.9769 346.00
57.042 340.00
57.1073 382.00
57.1724 296.00
57.2376 371.00
57.3028 335.00
57.368 295.00
57.4332 352.00
57.4984 345.00
57.5636 341.00
57.6288 335.00
57.694 379.00
57.7592 330.00
57.8244 355.00
57.8896 373.00
57.9548 354.00
58.02 362.00
58.0852 342.00
58.1504 374.00
58.2156 475.00
58.2808 503.00
58.346 410.00
58.4112 467.00
58.4764 396.00
58.5416 377.00
58.6068 362.00
58.672 313.00
58.7372 358.00
58.8024 340.00
58.8676 323.00
58.9328 351.00
58.998 348.00
59.0632 364.00
59.1284 371.00
59.1936 385.00
59.2588 339.00
59.324 352.00
59.3892 431.00
59.4544 446.00
59.5196 595.00
59.5848 749.00
59.65 514.00
59.7152 568.00
59.7804 620.00
59.8456 673.00
59.9108 539.00
59.976 889.00
60.0412 1711.00
60.1064 1310.00
60.1716 887.00
60.2368 1256.00
60.302 1345.00
60.3672 2682.00
60.4324 1960.00
60.4976 1302.00
60.5628 1700.00
60.628 705.00
60.6932 497.00
60.7584 401.00
60.8236 400.00
60.8888 377.00
60.954 360.00
61.0192 389.00
61.0844 317.00
61.1496 397.00
61.2148 343.00
61.28 391.00
61.3452 350.00
61.4104 384.00
61.4756 408.00
61.5408 469.00
61.606 510.00
61.6712 688.00
61.7364 1231.00
61.8016 1912.00
61.8667 922.00
61.932 1044.00
61.9971 909.00
62.0623 498.00
62.1275 487.00
62.1927 470.00
62.2579 456.00
62.3231 521.00
62.3883 882.00
62.4535 1249.00
62.5187 1379.00
62.5839 876.00
62.6491 907.00
62.7143 699.00
62.7795 459.00
62.8447 430.00
62.9099 414.00
62.9751 422.00
63.0403 398.00
63.1055 394.00
63.1707 402.00
63.2359 504.00
63.3011 738.00
63.3663 1002.00
63.4315 1020.00
63.4967 1049.00
63.5619 706.00
63.6271 652.00
63.6923 454.00
63.7575 419.00
63.8227 618.00
63.8879 1010.00
63.9531 817.00
64.0183 574.00
64.0835 660.00
64.1487 482.00
64.2139 340.00
64.2791 366.00
64.3443 332.00
64.4095 332.00
64.4747 310.00
64.5399 311.00
64.6051 318.00
64.6703 323.00
64.7355 319.00
64.8007 300.00
64.8659 327.00
64.9311 324.00
64.9963 304.00
65.0615 317.00
65.1267 284.00
65.1919 284.00
65.2571 302.00
65.3223 323.00
65.3875 308.00
65.4527 300.00
65.5179 341.00
65.5831 420.00
65.6483 356.00
65.7135 334.00
65.7787 329.00
65.8439 339.00
65.9091 335.00
65.9743 351.00
66.0395 357.00
66.1047 409.00
66.1699 542.00
66.2351 566.00
66.3003 409.00
66.3655 498.00
66.4307 467.00
66.4959 496.00
66.561 746.00
66.6263 797.00
66.6915 464.00
66.7566 573.00
66.8218 540.00
66.887 395.00
66.9522 384.00
67.0174 360.00
67.0826 434.00
67.1478 652.00
67.213 926.00
67.2782 733.00
67.3434 636.00
67.4086 692.00
67.4738 722.00
67.539 903.00
67.6042 1115.00
67.6694 1650.00
67.7346 896.00
67.7998 713.00
67.865 908.00
67.9302 395.00
67.9954 349.00
68.0606 314.00
68.1258 295.00
68.191 323.00
68.2562 288.00
68.3214 287.00
68.3866 308.00
68.4518 265.00
68.517 287.00
68.5822 287.00
68.6474 288.00
68.7126 323.00
68.7778 382.00
68.843 312.00
68.9082 318.00
68.9734 299.00
69.0386 270.00
69.1038 273.00
69.169 239.00
69.2342 280.00
69.2994 275.00
69.3646 287.00
69.4298 275.00
69.495 299.00
69.5602 310.00
69.6254 325.00
69.6906 332.00
69.7558 467.00
69.821 871.00
69.8862 1321.00
69.9514 599.00
70.0166 590.00
70.0818 839.00
70.147 436.00
70.2122 318.00
70.2774 332.00
70.3426 292.00
70.4078 303.00
70.473 423.00
70.5382 483.00
70.6034 352.00
70.6686 418.00
70.7338 482.00
70.799 359.00
70.8642 313.00
70.9294 342.00
70.9946 425.00
71.0598 620.00
71.125 614.00
71.1902 735.00
71.2554 542.00
71.3205 426.00
71.3858 477.00
71.451 369.00
71.5162 275.00
71.5813 280.00
71.6465 249.00
71.7117 283.00
71.7769 273.00
71.8421 245.00
71.9073 288.00
71.9725 246.00
72.0377 280.00
72.1029 285.00
72.1681 241.00
72.2333 296.00
72.2985 331.00
72.3637 393.00
72.4289 339.00
72.4941 335.00
72.5593 315.00
72.6245 301.00
72.6897 285.00
72.7549 278.00
72.8201 298.00
72.8853 284.00
72.9505 260.00
73.0157 301.00
73.0809 286.00
73.1461 290.00
73.2113 304.00
73.2765 343.00
73.3417 376.00
73.4069 515.00
73.4721 1029.00
73.5373 1687.00
73.6025 753.00
73.6677 603.00
73.7329 965.00
73.7981 588.00
73.8633 331.00
73.9285 303.00
73.9937 300.00
74.0589 294.00
74.1241 288.00
74.1893 307.00
74.2545 278.00
74.3197 397.00
74.3849 480.00
74.4501 438.00
74.5153 417.00
74.5805 656.00
74.6457 910.00
74.7109 430.00
74.7761 422.00
74.8413 578.00
74.9065 372.00
74.9717 286.00
75.0369 288.00
75.1021 272.00
75.1673 328.00
75.2325 364.00
75.2977 438.00
75.3629 322.00
75.4281 303.00
75.4933 343.00
75.5585 298.00
75.6237 241.00
75.6889 270.00
75.7541 281.00
75.8193 338.00
75.8845 417.00
75.9497 335.00
76.0149 284.00
76.0801 301.00
76.1452 313.00
76.2104 258.00
76.2756 240.00
76.3409 232.00
76.406 235.00
76.4712 265.00
76.5364 256.00
76.6016 238.00
76.6668 270.00
76.732 304.00
76.7972 275.00
76.8624 277.00
76.9276 287.00
76.9928 337.00
77.058 327.00
77.1232 326.00
77.1884 347.00
77.2536 430.00
77.3188 545.00
77.384 434.00
77.4492 379.00
77.5144 404.00
77.5796 599.00
77.6448 378.00
77.71 320.00
77.7752 337.00
77.8404 349.00
77.9056 284.00
77.9708 281.00
78.036 235.00
78.1012 267.00
78.1664 282.00
78.2316 279.00
78.2968 419.00
78.362 390.00
78.4272 285.00
78.4924 318.00
78.5576 374.00
78.6228 328.00
78.688 248.00
78.7532 216.00
78.8184 237.00
78.8836 237.00
78.9488 216.00
79.014 205.00
79.0792 229.00
79.1444 207.00
79.2096 244.00
79.2748 242.00
79.34 224.00
79.4052 220.00
79.4704 237.00
79.5356 225.00
79.6008 210.00
79.666 226.00
79.7312 212.00
79.7964 215.00
79.8616 271.00
79.9268 237.00
79.992 228.00
80.0572 231.00
80.1224 220.00
80.1876 216.00
80.2528 220.00
80.318 231.00
80.3832 273.00
80.4484 319.00
80.5136 420.00
80.5788 303.00
80.644 297.00
80.7092 319.00
80.7744 349.00
80.8396 280.00
80.9048 266.00
80.9699 283.00
81.0351 258.00
81.1003 301.00
81.1655 288.00
81.2307 350.00
81.2959 479.00
81.3611 586.00
81.4263 415.00
81.4915 403.00
81.5567 455.00
81.6219 436.00
81.6871 339.00
81.7523 331.00
81.8175 382.00
81.8827 328.00
81.9479 421.00
82.0131 672.00
82.0783 1053.00
82.1435 536.00
82.2087 370.00
82.2739 537.00
82.3391 569.00
82.4043 330.00
82.4695 274.00
82.5347 274.00
82.5999 240.00
82.6651 284.00
82.7303 269.00
82.7955 238.00
82.8607 256.00
82.9259 235.00
82.9911 245.00
83.0563 272.00
83.1215 241.00
83.1867 286.00
83.2519 417.00
83.3171 501.00
83.3823 337.00
83.4475 314.00
83.5127 352.00
83.5779 501.00
83.6431 541.00
83.7083 479.00
83.7735 348.00
83.8387 444.00
83.9039 489.00
83.9691 345.00
84.0343 264.00
84.0995 327.00
84.1647 288.00
84.2299 246.00
84.2951 256.00
84.3603 247.00
84.4255 261.00
84.4907 244.00
84.5559 314.00
84.6211 455.00
84.6863 606.00
84.7515 399.00
84.8167 341.00
84.8819 357.00
84.9471 438.00
85.0123 312.00
85.0775 335.00
85.1427 293.00
85.2079 244.00
85.2731 215.00
85.3383 275.00
85.4035 238.00
85.4687 228.00
85.5339 238.00
85.5991 229.00
85.6643 196.00
85.7295 222.00
85.7946 224.00
85.8598 263.00
85.925 237.00
85.9903 224.00
86.0554 248.00
86.1206 233.00
86.1858 261.00
86.251 286.00
86.3162 216.00
86.3814 243.00
86.4466 268.00
86.5118 228.00
86.577 220.00
86.6422 205.00
86.7074 216.00
86.7726 236.00
86.8378 235.00
86.903 218.00
86.9682 257.00
87.0334 217.00
87.0986 229.00
87.1638 238.00
87.229 213.00
87.2942 260.00
87.3594 280.00
87.4246 270.00
87.4898 322.00
87.555 361.00
87.6202 513.00
87.6854 462.00
87.7506 350.00
87.8158 393.00
87.881 553.00
87.9462 423.00
88.0114 333.00
88.0766 304.00
88.1418 424.00
88.207 430.00
88.2722 373.00
88.3374 337.00
88.4026 490.00
88.4678 510.00
88.533 705.00
88.5982 1095.00
88.6634 735.00
88.7286 436.00
88.7938 441.00
88.859 688.00
88.9242 681.00
88.9894 608.00
89.0546 478.00
89.1198 343.00
89.185 362.00
89.2502 401.00
89.3154 347.00
89.3806 316.00
89.4458 269.00
89.511 302.00
89.5762 358.00
89.6414 405.00
89.7066 319.00
89.7718 266.00
89.837 297.00
89.9022 319.00
89.9674 244.00
90.0326 231.00
90.0978 220.00
90.163 284.00
90.2282 231.00
90.2934 225.00
90.3586 274.00
90.4238 301.00
90.489 283.00
90.5542 291.00
90.6193 286.00
90.6845 321.00
90.7497 281.00
90.8149 247.00
90.8801 277.00
90.9453 261.00
91.0105 327.00
91.0757 289.00
91.1409 270.00
91.2061 330.00
91.2713 377.00
91.3365 315.00
91.4017 279.00
91.4669 310.00
91.5321 389.00
91.5973 419.00
91.6625 308.00
91.7277 274.00
91.7929 273.00
91.8581 350.00
91.9233 382.00
91.9885 407.00
92.0537 310.00
92.1189 300.00
92.1841 395.00
92.2493 528.00
92.3145 484.00
92.3797 395.00
92.4449 310.00
92.5101 300.00
92.5753 354.00
92.6405 323.00
92.7057 277.00
92.7709 250.00
92.8361 243.00
92.9013 247.00
92.9665 232.00
93.0317 236.00
93.0969 244.00
93.1621 237.00
93.2273 216.00
93.2925 264.00
93.3577 261.00
93.4229 319.00
93.4881 498.00
93.5533 374.00
93.6185 280.00
93.6837 274.00
93.7489 322.00
93.8141 357.00
93.8793 329.00
93.9445 293.00
94.0097 390.00
94.0749 519.00
94.1401 440.00
94.2053 301.00
94.2705 335.00
94.3357 379.00
94.4009 432.00
94.4661 342.00
94.5313 282.00
94.5965 237.00
94.6617 265.00
94.7269 263.00
94.7921 265.00
94.8573 328.00
94.9225 456.00
94.9877 587.00
95.0529 355.00
95.1181 361.00
95.1833 370.00
95.2485 514.00
95.3137 632.00
95.3789 519.00
95.444 430.00
95.5092 356.00
95.5744 385.00
95.6396 386.00
95.7048 401.00
95.77 370.00
95.8352 327.00
95.9004 306.00
95.9656 269.00
96.0308 285.00
96.096 283.00
96.1612 248.00
96.2264 260.00
96.2916 262.00
96.3568 274.00
96.422 385.00
96.4872 318.00
96.5524 258.00
96.6176 247.00
96.6828 290.00
96.748 303.00
96.8132 314.00
96.8784 378.00
96.9436 335.00
97.0088 284.00
97.074 302.00
97.1392 313.00
97.2044 439.00
97.2696 499.00
97.3348 351.00
97.4 276.00
97.4652 293.00
97.5304 377.00
97.5956 373.00
97.6608 281.00
97.726 260.00
97.7912 225.00
97.8564 241.00
97.9216 281.00
97.9868 243.00
98.052 241.00
98.1172 249.00
98.1824 259.00
98.2476 279.00
98.3128 292.00
98.378 304.00
98.4432 267.00
98.5084 326.00
98.5736 421.00
98.6388 413.00
98.704 344.00
98.7692 286.00
98.8344 303.00
98.8996 315.00
98.9648 317.00
99.03 275.00
99.0952 279.00
99.1604 267.00
99.2256 231.00
99.2908 232.00
99.356 212.00
99.4212 224.00
99.4864 229.00
99.5516 273.00
99.6168 262.00
99.682 269.00
99.7472 270.00
99.8124 317.00
99.8776 289.00
99.9428 241.00
100.008 214.00
100.073 241.00
100.095 248.00