File: data/xrd_creation/results/NSC_106.xy
9.903433 2690.00
9.968632 2676.00
10.0338 2763.00
10.099 2583.00
10.1642 2682.00
10.2294 2590.00
10.2946 2552.00
10.3598 2545.00
10.425 2529.00
10.4902 2543.00
10.5554 2460.00
10.6206 2447.00
10.6858 2473.00
10.751 2404.00
10.8162 2400.00
10.8814 2342.00
10.9466 2399.00
11.0118 2357.00
11.077 2335.00
11.1422 2363.00
11.2074 2321.00
11.2726 2269.00
11.3378 2237.00
11.403 2236.00
11.4682 2206.00
11.5334 2314.00
11.5986 2188.00
11.6638 2182.00
11.729 2164.00
11.7942 2131.00
11.8594 2088.00
11.9246 2075.00
11.9898 2082.00
12.055 2100.00
12.1202 2054.00
12.1854 2094.00
12.2506 1988.00
12.3158 2008.00
12.381 1987.00
12.4462 2001.00
12.5114 1989.00
12.5766 1927.00
12.6418 1902.00
12.707 1950.00
12.7722 1924.00
12.8374 1911.00
12.9026 1882.00
12.9678 1795.00
13.033 1911.00
13.0982 1828.00
13.1634 1907.00
13.2286 1871.00
13.2938 1807.00
13.359 1825.00
13.4242 1798.00
13.4894 1778.00
13.5546 1838.00
13.6198 1751.00
13.685 1790.00
13.7502 1699.00
13.8154 1818.00
13.8805 1789.00
13.9457 1810.00
14.0109 1790.00
14.0761 1881.00
14.1413 2002.00
14.2065 2099.00
14.2717 2395.00
14.3369 2332.00
14.4021 2348.00
14.4673 2406.00
14.5325 2210.00
14.5977 2269.00
14.6629 2274.00
14.7281 1845.00
14.7933 1705.00
14.8585 1709.00
14.9237 1671.00
14.9889 1622.00
15.0541 1564.00
15.1193 1612.00
15.1845 1617.00
15.2497 1598.00
15.3149 1619.00
15.3801 1663.00
15.4453 1578.00
15.5105 1613.00
15.5757 1594.00
15.6409 1578.00
15.7061 1624.00
15.7713 1592.00
15.8365 1545.00
15.9017 1518.00
15.9669 1559.00
16.0321 1584.00
16.0973 1455.00
16.1625 1557.00
16.2277 1512.00
16.2929 1475.00
16.3581 1538.00
16.4233 1563.00
16.4885 1481.00
16.5537 1471.00
16.6189 1434.00
16.6841 1518.00
16.7493 1450.00
16.8145 1452.00
16.8797 1501.00
16.9449 1525.00
17.0101 1459.00
17.0753 1478.00
17.1405 1470.00
17.2057 1450.00
17.2709 1485.00
17.3361 1421.00
17.4013 1427.00
17.4665 1503.00
17.5317 1423.00
17.5969 1402.00
17.6621 1385.00
17.7273 1385.00
17.7925 1336.00
17.8577 1378.00
17.9229 1406.00
17.9881 1382.00
18.0533 1393.00
18.1185 1349.00
18.1837 1386.00
18.2489 1475.00
18.3141 1301.00
18.3793 1367.00
18.4445 1346.00
18.5097 1354.00
18.5749 1399.00
18.6401 1288.00
18.7052 1312.00
18.7704 1315.00
18.8356 1334.00
18.9008 1305.00
18.966 1389.00
19.0312 1276.00
19.0964 1303.00
19.1616 1341.00
19.2268 1359.00
19.292 1341.00
19.3572 1356.00
19.4224 1397.00
19.4876 1449.00
19.5528 1523.00
19.618 1826.00
19.6832 2369.00
19.7484 3093.00
19.8136 3650.00
19.8788 3933.00
19.944 3878.00
20.0092 3738.00
20.0744 3789.00
20.1396 3698.00
20.2048 2374.00
20.27 1678.00
20.3352 1587.00
20.4004 1485.00
20.4656 1524.00
20.5308 1557.00
20.596 1719.00
20.6612 2181.00
20.7264 2842.00
20.7916 3696.00
20.8568 4308.00
20.922 4444.00
20.9872 4393.00
21.0524 4304.00
21.1176 4489.00
21.1828 3751.00
21.248 2230.00
21.3132 1565.00
21.3784 1339.00
21.4436 1376.00
21.5088 1316.00
21.574 1278.00
21.6392 1300.00
21.7044 1195.00
21.7696 1261.00
21.8348 1195.00
21.9 1203.00
21.9652 1172.00
22.0304 1165.00
22.0956 1132.00
22.1608 1074.00
22.226 1084.00
22.2912 1188.00
22.3564 1123.00
22.4216 1152.00
22.4868 1038.00
22.552 1123.00
22.6172 1080.00
22.6824 1093.00
22.7476 1040.00
22.8128 1093.00
22.878 1100.00
22.9432 1110.00
23.0084 1102.00
23.0736 1182.00
23.1388 1088.00
23.204 1222.00
23.2692 1119.00
23.3344 1210.00
23.3996 1139.00
23.4647 1095.00
23.5299 1172.00
23.5951 1176.00
23.6603 1174.00
23.7255 1230.00
23.7907 1380.00
23.8559 1718.00
23.9211 2168.00
23.9863 2636.00
24.0515 2879.00
24.1167 2957.00
24.1819 3001.00
24.2471 2951.00
24.3123 2942.00
24.3775 2167.00
24.4427 1313.00
24.5079 1199.00
24.5731 1067.00
24.6383 1038.00
24.7035 1071.00
24.7687 1063.00
24.8339 1015.00
24.8991 1000.00
24.9643 955.00
25.0295 972.00
25.0947 925.00
25.1599 962.00
25.2251 963.00
25.2903 908.00
25.3555 897.00
25.4207 924.00
25.4859 941.00
25.5511 941.00
25.6163 894.00
25.6815 921.00
25.7467 898.00
25.8119 961.00
25.8771 915.00
25.9423 889.00
26.0075 897.00
26.0727 890.00
26.1379 939.00
26.2031 909.00
26.2683 955.00
26.3335 1021.00
26.3987 1085.00
26.4639 1189.00
26.5291 1396.00
26.5943 1611.00
26.6595 1651.00
26.7247 1633.00
26.7899 1647.00
26.8551 1719.00
26.9203 1460.00
26.9855 1148.00
27.0507 985.00
27.1159 855.00
27.1811 890.00
27.2463 933.00
27.3115 833.00
27.3767 820.00
27.4419 868.00
27.5071 835.00
27.5723 852.00
27.6375 856.00
27.7027 877.00
27.7679 828.00
27.8331 849.00
27.8983 831.00
27.9635 849.00
28.0287 869.00
28.0939 782.00
28.1591 867.00
28.2243 846.00
28.2894 845.00
28.3546 851.00
28.4198 873.00
28.485 853.00
28.5502 851.00
28.6154 921.00
28.6806 999.00
28.7458 1170.00
28.811 1456.00
28.8762 1929.00
28.9414 2517.00
29.0066 2691.00
29.0718 2783.00
29.137 3027.00
29.2022 3140.00
29.2674 2476.00
29.3326 1594.00
29.3978 1030.00
29.463 911.00
29.5282 880.00
29.5934 877.00
29.6586 796.00
29.7238 825.00
29.789 791.00
29.8542 842.00
29.9194 800.00
29.9846 749.00
30.0498 799.00
30.115 730.00
30.1802 769.00
30.2454 773.00
30.3106 727.00
30.3758 770.00
30.441 770.00
30.5062 755.00
30.5714 738.00
30.6366 731.00
30.7018 783.00
30.767 727.00
30.8322 748.00
30.8974 717.00
30.9626 745.00
31.0278 780.00
31.093 796.00
31.1582 765.00
31.2234 804.00
31.2886 880.00
31.3538 812.00
31.419 822.00
31.4842 932.00
31.5494 1128.00
31.6146 1467.00
31.6798 2175.00
31.745 2989.00
31.8102 3685.00
31.8754 4036.00
31.9406 4322.00
32.0058 4573.00
32.071 4252.00
32.1362 2639.00
32.2014 1595.00
32.2666 1101.00
32.3318 1121.00
32.397 1091.00
32.4622 1086.00
32.5274 1112.00
32.5926 1058.00
32.6578 1068.00
32.723 894.00
32.7882 796.00
32.8534 714.00
32.9186 741.00
32.9838 728.00
33.0489 655.00
33.1141 723.00
33.1793 650.00
33.2445 762.00
33.3097 690.00
33.3749 654.00
33.4401 702.00
33.5053 665.00
33.5705 741.00
33.6357 697.00
33.7009 761.00
33.7661 931.00
33.8313 1058.00
33.8965 1287.00
33.9617 1332.00
34.0269 1454.00
34.0921 1590.00
34.1573 1587.00
34.2225 1262.00
34.2877 1013.00
34.3529 946.00
34.4181 808.00
34.4833 746.00
34.5485 685.00
34.6137 696.00
34.6789 676.00
34.7441 640.00
34.8093 638.00
34.8745 608.00
34.9397 626.00
35.0049 671.00
35.0701 660.00
35.1353 673.00
35.2005 586.00
35.2657 687.00
35.3309 611.00
35.3961 680.00
35.4613 625.00
35.5265 620.00
35.5917 734.00
35.6569 716.00
35.7221 706.00
35.7873 839.00
35.8525 1073.00
35.9177 1255.00
35.9829 1583.00
36.0481 1683.00
36.1133 1860.00
36.1785 2037.00
36.2437 1865.00
36.3089 1455.00
36.3741 1178.00
36.4393 1245.00
36.5045 1552.00
36.5697 1874.00
36.6349 2159.00
36.7001 2336.00
36.7653 2417.00
36.8305 2426.00
36.8957 1816.00
36.9609 1184.00
37.0261 826.00
37.0913 739.00
37.1565 633.00
37.2217 647.00
37.2869 627.00
37.3521 637.00
37.4173 596.00
37.4825 641.00
37.5477 584.00
37.6129 616.00
37.6781 588.00
37.7433 606.00
37.8085 599.00
37.8736 668.00
37.9388 726.00
38.004 677.00
38.0692 792.00
38.1344 761.00
38.1996 788.00
38.2648 783.00
38.33 686.00
38.3952 613.00
38.4604 567.00
38.5256 699.00
38.5908 647.00
38.656 661.00
38.7212 648.00
38.7864 664.00
38.8516 685.00
38.9168 597.00
38.982 549.00
39.0472 615.00
39.1124 606.00
39.1776 593.00
39.2428 569.00
39.308 571.00
39.3732 564.00
39.4384 529.00
39.5036 554.00
39.5688 497.00
39.634 469.00
39.6992 529.00
39.7644 528.00
39.8296 524.00
39.8948 528.00
39.96 522.00
40.0252 560.00
40.0904 557.00
40.1556 609.00
40.2208 581.00
40.286 711.00
40.3512 723.00
40.4164 777.00
40.4816 863.00
40.5468 822.00
40.612 767.00
40.6772 669.00
40.7424 566.00
40.8076 517.00
40.8728 515.00
40.938 509.00
41.0032 521.00
41.0684 492.00
41.1336 495.00
41.1988 495.00
41.264 534.00
41.3292 473.00
41.3944 505.00
41.4596 509.00
41.5248 488.00
41.59 505.00
41.6552 548.00
41.7204 576.00
41.7856 609.00
41.8508 715.00
41.916 746.00
41.9812 898.00
42.0464 929.00
42.1116 946.00
42.1768 1024.00
42.242 885.00
42.3072 807.00
42.3724 771.00
42.4376 790.00
42.5028 821.00
42.568 873.00
42.6332 947.00
42.6983 973.00
42.7635 857.00
42.8287 737.00
42.8939 628.00
42.9591 600.00
43.0243 561.00
43.0895 585.00
43.1547 611.00
43.2199 566.00
43.2851 577.00
43.3503 533.00
43.4155 513.00
43.4807 459.00
43.5459 492.00
43.6111 492.00
43.6763 497.00
43.7415 505.00
43.8067 559.00
43.8719 557.00
43.9371 697.00
44.0023 813.00
44.0675 964.00
44.1327 1179.00
44.1979 1162.00
44.2631 1289.00
44.3283 1215.00
44.3935 906.00
44.4587 759.00
44.5239 592.00
44.5891 544.00
44.6543 491.00
44.7195 520.00
44.7847 575.00
44.8499 528.00
44.9151 544.00
44.9803 537.00
45.0455 526.00
45.1107 617.00
45.1759 580.00
45.2411 619.00
45.3063 641.00
45.3715 594.00
45.4367 546.00
45.5019 558.00
45.5671 507.00
45.6323 548.00
45.6975 644.00
45.7627 800.00
45.8279 978.00
45.8931 1116.00
45.9583 1227.00
46.0235 1358.00
46.0887 1293.00
46.1539 966.00
46.2191 734.00
46.2843 641.00
46.3495 517.00
46.4147 479.00
46.4799 450.00
46.5451 459.00
46.6103 451.00
46.6755 453.00
46.7407 460.00
46.8059 489.00
46.8711 463.00
46.9363 446.00
47.0015 558.00
47.0667 619.00
47.1319 673.00
47.1971 866.00
47.2623 1124.00
47.3275 1340.00
47.3927 1585.00
47.4579 1904.00
47.523 1971.00
47.5882 1714.00
47.6534 1195.00
47.7186 882.00
47.7838 645.00
47.849 523.00
47.9142 474.00
47.9794 514.00
48.0446 497.00
48.1098 441.00
48.175 486.00
48.2402 474.00
48.3054 432.00
48.3706 473.00
48.4358 500.00
48.501 514.00
48.5662 556.00
48.6314 553.00
48.6966 608.00
48.7618 556.00
48.827 555.00
48.8922 574.00
48.9574 612.00
49.0226 647.00
49.0878 810.00
49.153 966.00
49.2182 1327.00
49.2834 1651.00
49.3486 1833.00
49.4138 2049.00
49.479 1840.00
49.5442 1350.00
49.6094 1007.00
49.6746 729.00
49.7398 559.00
49.805 531.00
49.8702 479.00
49.9354 498.00
50.0006 469.00
50.0658 482.00
50.131 529.00
50.1962 550.00
50.2614 565.00
50.3266 643.00
50.3918 605.00
50.457 554.00
50.5222 529.00
50.5874 438.00
50.6526 462.00
50.7178 404.00
50.783 441.00
50.8482 393.00
50.9134 429.00
50.9786 441.00
51.0438 386.00
51.109 412.00
51.1742 457.00
51.2394 432.00
51.3046 432.00
51.3698 410.00
51.435 438.00
51.5002 421.00
51.5654 516.00
51.6306 556.00
51.6958 677.00
51.761 773.00
51.8262 917.00
51.8914 1069.00
51.9566 1267.00
52.0218 1352.00
52.087 1273.00
52.1522 1417.00
52.2174 1453.00
52.2826 1590.00
52.3477 1870.00
52.4129 2088.00
52.4781 1988.00
52.5433 1557.00
52.6085 1148.00
52.6737 764.00
52.7389 578.00
52.8041 508.00
52.8693 504.00
52.9345 441.00
52.9997 459.00
53.0649 470.00
53.1301 473.00
53.1953 525.00
53.2605 525.00
53.3257 541.00
53.3909 509.00
53.4561 490.00
53.5213 440.00
53.5865 426.00
53.6517 407.00
53.7169 428.00
53.7821 393.00
53.8473 392.00
53.9125 392.00
53.9777 418.00
54.0429 399.00
54.1081 380.00
54.1733 399.00
54.2385 436.00
54.3037 392.00
54.3689 411.00
54.4341 460.00
54.4993 424.00
54.5645 429.00
54.6297 478.00
54.6949 476.00
54.7601 515.00
54.8253 525.00
54.8905 567.00
54.9557 577.00
55.0209 629.00
55.0861 551.00
55.1513 497.00
55.2165 438.00
55.2817 472.00
55.3469 429.00
55.4121 501.00
55.4773 524.00
55.5425 662.00
55.6077 753.00
55.6729 816.00
55.7381 906.00
55.8033 875.00
55.8685 723.00
55.9337 590.00
55.9989 506.00
56.0641 404.00
56.1293 410.00
56.1945 410.00
56.2597 430.00
56.3249 413.00
56.3901 428.00
56.4553 442.00
56.5205 445.00
56.5857 467.00
56.6509 491.00
56.7161 593.00
56.7813 792.00
56.8465 903.00
56.9117 1092.00
56.9769 1290.00
57.042 1385.00
57.1073 1388.00
57.1724 1333.00
57.2376 1354.00
57.3028 1469.00
57.368 1623.00
57.4332 1700.00
57.4984 1673.00
57.5636 1469.00
57.6288 1101.00
57.694 895.00
57.7592 650.00
57.8244 564.00
57.8896 489.00
57.9548 481.00
58.02 523.00
58.0852 494.00
58.1504 470.00
58.2156 492.00
58.2808 481.00
58.346 445.00
58.4112 460.00
58.4764 468.00
58.5416 499.00
58.6068 477.00
58.672 582.00
58.7372 618.00
58.8024 675.00
58.8676 758.00
58.9328 825.00
58.998 744.00
59.0632 731.00
59.1284 575.00
59.1936 524.00
59.2588 469.00
59.324 477.00
59.3892 413.00
59.4544 407.00
59.5196 379.00
59.5848 411.00
59.65 375.00
59.7152 435.00
59.7804 377.00
59.8456 425.00
59.9108 437.00
59.976 485.00
60.0412 481.00
60.1064 524.00
60.1716 551.00
60.2368 523.00
60.302 508.00
60.3672 456.00
60.4324 443.00
60.4976 438.00
60.5628 357.00
60.628 387.00
60.6932 411.00
60.7584 402.00
60.8236 389.00
60.8888 378.00
60.954 439.00
61.0192 429.00
61.0844 524.00
61.1496 660.00
61.2148 810.00
61.28 1010.00
61.3452 1199.00
61.4104 1306.00
61.4756 1260.00
61.5408 1031.00
61.606 849.00
61.6712 658.00
61.7364 525.00
61.8016 514.00
61.8667 495.00
61.932 560.00
61.9971 593.00
62.0623 606.00
62.1275 583.00
62.1927 625.00
62.2579 597.00
62.3231 561.00
62.3883 575.00
62.4535 568.00
62.5187 558.00
62.5839 488.00
62.6491 546.00
62.7143 709.00
62.7795 848.00
62.8447 996.00
62.9099 1266.00
62.9751 1437.00
63.0403 1709.00
63.1055 1694.00
63.1707 1472.00
63.2359 1314.00
63.3011 1131.00
63.3663 886.00
63.4315 720.00
63.4967 614.00
63.5619 538.00
63.6271 485.00
63.6923 416.00
63.7575 405.00
63.8227 377.00
63.8879 376.00
63.9531 366.00
64.0183 388.00
64.0835 377.00
64.1487 423.00
64.2139 422.00
64.2791 411.00
64.3443 491.00
64.4095 526.00
64.4747 534.00
64.5399 495.00
64.6051 493.00
64.6703 453.00
64.7355 461.00
64.8007 508.00
64.8659 525.00
64.9311 572.00
64.9963 554.00
65.0615 491.00
65.1267 528.00
65.1919 458.00
65.2571 496.00
65.3223 520.00
65.3875 620.00
65.4527 742.00
65.5179 856.00
65.5831 1002.00
65.6483 1057.00
65.7135 1075.00
65.7787 971.00
65.8439 969.00
65.9091 923.00
65.9743 1031.00
66.0395 1049.00
66.1047 979.00
66.1699 938.00
66.2351 851.00
66.3003 726.00
66.3655 553.00
66.4307 506.00
66.4959 440.00
66.561 391.00
66.6263 393.00
66.6915 408.00
66.7566 381.00
66.8218 421.00
66.887 368.00
66.9522 384.00
67.0174 446.00
67.0826 523.00
67.1478 575.00
67.213 674.00
67.2782 815.00
67.3434 932.00
67.4086 940.00
67.4738 830.00
67.539 699.00
67.6042 647.00
67.6694 534.00
67.7346 497.00
67.7998 424.00
67.865 386.00
67.9302 417.00
67.9954 418.00
68.0606 392.00
68.1258 383.00
68.191 355.00
68.2562 331.00
68.3214 342.00
68.3866 321.00
68.4518 346.00
68.517 310.00
68.5822 364.00
68.6474 325.00
68.7126 322.00
68.7778 346.00
68.843 316.00
68.9082 354.00
68.9734 352.00
69.0386 359.00
69.1038 332.00
69.169 346.00
69.2342 375.00
69.2994 387.00
69.3646 469.00
69.4298 545.00
69.495 643.00
69.5602 810.00
69.6254 984.00
69.6906 974.00
69.7558 917.00
69.821 756.00
69.8862 655.00
69.9514 547.00
70.0166 464.00
70.0818 394.00
70.147 358.00
70.2122 315.00
70.2774 306.00
70.3426 349.00
70.4078 329.00
70.473 308.00
70.5382 348.00
70.6034 339.00
70.6686 333.00
70.7338 323.00
70.799 394.00
70.8642 383.00
70.9294 410.00
70.9946 432.00
71.0598 456.00
71.125 481.00
71.1902 503.00
71.2554 532.00
71.3205 549.00
71.3858 521.00
71.451 561.00
71.5162 498.00
71.5813 447.00
71.6465 476.00
71.7117 402.00
71.7769 397.00
71.8421 374.00
71.9073 344.00
71.9725 390.00
72.0377 347.00
72.1029 376.00
72.1681 384.00
72.2333 361.00
72.2985 313.00
72.3637 328.00
72.4289 339.00
72.4941 320.00
72.5593 367.00
72.6245 370.00
72.6897 352.00
72.7549 351.00
72.8201 336.00
72.8853 361.00
72.9505 332.00
73.0157 305.00
73.0809 296.00
73.1461 333.00
73.2113 359.00
73.2765 405.00
73.3417 435.00
73.4069 491.00
73.4721 594.00
73.5373 667.00
73.6025 756.00
73.6677 764.00
73.7329 716.00
73.7981 590.00
73.8633 503.00
73.9285 422.00
73.9937 409.00
74.0589 334.00
74.1241 343.00
74.1893 339.00
74.2545 322.00
74.3197 334.00
74.3849 362.00
74.4501 369.00
74.5153 309.00
74.5805 347.00
74.6457 352.00
74.7109 356.00
74.7761 341.00
74.8413 361.00
74.9065 380.00
74.9717 417.00
75.0369 415.00
75.1021 559.00
75.1673 568.00
75.2325 646.00
75.2977 664.00
75.3629 660.00
75.4281 598.00
75.4933 565.00
75.5585 493.00
75.6237 440.00
75.6889 421.00
75.7541 451.00
75.8193 487.00
75.8845 425.00
75.9497 474.00
76.0149 437.00
76.0801 447.00
76.1452 472.00
76.2104 442.00
76.2756 499.00
76.3409 462.00
76.406 438.00
76.4712 441.00
76.5364 389.00
76.6016 359.00
76.6668 322.00
76.732 354.00
76.7972 313.00
76.8624 324.00
76.9276 303.00
76.9928 305.00
77.058 321.00
77.1232 326.00
77.1884 348.00
77.2536 312.00
77.3188 334.00
77.384 410.00
77.4492 371.00
77.5144 395.00
77.5796 461.00
77.6448 465.00
77.71 521.00
77.7752 591.00
77.8404 572.00
77.9056 618.00
77.9708 597.00
78.036 543.00
78.1012 528.00
78.1664 460.00
78.2316 460.00
78.2968 382.00
78.362 387.00
78.4272 358.00
78.4924 326.00
78.5576 343.00
78.6228 339.00
78.688 353.00
78.7532 397.00
78.8184 398.00
78.8836 478.00
78.9488 499.00
79.014 469.00
79.0792 456.00
79.1444 451.00
79.2096 426.00
79.2748 416.00
79.34 350.00
79.4052 433.00
79.4704 360.00
79.5356 362.00
79.6008 373.00
79.666 380.00
79.7312 359.00
79.7964 335.00
79.8616 357.00
79.9268 367.00
79.992 350.00
80.0572 358.00
80.1224 395.00
80.1876 356.00
80.2528 387.00
80.318 326.00
80.3832 365.00
80.4484 339.00
80.5136 344.00
80.5788 344.00
80.644 321.00
80.7092 322.00
80.7744 318.00
80.8396 334.00
80.9048 314.00
80.9699 331.00
81.0351 403.00
81.1003 453.00
81.1655 505.00
81.2307 648.00
81.2959 666.00
81.3611 692.00
81.4263 668.00
81.4915 675.00
81.5567 646.00
81.6219 680.00
81.6871 614.00
81.7523 547.00
81.8175 494.00
81.8827 508.00
81.9479 443.00
82.0131 392.00
82.0783 378.00
82.1435 340.00
82.2087 301.00
82.2739 353.00
82.3391 295.00
82.4043 319.00
82.4695 328.00
82.5347 351.00
82.5999 379.00
82.6651 464.00
82.7303 560.00
82.7955 602.00
82.8607 670.00
82.9259 709.00
82.9911 758.00
83.0563 726.00
83.1215 595.00
83.1867 533.00
83.2519 510.00
83.3171 465.00
83.3823 391.00
83.4475 373.00
83.5127 352.00
83.5779 312.00
83.6431 331.00
83.7083 342.00
83.7735 386.00
83.8387 357.00
83.9039 431.00
83.9691 402.00
84.0343 362.00
84.0995 334.00
84.1647 347.00
84.2299 311.00
84.2951 314.00
84.3603 315.00
84.4255 297.00
84.4907 291.00
84.5559 291.00
84.6211 307.00
84.6863 307.00
84.7515 303.00
84.8167 303.00
84.8819 302.00
84.9471 306.00
85.0123 331.00
85.0775 363.00
85.1427 370.00
85.2079 331.00
85.2731 341.00
85.3383 329.00
85.4035 284.00
85.4687 296.00
85.5339 317.00
85.5991 290.00
85.6643 309.00
85.7295 286.00
85.7946 291.00
85.8598 330.00
85.925 304.00
85.9903 348.00
86.0554 336.00
86.1206 344.00
86.1858 399.00
86.251 416.00
86.3162 447.00
86.3814 476.00
86.4466 643.00
86.5118 610.00
86.577 634.00
86.6422 550.00
86.7074 536.00
86.7726 484.00
86.8378 460.00
86.903 419.00
86.9682 393.00
87.0334 400.00
87.0986 373.00
87.1638 357.00
87.229 333.00
87.2942 408.00
87.3594 433.00
87.4246 445.00
87.4898 527.00
87.555 590.00
87.6202 631.00
87.6854 652.00
87.7506 744.00
87.8158 727.00
87.881 710.00
87.9462 595.00
88.0114 575.00
88.0766 492.00
88.1418 496.00
88.207 405.00
88.2722 395.00
88.3374 377.00
88.4026 322.00
88.4678 311.00
88.533 310.00
88.5982 328.00
88.6634 334.00
88.7286 379.00
88.7938 416.00
88.859 369.00
88.9242 369.00
88.9894 352.00
89.0546 350.00
89.1198 384.00
89.185 356.00
89.2502 350.00
89.3154 331.00
89.3806 335.00
89.4458 355.00
89.511 326.00
89.5762 306.00
89.6414 305.00
89.7066 349.00
89.7718 352.00
89.837 404.00
89.9022 421.00
89.9674 470.00
90.0326 417.00
90.0978 372.00
90.163 357.00
90.2282 411.00
90.2934 398.00
90.3586 412.00
90.4238 460.00
90.489 440.00
90.5542 463.00
90.6193 422.00
90.6845 377.00
90.7497 383.00
90.8149 438.00
90.8801 478.00
90.9453 532.00
91.0105 529.00
91.0757 465.00
91.1409 471.00
91.2061 468.00
91.2713 454.00
91.3365 446.00
91.4017 435.00
91.4669 407.00
91.5321 360.00
91.5973 372.00
91.6625 377.00
91.7277 379.00
91.7929 358.00
91.8581 341.00
91.9233 359.00
91.9885 339.00
92.0537 308.00
92.1189 273.00
92.1841 348.00
92.2493 344.00
92.3145 392.00
92.3797 373.00
92.4449 485.00
92.5101 566.00
92.5753 658.00
92.6405 630.00
92.7057 582.00
92.7709 559.00
92.8361 546.00
92.9013 552.00
92.9665 562.00
93.0317 497.00
93.0969 467.00
93.1621 452.00
93.2273 372.00
93.2925 337.00
93.3577 374.00
93.4229 358.00
93.4881 393.00
93.5533 378.00
93.6185 371.00
93.6837 359.00
93.7489 336.00
93.8141 311.00
93.8793 353.00
93.9445 370.00
94.0097 422.00
94.0749 428.00
94.1401 483.00
94.2053 478.00
94.2705 516.00
94.3357 471.00
94.4009 478.00
94.4661 405.00
94.5313 427.00
94.5965 406.00
94.6617 387.00
94.7269 357.00
94.7921 328.00
94.8573 349.00
94.9225 345.00
94.9877 375.00
95.0529 389.00
95.1181 392.00
95.1833 465.00
95.2485 465.00
95.3137 471.00
95.3789 495.00
95.444 477.00
95.5092 448.00
95.5744 404.00
95.6396 457.00
95.7048 425.00
95.77 379.00
95.8352 361.00
95.9004 377.00
95.9656 351.00
96.0308 383.00
96.096 420.00
96.1612 398.00
96.2264 442.00
96.2916 436.00
96.3568 409.00
96.422 406.00
96.4872 420.00
96.5524 416.00
96.6176 369.00
96.6828 378.00
96.748 366.00
96.8132 354.00
96.8784 312.00
96.9436 291.00
97.0088 271.00
97.074 307.00
97.1392 309.00
97.2044 311.00
97.2696 298.00
97.3348 282.00
97.4 363.00
97.4652 351.00
97.5304 330.00
97.5956 404.00
97.6608 400.00
97.726 449.00
97.7912 490.00
97.8564 496.00
97.9216 629.00
97.9868 644.00
98.052 673.00
98.1172 578.00
98.1824 544.00
98.2476 486.00
98.3128 503.00
98.378 473.00
98.4432 403.00
98.5084 373.00
98.5736 346.00
98.6388 320.00
98.704 291.00
98.7692 314.00
98.8344 324.00
98.8996 304.00
98.9648 321.00
99.03 299.00
99.0952 279.00
99.1604 325.00
99.2256 294.00
99.2908 284.00
99.356 284.00
99.4212 283.00
99.4864 321.00
99.5516 284.00
99.6168 300.00
99.682 324.00
99.7472 335.00
99.8124 329.00
99.8776 364.00
99.9428 415.00
100.008 510.00
100.073 538.00
100.095 544.00