File: data/xrd_creation/results/NSC_51.xy
9.903433 2879.00
9.968632 2787.00
10.0338 2861.00
10.099 2932.00
10.1642 2809.00
10.2294 2881.00
10.2946 2756.00
10.3598 2837.00
10.425 2691.00
10.4902 2836.00
10.5554 2795.00
10.6206 2728.00
10.6858 2672.00
10.751 2664.00
10.8162 2707.00
10.8814 2723.00
10.9466 2660.00
11.0118 2592.00
11.077 2484.00
11.1422 2595.00
11.2074 2572.00
11.2726 2560.00
11.3378 2550.00
11.403 2516.00
11.4682 2539.00
11.5334 2628.00
11.5986 2679.00
11.6638 2742.00
11.729 2825.00
11.7942 2998.00
11.8594 3034.00
11.9246 3241.00
11.9898 3451.00
12.055 3502.00
12.1202 3336.00
12.1854 2787.00
12.2506 2522.00
12.3158 2402.00
12.381 2440.00
12.4462 2409.00
12.5114 2442.00
12.5766 2402.00
12.6418 2409.00
12.707 2382.00
12.7722 2498.00
12.8374 2534.00
12.9026 2628.00
12.9678 2707.00
13.033 2827.00
13.0982 2691.00
13.1634 2541.00
13.2286 2480.00
13.2938 2591.00
13.359 2452.00
13.4242 2505.00
13.4894 2512.00
13.5546 2639.00
13.6198 2724.00
13.685 2706.00
13.7502 2739.00
13.8154 2906.00
13.8805 2835.00
13.9457 2741.00
14.0109 2529.00
14.0761 2378.00
14.1413 2276.00
14.2065 2172.00
14.2717 2138.00
14.3369 2075.00
14.4021 2149.00
14.4673 2123.00
14.5325 2175.00
14.5977 2073.00
14.6629 2142.00
14.7281 2129.00
14.7933 2097.00
14.8585 2078.00
14.9237 2123.00
14.9889 2129.00
15.0541 2093.00
15.1193 2135.00
15.1845 2164.00
15.2497 2080.00
15.3149 2097.00
15.3801 2130.00
15.4453 2019.00
15.5105 2098.00
15.5757 2064.00
15.6409 2112.00
15.7061 2068.00
15.7713 2011.00
15.8365 2074.00
15.9017 2049.00
15.9669 1958.00
16.0321 2054.00
16.0973 2049.00
16.1625 2083.00
16.2277 2022.00
16.2929 1940.00
16.3581 1986.00
16.4233 2065.00
16.4885 2007.00
16.5537 2004.00
16.6189 1941.00
16.6841 2032.00
16.7493 2066.00
16.8145 2039.00
16.8797 1982.00
16.9449 1949.00
17.0101 1932.00
17.0753 2072.00
17.1405 2043.00
17.2057 1981.00
17.2709 1989.00
17.3361 1986.00
17.4013 1998.00
17.4665 1906.00
17.5317 1970.00
17.5969 1995.00
17.6621 1992.00
17.7273 1880.00
17.7925 1999.00
17.8577 1886.00
17.9229 1979.00
17.9881 1999.00
18.0533 1951.00
18.1185 1966.00
18.1837 1915.00
18.2489 1994.00
18.3141 1967.00
18.3793 1883.00
18.4445 1958.00
18.5097 1968.00
18.5749 2026.00
18.6401 1917.00
18.7052 2065.00
18.7704 2060.00
18.8356 2025.00
18.9008 2103.00
18.966 2224.00
19.0312 2423.00
19.0964 2600.00
19.1616 2911.00
19.2268 3139.00
19.292 3476.00
19.3572 3690.00
19.4224 3920.00
19.4876 3846.00
19.5528 3991.00
19.618 3955.00
19.6832 4214.00
19.7484 4559.00
19.8136 4488.00
19.8788 4127.00
19.944 3297.00
20.0092 2754.00
20.0744 2352.00
20.1396 2225.00
20.2048 2164.00
20.27 2288.00
20.3352 2222.00
20.4004 2350.00
20.4656 2333.00
20.5308 2357.00
20.596 2328.00
20.6612 2331.00
20.7264 2158.00
20.7916 2045.00
20.8568 2053.00
20.922 1973.00
20.9872 1879.00
21.0524 1854.00
21.1176 1861.00
21.1828 1847.00
21.248 1852.00
21.3132 1765.00
21.3784 1841.00
21.4436 1858.00
21.5088 1820.00
21.574 1753.00
21.6392 1843.00
21.7044 1712.00
21.7696 1822.00
21.8348 1815.00
21.9 1810.00
21.9652 1822.00
22.0304 1779.00
22.0956 1770.00
22.1608 1785.00
22.226 1854.00
22.2912 1849.00
22.3564 1800.00
22.4216 1958.00
22.4868 2054.00
22.552 2211.00
22.6172 2522.00
22.6824 2948.00
22.7476 3545.00
22.8128 4390.00
22.878 5248.00
22.9432 6121.00
23.0084 6215.00
23.0736 5525.00
23.1388 4312.00
23.204 3267.00
23.2692 2540.00
23.3344 2391.00
23.3996 2264.00
23.4647 2249.00
23.5299 2116.00
23.5951 1932.00
23.6603 1962.00
23.7255 1909.00
23.7907 1865.00
23.8559 1905.00
23.9211 1901.00
23.9863 1832.00
24.0515 1841.00
24.1167 1823.00
24.1819 1861.00
24.2471 1806.00
24.3123 1823.00
24.3775 1797.00
24.4427 1831.00
24.5079 1764.00
24.5731 1804.00
24.6383 1903.00
24.7035 1819.00
24.7687 1786.00
24.8339 1738.00
24.8991 1671.00
24.9643 1700.00
25.0295 1706.00
25.0947 1742.00
25.1599 1730.00
25.2251 1781.00
25.2903 1760.00
25.3555 1673.00
25.4207 1785.00
25.4859 1648.00
25.5511 1643.00
25.6163 1712.00
25.6815 1681.00
25.7467 1706.00
25.8119 1743.00
25.8771 1682.00
25.9423 1676.00
26.0075 1699.00
26.0727 1680.00
26.1379 1619.00
26.2031 1676.00
26.2683 1757.00
26.3335 1586.00
26.3987 1678.00
26.4639 1608.00
26.5291 1663.00
26.5943 1684.00
26.6595 1704.00
26.7247 1684.00
26.7899 1706.00
26.8551 1756.00
26.9203 1693.00
26.9855 1750.00
27.0507 1770.00
27.1159 1724.00
27.1811 1777.00
27.2463 1786.00
27.3115 1865.00
27.3767 1824.00
27.4419 1896.00
27.5071 2118.00
27.5723 2434.00
27.6375 2757.00
27.7027 3043.00
27.7679 3203.00
27.8331 3112.00
27.8983 2894.00
27.9635 2569.00
28.0287 2382.00
28.0939 2184.00
28.1591 2086.00
28.2243 2029.00
28.2894 2078.00
28.3546 2139.00
28.4198 2162.00
28.485 2251.00
28.5502 2130.00
28.6154 2094.00
28.6806 1954.00
28.7458 1753.00
28.811 1722.00
28.8762 1677.00
28.9414 1559.00
29.0066 1612.00
29.0718 1568.00
29.137 1589.00
29.2022 1534.00
29.2674 1609.00
29.3326 1674.00
29.3978 1615.00
29.463 1594.00
29.5282 1610.00
29.5934 1597.00
29.6586 1578.00
29.7238 1647.00
29.789 1729.00
29.8542 1744.00
29.9194 1762.00
29.9846 1834.00
30.0498 2092.00
30.115 2248.00
30.1802 2451.00
30.2454 2410.00
30.3106 2647.00
30.3758 2723.00
30.441 3303.00
30.5062 4182.00
30.5714 5314.00
30.6366 6434.00
30.7018 7385.00
30.767 7679.00
30.8322 6920.00
30.8974 5386.00
30.9626 4170.00
31.0278 3331.00
31.093 2836.00
31.1582 2589.00
31.2234 2482.00
31.2886 2543.00
31.3538 2831.00
31.419 2986.00
31.4842 3069.00
31.5494 3091.00
31.6146 2883.00
31.6798 2358.00
31.745 1915.00
31.8102 1734.00
31.8754 1627.00
31.9406 1583.00
32.0058 1542.00
32.071 1585.00
32.1362 1552.00
32.2014 1543.00
32.2666 1566.00
32.3318 1434.00
32.397 1489.00
32.4622 1533.00
32.5274 1467.00
32.5926 1547.00
32.6578 1561.00
32.723 1526.00
32.7882 1538.00
32.8534 1544.00
32.9186 1557.00
32.9838 1514.00
33.0489 1467.00
33.1141 1531.00
33.1793 1485.00
33.2445 1481.00
33.3097 1538.00
33.3749 1630.00
33.4401 1554.00
33.5053 1604.00
33.5705 1619.00
33.6357 1713.00
33.7009 1840.00
33.7661 2026.00
33.8313 2438.00
33.8965 2900.00
33.9617 3435.00
34.0269 3924.00
34.0921 3884.00
34.1573 3826.00
34.2225 3837.00
34.2877 4073.00
34.3529 4386.00
34.4181 4577.00
34.4833 4474.00
34.5485 4020.00
34.6137 3396.00
34.6789 2885.00
34.7441 2330.00
34.8093 1872.00
34.8745 1743.00
34.9397 1614.00
35.0049 1564.00
35.0701 1407.00
35.1353 1481.00
35.2005 1383.00
35.2657 1461.00
35.3309 1455.00
35.3961 1479.00
35.4613 1396.00
35.5265 1361.00
35.5917 1369.00
35.6569 1370.00
35.7221 1465.00
35.7873 1299.00
35.8525 1353.00
35.9177 1344.00
35.9829 1475.00
36.0481 1402.00
36.1133 1488.00
36.1785 1461.00
36.2437 1395.00
36.3089 1388.00
36.3741 1367.00
36.4393 1420.00
36.5045 1377.00
36.5697 1357.00
36.6349 1329.00
36.7001 1372.00
36.7653 1284.00
36.8305 1315.00
36.8957 1273.00
36.9609 1301.00
37.0261 1304.00
37.0913 1292.00
37.1565 1277.00
37.2217 1253.00
37.2869 1282.00
37.3521 1336.00
37.4173 1303.00
37.4825 1269.00
37.5477 1280.00
37.6129 1331.00
37.6781 1280.00
37.7433 1345.00
37.8085 1294.00
37.8736 1302.00
37.9388 1289.00
38.004 1345.00
38.0692 1267.00
38.1344 1239.00
38.1996 1275.00
38.2648 1364.00
38.33 1264.00
38.3952 1240.00
38.4604 1308.00
38.5256 1302.00
38.5908 1352.00
38.656 1271.00
38.7212 1262.00
38.7864 1275.00
38.8516 1307.00
38.9168 1315.00
38.982 1324.00
39.0472 1351.00
39.1124 1210.00
39.1776 1395.00
39.2428 1335.00
39.308 1324.00
39.3732 1320.00
39.4384 1308.00
39.5036 1226.00
39.5688 1255.00
39.634 1307.00
39.6992 1259.00
39.7644 1280.00
39.8296 1241.00
39.8948 1306.00
39.96 1270.00
40.0252 1295.00
40.0904 1370.00
40.1556 1354.00
40.2208 1337.00
40.286 1340.00
40.3512 1357.00
40.4164 1262.00
40.4816 1327.00
40.5468 1369.00
40.612 1413.00
40.6772 1456.00
40.7424 1468.00
40.8076 1418.00
40.8728 1459.00
40.938 1431.00
41.0032 1411.00
41.0684 1362.00
41.1336 1493.00
41.1988 1524.00
41.264 1536.00
41.3292 1621.00
41.3944 1582.00
41.4596 1619.00
41.5248 1642.00
41.59 1671.00
41.6552 1667.00
41.7204 1606.00
41.7856 1712.00
41.8508 1682.00
41.916 1709.00
41.9812 1861.00
42.0464 1586.00
42.1116 1654.00
42.1768 1607.00
42.242 1460.00
42.3072 1415.00
42.3724 1435.00
42.4376 1381.00
42.5028 1362.00
42.568 1356.00
42.6332 1364.00
42.6983 1275.00
42.7635 1390.00
42.8287 1341.00
42.8939 1292.00
42.9591 1350.00
43.0243 1278.00
43.0895 1319.00
43.1547 1284.00
43.2199 1280.00
43.2851 1258.00
43.3503 1250.00
43.4155 1282.00
43.4807 1309.00
43.5459 1319.00
43.6111 1237.00
43.6763 1328.00
43.7415 1323.00
43.8067 1338.00
43.8719 1380.00
43.9371 1479.00
44.0023 1543.00
44.0675 1504.00
44.1327 1538.00
44.1979 1461.00
44.2631 1513.00
44.3283 1481.00
44.3935 1463.00
44.4587 1347.00
44.5239 1516.00
44.5891 1539.00
44.6543 1488.00
44.7195 1721.00
44.7847 1724.00
44.8499 1834.00
44.9151 1748.00
44.9803 1744.00
45.0455 1670.00
45.1107 1612.00
45.1759 1592.00
45.2411 1581.00
45.3063 1461.00
45.3715 1420.00
45.4367 1389.00
45.5019 1373.00
45.5671 1397.00
45.6323 1419.00
45.6975 1411.00
45.7627 1456.00
45.8279 1500.00
45.8931 1590.00
45.9583 1557.00
46.0235 1717.00
46.0887 1704.00
46.1539 1784.00
46.2191 1748.00
46.2843 1789.00
46.3495 1926.00
46.4147 2080.00
46.4799 2321.00
46.5451 2602.00
46.6103 2923.00
46.6755 3080.00
46.7407 3140.00
46.8059 3483.00
46.8711 3332.00
46.9363 3136.00
47.0015 2838.00
47.0667 2507.00
47.1319 2216.00
47.1971 1910.00
47.2623 1823.00
47.3275 1728.00
47.3927 1587.00
47.4579 1525.00
47.523 1539.00
47.5882 1499.00
47.6534 1434.00
47.7186 1431.00
47.7838 1455.00
47.849 1375.00
47.9142 1358.00
47.9794 1339.00
48.0446 1306.00
48.1098 1317.00
48.175 1269.00
48.2402 1229.00
48.3054 1256.00
48.3706 1341.00
48.4358 1282.00
48.501 1284.00
48.5662 1268.00
48.6314 1314.00
48.6966 1314.00
48.7618 1214.00
48.827 1248.00
48.8922 1284.00
48.9574 1312.00
49.0226 1278.00
49.0878 1245.00
49.153 1245.00
49.2182 1337.00
49.2834 1288.00
49.3486 1265.00
49.4138 1283.00
49.479 1328.00
49.5442 1356.00
49.6094 1292.00
49.6746 1331.00
49.7398 1297.00
49.805 1288.00
49.8702 1369.00
49.9354 1381.00
50.0006 1366.00
50.0658 1417.00
50.131 1504.00
50.1962 1634.00
50.2614 1721.00
50.3266 1790.00
50.3918 1903.00
50.457 2024.00
50.5222 2050.00
50.5874 1955.00
50.6526 1867.00
50.7178 1818.00
50.783 1687.00
50.8482 1683.00
50.9134 1657.00
50.9786 1570.00
51.0438 1557.00
51.109 1448.00
51.1742 1502.00
51.2394 1523.00
51.3046 1543.00
51.3698 1529.00
51.435 1460.00
51.5002 1489.00
51.5654 1423.00
51.6306 1442.00
51.6958 1470.00
51.761 1474.00
51.8262 1467.00
51.8914 1433.00
51.9566 1388.00
52.0218 1367.00
52.087 1297.00
52.1522 1312.00
52.2174 1207.00
52.2826 1276.00
52.3477 1273.00
52.4129 1252.00
52.4781 1273.00
52.5433 1284.00
52.6085 1269.00
52.6737 1379.00
52.7389 1396.00
52.8041 1394.00
52.8693 1631.00
52.9345 1523.00
52.9997 1564.00
53.0649 1555.00
53.1301 1632.00
53.1953 1570.00
53.2605 1605.00
53.3257 1537.00
53.3909 1680.00
53.4561 1878.00
53.5213 1888.00
53.5865 2085.00
53.6517 2287.00
53.7169 2294.00
53.7821 2321.00
53.8473 2202.00
53.9125 1994.00
53.9777 1942.00
54.0429 1699.00
54.1081 1558.00
54.1733 1608.00
54.2385 1411.00
54.3037 1366.00
54.3689 1431.00
54.4341 1366.00
54.4993 1415.00
54.5645 1369.00
54.6297 1350.00
54.6949 1409.00
54.7601 1317.00
54.8253 1278.00
54.8905 1320.00
54.9557 1438.00
55.0209 1410.00
55.0861 1352.00
55.1513 1320.00
55.2165 1349.00
55.2817 1319.00
55.3469 1268.00
55.4121 1269.00
55.4773 1277.00
55.5425 1253.00
55.6077 1293.00
55.6729 1255.00
55.7381 1196.00
55.8033 1199.00
55.8685 1257.00
55.9337 1207.00
55.9989 1155.00
56.0641 1181.00
56.1293 1264.00
56.1945 1232.00
56.2597 1193.00
56.3249 1181.00
56.3901 1213.00
56.4553 1174.00
56.5205 1226.00
56.5857 1160.00
56.6509 1338.00
56.7161 1310.00
56.7813 1234.00
56.8465 1263.00
56.9117 1185.00
56.9769 1215.00
57.042 1277.00
57.1073 1290.00
57.1724 1280.00
57.2376 1266.00
57.3028 1298.00
57.368 1286.00
57.4332 1259.00
57.4984 1281.00
57.5636 1248.00
57.6288 1272.00
57.694 1239.00
57.7592 1249.00
57.8244 1163.00
57.8896 1274.00
57.9548 1212.00
58.02 1324.00
58.0852 1252.00
58.1504 1300.00
58.2156 1335.00
58.2808 1278.00
58.346 1361.00
58.4112 1472.00
58.4764 1485.00
58.5416 1569.00
58.6068 1665.00
58.672 1803.00
58.7372 1792.00
58.8024 1794.00
58.8676 1895.00
58.9328 1917.00
58.998 2068.00
59.0632 1960.00
59.1284 2132.00
59.1936 2326.00
59.2588 2381.00
59.324 2229.00
59.3892 2157.00
59.4544 1910.00
59.5196 1980.00
59.5848 1774.00
59.65 1725.00
59.7152 1682.00
59.7804 1621.00
59.8456 1537.00
59.9108 1476.00
59.976 1426.00
60.0412 1497.00
60.1064 1467.00
60.1716 1463.00
60.2368 1389.00
60.302 1414.00
60.3672 1378.00
60.4324 1374.00
60.4976 1428.00
60.5628 1413.00
60.628 1332.00
60.6932 1474.00
60.7584 1427.00
60.8236 1370.00
60.8888 1459.00
60.954 1448.00
61.0192 1476.00
61.0844 1402.00
61.1496 1359.00
61.2148 1469.00
61.28 1530.00
61.3452 1525.00
61.4104 1537.00
61.4756 1736.00
61.5408 1812.00
61.606 1674.00
61.6712 1848.00
61.7364 1780.00
61.8016 1648.00
61.8667 1649.00
61.932 1629.00
61.9971 1611.00
62.0623 1558.00
62.1275 1532.00
62.1927 1433.00
62.2579 1388.00
62.3231 1352.00
62.3883 1421.00
62.4535 1395.00
62.5187 1382.00
62.5839 1370.00
62.6491 1338.00
62.7143 1402.00
62.7795 1379.00
62.8447 1332.00
62.9099 1327.00
62.9751 1292.00
63.0403 1306.00
63.1055 1240.00
63.1707 1285.00
63.2359 1286.00
63.3011 1290.00
63.3663 1241.00
63.4315 1224.00
63.4967 1215.00
63.5619 1185.00
63.6271 1230.00
63.6923 1177.00
63.7575 1209.00
63.8227 1195.00
63.8879 1254.00
63.9531 1268.00
64.0183 1144.00
64.0835 1225.00
64.1487 1302.00
64.2139 1239.00
64.2791 1194.00
64.3443 1238.00
64.4095 1316.00
64.4747 1314.00
64.5399 1237.00
64.6051 1272.00
64.6703 1209.00
64.7355 1315.00
64.8007 1281.00
64.8659 1277.00
64.9311 1267.00
64.9963 1247.00
65.0615 1303.00
65.1267 1386.00
65.1919 1337.00
65.2571 1374.00
65.3223 1317.00
65.3875 1447.00
65.4527 1413.00
65.5179 1378.00
65.5831 1393.00
65.6483 1443.00
65.7135 1282.00
65.7787 1313.00
65.8439 1339.00
65.9091 1376.00
65.9743 1293.00
66.0395 1390.00
66.1047 1411.00
66.1699 1378.00
66.2351 1405.00
66.3003 1331.00
66.3655 1360.00
66.4307 1362.00
66.4959 1357.00
66.561 1407.00
66.6263 1400.00
66.6915 1338.00
66.7566 1375.00
66.8218 1262.00
66.887 1228.00
66.9522 1323.00
67.0174 1227.00
67.0826 1221.00
67.1478 1270.00
67.213 1162.00
67.2782 1175.00
67.3434 1134.00
67.4086 1137.00
67.4738 1181.00
67.539 1092.00
67.6042 1174.00
67.6694 1093.00
67.7346 1148.00
67.7998 1224.00
67.865 1139.00
67.9302 1093.00
67.9954 1139.00
68.0606 1191.00
68.1258 1219.00
68.191 1154.00
68.2562 1251.00
68.3214 1160.00
68.3866 1149.00
68.4518 1147.00
68.517 1166.00
68.5822 1261.00
68.6474 1283.00
68.7126 1245.00
68.7778 1326.00
68.843 1368.00
68.9082 1382.00
68.9734 1507.00
69.0386 1397.00
69.1038 1353.00
69.169 1398.00
69.2342 1361.00
69.2994 1250.00
69.3646 1209.00
69.4298 1249.00
69.495 1133.00
69.5602 1152.00
69.6254 1208.00
69.6906 1177.00
69.7558 1137.00
69.821 1160.00
69.8862 1125.00
69.9514 1244.00
70.0166 1105.00
70.0818 1197.00
70.147 1217.00
70.2122 1099.00
70.2774 1110.00
70.3426 1084.00
70.4078 1171.00
70.473 1086.00
70.5382 1052.00
70.6034 1075.00
70.6686 1081.00
70.7338 1056.00
70.799 1072.00
70.8642 1053.00
70.9294 1096.00
70.9946 1163.00
71.0598 1127.00
71.125 1082.00
71.1902 1179.00
71.2554 1141.00
71.3205 1227.00
71.3858 1264.00
71.451 1138.00
71.5162 1132.00
71.5813 1149.00
71.6465 1160.00
71.7117 1145.00
71.7769 1144.00
71.8421 1131.00
71.9073 1209.00
71.9725 1190.00
72.0377 1147.00
72.1029 1198.00
72.1681 1250.00
72.2333 1316.00
72.2985 1304.00
72.3637 1260.00
72.4289 1392.00
72.4941 1325.00
72.5593 1352.00
72.6245 1258.00
72.6897 1273.00
72.7549 1292.00
72.8201 1218.00
72.8853 1228.00
72.9505 1244.00
73.0157 1191.00
73.0809 1183.00
73.1461 1096.00
73.2113 1149.00
73.2765 1204.00
73.3417 1183.00
73.4069 1195.00
73.4721 1114.00
73.5373 1173.00
73.6025 1252.00
73.6677 1121.00
73.7329 1081.00
73.7981 1199.00
73.8633 1184.00
73.9285 1160.00
73.9937 1136.00
74.0589 1214.00
74.1241 1138.00
74.1893 1081.00
74.2545 1138.00
74.3197 1174.00
74.3849 1134.00
74.4501 1149.00
74.5153 1108.00
74.5805 1090.00
74.6457 1110.00
74.7109 1153.00
74.7761 1060.00
74.8413 1134.00
74.9065 1138.00
74.9717 1162.00
75.0369 1065.00
75.1021 1094.00
75.1673 1152.00
75.2325 1095.00
75.2977 1059.00
75.3629 1175.00
75.4281 1118.00
75.4933 1059.00
75.5585 1120.00
75.6237 1115.00
75.6889 1105.00
75.7541 1152.00
75.8193 1089.00
75.8845 1142.00
75.9497 1195.00
76.0149 1181.00
76.0801 1118.00
76.1452 1186.00
76.2104 1155.00
76.2756 1205.00
76.3409 1123.00
76.406 1086.00
76.4712 1157.00
76.5364 1103.00
76.6016 1099.00
76.6668 1154.00
76.732 1102.00
76.7972 1145.00
76.8624 1081.00
76.9276 1123.00
76.9928 1136.00
77.058 1039.00
77.1232 1114.00
77.1884 1062.00
77.2536 1111.00
77.3188 1111.00
77.384 1083.00
77.4492 1052.00
77.5144 1026.00
77.5796 1067.00
77.6448 1029.00
77.71 1123.00
77.7752 1042.00
77.8404 1037.00
77.9056 1065.00
77.9708 1029.00
78.036 1061.00
78.1012 991.00
78.1664 991.00
78.2316 1048.00
78.2968 1024.00
78.362 1023.00
78.4272 1095.00
78.4924 1018.00
78.5576 1035.00
78.6228 993.00
78.688 1032.00
78.7532 1073.00
78.8184 1052.00
78.8836 1081.00
78.9488 1122.00
79.014 1066.00
79.0792 1075.00
79.1444 1052.00
79.2096 1174.00
79.2748 1062.00
79.34 1086.00
79.4052 1139.00
79.4704 1029.00
79.5356 1128.00
79.6008 1070.00
79.666 1150.00
79.7312 1000.00
79.7964 1123.00
79.8616 1091.00
79.9268 1110.00
79.992 1124.00
80.0572 1155.00
80.1224 1160.00
80.1876 1192.00
80.2528 1172.00
80.318 1226.00
80.3832 1204.00
80.4484 1250.00
80.5136 1218.00
80.5788 1228.00
80.644 1238.00
80.7092 1269.00
80.7744 1175.00
80.8396 1237.00
80.9048 1235.00
80.9699 1253.00
81.0351 1202.00
81.1003 1162.00
81.1655 1146.00
81.2307 1120.00
81.2959 1179.00
81.3611 1193.00
81.4263 1155.00
81.4915 1150.00
81.5567 1061.00
81.6219 1058.00
81.6871 1115.00
81.7523 1113.00
81.8175 1083.00
81.8827 1061.00
81.9479 1087.00
82.0131 1117.00
82.0783 1041.00
82.1435 1104.00
82.2087 1095.00
82.2739 1099.00
82.3391 1158.00
82.4043 1162.00
82.4695 1138.00
82.5347 1083.00
82.5999 1063.00
82.6651 1083.00
82.7303 1108.00
82.7955 1137.00
82.8607 1132.00
82.9259 1140.00
82.9911 1140.00
83.0563 1087.00
83.1215 1091.00
83.1867 993.00
83.2519 1119.00
83.3171 1089.00
83.3823 1097.00
83.4475 1080.00
83.5127 1098.00
83.5779 1000.00
83.6431 1006.00
83.7083 1101.00
83.7735 979.00
83.8387 1073.00
83.9039 1079.00
83.9691 975.00
84.0343 1004.00
84.0995 1051.00
84.1647 1052.00
84.2299 1011.00
84.2951 1029.00
84.3603 981.00
84.4255 1017.00
84.4907 1072.00
84.5559 1074.00
84.6211 1050.00
84.6863 1006.00
84.7515 1016.00
84.8167 1136.00
84.8819 1047.00
84.9471 1087.00
85.0123 1058.00
85.0775 1044.00
85.1427 1081.00
85.2079 997.00
85.2731 1109.00
85.3383 1109.00
85.4035 1054.00
85.4687 1050.00
85.5339 1108.00
85.5991 1211.00
85.6643 1107.00
85.7295 1136.00
85.7946 1053.00
85.8598 1165.00
85.925 1110.00
85.9903 1097.00
86.0554 1071.00
86.1206 1120.00
86.1858 1191.00
86.251 1174.00
86.3162 1155.00
86.3814 1184.00
86.4466 1191.00
86.5118 1159.00
86.577 1104.00
86.6422 1215.00
86.7074 1182.00
86.7726 1272.00
86.8378 1168.00
86.903 1220.00
86.9682 1184.00
87.0334 1230.00
87.0986 1197.00
87.1638 1257.00
87.229 1241.00
87.2942 1165.00
87.3594 1156.00
87.4246 1226.00
87.4898 1208.00
87.555 1175.00
87.6202 1128.00
87.6854 1138.00
87.7506 1096.00
87.8158 1055.00
87.881 1134.00
87.9462 1141.00
88.0114 1111.00
88.0766 1096.00
88.1418 1026.00
88.207 1016.00
88.2722 1071.00
88.3374 1085.00
88.4026 1045.00
88.4678 996.00
88.533 1055.00
88.5982 1099.00
88.6634 1135.00
88.7286 1093.00
88.7938 1077.00
88.859 1092.00
88.9242 1079.00
88.9894 1104.00
89.0546 1122.00
89.1198 1121.00
89.185 1161.00
89.2502 1151.00
89.3154 1148.00
89.3806 1119.00
89.4458 1119.00
89.511 1108.00
89.5762 1166.00
89.6414 1093.00
89.7066 1096.00
89.7718 1094.00
89.837 1085.00
89.9022 1096.00
89.9674 1111.00
90.0326 1093.00
90.0978 1054.00
90.163 1144.00
90.2282 1080.00
90.2934 1053.00
90.3586 1112.00
90.4238 1064.00
90.489 1048.00
90.5542 1082.00
90.6193 1076.00
90.6845 1109.00
90.7497 1033.00
90.8149 1077.00
90.8801 1146.00
90.9453 1102.00
91.0105 1106.00
91.0757 1036.00
91.1409 1056.00
91.2061 1079.00
91.2713 1066.00
91.3365 1075.00
91.4017 1117.00
91.4669 1061.00
91.5321 1071.00
91.5973 1049.00
91.6625 1085.00
91.7277 1101.00
91.7929 1066.00
91.8581 1099.00
91.9233 1127.00
91.9885 1097.00
92.0537 1010.00
92.1189 1106.00
92.1841 1144.00
92.2493 1178.00
92.3145 1144.00
92.3797 1135.00
92.4449 1162.00
92.5101 1180.00
92.5753 1166.00
92.6405 1143.00
92.7057 1155.00
92.7709 1164.00
92.8361 1128.00
92.9013 1181.00
92.9665 1062.00
93.0317 1154.00
93.0969 1117.00
93.1621 1187.00
93.2273 1115.00
93.2925 1098.00
93.3577 1123.00
93.4229 1081.00
93.4881 1105.00
93.5533 1113.00
93.6185 1030.00
93.6837 1128.00
93.7489 1162.00
93.8141 1163.00
93.8793 1068.00
93.9445 1200.00
94.0097 1083.00
94.0749 1142.00
94.1401 1072.00
94.2053 1141.00
94.2705 1042.00
94.3357 1057.00
94.4009 1114.00
94.4661 1094.00
94.5313 1055.00
94.5965 1027.00
94.6617 1024.00
94.7269 1081.00
94.7921 1037.00
94.8573 1009.00
94.9225 1046.00
94.9877 1033.00
95.0529 1078.00
95.1181 1035.00
95.1833 993.00
95.2485 1061.00
95.3137 1079.00
95.3789 1049.00
95.444 1088.00
95.5092 1113.00
95.5744 975.00
95.6396 1051.00
95.7048 1060.00
95.77 1061.00
95.8352 1086.00
95.9004 1046.00
95.9656 1024.00
96.0308 1106.00
96.096 1060.00
96.1612 1076.00
96.2264 1099.00
96.2916 1063.00
96.3568 1038.00
96.422 1012.00
96.4872 1062.00
96.5524 1066.00
96.6176 1076.00
96.6828 1009.00
96.748 1069.00
96.8132 1085.00
96.8784 1058.00
96.9436 985.00
97.0088 1118.00
97.074 1073.00
97.1392 1072.00
97.2044 1094.00
97.2696 1006.00
97.3348 1082.00
97.4 1034.00
97.4652 1045.00
97.5304 1081.00
97.5956 988.00
97.6608 1018.00
97.726 1064.00
97.7912 1058.00
97.8564 1075.00
97.9216 1087.00
97.9868 1011.00
98.052 1051.00
98.1172 1086.00
98.1824 976.00
98.2476 989.00
98.3128 1047.00
98.378 1019.00
98.4432 1003.00
98.5084 1097.00
98.5736 1007.00
98.6388 958.00
98.704 1088.00
98.7692 982.00
98.8344 1067.00
98.8996 1063.00
98.9648 1016.00
99.03 1090.00
99.0952 1059.00
99.1604 1057.00
99.2256 1111.00
99.2908 1082.00
99.356 1057.00
99.4212 1050.00
99.4864 1054.00
99.5516 1031.00
99.6168 1117.00
99.682 1022.00
99.7472 1088.00
99.8124 1150.00
99.8776 1111.00
99.9428 1091.00
100.008 1139.00
100.073 1137.00
100.095 1145.00