File: data/xrd_creation/results/NSC_146.xy
9.903433 2557.00
9.968632 2523.00
10.0338 2594.00
10.099 2555.00
10.1642 2547.00
10.2294 2416.00
10.2946 2426.00
10.3598 2491.00
10.425 2560.00
10.4902 2375.00
10.5554 2471.00
10.6206 2447.00
10.6858 2379.00
10.751 2483.00
10.8162 2502.00
10.8814 2526.00
10.9466 2302.00
11.0118 2294.00
11.077 2305.00
11.1422 2172.00
11.2074 2208.00
11.2726 2291.00
11.3378 2234.00
11.403 2349.00
11.4682 2404.00
11.5334 2540.00
11.5986 2427.00
11.6638 2340.00
11.729 2165.00
11.7942 2201.00
11.8594 2096.00
11.9246 2176.00
11.9898 2190.00
12.055 2239.00
12.1202 2260.00
12.1854 2497.00
12.2506 2689.00
12.3158 2590.00
12.381 2142.00
12.4462 2081.00
12.5114 2063.00
12.5766 2067.00
12.6418 2195.00
12.707 2324.00
12.7722 2425.00
12.8374 2709.00
12.9026 3073.00
12.9678 3234.00
13.033 2430.00
13.0982 1963.00
13.1634 1880.00
13.2286 2079.00
13.2938 2046.00
13.359 2171.00
13.4242 2200.00
13.4894 2293.00
13.5546 2610.00
13.6198 3042.00
13.685 3505.00
13.7502 3832.00
13.8154 3128.00
13.8805 2125.00
13.9457 1789.00
14.0109 1718.00
14.0761 1772.00
14.1413 1815.00
14.2065 1792.00
14.2717 1710.00
14.3369 1714.00
14.4021 1625.00
14.4673 1729.00
14.5325 1705.00
14.5977 1646.00
14.6629 1640.00
14.7281 1649.00
14.7933 1668.00
14.8585 1656.00
14.9237 1730.00
14.9889 1731.00
15.0541 1657.00
15.1193 1635.00
15.1845 1653.00
15.2497 1659.00
15.3149 1642.00
15.3801 1622.00
15.4453 1790.00
15.5105 1755.00
15.5757 1820.00
15.6409 1804.00
15.7061 1799.00
15.7713 1711.00
15.8365 1636.00
15.9017 1587.00
15.9669 1603.00
16.0321 1603.00
16.0973 1604.00
16.1625 1603.00
16.2277 1649.00
16.2929 1660.00
16.3581 1699.00
16.4233 1934.00
16.4885 2090.00
16.5537 2477.00
16.6189 2931.00
16.6841 3503.00
16.7493 2897.00
16.8145 2067.00
16.8797 1645.00
16.9449 1550.00
17.0101 1529.00
17.0753 1535.00
17.1405 1578.00
17.2057 1559.00
17.2709 1457.00
17.3361 1458.00
17.4013 1444.00
17.4665 1458.00
17.5317 1423.00
17.5969 1524.00
17.6621 1490.00
17.7273 1413.00
17.7925 1482.00
17.8577 1454.00
17.9229 1489.00
17.9881 1415.00
18.0533 1532.00
18.1185 1492.00
18.1837 1538.00
18.2489 1643.00
18.3141 1694.00
18.3793 1779.00
18.4445 1603.00
18.5097 1406.00
18.5749 1422.00
18.6401 1388.00
18.7052 1377.00
18.7704 1380.00
18.8356 1378.00
18.9008 1336.00
18.966 1387.00
19.0312 1330.00
19.0964 1287.00
19.1616 1364.00
19.2268 1349.00
19.292 1346.00
19.3572 1315.00
19.4224 1388.00
19.4876 1413.00
19.5528 1384.00
19.618 1417.00
19.6832 1626.00
19.7484 1664.00
19.8136 2002.00
19.8788 2624.00
19.944 3677.00
20.0092 5494.00
20.0744 5952.00
20.1396 3791.00
20.2048 2168.00
20.27 1821.00
20.3352 1771.00
20.4004 2015.00
20.4656 2246.00
20.5308 2769.00
20.596 3036.00
20.6612 3362.00
20.7264 4190.00
20.7916 5597.00
20.8568 8252.00
20.922 13421.00
20.9872 17357.00
21.0524 13989.00
21.1176 11012.00
21.1828 9148.00
21.248 6385.00
21.3132 6099.00
21.3784 7978.00
21.4436 8461.00
21.5088 6703.00
21.574 3760.00
21.6392 2375.00
21.7044 2410.00
21.7696 2645.00
21.8348 2629.00
21.9 2057.00
21.9652 1719.00
22.0304 1562.00
22.0956 1415.00
22.1608 1461.00
22.226 1448.00
22.2912 1421.00
22.3564 1335.00
22.4216 1271.00
22.4868 1266.00
22.552 1276.00
22.6172 1313.00
22.6824 1279.00
22.7476 1312.00
22.8128 1303.00
22.878 1221.00
22.9432 1399.00
23.0084 1383.00
23.0736 1271.00
23.1388 1347.00
23.204 1179.00
23.2692 1250.00
23.3344 1276.00
23.3996 1201.00
23.4647 1204.00
23.5299 1288.00
23.5951 1267.00
23.6603 1413.00
23.7255 1774.00
23.7907 2336.00
23.8559 3088.00
23.9211 3255.00
23.9863 2452.00
24.0515 1661.00
24.1167 1520.00
24.1819 1601.00
24.2471 1888.00
24.3123 2312.00
24.3775 2422.00
24.4427 2212.00
24.5079 1970.00
24.5731 1871.00
24.6383 2071.00
24.7035 2507.00
24.7687 2721.00
24.8339 2440.00
24.8991 2064.00
24.9643 1991.00
25.0295 1747.00
25.0947 1519.00
25.1599 1477.00
25.2251 1350.00
25.2903 1171.00
25.3555 1152.00
25.4207 1146.00
25.4859 1138.00
25.5511 1099.00
25.6163 1126.00
25.6815 1354.00
25.7467 1575.00
25.8119 1679.00
25.8771 1394.00
25.9423 1129.00
26.0075 1019.00
26.0727 1054.00
26.1379 1110.00
26.2031 1139.00
26.2683 1186.00
26.3335 1347.00
26.3987 1444.00
26.4639 1401.00
26.5291 1567.00
26.5943 1632.00
26.6595 1515.00
26.7247 1339.00
26.7899 1268.00
26.8551 1232.00
26.9203 1179.00
26.9855 1136.00
27.0507 1073.00
27.1159 1210.00
27.1811 1203.00
27.2463 1368.00
27.3115 1338.00
27.3767 1150.00
27.4419 1067.00
27.5071 1081.00
27.5723 943.00
27.6375 977.00
27.7027 1026.00
27.7679 978.00
27.8331 1047.00
27.8983 991.00
27.9635 955.00
28.0287 987.00
28.0939 1063.00
28.1591 1231.00
28.2243 1521.00
28.2894 1593.00
28.3546 1452.00
28.4198 1232.00
28.485 1043.00
28.5502 919.00
28.6154 908.00
28.6806 894.00
28.7458 880.00
28.811 873.00
28.8762 867.00
28.9414 860.00
29.0066 877.00
29.0718 856.00
29.137 968.00
29.2022 1041.00
29.2674 1154.00
29.3326 1255.00
29.3978 1246.00
29.463 1146.00
29.5282 1160.00
29.5934 1253.00
29.6586 1465.00
29.7238 1794.00
29.789 1870.00
29.8542 1570.00
29.9194 1245.00
29.9846 1074.00
30.0498 1070.00
30.115 1213.00
30.1802 1254.00
30.2454 1275.00
30.3106 1447.00
30.3758 1735.00
30.441 1800.00
30.5062 1635.00
30.5714 1633.00
30.6366 1411.00
30.7018 1115.00
30.767 1041.00
30.8322 957.00
30.8974 976.00
30.9626 978.00
31.0278 972.00
31.093 935.00
31.1582 948.00
31.2234 979.00
31.2886 910.00
31.3538 1035.00
31.419 946.00
31.4842 977.00
31.5494 1101.00
31.6146 1166.00
31.6798 1274.00
31.745 1615.00
31.8102 1927.00
31.8754 1995.00
31.9406 2364.00
32.0058 3193.00
32.071 4159.00
32.1362 2951.00
32.2014 1846.00
32.2666 1892.00
32.3318 2332.00
32.397 2786.00
32.4622 2374.00
32.5274 1671.00
32.5926 1359.00
32.6578 1364.00
32.723 1629.00
32.7882 1940.00
32.8534 1900.00
32.9186 1579.00
32.9838 1439.00
33.0489 1287.00
33.1141 1170.00
33.1793 1073.00
33.2445 1203.00
33.3097 1225.00
33.3749 1268.00
33.4401 1231.00
33.5053 1305.00
33.5705 1280.00
33.6357 1381.00
33.7009 1299.00
33.7661 1320.00
33.8313 1386.00
33.8965 1465.00
33.9617 1609.00
34.0269 2020.00
34.0921 3164.00
34.1573 5983.00
34.2225 11180.00
34.2877 16009.00
34.3529 17793.00
34.4181 16882.00
34.4833 14477.00
34.5485 12922.00
34.6137 14229.00
34.6789 15236.00
34.7441 14998.00
34.8093 11313.00
34.8745 9288.00
34.9397 7893.00
35.0049 8288.00
35.0701 9059.00
35.1353 7975.00
35.2005 5273.00
35.2657 2922.00
35.3309 1694.00
35.3961 1398.00
35.4613 1316.00
35.5265 1427.00
35.5917 1335.00
35.6569 1184.00
35.7221 1237.00
35.7873 1288.00
35.8525 1485.00
35.9177 1584.00
35.9829 1737.00
36.0481 1806.00
36.1133 2084.00
36.1785 2427.00
36.2437 2694.00
36.3089 2500.00
36.3741 2364.00
36.4393 3193.00
36.5045 5321.00
36.5697 5923.00
36.6349 4105.00
36.7001 2464.00
36.7653 1700.00
36.8305 1650.00
36.8957 1637.00
36.9609 1423.00
37.0261 1416.00
37.0913 1439.00
37.1565 1274.00
37.2217 1165.00
37.2869 1116.00
37.3521 1083.00
37.4173 1118.00
37.4825 1220.00
37.5477 1254.00
37.6129 1138.00
37.6781 1126.00
37.7433 1022.00
37.8085 1046.00
37.8736 1033.00
37.9388 1062.00
38.004 978.00
38.0692 1071.00
38.1344 991.00
38.1996 927.00
38.2648 805.00
38.33 811.00
38.3952 846.00
38.4604 868.00
38.5256 894.00
38.5908 904.00
38.656 886.00
38.7212 938.00
38.7864 1001.00
38.8516 998.00
38.9168 931.00
38.982 869.00
39.0472 882.00
39.1124 892.00
39.1776 888.00
39.2428 959.00
39.308 977.00
39.3732 935.00
39.4384 990.00
39.5036 975.00
39.5688 957.00
39.634 1014.00
39.6992 970.00
39.7644 1010.00
39.8296 1036.00
39.8948 896.00
39.96 851.00
40.0252 885.00
40.0904 848.00
40.1556 790.00
40.2208 757.00
40.286 770.00
40.3512 826.00
40.4164 799.00
40.4816 890.00
40.5468 1013.00
40.612 1165.00
40.6772 1311.00
40.7424 1269.00
40.8076 1129.00
40.8728 1024.00
40.938 958.00
41.0032 976.00
41.0684 997.00
41.1336 1045.00
41.1988 1064.00
41.264 1022.00
41.3292 952.00
41.3944 977.00
41.4596 1074.00
41.5248 1285.00
41.59 1417.00
41.6552 1218.00
41.7204 1090.00
41.7856 892.00
41.8508 828.00
41.916 771.00
41.9812 765.00
42.0464 745.00
42.1116 848.00
42.1768 950.00
42.242 1306.00
42.3072 1726.00
42.3724 1976.00
42.4376 1687.00
42.5028 1631.00
42.568 1543.00
42.6332 1688.00
42.6983 1608.00
42.7635 1516.00
42.8287 1530.00
42.8939 1577.00
42.9591 1488.00
43.0243 1406.00
43.0895 1234.00
43.1547 1182.00
43.2199 965.00
43.2851 960.00
43.3503 978.00
43.4155 1026.00
43.4807 997.00
43.5459 988.00
43.6111 869.00
43.6763 876.00
43.7415 858.00
43.8067 873.00
43.8719 920.00
43.9371 956.00
44.0023 1000.00
44.0675 1043.00
44.1327 1022.00
44.1979 891.00
44.2631 868.00
44.3283 840.00
44.3935 852.00
44.4587 854.00
44.5239 997.00
44.5891 1146.00
44.6543 1121.00
44.7195 1003.00
44.7847 854.00
44.8499 738.00
44.9151 686.00
44.9803 739.00
45.0455 778.00
45.1107 865.00
45.1759 932.00
45.2411 897.00
45.3063 847.00
45.3715 825.00
45.4367 852.00
45.5019 923.00
45.5671 917.00
45.6323 1002.00
45.6975 920.00
45.7627 994.00
45.8279 951.00
45.8931 869.00
45.9583 887.00
46.0235 856.00
46.0887 846.00
46.1539 841.00
46.2191 952.00
46.2843 890.00
46.3495 892.00
46.4147 884.00
46.4799 945.00
46.5451 1088.00
46.6103 1044.00
46.6755 1024.00
46.7407 995.00
46.8059 889.00
46.8711 843.00
46.9363 812.00
47.0015 776.00
47.0667 790.00
47.1319 826.00
47.1971 892.00
47.2623 939.00
47.3275 1042.00
47.3927 1069.00
47.4579 1145.00
47.523 1278.00
47.5882 1291.00
47.6534 1393.00
47.7186 1658.00
47.7838 2147.00
47.849 2268.00
47.9142 1799.00
47.9794 1526.00
48.0446 1041.00
48.1098 901.00
48.175 878.00
48.2402 795.00
48.3054 874.00
48.3706 931.00
48.4358 1032.00
48.501 1012.00
48.5662 985.00
48.6314 937.00
48.6966 916.00
48.7618 906.00
48.827 823.00
48.8922 861.00
48.9574 791.00
49.0226 857.00
49.0878 1038.00
49.153 1191.00
49.2182 1705.00
49.2834 2425.00
49.3486 2944.00
49.4138 3172.00
49.479 3458.00
49.5442 3552.00
49.6094 4413.00
49.6746 3961.00
49.7398 3953.00
49.805 3323.00
49.8702 2547.00
49.9354 1971.00
50.0006 1533.00
50.0658 1184.00
50.131 1064.00
50.1962 957.00
50.2614 854.00
50.3266 765.00
50.3918 791.00
50.457 815.00
50.5222 961.00
50.5874 1133.00
50.6526 1309.00
50.7178 1333.00
50.783 1223.00
50.8482 1115.00
50.9134 1012.00
50.9786 934.00
51.0438 988.00
51.109 962.00
51.1742 976.00
51.2394 861.00
51.3046 879.00
51.3698 967.00
51.435 860.00
51.5002 901.00
51.5654 839.00
51.6306 861.00
51.6958 798.00
51.761 815.00
51.8262 777.00
51.8914 753.00
51.9566 700.00
52.0218 698.00
52.087 748.00
52.1522 750.00
52.2174 750.00
52.2826 780.00
52.3477 874.00
52.4129 840.00
52.4781 792.00
52.5433 882.00
52.6085 876.00
52.6737 997.00
52.7389 1159.00
52.8041 1120.00
52.8693 977.00
52.9345 865.00
52.9997 794.00
53.0649 717.00
53.1301 741.00
53.1953 829.00
53.2605 785.00
53.3257 908.00
53.3909 1186.00
53.4561 1295.00
53.5213 1122.00
53.5865 1126.00
53.6517 1097.00
53.7169 983.00
53.7821 986.00
53.8473 953.00
53.9125 974.00
53.9777 1003.00
54.0429 927.00
54.1081 955.00
54.1733 967.00
54.2385 962.00
54.3037 1046.00
54.3689 1005.00
54.4341 992.00
54.4993 979.00
54.5645 897.00
54.6297 879.00
54.6949 848.00
54.7601 838.00
54.8253 866.00
54.8905 909.00
54.9557 882.00
55.0209 962.00
55.0861 962.00
55.1513 1012.00
55.2165 1139.00
55.2817 1344.00
55.3469 1315.00
55.4121 1408.00
55.4773 1459.00
55.5425 1256.00
55.6077 1141.00
55.6729 1071.00
55.7381 1055.00
55.8033 1181.00
55.8685 1307.00
55.9337 1260.00
55.9989 1129.00
56.0641 1099.00
56.1293 1134.00
56.1945 1177.00
56.2597 1127.00
56.3249 1117.00
56.3901 965.00
56.4553 890.00
56.5205 963.00
56.5857 924.00
56.6509 1012.00
56.7161 1227.00
56.7813 1739.00
56.8465 2216.00
56.9117 1876.00
56.9769 1831.00
57.042 1545.00
57.1073 1116.00
57.1724 886.00
57.2376 831.00
57.3028 790.00
57.368 758.00
57.4332 734.00
57.4984 729.00
57.5636 740.00
57.6288 739.00
57.694 679.00
57.7592 666.00
57.8244 686.00
57.8896 743.00
57.9548 680.00
58.02 633.00
58.0852 706.00
58.1504 670.00
58.2156 743.00
58.2808 821.00
58.346 939.00
58.4112 958.00
58.4764 899.00
58.5416 857.00
58.6068 765.00
58.672 735.00
58.7372 758.00
58.8024 770.00
58.8676 683.00
58.9328 706.00
58.998 693.00
59.0632 727.00
59.1284 720.00
59.1936 750.00
59.2588 680.00
59.324 684.00
59.3892 658.00
59.4544 719.00
59.5196 720.00
59.5848 830.00
59.65 843.00
59.7152 868.00
59.7804 834.00
59.8456 803.00
59.9108 846.00
59.976 823.00
60.0412 802.00
60.1064 823.00
60.1716 934.00
60.2368 949.00
60.302 999.00
60.3672 932.00
60.4324 890.00
60.4976 841.00
60.5628 821.00
60.628 775.00
60.6932 835.00
60.7584 869.00
60.8236 926.00
60.8888 1114.00
60.954 1319.00
61.0192 1748.00
61.0844 2117.00
61.1496 2414.00
61.2148 3048.00
61.28 3923.00
61.3452 4311.00
61.4104 4312.00
61.4756 4208.00
61.5408 3767.00
61.606 3359.00
61.6712 3262.00
61.7364 2939.00
61.8016 2347.00
61.8667 2168.00
61.932 1870.00
61.9971 1721.00
62.0623 1823.00
62.1275 1906.00
62.1927 1882.00
62.2579 1697.00
62.3231 1627.00
62.3883 1622.00
62.4535 1547.00
62.5187 1630.00
62.5839 1856.00
62.6491 2037.00
62.7143 1929.00
62.7795 1931.00
62.8447 1676.00
62.9099 1532.00
62.9751 1656.00
63.0403 1869.00
63.1055 2182.00
63.1707 1687.00
63.2359 1504.00
63.3011 1446.00
63.3663 1097.00
63.4315 946.00
63.4967 816.00
63.5619 858.00
63.6271 889.00
63.6923 918.00
63.7575 936.00
63.8227 871.00
63.8879 934.00
63.9531 968.00
64.0183 959.00
64.0835 958.00
64.1487 962.00
64.2139 999.00
64.2791 904.00
64.3443 940.00
64.4095 938.00
64.4747 951.00
64.5399 831.00
64.6051 823.00
64.6703 811.00
64.7355 814.00
64.8007 767.00
64.8659 796.00
64.9311 845.00
64.9963 833.00
65.0615 843.00
65.1267 864.00
65.1919 856.00
65.2571 914.00
65.3223 970.00
65.3875 995.00
65.4527 989.00
65.5179 941.00
65.5831 985.00
65.6483 964.00
65.7135 943.00
65.7787 966.00
65.8439 981.00
65.9091 936.00
65.9743 872.00
66.0395 1008.00
66.1047 959.00
66.1699 855.00
66.2351 855.00
66.3003 818.00
66.3655 771.00
66.4307 818.00
66.4959 953.00
66.561 1045.00
66.6263 1076.00
66.6915 955.00
66.7566 942.00
66.8218 911.00
66.887 810.00
66.9522 723.00
67.0174 740.00
67.0826 677.00
67.1478 645.00
67.213 686.00
67.2782 649.00
67.3434 687.00
67.4086 689.00
67.4738 719.00
67.539 736.00
67.6042 733.00
67.6694 706.00
67.7346 705.00
67.7998 768.00
67.865 818.00
67.9302 814.00
67.9954 870.00
68.0606 1029.00
68.1258 1312.00
68.191 1585.00
68.2562 1386.00
68.3214 1284.00
68.3866 1279.00
68.4518 1124.00
68.517 897.00
68.5822 758.00
68.6474 700.00
68.7126 655.00
68.7778 581.00
68.843 632.00
68.9082 650.00
68.9734 559.00
69.0386 541.00
69.1038 599.00
69.169 603.00
69.2342 718.00
69.2994 908.00
69.3646 921.00
69.4298 778.00
69.495 745.00
69.5602 750.00
69.6254 662.00
69.6906 598.00
69.7558 618.00
69.821 598.00
69.8862 670.00
69.9514 660.00
70.0166 668.00
70.0818 640.00
70.147 634.00
70.2122 616.00
70.2774 590.00
70.3426 554.00
70.4078 568.00
70.473 644.00
70.5382 583.00
70.6034 593.00
70.6686 672.00
70.7338 631.00
70.799 700.00
70.8642 778.00
70.9294 804.00
70.9946 830.00
71.0598 838.00
71.125 744.00
71.1902 714.00
71.2554 682.00
71.3205 613.00
71.3858 669.00
71.451 606.00
71.5162 599.00
71.5813 700.00
71.6465 712.00
71.7117 793.00
71.7769 872.00
71.8421 960.00
71.9073 960.00
71.9725 937.00
72.0377 925.00
72.1029 940.00
72.1681 972.00
72.2333 901.00
72.2985 859.00
72.3637 788.00
72.4289 844.00
72.4941 750.00
72.5593 864.00
72.6245 828.00
72.6897 816.00
72.7549 893.00
72.8201 1047.00
72.8853 930.00
72.9505 928.00
73.0157 865.00
73.0809 891.00
73.1461 852.00
73.2113 765.00
73.2765 722.00
73.3417 790.00
73.4069 748.00
73.4721 736.00
73.5373 720.00
73.6025 761.00
73.6677 744.00
73.7329 727.00
73.7981 737.00
73.8633 741.00
73.9285 678.00
73.9937 668.00
74.0589 622.00
74.1241 583.00
74.1893 602.00
74.2545 553.00
74.3197 574.00
74.3849 592.00
74.4501 564.00
74.5153 590.00
74.5805 593.00
74.6457 639.00
74.7109 614.00
74.7761 607.00
74.8413 573.00
74.9065 575.00
74.9717 545.00
75.0369 513.00
75.1021 558.00
75.1673 538.00
75.2325 498.00
75.2977 510.00
75.3629 508.00
75.4281 546.00
75.4933 565.00
75.5585 622.00
75.6237 567.00
75.6889 637.00
75.7541 638.00
75.8193 646.00
75.8845 651.00
75.9497 641.00
76.0149 634.00
76.0801 633.00
76.1452 598.00
76.2104 650.00
76.2756 598.00
76.3409 695.00
76.406 689.00
76.4712 709.00
76.5364 704.00
76.6016 770.00
76.6668 727.00
76.732 725.00
76.7972 710.00
76.8624 650.00
76.9276 629.00
76.9928 615.00
77.058 641.00
77.1232 643.00
77.1884 695.00
77.2536 613.00
77.3188 615.00
77.384 655.00
77.4492 590.00
77.5144 565.00
77.5796 579.00
77.6448 556.00
77.71 548.00
77.7752 590.00
77.8404 543.00
77.9056 579.00
77.9708 560.00
78.036 523.00
78.1012 540.00
78.1664 532.00
78.2316 508.00
78.2968 493.00
78.362 508.00
78.4272 568.00
78.4924 514.00
78.5576 602.00
78.6228 574.00
78.688 558.00
78.7532 586.00
78.8184 555.00
78.8836 550.00
78.9488 664.00
79.014 602.00
79.0792 583.00
79.1444 576.00
79.2096 545.00
79.2748 590.00
79.34 594.00
79.4052 568.00
79.4704 549.00
79.5356 538.00
79.6008 537.00
79.666 593.00
79.7312 608.00
79.7964 567.00
79.8616 555.00
79.9268 583.00
79.992 566.00
80.0572 549.00
80.1224 582.00
80.1876 520.00
80.2528 492.00
80.318 475.00
80.3832 516.00
80.4484 551.00
80.5136 588.00
80.5788 588.00
80.644 592.00
80.7092 595.00
80.7744 601.00
80.8396 511.00
80.9048 589.00
80.9699 571.00
81.0351 569.00
81.1003 493.00
81.1655 540.00
81.2307 532.00
81.2959 502.00
81.3611 561.00
81.4263 546.00
81.4915 565.00
81.5567 548.00
81.6219 591.00
81.6871 659.00
81.7523 619.00
81.8175 672.00
81.8827 687.00
81.9479 796.00
82.0131 939.00
82.0783 967.00
82.1435 1078.00
82.2087 1059.00
82.2739 1124.00
82.3391 1027.00
82.4043 1121.00
82.4695 1081.00
82.5347 1114.00
82.5999 1080.00
82.6651 1072.00
82.7303 1100.00
82.7955 1065.00
82.8607 1038.00
82.9259 995.00
82.9911 899.00
83.0563 913.00
83.1215 868.00
83.1867 801.00
83.2519 813.00
83.3171 827.00
83.3823 749.00
83.4475 727.00
83.5127 730.00
83.5779 666.00
83.6431 633.00
83.7083 721.00
83.7735 645.00
83.8387 641.00
83.9039 625.00
83.9691 576.00
84.0343 548.00
84.0995 538.00
84.1647 554.00
84.2299 554.00
84.2951 484.00
84.3603 493.00
84.4255 510.00
84.4907 564.00
84.5559 489.00
84.6211 511.00
84.6863 509.00
84.7515 534.00
84.8167 483.00
84.8819 529.00
84.9471 483.00
85.0123 466.00
85.0775 491.00
85.1427 493.00
85.2079 485.00
85.2731 505.00
85.3383 482.00
85.4035 491.00
85.4687 508.00
85.5339 511.00
85.5991 525.00
85.6643 558.00
85.7295 555.00
85.7946 517.00
85.8598 604.00
85.925 551.00
85.9903 562.00
86.0554 616.00
86.1206 614.00
86.1858 537.00
86.251 558.00
86.3162 575.00
86.3814 572.00
86.4466 584.00
86.5118 547.00
86.577 583.00
86.6422 489.00
86.7074 603.00
86.7726 567.00
86.8378 568.00
86.903 498.00
86.9682 566.00
87.0334 513.00
87.0986 522.00
87.1638 538.00
87.229 524.00
87.2942 554.00
87.3594 552.00
87.4246 566.00
87.4898 544.00
87.555 603.00
87.6202 553.00
87.6854 538.00
87.7506 521.00
87.8158 560.00
87.881 521.00
87.9462 548.00
88.0114 531.00
88.0766 549.00
88.1418 564.00
88.207 561.00
88.2722 574.00
88.3374 565.00
88.4026 581.00
88.4678 598.00
88.533 570.00
88.5982 543.00
88.6634 531.00
88.7286 552.00
88.7938 558.00
88.859 546.00
88.9242 536.00
88.9894 521.00
89.0546 536.00
89.1198 522.00
89.185 509.00
89.2502 486.00
89.3154 511.00
89.3806 524.00
89.4458 541.00
89.511 517.00
89.5762 518.00
89.6414 580.00
89.7066 695.00
89.7718 689.00
89.837 750.00
89.9022 655.00
89.9674 619.00
90.0326 623.00
90.0978 589.00
90.163 576.00
90.2282 596.00
90.2934 538.00
90.3586 490.00
90.4238 486.00
90.489 524.00
90.5542 564.00
90.6193 560.00
90.6845 536.00
90.7497 570.00
90.8149 474.00
90.8801 506.00
90.9453 529.00
91.0105 483.00
91.0757 512.00
91.1409 553.00
91.2061 491.00
91.2713 491.00
91.3365 554.00
91.4017 518.00
91.4669 508.00
91.5321 502.00
91.5973 521.00
91.6625 556.00
91.7277 589.00
91.7929 540.00
91.8581 619.00
91.9233 601.00
91.9885 658.00
92.0537 654.00
92.1189 625.00
92.1841 655.00
92.2493 621.00
92.3145 644.00
92.3797 589.00
92.4449 593.00
92.5101 565.00
92.5753 599.00
92.6405 561.00
92.7057 618.00
92.7709 553.00
92.8361 603.00
92.9013 610.00
92.9665 622.00
93.0317 681.00
93.0969 570.00
93.1621 561.00
93.2273 591.00
93.2925 545.00
93.3577 537.00
93.4229 518.00
93.4881 502.00
93.5533 506.00
93.6185 457.00
93.6837 468.00
93.7489 507.00
93.8141 472.00
93.8793 472.00
93.9445 478.00
94.0097 495.00
94.0749 485.00
94.1401 539.00
94.2053 511.00
94.2705 551.00
94.3357 535.00
94.4009 563.00
94.4661 548.00
94.5313 569.00
94.5965 585.00
94.6617 542.00
94.7269 581.00
94.7921 538.00
94.8573 531.00
94.9225 542.00
94.9877 549.00
95.0529 561.00
95.1181 572.00
95.1833 540.00
95.2485 592.00
95.3137 597.00
95.3789 656.00
95.444 687.00
95.5092 726.00
95.5744 639.00
95.6396 580.00
95.7048 624.00
95.77 670.00
95.8352 642.00
95.9004 549.00
95.9656 518.00
96.0308 493.00
96.096 505.00
96.1612 482.00
96.2264 513.00
96.2916 510.00
96.3568 495.00
96.422 499.00
96.4872 510.00
96.5524 536.00
96.6176 524.00
96.6828 509.00
96.748 496.00
96.8132 501.00
96.8784 455.00
96.9436 517.00
97.0088 510.00
97.074 507.00
97.1392 527.00
97.2044 522.00
97.2696 546.00
97.3348 562.00
97.4 527.00
97.4652 521.00
97.5304 581.00
97.5956 487.00
97.6608 530.00
97.726 532.00
97.7912 556.00
97.8564 532.00
97.9216 558.00
97.9868 551.00
98.052 552.00
98.1172 526.00
98.1824 569.00
98.2476 570.00
98.3128 536.00
98.378 563.00
98.4432 567.00
98.5084 543.00
98.5736 595.00
98.6388 576.00
98.704 604.00
98.7692 661.00
98.8344 630.00
98.8996 611.00
98.9648 569.00
99.03 582.00
99.0952 605.00
99.1604 558.00
99.2256 560.00
99.2908 580.00
99.356 545.00
99.4212 559.00
99.4864 590.00
99.5516 524.00
99.6168 539.00
99.682 518.00
99.7472 550.00
99.8124 568.00
99.8776 482.00
99.9428 562.00
100.008 522.00
100.073 555.00
100.095 552.00