File: data/xrd_creation/results/NSC_213.xy
9.903433 2819.00
9.968632 2722.00
10.0338 2722.00
10.099 2609.00
10.1642 2697.00
10.2294 2684.00
10.2946 2627.00
10.3598 2574.00
10.425 2531.00
10.4902 2563.00
10.5554 2498.00
10.6206 2527.00
10.6858 2506.00
10.751 2480.00
10.8162 2521.00
10.8814 2487.00
10.9466 2423.00
11.0118 2359.00
11.077 2352.00
11.1422 2422.00
11.2074 2317.00
11.2726 2369.00
11.3378 2320.00
11.403 2217.00
11.4682 2327.00
11.5334 2306.00
11.5986 2183.00
11.6638 2231.00
11.729 2193.00
11.7942 2198.00
11.8594 2209.00
11.9246 2263.00
11.9898 2134.00
12.055 2069.00
12.1202 2130.00
12.1854 2066.00
12.2506 2054.00
12.3158 2051.00
12.381 2097.00
12.4462 1992.00
12.5114 2064.00
12.5766 1994.00
12.6418 2014.00
12.707 1974.00
12.7722 1928.00
12.8374 1916.00
12.9026 1929.00
12.9678 1911.00
13.033 1852.00
13.0982 1968.00
13.1634 1903.00
13.2286 1896.00
13.2938 1883.00
13.359 1810.00
13.4242 1790.00
13.4894 1794.00
13.5546 1823.00
13.6198 1816.00
13.685 1872.00
13.7502 1819.00
13.8154 1815.00
13.8805 1787.00
13.9457 1760.00
14.0109 1768.00
14.0761 1707.00
14.1413 1750.00
14.2065 1726.00
14.2717 1735.00
14.3369 1706.00
14.4021 1691.00
14.4673 1730.00
14.5325 1665.00
14.5977 1700.00
14.6629 1730.00
14.7281 1755.00
14.7933 1670.00
14.8585 1745.00
14.9237 1666.00
14.9889 1623.00
15.0541 1659.00
15.1193 1666.00
15.1845 1666.00
15.2497 1673.00
15.3149 1609.00
15.3801 1666.00
15.4453 1625.00
15.5105 1717.00
15.5757 1658.00
15.6409 1525.00
15.7061 1675.00
15.7713 1686.00
15.8365 1574.00
15.9017 1595.00
15.9669 1618.00
16.0321 1667.00
16.0973 1553.00
16.1625 1526.00
16.2277 1606.00
16.2929 1561.00
16.3581 1555.00
16.4233 1574.00
16.4885 1572.00
16.5537 1570.00
16.6189 1495.00
16.6841 1572.00
16.7493 1479.00
16.8145 1440.00
16.8797 1625.00
16.9449 1502.00
17.0101 1590.00
17.0753 1612.00
17.1405 1606.00
17.2057 1616.00
17.2709 1679.00
17.3361 1735.00
17.4013 1828.00
17.4665 1869.00
17.5317 1857.00
17.5969 1801.00
17.6621 1664.00
17.7273 1584.00
17.7925 1550.00
17.8577 1478.00
17.9229 1421.00
17.9881 1520.00
18.0533 1466.00
18.1185 1464.00
18.1837 1436.00
18.2489 1417.00
18.3141 1465.00
18.3793 1439.00
18.4445 1403.00
18.5097 1522.00
18.5749 1447.00
18.6401 1439.00
18.7052 1434.00
18.7704 1463.00
18.8356 1494.00
18.9008 1473.00
18.966 1413.00
19.0312 1433.00
19.0964 1490.00
19.1616 1415.00
19.2268 1362.00
19.292 1386.00
19.3572 1424.00
19.4224 1371.00
19.4876 1335.00
19.5528 1399.00
19.618 1439.00
19.6832 1441.00
19.7484 1576.00
19.8136 1521.00
19.8788 1652.00
19.944 1788.00
20.0092 1918.00
20.0744 1946.00
20.1396 1867.00
20.2048 1653.00
20.27 1491.00
20.3352 1418.00
20.4004 1450.00
20.4656 1412.00
20.5308 1471.00
20.596 1429.00
20.6612 1444.00
20.7264 1468.00
20.7916 1482.00
20.8568 1465.00
20.922 1421.00
20.9872 1417.00
21.0524 1334.00
21.1176 1374.00
21.1828 1348.00
21.248 1404.00
21.3132 1419.00
21.3784 1528.00
21.4436 1430.00
21.5088 1531.00
21.574 1504.00
21.6392 1443.00
21.7044 1312.00
21.7696 1300.00
21.8348 1294.00
21.9 1347.00
21.9652 1312.00
22.0304 1370.00
22.0956 1294.00
22.1608 1322.00
22.226 1301.00
22.2912 1295.00
22.3564 1291.00
22.4216 1303.00
22.4868 1247.00
22.552 1243.00
22.6172 1235.00
22.6824 1276.00
22.7476 1287.00
22.8128 1196.00
22.878 1266.00
22.9432 1233.00
23.0084 1275.00
23.0736 1299.00
23.1388 1289.00
23.204 1255.00
23.2692 1256.00
23.3344 1374.00
23.3996 1290.00
23.4647 1251.00
23.5299 1328.00
23.5951 1252.00
23.6603 1350.00
23.7255 1322.00
23.7907 1393.00
23.8559 1496.00
23.9211 1758.00
23.9863 1959.00
24.0515 2247.00
24.1167 2450.00
24.1819 2439.00
24.2471 2273.00
24.3123 2027.00
24.3775 1944.00
24.4427 2054.00
24.5079 2059.00
24.5731 2160.00
24.6383 1923.00
24.7035 1671.00
24.7687 1460.00
24.8339 1364.00
24.8991 1267.00
24.9643 1262.00
25.0295 1247.00
25.0947 1388.00
25.1599 1580.00
25.2251 1671.00
25.2903 1644.00
25.3555 1568.00
25.4207 1382.00
25.4859 1264.00
25.5511 1144.00
25.6163 1136.00
25.6815 1149.00
25.7467 1133.00
25.8119 1139.00
25.8771 1131.00
25.9423 1202.00
26.0075 1159.00
26.0727 1064.00
26.1379 1174.00
26.2031 1132.00
26.2683 1168.00
26.3335 1226.00
26.3987 1302.00
26.4639 1179.00
26.5291 1124.00
26.5943 1081.00
26.6595 1128.00
26.7247 1078.00
26.7899 1079.00
26.8551 1122.00
26.9203 1084.00
26.9855 1078.00
27.0507 1010.00
27.1159 1108.00
27.1811 1082.00
27.2463 1117.00
27.3115 1109.00
27.3767 1155.00
27.4419 1213.00
27.5071 1261.00
27.5723 1230.00
27.6375 1373.00
27.7027 1404.00
27.7679 1412.00
27.8331 1500.00
27.8983 1888.00
27.9635 2358.00
28.0287 3243.00
28.0939 4623.00
28.1591 6004.00
28.2243 7493.00
28.2894 7933.00
28.3546 7439.00
28.4198 5797.00
28.485 4186.00
28.5502 2995.00
28.6154 2242.00
28.6806 1722.00
28.7458 1439.00
28.811 1371.00
28.8762 1206.00
28.9414 1200.00
29.0066 1166.00
29.0718 1104.00
29.137 1086.00
29.2022 1042.00
29.2674 1119.00
29.3326 1125.00
29.3978 1101.00
29.463 1009.00
29.5282 1125.00
29.5934 1045.00
29.6586 1056.00
29.7238 1111.00
29.789 1084.00
29.8542 1047.00
29.9194 1078.00
29.9846 1149.00
30.0498 1231.00
30.115 1197.00
30.1802 1223.00
30.2454 1223.00
30.3106 1274.00
30.3758 1604.00
30.441 2158.00
30.5062 2829.00
30.5714 2975.00
30.6366 2443.00
30.7018 1914.00
30.767 1567.00
30.8322 1362.00
30.8974 1324.00
30.9626 1258.00
31.0278 1344.00
31.093 1425.00
31.1582 1525.00
31.2234 1871.00
31.2886 2306.00
31.3538 2965.00
31.419 3781.00
31.4842 4766.00
31.5494 5630.00
31.6146 6041.00
31.6798 5293.00
31.745 4264.00
31.8102 3067.00
31.8754 2340.00
31.9406 1778.00
32.0058 1494.00
32.071 1283.00
32.1362 1135.00
32.2014 1072.00
32.2666 1042.00
32.3318 1038.00
32.397 1043.00
32.4622 1061.00
32.5274 1096.00
32.5926 1172.00
32.6578 1221.00
32.723 1270.00
32.7882 1123.00
32.8534 1118.00
32.9186 1072.00
32.9838 1200.00
33.0489 1243.00
33.1141 1313.00
33.1793 1351.00
33.2445 1232.00
33.3097 1153.00
33.3749 1059.00
33.4401 1020.00
33.5053 1037.00
33.5705 981.00
33.6357 977.00
33.7009 1031.00
33.7661 1051.00
33.8313 1091.00
33.8965 1125.00
33.9617 1289.00
34.0269 1447.00
34.0921 1815.00
34.1573 2137.00
34.2225 2660.00
34.2877 2929.00
34.3529 2932.00
34.4181 2716.00
34.4833 2522.00
34.5485 2512.00
34.6137 2405.00
34.6789 2058.00
34.7441 1624.00
34.8093 1326.00
34.8745 1164.00
34.9397 1105.00
35.0049 1036.00
35.0701 1094.00
35.1353 1290.00
35.2005 1487.00
35.2657 1659.00
35.3309 2058.00
35.3961 2470.00
35.4613 2800.00
35.5265 2608.00
35.5917 2062.00
35.6569 1587.00
35.7221 1327.00
35.7873 1133.00
35.8525 1072.00
35.9177 1094.00
35.9829 1140.00
36.0481 1237.00
36.1133 1113.00
36.1785 1053.00
36.2437 896.00
36.3089 879.00
36.3741 864.00
36.4393 799.00
36.5045 778.00
36.5697 803.00
36.6349 791.00
36.7001 759.00
36.7653 789.00
36.8305 723.00
36.8957 842.00
36.9609 772.00
37.0261 750.00
37.0913 727.00
37.1565 754.00
37.2217 742.00
37.2869 787.00
37.3521 742.00
37.4173 724.00
37.4825 784.00
37.5477 824.00
37.6129 830.00
37.6781 848.00
37.7433 861.00
37.8085 878.00
37.8736 855.00
37.9388 869.00
38.004 827.00
38.0692 820.00
38.1344 814.00
38.1996 734.00
38.2648 754.00
38.33 809.00
38.3952 819.00
38.4604 955.00
38.5256 1000.00
38.5908 934.00
38.656 1096.00
38.7212 1202.00
38.7864 1167.00
38.8516 1178.00
38.9168 984.00
38.982 864.00
39.0472 810.00
39.1124 768.00
39.1776 726.00
39.2428 713.00
39.308 710.00
39.3732 672.00
39.4384 701.00
39.5036 694.00
39.5688 648.00
39.634 631.00
39.6992 698.00
39.7644 677.00
39.8296 751.00
39.8948 795.00
39.96 748.00
40.0252 770.00
40.0904 733.00
40.1556 775.00
40.2208 696.00
40.286 736.00
40.3512 725.00
40.4164 630.00
40.4816 729.00
40.5468 847.00
40.612 923.00
40.6772 963.00
40.7424 1063.00
40.8076 1160.00
40.8728 1300.00
40.938 1419.00
41.0032 1410.00
41.0684 1293.00
41.1336 1212.00
41.1988 1121.00
41.264 1086.00
41.3292 1087.00
41.3944 1144.00
41.4596 1074.00
41.5248 1049.00
41.59 956.00
41.6552 956.00
41.7204 879.00
41.7856 831.00
41.8508 769.00
41.916 752.00
41.9812 703.00
42.0464 661.00
42.1116 635.00
42.1768 653.00
42.242 609.00
42.3072 629.00
42.3724 577.00
42.4376 607.00
42.5028 623.00
42.568 648.00
42.6332 596.00
42.6983 630.00
42.7635 578.00
42.8287 609.00
42.8939 611.00
42.9591 638.00
43.0243 678.00
43.0895 622.00
43.1547 652.00
43.2199 636.00
43.2851 570.00
43.3503 615.00
43.4155 560.00
43.4807 593.00
43.5459 657.00
43.6111 621.00
43.6763 621.00
43.7415 628.00
43.8067 631.00
43.8719 566.00
43.9371 598.00
44.0023 574.00
44.0675 555.00
44.1327 615.00
44.1979 598.00
44.2631 559.00
44.3283 604.00
44.3935 605.00
44.4587 583.00
44.5239 635.00
44.5891 664.00
44.6543 725.00
44.7195 710.00
44.7847 726.00
44.8499 752.00
44.9151 850.00
44.9803 865.00
45.0455 821.00
45.1107 833.00
45.1759 762.00
45.2411 702.00
45.3063 729.00
45.3715 638.00
45.4367 766.00
45.5019 782.00
45.5671 843.00
45.6323 942.00
45.6975 1001.00
45.7627 981.00
45.8279 894.00
45.8931 809.00
45.9583 723.00
46.0235 661.00
46.0887 605.00
46.1539 621.00
46.2191 588.00
46.2843 608.00
46.3495 604.00
46.4147 608.00
46.4799 601.00
46.5451 566.00
46.6103 542.00
46.6755 536.00
46.7407 535.00
46.8059 506.00
46.8711 506.00
46.9363 616.00
47.0015 524.00
47.0667 563.00
47.1319 551.00
47.1971 562.00
47.2623 612.00
47.3275 578.00
47.3927 615.00
47.4579 604.00
47.523 550.00
47.5882 546.00
47.6534 539.00
47.7186 553.00
47.7838 570.00
47.849 587.00
47.9142 583.00
47.9794 647.00
48.0446 678.00
48.1098 661.00
48.175 643.00
48.2402 628.00
48.3054 583.00
48.3706 583.00
48.4358 554.00
48.501 551.00
48.5662 556.00
48.6314 532.00
48.6966 545.00
48.7618 581.00
48.827 620.00
48.8922 634.00
48.9574 669.00
49.0226 683.00
49.0878 810.00
49.153 895.00
49.2182 1036.00
49.2834 1044.00
49.3486 1156.00
49.4138 1383.00
49.479 1428.00
49.5442 1508.00
49.6094 1401.00
49.6746 1208.00
49.7398 1011.00
49.805 868.00
49.8702 816.00
49.9354 825.00
50.0006 932.00
50.0658 1022.00
50.131 1016.00
50.1962 1138.00
50.2614 1268.00
50.3266 1600.00
50.3918 1722.00
50.457 1819.00
50.5222 1737.00
50.5874 1472.00
50.6526 1214.00
50.7178 1197.00
50.783 1243.00
50.8482 1364.00
50.9134 1500.00
50.9786 1365.00
51.0438 1236.00
51.109 1143.00
51.1742 947.00
51.2394 745.00
51.3046 739.00
51.3698 753.00
51.435 702.00
51.5002 732.00
51.5654 753.00
51.6306 711.00
51.6958 605.00
51.761 637.00
51.8262 551.00
51.8914 583.00
51.9566 527.00
52.0218 565.00
52.087 494.00
52.1522 570.00
52.2174 525.00
52.2826 572.00
52.3477 530.00
52.4129 544.00
52.4781 561.00
52.5433 495.00
52.6085 604.00
52.6737 580.00
52.7389 591.00
52.8041 562.00
52.8693 520.00
52.9345 535.00
52.9997 514.00
53.0649 509.00
53.1301 494.00
53.1953 507.00
53.2605 520.00
53.3257 505.00
53.3909 465.00
53.4561 530.00
53.5213 518.00
53.5865 549.00
53.6517 555.00
53.7169 529.00
53.7821 572.00
53.8473 695.00
53.9125 646.00
53.9777 687.00
54.0429 730.00
54.1081 769.00
54.1733 808.00
54.2385 838.00
54.3037 926.00
54.3689 1007.00
54.4341 1055.00
54.4993 984.00
54.5645 868.00
54.6297 815.00
54.6949 693.00
54.7601 675.00
54.8253 659.00
54.8905 580.00
54.9557 661.00
55.0209 660.00
55.0861 661.00
55.1513 700.00
55.2165 762.00
55.2817 743.00
55.3469 804.00
55.4121 906.00
55.4773 953.00
55.5425 1071.00
55.6077 1286.00
55.6729 1292.00
55.7381 1295.00
55.8033 1300.00
55.8685 1286.00
55.9337 1187.00
55.9989 1078.00
56.0641 933.00
56.1293 910.00
56.1945 935.00
56.2597 937.00
56.3249 905.00
56.3901 803.00
56.4553 725.00
56.5205 681.00
56.5857 605.00
56.6509 563.00
56.7161 525.00
56.7813 549.00
56.8465 492.00
56.9117 535.00
56.9769 559.00
57.042 593.00
57.1073 606.00
57.1724 607.00
57.2376 644.00
57.3028 669.00
57.368 672.00
57.4332 762.00
57.4984 841.00
57.5636 819.00
57.6288 778.00
57.694 752.00
57.7592 685.00
57.8244 672.00
57.8896 623.00
57.9548 635.00
58.02 639.00
58.0852 665.00
58.1504 747.00
58.2156 814.00
58.2808 749.00
58.346 755.00
58.4112 771.00
58.4764 685.00
58.5416 749.00
58.6068 663.00
58.672 692.00
58.7372 567.00
58.8024 604.00
58.8676 602.00
58.9328 567.00
58.998 585.00
59.0632 585.00
59.1284 580.00
59.1936 529.00
59.2588 537.00
59.324 591.00
59.3892 495.00
59.4544 514.00
59.5196 530.00
59.5848 555.00
59.65 537.00
59.7152 632.00
59.7804 661.00
59.8456 620.00
59.9108 714.00
59.976 772.00
60.0412 774.00
60.1064 846.00
60.1716 902.00
60.2368 939.00
60.302 937.00
60.3672 885.00
60.4324 846.00
60.4976 844.00
60.5628 972.00
60.628 898.00
60.6932 799.00
60.7584 808.00
60.8236 643.00
60.8888 608.00
60.954 531.00
61.0192 503.00
61.0844 503.00
61.1496 522.00
61.2148 509.00
61.28 514.00
61.3452 573.00
61.4104 551.00
61.4756 610.00
61.5408 632.00
61.606 640.00
61.6712 747.00
61.7364 711.00
61.8016 757.00
61.8667 765.00
61.932 722.00
61.9971 755.00
62.0623 751.00
62.1275 774.00
62.1927 783.00
62.2579 816.00
62.3231 726.00
62.3883 765.00
62.4535 761.00
62.5187 668.00
62.5839 738.00
62.6491 648.00
62.7143 686.00
62.7795 694.00
62.8447 696.00
62.9099 687.00
62.9751 687.00
63.0403 633.00
63.1055 693.00
63.1707 779.00
63.2359 736.00
63.3011 763.00
63.3663 721.00
63.4315 692.00
63.4967 566.00
63.5619 574.00
63.6271 553.00
63.6923 511.00
63.7575 461.00
63.8227 465.00
63.8879 482.00
63.9531 447.00
64.0183 466.00
64.0835 456.00
64.1487 504.00
64.2139 477.00
64.2791 494.00
64.3443 448.00
64.4095 526.00
64.4747 510.00
64.5399 565.00
64.6051 564.00
64.6703 568.00
64.7355 552.00
64.8007 523.00
64.8659 527.00
64.9311 501.00
64.9963 464.00
65.0615 461.00
65.1267 501.00
65.1919 481.00
65.2571 518.00
65.3223 528.00
65.3875 543.00
65.4527 550.00
65.5179 586.00
65.5831 551.00
65.6483 599.00
65.7135 614.00
65.7787 630.00
65.8439 650.00
65.9091 608.00
65.9743 707.00
66.0395 774.00
66.1047 778.00
66.1699 712.00
66.2351 710.00
66.3003 669.00
66.3655 609.00
66.4307 554.00
66.4959 479.00
66.561 495.00
66.6263 509.00
66.6915 432.00
66.7566 431.00
66.8218 382.00
66.887 375.00
66.9522 359.00
67.0174 358.00
67.0826 363.00
67.1478 380.00
67.213 331.00
67.2782 358.00
67.3434 356.00
67.4086 403.00
67.4738 376.00
67.539 375.00
67.6042 376.00
67.6694 404.00
67.7346 362.00
67.7998 381.00
67.865 402.00
67.9302 381.00
67.9954 406.00
68.0606 361.00
68.1258 403.00
68.191 388.00
68.2562 386.00
68.3214 385.00
68.3866 392.00
68.4518 386.00
68.517 352.00
68.5822 393.00
68.6474 372.00
68.7126 419.00
68.7778 425.00
68.843 395.00
68.9082 439.00
68.9734 427.00
69.0386 368.00
69.1038 384.00
69.169 426.00
69.2342 432.00
69.2994 433.00
69.3646 493.00
69.4298 459.00
69.495 442.00
69.5602 485.00
69.6254 439.00
69.6906 450.00
69.7558 462.00
69.821 439.00
69.8862 397.00
69.9514 409.00
70.0166 407.00
70.0818 416.00
70.147 447.00
70.2122 403.00
70.2774 375.00
70.3426 392.00
70.4078 387.00
70.473 430.00
70.5382 389.00
70.6034 383.00
70.6686 379.00
70.7338 418.00
70.799 370.00
70.8642 383.00
70.9294 433.00
70.9946 384.00
71.0598 419.00
71.125 390.00
71.1902 466.00
71.2554 461.00
71.3205 476.00
71.3858 481.00
71.451 548.00
71.5162 550.00
71.5813 601.00
71.6465 587.00
71.7117 601.00
71.7769 549.00
71.8421 521.00
71.9073 461.00
71.9725 448.00
72.0377 415.00
72.1029 453.00
72.1681 405.00
72.2333 377.00
72.2985 444.00
72.3637 472.00
72.4289 418.00
72.4941 496.00
72.5593 461.00
72.6245 459.00
72.6897 478.00
72.7549 457.00
72.8201 434.00
72.8853 444.00
72.9505 480.00
73.0157 431.00
73.0809 442.00
73.1461 460.00
73.2113 428.00
73.2765 424.00
73.3417 408.00
73.4069 397.00
73.4721 378.00
73.5373 414.00
73.6025 412.00
73.6677 363.00
73.7329 405.00
73.7981 359.00
73.8633 408.00
73.9285 384.00
73.9937 381.00
74.0589 385.00
74.1241 369.00
74.1893 389.00
74.2545 392.00
74.3197 378.00
74.3849 374.00
74.4501 375.00
74.5153 417.00
74.5805 397.00
74.6457 392.00
74.7109 412.00
74.7761 400.00
74.8413 416.00
74.9065 391.00
74.9717 488.00
75.0369 540.00
75.1021 516.00
75.1673 571.00
75.2325 505.00
75.2977 548.00
75.3629 501.00
75.4281 470.00
75.4933 510.00
75.5585 510.00
75.6237 522.00
75.6889 515.00
75.7541 500.00
75.8193 499.00
75.8845 446.00
75.9497 432.00
76.0149 446.00
76.0801 419.00
76.1452 377.00
76.2104 397.00
76.2756 418.00
76.3409 452.00
76.406 424.00
76.4712 435.00
76.5364 435.00
76.6016 386.00
76.6668 407.00
76.732 421.00
76.7972 376.00
76.8624 393.00
76.9276 399.00
76.9928 451.00
77.058 464.00
77.1232 455.00
77.1884 420.00
77.2536 410.00
77.3188 438.00
77.384 416.00
77.4492 411.00
77.5144 416.00
77.5796 379.00
77.6448 437.00
77.71 414.00
77.7752 424.00
77.8404 471.00
77.9056 483.00
77.9708 452.00
78.036 480.00
78.1012 456.00
78.1664 426.00
78.2316 435.00
78.2968 414.00
78.362 450.00
78.4272 433.00
78.4924 395.00
78.5576 440.00
78.6228 422.00
78.688 390.00
78.7532 433.00
78.8184 404.00
78.8836 447.00
78.9488 396.00
79.014 413.00
79.0792 492.00
79.1444 429.00
79.2096 446.00
79.2748 457.00
79.34 455.00
79.4052 500.00
79.4704 476.00
79.5356 449.00
79.6008 463.00
79.666 454.00
79.7312 378.00
79.7964 379.00
79.8616 388.00
79.9268 410.00
79.992 385.00
80.0572 371.00
80.1224 359.00
80.1876 370.00
80.2528 351.00
80.318 405.00
80.3832 397.00
80.4484 392.00
80.5136 356.00
80.5788 370.00
80.644 360.00
80.7092 379.00
80.7744 378.00
80.8396 358.00
80.9048 372.00
80.9699 419.00
81.0351 342.00
81.1003 362.00
81.1655 412.00
81.2307 379.00
81.2959 402.00
81.3611 387.00
81.4263 371.00
81.4915 411.00
81.5567 410.00
81.6219 396.00
81.6871 417.00
81.7523 457.00
81.8175 404.00
81.8827 458.00
81.9479 472.00
82.0131 519.00
82.0783 473.00
82.1435 468.00
82.2087 465.00
82.2739 425.00
82.3391 419.00
82.4043 432.00
82.4695 458.00
82.5347 427.00
82.5999 430.00
82.6651 420.00
82.7303 422.00
82.7955 427.00
82.8607 431.00
82.9259 439.00
82.9911 453.00
83.0563 494.00
83.1215 575.00
83.1867 529.00
83.2519 474.00
83.3171 536.00
83.3823 516.00
83.4475 465.00
83.5127 479.00
83.5779 465.00
83.6431 517.00
83.7083 504.00
83.7735 471.00
83.8387 514.00
83.9039 486.00
83.9691 467.00
84.0343 456.00
84.0995 467.00
84.1647 417.00
84.2299 416.00
84.2951 441.00
84.3603 453.00
84.4255 456.00
84.4907 469.00
84.5559 445.00
84.6211 481.00
84.6863 480.00
84.7515 433.00
84.8167 485.00
84.8819 447.00
84.9471 427.00
85.0123 448.00
85.0775 420.00
85.1427 369.00
85.2079 374.00
85.2731 401.00
85.3383 382.00
85.4035 437.00
85.4687 417.00
85.5339 416.00
85.5991 410.00
85.6643 418.00
85.7295 371.00
85.7946 427.00
85.8598 357.00
85.925 359.00
85.9903 375.00
86.0554 362.00
86.1206 383.00
86.1858 365.00
86.251 372.00
86.3162 364.00
86.3814 379.00
86.4466 395.00
86.5118 372.00
86.577 367.00
86.6422 397.00
86.7074 421.00
86.7726 385.00
86.8378 399.00
86.903 359.00
86.9682 349.00
87.0334 346.00
87.0986 361.00
87.1638 361.00
87.229 346.00
87.2942 377.00
87.3594 370.00
87.4246 390.00
87.4898 365.00
87.555 385.00
87.6202 373.00
87.6854 350.00
87.7506 418.00
87.8158 363.00
87.881 384.00
87.9462 388.00
88.0114 435.00
88.0766 422.00
88.1418 418.00
88.207 417.00
88.2722 403.00
88.3374 396.00
88.4026 444.00
88.4678 423.00
88.533 424.00
88.5982 424.00
88.6634 414.00
88.7286 424.00
88.7938 452.00
88.859 442.00
88.9242 468.00
88.9894 422.00
89.0546 427.00
89.1198 420.00
89.185 426.00
89.2502 436.00
89.3154 428.00
89.3806 411.00
89.4458 413.00
89.511 441.00
89.5762 446.00
89.6414 442.00
89.7066 355.00
89.7718 395.00
89.837 400.00
89.9022 431.00
89.9674 405.00
90.0326 411.00
90.0978 414.00
90.163 422.00
90.2282 414.00
90.2934 392.00
90.3586 432.00
90.4238 448.00
90.489 399.00
90.5542 385.00
90.6193 404.00
90.6845 399.00
90.7497 376.00
90.8149 363.00
90.8801 372.00
90.9453 364.00
91.0105 321.00
91.0757 335.00
91.1409 347.00
91.2061 381.00
91.2713 390.00
91.3365 348.00
91.4017 367.00
91.4669 320.00
91.5321 358.00
91.5973 343.00
91.6625 324.00
91.7277 329.00
91.7929 360.00
91.8581 377.00
91.9233 346.00
91.9885 355.00
92.0537 336.00
92.1189 338.00
92.1841 349.00
92.2493 343.00
92.3145 349.00
92.3797 382.00
92.4449 355.00
92.5101 339.00
92.5753 329.00
92.6405 347.00
92.7057 316.00
92.7709 359.00
92.8361 333.00
92.9013 318.00
92.9665 309.00
93.0317 290.00
93.0969 325.00
93.1621 332.00
93.2273 360.00
93.2925 307.00
93.3577 290.00
93.4229 323.00
93.4881 359.00
93.5533 323.00
93.6185 316.00
93.6837 381.00
93.7489 351.00
93.8141 342.00
93.8793 355.00
93.9445 353.00
94.0097 344.00
94.0749 345.00
94.1401 347.00
94.2053 321.00
94.2705 349.00
94.3357 388.00
94.4009 426.00
94.4661 381.00
94.5313 390.00
94.5965 377.00
94.6617 359.00
94.7269 387.00
94.7921 390.00
94.8573 342.00
94.9225 365.00
94.9877 357.00
95.0529 381.00
95.1181 386.00
95.1833 347.00
95.2485 337.00
95.3137 359.00
95.3789 390.00
95.444 396.00
95.5092 391.00
95.5744 373.00
95.6396 381.00
95.7048 413.00
95.77 406.00
95.8352 413.00
95.9004 437.00
95.9656 360.00
96.0308 391.00
96.096 391.00
96.1612 410.00
96.2264 383.00
96.2916 377.00
96.3568 389.00
96.422 409.00
96.4872 413.00
96.5524 387.00
96.6176 370.00
96.6828 440.00
96.748 380.00
96.8132 450.00
96.8784 408.00
96.9436 436.00
97.0088 455.00
97.074 446.00
97.1392 436.00
97.2044 390.00
97.2696 445.00
97.3348 432.00
97.4 455.00
97.4652 424.00
97.5304 404.00
97.5956 484.00
97.6608 472.00
97.726 470.00
97.7912 401.00
97.8564 455.00
97.9216 365.00
97.9868 425.00
98.052 383.00
98.1172 408.00
98.1824 373.00
98.2476 350.00
98.3128 384.00
98.378 383.00
98.4432 370.00
98.5084 382.00
98.5736 393.00
98.6388 403.00
98.704 386.00
98.7692 382.00
98.8344 400.00
98.8996 396.00
98.9648 366.00
99.03 349.00
99.0952 427.00
99.1604 397.00
99.2256 379.00
99.2908 409.00
99.356 417.00
99.4212 370.00
99.4864 430.00
99.5516 425.00
99.6168 402.00
99.682 409.00
99.7472 411.00
99.8124 422.00
99.8776 407.00
99.9428 393.00
100.008 428.00
100.073 421.00
100.095 439.00