File: data/xrd_creation/results/NSC_154.xy
9.903433 2564.00
9.968632 2706.00
10.0338 2517.00
10.099 2450.00
10.1642 2520.00
10.2294 2433.00
10.2946 2449.00
10.3598 2395.00
10.425 2436.00
10.4902 2339.00
10.5554 2242.00
10.6206 2336.00
10.6858 2364.00
10.751 2255.00
10.8162 2207.00
10.8814 2214.00
10.9466 2194.00
11.0118 2162.00
11.077 2107.00
11.1422 2088.00
11.2074 2184.00
11.2726 2065.00
11.3378 2117.00
11.403 1998.00
11.4682 2014.00
11.5334 2070.00
11.5986 2114.00
11.6638 2118.00
11.729 2253.00
11.7942 2199.00
11.8594 2057.00
11.9246 1898.00
11.9898 1867.00
12.055 1904.00
12.1202 1808.00
12.1854 1809.00
12.2506 1757.00
12.3158 1775.00
12.381 1661.00
12.4462 1777.00
12.5114 1738.00
12.5766 1707.00
12.6418 1793.00
12.707 1592.00
12.7722 1734.00
12.8374 1681.00
12.9026 1678.00
12.9678 1622.00
13.033 1684.00
13.0982 1648.00
13.1634 1612.00
13.2286 1581.00
13.2938 1586.00
13.359 1508.00
13.4242 1596.00
13.4894 1531.00
13.5546 1517.00
13.6198 1463.00
13.685 1449.00
13.7502 1505.00
13.8154 1501.00
13.8805 1573.00
13.9457 1588.00
14.0109 1563.00
14.0761 1668.00
14.1413 1606.00
14.2065 1461.00
14.2717 1400.00
14.3369 1356.00
14.4021 1365.00
14.4673 1332.00
14.5325 1438.00
14.5977 1408.00
14.6629 1378.00
14.7281 1376.00
14.7933 1358.00
14.8585 1306.00
14.9237 1428.00
14.9889 1358.00
15.0541 1312.00
15.1193 1308.00
15.1845 1295.00
15.2497 1303.00
15.3149 1348.00
15.3801 1319.00
15.4453 1249.00
15.5105 1295.00
15.5757 1235.00
15.6409 1379.00
15.7061 1256.00
15.7713 1230.00
15.8365 1250.00
15.9017 1223.00
15.9669 1261.00
16.0321 1201.00
16.0973 1307.00
16.1625 1245.00
16.2277 1199.00
16.2929 1281.00
16.3581 1216.00
16.4233 1211.00
16.4885 1193.00
16.5537 1188.00
16.6189 1223.00
16.6841 1217.00
16.7493 1116.00
16.8145 1202.00
16.8797 1118.00
16.9449 1109.00
17.0101 1200.00
17.0753 1132.00
17.1405 1181.00
17.2057 1145.00
17.2709 1148.00
17.3361 1121.00
17.4013 1091.00
17.4665 1061.00
17.5317 1070.00
17.5969 1104.00
17.6621 1065.00
17.7273 1165.00
17.7925 1071.00
17.8577 1114.00
17.9229 1108.00
17.9881 1079.00
18.0533 1067.00
18.1185 1060.00
18.1837 1065.00
18.2489 1017.00
18.3141 1044.00
18.3793 1001.00
18.4445 1073.00
18.5097 1057.00
18.5749 944.00
18.6401 992.00
18.7052 1027.00
18.7704 1100.00
18.8356 1028.00
18.9008 983.00
18.966 1022.00
19.0312 977.00
19.0964 1003.00
19.1616 951.00
19.2268 958.00
19.292 890.00
19.3572 957.00
19.4224 979.00
19.4876 928.00
19.5528 1002.00
19.618 971.00
19.6832 946.00
19.7484 900.00
19.8136 899.00
19.8788 960.00
19.944 898.00
20.0092 919.00
20.0744 955.00
20.1396 927.00
20.2048 941.00
20.27 887.00
20.3352 909.00
20.4004 891.00
20.4656 860.00
20.5308 834.00
20.596 848.00
20.6612 893.00
20.7264 910.00
20.7916 889.00
20.8568 886.00
20.922 898.00
20.9872 862.00
21.0524 918.00
21.1176 856.00
21.1828 903.00
21.248 876.00
21.3132 876.00
21.3784 844.00
21.4436 903.00
21.5088 835.00
21.574 851.00
21.6392 870.00
21.7044 833.00
21.7696 869.00
21.8348 822.00
21.9 862.00
21.9652 866.00
22.0304 799.00
22.0956 828.00
22.1608 765.00
22.226 821.00
22.2912 807.00
22.3564 794.00
22.4216 783.00
22.4868 774.00
22.552 801.00
22.6172 792.00
22.6824 799.00
22.7476 770.00
22.8128 772.00
22.878 814.00
22.9432 778.00
23.0084 727.00
23.0736 776.00
23.1388 759.00
23.204 739.00
23.2692 699.00
23.3344 768.00
23.3996 766.00
23.4647 737.00
23.5299 740.00
23.5951 779.00
23.6603 757.00
23.7255 794.00
23.7907 797.00
23.8559 786.00
23.9211 668.00
23.9863 690.00
24.0515 695.00
24.1167 785.00
24.1819 743.00
24.2471 734.00
24.3123 741.00
24.3775 870.00
24.4427 790.00
24.5079 766.00
24.5731 774.00
24.6383 704.00
24.7035 731.00
24.7687 769.00
24.8339 671.00
24.8991 724.00
24.9643 659.00
25.0295 649.00
25.0947 721.00
25.1599 662.00
25.2251 721.00
25.2903 694.00
25.3555 685.00
25.4207 675.00
25.4859 726.00
25.5511 661.00
25.6163 722.00
25.6815 764.00
25.7467 722.00
25.8119 686.00
25.8771 648.00
25.9423 652.00
26.0075 683.00
26.0727 669.00
26.1379 640.00
26.2031 640.00
26.2683 689.00
26.3335 645.00
26.3987 644.00
26.4639 618.00
26.5291 632.00
26.5943 656.00
26.6595 652.00
26.7247 671.00
26.7899 641.00
26.8551 674.00
26.9203 640.00
26.9855 671.00
27.0507 629.00
27.1159 656.00
27.1811 634.00
27.2463 681.00
27.3115 553.00
27.3767 665.00
27.4419 573.00
27.5071 642.00
27.5723 632.00
27.6375 647.00
27.7027 619.00
27.7679 577.00
27.8331 671.00
27.8983 596.00
27.9635 598.00
28.0287 578.00
28.0939 605.00
28.1591 613.00
28.2243 608.00
28.2894 611.00
28.3546 625.00
28.4198 591.00
28.485 594.00
28.5502 572.00
28.6154 610.00
28.6806 572.00
28.7458 596.00
28.811 596.00
28.8762 621.00
28.9414 591.00
29.0066 558.00
29.0718 604.00
29.137 588.00
29.2022 616.00
29.2674 581.00
29.3326 590.00
29.3978 554.00
29.463 574.00
29.5282 611.00
29.5934 632.00
29.6586 605.00
29.7238 668.00
29.789 644.00
29.8542 660.00
29.9194 668.00
29.9846 782.00
30.0498 898.00
30.115 761.00
30.1802 643.00
30.2454 581.00
30.3106 582.00
30.3758 642.00
30.441 574.00
30.5062 702.00
30.5714 639.00
30.6366 594.00
30.7018 593.00
30.767 568.00
30.8322 557.00
30.8974 572.00
30.9626 574.00
31.0278 499.00
31.093 515.00
31.1582 555.00
31.2234 576.00
31.2886 567.00
31.3538 482.00
31.419 534.00
31.4842 557.00
31.5494 523.00
31.6146 519.00
31.6798 532.00
31.745 547.00
31.8102 557.00
31.8754 533.00
31.9406 567.00
32.0058 547.00
32.071 515.00
32.1362 532.00
32.2014 541.00
32.2666 530.00
32.3318 514.00
32.397 546.00
32.4622 509.00
32.5274 516.00
32.5926 495.00
32.6578 462.00
32.723 499.00
32.7882 505.00
32.8534 539.00
32.9186 525.00
32.9838 511.00
33.0489 476.00
33.1141 522.00
33.1793 515.00
33.2445 568.00
33.3097 654.00
33.3749 627.00
33.4401 599.00
33.5053 494.00
33.5705 527.00
33.6357 496.00
33.7009 492.00
33.7661 507.00
33.8313 466.00
33.8965 482.00
33.9617 446.00
34.0269 469.00
34.0921 475.00
34.1573 513.00
34.2225 497.00
34.2877 452.00
34.3529 478.00
34.4181 488.00
34.4833 440.00
34.5485 420.00
34.6137 451.00
34.6789 474.00
34.7441 447.00
34.8093 486.00
34.8745 428.00
34.9397 456.00
35.0049 449.00
35.0701 417.00
35.1353 419.00
35.2005 449.00
35.2657 481.00
35.3309 433.00
35.3961 478.00
35.4613 418.00
35.5265 453.00
35.5917 430.00
35.6569 433.00
35.7221 452.00
35.7873 476.00
35.8525 468.00
35.9177 419.00
35.9829 454.00
36.0481 465.00
36.1133 376.00
36.1785 407.00
36.2437 426.00
36.3089 412.00
36.3741 397.00
36.4393 395.00
36.5045 436.00
36.5697 433.00
36.6349 404.00
36.7001 393.00
36.7653 427.00
36.8305 395.00
36.8957 386.00
36.9609 384.00
37.0261 417.00
37.0913 415.00
37.1565 412.00
37.2217 440.00
37.2869 373.00
37.3521 367.00
37.4173 390.00
37.4825 386.00
37.5477 403.00
37.6129 366.00
37.6781 357.00
37.7433 406.00
37.8085 365.00
37.8736 383.00
37.9388 402.00
38.004 390.00
38.0692 385.00
38.1344 412.00
38.1996 446.00
38.2648 355.00
38.33 402.00
38.3952 358.00
38.4604 414.00
38.5256 372.00
38.5908 425.00
38.656 387.00
38.7212 389.00
38.7864 332.00
38.8516 356.00
38.9168 375.00
38.982 371.00
39.0472 376.00
39.1124 384.00
39.1776 374.00
39.2428 350.00
39.308 333.00
39.3732 362.00
39.4384 369.00
39.5036 386.00
39.5688 325.00
39.634 299.00
39.6992 366.00
39.7644 358.00
39.8296 359.00
39.8948 325.00
39.96 357.00
40.0252 367.00
40.0904 325.00
40.1556 392.00
40.2208 358.00
40.286 359.00
40.3512 331.00
40.4164 359.00
40.4816 335.00
40.5468 367.00
40.612 347.00
40.6772 336.00
40.7424 347.00
40.8076 329.00
40.8728 394.00
40.938 337.00
41.0032 350.00
41.0684 344.00
41.1336 360.00
41.1988 310.00
41.264 323.00
41.3292 361.00
41.3944 336.00
41.4596 332.00
41.5248 334.00
41.59 321.00
41.6552 378.00
41.7204 326.00
41.7856 321.00
41.8508 337.00
41.916 356.00
41.9812 309.00
42.0464 310.00
42.1116 312.00
42.1768 335.00
42.242 298.00
42.3072 292.00
42.3724 345.00
42.4376 294.00
42.5028 326.00
42.568 331.00
42.6332 317.00
42.6983 302.00
42.7635 312.00
42.8287 330.00
42.8939 375.00
42.9591 317.00
43.0243 323.00
43.0895 327.00
43.1547 382.00
43.2199 384.00
43.2851 409.00
43.3503 376.00
43.4155 357.00
43.4807 355.00
43.5459 369.00
43.6111 351.00
43.6763 345.00
43.7415 344.00
43.8067 352.00
43.8719 350.00
43.9371 330.00
44.0023 362.00
44.0675 380.00
44.1327 372.00
44.1979 340.00
44.2631 384.00
44.3283 317.00
44.3935 326.00
44.4587 371.00
44.5239 328.00
44.5891 340.00
44.6543 299.00
44.7195 313.00
44.7847 322.00
44.8499 316.00
44.9151 314.00
44.9803 310.00
45.0455 292.00
45.1107 325.00
45.1759 301.00
45.2411 297.00
45.3063 281.00
45.3715 302.00
45.4367 300.00
45.5019 296.00
45.5671 302.00
45.6323 297.00
45.6975 275.00
45.7627 328.00
45.8279 282.00
45.8931 310.00
45.9583 317.00
46.0235 286.00
46.0887 272.00
46.1539 283.00
46.2191 298.00
46.2843 281.00
46.3495 280.00
46.4147 293.00
46.4799 323.00
46.5451 268.00
46.6103 328.00
46.6755 291.00
46.7407 318.00
46.8059 282.00
46.8711 294.00
46.9363 294.00
47.0015 333.00
47.0667 249.00
47.1319 270.00
47.1971 297.00
47.2623 273.00
47.3275 257.00
47.3927 275.00
47.4579 301.00
47.523 315.00
47.5882 274.00
47.6534 299.00
47.7186 285.00
47.7838 318.00
47.849 276.00
47.9142 323.00
47.9794 269.00
48.0446 301.00
48.1098 303.00
48.175 305.00
48.2402 330.00
48.3054 294.00
48.3706 302.00
48.4358 312.00
48.501 386.00
48.5662 341.00
48.6314 305.00
48.6966 325.00
48.7618 261.00
48.827 277.00
48.8922 302.00
48.9574 260.00
49.0226 284.00
49.0878 279.00
49.153 272.00
49.2182 291.00
49.2834 298.00
49.3486 260.00
49.4138 269.00
49.479 272.00
49.5442 246.00
49.6094 290.00
49.6746 239.00
49.7398 271.00
49.805 277.00
49.8702 319.00
49.9354 297.00
50.0006 286.00
50.0658 311.00
50.131 332.00
50.1962 278.00
50.2614 277.00
50.3266 276.00
50.3918 273.00
50.457 273.00
50.5222 289.00
50.5874 274.00
50.6526 224.00
50.7178 298.00
50.783 265.00
50.8482 262.00
50.9134 269.00
50.9786 270.00
51.0438 305.00
51.109 258.00
51.1742 259.00
51.2394 231.00
51.3046 288.00
51.3698 273.00
51.435 266.00
51.5002 274.00
51.5654 259.00
51.6306 288.00
51.6958 301.00
51.761 278.00
51.8262 268.00
51.8914 298.00
51.9566 259.00
52.0218 264.00
52.087 286.00
52.1522 263.00
52.2174 277.00
52.2826 243.00
52.3477 276.00
52.4129 258.00
52.4781 264.00
52.5433 241.00
52.6085 280.00
52.6737 308.00
52.7389 301.00
52.8041 270.00
52.8693 263.00
52.9345 257.00
52.9997 264.00
53.0649 229.00
53.1301 238.00
53.1953 229.00
53.2605 266.00
53.3257 256.00
53.3909 269.00
53.4561 228.00
53.5213 234.00
53.5865 230.00
53.6517 258.00
53.7169 236.00
53.7821 300.00
53.8473 263.00
53.9125 247.00
53.9777 270.00
54.0429 239.00
54.1081 225.00
54.1733 248.00
54.2385 226.00
54.3037 237.00
54.3689 228.00
54.4341 264.00
54.4993 233.00
54.5645 217.00
54.6297 256.00
54.6949 230.00
54.7601 229.00
54.8253 229.00
54.8905 245.00
54.9557 228.00
55.0209 209.00
55.0861 243.00
55.1513 243.00
55.2165 262.00
55.2817 231.00
55.3469 261.00
55.4121 242.00
55.4773 266.00
55.5425 237.00
55.6077 202.00
55.6729 243.00
55.7381 218.00
55.8033 260.00
55.8685 217.00
55.9337 242.00
55.9989 231.00
56.0641 281.00
56.1293 274.00
56.1945 226.00
56.2597 238.00
56.3249 227.00
56.3901 241.00
56.4553 241.00
56.5205 227.00
56.5857 246.00
56.6509 223.00
56.7161 225.00
56.7813 234.00
56.8465 234.00
56.9117 245.00
56.9769 228.00
57.042 198.00
57.1073 237.00
57.1724 206.00
57.2376 200.00
57.3028 218.00
57.368 229.00
57.4332 202.00
57.4984 226.00
57.5636 203.00
57.6288 224.00
57.694 227.00
57.7592 198.00
57.8244 227.00
57.8896 235.00
57.9548 266.00
58.02 206.00
58.0852 211.00
58.1504 233.00
58.2156 225.00
58.2808 225.00
58.346 206.00
58.4112 219.00
58.4764 218.00
58.5416 227.00
58.6068 225.00
58.672 220.00
58.7372 219.00
58.8024 213.00
58.8676 210.00
58.9328 233.00
58.998 194.00
59.0632 237.00
59.1284 214.00
59.1936 222.00
59.2588 230.00
59.324 211.00
59.3892 202.00
59.4544 200.00
59.5196 219.00
59.5848 227.00
59.65 215.00
59.7152 239.00
59.7804 213.00
59.8456 213.00
59.9108 206.00
59.976 242.00
60.0412 247.00
60.1064 224.00
60.1716 243.00
60.2368 238.00
60.302 233.00
60.3672 221.00
60.4324 235.00
60.4976 227.00
60.5628 216.00
60.628 216.00
60.6932 208.00
60.7584 209.00
60.8236 207.00
60.8888 222.00
60.954 229.00
61.0192 217.00
61.0844 229.00
61.1496 187.00
61.2148 219.00
61.28 227.00
61.3452 207.00
61.4104 227.00
61.4756 233.00
61.5408 225.00
61.606 198.00
61.6712 227.00
61.7364 217.00
61.8016 225.00
61.8667 227.00
61.932 195.00
61.9971 196.00
62.0623 208.00
62.1275 194.00
62.1927 203.00
62.2579 201.00
62.3231 233.00
62.3883 212.00
62.4535 221.00
62.5187 229.00
62.5839 242.00
62.6491 183.00
62.7143 204.00
62.7795 207.00
62.8447 184.00
62.9099 228.00
62.9751 208.00
63.0403 181.00
63.1055 188.00
63.1707 222.00
63.2359 200.00
63.3011 203.00
63.3663 204.00
63.4315 217.00
63.4967 203.00
63.5619 203.00
63.6271 193.00
63.6923 203.00
63.7575 210.00
63.8227 213.00
63.8879 220.00
63.9531 208.00
64.0183 205.00
64.0835 210.00
64.1487 202.00
64.2139 192.00
64.2791 198.00
64.3443 192.00
64.4095 176.00
64.4747 181.00
64.5399 218.00
64.6051 191.00
64.6703 203.00
64.7355 213.00
64.8007 225.00
64.8659 182.00
64.9311 180.00
64.9963 200.00
65.0615 184.00
65.1267 193.00
65.1919 174.00
65.2571 181.00
65.3223 204.00
65.3875 179.00
65.4527 184.00
65.5179 182.00
65.5831 193.00
65.6483 184.00
65.7135 188.00
65.7787 191.00
65.8439 213.00
65.9091 196.00
65.9743 183.00
66.0395 237.00
66.1047 185.00
66.1699 229.00
66.2351 207.00
66.3003 218.00
66.3655 185.00
66.4307 209.00
66.4959 217.00
66.561 181.00
66.6263 208.00
66.6915 202.00
66.7566 260.00
66.8218 190.00
66.887 218.00
66.9522 198.00
67.0174 234.00
67.0826 183.00
67.1478 206.00
67.213 186.00
67.2782 202.00
67.3434 221.00
67.4086 205.00
67.4738 181.00
67.539 197.00
67.6042 181.00
67.6694 211.00
67.7346 227.00
67.7998 187.00
67.865 207.00
67.9302 199.00
67.9954 219.00
68.0606 217.00
68.1258 210.00
68.191 199.00
68.2562 180.00
68.3214 172.00
68.3866 223.00
68.4518 188.00
68.517 180.00
68.5822 193.00
68.6474 201.00
68.7126 204.00
68.7778 202.00
68.843 202.00
68.9082 210.00
68.9734 177.00
69.0386 151.00
69.1038 181.00
69.169 183.00
69.2342 190.00
69.2994 191.00
69.3646 169.00
69.4298 173.00
69.495 228.00
69.5602 212.00
69.6254 194.00
69.6906 198.00
69.7558 193.00
69.821 189.00
69.8862 171.00
69.9514 190.00
70.0166 201.00
70.0818 205.00
70.147 206.00
70.2122 195.00
70.2774 205.00
70.3426 193.00
70.4078 205.00
70.473 202.00
70.5382 171.00
70.6034 201.00
70.6686 183.00
70.7338 195.00
70.799 183.00
70.8642 190.00
70.9294 194.00
70.9946 185.00
71.0598 205.00
71.125 200.00
71.1902 213.00
71.2554 193.00
71.3205 196.00
71.3858 178.00
71.451 207.00
71.5162 193.00
71.5813 180.00
71.6465 172.00
71.7117 212.00
71.7769 169.00
71.8421 210.00
71.9073 186.00
71.9725 167.00
72.0377 214.00
72.1029 191.00
72.1681 204.00
72.2333 176.00
72.2985 203.00
72.3637 213.00
72.4289 195.00
72.4941 180.00
72.5593 198.00
72.6245 200.00
72.6897 220.00
72.7549 215.00
72.8201 201.00
72.8853 199.00
72.9505 164.00
73.0157 202.00
73.0809 201.00
73.1461 205.00
73.2113 173.00
73.2765 187.00
73.3417 214.00
73.4069 214.00
73.4721 184.00
73.5373 216.00
73.6025 192.00
73.6677 185.00
73.7329 233.00
73.7981 177.00
73.8633 203.00
73.9285 200.00
73.9937 226.00
74.0589 197.00
74.1241 225.00
74.1893 194.00
74.2545 183.00
74.3197 186.00
74.3849 211.00
74.4501 217.00
74.5153 172.00
74.5805 193.00
74.6457 218.00
74.7109 187.00
74.7761 194.00
74.8413 192.00
74.9065 206.00
74.9717 175.00
75.0369 203.00
75.1021 230.00
75.1673 222.00
75.2325 199.00
75.2977 209.00
75.3629 194.00
75.4281 169.00
75.4933 200.00
75.5585 183.00
75.6237 218.00
75.6889 223.00
75.7541 222.00
75.8193 211.00
75.8845 184.00
75.9497 189.00
76.0149 204.00
76.0801 191.00
76.1452 224.00
76.2104 190.00
76.2756 207.00
76.3409 207.00
76.406 191.00
76.4712 228.00
76.5364 223.00
76.6016 204.00
76.6668 233.00
76.732 209.00
76.7972 213.00
76.8624 194.00
76.9276 206.00
76.9928 200.00
77.058 198.00
77.1232 187.00
77.1884 228.00
77.2536 224.00
77.3188 206.00
77.384 212.00
77.4492 224.00
77.5144 214.00
77.5796 183.00
77.6448 213.00
77.71 216.00
77.7752 179.00
77.8404 227.00
77.9056 205.00
77.9708 205.00
78.036 210.00
78.1012 207.00
78.1664 229.00
78.2316 217.00
78.2968 247.00
78.362 220.00
78.4272 198.00
78.4924 201.00
78.5576 222.00
78.6228 201.00
78.688 219.00
78.7532 214.00
78.8184 213.00
78.8836 187.00
78.9488 209.00
79.014 216.00
79.0792 202.00
79.1444 217.00
79.2096 186.00
79.2748 232.00
79.34 246.00
79.4052 215.00
79.4704 258.00
79.5356 223.00
79.6008 217.00
79.666 249.00
79.7312 209.00
79.7964 212.00
79.8616 221.00
79.9268 221.00
79.992 198.00
80.0572 224.00
80.1224 197.00
80.1876 212.00
80.2528 241.00
80.318 243.00
80.3832 217.00
80.4484 206.00
80.5136 211.00
80.5788 199.00
80.644 225.00
80.7092 239.00
80.7744 223.00
80.8396 214.00
80.9048 219.00
80.9699 192.00
81.0351 218.00
81.1003 248.00
81.1655 250.00
81.2307 235.00
81.2959 224.00
81.3611 213.00
81.4263 189.00
81.4915 202.00
81.5567 213.00
81.6219 229.00
81.6871 274.00
81.7523 230.00
81.8175 196.00
81.8827 203.00
81.9479 212.00
82.0131 226.00
82.0783 237.00
82.1435 206.00
82.2087 231.00
82.2739 212.00
82.3391 215.00
82.4043 205.00
82.4695 203.00
82.5347 208.00
82.5999 223.00
82.6651 220.00
82.7303 225.00
82.7955 211.00
82.8607 213.00
82.9259 212.00
82.9911 228.00
83.0563 224.00
83.1215 243.00
83.1867 215.00
83.2519 235.00
83.3171 225.00
83.3823 212.00
83.4475 225.00
83.5127 230.00
83.5779 201.00
83.6431 194.00
83.7083 216.00
83.7735 214.00
83.8387 225.00
83.9039 221.00
83.9691 211.00
84.0343 183.00
84.0995 225.00
84.1647 232.00
84.2299 215.00
84.2951 225.00
84.3603 206.00
84.4255 182.00
84.4907 225.00
84.5559 172.00
84.6211 203.00
84.6863 217.00
84.7515 213.00
84.8167 219.00
84.8819 190.00
84.9471 223.00
85.0123 229.00
85.0775 236.00
85.1427 193.00
85.2079 215.00
85.2731 220.00
85.3383 216.00
85.4035 216.00
85.4687 205.00
85.5339 193.00
85.5991 208.00
85.6643 183.00
85.7295 189.00
85.7946 221.00
85.8598 185.00
85.925 191.00
85.9903 214.00
86.0554 206.00
86.1206 195.00
86.1858 188.00
86.251 179.00
86.3162 172.00
86.3814 181.00
86.4466 193.00
86.5118 203.00
86.577 206.00
86.6422 204.00
86.7074 182.00
86.7726 222.00
86.8378 160.00
86.903 208.00
86.9682 205.00
87.0334 171.00
87.0986 185.00
87.1638 175.00
87.229 200.00
87.2942 187.00
87.3594 193.00
87.4246 177.00
87.4898 190.00
87.555 197.00
87.6202 193.00
87.6854 176.00
87.7506 203.00
87.8158 198.00
87.881 186.00
87.9462 192.00
88.0114 207.00
88.0766 191.00
88.1418 209.00
88.207 184.00
88.2722 226.00
88.3374 177.00
88.4026 178.00
88.4678 226.00
88.533 191.00
88.5982 175.00
88.6634 208.00
88.7286 185.00
88.7938 203.00
88.859 213.00
88.9242 200.00
88.9894 180.00
89.0546 211.00
89.1198 192.00
89.185 183.00
89.2502 180.00
89.3154 187.00
89.3806 177.00
89.4458 181.00
89.511 195.00
89.5762 199.00
89.6414 196.00
89.7066 198.00
89.7718 181.00
89.837 196.00
89.9022 178.00
89.9674 195.00
90.0326 200.00
90.0978 198.00
90.163 186.00
90.2282 178.00
90.2934 188.00
90.3586 194.00
90.4238 177.00
90.489 168.00
90.5542 180.00
90.6193 181.00
90.6845 172.00
90.7497 172.00
90.8149 188.00
90.8801 181.00
90.9453 162.00
91.0105 177.00
91.0757 187.00
91.1409 191.00
91.2061 170.00
91.2713 196.00
91.3365 183.00
91.4017 197.00
91.4669 185.00
91.5321 163.00
91.5973 217.00
91.6625 162.00
91.7277 164.00
91.7929 181.00
91.8581 198.00
91.9233 162.00
91.9885 190.00
92.0537 192.00
92.1189 186.00
92.1841 181.00
92.2493 191.00
92.3145 166.00
92.3797 179.00
92.4449 206.00
92.5101 209.00
92.5753 163.00
92.6405 175.00
92.7057 181.00
92.7709 187.00
92.8361 160.00
92.9013 185.00
92.9665 193.00
93.0317 178.00
93.0969 174.00
93.1621 177.00
93.2273 176.00
93.2925 161.00
93.3577 170.00
93.4229 196.00
93.4881 179.00
93.5533 171.00
93.6185 168.00
93.6837 186.00
93.7489 185.00
93.8141 187.00
93.8793 200.00
93.9445 186.00
94.0097 147.00
94.0749 190.00
94.1401 209.00
94.2053 180.00
94.2705 169.00
94.3357 192.00
94.4009 176.00
94.4661 196.00
94.5313 173.00
94.5965 190.00
94.6617 193.00
94.7269 189.00
94.7921 224.00
94.8573 182.00
94.9225 191.00
94.9877 169.00
95.0529 180.00
95.1181 181.00
95.1833 187.00
95.2485 170.00
95.3137 169.00
95.3789 159.00
95.444 179.00
95.5092 180.00
95.5744 201.00
95.6396 180.00
95.7048 155.00
95.77 183.00
95.8352 151.00
95.9004 199.00
95.9656 188.00
96.0308 181.00
96.096 204.00
96.1612 178.00
96.2264 195.00
96.2916 187.00
96.3568 184.00
96.422 180.00
96.4872 169.00
96.5524 199.00
96.6176 174.00
96.6828 160.00
96.748 187.00
96.8132 190.00
96.8784 181.00
96.9436 172.00
97.0088 186.00
97.074 185.00
97.1392 180.00
97.2044 177.00
97.2696 194.00
97.3348 190.00
97.4 151.00
97.4652 176.00
97.5304 190.00
97.5956 182.00
97.6608 187.00
97.726 173.00
97.7912 185.00
97.8564 177.00
97.9216 177.00
97.9868 176.00
98.052 179.00
98.1172 184.00
98.1824 191.00
98.2476 175.00
98.3128 200.00
98.378 173.00
98.4432 170.00
98.5084 178.00
98.5736 170.00
98.6388 187.00
98.704 184.00
98.7692 170.00
98.8344 170.00
98.8996 194.00
98.9648 200.00
99.03 189.00
99.0952 171.00
99.1604 178.00
99.2256 192.00
99.2908 161.00
99.356 162.00
99.4212 195.00
99.4864 182.00
99.5516 175.00
99.6168 170.00
99.682 193.00
99.7472 179.00
99.8124 178.00
99.8776 160.00
99.9428 206.00
100.008 172.00
100.073 183.00
100.095 190.00