File: data/xrd_creation/results/NSC_32.xy
9.903433 2998.00
9.968632 3060.00
10.0338 2962.00
10.099 2828.00
10.1642 2966.00
10.2294 3006.00
10.2946 2884.00
10.3598 2882.00
10.425 2930.00
10.4902 2887.00
10.5554 2797.00
10.6206 2778.00
10.6858 2886.00
10.751 2731.00
10.8162 2711.00
10.8814 2786.00
10.9466 2703.00
11.0118 2776.00
11.077 2708.00
11.1422 2658.00
11.2074 2540.00
11.2726 2643.00
11.3378 2678.00
11.403 2703.00
11.4682 2553.00
11.5334 2628.00
11.5986 2513.00
11.6638 2631.00
11.729 2601.00
11.7942 2587.00
11.8594 2702.00
11.9246 2642.00
11.9898 2661.00
12.055 2692.00
12.1202 2670.00
12.1854 2554.00
12.2506 2464.00
12.3158 2439.00
12.381 2374.00
12.4462 2351.00
12.5114 2412.00
12.5766 2314.00
12.6418 2371.00
12.707 2401.00
12.7722 2320.00
12.8374 2436.00
12.9026 2333.00
12.9678 2336.00
13.033 2314.00
13.0982 2317.00
13.1634 2332.00
13.2286 2317.00
13.2938 2336.00
13.359 2341.00
13.4242 2383.00
13.4894 2583.00
13.5546 2558.00
13.6198 2816.00
13.685 2788.00
13.7502 2899.00
13.8154 2774.00
13.8805 2613.00
13.9457 2276.00
14.0109 2288.00
14.0761 2268.00
14.1413 2244.00
14.2065 2348.00
14.2717 2240.00
14.3369 2245.00
14.4021 2377.00
14.4673 2371.00
14.5325 2426.00
14.5977 2566.00
14.6629 2500.00
14.7281 2395.00
14.7933 2370.00
14.8585 2254.00
14.9237 2242.00
14.9889 2257.00
15.0541 2231.00
15.1193 2202.00
15.1845 2227.00
15.2497 2301.00
15.3149 2264.00
15.3801 2214.00
15.4453 2260.00
15.5105 2114.00
15.5757 2191.00
15.6409 2120.00
15.7061 2154.00
15.7713 2202.00
15.8365 2134.00
15.9017 2154.00
15.9669 2114.00
16.0321 2156.00
16.0973 2060.00
16.1625 2104.00
16.2277 2078.00
16.2929 2091.00
16.3581 2184.00
16.4233 2149.00
16.4885 2131.00
16.5537 2183.00
16.6189 2175.00
16.6841 2221.00
16.7493 2200.00
16.8145 2325.00
16.8797 2326.00
16.9449 2240.00
17.0101 2129.00
17.0753 2147.00
17.1405 2235.00
17.2057 2110.00
17.2709 2092.00
17.3361 2162.00
17.4013 2212.00
17.4665 2167.00
17.5317 2103.00
17.5969 2126.00
17.6621 2103.00
17.7273 2048.00
17.7925 1946.00
17.8577 2070.00
17.9229 2016.00
17.9881 2025.00
18.0533 2031.00
18.1185 1974.00
18.1837 2050.00
18.2489 2016.00
18.3141 2009.00
18.3793 1977.00
18.4445 2010.00
18.5097 2002.00
18.5749 2020.00
18.6401 1976.00
18.7052 2024.00
18.7704 2034.00
18.8356 2121.00
18.9008 2098.00
18.966 2305.00
19.0312 2498.00
19.0964 2946.00
19.1616 3797.00
19.2268 4868.00
19.292 6508.00
19.3572 8113.00
19.4224 8635.00
19.4876 8204.00
19.5528 6899.00
19.618 5285.00
19.6832 3498.00
19.7484 2513.00
19.8136 2206.00
19.8788 2051.00
19.944 1969.00
20.0092 1946.00
20.0744 1920.00
20.1396 1800.00
20.2048 1927.00
20.27 1971.00
20.3352 1868.00
20.4004 1892.00
20.4656 1929.00
20.5308 1950.00
20.596 2014.00
20.6612 2077.00
20.7264 2004.00
20.7916 1935.00
20.8568 1935.00
20.922 1844.00
20.9872 1869.00
21.0524 1892.00
21.1176 1842.00
21.1828 1868.00
21.248 1989.00
21.3132 1914.00
21.3784 1858.00
21.4436 1872.00
21.5088 1890.00
21.574 1857.00
21.6392 1853.00
21.7044 1853.00
21.7696 1918.00
21.8348 1917.00
21.9 1800.00
21.9652 1763.00
22.0304 1836.00
22.0956 1775.00
22.1608 1900.00
22.226 1862.00
22.2912 2020.00
22.3564 2161.00
22.4216 2184.00
22.4868 2472.00
22.552 2683.00
22.6172 2912.00
22.6824 3141.00
22.7476 3493.00
22.8128 3515.00
22.878 3155.00
22.9432 2514.00
23.0084 2091.00
23.0736 1842.00
23.1388 1842.00
23.204 1780.00
23.2692 1787.00
23.3344 1751.00
23.3996 1776.00
23.4647 1816.00
23.5299 1787.00
23.5951 1852.00
23.6603 1876.00
23.7255 1929.00
23.7907 2071.00
23.8559 2039.00
23.9211 2118.00
23.9863 2154.00
24.0515 2299.00
24.1167 2337.00
24.1819 2438.00
24.2471 2245.00
24.3123 2053.00
24.3775 1945.00
24.4427 2056.00
24.5079 2018.00
24.5731 2033.00
24.6383 1981.00
24.7035 1892.00
24.7687 1794.00
24.8339 1776.00
24.8991 1680.00
24.9643 1703.00
25.0295 1675.00
25.0947 1681.00
25.1599 1605.00
25.2251 1782.00
25.2903 1689.00
25.3555 1682.00
25.4207 1674.00
25.4859 1693.00
25.5511 1704.00
25.6163 1704.00
25.6815 1703.00
25.7467 1704.00
25.8119 1664.00
25.8771 1712.00
25.9423 1581.00
26.0075 1706.00
26.0727 1683.00
26.1379 1650.00
26.2031 1647.00
26.2683 1606.00
26.3335 1686.00
26.3987 1690.00
26.4639 1688.00
26.5291 1742.00
26.5943 1845.00
26.6595 1996.00
26.7247 2203.00
26.7899 2369.00
26.8551 2491.00
26.9203 2066.00
26.9855 1885.00
27.0507 1857.00
27.1159 1727.00
27.1811 1904.00
27.2463 1973.00
27.3115 2270.00
27.3767 2588.00
27.4419 2955.00
27.5071 3648.00
27.5723 4123.00
27.6375 4271.00
27.7027 3654.00
27.7679 2650.00
27.8331 2215.00
27.8983 2118.00
27.9635 2342.00
28.0287 2775.00
28.0939 3365.00
28.1591 4300.00
28.2243 4672.00
28.2894 4593.00
28.3546 3787.00
28.4198 2930.00
28.485 2212.00
28.5502 1956.00
28.6154 1769.00
28.6806 1666.00
28.7458 1578.00
28.811 1673.00
28.8762 1617.00
28.9414 1606.00
29.0066 1631.00
29.0718 1614.00
29.137 1570.00
29.2022 1583.00
29.2674 1637.00
29.3326 1593.00
29.3978 1645.00
29.463 1659.00
29.5282 1669.00
29.5934 1669.00
29.6586 1637.00
29.7238 1719.00
29.789 1858.00
29.8542 2183.00
29.9194 2500.00
29.9846 2866.00
30.0498 2810.00
30.115 2689.00
30.1802 2120.00
30.2454 1879.00
30.3106 1669.00
30.3758 1695.00
30.441 1832.00
30.5062 1765.00
30.5714 1842.00
30.6366 1857.00
30.7018 2216.00
30.767 2834.00
30.8322 3878.00
30.8974 5318.00
30.9626 7266.00
31.0278 8701.00
31.093 8299.00
31.1582 6433.00
31.2234 4227.00
31.2886 3136.00
31.3538 3168.00
31.419 3520.00
31.4842 3711.00
31.5494 3551.00
31.6146 3049.00
31.6798 2476.00
31.745 2096.00
31.8102 1806.00
31.8754 1592.00
31.9406 1508.00
32.0058 1550.00
32.071 1585.00
32.1362 1487.00
32.2014 1551.00
32.2666 1529.00
32.3318 1656.00
32.397 1565.00
32.4622 1647.00
32.5274 1632.00
32.5926 1559.00
32.6578 1605.00
32.723 1544.00
32.7882 1522.00
32.8534 1634.00
32.9186 1648.00
32.9838 1691.00
33.0489 1841.00
33.1141 1861.00
33.1793 1844.00
33.2445 1799.00
33.3097 1689.00
33.3749 1727.00
33.4401 1772.00
33.5053 1875.00
33.5705 2280.00
33.6357 3013.00
33.7009 4456.00
33.7661 6261.00
33.8313 7854.00
33.8965 8137.00
33.9617 6856.00
34.0269 5535.00
34.0921 4381.00
34.1573 4049.00
34.2225 3990.00
34.2877 3621.00
34.3529 2949.00
34.4181 2410.00
34.4833 2165.00
34.5485 1983.00
34.6137 1933.00
34.6789 1753.00
34.7441 1801.00
34.8093 1924.00
34.8745 1971.00
34.9397 2013.00
35.0049 1876.00
35.0701 1721.00
35.1353 1795.00
35.2005 1870.00
35.2657 1913.00
35.3309 1999.00
35.3961 1876.00
35.4613 1684.00
35.5265 1580.00
35.5917 1502.00
35.6569 1494.00
35.7221 1488.00
35.7873 1419.00
35.8525 1444.00
35.9177 1478.00
35.9829 1426.00
36.0481 1379.00
36.1133 1394.00
36.1785 1345.00
36.2437 1438.00
36.3089 1328.00
36.3741 1309.00
36.4393 1365.00
36.5045 1401.00
36.5697 1381.00
36.6349 1301.00
36.7001 1386.00
36.7653 1381.00
36.8305 1389.00
36.8957 1388.00
36.9609 1326.00
37.0261 1450.00
37.0913 1348.00
37.1565 1449.00
37.2217 1286.00
37.2869 1291.00
37.3521 1291.00
37.4173 1365.00
37.4825 1327.00
37.5477 1307.00
37.6129 1270.00
37.6781 1308.00
37.7433 1346.00
37.8085 1362.00
37.8736 1410.00
37.9388 1385.00
38.004 1370.00
38.0692 1360.00
38.1344 1403.00
38.1996 1329.00
38.2648 1400.00
38.33 1336.00
38.3952 1287.00
38.4604 1395.00
38.5256 1381.00
38.5908 1485.00
38.656 1383.00
38.7212 1376.00
38.7864 1399.00
38.8516 1393.00
38.9168 1344.00
38.982 1298.00
39.0472 1281.00
39.1124 1294.00
39.1776 1399.00
39.2428 1470.00
39.308 1555.00
39.3732 1476.00
39.4384 1573.00
39.5036 1680.00
39.5688 1703.00
39.634 1721.00
39.6992 1617.00
39.7644 1548.00
39.8296 1475.00
39.8948 1292.00
39.96 1273.00
40.0252 1320.00
40.0904 1350.00
40.1556 1365.00
40.2208 1362.00
40.286 1330.00
40.3512 1267.00
40.4164 1335.00
40.4816 1381.00
40.5468 1396.00
40.612 1454.00
40.6772 1552.00
40.7424 1734.00
40.8076 1693.00
40.8728 1775.00
40.938 1780.00
41.0032 1845.00
41.0684 2181.00
41.1336 2374.00
41.1988 2510.00
41.264 2275.00
41.3292 2082.00
41.3944 1825.00
41.4596 1642.00
41.5248 1584.00
41.59 1506.00
41.6552 1426.00
41.7204 1456.00
41.7856 1456.00
41.8508 1537.00
41.916 1623.00
41.9812 1585.00
42.0464 1437.00
42.1116 1350.00
42.1768 1431.00
42.242 1442.00
42.3072 1410.00
42.3724 1393.00
42.4376 1277.00
42.5028 1329.00
42.568 1295.00
42.6332 1322.00
42.6983 1338.00
42.7635 1396.00
42.8287 1398.00
42.8939 1264.00
42.9591 1336.00
43.0243 1241.00
43.0895 1236.00
43.1547 1286.00
43.2199 1254.00
43.2851 1263.00
43.3503 1354.00
43.4155 1194.00
43.4807 1272.00
43.5459 1189.00
43.6111 1299.00
43.6763 1317.00
43.7415 1342.00
43.8067 1308.00
43.8719 1327.00
43.9371 1424.00
44.0023 1658.00
44.0675 2018.00
44.1327 2438.00
44.1979 2746.00
44.2631 2895.00
44.3283 2907.00
44.3935 2963.00
44.4587 2702.00
44.5239 2344.00
44.5891 2013.00
44.6543 1793.00
44.7195 1622.00
44.7847 1525.00
44.8499 1546.00
44.9151 1440.00
44.9803 1376.00
45.0455 1423.00
45.1107 1320.00
45.1759 1318.00
45.2411 1330.00
45.3063 1333.00
45.3715 1342.00
45.4367 1451.00
45.5019 1461.00
45.5671 1414.00
45.6323 1340.00
45.6975 1361.00
45.7627 1413.00
45.8279 1448.00
45.8931 1555.00
45.9583 1553.00
46.0235 1456.00
46.0887 1495.00
46.1539 1479.00
46.2191 1534.00
46.2843 1724.00
46.3495 2170.00
46.4147 2996.00
46.4799 3754.00
46.5451 4383.00
46.6103 4112.00
46.6755 3433.00
46.7407 2633.00
46.8059 2166.00
46.8711 1989.00
46.9363 1685.00
47.0015 1478.00
47.0667 1448.00
47.1319 1273.00
47.1971 1234.00
47.2623 1208.00
47.3275 1225.00
47.3927 1191.00
47.4579 1224.00
47.523 1201.00
47.5882 1226.00
47.6534 1169.00
47.7186 1162.00
47.7838 1164.00
47.849 1130.00
47.9142 1223.00
47.9794 1288.00
48.0446 1221.00
48.1098 1265.00
48.175 1297.00
48.2402 1252.00
48.3054 1265.00
48.3706 1265.00
48.4358 1315.00
48.501 1402.00
48.5662 1367.00
48.6314 1390.00
48.6966 1419.00
48.7618 1576.00
48.827 1511.00
48.8922 1617.00
48.9574 1579.00
49.0226 1657.00
49.0878 1732.00
49.153 1879.00
49.2182 2140.00
49.2834 2236.00
49.3486 2369.00
49.4138 2439.00
49.479 2268.00
49.5442 1987.00
49.6094 1690.00
49.6746 1492.00
49.7398 1324.00
49.805 1321.00
49.8702 1379.00
49.9354 1352.00
50.0006 1494.00
50.0658 1771.00
50.131 2104.00
50.1962 2281.00
50.2614 2293.00
50.3266 2379.00
50.3918 2281.00
50.457 2192.00
50.5222 2032.00
50.5874 1961.00
50.6526 1759.00
50.7178 1757.00
50.783 1798.00
50.8482 1760.00
50.9134 1808.00
50.9786 1936.00
51.0438 2398.00
51.109 2476.00
51.1742 2641.00
51.2394 2403.00
51.3046 2087.00
51.3698 1838.00
51.435 1599.00
51.5002 1419.00
51.5654 1391.00
51.6306 1305.00
51.6958 1252.00
51.761 1237.00
51.8262 1271.00
51.8914 1312.00
51.9566 1189.00
52.0218 1203.00
52.087 1245.00
52.1522 1230.00
52.2174 1196.00
52.2826 1188.00
52.3477 1269.00
52.4129 1286.00
52.4781 1333.00
52.5433 1596.00
52.6085 2061.00
52.6737 2753.00
52.7389 3124.00
52.8041 3196.00
52.8693 3085.00
52.9345 2659.00
52.9997 2218.00
53.0649 1972.00
53.1301 1717.00
53.1953 1477.00
53.2605 1369.00
53.3257 1253.00
53.3909 1256.00
53.4561 1216.00
53.5213 1254.00
53.5865 1303.00
53.6517 1286.00
53.7169 1240.00
53.7821 1283.00
53.8473 1376.00
53.9125 1432.00
53.9777 1451.00
54.0429 1497.00
54.1081 1479.00
54.1733 1480.00
54.2385 1468.00
54.3037 1424.00
54.3689 1381.00
54.4341 1293.00
54.4993 1213.00
54.5645 1185.00
54.6297 1190.00
54.6949 1136.00
54.7601 1099.00
54.8253 1128.00
54.8905 1192.00
54.9557 1147.00
55.0209 1196.00
55.0861 1273.00
55.1513 1297.00
55.2165 1423.00
55.2817 1585.00
55.3469 1645.00
55.4121 1635.00
55.4773 1523.00
55.5425 1551.00
55.6077 1454.00
55.6729 1384.00
55.7381 1344.00
55.8033 1369.00
55.8685 1347.00
55.9337 1400.00
55.9989 1352.00
56.0641 1382.00
56.1293 1303.00
56.1945 1358.00
56.2597 1220.00
56.3249 1255.00
56.3901 1186.00
56.4553 1204.00
56.5205 1220.00
56.5857 1242.00
56.6509 1236.00
56.7161 1321.00
56.7813 1313.00
56.8465 1402.00
56.9117 1517.00
56.9769 1509.00
57.042 1534.00
57.1073 1521.00
57.1724 1489.00
57.2376 1535.00
57.3028 1465.00
57.368 1427.00
57.4332 1329.00
57.4984 1431.00
57.5636 1342.00
57.6288 1278.00
57.694 1298.00
57.7592 1228.00
57.8244 1272.00
57.8896 1290.00
57.9548 1297.00
58.02 1267.00
58.0852 1375.00
58.1504 1392.00
58.2156 1322.00
58.2808 1383.00
58.346 1334.00
58.4112 1397.00
58.4764 1516.00
58.5416 1742.00
58.6068 2197.00
58.672 2855.00
58.7372 3225.00
58.8024 3234.00
58.8676 3011.00
58.9328 2781.00
58.998 2521.00
59.0632 2133.00
59.1284 1862.00
59.1936 1670.00
59.2588 1557.00
59.324 1471.00
59.3892 1460.00
59.4544 1419.00
59.5196 1349.00
59.5848 1340.00
59.65 1243.00
59.7152 1327.00
59.7804 1401.00
59.8456 1481.00
59.9108 1541.00
59.976 1442.00
60.0412 1554.00
60.1064 1505.00
60.1716 1360.00
60.2368 1483.00
60.302 1577.00
60.3672 1857.00
60.4324 1977.00
60.4976 2156.00
60.5628 2099.00
60.628 2089.00
60.6932 2061.00
60.7584 1952.00
60.8236 1940.00
60.8888 1910.00
60.954 1917.00
61.0192 1774.00
61.0844 1699.00
61.1496 1647.00
61.2148 1568.00
61.28 1534.00
61.3452 1482.00
61.4104 1353.00
61.4756 1321.00
61.5408 1329.00
61.606 1285.00
61.6712 1244.00
61.7364 1273.00
61.8016 1305.00
61.8667 1419.00
61.932 1421.00
61.9971 1431.00
62.0623 1417.00
62.1275 1482.00
62.1927 1431.00
62.2579 1433.00
62.3231 1393.00
62.3883 1362.00
62.4535 1380.00
62.5187 1447.00
62.5839 1517.00
62.6491 1644.00
62.7143 1687.00
62.7795 1686.00
62.8447 1645.00
62.9099 1699.00
62.9751 1602.00
63.0403 1603.00
63.1055 1639.00
63.1707 1393.00
63.2359 1394.00
63.3011 1234.00
63.3663 1191.00
63.4315 1052.00
63.4967 1066.00
63.5619 1000.00
63.6271 1012.00
63.6923 1042.00
63.7575 1125.00
63.8227 1081.00
63.8879 1074.00
63.9531 1189.00
64.0183 1231.00
64.0835 1359.00
64.1487 1499.00
64.2139 1503.00
64.2791 1452.00
64.3443 1343.00
64.4095 1190.00
64.4747 1238.00
64.5399 1195.00
64.6051 1185.00
64.6703 1167.00
64.7355 1031.00
64.8007 1025.00
64.8659 1107.00
64.9311 1055.00
64.9963 1072.00
65.0615 1041.00
65.1267 1100.00
65.1919 1116.00
65.2571 1229.00
65.3223 1288.00
65.3875 1328.00
65.4527 1435.00
65.5179 1544.00
65.5831 1582.00
65.6483 1517.00
65.7135 1524.00
65.7787 1571.00
65.8439 1489.00
65.9091 1459.00
65.9743 1456.00
66.0395 1423.00
66.1047 1425.00
66.1699 1521.00
66.2351 1630.00
66.3003 1580.00
66.3655 1586.00
66.4307 1557.00
66.4959 1484.00
66.561 1493.00
66.6263 1539.00
66.6915 1435.00
66.7566 1366.00
66.8218 1291.00
66.887 1204.00
66.9522 1080.00
67.0174 1013.00
67.0826 984.00
67.1478 1012.00
67.213 1075.00
67.2782 1077.00
67.3434 1058.00
67.4086 1005.00
67.4738 1118.00
67.539 1228.00
67.6042 1361.00
67.6694 1579.00
67.7346 1575.00
67.7998 1474.00
67.865 1404.00
67.9302 1355.00
67.9954 1190.00
68.0606 1192.00
68.1258 1124.00
68.191 1001.00
68.2562 1052.00
68.3214 1113.00
68.3866 1134.00
68.4518 1090.00
68.517 1056.00
68.5822 1094.00
68.6474 1101.00
68.7126 1095.00
68.7778 1090.00
68.843 1083.00
68.9082 1152.00
68.9734 1162.00
69.0386 1200.00
69.1038 1230.00
69.169 1221.00
69.2342 1202.00
69.2994 1156.00
69.3646 1152.00
69.4298 1053.00
69.495 1085.00
69.5602 1080.00
69.6254 1034.00
69.6906 992.00
69.7558 1022.00
69.821 940.00
69.8862 921.00
69.9514 1030.00
70.0166 1001.00
70.0818 958.00
70.147 949.00
70.2122 996.00
70.2774 941.00
70.3426 988.00
70.4078 939.00
70.473 938.00
70.5382 1035.00
70.6034 986.00
70.6686 1020.00
70.7338 1087.00
70.799 1094.00
70.8642 1286.00
70.9294 1465.00
70.9946 1721.00
71.0598 1921.00
71.125 1897.00
71.1902 1860.00
71.2554 1803.00
71.3205 1599.00
71.3858 1489.00
71.451 1358.00
71.5162 1245.00
71.5813 1137.00
71.6465 1169.00
71.7117 1169.00
71.7769 1113.00
71.8421 1084.00
71.9073 1189.00
71.9725 1159.00
72.0377 1166.00
72.1029 1203.00
72.1681 1247.00
72.2333 1196.00
72.2985 1157.00
72.3637 1116.00
72.4289 1142.00
72.4941 1194.00
72.5593 1161.00
72.6245 1098.00
72.6897 1115.00
72.7549 1140.00
72.8201 1145.00
72.8853 1136.00
72.9505 1010.00
73.0157 1075.00
73.0809 1058.00
73.1461 1051.00
73.2113 1063.00
73.2765 1119.00
73.3417 1228.00
73.4069 1249.00
73.4721 1339.00
73.5373 1293.00
73.6025 1209.00
73.6677 1195.00
73.7329 1166.00
73.7981 1142.00
73.8633 1060.00
73.9285 1049.00
73.9937 988.00
74.0589 1054.00
74.1241 983.00
74.1893 1051.00
74.2545 1072.00
74.3197 1121.00
74.3849 1237.00
74.4501 1271.00
74.5153 1321.00
74.5805 1259.00
74.6457 1279.00
74.7109 1281.00
74.7761 1233.00
74.8413 1033.00
74.9065 1052.00
74.9717 1086.00
75.0369 1138.00
75.1021 1098.00
75.1673 1121.00
75.2325 1137.00
75.2977 1114.00
75.3629 1094.00
75.4281 1142.00
75.4933 1198.00
75.5585 1054.00
75.6237 1051.00
75.6889 1069.00
75.7541 1018.00
75.8193 989.00
75.8845 918.00
75.9497 953.00
76.0149 1028.00
76.0801 991.00
76.1452 1049.00
76.2104 1033.00
76.2756 1122.00
76.3409 1146.00
76.406 1174.00
76.4712 1178.00
76.5364 1196.00
76.6016 1261.00
76.6668 1114.00
76.732 1183.00
76.7972 1122.00
76.8624 1125.00
76.9276 1051.00
76.9928 1064.00
77.058 1107.00
77.1232 1104.00
77.1884 1090.00
77.2536 1057.00
77.3188 1152.00
77.384 1097.00
77.4492 1041.00
77.5144 1080.00
77.5796 1130.00
77.6448 977.00
77.71 1037.00
77.7752 1066.00
77.8404 1026.00
77.9056 1017.00
77.9708 956.00
78.036 997.00
78.1012 990.00
78.1664 1016.00
78.2316 943.00
78.2968 970.00
78.362 902.00
78.4272 956.00
78.4924 901.00
78.5576 949.00
78.6228 933.00
78.688 957.00
78.7532 943.00
78.8184 1088.00
78.8836 1050.00
78.9488 1042.00
79.014 1142.00
79.0792 1092.00
79.1444 1063.00
79.2096 1071.00
79.2748 1082.00
79.34 1124.00
79.4052 1232.00
79.4704 1370.00
79.5356 1470.00
79.6008 1398.00
79.666 1412.00
79.7312 1397.00
79.7964 1344.00
79.8616 1338.00
79.9268 1262.00
79.992 1229.00
80.0572 1245.00
80.1224 1268.00
80.1876 1248.00
80.2528 1194.00
80.318 1110.00
80.3832 1024.00
80.4484 1082.00
80.5136 1010.00
80.5788 960.00
80.644 957.00
80.7092 946.00
80.7744 974.00
80.8396 1073.00
80.9048 988.00
80.9699 1054.00
81.0351 1172.00
81.1003 1133.00
81.1655 1207.00
81.2307 1297.00
81.2959 1327.00
81.3611 1280.00
81.4263 1209.00
81.4915 1199.00
81.5567 1188.00
81.6219 1184.00
81.6871 1171.00
81.7523 1138.00
81.8175 1076.00
81.8827 1045.00
81.9479 1106.00
82.0131 1077.00
82.0783 1000.00
82.1435 1040.00
82.2087 960.00
82.2739 974.00
82.3391 997.00
82.4043 1013.00
82.4695 1077.00
82.5347 1079.00
82.5999 1078.00
82.6651 1114.00
82.7303 1101.00
82.7955 1048.00
82.8607 1048.00
82.9259 1133.00
82.9911 1012.00
83.0563 1012.00
83.1215 1002.00
83.1867 1010.00
83.2519 1002.00
83.3171 1009.00
83.3823 1034.00
83.4475 961.00
83.5127 968.00
83.5779 1001.00
83.6431 1008.00
83.7083 1006.00
83.7735 1015.00
83.8387 1002.00
83.9039 1041.00
83.9691 1016.00
84.0343 972.00
84.0995 996.00
84.1647 1039.00
84.2299 963.00
84.2951 1086.00
84.3603 1083.00
84.4255 982.00
84.4907 1040.00
84.5559 1015.00
84.6211 944.00
84.6863 982.00
84.7515 926.00
84.8167 967.00
84.8819 949.00
84.9471 912.00
85.0123 1010.00
85.0775 907.00
85.1427 941.00
85.2079 934.00
85.2731 963.00
85.3383 876.00
85.4035 968.00
85.4687 955.00
85.5339 970.00
85.5991 1010.00
85.6643 951.00
85.7295 1015.00
85.7946 1017.00
85.8598 1008.00
85.925 1100.00
85.9903 1100.00
86.0554 1104.00
86.1206 1227.00
86.1858 1199.00
86.251 1260.00
86.3162 1283.00
86.3814 1286.00
86.4466 1258.00
86.5118 1172.00
86.577 1176.00
86.6422 1176.00
86.7074 1083.00
86.7726 1122.00
86.8378 1061.00
86.903 1105.00
86.9682 1165.00
87.0334 1130.00
87.0986 1144.00
87.1638 1022.00
87.229 1018.00
87.2942 1042.00
87.3594 1054.00
87.4246 1082.00
87.4898 1120.00
87.555 1171.00
87.6202 1098.00
87.6854 1085.00
87.7506 1138.00
87.8158 1139.00
87.881 1168.00
87.9462 1142.00
88.0114 1150.00
88.0766 1122.00
88.1418 1083.00
88.207 1134.00
88.2722 1093.00
88.3374 1104.00
88.4026 1050.00
88.4678 1076.00
88.533 1025.00
88.5982 1076.00
88.6634 1142.00
88.7286 982.00
88.7938 1050.00
88.859 1117.00
88.9242 1118.00
88.9894 1027.00
89.0546 1120.00
89.1198 1139.00
89.185 1107.00
89.2502 1247.00
89.3154 1203.00
89.3806 1251.00
89.4458 1187.00
89.511 1189.00
89.5762 1227.00
89.6414 1123.00
89.7066 1190.00
89.7718 1149.00
89.837 1212.00
89.9022 1119.00
89.9674 1091.00
90.0326 1034.00
90.0978 1038.00
90.163 1070.00
90.2282 1040.00
90.2934 1056.00
90.3586 999.00
90.4238 919.00
90.489 1058.00
90.5542 1018.00
90.6193 955.00
90.6845 979.00
90.7497 1078.00
90.8149 1075.00
90.8801 1020.00
90.9453 1017.00
91.0105 1036.00
91.0757 1088.00
91.1409 1075.00
91.2061 1060.00
91.2713 1066.00
91.3365 1015.00
91.4017 999.00
91.4669 947.00
91.5321 988.00
91.5973 1009.00
91.6625 948.00
91.7277 935.00
91.7929 881.00
91.8581 914.00
91.9233 866.00
91.9885 979.00
92.0537 942.00
92.1189 918.00
92.1841 948.00
92.2493 916.00
92.3145 1018.00
92.3797 946.00
92.4449 1004.00
92.5101 933.00
92.5753 1002.00
92.6405 1087.00
92.7057 1083.00
92.7709 1089.00
92.8361 1048.00
92.9013 1086.00
92.9665 1199.00
93.0317 1193.00
93.0969 1245.00
93.1621 1138.00
93.2273 1089.00
93.2925 1097.00
93.3577 1089.00
93.4229 1045.00
93.4881 968.00
93.5533 1054.00
93.6185 951.00
93.6837 1028.00
93.7489 998.00
93.8141 998.00
93.8793 1030.00
93.9445 1048.00
94.0097 1094.00
94.0749 1014.00
94.1401 1171.00
94.2053 1116.00
94.2705 1055.00
94.3357 1089.00
94.4009 973.00
94.4661 993.00
94.5313 1087.00
94.5965 1024.00
94.6617 1040.00
94.7269 1005.00
94.7921 984.00
94.8573 947.00
94.9225 975.00
94.9877 977.00
95.0529 1009.00
95.1181 1054.00
95.1833 1052.00
95.2485 1029.00
95.3137 1069.00
95.3789 1043.00
95.444 1121.00
95.5092 1060.00
95.5744 1050.00
95.6396 1015.00
95.7048 1058.00
95.77 998.00
95.8352 989.00
95.9004 976.00
95.9656 963.00
96.0308 987.00
96.096 1001.00
96.1612 971.00
96.2264 971.00
96.2916 1006.00
96.3568 1019.00
96.422 1039.00
96.4872 1081.00
96.5524 1012.00
96.6176 1065.00
96.6828 962.00
96.748 1046.00
96.8132 1038.00
96.8784 998.00
96.9436 981.00
97.0088 1019.00
97.074 987.00
97.1392 977.00
97.2044 979.00
97.2696 964.00
97.3348 855.00
97.4 930.00
97.4652 945.00
97.5304 944.00
97.5956 881.00
97.6608 961.00
97.726 896.00
97.7912 868.00
97.8564 892.00
97.9216 939.00
97.9868 947.00
98.052 965.00
98.1172 1008.00
98.1824 991.00
98.2476 975.00
98.3128 991.00
98.378 1094.00
98.4432 1061.00
98.5084 997.00
98.5736 1117.00
98.6388 1020.00
98.704 1098.00
98.7692 1178.00
98.8344 1124.00
98.8996 1194.00
98.9648 1238.00
99.03 1287.00
99.0952 1342.00
99.1604 1378.00
99.2256 1457.00
99.2908 1338.00
99.356 1271.00
99.4212 1318.00
99.4864 1299.00
99.5516 1239.00
99.6168 1226.00
99.682 1055.00
99.7472 1104.00
99.8124 1065.00
99.8776 1063.00
99.9428 992.00
100.008 1014.00
100.073 981.00
100.095 1045.00