File: data/xrd_creation/results/NSC_8.xy
9.903433 2861.00
9.968632 2851.00
10.0338 2785.00
10.099 2730.00
10.1642 2785.00
10.2294 2734.00
10.2946 2762.00
10.3598 2764.00
10.425 2732.00
10.4902 2679.00
10.5554 2741.00
10.6206 2660.00
10.6858 2689.00
10.751 2675.00
10.8162 2702.00
10.8814 2615.00
10.9466 2695.00
11.0118 2559.00
11.077 2549.00
11.1422 2560.00
11.2074 2509.00
11.2726 2521.00
11.3378 2496.00
11.403 2378.00
11.4682 2532.00
11.5334 2367.00
11.5986 2298.00
11.6638 2314.00
11.729 2426.00
11.7942 2420.00
11.8594 2422.00
11.9246 2382.00
11.9898 2334.00
12.055 2273.00
12.1202 2260.00
12.1854 2380.00
12.2506 2381.00
12.3158 2202.00
12.381 2223.00
12.4462 2270.00
12.5114 2249.00
12.5766 2196.00
12.6418 2188.00
12.707 2197.00
12.7722 2276.00
12.8374 2200.00
12.9026 2213.00
12.9678 2150.00
13.033 2199.00
13.0982 2118.00
13.1634 2226.00
13.2286 2181.00
13.2938 2143.00
13.359 2058.00
13.4242 1994.00
13.4894 2099.00
13.5546 2028.00
13.6198 1973.00
13.685 2068.00
13.7502 2054.00
13.8154 2108.00
13.8805 2052.00
13.9457 2137.00
14.0109 2012.00
14.0761 2070.00
14.1413 2001.00
14.2065 1981.00
14.2717 2022.00
14.3369 2070.00
14.4021 2102.00
14.4673 2132.00
14.5325 2029.00
14.5977 2108.00
14.6629 2157.00
14.7281 2148.00
14.7933 2118.00
14.8585 2036.00
14.9237 2030.00
14.9889 2000.00
15.0541 2075.00
15.1193 1971.00
15.1845 1908.00
15.2497 1886.00
15.3149 1896.00
15.3801 1955.00
15.4453 1883.00
15.5105 1930.00
15.5757 1988.00
15.6409 1891.00
15.7061 1871.00
15.7713 1952.00
15.8365 1973.00
15.9017 1901.00
15.9669 1855.00
16.0321 1853.00
16.0973 1825.00
16.1625 1886.00
16.2277 1844.00
16.2929 1923.00
16.3581 1872.00
16.4233 1872.00
16.4885 1865.00
16.5537 1892.00
16.6189 1962.00
16.6841 1938.00
16.7493 2034.00
16.8145 1868.00
16.8797 1902.00
16.9449 1824.00
17.0101 1862.00
17.0753 1923.00
17.1405 1846.00
17.2057 1942.00
17.2709 2009.00
17.3361 2054.00
17.4013 2141.00
17.4665 1965.00
17.5317 1859.00
17.5969 1892.00
17.6621 1781.00
17.7273 1687.00
17.7925 1763.00
17.8577 1872.00
17.9229 1747.00
17.9881 1755.00
18.0533 1819.00
18.1185 1828.00
18.1837 1829.00
18.2489 1670.00
18.3141 1653.00
18.3793 1728.00
18.4445 1723.00
18.5097 1767.00
18.5749 1711.00
18.6401 1645.00
18.7052 1710.00
18.7704 1709.00
18.8356 1656.00
18.9008 1660.00
18.966 1690.00
19.0312 1631.00
19.0964 1671.00
19.1616 1596.00
19.2268 1642.00
19.292 1651.00
19.3572 1608.00
19.4224 1572.00
19.4876 1686.00
19.5528 1723.00
19.618 1718.00
19.6832 1702.00
19.7484 1633.00
19.8136 1563.00
19.8788 1611.00
19.944 1603.00
20.0092 1623.00
20.0744 1592.00
20.1396 1714.00
20.2048 1668.00
20.27 1630.00
20.3352 1639.00
20.4004 1576.00
20.4656 1695.00
20.5308 1654.00
20.596 1623.00
20.6612 1733.00
20.7264 1715.00
20.7916 1704.00
20.8568 1643.00
20.922 1597.00
20.9872 1570.00
21.0524 1650.00
21.1176 1625.00
21.1828 1708.00
21.248 1615.00
21.3132 1660.00
21.3784 1661.00
21.4436 1683.00
21.5088 1603.00
21.574 1642.00
21.6392 1612.00
21.7044 1603.00
21.7696 1626.00
21.8348 1669.00
21.9 1594.00
21.9652 1607.00
22.0304 1554.00
22.0956 1619.00
22.1608 1613.00
22.226 1724.00
22.2912 1938.00
22.3564 2072.00
22.4216 1985.00
22.4868 1892.00
22.552 1709.00
22.6172 1609.00
22.6824 1558.00
22.7476 1568.00
22.8128 1489.00
22.878 1580.00
22.9432 1559.00
23.0084 1518.00
23.0736 1541.00
23.1388 1555.00
23.204 1602.00
23.2692 1529.00
23.3344 1657.00
23.3996 1695.00
23.4647 1759.00
23.5299 1819.00
23.5951 1752.00
23.6603 1704.00
23.7255 1675.00
23.7907 1752.00
23.8559 1989.00
23.9211 2330.00
23.9863 2573.00
24.0515 2581.00
24.1167 2264.00
24.1819 2109.00
24.2471 1973.00
24.3123 2167.00
24.3775 2323.00
24.4427 2445.00
24.5079 2131.00
24.5731 1986.00
24.6383 1676.00
24.7035 1657.00
24.7687 1535.00
24.8339 1560.00
24.8991 1593.00
24.9643 1476.00
25.0295 1505.00
25.0947 1459.00
25.1599 1497.00
25.2251 1456.00
25.2903 1605.00
25.3555 1602.00
25.4207 1895.00
25.4859 2072.00
25.5511 2081.00
25.6163 1898.00
25.6815 1581.00
25.7467 1490.00
25.8119 1487.00
25.8771 1499.00
25.9423 1513.00
26.0075 1501.00
26.0727 1451.00
26.1379 1447.00
26.2031 1414.00
26.2683 1395.00
26.3335 1378.00
26.3987 1412.00
26.4639 1358.00
26.5291 1331.00
26.5943 1420.00
26.6595 1465.00
26.7247 1404.00
26.7899 1390.00
26.8551 1484.00
26.9203 1484.00
26.9855 1458.00
27.0507 1428.00
27.1159 1387.00
27.1811 1442.00
27.2463 1431.00
27.3115 1454.00
27.3767 1573.00
27.4419 1512.00
27.5071 1582.00
27.5723 1640.00
27.6375 1750.00
27.7027 1700.00
27.7679 1868.00
27.8331 2111.00
27.8983 2638.00
27.9635 3960.00
28.0287 6110.00
28.0939 8176.00
28.1591 8702.00
28.2243 7092.00
28.2894 4930.00
28.3546 3132.00
28.4198 2400.00
28.485 1988.00
28.5502 1832.00
28.6154 1671.00
28.6806 1523.00
28.7458 1583.00
28.811 1560.00
28.8762 1521.00
28.9414 1442.00
29.0066 1604.00
29.0718 1607.00
29.137 1526.00
29.2022 1721.00
29.2674 1691.00
29.3326 1669.00
29.3978 1549.00
29.463 1699.00
29.5282 1641.00
29.5934 1541.00
29.6586 1482.00
29.7238 1582.00
29.789 1589.00
29.8542 1689.00
29.9194 1796.00
29.9846 1870.00
30.0498 2006.00
30.115 1774.00
30.1802 1645.00
30.2454 1521.00
30.3106 1496.00
30.3758 1505.00
30.441 1545.00
30.5062 1439.00
30.5714 1408.00
30.6366 1438.00
30.7018 1375.00
30.767 1467.00
30.8322 1480.00
30.8974 1480.00
30.9626 1600.00
31.0278 1600.00
31.093 1823.00
31.1582 2142.00
31.2234 2743.00
31.2886 4002.00
31.3538 5528.00
31.419 6542.00
31.4842 6089.00
31.5494 4610.00
31.6146 3080.00
31.6798 2201.00
31.745 1755.00
31.8102 1528.00
31.8754 1450.00
31.9406 1372.00
32.0058 1354.00
32.071 1288.00
32.1362 1219.00
32.2014 1284.00
32.2666 1256.00
32.3318 1246.00
32.397 1290.00
32.4622 1211.00
32.5274 1274.00
32.5926 1288.00
32.6578 1253.00
32.723 1369.00
32.7882 1352.00
32.8534 1392.00
32.9186 1287.00
32.9838 1346.00
33.0489 1422.00
33.1141 1241.00
33.1793 1210.00
33.2445 1334.00
33.3097 1298.00
33.3749 1281.00
33.4401 1274.00
33.5053 1248.00
33.5705 1311.00
33.6357 1412.00
33.7009 1337.00
33.7661 1425.00
33.8313 1609.00
33.8965 1811.00
33.9617 2257.00
34.0269 2591.00
34.0921 3101.00
34.1573 2995.00
34.2225 2721.00
34.2877 2567.00
34.3529 2535.00
34.4181 2478.00
34.4833 2165.00
34.5485 1905.00
34.6137 1679.00
34.6789 1602.00
34.7441 1556.00
34.8093 1604.00
34.8745 1515.00
34.9397 1830.00
35.0049 2568.00
35.0701 3557.00
35.1353 3966.00
35.2005 3586.00
35.2657 3049.00
35.3309 2513.00
35.3961 1874.00
35.4613 1546.00
35.5265 1323.00
35.5917 1207.00
35.6569 1229.00
35.7221 1260.00
35.7873 1304.00
35.8525 1355.00
35.9177 1297.00
35.9829 1185.00
36.0481 1134.00
36.1133 1174.00
36.1785 1152.00
36.2437 1068.00
36.3089 1029.00
36.3741 1111.00
36.4393 1079.00
36.5045 1113.00
36.5697 1077.00
36.6349 1083.00
36.7001 1200.00
36.7653 1127.00
36.8305 1225.00
36.8957 1379.00
36.9609 1541.00
37.0261 1495.00
37.0913 1506.00
37.1565 1363.00
37.2217 1275.00
37.2869 1156.00
37.3521 1148.00
37.4173 1103.00
37.4825 1122.00
37.5477 1143.00
37.6129 1243.00
37.6781 1497.00
37.7433 1683.00
37.8085 1643.00
37.8736 1544.00
37.9388 1426.00
38.004 1334.00
38.0692 1327.00
38.1344 1079.00
38.1996 1099.00
38.2648 1080.00
38.33 1146.00
38.3952 1185.00
38.4604 1367.00
38.5256 1378.00
38.5908 1366.00
38.656 1270.00
38.7212 1216.00
38.7864 1116.00
38.8516 1025.00
38.9168 1046.00
38.982 997.00
39.0472 970.00
39.1124 963.00
39.1776 1046.00
39.2428 1105.00
39.308 1077.00
39.3732 1107.00
39.4384 1114.00
39.5036 1036.00
39.5688 1063.00
39.634 1068.00
39.6992 1006.00
39.7644 1084.00
39.8296 1141.00
39.8948 1169.00
39.96 1180.00
40.0252 1127.00
40.0904 1073.00
40.1556 1077.00
40.2208 1036.00
40.286 980.00
40.3512 1140.00
40.4164 1163.00
40.4816 1235.00
40.5468 1446.00
40.612 1670.00
40.6772 1910.00
40.7424 2004.00
40.8076 1789.00
40.8728 1531.00
40.938 1370.00
41.0032 1516.00
41.0684 1576.00
41.1336 1603.00
41.1988 1634.00
41.264 1409.00
41.3292 1593.00
41.3944 1636.00
41.4596 1512.00
41.5248 1459.00
41.59 1239.00
41.6552 1233.00
41.7204 1087.00
41.7856 1057.00
41.8508 972.00
41.916 975.00
41.9812 983.00
42.0464 959.00
42.1116 949.00
42.1768 978.00
42.242 957.00
42.3072 982.00
42.3724 912.00
42.4376 935.00
42.5028 1000.00
42.568 888.00
42.6332 936.00
42.6983 972.00
42.7635 844.00
42.8287 907.00
42.8939 909.00
42.9591 1012.00
43.0243 1001.00
43.0895 1107.00
43.1547 1293.00
43.2199 1617.00
43.2851 2002.00
43.3503 1999.00
43.4155 1684.00
43.4807 1262.00
43.5459 1054.00
43.6111 939.00
43.6763 966.00
43.7415 947.00
43.8067 959.00
43.8719 907.00
43.9371 931.00
44.0023 933.00
44.0675 906.00
44.1327 897.00
44.1979 913.00
44.2631 917.00
44.3283 893.00
44.3935 936.00
44.4587 995.00
44.5239 1021.00
44.5891 1048.00
44.6543 1220.00
44.7195 1464.00
44.7847 1586.00
44.8499 1439.00
44.9151 1301.00
44.9803 1148.00
45.0455 960.00
45.1107 972.00
45.1759 944.00
45.2411 1039.00
45.3063 1110.00
45.3715 1263.00
45.4367 1394.00
45.5019 1396.00
45.5671 1339.00
45.6323 1211.00
45.6975 1103.00
45.7627 980.00
45.8279 914.00
45.8931 919.00
45.9583 931.00
46.0235 880.00
46.0887 977.00
46.1539 867.00
46.2191 933.00
46.2843 940.00
46.3495 936.00
46.4147 960.00
46.4799 963.00
46.5451 966.00
46.6103 982.00
46.6755 962.00
46.7407 829.00
46.8059 813.00
46.8711 860.00
46.9363 830.00
47.0015 846.00
47.0667 865.00
47.1319 913.00
47.1971 942.00
47.2623 887.00
47.3275 815.00
47.3927 841.00
47.4579 842.00
47.523 891.00
47.5882 849.00
47.6534 902.00
47.7186 921.00
47.7838 908.00
47.849 869.00
47.9142 899.00
47.9794 964.00
48.0446 1022.00
48.1098 1060.00
48.175 1029.00
48.2402 1004.00
48.3054 1033.00
48.3706 989.00
48.4358 967.00
48.501 977.00
48.5662 949.00
48.6314 904.00
48.6966 981.00
48.7618 1081.00
48.827 1088.00
48.8922 1136.00
48.9574 1213.00
49.0226 1259.00
49.0878 1589.00
49.153 2059.00
49.2182 2336.00
49.2834 2285.00
49.3486 2033.00
49.4138 1597.00
49.479 1315.00
49.5442 1214.00
49.6094 1080.00
49.6746 1049.00
49.7398 1048.00
49.805 1225.00
49.8702 1397.00
49.9354 1647.00
50.0006 2215.00
50.0658 2700.00
50.131 2711.00
50.1962 2471.00
50.2614 2048.00
50.3266 1654.00
50.3918 1662.00
50.457 1828.00
50.5222 1973.00
50.5874 1795.00
50.6526 1640.00
50.7178 1387.00
50.783 1233.00
50.8482 1091.00
50.9134 1034.00
50.9786 945.00
51.0438 1056.00
51.109 1293.00
51.1742 1289.00
51.2394 1232.00
51.3046 1150.00
51.3698 1017.00
51.435 984.00
51.5002 953.00
51.5654 909.00
51.6306 884.00
51.6958 863.00
51.761 872.00
51.8262 879.00
51.8914 866.00
51.9566 860.00
52.0218 918.00
52.087 896.00
52.1522 801.00
52.2174 909.00
52.2826 894.00
52.3477 888.00
52.4129 1113.00
52.4781 1351.00
52.5433 1337.00
52.6085 1184.00
52.6737 1022.00
52.7389 981.00
52.8041 832.00
52.8693 788.00
52.9345 835.00
52.9997 803.00
53.0649 760.00
53.1301 818.00
53.1953 776.00
53.2605 878.00
53.3257 769.00
53.3909 903.00
53.4561 919.00
53.5213 901.00
53.5865 951.00
53.6517 955.00
53.7169 960.00
53.7821 1098.00
53.8473 1138.00
53.9125 1330.00
53.9777 1515.00
54.0429 1739.00
54.1081 1678.00
54.1733 1523.00
54.2385 1388.00
54.3037 1126.00
54.3689 979.00
54.4341 952.00
54.4993 889.00
54.5645 888.00
54.6297 988.00
54.6949 885.00
54.7601 910.00
54.8253 878.00
54.8905 892.00
54.9557 931.00
55.0209 969.00
55.0861 1132.00
55.1513 1306.00
55.2165 1588.00
55.2817 1767.00
55.3469 1847.00
55.4121 1888.00
55.4773 1876.00
55.5425 1737.00
55.6077 1531.00
55.6729 1432.00
55.7381 1351.00
55.8033 1462.00
55.8685 1418.00
55.9337 1391.00
55.9989 1332.00
56.0641 1167.00
56.1293 1092.00
56.1945 964.00
56.2597 960.00
56.3249 898.00
56.3901 910.00
56.4553 873.00
56.5205 859.00
56.5857 828.00
56.6509 830.00
56.7161 796.00
56.7813 811.00
56.8465 943.00
56.9117 1000.00
56.9769 1114.00
57.042 1309.00
57.1073 1476.00
57.1724 1339.00
57.2376 1354.00
57.3028 1439.00
57.368 2140.00
57.4332 2883.00
57.4984 2312.00
57.5636 2128.00
57.6288 1757.00
57.694 1323.00
57.7592 1125.00
57.8244 1144.00
57.8896 1169.00
57.9548 1218.00
58.02 1161.00
58.0852 1080.00
58.1504 1108.00
58.2156 1163.00
58.2808 1165.00
58.346 1086.00
58.4112 1083.00
58.4764 940.00
58.5416 939.00
58.6068 906.00
58.672 822.00
58.7372 854.00
58.8024 839.00
58.8676 819.00
58.9328 855.00
58.998 818.00
59.0632 779.00
59.1284 824.00
59.1936 871.00
59.2588 889.00
59.324 828.00
59.3892 919.00
59.4544 895.00
59.5196 943.00
59.5848 1012.00
59.65 1252.00
59.7152 1457.00
59.7804 1561.00
59.8456 1608.00
59.9108 1612.00
59.976 1591.00
60.0412 1413.00
60.1064 1291.00
60.1716 1109.00
60.2368 1000.00
60.302 951.00
60.3672 898.00
60.4324 870.00
60.4976 884.00
60.5628 809.00
60.628 913.00
60.6932 813.00
60.7584 772.00
60.8236 774.00
60.8888 821.00
60.954 802.00
61.0192 880.00
61.0844 940.00
61.1496 1175.00
61.2148 1622.00
61.28 1667.00
61.3452 1484.00
61.4104 1500.00
61.4756 1243.00
61.5408 1068.00
61.606 951.00
61.6712 950.00
61.7364 928.00
61.8016 1008.00
61.8667 1134.00
61.932 1231.00
61.9971 1171.00
62.0623 1122.00
62.1275 1100.00
62.1927 948.00
62.2579 886.00
62.3231 875.00
62.3883 883.00
62.4535 864.00
62.5187 932.00
62.5839 1005.00
62.6491 1123.00
62.7143 1302.00
62.7795 1504.00
62.8447 1418.00
62.9099 1233.00
62.9751 1258.00
63.0403 1014.00
63.1055 942.00
63.1707 807.00
63.2359 827.00
63.3011 809.00
63.3663 793.00
63.4315 775.00
63.4967 741.00
63.5619 727.00
63.6271 789.00
63.6923 809.00
63.7575 816.00
63.8227 765.00
63.8879 859.00
63.9531 864.00
64.0183 896.00
64.0835 942.00
64.1487 866.00
64.2139 970.00
64.2791 903.00
64.3443 934.00
64.4095 897.00
64.4747 827.00
64.5399 822.00
64.6051 766.00
64.6703 777.00
64.7355 712.00
64.8007 737.00
64.8659 758.00
64.9311 774.00
64.9963 810.00
65.0615 835.00
65.1267 811.00
65.1919 862.00
65.2571 877.00
65.3223 1005.00
65.3875 1022.00
65.4527 1018.00
65.5179 1167.00
65.5831 1244.00
65.6483 1337.00
65.7135 1312.00
65.7787 1251.00
65.8439 1116.00
65.9091 1070.00
65.9743 983.00
66.0395 866.00
66.1047 822.00
66.1699 788.00
66.2351 808.00
66.3003 797.00
66.3655 869.00
66.4307 1114.00
66.4959 991.00
66.561 868.00
66.6263 955.00
66.6915 895.00
66.7566 720.00
66.8218 638.00
66.887 660.00
66.9522 633.00
67.0174 663.00
67.0826 709.00
67.1478 660.00
67.213 649.00
67.2782 691.00
67.3434 669.00
67.4086 648.00
67.4738 713.00
67.539 671.00
67.6042 678.00
67.6694 679.00
67.7346 678.00
67.7998 701.00
67.865 625.00
67.9302 682.00
67.9954 759.00
68.0606 932.00
68.1258 1433.00
68.191 1335.00
68.2562 1010.00
68.3214 1018.00
68.3866 973.00
68.4518 779.00
68.517 685.00
68.5822 679.00
68.6474 704.00
68.7126 689.00
68.7778 712.00
68.843 822.00
68.9082 754.00
68.9734 814.00
69.0386 822.00
69.1038 700.00
69.169 743.00
69.2342 713.00
69.2994 685.00
69.3646 661.00
69.4298 665.00
69.495 698.00
69.5602 761.00
69.6254 740.00
69.6906 684.00
69.7558 681.00
69.821 662.00
69.8862 659.00
69.9514 734.00
70.0166 702.00
70.0818 681.00
70.147 662.00
70.2122 714.00
70.2774 678.00
70.3426 677.00
70.4078 731.00
70.473 717.00
70.5382 706.00
70.6034 675.00
70.6686 685.00
70.7338 687.00
70.799 681.00
70.8642 733.00
70.9294 858.00
70.9946 863.00
71.0598 948.00
71.125 906.00
71.1902 987.00
71.2554 979.00
71.3205 951.00
71.3858 920.00
71.451 852.00
71.5162 780.00
71.5813 747.00
71.6465 706.00
71.7117 682.00
71.7769 700.00
71.8421 703.00
71.9073 753.00
71.9725 738.00
72.0377 760.00
72.1029 813.00
72.1681 865.00
72.2333 780.00
72.2985 767.00
72.3637 779.00
72.4289 774.00
72.4941 735.00
72.5593 780.00
72.6245 746.00
72.6897 800.00
72.7549 718.00
72.8201 710.00
72.8853 729.00
72.9505 646.00
73.0157 679.00
73.0809 625.00
73.1461 667.00
73.2113 630.00
73.2765 614.00
73.3417 668.00
73.4069 696.00
73.4721 635.00
73.5373 658.00
73.6025 661.00
73.6677 624.00
73.7329 615.00
73.7981 641.00
73.8633 631.00
73.9285 581.00
73.9937 616.00
74.0589 627.00
74.1241 621.00
74.1893 690.00
74.2545 663.00
74.3197 706.00
74.3849 721.00
74.4501 753.00
74.5153 707.00
74.5805 758.00
74.6457 776.00
74.7109 753.00
74.7761 804.00
74.8413 754.00
74.9065 770.00
74.9717 901.00
75.0369 899.00
75.1021 909.00
75.1673 894.00
75.2325 872.00
75.2977 863.00
75.3629 788.00
75.4281 758.00
75.4933 685.00
75.5585 690.00
75.6237 688.00
75.6889 717.00
75.7541 665.00
75.8193 637.00
75.8845 698.00
75.9497 714.00
76.0149 688.00
76.0801 676.00
76.1452 711.00
76.2104 717.00
76.2756 765.00
76.3409 807.00
76.406 779.00
76.4712 794.00
76.5364 795.00
76.6016 761.00
76.6668 837.00
76.732 1292.00
76.7972 2444.00
76.8624 2164.00
76.9276 1223.00
76.9928 1396.00
77.058 1677.00
77.1232 1340.00
77.1884 1259.00
77.2536 861.00
77.3188 779.00
77.384 909.00
77.4492 903.00
77.5144 768.00
77.5796 736.00
77.6448 712.00
77.71 696.00
77.7752 703.00
77.8404 652.00
77.9056 649.00
77.9708 711.00
78.036 663.00
78.1012 754.00
78.1664 684.00
78.2316 649.00
78.2968 654.00
78.362 636.00
78.4272 649.00
78.4924 627.00
78.5576 714.00
78.6228 710.00
78.688 682.00
78.7532 792.00
78.8184 804.00
78.8836 782.00
78.9488 843.00
79.014 788.00
79.0792 785.00
79.1444 743.00
79.2096 695.00
79.2748 710.00
79.34 671.00
79.4052 650.00
79.4704 694.00
79.5356 577.00
79.6008 654.00
79.666 659.00
79.7312 651.00
79.7964 621.00
79.8616 625.00
79.9268 642.00
79.992 601.00
80.0572 629.00
80.1224 645.00
80.1876 650.00
80.2528 657.00
80.318 626.00
80.3832 741.00
80.4484 639.00
80.5136 663.00
80.5788 672.00
80.644 733.00
80.7092 661.00
80.7744 693.00
80.8396 691.00
80.9048 638.00
80.9699 627.00
81.0351 648.00
81.1003 675.00
81.1655 700.00
81.2307 684.00
81.2959 713.00
81.3611 756.00
81.4263 707.00
81.4915 715.00
81.5567 776.00
81.6219 762.00
81.6871 754.00
81.7523 710.00
81.8175 697.00
81.8827 684.00
81.9479 671.00
82.0131 717.00
82.0783 687.00
82.1435 664.00
82.2087 685.00
82.2739 697.00
82.3391 668.00
82.4043 766.00
82.4695 807.00
82.5347 814.00
82.5999 778.00
82.6651 784.00
82.7303 739.00
82.7955 704.00
82.8607 718.00
82.9259 727.00
82.9911 818.00
83.0563 865.00
83.1215 852.00
83.1867 843.00
83.2519 816.00
83.3171 823.00
83.3823 800.00
83.4475 752.00
83.5127 776.00
83.5779 767.00
83.6431 715.00
83.7083 762.00
83.7735 804.00
83.8387 836.00
83.9039 778.00
83.9691 804.00
84.0343 850.00
84.0995 803.00
84.1647 758.00
84.2299 797.00
84.2951 795.00
84.3603 753.00
84.4255 750.00
84.4907 723.00
84.5559 733.00
84.6211 678.00
84.6863 711.00
84.7515 689.00
84.8167 674.00
84.8819 722.00
84.9471 655.00
85.0123 662.00
85.0775 636.00
85.1427 674.00
85.2079 669.00
85.2731 625.00
85.3383 680.00
85.4035 584.00
85.4687 585.00
85.5339 666.00
85.5991 624.00
85.6643 612.00
85.7295 597.00
85.7946 592.00
85.8598 644.00
85.925 640.00
85.9903 660.00
86.0554 655.00
86.1206 714.00
86.1858 658.00
86.251 741.00
86.3162 730.00
86.3814 719.00
86.4466 685.00
86.5118 689.00
86.577 666.00
86.6422 642.00
86.7074 654.00
86.7726 626.00
86.8378 661.00
86.903 655.00
86.9682 633.00
87.0334 601.00
87.0986 633.00
87.1638 667.00
87.229 690.00
87.2942 756.00
87.3594 763.00
87.4246 734.00
87.4898 741.00
87.555 702.00
87.6202 749.00
87.6854 734.00
87.7506 719.00
87.8158 740.00
87.881 712.00
87.9462 680.00
88.0114 757.00
88.0766 812.00
88.1418 797.00
88.207 843.00
88.2722 756.00
88.3374 827.00
88.4026 847.00
88.4678 842.00
88.533 848.00
88.5982 787.00
88.6634 792.00
88.7286 712.00
88.7938 773.00
88.859 760.00
88.9242 921.00
88.9894 935.00
89.0546 721.00
89.1198 734.00
89.185 842.00
89.2502 802.00
89.3154 707.00
89.3806 739.00
89.4458 720.00
89.511 715.00
89.5762 650.00
89.6414 768.00
89.7066 744.00
89.7718 770.00
89.837 773.00
89.9022 760.00
89.9674 763.00
90.0326 723.00
90.0978 723.00
90.163 697.00
90.2282 645.00
90.2934 655.00
90.3586 627.00
90.4238 626.00
90.489 663.00
90.5542 730.00
90.6193 909.00
90.6845 1098.00
90.7497 731.00
90.8149 673.00
90.8801 711.00
90.9453 799.00
91.0105 750.00
91.0757 707.00
91.1409 722.00
91.2061 668.00
91.2713 737.00
91.3365 666.00
91.4017 639.00
91.4669 621.00
91.5321 578.00
91.5973 583.00
91.6625 618.00
91.7277 570.00
91.7929 590.00
91.8581 632.00
91.9233 623.00
91.9885 577.00
92.0537 579.00
92.1189 533.00
92.1841 623.00
92.2493 541.00
92.3145 579.00
92.3797 564.00
92.4449 592.00
92.5101 550.00
92.5753 568.00
92.6405 555.00
92.7057 530.00
92.7709 593.00
92.8361 612.00
92.9013 572.00
92.9665 590.00
93.0317 559.00
93.0969 610.00
93.1621 620.00
93.2273 618.00
93.2925 587.00
93.3577 574.00
93.4229 653.00
93.4881 607.00
93.5533 639.00
93.6185 623.00
93.6837 655.00
93.7489 698.00
93.8141 703.00
93.8793 676.00
93.9445 623.00
94.0097 688.00
94.0749 643.00
94.1401 580.00
94.2053 622.00
94.2705 609.00
94.3357 597.00
94.4009 618.00
94.4661 601.00
94.5313 601.00
94.5965 664.00
94.6617 633.00
94.7269 652.00
94.7921 690.00
94.8573 649.00
94.9225 700.00
94.9877 717.00
95.0529 741.00
95.1181 867.00
95.1833 880.00
95.2485 814.00
95.3137 645.00
95.3789 691.00
95.444 684.00
95.5092 786.00
95.5744 700.00
95.6396 662.00
95.7048 635.00
95.77 636.00
95.8352 646.00
95.9004 742.00
95.9656 733.00
96.0308 677.00
96.096 738.00
96.1612 772.00
96.2264 769.00
96.2916 732.00
96.3568 778.00
96.422 813.00
96.4872 871.00
96.5524 836.00
96.6176 786.00
96.6828 812.00
96.748 840.00
96.8132 829.00
96.8784 822.00
96.9436 774.00
97.0088 737.00
97.074 724.00
97.1392 653.00
97.2044 718.00
97.2696 699.00
97.3348 657.00
97.4 635.00
97.4652 646.00
97.5304 609.00
97.5956 661.00
97.6608 588.00
97.726 608.00
97.7912 585.00
97.8564 620.00
97.9216 689.00
97.9868 634.00
98.052 632.00
98.1172 673.00
98.1824 639.00
98.2476 688.00
98.3128 689.00
98.378 736.00
98.4432 622.00
98.5084 696.00
98.5736 667.00
98.6388 692.00
98.704 754.00
98.7692 686.00
98.8344 738.00
98.8996 739.00
98.9648 715.00
99.03 711.00
99.0952 728.00
99.1604 728.00
99.2256 796.00
99.2908 774.00
99.356 790.00
99.4212 771.00
99.4864 765.00
99.5516 685.00
99.6168 759.00
99.682 714.00
99.7472 730.00
99.8124 651.00
99.8776 602.00
99.9428 643.00
100.008 644.00
100.073 707.00
100.095 637.00