File: data/xrd_creation/results/NSC_134.xy
9.903433 2776.00
9.968632 2736.00
10.0338 2714.00
10.099 2597.00
10.1642 2736.00
10.2294 2643.00
10.2946 2646.00
10.3598 2508.00
10.425 2648.00
10.4902 2585.00
10.5554 2537.00
10.6206 2464.00
10.6858 2509.00
10.751 2564.00
10.8162 2405.00
10.8814 2427.00
10.9466 2341.00
11.0118 2455.00
11.077 2460.00
11.1422 2459.00
11.2074 2378.00
11.2726 2330.00
11.3378 2349.00
11.403 2257.00
11.4682 2262.00
11.5334 2265.00
11.5986 2306.00
11.6638 2181.00
11.729 2255.00
11.7942 2187.00
11.8594 2194.00
11.9246 2144.00
11.9898 2220.00
12.055 2202.00
12.1202 2197.00
12.1854 2152.00
12.2506 2119.00
12.3158 1991.00
12.381 2113.00
12.4462 2085.00
12.5114 2043.00
12.5766 2039.00
12.6418 1995.00
12.707 2041.00
12.7722 2086.00
12.8374 2065.00
12.9026 1947.00
12.9678 1950.00
13.033 1956.00
13.0982 1983.00
13.1634 1982.00
13.2286 1960.00
13.2938 1903.00
13.359 1970.00
13.4242 1976.00
13.4894 1883.00
13.5546 1969.00
13.6198 1892.00
13.685 1897.00
13.7502 1964.00
13.8154 1930.00
13.8805 1922.00
13.9457 1892.00
14.0109 1889.00
14.0761 1804.00
14.1413 1862.00
14.2065 1819.00
14.2717 1901.00
14.3369 2045.00
14.4021 1984.00
14.4673 2110.00
14.5325 2298.00
14.5977 2546.00
14.6629 2860.00
14.7281 3340.00
14.7933 3778.00
14.8585 3758.00
14.9237 3257.00
14.9889 2637.00
15.0541 2241.00
15.1193 2021.00
15.1845 1973.00
15.2497 1901.00
15.3149 1906.00
15.3801 1830.00
15.4453 1835.00
15.5105 1847.00
15.5757 1747.00
15.6409 1781.00
15.7061 1853.00
15.7713 1799.00
15.8365 1739.00
15.9017 1719.00
15.9669 1797.00
16.0321 1750.00
16.0973 1728.00
16.1625 1806.00
16.2277 1776.00
16.2929 1743.00
16.3581 1702.00
16.4233 1716.00
16.4885 1727.00
16.5537 1725.00
16.6189 1786.00
16.6841 1769.00
16.7493 1749.00
16.8145 1624.00
16.8797 1743.00
16.9449 1723.00
17.0101 1690.00
17.0753 1727.00
17.1405 1619.00
17.2057 1727.00
17.2709 1660.00
17.3361 1601.00
17.4013 1674.00
17.4665 1657.00
17.5317 1605.00
17.5969 1678.00
17.6621 1722.00
17.7273 1640.00
17.7925 1671.00
17.8577 1651.00
17.9229 1615.00
17.9881 1663.00
18.0533 1645.00
18.1185 1573.00
18.1837 1535.00
18.2489 1538.00
18.3141 1679.00
18.3793 1645.00
18.4445 1584.00
18.5097 1557.00
18.5749 1607.00
18.6401 1639.00
18.7052 1674.00
18.7704 1716.00
18.8356 1830.00
18.9008 2148.00
18.966 2488.00
19.0312 2984.00
19.0964 3088.00
19.1616 2330.00
19.2268 1795.00
19.292 1699.00
19.3572 1602.00
19.4224 1535.00
19.4876 1544.00
19.5528 1581.00
19.618 1516.00
19.6832 1522.00
19.7484 1605.00
19.8136 1547.00
19.8788 1656.00
19.944 1710.00
20.0092 1903.00
20.0744 2115.00
20.1396 2590.00
20.2048 3099.00
20.27 4091.00
20.3352 5437.00
20.4004 6516.00
20.4656 7059.00
20.5308 6151.00
20.596 4889.00
20.6612 3536.00
20.7264 2787.00
20.7916 2479.00
20.8568 2420.00
20.922 2589.00
20.9872 2992.00
21.0524 3506.00
21.1176 4436.00
21.1828 5666.00
21.248 6660.00
21.3132 7205.00
21.3784 7067.00
21.4436 6270.00
21.5088 4986.00
21.574 3917.00
21.6392 3315.00
21.7044 2978.00
21.7696 3061.00
21.8348 3657.00
21.9 5118.00
21.9652 6871.00
22.0304 6964.00
22.0956 4617.00
22.1608 2582.00
22.226 1865.00
22.2912 1719.00
22.3564 1678.00
22.4216 1518.00
22.4868 1509.00
22.552 1537.00
22.6172 1481.00
22.6824 1460.00
22.7476 1419.00
22.8128 1439.00
22.878 1395.00
22.9432 1418.00
23.0084 1441.00
23.0736 1402.00
23.1388 1469.00
23.204 1342.00
23.2692 1379.00
23.3344 1436.00
23.3996 1430.00
23.4647 1466.00
23.5299 1476.00
23.5951 1366.00
23.6603 1393.00
23.7255 1467.00
23.7907 1408.00
23.8559 1498.00
23.9211 1623.00
23.9863 1684.00
24.0515 1713.00
24.1167 1904.00
24.1819 2211.00
24.2471 2809.00
24.3123 3360.00
24.3775 4580.00
24.4427 6042.00
24.5079 8097.00
24.5731 9606.00
24.6383 9338.00
24.7035 7861.00
24.7687 5983.00
24.8339 4482.00
24.8991 3401.00
24.9643 2695.00
25.0295 2259.00
25.0947 1923.00
25.1599 1723.00
25.2251 1611.00
25.2903 1505.00
25.3555 1329.00
25.4207 1368.00
25.4859 1340.00
25.5511 1325.00
25.6163 1343.00
25.6815 1318.00
25.7467 1295.00
25.8119 1356.00
25.8771 1349.00
25.9423 1349.00
26.0075 1358.00
26.0727 1296.00
26.1379 1327.00
26.2031 1303.00
26.2683 1244.00
26.3335 1292.00
26.3987 1286.00
26.4639 1248.00
26.5291 1340.00
26.5943 1275.00
26.6595 1341.00
26.7247 1460.00
26.7899 1700.00
26.8551 2236.00
26.9203 2730.00
26.9855 2906.00
27.0507 2179.00
27.1159 1727.00
27.1811 1402.00
27.2463 1239.00
27.3115 1229.00
27.3767 1274.00
27.4419 1196.00
27.5071 1233.00
27.5723 1165.00
27.6375 1250.00
27.7027 1218.00
27.7679 1172.00
27.8331 1289.00
27.8983 1223.00
27.9635 1228.00
28.0287 1226.00
28.0939 1227.00
28.1591 1156.00
28.2243 1190.00
28.2894 1174.00
28.3546 1126.00
28.4198 1189.00
28.485 1196.00
28.5502 1287.00
28.6154 1238.00
28.6806 1241.00
28.7458 1187.00
28.811 1241.00
28.8762 1282.00
28.9414 1246.00
29.0066 1437.00
29.0718 1464.00
29.137 1567.00
29.2022 1765.00
29.2674 2063.00
29.3326 2496.00
29.3978 3050.00
29.463 3406.00
29.5282 4091.00
29.5934 4427.00
29.6586 4213.00
29.7238 3853.00
29.789 3132.00
29.8542 2685.00
29.9194 2216.00
29.9846 1893.00
30.0498 1745.00
30.115 1507.00
30.1802 1498.00
30.2454 1261.00
30.3106 1242.00
30.3758 1242.00
30.441 1157.00
30.5062 1216.00
30.5714 1194.00
30.6366 1180.00
30.7018 1191.00
30.767 1216.00
30.8322 1162.00
30.8974 1204.00
30.9626 1376.00
31.0278 1687.00
31.093 2257.00
31.1582 2584.00
31.2234 2373.00
31.2886 1897.00
31.3538 1448.00
31.419 1300.00
31.4842 1220.00
31.5494 1153.00
31.6146 1115.00
31.6798 1149.00
31.745 1262.00
31.8102 1167.00
31.8754 1353.00
31.9406 1377.00
32.0058 1413.00
32.071 1642.00
32.1362 1947.00
32.2014 2212.00
32.2666 2712.00
32.3318 3352.00
32.397 4216.00
32.4622 5287.00
32.5274 6170.00
32.5926 6304.00
32.6578 6160.00
32.723 5419.00
32.7882 4635.00
32.8534 3814.00
32.9186 3324.00
32.9838 2792.00
33.0489 2427.00
33.1141 2144.00
33.1793 1938.00
33.2445 1747.00
33.3097 1491.00
33.3749 1467.00
33.4401 1398.00
33.5053 1302.00
33.5705 1120.00
33.6357 1142.00
33.7009 1139.00
33.7661 1035.00
33.8313 1063.00
33.8965 989.00
33.9617 1019.00
34.0269 990.00
34.0921 1039.00
34.1573 995.00
34.2225 1018.00
34.2877 1035.00
34.3529 1015.00
34.4181 1006.00
34.4833 1031.00
34.5485 1012.00
34.6137 991.00
34.6789 1021.00
34.7441 1088.00
34.8093 1039.00
34.8745 1102.00
34.9397 1070.00
35.0049 1220.00
35.0701 1237.00
35.1353 1153.00
35.2005 1127.00
35.2657 1128.00
35.3309 1081.00
35.3961 1073.00
35.4613 1040.00
35.5265 1023.00
35.5917 944.00
35.6569 1079.00
35.7221 1048.00
35.7873 1049.00
35.8525 1001.00
35.9177 1005.00
35.9829 1066.00
36.0481 1109.00
36.1133 1105.00
36.1785 1204.00
36.2437 1256.00
36.3089 1349.00
36.3741 1609.00
36.4393 1888.00
36.5045 2426.00
36.5697 3279.00
36.6349 3806.00
36.7001 3905.00
36.7653 3594.00
36.8305 3124.00
36.8957 2754.00
36.9609 2638.00
37.0261 2566.00
37.0913 2642.00
37.1565 2619.00
37.2217 2463.00
37.2869 2361.00
37.3521 2164.00
37.4173 1967.00
37.4825 1782.00
37.5477 1645.00
37.6129 1477.00
37.6781 1315.00
37.7433 1240.00
37.8085 1154.00
37.8736 1160.00
37.9388 1124.00
38.004 1124.00
38.0692 999.00
38.1344 1077.00
38.1996 1108.00
38.2648 1229.00
38.33 1256.00
38.3952 1222.00
38.4604 1187.00
38.5256 1020.00
38.5908 969.00
38.656 959.00
38.7212 950.00
38.7864 954.00
38.8516 1011.00
38.9168 878.00
38.982 898.00
39.0472 1011.00
39.1124 1000.00
39.1776 903.00
39.2428 939.00
39.308 951.00
39.3732 951.00
39.4384 927.00
39.5036 926.00
39.5688 958.00
39.634 913.00
39.6992 945.00
39.7644 996.00
39.8296 998.00
39.8948 1132.00
39.96 1088.00
40.0252 1082.00
40.0904 1053.00
40.1556 952.00
40.2208 930.00
40.286 909.00
40.3512 914.00
40.4164 959.00
40.4816 904.00
40.5468 884.00
40.612 887.00
40.6772 945.00
40.7424 929.00
40.8076 917.00
40.8728 897.00
40.938 1012.00
41.0032 992.00
41.0684 1032.00
41.1336 1069.00
41.1988 1105.00
41.264 1177.00
41.3292 1136.00
41.3944 1162.00
41.4596 1067.00
41.5248 1063.00
41.59 1022.00
41.6552 984.00
41.7204 1007.00
41.7856 946.00
41.8508 877.00
41.916 996.00
41.9812 923.00
42.0464 898.00
42.1116 932.00
42.1768 906.00
42.242 890.00
42.3072 888.00
42.3724 965.00
42.4376 870.00
42.5028 946.00
42.568 1056.00
42.6332 1116.00
42.6983 1151.00
42.7635 1178.00
42.8287 1192.00
42.8939 1348.00
42.9591 1378.00
43.0243 1413.00
43.0895 1350.00
43.1547 1376.00
43.2199 1205.00
43.2851 1190.00
43.3503 1095.00
43.4155 1139.00
43.4807 1040.00
43.5459 995.00
43.6111 1041.00
43.6763 1012.00
43.7415 1037.00
43.8067 982.00
43.8719 968.00
43.9371 1011.00
44.0023 953.00
44.0675 1013.00
44.1327 951.00
44.1979 1010.00
44.2631 968.00
44.3283 987.00
44.3935 1146.00
44.4587 1228.00
44.5239 1223.00
44.5891 1286.00
44.6543 1323.00
44.7195 1245.00
44.7847 1353.00
44.8499 1347.00
44.9151 1370.00
44.9803 1366.00
45.0455 1331.00
45.1107 1299.00
45.1759 1149.00
45.2411 1134.00
45.3063 1090.00
45.3715 1062.00
45.4367 1053.00
45.5019 1023.00
45.5671 994.00
45.6323 965.00
45.6975 1003.00
45.7627 1034.00
45.8279 1105.00
45.8931 1106.00
45.9583 1179.00
46.0235 1095.00
46.0887 1054.00
46.1539 1040.00
46.2191 1122.00
46.2843 1076.00
46.3495 1076.00
46.4147 1177.00
46.4799 1231.00
46.5451 1359.00
46.6103 1530.00
46.6755 1532.00
46.7407 1607.00
46.8059 1692.00
46.8711 1611.00
46.9363 1593.00
47.0015 1615.00
47.0667 1426.00
47.1319 1337.00
47.1971 1324.00
47.2623 1290.00
47.3275 1161.00
47.3927 1230.00
47.4579 1164.00
47.523 1153.00
47.5882 1135.00
47.6534 1153.00
47.7186 1212.00
47.7838 1169.00
47.849 1222.00
47.9142 1376.00
47.9794 1249.00
48.0446 1346.00
48.1098 1299.00
48.175 1422.00
48.2402 1464.00
48.3054 1537.00
48.3706 1491.00
48.4358 1439.00
48.501 1528.00
48.5662 1448.00
48.6314 1639.00
48.6966 1602.00
48.7618 1487.00
48.827 1467.00
48.8922 1277.00
48.9574 1144.00
49.0226 1140.00
49.0878 1026.00
49.153 1058.00
49.2182 995.00
49.2834 1101.00
49.3486 971.00
49.4138 1080.00
49.479 1149.00
49.5442 1223.00
49.6094 1398.00
49.6746 1420.00
49.7398 1582.00
49.805 1817.00
49.8702 2138.00
49.9354 2410.00
50.0006 2645.00
50.0658 2796.00
50.131 2705.00
50.1962 2360.00
50.2614 2125.00
50.3266 1957.00
50.3918 1762.00
50.457 1619.00
50.5222 1437.00
50.5874 1362.00
50.6526 1325.00
50.7178 1189.00
50.783 1140.00
50.8482 1129.00
50.9134 1058.00
50.9786 1124.00
51.0438 979.00
51.109 968.00
51.1742 949.00
51.2394 984.00
51.3046 927.00
51.3698 964.00
51.435 954.00
51.5002 947.00
51.5654 950.00
51.6306 854.00
51.6958 879.00
51.761 851.00
51.8262 811.00
51.8914 759.00
51.9566 842.00
52.0218 814.00
52.087 869.00
52.1522 762.00
52.2174 819.00
52.2826 852.00
52.3477 857.00
52.4129 826.00
52.4781 846.00
52.5433 864.00
52.6085 878.00
52.6737 953.00
52.7389 963.00
52.8041 1054.00
52.8693 1033.00
52.9345 1093.00
52.9997 1176.00
53.0649 1322.00
53.1301 1312.00
53.1953 1471.00
53.2605 1574.00
53.3257 1642.00
53.3909 1618.00
53.4561 1641.00
53.5213 1640.00
53.5865 1562.00
53.6517 1522.00
53.7169 1381.00
53.7821 1355.00
53.8473 1253.00
53.9125 1184.00
53.9777 1138.00
54.0429 1134.00
54.1081 1099.00
54.1733 1113.00
54.2385 998.00
54.3037 953.00
54.3689 1007.00
54.4341 932.00
54.4993 834.00
54.5645 895.00
54.6297 875.00
54.6949 902.00
54.7601 875.00
54.8253 918.00
54.8905 859.00
54.9557 1037.00
55.0209 1140.00
55.0861 1248.00
55.1513 1286.00
55.2165 1331.00
55.2817 1269.00
55.3469 1093.00
55.4121 1072.00
55.4773 967.00
55.5425 908.00
55.6077 833.00
55.6729 817.00
55.7381 870.00
55.8033 837.00
55.8685 889.00
55.9337 837.00
55.9989 903.00
56.0641 888.00
56.1293 999.00
56.1945 965.00
56.2597 992.00
56.3249 1087.00
56.3901 1113.00
56.4553 1120.00
56.5205 1113.00
56.5857 1164.00
56.6509 1140.00
56.7161 1122.00
56.7813 1098.00
56.8465 1142.00
56.9117 1221.00
56.9769 1141.00
57.042 1102.00
57.1073 1219.00
57.1724 1145.00
57.2376 1132.00
57.3028 1182.00
57.368 1279.00
57.4332 1293.00
57.4984 1413.00
57.5636 1441.00
57.6288 1523.00
57.694 1580.00
57.7592 1708.00
57.8244 1684.00
57.8896 1735.00
57.9548 1571.00
58.02 1664.00
58.0852 1627.00
58.1504 1580.00
58.2156 1490.00
58.2808 1531.00
58.346 1504.00
58.4112 1430.00
58.4764 1415.00
58.5416 1360.00
58.6068 1509.00
58.672 1626.00
58.7372 1716.00
58.8024 1752.00
58.8676 1805.00
58.9328 1622.00
58.998 1439.00
59.0632 1453.00
59.1284 1271.00
59.1936 1154.00
59.2588 1083.00
59.324 1033.00
59.3892 985.00
59.4544 1062.00
59.5196 950.00
59.5848 991.00
59.65 994.00
59.7152 989.00
59.7804 902.00
59.8456 926.00
59.9108 930.00
59.976 996.00
60.0412 924.00
60.1064 955.00
60.1716 967.00
60.2368 983.00
60.302 1007.00
60.3672 1003.00
60.4324 989.00
60.4976 1029.00
60.5628 997.00
60.628 936.00
60.6932 946.00
60.7584 966.00
60.8236 942.00
60.8888 1006.00
60.954 982.00
61.0192 969.00
61.0844 953.00
61.1496 975.00
61.2148 937.00
61.28 991.00
61.3452 895.00
61.4104 946.00
61.4756 957.00
61.5408 853.00
61.606 868.00
61.6712 900.00
61.7364 878.00
61.8016 891.00
61.8667 902.00
61.932 944.00
61.9971 971.00
62.0623 1039.00
62.1275 1137.00
62.1927 1154.00
62.2579 1149.00
62.3231 1184.00
62.3883 1202.00
62.4535 1250.00
62.5187 1255.00
62.5839 1222.00
62.6491 1155.00
62.7143 1123.00
62.7795 1175.00
62.8447 1038.00
62.9099 1138.00
62.9751 1052.00
63.0403 1055.00
63.1055 1028.00
63.1707 1093.00
63.2359 1099.00
63.3011 1152.00
63.3663 1054.00
63.4315 1191.00
63.4967 1163.00
63.5619 1202.00
63.6271 1218.00
63.6923 1243.00
63.7575 1183.00
63.8227 1314.00
63.8879 1303.00
63.9531 1281.00
64.0183 1261.00
64.0835 1179.00
64.1487 1278.00
64.2139 1291.00
64.2791 1310.00
64.3443 1300.00
64.4095 1320.00
64.4747 1375.00
64.5399 1354.00
64.6051 1422.00
64.6703 1401.00
64.7355 1333.00
64.8007 1296.00
64.8659 1243.00
64.9311 1267.00
64.9963 1178.00
65.0615 1071.00
65.1267 1125.00
65.1919 1035.00
65.2571 968.00
65.3223 975.00
65.3875 882.00
65.4527 934.00
65.5179 920.00
65.5831 961.00
65.6483 940.00
65.7135 915.00
65.7787 985.00
65.8439 965.00
65.9091 978.00
65.9743 952.00
66.0395 998.00
66.1047 1008.00
66.1699 1031.00
66.2351 1040.00
66.3003 1055.00
66.3655 1064.00
66.4307 1116.00
66.4959 1102.00
66.561 1145.00
66.6263 1115.00
66.6915 1126.00
66.7566 1053.00
66.8218 1079.00
66.887 1091.00
66.9522 1027.00
67.0174 1010.00
67.0826 1024.00
67.1478 1064.00
67.213 968.00
67.2782 922.00
67.3434 931.00
67.4086 916.00
67.4738 887.00
67.539 951.00
67.6042 969.00
67.6694 1046.00
67.7346 1072.00
67.7998 1126.00
67.865 1051.00
67.9302 1096.00
67.9954 1080.00
68.0606 1036.00
68.1258 1025.00
68.191 1000.00
68.2562 956.00
68.3214 989.00
68.3866 927.00
68.4518 937.00
68.517 1036.00
68.5822 1004.00
68.6474 1042.00
68.7126 1039.00
68.7778 1038.00
68.843 1128.00
68.9082 1200.00
68.9734 1166.00
69.0386 1143.00
69.1038 1114.00
69.169 995.00
69.2342 977.00
69.2994 975.00
69.3646 917.00
69.4298 845.00
69.495 878.00
69.5602 837.00
69.6254 805.00
69.6906 874.00
69.7558 809.00
69.821 805.00
69.8862 846.00
69.9514 811.00
70.0166 881.00
70.0818 839.00
70.147 796.00
70.2122 798.00
70.2774 836.00
70.3426 865.00
70.4078 853.00
70.473 877.00
70.5382 851.00
70.6034 891.00
70.6686 853.00
70.7338 803.00
70.799 862.00
70.8642 923.00
70.9294 965.00
70.9946 912.00
71.0598 924.00
71.125 862.00
71.1902 847.00
71.2554 844.00
71.3205 883.00
71.3858 871.00
71.451 823.00
71.5162 849.00
71.5813 859.00
71.6465 804.00
71.7117 795.00
71.7769 823.00
71.8421 784.00
71.9073 796.00
71.9725 773.00
72.0377 816.00
72.1029 762.00
72.1681 833.00
72.2333 790.00
72.2985 798.00
72.3637 830.00
72.4289 775.00
72.4941 760.00
72.5593 771.00
72.6245 775.00
72.6897 750.00
72.7549 782.00
72.8201 729.00
72.8853 782.00
72.9505 776.00
73.0157 770.00
73.0809 778.00
73.1461 854.00
73.2113 789.00
73.2765 739.00
73.3417 844.00
73.4069 716.00
73.4721 789.00
73.5373 752.00
73.6025 742.00
73.6677 766.00
73.7329 803.00
73.7981 819.00
73.8633 755.00
73.9285 883.00
73.9937 873.00
74.0589 780.00
74.1241 826.00
74.1893 851.00
74.2545 887.00
74.3197 888.00
74.3849 883.00
74.4501 907.00
74.5153 849.00
74.5805 835.00
74.6457 859.00
74.7109 853.00
74.7761 846.00
74.8413 839.00
74.9065 829.00
74.9717 817.00
75.0369 822.00
75.1021 816.00
75.1673 773.00
75.2325 780.00
75.2977 767.00
75.3629 806.00
75.4281 803.00
75.4933 774.00
75.5585 781.00
75.6237 792.00
75.6889 729.00
75.7541 779.00
75.8193 746.00
75.8845 782.00
75.9497 724.00
76.0149 750.00
76.0801 757.00
76.1452 797.00
76.2104 897.00
76.2756 836.00
76.3409 870.00
76.406 900.00
76.4712 930.00
76.5364 871.00
76.6016 892.00
76.6668 923.00
76.732 894.00
76.7972 855.00
76.8624 876.00
76.9276 881.00
76.9928 863.00
77.058 840.00
77.1232 870.00
77.1884 875.00
77.2536 899.00
77.3188 929.00
77.384 843.00
77.4492 858.00
77.5144 874.00
77.5796 930.00
77.6448 930.00
77.71 861.00
77.7752 844.00
77.8404 876.00
77.9056 889.00
77.9708 817.00
78.036 877.00
78.1012 872.00
78.1664 863.00
78.2316 856.00
78.2968 929.00
78.362 884.00
78.4272 877.00
78.4924 881.00
78.5576 826.00
78.6228 816.00
78.688 869.00
78.7532 897.00
78.8184 890.00
78.8836 860.00
78.9488 831.00
79.014 903.00
79.0792 878.00
79.1444 819.00
79.2096 760.00
79.2748 837.00
79.34 782.00
79.4052 789.00
79.4704 756.00
79.5356 799.00
79.6008 831.00
79.666 785.00
79.7312 779.00
79.7964 777.00
79.8616 726.00
79.9268 728.00
79.992 734.00
80.0572 738.00
80.1224 666.00
80.1876 747.00
80.2528 723.00
80.318 713.00
80.3832 773.00
80.4484 726.00
80.5136 696.00
80.5788 702.00
80.644 742.00
80.7092 725.00
80.7744 741.00
80.8396 685.00
80.9048 718.00
80.9699 708.00
81.0351 768.00
81.1003 688.00
81.1655 738.00
81.2307 671.00
81.2959 762.00
81.3611 730.00
81.4263 729.00
81.4915 759.00
81.5567 755.00
81.6219 729.00
81.6871 765.00
81.7523 712.00
81.8175 786.00
81.8827 761.00
81.9479 766.00
82.0131 741.00
82.0783 778.00
82.1435 789.00
82.2087 826.00
82.2739 773.00
82.3391 832.00
82.4043 784.00
82.4695 799.00
82.5347 834.00
82.5999 781.00
82.6651 813.00
82.7303 835.00
82.7955 806.00
82.8607 782.00
82.9259 781.00
82.9911 767.00
83.0563 781.00
83.1215 739.00
83.1867 753.00
83.2519 818.00
83.3171 792.00
83.3823 764.00
83.4475 753.00
83.5127 690.00
83.5779 748.00
83.6431 711.00
83.7083 726.00
83.7735 802.00
83.8387 766.00
83.9039 798.00
83.9691 753.00
84.0343 812.00
84.0995 764.00
84.1647 848.00
84.2299 786.00
84.2951 789.00
84.3603 851.00
84.4255 793.00
84.4907 844.00
84.5559 853.00
84.6211 792.00
84.6863 867.00
84.7515 881.00
84.8167 802.00
84.8819 792.00
84.9471 794.00
85.0123 783.00
85.0775 778.00
85.1427 767.00
85.2079 738.00
85.2731 742.00
85.3383 772.00
85.4035 789.00
85.4687 756.00
85.5339 772.00
85.5991 793.00
85.6643 791.00
85.7295 755.00
85.7946 765.00
85.8598 757.00
85.925 776.00
85.9903 754.00
86.0554 717.00
86.1206 722.00
86.1858 725.00
86.251 739.00
86.3162 681.00
86.3814 662.00
86.4466 727.00
86.5118 737.00
86.577 701.00
86.6422 729.00
86.7074 726.00
86.7726 662.00
86.8378 725.00
86.903 712.00
86.9682 725.00
87.0334 759.00
87.0986 734.00
87.1638 690.00
87.229 733.00
87.2942 762.00
87.3594 799.00
87.4246 730.00
87.4898 772.00
87.555 762.00
87.6202 741.00
87.6854 744.00
87.7506 802.00
87.8158 793.00
87.881 745.00
87.9462 781.00
88.0114 806.00
88.0766 733.00
88.1418 775.00
88.207 762.00
88.2722 770.00
88.3374 767.00
88.4026 749.00
88.4678 802.00
88.533 761.00
88.5982 789.00
88.6634 785.00
88.7286 757.00
88.7938 836.00
88.859 809.00
88.9242 788.00
88.9894 764.00
89.0546 841.00
89.1198 840.00
89.185 863.00
89.2502 820.00
89.3154 881.00
89.3806 880.00
89.4458 898.00
89.511 891.00
89.5762 911.00
89.6414 894.00
89.7066 898.00
89.7718 939.00
89.837 919.00
89.9022 939.00
89.9674 897.00
90.0326 891.00
90.0978 855.00
90.163 852.00
90.2282 813.00
90.2934 826.00
90.3586 797.00
90.4238 768.00
90.489 801.00
90.5542 776.00
90.6193 742.00
90.6845 728.00
90.7497 728.00
90.8149 744.00
90.8801 643.00
90.9453 732.00
91.0105 710.00
91.0757 741.00
91.1409 754.00
91.2061 722.00
91.2713 715.00
91.3365 685.00
91.4017 674.00
91.4669 721.00
91.5321 700.00
91.5973 680.00
91.6625 680.00
91.7277 719.00
91.7929 716.00
91.8581 693.00
91.9233 712.00
91.9885 721.00
92.0537 753.00
92.1189 740.00
92.1841 779.00
92.2493 745.00
92.3145 782.00
92.3797 809.00
92.4449 783.00
92.5101 876.00
92.5753 842.00
92.6405 908.00
92.7057 855.00
92.7709 817.00
92.8361 889.00
92.9013 861.00
92.9665 796.00
93.0317 894.00
93.0969 766.00
93.1621 845.00
93.2273 800.00
93.2925 833.00
93.3577 784.00
93.4229 825.00
93.4881 711.00
93.5533 847.00
93.6185 780.00
93.6837 814.00
93.7489 834.00
93.8141 805.00
93.8793 817.00
93.9445 886.00
94.0097 803.00
94.0749 821.00
94.1401 831.00
94.2053 743.00
94.2705 783.00
94.3357 771.00
94.4009 753.00
94.4661 814.00
94.5313 788.00
94.5965 778.00
94.6617 751.00
94.7269 782.00
94.7921 790.00
94.8573 717.00
94.9225 781.00
94.9877 783.00
95.0529 747.00
95.1181 806.00
95.1833 693.00
95.2485 764.00
95.3137 754.00
95.3789 790.00
95.444 745.00
95.5092 703.00
95.5744 775.00
95.6396 758.00
95.7048 740.00
95.77 781.00
95.8352 712.00
95.9004 743.00
95.9656 761.00
96.0308 797.00
96.096 759.00
96.1612 703.00
96.2264 770.00
96.2916 737.00
96.3568 754.00
96.422 789.00
96.4872 750.00
96.5524 749.00
96.6176 755.00
96.6828 759.00
96.748 737.00
96.8132 710.00
96.8784 755.00
96.9436 712.00
97.0088 785.00
97.074 748.00
97.1392 721.00
97.2044 760.00
97.2696 744.00
97.3348 754.00
97.4 751.00
97.4652 723.00
97.5304 737.00
97.5956 706.00
97.6608 704.00
97.726 769.00
97.7912 776.00
97.8564 706.00
97.9216 734.00
97.9868 728.00
98.052 775.00
98.1172 690.00
98.1824 762.00
98.2476 793.00
98.3128 692.00
98.378 754.00
98.4432 739.00
98.5084 728.00
98.5736 736.00
98.6388 707.00
98.704 703.00
98.7692 769.00
98.8344 723.00
98.8996 756.00
98.9648 727.00
99.03 778.00
99.0952 764.00
99.1604 767.00
99.2256 781.00
99.2908 740.00
99.356 786.00
99.4212 723.00
99.4864 754.00
99.5516 715.00
99.6168 851.00
99.682 769.00
99.7472 772.00
99.8124 794.00
99.8776 818.00
99.9428 758.00
100.008 696.00
100.073 758.00
100.095 803.00