File: data/xrd_creation/results/NSC_219.xy
9.903433 2694.00
9.968632 2691.00
10.0338 2608.00
10.099 2624.00
10.1642 2588.00
10.2294 2592.00
10.2946 2505.00
10.3598 2519.00
10.425 2528.00
10.4902 2525.00
10.5554 2578.00
10.6206 2481.00
10.6858 2358.00
10.751 2496.00
10.8162 2352.00
10.8814 2380.00
10.9466 2361.00
11.0118 2275.00
11.077 2352.00
11.1422 2336.00
11.2074 2368.00
11.2726 2301.00
11.3378 2254.00
11.403 2215.00
11.4682 2288.00
11.5334 2235.00
11.5986 2227.00
11.6638 2020.00
11.729 2239.00
11.7942 2126.00
11.8594 2174.00
11.9246 2015.00
11.9898 2057.00
12.055 2068.00
12.1202 2040.00
12.1854 2066.00
12.2506 2092.00
12.3158 2029.00
12.381 1984.00
12.4462 1890.00
12.5114 1981.00
12.5766 2063.00
12.6418 2081.00
12.707 1991.00
12.7722 1975.00
12.8374 1960.00
12.9026 1908.00
12.9678 1882.00
13.033 1835.00
13.0982 1893.00
13.1634 1940.00
13.2286 1926.00
13.2938 1883.00
13.359 1871.00
13.4242 1896.00
13.4894 1987.00
13.5546 2161.00
13.6198 2388.00
13.685 2477.00
13.7502 2680.00
13.8154 2688.00
13.8805 2328.00
13.9457 1954.00
14.0109 1856.00
14.0761 1762.00
14.1413 1864.00
14.2065 1741.00
14.2717 1723.00
14.3369 1698.00
14.4021 1710.00
14.4673 1752.00
14.5325 1669.00
14.5977 1715.00
14.6629 1732.00
14.7281 1699.00
14.7933 1723.00
14.8585 1673.00
14.9237 1672.00
14.9889 1642.00
15.0541 1633.00
15.1193 1673.00
15.1845 1660.00
15.2497 1602.00
15.3149 1677.00
15.3801 1583.00
15.4453 1563.00
15.5105 1694.00
15.5757 1740.00
15.6409 1641.00
15.7061 1636.00
15.7713 1669.00
15.8365 1563.00
15.9017 1631.00
15.9669 1596.00
16.0321 1675.00
16.0973 1632.00
16.1625 1600.00
16.2277 1541.00
16.2929 1554.00
16.3581 1607.00
16.4233 1649.00
16.4885 1601.00
16.5537 1605.00
16.6189 1655.00
16.6841 1601.00
16.7493 1608.00
16.8145 1494.00
16.8797 1598.00
16.9449 1529.00
17.0101 1574.00
17.0753 1598.00
17.1405 1573.00
17.2057 1559.00
17.2709 1543.00
17.3361 1513.00
17.4013 1573.00
17.4665 1576.00
17.5317 1546.00
17.5969 1664.00
17.6621 1512.00
17.7273 1516.00
17.7925 1495.00
17.8577 1541.00
17.9229 1554.00
17.9881 1561.00
18.0533 1392.00
18.1185 1461.00
18.1837 1526.00
18.2489 1486.00
18.3141 1488.00
18.3793 1433.00
18.4445 1457.00
18.5097 1458.00
18.5749 1431.00
18.6401 1494.00
18.7052 1454.00
18.7704 1602.00
18.8356 1533.00
18.9008 1603.00
18.966 1756.00
19.0312 1952.00
19.0964 2424.00
19.1616 3097.00
19.2268 4032.00
19.292 5043.00
19.3572 5213.00
19.4224 4943.00
19.4876 4378.00
19.5528 4268.00
19.618 4713.00
19.6832 4672.00
19.7484 4121.00
19.8136 2865.00
19.8788 2046.00
19.944 1672.00
20.0092 1533.00
20.0744 1456.00
20.1396 1407.00
20.2048 1439.00
20.27 1380.00
20.3352 1421.00
20.4004 1468.00
20.4656 1468.00
20.5308 1525.00
20.596 1549.00
20.6612 1658.00
20.7264 1808.00
20.7916 1846.00
20.8568 1788.00
20.922 1588.00
20.9872 1473.00
21.0524 1441.00
21.1176 1393.00
21.1828 1334.00
21.248 1382.00
21.3132 1350.00
21.3784 1388.00
21.4436 1413.00
21.5088 1372.00
21.574 1320.00
21.6392 1293.00
21.7044 1433.00
21.7696 1293.00
21.8348 1361.00
21.9 1262.00
21.9652 1303.00
22.0304 1285.00
22.0956 1305.00
22.1608 1314.00
22.226 1309.00
22.2912 1300.00
22.3564 1294.00
22.4216 1280.00
22.4868 1307.00
22.552 1280.00
22.6172 1297.00
22.6824 1406.00
22.7476 1722.00
22.8128 2020.00
22.878 2394.00
22.9432 2613.00
23.0084 2459.00
23.0736 2059.00
23.1388 1739.00
23.204 1541.00
23.2692 1520.00
23.3344 1341.00
23.3996 1323.00
23.4647 1282.00
23.5299 1279.00
23.5951 1299.00
23.6603 1293.00
23.7255 1290.00
23.7907 1177.00
23.8559 1239.00
23.9211 1329.00
23.9863 1415.00
24.0515 1562.00
24.1167 1602.00
24.1819 1582.00
24.2471 1406.00
24.3123 1418.00
24.3775 1341.00
24.4427 1276.00
24.5079 1378.00
24.5731 1378.00
24.6383 1370.00
24.7035 1335.00
24.7687 1241.00
24.8339 1239.00
24.8991 1265.00
24.9643 1135.00
25.0295 1173.00
25.0947 1195.00
25.1599 1158.00
25.2251 1172.00
25.2903 1132.00
25.3555 1158.00
25.4207 1186.00
25.4859 1187.00
25.5511 1207.00
25.6163 1094.00
25.6815 1217.00
25.7467 1159.00
25.8119 1165.00
25.8771 1169.00
25.9423 1203.00
26.0075 1114.00
26.0727 1125.00
26.1379 1176.00
26.2031 1076.00
26.2683 1173.00
26.3335 1176.00
26.3987 1113.00
26.4639 1104.00
26.5291 1156.00
26.5943 1104.00
26.6595 1177.00
26.7247 1104.00
26.7899 1113.00
26.8551 1130.00
26.9203 1146.00
26.9855 1186.00
27.0507 1121.00
27.1159 1168.00
27.1811 1248.00
27.2463 1287.00
27.3115 1424.00
27.3767 1526.00
27.4419 1716.00
27.5071 2104.00
27.5723 2642.00
27.6375 3454.00
27.7027 3776.00
27.7679 3420.00
27.8331 2724.00
27.8983 2016.00
27.9635 1575.00
28.0287 1553.00
28.0939 1499.00
28.1591 1666.00
28.2243 2149.00
28.2894 2558.00
28.3546 2715.00
28.4198 2649.00
28.485 2165.00
28.5502 1600.00
28.6154 1347.00
28.6806 1197.00
28.7458 1165.00
28.811 1131.00
28.8762 1110.00
28.9414 1055.00
29.0066 1060.00
29.0718 1083.00
29.137 1021.00
29.2022 1094.00
29.2674 1048.00
29.3326 1046.00
29.3978 1099.00
29.463 1072.00
29.5282 1050.00
29.5934 1037.00
29.6586 1037.00
29.7238 1120.00
29.789 1105.00
29.8542 1092.00
29.9194 1043.00
29.9846 1103.00
30.0498 1146.00
30.115 1139.00
30.1802 1118.00
30.2454 1157.00
30.3106 1338.00
30.3758 1614.00
30.441 1963.00
30.5062 2361.00
30.5714 2762.00
30.6366 3352.00
30.7018 4167.00
30.767 5090.00
30.8322 5598.00
30.8974 5376.00
30.9626 4194.00
31.0278 2986.00
31.093 2263.00
31.1582 1797.00
31.2234 1698.00
31.2886 1619.00
31.3538 1585.00
31.419 1668.00
31.4842 1924.00
31.5494 2013.00
31.6146 2448.00
31.6798 2377.00
31.745 2084.00
31.8102 1715.00
31.8754 1415.00
31.9406 1225.00
32.0058 1122.00
32.071 1088.00
32.1362 1065.00
32.2014 1049.00
32.2666 1004.00
32.3318 984.00
32.397 970.00
32.4622 1009.00
32.5274 1005.00
32.5926 983.00
32.6578 943.00
32.723 934.00
32.7882 945.00
32.8534 948.00
32.9186 950.00
32.9838 1004.00
33.0489 973.00
33.1141 958.00
33.1793 928.00
33.2445 986.00
33.3097 1075.00
33.3749 1019.00
33.4401 1018.00
33.5053 1079.00
33.5705 1075.00
33.6357 1101.00
33.7009 1087.00
33.7661 1098.00
33.8313 1143.00
33.8965 1376.00
33.9617 1495.00
34.0269 2084.00
34.0921 2791.00
34.1573 3619.00
34.2225 4493.00
34.2877 5273.00
34.3529 5650.00
34.4181 5261.00
34.4833 4171.00
34.5485 3204.00
34.6137 2279.00
34.6789 1876.00
34.7441 1602.00
34.8093 1311.00
34.8745 1115.00
34.9397 1103.00
35.0049 1039.00
35.0701 1045.00
35.1353 1050.00
35.2005 962.00
35.2657 1027.00
35.3309 1020.00
35.3961 1169.00
35.4613 1289.00
35.5265 1273.00
35.5917 1280.00
35.6569 1121.00
35.7221 1045.00
35.7873 969.00
35.8525 1020.00
35.9177 1014.00
35.9829 1063.00
36.0481 1205.00
36.1133 1093.00
36.1785 1085.00
36.2437 999.00
36.3089 1019.00
36.3741 910.00
36.4393 910.00
36.5045 862.00
36.5697 893.00
36.6349 894.00
36.7001 839.00
36.7653 881.00
36.8305 930.00
36.8957 887.00
36.9609 823.00
37.0261 872.00
37.0913 818.00
37.1565 792.00
37.2217 833.00
37.2869 850.00
37.3521 847.00
37.4173 853.00
37.4825 862.00
37.5477 847.00
37.6129 910.00
37.6781 829.00
37.7433 895.00
37.8085 870.00
37.8736 826.00
37.9388 853.00
38.004 824.00
38.0692 863.00
38.1344 841.00
38.1996 883.00
38.2648 835.00
38.33 860.00
38.3952 828.00
38.4604 883.00
38.5256 933.00
38.5908 918.00
38.656 888.00
38.7212 910.00
38.7864 934.00
38.8516 1059.00
38.9168 988.00
38.982 1018.00
39.0472 1040.00
39.1124 1016.00
39.1776 1021.00
39.2428 1145.00
39.308 993.00
39.3732 941.00
39.4384 973.00
39.5036 879.00
39.5688 899.00
39.634 908.00
39.6992 844.00
39.7644 925.00
39.8296 961.00
39.8948 1048.00
39.96 953.00
40.0252 1006.00
40.0904 890.00
40.1556 941.00
40.2208 865.00
40.286 830.00
40.3512 866.00
40.4164 917.00
40.4816 853.00
40.5468 837.00
40.612 818.00
40.6772 847.00
40.7424 949.00
40.8076 987.00
40.8728 1077.00
40.938 1162.00
41.0032 1228.00
41.0684 1197.00
41.1336 1180.00
41.1988 1275.00
41.264 1210.00
41.3292 1310.00
41.3944 1327.00
41.4596 1312.00
41.5248 1341.00
41.59 1309.00
41.6552 1418.00
41.7204 1376.00
41.7856 1493.00
41.8508 1347.00
41.916 1252.00
41.9812 1243.00
42.0464 1226.00
42.1116 1272.00
42.1768 1156.00
42.242 1099.00
42.3072 1062.00
42.3724 1058.00
42.4376 1014.00
42.5028 1020.00
42.568 927.00
42.6332 891.00
42.6983 888.00
42.7635 783.00
42.8287 813.00
42.8939 780.00
42.9591 796.00
43.0243 806.00
43.0895 736.00
43.1547 752.00
43.2199 834.00
43.2851 865.00
43.3503 824.00
43.4155 846.00
43.4807 797.00
43.5459 830.00
43.6111 817.00
43.6763 761.00
43.7415 807.00
43.8067 781.00
43.8719 926.00
43.9371 926.00
44.0023 979.00
44.0675 1106.00
44.1327 1246.00
44.1979 1276.00
44.2631 1333.00
44.3283 1407.00
44.3935 1339.00
44.4587 1254.00
44.5239 1482.00
44.5891 1599.00
44.6543 1863.00
44.7195 1987.00
44.7847 1767.00
44.8499 1600.00
44.9151 1286.00
44.9803 1205.00
45.0455 1041.00
45.1107 935.00
45.1759 992.00
45.2411 933.00
45.3063 862.00
45.3715 859.00
45.4367 889.00
45.5019 873.00
45.5671 891.00
45.6323 926.00
45.6975 914.00
45.7627 958.00
45.8279 956.00
45.8931 950.00
45.9583 981.00
46.0235 1089.00
46.0887 1170.00
46.1539 1262.00
46.2191 1259.00
46.2843 1318.00
46.3495 1277.00
46.4147 1280.00
46.4799 1197.00
46.5451 1358.00
46.6103 1475.00
46.6755 1826.00
46.7407 2198.00
46.8059 2430.00
46.8711 2453.00
46.9363 2245.00
47.0015 2033.00
47.0667 1664.00
47.1319 1435.00
47.1971 1275.00
47.2623 1140.00
47.3275 1106.00
47.3927 1022.00
47.4579 944.00
47.523 904.00
47.5882 876.00
47.6534 844.00
47.7186 826.00
47.7838 857.00
47.849 822.00
47.9142 806.00
47.9794 914.00
48.0446 840.00
48.1098 830.00
48.175 855.00
48.2402 858.00
48.3054 856.00
48.3706 841.00
48.4358 773.00
48.501 853.00
48.5662 780.00
48.6314 745.00
48.6966 823.00
48.7618 784.00
48.827 793.00
48.8922 824.00
48.9574 863.00
49.0226 880.00
49.0878 951.00
49.153 1021.00
49.2182 1138.00
49.2834 1198.00
49.3486 1139.00
49.4138 1214.00
49.479 1200.00
49.5442 1242.00
49.6094 1183.00
49.6746 1114.00
49.7398 985.00
49.805 944.00
49.8702 852.00
49.9354 855.00
50.0006 798.00
50.0658 854.00
50.131 961.00
50.1962 926.00
50.2614 1084.00
50.3266 1363.00
50.3918 1597.00
50.457 2018.00
50.5222 2200.00
50.5874 2224.00
50.6526 2379.00
50.7178 2255.00
50.783 2104.00
50.8482 1986.00
50.9134 1834.00
50.9786 1477.00
51.0438 1264.00
51.109 1100.00
51.1742 1020.00
51.2394 994.00
51.3046 894.00
51.3698 1011.00
51.435 929.00
51.5002 956.00
51.5654 931.00
51.6306 892.00
51.6958 883.00
51.761 886.00
51.8262 841.00
51.8914 881.00
51.9566 742.00
52.0218 786.00
52.087 756.00
52.1522 789.00
52.2174 763.00
52.2826 753.00
52.3477 763.00
52.4129 747.00
52.4781 784.00
52.5433 769.00
52.6085 797.00
52.6737 751.00
52.7389 842.00
52.8041 780.00
52.8693 871.00
52.9345 851.00
52.9997 875.00
53.0649 955.00
53.1301 1006.00
53.1953 1042.00
53.2605 1142.00
53.3257 1296.00
53.3909 1453.00
53.4561 1841.00
53.5213 2104.00
53.5865 2267.00
53.6517 2489.00
53.7169 2258.00
53.7821 1987.00
53.8473 1662.00
53.9125 1458.00
53.9777 1189.00
54.0429 1072.00
54.1081 1052.00
54.1733 997.00
54.2385 1076.00
54.3037 1195.00
54.3689 1138.00
54.4341 1065.00
54.4993 974.00
54.5645 890.00
54.6297 847.00
54.6949 815.00
54.7601 817.00
54.8253 793.00
54.8905 843.00
54.9557 835.00
55.0209 896.00
55.0861 900.00
55.1513 852.00
55.2165 838.00
55.2817 841.00
55.3469 898.00
55.4121 871.00
55.4773 920.00
55.5425 1010.00
55.6077 1037.00
55.6729 1040.00
55.7381 1089.00
55.8033 996.00
55.8685 937.00
55.9337 931.00
55.9989 909.00
56.0641 905.00
56.1293 832.00
56.1945 863.00
56.2597 831.00
56.3249 909.00
56.3901 914.00
56.4553 866.00
56.5205 861.00
56.5857 869.00
56.6509 809.00
56.7161 821.00
56.7813 782.00
56.8465 820.00
56.9117 789.00
56.9769 809.00
57.042 872.00
57.1073 865.00
57.1724 904.00
57.2376 922.00
57.3028 942.00
57.368 872.00
57.4332 921.00
57.4984 963.00
57.5636 911.00
57.6288 942.00
57.694 946.00
57.7592 929.00
57.8244 825.00
57.8896 909.00
57.9548 914.00
58.02 888.00
58.0852 995.00
58.1504 930.00
58.2156 1001.00
58.2808 1063.00
58.346 1074.00
58.4112 1099.00
58.4764 1118.00
58.5416 1152.00
58.6068 1225.00
58.672 1313.00
58.7372 1400.00
58.8024 1394.00
58.8676 1529.00
58.9328 1490.00
58.998 1516.00
59.0632 1495.00
59.1284 1527.00
59.1936 1575.00
59.2588 1748.00
59.324 1803.00
59.3892 1749.00
59.4544 1707.00
59.5196 1665.00
59.5848 1399.00
59.65 1270.00
59.7152 1143.00
59.7804 1042.00
59.8456 968.00
59.9108 915.00
59.976 935.00
60.0412 1023.00
60.1064 980.00
60.1716 1092.00
60.2368 1121.00
60.302 1132.00
60.3672 1098.00
60.4324 1163.00
60.4976 1019.00
60.5628 995.00
60.628 963.00
60.6932 946.00
60.7584 930.00
60.8236 864.00
60.8888 942.00
60.954 902.00
61.0192 902.00
61.0844 912.00
61.1496 1035.00
61.2148 1022.00
61.28 1189.00
61.3452 1341.00
61.4104 1516.00
61.4756 1689.00
61.5408 1660.00
61.606 1619.00
61.6712 1549.00
61.7364 1439.00
61.8016 1374.00
61.8667 1309.00
61.932 1267.00
61.9971 1170.00
62.0623 1101.00
62.1275 1063.00
62.1927 1095.00
62.2579 1110.00
62.3231 1118.00
62.3883 1090.00
62.4535 1126.00
62.5187 1118.00
62.5839 1009.00
62.6491 1052.00
62.7143 1047.00
62.7795 1059.00
62.8447 1074.00
62.9099 1055.00
62.9751 1011.00
63.0403 962.00
63.1055 982.00
63.1707 990.00
63.2359 1012.00
63.3011 986.00
63.3663 927.00
63.4315 842.00
63.4967 784.00
63.5619 729.00
63.6271 797.00
63.6923 804.00
63.7575 762.00
63.8227 718.00
63.8879 744.00
63.9531 764.00
64.0183 718.00
64.0835 721.00
64.1487 734.00
64.2139 745.00
64.2791 763.00
64.3443 779.00
64.4095 781.00
64.4747 783.00
64.5399 790.00
64.6051 767.00
64.6703 836.00
64.7355 811.00
64.8007 873.00
64.8659 909.00
64.9311 927.00
64.9963 970.00
65.0615 1019.00
65.1267 1023.00
65.1919 1092.00
65.2571 1147.00
65.3223 1159.00
65.3875 1091.00
65.4527 1109.00
65.5179 1046.00
65.5831 1113.00
65.6483 993.00
65.7135 1083.00
65.7787 1096.00
65.8439 1067.00
65.9091 1126.00
65.9743 1162.00
66.0395 1182.00
66.1047 1129.00
66.1699 1163.00
66.2351 1148.00
66.3003 1162.00
66.3655 1171.00
66.4307 1198.00
66.4959 1240.00
66.561 1224.00
66.6263 1179.00
66.6915 972.00
66.7566 1096.00
66.8218 988.00
66.887 963.00
66.9522 974.00
67.0174 843.00
67.0826 788.00
67.1478 864.00
67.213 832.00
67.2782 727.00
67.3434 781.00
67.4086 760.00
67.4738 748.00
67.539 733.00
67.6042 690.00
67.6694 708.00
67.7346 691.00
67.7998 789.00
67.865 697.00
67.9302 702.00
67.9954 756.00
68.0606 705.00
68.1258 695.00
68.191 734.00
68.2562 669.00
68.3214 696.00
68.3866 779.00
68.4518 820.00
68.517 844.00
68.5822 902.00
68.6474 980.00
68.7126 1071.00
68.7778 1134.00
68.843 1179.00
68.9082 1078.00
68.9734 1049.00
69.0386 1003.00
69.1038 915.00
69.169 889.00
69.2342 828.00
69.2994 890.00
69.3646 796.00
69.4298 821.00
69.495 767.00
69.5602 794.00
69.6254 811.00
69.6906 797.00
69.7558 773.00
69.821 776.00
69.8862 825.00
69.9514 754.00
70.0166 747.00
70.0818 808.00
70.147 775.00
70.2122 793.00
70.2774 747.00
70.3426 779.00
70.4078 775.00
70.473 734.00
70.5382 743.00
70.6034 740.00
70.6686 761.00
70.7338 710.00
70.799 732.00
70.8642 763.00
70.9294 765.00
70.9946 742.00
71.0598 751.00
71.125 741.00
71.1902 741.00
71.2554 761.00
71.3205 799.00
71.3858 770.00
71.451 796.00
71.5162 830.00
71.5813 824.00
71.6465 835.00
71.7117 829.00
71.7769 854.00
71.8421 767.00
71.9073 851.00
71.9725 829.00
72.0377 838.00
72.1029 846.00
72.1681 935.00
72.2333 1055.00
72.2985 1035.00
72.3637 1175.00
72.4289 1217.00
72.4941 1131.00
72.5593 1127.00
72.6245 1146.00
72.6897 1123.00
72.7549 1042.00
72.8201 993.00
72.8853 1037.00
72.9505 940.00
73.0157 862.00
73.0809 928.00
73.1461 901.00
73.2113 876.00
73.2765 845.00
73.3417 858.00
73.4069 815.00
73.4721 859.00
73.5373 805.00
73.6025 813.00
73.6677 810.00
73.7329 762.00
73.7981 789.00
73.8633 778.00
73.9285 794.00
73.9937 755.00
74.0589 839.00
74.1241 791.00
74.1893 759.00
74.2545 826.00
74.3197 760.00
74.3849 747.00
74.4501 749.00
74.5153 720.00
74.5805 758.00
74.6457 684.00
74.7109 755.00
74.7761 809.00
74.8413 775.00
74.9065 753.00
74.9717 697.00
75.0369 693.00
75.1021 745.00
75.1673 768.00
75.2325 787.00
75.2977 808.00
75.3629 803.00
75.4281 856.00
75.4933 859.00
75.5585 864.00
75.6237 979.00
75.6889 967.00
75.7541 1073.00
75.8193 1060.00
75.8845 1014.00
75.9497 1064.00
76.0149 986.00
76.0801 928.00
76.1452 913.00
76.2104 833.00
76.2756 833.00
76.3409 781.00
76.406 808.00
76.4712 726.00
76.5364 777.00
76.6016 835.00
76.6668 818.00
76.732 821.00
76.7972 806.00
76.8624 836.00
76.9276 909.00
76.9928 919.00
77.058 859.00
77.1232 871.00
77.1884 789.00
77.2536 839.00
77.3188 772.00
77.384 768.00
77.4492 783.00
77.5144 801.00
77.5796 848.00
77.6448 695.00
77.71 748.00
77.7752 728.00
77.8404 744.00
77.9056 698.00
77.9708 708.00
78.036 757.00
78.1012 720.00
78.1664 683.00
78.2316 748.00
78.2968 734.00
78.362 719.00
78.4272 765.00
78.4924 728.00
78.5576 713.00
78.6228 694.00
78.688 762.00
78.7532 658.00
78.8184 683.00
78.8836 685.00
78.9488 750.00
79.014 699.00
79.0792 744.00
79.1444 717.00
79.2096 722.00
79.2748 789.00
79.34 780.00
79.4052 816.00
79.4704 843.00
79.5356 812.00
79.6008 881.00
79.666 864.00
79.7312 906.00
79.7964 869.00
79.8616 836.00
79.9268 848.00
79.992 868.00
80.0572 810.00
80.1224 787.00
80.1876 771.00
80.2528 797.00
80.318 810.00
80.3832 925.00
80.4484 873.00
80.5136 917.00
80.5788 949.00
80.644 1027.00
80.7092 964.00
80.7744 1045.00
80.8396 989.00
80.9048 1035.00
80.9699 977.00
81.0351 925.00
81.1003 900.00
81.1655 863.00
81.2307 839.00
81.2959 770.00
81.3611 811.00
81.4263 798.00
81.4915 775.00
81.5567 781.00
81.6219 728.00
81.6871 788.00
81.7523 743.00
81.8175 760.00
81.8827 795.00
81.9479 874.00
82.0131 752.00
82.0783 824.00
82.1435 844.00
82.2087 801.00
82.2739 829.00
82.3391 849.00
82.4043 822.00
82.4695 866.00
82.5347 876.00
82.5999 885.00
82.6651 831.00
82.7303 856.00
82.7955 839.00
82.8607 836.00
82.9259 717.00
82.9911 752.00
83.0563 741.00
83.1215 759.00
83.1867 772.00
83.2519 769.00
83.3171 736.00
83.3823 778.00
83.4475 755.00
83.5127 777.00
83.5779 810.00
83.6431 819.00
83.7083 751.00
83.7735 789.00
83.8387 727.00
83.9039 801.00
83.9691 744.00
84.0343 745.00
84.0995 756.00
84.1647 704.00
84.2299 697.00
84.2951 757.00
84.3603 740.00
84.4255 778.00
84.4907 729.00
84.5559 771.00
84.6211 758.00
84.6863 698.00
84.7515 789.00
84.8167 807.00
84.8819 789.00
84.9471 711.00
85.0123 799.00
85.0775 742.00
85.1427 676.00
85.2079 761.00
85.2731 746.00
85.3383 804.00
85.4035 767.00
85.4687 787.00
85.5339 823.00
85.5991 803.00
85.6643 774.00
85.7295 842.00
85.7946 816.00
85.8598 827.00
85.925 835.00
85.9903 805.00
86.0554 817.00
86.1206 932.00
86.1858 855.00
86.251 813.00
86.3162 843.00
86.3814 847.00
86.4466 881.00
86.5118 905.00
86.577 867.00
86.6422 927.00
86.7074 882.00
86.7726 970.00
86.8378 979.00
86.903 973.00
86.9682 1035.00
87.0334 984.00
87.0986 975.00
87.1638 1013.00
87.229 974.00
87.2942 920.00
87.3594 920.00
87.4246 890.00
87.4898 887.00
87.555 832.00
87.6202 872.00
87.6854 860.00
87.7506 826.00
87.8158 853.00
87.881 753.00
87.9462 771.00
88.0114 796.00
88.0766 837.00
88.1418 726.00
88.207 802.00
88.2722 693.00
88.3374 791.00
88.4026 755.00
88.4678 773.00
88.533 800.00
88.5982 808.00
88.6634 828.00
88.7286 788.00
88.7938 806.00
88.859 837.00
88.9242 846.00
88.9894 828.00
89.0546 847.00
89.1198 887.00
89.185 839.00
89.2502 871.00
89.3154 837.00
89.3806 878.00
89.4458 824.00
89.511 880.00
89.5762 815.00
89.6414 857.00
89.7066 862.00
89.7718 851.00
89.837 882.00
89.9022 870.00
89.9674 875.00
90.0326 871.00
90.0978 802.00
90.163 792.00
90.2282 780.00
90.2934 848.00
90.3586 797.00
90.4238 831.00
90.489 799.00
90.5542 867.00
90.6193 803.00
90.6845 788.00
90.7497 815.00
90.8149 776.00
90.8801 841.00
90.9453 754.00
91.0105 843.00
91.0757 796.00
91.1409 766.00
91.2061 768.00
91.2713 774.00
91.3365 725.00
91.4017 791.00
91.4669 727.00
91.5321 706.00
91.5973 708.00
91.6625 730.00
91.7277 723.00
91.7929 763.00
91.8581 722.00
91.9233 764.00
91.9885 716.00
92.0537 780.00
92.1189 806.00
92.1841 809.00
92.2493 833.00
92.3145 807.00
92.3797 791.00
92.4449 791.00
92.5101 837.00
92.5753 909.00
92.6405 892.00
92.7057 868.00
92.7709 869.00
92.8361 924.00
92.9013 934.00
92.9665 873.00
93.0317 906.00
93.0969 909.00
93.1621 915.00
93.2273 923.00
93.2925 907.00
93.3577 860.00
93.4229 956.00
93.4881 898.00
93.5533 919.00
93.6185 892.00
93.6837 889.00
93.7489 890.00
93.8141 900.00
93.8793 907.00
93.9445 826.00
94.0097 823.00
94.0749 853.00
94.1401 776.00
94.2053 823.00
94.2705 841.00
94.3357 807.00
94.4009 826.00
94.4661 785.00
94.5313 797.00
94.5965 798.00
94.6617 702.00
94.7269 740.00
94.7921 722.00
94.8573 736.00
94.9225 768.00
94.9877 688.00
95.0529 699.00
95.1181 755.00
95.1833 773.00
95.2485 735.00
95.3137 813.00
95.3789 799.00
95.444 768.00
95.5092 821.00
95.5744 811.00
95.6396 842.00
95.7048 828.00
95.77 870.00
95.8352 875.00
95.9004 847.00
95.9656 834.00
96.0308 863.00
96.096 845.00
96.1612 817.00
96.2264 827.00
96.2916 825.00
96.3568 759.00
96.422 825.00
96.4872 760.00
96.5524 816.00
96.6176 768.00
96.6828 795.00
96.748 771.00
96.8132 797.00
96.8784 729.00
96.9436 767.00
97.0088 867.00
97.074 789.00
97.1392 786.00
97.2044 840.00
97.2696 827.00
97.3348 851.00
97.4 838.00
97.4652 817.00
97.5304 809.00
97.5956 852.00
97.6608 852.00
97.726 775.00
97.7912 806.00
97.8564 822.00
97.9216 749.00
97.9868 721.00
98.052 766.00
98.1172 728.00
98.1824 782.00
98.2476 752.00
98.3128 750.00
98.378 769.00
98.4432 740.00
98.5084 792.00
98.5736 758.00
98.6388 752.00
98.704 697.00
98.7692 779.00
98.8344 817.00
98.8996 795.00
98.9648 750.00
99.03 835.00
99.0952 826.00
99.1604 804.00
99.2256 829.00
99.2908 785.00
99.356 836.00
99.4212 892.00
99.4864 843.00
99.5516 938.00
99.6168 913.00
99.682 942.00
99.7472 865.00
99.8124 936.00
99.8776 925.00
99.9428 963.00
100.008 997.00
100.073 1007.00
100.095 1020.00