File: data/xrd_creation/results/NSC_29.xy
9.903433 3123.00
9.968632 3033.00
10.0338 3025.00
10.099 2949.00
10.1642 2921.00
10.2294 2989.00
10.2946 2994.00
10.3598 2982.00
10.425 2940.00
10.4902 2859.00
10.5554 2893.00
10.6206 2889.00
10.6858 2833.00
10.751 2938.00
10.8162 2786.00
10.8814 2887.00
10.9466 2880.00
11.0118 2837.00
11.077 2843.00
11.1422 2664.00
11.2074 2743.00
11.2726 2663.00
11.3378 2730.00
11.403 2678.00
11.4682 2740.00
11.5334 2721.00
11.5986 2670.00
11.6638 2661.00
11.729 2536.00
11.7942 2529.00
11.8594 2638.00
11.9246 2529.00
11.9898 2546.00
12.055 2528.00
12.1202 2569.00
12.1854 2520.00
12.2506 2534.00
12.3158 2650.00
12.381 2647.00
12.4462 2583.00
12.5114 2627.00
12.5766 2571.00
12.6418 2496.00
12.707 2530.00
12.7722 2472.00
12.8374 2485.00
12.9026 2436.00
12.9678 2445.00
13.033 2472.00
13.0982 2325.00
13.1634 2380.00
13.2286 2406.00
13.2938 2364.00
13.359 2296.00
13.4242 2347.00
13.4894 2339.00
13.5546 2443.00
13.6198 2401.00
13.685 2378.00
13.7502 2396.00
13.8154 2429.00
13.8805 2639.00
13.9457 2711.00
14.0109 3096.00
14.0761 3492.00
14.1413 4350.00
14.2065 5287.00
14.2717 5616.00
14.3369 3464.00
14.4021 2467.00
14.4673 2409.00
14.5325 2361.00
14.5977 2365.00
14.6629 2313.00
14.7281 2298.00
14.7933 2330.00
14.8585 2210.00
14.9237 2246.00
14.9889 2368.00
15.0541 2206.00
15.1193 2217.00
15.1845 2262.00
15.2497 2201.00
15.3149 2292.00
15.3801 2209.00
15.4453 2293.00
15.5105 2144.00
15.5757 2264.00
15.6409 2370.00
15.7061 2234.00
15.7713 2343.00
15.8365 2214.00
15.9017 2304.00
15.9669 2084.00
16.0321 2262.00
16.0973 2372.00
16.1625 2130.00
16.2277 2270.00
16.2929 2197.00
16.3581 2277.00
16.4233 2162.00
16.4885 2189.00
16.5537 2195.00
16.6189 2117.00
16.6841 2070.00
16.7493 2155.00
16.8145 2092.00
16.8797 2181.00
16.9449 2179.00
17.0101 2103.00
17.0753 2164.00
17.1405 2059.00
17.2057 2089.00
17.2709 2263.00
17.3361 2188.00
17.4013 2122.00
17.4665 2126.00
17.5317 2173.00
17.5969 2145.00
17.6621 2222.00
17.7273 2162.00
17.7925 2188.00
17.8577 2170.00
17.9229 2160.00
17.9881 2072.00
18.0533 2079.00
18.1185 2085.00
18.1837 2151.00
18.2489 2154.00
18.3141 2115.00
18.3793 2136.00
18.4445 2080.00
18.5097 2148.00
18.5749 2144.00
18.6401 2090.00
18.7052 2047.00
18.7704 2026.00
18.8356 2067.00
18.9008 2006.00
18.966 2036.00
19.0312 2077.00
19.0964 2219.00
19.1616 2215.00
19.2268 2289.00
19.292 2328.00
19.3572 2675.00
19.4224 2969.00
19.4876 3820.00
19.5528 5502.00
19.618 8488.00
19.6832 13027.00
19.7484 13948.00
19.8136 7413.00
19.8788 3296.00
19.944 2735.00
20.0092 2810.00
20.0744 3079.00
20.1396 3768.00
20.2048 5208.00
20.27 7979.00
20.3352 11839.00
20.4004 15609.00
20.4656 13958.00
20.5308 6249.00
20.596 2970.00
20.6612 2384.00
20.7264 2289.00
20.7916 2149.00
20.8568 2222.00
20.922 2093.00
20.9872 2110.00
21.0524 2118.00
21.1176 2076.00
21.1828 2071.00
21.248 2028.00
21.3132 2056.00
21.3784 2114.00
21.4436 1989.00
21.5088 2065.00
21.574 2072.00
21.6392 2042.00
21.7044 1923.00
21.7696 2059.00
21.8348 2086.00
21.9 2186.00
21.9652 2127.00
22.0304 2246.00
22.0956 2226.00
22.1608 2243.00
22.226 2195.00
22.2912 2131.00
22.3564 2133.00
22.4216 2093.00
22.4868 2017.00
22.552 2036.00
22.6172 2030.00
22.6824 1951.00
22.7476 2048.00
22.8128 2158.00
22.878 2109.00
22.9432 2191.00
23.0084 2196.00
23.0736 2434.00
23.1388 2602.00
23.204 2612.00
23.2692 2792.00
23.3344 3392.00
23.3996 4961.00
23.4647 7889.00
23.5299 12750.00
23.5951 16981.00
23.6603 14272.00
23.7255 6253.00
23.7907 2771.00
23.8559 2301.00
23.9211 2186.00
23.9863 2089.00
24.0515 2058.00
24.1167 2036.00
24.1819 1979.00
24.2471 2068.00
24.3123 2193.00
24.3775 2079.00
24.4427 2059.00
24.5079 2000.00
24.5731 1837.00
24.6383 1901.00
24.7035 2161.00
24.7687 2097.00
24.8339 2013.00
24.8991 1941.00
24.9643 1967.00
25.0295 1848.00
25.0947 1844.00
25.1599 1924.00
25.2251 1831.00
25.2903 1826.00
25.3555 1824.00
25.4207 1756.00
25.4859 1803.00
25.5511 1732.00
25.6163 1826.00
25.6815 1780.00
25.7467 1763.00
25.8119 1764.00
25.8771 1699.00
25.9423 1774.00
26.0075 1756.00
26.0727 1801.00
26.1379 1703.00
26.2031 1754.00
26.2683 1757.00
26.3335 1774.00
26.3987 1741.00
26.4639 1707.00
26.5291 1798.00
26.5943 1703.00
26.6595 1773.00
26.7247 1791.00
26.7899 1823.00
26.8551 1767.00
26.9203 1751.00
26.9855 1837.00
27.0507 1776.00
27.1159 1728.00
27.1811 1723.00
27.2463 1738.00
27.3115 1814.00
27.3767 1750.00
27.4419 1696.00
27.5071 1749.00
27.5723 1703.00
27.6375 1810.00
27.7027 1827.00
27.7679 1860.00
27.8331 1954.00
27.8983 1927.00
27.9635 2028.00
28.0287 1942.00
28.0939 2273.00
28.1591 2692.00
28.2243 4046.00
28.2894 6226.00
28.3546 9689.00
28.4198 12443.00
28.485 9015.00
28.5502 4585.00
28.6154 2571.00
28.6806 2101.00
28.7458 1944.00
28.811 1902.00
28.8762 1899.00
28.9414 1783.00
29.0066 1772.00
29.0718 1727.00
29.137 1724.00
29.2022 1730.00
29.2674 1785.00
29.3326 1696.00
29.3978 1703.00
29.463 1766.00
29.5282 1722.00
29.5934 1826.00
29.6586 1725.00
29.7238 1667.00
29.789 1724.00
29.8542 1756.00
29.9194 1714.00
29.9846 1741.00
30.0498 1779.00
30.115 1733.00
30.1802 1765.00
30.2454 1811.00
30.3106 1712.00
30.3758 1813.00
30.441 1808.00
30.5062 1829.00
30.5714 1805.00
30.6366 1837.00
30.7018 1877.00
30.767 1937.00
30.8322 1987.00
30.8974 2017.00
30.9626 2173.00
31.0278 2487.00
31.093 3239.00
31.1582 4766.00
31.2234 8468.00
31.2886 13785.00
31.3538 18170.00
31.419 14312.00
31.4842 8587.00
31.5494 5037.00
31.6146 3778.00
31.6798 3199.00
31.745 2986.00
31.8102 2600.00
31.8754 2179.00
31.9406 1937.00
32.0058 1720.00
32.071 1702.00
32.1362 1691.00
32.2014 1728.00
32.2666 1669.00
32.3318 1666.00
32.397 1652.00
32.4622 1616.00
32.5274 1654.00
32.5926 1598.00
32.6578 1609.00
32.723 1652.00
32.7882 1643.00
32.8534 1631.00
32.9186 1609.00
32.9838 1633.00
33.0489 1577.00
33.1141 1521.00
33.1793 1570.00
33.2445 1497.00
33.3097 1579.00
33.3749 1678.00
33.4401 1571.00
33.5053 1653.00
33.5705 1589.00
33.6357 1671.00
33.7009 1793.00
33.7661 1893.00
33.8313 2062.00
33.8965 2189.00
33.9617 1867.00
34.0269 1764.00
34.0921 1695.00
34.1573 1835.00
34.2225 1986.00
34.2877 2196.00
34.3529 2219.00
34.4181 2192.00
34.4833 1861.00
34.5485 1864.00
34.6137 1841.00
34.6789 1839.00
34.7441 1924.00
34.8093 2086.00
34.8745 2223.00
34.9397 2773.00
35.0049 3588.00
35.0701 4946.00
35.1353 5469.00
35.2005 4546.00
35.2657 3695.00
35.3309 3619.00
35.3961 4499.00
35.4613 6162.00
35.5265 7859.00
35.5917 6832.00
35.6569 4371.00
35.7221 2466.00
35.7873 1836.00
35.8525 1656.00
35.9177 1652.00
35.9829 1734.00
36.0481 1527.00
36.1133 1601.00
36.1785 1609.00
36.2437 1611.00
36.3089 1527.00
36.3741 1598.00
36.4393 1568.00
36.5045 1569.00
36.5697 1539.00
36.6349 1504.00
36.7001 1449.00
36.7653 1486.00
36.8305 1460.00
36.8957 1490.00
36.9609 1440.00
37.0261 1476.00
37.0913 1478.00
37.1565 1443.00
37.2217 1504.00
37.2869 1451.00
37.3521 1486.00
37.4173 1474.00
37.4825 1486.00
37.5477 1373.00
37.6129 1477.00
37.6781 1394.00
37.7433 1442.00
37.8085 1451.00
37.8736 1514.00
37.9388 1463.00
38.004 1448.00
38.0692 1534.00
38.1344 1467.00
38.1996 1445.00
38.2648 1485.00
38.33 1479.00
38.3952 1418.00
38.4604 1390.00
38.5256 1413.00
38.5908 1379.00
38.656 1461.00
38.7212 1450.00
38.7864 1552.00
38.8516 1519.00
38.9168 1514.00
38.982 1486.00
39.0472 1408.00
39.1124 1385.00
39.1776 1364.00
39.2428 1454.00
39.308 1439.00
39.3732 1460.00
39.4384 1479.00
39.5036 1519.00
39.5688 1645.00
39.634 1883.00
39.6992 2392.00
39.7644 2453.00
39.8296 2083.00
39.8948 1826.00
39.96 1515.00
40.0252 1418.00
40.0904 1439.00
40.1556 1434.00
40.2208 1406.00
40.286 1423.00
40.3512 1408.00
40.4164 1413.00
40.4816 1400.00
40.5468 1456.00
40.612 1417.00
40.6772 1428.00
40.7424 1439.00
40.8076 1503.00
40.8728 1642.00
40.938 1681.00
41.0032 1727.00
41.0684 1860.00
41.1336 1973.00
41.1988 2260.00
41.264 2338.00
41.3292 2404.00
41.3944 2480.00
41.4596 2262.00
41.5248 2056.00
41.59 2098.00
41.6552 2049.00
41.7204 1861.00
41.7856 1693.00
41.8508 1641.00
41.916 1559.00
41.9812 1564.00
42.0464 1818.00
42.1116 1823.00
42.1768 1614.00
42.242 1475.00
42.3072 1435.00
42.3724 1436.00
42.4376 1395.00
42.5028 1441.00
42.568 1522.00
42.6332 1608.00
42.6983 1600.00
42.7635 1683.00
42.8287 1942.00
42.8939 2327.00
42.9591 2776.00
43.0243 3089.00
43.0895 2790.00
43.1547 2330.00
43.2199 1767.00
43.2851 1512.00
43.3503 1472.00
43.4155 1569.00
43.4807 1512.00
43.5459 1471.00
43.6111 1540.00
43.6763 1710.00
43.7415 1632.00
43.8067 1526.00
43.8719 1507.00
43.9371 1412.00
44.0023 1375.00
44.0675 1491.00
44.1327 1387.00
44.1979 1361.00
44.2631 1394.00
44.3283 1411.00
44.3935 1428.00
44.4587 1412.00
44.5239 1426.00
44.5891 1491.00
44.6543 1570.00
44.7195 1806.00
44.7847 2298.00
44.8499 2939.00
44.9151 4185.00
44.9803 4739.00
45.0455 3734.00
45.1107 2870.00
45.1759 1907.00
45.2411 1638.00
45.3063 1549.00
45.3715 1645.00
45.4367 1505.00
45.5019 1491.00
45.5671 1613.00
45.6323 1614.00
45.6975 1845.00
45.7627 2110.00
45.8279 2317.00
45.8931 2790.00
45.9583 3283.00
46.0235 3010.00
46.0887 2466.00
46.1539 1938.00
46.2191 1647.00
46.2843 1507.00
46.3495 1594.00
46.4147 1502.00
46.4799 1713.00
46.5451 2017.00
46.6103 2387.00
46.6755 2800.00
46.7407 2461.00
46.8059 2193.00
46.8711 1872.00
46.9363 1757.00
47.0015 1694.00
47.0667 1562.00
47.1319 1408.00
47.1971 1466.00
47.2623 1550.00
47.3275 1440.00
47.3927 1476.00
47.4579 1549.00
47.523 1731.00
47.5882 1872.00
47.6534 2114.00
47.7186 2518.00
47.7838 2866.00
47.849 3607.00
47.9142 4886.00
47.9794 5655.00
48.0446 4547.00
48.1098 3671.00
48.175 2746.00
48.2402 2023.00
48.3054 1870.00
48.3706 1739.00
48.4358 1705.00
48.501 1817.00
48.5662 1926.00
48.6314 2033.00
48.6966 1822.00
48.7618 1627.00
48.827 1457.00
48.8922 1365.00
48.9574 1442.00
49.0226 1429.00
49.0878 1368.00
49.153 1431.00
49.2182 1459.00
49.2834 1450.00
49.3486 1558.00
49.4138 1521.00
49.479 1621.00
49.5442 1637.00
49.6094 1535.00
49.6746 1568.00
49.7398 1486.00
49.805 1376.00
49.8702 1431.00
49.9354 1496.00
50.0006 1388.00
50.0658 1336.00
50.131 1373.00
50.1962 1531.00
50.2614 1520.00
50.3266 1732.00
50.3918 1803.00
50.457 1739.00
50.5222 1720.00
50.5874 1596.00
50.6526 1660.00
50.7178 1650.00
50.783 1757.00
50.8482 1687.00
50.9134 1649.00
50.9786 1756.00
51.0438 1856.00
51.109 2252.00
51.1742 2772.00
51.2394 3758.00
51.3046 4903.00
51.3698 4628.00
51.435 3659.00
51.5002 3066.00
51.5654 2194.00
51.6306 2016.00
51.6958 2035.00
51.761 2081.00
51.8262 1733.00
51.8914 1662.00
51.9566 1524.00
52.0218 1394.00
52.087 1332.00
52.1522 1331.00
52.2174 1359.00
52.2826 1330.00
52.3477 1321.00
52.4129 1333.00
52.4781 1357.00
52.5433 1337.00
52.6085 1420.00
52.6737 1461.00
52.7389 1408.00
52.8041 1433.00
52.8693 1311.00
52.9345 1344.00
52.9997 1234.00
53.0649 1382.00
53.1301 1300.00
53.1953 1339.00
53.2605 1295.00
53.3257 1394.00
53.3909 1328.00
53.4561 1396.00
53.5213 1376.00
53.5865 1366.00
53.6517 1449.00
53.7169 1390.00
53.7821 1463.00
53.8473 1453.00
53.9125 1513.00
53.9777 1784.00
54.0429 1960.00
54.1081 2223.00
54.1733 2539.00
54.2385 2690.00
54.3037 2272.00
54.3689 2187.00
54.4341 1914.00
54.4993 1622.00
54.5645 1581.00
54.6297 1581.00
54.6949 1762.00
54.7601 1752.00
54.8253 2037.00
54.8905 2220.00
54.9557 2660.00
55.0209 3205.00
55.0861 3752.00
55.1513 3531.00
55.2165 3678.00
55.2817 3968.00
55.3469 4753.00
55.4121 4440.00
55.4773 3799.00
55.5425 3335.00
55.6077 2377.00
55.6729 1887.00
55.7381 1703.00
55.8033 1561.00
55.8685 1522.00
55.9337 1402.00
55.9989 1419.00
56.0641 1429.00
56.1293 1503.00
56.1945 1419.00
56.2597 1615.00
56.3249 1383.00
56.3901 1505.00
56.4553 1525.00
56.5205 1528.00
56.5857 1578.00
56.6509 1587.00
56.7161 1538.00
56.7813 1629.00
56.8465 1618.00
56.9117 1578.00
56.9769 1511.00
57.042 1370.00
57.1073 1345.00
57.1724 1371.00
57.2376 1428.00
57.3028 1333.00
57.368 1370.00
57.4332 1429.00
57.4984 1352.00
57.5636 1342.00
57.6288 1388.00
57.694 1428.00
57.7592 1503.00
57.8244 1361.00
57.8896 1459.00
57.9548 1548.00
58.02 1620.00
58.0852 1856.00
58.1504 2209.00
58.2156 2412.00
58.2808 2187.00
58.346 2258.00
58.4112 2185.00
58.4764 1914.00
58.5416 1782.00
58.6068 1611.00
58.672 1411.00
58.7372 1437.00
58.8024 1297.00
58.8676 1341.00
58.9328 1273.00
58.998 1333.00
59.0632 1289.00
59.1284 1312.00
59.1936 1389.00
59.2588 1492.00
59.324 1401.00
59.3892 1538.00
59.4544 1497.00
59.5196 1638.00
59.5848 1713.00
59.65 1914.00
59.7152 2397.00
59.7804 2755.00
59.8456 3128.00
59.9108 2721.00
59.976 2486.00
60.0412 2307.00
60.1064 1913.00
60.1716 1695.00
60.2368 1676.00
60.302 1565.00
60.3672 1623.00
60.4324 1526.00
60.4976 1673.00
60.5628 1766.00
60.628 1663.00
60.6932 1950.00
60.7584 2137.00
60.8236 2370.00
60.8888 2989.00
60.954 3287.00
61.0192 2944.00
61.0844 2688.00
61.1496 2409.00
61.2148 2059.00
61.28 1637.00
61.3452 1542.00
61.4104 1508.00
61.4756 1500.00
61.5408 1413.00
61.606 1343.00
61.6712 1386.00
61.7364 1340.00
61.8016 1377.00
61.8667 1470.00
61.932 1567.00
61.9971 1627.00
62.0623 1831.00
62.1275 2088.00
62.1927 2434.00
62.2579 2579.00
62.3231 2335.00
62.3883 2142.00
62.4535 2112.00
62.5187 1770.00
62.5839 1647.00
62.6491 1577.00
62.7143 1476.00
62.7795 1663.00
62.8447 1638.00
62.9099 1664.00
62.9751 1796.00
63.0403 1833.00
63.1055 1906.00
63.1707 2015.00
63.2359 2134.00
63.3011 2203.00
63.3663 2062.00
63.4315 1996.00
63.4967 2244.00
63.5619 2182.00
63.6271 1879.00
63.6923 1971.00
63.7575 1937.00
63.8227 1981.00
63.8879 1799.00
63.9531 1739.00
64.0183 1565.00
64.0835 1381.00
64.1487 1291.00
64.2139 1348.00
64.2791 1293.00
64.3443 1366.00
64.4095 1299.00
64.4747 1332.00
64.5399 1311.00
64.6051 1374.00
64.6703 1357.00
64.7355 1376.00
64.8007 1316.00
64.8659 1483.00
64.9311 1400.00
64.9963 1510.00
65.0615 1548.00
65.1267 1597.00
65.1919 1646.00
65.2571 1554.00
65.3223 1550.00
65.3875 1581.00
65.4527 1382.00
65.5179 1377.00
65.5831 1284.00
65.6483 1355.00
65.7135 1414.00
65.7787 1497.00
65.8439 1590.00
65.9091 1765.00
65.9743 1821.00
66.0395 2102.00
66.1047 2359.00
66.1699 2357.00
66.2351 2080.00
66.3003 1913.00
66.3655 1775.00
66.4307 1461.00
66.4959 1446.00
66.561 1358.00
66.6263 1395.00
66.6915 1334.00
66.7566 1385.00
66.8218 1411.00
66.887 1436.00
66.9522 1488.00
67.0174 1642.00
67.0826 1731.00
67.1478 1776.00
67.213 1653.00
67.2782 1649.00
67.3434 1723.00
67.4086 1667.00
67.4738 1630.00
67.539 1686.00
67.6042 1767.00
67.6694 1875.00
67.7346 1826.00
67.7998 1562.00
67.865 1470.00
67.9302 1374.00
67.9954 1337.00
68.0606 1366.00
68.1258 1273.00
68.191 1301.00
68.2562 1351.00
68.3214 1284.00
68.3866 1375.00
68.4518 1488.00
68.517 1469.00
68.5822 1503.00
68.6474 1627.00
68.7126 1688.00
68.7778 1586.00
68.843 1545.00
68.9082 1482.00
68.9734 1413.00
69.0386 1332.00
69.1038 1199.00
69.169 1269.00
69.2342 1284.00
69.2994 1259.00
69.3646 1189.00
69.4298 1261.00
69.495 1205.00
69.5602 1289.00
69.6254 1227.00
69.6906 1237.00
69.7558 1225.00
69.821 1305.00
69.8862 1320.00
69.9514 1333.00
70.0166 1267.00
70.0818 1290.00
70.147 1277.00
70.2122 1318.00
70.2774 1349.00
70.3426 1353.00
70.4078 1434.00
70.473 1425.00
70.5382 1562.00
70.6034 1609.00
70.6686 1646.00
70.7338 1836.00
70.799 2048.00
70.8642 2185.00
70.9294 2009.00
70.9946 1832.00
71.0598 1790.00
71.125 1659.00
71.1902 1485.00
71.2554 1268.00
71.3205 1334.00
71.3858 1270.00
71.451 1315.00
71.5162 1317.00
71.5813 1174.00
71.6465 1296.00
71.7117 1313.00
71.7769 1348.00
71.8421 1262.00
71.9073 1341.00
71.9725 1327.00
72.0377 1327.00
72.1029 1343.00
72.1681 1327.00
72.2333 1410.00
72.2985 1282.00
72.3637 1335.00
72.4289 1280.00
72.4941 1231.00
72.5593 1172.00
72.6245 1225.00
72.6897 1200.00
72.7549 1214.00
72.8201 1297.00
72.8853 1203.00
72.9505 1296.00
73.0157 1193.00
73.0809 1259.00
73.1461 1293.00
73.2113 1385.00
73.2765 1377.00
73.3417 1437.00
73.4069 1549.00
73.4721 1549.00
73.5373 1784.00
73.6025 2034.00
73.6677 1819.00
73.7329 1665.00
73.7981 1760.00
73.8633 1597.00
73.9285 1537.00
73.9937 1407.00
74.0589 1436.00
74.1241 1334.00
74.1893 1404.00
74.2545 1381.00
74.3197 1426.00
74.3849 1421.00
74.4501 1572.00
74.5153 1602.00
74.5805 1627.00
74.6457 1737.00
74.7109 1810.00
74.7761 2014.00
74.8413 1941.00
74.9065 1836.00
74.9717 1820.00
75.0369 1754.00
75.1021 1653.00
75.1673 1657.00
75.2325 1650.00
75.2977 1792.00
75.3629 1607.00
75.4281 1614.00
75.4933 1587.00
75.5585 1479.00
75.6237 1338.00
75.6889 1304.00
75.7541 1308.00
75.8193 1270.00
75.8845 1274.00
75.9497 1227.00
76.0149 1280.00
76.0801 1261.00
76.1452 1175.00
76.2104 1232.00
76.2756 1175.00
76.3409 1237.00
76.406 1299.00
76.4712 1372.00
76.5364 1251.00
76.6016 1346.00
76.6668 1317.00
76.732 1285.00
76.7972 1267.00
76.8624 1302.00
76.9276 1258.00
76.9928 1275.00
77.058 1285.00
77.1232 1332.00
77.1884 1395.00
77.2536 1355.00
77.3188 1333.00
77.384 1342.00
77.4492 1188.00
77.5144 1285.00
77.5796 1255.00
77.6448 1199.00
77.71 1210.00
77.7752 1285.00
77.8404 1350.00
77.9056 1256.00
77.9708 1339.00
78.036 1365.00
78.1012 1477.00
78.1664 1526.00
78.2316 1593.00
78.2968 1550.00
78.362 1634.00
78.4272 1672.00
78.4924 1719.00
78.5576 1681.00
78.6228 1685.00
78.688 1720.00
78.7532 1617.00
78.8184 1583.00
78.8836 1516.00
78.9488 1508.00
79.014 1497.00
79.0792 1368.00
79.1444 1337.00
79.2096 1302.00
79.2748 1301.00
79.34 1293.00
79.4052 1323.00
79.4704 1254.00
79.5356 1317.00
79.6008 1351.00
79.666 1311.00
79.7312 1318.00
79.7964 1244.00
79.8616 1300.00
79.9268 1229.00
79.992 1255.00
80.0572 1245.00
80.1224 1268.00
80.1876 1252.00
80.2528 1301.00
80.318 1269.00
80.3832 1275.00
80.4484 1329.00
80.5136 1445.00
80.5788 1485.00
80.644 1569.00
80.7092 1668.00
80.7744 1760.00
80.8396 1742.00
80.9048 1625.00
80.9699 1510.00
81.0351 1460.00
81.1003 1330.00
81.1655 1329.00
81.2307 1205.00
81.2959 1259.00
81.3611 1232.00
81.4263 1197.00
81.4915 1219.00
81.5567 1221.00
81.6219 1248.00
81.6871 1306.00
81.7523 1228.00
81.8175 1185.00
81.8827 1279.00
81.9479 1186.00
82.0131 1291.00
82.0783 1244.00
82.1435 1254.00
82.2087 1263.00
82.2739 1232.00
82.3391 1265.00
82.4043 1260.00
82.4695 1337.00
82.5347 1292.00
82.5999 1301.00
82.6651 1327.00
82.7303 1350.00
82.7955 1375.00
82.8607 1437.00
82.9259 1434.00
82.9911 1497.00
83.0563 1498.00
83.1215 1685.00
83.1867 1756.00
83.2519 1629.00
83.3171 1607.00
83.3823 1507.00
83.4475 1521.00
83.5127 1461.00
83.5779 1436.00
83.6431 1235.00
83.7083 1352.00
83.7735 1237.00
83.8387 1277.00
83.9039 1240.00
83.9691 1210.00
84.0343 1270.00
84.0995 1356.00
84.1647 1391.00
84.2299 1348.00
84.2951 1350.00
84.3603 1415.00
84.4255 1555.00
84.4907 1665.00
84.5559 1580.00
84.6211 1546.00
84.6863 1500.00
84.7515 1424.00
84.8167 1475.00
84.8819 1408.00
84.9471 1404.00
85.0123 1397.00
85.0775 1414.00
85.1427 1429.00
85.2079 1487.00
85.2731 1436.00
85.3383 1355.00
85.4035 1361.00
85.4687 1273.00
85.5339 1299.00
85.5991 1339.00
85.6643 1333.00
85.7295 1265.00
85.7946 1285.00
85.8598 1364.00
85.925 1493.00
85.9903 1492.00
86.0554 1329.00
86.1206 1372.00
86.1858 1338.00
86.251 1359.00
86.3162 1338.00
86.3814 1280.00
86.4466 1442.00
86.5118 1441.00
86.577 1479.00
86.6422 1381.00
86.7074 1287.00
86.7726 1381.00
86.8378 1415.00
86.903 1300.00
86.9682 1249.00
87.0334 1218.00
87.0986 1209.00
87.1638 1244.00
87.229 1229.00
87.2942 1124.00
87.3594 1311.00
87.4246 1236.00
87.4898 1219.00
87.555 1289.00
87.6202 1298.00
87.6854 1373.00
87.7506 1415.00
87.8158 1436.00
87.881 1465.00
87.9462 1435.00
88.0114 1371.00
88.0766 1369.00
88.1418 1346.00
88.207 1263.00
88.2722 1286.00
88.3374 1319.00
88.4026 1288.00
88.4678 1258.00
88.533 1391.00
88.5982 1357.00
88.6634 1489.00
88.7286 1483.00
88.7938 1481.00
88.859 1529.00
88.9242 1460.00
88.9894 1602.00
89.0546 1650.00
89.1198 1797.00
89.185 1811.00
89.2502 1959.00
89.3154 1842.00
89.3806 1594.00
89.4458 1605.00
89.511 1603.00
89.5762 1505.00
89.6414 1319.00
89.7066 1308.00
89.7718 1342.00
89.837 1275.00
89.9022 1260.00
89.9674 1308.00
90.0326 1315.00
90.0978 1315.00
90.163 1349.00
90.2282 1339.00
90.2934 1289.00
90.3586 1222.00
90.4238 1269.00
90.489 1287.00
90.5542 1239.00
90.6193 1299.00
90.6845 1310.00
90.7497 1205.00
90.8149 1312.00
90.8801 1286.00
90.9453 1278.00
91.0105 1342.00
91.0757 1314.00
91.1409 1404.00
91.2061 1445.00
91.2713 1545.00
91.3365 1557.00
91.4017 1654.00
91.4669 1454.00
91.5321 1458.00
91.5973 1414.00
91.6625 1337.00
91.7277 1369.00
91.7929 1222.00
91.8581 1370.00
91.9233 1364.00
91.9885 1260.00
92.0537 1264.00
92.1189 1257.00
92.1841 1260.00
92.2493 1249.00
92.3145 1297.00
92.3797 1299.00
92.4449 1211.00
92.5101 1262.00
92.5753 1322.00
92.6405 1233.00
92.7057 1210.00
92.7709 1148.00
92.8361 1189.00
92.9013 1227.00
92.9665 1160.00
93.0317 1209.00
93.0969 1272.00
93.1621 1304.00
93.2273 1318.00
93.2925 1217.00
93.3577 1319.00
93.4229 1338.00
93.4881 1456.00
93.5533 1471.00
93.6185 1556.00
93.6837 1431.00
93.7489 1497.00
93.8141 1530.00
93.8793 1395.00
93.9445 1406.00
94.0097 1444.00
94.0749 1346.00
94.1401 1352.00
94.2053 1337.00
94.2705 1409.00
94.3357 1312.00
94.4009 1365.00
94.4661 1310.00
94.5313 1387.00
94.5965 1411.00
94.6617 1513.00
94.7269 1496.00
94.7921 1700.00
94.8573 1651.00
94.9225 1525.00
94.9877 1508.00
95.0529 1539.00
95.1181 1521.00
95.1833 1404.00
95.2485 1343.00
95.3137 1431.00
95.3789 1370.00
95.444 1336.00
95.5092 1368.00
95.5744 1422.00
95.6396 1408.00
95.7048 1522.00
95.77 1607.00
95.8352 1487.00
95.9004 1492.00
95.9656 1422.00
96.0308 1435.00
96.096 1481.00
96.1612 1473.00
96.2264 1468.00
96.2916 1461.00
96.3568 1458.00
96.422 1376.00
96.4872 1279.00
96.5524 1276.00
96.6176 1333.00
96.6828 1237.00
96.748 1286.00
96.8132 1219.00
96.8784 1316.00
96.9436 1230.00
97.0088 1184.00
97.074 1198.00
97.1392 1235.00
97.2044 1197.00
97.2696 1224.00
97.3348 1162.00
97.4 1192.00
97.4652 1175.00
97.5304 1141.00
97.5956 1162.00
97.6608 1248.00
97.726 1237.00
97.7912 1248.00
97.8564 1196.00
97.9216 1250.00
97.9868 1276.00
98.052 1214.00
98.1172 1198.00
98.1824 1196.00
98.2476 1295.00
98.3128 1218.00
98.378 1288.00
98.4432 1296.00
98.5084 1424.00
98.5736 1369.00
98.6388 1410.00
98.704 1352.00
98.7692 1332.00
98.8344 1286.00
98.8996 1371.00
98.9648 1310.00
99.03 1418.00
99.0952 1294.00
99.1604 1260.00
99.2256 1300.00
99.2908 1373.00
99.356 1322.00
99.4212 1435.00
99.4864 1428.00
99.5516 1433.00
99.6168 1380.00
99.682 1378.00
99.7472 1419.00
99.8124 1478.00
99.8776 1514.00
99.9428 1551.00
100.008 1460.00
100.073 1490.00
100.095 1411.00