File: data/xrd_creation/results/NSC_189.xy
9.903433 2498.00
9.968632 2486.00
10.0338 2621.00
10.099 2452.00
10.1642 2483.00
10.2294 2483.00
10.2946 2385.00
10.3598 2436.00
10.425 2430.00
10.4902 2337.00
10.5554 2366.00
10.6206 2285.00
10.6858 2240.00
10.751 2315.00
10.8162 2315.00
10.8814 2201.00
10.9466 2127.00
11.0118 2288.00
11.077 2205.00
11.1422 2240.00
11.2074 2047.00
11.2726 2161.00
11.3378 2147.00
11.403 2046.00
11.4682 2034.00
11.5334 2046.00
11.5986 2021.00
11.6638 1979.00
11.729 1999.00
11.7942 1964.00
11.8594 1887.00
11.9246 1887.00
11.9898 1855.00
12.055 1864.00
12.1202 1814.00
12.1854 1914.00
12.2506 1793.00
12.3158 1768.00
12.381 1882.00
12.4462 1778.00
12.5114 1769.00
12.5766 1760.00
12.6418 1827.00
12.707 1645.00
12.7722 1686.00
12.8374 1727.00
12.9026 1614.00
12.9678 1724.00
13.033 1665.00
13.0982 1607.00
13.1634 1600.00
13.2286 1632.00
13.2938 1661.00
13.359 1673.00
13.4242 1584.00
13.4894 1470.00
13.5546 1550.00
13.6198 1550.00
13.685 1588.00
13.7502 1510.00
13.8154 1456.00
13.8805 1476.00
13.9457 1491.00
14.0109 1495.00
14.0761 1485.00
14.1413 1396.00
14.2065 1480.00
14.2717 1449.00
14.3369 1501.00
14.4021 1446.00
14.4673 1490.00
14.5325 1388.00
14.5977 1434.00
14.6629 1452.00
14.7281 1414.00
14.7933 1383.00
14.8585 1460.00
14.9237 1389.00
14.9889 1332.00
15.0541 1353.00
15.1193 1377.00
15.1845 1331.00
15.2497 1380.00
15.3149 1401.00
15.3801 1410.00
15.4453 1356.00
15.5105 1352.00
15.5757 1385.00
15.6409 1345.00
15.7061 1349.00
15.7713 1311.00
15.8365 1346.00
15.9017 1323.00
15.9669 1357.00
16.0321 1300.00
16.0973 1294.00
16.1625 1295.00
16.2277 1218.00
16.2929 1239.00
16.3581 1252.00
16.4233 1271.00
16.4885 1330.00
16.5537 1211.00
16.6189 1202.00
16.6841 1237.00
16.7493 1293.00
16.8145 1240.00
16.8797 1215.00
16.9449 1203.00
17.0101 1208.00
17.0753 1175.00
17.1405 1196.00
17.2057 1197.00
17.2709 1218.00
17.3361 1168.00
17.4013 1211.00
17.4665 1177.00
17.5317 1149.00
17.5969 1118.00
17.6621 1123.00
17.7273 1293.00
17.7925 1130.00
17.8577 1109.00
17.9229 1146.00
17.9881 1145.00
18.0533 1134.00
18.1185 1208.00
18.1837 1110.00
18.2489 1105.00
18.3141 1097.00
18.3793 1065.00
18.4445 1104.00
18.5097 1108.00
18.5749 1086.00
18.6401 1102.00
18.7052 1045.00
18.7704 1051.00
18.8356 1113.00
18.9008 1128.00
18.966 1030.00
19.0312 1069.00
19.0964 1028.00
19.1616 1008.00
19.2268 988.00
19.292 1075.00
19.3572 1025.00
19.4224 1023.00
19.4876 972.00
19.5528 988.00
19.618 995.00
19.6832 1002.00
19.7484 1020.00
19.8136 1019.00
19.8788 1023.00
19.944 951.00
20.0092 1012.00
20.0744 1004.00
20.1396 964.00
20.2048 980.00
20.27 964.00
20.3352 923.00
20.4004 962.00
20.4656 990.00
20.5308 957.00
20.596 897.00
20.6612 944.00
20.7264 927.00
20.7916 967.00
20.8568 974.00
20.922 953.00
20.9872 886.00
21.0524 952.00
21.1176 953.00
21.1828 913.00
21.248 908.00
21.3132 970.00
21.3784 906.00
21.4436 913.00
21.5088 868.00
21.574 885.00
21.6392 875.00
21.7044 870.00
21.7696 906.00
21.8348 858.00
21.9 842.00
21.9652 902.00
22.0304 896.00
22.0956 880.00
22.1608 862.00
22.226 882.00
22.2912 870.00
22.3564 814.00
22.4216 881.00
22.4868 841.00
22.552 848.00
22.6172 874.00
22.6824 856.00
22.7476 869.00
22.8128 876.00
22.878 860.00
22.9432 903.00
23.0084 864.00
23.0736 910.00
23.1388 885.00
23.204 862.00
23.2692 852.00
23.3344 841.00
23.3996 815.00
23.4647 902.00
23.5299 819.00
23.5951 835.00
23.6603 806.00
23.7255 815.00
23.7907 782.00
23.8559 788.00
23.9211 802.00
23.9863 803.00
24.0515 795.00
24.1167 816.00
24.1819 839.00
24.2471 859.00
24.3123 818.00
24.3775 756.00
24.4427 745.00
24.5079 772.00
24.5731 780.00
24.6383 724.00
24.7035 775.00
24.7687 783.00
24.8339 795.00
24.8991 779.00
24.9643 804.00
25.0295 753.00
25.0947 806.00
25.1599 907.00
25.2251 806.00
25.2903 771.00
25.3555 806.00
25.4207 851.00
25.4859 747.00
25.5511 757.00
25.6163 713.00
25.6815 734.00
25.7467 726.00
25.8119 734.00
25.8771 748.00
25.9423 762.00
26.0075 714.00
26.0727 767.00
26.1379 734.00
26.2031 739.00
26.2683 748.00
26.3335 879.00
26.3987 1008.00
26.4639 977.00
26.5291 786.00
26.5943 803.00
26.6595 749.00
26.7247 670.00
26.7899 701.00
26.8551 707.00
26.9203 678.00
26.9855 699.00
27.0507 696.00
27.1159 696.00
27.1811 648.00
27.2463 686.00
27.3115 718.00
27.3767 721.00
27.4419 750.00
27.5071 740.00
27.5723 748.00
27.6375 699.00
27.7027 722.00
27.7679 779.00
27.8331 773.00
27.8983 746.00
27.9635 718.00
28.0287 776.00
28.0939 866.00
28.1591 805.00
28.2243 851.00
28.2894 872.00
28.3546 787.00
28.4198 666.00
28.485 669.00
28.5502 712.00
28.6154 712.00
28.6806 685.00
28.7458 630.00
28.811 638.00
28.8762 673.00
28.9414 626.00
29.0066 619.00
29.0718 692.00
29.137 650.00
29.2022 656.00
29.2674 645.00
29.3326 632.00
29.3978 672.00
29.463 647.00
29.5282 611.00
29.5934 589.00
29.6586 597.00
29.7238 602.00
29.789 624.00
29.8542 651.00
29.9194 676.00
29.9846 635.00
30.0498 656.00
30.115 674.00
30.1802 648.00
30.2454 605.00
30.3106 589.00
30.3758 633.00
30.441 624.00
30.5062 634.00
30.5714 602.00
30.6366 604.00
30.7018 614.00
30.767 567.00
30.8322 557.00
30.8974 596.00
30.9626 588.00
31.0278 570.00
31.093 591.00
31.1582 639.00
31.2234 594.00
31.2886 653.00
31.3538 679.00
31.419 647.00
31.4842 603.00
31.5494 611.00
31.6146 624.00
31.6798 619.00
31.745 559.00
31.8102 562.00
31.8754 557.00
31.9406 573.00
32.0058 570.00
32.071 563.00
32.1362 581.00
32.2014 550.00
32.2666 552.00
32.3318 529.00
32.397 509.00
32.4622 542.00
32.5274 569.00
32.5926 540.00
32.6578 547.00
32.723 577.00
32.7882 561.00
32.8534 524.00
32.9186 548.00
32.9838 544.00
33.0489 565.00
33.1141 580.00
33.1793 522.00
33.2445 569.00
33.3097 544.00
33.3749 628.00
33.4401 696.00
33.5053 711.00
33.5705 632.00
33.6357 613.00
33.7009 554.00
33.7661 652.00
33.8313 524.00
33.8965 544.00
33.9617 531.00
34.0269 578.00
34.0921 521.00
34.1573 522.00
34.2225 546.00
34.2877 548.00
34.3529 547.00
34.4181 522.00
34.4833 487.00
34.5485 499.00
34.6137 494.00
34.6789 464.00
34.7441 487.00
34.8093 477.00
34.8745 462.00
34.9397 492.00
35.0049 492.00
35.0701 501.00
35.1353 490.00
35.2005 472.00
35.2657 520.00
35.3309 485.00
35.3961 506.00
35.4613 458.00
35.5265 486.00
35.5917 507.00
35.6569 461.00
35.7221 466.00
35.7873 492.00
35.8525 463.00
35.9177 460.00
35.9829 471.00
36.0481 477.00
36.1133 504.00
36.1785 493.00
36.2437 463.00
36.3089 445.00
36.3741 474.00
36.4393 472.00
36.5045 456.00
36.5697 441.00
36.6349 471.00
36.7001 452.00
36.7653 455.00
36.8305 445.00
36.8957 457.00
36.9609 452.00
37.0261 412.00
37.0913 459.00
37.1565 400.00
37.2217 422.00
37.2869 410.00
37.3521 410.00
37.4173 435.00
37.4825 463.00
37.5477 448.00
37.6129 437.00
37.6781 450.00
37.7433 456.00
37.8085 431.00
37.8736 447.00
37.9388 435.00
38.004 425.00
38.0692 420.00
38.1344 424.00
38.1996 423.00
38.2648 423.00
38.33 399.00
38.3952 398.00
38.4604 400.00
38.5256 413.00
38.5908 424.00
38.656 398.00
38.7212 407.00
38.7864 399.00
38.8516 415.00
38.9168 384.00
38.982 422.00
39.0472 434.00
39.1124 382.00
39.1776 425.00
39.2428 400.00
39.308 413.00
39.3732 404.00
39.4384 362.00
39.5036 385.00
39.5688 405.00
39.634 426.00
39.6992 379.00
39.7644 388.00
39.8296 413.00
39.8948 361.00
39.96 422.00
40.0252 389.00
40.0904 359.00
40.1556 414.00
40.2208 375.00
40.286 354.00
40.3512 351.00
40.4164 387.00
40.4816 382.00
40.5468 378.00
40.612 453.00
40.6772 364.00
40.7424 379.00
40.8076 393.00
40.8728 404.00
40.938 365.00
41.0032 411.00
41.0684 369.00
41.1336 383.00
41.1988 374.00
41.264 381.00
41.3292 350.00
41.3944 345.00
41.4596 399.00
41.5248 414.00
41.59 393.00
41.6552 348.00
41.7204 401.00
41.7856 382.00
41.8508 418.00
41.916 375.00
41.9812 365.00
42.0464 341.00
42.1116 352.00
42.1768 398.00
42.242 363.00
42.3072 367.00
42.3724 391.00
42.4376 384.00
42.5028 373.00
42.568 335.00
42.6332 368.00
42.6983 368.00
42.7635 432.00
42.8287 398.00
42.8939 354.00
42.9591 367.00
43.0243 374.00
43.0895 407.00
43.1547 390.00
43.2199 377.00
43.2851 391.00
43.3503 373.00
43.4155 379.00
43.4807 413.00
43.5459 405.00
43.6111 382.00
43.6763 357.00
43.7415 355.00
43.8067 367.00
43.8719 364.00
43.9371 362.00
44.0023 373.00
44.0675 363.00
44.1327 356.00
44.1979 348.00
44.2631 349.00
44.3283 365.00
44.3935 352.00
44.4587 372.00
44.5239 349.00
44.5891 336.00
44.6543 338.00
44.7195 332.00
44.7847 319.00
44.8499 327.00
44.9151 372.00
44.9803 362.00
45.0455 337.00
45.1107 345.00
45.1759 365.00
45.2411 361.00
45.3063 342.00
45.3715 363.00
45.4367 348.00
45.5019 351.00
45.5671 320.00
45.6323 355.00
45.6975 329.00
45.7627 304.00
45.8279 317.00
45.8931 311.00
45.9583 349.00
46.0235 347.00
46.0887 360.00
46.1539 353.00
46.2191 350.00
46.2843 309.00
46.3495 318.00
46.4147 324.00
46.4799 363.00
46.5451 369.00
46.6103 372.00
46.6755 312.00
46.7407 352.00
46.8059 325.00
46.8711 323.00
46.9363 296.00
47.0015 338.00
47.0667 330.00
47.1319 355.00
47.1971 389.00
47.2623 330.00
47.3275 314.00
47.3927 316.00
47.4579 305.00
47.523 286.00
47.5882 328.00
47.6534 319.00
47.7186 363.00
47.7838 335.00
47.849 326.00
47.9142 345.00
47.9794 306.00
48.0446 316.00
48.1098 320.00
48.175 331.00
48.2402 303.00
48.3054 309.00
48.3706 319.00
48.4358 332.00
48.501 375.00
48.5662 330.00
48.6314 368.00
48.6966 362.00
48.7618 339.00
48.827 331.00
48.8922 319.00
48.9574 320.00
49.0226 331.00
49.0878 309.00
49.153 327.00
49.2182 312.00
49.2834 296.00
49.3486 313.00
49.4138 358.00
49.479 332.00
49.5442 312.00
49.6094 326.00
49.6746 293.00
49.7398 301.00
49.805 317.00
49.8702 327.00
49.9354 311.00
50.0006 324.00
50.0658 323.00
50.131 313.00
50.1962 326.00
50.2614 312.00
50.3266 304.00
50.3918 337.00
50.457 333.00
50.5222 288.00
50.5874 298.00
50.6526 278.00
50.7178 304.00
50.783 317.00
50.8482 297.00
50.9134 318.00
50.9786 335.00
51.0438 317.00
51.109 325.00
51.1742 322.00
51.2394 356.00
51.3046 324.00
51.3698 381.00
51.435 375.00
51.5002 398.00
51.5654 358.00
51.6306 333.00
51.6958 383.00
51.761 334.00
51.8262 319.00
51.8914 301.00
51.9566 281.00
52.0218 295.00
52.087 265.00
52.1522 292.00
52.2174 304.00
52.2826 286.00
52.3477 288.00
52.4129 312.00
52.4781 284.00
52.5433 281.00
52.6085 276.00
52.6737 293.00
52.7389 250.00
52.8041 296.00
52.8693 282.00
52.9345 243.00
52.9997 280.00
53.0649 285.00
53.1301 269.00
53.1953 286.00
53.2605 270.00
53.3257 268.00
53.3909 300.00
53.4561 256.00
53.5213 268.00
53.5865 304.00
53.6517 305.00
53.7169 315.00
53.7821 310.00
53.8473 296.00
53.9125 300.00
53.9777 279.00
54.0429 270.00
54.1081 262.00
54.1733 262.00
54.2385 271.00
54.3037 289.00
54.3689 265.00
54.4341 310.00
54.4993 234.00
54.5645 297.00
54.6297 295.00
54.6949 281.00
54.7601 280.00
54.8253 268.00
54.8905 263.00
54.9557 298.00
55.0209 282.00
55.0861 303.00
55.1513 295.00
55.2165 281.00
55.2817 289.00
55.3469 353.00
55.4121 263.00
55.4773 300.00
55.5425 260.00
55.6077 278.00
55.6729 292.00
55.7381 265.00
55.8033 277.00
55.8685 299.00
55.9337 273.00
55.9989 289.00
56.0641 259.00
56.1293 285.00
56.1945 313.00
56.2597 270.00
56.3249 236.00
56.3901 258.00
56.4553 278.00
56.5205 299.00
56.5857 272.00
56.6509 269.00
56.7161 283.00
56.7813 243.00
56.8465 261.00
56.9117 270.00
56.9769 232.00
57.042 266.00
57.1073 291.00
57.1724 274.00
57.2376 268.00
57.3028 246.00
57.368 278.00
57.4332 242.00
57.4984 236.00
57.5636 263.00
57.6288 276.00
57.694 269.00
57.7592 291.00
57.8244 256.00
57.8896 273.00
57.9548 235.00
58.02 266.00
58.0852 238.00
58.1504 265.00
58.2156 246.00
58.2808 231.00
58.346 240.00
58.4112 261.00
58.4764 249.00
58.5416 226.00
58.6068 269.00
58.672 277.00
58.7372 235.00
58.8024 245.00
58.8676 223.00
58.9328 245.00
58.998 232.00
59.0632 261.00
59.1284 216.00
59.1936 229.00
59.2588 270.00
59.324 248.00
59.3892 247.00
59.4544 236.00
59.5196 234.00
59.5848 233.00
59.65 235.00
59.7152 243.00
59.7804 215.00
59.8456 270.00
59.9108 231.00
59.976 264.00
60.0412 274.00
60.1064 211.00
60.1716 241.00
60.2368 244.00
60.302 213.00
60.3672 243.00
60.4324 257.00
60.4976 227.00
60.5628 220.00
60.628 262.00
60.6932 247.00
60.7584 234.00
60.8236 260.00
60.8888 243.00
60.954 234.00
61.0192 228.00
61.0844 228.00
61.1496 221.00
61.2148 231.00
61.28 271.00
61.3452 215.00
61.4104 285.00
61.4756 226.00
61.5408 230.00
61.606 232.00
61.6712 236.00
61.7364 247.00
61.8016 232.00
61.8667 259.00
61.932 232.00
61.9971 226.00
62.0623 245.00
62.1275 248.00
62.1927 235.00
62.2579 221.00
62.3231 225.00
62.3883 261.00
62.4535 260.00
62.5187 235.00
62.5839 224.00
62.6491 244.00
62.7143 231.00
62.7795 222.00
62.8447 229.00
62.9099 219.00
62.9751 235.00
63.0403 242.00
63.1055 262.00
63.1707 218.00
63.2359 246.00
63.3011 242.00
63.3663 200.00
63.4315 221.00
63.4967 245.00
63.5619 246.00
63.6271 216.00
63.6923 192.00
63.7575 228.00
63.8227 237.00
63.8879 233.00
63.9531 213.00
64.0183 250.00
64.0835 231.00
64.1487 223.00
64.2139 247.00
64.2791 224.00
64.3443 214.00
64.4095 225.00
64.4747 219.00
64.5399 209.00
64.6051 236.00
64.6703 202.00
64.7355 220.00
64.8007 204.00
64.8659 200.00
64.9311 196.00
64.9963 212.00
65.0615 243.00
65.1267 217.00
65.1919 215.00
65.2571 246.00
65.3223 218.00
65.3875 231.00
65.4527 204.00
65.5179 240.00
65.5831 239.00
65.6483 216.00
65.7135 223.00
65.7787 198.00
65.8439 220.00
65.9091 223.00
65.9743 214.00
66.0395 229.00
66.1047 221.00
66.1699 222.00
66.2351 210.00
66.3003 233.00
66.3655 210.00
66.4307 200.00
66.4959 205.00
66.561 192.00
66.6263 214.00
66.6915 185.00
66.7566 223.00
66.8218 223.00
66.887 227.00
66.9522 186.00
67.0174 202.00
67.0826 204.00
67.1478 217.00
67.213 210.00
67.2782 209.00
67.3434 209.00
67.4086 216.00
67.4738 221.00
67.539 231.00
67.6042 210.00
67.6694 219.00
67.7346 201.00
67.7998 190.00
67.865 212.00
67.9302 206.00
67.9954 176.00
68.0606 236.00
68.1258 214.00
68.191 217.00
68.2562 220.00
68.3214 191.00
68.3866 203.00
68.4518 232.00
68.517 200.00
68.5822 204.00
68.6474 198.00
68.7126 218.00
68.7778 231.00
68.843 214.00
68.9082 211.00
68.9734 224.00
69.0386 210.00
69.1038 206.00
69.169 223.00
69.2342 224.00
69.2994 210.00
69.3646 197.00
69.4298 201.00
69.495 212.00
69.5602 216.00
69.6254 214.00
69.6906 213.00
69.7558 212.00
69.821 220.00
69.8862 220.00
69.9514 220.00
70.0166 218.00
70.0818 206.00
70.147 212.00
70.2122 234.00
70.2774 189.00
70.3426 223.00
70.4078 202.00
70.473 206.00
70.5382 208.00
70.6034 215.00
70.6686 190.00
70.7338 204.00
70.799 215.00
70.8642 200.00
70.9294 224.00
70.9946 238.00
71.0598 211.00
71.125 206.00
71.1902 214.00
71.2554 228.00
71.3205 195.00
71.3858 197.00
71.451 219.00
71.5162 220.00
71.5813 209.00
71.6465 212.00
71.7117 217.00
71.7769 227.00
71.8421 189.00
71.9073 194.00
71.9725 219.00
72.0377 212.00
72.1029 209.00
72.1681 206.00
72.2333 193.00
72.2985 205.00
72.3637 208.00
72.4289 211.00
72.4941 215.00
72.5593 212.00
72.6245 192.00
72.6897 194.00
72.7549 230.00
72.8201 202.00
72.8853 177.00
72.9505 207.00
73.0157 205.00
73.0809 228.00
73.1461 222.00
73.2113 206.00
73.2765 199.00
73.3417 215.00
73.4069 233.00
73.4721 208.00
73.5373 243.00
73.6025 243.00
73.6677 239.00
73.7329 221.00
73.7981 237.00
73.8633 227.00
73.9285 202.00
73.9937 208.00
74.0589 220.00
74.1241 247.00
74.1893 220.00
74.2545 204.00
74.3197 206.00
74.3849 185.00
74.4501 239.00
74.5153 229.00
74.5805 225.00
74.6457 225.00
74.7109 233.00
74.7761 220.00
74.8413 214.00
74.9065 243.00
74.9717 229.00
75.0369 204.00
75.1021 226.00
75.1673 217.00
75.2325 215.00
75.2977 240.00
75.3629 209.00
75.4281 246.00
75.4933 232.00
75.5585 221.00
75.6237 236.00
75.6889 207.00
75.7541 207.00
75.8193 235.00
75.8845 234.00
75.9497 234.00
76.0149 244.00
76.0801 233.00
76.1452 205.00
76.2104 222.00
76.2756 258.00
76.3409 248.00
76.406 229.00
76.4712 241.00
76.5364 222.00
76.6016 269.00
76.6668 223.00
76.732 214.00
76.7972 240.00
76.8624 212.00
76.9276 271.00
76.9928 229.00
77.058 227.00
77.1232 214.00
77.1884 232.00
77.2536 241.00
77.3188 249.00
77.384 216.00
77.4492 214.00
77.5144 227.00
77.5796 221.00
77.6448 238.00
77.71 230.00
77.7752 263.00
77.8404 247.00
77.9056 230.00
77.9708 232.00
78.036 263.00
78.1012 216.00
78.1664 248.00
78.2316 203.00
78.2968 264.00
78.362 257.00
78.4272 222.00
78.4924 275.00
78.5576 279.00
78.6228 245.00
78.688 246.00
78.7532 264.00
78.8184 263.00
78.8836 232.00
78.9488 242.00
79.014 244.00
79.0792 275.00
79.1444 264.00
79.2096 231.00
79.2748 203.00
79.34 273.00
79.4052 235.00
79.4704 269.00
79.5356 242.00
79.6008 288.00
79.666 224.00
79.7312 250.00
79.7964 267.00
79.8616 230.00
79.9268 245.00
79.992 227.00
80.0572 236.00
80.1224 249.00
80.1876 248.00
80.2528 266.00
80.318 244.00
80.3832 257.00
80.4484 267.00
80.5136 232.00
80.5788 235.00
80.644 236.00
80.7092 248.00
80.7744 273.00
80.8396 260.00
80.9048 271.00
80.9699 286.00
81.0351 257.00
81.1003 237.00
81.1655 273.00
81.2307 259.00
81.2959 265.00
81.3611 217.00
81.4263 239.00
81.4915 247.00
81.5567 223.00
81.6219 256.00
81.6871 242.00
81.7523 267.00
81.8175 220.00
81.8827 261.00
81.9479 230.00
82.0131 234.00
82.0783 258.00
82.1435 261.00
82.2087 260.00
82.2739 272.00
82.3391 225.00
82.4043 267.00
82.4695 211.00
82.5347 242.00
82.5999 260.00
82.6651 238.00
82.7303 219.00
82.7955 258.00
82.8607 226.00
82.9259 209.00
82.9911 240.00
83.0563 239.00
83.1215 221.00
83.1867 269.00
83.2519 269.00
83.3171 244.00
83.3823 238.00
83.4475 216.00
83.5127 207.00
83.5779 240.00
83.6431 234.00
83.7083 222.00
83.7735 238.00
83.8387 226.00
83.9039 245.00
83.9691 244.00
84.0343 232.00
84.0995 248.00
84.1647 217.00
84.2299 227.00
84.2951 203.00
84.3603 218.00
84.4255 198.00
84.4907 221.00
84.5559 208.00
84.6211 206.00
84.6863 226.00
84.7515 223.00
84.8167 216.00
84.8819 250.00
84.9471 224.00
85.0123 214.00
85.0775 210.00
85.1427 195.00
85.2079 259.00
85.2731 222.00
85.3383 215.00
85.4035 241.00
85.4687 221.00
85.5339 227.00
85.5991 219.00
85.6643 231.00
85.7295 191.00
85.7946 217.00
85.8598 219.00
85.925 215.00
85.9903 205.00
86.0554 217.00
86.1206 229.00
86.1858 238.00
86.251 234.00
86.3162 222.00
86.3814 198.00
86.4466 211.00
86.5118 224.00
86.577 233.00
86.6422 213.00
86.7074 193.00
86.7726 204.00
86.8378 203.00
86.903 205.00
86.9682 198.00
87.0334 219.00
87.0986 189.00
87.1638 207.00
87.229 197.00
87.2942 212.00
87.3594 198.00
87.4246 190.00
87.4898 194.00
87.555 211.00
87.6202 212.00
87.6854 215.00
87.7506 183.00
87.8158 233.00
87.881 193.00
87.9462 226.00
88.0114 162.00
88.0766 187.00
88.1418 220.00
88.207 211.00
88.2722 197.00
88.3374 199.00
88.4026 211.00
88.4678 208.00
88.533 190.00
88.5982 193.00
88.6634 238.00
88.7286 205.00
88.7938 198.00
88.859 206.00
88.9242 225.00
88.9894 194.00
89.0546 217.00
89.1198 187.00
89.185 199.00
89.2502 217.00
89.3154 182.00
89.3806 198.00
89.4458 191.00
89.511 167.00
89.5762 212.00
89.6414 205.00
89.7066 197.00
89.7718 221.00
89.837 214.00
89.9022 196.00
89.9674 189.00
90.0326 205.00
90.0978 201.00
90.163 181.00
90.2282 196.00
90.2934 197.00
90.3586 200.00
90.4238 194.00
90.489 174.00
90.5542 185.00
90.6193 208.00
90.6845 184.00
90.7497 235.00
90.8149 182.00
90.8801 184.00
90.9453 220.00
91.0105 235.00
91.0757 219.00
91.1409 195.00
91.2061 179.00
91.2713 191.00
91.3365 204.00
91.4017 211.00
91.4669 182.00
91.5321 171.00
91.5973 214.00
91.6625 203.00
91.7277 222.00
91.7929 195.00
91.8581 193.00
91.9233 196.00
91.9885 171.00
92.0537 185.00
92.1189 199.00
92.1841 185.00
92.2493 222.00
92.3145 194.00
92.3797 178.00
92.4449 165.00
92.5101 190.00
92.5753 212.00
92.6405 177.00
92.7057 200.00
92.7709 198.00
92.8361 179.00
92.9013 187.00
92.9665 191.00
93.0317 204.00
93.0969 193.00
93.1621 201.00
93.2273 197.00
93.2925 205.00
93.3577 176.00
93.4229 206.00
93.4881 218.00
93.5533 190.00
93.6185 202.00
93.6837 175.00
93.7489 176.00
93.8141 210.00
93.8793 227.00
93.9445 198.00
94.0097 175.00
94.0749 211.00
94.1401 201.00
94.2053 182.00
94.2705 178.00
94.3357 203.00
94.4009 202.00
94.4661 192.00
94.5313 180.00
94.5965 210.00
94.6617 182.00
94.7269 200.00
94.7921 198.00
94.8573 187.00
94.9225 199.00
94.9877 204.00
95.0529 186.00
95.1181 185.00
95.1833 200.00
95.2485 205.00
95.3137 206.00
95.3789 196.00
95.444 190.00
95.5092 207.00
95.5744 195.00
95.6396 175.00
95.7048 170.00
95.77 179.00
95.8352 197.00
95.9004 163.00
95.9656 201.00
96.0308 196.00
96.096 220.00
96.1612 182.00
96.2264 205.00
96.2916 174.00
96.3568 172.00
96.422 200.00
96.4872 161.00
96.5524 181.00
96.6176 191.00
96.6828 176.00
96.748 189.00
96.8132 176.00
96.8784 206.00
96.9436 192.00
97.0088 163.00
97.074 183.00
97.1392 208.00
97.2044 193.00
97.2696 198.00
97.3348 193.00
97.4 190.00
97.4652 197.00
97.5304 206.00
97.5956 195.00
97.6608 196.00
97.726 204.00
97.7912 180.00
97.8564 174.00
97.9216 222.00
97.9868 170.00
98.052 161.00
98.1172 181.00
98.1824 184.00
98.2476 177.00
98.3128 205.00
98.378 184.00
98.4432 179.00
98.5084 194.00
98.5736 211.00
98.6388 203.00
98.704 194.00
98.7692 182.00
98.8344 185.00
98.8996 201.00
98.9648 200.00
99.03 200.00
99.0952 187.00
99.1604 186.00
99.2256 169.00
99.2908 179.00
99.356 176.00
99.4212 200.00
99.4864 199.00
99.5516 193.00
99.6168 181.00
99.682 181.00
99.7472 215.00
99.8124 173.00
99.8776 195.00
99.9428 165.00
100.008 182.00
100.073 192.00
100.095 180.00