File: data/xrd_creation/results/NSC_75.xy
9.903433 2751.00
9.968632 2659.00
10.0338 2528.00
10.099 2577.00
10.1642 2629.00
10.2294 2561.00
10.2946 2611.00
10.3598 2538.00
10.425 2381.00
10.4902 2434.00
10.5554 2494.00
10.6206 2422.00
10.6858 2368.00
10.751 2413.00
10.8162 2317.00
10.8814 2324.00
10.9466 2313.00
11.0118 2332.00
11.077 2367.00
11.1422 2353.00
11.2074 2305.00
11.2726 2199.00
11.3378 2253.00
11.403 2255.00
11.4682 2249.00
11.5334 2208.00
11.5986 2078.00
11.6638 2162.00
11.729 2159.00
11.7942 2101.00
11.8594 1981.00
11.9246 2107.00
11.9898 2099.00
12.055 2040.00
12.1202 1930.00
12.1854 1955.00
12.2506 1983.00
12.3158 1911.00
12.381 2022.00
12.4462 1985.00
12.5114 1962.00
12.5766 1844.00
12.6418 1815.00
12.707 1854.00
12.7722 1858.00
12.8374 1835.00
12.9026 1786.00
12.9678 1761.00
13.033 1797.00
13.0982 1793.00
13.1634 1748.00
13.2286 1767.00
13.2938 1700.00
13.359 1721.00
13.4242 1652.00
13.4894 1699.00
13.5546 1657.00
13.6198 1598.00
13.685 1566.00
13.7502 1611.00
13.8154 1608.00
13.8805 1545.00
13.9457 1664.00
14.0109 1556.00
14.0761 1617.00
14.1413 1466.00
14.2065 1579.00
14.2717 1610.00
14.3369 1575.00
14.4021 1602.00
14.4673 1512.00
14.5325 1607.00
14.5977 1558.00
14.6629 1505.00
14.7281 1525.00
14.7933 1454.00
14.8585 1493.00
14.9237 1421.00
14.9889 1424.00
15.0541 1449.00
15.1193 1454.00
15.1845 1484.00
15.2497 1481.00
15.3149 1371.00
15.3801 1421.00
15.4453 1415.00
15.5105 1446.00
15.5757 1427.00
15.6409 1439.00
15.7061 1434.00
15.7713 1402.00
15.8365 1413.00
15.9017 1363.00
15.9669 1418.00
16.0321 1337.00
16.0973 1362.00
16.1625 1336.00
16.2277 1372.00
16.2929 1323.00
16.3581 1346.00
16.4233 1318.00
16.4885 1214.00
16.5537 1241.00
16.6189 1301.00
16.6841 1238.00
16.7493 1264.00
16.8145 1296.00
16.8797 1275.00
16.9449 1279.00
17.0101 1274.00
17.0753 1261.00
17.1405 1283.00
17.2057 1255.00
17.2709 1242.00
17.3361 1216.00
17.4013 1273.00
17.4665 1207.00
17.5317 1169.00
17.5969 1203.00
17.6621 1186.00
17.7273 1202.00
17.7925 1192.00
17.8577 1121.00
17.9229 1198.00
17.9881 1195.00
18.0533 1190.00
18.1185 1143.00
18.1837 1112.00
18.2489 1164.00
18.3141 1180.00
18.3793 1102.00
18.4445 1153.00
18.5097 1104.00
18.5749 1150.00
18.6401 1114.00
18.7052 1118.00
18.7704 1063.00
18.8356 1173.00
18.9008 1097.00
18.966 1065.00
19.0312 1099.00
19.0964 1082.00
19.1616 1086.00
19.2268 1101.00
19.292 1033.00
19.3572 1100.00
19.4224 1101.00
19.4876 1075.00
19.5528 1053.00
19.618 1070.00
19.6832 1038.00
19.7484 1101.00
19.8136 1041.00
19.8788 1012.00
19.944 1019.00
20.0092 1078.00
20.0744 1164.00
20.1396 1056.00
20.2048 1005.00
20.27 1065.00
20.3352 1002.00
20.4004 932.00
20.4656 1081.00
20.5308 1059.00
20.596 1099.00
20.6612 1158.00
20.7264 1297.00
20.7916 1415.00
20.8568 1237.00
20.922 1048.00
20.9872 1028.00
21.0524 946.00
21.1176 1035.00
21.1828 967.00
21.248 971.00
21.3132 920.00
21.3784 951.00
21.4436 993.00
21.5088 1020.00
21.574 1106.00
21.6392 1191.00
21.7044 1114.00
21.7696 931.00
21.8348 931.00
21.9 961.00
21.9652 904.00
22.0304 906.00
22.0956 940.00
22.1608 906.00
22.226 941.00
22.2912 911.00
22.3564 876.00
22.4216 941.00
22.4868 928.00
22.552 1009.00
22.6172 971.00
22.6824 976.00
22.7476 1019.00
22.8128 1115.00
22.878 947.00
22.9432 977.00
23.0084 863.00
23.0736 897.00
23.1388 832.00
23.204 859.00
23.2692 855.00
23.3344 889.00
23.3996 926.00
23.4647 870.00
23.5299 864.00
23.5951 912.00
23.6603 907.00
23.7255 913.00
23.7907 924.00
23.8559 880.00
23.9211 912.00
23.9863 820.00
24.0515 857.00
24.1167 857.00
24.1819 812.00
24.2471 785.00
24.3123 838.00
24.3775 817.00
24.4427 761.00
24.5079 793.00
24.5731 762.00
24.6383 846.00
24.7035 805.00
24.7687 759.00
24.8339 827.00
24.8991 845.00
24.9643 813.00
25.0295 790.00
25.0947 789.00
25.1599 777.00
25.2251 817.00
25.2903 820.00
25.3555 829.00
25.4207 792.00
25.4859 797.00
25.5511 881.00
25.6163 928.00
25.6815 1030.00
25.7467 987.00
25.8119 884.00
25.8771 848.00
25.9423 822.00
26.0075 799.00
26.0727 780.00
26.1379 783.00
26.2031 759.00
26.2683 709.00
26.3335 730.00
26.3987 741.00
26.4639 766.00
26.5291 751.00
26.5943 804.00
26.6595 879.00
26.7247 973.00
26.7899 951.00
26.8551 892.00
26.9203 751.00
26.9855 791.00
27.0507 739.00
27.1159 708.00
27.1811 694.00
27.2463 715.00
27.3115 739.00
27.3767 794.00
27.4419 744.00
27.5071 743.00
27.5723 788.00
27.6375 835.00
27.7027 675.00
27.7679 745.00
27.8331 724.00
27.8983 766.00
27.9635 843.00
28.0287 846.00
28.0939 803.00
28.1591 787.00
28.2243 830.00
28.2894 903.00
28.3546 802.00
28.4198 748.00
28.485 738.00
28.5502 695.00
28.6154 746.00
28.6806 701.00
28.7458 728.00
28.811 692.00
28.8762 665.00
28.9414 682.00
29.0066 681.00
29.0718 703.00
29.137 718.00
29.2022 702.00
29.2674 706.00
29.3326 741.00
29.3978 652.00
29.463 665.00
29.5282 712.00
29.5934 720.00
29.6586 770.00
29.7238 758.00
29.789 713.00
29.8542 695.00
29.9194 648.00
29.9846 668.00
30.0498 697.00
30.115 670.00
30.1802 722.00
30.2454 671.00
30.3106 635.00
30.3758 596.00
30.441 558.00
30.5062 625.00
30.5714 644.00
30.6366 651.00
30.7018 613.00
30.767 591.00
30.8322 638.00
30.8974 579.00
30.9626 639.00
31.0278 621.00
31.093 609.00
31.1582 671.00
31.2234 695.00
31.2886 641.00
31.3538 661.00
31.419 657.00
31.4842 669.00
31.5494 633.00
31.6146 636.00
31.6798 608.00
31.745 647.00
31.8102 624.00
31.8754 657.00
31.9406 606.00
32.0058 589.00
32.071 646.00
32.1362 638.00
32.2014 624.00
32.2666 629.00
32.3318 697.00
32.397 684.00
32.4622 762.00
32.5274 747.00
32.5926 740.00
32.6578 710.00
32.723 689.00
32.7882 605.00
32.8534 600.00
32.9186 601.00
32.9838 573.00
33.0489 603.00
33.1141 595.00
33.1793 568.00
33.2445 557.00
33.3097 597.00
33.3749 574.00
33.4401 545.00
33.5053 523.00
33.5705 519.00
33.6357 544.00
33.7009 524.00
33.7661 525.00
33.8313 525.00
33.8965 557.00
33.9617 575.00
34.0269 525.00
34.0921 572.00
34.1573 582.00
34.2225 564.00
34.2877 590.00
34.3529 629.00
34.4181 587.00
34.4833 614.00
34.5485 514.00
34.6137 551.00
34.6789 547.00
34.7441 535.00
34.8093 609.00
34.8745 682.00
34.9397 605.00
35.0049 533.00
35.0701 531.00
35.1353 529.00
35.2005 555.00
35.2657 511.00
35.3309 509.00
35.3961 554.00
35.4613 519.00
35.5265 477.00
35.5917 445.00
35.6569 466.00
35.7221 489.00
35.7873 501.00
35.8525 448.00
35.9177 488.00
35.9829 433.00
36.0481 451.00
36.1133 460.00
36.1785 474.00
36.2437 448.00
36.3089 452.00
36.3741 478.00
36.4393 410.00
36.5045 460.00
36.5697 473.00
36.6349 445.00
36.7001 455.00
36.7653 483.00
36.8305 465.00
36.8957 448.00
36.9609 409.00
37.0261 488.00
37.0913 408.00
37.1565 487.00
37.2217 429.00
37.2869 448.00
37.3521 471.00
37.4173 399.00
37.4825 426.00
37.5477 449.00
37.6129 423.00
37.6781 392.00
37.7433 401.00
37.8085 421.00
37.8736 447.00
37.9388 437.00
38.004 440.00
38.0692 425.00
38.1344 450.00
38.1996 405.00
38.2648 380.00
38.33 435.00
38.3952 460.00
38.4604 463.00
38.5256 438.00
38.5908 460.00
38.656 466.00
38.7212 410.00
38.7864 403.00
38.8516 427.00
38.9168 418.00
38.982 448.00
39.0472 352.00
39.1124 427.00
39.1776 392.00
39.2428 386.00
39.308 434.00
39.3732 424.00
39.4384 383.00
39.5036 403.00
39.5688 409.00
39.634 395.00
39.6992 416.00
39.7644 413.00
39.8296 414.00
39.8948 439.00
39.96 441.00
40.0252 405.00
40.0904 399.00
40.1556 378.00
40.2208 384.00
40.286 416.00
40.3512 381.00
40.4164 415.00
40.4816 415.00
40.5468 422.00
40.612 381.00
40.6772 399.00
40.7424 404.00
40.8076 376.00
40.8728 355.00
40.938 352.00
41.0032 415.00
41.0684 401.00
41.1336 376.00
41.1988 375.00
41.264 360.00
41.3292 395.00
41.3944 327.00
41.4596 367.00
41.5248 382.00
41.59 370.00
41.6552 409.00
41.7204 375.00
41.7856 368.00
41.8508 417.00
41.916 398.00
41.9812 423.00
42.0464 370.00
42.1116 398.00
42.1768 328.00
42.242 359.00
42.3072 362.00
42.3724 381.00
42.4376 367.00
42.5028 356.00
42.568 353.00
42.6332 357.00
42.6983 365.00
42.7635 380.00
42.8287 362.00
42.8939 367.00
42.9591 394.00
43.0243 383.00
43.0895 352.00
43.1547 391.00
43.2199 347.00
43.2851 398.00
43.3503 364.00
43.4155 390.00
43.4807 340.00
43.5459 374.00
43.6111 400.00
43.6763 341.00
43.7415 336.00
43.8067 354.00
43.8719 366.00
43.9371 328.00
44.0023 344.00
44.0675 366.00
44.1327 367.00
44.1979 342.00
44.2631 377.00
44.3283 352.00
44.3935 365.00
44.4587 380.00
44.5239 389.00
44.5891 348.00
44.6543 368.00
44.7195 362.00
44.7847 367.00
44.8499 355.00
44.9151 305.00
44.9803 340.00
45.0455 349.00
45.1107 382.00
45.1759 329.00
45.2411 328.00
45.3063 338.00
45.3715 335.00
45.4367 341.00
45.5019 326.00
45.5671 338.00
45.6323 345.00
45.6975 338.00
45.7627 317.00
45.8279 322.00
45.8931 327.00
45.9583 323.00
46.0235 324.00
46.0887 306.00
46.1539 370.00
46.2191 355.00
46.2843 341.00
46.3495 320.00
46.4147 370.00
46.4799 315.00
46.5451 371.00
46.6103 373.00
46.6755 390.00
46.7407 366.00
46.8059 354.00
46.8711 355.00
46.9363 360.00
47.0015 302.00
47.0667 365.00
47.1319 334.00
47.1971 372.00
47.2623 354.00
47.3275 327.00
47.3927 335.00
47.4579 357.00
47.523 335.00
47.5882 308.00
47.6534 355.00
47.7186 345.00
47.7838 335.00
47.849 319.00
47.9142 316.00
47.9794 303.00
48.0446 368.00
48.1098 319.00
48.175 320.00
48.2402 296.00
48.3054 343.00
48.3706 344.00
48.4358 336.00
48.501 285.00
48.5662 366.00
48.6314 330.00
48.6966 335.00
48.7618 367.00
48.827 329.00
48.8922 311.00
48.9574 301.00
49.0226 305.00
49.0878 320.00
49.153 307.00
49.2182 317.00
49.2834 331.00
49.3486 296.00
49.4138 341.00
49.479 319.00
49.5442 327.00
49.6094 328.00
49.6746 301.00
49.7398 318.00
49.805 310.00
49.8702 293.00
49.9354 352.00
50.0006 302.00
50.0658 310.00
50.131 280.00
50.1962 294.00
50.2614 279.00
50.3266 285.00
50.3918 307.00
50.457 316.00
50.5222 311.00
50.5874 322.00
50.6526 311.00
50.7178 281.00
50.783 313.00
50.8482 317.00
50.9134 311.00
50.9786 302.00
51.0438 293.00
51.109 276.00
51.1742 308.00
51.2394 317.00
51.3046 287.00
51.3698 289.00
51.435 306.00
51.5002 324.00
51.5654 317.00
51.6306 355.00
51.6958 389.00
51.761 312.00
51.8262 304.00
51.8914 316.00
51.9566 293.00
52.0218 315.00
52.087 306.00
52.1522 279.00
52.2174 311.00
52.2826 325.00
52.3477 321.00
52.4129 323.00
52.4781 325.00
52.5433 299.00
52.6085 313.00
52.6737 304.00
52.7389 268.00
52.8041 273.00
52.8693 275.00
52.9345 256.00
52.9997 309.00
53.0649 307.00
53.1301 268.00
53.1953 260.00
53.2605 325.00
53.3257 309.00
53.3909 278.00
53.4561 297.00
53.5213 285.00
53.5865 270.00
53.6517 280.00
53.7169 289.00
53.7821 311.00
53.8473 281.00
53.9125 295.00
53.9777 298.00
54.0429 296.00
54.1081 287.00
54.1733 280.00
54.2385 241.00
54.3037 308.00
54.3689 266.00
54.4341 283.00
54.4993 258.00
54.5645 271.00
54.6297 281.00
54.6949 293.00
54.7601 273.00
54.8253 267.00
54.8905 280.00
54.9557 247.00
55.0209 290.00
55.0861 312.00
55.1513 274.00
55.2165 288.00
55.2817 295.00
55.3469 277.00
55.4121 267.00
55.4773 272.00
55.5425 236.00
55.6077 284.00
55.6729 274.00
55.7381 265.00
55.8033 294.00
55.8685 240.00
55.9337 237.00
55.9989 258.00
56.0641 295.00
56.1293 245.00
56.1945 301.00
56.2597 257.00
56.3249 262.00
56.3901 240.00
56.4553 287.00
56.5205 248.00
56.5857 263.00
56.6509 221.00
56.7161 277.00
56.7813 237.00
56.8465 249.00
56.9117 248.00
56.9769 279.00
57.042 270.00
57.1073 249.00
57.1724 246.00
57.2376 273.00
57.3028 271.00
57.368 247.00
57.4332 258.00
57.4984 237.00
57.5636 245.00
57.6288 281.00
57.694 267.00
57.7592 271.00
57.8244 273.00
57.8896 268.00
57.9548 240.00
58.02 247.00
58.0852 291.00
58.1504 264.00
58.2156 308.00
58.2808 269.00
58.346 229.00
58.4112 259.00
58.4764 271.00
58.5416 240.00
58.6068 279.00
58.672 257.00
58.7372 241.00
58.8024 251.00
58.8676 249.00
58.9328 215.00
58.998 246.00
59.0632 221.00
59.1284 234.00
59.1936 247.00
59.2588 219.00
59.324 217.00
59.3892 192.00
59.4544 225.00
59.5196 266.00
59.5848 256.00
59.65 233.00
59.7152 217.00
59.7804 241.00
59.8456 227.00
59.9108 235.00
59.976 267.00
60.0412 267.00
60.1064 287.00
60.1716 218.00
60.2368 227.00
60.302 210.00
60.3672 235.00
60.4324 250.00
60.4976 246.00
60.5628 242.00
60.628 239.00
60.6932 237.00
60.7584 226.00
60.8236 235.00
60.8888 235.00
60.954 230.00
61.0192 210.00
61.0844 238.00
61.1496 224.00
61.2148 266.00
61.28 231.00
61.3452 248.00
61.4104 226.00
61.4756 240.00
61.5408 263.00
61.606 207.00
61.6712 238.00
61.7364 248.00
61.8016 219.00
61.8667 269.00
61.932 225.00
61.9971 210.00
62.0623 258.00
62.1275 210.00
62.1927 244.00
62.2579 228.00
62.3231 244.00
62.3883 227.00
62.4535 246.00
62.5187 220.00
62.5839 239.00
62.6491 233.00
62.7143 236.00
62.7795 224.00
62.8447 231.00
62.9099 262.00
62.9751 266.00
63.0403 230.00
63.1055 248.00
63.1707 213.00
63.2359 221.00
63.3011 210.00
63.3663 219.00
63.4315 233.00
63.4967 228.00
63.5619 217.00
63.6271 218.00
63.6923 212.00
63.7575 232.00
63.8227 261.00
63.8879 232.00
63.9531 232.00
64.0183 213.00
64.0835 231.00
64.1487 212.00
64.2139 228.00
64.2791 249.00
64.3443 185.00
64.4095 219.00
64.4747 235.00
64.5399 239.00
64.6051 223.00
64.6703 225.00
64.7355 186.00
64.8007 185.00
64.8659 222.00
64.9311 235.00
64.9963 219.00
65.0615 220.00
65.1267 226.00
65.1919 198.00
65.2571 266.00
65.3223 251.00
65.3875 224.00
65.4527 224.00
65.5179 192.00
65.5831 220.00
65.6483 235.00
65.7135 260.00
65.7787 219.00
65.8439 235.00
65.9091 193.00
65.9743 234.00
66.0395 198.00
66.1047 242.00
66.1699 218.00
66.2351 233.00
66.3003 196.00
66.3655 226.00
66.4307 201.00
66.4959 187.00
66.561 206.00
66.6263 232.00
66.6915 209.00
66.7566 216.00
66.8218 207.00
66.887 247.00
66.9522 215.00
67.0174 237.00
67.0826 221.00
67.1478 198.00
67.213 214.00
67.2782 237.00
67.3434 201.00
67.4086 233.00
67.4738 222.00
67.539 214.00
67.6042 229.00
67.6694 204.00
67.7346 229.00
67.7998 232.00
67.865 240.00
67.9302 234.00
67.9954 241.00
68.0606 238.00
68.1258 230.00
68.191 221.00
68.2562 248.00
68.3214 240.00
68.3866 227.00
68.4518 266.00
68.517 223.00
68.5822 209.00
68.6474 230.00
68.7126 235.00
68.7778 218.00
68.843 224.00
68.9082 229.00
68.9734 208.00
69.0386 196.00
69.1038 206.00
69.169 214.00
69.2342 221.00
69.2994 211.00
69.3646 249.00
69.4298 215.00
69.495 235.00
69.5602 212.00
69.6254 234.00
69.6906 221.00
69.7558 210.00
69.821 199.00
69.8862 213.00
69.9514 221.00
70.0166 223.00
70.0818 232.00
70.147 205.00
70.2122 207.00
70.2774 214.00
70.3426 188.00
70.4078 200.00
70.473 223.00
70.5382 204.00
70.6034 218.00
70.6686 214.00
70.7338 222.00
70.799 207.00
70.8642 220.00
70.9294 216.00
70.9946 240.00
71.0598 258.00
71.125 207.00
71.1902 189.00
71.2554 225.00
71.3205 209.00
71.3858 193.00
71.451 194.00
71.5162 238.00
71.5813 214.00
71.6465 212.00
71.7117 193.00
71.7769 217.00
71.8421 243.00
71.9073 216.00
71.9725 208.00
72.0377 230.00
72.1029 214.00
72.1681 204.00
72.2333 242.00
72.2985 232.00
72.3637 239.00
72.4289 211.00
72.4941 205.00
72.5593 204.00
72.6245 212.00
72.6897 215.00
72.7549 247.00
72.8201 185.00
72.8853 211.00
72.9505 216.00
73.0157 197.00
73.0809 244.00
73.1461 231.00
73.2113 194.00
73.2765 223.00
73.3417 221.00
73.4069 237.00
73.4721 204.00
73.5373 205.00
73.6025 218.00
73.6677 237.00
73.7329 198.00
73.7981 239.00
73.8633 217.00
73.9285 205.00
73.9937 213.00
74.0589 213.00
74.1241 198.00
74.1893 236.00
74.2545 191.00
74.3197 210.00
74.3849 217.00
74.4501 218.00
74.5153 225.00
74.5805 222.00
74.6457 246.00
74.7109 213.00
74.7761 208.00
74.8413 206.00
74.9065 210.00
74.9717 220.00
75.0369 225.00
75.1021 220.00
75.1673 239.00
75.2325 197.00
75.2977 222.00
75.3629 189.00
75.4281 227.00
75.4933 215.00
75.5585 196.00
75.6237 222.00
75.6889 209.00
75.7541 212.00
75.8193 207.00
75.8845 218.00
75.9497 217.00
76.0149 212.00
76.0801 243.00
76.1452 236.00
76.2104 237.00
76.2756 222.00
76.3409 220.00
76.406 219.00
76.4712 225.00
76.5364 241.00
76.6016 201.00
76.6668 230.00
76.732 202.00
76.7972 230.00
76.8624 225.00
76.9276 235.00
76.9928 224.00
77.058 239.00
77.1232 232.00
77.1884 230.00
77.2536 245.00
77.3188 216.00
77.384 201.00
77.4492 250.00
77.5144 206.00
77.5796 237.00
77.6448 214.00
77.71 238.00
77.7752 211.00
77.8404 227.00
77.9056 181.00
77.9708 216.00
78.036 216.00
78.1012 215.00
78.1664 226.00
78.2316 241.00
78.2968 218.00
78.362 243.00
78.4272 224.00
78.4924 222.00
78.5576 214.00
78.6228 231.00
78.688 227.00
78.7532 237.00
78.8184 208.00
78.8836 234.00
78.9488 223.00
79.014 237.00
79.0792 239.00
79.1444 228.00
79.2096 216.00
79.2748 224.00
79.34 227.00
79.4052 209.00
79.4704 183.00
79.5356 207.00
79.6008 229.00
79.666 248.00
79.7312 272.00
79.7964 212.00
79.8616 243.00
79.9268 213.00
79.992 241.00
80.0572 220.00
80.1224 229.00
80.1876 211.00
80.2528 215.00
80.318 218.00
80.3832 243.00
80.4484 244.00
80.5136 216.00
80.5788 225.00
80.644 274.00
80.7092 262.00
80.7744 243.00
80.8396 234.00
80.9048 220.00
80.9699 225.00
81.0351 211.00
81.1003 229.00
81.1655 231.00
81.2307 226.00
81.2959 222.00
81.3611 218.00
81.4263 240.00
81.4915 205.00
81.5567 235.00
81.6219 229.00
81.6871 230.00
81.7523 229.00
81.8175 217.00
81.8827 229.00
81.9479 250.00
82.0131 224.00
82.0783 250.00
82.1435 257.00
82.2087 238.00
82.2739 225.00
82.3391 190.00
82.4043 244.00
82.4695 235.00
82.5347 237.00
82.5999 268.00
82.6651 239.00
82.7303 231.00
82.7955 239.00
82.8607 225.00
82.9259 233.00
82.9911 239.00
83.0563 261.00
83.1215 262.00
83.1867 231.00
83.2519 216.00
83.3171 226.00
83.3823 245.00
83.4475 223.00
83.5127 218.00
83.5779 218.00
83.6431 218.00
83.7083 228.00
83.7735 211.00
83.8387 228.00
83.9039 215.00
83.9691 239.00
84.0343 230.00
84.0995 211.00
84.1647 226.00
84.2299 232.00
84.2951 213.00
84.3603 263.00
84.4255 233.00
84.4907 221.00
84.5559 200.00
84.6211 226.00
84.6863 186.00
84.7515 239.00
84.8167 204.00
84.8819 207.00
84.9471 256.00
85.0123 237.00
85.0775 207.00
85.1427 242.00
85.2079 225.00
85.2731 270.00
85.3383 246.00
85.4035 187.00
85.4687 224.00
85.5339 207.00
85.5991 262.00
85.6643 216.00
85.7295 235.00
85.7946 195.00
85.8598 236.00
85.925 209.00
85.9903 266.00
86.0554 215.00
86.1206 215.00
86.1858 209.00
86.251 244.00
86.3162 229.00
86.3814 228.00
86.4466 217.00
86.5118 224.00
86.577 221.00
86.6422 218.00
86.7074 227.00
86.7726 211.00
86.8378 213.00
86.903 218.00
86.9682 183.00
87.0334 229.00
87.0986 206.00
87.1638 208.00
87.229 208.00
87.2942 191.00
87.3594 218.00
87.4246 202.00
87.4898 231.00
87.555 220.00
87.6202 185.00
87.6854 210.00
87.7506 207.00
87.8158 231.00
87.881 216.00
87.9462 182.00
88.0114 223.00
88.0766 222.00
88.1418 225.00
88.207 202.00
88.2722 213.00
88.3374 196.00
88.4026 192.00
88.4678 196.00
88.533 232.00
88.5982 201.00
88.6634 202.00
88.7286 206.00
88.7938 197.00
88.859 210.00
88.9242 186.00
88.9894 195.00
89.0546 219.00
89.1198 213.00
89.185 219.00
89.2502 232.00
89.3154 187.00
89.3806 195.00
89.4458 215.00
89.511 213.00
89.5762 192.00
89.6414 214.00
89.7066 197.00
89.7718 201.00
89.837 199.00
89.9022 203.00
89.9674 204.00
90.0326 191.00
90.0978 176.00
90.163 201.00
90.2282 184.00
90.2934 180.00
90.3586 196.00
90.4238 208.00
90.489 205.00
90.5542 200.00
90.6193 195.00
90.6845 215.00
90.7497 193.00
90.8149 194.00
90.8801 200.00
90.9453 186.00
91.0105 193.00
91.0757 197.00
91.1409 177.00
91.2061 190.00
91.2713 192.00
91.3365 184.00
91.4017 201.00
91.4669 184.00
91.5321 209.00
91.5973 166.00
91.6625 208.00
91.7277 184.00
91.7929 188.00
91.8581 199.00
91.9233 197.00
91.9885 205.00
92.0537 203.00
92.1189 198.00
92.1841 190.00
92.2493 187.00
92.3145 192.00
92.3797 202.00
92.4449 190.00
92.5101 186.00
92.5753 174.00
92.6405 210.00
92.7057 180.00
92.7709 174.00
92.8361 201.00
92.9013 205.00
92.9665 191.00
93.0317 182.00
93.0969 203.00
93.1621 168.00
93.2273 177.00
93.2925 236.00
93.3577 175.00
93.4229 179.00
93.4881 201.00
93.5533 202.00
93.6185 185.00
93.6837 188.00
93.7489 180.00
93.8141 168.00
93.8793 173.00
93.9445 172.00
94.0097 187.00
94.0749 190.00
94.1401 184.00
94.2053 179.00
94.2705 169.00
94.3357 172.00
94.4009 212.00
94.4661 192.00
94.5313 187.00
94.5965 196.00
94.6617 183.00
94.7269 204.00
94.7921 187.00
94.8573 165.00
94.9225 210.00
94.9877 184.00
95.0529 168.00
95.1181 196.00
95.1833 176.00
95.2485 191.00
95.3137 187.00
95.3789 183.00
95.444 182.00
95.5092 215.00
95.5744 201.00
95.6396 196.00
95.7048 179.00
95.77 169.00
95.8352 196.00
95.9004 189.00
95.9656 177.00
96.0308 193.00
96.096 196.00
96.1612 196.00
96.2264 190.00
96.2916 199.00
96.3568 160.00
96.422 178.00
96.4872 190.00
96.5524 181.00
96.6176 169.00
96.6828 174.00
96.748 178.00
96.8132 207.00
96.8784 161.00
96.9436 199.00
97.0088 232.00
97.074 189.00
97.1392 206.00
97.2044 215.00
97.2696 182.00
97.3348 184.00
97.4 225.00
97.4652 197.00
97.5304 192.00
97.5956 173.00
97.6608 181.00
97.726 162.00
97.7912 188.00
97.8564 193.00
97.9216 198.00
97.9868 173.00
98.052 181.00
98.1172 186.00
98.1824 185.00
98.2476 202.00
98.3128 206.00
98.378 228.00
98.4432 189.00
98.5084 181.00
98.5736 193.00
98.6388 196.00
98.704 169.00
98.7692 218.00
98.8344 199.00
98.8996 187.00
98.9648 208.00
99.03 171.00
99.0952 175.00
99.1604 184.00
99.2256 175.00
99.2908 191.00
99.356 184.00
99.4212 172.00
99.4864 213.00
99.5516 200.00
99.6168 206.00
99.682 199.00
99.7472 191.00
99.8124 168.00
99.8776 189.00
99.9428 180.00
100.008 207.00
100.073 194.00
100.095 195.00