File: data/xrd_creation/results/NSC_177.xy
9.903433 2798.00
9.968632 2781.00
10.0338 2697.00
10.099 2840.00
10.1642 2741.00
10.2294 2596.00
10.2946 2586.00
10.3598 2595.00
10.425 2622.00
10.4902 2633.00
10.5554 2589.00
10.6206 2514.00
10.6858 2485.00
10.751 2503.00
10.8162 2505.00
10.8814 2515.00
10.9466 2510.00
11.0118 2495.00
11.077 2478.00
11.1422 2496.00
11.2074 2418.00
11.2726 2517.00
11.3378 2360.00
11.403 2316.00
11.4682 2329.00
11.5334 2353.00
11.5986 2384.00
11.6638 2380.00
11.729 2339.00
11.7942 2269.00
11.8594 2318.00
11.9246 2227.00
11.9898 2273.00
12.055 2195.00
12.1202 2239.00
12.1854 2292.00
12.2506 2160.00
12.3158 2208.00
12.381 2274.00
12.4462 2141.00
12.5114 2260.00
12.5766 2262.00
12.6418 2248.00
12.707 2277.00
12.7722 2391.00
12.8374 2404.00
12.9026 2532.00
12.9678 2393.00
13.033 2163.00
13.0982 2106.00
13.1634 2150.00
13.2286 2095.00
13.2938 2115.00
13.359 2049.00
13.4242 2067.00
13.4894 2110.00
13.5546 2120.00
13.6198 2116.00
13.685 2174.00
13.7502 2172.00
13.8154 2177.00
13.8805 2299.00
13.9457 2548.00
14.0109 2488.00
14.0761 2945.00
14.1413 3297.00
14.2065 4175.00
14.2717 5350.00
14.3369 3978.00
14.4021 2252.00
14.4673 2076.00
14.5325 1987.00
14.5977 2080.00
14.6629 1990.00
14.7281 2000.00
14.7933 2125.00
14.8585 1918.00
14.9237 1974.00
14.9889 1963.00
15.0541 1961.00
15.1193 1920.00
15.1845 1939.00
15.2497 1868.00
15.3149 1997.00
15.3801 1959.00
15.4453 1932.00
15.5105 1855.00
15.5757 1883.00
15.6409 1940.00
15.7061 1907.00
15.7713 1944.00
15.8365 1936.00
15.9017 1926.00
15.9669 1879.00
16.0321 1864.00
16.0973 1844.00
16.1625 1903.00
16.2277 1937.00
16.2929 1867.00
16.3581 1926.00
16.4233 1814.00
16.4885 1924.00
16.5537 1887.00
16.6189 1871.00
16.6841 1822.00
16.7493 1873.00
16.8145 1852.00
16.8797 1836.00
16.9449 1863.00
17.0101 1848.00
17.0753 1827.00
17.1405 1935.00
17.2057 1922.00
17.2709 1858.00
17.3361 1920.00
17.4013 1818.00
17.4665 1863.00
17.5317 1824.00
17.5969 1883.00
17.6621 1871.00
17.7273 1917.00
17.7925 1947.00
17.8577 2006.00
17.9229 2000.00
17.9881 1756.00
18.0533 1782.00
18.1185 1726.00
18.1837 1761.00
18.2489 1788.00
18.3141 1842.00
18.3793 1809.00
18.4445 1807.00
18.5097 1750.00
18.5749 1786.00
18.6401 1738.00
18.7052 1751.00
18.7704 1735.00
18.8356 1686.00
18.9008 1783.00
18.966 1724.00
19.0312 1725.00
19.0964 1772.00
19.1616 1704.00
19.2268 1837.00
19.292 1839.00
19.3572 1988.00
19.4224 2082.00
19.4876 2251.00
19.5528 2623.00
19.618 3182.00
19.6832 4465.00
19.7484 6808.00
19.8136 11192.00
19.8788 14136.00
19.944 8193.00
20.0092 3437.00
20.0744 3206.00
20.1396 3839.00
20.2048 5609.00
20.27 9156.00
20.3352 13689.00
20.4004 9812.00
20.4656 3748.00
20.5308 2235.00
20.596 1945.00
20.6612 1900.00
20.7264 1865.00
20.7916 1801.00
20.8568 1715.00
20.922 1762.00
20.9872 1798.00
21.0524 1679.00
21.1176 1722.00
21.1828 1658.00
21.248 1751.00
21.3132 1687.00
21.3784 1763.00
21.4436 1816.00
21.5088 1889.00
21.574 2032.00
21.6392 1983.00
21.7044 1759.00
21.7696 1690.00
21.8348 1650.00
21.9 1750.00
21.9652 1716.00
22.0304 1645.00
22.0956 1632.00
22.1608 1662.00
22.226 1667.00
22.2912 1705.00
22.3564 1672.00
22.4216 1712.00
22.4868 1602.00
22.552 1558.00
22.6172 1613.00
22.6824 1625.00
22.7476 1602.00
22.8128 1688.00
22.878 1704.00
22.9432 1609.00
23.0084 1702.00
23.0736 1802.00
23.1388 1927.00
23.204 2063.00
23.2692 2193.00
23.3344 2271.00
23.3996 2856.00
23.4647 4335.00
23.5299 7580.00
23.5951 12321.00
23.6603 10240.00
23.7255 4213.00
23.7907 2017.00
23.8559 1849.00
23.9211 1755.00
23.9863 1826.00
24.0515 1677.00
24.1167 1636.00
24.1819 1589.00
24.2471 1599.00
24.3123 1645.00
24.3775 1799.00
24.4427 2029.00
24.5079 2105.00
24.5731 1995.00
24.6383 1711.00
24.7035 1633.00
24.7687 1709.00
24.8339 1789.00
24.8991 1985.00
24.9643 1891.00
25.0295 1678.00
25.0947 1509.00
25.1599 1465.00
25.2251 1435.00
25.2903 1487.00
25.3555 1521.00
25.4207 1456.00
25.4859 1473.00
25.5511 1444.00
25.6163 1497.00
25.6815 1511.00
25.7467 1511.00
25.8119 1437.00
25.8771 1453.00
25.9423 1437.00
26.0075 1383.00
26.0727 1422.00
26.1379 1463.00
26.2031 1455.00
26.2683 1524.00
26.3335 1487.00
26.3987 1428.00
26.4639 1425.00
26.5291 1340.00
26.5943 1408.00
26.6595 1349.00
26.7247 1362.00
26.7899 1386.00
26.8551 1314.00
26.9203 1372.00
26.9855 1352.00
27.0507 1404.00
27.1159 1401.00
27.1811 1356.00
27.2463 1418.00
27.3115 1373.00
27.3767 1336.00
27.4419 1407.00
27.5071 1469.00
27.5723 1374.00
27.6375 1415.00
27.7027 1396.00
27.7679 1389.00
27.8331 1456.00
27.8983 1466.00
27.9635 1516.00
28.0287 1522.00
28.0939 1634.00
28.1591 1790.00
28.2243 2181.00
28.2894 3323.00
28.3546 6280.00
28.4198 10904.00
28.485 9840.00
28.5502 6142.00
28.6154 5335.00
28.6806 5123.00
28.7458 3746.00
28.811 2334.00
28.8762 1861.00
28.9414 1555.00
29.0066 1471.00
29.0718 1415.00
29.137 1325.00
29.2022 1346.00
29.2674 1411.00
29.3326 1451.00
29.3978 1588.00
29.463 1626.00
29.5282 1441.00
29.5934 1371.00
29.6586 1332.00
29.7238 1245.00
29.789 1323.00
29.8542 1348.00
29.9194 1311.00
29.9846 1276.00
30.0498 1264.00
30.115 1203.00
30.1802 1204.00
30.2454 1326.00
30.3106 1329.00
30.3758 1343.00
30.441 1349.00
30.5062 1418.00
30.5714 1438.00
30.6366 1431.00
30.7018 1374.00
30.767 1356.00
30.8322 1435.00
30.8974 1497.00
30.9626 1703.00
31.0278 1961.00
31.093 2357.00
31.1582 2680.00
31.2234 2950.00
31.2886 4005.00
31.3538 6256.00
31.419 9584.00
31.4842 15188.00
31.5494 19584.00
31.6146 10996.00
31.6798 4264.00
31.745 2414.00
31.8102 2582.00
31.8754 3217.00
31.9406 4155.00
32.0058 4002.00
32.071 2991.00
32.1362 2136.00
32.2014 1723.00
32.2666 1511.00
32.3318 1423.00
32.397 1299.00
32.4622 1334.00
32.5274 1272.00
32.5926 1305.00
32.6578 1270.00
32.723 1252.00
32.7882 1212.00
32.8534 1170.00
32.9186 1325.00
32.9838 1163.00
33.0489 1264.00
33.1141 1301.00
33.1793 1306.00
33.2445 1238.00
33.3097 1175.00
33.3749 1200.00
33.4401 1137.00
33.5053 1214.00
33.5705 1179.00
33.6357 1148.00
33.7009 1193.00
33.7661 1148.00
33.8313 1160.00
33.8965 1219.00
33.9617 1253.00
34.0269 1324.00
34.0921 1389.00
34.1573 1520.00
34.2225 1556.00
34.2877 1562.00
34.3529 1400.00
34.4181 1493.00
34.4833 1608.00
34.5485 1967.00
34.6137 2535.00
34.6789 2786.00
34.7441 2312.00
34.8093 2083.00
34.8745 2311.00
34.9397 2982.00
35.0049 4471.00
35.0701 6222.00
35.1353 5060.00
35.2005 4369.00
35.2657 5808.00
35.3309 9153.00
35.3961 8022.00
35.4613 5457.00
35.5265 2852.00
35.5917 1943.00
35.6569 1735.00
35.7221 1865.00
35.7873 2079.00
35.8525 2154.00
35.9177 1766.00
35.9829 1451.00
36.0481 1265.00
36.1133 1200.00
36.1785 1250.00
36.2437 1285.00
36.3089 1296.00
36.3741 1375.00
36.4393 1373.00
36.5045 1302.00
36.5697 1193.00
36.6349 1145.00
36.7001 1127.00
36.7653 1044.00
36.8305 1095.00
36.8957 1106.00
36.9609 1094.00
37.0261 1124.00
37.0913 1179.00
37.1565 1088.00
37.2217 1128.00
37.2869 1096.00
37.3521 1060.00
37.4173 1080.00
37.4825 1034.00
37.5477 1103.00
37.6129 1052.00
37.6781 1136.00
37.7433 1142.00
37.8085 1058.00
37.8736 1055.00
37.9388 998.00
38.004 1075.00
38.0692 1054.00
38.1344 1099.00
38.1996 1087.00
38.2648 1024.00
38.33 993.00
38.3952 1110.00
38.4604 1089.00
38.5256 1075.00
38.5908 1087.00
38.656 1071.00
38.7212 1082.00
38.7864 1051.00
38.8516 1037.00
38.9168 1121.00
38.982 1183.00
39.0472 1290.00
39.1124 1332.00
39.1776 1288.00
39.2428 1205.00
39.308 1073.00
39.3732 1064.00
39.4384 1105.00
39.5036 1100.00
39.5688 1064.00
39.634 1089.00
39.6992 1027.00
39.7644 1137.00
39.8296 1199.00
39.8948 1425.00
39.96 1734.00
40.0252 1951.00
40.0904 1590.00
40.1556 1328.00
40.2208 1061.00
40.286 1052.00
40.3512 1046.00
40.4164 1009.00
40.4816 1028.00
40.5468 1064.00
40.612 1083.00
40.6772 1061.00
40.7424 1084.00
40.8076 1109.00
40.8728 1195.00
40.938 1358.00
41.0032 1474.00
41.0684 1461.00
41.1336 1480.00
41.1988 1443.00
41.264 1507.00
41.3292 1508.00
41.3944 1397.00
41.4596 1279.00
41.5248 1233.00
41.59 1352.00
41.6552 1458.00
41.7204 1588.00
41.7856 1618.00
41.8508 1549.00
41.916 1405.00
41.9812 1486.00
42.0464 1661.00
42.1116 1847.00
42.1768 1861.00
42.242 1705.00
42.3072 1422.00
42.3724 1158.00
42.4376 1080.00
42.5028 1072.00
42.568 1089.00
42.6332 1114.00
42.6983 1352.00
42.7635 1688.00
42.8287 1910.00
42.8939 1871.00
42.9591 1859.00
43.0243 2221.00
43.0895 2088.00
43.1547 1760.00
43.2199 1308.00
43.2851 1122.00
43.3503 1097.00
43.4155 1225.00
43.4807 1447.00
43.5459 1424.00
43.6111 1341.00
43.6763 1198.00
43.7415 1091.00
43.8067 1011.00
43.8719 990.00
43.9371 1057.00
44.0023 1078.00
44.0675 1032.00
44.1327 989.00
44.1979 1018.00
44.2631 984.00
44.3283 1016.00
44.3935 969.00
44.4587 994.00
44.5239 970.00
44.5891 1023.00
44.6543 1010.00
44.7195 1011.00
44.7847 1009.00
44.8499 1096.00
44.9151 1231.00
44.9803 1413.00
45.0455 2044.00
45.1107 3297.00
45.1759 3638.00
45.2411 2508.00
45.3063 2031.00
45.3715 1396.00
45.4367 1322.00
45.5019 1234.00
45.5671 1170.00
45.6323 1299.00
45.6975 1708.00
45.7627 2875.00
45.8279 3681.00
45.8931 2972.00
45.9583 2527.00
46.0235 1828.00
46.0887 1524.00
46.1539 1257.00
46.2191 1170.00
46.2843 1113.00
46.3495 1083.00
46.4147 973.00
46.4799 1001.00
46.5451 1009.00
46.6103 1050.00
46.6755 1048.00
46.7407 1149.00
46.8059 1198.00
46.8711 1350.00
46.9363 1606.00
47.0015 2234.00
47.0667 2747.00
47.1319 2382.00
47.1971 2018.00
47.2623 1528.00
47.3275 1210.00
47.3927 1189.00
47.4579 1286.00
47.523 1268.00
47.5882 1310.00
47.6534 1224.00
47.7186 1433.00
47.7838 2032.00
47.849 3937.00
47.9142 6620.00
47.9794 5117.00
48.0446 4325.00
48.1098 2501.00
48.175 1691.00
48.2402 1543.00
48.3054 1756.00
48.3706 1777.00
48.4358 1581.00
48.501 1416.00
48.5662 1261.00
48.6314 1153.00
48.6966 1222.00
48.7618 1330.00
48.827 1404.00
48.8922 1295.00
48.9574 1254.00
49.0226 1102.00
49.0878 976.00
49.153 1002.00
49.2182 1006.00
49.2834 942.00
49.3486 1052.00
49.4138 1022.00
49.479 994.00
49.5442 1051.00
49.6094 1026.00
49.6746 1152.00
49.7398 1241.00
49.805 1479.00
49.8702 1602.00
49.9354 1536.00
50.0006 1290.00
50.0658 1188.00
50.131 1034.00
50.1962 1048.00
50.2614 1021.00
50.3266 1047.00
50.3918 1176.00
50.457 1320.00
50.5222 1357.00
50.5874 1391.00
50.6526 1705.00
50.7178 1883.00
50.783 1726.00
50.8482 1598.00
50.9134 1395.00
50.9786 1189.00
51.0438 1238.00
51.109 1468.00
51.1742 1427.00
51.2394 1419.00
51.3046 1469.00
51.3698 1479.00
51.435 1746.00
51.5002 2195.00
51.5654 3228.00
51.6306 5278.00
51.6958 4718.00
51.761 4038.00
51.8262 2943.00
51.8914 1746.00
51.9566 1314.00
52.0218 1162.00
52.087 1070.00
52.1522 995.00
52.2174 1031.00
52.2826 1053.00
52.3477 1040.00
52.4129 1010.00
52.4781 1037.00
52.5433 931.00
52.6085 954.00
52.6737 951.00
52.7389 988.00
52.8041 958.00
52.8693 1008.00
52.9345 961.00
52.9997 1004.00
53.0649 1039.00
53.1301 1020.00
53.1953 986.00
53.2605 1006.00
53.3257 939.00
53.3909 959.00
53.4561 963.00
53.5213 962.00
53.5865 932.00
53.6517 934.00
53.7169 891.00
53.7821 967.00
53.8473 979.00
53.9125 985.00
53.9777 978.00
54.0429 1120.00
54.1081 1163.00
54.1733 1431.00
54.2385 1857.00
54.3037 1837.00
54.3689 1600.00
54.4341 1447.00
54.4993 1358.00
54.5645 1334.00
54.6297 1478.00
54.6949 1910.00
54.7601 2418.00
54.8253 3241.00
54.8905 3347.00
54.9557 3989.00
55.0209 4679.00
55.0861 3954.00
55.1513 3292.00
55.2165 2657.00
55.2817 1873.00
55.3469 1544.00
55.4121 1249.00
55.4773 1129.00
55.5425 1087.00
55.6077 1077.00
55.6729 1090.00
55.7381 1089.00
55.8033 1165.00
55.8685 1226.00
55.9337 1408.00
55.9989 1435.00
56.0641 1352.00
56.1293 1397.00
56.1945 1281.00
56.2597 1416.00
56.3249 1351.00
56.3901 1289.00
56.4553 1356.00
56.5205 1521.00
56.5857 1382.00
56.6509 1328.00
56.7161 1268.00
56.7813 1145.00
56.8465 1000.00
56.9117 931.00
56.9769 956.00
57.042 951.00
57.1073 950.00
57.1724 882.00
57.2376 885.00
57.3028 878.00
57.368 908.00
57.4332 851.00
57.4984 901.00
57.5636 927.00
57.6288 979.00
57.694 1018.00
57.7592 1115.00
57.8244 1217.00
57.8896 1093.00
57.9548 1074.00
58.02 1000.00
58.0852 974.00
58.1504 921.00
58.2156 959.00
58.2808 1016.00
58.346 1095.00
58.4112 1451.00
58.4764 1455.00
58.5416 1440.00
58.6068 1335.00
58.672 1305.00
58.7372 1271.00
58.8024 1329.00
58.8676 1525.00
58.9328 1669.00
58.998 1531.00
59.0632 1309.00
59.1284 1236.00
59.1936 1023.00
59.2588 944.00
59.324 910.00
59.3892 889.00
59.4544 989.00
59.5196 986.00
59.5848 956.00
59.65 1124.00
59.7152 1079.00
59.7804 1167.00
59.8456 1337.00
59.9108 1596.00
59.976 2507.00
60.0412 3255.00
60.1064 2287.00
60.1716 2121.00
60.2368 1849.00
60.302 1333.00
60.3672 1271.00
60.4324 1379.00
60.4976 1414.00
60.5628 1462.00
60.628 1978.00
60.6932 2853.00
60.7584 3590.00
60.8236 2909.00
60.8888 2647.00
60.954 2255.00
61.0192 1598.00
61.0844 1289.00
61.1496 1109.00
61.2148 1063.00
61.28 1041.00
61.3452 991.00
61.4104 1062.00
61.4756 1258.00
61.5408 1389.00
61.606 1064.00
61.6712 1173.00
61.7364 1108.00
61.8016 1049.00
61.8667 1077.00
61.932 1080.00
61.9971 1115.00
62.0623 1156.00
62.1275 996.00
62.1927 1023.00
62.2579 1067.00
62.3231 1172.00
62.3883 1287.00
62.4535 1297.00
62.5187 1404.00
62.5839 1483.00
62.6491 1379.00
62.7143 1393.00
62.7795 1517.00
62.8447 1893.00
62.9099 2441.00
62.9751 2288.00
63.0403 2330.00
63.1055 2477.00
63.1707 2064.00
63.2359 1849.00
63.3011 1688.00
63.3663 1526.00
63.4315 1470.00
63.4967 1382.00
63.5619 1283.00
63.6271 1169.00
63.6923 1240.00
63.7575 1134.00
63.8227 1210.00
63.8879 1403.00
63.9531 1688.00
64.0183 1373.00
64.0835 1265.00
64.1487 1259.00
64.2139 959.00
64.2791 923.00
64.3443 850.00
64.4095 974.00
64.4747 939.00
64.5399 919.00
64.6051 973.00
64.6703 911.00
64.7355 950.00
64.8007 956.00
64.8659 948.00
64.9311 981.00
64.9963 970.00
65.0615 945.00
65.1267 837.00
65.1919 893.00
65.2571 848.00
65.3223 897.00
65.3875 889.00
65.4527 858.00
65.5179 863.00
65.5831 876.00
65.6483 822.00
65.7135 961.00
65.7787 978.00
65.8439 957.00
65.9091 1036.00
65.9743 1086.00
66.0395 1146.00
66.1047 1150.00
66.1699 1113.00
66.2351 1107.00
66.3003 1129.00
66.3655 1241.00
66.4307 1267.00
66.4959 1244.00
66.561 1411.00
66.6263 1524.00
66.6915 2147.00
66.7566 2367.00
66.8218 1853.00
66.887 1767.00
66.9522 1612.00
67.0174 1272.00
67.0826 1068.00
67.1478 952.00
67.213 858.00
67.2782 887.00
67.3434 943.00
67.4086 969.00
67.4738 1009.00
67.539 1027.00
67.6042 1082.00
67.6694 1279.00
67.7346 1672.00
67.7998 1505.00
67.865 1297.00
67.9302 1430.00
67.9954 1283.00
68.0606 1117.00
68.1258 1019.00
68.191 1128.00
68.2562 1149.00
68.3214 1107.00
68.3866 1140.00
68.4518 1148.00
68.517 1115.00
68.5822 1112.00
68.6474 998.00
68.7126 938.00
68.7778 846.00
68.843 826.00
68.9082 816.00
68.9734 788.00
69.0386 791.00
69.1038 808.00
69.169 801.00
69.2342 802.00
69.2994 768.00
69.3646 779.00
69.4298 746.00
69.495 798.00
69.5602 920.00
69.6254 861.00
69.6906 880.00
69.7558 874.00
69.821 938.00
69.8862 863.00
69.9514 861.00
70.0166 842.00
70.0818 820.00
70.147 874.00
70.2122 942.00
70.2774 1036.00
70.3426 1092.00
70.4078 1430.00
70.473 1848.00
70.5382 1665.00
70.6034 1513.00
70.6686 1474.00
70.7338 1372.00
70.799 1102.00
70.8642 1028.00
70.9294 930.00
70.9946 886.00
71.0598 890.00
71.125 810.00
71.1902 810.00
71.2554 792.00
71.3205 827.00
71.3858 864.00
71.451 891.00
71.5162 950.00
71.5813 1012.00
71.6465 1076.00
71.7117 1118.00
71.7769 1155.00
71.8421 1146.00
71.9073 1071.00
71.9725 1025.00
72.0377 989.00
72.1029 895.00
72.1681 894.00
72.2333 864.00
72.2985 828.00
72.3637 730.00
72.4289 776.00
72.4941 816.00
72.5593 813.00
72.6245 871.00
72.6897 849.00
72.7549 850.00
72.8201 882.00
72.8853 836.00
72.9505 862.00
73.0157 854.00
73.0809 793.00
73.1461 842.00
73.2113 837.00
73.2765 820.00
73.3417 849.00
73.4069 867.00
73.4721 797.00
73.5373 902.00
73.6025 884.00
73.6677 930.00
73.7329 966.00
73.7981 960.00
73.8633 964.00
73.9285 1086.00
73.9937 1155.00
74.0589 1472.00
74.1241 1593.00
74.1893 1533.00
74.2545 1761.00
74.3197 1884.00
74.3849 1531.00
74.4501 1373.00
74.5153 1263.00
74.5805 1157.00
74.6457 985.00
74.7109 936.00
74.7761 920.00
74.8413 872.00
74.9065 895.00
74.9717 957.00
75.0369 993.00
75.1021 1052.00
75.1673 1094.00
75.2325 1102.00
75.2977 1120.00
75.3629 1059.00
75.4281 1057.00
75.4933 1049.00
75.5585 920.00
75.6237 889.00
75.6889 872.00
75.7541 954.00
75.8193 932.00
75.8845 1001.00
75.9497 1028.00
76.0149 1033.00
76.0801 956.00
76.1452 1008.00
76.2104 1006.00
76.2756 1019.00
76.3409 1011.00
76.406 926.00
76.4712 876.00
76.5364 859.00
76.6016 876.00
76.6668 865.00
76.732 804.00
76.7972 780.00
76.8624 774.00
76.9276 774.00
76.9928 806.00
77.058 831.00
77.1232 828.00
77.1884 857.00
77.2536 855.00
77.3188 866.00
77.384 871.00
77.4492 947.00
77.5144 991.00
77.5796 1023.00
77.6448 1081.00
77.71 1157.00
77.7752 1133.00
77.8404 1250.00
77.9056 1227.00
77.9708 1102.00
78.036 1045.00
78.1012 1061.00
78.1664 985.00
78.2316 984.00
78.2968 927.00
78.362 877.00
78.4272 912.00
78.4924 976.00
78.5576 1108.00
78.6228 1176.00
78.688 1106.00
78.7532 1038.00
78.8184 1038.00
78.8836 968.00
78.9488 909.00
79.014 896.00
79.0792 814.00
79.1444 810.00
79.2096 848.00
79.2748 879.00
79.34 813.00
79.4052 891.00
79.4704 879.00
79.5356 804.00
79.6008 855.00
79.666 891.00
79.7312 886.00
79.7964 930.00
79.8616 844.00
79.9268 889.00
79.992 843.00
80.0572 858.00
80.1224 793.00
80.1876 794.00
80.2528 763.00
80.318 751.00
80.3832 737.00
80.4484 765.00
80.5136 749.00
80.5788 729.00
80.644 723.00
80.7092 757.00
80.7744 794.00
80.8396 846.00
80.9048 894.00
80.9699 903.00
81.0351 1018.00
81.1003 1158.00
81.1655 1445.00
81.2307 1211.00
81.2959 1002.00
81.3611 1008.00
81.4263 1109.00
81.4915 903.00
81.5567 801.00
81.6219 818.00
81.6871 733.00
81.7523 766.00
81.8175 751.00
81.8827 817.00
81.9479 865.00
82.0131 832.00
82.0783 878.00
82.1435 929.00
82.2087 936.00
82.2739 953.00
82.3391 977.00
82.4043 990.00
82.4695 945.00
82.5347 960.00
82.5999 1033.00
82.6651 1203.00
82.7303 1424.00
82.7955 1248.00
82.8607 1173.00
82.9259 1209.00
82.9911 1155.00
83.0563 1134.00
83.1215 1006.00
83.1867 895.00
83.2519 880.00
83.3171 961.00
83.3823 955.00
83.4475 882.00
83.5127 855.00
83.5779 835.00
83.6431 885.00
83.7083 841.00
83.7735 899.00
83.8387 874.00
83.9039 842.00
83.9691 869.00
84.0343 894.00
84.0995 993.00
84.1647 1077.00
84.2299 1148.00
84.2951 1071.00
84.3603 983.00
84.4255 955.00
84.4907 1018.00
84.5559 1041.00
84.6211 1030.00
84.6863 1062.00
84.7515 1083.00
84.8167 1054.00
84.8819 1067.00
84.9471 1155.00
85.0123 1052.00
85.0775 961.00
85.1427 908.00
85.2079 926.00
85.2731 878.00
85.3383 824.00
85.4035 771.00
85.4687 782.00
85.5339 770.00
85.5991 803.00
85.6643 783.00
85.7295 828.00
85.7946 830.00
85.8598 765.00
85.925 776.00
85.9903 827.00
86.0554 783.00
86.1206 794.00
86.1858 767.00
86.251 789.00
86.3162 789.00
86.3814 805.00
86.4466 834.00
86.5118 824.00
86.577 867.00
86.6422 807.00
86.7074 848.00
86.7726 922.00
86.8378 1003.00
86.903 975.00
86.9682 968.00
87.0334 919.00
87.0986 913.00
87.1638 901.00
87.229 897.00
87.2942 902.00
87.3594 865.00
87.4246 899.00
87.4898 781.00
87.555 860.00
87.6202 831.00
87.6854 972.00
87.7506 880.00
87.8158 962.00
87.881 1019.00
87.9462 1052.00
88.0114 1039.00
88.0766 1077.00
88.1418 1111.00
88.207 1091.00
88.2722 1013.00
88.3374 1061.00
88.4026 933.00
88.4678 1011.00
88.533 949.00
88.5982 894.00
88.6634 898.00
88.7286 928.00
88.7938 988.00
88.859 986.00
88.9242 1118.00
88.9894 1448.00
89.0546 1599.00
89.1198 1537.00
89.185 1365.00
89.2502 1391.00
89.3154 1402.00
89.3806 1309.00
89.4458 1104.00
89.511 1057.00
89.5762 944.00
89.6414 905.00
89.7066 874.00
89.7718 855.00
89.837 792.00
89.9022 819.00
89.9674 807.00
90.0326 811.00
90.0978 815.00
90.163 814.00
90.2282 881.00
90.2934 879.00
90.3586 796.00
90.4238 814.00
90.489 820.00
90.5542 812.00
90.6193 889.00
90.6845 843.00
90.7497 878.00
90.8149 853.00
90.8801 895.00
90.9453 855.00
91.0105 857.00
91.0757 878.00
91.1409 909.00
91.2061 914.00
91.2713 948.00
91.3365 985.00
91.4017 1052.00
91.4669 1059.00
91.5321 1158.00
91.5973 1226.00
91.6625 1094.00
91.7277 998.00
91.7929 1053.00
91.8581 1062.00
91.9233 1005.00
91.9885 835.00
92.0537 848.00
92.1189 825.00
92.1841 812.00
92.2493 743.00
92.3145 845.00
92.3797 764.00
92.4449 789.00
92.5101 709.00
92.5753 767.00
92.6405 753.00
92.7057 796.00
92.7709 735.00
92.8361 735.00
92.9013 769.00
92.9665 837.00
93.0317 850.00
93.0969 894.00
93.1621 968.00
93.2273 868.00
93.2925 822.00
93.3577 790.00
93.4229 884.00
93.4881 838.00
93.5533 747.00
93.6185 837.00
93.6837 847.00
93.7489 828.00
93.8141 862.00
93.8793 777.00
93.9445 752.00
94.0097 835.00
94.0749 785.00
94.1401 857.00
94.2053 836.00
94.2705 766.00
94.3357 815.00
94.4009 863.00
94.4661 855.00
94.5313 843.00
94.5965 926.00
94.6617 1010.00
94.7269 1009.00
94.7921 1089.00
94.8573 1102.00
94.9225 1204.00
94.9877 1489.00
95.0529 1614.00
95.1181 1377.00
95.1833 1138.00
95.2485 1197.00
95.3137 1314.00
95.3789 1187.00
95.444 999.00
95.5092 932.00
95.5744 962.00
95.6396 887.00
95.7048 903.00
95.77 885.00
95.8352 982.00
95.9004 1033.00
95.9656 1133.00
96.0308 1165.00
96.096 1068.00
96.1612 1043.00
96.2264 1097.00
96.2916 1004.00
96.3568 1006.00
96.422 888.00
96.4872 901.00
96.5524 836.00
96.6176 834.00
96.6828 803.00
96.748 813.00
96.8132 814.00
96.8784 810.00
96.9436 809.00
97.0088 800.00
97.074 794.00
97.1392 778.00
97.2044 777.00
97.2696 796.00
97.3348 841.00
97.4 802.00
97.4652 848.00
97.5304 824.00
97.5956 861.00
97.6608 885.00
97.726 854.00
97.7912 931.00
97.8564 855.00
97.9216 915.00
97.9868 911.00
98.052 967.00
98.1172 959.00
98.1824 931.00
98.2476 937.00
98.3128 887.00
98.378 916.00
98.4432 824.00
98.5084 876.00
98.5736 853.00
98.6388 891.00
98.704 902.00
98.7692 969.00
98.8344 914.00
98.8996 910.00
98.9648 917.00
99.03 861.00
99.0952 901.00
99.1604 897.00
99.2256 885.00
99.2908 874.00
99.356 845.00
99.4212 860.00
99.4864 865.00
99.5516 929.00
99.6168 898.00
99.682 931.00
99.7472 899.00
99.8124 908.00
99.8776 874.00
99.9428 936.00
100.008 848.00
100.073 876.00
100.095 875.00