File: data/xrd_creation/results/NSC_193.xy
9.903433 2661.00
9.968632 2571.00
10.0338 2648.00
10.099 2518.00
10.1642 2504.00
10.2294 2385.00
10.2946 2591.00
10.3598 2468.00
10.425 2465.00
10.4902 2460.00
10.5554 2455.00
10.6206 2316.00
10.6858 2389.00
10.751 2418.00
10.8162 2383.00
10.8814 2274.00
10.9466 2375.00
11.0118 2344.00
11.077 2342.00
11.1422 2318.00
11.2074 2390.00
11.2726 2406.00
11.3378 2442.00
11.403 2508.00
11.4682 2629.00
11.5334 2540.00
11.5986 2550.00
11.6638 2417.00
11.729 2249.00
11.7942 2145.00
11.8594 2073.00
11.9246 2096.00
11.9898 2104.00
12.055 2072.00
12.1202 2020.00
12.1854 1996.00
12.2506 2048.00
12.3158 2026.00
12.381 2038.00
12.4462 2070.00
12.5114 1922.00
12.5766 1991.00
12.6418 1930.00
12.707 1897.00
12.7722 1904.00
12.8374 1875.00
12.9026 1898.00
12.9678 1854.00
13.033 1837.00
13.0982 1821.00
13.1634 1845.00
13.2286 1828.00
13.2938 1811.00
13.359 1819.00
13.4242 1859.00
13.4894 1749.00
13.5546 1724.00
13.6198 1763.00
13.685 1729.00
13.7502 1706.00
13.8154 1768.00
13.8805 1724.00
13.9457 1780.00
14.0109 1770.00
14.0761 1778.00
14.1413 1707.00
14.2065 1758.00
14.2717 1685.00
14.3369 1652.00
14.4021 1656.00
14.4673 1574.00
14.5325 1710.00
14.5977 1662.00
14.6629 1597.00
14.7281 1701.00
14.7933 1659.00
14.8585 1668.00
14.9237 1665.00
14.9889 1694.00
15.0541 1661.00
15.1193 1678.00
15.1845 1633.00
15.2497 1658.00
15.3149 1541.00
15.3801 1653.00
15.4453 1540.00
15.5105 1552.00
15.5757 1633.00
15.6409 1634.00
15.7061 1550.00
15.7713 1574.00
15.8365 1569.00
15.9017 1604.00
15.9669 1605.00
16.0321 1568.00
16.0973 1595.00
16.1625 1685.00
16.2277 1791.00
16.2929 1777.00
16.3581 1756.00
16.4233 1671.00
16.4885 1544.00
16.5537 1507.00
16.6189 1501.00
16.6841 1443.00
16.7493 1589.00
16.8145 1520.00
16.8797 1502.00
16.9449 1545.00
17.0101 1539.00
17.0753 1542.00
17.1405 1561.00
17.2057 1542.00
17.2709 1510.00
17.3361 1466.00
17.4013 1504.00
17.4665 1531.00
17.5317 1552.00
17.5969 1582.00
17.6621 1415.00
17.7273 1618.00
17.7925 1637.00
17.8577 1538.00
17.9229 1657.00
17.9881 1647.00
18.0533 1640.00
18.1185 1581.00
18.1837 1440.00
18.2489 1467.00
18.3141 1483.00
18.3793 1440.00
18.4445 1487.00
18.5097 1410.00
18.5749 1418.00
18.6401 1411.00
18.7052 1354.00
18.7704 1398.00
18.8356 1429.00
18.9008 1349.00
18.966 1350.00
19.0312 1381.00
19.0964 1317.00
19.1616 1378.00
19.2268 1392.00
19.292 1412.00
19.3572 1295.00
19.4224 1395.00
19.4876 1326.00
19.5528 1404.00
19.618 1351.00
19.6832 1412.00
19.7484 1384.00
19.8136 1366.00
19.8788 1357.00
19.944 1367.00
20.0092 1272.00
20.0744 1256.00
20.1396 1317.00
20.2048 1370.00
20.27 1262.00
20.3352 1300.00
20.4004 1278.00
20.4656 1354.00
20.5308 1343.00
20.596 1280.00
20.6612 1318.00
20.7264 1297.00
20.7916 1336.00
20.8568 1246.00
20.922 1228.00
20.9872 1241.00
21.0524 1275.00
21.1176 1349.00
21.1828 1329.00
21.248 1400.00
21.3132 1300.00
21.3784 1292.00
21.4436 1349.00
21.5088 1286.00
21.574 1219.00
21.6392 1256.00
21.7044 1252.00
21.7696 1307.00
21.8348 1171.00
21.9 1241.00
21.9652 1214.00
22.0304 1268.00
22.0956 1211.00
22.1608 1175.00
22.226 1249.00
22.2912 1179.00
22.3564 1250.00
22.4216 1275.00
22.4868 1295.00
22.552 1207.00
22.6172 1267.00
22.6824 1223.00
22.7476 1178.00
22.8128 1272.00
22.878 1233.00
22.9432 1205.00
23.0084 1271.00
23.0736 1283.00
23.1388 1252.00
23.204 1210.00
23.2692 1151.00
23.3344 1213.00
23.3996 1151.00
23.4647 1152.00
23.5299 1169.00
23.5951 1166.00
23.6603 1197.00
23.7255 1175.00
23.7907 1175.00
23.8559 1237.00
23.9211 1177.00
23.9863 1238.00
24.0515 1268.00
24.1167 1294.00
24.1819 1310.00
24.2471 1273.00
24.3123 1325.00
24.3775 1280.00
24.4427 1305.00
24.5079 1331.00
24.5731 1268.00
24.6383 1185.00
24.7035 1101.00
24.7687 1138.00
24.8339 1164.00
24.8991 1128.00
24.9643 1155.00
25.0295 1178.00
25.0947 1166.00
25.1599 1200.00
25.2251 1178.00
25.2903 1160.00
25.3555 1198.00
25.4207 1295.00
25.4859 1195.00
25.5511 1276.00
25.6163 1251.00
25.6815 1407.00
25.7467 1461.00
25.8119 1464.00
25.8771 1545.00
25.9423 1545.00
26.0075 1460.00
26.0727 1458.00
26.1379 1325.00
26.2031 1309.00
26.2683 1268.00
26.3335 1457.00
26.3987 1759.00
26.4639 2242.00
26.5291 2856.00
26.5943 3244.00
26.6595 3084.00
26.7247 2642.00
26.7899 1786.00
26.8551 1489.00
26.9203 1292.00
26.9855 1280.00
27.0507 1189.00
27.1159 1171.00
27.1811 1185.00
27.2463 1216.00
27.3115 1228.00
27.3767 1274.00
27.4419 1312.00
27.5071 1333.00
27.5723 1479.00
27.6375 1447.00
27.7027 1432.00
27.7679 1379.00
27.8331 1338.00
27.8983 1283.00
27.9635 1211.00
28.0287 1168.00
28.0939 1207.00
28.1591 1209.00
28.2243 1203.00
28.2894 1155.00
28.3546 1209.00
28.4198 1087.00
28.485 1115.00
28.5502 1091.00
28.6154 1147.00
28.6806 1106.00
28.7458 1060.00
28.811 1070.00
28.8762 1120.00
28.9414 1101.00
29.0066 1073.00
29.0718 1055.00
29.137 1075.00
29.2022 1074.00
29.2674 1003.00
29.3326 1068.00
29.3978 1147.00
29.463 1040.00
29.5282 1054.00
29.5934 1050.00
29.6586 1052.00
29.7238 1024.00
29.789 1084.00
29.8542 1205.00
29.9194 1142.00
29.9846 1097.00
30.0498 1137.00
30.115 1112.00
30.1802 1097.00
30.2454 1104.00
30.3106 1063.00
30.3758 1012.00
30.441 1019.00
30.5062 1029.00
30.5714 1099.00
30.6366 1137.00
30.7018 1051.00
30.767 1137.00
30.8322 1101.00
30.8974 1011.00
30.9626 1081.00
31.0278 1040.00
31.093 1024.00
31.1582 1080.00
31.2234 1049.00
31.2886 1106.00
31.3538 1138.00
31.419 1118.00
31.4842 1141.00
31.5494 1099.00
31.6146 1095.00
31.6798 1038.00
31.745 1072.00
31.8102 1043.00
31.8754 1038.00
31.9406 998.00
32.0058 1034.00
32.071 1041.00
32.1362 1020.00
32.2014 1024.00
32.2666 1035.00
32.3318 1044.00
32.397 986.00
32.4622 1069.00
32.5274 1078.00
32.5926 1057.00
32.6578 1110.00
32.723 1213.00
32.7882 1314.00
32.8534 1485.00
32.9186 1472.00
32.9838 1460.00
33.0489 1443.00
33.1141 1347.00
33.1793 1206.00
33.2445 1110.00
33.3097 1100.00
33.3749 1139.00
33.4401 1141.00
33.5053 1205.00
33.5705 1182.00
33.6357 1352.00
33.7009 1638.00
33.7661 2153.00
33.8313 2775.00
33.8965 3109.00
33.9617 3124.00
34.0269 2453.00
34.0921 1931.00
34.1573 1549.00
34.2225 1377.00
34.2877 1432.00
34.3529 1442.00
34.4181 1453.00
34.4833 1383.00
34.5485 1362.00
34.6137 1244.00
34.6789 1228.00
34.7441 1158.00
34.8093 1109.00
34.8745 1007.00
34.9397 1016.00
35.0049 937.00
35.0701 931.00
35.1353 871.00
35.2005 879.00
35.2657 896.00
35.3309 814.00
35.3961 880.00
35.4613 866.00
35.5265 859.00
35.5917 803.00
35.6569 855.00
35.7221 840.00
35.7873 889.00
35.8525 851.00
35.9177 813.00
35.9829 766.00
36.0481 825.00
36.1133 807.00
36.1785 872.00
36.2437 815.00
36.3089 795.00
36.3741 807.00
36.4393 806.00
36.5045 841.00
36.5697 805.00
36.6349 820.00
36.7001 807.00
36.7653 815.00
36.8305 843.00
36.8957 839.00
36.9609 847.00
37.0261 831.00
37.0913 816.00
37.1565 770.00
37.2217 768.00
37.2869 786.00
37.3521 788.00
37.4173 748.00
37.4825 790.00
37.5477 765.00
37.6129 772.00
37.6781 820.00
37.7433 862.00
37.8085 952.00
37.8736 1097.00
37.9388 1248.00
38.004 1248.00
38.0692 1179.00
38.1344 1068.00
38.1996 918.00
38.2648 827.00
38.33 857.00
38.3952 785.00
38.4604 791.00
38.5256 716.00
38.5908 702.00
38.656 751.00
38.7212 723.00
38.7864 790.00
38.8516 757.00
38.9168 766.00
38.982 916.00
39.0472 884.00
39.1124 850.00
39.1776 775.00
39.2428 743.00
39.308 678.00
39.3732 730.00
39.4384 751.00
39.5036 701.00
39.5688 752.00
39.634 701.00
39.6992 704.00
39.7644 662.00
39.8296 734.00
39.8948 738.00
39.96 632.00
40.0252 722.00
40.0904 667.00
40.1556 734.00
40.2208 767.00
40.286 671.00
40.3512 695.00
40.4164 697.00
40.4816 663.00
40.5468 657.00
40.612 685.00
40.6772 715.00
40.7424 742.00
40.8076 742.00
40.8728 702.00
40.938 692.00
41.0032 735.00
41.0684 727.00
41.1336 764.00
41.1988 680.00
41.264 753.00
41.3292 694.00
41.3944 692.00
41.4596 745.00
41.5248 765.00
41.59 668.00
41.6552 728.00
41.7204 713.00
41.7856 759.00
41.8508 717.00
41.916 756.00
41.9812 748.00
42.0464 712.00
42.1116 752.00
42.1768 752.00
42.242 761.00
42.3072 722.00
42.3724 723.00
42.4376 764.00
42.5028 746.00
42.568 750.00
42.6332 724.00
42.6983 786.00
42.7635 717.00
42.8287 719.00
42.8939 693.00
42.9591 743.00
43.0243 653.00
43.0895 670.00
43.1547 726.00
43.2199 715.00
43.2851 688.00
43.3503 728.00
43.4155 679.00
43.4807 670.00
43.5459 638.00
43.6111 701.00
43.6763 676.00
43.7415 708.00
43.8067 693.00
43.8719 687.00
43.9371 674.00
44.0023 671.00
44.0675 690.00
44.1327 742.00
44.1979 679.00
44.2631 739.00
44.3283 680.00
44.3935 665.00
44.4587 666.00
44.5239 670.00
44.5891 678.00
44.6543 663.00
44.7195 729.00
44.7847 701.00
44.8499 668.00
44.9151 624.00
44.9803 701.00
45.0455 751.00
45.1107 675.00
45.1759 663.00
45.2411 713.00
45.3063 726.00
45.3715 724.00
45.4367 693.00
45.5019 688.00
45.5671 665.00
45.6323 662.00
45.6975 736.00
45.7627 708.00
45.8279 676.00
45.8931 709.00
45.9583 663.00
46.0235 662.00
46.0887 673.00
46.1539 672.00
46.2191 660.00
46.2843 737.00
46.3495 688.00
46.4147 722.00
46.4799 678.00
46.5451 715.00
46.6103 665.00
46.6755 730.00
46.7407 746.00
46.8059 734.00
46.8711 728.00
46.9363 729.00
47.0015 723.00
47.0667 694.00
47.1319 768.00
47.1971 766.00
47.2623 747.00
47.3275 719.00
47.3927 771.00
47.4579 703.00
47.523 750.00
47.5882 748.00
47.6534 749.00
47.7186 735.00
47.7838 702.00
47.849 652.00
47.9142 682.00
47.9794 653.00
48.0446 679.00
48.1098 672.00
48.175 655.00
48.2402 700.00
48.3054 630.00
48.3706 716.00
48.4358 653.00
48.501 603.00
48.5662 697.00
48.6314 687.00
48.6966 736.00
48.7618 698.00
48.827 674.00
48.8922 677.00
48.9574 629.00
49.0226 681.00
49.0878 651.00
49.153 700.00
49.2182 711.00
49.2834 721.00
49.3486 741.00
49.4138 716.00
49.479 718.00
49.5442 770.00
49.6094 733.00
49.6746 714.00
49.7398 717.00
49.805 690.00
49.8702 683.00
49.9354 730.00
50.0006 736.00
50.0658 792.00
50.131 748.00
50.1962 738.00
50.2614 804.00
50.3266 756.00
50.3918 742.00
50.457 696.00
50.5222 734.00
50.5874 728.00
50.6526 707.00
50.7178 708.00
50.783 652.00
50.8482 693.00
50.9134 662.00
50.9786 734.00
51.0438 639.00
51.109 716.00
51.1742 686.00
51.2394 772.00
51.3046 724.00
51.3698 825.00
51.435 885.00
51.5002 841.00
51.5654 1022.00
51.6306 1350.00
51.6958 1799.00
51.761 2230.00
51.8262 2380.00
51.8914 2310.00
51.9566 2016.00
52.0218 1457.00
52.087 1221.00
52.1522 959.00
52.2174 823.00
52.2826 781.00
52.3477 681.00
52.4129 708.00
52.4781 687.00
52.5433 657.00
52.6085 669.00
52.6737 671.00
52.7389 657.00
52.8041 700.00
52.8693 652.00
52.9345 627.00
52.9997 653.00
53.0649 645.00
53.1301 640.00
53.1953 625.00
53.2605 663.00
53.3257 671.00
53.3909 650.00
53.4561 687.00
53.5213 600.00
53.5865 681.00
53.6517 656.00
53.7169 626.00
53.7821 617.00
53.8473 663.00
53.9125 688.00
53.9777 640.00
54.0429 689.00
54.1081 667.00
54.1733 666.00
54.2385 677.00
54.3037 654.00
54.3689 674.00
54.4341 691.00
54.4993 714.00
54.5645 703.00
54.6297 840.00
54.6949 929.00
54.7601 1010.00
54.8253 1084.00
54.8905 1062.00
54.9557 950.00
55.0209 841.00
55.0861 766.00
55.1513 667.00
55.2165 655.00
55.2817 636.00
55.3469 642.00
55.4121 693.00
55.4773 707.00
55.5425 628.00
55.6077 663.00
55.6729 658.00
55.7381 661.00
55.8033 654.00
55.8685 680.00
55.9337 643.00
55.9989 662.00
56.0641 621.00
56.1293 680.00
56.1945 722.00
56.2597 656.00
56.3249 719.00
56.3901 667.00
56.4553 634.00
56.5205 634.00
56.5857 610.00
56.6509 657.00
56.7161 668.00
56.7813 668.00
56.8465 693.00
56.9117 663.00
56.9769 650.00
57.042 664.00
57.1073 654.00
57.1724 664.00
57.2376 651.00
57.3028 696.00
57.368 689.00
57.4332 670.00
57.4984 669.00
57.5636 685.00
57.6288 691.00
57.694 760.00
57.7592 774.00
57.8244 855.00
57.8896 867.00
57.9548 824.00
58.02 841.00
58.0852 765.00
58.1504 726.00
58.2156 713.00
58.2808 696.00
58.346 669.00
58.4112 665.00
58.4764 759.00
58.5416 696.00
58.6068 754.00
58.672 750.00
58.7372 735.00
58.8024 723.00
58.8676 690.00
58.9328 751.00
58.998 693.00
59.0632 622.00
59.1284 712.00
59.1936 682.00
59.2588 707.00
59.324 710.00
59.3892 767.00
59.4544 669.00
59.5196 730.00
59.5848 710.00
59.65 760.00
59.7152 761.00
59.7804 686.00
59.8456 778.00
59.9108 732.00
59.976 730.00
60.0412 724.00
60.1064 731.00
60.1716 751.00
60.2368 750.00
60.302 679.00
60.3672 690.00
60.4324 677.00
60.4976 686.00
60.5628 597.00
60.628 615.00
60.6932 640.00
60.7584 560.00
60.8236 632.00
60.8888 624.00
60.954 598.00
61.0192 602.00
61.0844 619.00
61.1496 677.00
61.2148 668.00
61.28 664.00
61.3452 672.00
61.4104 616.00
61.4756 667.00
61.5408 650.00
61.606 646.00
61.6712 706.00
61.7364 742.00
61.8016 816.00
61.8667 919.00
61.932 962.00
61.9971 997.00
62.0623 915.00
62.1275 849.00
62.1927 752.00
62.2579 673.00
62.3231 718.00
62.3883 651.00
62.4535 639.00
62.5187 653.00
62.5839 637.00
62.6491 670.00
62.7143 593.00
62.7795 616.00
62.8447 683.00
62.9099 637.00
62.9751 665.00
63.0403 667.00
63.1055 605.00
63.1707 629.00
63.2359 583.00
63.3011 624.00
63.3663 601.00
63.4315 637.00
63.4967 568.00
63.5619 613.00
63.6271 655.00
63.6923 590.00
63.7575 615.00
63.8227 572.00
63.8879 605.00
63.9531 596.00
64.0183 614.00
64.0835 576.00
64.1487 558.00
64.2139 639.00
64.2791 660.00
64.3443 596.00
64.4095 611.00
64.4747 730.00
64.5399 691.00
64.6051 792.00
64.6703 868.00
64.7355 946.00
64.8007 1012.00
64.8659 920.00
64.9311 915.00
64.9963 832.00
65.0615 745.00
65.1267 648.00
65.1919 643.00
65.2571 603.00
65.3223 580.00
65.3875 603.00
65.4527 605.00
65.5179 626.00
65.5831 590.00
65.6483 671.00
65.7135 678.00
65.7787 778.00
65.8439 823.00
65.9091 885.00
65.9743 990.00
66.0395 989.00
66.1047 996.00
66.1699 991.00
66.2351 793.00
66.3003 781.00
66.3655 671.00
66.4307 703.00
66.4959 631.00
66.561 554.00
66.6263 590.00
66.6915 557.00
66.7566 614.00
66.8218 588.00
66.887 571.00
66.9522 578.00
67.0174 525.00
67.0826 561.00
67.1478 567.00
67.213 613.00
67.2782 559.00
67.3434 573.00
67.4086 530.00
67.4738 587.00
67.539 520.00
67.6042 559.00
67.6694 550.00
67.7346 583.00
67.7998 529.00
67.865 538.00
67.9302 498.00
67.9954 589.00
68.0606 568.00
68.1258 516.00
68.191 552.00
68.2562 575.00
68.3214 553.00
68.3866 538.00
68.4518 499.00
68.517 542.00
68.5822 524.00
68.6474 553.00
68.7126 522.00
68.7778 547.00
68.843 573.00
68.9082 594.00
68.9734 583.00
69.0386 543.00
69.1038 581.00
69.169 560.00
69.2342 534.00
69.2994 510.00
69.3646 517.00
69.4298 544.00
69.495 533.00
69.5602 516.00
69.6254 537.00
69.6906 485.00
69.7558 538.00
69.821 529.00
69.8862 540.00
69.9514 549.00
70.0166 483.00
70.0818 542.00
70.147 514.00
70.2122 513.00
70.2774 539.00
70.3426 554.00
70.4078 551.00
70.473 510.00
70.5382 530.00
70.6034 504.00
70.6686 508.00
70.7338 518.00
70.799 508.00
70.8642 559.00
70.9294 576.00
70.9946 555.00
71.0598 564.00
71.125 593.00
71.1902 612.00
71.2554 714.00
71.3205 768.00
71.3858 722.00
71.451 700.00
71.5162 706.00
71.5813 640.00
71.6465 582.00
71.7117 542.00
71.7769 586.00
71.8421 525.00
71.9073 516.00
71.9725 580.00
72.0377 502.00
72.1029 525.00
72.1681 543.00
72.2333 510.00
72.2985 561.00
72.3637 544.00
72.4289 493.00
72.4941 501.00
72.5593 490.00
72.6245 504.00
72.6897 506.00
72.7549 510.00
72.8201 513.00
72.8853 501.00
72.9505 532.00
73.0157 472.00
73.0809 505.00
73.1461 523.00
73.2113 509.00
73.2765 506.00
73.3417 559.00
73.4069 555.00
73.4721 491.00
73.5373 472.00
73.6025 528.00
73.6677 502.00
73.7329 526.00
73.7981 491.00
73.8633 496.00
73.9285 521.00
73.9937 480.00
74.0589 496.00
74.1241 451.00
74.1893 565.00
74.2545 500.00
74.3197 528.00
74.3849 523.00
74.4501 487.00
74.5153 533.00
74.5805 504.00
74.6457 524.00
74.7109 485.00
74.7761 496.00
74.8413 481.00
74.9065 475.00
74.9717 495.00
75.0369 515.00
75.1021 476.00
75.1673 479.00
75.2325 475.00
75.2977 488.00
75.3629 465.00
75.4281 468.00
75.4933 460.00
75.5585 491.00
75.6237 502.00
75.6889 474.00
75.7541 492.00
75.8193 474.00
75.8845 474.00
75.9497 480.00
76.0149 497.00
76.0801 509.00
76.1452 453.00
76.2104 508.00
76.2756 449.00
76.3409 494.00
76.406 478.00
76.4712 510.00
76.5364 493.00
76.6016 537.00
76.6668 459.00
76.732 479.00
76.7972 477.00
76.8624 482.00
76.9276 510.00
76.9928 475.00
77.058 508.00
77.1232 544.00
77.1884 431.00
77.2536 471.00
77.3188 491.00
77.384 473.00
77.4492 464.00
77.5144 478.00
77.5796 460.00
77.6448 416.00
77.71 521.00
77.7752 523.00
77.8404 538.00
77.9056 470.00
77.9708 449.00
78.036 484.00
78.1012 538.00
78.1664 505.00
78.2316 538.00
78.2968 498.00
78.362 488.00
78.4272 474.00
78.4924 529.00
78.5576 595.00
78.6228 639.00
78.688 713.00
78.7532 819.00
78.8184 753.00
78.8836 767.00
78.9488 746.00
79.014 686.00
79.0792 640.00
79.1444 591.00
79.2096 556.00
79.2748 513.00
79.34 507.00
79.4052 555.00
79.4704 483.00
79.5356 473.00
79.6008 471.00
79.666 490.00
79.7312 430.00
79.7964 458.00
79.8616 496.00
79.9268 500.00
79.992 473.00
80.0572 442.00
80.1224 475.00
80.1876 463.00
80.2528 507.00
80.318 462.00
80.3832 497.00
80.4484 450.00
80.5136 499.00
80.5788 469.00
80.644 473.00
80.7092 472.00
80.7744 503.00
80.8396 425.00
80.9048 521.00
80.9699 548.00
81.0351 526.00
81.1003 524.00
81.1655 505.00
81.2307 568.00
81.2959 495.00
81.3611 529.00
81.4263 535.00
81.4915 538.00
81.5567 484.00
81.6219 514.00
81.6871 525.00
81.7523 473.00
81.8175 477.00
81.8827 461.00
81.9479 438.00
82.0131 504.00
82.0783 459.00
82.1435 499.00
82.2087 474.00
82.2739 471.00
82.3391 497.00
82.4043 480.00
82.4695 485.00
82.5347 478.00
82.5999 446.00
82.6651 477.00
82.7303 487.00
82.7955 457.00
82.8607 497.00
82.9259 458.00
82.9911 469.00
83.0563 472.00
83.1215 476.00
83.1867 500.00
83.2519 498.00
83.3171 466.00
83.3823 450.00
83.4475 494.00
83.5127 520.00
83.5779 542.00
83.6431 579.00
83.7083 623.00
83.7735 640.00
83.8387 646.00
83.9039 648.00
83.9691 645.00
84.0343 638.00
84.0995 559.00
84.1647 550.00
84.2299 533.00
84.2951 502.00
84.3603 492.00
84.4255 446.00
84.4907 462.00
84.5559 485.00
84.6211 488.00
84.6863 492.00
84.7515 481.00
84.8167 485.00
84.8819 467.00
84.9471 500.00
85.0123 470.00
85.0775 465.00
85.1427 485.00
85.2079 457.00
85.2731 451.00
85.3383 526.00
85.4035 494.00
85.4687 451.00
85.5339 499.00
85.5991 486.00
85.6643 480.00
85.7295 459.00
85.7946 435.00
85.8598 446.00
85.925 506.00
85.9903 508.00
86.0554 495.00
86.1206 457.00
86.1858 473.00
86.251 466.00
86.3162 500.00
86.3814 505.00
86.4466 451.00
86.5118 488.00
86.577 457.00
86.6422 460.00
86.7074 443.00
86.7726 447.00
86.8378 483.00
86.903 470.00
86.9682 495.00
87.0334 473.00
87.0986 494.00
87.1638 511.00
87.229 554.00
87.2942 547.00
87.3594 587.00
87.4246 531.00
87.4898 558.00
87.555 508.00
87.6202 505.00
87.6854 514.00
87.7506 477.00
87.8158 461.00
87.881 474.00
87.9462 484.00
88.0114 409.00
88.0766 446.00
88.1418 484.00
88.207 445.00
88.2722 474.00
88.3374 487.00
88.4026 486.00
88.4678 478.00
88.533 482.00
88.5982 430.00
88.6634 471.00
88.7286 481.00
88.7938 458.00
88.859 460.00
88.9242 461.00
88.9894 448.00
89.0546 498.00
89.1198 478.00
89.185 517.00
89.2502 452.00
89.3154 487.00
89.3806 513.00
89.4458 474.00
89.511 525.00
89.5762 532.00
89.6414 566.00
89.7066 604.00
89.7718 665.00
89.837 629.00
89.9022 659.00
89.9674 660.00
90.0326 697.00
90.0978 633.00
90.163 595.00
90.2282 577.00
90.2934 518.00
90.3586 563.00
90.4238 500.00
90.489 502.00
90.5542 515.00
90.6193 515.00
90.6845 584.00
90.7497 616.00
90.8149 622.00
90.8801 667.00
90.9453 680.00
91.0105 639.00
91.0757 670.00
91.1409 670.00
91.2061 655.00
91.2713 650.00
91.3365 603.00
91.4017 600.00
91.4669 502.00
91.5321 512.00
91.5973 519.00
91.6625 494.00
91.7277 486.00
91.7929 524.00
91.8581 494.00
91.9233 441.00
91.9885 491.00
92.0537 434.00
92.1189 480.00
92.1841 463.00
92.2493 476.00
92.3145 465.00
92.3797 425.00
92.4449 477.00
92.5101 490.00
92.5753 414.00
92.6405 472.00
92.7057 408.00
92.7709 493.00
92.8361 470.00
92.9013 435.00
92.9665 470.00
93.0317 506.00
93.0969 446.00
93.1621 508.00
93.2273 476.00
93.2925 568.00
93.3577 593.00
93.4229 574.00
93.4881 552.00
93.5533 563.00
93.6185 555.00
93.6837 506.00
93.7489 528.00
93.8141 466.00
93.8793 482.00
93.9445 478.00
94.0097 460.00
94.0749 411.00
94.1401 446.00
94.2053 399.00
94.2705 421.00
94.3357 447.00
94.4009 418.00
94.4661 448.00
94.5313 468.00
94.5965 417.00
94.6617 453.00
94.7269 427.00
94.7921 440.00
94.8573 470.00
94.9225 470.00
94.9877 472.00
95.0529 423.00
95.1181 442.00
95.1833 413.00
95.2485 501.00
95.3137 470.00
95.3789 445.00
95.444 460.00
95.5092 447.00
95.5744 488.00
95.6396 472.00
95.7048 490.00
95.77 509.00
95.8352 515.00
95.9004 502.00
95.9656 553.00
96.0308 523.00
96.096 574.00
96.1612 519.00
96.2264 528.00
96.2916 567.00
96.3568 516.00
96.422 502.00
96.4872 481.00
96.5524 495.00
96.6176 525.00
96.6828 486.00
96.748 457.00
96.8132 473.00
96.8784 461.00
96.9436 480.00
97.0088 474.00
97.074 483.00
97.1392 433.00
97.2044 470.00
97.2696 431.00
97.3348 458.00
97.4 429.00
97.4652 463.00
97.5304 472.00
97.5956 507.00
97.6608 455.00
97.726 471.00
97.7912 424.00
97.8564 461.00
97.9216 474.00
97.9868 502.00
98.052 449.00
98.1172 496.00
98.1824 495.00
98.2476 506.00
98.3128 495.00
98.378 483.00
98.4432 465.00
98.5084 445.00
98.5736 477.00
98.6388 430.00
98.704 477.00
98.7692 416.00
98.8344 447.00
98.8996 459.00
98.9648 462.00
99.03 437.00
99.0952 457.00
99.1604 455.00
99.2256 455.00
99.2908 502.00
99.356 441.00
99.4212 454.00
99.4864 481.00
99.5516 429.00
99.6168 434.00
99.682 413.00
99.7472 456.00
99.8124 429.00
99.8776 444.00
99.9428 422.00
100.008 463.00
100.073 428.00
100.095 434.00