File: data/xrd_creation/results/NSC_114.xy
9.903433 2673.00
9.968632 2802.00
10.0338 2574.00
10.099 2562.00
10.1642 2648.00
10.2294 2570.00
10.2946 2505.00
10.3598 2503.00
10.425 2478.00
10.4902 2382.00
10.5554 2445.00
10.6206 2409.00
10.6858 2367.00
10.751 2259.00
10.8162 2382.00
10.8814 2445.00
10.9466 2298.00
11.0118 2274.00
11.077 2327.00
11.1422 2333.00
11.2074 2420.00
11.2726 2477.00
11.3378 2440.00
11.403 2365.00
11.4682 2238.00
11.5334 2196.00
11.5986 2074.00
11.6638 2050.00
11.729 2114.00
11.7942 2074.00
11.8594 2023.00
11.9246 1993.00
11.9898 1988.00
12.055 1955.00
12.1202 1922.00
12.1854 1934.00
12.2506 1893.00
12.3158 1785.00
12.381 1919.00
12.4462 1814.00
12.5114 1897.00
12.5766 1787.00
12.6418 1756.00
12.707 1810.00
12.7722 1876.00
12.8374 1772.00
12.9026 1917.00
12.9678 1813.00
13.033 1694.00
13.0982 1731.00
13.1634 1785.00
13.2286 1690.00
13.2938 1908.00
13.359 1766.00
13.4242 1624.00
13.4894 1618.00
13.5546 1602.00
13.6198 1575.00
13.685 1616.00
13.7502 1562.00
13.8154 1602.00
13.8805 1534.00
13.9457 1618.00
14.0109 1532.00
14.0761 1534.00
14.1413 1462.00
14.2065 1452.00
14.2717 1423.00
14.3369 1477.00
14.4021 1498.00
14.4673 1512.00
14.5325 1488.00
14.5977 1430.00
14.6629 1444.00
14.7281 1405.00
14.7933 1492.00
14.8585 1528.00
14.9237 1527.00
14.9889 1584.00
15.0541 1470.00
15.1193 1466.00
15.1845 1495.00
15.2497 1467.00
15.3149 1487.00
15.3801 1411.00
15.4453 1510.00
15.5105 1614.00
15.5757 1725.00
15.6409 1918.00
15.7061 1896.00
15.7713 1661.00
15.8365 1480.00
15.9017 1434.00
15.9669 1386.00
16.0321 1452.00
16.0973 1456.00
16.1625 1429.00
16.2277 1451.00
16.2929 1304.00
16.3581 1279.00
16.4233 1288.00
16.4885 1307.00
16.5537 1312.00
16.6189 1256.00
16.6841 1285.00
16.7493 1332.00
16.8145 1285.00
16.8797 1330.00
16.9449 1350.00
17.0101 1300.00
17.0753 1289.00
17.1405 1334.00
17.2057 1216.00
17.2709 1243.00
17.3361 1269.00
17.4013 1236.00
17.4665 1253.00
17.5317 1209.00
17.5969 1200.00
17.6621 1164.00
17.7273 1207.00
17.7925 1252.00
17.8577 1218.00
17.9229 1215.00
17.9881 1170.00
18.0533 1181.00
18.1185 1222.00
18.1837 1250.00
18.2489 1246.00
18.3141 1222.00
18.3793 1301.00
18.4445 1292.00
18.5097 1207.00
18.5749 1160.00
18.6401 1169.00
18.7052 1158.00
18.7704 1121.00
18.8356 1189.00
18.9008 1116.00
18.966 1018.00
19.0312 1081.00
19.0964 1084.00
19.1616 1094.00
19.2268 1063.00
19.292 1097.00
19.3572 1118.00
19.4224 1049.00
19.4876 1044.00
19.5528 1050.00
19.618 1080.00
19.6832 1124.00
19.7484 1069.00
19.8136 1077.00
19.8788 1007.00
19.944 1011.00
20.0092 1069.00
20.0744 1083.00
20.1396 1015.00
20.2048 1012.00
20.27 1010.00
20.3352 1002.00
20.4004 975.00
20.4656 1061.00
20.5308 1029.00
20.596 1041.00
20.6612 1111.00
20.7264 1243.00
20.7916 1065.00
20.8568 1029.00
20.922 1067.00
20.9872 983.00
21.0524 1071.00
21.1176 1005.00
21.1828 983.00
21.248 923.00
21.3132 1020.00
21.3784 950.00
21.4436 987.00
21.5088 984.00
21.574 1005.00
21.6392 971.00
21.7044 888.00
21.7696 927.00
21.8348 979.00
21.9 906.00
21.9652 907.00
22.0304 934.00
22.0956 916.00
22.1608 915.00
22.226 958.00
22.2912 966.00
22.3564 940.00
22.4216 953.00
22.4868 910.00
22.552 872.00
22.6172 934.00
22.6824 920.00
22.7476 940.00
22.8128 902.00
22.878 930.00
22.9432 923.00
23.0084 891.00
23.0736 882.00
23.1388 875.00
23.204 888.00
23.2692 866.00
23.3344 889.00
23.3996 866.00
23.4647 880.00
23.5299 915.00
23.5951 861.00
23.6603 849.00
23.7255 890.00
23.7907 902.00
23.8559 840.00
23.9211 846.00
23.9863 856.00
24.0515 835.00
24.1167 981.00
24.1819 883.00
24.2471 844.00
24.3123 850.00
24.3775 838.00
24.4427 868.00
24.5079 785.00
24.5731 852.00
24.6383 841.00
24.7035 842.00
24.7687 841.00
24.8339 834.00
24.8991 815.00
24.9643 821.00
25.0295 810.00
25.0947 844.00
25.1599 885.00
25.2251 875.00
25.2903 912.00
25.3555 788.00
25.4207 839.00
25.4859 840.00
25.5511 887.00
25.6163 994.00
25.6815 1031.00
25.7467 947.00
25.8119 876.00
25.8771 843.00
25.9423 823.00
26.0075 875.00
26.0727 826.00
26.1379 800.00
26.2031 809.00
26.2683 888.00
26.3335 917.00
26.3987 1107.00
26.4639 1129.00
26.5291 1011.00
26.5943 906.00
26.6595 872.00
26.7247 795.00
26.7899 800.00
26.8551 835.00
26.9203 739.00
26.9855 768.00
27.0507 720.00
27.1159 766.00
27.1811 753.00
27.2463 854.00
27.3115 804.00
27.3767 764.00
27.4419 850.00
27.5071 814.00
27.5723 844.00
27.6375 809.00
27.7027 800.00
27.7679 818.00
27.8331 795.00
27.8983 852.00
27.9635 839.00
28.0287 903.00
28.0939 927.00
28.1591 891.00
28.2243 1143.00
28.2894 1190.00
28.3546 979.00
28.4198 755.00
28.485 759.00
28.5502 712.00
28.6154 710.00
28.6806 750.00
28.7458 749.00
28.811 800.00
28.8762 756.00
28.9414 694.00
29.0066 745.00
29.0718 752.00
29.137 736.00
29.2022 780.00
29.2674 728.00
29.3326 704.00
29.3978 699.00
29.463 672.00
29.5282 745.00
29.5934 719.00
29.6586 740.00
29.7238 711.00
29.789 721.00
29.8542 738.00
29.9194 730.00
29.9846 759.00
30.0498 741.00
30.115 714.00
30.1802 689.00
30.2454 703.00
30.3106 707.00
30.3758 682.00
30.441 649.00
30.5062 708.00
30.5714 705.00
30.6366 690.00
30.7018 719.00
30.767 714.00
30.8322 677.00
30.8974 621.00
30.9626 701.00
31.0278 686.00
31.093 715.00
31.1582 717.00
31.2234 743.00
31.2886 843.00
31.3538 980.00
31.419 1172.00
31.4842 1021.00
31.5494 1028.00
31.6146 937.00
31.6798 900.00
31.745 1070.00
31.8102 1009.00
31.8754 978.00
31.9406 944.00
32.0058 831.00
32.071 681.00
32.1362 607.00
32.2014 604.00
32.2666 592.00
32.3318 605.00
32.397 576.00
32.4622 606.00
32.5274 603.00
32.5926 600.00
32.6578 677.00
32.723 685.00
32.7882 656.00
32.8534 594.00
32.9186 632.00
32.9838 556.00
33.0489 615.00
33.1141 628.00
33.1793 656.00
33.2445 741.00
33.3097 666.00
33.3749 636.00
33.4401 582.00
33.5053 629.00
33.5705 635.00
33.6357 722.00
33.7009 800.00
33.7661 827.00
33.8313 725.00
33.8965 674.00
33.9617 626.00
34.0269 674.00
34.0921 603.00
34.1573 626.00
34.2225 654.00
34.2877 594.00
34.3529 570.00
34.4181 567.00
34.4833 568.00
34.5485 586.00
34.6137 589.00
34.6789 556.00
34.7441 634.00
34.8093 650.00
34.8745 664.00
34.9397 555.00
35.0049 592.00
35.0701 581.00
35.1353 527.00
35.2005 530.00
35.2657 480.00
35.3309 491.00
35.3961 512.00
35.4613 520.00
35.5265 494.00
35.5917 499.00
35.6569 475.00
35.7221 519.00
35.7873 522.00
35.8525 513.00
35.9177 496.00
35.9829 485.00
36.0481 516.00
36.1133 551.00
36.1785 525.00
36.2437 503.00
36.3089 506.00
36.3741 474.00
36.4393 481.00
36.5045 487.00
36.5697 486.00
36.6349 453.00
36.7001 448.00
36.7653 459.00
36.8305 455.00
36.8957 466.00
36.9609 498.00
37.0261 514.00
37.0913 457.00
37.1565 470.00
37.2217 452.00
37.2869 432.00
37.3521 489.00
37.4173 476.00
37.4825 443.00
37.5477 487.00
37.6129 514.00
37.6781 521.00
37.7433 528.00
37.8085 502.00
37.8736 486.00
37.9388 504.00
38.004 496.00
38.0692 496.00
38.1344 488.00
38.1996 498.00
38.2648 459.00
38.33 453.00
38.3952 430.00
38.4604 401.00
38.5256 440.00
38.5908 441.00
38.656 458.00
38.7212 448.00
38.7864 485.00
38.8516 421.00
38.9168 387.00
38.982 433.00
39.0472 440.00
39.1124 420.00
39.1776 447.00
39.2428 403.00
39.308 437.00
39.3732 406.00
39.4384 427.00
39.5036 450.00
39.5688 479.00
39.634 451.00
39.6992 421.00
39.7644 461.00
39.8296 426.00
39.8948 437.00
39.96 408.00
40.0252 412.00
40.0904 382.00
40.1556 418.00
40.2208 346.00
40.286 436.00
40.3512 426.00
40.4164 492.00
40.4816 461.00
40.5468 464.00
40.612 435.00
40.6772 427.00
40.7424 396.00
40.8076 407.00
40.8728 452.00
40.938 424.00
41.0032 387.00
41.0684 406.00
41.1336 378.00
41.1988 415.00
41.264 411.00
41.3292 362.00
41.3944 374.00
41.4596 424.00
41.5248 385.00
41.59 403.00
41.6552 406.00
41.7204 405.00
41.7856 377.00
41.8508 405.00
41.916 458.00
41.9812 426.00
42.0464 382.00
42.1116 378.00
42.1768 427.00
42.242 396.00
42.3072 442.00
42.3724 349.00
42.4376 352.00
42.5028 409.00
42.568 352.00
42.6332 360.00
42.6983 387.00
42.7635 392.00
42.8287 375.00
42.8939 384.00
42.9591 407.00
43.0243 373.00
43.0895 418.00
43.1547 407.00
43.2199 387.00
43.2851 364.00
43.3503 410.00
43.4155 382.00
43.4807 422.00
43.5459 405.00
43.6111 410.00
43.6763 425.00
43.7415 446.00
43.8067 413.00
43.8719 425.00
43.9371 452.00
44.0023 435.00
44.0675 397.00
44.1327 383.00
44.1979 436.00
44.2631 417.00
44.3283 381.00
44.3935 392.00
44.4587 399.00
44.5239 400.00
44.5891 382.00
44.6543 379.00
44.7195 386.00
44.7847 376.00
44.8499 381.00
44.9151 399.00
44.9803 346.00
45.0455 340.00
45.1107 317.00
45.1759 345.00
45.2411 352.00
45.3063 362.00
45.3715 404.00
45.4367 359.00
45.5019 335.00
45.5671 374.00
45.6323 349.00
45.6975 371.00
45.7627 356.00
45.8279 346.00
45.8931 348.00
45.9583 318.00
46.0235 357.00
46.0887 348.00
46.1539 341.00
46.2191 340.00
46.2843 365.00
46.3495 331.00
46.4147 337.00
46.4799 390.00
46.5451 354.00
46.6103 377.00
46.6755 310.00
46.7407 336.00
46.8059 323.00
46.8711 315.00
46.9363 352.00
47.0015 322.00
47.0667 372.00
47.1319 366.00
47.1971 354.00
47.2623 342.00
47.3275 326.00
47.3927 346.00
47.4579 287.00
47.523 301.00
47.5882 305.00
47.6534 341.00
47.7186 344.00
47.7838 358.00
47.849 324.00
47.9142 348.00
47.9794 312.00
48.0446 347.00
48.1098 353.00
48.175 343.00
48.2402 364.00
48.3054 338.00
48.3706 291.00
48.4358 322.00
48.501 378.00
48.5662 309.00
48.6314 354.00
48.6966 362.00
48.7618 347.00
48.827 346.00
48.8922 346.00
48.9574 331.00
49.0226 330.00
49.0878 357.00
49.153 314.00
49.2182 367.00
49.2834 337.00
49.3486 351.00
49.4138 335.00
49.479 323.00
49.5442 358.00
49.6094 317.00
49.6746 313.00
49.7398 326.00
49.805 289.00
49.8702 336.00
49.9354 359.00
50.0006 350.00
50.0658 317.00
50.131 336.00
50.1962 339.00
50.2614 301.00
50.3266 330.00
50.3918 374.00
50.457 341.00
50.5222 344.00
50.5874 322.00
50.6526 376.00
50.7178 359.00
50.783 416.00
50.8482 333.00
50.9134 350.00
50.9786 324.00
51.0438 301.00
51.109 324.00
51.1742 349.00
51.2394 361.00
51.3046 326.00
51.3698 352.00
51.435 318.00
51.5002 340.00
51.5654 382.00
51.6306 428.00
51.6958 389.00
51.761 414.00
51.8262 375.00
51.8914 359.00
51.9566 420.00
52.0218 405.00
52.087 355.00
52.1522 390.00
52.2174 373.00
52.2826 340.00
52.3477 296.00
52.4129 328.00
52.4781 280.00
52.5433 322.00
52.6085 274.00
52.6737 350.00
52.7389 343.00
52.8041 346.00
52.8693 342.00
52.9345 340.00
52.9997 311.00
53.0649 265.00
53.1301 316.00
53.1953 316.00
53.2605 284.00
53.3257 307.00
53.3909 320.00
53.4561 309.00
53.5213 326.00
53.5865 291.00
53.6517 322.00
53.7169 295.00
53.7821 301.00
53.8473 257.00
53.9125 286.00
53.9777 282.00
54.0429 247.00
54.1081 292.00
54.1733 291.00
54.2385 307.00
54.3037 257.00
54.3689 303.00
54.4341 317.00
54.4993 324.00
54.5645 325.00
54.6297 352.00
54.6949 349.00
54.7601 265.00
54.8253 298.00
54.8905 286.00
54.9557 279.00
55.0209 290.00
55.0861 277.00
55.1513 280.00
55.2165 266.00
55.2817 285.00
55.3469 271.00
55.4121 291.00
55.4773 276.00
55.5425 266.00
55.6077 297.00
55.6729 337.00
55.7381 303.00
55.8033 287.00
55.8685 326.00
55.9337 303.00
55.9989 293.00
56.0641 293.00
56.1293 261.00
56.1945 284.00
56.2597 241.00
56.3249 251.00
56.3901 294.00
56.4553 258.00
56.5205 274.00
56.5857 287.00
56.6509 298.00
56.7161 266.00
56.7813 278.00
56.8465 324.00
56.9117 264.00
56.9769 287.00
57.042 244.00
57.1073 271.00
57.1724 300.00
57.2376 281.00
57.3028 308.00
57.368 264.00
57.4332 264.00
57.4984 249.00
57.5636 270.00
57.6288 265.00
57.694 305.00
57.7592 282.00
57.8244 289.00
57.8896 285.00
57.9548 260.00
58.02 270.00
58.0852 257.00
58.1504 260.00
58.2156 283.00
58.2808 261.00
58.346 304.00
58.4112 296.00
58.4764 271.00
58.5416 296.00
58.6068 317.00
58.672 294.00
58.7372 301.00
58.8024 283.00
58.8676 305.00
58.9328 246.00
58.998 229.00
59.0632 270.00
59.1284 242.00
59.1936 268.00
59.2588 257.00
59.324 278.00
59.3892 219.00
59.4544 245.00
59.5196 263.00
59.5848 299.00
59.65 256.00
59.7152 303.00
59.7804 246.00
59.8456 240.00
59.9108 264.00
59.976 235.00
60.0412 256.00
60.1064 249.00
60.1716 227.00
60.2368 233.00
60.302 286.00
60.3672 267.00
60.4324 285.00
60.4976 250.00
60.5628 219.00
60.628 211.00
60.6932 210.00
60.7584 262.00
60.8236 246.00
60.8888 237.00
60.954 241.00
61.0192 210.00
61.0844 241.00
61.1496 220.00
61.2148 225.00
61.28 250.00
61.3452 270.00
61.4104 227.00
61.4756 234.00
61.5408 232.00
61.606 281.00
61.6712 247.00
61.7364 296.00
61.8016 241.00
61.8667 263.00
61.932 268.00
61.9971 321.00
62.0623 268.00
62.1275 263.00
62.1927 250.00
62.2579 220.00
62.3231 210.00
62.3883 230.00
62.4535 209.00
62.5187 259.00
62.5839 258.00
62.6491 258.00
62.7143 232.00
62.7795 259.00
62.8447 226.00
62.9099 237.00
62.9751 249.00
63.0403 229.00
63.1055 231.00
63.1707 220.00
63.2359 224.00
63.3011 257.00
63.3663 219.00
63.4315 233.00
63.4967 245.00
63.5619 240.00
63.6271 223.00
63.6923 230.00
63.7575 229.00
63.8227 237.00
63.8879 239.00
63.9531 230.00
64.0183 231.00
64.0835 237.00
64.1487 227.00
64.2139 228.00
64.2791 264.00
64.3443 281.00
64.4095 220.00
64.4747 270.00
64.5399 258.00
64.6051 259.00
64.6703 258.00
64.7355 260.00
64.8007 249.00
64.8659 233.00
64.9311 221.00
64.9963 216.00
65.0615 196.00
65.1267 195.00
65.1919 215.00
65.2571 223.00
65.3223 230.00
65.3875 224.00
65.4527 248.00
65.5179 264.00
65.5831 245.00
65.6483 273.00
65.7135 297.00
65.7787 271.00
65.8439 241.00
65.9091 272.00
65.9743 258.00
66.0395 272.00
66.1047 204.00
66.1699 206.00
66.2351 230.00
66.3003 227.00
66.3655 218.00
66.4307 232.00
66.4959 224.00
66.561 237.00
66.6263 199.00
66.6915 189.00
66.7566 213.00
66.8218 229.00
66.887 229.00
66.9522 213.00
67.0174 219.00
67.0826 228.00
67.1478 225.00
67.213 219.00
67.2782 235.00
67.3434 228.00
67.4086 241.00
67.4738 222.00
67.539 198.00
67.6042 243.00
67.6694 206.00
67.7346 264.00
67.7998 225.00
67.865 198.00
67.9302 210.00
67.9954 200.00
68.0606 207.00
68.1258 205.00
68.191 217.00
68.2562 200.00
68.3214 204.00
68.3866 225.00
68.4518 223.00
68.517 211.00
68.5822 256.00
68.6474 246.00
68.7126 221.00
68.7778 207.00
68.843 200.00
68.9082 219.00
68.9734 210.00
69.0386 218.00
69.1038 214.00
69.169 207.00
69.2342 207.00
69.2994 228.00
69.3646 194.00
69.4298 216.00
69.495 211.00
69.5602 195.00
69.6254 187.00
69.6906 193.00
69.7558 195.00
69.821 199.00
69.8862 216.00
69.9514 225.00
70.0166 203.00
70.0818 201.00
70.147 230.00
70.2122 208.00
70.2774 194.00
70.3426 189.00
70.4078 230.00
70.473 228.00
70.5382 207.00
70.6034 228.00
70.6686 211.00
70.7338 202.00
70.799 200.00
70.8642 184.00
70.9294 219.00
70.9946 186.00
71.0598 218.00
71.125 244.00
71.1902 225.00
71.2554 230.00
71.3205 220.00
71.3858 232.00
71.451 203.00
71.5162 230.00
71.5813 205.00
71.6465 204.00
71.7117 207.00
71.7769 204.00
71.8421 224.00
71.9073 203.00
71.9725 226.00
72.0377 221.00
72.1029 197.00
72.1681 210.00
72.2333 183.00
72.2985 184.00
72.3637 176.00
72.4289 185.00
72.4941 210.00
72.5593 230.00
72.6245 247.00
72.6897 207.00
72.7549 224.00
72.8201 219.00
72.8853 200.00
72.9505 215.00
73.0157 195.00
73.0809 194.00
73.1461 233.00
73.2113 231.00
73.2765 175.00
73.3417 239.00
73.4069 238.00
73.4721 221.00
73.5373 225.00
73.6025 226.00
73.6677 218.00
73.7329 248.00
73.7981 186.00
73.8633 228.00
73.9285 220.00
73.9937 257.00
74.0589 211.00
74.1241 181.00
74.1893 226.00
74.2545 214.00
74.3197 194.00
74.3849 244.00
74.4501 226.00
74.5153 234.00
74.5805 217.00
74.6457 218.00
74.7109 216.00
74.7761 270.00
74.8413 192.00
74.9065 215.00
74.9717 230.00
75.0369 226.00
75.1021 206.00
75.1673 223.00
75.2325 207.00
75.2977 220.00
75.3629 223.00
75.4281 212.00
75.4933 220.00
75.5585 229.00
75.6237 260.00
75.6889 238.00
75.7541 227.00
75.8193 226.00
75.8845 208.00
75.9497 240.00
76.0149 194.00
76.0801 218.00
76.1452 246.00
76.2104 236.00
76.2756 223.00
76.3409 213.00
76.406 223.00
76.4712 214.00
76.5364 270.00
76.6016 213.00
76.6668 199.00
76.732 228.00
76.7972 210.00
76.8624 232.00
76.9276 209.00
76.9928 199.00
77.058 232.00
77.1232 238.00
77.1884 204.00
77.2536 211.00
77.3188 283.00
77.384 227.00
77.4492 242.00
77.5144 221.00
77.5796 239.00
77.6448 232.00
77.71 210.00
77.7752 263.00
77.8404 201.00
77.9056 220.00
77.9708 231.00
78.036 243.00
78.1012 211.00
78.1664 230.00
78.2316 260.00
78.2968 224.00
78.362 244.00
78.4272 223.00
78.4924 215.00
78.5576 239.00
78.6228 262.00
78.688 250.00
78.7532 241.00
78.8184 261.00
78.8836 202.00
78.9488 245.00
79.014 249.00
79.0792 259.00
79.1444 277.00
79.2096 216.00
79.2748 214.00
79.34 290.00
79.4052 256.00
79.4704 289.00
79.5356 256.00
79.6008 237.00
79.666 245.00
79.7312 235.00
79.7964 219.00
79.8616 234.00
79.9268 246.00
79.992 265.00
80.0572 239.00
80.1224 247.00
80.1876 215.00
80.2528 228.00
80.318 225.00
80.3832 233.00
80.4484 236.00
80.5136 231.00
80.5788 262.00
80.644 245.00
80.7092 234.00
80.7744 217.00
80.8396 250.00
80.9048 216.00
80.9699 268.00
81.0351 272.00
81.1003 261.00
81.1655 225.00
81.2307 271.00
81.2959 243.00
81.3611 237.00
81.4263 229.00
81.4915 239.00
81.5567 218.00
81.6219 210.00
81.6871 251.00
81.7523 256.00
81.8175 244.00
81.8827 231.00
81.9479 243.00
82.0131 276.00
82.0783 232.00
82.1435 248.00
82.2087 287.00
82.2739 263.00
82.3391 239.00
82.4043 237.00
82.4695 258.00
82.5347 270.00
82.5999 234.00
82.6651 241.00
82.7303 256.00
82.7955 277.00
82.8607 281.00
82.9259 245.00
82.9911 265.00
83.0563 264.00
83.1215 249.00
83.1867 247.00
83.2519 261.00
83.3171 295.00
83.3823 249.00
83.4475 241.00
83.5127 264.00
83.5779 227.00
83.6431 240.00
83.7083 221.00
83.7735 222.00
83.8387 277.00
83.9039 247.00
83.9691 244.00
84.0343 281.00
84.0995 275.00
84.1647 269.00
84.2299 224.00
84.2951 256.00
84.3603 246.00
84.4255 239.00
84.4907 231.00
84.5559 235.00
84.6211 216.00
84.6863 216.00
84.7515 237.00
84.8167 260.00
84.8819 238.00
84.9471 260.00
85.0123 259.00
85.0775 228.00
85.1427 226.00
85.2079 240.00
85.2731 231.00
85.3383 239.00
85.4035 220.00
85.4687 268.00
85.5339 265.00
85.5991 276.00
85.6643 258.00
85.7295 241.00
85.7946 244.00
85.8598 233.00
85.925 243.00
85.9903 234.00
86.0554 223.00
86.1206 221.00
86.1858 228.00
86.251 213.00
86.3162 238.00
86.3814 221.00
86.4466 223.00
86.5118 206.00
86.577 236.00
86.6422 228.00
86.7074 230.00
86.7726 249.00
86.8378 248.00
86.903 249.00
86.9682 237.00
87.0334 238.00
87.0986 270.00
87.1638 237.00
87.229 237.00
87.2942 227.00
87.3594 219.00
87.4246 263.00
87.4898 224.00
87.555 218.00
87.6202 217.00
87.6854 248.00
87.7506 222.00
87.8158 223.00
87.881 250.00
87.9462 211.00
88.0114 246.00
88.0766 227.00
88.1418 275.00
88.207 242.00
88.2722 262.00
88.3374 204.00
88.4026 269.00
88.4678 210.00
88.533 256.00
88.5982 262.00
88.6634 246.00
88.7286 245.00
88.7938 233.00
88.859 222.00
88.9242 216.00
88.9894 202.00
89.0546 229.00
89.1198 220.00
89.185 250.00
89.2502 230.00
89.3154 207.00
89.3806 256.00
89.4458 219.00
89.511 229.00
89.5762 240.00
89.6414 229.00
89.7066 224.00
89.7718 213.00
89.837 239.00
89.9022 225.00
89.9674 220.00
90.0326 200.00
90.0978 199.00
90.163 193.00
90.2282 195.00
90.2934 240.00
90.3586 242.00
90.4238 237.00
90.489 235.00
90.5542 214.00
90.6193 212.00
90.6845 208.00
90.7497 249.00
90.8149 234.00
90.8801 222.00
90.9453 179.00
91.0105 169.00
91.0757 233.00
91.1409 229.00
91.2061 223.00
91.2713 214.00
91.3365 228.00
91.4017 225.00
91.4669 245.00
91.5321 217.00
91.5973 202.00
91.6625 216.00
91.7277 198.00
91.7929 211.00
91.8581 210.00
91.9233 216.00
91.9885 215.00
92.0537 230.00
92.1189 233.00
92.1841 247.00
92.2493 227.00
92.3145 216.00
92.3797 187.00
92.4449 213.00
92.5101 228.00
92.5753 220.00
92.6405 214.00
92.7057 246.00
92.7709 214.00
92.8361 208.00
92.9013 233.00
92.9665 195.00
93.0317 223.00
93.0969 217.00
93.1621 195.00
93.2273 203.00
93.2925 223.00
93.3577 196.00
93.4229 224.00
93.4881 236.00
93.5533 207.00
93.6185 210.00
93.6837 205.00
93.7489 194.00
93.8141 230.00
93.8793 209.00
93.9445 212.00
94.0097 207.00
94.0749 197.00
94.1401 204.00
94.2053 203.00
94.2705 242.00
94.3357 202.00
94.4009 230.00
94.4661 222.00
94.5313 188.00
94.5965 200.00
94.6617 232.00
94.7269 168.00
94.7921 181.00
94.8573 207.00
94.9225 207.00
94.9877 205.00
95.0529 184.00
95.1181 224.00
95.1833 226.00
95.2485 181.00
95.3137 210.00
95.3789 219.00
95.444 194.00
95.5092 214.00
95.5744 186.00
95.6396 201.00
95.7048 221.00
95.77 211.00
95.8352 207.00
95.9004 196.00
95.9656 211.00
96.0308 213.00
96.096 234.00
96.1612 225.00
96.2264 212.00
96.2916 232.00
96.3568 202.00
96.422 207.00
96.4872 204.00
96.5524 229.00
96.6176 201.00
96.6828 194.00
96.748 171.00
96.8132 219.00
96.8784 204.00
96.9436 189.00
97.0088 209.00
97.074 246.00
97.1392 213.00
97.2044 209.00
97.2696 202.00
97.3348 228.00
97.4 208.00
97.4652 191.00
97.5304 202.00
97.5956 206.00
97.6608 187.00
97.726 196.00
97.7912 195.00
97.8564 191.00
97.9216 193.00
97.9868 169.00
98.052 181.00
98.1172 219.00
98.1824 218.00
98.2476 191.00
98.3128 160.00
98.378 190.00
98.4432 198.00
98.5084 199.00
98.5736 203.00
98.6388 210.00
98.704 216.00
98.7692 211.00
98.8344 197.00
98.8996 209.00
98.9648 188.00
99.03 179.00
99.0952 205.00
99.1604 201.00
99.2256 186.00
99.2908 186.00
99.356 218.00
99.4212 174.00
99.4864 222.00
99.5516 192.00
99.6168 167.00
99.682 181.00
99.7472 192.00
99.8124 180.00
99.8776 182.00
99.9428 208.00
100.008 194.00
100.073 192.00
100.095 182.00