File: data/xrd_creation/results/NSC_174.xy
9.903433 2638.00
9.968632 2484.00
10.0338 2439.00
10.099 2466.00
10.1642 2458.00
10.2294 2401.00
10.2946 2408.00
10.3598 2423.00
10.425 2322.00
10.4902 2410.00
10.5554 2300.00
10.6206 2341.00
10.6858 2310.00
10.751 2234.00
10.8162 2213.00
10.8814 2368.00
10.9466 2156.00
11.0118 2304.00
11.077 2217.00
11.1422 2161.00
11.2074 2164.00
11.2726 2134.00
11.3378 2121.00
11.403 2112.00
11.4682 2011.00
11.5334 2097.00
11.5986 2055.00
11.6638 2071.00
11.729 2023.00
11.7942 2009.00
11.8594 1921.00
11.9246 2012.00
11.9898 1926.00
12.055 1945.00
12.1202 2000.00
12.1854 1923.00
12.2506 1935.00
12.3158 1862.00
12.381 1898.00
12.4462 1865.00
12.5114 1813.00
12.5766 1839.00
12.6418 1774.00
12.707 1759.00
12.7722 1750.00
12.8374 1809.00
12.9026 1709.00
12.9678 1831.00
13.033 1658.00
13.0982 1729.00
13.1634 1690.00
13.2286 1752.00
13.2938 1758.00
13.359 1726.00
13.4242 1707.00
13.4894 1683.00
13.5546 1637.00
13.6198 1613.00
13.685 1635.00
13.7502 1615.00
13.8154 1650.00
13.8805 1668.00
13.9457 1626.00
14.0109 1548.00
14.0761 1501.00
14.1413 1579.00
14.2065 1608.00
14.2717 1611.00
14.3369 1607.00
14.4021 1612.00
14.4673 1556.00
14.5325 1637.00
14.5977 1601.00
14.6629 1659.00
14.7281 1807.00
14.7933 1758.00
14.8585 1941.00
14.9237 2224.00
14.9889 2630.00
15.0541 3385.00
15.1193 4239.00
15.1845 4127.00
15.2497 2484.00
15.3149 1708.00
15.3801 1521.00
15.4453 1506.00
15.5105 1517.00
15.5757 1489.00
15.6409 1472.00
15.7061 1481.00
15.7713 1526.00
15.8365 1468.00
15.9017 1412.00
15.9669 1431.00
16.0321 1439.00
16.0973 1445.00
16.1625 1453.00
16.2277 1419.00
16.2929 1477.00
16.3581 1444.00
16.4233 1411.00
16.4885 1405.00
16.5537 1350.00
16.6189 1364.00
16.6841 1425.00
16.7493 1462.00
16.8145 1386.00
16.8797 1408.00
16.9449 1399.00
17.0101 1373.00
17.0753 1379.00
17.1405 1381.00
17.2057 1381.00
17.2709 1416.00
17.3361 1335.00
17.4013 1345.00
17.4665 1374.00
17.5317 1341.00
17.5969 1309.00
17.6621 1293.00
17.7273 1314.00
17.7925 1350.00
17.8577 1231.00
17.9229 1194.00
17.9881 1288.00
18.0533 1258.00
18.1185 1233.00
18.1837 1315.00
18.2489 1246.00
18.3141 1243.00
18.3793 1296.00
18.4445 1250.00
18.5097 1318.00
18.5749 1191.00
18.6401 1332.00
18.7052 1278.00
18.7704 1251.00
18.8356 1209.00
18.9008 1181.00
18.966 1219.00
19.0312 1260.00
19.0964 1302.00
19.1616 1193.00
19.2268 1246.00
19.292 1212.00
19.3572 1217.00
19.4224 1212.00
19.4876 1220.00
19.5528 1207.00
19.618 1184.00
19.6832 1219.00
19.7484 1205.00
19.8136 1170.00
19.8788 1150.00
19.944 1159.00
20.0092 1157.00
20.0744 1116.00
20.1396 1159.00
20.2048 1146.00
20.27 1212.00
20.3352 1278.00
20.4004 1334.00
20.4656 1416.00
20.5308 1540.00
20.596 1984.00
20.6612 2594.00
20.7264 3979.00
20.7916 6050.00
20.8568 8502.00
20.922 7209.00
20.9872 3283.00
21.0524 1731.00
21.1176 1422.00
21.1828 1418.00
21.248 1401.00
21.3132 1490.00
21.3784 1715.00
21.4436 2230.00
21.5088 3067.00
21.574 4787.00
21.6392 7287.00
21.7044 9480.00
21.7696 8980.00
21.8348 5010.00
21.9 2285.00
21.9652 1583.00
22.0304 1350.00
22.0956 1247.00
22.1608 1132.00
22.226 1158.00
22.2912 1089.00
22.3564 1082.00
22.4216 1067.00
22.4868 1075.00
22.552 1100.00
22.6172 1099.00
22.6824 1112.00
22.7476 1063.00
22.8128 1050.00
22.878 1066.00
22.9432 1086.00
23.0084 1056.00
23.0736 1072.00
23.1388 1028.00
23.204 1027.00
23.2692 1072.00
23.3344 1074.00
23.3996 1016.00
23.4647 1029.00
23.5299 998.00
23.5951 1009.00
23.6603 1032.00
23.7255 1023.00
23.7907 990.00
23.8559 1054.00
23.9211 974.00
23.9863 966.00
24.0515 936.00
24.1167 1058.00
24.1819 1098.00
24.2471 1156.00
24.3123 1102.00
24.3775 1153.00
24.4427 1219.00
24.5079 1131.00
24.5731 1283.00
24.6383 1465.00
24.7035 1831.00
24.7687 2605.00
24.8339 4372.00
24.8991 7865.00
24.9643 13024.00
25.0295 19115.00
25.0947 17481.00
25.1599 8641.00
25.2251 3218.00
25.2903 1799.00
25.3555 1480.00
25.4207 1249.00
25.4859 1126.00
25.5511 1029.00
25.6163 1003.00
25.6815 1043.00
25.7467 1013.00
25.8119 982.00
25.8771 1040.00
25.9423 1023.00
26.0075 1064.00
26.0727 1238.00
26.1379 1506.00
26.2031 2027.00
26.2683 2765.00
26.3335 2921.00
26.3987 2605.00
26.4639 1716.00
26.5291 1247.00
26.5943 999.00
26.6595 967.00
26.7247 942.00
26.7899 884.00
26.8551 910.00
26.9203 899.00
26.9855 912.00
27.0507 867.00
27.1159 888.00
27.1811 876.00
27.2463 845.00
27.3115 856.00
27.3767 881.00
27.4419 744.00
27.5071 874.00
27.5723 833.00
27.6375 794.00
27.7027 850.00
27.7679 814.00
27.8331 819.00
27.8983 814.00
27.9635 820.00
28.0287 860.00
28.0939 790.00
28.1591 806.00
28.2243 813.00
28.2894 817.00
28.3546 818.00
28.4198 807.00
28.485 769.00
28.5502 796.00
28.6154 813.00
28.6806 809.00
28.7458 812.00
28.811 785.00
28.8762 791.00
28.9414 822.00
29.0066 789.00
29.0718 801.00
29.137 797.00
29.2022 774.00
29.2674 786.00
29.3326 773.00
29.3978 829.00
29.463 829.00
29.5282 826.00
29.5934 849.00
29.6586 887.00
29.7238 904.00
29.789 1071.00
29.8542 1356.00
29.9194 1905.00
29.9846 3348.00
30.0498 5564.00
30.115 7724.00
30.1802 6645.00
30.2454 3542.00
30.3106 1656.00
30.3758 1111.00
30.441 1049.00
30.5062 864.00
30.5714 844.00
30.6366 777.00
30.7018 782.00
30.767 770.00
30.8322 788.00
30.8974 736.00
30.9626 732.00
31.0278 782.00
31.093 725.00
31.1582 791.00
31.2234 687.00
31.2886 699.00
31.3538 669.00
31.419 687.00
31.4842 711.00
31.5494 679.00
31.6146 747.00
31.6798 710.00
31.745 745.00
31.8102 682.00
31.8754 655.00
31.9406 699.00
32.0058 766.00
32.071 722.00
32.1362 784.00
32.2014 795.00
32.2666 737.00
32.3318 705.00
32.397 763.00
32.4622 817.00
32.5274 811.00
32.5926 849.00
32.6578 892.00
32.723 908.00
32.7882 971.00
32.8534 1141.00
32.9186 1599.00
32.9838 2974.00
33.0489 5869.00
33.1141 10411.00
33.1793 12820.00
33.2445 9293.00
33.3097 4948.00
33.3749 3077.00
33.4401 3206.00
33.5053 3537.00
33.5705 2747.00
33.6357 1802.00
33.7009 1124.00
33.7661 902.00
33.8313 824.00
33.8965 777.00
33.9617 757.00
34.0269 756.00
34.0921 795.00
34.1573 785.00
34.2225 824.00
34.2877 950.00
34.3529 897.00
34.4181 782.00
34.4833 744.00
34.5485 695.00
34.6137 671.00
34.6789 683.00
34.7441 692.00
34.8093 667.00
34.8745 645.00
34.9397 661.00
35.0049 581.00
35.0701 678.00
35.1353 655.00
35.2005 622.00
35.2657 626.00
35.3309 616.00
35.3961 683.00
35.4613 671.00
35.5265 724.00
35.5917 770.00
35.6569 858.00
35.7221 904.00
35.7873 792.00
35.8525 801.00
35.9177 646.00
35.9829 671.00
36.0481 652.00
36.1133 653.00
36.1785 687.00
36.2437 757.00
36.3089 773.00
36.3741 725.00
36.4393 734.00
36.5045 605.00
36.5697 646.00
36.6349 640.00
36.7001 608.00
36.7653 636.00
36.8305 643.00
36.8957 634.00
36.9609 641.00
37.0261 707.00
37.0913 779.00
37.1565 955.00
37.2217 1270.00
37.2869 1399.00
37.3521 1295.00
37.4173 1079.00
37.4825 1137.00
37.5477 1267.00
37.6129 1809.00
37.6781 2686.00
37.7433 3463.00
37.8085 3592.00
37.8736 2844.00
37.9388 1949.00
38.004 1143.00
38.0692 860.00
38.1344 781.00
38.1996 762.00
38.2648 778.00
38.33 833.00
38.3952 1016.00
38.4604 1015.00
38.5256 863.00
38.5908 744.00
38.656 672.00
38.7212 610.00
38.7864 573.00
38.8516 620.00
38.9168 559.00
38.982 535.00
39.0472 561.00
39.1124 594.00
39.1776 622.00
39.2428 576.00
39.308 564.00
39.3732 552.00
39.4384 597.00
39.5036 573.00
39.5688 595.00
39.634 607.00
39.6992 697.00
39.7644 805.00
39.8296 878.00
39.8948 886.00
39.96 858.00
40.0252 670.00
40.0904 670.00
40.1556 564.00
40.2208 570.00
40.286 548.00
40.3512 553.00
40.4164 478.00
40.4816 546.00
40.5468 558.00
40.612 523.00
40.6772 525.00
40.7424 547.00
40.8076 520.00
40.8728 539.00
40.938 548.00
41.0032 528.00
41.0684 543.00
41.1336 518.00
41.1988 495.00
41.264 522.00
41.3292 511.00
41.3944 459.00
41.4596 536.00
41.5248 565.00
41.59 534.00
41.6552 508.00
41.7204 540.00
41.7856 573.00
41.8508 682.00
41.916 890.00
41.9812 1170.00
42.0464 1221.00
42.1116 1086.00
42.1768 885.00
42.242 741.00
42.3072 595.00
42.3724 596.00
42.4376 523.00
42.5028 525.00
42.568 563.00
42.6332 528.00
42.6983 526.00
42.7635 524.00
42.8287 515.00
42.8939 505.00
42.9591 480.00
43.0243 525.00
43.0895 505.00
43.1547 551.00
43.2199 517.00
43.2851 549.00
43.3503 558.00
43.4155 615.00
43.4807 572.00
43.5459 761.00
43.6111 1164.00
43.6763 1555.00
43.7415 1611.00
43.8067 1385.00
43.8719 995.00
43.9371 719.00
44.0023 655.00
44.0675 544.00
44.1327 523.00
44.1979 535.00
44.2631 529.00
44.3283 538.00
44.3935 580.00
44.4587 624.00
44.5239 759.00
44.5891 886.00
44.6543 834.00
44.7195 737.00
44.7847 594.00
44.8499 550.00
44.9151 511.00
44.9803 493.00
45.0455 505.00
45.1107 527.00
45.1759 518.00
45.2411 591.00
45.3063 593.00
45.3715 662.00
45.4367 767.00
45.5019 952.00
45.5671 1292.00
45.6323 1646.00
45.6975 1636.00
45.7627 1434.00
45.8279 1022.00
45.8931 844.00
45.9583 657.00
46.0235 590.00
46.0887 553.00
46.1539 533.00
46.2191 556.00
46.2843 555.00
46.3495 563.00
46.4147 576.00
46.4799 599.00
46.5451 639.00
46.6103 583.00
46.6755 560.00
46.7407 489.00
46.8059 489.00
46.8711 527.00
46.9363 510.00
47.0015 497.00
47.0667 539.00
47.1319 518.00
47.1971 560.00
47.2623 599.00
47.3275 690.00
47.3927 876.00
47.4579 1284.00
47.523 2056.00
47.5882 2859.00
47.6534 2882.00
47.7186 2234.00
47.7838 1497.00
47.849 910.00
47.9142 665.00
47.9794 594.00
48.0446 573.00
48.1098 522.00
48.175 499.00
48.2402 529.00
48.3054 514.00
48.3706 486.00
48.4358 534.00
48.501 561.00
48.5662 593.00
48.6314 705.00
48.6966 825.00
48.7618 1072.00
48.827 1243.00
48.8922 1375.00
48.9574 1310.00
49.0226 1079.00
49.0878 948.00
49.153 876.00
49.2182 916.00
49.2834 1078.00
49.3486 1081.00
49.4138 916.00
49.479 766.00
49.5442 613.00
49.6094 503.00
49.6746 526.00
49.7398 486.00
49.805 506.00
49.8702 466.00
49.9354 465.00
50.0006 481.00
50.0658 476.00
50.131 469.00
50.1962 498.00
50.2614 508.00
50.3266 576.00
50.3918 609.00
50.457 693.00
50.5222 809.00
50.5874 990.00
50.6526 1192.00
50.7178 1716.00
50.783 2350.00
50.8482 3098.00
50.9134 3708.00
50.9786 3592.00
51.0438 2790.00
51.109 1972.00
51.1742 1291.00
51.2394 822.00
51.3046 684.00
51.3698 635.00
51.435 605.00
51.5002 713.00
51.5654 712.00
51.6306 767.00
51.6958 891.00
51.761 944.00
51.8262 883.00
51.8914 754.00
51.9566 624.00
52.0218 489.00
52.087 496.00
52.1522 468.00
52.2174 447.00
52.2826 462.00
52.3477 427.00
52.4129 454.00
52.4781 475.00
52.5433 483.00
52.6085 419.00
52.6737 467.00
52.7389 416.00
52.8041 485.00
52.8693 460.00
52.9345 459.00
52.9997 477.00
53.0649 418.00
53.1301 460.00
53.1953 445.00
53.2605 460.00
53.3257 425.00
53.3909 496.00
53.4561 497.00
53.5213 492.00
53.5865 515.00
53.6517 531.00
53.7169 521.00
53.7821 552.00
53.8473 534.00
53.9125 618.00
53.9777 585.00
54.0429 626.00
54.1081 743.00
54.1733 987.00
54.2385 1593.00
54.3037 2237.00
54.3689 2336.00
54.4341 1957.00
54.4993 1479.00
54.5645 1032.00
54.6297 808.00
54.6949 735.00
54.7601 793.00
54.8253 916.00
54.8905 1164.00
54.9557 1275.00
55.0209 1161.00
55.0861 947.00
55.1513 737.00
55.2165 613.00
55.2817 528.00
55.3469 486.00
55.4121 423.00
55.4773 459.00
55.5425 482.00
55.6077 478.00
55.6729 489.00
55.7381 517.00
55.8033 499.00
55.8685 467.00
55.9337 474.00
55.9989 488.00
56.0641 528.00
56.1293 548.00
56.1945 487.00
56.2597 475.00
56.3249 466.00
56.3901 439.00
56.4553 495.00
56.5205 443.00
56.5857 466.00
56.6509 499.00
56.7161 470.00
56.7813 444.00
56.8465 416.00
56.9117 457.00
56.9769 484.00
57.042 485.00
57.1073 498.00
57.1724 534.00
57.2376 538.00
57.3028 645.00
57.368 809.00
57.4332 1050.00
57.4984 1422.00
57.5636 1482.00
57.6288 1368.00
57.694 1233.00
57.7592 932.00
57.8244 737.00
57.8896 594.00
57.9548 496.00
58.02 520.00
58.0852 470.00
58.1504 565.00
58.2156 548.00
58.2808 580.00
58.346 649.00
58.4112 757.00
58.4764 974.00
58.5416 1220.00
58.6068 1365.00
58.672 1512.00
58.7372 1751.00
58.8024 1877.00
58.8676 2106.00
58.9328 2389.00
58.998 2470.00
59.0632 2452.00
59.1284 2119.00
59.1936 1617.00
59.2588 1304.00
59.324 977.00
59.3892 776.00
59.4544 644.00
59.5196 546.00
59.5848 538.00
59.65 504.00
59.7152 504.00
59.7804 486.00
59.8456 542.00
59.9108 457.00
59.976 543.00
60.0412 648.00
60.1064 743.00
60.1716 767.00
60.2368 772.00
60.302 753.00
60.3672 788.00
60.4324 886.00
60.4976 835.00
60.5628 790.00
60.628 751.00
60.6932 688.00
60.7584 582.00
60.8236 505.00
60.8888 502.00
60.954 460.00
61.0192 457.00
61.0844 444.00
61.1496 481.00
61.2148 481.00
61.28 512.00
61.3452 650.00
61.4104 724.00
61.4756 716.00
61.5408 692.00
61.606 690.00
61.6712 625.00
61.7364 569.00
61.8016 609.00
61.8667 613.00
61.932 732.00
61.9971 829.00
62.0623 1029.00
62.1275 1077.00
62.1927 950.00
62.2579 849.00
62.3231 719.00
62.3883 586.00
62.4535 536.00
62.5187 462.00
62.5839 447.00
62.6491 407.00
62.7143 410.00
62.7795 446.00
62.8447 418.00
62.9099 441.00
62.9751 459.00
63.0403 438.00
63.1055 466.00
63.1707 491.00
63.2359 586.00
63.3011 650.00
63.3663 884.00
63.4315 1218.00
63.4967 1615.00
63.5619 1717.00
63.6271 1537.00
63.6923 1247.00
63.7575 1041.00
63.8227 783.00
63.8879 661.00
63.9531 667.00
64.0183 666.00
64.0835 660.00
64.1487 651.00
64.2139 594.00
64.2791 582.00
64.3443 546.00
64.4095 582.00
64.4747 602.00
64.5399 645.00
64.6051 761.00
64.6703 1004.00
64.7355 1224.00
64.8007 1471.00
64.8659 1715.00
64.9311 1701.00
64.9963 1522.00
65.0615 1360.00
65.1267 1051.00
65.1919 873.00
65.2571 710.00
65.3223 583.00
65.3875 528.00
65.4527 542.00
65.5179 530.00
65.5831 596.00
65.6483 704.00
65.7135 902.00
65.7787 1158.00
65.8439 1398.00
65.9091 1352.00
65.9743 1173.00
66.0395 1090.00
66.1047 953.00
66.1699 763.00
66.2351 768.00
66.3003 704.00
66.3655 667.00
66.4307 662.00
66.4959 629.00
66.561 635.00
66.6263 608.00
66.6915 567.00
66.7566 594.00
66.8218 612.00
66.887 657.00
66.9522 644.00
67.0174 612.00
67.0826 582.00
67.1478 594.00
67.213 669.00
67.2782 683.00
67.3434 777.00
67.4086 780.00
67.4738 860.00
67.539 938.00
67.6042 951.00
67.6694 1123.00
67.7346 1173.00
67.7998 1283.00
67.865 1346.00
67.9302 1195.00
67.9954 1064.00
68.0606 961.00
68.1258 739.00
68.191 612.00
68.2562 562.00
68.3214 538.00
68.3866 485.00
68.4518 479.00
68.517 471.00
68.5822 475.00
68.6474 475.00
68.7126 578.00
68.7778 601.00
68.843 702.00
68.9082 810.00
68.9734 874.00
69.0386 978.00
69.1038 846.00
69.169 796.00
69.2342 684.00
69.2994 612.00
69.3646 545.00
69.4298 449.00
69.495 489.00
69.5602 409.00
69.6254 432.00
69.6906 456.00
69.7558 502.00
69.821 559.00
69.8862 628.00
69.9514 783.00
70.0166 961.00
70.0818 1128.00
70.147 1146.00
70.2122 892.00
70.2774 906.00
70.3426 794.00
70.4078 658.00
70.473 573.00
70.5382 494.00
70.6034 466.00
70.6686 443.00
70.7338 463.00
70.799 414.00
70.8642 416.00
70.9294 420.00
70.9946 428.00
71.0598 467.00
71.125 417.00
71.1902 450.00
71.2554 423.00
71.3205 464.00
71.3858 490.00
71.451 512.00
71.5162 518.00
71.5813 557.00
71.6465 607.00
71.7117 648.00
71.7769 712.00
71.8421 727.00
71.9073 716.00
71.9725 666.00
72.0377 680.00
72.1029 656.00
72.1681 554.00
72.2333 519.00
72.2985 474.00
72.3637 485.00
72.4289 420.00
72.4941 410.00
72.5593 428.00
72.6245 403.00
72.6897 434.00
72.7549 449.00
72.8201 459.00
72.8853 457.00
72.9505 464.00
73.0157 535.00
73.0809 528.00
73.1461 562.00
73.2113 598.00
73.2765 627.00
73.3417 650.00
73.4069 725.00
73.4721 693.00
73.5373 650.00
73.6025 664.00
73.6677 621.00
73.7329 554.00
73.7981 528.00
73.8633 528.00
73.9285 495.00
73.9937 464.00
74.0589 495.00
74.1241 440.00
74.1893 458.00
74.2545 494.00
74.3197 463.00
74.3849 415.00
74.4501 408.00
74.5153 431.00
74.5805 406.00
74.6457 413.00
74.7109 404.00
74.7761 443.00
74.8413 403.00
74.9065 398.00
74.9717 445.00
75.0369 495.00
75.1021 558.00
75.1673 520.00
75.2325 500.00
75.2977 510.00
75.3629 548.00
75.4281 595.00
75.4933 614.00
75.5585 666.00
75.6237 757.00
75.6889 813.00
75.7541 901.00
75.8193 910.00
75.8845 904.00
75.9497 853.00
76.0149 732.00
76.0801 636.00
76.1452 540.00
76.2104 494.00
76.2756 445.00
76.3409 464.00
76.406 424.00
76.4712 442.00
76.5364 460.00
76.6016 483.00
76.6668 434.00
76.732 446.00
76.7972 482.00
76.8624 418.00
76.9276 478.00
76.9928 493.00
77.058 482.00
77.1232 500.00
77.1884 479.00
77.2536 477.00
77.3188 444.00
77.384 494.00
77.4492 432.00
77.5144 415.00
77.5796 431.00
77.6448 381.00
77.71 443.00
77.7752 475.00
77.8404 428.00
77.9056 469.00
77.9708 491.00
78.036 545.00
78.1012 635.00
78.1664 766.00
78.2316 826.00
78.2968 838.00
78.362 742.00
78.4272 693.00
78.4924 655.00
78.5576 596.00
78.6228 504.00
78.688 522.00
78.7532 467.00
78.8184 482.00
78.8836 503.00
78.9488 504.00
79.014 517.00
79.0792 516.00
79.1444 512.00
79.2096 460.00
79.2748 449.00
79.34 468.00
79.4052 431.00
79.4704 484.00
79.5356 549.00
79.6008 594.00
79.666 686.00
79.7312 777.00
79.7964 820.00
79.8616 781.00
79.9268 832.00
79.992 858.00
80.0572 879.00
80.1224 905.00
80.1876 899.00
80.2528 861.00
80.318 726.00
80.3832 760.00
80.4484 675.00
80.5136 742.00
80.5788 656.00
80.644 713.00
80.7092 645.00
80.7744 618.00
80.8396 593.00
80.9048 542.00
80.9699 507.00
81.0351 469.00
81.1003 453.00
81.1655 395.00
81.2307 430.00
81.2959 411.00
81.3611 438.00
81.4263 407.00
81.4915 396.00
81.5567 405.00
81.6219 423.00
81.6871 419.00
81.7523 432.00
81.8175 425.00
81.8827 464.00
81.9479 522.00
82.0131 498.00
82.0783 493.00
82.1435 528.00
82.2087 586.00
82.2739 526.00
82.3391 533.00
82.4043 504.00
82.4695 473.00
82.5347 477.00
82.5999 396.00
82.6651 411.00
82.7303 378.00
82.7955 378.00
82.8607 393.00
82.9259 362.00
82.9911 363.00
83.0563 423.00
83.1215 401.00
83.1867 375.00
83.2519 369.00
83.3171 434.00
83.3823 363.00
83.4475 413.00
83.5127 383.00
83.5779 449.00
83.6431 477.00
83.7083 527.00
83.7735 528.00
83.8387 640.00
83.9039 638.00
83.9691 639.00
84.0343 682.00
84.0995 661.00
84.1647 641.00
84.2299 628.00
84.2951 551.00
84.3603 522.00
84.4255 479.00
84.4907 491.00
84.5559 400.00
84.6211 432.00
84.6863 451.00
84.7515 390.00
84.8167 408.00
84.8819 383.00
84.9471 399.00
85.0123 405.00
85.0775 404.00
85.1427 413.00
85.2079 412.00
85.2731 451.00
85.3383 456.00
85.4035 448.00
85.4687 421.00
85.5339 422.00
85.5991 460.00
85.6643 434.00
85.7295 438.00
85.7946 415.00
85.8598 433.00
85.925 494.00
85.9903 501.00
86.0554 639.00
86.1206 721.00
86.1858 748.00
86.251 738.00
86.3162 685.00
86.3814 642.00
86.4466 667.00
86.5118 548.00
86.577 491.00
86.6422 481.00
86.7074 394.00
86.7726 397.00
86.8378 396.00
86.903 354.00
86.9682 374.00
87.0334 401.00
87.0986 370.00
87.1638 333.00
87.229 386.00
87.2942 317.00
87.3594 351.00
87.4246 379.00
87.4898 307.00
87.555 338.00
87.6202 353.00
87.6854 366.00
87.7506 374.00
87.8158 361.00
87.881 384.00
87.9462 362.00
88.0114 394.00
88.0766 362.00
88.1418 358.00
88.207 388.00
88.2722 409.00
88.3374 421.00
88.4026 418.00
88.4678 422.00
88.533 428.00
88.5982 473.00
88.6634 420.00
88.7286 460.00
88.7938 442.00
88.859 461.00
88.9242 511.00
88.9894 536.00
89.0546 570.00
89.1198 604.00
89.185 636.00
89.2502 659.00
89.3154 596.00
89.3806 617.00
89.4458 610.00
89.511 569.00
89.5762 581.00
89.6414 484.00
89.7066 496.00
89.7718 488.00
89.837 455.00
89.9022 469.00
89.9674 455.00
90.0326 402.00
90.0978 439.00
90.163 456.00
90.2282 467.00
90.2934 434.00
90.3586 540.00
90.4238 501.00
90.489 565.00
90.5542 567.00
90.6193 670.00
90.6845 658.00
90.7497 646.00
90.8149 665.00
90.8801 669.00
90.9453 694.00
91.0105 690.00
91.0757 698.00
91.1409 601.00
91.2061 607.00
91.2713 571.00
91.3365 547.00
91.4017 545.00
91.4669 593.00
91.5321 601.00
91.5973 627.00
91.6625 610.00
91.7277 576.00
91.7929 591.00
91.8581 551.00
91.9233 581.00
91.9885 600.00
92.0537 603.00
92.1189 603.00
92.1841 538.00
92.2493 545.00
92.3145 514.00
92.3797 480.00
92.4449 459.00
92.5101 414.00
92.5753 470.00
92.6405 464.00
92.7057 419.00
92.7709 394.00
92.8361 452.00
92.9013 402.00
92.9665 426.00
93.0317 431.00
93.0969 461.00
93.1621 402.00
93.2273 422.00
93.2925 451.00
93.3577 381.00
93.4229 386.00
93.4881 359.00
93.5533 380.00
93.6185 415.00
93.6837 375.00
93.7489 404.00
93.8141 442.00
93.8793 468.00
93.9445 500.00
94.0097 543.00
94.0749 508.00
94.1401 516.00
94.2053 509.00
94.2705 467.00
94.3357 494.00
94.4009 446.00
94.4661 444.00
94.5313 411.00
94.5965 410.00
94.6617 396.00
94.7269 424.00
94.7921 462.00
94.8573 432.00
94.9225 406.00
94.9877 433.00
95.0529 440.00
95.1181 444.00
95.1833 410.00
95.2485 433.00
95.3137 436.00
95.3789 406.00
95.444 479.00
95.5092 472.00
95.5744 561.00
95.6396 613.00
95.7048 650.00
95.77 694.00
95.8352 814.00
95.9004 784.00
95.9656 784.00
96.0308 767.00
96.096 699.00
96.1612 670.00
96.2264 628.00
96.2916 551.00
96.3568 501.00
96.422 467.00
96.4872 453.00
96.5524 407.00
96.6176 409.00
96.6828 388.00
96.748 383.00
96.8132 383.00
96.8784 409.00
96.9436 376.00
97.0088 383.00
97.074 416.00
97.1392 395.00
97.2044 430.00
97.2696 456.00
97.3348 433.00
97.4 436.00
97.4652 402.00
97.5304 491.00
97.5956 428.00
97.6608 467.00
97.726 497.00
97.7912 552.00
97.8564 544.00
97.9216 594.00
97.9868 654.00
98.052 588.00
98.1172 558.00
98.1824 545.00
98.2476 534.00
98.3128 500.00
98.378 562.00
98.4432 504.00
98.5084 470.00
98.5736 521.00
98.6388 471.00
98.704 424.00
98.7692 434.00
98.8344 423.00
98.8996 471.00
98.9648 433.00
99.03 389.00
99.0952 393.00
99.1604 371.00
99.2256 452.00
99.2908 416.00
99.356 471.00
99.4212 421.00
99.4864 448.00
99.5516 417.00
99.6168 484.00
99.682 448.00
99.7472 459.00
99.8124 488.00
99.8776 452.00
99.9428 504.00
100.008 478.00
100.073 479.00
100.095 505.00