File: data/xrd_creation/results/NSC_127.xy
9.903433 2984.00
9.968632 3077.00
10.0338 2954.00
10.099 2939.00
10.1642 2987.00
10.2294 2898.00
10.2946 2926.00
10.3598 2976.00
10.425 2876.00
10.4902 2763.00
10.5554 2912.00
10.6206 2843.00
10.6858 2882.00
10.751 2845.00
10.8162 2801.00
10.8814 2925.00
10.9466 2795.00
11.0118 2775.00
11.077 2736.00
11.1422 2857.00
11.2074 2755.00
11.2726 2779.00
11.3378 2631.00
11.403 2819.00
11.4682 2701.00
11.5334 2640.00
11.5986 2591.00
11.6638 2582.00
11.729 2605.00
11.7942 2548.00
11.8594 2611.00
11.9246 2566.00
11.9898 2481.00
12.055 2557.00
12.1202 2467.00
12.1854 2522.00
12.2506 2590.00
12.3158 2539.00
12.381 2541.00
12.4462 2505.00
12.5114 2593.00
12.5766 2559.00
12.6418 2493.00
12.707 2468.00
12.7722 2461.00
12.8374 2566.00
12.9026 2432.00
12.9678 2338.00
13.033 2471.00
13.0982 2453.00
13.1634 2522.00
13.2286 2426.00
13.2938 2492.00
13.359 2423.00
13.4242 2498.00
13.4894 2393.00
13.5546 2325.00
13.6198 2450.00
13.685 2396.00
13.7502 2477.00
13.8154 2487.00
13.8805 2580.00
13.9457 2663.00
14.0109 2821.00
14.0761 3051.00
14.1413 3435.00
14.2065 4304.00
14.2717 5333.00
14.3369 7153.00
14.4021 7723.00
14.4673 4111.00
14.5325 2668.00
14.5977 2628.00
14.6629 2394.00
14.7281 2415.00
14.7933 2337.00
14.8585 2438.00
14.9237 2401.00
14.9889 2252.00
15.0541 2330.00
15.1193 2321.00
15.1845 2310.00
15.2497 2302.00
15.3149 2417.00
15.3801 2325.00
15.4453 2279.00
15.5105 2237.00
15.5757 2292.00
15.6409 2302.00
15.7061 2236.00
15.7713 2185.00
15.8365 2323.00
15.9017 2298.00
15.9669 2294.00
16.0321 2285.00
16.0973 2304.00
16.1625 2162.00
16.2277 2355.00
16.2929 2313.00
16.3581 2321.00
16.4233 2272.00
16.4885 2249.00
16.5537 2251.00
16.6189 2330.00
16.6841 2257.00
16.7493 2192.00
16.8145 2333.00
16.8797 2324.00
16.9449 2229.00
17.0101 2240.00
17.0753 2219.00
17.1405 2342.00
17.2057 2185.00
17.2709 2217.00
17.3361 2277.00
17.4013 2229.00
17.4665 2258.00
17.5317 2295.00
17.5969 2215.00
17.6621 2208.00
17.7273 2204.00
17.7925 2281.00
17.8577 2253.00
17.9229 2252.00
17.9881 2154.00
18.0533 2108.00
18.1185 2189.00
18.1837 2169.00
18.2489 2168.00
18.3141 2106.00
18.3793 2194.00
18.4445 2097.00
18.5097 2198.00
18.5749 2316.00
18.6401 2308.00
18.7052 2399.00
18.7704 2689.00
18.8356 3156.00
18.9008 3790.00
18.966 4247.00
19.0312 3132.00
19.0964 2278.00
19.1616 2261.00
19.2268 2313.00
19.292 2168.00
19.3572 2359.00
19.4224 2390.00
19.4876 2579.00
19.5528 3029.00
19.618 3851.00
19.6832 5709.00
19.7484 8757.00
19.8136 13132.00
19.8788 15163.00
19.944 9933.00
20.0092 4972.00
20.0744 3116.00
20.1396 2808.00
20.2048 2725.00
20.27 2862.00
20.3352 3385.00
20.4004 4535.00
20.4656 6891.00
20.5308 10820.00
20.596 14904.00
20.6612 11447.00
20.7264 5214.00
20.7916 2984.00
20.8568 2522.00
20.922 2380.00
20.9872 2330.00
21.0524 2397.00
21.1176 2230.00
21.1828 2210.00
21.248 2242.00
21.3132 2207.00
21.3784 2302.00
21.4436 2377.00
21.5088 2491.00
21.574 2591.00
21.6392 3149.00
21.7044 4090.00
21.7696 6231.00
21.8348 9137.00
21.9 9083.00
21.9652 4746.00
22.0304 2798.00
22.0956 2643.00
22.1608 2451.00
22.226 2219.00
22.2912 2174.00
22.3564 2140.00
22.4216 2148.00
22.4868 2140.00
22.552 2132.00
22.6172 2140.00
22.6824 2105.00
22.7476 2164.00
22.8128 2051.00
22.878 2027.00
22.9432 2164.00
23.0084 2099.00
23.0736 2111.00
23.1388 2114.00
23.204 2223.00
23.2692 2210.00
23.3344 2345.00
23.3996 2401.00
23.4647 2618.00
23.5299 3085.00
23.5951 4177.00
23.6603 6852.00
23.7255 11909.00
23.7907 16820.00
23.8559 12955.00
23.9211 6313.00
23.9863 3367.00
24.0515 2608.00
24.1167 2280.00
24.1819 2486.00
24.2471 2412.00
24.3123 3026.00
24.3775 4057.00
24.4427 4883.00
24.5079 3905.00
24.5731 2532.00
24.6383 2110.00
24.7035 2126.00
24.7687 2186.00
24.8339 2255.00
24.8991 2099.00
24.9643 1970.00
25.0295 2019.00
25.0947 2120.00
25.1599 2047.00
25.2251 1898.00
25.2903 1907.00
25.3555 1944.00
25.4207 1928.00
25.4859 1972.00
25.5511 1963.00
25.6163 1935.00
25.6815 1976.00
25.7467 2023.00
25.8119 1959.00
25.8771 2044.00
25.9423 1993.00
26.0075 1989.00
26.0727 1996.00
26.1379 1978.00
26.2031 1795.00
26.2683 1956.00
26.3335 1945.00
26.3987 2014.00
26.4639 2007.00
26.5291 2077.00
26.5943 2362.00
26.6595 3192.00
26.7247 4198.00
26.7899 4582.00
26.8551 3440.00
26.9203 2369.00
26.9855 2071.00
27.0507 1999.00
27.1159 1979.00
27.1811 2018.00
27.2463 1954.00
27.3115 1932.00
27.3767 1961.00
27.4419 1817.00
27.5071 1896.00
27.5723 1944.00
27.6375 1840.00
27.7027 1923.00
27.7679 2016.00
27.8331 1941.00
27.8983 2015.00
27.9635 1951.00
28.0287 2029.00
28.0939 1970.00
28.1591 2049.00
28.2243 2087.00
28.2894 2073.00
28.3546 2320.00
28.4198 3062.00
28.485 4804.00
28.5502 8578.00
28.6154 12441.00
28.6806 10656.00
28.7458 6426.00
28.811 3461.00
28.8762 2432.00
28.9414 2174.00
29.0066 1969.00
29.0718 2018.00
29.137 1949.00
29.2022 1931.00
29.2674 1932.00
29.3326 1906.00
29.3978 1918.00
29.463 1875.00
29.5282 1868.00
29.5934 1959.00
29.6586 1866.00
29.7238 1829.00
29.789 1839.00
29.8542 1921.00
29.9194 1880.00
29.9846 1838.00
30.0498 1813.00
30.115 1868.00
30.1802 1863.00
30.2454 1877.00
30.3106 1944.00
30.3758 1788.00
30.441 1897.00
30.5062 1892.00
30.5714 1998.00
30.6366 2068.00
30.7018 2102.00
30.767 2206.00
30.8322 2626.00
30.8974 3319.00
30.9626 4111.00
31.0278 3721.00
31.093 2816.00
31.1582 2182.00
31.2234 2133.00
31.2886 2463.00
31.3538 3178.00
31.419 5134.00
31.4842 8382.00
31.5494 11406.00
31.6146 10974.00
31.6798 8075.00
31.745 5998.00
31.8102 4581.00
31.8754 3325.00
31.9406 2522.00
32.0058 2174.00
32.071 1944.00
32.1362 1843.00
32.2014 1856.00
32.2666 1816.00
32.3318 1791.00
32.397 1826.00
32.4622 1866.00
32.5274 1976.00
32.5926 1940.00
32.6578 1849.00
32.723 1858.00
32.7882 1842.00
32.8534 1892.00
32.9186 1842.00
32.9838 1778.00
33.0489 1757.00
33.1141 1750.00
33.1793 1799.00
33.2445 1859.00
33.3097 1964.00
33.3749 1807.00
33.4401 1740.00
33.5053 1757.00
33.5705 1782.00
33.6357 1614.00
33.7009 1787.00
33.7661 1826.00
33.8313 2167.00
33.8965 2354.00
33.9617 2215.00
34.0269 2368.00
34.0921 2276.00
34.1573 2036.00
34.2225 1975.00
34.2877 1819.00
34.3529 1808.00
34.4181 1817.00
34.4833 1714.00
34.5485 1752.00
34.6137 1760.00
34.6789 1717.00
34.7441 1728.00
34.8093 1794.00
34.8745 1797.00
34.9397 1722.00
35.0049 1725.00
35.0701 1775.00
35.1353 1934.00
35.2005 2202.00
35.2657 3303.00
35.3309 4741.00
35.3961 5433.00
35.4613 4949.00
35.5265 3583.00
35.5917 2793.00
35.6569 3094.00
35.7221 4241.00
35.7873 6094.00
35.8525 6400.00
35.9177 5373.00
35.9829 3827.00
36.0481 3287.00
36.1133 2818.00
36.1785 2465.00
36.2437 2442.00
36.3089 2972.00
36.3741 4313.00
36.4393 5103.00
36.5045 4080.00
36.5697 2883.00
36.6349 2017.00
36.7001 1887.00
36.7653 1803.00
36.8305 1748.00
36.8957 1640.00
36.9609 1666.00
37.0261 1676.00
37.0913 1616.00
37.1565 1673.00
37.2217 1636.00
37.2869 1655.00
37.3521 1680.00
37.4173 1720.00
37.4825 1928.00
37.5477 2106.00
37.6129 2296.00
37.6781 2070.00
37.7433 1836.00
37.8085 1720.00
37.8736 1816.00
37.9388 1719.00
38.004 1990.00
38.0692 2119.00
38.1344 2046.00
38.1996 1849.00
38.2648 1686.00
38.33 1584.00
38.3952 1621.00
38.4604 1586.00
38.5256 1629.00
38.5908 1690.00
38.656 1578.00
38.7212 1608.00
38.7864 1635.00
38.8516 1627.00
38.9168 1621.00
38.982 1642.00
39.0472 1628.00
39.1124 1661.00
39.1776 1598.00
39.2428 1663.00
39.308 1614.00
39.3732 1640.00
39.4384 1588.00
39.5036 1616.00
39.5688 1734.00
39.634 1904.00
39.6992 1860.00
39.7644 1841.00
39.8296 1937.00
39.8948 2006.00
39.96 2189.00
40.0252 2251.00
40.0904 2045.00
40.1556 1809.00
40.2208 1739.00
40.286 1706.00
40.3512 1696.00
40.4164 1594.00
40.4816 1621.00
40.5468 1674.00
40.612 1650.00
40.6772 1663.00
40.7424 1604.00
40.8076 1585.00
40.8728 1562.00
40.938 1540.00
41.0032 1558.00
41.0684 1601.00
41.1336 1661.00
41.1988 1654.00
41.264 1641.00
41.3292 1712.00
41.3944 1848.00
41.4596 2172.00
41.5248 2380.00
41.59 2597.00
41.6552 2528.00
41.7204 2550.00
41.7856 2317.00
41.8508 2215.00
41.916 2068.00
41.9812 1959.00
42.0464 1809.00
42.1116 1689.00
42.1768 1733.00
42.242 1744.00
42.3072 1780.00
42.3724 1764.00
42.4376 1856.00
42.5028 1821.00
42.568 1687.00
42.6332 1682.00
42.6983 1633.00
42.7635 1568.00
42.8287 1626.00
42.8939 1656.00
42.9591 1552.00
43.0243 1570.00
43.0895 1660.00
43.1547 1867.00
43.2199 2202.00
43.2851 2728.00
43.3503 2881.00
43.4155 2760.00
43.4807 2439.00
43.5459 2537.00
43.6111 2737.00
43.6763 2500.00
43.7415 2330.00
43.8067 1852.00
43.8719 1748.00
43.9371 1781.00
44.0023 1936.00
44.0675 1959.00
44.1327 2047.00
44.1979 2126.00
44.2631 1900.00
44.3283 1767.00
44.3935 1647.00
44.4587 1618.00
44.5239 1685.00
44.5891 1564.00
44.6543 1550.00
44.7195 1637.00
44.7847 1566.00
44.8499 1630.00
44.9151 1621.00
44.9803 1660.00
45.0455 2010.00
45.1107 2321.00
45.1759 3042.00
45.2411 3701.00
45.3063 3666.00
45.3715 3349.00
45.4367 2724.00
45.5019 2379.00
45.5671 2158.00
45.6323 2056.00
45.6975 1870.00
45.7627 1737.00
45.8279 1725.00
45.8931 1681.00
45.9583 1653.00
46.0235 1739.00
46.0887 1751.00
46.1539 2038.00
46.2191 2666.00
46.2843 3584.00
46.3495 3608.00
46.4147 3415.00
46.4799 2768.00
46.5451 2244.00
46.6103 1965.00
46.6755 1829.00
46.7407 1915.00
46.8059 2115.00
46.8711 2344.00
46.9363 2677.00
47.0015 2615.00
47.0667 2432.00
47.1319 2109.00
47.1971 1907.00
47.2623 1691.00
47.3275 1746.00
47.3927 1595.00
47.4579 1619.00
47.523 1629.00
47.5882 1589.00
47.6534 1605.00
47.7186 1578.00
47.7838 1662.00
47.849 1723.00
47.9142 1726.00
47.9794 1904.00
48.0446 1814.00
48.1098 2132.00
48.175 2859.00
48.2402 4010.00
48.3054 4691.00
48.3706 5037.00
48.4358 4354.00
48.501 3385.00
48.5662 2566.00
48.6314 2108.00
48.6966 1771.00
48.7618 1730.00
48.827 1742.00
48.8922 1980.00
48.9574 2056.00
49.0226 2166.00
49.0878 1960.00
49.153 1892.00
49.2182 1738.00
49.2834 1646.00
49.3486 1643.00
49.4138 1622.00
49.479 1718.00
49.5442 1964.00
49.6094 2415.00
49.6746 2901.00
49.7398 2912.00
49.805 2508.00
49.8702 2252.00
49.9354 1886.00
50.0006 1620.00
50.0658 1588.00
50.131 1502.00
50.1962 1512.00
50.2614 1545.00
50.3266 1556.00
50.3918 1550.00
50.457 1729.00
50.5222 1604.00
50.5874 1633.00
50.6526 1627.00
50.7178 1536.00
50.783 1589.00
50.8482 1581.00
50.9134 1600.00
50.9786 1721.00
51.0438 1866.00
51.109 1784.00
51.1742 1751.00
51.2394 1770.00
51.3046 1764.00
51.3698 1760.00
51.435 2167.00
51.5002 2768.00
51.5654 3339.00
51.6306 3808.00
51.6958 3950.00
51.761 3557.00
51.8262 3031.00
51.8914 2639.00
51.9566 2317.00
52.0218 2315.00
52.087 2274.00
52.1522 2141.00
52.2174 2056.00
52.2826 1984.00
52.3477 1754.00
52.4129 1721.00
52.4781 1633.00
52.5433 1567.00
52.6085 1636.00
52.6737 1628.00
52.7389 1612.00
52.8041 1588.00
52.8693 1581.00
52.9345 1700.00
52.9997 1766.00
53.0649 1759.00
53.1301 1834.00
53.1953 1713.00
53.2605 1640.00
53.3257 1631.00
53.3909 1504.00
53.4561 1593.00
53.5213 1610.00
53.5865 1592.00
53.6517 1521.00
53.7169 1551.00
53.7821 1599.00
53.8473 1523.00
53.9125 1591.00
53.9777 1495.00
54.0429 1646.00
54.1081 1514.00
54.1733 1638.00
54.2385 1675.00
54.3037 1754.00
54.3689 1790.00
54.4341 2015.00
54.4993 2362.00
54.5645 2662.00
54.6297 2743.00
54.6949 3038.00
54.7601 3160.00
54.8253 2909.00
54.8905 2454.00
54.9557 2180.00
55.0209 1933.00
55.0861 1985.00
55.1513 2013.00
55.2165 1995.00
55.2817 1945.00
55.3469 2177.00
55.4121 2845.00
55.4773 3065.00
55.5425 3226.00
55.6077 3565.00
55.6729 3778.00
55.7381 4216.00
55.8033 4257.00
55.8685 4315.00
55.9337 3798.00
55.9989 3339.00
56.0641 2661.00
56.1293 2227.00
56.1945 1941.00
56.2597 1758.00
56.3249 1703.00
56.3901 1527.00
56.4553 1553.00
56.5205 1540.00
56.5857 1554.00
56.6509 1561.00
56.7161 1480.00
56.7813 1563.00
56.8465 1664.00
56.9117 1627.00
56.9769 1587.00
57.042 1713.00
57.1073 1681.00
57.1724 1815.00
57.2376 1770.00
57.3028 1866.00
57.368 1822.00
57.4332 1671.00
57.4984 1571.00
57.5636 1709.00
57.6288 1661.00
57.694 1626.00
57.7592 1721.00
57.8244 1755.00
57.8896 1695.00
57.9548 1686.00
58.02 1682.00
58.0852 1682.00
58.1504 1681.00
58.2156 1992.00
58.2808 2302.00
58.346 2828.00
58.4112 3219.00
58.4764 2786.00
58.5416 2765.00
58.6068 2373.00
58.672 2219.00
58.7372 2270.00
58.8024 2182.00
58.8676 2128.00
58.9328 2102.00
58.998 1959.00
59.0632 1837.00
59.1284 1701.00
59.1936 1632.00
59.2588 1608.00
59.324 1588.00
59.3892 1548.00
59.4544 1528.00
59.5196 1549.00
59.5848 1513.00
59.65 1494.00
59.7152 1502.00
59.7804 1594.00
59.8456 1594.00
59.9108 1550.00
59.976 1610.00
60.0412 1902.00
60.1064 2286.00
60.1716 2666.00
60.2368 2864.00
60.302 2874.00
60.3672 2783.00
60.4324 2497.00
60.4976 2293.00
60.5628 2059.00
60.628 1870.00
60.6932 1909.00
60.7584 1738.00
60.8236 1714.00
60.8888 1625.00
60.954 1672.00
61.0192 1635.00
61.0844 1648.00
61.1496 1636.00
61.2148 1854.00
61.28 2160.00
61.3452 2311.00
61.4104 2535.00
61.4756 2457.00
61.5408 2300.00
61.606 2113.00
61.6712 2059.00
61.7364 1816.00
61.8016 1805.00
61.8667 1758.00
61.932 1650.00
61.9971 1540.00
62.0623 1592.00
62.1275 1585.00
62.1927 1589.00
62.2579 1644.00
62.3231 1696.00
62.3883 1916.00
62.4535 1965.00
62.5187 1996.00
62.5839 2018.00
62.6491 2118.00
62.7143 2169.00
62.7795 2017.00
62.8447 2061.00
62.9099 2014.00
62.9751 1888.00
63.0403 1965.00
63.1055 1930.00
63.1707 2078.00
63.2359 2186.00
63.3011 1947.00
63.3663 2071.00
63.4315 2041.00
63.4967 1904.00
63.5619 1955.00
63.6271 2092.00
63.6923 2252.00
63.7575 2267.00
63.8227 2296.00
63.8879 2442.00
63.9531 2550.00
64.0183 2519.00
64.0835 2753.00
64.1487 2717.00
64.2139 2594.00
64.2791 2552.00
64.3443 2429.00
64.4095 2128.00
64.4747 1839.00
64.5399 1683.00
64.6051 1668.00
64.6703 1592.00
64.7355 1565.00
64.8007 1463.00
64.8659 1546.00
64.9311 1403.00
64.9963 1476.00
65.0615 1507.00
65.1267 1509.00
65.1919 1505.00
65.2571 1789.00
65.3223 1878.00
65.3875 1819.00
65.4527 1871.00
65.5179 1852.00
65.5831 1812.00
65.6483 1758.00
65.7135 1692.00
65.7787 1572.00
65.8439 1573.00
65.9091 1528.00
65.9743 1444.00
66.0395 1595.00
66.1047 1586.00
66.1699 1669.00
66.2351 1704.00
66.3003 1790.00
66.3655 1757.00
66.4307 1964.00
66.4959 2072.00
66.561 2037.00
66.6263 2071.00
66.6915 2018.00
66.7566 1830.00
66.8218 1750.00
66.887 1785.00
66.9522 1566.00
67.0174 1607.00
67.0826 1563.00
67.1478 1572.00
67.213 1682.00
67.2782 1685.00
67.3434 1888.00
67.4086 2036.00
67.4738 1942.00
67.539 2069.00
67.6042 2098.00
67.6694 1963.00
67.7346 1959.00
67.7998 2015.00
67.865 1872.00
67.9302 1847.00
67.9954 1920.00
68.0606 1955.00
68.1258 1937.00
68.191 1855.00
68.2562 1875.00
68.3214 1859.00
68.3866 1794.00
68.4518 2021.00
68.517 2006.00
68.5822 1727.00
68.6474 1686.00
68.7126 1776.00
68.7778 1653.00
68.843 1492.00
68.9082 1572.00
68.9734 1648.00
69.0386 1572.00
69.1038 1661.00
69.169 1668.00
69.2342 1762.00
69.2994 1715.00
69.3646 1815.00
69.4298 1722.00
69.495 1688.00
69.5602 1664.00
69.6254 1588.00
69.6906 1496.00
69.7558 1478.00
69.821 1483.00
69.8862 1394.00
69.9514 1467.00
70.0166 1471.00
70.0818 1525.00
70.147 1406.00
70.2122 1465.00
70.2774 1532.00
70.3426 1459.00
70.4078 1477.00
70.473 1573.00
70.5382 1582.00
70.6034 1623.00
70.6686 1537.00
70.7338 1501.00
70.799 1511.00
70.8642 1507.00
70.9294 1460.00
70.9946 1466.00
71.0598 1481.00
71.125 1587.00
71.1902 1571.00
71.2554 1743.00
71.3205 1959.00
71.3858 2075.00
71.451 2172.00
71.5162 2225.00
71.5813 2152.00
71.6465 2059.00
71.7117 2007.00
71.7769 1808.00
71.8421 1669.00
71.9073 1692.00
71.9725 1502.00
72.0377 1561.00
72.1029 1536.00
72.1681 1495.00
72.2333 1480.00
72.2985 1501.00
72.3637 1475.00
72.4289 1489.00
72.4941 1505.00
72.5593 1520.00
72.6245 1562.00
72.6897 1628.00
72.7549 1644.00
72.8201 1618.00
72.8853 1614.00
72.9505 1460.00
73.0157 1445.00
73.0809 1495.00
73.1461 1428.00
73.2113 1468.00
73.2765 1487.00
73.3417 1390.00
73.4069 1433.00
73.4721 1445.00
73.5373 1403.00
73.6025 1394.00
73.6677 1510.00
73.7329 1524.00
73.7981 1494.00
73.8633 1585.00
73.9285 1705.00
73.9937 1778.00
74.0589 1792.00
74.1241 1794.00
74.1893 1862.00
74.2545 1811.00
74.3197 1843.00
74.3849 1727.00
74.4501 1679.00
74.5153 1699.00
74.5805 1644.00
74.6457 1590.00
74.7109 1642.00
74.7761 1534.00
74.8413 1532.00
74.9065 1520.00
74.9717 1525.00
75.0369 1619.00
75.1021 1638.00
75.1673 1674.00
75.2325 1720.00
75.2977 1907.00
75.3629 1954.00
75.4281 2025.00
75.4933 2155.00
75.5585 2109.00
75.6237 1995.00
75.6889 2174.00
75.7541 2230.00
75.8193 2090.00
75.8845 2090.00
75.9497 2032.00
76.0149 1945.00
76.0801 1873.00
76.1452 1725.00
76.2104 1703.00
76.2756 1695.00
76.3409 1586.00
76.406 1496.00
76.4712 1525.00
76.5364 1517.00
76.6016 1454.00
76.6668 1543.00
76.732 1595.00
76.7972 1575.00
76.8624 1650.00
76.9276 1638.00
76.9928 1583.00
77.058 1560.00
77.1232 1601.00
77.1884 1545.00
77.2536 1536.00
77.3188 1608.00
77.384 1531.00
77.4492 1586.00
77.5144 1553.00
77.5796 1600.00
77.6448 1501.00
77.71 1569.00
77.7752 1493.00
77.8404 1505.00
77.9056 1550.00
77.9708 1527.00
78.036 1468.00
78.1012 1509.00
78.1664 1494.00
78.2316 1446.00
78.2968 1453.00
78.362 1482.00
78.4272 1398.00
78.4924 1482.00
78.5576 1376.00
78.6228 1487.00
78.688 1557.00
78.7532 1576.00
78.8184 1695.00
78.8836 1699.00
78.9488 1862.00
79.014 1875.00
79.0792 1961.00
79.1444 1996.00
79.2096 2009.00
79.2748 2038.00
79.34 2025.00
79.4052 1957.00
79.4704 1758.00
79.5356 1742.00
79.6008 1760.00
79.666 1734.00
79.7312 1659.00
79.7964 1647.00
79.8616 1493.00
79.9268 1522.00
79.992 1563.00
80.0572 1545.00
80.1224 1594.00
80.1876 1581.00
80.2528 1580.00
80.318 1505.00
80.3832 1533.00
80.4484 1508.00
80.5136 1448.00
80.5788 1489.00
80.644 1460.00
80.7092 1430.00
80.7744 1395.00
80.8396 1568.00
80.9048 1480.00
80.9699 1463.00
81.0351 1522.00
81.1003 1567.00
81.1655 1687.00
81.2307 1667.00
81.2959 1788.00
81.3611 1871.00
81.4263 1737.00
81.4915 1722.00
81.5567 1679.00
81.6219 1643.00
81.6871 1648.00
81.7523 1580.00
81.8175 1540.00
81.8827 1550.00
81.9479 1550.00
82.0131 1528.00
82.0783 1510.00
82.1435 1538.00
82.2087 1449.00
82.2739 1388.00
82.3391 1397.00
82.4043 1450.00
82.4695 1454.00
82.5347 1454.00
82.5999 1416.00
82.6651 1436.00
82.7303 1426.00
82.7955 1470.00
82.8607 1413.00
82.9259 1423.00
82.9911 1498.00
83.0563 1448.00
83.1215 1432.00
83.1867 1462.00
83.2519 1461.00
83.3171 1437.00
83.3823 1407.00
83.4475 1371.00
83.5127 1541.00
83.5779 1551.00
83.6431 1563.00
83.7083 1683.00
83.7735 1746.00
83.8387 1757.00
83.9039 1835.00
83.9691 1876.00
84.0343 1870.00
84.0995 1718.00
84.1647 1683.00
84.2299 1694.00
84.2951 1521.00
84.3603 1486.00
84.4255 1531.00
84.4907 1537.00
84.5559 1430.00
84.6211 1526.00
84.6863 1505.00
84.7515 1444.00
84.8167 1590.00
84.8819 1608.00
84.9471 1702.00
85.0123 1769.00
85.0775 1748.00
85.1427 1665.00
85.2079 1823.00
85.2731 1761.00
85.3383 1781.00
85.4035 1690.00
85.4687 1754.00
85.5339 1719.00
85.5991 1652.00
85.6643 1572.00
85.7295 1633.00
85.7946 1616.00
85.8598 1656.00
85.925 1694.00
85.9903 1716.00
86.0554 1637.00
86.1206 1649.00
86.1858 1722.00
86.251 1717.00
86.3162 1665.00
86.3814 1597.00
86.4466 1651.00
86.5118 1598.00
86.577 1625.00
86.6422 1637.00
86.7074 1724.00
86.7726 1669.00
86.8378 1584.00
86.903 1546.00
86.9682 1767.00
87.0334 1542.00
87.0986 1543.00
87.1638 1593.00
87.229 1624.00
87.2942 1486.00
87.3594 1557.00
87.4246 1445.00
87.4898 1506.00
87.555 1499.00
87.6202 1432.00
87.6854 1481.00
87.7506 1450.00
87.8158 1526.00
87.881 1454.00
87.9462 1488.00
88.0114 1410.00
88.0766 1395.00
88.1418 1432.00
88.207 1458.00
88.2722 1494.00
88.3374 1539.00
88.4026 1591.00
88.4678 1636.00
88.533 1552.00
88.5982 1534.00
88.6634 1595.00
88.7286 1534.00
88.7938 1604.00
88.859 1616.00
88.9242 1551.00
88.9894 1604.00
89.0546 1590.00
89.1198 1553.00
89.185 1549.00
89.2502 1550.00
89.3154 1558.00
89.3806 1548.00
89.4458 1556.00
89.511 1565.00
89.5762 1612.00
89.6414 1552.00
89.7066 1642.00
89.7718 1789.00
89.837 1837.00
89.9022 1933.00
89.9674 1826.00
90.0326 1848.00
90.0978 1927.00
90.163 1925.00
90.2282 1805.00
90.2934 1743.00
90.3586 1694.00
90.4238 1669.00
90.489 1748.00
90.5542 1650.00
90.6193 1446.00
90.6845 1485.00
90.7497 1573.00
90.8149 1578.00
90.8801 1445.00
90.9453 1484.00
91.0105 1501.00
91.0757 1474.00
91.1409 1535.00
91.2061 1462.00
91.2713 1448.00
91.3365 1473.00
91.4017 1523.00
91.4669 1517.00
91.5321 1594.00
91.5973 1566.00
91.6625 1558.00
91.7277 1629.00
91.7929 1686.00
91.8581 1740.00
91.9233 1893.00
91.9885 1890.00
92.0537 1900.00
92.1189 1918.00
92.1841 1817.00
92.2493 1892.00
92.3145 1835.00
92.3797 1757.00
92.4449 1592.00
92.5101 1600.00
92.5753 1529.00
92.6405 1525.00
92.7057 1553.00
92.7709 1561.00
92.8361 1484.00
92.9013 1513.00
92.9665 1490.00
93.0317 1501.00
93.0969 1509.00
93.1621 1553.00
93.2273 1494.00
93.2925 1471.00
93.3577 1476.00
93.4229 1492.00
93.4881 1487.00
93.5533 1415.00
93.6185 1475.00
93.6837 1512.00
93.7489 1497.00
93.8141 1459.00
93.8793 1462.00
93.9445 1499.00
94.0097 1499.00
94.0749 1489.00
94.1401 1427.00
94.2053 1515.00
94.2705 1422.00
94.3357 1500.00
94.4009 1468.00
94.4661 1553.00
94.5313 1491.00
94.5965 1524.00
94.6617 1449.00
94.7269 1495.00
94.7921 1397.00
94.8573 1564.00
94.9225 1518.00
94.9877 1545.00
95.0529 1468.00
95.1181 1514.00
95.1833 1523.00
95.2485 1475.00
95.3137 1610.00
95.3789 1703.00
95.444 1700.00
95.5092 1747.00
95.5744 1661.00
95.6396 1792.00
95.7048 1732.00
95.77 1674.00
95.8352 1626.00
95.9004 1633.00
95.9656 1644.00
96.0308 1536.00
96.096 1626.00
96.1612 1456.00
96.2264 1594.00
96.2916 1517.00
96.3568 1570.00
96.422 1606.00
96.4872 1596.00
96.5524 1616.00
96.6176 1582.00
96.6828 1703.00
96.748 1643.00
96.8132 1635.00
96.8784 1764.00
96.9436 1744.00
97.0088 1655.00
97.074 1625.00
97.1392 1639.00
97.2044 1647.00
97.2696 1602.00
97.3348 1585.00
97.4 1591.00
97.4652 1492.00
97.5304 1533.00
97.5956 1472.00
97.6608 1477.00
97.726 1508.00
97.7912 1521.00
97.8564 1494.00
97.9216 1491.00
97.9868 1459.00
98.052 1372.00
98.1172 1468.00
98.1824 1450.00
98.2476 1465.00
98.3128 1430.00
98.378 1402.00
98.4432 1435.00
98.5084 1435.00
98.5736 1443.00
98.6388 1427.00
98.704 1503.00
98.7692 1444.00
98.8344 1472.00
98.8996 1375.00
98.9648 1481.00
99.03 1461.00
99.0952 1448.00
99.1604 1533.00
99.2256 1506.00
99.2908 1514.00
99.356 1604.00
99.4212 1580.00
99.4864 1603.00
99.5516 1633.00
99.6168 1635.00
99.682 1643.00
99.7472 1511.00
99.8124 1626.00
99.8776 1576.00
99.9428 1589.00
100.008 1581.00
100.073 1616.00
100.095 1616.00