File: data/xrd_creation/results/NSC_157.xy
9.903433 3065.00
9.968632 2969.00
10.0338 2927.00
10.099 2869.00
10.1642 3005.00
10.2294 2879.00
10.2946 2912.00
10.3598 2939.00
10.425 2844.00
10.4902 2819.00
10.5554 2836.00
10.6206 2714.00
10.6858 2660.00
10.751 2761.00
10.8162 2707.00
10.8814 2735.00
10.9466 2630.00
11.0118 2563.00
11.077 2619.00
11.1422 2657.00
11.2074 2633.00
11.2726 2557.00
11.3378 2524.00
11.403 2589.00
11.4682 2603.00
11.5334 2512.00
11.5986 2484.00
11.6638 2584.00
11.729 2500.00
11.7942 2525.00
11.8594 2403.00
11.9246 2448.00
11.9898 2382.00
12.055 2505.00
12.1202 2402.00
12.1854 2359.00
12.2506 2316.00
12.3158 2400.00
12.381 2242.00
12.4462 2371.00
12.5114 2482.00
12.5766 2522.00
12.6418 2441.00
12.707 2605.00
12.7722 2660.00
12.8374 2815.00
12.9026 3135.00
12.9678 3279.00
13.033 3226.00
13.0982 2788.00
13.1634 2457.00
13.2286 2214.00
13.2938 2247.00
13.359 2249.00
13.4242 2210.00
13.4894 2226.00
13.5546 2263.00
13.6198 2224.00
13.685 2229.00
13.7502 2120.00
13.8154 2174.00
13.8805 2236.00
13.9457 2218.00
14.0109 2183.00
14.0761 2142.00
14.1413 2206.00
14.2065 2117.00
14.2717 2188.00
14.3369 2199.00
14.4021 2167.00
14.4673 2137.00
14.5325 2149.00
14.5977 2155.00
14.6629 2070.00
14.7281 2026.00
14.7933 2000.00
14.8585 2083.00
14.9237 2038.00
14.9889 2113.00
15.0541 2137.00
15.1193 2137.00
15.1845 2144.00
15.2497 2151.00
15.3149 2057.00
15.3801 2138.00
15.4453 2018.00
15.5105 2035.00
15.5757 2101.00
15.6409 2102.00
15.7061 2218.00
15.7713 2224.00
15.8365 2199.00
15.9017 2245.00
15.9669 2190.00
16.0321 2220.00
16.0973 2241.00
16.1625 2488.00
16.2277 2649.00
16.2929 2418.00
16.3581 2293.00
16.4233 2294.00
16.4885 2254.00
16.5537 2339.00
16.6189 2654.00
16.6841 3113.00
16.7493 3982.00
16.8145 5050.00
16.8797 5475.00
16.9449 4494.00
17.0101 3292.00
17.0753 2709.00
17.1405 2420.00
17.2057 2426.00
17.2709 2506.00
17.3361 2642.00
17.4013 2650.00
17.4665 2764.00
17.5317 2422.00
17.5969 2212.00
17.6621 2088.00
17.7273 2051.00
17.7925 2101.00
17.8577 1997.00
17.9229 1973.00
17.9881 2074.00
18.0533 1968.00
18.1185 1941.00
18.1837 2001.00
18.2489 1959.00
18.3141 1934.00
18.3793 1952.00
18.4445 1964.00
18.5097 2071.00
18.5749 2037.00
18.6401 2284.00
18.7052 2465.00
18.7704 2710.00
18.8356 2970.00
18.9008 2940.00
18.966 2536.00
19.0312 2231.00
19.0964 2244.00
19.1616 2199.00
19.2268 2135.00
19.292 2168.00
19.3572 2249.00
19.4224 2501.00
19.4876 2993.00
19.5528 3590.00
19.618 4538.00
19.6832 5357.00
19.7484 5756.00
19.8136 6047.00
19.8788 7084.00
19.944 7509.00
20.0092 5499.00
20.0744 3357.00
20.1396 2262.00
20.2048 2186.00
20.27 2071.00
20.3352 2054.00
20.4004 2223.00
20.4656 2336.00
20.5308 2656.00
20.596 2514.00
20.6612 2271.00
20.7264 2102.00
20.7916 1983.00
20.8568 1909.00
20.922 1884.00
20.9872 1886.00
21.0524 1805.00
21.1176 1876.00
21.1828 1837.00
21.248 1856.00
21.3132 1798.00
21.3784 1877.00
21.4436 1852.00
21.5088 1764.00
21.574 1892.00
21.6392 1833.00
21.7044 1920.00
21.7696 1806.00
21.8348 1848.00
21.9 1779.00
21.9652 1745.00
22.0304 1782.00
22.0956 1872.00
22.1608 1975.00
22.226 2043.00
22.2912 1875.00
22.3564 1807.00
22.4216 1749.00
22.4868 1712.00
22.552 1770.00
22.6172 1805.00
22.6824 1844.00
22.7476 1899.00
22.8128 1963.00
22.878 1900.00
22.9432 1922.00
23.0084 1825.00
23.0736 1902.00
23.1388 1828.00
23.204 1930.00
23.2692 1908.00
23.3344 2157.00
23.3996 2075.00
23.4647 2087.00
23.5299 2166.00
23.5951 2216.00
23.6603 2379.00
23.7255 2435.00
23.7907 2162.00
23.8559 2067.00
23.9211 1956.00
23.9863 2213.00
24.0515 2398.00
24.1167 2379.00
24.1819 2174.00
24.2471 1924.00
24.3123 1810.00
24.3775 1672.00
24.4427 1719.00
24.5079 1578.00
24.5731 1613.00
24.6383 1632.00
24.7035 1612.00
24.7687 1657.00
24.8339 1662.00
24.8991 1661.00
24.9643 1601.00
25.0295 1754.00
25.0947 1750.00
25.1599 1875.00
25.2251 2092.00
25.2903 2572.00
25.3555 3252.00
25.4207 3007.00
25.4859 2330.00
25.5511 1977.00
25.6163 1823.00
25.6815 1893.00
25.7467 1796.00
25.8119 1683.00
25.8771 1801.00
25.9423 1845.00
26.0075 1895.00
26.0727 1826.00
26.1379 1855.00
26.2031 1705.00
26.2683 1690.00
26.3335 1651.00
26.3987 1657.00
26.4639 1524.00
26.5291 1586.00
26.5943 1530.00
26.6595 1489.00
26.7247 1548.00
26.7899 1478.00
26.8551 1511.00
26.9203 1518.00
26.9855 1570.00
27.0507 1656.00
27.1159 1577.00
27.1811 1647.00
27.2463 1736.00
27.3115 1654.00
27.3767 1669.00
27.4419 1730.00
27.5071 1615.00
27.5723 1593.00
27.6375 1575.00
27.7027 1527.00
27.7679 1540.00
27.8331 1480.00
27.8983 1515.00
27.9635 1520.00
28.0287 1678.00
28.0939 1700.00
28.1591 1764.00
28.2243 1768.00
28.2894 1654.00
28.3546 1626.00
28.4198 1540.00
28.485 1520.00
28.5502 1631.00
28.6154 1606.00
28.6806 1739.00
28.7458 1877.00
28.811 2036.00
28.8762 2604.00
28.9414 3058.00
29.0066 3598.00
29.0718 4924.00
29.137 6934.00
29.2022 7811.00
29.2674 6847.00
29.3326 4565.00
29.3978 3061.00
29.463 2297.00
29.5282 1978.00
29.5934 2015.00
29.6586 1779.00
29.7238 1808.00
29.789 1543.00
29.8542 1551.00
29.9194 1559.00
29.9846 1588.00
30.0498 1567.00
30.115 1723.00
30.1802 1791.00
30.2454 1740.00
30.3106 1806.00
30.3758 1670.00
30.441 1622.00
30.5062 1607.00
30.5714 1524.00
30.6366 1628.00
30.7018 1655.00
30.767 1862.00
30.8322 2043.00
30.8974 2471.00
30.9626 2744.00
31.0278 2707.00
31.093 2368.00
31.1582 2218.00
31.2234 2506.00
31.2886 2750.00
31.3538 3147.00
31.419 3484.00
31.4842 3177.00
31.5494 2583.00
31.6146 2210.00
31.6798 2115.00
31.745 2239.00
31.8102 2294.00
31.8754 2087.00
31.9406 2102.00
32.0058 2585.00
32.071 4094.00
32.1362 6068.00
32.2014 6472.00
32.2666 4768.00
32.3318 3031.00
32.397 2156.00
32.4622 1969.00
32.5274 1968.00
32.5926 2151.00
32.6578 2288.00
32.723 2424.00
32.7882 2890.00
32.8534 4151.00
32.9186 5265.00
32.9838 4589.00
33.0489 3160.00
33.1141 2159.00
33.1793 1927.00
33.2445 1715.00
33.3097 1686.00
33.3749 1765.00
33.4401 1932.00
33.5053 2259.00
33.5705 2713.00
33.6357 3291.00
33.7009 4040.00
33.7661 4797.00
33.8313 5287.00
33.8965 6110.00
33.9617 7443.00
34.0269 8634.00
34.0921 7856.00
34.1573 6264.00
34.2225 5285.00
34.2877 5213.00
34.3529 5156.00
34.4181 4468.00
34.4833 3386.00
34.5485 2568.00
34.6137 2078.00
34.6789 1802.00
34.7441 1669.00
34.8093 1547.00
34.8745 1677.00
34.9397 1662.00
35.0049 1689.00
35.0701 1612.00
35.1353 1833.00
35.2005 1991.00
35.2657 1952.00
35.3309 1884.00
35.3961 2093.00
35.4613 1991.00
35.5265 2090.00
35.5917 1883.00
35.6569 1690.00
35.7221 1587.00
35.7873 1698.00
35.8525 1821.00
35.9177 1848.00
35.9829 1778.00
36.0481 1644.00
36.1133 1583.00
36.1785 1502.00
36.2437 1488.00
36.3089 1433.00
36.3741 1365.00
36.4393 1412.00
36.5045 1373.00
36.5697 1416.00
36.6349 1566.00
36.7001 1669.00
36.7653 1647.00
36.8305 1614.00
36.8957 1556.00
36.9609 1373.00
37.0261 1370.00
37.0913 1332.00
37.1565 1348.00
37.2217 1344.00
37.2869 1318.00
37.3521 1416.00
37.4173 1322.00
37.4825 1309.00
37.5477 1338.00
37.6129 1345.00
37.6781 1457.00
37.7433 1745.00
37.8085 1755.00
37.8736 1833.00
37.9388 1818.00
38.004 1704.00
38.0692 1700.00
38.1344 1714.00
38.1996 1664.00
38.2648 1680.00
38.33 1631.00
38.3952 1633.00
38.4604 1664.00
38.5256 1671.00
38.5908 1735.00
38.656 1859.00
38.7212 2106.00
38.7864 2200.00
38.8516 1981.00
38.9168 1877.00
38.982 1990.00
39.0472 1995.00
39.1124 1984.00
39.1776 1802.00
39.2428 1633.00
39.308 1586.00
39.3732 1616.00
39.4384 1538.00
39.5036 1586.00
39.5688 1467.00
39.634 1390.00
39.6992 1652.00
39.7644 1644.00
39.8296 2079.00
39.8948 2293.00
39.96 2559.00
40.0252 2465.00
40.0904 2129.00
40.1556 1780.00
40.2208 1540.00
40.286 1563.00
40.3512 1563.00
40.4164 1716.00
40.4816 1766.00
40.5468 1779.00
40.612 1691.00
40.6772 1515.00
40.7424 1373.00
40.8076 1286.00
40.8728 1211.00
40.938 1222.00
41.0032 1197.00
41.0684 1186.00
41.1336 1150.00
41.1988 1246.00
41.264 1159.00
41.3292 1245.00
41.3944 1133.00
41.4596 1227.00
41.5248 1142.00
41.59 1256.00
41.6552 1272.00
41.7204 1246.00
41.7856 1387.00
41.8508 1429.00
41.916 1594.00
41.9812 1767.00
42.0464 1819.00
42.1116 1855.00
42.1768 1627.00
42.242 1626.00
42.3072 1676.00
42.3724 1590.00
42.4376 1357.00
42.5028 1230.00
42.568 1222.00
42.6332 1267.00
42.6983 1202.00
42.7635 1222.00
42.8287 1282.00
42.8939 1310.00
42.9591 1268.00
43.0243 1380.00
43.0895 1533.00
43.1547 1547.00
43.2199 1501.00
43.2851 1640.00
43.3503 1580.00
43.4155 1668.00
43.4807 1814.00
43.5459 1692.00
43.6111 1633.00
43.6763 1544.00
43.7415 1509.00
43.8067 1395.00
43.8719 1412.00
43.9371 1356.00
44.0023 1511.00
44.0675 1519.00
44.1327 1447.00
44.1979 1477.00
44.2631 1418.00
44.3283 1507.00
44.3935 1538.00
44.4587 1497.00
44.5239 1454.00
44.5891 1506.00
44.6543 1377.00
44.7195 1320.00
44.7847 1219.00
44.8499 1233.00
44.9151 1301.00
44.9803 1165.00
45.0455 1155.00
45.1107 1191.00
45.1759 1191.00
45.2411 1178.00
45.3063 1168.00
45.3715 1224.00
45.4367 1231.00
45.5019 1238.00
45.5671 1254.00
45.6323 1243.00
45.6975 1312.00
45.7627 1280.00
45.8279 1324.00
45.8931 1400.00
45.9583 1324.00
46.0235 1416.00
46.0887 1282.00
46.1539 1252.00
46.2191 1393.00
46.2843 1549.00
46.3495 1650.00
46.4147 1775.00
46.4799 1960.00
46.5451 2236.00
46.6103 2912.00
46.6755 3425.00
46.7407 3351.00
46.8059 2929.00
46.8711 2534.00
46.9363 2217.00
47.0015 2290.00
47.0667 2237.00
47.1319 2245.00
47.1971 1992.00
47.2623 1840.00
47.3275 1750.00
47.3927 1662.00
47.4579 1560.00
47.523 1442.00
47.5882 1406.00
47.6534 1344.00
47.7186 1248.00
47.7838 1245.00
47.849 1336.00
47.9142 1297.00
47.9794 1498.00
48.0446 1650.00
48.1098 1637.00
48.175 1581.00
48.2402 1657.00
48.3054 1814.00
48.3706 2290.00
48.4358 2959.00
48.501 3532.00
48.5662 3813.00
48.6314 3619.00
48.6966 3307.00
48.7618 2704.00
48.827 2451.00
48.8922 2209.00
48.9574 2142.00
49.0226 2032.00
49.0878 1811.00
49.153 1782.00
49.2182 1857.00
49.2834 2281.00
49.3486 2638.00
49.4138 2584.00
49.479 2329.00
49.5442 1948.00
49.6094 1758.00
49.6746 1600.00
49.7398 1531.00
49.805 1360.00
49.8702 1271.00
49.9354 1246.00
50.0006 1188.00
50.0658 1258.00
50.131 1183.00
50.1962 1258.00
50.2614 1185.00
50.3266 1269.00
50.3918 1480.00
50.457 1674.00
50.5222 1797.00
50.5874 1586.00
50.6526 1518.00
50.7178 1313.00
50.783 1126.00
50.8482 1170.00
50.9134 1199.00
50.9786 1257.00
51.0438 1262.00
51.109 1277.00
51.1742 1383.00
51.2394 1579.00
51.3046 1715.00
51.3698 1529.00
51.435 1411.00
51.5002 1249.00
51.5654 1264.00
51.6306 1207.00
51.6958 1207.00
51.761 1235.00
51.8262 1142.00
51.8914 1141.00
51.9566 1108.00
52.0218 1176.00
52.087 1188.00
52.1522 1252.00
52.2174 1456.00
52.2826 1469.00
52.3477 1397.00
52.4129 1369.00
52.4781 1293.00
52.5433 1303.00
52.6085 1152.00
52.6737 1193.00
52.7389 1205.00
52.8041 1351.00
52.8693 1297.00
52.9345 1451.00
52.9997 1595.00
53.0649 1738.00
53.1301 1726.00
53.1953 1703.00
53.2605 1649.00
53.3257 1699.00
53.3909 1674.00
53.4561 1566.00
53.5213 1629.00
53.5865 1702.00
53.6517 1752.00
53.7169 1665.00
53.7821 1581.00
53.8473 1513.00
53.9125 1270.00
53.9777 1151.00
54.0429 1157.00
54.1081 1219.00
54.1733 1183.00
54.2385 1268.00
54.3037 1242.00
54.3689 1195.00
54.4341 1211.00
54.4993 1116.00
54.5645 1099.00
54.6297 1137.00
54.6949 1127.00
54.7601 1079.00
54.8253 1148.00
54.8905 1164.00
54.9557 1099.00
55.0209 944.00
55.0861 1113.00
55.1513 1132.00
55.2165 1114.00
55.2817 1207.00
55.3469 1269.00
55.4121 1182.00
55.4773 1165.00
55.5425 1099.00
55.6077 1053.00
55.6729 1131.00
55.7381 1228.00
55.8033 1285.00
55.8685 1293.00
55.9337 1358.00
55.9989 1386.00
56.0641 1276.00
56.1293 1328.00
56.1945 1378.00
56.2597 1261.00
56.3249 1285.00
56.3901 1200.00
56.4553 1196.00
56.5205 1165.00
56.5857 1167.00
56.6509 1141.00
56.7161 1165.00
56.7813 1262.00
56.8465 1246.00
56.9117 1166.00
56.9769 1250.00
57.042 1296.00
57.1073 1267.00
57.1724 1117.00
57.2376 1214.00
57.3028 1208.00
57.368 1333.00
57.4332 1396.00
57.4984 1636.00
57.5636 1890.00
57.6288 2245.00
57.694 2173.00
57.7592 2173.00
57.8244 1930.00
57.8896 1660.00
57.9548 1517.00
58.02 1403.00
58.0852 1424.00
58.1504 1664.00
58.2156 2081.00
58.2808 2397.00
58.346 2222.00
58.4112 2009.00
58.4764 1729.00
58.5416 1472.00
58.6068 1313.00
58.672 1465.00
58.7372 1922.00
58.8024 1890.00
58.8676 1792.00
58.9328 1686.00
58.998 1674.00
59.0632 1473.00
59.1284 1371.00
59.1936 1313.00
59.2588 1174.00
59.324 1207.00
59.3892 1201.00
59.4544 1176.00
59.5196 1139.00
59.5848 1159.00
59.65 1310.00
59.7152 1100.00
59.7804 1228.00
59.8456 1122.00
59.9108 1052.00
59.976 1161.00
60.0412 1093.00
60.1064 1175.00
60.1716 1214.00
60.2368 1319.00
60.302 1332.00
60.3672 1443.00
60.4324 1367.00
60.4976 1562.00
60.5628 1578.00
60.628 1638.00
60.6932 1679.00
60.7584 1589.00
60.8236 1493.00
60.8888 1434.00
60.954 1330.00
61.0192 1331.00
61.0844 1363.00
61.1496 1559.00
61.2148 1670.00
61.28 1853.00
61.3452 1855.00
61.4104 1764.00
61.4756 1714.00
61.5408 1575.00
61.606 1480.00
61.6712 1338.00
61.7364 1173.00
61.8016 1209.00
61.8667 1231.00
61.932 1304.00
61.9971 1269.00
62.0623 1237.00
62.1275 1202.00
62.1927 1157.00
62.2579 1070.00
62.3231 990.00
62.3883 976.00
62.4535 1048.00
62.5187 1036.00
62.5839 1030.00
62.6491 969.00
62.7143 914.00
62.7795 1038.00
62.8447 972.00
62.9099 1041.00
62.9751 1063.00
63.0403 1029.00
63.1055 996.00
63.1707 1002.00
63.2359 1002.00
63.3011 1041.00
63.3663 1075.00
63.4315 985.00
63.4967 1040.00
63.5619 971.00
63.6271 965.00
63.6923 1039.00
63.7575 1066.00
63.8227 1364.00
63.8879 1473.00
63.9531 1338.00
64.0183 1332.00
64.0835 1285.00
64.1487 1200.00
64.2139 1190.00
64.2791 1142.00
64.3443 1197.00
64.4095 1134.00
64.4747 1214.00
64.5399 1187.00
64.6051 1226.00
64.6703 1224.00
64.7355 1162.00
64.8007 1131.00
64.8659 1217.00
64.9311 1214.00
64.9963 1400.00
65.0615 1341.00
65.1267 1234.00
65.1919 1310.00
65.2571 1338.00
65.3223 1201.00
65.3875 1113.00
65.4527 1107.00
65.5179 1014.00
65.5831 993.00
65.6483 1023.00
65.7135 939.00
65.7787 988.00
65.8439 1068.00
65.9091 1039.00
65.9743 989.00
66.0395 1035.00
66.1047 915.00
66.1699 885.00
66.2351 898.00
66.3003 953.00
66.3655 932.00
66.4307 886.00
66.4959 864.00
66.561 935.00
66.6263 978.00
66.6915 931.00
66.7566 958.00
66.8218 888.00
66.887 898.00
66.9522 882.00
67.0174 966.00
67.0826 941.00
67.1478 1082.00
67.213 1033.00
67.2782 1102.00
67.3434 1073.00
67.4086 1048.00
67.4738 961.00
67.539 885.00
67.6042 939.00
67.6694 953.00
67.7346 865.00
67.7998 902.00
67.865 1034.00
67.9302 1020.00
67.9954 1006.00
68.0606 970.00
68.1258 966.00
68.191 1012.00
68.2562 961.00
68.3214 950.00
68.3866 922.00
68.4518 966.00
68.517 895.00
68.5822 956.00
68.6474 935.00
68.7126 940.00
68.7778 971.00
68.843 946.00
68.9082 989.00
68.9734 1264.00
69.0386 1138.00
69.1038 1111.00
69.169 1066.00
69.2342 1067.00
69.2994 944.00
69.3646 907.00
69.4298 838.00
69.495 886.00
69.5602 920.00
69.6254 903.00
69.6906 948.00
69.7558 924.00
69.821 999.00
69.8862 940.00
69.9514 983.00
70.0166 1004.00
70.0818 941.00
70.147 969.00
70.2122 888.00
70.2774 925.00
70.3426 921.00
70.4078 869.00
70.473 799.00
70.5382 773.00
70.6034 861.00
70.6686 889.00
70.7338 854.00
70.799 841.00
70.8642 881.00
70.9294 912.00
70.9946 922.00
71.0598 1036.00
71.125 1079.00
71.1902 1073.00
71.2554 1086.00
71.3205 1071.00
71.3858 1093.00
71.451 1014.00
71.5162 979.00
71.5813 1075.00
71.6465 1093.00
71.7117 1060.00
71.7769 969.00
71.8421 1034.00
71.9073 985.00
71.9725 941.00
72.0377 991.00
72.1029 959.00
72.1681 995.00
72.2333 1032.00
72.2985 1096.00
72.3637 1066.00
72.4289 1106.00
72.4941 1064.00
72.5593 1073.00
72.6245 965.00
72.6897 886.00
72.7549 881.00
72.8201 912.00
72.8853 900.00
72.9505 813.00
73.0157 867.00
73.0809 932.00
73.1461 963.00
73.2113 914.00
73.2765 853.00
73.3417 889.00
73.4069 871.00
73.4721 952.00
73.5373 938.00
73.6025 898.00
73.6677 935.00
73.7329 900.00
73.7981 895.00
73.8633 875.00
73.9285 1005.00
73.9937 918.00
74.0589 887.00
74.1241 837.00
74.1893 854.00
74.2545 835.00
74.3197 807.00
74.3849 762.00
74.4501 762.00
74.5153 790.00
74.5805 783.00
74.6457 780.00
74.7109 798.00
74.7761 887.00
74.8413 831.00
74.9065 847.00
74.9717 840.00
75.0369 821.00
75.1021 894.00
75.1673 831.00
75.2325 892.00
75.2977 850.00
75.3629 857.00
75.4281 877.00
75.4933 828.00
75.5585 868.00
75.6237 903.00
75.6889 849.00
75.7541 895.00
75.8193 860.00
75.8845 775.00
75.9497 840.00
76.0149 816.00
76.0801 839.00
76.1452 891.00
76.2104 897.00
76.2756 874.00
76.3409 874.00
76.406 949.00
76.4712 849.00
76.5364 837.00
76.6016 852.00
76.6668 850.00
76.732 884.00
76.7972 859.00
76.8624 971.00
76.9276 1009.00
76.9928 961.00
77.058 922.00
77.1232 982.00
77.1884 933.00
77.2536 937.00
77.3188 1017.00
77.384 870.00
77.4492 919.00
77.5144 900.00
77.5796 902.00
77.6448 866.00
77.71 847.00
77.7752 851.00
77.8404 922.00
77.9056 836.00
77.9708 970.00
78.036 1025.00
78.1012 1162.00
78.1664 1159.00
78.2316 1212.00
78.2968 1018.00
78.362 1096.00
78.4272 1105.00
78.4924 1076.00
78.5576 1081.00
78.6228 997.00
78.688 1044.00
78.7532 1060.00
78.8184 910.00
78.8836 907.00
78.9488 916.00
79.014 878.00
79.0792 926.00
79.1444 849.00
79.2096 863.00
79.2748 900.00
79.34 871.00
79.4052 871.00
79.4704 893.00
79.5356 927.00
79.6008 811.00
79.666 852.00
79.7312 834.00
79.7964 880.00
79.8616 797.00
79.9268 775.00
79.992 856.00
80.0572 879.00
80.1224 875.00
80.1876 823.00
80.2528 845.00
80.318 770.00
80.3832 762.00
80.4484 847.00
80.5136 851.00
80.5788 833.00
80.644 797.00
80.7092 830.00
80.7744 827.00
80.8396 863.00
80.9048 838.00
80.9699 951.00
81.0351 979.00
81.1003 1034.00
81.1655 980.00
81.2307 987.00
81.2959 993.00
81.3611 1001.00
81.4263 939.00
81.4915 862.00
81.5567 912.00
81.6219 809.00
81.6871 840.00
81.7523 819.00
81.8175 802.00
81.8827 816.00
81.9479 796.00
82.0131 788.00
82.0783 785.00
82.1435 819.00
82.2087 840.00
82.2739 776.00
82.3391 806.00
82.4043 850.00
82.4695 873.00
82.5347 834.00
82.5999 844.00
82.6651 834.00
82.7303 845.00
82.7955 861.00
82.8607 804.00
82.9259 774.00
82.9911 877.00
83.0563 929.00
83.1215 974.00
83.1867 968.00
83.2519 931.00
83.3171 920.00
83.3823 961.00
83.4475 1026.00
83.5127 915.00
83.5779 862.00
83.6431 864.00
83.7083 882.00
83.7735 875.00
83.8387 901.00
83.9039 867.00
83.9691 866.00
84.0343 884.00
84.0995 894.00
84.1647 879.00
84.2299 842.00
84.2951 813.00
84.3603 806.00
84.4255 824.00
84.4907 784.00
84.5559 846.00
84.6211 857.00
84.6863 796.00
84.7515 867.00
84.8167 808.00
84.8819 769.00
84.9471 817.00
85.0123 822.00
85.0775 794.00
85.1427 790.00
85.2079 788.00
85.2731 790.00
85.3383 832.00
85.4035 827.00
85.4687 719.00
85.5339 850.00
85.5991 782.00
85.6643 825.00
85.7295 833.00
85.7946 847.00
85.8598 778.00
85.925 803.00
85.9903 844.00
86.0554 880.00
86.1206 822.00
86.1858 797.00
86.251 853.00
86.3162 844.00
86.3814 810.00
86.4466 873.00
86.5118 841.00
86.577 856.00
86.6422 860.00
86.7074 825.00
86.7726 833.00
86.8378 795.00
86.903 794.00
86.9682 756.00
87.0334 816.00
87.0986 879.00
87.1638 910.00
87.229 934.00
87.2942 971.00
87.3594 958.00
87.4246 1091.00
87.4898 1084.00
87.555 993.00
87.6202 873.00
87.6854 940.00
87.7506 913.00
87.8158 832.00
87.881 879.00
87.9462 825.00
88.0114 822.00
88.0766 729.00
88.1418 779.00
88.207 750.00
88.2722 780.00
88.3374 783.00
88.4026 727.00
88.4678 785.00
88.533 696.00
88.5982 742.00
88.6634 712.00
88.7286 733.00
88.7938 646.00
88.859 748.00
88.9242 721.00
88.9894 748.00
89.0546 758.00
89.1198 781.00
89.185 764.00
89.2502 813.00
89.3154 821.00
89.3806 801.00
89.4458 818.00
89.511 835.00
89.5762 843.00
89.6414 782.00
89.7066 788.00
89.7718 783.00
89.837 752.00
89.9022 740.00
89.9674 844.00
90.0326 780.00
90.0978 812.00
90.163 771.00
90.2282 845.00
90.2934 820.00
90.3586 724.00
90.4238 771.00
90.489 786.00
90.5542 779.00
90.6193 873.00
90.6845 830.00
90.7497 847.00
90.8149 900.00
90.8801 833.00
90.9453 842.00
91.0105 868.00
91.0757 826.00
91.1409 879.00
91.2061 827.00
91.2713 818.00
91.3365 806.00
91.4017 796.00
91.4669 827.00
91.5321 827.00
91.5973 823.00
91.6625 801.00
91.7277 835.00
91.7929 794.00
91.8581 771.00
91.9233 906.00
91.9885 852.00
92.0537 864.00
92.1189 809.00
92.1841 889.00
92.2493 800.00
92.3145 858.00
92.3797 886.00
92.4449 832.00
92.5101 766.00
92.5753 752.00
92.6405 748.00
92.7057 784.00
92.7709 787.00
92.8361 734.00
92.9013 700.00
92.9665 690.00
93.0317 663.00
93.0969 720.00
93.1621 780.00
93.2273 751.00
93.2925 806.00
93.3577 866.00
93.4229 816.00
93.4881 878.00
93.5533 755.00
93.6185 876.00
93.6837 831.00
93.7489 805.00
93.8141 783.00
93.8793 762.00
93.9445 752.00
94.0097 755.00
94.0749 859.00
94.1401 796.00
94.2053 736.00
94.2705 763.00
94.3357 794.00
94.4009 755.00
94.4661 735.00
94.5313 747.00
94.5965 750.00
94.6617 682.00
94.7269 723.00
94.7921 711.00
94.8573 703.00
94.9225 771.00
94.9877 712.00
95.0529 722.00
95.1181 712.00
95.1833 735.00
95.2485 772.00
95.3137 800.00
95.3789 867.00
95.444 799.00
95.5092 871.00
95.5744 887.00
95.6396 817.00
95.7048 883.00
95.77 842.00
95.8352 846.00
95.9004 873.00
95.9656 819.00
96.0308 779.00
96.096 798.00
96.1612 760.00
96.2264 819.00
96.2916 836.00
96.3568 780.00
96.422 821.00
96.4872 759.00
96.5524 815.00
96.6176 916.00
96.6828 924.00
96.748 884.00
96.8132 865.00
96.8784 838.00
96.9436 914.00
97.0088 933.00
97.074 1033.00
97.1392 919.00
97.2044 875.00
97.2696 896.00
97.3348 873.00
97.4 873.00
97.4652 882.00
97.5304 844.00
97.5956 847.00
97.6608 775.00
97.726 779.00
97.7912 764.00
97.8564 807.00
97.9216 806.00
97.9868 782.00
98.052 823.00
98.1172 757.00
98.1824 833.00
98.2476 737.00
98.3128 819.00
98.378 726.00
98.4432 787.00
98.5084 812.00
98.5736 753.00
98.6388 730.00
98.704 715.00
98.7692 766.00
98.8344 721.00
98.8996 712.00
98.9648 777.00
99.03 740.00
99.0952 784.00
99.1604 753.00
99.2256 811.00
99.2908 780.00
99.356 756.00
99.4212 794.00
99.4864 718.00
99.5516 818.00
99.6168 816.00
99.682 745.00
99.7472 761.00
99.8124 743.00
99.8776 794.00
99.9428 780.00
100.008 694.00
100.073 734.00
100.095 732.00