File: data/xrd_creation/results/NSC_85.xy
9.903433 2861.00
9.968632 2784.00
10.0338 2845.00
10.099 2809.00
10.1642 2766.00
10.2294 2670.00
10.2946 2748.00
10.3598 2672.00
10.425 2705.00
10.4902 2621.00
10.5554 2542.00
10.6206 2617.00
10.6858 2598.00
10.751 2466.00
10.8162 2611.00
10.8814 2548.00
10.9466 2594.00
11.0118 2390.00
11.077 2511.00
11.1422 2398.00
11.2074 2405.00
11.2726 2425.00
11.3378 2369.00
11.403 2402.00
11.4682 2376.00
11.5334 2403.00
11.5986 2335.00
11.6638 2315.00
11.729 2279.00
11.7942 2318.00
11.8594 2236.00
11.9246 2268.00
11.9898 2313.00
12.055 2263.00
12.1202 2246.00
12.1854 2282.00
12.2506 2272.00
12.3158 2212.00
12.381 2190.00
12.4462 2216.00
12.5114 2104.00
12.5766 2124.00
12.6418 2209.00
12.707 2113.00
12.7722 2111.00
12.8374 2094.00
12.9026 2065.00
12.9678 2083.00
13.033 2101.00
13.0982 2157.00
13.1634 2105.00
13.2286 2041.00
13.2938 2087.00
13.359 2001.00
13.4242 2047.00
13.4894 1972.00
13.5546 2043.00
13.6198 1974.00
13.685 1977.00
13.7502 2031.00
13.8154 1990.00
13.8805 1971.00
13.9457 2112.00
14.0109 2045.00
14.0761 2224.00
14.1413 2201.00
14.2065 2302.00
14.2717 2491.00
14.3369 2875.00
14.4021 3194.00
14.4673 3312.00
14.5325 2741.00
14.5977 2079.00
14.6629 2034.00
14.7281 1995.00
14.7933 1873.00
14.8585 1954.00
14.9237 1847.00
14.9889 1897.00
15.0541 1774.00
15.1193 1823.00
15.1845 1827.00
15.2497 1831.00
15.3149 1882.00
15.3801 1869.00
15.4453 1776.00
15.5105 1859.00
15.5757 1911.00
15.6409 1891.00
15.7061 1790.00
15.7713 1963.00
15.8365 1816.00
15.9017 1831.00
15.9669 1714.00
16.0321 1736.00
16.0973 1770.00
16.1625 1801.00
16.2277 1741.00
16.2929 1813.00
16.3581 1849.00
16.4233 1833.00
16.4885 1760.00
16.5537 1691.00
16.6189 1768.00
16.6841 1724.00
16.7493 1745.00
16.8145 1788.00
16.8797 1719.00
16.9449 1776.00
17.0101 1824.00
17.0753 1768.00
17.1405 1750.00
17.2057 1666.00
17.2709 1729.00
17.3361 1706.00
17.4013 1726.00
17.4665 1672.00
17.5317 1619.00
17.5969 1638.00
17.6621 1708.00
17.7273 1624.00
17.7925 1681.00
17.8577 1639.00
17.9229 1666.00
17.9881 1722.00
18.0533 1555.00
18.1185 1566.00
18.1837 1649.00
18.2489 1617.00
18.3141 1594.00
18.3793 1654.00
18.4445 1621.00
18.5097 1609.00
18.5749 1621.00
18.6401 1599.00
18.7052 1584.00
18.7704 1608.00
18.8356 1542.00
18.9008 1627.00
18.966 1608.00
19.0312 1629.00
19.0964 1537.00
19.1616 1567.00
19.2268 1644.00
19.292 1584.00
19.3572 1586.00
19.4224 1706.00
19.4876 1681.00
19.5528 1822.00
19.618 1937.00
19.6832 2198.00
19.7484 2410.00
19.8136 2724.00
19.8788 3141.00
19.944 4035.00
20.0092 5167.00
20.0744 5825.00
20.1396 4896.00
20.2048 3388.00
20.27 2718.00
20.3352 2578.00
20.4004 2946.00
20.4656 3212.00
20.5308 3702.00
20.596 4174.00
20.6612 4724.00
20.7264 5055.00
20.7916 3959.00
20.8568 2591.00
20.922 1904.00
20.9872 1772.00
21.0524 1637.00
21.1176 1631.00
21.1828 1520.00
21.248 1589.00
21.3132 1548.00
21.3784 1561.00
21.4436 1532.00
21.5088 1625.00
21.574 1491.00
21.6392 1513.00
21.7044 1519.00
21.7696 1468.00
21.8348 1480.00
21.9 1515.00
21.9652 1509.00
22.0304 1510.00
22.0956 1511.00
22.1608 1432.00
22.226 1437.00
22.2912 1498.00
22.3564 1387.00
22.4216 1496.00
22.4868 1371.00
22.552 1457.00
22.6172 1426.00
22.6824 1377.00
22.7476 1594.00
22.8128 1463.00
22.878 1435.00
22.9432 1487.00
23.0084 1519.00
23.0736 1543.00
23.1388 1558.00
23.204 1567.00
23.2692 1648.00
23.3344 1727.00
23.3996 1868.00
23.4647 2013.00
23.5299 2221.00
23.5951 2590.00
23.6603 2866.00
23.7255 3666.00
23.7907 4933.00
23.8559 6239.00
23.9211 6843.00
23.9863 6453.00
24.0515 4756.00
24.1167 3023.00
24.1819 2017.00
24.2471 1746.00
24.3123 1878.00
24.3775 1828.00
24.4427 1725.00
24.5079 1801.00
24.5731 1629.00
24.6383 1557.00
24.7035 1581.00
24.7687 1486.00
24.8339 1350.00
24.8991 1410.00
24.9643 1496.00
25.0295 1446.00
25.0947 1402.00
25.1599 1384.00
25.2251 1359.00
25.2903 1393.00
25.3555 1274.00
25.4207 1309.00
25.4859 1360.00
25.5511 1345.00
25.6163 1289.00
25.6815 1287.00
25.7467 1335.00
25.8119 1290.00
25.8771 1294.00
25.9423 1231.00
26.0075 1295.00
26.0727 1267.00
26.1379 1301.00
26.2031 1210.00
26.2683 1350.00
26.3335 1260.00
26.3987 1350.00
26.4639 1345.00
26.5291 1369.00
26.5943 1336.00
26.6595 1383.00
26.7247 1512.00
26.7899 1726.00
26.8551 1852.00
26.9203 1798.00
26.9855 1722.00
27.0507 1550.00
27.1159 1516.00
27.1811 1397.00
27.2463 1355.00
27.3115 1205.00
27.3767 1256.00
27.4419 1272.00
27.5071 1240.00
27.5723 1255.00
27.6375 1326.00
27.7027 1226.00
27.7679 1207.00
27.8331 1210.00
27.8983 1309.00
27.9635 1272.00
28.0287 1131.00
28.0939 1256.00
28.1591 1266.00
28.2243 1314.00
28.2894 1375.00
28.3546 1461.00
28.4198 1657.00
28.485 1759.00
28.5502 1908.00
28.6154 2312.00
28.6806 2988.00
28.7458 3585.00
28.811 4040.00
28.8762 3987.00
28.9414 3363.00
29.0066 2292.00
29.0718 1628.00
29.137 1341.00
29.2022 1246.00
29.2674 1282.00
29.3326 1222.00
29.3978 1161.00
29.463 1239.00
29.5282 1227.00
29.5934 1216.00
29.6586 1207.00
29.7238 1172.00
29.789 1131.00
29.8542 1113.00
29.9194 1216.00
29.9846 1192.00
30.0498 1160.00
30.115 1088.00
30.1802 1156.00
30.2454 1134.00
30.3106 1132.00
30.3758 1174.00
30.441 1127.00
30.5062 1089.00
30.5714 1158.00
30.6366 1168.00
30.7018 1210.00
30.767 1195.00
30.8322 1173.00
30.8974 1192.00
30.9626 1193.00
31.0278 1226.00
31.093 1226.00
31.1582 1247.00
31.2234 1253.00
31.2886 1447.00
31.3538 1514.00
31.419 1801.00
31.4842 2132.00
31.5494 2631.00
31.6146 3289.00
31.6798 3988.00
31.745 4892.00
31.8102 6391.00
31.8754 7486.00
31.9406 7524.00
32.0058 6287.00
32.071 4658.00
32.1362 3046.00
32.2014 1967.00
32.2666 1642.00
32.3318 1358.00
32.397 1346.00
32.4622 1300.00
32.5274 1168.00
32.5926 1195.00
32.6578 1217.00
32.723 1139.00
32.7882 1144.00
32.8534 1175.00
32.9186 1169.00
32.9838 1186.00
33.0489 1128.00
33.1141 1144.00
33.1793 1046.00
33.2445 1025.00
33.3097 1124.00
33.3749 1087.00
33.4401 980.00
33.5053 1040.00
33.5705 1010.00
33.6357 1059.00
33.7009 1007.00
33.7661 1055.00
33.8313 1035.00
33.8965 1046.00
33.9617 1231.00
34.0269 1262.00
34.0921 1338.00
34.1573 1492.00
34.2225 1372.00
34.2877 1342.00
34.3529 1325.00
34.4181 1315.00
34.4833 1321.00
34.5485 1356.00
34.6137 1292.00
34.6789 1283.00
34.7441 1236.00
34.8093 1153.00
34.8745 1117.00
34.9397 1065.00
35.0049 1100.00
35.0701 1066.00
35.1353 1113.00
35.2005 1240.00
35.2657 1348.00
35.3309 1467.00
35.3961 1688.00
35.4613 1934.00
35.5265 2301.00
35.5917 2827.00
35.6569 3236.00
35.7221 3246.00
35.7873 2870.00
35.8525 2595.00
35.9177 2418.00
35.9829 2602.00
36.0481 2708.00
36.1133 2509.00
36.1785 2115.00
36.2437 1727.00
36.3089 1328.00
36.3741 1220.00
36.4393 1140.00
36.5045 1017.00
36.5697 1026.00
36.6349 1045.00
36.7001 960.00
36.7653 999.00
36.8305 1038.00
36.8957 974.00
36.9609 925.00
37.0261 965.00
37.0913 980.00
37.1565 1010.00
37.2217 956.00
37.2869 998.00
37.3521 989.00
37.4173 928.00
37.4825 976.00
37.5477 986.00
37.6129 1003.00
37.6781 891.00
37.7433 922.00
37.8085 937.00
37.8736 945.00
37.9388 949.00
38.004 977.00
38.0692 1002.00
38.1344 975.00
38.1996 1085.00
38.2648 1049.00
38.33 987.00
38.3952 1031.00
38.4604 986.00
38.5256 957.00
38.5908 989.00
38.656 938.00
38.7212 980.00
38.7864 983.00
38.8516 958.00
38.9168 950.00
38.982 895.00
39.0472 878.00
39.1124 958.00
39.1776 946.00
39.2428 934.00
39.308 989.00
39.3732 928.00
39.4384 945.00
39.5036 925.00
39.5688 919.00
39.634 929.00
39.6992 963.00
39.7644 884.00
39.8296 902.00
39.8948 980.00
39.96 937.00
40.0252 916.00
40.0904 956.00
40.1556 1004.00
40.2208 927.00
40.286 1040.00
40.3512 1150.00
40.4164 1168.00
40.4816 1204.00
40.5468 1204.00
40.612 1156.00
40.6772 1083.00
40.7424 1040.00
40.8076 893.00
40.8728 940.00
40.938 899.00
41.0032 892.00
41.0684 875.00
41.1336 944.00
41.1988 923.00
41.264 934.00
41.3292 970.00
41.3944 973.00
41.4596 915.00
41.5248 954.00
41.59 958.00
41.6552 972.00
41.7204 1058.00
41.7856 1004.00
41.8508 1084.00
41.916 1073.00
41.9812 1067.00
42.0464 1144.00
42.1116 1176.00
42.1768 1146.00
42.242 1196.00
42.3072 1234.00
42.3724 1130.00
42.4376 1138.00
42.5028 1110.00
42.568 1154.00
42.6332 1008.00
42.6983 1067.00
42.7635 1083.00
42.8287 1064.00
42.8939 1044.00
42.9591 1043.00
43.0243 1083.00
43.0895 1099.00
43.1547 1114.00
43.2199 1277.00
43.2851 1287.00
43.3503 1278.00
43.4155 1308.00
43.4807 1265.00
43.5459 1341.00
43.6111 1355.00
43.6763 1393.00
43.7415 1386.00
43.8067 1299.00
43.8719 1292.00
43.9371 1156.00
44.0023 1043.00
44.0675 1019.00
44.1327 1002.00
44.1979 937.00
44.2631 936.00
44.3283 947.00
44.3935 1007.00
44.4587 899.00
44.5239 956.00
44.5891 856.00
44.6543 914.00
44.7195 831.00
44.7847 907.00
44.8499 831.00
44.9151 866.00
44.9803 860.00
45.0455 901.00
45.1107 909.00
45.1759 899.00
45.2411 976.00
45.3063 922.00
45.3715 1048.00
45.4367 1065.00
45.5019 1173.00
45.5671 1470.00
45.6323 1622.00
45.6975 1810.00
45.7627 1961.00
45.8279 1787.00
45.8931 1700.00
45.9583 1403.00
46.0235 1267.00
46.0887 1166.00
46.1539 1120.00
46.2191 1148.00
46.2843 1091.00
46.3495 1175.00
46.4147 1202.00
46.4799 1184.00
46.5451 1268.00
46.6103 1348.00
46.6755 1345.00
46.7407 1326.00
46.8059 1230.00
46.8711 1148.00
46.9363 1061.00
47.0015 996.00
47.0667 914.00
47.1319 885.00
47.1971 961.00
47.2623 944.00
47.3275 1073.00
47.3927 1136.00
47.4579 1149.00
47.523 1293.00
47.5882 1173.00
47.6534 1295.00
47.7186 1198.00
47.7838 1113.00
47.849 1028.00
47.9142 1056.00
47.9794 1043.00
48.0446 1097.00
48.1098 1130.00
48.175 1095.00
48.2402 1312.00
48.3054 1465.00
48.3706 1702.00
48.4358 1900.00
48.501 2117.00
48.5662 2168.00
48.6314 2381.00
48.6966 2364.00
48.7618 2376.00
48.827 2243.00
48.8922 1931.00
48.9574 1634.00
49.0226 1468.00
49.0878 1255.00
49.153 1160.00
49.2182 1163.00
49.2834 1110.00
49.3486 1054.00
49.4138 1068.00
49.479 1003.00
49.5442 1030.00
49.6094 994.00
49.6746 974.00
49.7398 899.00
49.805 958.00
49.8702 930.00
49.9354 915.00
50.0006 909.00
50.0658 870.00
50.131 845.00
50.1962 876.00
50.2614 852.00
50.3266 821.00
50.3918 876.00
50.457 802.00
50.5222 807.00
50.5874 822.00
50.6526 806.00
50.7178 832.00
50.783 808.00
50.8482 824.00
50.9134 812.00
50.9786 838.00
51.0438 862.00
51.109 823.00
51.1742 837.00
51.2394 850.00
51.3046 919.00
51.3698 848.00
51.435 880.00
51.5002 957.00
51.5654 865.00
51.6306 958.00
51.6958 876.00
51.761 1008.00
51.8262 1004.00
51.8914 1068.00
51.9566 1297.00
52.0218 1621.00
52.087 1730.00
52.1522 1945.00
52.2174 2097.00
52.2826 2234.00
52.3477 2218.00
52.4129 2128.00
52.4781 2068.00
52.5433 1877.00
52.6085 1661.00
52.6737 1493.00
52.7389 1259.00
52.8041 1182.00
52.8693 1102.00
52.9345 984.00
52.9997 898.00
53.0649 886.00
53.1301 892.00
53.1953 803.00
53.2605 796.00
53.3257 794.00
53.3909 855.00
53.4561 778.00
53.5213 819.00
53.5865 831.00
53.6517 771.00
53.7169 778.00
53.7821 824.00
53.8473 804.00
53.9125 831.00
53.9777 863.00
54.0429 777.00
54.1081 810.00
54.1733 832.00
54.2385 852.00
54.3037 839.00
54.3689 825.00
54.4341 833.00
54.4993 783.00
54.5645 879.00
54.6297 878.00
54.6949 865.00
54.7601 882.00
54.8253 1006.00
54.8905 1056.00
54.9557 1106.00
55.0209 1216.00
55.0861 1212.00
55.1513 1292.00
55.2165 1193.00
55.2817 1324.00
55.3469 1237.00
55.4121 1377.00
55.4773 1323.00
55.5425 1480.00
55.6077 1477.00
55.6729 1424.00
55.7381 1432.00
55.8033 1481.00
55.8685 1506.00
55.9337 1483.00
55.9989 1630.00
56.0641 1714.00
56.1293 1690.00
56.1945 1736.00
56.2597 1740.00
56.3249 1536.00
56.3901 1476.00
56.4553 1371.00
56.5205 1148.00
56.5857 1092.00
56.6509 1035.00
56.7161 879.00
56.7813 934.00
56.8465 916.00
56.9117 932.00
56.9769 906.00
57.042 928.00
57.1073 927.00
57.1724 925.00
57.2376 887.00
57.3028 906.00
57.368 869.00
57.4332 881.00
57.4984 872.00
57.5636 901.00
57.6288 861.00
57.694 932.00
57.7592 944.00
57.8244 853.00
57.8896 833.00
57.9548 849.00
58.02 794.00
58.0852 868.00
58.1504 743.00
58.2156 768.00
58.2808 804.00
58.346 762.00
58.4112 787.00
58.4764 803.00
58.5416 795.00
58.6068 778.00
58.672 759.00
58.7372 789.00
58.8024 841.00
58.8676 784.00
58.9328 795.00
58.998 896.00
59.0632 904.00
59.1284 948.00
59.1936 958.00
59.2588 966.00
59.324 1049.00
59.3892 1039.00
59.4544 1030.00
59.5196 1014.00
59.5848 978.00
59.65 972.00
59.7152 905.00
59.7804 836.00
59.8456 876.00
59.9108 845.00
59.976 822.00
60.0412 860.00
60.1064 799.00
60.1716 784.00
60.2368 769.00
60.302 786.00
60.3672 801.00
60.4324 831.00
60.4976 878.00
60.5628 888.00
60.628 1005.00
60.6932 1117.00
60.7584 1210.00
60.8236 1313.00
60.8888 1328.00
60.954 1328.00
61.0192 1306.00
61.0844 1347.00
61.1496 1226.00
61.2148 1195.00
61.28 1195.00
61.3452 1227.00
61.4104 1235.00
61.4756 1204.00
61.5408 1183.00
61.606 1203.00
61.6712 1230.00
61.7364 1218.00
61.8016 1262.00
61.8667 1235.00
61.932 1371.00
61.9971 1394.00
62.0623 1305.00
62.1275 1324.00
62.1927 1248.00
62.2579 1129.00
62.3231 1139.00
62.3883 1088.00
62.4535 1043.00
62.5187 895.00
62.5839 929.00
62.6491 934.00
62.7143 908.00
62.7795 878.00
62.8447 903.00
62.9099 882.00
62.9751 797.00
63.0403 827.00
63.1055 842.00
63.1707 871.00
63.2359 971.00
63.3011 950.00
63.3663 1123.00
63.4315 1049.00
63.4967 1078.00
63.5619 1156.00
63.6271 1180.00
63.6923 1177.00
63.7575 1153.00
63.8227 1200.00
63.8879 1093.00
63.9531 1076.00
64.0183 1033.00
64.0835 1022.00
64.1487 1108.00
64.2139 1124.00
64.2791 1087.00
64.3443 1138.00
64.4095 1087.00
64.4747 1116.00
64.5399 1024.00
64.6051 1077.00
64.6703 1083.00
64.7355 1109.00
64.8007 1011.00
64.8659 1085.00
64.9311 1087.00
64.9963 1030.00
65.0615 1031.00
65.1267 1049.00
65.1919 961.00
65.2571 942.00
65.3223 890.00
65.3875 809.00
65.4527 827.00
65.5179 762.00
65.5831 756.00
65.6483 742.00
65.7135 745.00
65.7787 720.00
65.8439 798.00
65.9091 770.00
65.9743 820.00
66.0395 829.00
66.1047 838.00
66.1699 898.00
66.2351 828.00
66.3003 816.00
66.3655 842.00
66.4307 854.00
66.4959 868.00
66.561 816.00
66.6263 891.00
66.6915 855.00
66.7566 845.00
66.8218 784.00
66.887 836.00
66.9522 866.00
67.0174 854.00
67.0826 864.00
67.1478 854.00
67.213 942.00
67.2782 978.00
67.3434 964.00
67.4086 1012.00
67.4738 1049.00
67.539 1014.00
67.6042 1043.00
67.6694 1046.00
67.7346 972.00
67.7998 1002.00
67.865 951.00
67.9302 828.00
67.9954 857.00
68.0606 870.00
68.1258 896.00
68.191 921.00
68.2562 909.00
68.3214 869.00
68.3866 923.00
68.4518 872.00
68.517 927.00
68.5822 901.00
68.6474 939.00
68.7126 994.00
68.7778 949.00
68.843 953.00
68.9082 990.00
68.9734 962.00
69.0386 914.00
69.1038 958.00
69.169 907.00
69.2342 856.00
69.2994 881.00
69.3646 780.00
69.4298 788.00
69.495 755.00
69.5602 755.00
69.6254 808.00
69.6906 797.00
69.7558 828.00
69.821 830.00
69.8862 814.00
69.9514 788.00
70.0166 768.00
70.0818 803.00
70.147 775.00
70.2122 741.00
70.2774 735.00
70.3426 708.00
70.4078 726.00
70.473 761.00
70.5382 700.00
70.6034 679.00
70.6686 734.00
70.7338 704.00
70.799 731.00
70.8642 685.00
70.9294 716.00
70.9946 726.00
71.0598 732.00
71.125 827.00
71.1902 777.00
71.2554 850.00
71.3205 822.00
71.3858 858.00
71.451 902.00
71.5162 910.00
71.5813 834.00
71.6465 891.00
71.7117 879.00
71.7769 848.00
71.8421 860.00
71.9073 837.00
71.9725 884.00
72.0377 972.00
72.1029 926.00
72.1681 928.00
72.2333 918.00
72.2985 895.00
72.3637 905.00
72.4289 909.00
72.4941 882.00
72.5593 761.00
72.6245 815.00
72.6897 751.00
72.7549 778.00
72.8201 766.00
72.8853 743.00
72.9505 720.00
73.0157 666.00
73.0809 733.00
73.1461 685.00
73.2113 707.00
73.2765 708.00
73.3417 721.00
73.4069 730.00
73.4721 694.00
73.5373 694.00
73.6025 654.00
73.6677 648.00
73.7329 662.00
73.7981 665.00
73.8633 696.00
73.9285 700.00
73.9937 670.00
74.0589 681.00
74.1241 646.00
74.1893 653.00
74.2545 682.00
74.3197 676.00
74.3849 682.00
74.4501 666.00
74.5153 717.00
74.5805 681.00
74.6457 671.00
74.7109 715.00
74.7761 787.00
74.8413 795.00
74.9065 877.00
74.9717 977.00
75.0369 976.00
75.1021 1024.00
75.1673 1015.00
75.2325 994.00
75.2977 1022.00
75.3629 932.00
75.4281 986.00
75.4933 814.00
75.5585 833.00
75.6237 921.00
75.6889 856.00
75.7541 876.00
75.8193 879.00
75.8845 871.00
75.9497 874.00
76.0149 907.00
76.0801 914.00
76.1452 918.00
76.2104 968.00
76.2756 928.00
76.3409 902.00
76.406 867.00
76.4712 857.00
76.5364 808.00
76.6016 840.00
76.6668 802.00
76.732 848.00
76.7972 836.00
76.8624 803.00
76.9276 772.00
76.9928 803.00
77.058 748.00
77.1232 733.00
77.1884 730.00
77.2536 726.00
77.3188 718.00
77.384 723.00
77.4492 695.00
77.5144 700.00
77.5796 641.00
77.6448 706.00
77.71 659.00
77.7752 721.00
77.8404 691.00
77.9056 699.00
77.9708 656.00
78.036 654.00
78.1012 703.00
78.1664 771.00
78.2316 709.00
78.2968 717.00
78.362 661.00
78.4272 710.00
78.4924 675.00
78.5576 761.00
78.6228 710.00
78.688 800.00
78.7532 774.00
78.8184 776.00
78.8836 744.00
78.9488 764.00
79.014 738.00
79.0792 719.00
79.1444 704.00
79.2096 756.00
79.2748 699.00
79.34 841.00
79.4052 719.00
79.4704 805.00
79.5356 799.00
79.6008 798.00
79.666 833.00
79.7312 790.00
79.7964 790.00
79.8616 798.00
79.9268 824.00
79.992 803.00
80.0572 781.00
80.1224 795.00
80.1876 829.00
80.2528 705.00
80.318 741.00
80.3832 705.00
80.4484 759.00
80.5136 727.00
80.5788 678.00
80.644 745.00
80.7092 716.00
80.7744 725.00
80.8396 710.00
80.9048 717.00
80.9699 731.00
81.0351 700.00
81.1003 692.00
81.1655 698.00
81.2307 728.00
81.2959 681.00
81.3611 611.00
81.4263 683.00
81.4915 634.00
81.5567 668.00
81.6219 736.00
81.6871 700.00
81.7523 685.00
81.8175 744.00
81.8827 696.00
81.9479 674.00
82.0131 721.00
82.0783 784.00
82.1435 713.00
82.2087 795.00
82.2739 755.00
82.3391 823.00
82.4043 824.00
82.4695 776.00
82.5347 828.00
82.5999 821.00
82.6651 802.00
82.7303 767.00
82.7955 814.00
82.8607 753.00
82.9259 708.00
82.9911 790.00
83.0563 686.00
83.1215 720.00
83.1867 661.00
83.2519 740.00
83.3171 707.00
83.3823 700.00
83.4475 707.00
83.5127 717.00
83.5779 718.00
83.6431 716.00
83.7083 733.00
83.7735 749.00
83.8387 752.00
83.9039 802.00
83.9691 749.00
84.0343 776.00
84.0995 789.00
84.1647 774.00
84.2299 747.00
84.2951 697.00
84.3603 765.00
84.4255 756.00
84.4907 749.00
84.5559 738.00
84.6211 782.00
84.6863 750.00
84.7515 718.00
84.8167 798.00
84.8819 767.00
84.9471 747.00
85.0123 780.00
85.0775 768.00
85.1427 798.00
85.2079 777.00
85.2731 718.00
85.3383 738.00
85.4035 712.00
85.4687 769.00
85.5339 790.00
85.5991 742.00
85.6643 708.00
85.7295 742.00
85.7946 724.00
85.8598 767.00
85.925 744.00
85.9903 763.00
86.0554 705.00
86.1206 766.00
86.1858 723.00
86.251 772.00
86.3162 788.00
86.3814 784.00
86.4466 767.00
86.5118 829.00
86.577 737.00
86.6422 717.00
86.7074 716.00
86.7726 735.00
86.8378 726.00
86.903 772.00
86.9682 684.00
87.0334 711.00
87.0986 699.00
87.1638 668.00
87.229 708.00
87.2942 687.00
87.3594 711.00
87.4246 635.00
87.4898 672.00
87.555 706.00
87.6202 707.00
87.6854 695.00
87.7506 656.00
87.8158 627.00
87.881 715.00
87.9462 710.00
88.0114 687.00
88.0766 724.00
88.1418 684.00
88.207 724.00
88.2722 702.00
88.3374 754.00
88.4026 752.00
88.4678 620.00
88.533 681.00
88.5982 710.00
88.6634 670.00
88.7286 779.00
88.7938 722.00
88.859 753.00
88.9242 737.00
88.9894 734.00
89.0546 733.00
89.1198 741.00
89.185 735.00
89.2502 704.00
89.3154 738.00
89.3806 789.00
89.4458 756.00
89.511 791.00
89.5762 751.00
89.6414 733.00
89.7066 712.00
89.7718 741.00
89.837 767.00
89.9022 766.00
89.9674 767.00
90.0326 737.00
90.0978 788.00
90.163 808.00
90.2282 718.00
90.2934 775.00
90.3586 849.00
90.4238 851.00
90.489 848.00
90.5542 852.00
90.6193 791.00
90.6845 934.00
90.7497 828.00
90.8149 844.00
90.8801 907.00
90.9453 882.00
91.0105 872.00
91.0757 821.00
91.1409 916.00
91.2061 879.00
91.2713 918.00
91.3365 799.00
91.4017 851.00
91.4669 787.00
91.5321 727.00
91.5973 757.00
91.6625 719.00
91.7277 745.00
91.7929 771.00
91.8581 725.00
91.9233 712.00
91.9885 697.00
92.0537 670.00
92.1189 637.00
92.1841 687.00
92.2493 709.00
92.3145 707.00
92.3797 672.00
92.4449 689.00
92.5101 692.00
92.5753 664.00
92.6405 712.00
92.7057 731.00
92.7709 701.00
92.8361 670.00
92.9013 734.00
92.9665 748.00
93.0317 741.00
93.0969 744.00
93.1621 783.00
93.2273 735.00
93.2925 801.00
93.3577 780.00
93.4229 721.00
93.4881 794.00
93.5533 721.00
93.6185 710.00
93.6837 691.00
93.7489 748.00
93.8141 720.00
93.8793 784.00
93.9445 729.00
94.0097 699.00
94.0749 722.00
94.1401 731.00
94.2053 667.00
94.2705 652.00
94.3357 701.00
94.4009 695.00
94.4661 668.00
94.5313 638.00
94.5965 684.00
94.6617 720.00
94.7269 632.00
94.7921 628.00
94.8573 702.00
94.9225 710.00
94.9877 636.00
95.0529 606.00
95.1181 653.00
95.1833 685.00
95.2485 768.00
95.3137 707.00
95.3789 679.00
95.444 679.00
95.5092 756.00
95.5744 701.00
95.6396 678.00
95.7048 718.00
95.77 756.00
95.8352 746.00
95.9004 766.00
95.9656 689.00
96.0308 790.00
96.096 804.00
96.1612 740.00
96.2264 724.00
96.2916 730.00
96.3568 698.00
96.422 775.00
96.4872 797.00
96.5524 759.00
96.6176 815.00
96.6828 781.00
96.748 831.00
96.8132 829.00
96.8784 797.00
96.9436 833.00
97.0088 817.00
97.074 825.00
97.1392 798.00
97.2044 821.00
97.2696 814.00
97.3348 756.00
97.4 758.00
97.4652 791.00
97.5304 822.00
97.5956 782.00
97.6608 771.00
97.726 815.00
97.7912 790.00
97.8564 828.00
97.9216 769.00
97.9868 764.00
98.052 774.00
98.1172 717.00
98.1824 734.00
98.2476 771.00
98.3128 726.00
98.378 685.00
98.4432 725.00
98.5084 657.00
98.5736 667.00
98.6388 743.00
98.704 653.00
98.7692 715.00
98.8344 619.00
98.8996 618.00
98.9648 654.00
99.03 663.00
99.0952 652.00
99.1604 652.00
99.2256 674.00
99.2908 622.00
99.356 632.00
99.4212 583.00
99.4864 665.00
99.5516 729.00
99.6168 678.00
99.682 640.00
99.7472 656.00
99.8124 665.00
99.8776 676.00
99.9428 655.00
100.008 618.00
100.073 676.00
100.095 637.00