File: data/xrd_creation/results/NSC_99.xy
9.903433 2705.00
9.968632 2598.00
10.0338 2673.00
10.099 2670.00
10.1642 2576.00
10.2294 2616.00
10.2946 2568.00
10.3598 2532.00
10.425 2574.00
10.4902 2520.00
10.5554 2510.00
10.6206 2378.00
10.6858 2435.00
10.751 2354.00
10.8162 2347.00
10.8814 2359.00
10.9466 2318.00
11.0118 2352.00
11.077 2305.00
11.1422 2261.00
11.2074 2267.00
11.2726 2204.00
11.3378 2284.00
11.403 2140.00
11.4682 2171.00
11.5334 2164.00
11.5986 2171.00
11.6638 2066.00
11.729 2031.00
11.7942 2077.00
11.8594 2094.00
11.9246 2067.00
11.9898 2061.00
12.055 2076.00
12.1202 2027.00
12.1854 2083.00
12.2506 1952.00
12.3158 1998.00
12.381 2003.00
12.4462 1925.00
12.5114 1826.00
12.5766 1979.00
12.6418 1873.00
12.707 1930.00
12.7722 1837.00
12.8374 1871.00
12.9026 1771.00
12.9678 1843.00
13.033 1840.00
13.0982 1777.00
13.1634 1773.00
13.2286 1833.00
13.2938 1693.00
13.359 1782.00
13.4242 1837.00
13.4894 1747.00
13.5546 1761.00
13.6198 1716.00
13.685 1694.00
13.7502 1787.00
13.8154 1682.00
13.8805 1651.00
13.9457 1693.00
14.0109 1681.00
14.0761 1735.00
14.1413 1692.00
14.2065 1798.00
14.2717 1801.00
14.3369 1786.00
14.4021 1879.00
14.4673 1883.00
14.5325 2035.00
14.5977 2301.00
14.6629 2653.00
14.7281 2084.00
14.7933 1685.00
14.8585 1612.00
14.9237 1619.00
14.9889 1663.00
15.0541 1691.00
15.1193 1522.00
15.1845 1576.00
15.2497 1607.00
15.3149 1526.00
15.3801 1522.00
15.4453 1518.00
15.5105 1551.00
15.5757 1450.00
15.6409 1515.00
15.7061 1513.00
15.7713 1484.00
15.8365 1533.00
15.9017 1487.00
15.9669 1519.00
16.0321 1473.00
16.0973 1488.00
16.1625 1494.00
16.2277 1523.00
16.2929 1432.00
16.3581 1431.00
16.4233 1482.00
16.4885 1449.00
16.5537 1439.00
16.6189 1523.00
16.6841 1362.00
16.7493 1451.00
16.8145 1461.00
16.8797 1393.00
16.9449 1401.00
17.0101 1378.00
17.0753 1484.00
17.1405 1426.00
17.2057 1421.00
17.2709 1399.00
17.3361 1432.00
17.4013 1462.00
17.4665 1477.00
17.5317 1330.00
17.5969 1377.00
17.6621 1403.00
17.7273 1254.00
17.7925 1404.00
17.8577 1346.00
17.9229 1386.00
17.9881 1324.00
18.0533 1306.00
18.1185 1345.00
18.1837 1353.00
18.2489 1299.00
18.3141 1268.00
18.3793 1354.00
18.4445 1326.00
18.5097 1278.00
18.5749 1257.00
18.6401 1251.00
18.7052 1319.00
18.7704 1270.00
18.8356 1332.00
18.9008 1171.00
18.966 1323.00
19.0312 1308.00
19.0964 1344.00
19.1616 1270.00
19.2268 1298.00
19.292 1236.00
19.3572 1233.00
19.4224 1298.00
19.4876 1310.00
19.5528 1299.00
19.618 1404.00
19.6832 1419.00
19.7484 1480.00
19.8136 1584.00
19.8788 1641.00
19.944 1881.00
20.0092 2683.00
20.0744 3868.00
20.1396 5466.00
20.2048 3804.00
20.27 1868.00
20.3352 1438.00
20.4004 1434.00
20.4656 1369.00
20.5308 1461.00
20.596 1540.00
20.6612 1581.00
20.7264 1615.00
20.7916 1622.00
20.8568 1709.00
20.922 1798.00
20.9872 2423.00
21.0524 3656.00
21.1176 5315.00
21.1828 5989.00
21.248 3187.00
21.3132 1635.00
21.3784 1367.00
21.4436 1291.00
21.5088 1201.00
21.574 1147.00
21.6392 1229.00
21.7044 1285.00
21.7696 1264.00
21.8348 1318.00
21.9 1201.00
21.9652 1147.00
22.0304 1161.00
22.0956 1196.00
22.1608 1124.00
22.226 1048.00
22.2912 1111.00
22.3564 1123.00
22.4216 1083.00
22.4868 1105.00
22.552 1086.00
22.6172 1125.00
22.6824 1090.00
22.7476 1071.00
22.8128 1094.00
22.878 1086.00
22.9432 1053.00
23.0084 1090.00
23.0736 1108.00
23.1388 1053.00
23.204 1051.00
23.2692 1111.00
23.3344 1146.00
23.3996 1053.00
23.4647 1120.00
23.5299 1060.00
23.5951 1044.00
23.6603 1133.00
23.7255 1089.00
23.7907 1051.00
23.8559 1182.00
23.9211 1299.00
23.9863 1308.00
24.0515 1365.00
24.1167 1445.00
24.1819 1910.00
24.2471 2901.00
24.3123 4163.00
24.3775 3350.00
24.4427 1754.00
24.5079 1151.00
24.5731 1115.00
24.6383 1117.00
24.7035 1004.00
24.7687 1083.00
24.8339 1036.00
24.8991 1010.00
24.9643 1023.00
25.0295 1027.00
25.0947 1012.00
25.1599 945.00
25.2251 951.00
25.2903 974.00
25.3555 958.00
25.4207 989.00
25.4859 939.00
25.5511 974.00
25.6163 936.00
25.6815 965.00
25.7467 972.00
25.8119 977.00
25.8771 916.00
25.9423 956.00
26.0075 952.00
26.0727 960.00
26.1379 994.00
26.2031 951.00
26.2683 1022.00
26.3335 1078.00
26.3987 1094.00
26.4639 1306.00
26.5291 1220.00
26.5943 1416.00
26.6595 1573.00
26.7247 2346.00
26.7899 3883.00
26.8551 6442.00
26.9203 6998.00
26.9855 3962.00
27.0507 1805.00
27.1159 1216.00
27.1811 1093.00
27.2463 1061.00
27.3115 943.00
27.3767 927.00
27.4419 921.00
27.5071 888.00
27.5723 908.00
27.6375 846.00
27.7027 902.00
27.7679 902.00
27.8331 870.00
27.8983 887.00
27.9635 847.00
28.0287 907.00
28.0939 842.00
28.1591 892.00
28.2243 936.00
28.2894 854.00
28.3546 912.00
28.4198 826.00
28.485 834.00
28.5502 869.00
28.6154 890.00
28.6806 923.00
28.7458 964.00
28.811 907.00
28.8762 943.00
28.9414 1055.00
29.0066 1147.00
29.0718 1550.00
29.137 2368.00
29.2022 3685.00
29.2674 3990.00
29.3326 2295.00
29.3978 1259.00
29.463 944.00
29.5282 927.00
29.5934 869.00
29.6586 892.00
29.7238 808.00
29.789 838.00
29.8542 773.00
29.9194 794.00
29.9846 832.00
30.0498 814.00
30.115 858.00
30.1802 809.00
30.2454 797.00
30.3106 761.00
30.3758 775.00
30.441 709.00
30.5062 734.00
30.5714 764.00
30.6366 791.00
30.7018 747.00
30.767 734.00
30.8322 810.00
30.8974 819.00
30.9626 778.00
31.0278 805.00
31.093 764.00
31.1582 785.00
31.2234 746.00
31.2886 774.00
31.3538 788.00
31.419 821.00
31.4842 808.00
31.5494 855.00
31.6146 936.00
31.6798 948.00
31.745 1060.00
31.8102 1164.00
31.8754 1514.00
31.9406 2212.00
32.0058 4210.00
32.071 6126.00
32.1362 4461.00
32.2014 2430.00
32.2666 1214.00
32.3318 979.00
32.397 907.00
32.4622 926.00
32.5274 925.00
32.5926 1094.00
32.6578 1170.00
32.723 1032.00
32.7882 876.00
32.8534 773.00
32.9186 776.00
32.9838 772.00
33.0489 809.00
33.1141 788.00
33.1793 777.00
33.2445 712.00
33.3097 755.00
33.3749 807.00
33.4401 794.00
33.5053 764.00
33.5705 763.00
33.6357 810.00
33.7009 880.00
33.7661 919.00
33.8313 969.00
33.8965 1079.00
33.9617 1332.00
34.0269 2230.00
34.0921 4010.00
34.1573 6540.00
34.2225 5609.00
34.2877 3428.00
34.3529 1749.00
34.4181 1271.00
34.4833 1002.00
34.5485 924.00
34.6137 758.00
34.6789 751.00
34.7441 669.00
34.8093 757.00
34.8745 656.00
34.9397 664.00
35.0049 681.00
35.0701 705.00
35.1353 749.00
35.2005 701.00
35.2657 685.00
35.3309 682.00
35.3961 656.00
35.4613 683.00
35.5265 706.00
35.5917 694.00
35.6569 670.00
35.7221 692.00
35.7873 730.00
35.8525 731.00
35.9177 754.00
35.9829 770.00
36.0481 906.00
36.1133 1221.00
36.1785 1943.00
36.2437 2393.00
36.3089 1773.00
36.3741 1227.00
36.4393 871.00
36.5045 835.00
36.5697 921.00
36.6349 1120.00
36.7001 1438.00
36.7653 2276.00
36.8305 2931.00
36.8957 2426.00
36.9609 1683.00
37.0261 891.00
37.0913 685.00
37.1565 795.00
37.2217 687.00
37.2869 664.00
37.3521 652.00
37.4173 701.00
37.4825 639.00
37.5477 619.00
37.6129 619.00
37.6781 657.00
37.7433 593.00
37.8085 607.00
37.8736 684.00
37.9388 674.00
38.004 767.00
38.0692 925.00
38.1344 1200.00
38.1996 1758.00
38.2648 2253.00
38.33 1719.00
38.3952 1162.00
38.4604 799.00
38.5256 680.00
38.5908 677.00
38.656 678.00
38.7212 672.00
38.7864 717.00
38.8516 815.00
38.9168 692.00
38.982 606.00
39.0472 606.00
39.1124 635.00
39.1776 732.00
39.2428 876.00
39.308 871.00
39.3732 731.00
39.4384 622.00
39.5036 622.00
39.5688 580.00
39.634 517.00
39.6992 500.00
39.7644 534.00
39.8296 536.00
39.8948 540.00
39.96 547.00
40.0252 516.00
40.0904 535.00
40.1556 537.00
40.2208 542.00
40.286 533.00
40.3512 567.00
40.4164 580.00
40.4816 632.00
40.5468 867.00
40.612 912.00
40.6772 800.00
40.7424 724.00
40.8076 590.00
40.8728 557.00
40.938 485.00
41.0032 517.00
41.0684 530.00
41.1336 545.00
41.1988 528.00
41.264 498.00
41.3292 519.00
41.3944 521.00
41.4596 491.00
41.5248 540.00
41.59 534.00
41.6552 539.00
41.7204 519.00
41.7856 549.00
41.8508 513.00
41.916 494.00
41.9812 544.00
42.0464 667.00
42.1116 852.00
42.1768 1076.00
42.242 1055.00
42.3072 871.00
42.3724 714.00
42.4376 643.00
42.5028 621.00
42.568 652.00
42.6332 727.00
42.6983 931.00
42.7635 989.00
42.8287 907.00
42.8939 820.00
42.9591 685.00
43.0243 670.00
43.0895 575.00
43.1547 608.00
43.2199 573.00
43.2851 551.00
43.3503 560.00
43.4155 508.00
43.4807 523.00
43.5459 479.00
43.6111 530.00
43.6763 498.00
43.7415 512.00
43.8067 568.00
43.8719 556.00
43.9371 484.00
44.0023 544.00
44.0675 560.00
44.1327 654.00
44.1979 819.00
44.2631 1178.00
44.3283 1457.00
44.3935 1046.00
44.4587 848.00
44.5239 592.00
44.5891 570.00
44.6543 533.00
44.7195 504.00
44.7847 503.00
44.8499 475.00
44.9151 452.00
44.9803 467.00
45.0455 507.00
45.1107 497.00
45.1759 568.00
45.2411 585.00
45.3063 675.00
45.3715 650.00
45.4367 557.00
45.5019 515.00
45.5671 492.00
45.6323 466.00
45.6975 506.00
45.7627 523.00
45.8279 536.00
45.8931 610.00
45.9583 780.00
46.0235 1148.00
46.0887 1561.00
46.1539 1231.00
46.2191 1028.00
46.2843 675.00
46.3495 556.00
46.4147 495.00
46.4799 492.00
46.5451 480.00
46.6103 436.00
46.6755 503.00
46.7407 564.00
46.8059 438.00
46.8711 461.00
46.9363 452.00
47.0015 452.00
47.0667 524.00
47.1319 505.00
47.1971 544.00
47.2623 561.00
47.3275 585.00
47.3927 817.00
47.4579 1222.00
47.523 1928.00
47.5882 2101.00
47.6534 1562.00
47.7186 1260.00
47.7838 768.00
47.849 588.00
47.9142 478.00
47.9794 477.00
48.0446 481.00
48.1098 458.00
48.175 466.00
48.2402 474.00
48.3054 476.00
48.3706 472.00
48.4358 451.00
48.501 505.00
48.5662 481.00
48.6314 460.00
48.6966 542.00
48.7618 540.00
48.827 550.00
48.8922 532.00
48.9574 502.00
49.0226 578.00
49.0878 565.00
49.153 595.00
49.2182 572.00
49.2834 708.00
49.3486 1084.00
49.4138 1736.00
49.479 2282.00
49.5442 1663.00
49.6094 1403.00
49.6746 866.00
49.7398 571.00
49.805 521.00
49.8702 482.00
49.9354 488.00
50.0006 464.00
50.0658 402.00
50.131 455.00
50.1962 457.00
50.2614 485.00
50.3266 622.00
50.3918 692.00
50.457 632.00
50.5222 579.00
50.5874 507.00
50.6526 480.00
50.7178 491.00
50.783 521.00
50.8482 467.00
50.9134 413.00
50.9786 430.00
51.0438 438.00
51.109 472.00
51.1742 473.00
51.2394 472.00
51.3046 476.00
51.3698 509.00
51.435 517.00
51.5002 479.00
51.5654 559.00
51.6306 572.00
51.6958 654.00
51.761 749.00
51.8262 917.00
51.8914 1273.00
51.9566 2452.00
52.0218 4747.00
52.087 4975.00
52.1522 3713.00
52.2174 3111.00
52.2826 1681.00
52.3477 1333.00
52.4129 1647.00
52.4781 2220.00
52.5433 1810.00
52.6085 1486.00
52.6737 1074.00
52.7389 708.00
52.8041 567.00
52.8693 530.00
52.9345 467.00
52.9997 487.00
53.0649 520.00
53.1301 485.00
53.1953 506.00
53.2605 533.00
53.3257 573.00
53.3909 549.00
53.4561 472.00
53.5213 463.00
53.5865 412.00
53.6517 460.00
53.7169 391.00
53.7821 442.00
53.8473 447.00
53.9125 406.00
53.9777 427.00
54.0429 397.00
54.1081 466.00
54.1733 424.00
54.2385 428.00
54.3037 444.00
54.3689 433.00
54.4341 426.00
54.4993 437.00
54.5645 496.00
54.6297 514.00
54.6949 557.00
54.7601 529.00
54.8253 532.00
54.8905 621.00
54.9557 1013.00
55.0209 1535.00
55.0861 1352.00
55.1513 1118.00
55.2165 974.00
55.2817 612.00
55.3469 523.00
55.4121 502.00
55.4773 467.00
55.5425 490.00
55.6077 464.00
55.6729 594.00
55.7381 826.00
55.8033 930.00
55.8685 774.00
55.9337 717.00
55.9989 623.00
56.0641 467.00
56.1293 476.00
56.1945 443.00
56.2597 402.00
56.3249 427.00
56.3901 418.00
56.4553 432.00
56.5205 382.00
56.5857 427.00
56.6509 408.00
56.7161 455.00
56.7813 443.00
56.8465 563.00
56.9117 643.00
56.9769 943.00
57.042 1129.00
57.1073 1320.00
57.1724 1036.00
57.2376 1031.00
57.3028 948.00
57.368 1031.00
57.4332 1325.00
57.4984 1659.00
57.5636 1454.00
57.6288 1207.00
57.694 945.00
57.7592 712.00
57.8244 577.00
57.8896 517.00
57.9548 528.00
58.02 810.00
58.0852 968.00
58.1504 753.00
58.2156 768.00
58.2808 662.00
58.346 555.00
58.4112 471.00
58.4764 460.00
58.5416 462.00
58.6068 417.00
58.672 498.00
58.7372 504.00
58.8024 567.00
58.8676 603.00
58.9328 730.00
58.998 735.00
59.0632 702.00
59.1284 673.00
59.1936 554.00
59.2588 464.00
59.324 483.00
59.3892 432.00
59.4544 359.00
59.5196 413.00
59.5848 415.00
59.65 394.00
59.7152 382.00
59.7804 385.00
59.8456 394.00
59.9108 406.00
59.976 407.00
60.0412 392.00
60.1064 451.00
60.1716 514.00
60.2368 569.00
60.302 541.00
60.3672 507.00
60.4324 470.00
60.4976 452.00
60.5628 396.00
60.628 387.00
60.6932 405.00
60.7584 390.00
60.8236 373.00
60.8888 416.00
60.954 405.00
61.0192 435.00
61.0844 413.00
61.1496 420.00
61.2148 443.00
61.28 538.00
61.3452 693.00
61.4104 1048.00
61.4756 1321.00
61.5408 960.00
61.606 954.00
61.6712 898.00
61.7364 574.00
61.8016 540.00
61.8667 501.00
61.932 501.00
61.9971 613.00
62.0623 932.00
62.1275 1324.00
62.1927 1303.00
62.2579 1049.00
62.3231 977.00
62.3883 778.00
62.4535 694.00
62.5187 612.00
62.5839 538.00
62.6491 561.00
62.7143 537.00
62.7795 490.00
62.8447 553.00
62.9099 695.00
62.9751 931.00
63.0403 1295.00
63.1055 1420.00
63.1707 1260.00
63.2359 1314.00
63.3011 1193.00
63.3663 948.00
63.4315 721.00
63.4967 645.00
63.5619 569.00
63.6271 469.00
63.6923 473.00
63.7575 414.00
63.8227 435.00
63.8879 415.00
63.9531 395.00
64.0183 378.00
64.0835 424.00
64.1487 392.00
64.2139 407.00
64.2791 396.00
64.3443 428.00
64.4095 452.00
64.4747 522.00
64.5399 528.00
64.6051 482.00
64.6703 541.00
64.7355 574.00
64.8007 563.00
64.8659 638.00
64.9311 1043.00
64.9963 1503.00
65.0615 1087.00
65.1267 982.00
65.1919 981.00
65.2571 718.00
65.3223 535.00
65.3875 488.00
65.4527 547.00
65.5179 631.00
65.5831 797.00
65.6483 1037.00
65.7135 927.00
65.7787 766.00
65.8439 879.00
65.9091 806.00
65.9743 879.00
66.0395 1004.00
66.1047 1094.00
66.1699 1546.00
66.2351 1846.00
66.3003 1512.00
66.3655 1274.00
66.4307 1155.00
66.4959 835.00
66.561 543.00
66.6263 443.00
66.6915 454.00
66.7566 405.00
66.8218 384.00
66.887 433.00
66.9522 391.00
67.0174 398.00
67.0826 416.00
67.1478 423.00
67.213 416.00
67.2782 516.00
67.3434 677.00
67.4086 821.00
67.4738 780.00
67.539 668.00
67.6042 682.00
67.6694 616.00
67.7346 538.00
67.7998 408.00
67.865 439.00
67.9302 429.00
67.9954 422.00
68.0606 408.00
68.1258 416.00
68.191 372.00
68.2562 400.00
68.3214 368.00
68.3866 374.00
68.4518 382.00
68.517 346.00
68.5822 358.00
68.6474 340.00
68.7126 357.00
68.7778 311.00
68.843 363.00
68.9082 370.00
68.9734 370.00
69.0386 320.00
69.1038 350.00
69.169 369.00
69.2342 363.00
69.2994 384.00
69.3646 384.00
69.4298 394.00
69.495 466.00
69.5602 540.00
69.6254 680.00
69.6906 921.00
69.7558 907.00
69.821 751.00
69.8862 678.00
69.9514 601.00
70.0166 460.00
70.0818 392.00
70.147 394.00
70.2122 370.00
70.2774 330.00
70.3426 330.00
70.4078 334.00
70.473 330.00
70.5382 349.00
70.6034 364.00
70.6686 368.00
70.7338 354.00
70.799 380.00
70.8642 344.00
70.9294 369.00
70.9946 385.00
71.0598 389.00
71.125 479.00
71.1902 518.00
71.2554 545.00
71.3205 520.00
71.3858 542.00
71.451 755.00
71.5162 951.00
71.5813 829.00
71.6465 638.00
71.7117 616.00
71.7769 611.00
71.8421 528.00
71.9073 487.00
71.9725 389.00
72.0377 400.00
72.1029 382.00
72.1681 391.00
72.2333 383.00
72.2985 357.00
72.3637 369.00
72.4289 351.00
72.4941 343.00
72.5593 300.00
72.6245 352.00
72.6897 379.00
72.7549 349.00
72.8201 347.00
72.8853 338.00
72.9505 341.00
73.0157 343.00
73.0809 347.00
73.1461 319.00
73.2113 339.00
73.2765 373.00
73.3417 364.00
73.4069 374.00
73.4721 420.00
73.5373 484.00
73.6025 626.00
73.6677 660.00
73.7329 675.00
73.7981 587.00
73.8633 570.00
73.9285 500.00
73.9937 438.00
74.0589 411.00
74.1241 345.00
74.1893 354.00
74.2545 351.00
74.3197 373.00
74.3849 356.00
74.4501 347.00
74.5153 359.00
74.5805 365.00
74.6457 327.00
74.7109 389.00
74.7761 383.00
74.8413 342.00
74.9065 329.00
74.9717 371.00
75.0369 381.00
75.1021 389.00
75.1673 417.00
75.2325 472.00
75.2977 622.00
75.3629 717.00
75.4281 579.00
75.4933 523.00
75.5585 535.00
75.6237 501.00
75.6889 421.00
75.7541 395.00
75.8193 393.00
75.8845 414.00
75.9497 438.00
76.0149 407.00
76.0801 425.00
76.1452 483.00
76.2104 425.00
76.2756 458.00
76.3409 466.00
76.406 437.00
76.4712 465.00
76.5364 431.00
76.6016 379.00
76.6668 394.00
76.732 379.00
76.7972 342.00
76.8624 357.00
76.9276 339.00
76.9928 338.00
77.058 315.00
77.1232 355.00
77.1884 307.00
77.2536 311.00
77.3188 327.00
77.384 318.00
77.4492 385.00
77.5144 395.00
77.5796 403.00
77.6448 356.00
77.71 435.00
77.7752 462.00
77.8404 505.00
77.9056 617.00
77.9708 560.00
78.036 521.00
78.1012 507.00
78.1664 552.00
78.2316 496.00
78.2968 430.00
78.362 406.00
78.4272 378.00
78.4924 421.00
78.5576 403.00
78.6228 338.00
78.688 403.00
78.7532 432.00
78.8184 522.00
78.8836 794.00
78.9488 1012.00
79.014 967.00
79.0792 709.00
79.1444 779.00
79.2096 778.00
79.2748 611.00
79.34 457.00
79.4052 462.00
79.4704 429.00
79.5356 408.00
79.6008 396.00
79.666 383.00
79.7312 408.00
79.7964 402.00
79.8616 385.00
79.9268 397.00
79.992 384.00
80.0572 414.00
80.1224 374.00
80.1876 356.00
80.2528 346.00
80.318 391.00
80.3832 353.00
80.4484 329.00
80.5136 343.00
80.5788 325.00
80.644 367.00
80.7092 340.00
80.7744 381.00
80.8396 361.00
80.9048 330.00
80.9699 374.00
81.0351 358.00
81.1003 409.00
81.1655 438.00
81.2307 505.00
81.2959 626.00
81.3611 790.00
81.4263 727.00
81.4915 725.00
81.5567 709.00
81.6219 756.00
81.6871 698.00
81.7523 588.00
81.8175 498.00
81.8827 466.00
81.9479 451.00
82.0131 400.00
82.0783 386.00
82.1435 380.00
82.2087 332.00
82.2739 313.00
82.3391 342.00
82.4043 319.00
82.4695 370.00
82.5347 361.00
82.5999 371.00
82.6651 386.00
82.7303 396.00
82.7955 463.00
82.8607 520.00
82.9259 624.00
82.9911 691.00
83.0563 660.00
83.1215 552.00
83.1867 510.00
83.2519 512.00
83.3171 457.00
83.3823 412.00
83.4475 402.00
83.5127 372.00
83.5779 409.00
83.6431 359.00
83.7083 418.00
83.7735 419.00
83.8387 543.00
83.9039 757.00
83.9691 853.00
84.0343 606.00
84.0995 574.00
84.1647 574.00
84.2299 660.00
84.2951 516.00
84.3603 381.00
84.4255 365.00
84.4907 334.00
84.5559 376.00
84.6211 323.00
84.6863 321.00
84.7515 327.00
84.8167 316.00
84.8819 342.00
84.9471 363.00
85.0123 353.00
85.0775 370.00
85.1427 440.00
85.2079 433.00
85.2731 370.00
85.3383 287.00
85.4035 358.00
85.4687 331.00
85.5339 320.00
85.5991 333.00
85.6643 336.00
85.7295 329.00
85.7946 312.00
85.8598 342.00
85.925 340.00
85.9903 357.00
86.0554 345.00
86.1206 352.00
86.1858 345.00
86.251 377.00
86.3162 405.00
86.3814 417.00
86.4466 446.00
86.5118 571.00
86.577 586.00
86.6422 507.00
86.7074 489.00
86.7726 494.00
86.8378 481.00
86.903 453.00
86.9682 384.00
87.0334 345.00
87.0986 339.00
87.1638 356.00
87.229 356.00
87.2942 402.00
87.3594 457.00
87.4246 619.00
87.4898 638.00
87.555 610.00
87.6202 599.00
87.6854 665.00
87.7506 752.00
87.8158 738.00
87.881 646.00
87.9462 644.00
88.0114 599.00
88.0766 552.00
88.1418 528.00
88.207 422.00
88.2722 399.00
88.3374 364.00
88.4026 369.00
88.4678 292.00
88.533 346.00
88.5982 332.00
88.6634 332.00
88.7286 342.00
88.7938 378.00
88.859 394.00
88.9242 415.00
88.9894 383.00
89.0546 383.00
89.1198 349.00
89.185 380.00
89.2502 386.00
89.3154 359.00
89.3806 352.00
89.4458 374.00
89.511 355.00
89.5762 357.00
89.6414 360.00
89.7066 368.00
89.7718 389.00
89.837 493.00
89.9022 579.00
89.9674 806.00
90.0326 929.00
90.0978 722.00
90.163 616.00
90.2282 647.00
90.2934 638.00
90.3586 640.00
90.4238 537.00
90.489 515.00
90.5542 522.00
90.6193 477.00
90.6845 415.00
90.7497 444.00
90.8149 440.00
90.8801 494.00
90.9453 489.00
91.0105 644.00
91.0757 929.00
91.1409 903.00
91.2061 792.00
91.2713 670.00
91.3365 663.00
91.4017 679.00
91.4669 666.00
91.5321 586.00
91.5973 512.00
91.6625 400.00
91.7277 381.00
91.7929 390.00
91.8581 380.00
91.9233 388.00
91.9885 368.00
92.0537 342.00
92.1189 344.00
92.1841 353.00
92.2493 322.00
92.3145 364.00
92.3797 384.00
92.4449 365.00
92.5101 466.00
92.5753 536.00
92.6405 655.00
92.7057 596.00
92.7709 501.00
92.8361 470.00
92.9013 540.00
92.9665 564.00
93.0317 496.00
93.0969 425.00
93.1621 410.00
93.2273 410.00
93.2925 394.00
93.3577 423.00
93.4229 510.00
93.4881 570.00
93.5533 593.00
93.6185 503.00
93.6837 493.00
93.7489 463.00
93.8141 458.00
93.8793 487.00
93.9445 424.00
94.0097 387.00
94.0749 364.00
94.1401 402.00
94.2053 426.00
94.2705 483.00
94.3357 439.00
94.4009 433.00
94.4661 408.00
94.5313 439.00
94.5965 415.00
94.6617 454.00
94.7269 365.00
94.7921 333.00
94.8573 359.00
94.9225 324.00
94.9877 328.00
95.0529 353.00
95.1181 374.00
95.1833 384.00
95.2485 418.00
95.3137 444.00
95.3789 500.00
95.444 451.00
95.5092 425.00
95.5744 438.00
95.6396 418.00
95.7048 445.00
95.77 380.00
95.8352 400.00
95.9004 374.00
95.9656 387.00
96.0308 430.00
96.096 503.00
96.1612 586.00
96.2264 645.00
96.2916 547.00
96.3568 543.00
96.422 529.00
96.4872 549.00
96.5524 528.00
96.6176 490.00
96.6828 411.00
96.748 402.00
96.8132 361.00
96.8784 324.00
96.9436 336.00
97.0088 332.00
97.074 315.00
97.1392 321.00
97.2044 336.00
97.2696 307.00
97.3348 314.00
97.4 351.00
97.4652 311.00
97.5304 317.00
97.5956 332.00
97.6608 389.00
97.726 431.00
97.7912 422.00
97.8564 400.00
97.9216 489.00
97.9868 520.00
98.052 654.00
98.1172 545.00
98.1824 465.00
98.2476 434.00
98.3128 400.00
98.378 488.00
98.4432 432.00
98.5084 398.00
98.5736 365.00
98.6388 376.00
98.704 315.00
98.7692 323.00
98.8344 347.00
98.8996 295.00
98.9648 338.00
99.03 308.00
99.0952 322.00
99.1604 285.00
99.2256 318.00
99.2908 341.00
99.356 287.00
99.4212 310.00
99.4864 352.00
99.5516 280.00
99.6168 346.00
99.682 291.00
99.7472 334.00
99.8124 357.00
99.8776 352.00
99.9428 370.00
100.008 378.00
100.073 492.00
100.095 502.00