File: data/xrd_creation/results/NSC_116.xy
9.903433 2828.00
9.968632 2674.00
10.0338 2834.00
10.099 2770.00
10.1642 2632.00
10.2294 2664.00
10.2946 2605.00
10.3598 2600.00
10.425 2599.00
10.4902 2562.00
10.5554 2616.00
10.6206 2564.00
10.6858 2624.00
10.751 2491.00
10.8162 2491.00
10.8814 2479.00
10.9466 2403.00
11.0118 2518.00
11.077 2587.00
11.1422 2630.00
11.2074 2790.00
11.2726 3051.00
11.3378 3446.00
11.403 3700.00
11.4682 4417.00
11.5334 5153.00
11.5986 6652.00
11.6638 8935.00
11.729 11637.00
11.7942 7973.00
11.8594 6449.00
11.9246 2980.00
11.9898 2399.00
12.055 2405.00
12.1202 2297.00
12.1854 2247.00
12.2506 2283.00
12.3158 2260.00
12.381 2180.00
12.4462 2133.00
12.5114 2175.00
12.5766 2183.00
12.6418 2113.00
12.707 2131.00
12.7722 2053.00
12.8374 2021.00
12.9026 2050.00
12.9678 2010.00
13.033 1965.00
13.0982 1999.00
13.1634 1990.00
13.2286 2009.00
13.2938 1892.00
13.359 1955.00
13.4242 1879.00
13.4894 1938.00
13.5546 1996.00
13.6198 1912.00
13.685 1911.00
13.7502 1974.00
13.8154 1865.00
13.8805 1823.00
13.9457 1807.00
14.0109 1878.00
14.0761 1852.00
14.1413 1915.00
14.2065 1771.00
14.2717 1870.00
14.3369 1845.00
14.4021 1823.00
14.4673 1848.00
14.5325 1904.00
14.5977 1951.00
14.6629 2036.00
14.7281 2081.00
14.7933 2284.00
14.8585 2393.00
14.9237 2434.00
14.9889 2219.00
15.0541 1952.00
15.1193 1888.00
15.1845 1907.00
15.2497 2045.00
15.3149 2038.00
15.3801 2141.00
15.4453 2350.00
15.5105 2906.00
15.5757 2750.00
15.6409 1895.00
15.7061 1843.00
15.7713 1876.00
15.8365 1842.00
15.9017 1792.00
15.9669 1793.00
16.0321 1890.00
16.0973 1984.00
16.1625 2167.00
16.2277 2574.00
16.2929 2813.00
16.3581 3166.00
16.4233 4133.00
16.4885 6003.00
16.5537 7241.00
16.6189 3103.00
16.6841 1945.00
16.7493 1798.00
16.8145 1703.00
16.8797 1744.00
16.9449 1744.00
17.0101 1639.00
17.0753 1606.00
17.1405 1589.00
17.2057 1672.00
17.2709 1624.00
17.3361 1638.00
17.4013 1640.00
17.4665 1605.00
17.5317 1603.00
17.5969 1516.00
17.6621 1619.00
17.7273 1637.00
17.7925 1629.00
17.8577 1763.00
17.9229 1640.00
17.9881 1841.00
18.0533 2082.00
18.1185 2423.00
18.1837 2518.00
18.2489 2278.00
18.3141 1864.00
18.3793 1623.00
18.4445 1670.00
18.5097 1644.00
18.5749 1552.00
18.6401 1509.00
18.7052 1504.00
18.7704 1443.00
18.8356 1461.00
18.9008 1426.00
18.966 1412.00
19.0312 1420.00
19.0964 1468.00
19.1616 1470.00
19.2268 1578.00
19.292 1512.00
19.3572 1451.00
19.4224 1403.00
19.4876 1428.00
19.5528 1425.00
19.618 1445.00
19.6832 1385.00
19.7484 1454.00
19.8136 1307.00
19.8788 1448.00
19.944 1455.00
20.0092 1346.00
20.0744 1544.00
20.1396 1566.00
20.2048 1645.00
20.27 1835.00
20.3352 2134.00
20.4004 2481.00
20.4656 1944.00
20.5308 1401.00
20.596 1410.00
20.6612 1470.00
20.7264 1395.00
20.7916 1398.00
20.8568 1525.00
20.922 1529.00
20.9872 1688.00
21.0524 1920.00
21.1176 1717.00
21.1828 1590.00
21.248 1451.00
21.3132 1397.00
21.3784 1341.00
21.4436 1293.00
21.5088 1310.00
21.574 1262.00
21.6392 1312.00
21.7044 1299.00
21.7696 1351.00
21.8348 1415.00
21.9 1370.00
21.9652 1389.00
22.0304 1472.00
22.0956 1618.00
22.1608 1718.00
22.226 1359.00
22.2912 1275.00
22.3564 1236.00
22.4216 1210.00
22.4868 1228.00
22.552 1223.00
22.6172 1301.00
22.6824 1253.00
22.7476 1244.00
22.8128 1257.00
22.878 1319.00
22.9432 1376.00
23.0084 1320.00
23.0736 1232.00
23.1388 1215.00
23.204 1299.00
23.2692 1320.00
23.3344 1268.00
23.3996 1335.00
23.4647 1379.00
23.5299 1323.00
23.5951 1401.00
23.6603 1302.00
23.7255 1242.00
23.7907 1143.00
23.8559 1199.00
23.9211 1153.00
23.9863 1110.00
24.0515 1180.00
24.1167 1202.00
24.1819 1317.00
24.2471 1254.00
24.3123 1374.00
24.3775 1537.00
24.4427 1807.00
24.5079 1893.00
24.5731 1737.00
24.6383 1874.00
24.7035 2198.00
24.7687 2013.00
24.8339 1474.00
24.8991 1169.00
24.9643 1227.00
25.0295 1258.00
25.0947 1191.00
25.1599 1138.00
25.2251 1211.00
25.2903 1248.00
25.3555 1341.00
25.4207 1344.00
25.4859 1426.00
25.5511 1434.00
25.6163 1306.00
25.6815 1410.00
25.7467 1559.00
25.8119 2002.00
25.8771 2859.00
25.9423 4492.00
26.0075 6973.00
26.0727 6648.00
26.1379 7401.00
26.2031 6275.00
26.2683 2942.00
26.3335 1572.00
26.3987 1364.00
26.4639 1322.00
26.5291 1335.00
26.5943 1377.00
26.6595 1705.00
26.7247 1971.00
26.7899 2117.00
26.8551 2601.00
26.9203 2723.00
26.9855 2101.00
27.0507 1596.00
27.1159 1398.00
27.1811 1339.00
27.2463 1491.00
27.3115 1563.00
27.3767 1426.00
27.4419 1296.00
27.5071 1271.00
27.5723 1354.00
27.6375 1534.00
27.7027 1844.00
27.7679 2599.00
27.8331 4164.00
27.8983 5712.00
27.9635 6076.00
28.0287 4051.00
28.0939 3334.00
28.1591 3708.00
28.2243 3480.00
28.2894 2967.00
28.3546 1931.00
28.4198 1414.00
28.485 1231.00
28.5502 1179.00
28.6154 949.00
28.6806 1050.00
28.7458 1011.00
28.811 941.00
28.8762 1011.00
28.9414 992.00
29.0066 1004.00
29.0718 1015.00
29.137 973.00
29.2022 1020.00
29.2674 969.00
29.3326 882.00
29.3978 956.00
29.463 943.00
29.5282 1037.00
29.5934 1066.00
29.6586 1047.00
29.7238 1028.00
29.789 1022.00
29.8542 1026.00
29.9194 1007.00
29.9846 1124.00
30.0498 1305.00
30.115 1823.00
30.1802 2486.00
30.2454 2433.00
30.3106 2205.00
30.3758 1978.00
30.441 2171.00
30.5062 1902.00
30.5714 1326.00
30.6366 1013.00
30.7018 1016.00
30.767 905.00
30.8322 979.00
30.8974 962.00
30.9626 951.00
31.0278 978.00
31.093 965.00
31.1582 993.00
31.2234 941.00
31.2886 1036.00
31.3538 1185.00
31.419 1476.00
31.4842 2052.00
31.5494 1920.00
31.6146 1568.00
31.6798 1231.00
31.745 1292.00
31.8102 1533.00
31.8754 2106.00
31.9406 2580.00
32.0058 2402.00
32.071 1751.00
32.1362 1348.00
32.2014 1145.00
32.2666 1031.00
32.3318 1139.00
32.397 1332.00
32.4622 1458.00
32.5274 1316.00
32.5926 1239.00
32.6578 1080.00
32.723 1075.00
32.7882 1282.00
32.8534 1673.00
32.9186 2760.00
32.9838 4986.00
33.0489 8943.00
33.1141 7836.00
33.1793 4535.00
33.2445 1812.00
33.3097 1464.00
33.3749 1525.00
33.4401 2019.00
33.5053 1876.00
33.5705 1440.00
33.6357 1048.00
33.7009 1085.00
33.7661 920.00
33.8313 1106.00
33.8965 1255.00
33.9617 1414.00
34.0269 1577.00
34.0921 2075.00
34.1573 2644.00
34.2225 2641.00
34.2877 2503.00
34.3529 3221.00
34.4181 5192.00
34.4833 7757.00
34.5485 7895.00
34.6137 4700.00
34.6789 2413.00
34.7441 1976.00
34.8093 2254.00
34.8745 2983.00
34.9397 3441.00
35.0049 2411.00
35.0701 1464.00
35.1353 1076.00
35.2005 1091.00
35.2657 1164.00
35.3309 1172.00
35.3961 1046.00
35.4613 926.00
35.5265 862.00
35.5917 906.00
35.6569 828.00
35.7221 754.00
35.7873 766.00
35.8525 794.00
35.9177 766.00
35.9829 734.00
36.0481 780.00
36.1133 858.00
36.1785 923.00
36.2437 986.00
36.3089 1130.00
36.3741 1265.00
36.4393 1226.00
36.5045 1073.00
36.5697 1131.00
36.6349 1205.00
36.7001 1106.00
36.7653 1083.00
36.8305 1213.00
36.8957 1487.00
36.9609 1330.00
37.0261 1210.00
37.0913 1159.00
37.1565 1413.00
37.2217 1677.00
37.2869 1359.00
37.3521 1032.00
37.4173 804.00
37.4825 824.00
37.5477 803.00
37.6129 800.00
37.6781 872.00
37.7433 885.00
37.8085 981.00
37.8736 970.00
37.9388 964.00
38.004 975.00
38.0692 864.00
38.1344 908.00
38.1996 929.00
38.2648 1039.00
38.33 1010.00
38.3952 855.00
38.4604 793.00
38.5256 742.00
38.5908 770.00
38.656 811.00
38.7212 882.00
38.7864 1045.00
38.8516 932.00
38.9168 888.00
38.982 767.00
39.0472 838.00
39.1124 913.00
39.1776 1041.00
39.2428 1059.00
39.308 952.00
39.3732 808.00
39.4384 727.00
39.5036 726.00
39.5688 766.00
39.634 732.00
39.6992 753.00
39.7644 790.00
39.8296 749.00
39.8948 723.00
39.96 744.00
40.0252 706.00
40.0904 684.00
40.1556 664.00
40.2208 688.00
40.286 735.00
40.3512 762.00
40.4164 785.00
40.4816 863.00
40.5468 947.00
40.612 909.00
40.6772 818.00
40.7424 895.00
40.8076 777.00
40.8728 716.00
40.938 728.00
41.0032 794.00
41.0684 899.00
41.1336 795.00
41.1988 703.00
41.264 754.00
41.3292 727.00
41.3944 741.00
41.4596 801.00
41.5248 708.00
41.59 760.00
41.6552 812.00
41.7204 1053.00
41.7856 1455.00
41.8508 1284.00
41.916 1168.00
41.9812 975.00
42.0464 937.00
42.1116 1080.00
42.1768 1530.00
42.242 1744.00
42.3072 1754.00
42.3724 1764.00
42.4376 1552.00
42.5028 1846.00
42.568 1574.00
42.6332 1216.00
42.6983 1024.00
42.7635 769.00
42.8287 775.00
42.8939 766.00
42.9591 839.00
43.0243 699.00
43.0895 750.00
43.1547 663.00
43.2199 684.00
43.2851 652.00
43.3503 736.00
43.4155 877.00
43.4807 1235.00
43.5459 1498.00
43.6111 1310.00
43.6763 1147.00
43.7415 889.00
43.8067 1011.00
43.8719 1009.00
43.9371 955.00
44.0023 784.00
44.0675 713.00
44.1327 779.00
44.1979 802.00
44.2631 765.00
44.3283 678.00
44.3935 657.00
44.4587 663.00
44.5239 681.00
44.5891 634.00
44.6543 650.00
44.7195 694.00
44.7847 838.00
44.8499 826.00
44.9151 840.00
44.9803 819.00
45.0455 1004.00
45.1107 1181.00
45.1759 1214.00
45.2411 1148.00
45.3063 1011.00
45.3715 837.00
45.4367 881.00
45.5019 938.00
45.5671 930.00
45.6323 846.00
45.6975 804.00
45.7627 815.00
45.8279 709.00
45.8931 735.00
45.9583 603.00
46.0235 584.00
46.0887 668.00
46.1539 753.00
46.2191 808.00
46.2843 769.00
46.3495 710.00
46.4147 741.00
46.4799 685.00
46.5451 698.00
46.6103 663.00
46.6755 625.00
46.7407 739.00
46.8059 834.00
46.8711 832.00
46.9363 895.00
47.0015 1057.00
47.0667 1295.00
47.1319 1124.00
47.1971 1198.00
47.2623 1366.00
47.3275 1571.00
47.3927 1546.00
47.4579 1896.00
47.523 2715.00
47.5882 3215.00
47.6534 2114.00
47.7186 1742.00
47.7838 968.00
47.849 816.00
47.9142 746.00
47.9794 712.00
48.0446 722.00
48.1098 643.00
48.175 598.00
48.2402 647.00
48.3054 676.00
48.3706 621.00
48.4358 646.00
48.501 745.00
48.5662 879.00
48.6314 892.00
48.6966 862.00
48.7618 919.00
48.827 769.00
48.8922 778.00
48.9574 849.00
49.0226 1146.00
49.0878 1327.00
49.153 1138.00
49.2182 1160.00
49.2834 989.00
49.3486 809.00
49.4138 802.00
49.479 829.00
49.5442 768.00
49.6094 862.00
49.6746 1350.00
49.7398 1880.00
49.805 1594.00
49.8702 1347.00
49.9354 1193.00
50.0006 1253.00
50.0658 1559.00
50.131 1305.00
50.1962 1373.00
50.2614 1505.00
50.3266 1875.00
50.3918 1478.00
50.457 1288.00
50.5222 1002.00
50.5874 754.00
50.6526 670.00
50.7178 664.00
50.783 607.00
50.8482 604.00
50.9134 597.00
50.9786 584.00
51.0438 585.00
51.109 606.00
51.1742 625.00
51.2394 674.00
51.3046 763.00
51.3698 690.00
51.435 717.00
51.5002 652.00
51.5654 699.00
51.6306 736.00
51.6958 970.00
51.761 1674.00
51.8262 1759.00
51.8914 1581.00
51.9566 1718.00
52.0218 1770.00
52.087 1646.00
52.1522 1517.00
52.2174 1264.00
52.2826 1092.00
52.3477 916.00
52.4129 946.00
52.4781 914.00
52.5433 809.00
52.6085 785.00
52.6737 635.00
52.7389 633.00
52.8041 608.00
52.8693 596.00
52.9345 718.00
52.9997 898.00
53.0649 1135.00
53.1301 1120.00
53.1953 1290.00
53.2605 1179.00
53.3257 949.00
53.3909 968.00
53.4561 857.00
53.5213 733.00
53.5865 834.00
53.6517 737.00
53.7169 730.00
53.7821 827.00
53.8473 785.00
53.9125 824.00
53.9777 724.00
54.0429 788.00
54.1081 721.00
54.1733 670.00
54.2385 735.00
54.3037 744.00
54.3689 706.00
54.4341 816.00
54.4993 786.00
54.5645 726.00
54.6297 690.00
54.6949 731.00
54.7601 821.00
54.8253 898.00
54.8905 849.00
54.9557 906.00
55.0209 886.00
55.0861 808.00
55.1513 709.00
55.2165 732.00
55.2817 702.00
55.3469 798.00
55.4121 949.00
55.4773 1004.00
55.5425 1217.00
55.6077 1272.00
55.6729 1071.00
55.7381 962.00
55.8033 740.00
55.8685 631.00
55.9337 645.00
55.9989 668.00
56.0641 653.00
56.1293 730.00
56.1945 862.00
56.2597 985.00
56.3249 843.00
56.3901 888.00
56.4553 844.00
56.5205 707.00
56.5857 718.00
56.6509 690.00
56.7161 745.00
56.7813 846.00
56.8465 1075.00
56.9117 1113.00
56.9769 958.00
57.042 1011.00
57.1073 920.00
57.1724 873.00
57.2376 869.00
57.3028 1092.00
57.368 987.00
57.4332 892.00
57.4984 886.00
57.5636 743.00
57.6288 694.00
57.694 692.00
57.7592 761.00
57.8244 741.00
57.8896 754.00
57.9548 798.00
58.02 844.00
58.0852 911.00
58.1504 870.00
58.2156 887.00
58.2808 927.00
58.346 1056.00
58.4112 1445.00
58.4764 1743.00
58.5416 1607.00
58.6068 1521.00
58.672 1247.00
58.7372 1064.00
58.8024 947.00
58.8676 1125.00
58.9328 895.00
58.998 916.00
59.0632 1037.00
59.1284 1062.00
59.1936 1021.00
59.2588 1148.00
59.324 1245.00
59.3892 1456.00
59.4544 1726.00
59.5196 1771.00
59.5848 2212.00
59.65 2142.00
59.7152 1861.00
59.7804 1838.00
59.8456 1446.00
59.9108 1335.00
59.976 1268.00
60.0412 1105.00
60.1064 1248.00
60.1716 1547.00
60.2368 1692.00
60.302 1347.00
60.3672 1230.00
60.4324 1123.00
60.4976 850.00
60.5628 817.00
60.628 764.00
60.6932 696.00
60.7584 705.00
60.8236 816.00
60.8888 749.00
60.954 753.00
61.0192 753.00
61.0844 682.00
61.1496 596.00
61.2148 552.00
61.28 550.00
61.3452 570.00
61.4104 543.00
61.4756 567.00
61.5408 723.00
61.606 696.00
61.6712 798.00
61.7364 877.00
61.8016 793.00
61.8667 763.00
61.932 757.00
61.9971 688.00
62.0623 677.00
62.1275 730.00
62.1927 699.00
62.2579 783.00
62.3231 1003.00
62.3883 1060.00
62.4535 822.00
62.5187 844.00
62.5839 788.00
62.6491 591.00
62.7143 588.00
62.7795 622.00
62.8447 665.00
62.9099 976.00
62.9751 1154.00
63.0403 983.00
63.1055 987.00
63.1707 963.00
63.2359 788.00
63.3011 622.00
63.3663 588.00
63.4315 584.00
63.4967 605.00
63.5619 599.00
63.6271 679.00
63.6923 634.00
63.7575 651.00
63.8227 787.00
63.8879 703.00
63.9531 631.00
64.0183 739.00
64.0835 696.00
64.1487 647.00
64.2139 732.00
64.2791 729.00
64.3443 771.00
64.4095 684.00
64.4747 738.00
64.5399 714.00
64.6051 606.00
64.6703 612.00
64.7355 704.00
64.8007 697.00
64.8659 830.00
64.9311 965.00
64.9963 917.00
65.0615 811.00
65.1267 840.00
65.1919 756.00
65.2571 718.00
65.3223 708.00
65.3875 756.00
65.4527 856.00
65.5179 967.00
65.5831 847.00
65.6483 854.00
65.7135 856.00
65.7787 896.00
65.8439 907.00
65.9091 903.00
65.9743 978.00
66.0395 1021.00
66.1047 990.00
66.1699 1004.00
66.2351 939.00
66.3003 906.00
66.3655 774.00
66.4307 754.00
66.4959 666.00
66.561 720.00
66.6263 623.00
66.6915 662.00
66.7566 699.00
66.8218 652.00
66.887 697.00
66.9522 620.00
67.0174 698.00
67.0826 661.00
67.1478 595.00
67.213 644.00
67.2782 617.00
67.3434 663.00
67.4086 684.00
67.4738 701.00
67.539 681.00
67.6042 589.00
67.6694 580.00
67.7346 514.00
67.7998 509.00
67.865 559.00
67.9302 562.00
67.9954 707.00
68.0606 691.00
68.1258 603.00
68.191 611.00
68.2562 564.00
68.3214 553.00
68.3866 472.00
68.4518 531.00
68.517 558.00
68.5822 634.00
68.6474 682.00
68.7126 671.00
68.7778 649.00
68.843 653.00
68.9082 731.00
68.9734 748.00
69.0386 608.00
69.1038 628.00
69.169 672.00
69.2342 588.00
69.2994 518.00
69.3646 507.00
69.4298 507.00
69.495 508.00
69.5602 465.00
69.6254 508.00
69.6906 478.00
69.7558 492.00
69.821 547.00
69.8862 517.00
69.9514 537.00
70.0166 463.00
70.0818 477.00
70.147 473.00
70.2122 474.00
70.2774 526.00
70.3426 464.00
70.4078 472.00
70.473 478.00
70.5382 497.00
70.6034 445.00
70.6686 441.00
70.7338 453.00
70.799 520.00
70.8642 513.00
70.9294 528.00
70.9946 514.00
71.0598 517.00
71.125 475.00
71.1902 534.00
71.2554 493.00
71.3205 484.00
71.3858 509.00
71.451 507.00
71.5162 506.00
71.5813 588.00
71.6465 514.00
71.7117 549.00
71.7769 519.00
71.8421 508.00
71.9073 495.00
71.9725 502.00
72.0377 476.00
72.1029 554.00
72.1681 710.00
72.2333 630.00
72.2985 694.00
72.3637 791.00
72.4289 668.00
72.4941 574.00
72.5593 582.00
72.6245 502.00
72.6897 410.00
72.7549 390.00
72.8201 415.00
72.8853 439.00
72.9505 428.00
73.0157 471.00
73.0809 464.00
73.1461 492.00
73.2113 526.00
73.2765 660.00
73.3417 743.00
73.4069 684.00
73.4721 648.00
73.5373 645.00
73.6025 582.00
73.6677 467.00
73.7329 469.00
73.7981 421.00
73.8633 397.00
73.9285 423.00
73.9937 379.00
74.0589 450.00
74.1241 471.00
74.1893 483.00
74.2545 475.00
74.3197 524.00
74.3849 578.00
74.4501 607.00
74.5153 606.00
74.5805 592.00
74.6457 558.00
74.7109 569.00
74.7761 523.00
74.8413 506.00
74.9065 503.00
74.9717 545.00
75.0369 463.00
75.1021 540.00
75.1673 528.00
75.2325 538.00
75.2977 574.00
75.3629 663.00
75.4281 601.00
75.4933 537.00
75.5585 532.00
75.6237 558.00
75.6889 429.00
75.7541 424.00
75.8193 396.00
75.8845 452.00
75.9497 441.00
76.0149 436.00
76.0801 527.00
76.1452 597.00
76.2104 500.00
76.2756 531.00
76.3409 596.00
76.406 520.00
76.4712 487.00
76.5364 532.00
76.6016 569.00
76.6668 477.00
76.732 481.00
76.7972 579.00
76.8624 618.00
76.9276 562.00
76.9928 577.00
77.058 513.00
77.1232 564.00
77.1884 630.00
77.2536 629.00
77.3188 611.00
77.384 614.00
77.4492 681.00
77.5144 551.00
77.5796 509.00
77.6448 540.00
77.71 491.00
77.7752 480.00
77.8404 482.00
77.9056 433.00
77.9708 501.00
78.036 532.00
78.1012 566.00
78.1664 553.00
78.2316 442.00
78.2968 502.00
78.362 510.00
78.4272 435.00
78.4924 443.00
78.5576 503.00
78.6228 539.00
78.688 579.00
78.7532 580.00
78.8184 750.00
78.8836 801.00
78.9488 741.00
79.014 642.00
79.0792 741.00
79.1444 712.00
79.2096 658.00
79.2748 642.00
79.34 628.00
79.4052 578.00
79.4704 538.00
79.5356 538.00
79.6008 496.00
79.666 449.00
79.7312 446.00
79.7964 414.00
79.8616 403.00
79.9268 418.00
79.992 442.00
80.0572 476.00
80.1224 568.00
80.1876 595.00
80.2528 542.00
80.318 523.00
80.3832 541.00
80.4484 551.00
80.5136 551.00
80.5788 464.00
80.644 488.00
80.7092 467.00
80.7744 480.00
80.8396 492.00
80.9048 497.00
80.9699 481.00
81.0351 441.00
81.1003 468.00
81.1655 461.00
81.2307 515.00
81.2959 462.00
81.3611 560.00
81.4263 443.00
81.4915 506.00
81.5567 564.00
81.6219 562.00
81.6871 447.00
81.7523 552.00
81.8175 444.00
81.8827 488.00
81.9479 453.00
82.0131 494.00
82.0783 470.00
82.1435 451.00
82.2087 434.00
82.2739 444.00
82.3391 423.00
82.4043 425.00
82.4695 429.00
82.5347 475.00
82.5999 486.00
82.6651 491.00
82.7303 505.00
82.7955 547.00
82.8607 480.00
82.9259 489.00
82.9911 478.00
83.0563 428.00
83.1215 420.00
83.1867 442.00
83.2519 422.00
83.3171 433.00
83.3823 449.00
83.4475 488.00
83.5127 439.00
83.5779 518.00
83.6431 548.00
83.7083 505.00
83.7735 542.00
83.8387 515.00
83.9039 617.00
83.9691 574.00
84.0343 558.00
84.0995 558.00
84.1647 554.00
84.2299 497.00
84.2951 499.00
84.3603 475.00
84.4255 514.00
84.4907 476.00
84.5559 465.00
84.6211 517.00
84.6863 519.00
84.7515 610.00
84.8167 572.00
84.8819 565.00
84.9471 551.00
85.0123 564.00
85.0775 603.00
85.1427 523.00
85.2079 579.00
85.2731 524.00
85.3383 458.00
85.4035 459.00
85.4687 515.00
85.5339 487.00
85.5991 443.00
85.6643 448.00
85.7295 426.00
85.7946 516.00
85.8598 463.00
85.925 492.00
85.9903 498.00
86.0554 517.00
86.1206 604.00
86.1858 537.00
86.251 460.00
86.3162 456.00
86.3814 491.00
86.4466 493.00
86.5118 500.00
86.577 557.00
86.6422 534.00
86.7074 533.00
86.7726 497.00
86.8378 480.00
86.903 538.00
86.9682 540.00
87.0334 503.00
87.0986 569.00
87.1638 548.00
87.229 543.00
87.2942 483.00
87.3594 464.00
87.4246 505.00
87.4898 486.00
87.555 506.00
87.6202 455.00
87.6854 417.00
87.7506 497.00
87.8158 454.00
87.881 450.00
87.9462 451.00
88.0114 441.00
88.0766 429.00
88.1418 443.00
88.207 452.00
88.2722 445.00
88.3374 490.00
88.4026 509.00
88.4678 534.00
88.533 549.00
88.5982 599.00
88.6634 625.00
88.7286 560.00
88.7938 526.00
88.859 552.00
88.9242 574.00
88.9894 497.00
89.0546 483.00
89.1198 517.00
89.185 516.00
89.2502 476.00
89.3154 529.00
89.3806 498.00
89.4458 491.00
89.511 547.00
89.5762 537.00
89.6414 538.00
89.7066 455.00
89.7718 514.00
89.837 528.00
89.9022 500.00
89.9674 524.00
90.0326 479.00
90.0978 518.00
90.163 530.00
90.2282 543.00
90.2934 542.00
90.3586 557.00
90.4238 584.00
90.489 570.00
90.5542 605.00
90.6193 546.00
90.6845 565.00
90.7497 565.00
90.8149 481.00
90.8801 485.00
90.9453 503.00
91.0105 505.00
91.0757 488.00
91.1409 537.00
91.2061 533.00
91.2713 519.00
91.3365 541.00
91.4017 521.00
91.4669 513.00
91.5321 491.00
91.5973 554.00
91.6625 516.00
91.7277 543.00
91.7929 547.00
91.8581 567.00
91.9233 531.00
91.9885 559.00
92.0537 536.00
92.1189 513.00
92.1841 438.00
92.2493 507.00
92.3145 463.00
92.3797 490.00
92.4449 498.00
92.5101 468.00
92.5753 468.00
92.6405 448.00
92.7057 542.00
92.7709 560.00
92.8361 525.00
92.9013 509.00
92.9665 490.00
93.0317 466.00
93.0969 472.00
93.1621 444.00
93.2273 434.00
93.2925 397.00
93.3577 418.00
93.4229 493.00
93.4881 452.00
93.5533 441.00
93.6185 455.00
93.6837 454.00
93.7489 459.00
93.8141 429.00
93.8793 424.00
93.9445 406.00
94.0097 450.00
94.0749 451.00
94.1401 457.00
94.2053 411.00
94.2705 469.00
94.3357 438.00
94.4009 468.00
94.4661 471.00
94.5313 503.00
94.5965 415.00
94.6617 446.00
94.7269 421.00
94.7921 434.00
94.8573 433.00
94.9225 436.00
94.9877 411.00
95.0529 435.00
95.1181 446.00
95.1833 421.00
95.2485 416.00
95.3137 464.00
95.3789 475.00
95.444 506.00
95.5092 448.00
95.5744 470.00
95.6396 480.00
95.7048 484.00
95.77 509.00
95.8352 480.00
95.9004 528.00
95.9656 519.00
96.0308 502.00
96.096 517.00
96.1612 504.00
96.2264 529.00
96.2916 514.00
96.3568 498.00
96.422 466.00
96.4872 438.00
96.5524 438.00
96.6176 432.00
96.6828 475.00
96.748 492.00
96.8132 486.00
96.8784 516.00
96.9436 551.00
97.0088 609.00
97.074 659.00
97.1392 668.00
97.2044 568.00
97.2696 575.00
97.3348 583.00
97.4 558.00
97.4652 607.00
97.5304 638.00
97.5956 571.00
97.6608 530.00
97.726 482.00
97.7912 442.00
97.8564 477.00
97.9216 516.00
97.9868 527.00
98.052 495.00
98.1172 473.00
98.1824 490.00
98.2476 543.00
98.3128 544.00
98.378 516.00
98.4432 470.00
98.5084 474.00
98.5736 469.00
98.6388 498.00
98.704 453.00
98.7692 456.00
98.8344 502.00
98.8996 444.00
98.9648 455.00
99.03 447.00
99.0952 435.00
99.1604 451.00
99.2256 462.00
99.2908 462.00
99.356 494.00
99.4212 486.00
99.4864 516.00
99.5516 543.00
99.6168 545.00
99.682 546.00
99.7472 616.00
99.8124 618.00
99.8776 528.00
99.9428 490.00
100.008 538.00
100.073 537.00
100.095 515.00