File: data/xrd_creation/results/NSC_21.xy
9.903433 3258.00
9.968632 3286.00
10.0338 3083.00
10.099 3212.00
10.1642 3112.00
10.2294 3103.00
10.2946 3066.00
10.3598 3064.00
10.425 2976.00
10.4902 3059.00
10.5554 3004.00
10.6206 3043.00
10.6858 3143.00
10.751 3059.00
10.8162 3066.00
10.8814 2959.00
10.9466 2999.00
11.0118 2986.00
11.077 2899.00
11.1422 2961.00
11.2074 2905.00
11.2726 3001.00
11.3378 2865.00
11.403 2708.00
11.4682 2911.00
11.5334 2851.00
11.5986 2806.00
11.6638 2866.00
11.729 2922.00
11.7942 2827.00
11.8594 2741.00
11.9246 2848.00
11.9898 2782.00
12.055 2750.00
12.1202 2860.00
12.1854 2724.00
12.2506 2794.00
12.3158 2936.00
12.381 3053.00
12.4462 3133.00
12.5114 3102.00
12.5766 2846.00
12.6418 2626.00
12.707 2740.00
12.7722 2612.00
12.8374 2719.00
12.9026 2640.00
12.9678 2554.00
13.033 2562.00
13.0982 2576.00
13.1634 2466.00
13.2286 2581.00
13.2938 2523.00
13.359 2586.00
13.4242 2617.00
13.4894 2518.00
13.5546 2549.00
13.6198 2704.00
13.685 2477.00
13.7502 2664.00
13.8154 2621.00
13.8805 2813.00
13.9457 3094.00
14.0109 3274.00
14.0761 3760.00
14.1413 4640.00
14.2065 5862.00
14.2717 7007.00
14.3369 4891.00
14.4021 2812.00
14.4673 2690.00
14.5325 2534.00
14.5977 2503.00
14.6629 2422.00
14.7281 2540.00
14.7933 2449.00
14.8585 2561.00
14.9237 2428.00
14.9889 2501.00
15.0541 2461.00
15.1193 2443.00
15.1845 2373.00
15.2497 2377.00
15.3149 2406.00
15.3801 2497.00
15.4453 2379.00
15.5105 2294.00
15.5757 2320.00
15.6409 2493.00
15.7061 2376.00
15.7713 2363.00
15.8365 2494.00
15.9017 2324.00
15.9669 2472.00
16.0321 2331.00
16.0973 2402.00
16.1625 2310.00
16.2277 2366.00
16.2929 2452.00
16.3581 2303.00
16.4233 2290.00
16.4885 2328.00
16.5537 2357.00
16.6189 2302.00
16.6841 2346.00
16.7493 2304.00
16.8145 2315.00
16.8797 2275.00
16.9449 2282.00
17.0101 2306.00
17.0753 2288.00
17.1405 2273.00
17.2057 2255.00
17.2709 2160.00
17.3361 2358.00
17.4013 2274.00
17.4665 2282.00
17.5317 2233.00
17.5969 2346.00
17.6621 2348.00
17.7273 2365.00
17.7925 2386.00
17.8577 2252.00
17.9229 2212.00
17.9881 2239.00
18.0533 2202.00
18.1185 2298.00
18.1837 2178.00
18.2489 2326.00
18.3141 2158.00
18.3793 2249.00
18.4445 2305.00
18.5097 2316.00
18.5749 2238.00
18.6401 2135.00
18.7052 2224.00
18.7704 2149.00
18.8356 2179.00
18.9008 2144.00
18.966 2192.00
19.0312 2300.00
19.0964 2301.00
19.1616 2341.00
19.2268 2404.00
19.292 2447.00
19.3572 2671.00
19.4224 2921.00
19.4876 3723.00
19.5528 5424.00
19.618 8684.00
19.6832 13570.00
19.7484 17395.00
19.8136 11128.00
19.8788 4233.00
19.944 3022.00
20.0092 2903.00
20.0744 3172.00
20.1396 3454.00
20.2048 4296.00
20.27 6562.00
20.3352 10976.00
20.4004 17627.00
20.4656 21503.00
20.5308 11063.00
20.596 4069.00
20.6612 2800.00
20.7264 2436.00
20.7916 2553.00
20.8568 2322.00
20.922 2264.00
20.9872 2322.00
21.0524 2200.00
21.1176 2284.00
21.1828 2279.00
21.248 2261.00
21.3132 2303.00
21.3784 2181.00
21.4436 2157.00
21.5088 2101.00
21.574 2099.00
21.6392 2139.00
21.7044 2089.00
21.7696 2159.00
21.8348 2273.00
21.9 2309.00
21.9652 2449.00
22.0304 2405.00
22.0956 2618.00
22.1608 2554.00
22.226 2614.00
22.2912 2534.00
22.3564 2537.00
22.4216 2423.00
22.4868 2398.00
22.552 2206.00
22.6172 2209.00
22.6824 2138.00
22.7476 2266.00
22.8128 2211.00
22.878 2220.00
22.9432 2439.00
23.0084 2469.00
23.0736 2799.00
23.1388 2977.00
23.204 3019.00
23.2692 2880.00
23.3344 3004.00
23.3996 3914.00
23.4647 6119.00
23.5299 11296.00
23.5951 19383.00
23.6603 21797.00
23.7255 10394.00
23.7907 3698.00
23.8559 2552.00
23.9211 2434.00
23.9863 2304.00
24.0515 2180.00
24.1167 2154.00
24.1819 2218.00
24.2471 2258.00
24.3123 2301.00
24.3775 2306.00
24.4427 2203.00
24.5079 2053.00
24.5731 2021.00
24.6383 2108.00
24.7035 2186.00
24.7687 2291.00
24.8339 2212.00
24.8991 2093.00
24.9643 1983.00
25.0295 2017.00
25.0947 1900.00
25.1599 1915.00
25.2251 1961.00
25.2903 1883.00
25.3555 1904.00
25.4207 1876.00
25.4859 1816.00
25.5511 1916.00
25.6163 1821.00
25.6815 1881.00
25.7467 1755.00
25.8119 1879.00
25.8771 1937.00
25.9423 1813.00
26.0075 1806.00
26.0727 1862.00
26.1379 1795.00
26.2031 1780.00
26.2683 1869.00
26.3335 1789.00
26.3987 1761.00
26.4639 1810.00
26.5291 1749.00
26.5943 1844.00
26.6595 1870.00
26.7247 1808.00
26.7899 1757.00
26.8551 1855.00
26.9203 1893.00
26.9855 1810.00
27.0507 1839.00
27.1159 1932.00
27.1811 1824.00
27.2463 1836.00
27.3115 1810.00
27.3767 1893.00
27.4419 1840.00
27.5071 1959.00
27.5723 1809.00
27.6375 1849.00
27.7027 1849.00
27.7679 1856.00
27.8331 1992.00
27.8983 1955.00
27.9635 2019.00
28.0287 2114.00
28.0939 2164.00
28.1591 2405.00
28.2243 3119.00
28.2894 4880.00
28.3546 8858.00
28.4198 14613.00
28.485 13023.00
28.5502 7071.00
28.6154 3403.00
28.6806 2491.00
28.7458 2203.00
28.811 2073.00
28.8762 1909.00
28.9414 1881.00
29.0066 1828.00
29.0718 1857.00
29.137 1824.00
29.2022 1797.00
29.2674 1772.00
29.3326 1847.00
29.3978 1798.00
29.463 1771.00
29.5282 1730.00
29.5934 1759.00
29.6586 1727.00
29.7238 1796.00
29.789 1861.00
29.8542 1993.00
29.9194 1883.00
29.9846 1990.00
30.0498 1886.00
30.115 1897.00
30.1802 1757.00
30.2454 1928.00
30.3106 1875.00
30.3758 1801.00
30.441 1845.00
30.5062 2005.00
30.5714 1940.00
30.6366 1847.00
30.7018 1903.00
30.767 1963.00
30.8322 2205.00
30.8974 2191.00
30.9626 2347.00
31.0278 2402.00
31.093 2803.00
31.1582 4139.00
31.2234 6617.00
31.2886 11973.00
31.3538 19371.00
31.419 19141.00
31.4842 12090.00
31.5494 7118.00
31.6146 4913.00
31.6798 4069.00
31.745 3554.00
31.8102 3183.00
31.8754 2571.00
31.9406 2099.00
32.0058 1974.00
32.071 1837.00
32.1362 1856.00
32.2014 1791.00
32.2666 1704.00
32.3318 1709.00
32.397 1743.00
32.4622 1719.00
32.5274 1680.00
32.5926 1745.00
32.6578 1637.00
32.723 1717.00
32.7882 1718.00
32.8534 1635.00
32.9186 1683.00
32.9838 1754.00
33.0489 1588.00
33.1141 1654.00
33.1793 1719.00
33.2445 1667.00
33.3097 1710.00
33.3749 1645.00
33.4401 1727.00
33.5053 1716.00
33.5705 1766.00
33.6357 1735.00
33.7009 1804.00
33.7661 2022.00
33.8313 2246.00
33.8965 2329.00
33.9617 2159.00
34.0269 1886.00
34.0921 1827.00
34.1573 2068.00
34.2225 2395.00
34.2877 2759.00
34.3529 2815.00
34.4181 2437.00
34.4833 2084.00
34.5485 1946.00
34.6137 1888.00
34.6789 1937.00
34.7441 1987.00
34.8093 1969.00
34.8745 1935.00
34.9397 2186.00
35.0049 2778.00
35.0701 4345.00
35.1353 6345.00
35.2005 5323.00
35.2657 3895.00
35.3309 2712.00
35.3961 3263.00
35.4613 5418.00
35.5265 9161.00
35.5917 9552.00
35.6569 6586.00
35.7221 3503.00
35.7873 2335.00
35.8525 1980.00
35.9177 1747.00
35.9829 1805.00
36.0481 1770.00
36.1133 1664.00
36.1785 1708.00
36.2437 1740.00
36.3089 1608.00
36.3741 1684.00
36.4393 1603.00
36.5045 1603.00
36.5697 1557.00
36.6349 1576.00
36.7001 1512.00
36.7653 1510.00
36.8305 1588.00
36.8957 1491.00
36.9609 1587.00
37.0261 1525.00
37.0913 1554.00
37.1565 1580.00
37.2217 1514.00
37.2869 1501.00
37.3521 1469.00
37.4173 1597.00
37.4825 1470.00
37.5477 1542.00
37.6129 1501.00
37.6781 1568.00
37.7433 1548.00
37.8085 1563.00
37.8736 1446.00
37.9388 1454.00
38.004 1468.00
38.0692 1544.00
38.1344 1500.00
38.1996 1451.00
38.2648 1459.00
38.33 1437.00
38.3952 1525.00
38.4604 1443.00
38.5256 1493.00
38.5908 1562.00
38.656 1497.00
38.7212 1639.00
38.7864 1586.00
38.8516 1643.00
38.9168 1542.00
38.982 1554.00
39.0472 1598.00
39.1124 1481.00
39.1776 1561.00
39.2428 1493.00
39.308 1499.00
39.3732 1544.00
39.4384 1501.00
39.5036 1533.00
39.5688 1642.00
39.634 1899.00
39.6992 2277.00
39.7644 2777.00
39.8296 2402.00
39.8948 2059.00
39.96 1676.00
40.0252 1529.00
40.0904 1492.00
40.1556 1500.00
40.2208 1537.00
40.286 1495.00
40.3512 1547.00
40.4164 1448.00
40.4816 1466.00
40.5468 1518.00
40.612 1501.00
40.6772 1564.00
40.7424 1427.00
40.8076 1663.00
40.8728 1613.00
40.938 1824.00
41.0032 1831.00
41.0684 1827.00
41.1336 1938.00
41.1988 2302.00
41.264 2585.00
41.3292 2573.00
41.3944 2774.00
41.4596 2495.00
41.5248 2211.00
41.59 2226.00
41.6552 2257.00
41.7204 2018.00
41.7856 1868.00
41.8508 1751.00
41.916 1549.00
41.9812 1659.00
42.0464 1789.00
42.1116 1891.00
42.1768 1838.00
42.242 1724.00
42.3072 1514.00
42.3724 1523.00
42.4376 1498.00
42.5028 1433.00
42.568 1464.00
42.6332 1604.00
42.6983 1464.00
42.7635 1610.00
42.8287 1647.00
42.8939 1979.00
42.9591 2651.00
43.0243 3604.00
43.0895 3427.00
43.1547 2797.00
43.2199 2189.00
43.2851 1665.00
43.3503 1533.00
43.4155 1540.00
43.4807 1421.00
43.5459 1510.00
43.6111 1539.00
43.6763 1689.00
43.7415 1768.00
43.8067 1760.00
43.8719 1636.00
43.9371 1545.00
44.0023 1424.00
44.0675 1486.00
44.1327 1496.00
44.1979 1405.00
44.2631 1452.00
44.3283 1488.00
44.3935 1397.00
44.4587 1485.00
44.5239 1537.00
44.5891 1529.00
44.6543 1598.00
44.7195 1650.00
44.7847 1879.00
44.8499 2489.00
44.9151 3995.00
44.9803 5569.00
45.0455 4709.00
45.1107 3851.00
45.1759 2477.00
45.2411 1934.00
45.3063 1551.00
45.3715 1584.00
45.4367 1504.00
45.5019 1585.00
45.5671 1554.00
45.6323 1589.00
45.6975 1684.00
45.7627 1705.00
45.8279 1952.00
45.8931 2446.00
45.9583 3610.00
46.0235 3904.00
46.0887 3160.00
46.1539 2489.00
46.2191 1911.00
46.2843 1681.00
46.3495 1573.00
46.4147 1603.00
46.4799 1731.00
46.5451 2028.00
46.6103 2374.00
46.6755 2921.00
46.7407 2835.00
46.8059 2525.00
46.8711 2183.00
46.9363 1943.00
47.0015 1755.00
47.0667 1642.00
47.1319 1657.00
47.1971 1558.00
47.2623 1519.00
47.3275 1461.00
47.3927 1531.00
47.4579 1504.00
47.523 1610.00
47.5882 1693.00
47.6534 1826.00
47.7186 1897.00
47.7838 2098.00
47.849 2822.00
47.9142 4583.00
47.9794 6961.00
48.0446 5886.00
48.1098 4984.00
48.175 3527.00
48.2402 2382.00
48.3054 2028.00
48.3706 1780.00
48.4358 1653.00
48.501 1710.00
48.5662 2080.00
48.6314 2307.00
48.6966 2073.00
48.7618 1928.00
48.827 1615.00
48.8922 1565.00
48.9574 1459.00
49.0226 1500.00
49.0878 1578.00
49.153 1476.00
49.2182 1457.00
49.2834 1609.00
49.3486 1540.00
49.4138 1602.00
49.479 1732.00
49.5442 1804.00
49.6094 1718.00
49.6746 1645.00
49.7398 1700.00
49.805 1483.00
49.8702 1548.00
49.9354 1498.00
50.0006 1508.00
50.0658 1515.00
50.131 1509.00
50.1962 1492.00
50.2614 1691.00
50.3266 1756.00
50.3918 1876.00
50.457 1921.00
50.5222 1819.00
50.5874 1663.00
50.6526 1807.00
50.7178 1784.00
50.783 1867.00
50.8482 1780.00
50.9134 1771.00
50.9786 1785.00
51.0438 1812.00
51.109 2009.00
51.1742 2383.00
51.2394 3174.00
51.3046 4657.00
51.3698 5489.00
51.435 4363.00
51.5002 3699.00
51.5654 2560.00
51.6306 2096.00
51.6958 2176.00
51.761 2348.00
51.8262 2069.00
51.8914 1934.00
51.9566 1672.00
52.0218 1453.00
52.087 1458.00
52.1522 1449.00
52.2174 1400.00
52.2826 1393.00
52.3477 1390.00
52.4129 1433.00
52.4781 1294.00
52.5433 1445.00
52.6085 1395.00
52.6737 1530.00
52.7389 1491.00
52.8041 1466.00
52.8693 1461.00
52.9345 1421.00
52.9997 1397.00
53.0649 1489.00
53.1301 1424.00
53.1953 1437.00
53.2605 1547.00
53.3257 1454.00
53.3909 1479.00
53.4561 1507.00
53.5213 1389.00
53.5865 1417.00
53.6517 1435.00
53.7169 1413.00
53.7821 1403.00
53.8473 1502.00
53.9125 1522.00
53.9777 1607.00
54.0429 1813.00
54.1081 2072.00
54.1733 2847.00
54.2385 3322.00
54.3037 2838.00
54.3689 2605.00
54.4341 2093.00
54.4993 1718.00
54.5645 1611.00
54.6297 1475.00
54.6949 1521.00
54.7601 1545.00
54.8253 1631.00
54.8905 1732.00
54.9557 2001.00
55.0209 2747.00
55.0861 3651.00
55.1513 3405.00
55.2165 3574.00
55.2817 4192.00
55.3469 5481.00
55.4121 5995.00
55.4773 4915.00
55.5425 4365.00
55.6077 3272.00
55.6729 2423.00
55.7381 1928.00
55.8033 1808.00
55.8685 1684.00
55.9337 1581.00
55.9989 1583.00
56.0641 1485.00
56.1293 1445.00
56.1945 1483.00
56.2597 1538.00
56.3249 1526.00
56.3901 1473.00
56.4553 1536.00
56.5205 1585.00
56.5857 1627.00
56.6509 1704.00
56.7161 1613.00
56.7813 1778.00
56.8465 1745.00
56.9117 1735.00
56.9769 1641.00
57.042 1606.00
57.1073 1460.00
57.1724 1477.00
57.2376 1470.00
57.3028 1447.00
57.368 1501.00
57.4332 1498.00
57.4984 1436.00
57.5636 1520.00
57.6288 1481.00
57.694 1469.00
57.7592 1453.00
57.8244 1373.00
57.8896 1544.00
57.9548 1513.00
58.02 1655.00
58.0852 1826.00
58.1504 2193.00
58.2156 2438.00
58.2808 2295.00
58.346 2201.00
58.4112 2383.00
58.4764 2257.00
58.5416 1906.00
58.6068 1957.00
58.672 1559.00
58.7372 1466.00
58.8024 1414.00
58.8676 1448.00
58.9328 1447.00
58.998 1401.00
59.0632 1338.00
59.1284 1251.00
59.1936 1469.00
59.2588 1548.00
59.324 1464.00
59.3892 1564.00
59.4544 1525.00
59.5196 1487.00
59.5848 1573.00
59.65 1718.00
59.7152 1972.00
59.7804 2517.00
59.8456 3573.00
59.9108 3211.00
59.976 2814.00
60.0412 2856.00
60.1064 2274.00
60.1716 1935.00
60.2368 1859.00
60.302 1703.00
60.3672 1643.00
60.4324 1578.00
60.4976 1546.00
60.5628 1523.00
60.628 1527.00
60.6932 1600.00
60.7584 1843.00
60.8236 2107.00
60.8888 2997.00
60.954 3936.00
61.0192 3587.00
61.0844 3246.00
61.1496 3175.00
61.2148 2328.00
61.28 1887.00
61.3452 1804.00
61.4104 1668.00
61.4756 1623.00
61.5408 1499.00
61.606 1467.00
61.6712 1475.00
61.7364 1532.00
61.8016 1596.00
61.8667 1516.00
61.932 1616.00
61.9971 1690.00
62.0623 1802.00
62.1275 2081.00
62.1927 2428.00
62.2579 2675.00
62.3231 2513.00
62.3883 2270.00
62.4535 2348.00
62.5187 2062.00
62.5839 1815.00
62.6491 1653.00
62.7143 1636.00
62.7795 1550.00
62.8447 1492.00
62.9099 1612.00
62.9751 1683.00
63.0403 1775.00
63.1055 1809.00
63.1707 1905.00
63.2359 2192.00
63.3011 2444.00
63.3663 2132.00
63.4315 2210.00
63.4967 2417.00
63.5619 2385.00
63.6271 2152.00
63.6923 2131.00
63.7575 2080.00
63.8227 2244.00
63.8879 2116.00
63.9531 1872.00
64.0183 1887.00
64.0835 1692.00
64.1487 1467.00
64.2139 1427.00
64.2791 1375.00
64.3443 1374.00
64.4095 1312.00
64.4747 1388.00
64.5399 1391.00
64.6051 1326.00
64.6703 1388.00
64.7355 1462.00
64.8007 1521.00
64.8659 1438.00
64.9311 1477.00
64.9963 1520.00
65.0615 1578.00
65.1267 1673.00
65.1919 1846.00
65.2571 1719.00
65.3223 1644.00
65.3875 1637.00
65.4527 1559.00
65.5179 1466.00
65.5831 1466.00
65.6483 1481.00
65.7135 1560.00
65.7787 1576.00
65.8439 1633.00
65.9091 1661.00
65.9743 1901.00
66.0395 2075.00
66.1047 2540.00
66.1699 2630.00
66.2351 2171.00
66.3003 2062.00
66.3655 2028.00
66.4307 1590.00
66.4959 1437.00
66.561 1458.00
66.6263 1444.00
66.6915 1377.00
66.7566 1302.00
66.8218 1371.00
66.887 1501.00
66.9522 1448.00
67.0174 1575.00
67.0826 1843.00
67.1478 1972.00
67.213 1789.00
67.2782 1794.00
67.3434 1752.00
67.4086 1738.00
67.4738 1648.00
67.539 1730.00
67.6042 1845.00
67.6694 2083.00
67.7346 2048.00
67.7998 1781.00
67.865 1695.00
67.9302 1562.00
67.9954 1434.00
68.0606 1293.00
68.1258 1413.00
68.191 1397.00
68.2562 1348.00
68.3214 1340.00
68.3866 1353.00
68.4518 1412.00
68.517 1500.00
68.5822 1461.00
68.6474 1581.00
68.7126 1816.00
68.7778 1812.00
68.843 1738.00
68.9082 1625.00
68.9734 1545.00
69.0386 1502.00
69.1038 1396.00
69.169 1319.00
69.2342 1332.00
69.2994 1370.00
69.3646 1345.00
69.4298 1319.00
69.495 1314.00
69.5602 1387.00
69.6254 1323.00
69.6906 1380.00
69.7558 1297.00
69.821 1382.00
69.8862 1370.00
69.9514 1379.00
70.0166 1329.00
70.0818 1316.00
70.147 1396.00
70.2122 1263.00
70.2774 1296.00
70.3426 1328.00
70.4078 1322.00
70.473 1381.00
70.5382 1404.00
70.6034 1343.00
70.6686 1491.00
70.7338 1573.00
70.799 1920.00
70.8642 2496.00
70.9294 2355.00
70.9946 2085.00
71.0598 2081.00
71.125 1958.00
71.1902 1780.00
71.2554 1571.00
71.3205 1435.00
71.3858 1443.00
71.451 1378.00
71.5162 1374.00
71.5813 1272.00
71.6465 1353.00
71.7117 1358.00
71.7769 1345.00
71.8421 1398.00
71.9073 1388.00
71.9725 1356.00
72.0377 1420.00
72.1029 1466.00
72.1681 1490.00
72.2333 1367.00
72.2985 1450.00
72.3637 1370.00
72.4289 1343.00
72.4941 1313.00
72.5593 1279.00
72.6245 1273.00
72.6897 1295.00
72.7549 1266.00
72.8201 1277.00
72.8853 1253.00
72.9505 1274.00
73.0157 1295.00
73.0809 1331.00
73.1461 1294.00
73.2113 1337.00
73.2765 1351.00
73.3417 1346.00
73.4069 1505.00
73.4721 1568.00
73.5373 1738.00
73.6025 1991.00
73.6677 1931.00
73.7329 1818.00
73.7981 1935.00
73.8633 1782.00
73.9285 1565.00
73.9937 1408.00
74.0589 1466.00
74.1241 1374.00
74.1893 1339.00
74.2545 1319.00
74.3197 1384.00
74.3849 1417.00
74.4501 1498.00
74.5153 1534.00
74.5805 1553.00
74.6457 1684.00
74.7109 1843.00
74.7761 2313.00
74.8413 2329.00
74.9065 2027.00
74.9717 2041.00
75.0369 1988.00
75.1021 1806.00
75.1673 1839.00
75.2325 1775.00
75.2977 1716.00
75.3629 1894.00
75.4281 1695.00
75.4933 1588.00
75.5585 1669.00
75.6237 1562.00
75.6889 1374.00
75.7541 1372.00
75.8193 1265.00
75.8845 1302.00
75.9497 1339.00
76.0149 1274.00
76.0801 1322.00
76.1452 1302.00
76.2104 1250.00
76.2756 1318.00
76.3409 1224.00
76.406 1379.00
76.4712 1417.00
76.5364 1467.00
76.6016 1420.00
76.6668 1377.00
76.732 1444.00
76.7972 1474.00
76.8624 1343.00
76.9276 1335.00
76.9928 1380.00
77.058 1377.00
77.1232 1254.00
77.1884 1474.00
77.2536 1400.00
77.3188 1483.00
77.384 1403.00
77.4492 1410.00
77.5144 1298.00
77.5796 1230.00
77.6448 1282.00
77.71 1201.00
77.7752 1167.00
77.8404 1290.00
77.9056 1282.00
77.9708 1245.00
78.036 1319.00
78.1012 1363.00
78.1664 1449.00
78.2316 1557.00
78.2968 1611.00
78.362 1831.00
78.4272 1924.00
78.4924 1835.00
78.5576 1837.00
78.6228 1899.00
78.688 1912.00
78.7532 1816.00
78.8184 1668.00
78.8836 1733.00
78.9488 1662.00
79.014 1517.00
79.0792 1448.00
79.1444 1441.00
79.2096 1393.00
79.2748 1329.00
79.34 1316.00
79.4052 1375.00
79.4704 1332.00
79.5356 1314.00
79.6008 1390.00
79.666 1324.00
79.7312 1334.00
79.7964 1419.00
79.8616 1367.00
79.9268 1291.00
79.992 1351.00
80.0572 1414.00
80.1224 1215.00
80.1876 1265.00
80.2528 1265.00
80.318 1256.00
80.3832 1276.00
80.4484 1286.00
80.5136 1314.00
80.5788 1492.00
80.644 1563.00
80.7092 1752.00
80.7744 2005.00
80.8396 1911.00
80.9048 1700.00
80.9699 1618.00
81.0351 1713.00
81.1003 1562.00
81.1655 1412.00
81.2307 1390.00
81.2959 1304.00
81.3611 1281.00
81.4263 1322.00
81.4915 1390.00
81.5567 1295.00
81.6219 1242.00
81.6871 1239.00
81.7523 1348.00
81.8175 1300.00
81.8827 1292.00
81.9479 1303.00
82.0131 1278.00
82.0783 1271.00
82.1435 1290.00
82.2087 1339.00
82.2739 1244.00
82.3391 1301.00
82.4043 1308.00
82.4695 1338.00
82.5347 1372.00
82.5999 1285.00
82.6651 1307.00
82.7303 1394.00
82.7955 1379.00
82.8607 1421.00
82.9259 1403.00
82.9911 1527.00
83.0563 1594.00
83.1215 1778.00
83.1867 1981.00
83.2519 1982.00
83.3171 1759.00
83.3823 1770.00
83.4475 1775.00
83.5127 1526.00
83.5779 1510.00
83.6431 1405.00
83.7083 1395.00
83.7735 1370.00
83.8387 1354.00
83.9039 1319.00
83.9691 1321.00
84.0343 1299.00
84.0995 1291.00
84.1647 1266.00
84.2299 1260.00
84.2951 1304.00
84.3603 1357.00
84.4255 1530.00
84.4907 1690.00
84.5559 1764.00
84.6211 1668.00
84.6863 1572.00
84.7515 1556.00
84.8167 1592.00
84.8819 1486.00
84.9471 1512.00
85.0123 1560.00
85.0775 1497.00
85.1427 1502.00
85.2079 1478.00
85.2731 1564.00
85.3383 1510.00
85.4035 1483.00
85.4687 1406.00
85.5339 1438.00
85.5991 1364.00
85.6643 1323.00
85.7295 1371.00
85.7946 1410.00
85.8598 1463.00
85.925 1612.00
85.9903 1548.00
86.0554 1494.00
86.1206 1508.00
86.1858 1439.00
86.251 1438.00
86.3162 1437.00
86.3814 1430.00
86.4466 1389.00
86.5118 1449.00
86.577 1499.00
86.6422 1458.00
86.7074 1357.00
86.7726 1409.00
86.8378 1452.00
86.903 1413.00
86.9682 1324.00
87.0334 1319.00
87.0986 1325.00
87.1638 1303.00
87.229 1319.00
87.2942 1278.00
87.3594 1226.00
87.4246 1266.00
87.4898 1303.00
87.555 1331.00
87.6202 1300.00
87.6854 1318.00
87.7506 1445.00
87.8158 1580.00
87.881 1541.00
87.9462 1495.00
88.0114 1449.00
88.0766 1582.00
88.1418 1405.00
88.207 1252.00
88.2722 1325.00
88.3374 1400.00
88.4026 1351.00
88.4678 1387.00
88.533 1358.00
88.5982 1352.00
88.6634 1413.00
88.7286 1574.00
88.7938 1461.00
88.859 1514.00
88.9242 1647.00
88.9894 1760.00
89.0546 1548.00
89.1198 1725.00
89.185 1918.00
89.2502 2115.00
89.3154 2033.00
89.3806 1802.00
89.4458 1795.00
89.511 1719.00
89.5762 1768.00
89.6414 1522.00
89.7066 1477.00
89.7718 1447.00
89.837 1355.00
89.9022 1342.00
89.9674 1414.00
90.0326 1443.00
90.0978 1397.00
90.163 1425.00
90.2282 1312.00
90.2934 1310.00
90.3586 1333.00
90.4238 1316.00
90.489 1241.00
90.5542 1358.00
90.6193 1312.00
90.6845 1309.00
90.7497 1221.00
90.8149 1303.00
90.8801 1261.00
90.9453 1232.00
91.0105 1412.00
91.0757 1353.00
91.1409 1417.00
91.2061 1510.00
91.2713 1615.00
91.3365 1792.00
91.4017 1723.00
91.4669 1653.00
91.5321 1620.00
91.5973 1568.00
91.6625 1511.00
91.7277 1410.00
91.7929 1403.00
91.8581 1365.00
91.9233 1333.00
91.9885 1324.00
92.0537 1305.00
92.1189 1351.00
92.1841 1405.00
92.2493 1392.00
92.3145 1380.00
92.3797 1285.00
92.4449 1337.00
92.5101 1287.00
92.5753 1327.00
92.6405 1263.00
92.7057 1303.00
92.7709 1291.00
92.8361 1303.00
92.9013 1108.00
92.9665 1261.00
93.0317 1305.00
93.0969 1182.00
93.1621 1258.00
93.2273 1256.00
93.2925 1288.00
93.3577 1217.00
93.4229 1299.00
93.4881 1439.00
93.5533 1490.00
93.6185 1563.00
93.6837 1541.00
93.7489 1580.00
93.8141 1561.00
93.8793 1510.00
93.9445 1485.00
94.0097 1517.00
94.0749 1489.00
94.1401 1440.00
94.2053 1430.00
94.2705 1427.00
94.3357 1362.00
94.4009 1367.00
94.4661 1376.00
94.5313 1352.00
94.5965 1452.00
94.6617 1524.00
94.7269 1601.00
94.7921 1747.00
94.8573 1800.00
94.9225 1709.00
94.9877 1602.00
95.0529 1462.00
95.1181 1595.00
95.1833 1554.00
95.2485 1453.00
95.3137 1435.00
95.3789 1344.00
95.444 1286.00
95.5092 1380.00
95.5744 1383.00
95.6396 1485.00
95.7048 1691.00
95.77 1677.00
95.8352 1661.00
95.9004 1515.00
95.9656 1493.00
96.0308 1669.00
96.096 1565.00
96.1612 1617.00
96.2264 1585.00
96.2916 1651.00
96.3568 1591.00
96.422 1460.00
96.4872 1389.00
96.5524 1398.00
96.6176 1419.00
96.6828 1336.00
96.748 1394.00
96.8132 1313.00
96.8784 1352.00
96.9436 1354.00
97.0088 1337.00
97.074 1338.00
97.1392 1239.00
97.2044 1345.00
97.2696 1293.00
97.3348 1270.00
97.4 1352.00
97.4652 1218.00
97.5304 1262.00
97.5956 1309.00
97.6608 1237.00
97.726 1170.00
97.7912 1243.00
97.8564 1311.00
97.9216 1247.00
97.9868 1291.00
98.052 1232.00
98.1172 1294.00
98.1824 1294.00
98.2476 1305.00
98.3128 1335.00
98.378 1270.00
98.4432 1415.00
98.5084 1465.00
98.5736 1513.00
98.6388 1540.00
98.704 1381.00
98.7692 1379.00
98.8344 1447.00
98.8996 1402.00
98.9648 1382.00
99.03 1431.00
99.0952 1383.00
99.1604 1376.00
99.2256 1474.00
99.2908 1345.00
99.356 1473.00
99.4212 1477.00
99.4864 1541.00
99.5516 1486.00
99.6168 1642.00
99.682 1450.00
99.7472 1491.00
99.8124 1497.00
99.8776 1608.00
99.9428 1686.00
100.008 1663.00
100.073 1685.00
100.095 1532.00