File: data/xrd_creation/results/NSC_187.xy
9.903433 2599.00
9.968632 2578.00
10.0338 2442.00
10.099 2395.00
10.1642 2516.00
10.2294 2414.00
10.2946 2401.00
10.3598 2321.00
10.425 2371.00
10.4902 2434.00
10.5554 2353.00
10.6206 2247.00
10.6858 2268.00
10.751 2278.00
10.8162 2242.00
10.8814 2235.00
10.9466 2196.00
11.0118 2195.00
11.077 2153.00
11.1422 2169.00
11.2074 2131.00
11.2726 2246.00
11.3378 2155.00
11.403 2090.00
11.4682 2031.00
11.5334 2047.00
11.5986 2023.00
11.6638 2074.00
11.729 2019.00
11.7942 2008.00
11.8594 1980.00
11.9246 1945.00
11.9898 1958.00
12.055 1967.00
12.1202 1969.00
12.1854 1820.00
12.2506 1905.00
12.3158 1872.00
12.381 1796.00
12.4462 1828.00
12.5114 1883.00
12.5766 1766.00
12.6418 1846.00
12.707 1822.00
12.7722 1777.00
12.8374 1774.00
12.9026 1661.00
12.9678 1730.00
13.033 1638.00
13.0982 1691.00
13.1634 1699.00
13.2286 1643.00
13.2938 1732.00
13.359 1668.00
13.4242 1667.00
13.4894 1689.00
13.5546 1676.00
13.6198 1574.00
13.685 1611.00
13.7502 1628.00
13.8154 1601.00
13.8805 1654.00
13.9457 1552.00
14.0109 1642.00
14.0761 1601.00
14.1413 1520.00
14.2065 1578.00
14.2717 1590.00
14.3369 1538.00
14.4021 1517.00
14.4673 1563.00
14.5325 1508.00
14.5977 1522.00
14.6629 1523.00
14.7281 1529.00
14.7933 1539.00
14.8585 1511.00
14.9237 1544.00
14.9889 1426.00
15.0541 1505.00
15.1193 1501.00
15.1845 1525.00
15.2497 1492.00
15.3149 1427.00
15.3801 1405.00
15.4453 1399.00
15.5105 1424.00
15.5757 1498.00
15.6409 1549.00
15.7061 1401.00
15.7713 1394.00
15.8365 1431.00
15.9017 1438.00
15.9669 1384.00
16.0321 1503.00
16.0973 1468.00
16.1625 1371.00
16.2277 1359.00
16.2929 1454.00
16.3581 1430.00
16.4233 1442.00
16.4885 1523.00
16.5537 1555.00
16.6189 1420.00
16.6841 1404.00
16.7493 1347.00
16.8145 1384.00
16.8797 1397.00
16.9449 1405.00
17.0101 1353.00
17.0753 1369.00
17.1405 1349.00
17.2057 1273.00
17.2709 1290.00
17.3361 1336.00
17.4013 1305.00
17.4665 1275.00
17.5317 1337.00
17.5969 1268.00
17.6621 1309.00
17.7273 1301.00
17.7925 1200.00
17.8577 1274.00
17.9229 1286.00
17.9881 1224.00
18.0533 1267.00
18.1185 1232.00
18.1837 1221.00
18.2489 1198.00
18.3141 1236.00
18.3793 1264.00
18.4445 1177.00
18.5097 1229.00
18.5749 1215.00
18.6401 1211.00
18.7052 1209.00
18.7704 1151.00
18.8356 1105.00
18.9008 1152.00
18.966 1218.00
19.0312 1176.00
19.0964 1201.00
19.1616 1312.00
19.2268 1136.00
19.292 1186.00
19.3572 1154.00
19.4224 1131.00
19.4876 1176.00
19.5528 1136.00
19.618 1173.00
19.6832 1208.00
19.7484 1135.00
19.8136 1186.00
19.8788 1142.00
19.944 1193.00
20.0092 1189.00
20.0744 1153.00
20.1396 1204.00
20.2048 1246.00
20.27 1194.00
20.3352 1284.00
20.4004 1445.00
20.4656 1733.00
20.5308 2306.00
20.596 2797.00
20.6612 3858.00
20.7264 5420.00
20.7916 6659.00
20.8568 7837.00
20.922 6559.00
20.9872 4556.00
21.0524 3720.00
21.1176 4224.00
21.1828 5472.00
21.248 6807.00
21.3132 7911.00
21.3784 7702.00
21.4436 5361.00
21.5088 2963.00
21.574 1770.00
21.6392 1379.00
21.7044 1297.00
21.7696 1209.00
21.8348 1154.00
21.9 1147.00
21.9652 1076.00
22.0304 1106.00
22.0956 1087.00
22.1608 1100.00
22.226 1032.00
22.2912 1068.00
22.3564 1044.00
22.4216 1099.00
22.4868 1063.00
22.552 995.00
22.6172 1036.00
22.6824 978.00
22.7476 983.00
22.8128 1069.00
22.878 1009.00
22.9432 1029.00
23.0084 970.00
23.0736 998.00
23.1388 1066.00
23.204 993.00
23.2692 1018.00
23.3344 1134.00
23.3996 1051.00
23.4647 1195.00
23.5299 1324.00
23.5951 1559.00
23.6603 1786.00
23.7255 2029.00
23.7907 1936.00
23.8559 1643.00
23.9211 1316.00
23.9863 1089.00
24.0515 1068.00
24.1167 990.00
24.1819 909.00
24.2471 1033.00
24.3123 995.00
24.3775 1012.00
24.4427 926.00
24.5079 895.00
24.5731 878.00
24.6383 936.00
24.7035 935.00
24.7687 905.00
24.8339 930.00
24.8991 974.00
24.9643 913.00
25.0295 955.00
25.0947 943.00
25.1599 999.00
25.2251 1081.00
25.2903 1097.00
25.3555 1268.00
25.4207 1343.00
25.4859 1434.00
25.5511 1442.00
25.6163 1391.00
25.6815 1056.00
25.7467 960.00
25.8119 873.00
25.8771 900.00
25.9423 944.00
26.0075 898.00
26.0727 902.00
26.1379 910.00
26.2031 891.00
26.2683 835.00
26.3335 929.00
26.3987 931.00
26.4639 911.00
26.5291 954.00
26.5943 950.00
26.6595 966.00
26.7247 1109.00
26.7899 1296.00
26.8551 1407.00
26.9203 1615.00
26.9855 1689.00
27.0507 1538.00
27.1159 1267.00
27.1811 1052.00
27.2463 909.00
27.3115 869.00
27.3767 887.00
27.4419 915.00
27.5071 845.00
27.5723 872.00
27.6375 841.00
27.7027 841.00
27.7679 839.00
27.8331 871.00
27.8983 846.00
27.9635 827.00
28.0287 876.00
28.0939 796.00
28.1591 810.00
28.2243 817.00
28.2894 818.00
28.3546 813.00
28.4198 805.00
28.485 856.00
28.5502 808.00
28.6154 812.00
28.6806 776.00
28.7458 848.00
28.811 773.00
28.8762 838.00
28.9414 854.00
29.0066 814.00
29.0718 784.00
29.137 879.00
29.2022 791.00
29.2674 844.00
29.3326 869.00
29.3978 877.00
29.463 900.00
29.5282 851.00
29.5934 913.00
29.6586 921.00
29.7238 962.00
29.789 957.00
29.8542 975.00
29.9194 1011.00
29.9846 1093.00
30.0498 1319.00
30.115 1630.00
30.1802 2078.00
30.2454 3083.00
30.3106 4567.00
30.3758 6095.00
30.441 7570.00
30.5062 6902.00
30.5714 5004.00
30.6366 2915.00
30.7018 1792.00
30.767 1359.00
30.8322 1138.00
30.8974 1049.00
30.9626 1002.00
31.0278 856.00
31.093 907.00
31.1582 877.00
31.2234 923.00
31.2886 908.00
31.3538 940.00
31.419 863.00
31.4842 937.00
31.5494 932.00
31.6146 942.00
31.6798 848.00
31.745 871.00
31.8102 810.00
31.8754 785.00
31.9406 800.00
32.0058 814.00
32.071 864.00
32.1362 819.00
32.2014 816.00
32.2666 861.00
32.3318 838.00
32.397 836.00
32.4622 860.00
32.5274 886.00
32.5926 938.00
32.6578 1022.00
32.723 1253.00
32.7882 1640.00
32.8534 2444.00
32.9186 3818.00
32.9838 5699.00
33.0489 7633.00
33.1141 7865.00
33.1793 6418.00
33.2445 3972.00
33.3097 2269.00
33.3749 1441.00
33.4401 1147.00
33.5053 1113.00
33.5705 1008.00
33.6357 1039.00
33.7009 980.00
33.7661 1060.00
33.8313 1168.00
33.8965 1211.00
33.9617 1412.00
34.0269 1931.00
34.0921 2724.00
34.1573 4235.00
34.2225 6620.00
34.2877 9139.00
34.3529 10778.00
34.4181 9649.00
34.4833 6491.00
34.5485 3971.00
34.6137 2532.00
34.6789 2753.00
34.7441 3411.00
34.8093 5318.00
34.8745 7750.00
34.9397 11268.00
35.0049 14106.00
35.0701 14946.00
35.1353 11811.00
35.2005 7245.00
35.2657 3751.00
35.3309 2210.00
35.3961 1702.00
35.4613 1567.00
35.5265 1506.00
35.5917 1318.00
35.6569 1208.00
35.7221 1009.00
35.7873 900.00
35.8525 903.00
35.9177 915.00
35.9829 908.00
36.0481 808.00
36.1133 843.00
36.1785 768.00
36.2437 824.00
36.3089 809.00
36.3741 790.00
36.4393 787.00
36.5045 804.00
36.5697 782.00
36.6349 798.00
36.7001 742.00
36.7653 830.00
36.8305 767.00
36.8957 823.00
36.9609 872.00
37.0261 975.00
37.0913 1005.00
37.1565 1426.00
37.2217 1907.00
37.2869 2459.00
37.3521 2992.00
37.4173 2945.00
37.4825 2495.00
37.5477 1799.00
37.6129 1261.00
37.6781 1054.00
37.7433 910.00
37.8085 856.00
37.8736 847.00
37.9388 807.00
38.004 852.00
38.0692 894.00
38.1344 1023.00
38.1996 1012.00
38.2648 939.00
38.33 866.00
38.3952 858.00
38.4604 762.00
38.5256 680.00
38.5908 730.00
38.656 673.00
38.7212 652.00
38.7864 638.00
38.8516 703.00
38.9168 644.00
38.982 678.00
39.0472 690.00
39.1124 671.00
39.1776 665.00
39.2428 681.00
39.308 730.00
39.3732 858.00
39.4384 1005.00
39.5036 1224.00
39.5688 1460.00
39.634 1533.00
39.6992 1279.00
39.7644 1178.00
39.8296 866.00
39.8948 796.00
39.96 697.00
40.0252 833.00
40.0904 834.00
40.1556 846.00
40.2208 957.00
40.286 1159.00
40.3512 1327.00
40.4164 1420.00
40.4816 1451.00
40.5468 1235.00
40.612 928.00
40.6772 752.00
40.7424 717.00
40.8076 659.00
40.8728 600.00
40.938 591.00
41.0032 597.00
41.0684 644.00
41.1336 616.00
41.1988 627.00
41.264 663.00
41.3292 669.00
41.3944 690.00
41.4596 702.00
41.5248 743.00
41.59 780.00
41.6552 749.00
41.7204 736.00
41.7856 764.00
41.8508 810.00
41.916 885.00
41.9812 1001.00
42.0464 1283.00
42.1116 1644.00
42.1768 1761.00
42.242 1763.00
42.3072 1624.00
42.3724 1629.00
42.4376 1314.00
42.5028 1048.00
42.568 805.00
42.6332 662.00
42.6983 660.00
42.7635 655.00
42.8287 692.00
42.8939 685.00
42.9591 835.00
43.0243 936.00
43.0895 1147.00
43.1547 1222.00
43.2199 1281.00
43.2851 1035.00
43.3503 849.00
43.4155 710.00
43.4807 568.00
43.5459 580.00
43.6111 570.00
43.6763 529.00
43.7415 556.00
43.8067 524.00
43.8719 523.00
43.9371 543.00
44.0023 544.00
44.0675 527.00
44.1327 540.00
44.1979 507.00
44.2631 526.00
44.3283 529.00
44.3935 515.00
44.4587 528.00
44.5239 539.00
44.5891 569.00
44.6543 554.00
44.7195 579.00
44.7847 536.00
44.8499 553.00
44.9151 547.00
44.9803 569.00
45.0455 558.00
45.1107 574.00
45.1759 597.00
45.2411 563.00
45.3063 669.00
45.3715 690.00
45.4367 721.00
45.5019 899.00
45.5671 1103.00
45.6323 1338.00
45.6975 1440.00
45.7627 1349.00
45.8279 1215.00
45.8931 1024.00
45.9583 834.00
46.0235 838.00
46.0887 875.00
46.1539 1092.00
46.2191 1300.00
46.2843 1739.00
46.3495 2109.00
46.4147 2412.00
46.4799 2434.00
46.5451 2121.00
46.6103 1673.00
46.6755 1261.00
46.7407 987.00
46.8059 767.00
46.8711 745.00
46.9363 670.00
47.0015 618.00
47.0667 562.00
47.1319 530.00
47.1971 560.00
47.2623 602.00
47.3275 556.00
47.3927 488.00
47.4579 528.00
47.523 515.00
47.5882 526.00
47.6534 562.00
47.7186 515.00
47.7838 509.00
47.849 597.00
47.9142 637.00
47.9794 775.00
48.0446 944.00
48.1098 1321.00
48.175 1627.00
48.2402 2173.00
48.3054 2564.00
48.3706 2378.00
48.4358 1953.00
48.501 1528.00
48.5662 1044.00
48.6314 833.00
48.6966 673.00
48.7618 596.00
48.827 564.00
48.8922 535.00
48.9574 523.00
49.0226 519.00
49.0878 557.00
49.153 521.00
49.2182 533.00
49.2834 550.00
49.3486 555.00
49.4138 513.00
49.479 496.00
49.5442 518.00
49.6094 514.00
49.6746 490.00
49.7398 519.00
49.805 489.00
49.8702 572.00
49.9354 565.00
50.0006 680.00
50.0658 791.00
50.131 798.00
50.1962 893.00
50.2614 892.00
50.3266 791.00
50.3918 748.00
50.457 804.00
50.5222 714.00
50.5874 678.00
50.6526 603.00
50.7178 601.00
50.783 597.00
50.8482 524.00
50.9134 578.00
50.9786 508.00
51.0438 496.00
51.109 531.00
51.1742 513.00
51.2394 519.00
51.3046 561.00
51.3698 604.00
51.435 632.00
51.5002 719.00
51.5654 778.00
51.6306 813.00
51.6958 789.00
51.761 826.00
51.8262 871.00
51.8914 1071.00
51.9566 1422.00
52.0218 1964.00
52.087 2607.00
52.1522 3045.00
52.2174 3083.00
52.2826 2706.00
52.3477 1992.00
52.4129 1296.00
52.4781 884.00
52.5433 659.00
52.6085 554.00
52.6737 482.00
52.7389 489.00
52.8041 439.00
52.8693 526.00
52.9345 507.00
52.9997 446.00
53.0649 484.00
53.1301 469.00
53.1953 467.00
53.2605 528.00
53.3257 494.00
53.3909 474.00
53.4561 493.00
53.5213 489.00
53.5865 545.00
53.6517 529.00
53.7169 538.00
53.7821 535.00
53.8473 621.00
53.9125 761.00
53.9777 831.00
54.0429 905.00
54.1081 1035.00
54.1733 1051.00
54.2385 1014.00
54.3037 791.00
54.3689 763.00
54.4341 786.00
54.4993 825.00
54.5645 937.00
54.6297 1084.00
54.6949 1038.00
54.7601 959.00
54.8253 855.00
54.8905 812.00
54.9557 815.00
55.0209 909.00
55.0861 1124.00
55.1513 1474.00
55.2165 1793.00
55.2817 2033.00
55.3469 2059.00
55.4121 2009.00
55.4773 1711.00
55.5425 1290.00
55.6077 1010.00
55.6729 721.00
55.7381 616.00
55.8033 625.00
55.8685 523.00
55.9337 559.00
55.9989 503.00
56.0641 522.00
56.1293 457.00
56.1945 449.00
56.2597 506.00
56.3249 503.00
56.3901 475.00
56.4553 510.00
56.5205 538.00
56.5857 493.00
56.6509 601.00
56.7161 603.00
56.7813 671.00
56.8465 729.00
56.9117 942.00
56.9769 1222.00
57.042 1782.00
57.1073 2293.00
57.1724 3271.00
57.2376 3580.00
57.3028 3530.00
57.368 2836.00
57.4332 2215.00
57.4984 1474.00
57.5636 1035.00
57.6288 812.00
57.694 765.00
57.7592 699.00
57.8244 795.00
57.8896 840.00
57.9548 908.00
58.02 948.00
58.0852 783.00
58.1504 708.00
58.2156 614.00
58.2808 502.00
58.346 546.00
58.4112 473.00
58.4764 507.00
58.5416 494.00
58.6068 472.00
58.672 452.00
58.7372 472.00
58.8024 457.00
58.8676 460.00
58.9328 465.00
58.998 457.00
59.0632 470.00
59.1284 453.00
59.1936 468.00
59.2588 480.00
59.324 491.00
59.3892 489.00
59.4544 508.00
59.5196 496.00
59.5848 491.00
59.65 474.00
59.7152 487.00
59.7804 491.00
59.8456 563.00
59.9108 639.00
59.976 782.00
60.0412 975.00
60.1064 1018.00
60.1716 1068.00
60.2368 948.00
60.302 828.00
60.3672 688.00
60.4324 616.00
60.4976 586.00
60.5628 515.00
60.628 545.00
60.6932 477.00
60.7584 518.00
60.8236 481.00
60.8888 514.00
60.954 489.00
61.0192 505.00
61.0844 534.00
61.1496 560.00
61.2148 618.00
61.28 638.00
61.3452 832.00
61.4104 1171.00
61.4756 1519.00
61.5408 2273.00
61.606 2970.00
61.6712 3571.00
61.7364 3853.00
61.8016 3648.00
61.8667 3287.00
61.932 2463.00
61.9971 1868.00
62.0623 1451.00
62.1275 1053.00
62.1927 805.00
62.2579 709.00
62.3231 779.00
62.3883 683.00
62.4535 710.00
62.5187 736.00
62.5839 708.00
62.6491 673.00
62.7143 742.00
62.7795 773.00
62.8447 975.00
62.9099 1238.00
62.9751 1433.00
63.0403 1792.00
63.1055 1882.00
63.1707 1990.00
63.2359 1821.00
63.3011 1734.00
63.3663 1606.00
63.4315 1371.00
63.4967 1279.00
63.5619 1270.00
63.6271 1340.00
63.6923 1594.00
63.7575 1771.00
63.8227 1882.00
63.8879 1937.00
63.9531 1785.00
64.0183 1489.00
64.0835 1168.00
64.1487 1003.00
64.2139 739.00
64.2791 599.00
64.3443 556.00
64.4095 528.00
64.4747 546.00
64.5399 574.00
64.6051 557.00
64.6703 605.00
64.7355 635.00
64.8007 684.00
64.8659 756.00
64.9311 737.00
64.9963 686.00
65.0615 663.00
65.1267 629.00
65.1919 599.00
65.2571 559.00
65.3223 580.00
65.3875 557.00
65.4527 594.00
65.5179 666.00
65.5831 845.00
65.6483 951.00
65.7135 1244.00
65.7787 1391.00
65.8439 1398.00
65.9091 1252.00
65.9743 1139.00
66.0395 947.00
66.1047 746.00
66.1699 666.00
66.2351 559.00
66.3003 543.00
66.3655 509.00
66.4307 525.00
66.4959 506.00
66.561 524.00
66.6263 541.00
66.6915 589.00
66.7566 668.00
66.8218 623.00
66.887 673.00
66.9522 555.00
67.0174 542.00
67.0826 531.00
67.1478 526.00
67.213 471.00
67.2782 474.00
67.3434 462.00
67.4086 459.00
67.4738 514.00
67.539 558.00
67.6042 611.00
67.6694 708.00
67.7346 767.00
67.7998 825.00
67.865 866.00
67.9302 804.00
67.9954 825.00
68.0606 957.00
68.1258 1139.00
68.191 1567.00
68.2562 1952.00
68.3214 2186.00
68.3866 2309.00
68.4518 1994.00
68.517 1821.00
68.5822 1489.00
68.6474 1222.00
68.7126 870.00
68.7778 743.00
68.843 677.00
68.9082 667.00
68.9734 740.00
69.0386 742.00
69.1038 841.00
69.169 846.00
69.2342 906.00
69.2994 865.00
69.3646 842.00
69.4298 737.00
69.495 638.00
69.5602 484.00
69.6254 488.00
69.6906 442.00
69.7558 415.00
69.821 430.00
69.8862 436.00
69.9514 417.00
70.0166 407.00
70.0818 392.00
70.147 403.00
70.2122 402.00
70.2774 385.00
70.3426 448.00
70.4078 478.00
70.473 505.00
70.5382 492.00
70.6034 492.00
70.6686 476.00
70.7338 468.00
70.799 411.00
70.8642 396.00
70.9294 392.00
70.9946 408.00
71.0598 357.00
71.125 361.00
71.1902 381.00
71.2554 409.00
71.3205 456.00
71.3858 486.00
71.451 594.00
71.5162 772.00
71.5813 894.00
71.6465 1080.00
71.7117 1117.00
71.7769 1148.00
71.8421 1069.00
71.9073 1079.00
71.9725 1018.00
72.0377 885.00
72.1029 839.00
72.1681 745.00
72.2333 648.00
72.2985 542.00
72.3637 476.00
72.4289 455.00
72.4941 389.00
72.5593 404.00
72.6245 404.00
72.6897 395.00
72.7549 390.00
72.8201 418.00
72.8853 395.00
72.9505 398.00
73.0157 400.00
73.0809 432.00
73.1461 434.00
73.2113 426.00
73.2765 468.00
73.3417 518.00
73.4069 570.00
73.4721 709.00
73.5373 803.00
73.6025 939.00
73.6677 1027.00
73.7329 934.00
73.7981 956.00
73.8633 857.00
73.9285 719.00
73.9937 588.00
74.0589 528.00
74.1241 499.00
74.1893 422.00
74.2545 373.00
74.3197 375.00
74.3849 377.00
74.4501 356.00
74.5153 347.00
74.5805 364.00
74.6457 341.00
74.7109 356.00
74.7761 373.00
74.8413 364.00
74.9065 378.00
74.9717 354.00
75.0369 381.00
75.1021 388.00
75.1673 379.00
75.2325 386.00
75.2977 434.00
75.3629 442.00
75.4281 414.00
75.4933 457.00
75.5585 449.00
75.6237 492.00
75.6889 512.00
75.7541 537.00
75.8193 534.00
75.8845 491.00
75.9497 508.00
76.0149 439.00
76.0801 460.00
76.1452 488.00
76.2104 470.00
76.2756 497.00
76.3409 553.00
76.406 516.00
76.4712 519.00
76.5364 529.00
76.6016 500.00
76.6668 515.00
76.732 534.00
76.7972 531.00
76.8624 557.00
76.9276 534.00
76.9928 493.00
77.058 463.00
77.1232 483.00
77.1884 464.00
77.2536 438.00
77.3188 463.00
77.384 412.00
77.4492 375.00
77.5144 420.00
77.5796 421.00
77.6448 405.00
77.71 462.00
77.7752 393.00
77.8404 417.00
77.9056 424.00
77.9708 434.00
78.036 385.00
78.1012 388.00
78.1664 371.00
78.2316 357.00
78.2968 371.00
78.362 322.00
78.4272 381.00
78.4924 319.00
78.5576 339.00
78.6228 419.00
78.688 468.00
78.7532 453.00
78.8184 420.00
78.8836 456.00
78.9488 481.00
79.014 413.00
79.0792 430.00
79.1444 444.00
79.2096 452.00
79.2748 464.00
79.34 503.00
79.4052 508.00
79.4704 523.00
79.5356 538.00
79.6008 485.00
79.666 436.00
79.7312 426.00
79.7964 438.00
79.8616 441.00
79.9268 412.00
79.992 463.00
80.0572 477.00
80.1224 449.00
80.1876 491.00
80.2528 416.00
80.318 446.00
80.3832 418.00
80.4484 400.00
80.5136 400.00
80.5788 449.00
80.644 462.00
80.7092 432.00
80.7744 465.00
80.8396 480.00
80.9048 483.00
80.9699 508.00
81.0351 544.00
81.1003 620.00
81.1655 640.00
81.2307 593.00
81.2959 631.00
81.3611 645.00
81.4263 689.00
81.4915 630.00
81.5567 542.00
81.6219 605.00
81.6871 541.00
81.7523 563.00
81.8175 518.00
81.8827 493.00
81.9479 444.00
82.0131 434.00
82.0783 437.00
82.1435 400.00
82.2087 370.00
82.2739 350.00
82.3391 368.00
82.4043 368.00
82.4695 360.00
82.5347 371.00
82.5999 405.00
82.6651 381.00
82.7303 378.00
82.7955 394.00
82.8607 388.00
82.9259 431.00
82.9911 429.00
83.0563 399.00
83.1215 377.00
83.1867 371.00
83.2519 364.00
83.3171 312.00
83.3823 339.00
83.4475 326.00
83.5127 314.00
83.5779 330.00
83.6431 314.00
83.7083 323.00
83.7735 317.00
83.8387 355.00
83.9039 328.00
83.9691 322.00
84.0343 318.00
84.0995 372.00
84.1647 367.00
84.2299 373.00
84.2951 353.00
84.3603 379.00
84.4255 385.00
84.4907 370.00
84.5559 391.00
84.6211 395.00
84.6863 414.00
84.7515 436.00
84.8167 396.00
84.8819 443.00
84.9471 418.00
85.0123 401.00
85.0775 388.00
85.1427 378.00
85.2079 385.00
85.2731 417.00
85.3383 376.00
85.4035 410.00
85.4687 391.00
85.5339 401.00
85.5991 415.00
85.6643 438.00
85.7295 397.00
85.7946 410.00
85.8598 453.00
85.925 453.00
85.9903 548.00
86.0554 547.00
86.1206 655.00
86.1858 656.00
86.251 707.00
86.3162 745.00
86.3814 771.00
86.4466 736.00
86.5118 692.00
86.577 618.00
86.6422 607.00
86.7074 607.00
86.7726 617.00
86.8378 708.00
86.903 818.00
86.9682 998.00
87.0334 1107.00
87.0986 1213.00
87.1638 1227.00
87.229 1090.00
87.2942 1074.00
87.3594 943.00
87.4246 798.00
87.4898 671.00
87.555 545.00
87.6202 505.00
87.6854 481.00
87.7506 375.00
87.8158 400.00
87.881 420.00
87.9462 455.00
88.0114 430.00
88.0766 405.00
88.1418 441.00
88.207 413.00
88.2722 381.00
88.3374 415.00
88.4026 382.00
88.4678 401.00
88.533 365.00
88.5982 351.00
88.6634 336.00
88.7286 372.00
88.7938 316.00
88.859 320.00
88.9242 320.00
88.9894 343.00
89.0546 348.00
89.1198 388.00
89.185 378.00
89.2502 399.00
89.3154 402.00
89.3806 369.00
89.4458 380.00
89.511 378.00
89.5762 376.00
89.6414 347.00
89.7066 320.00
89.7718 353.00
89.837 347.00
89.9022 352.00
89.9674 328.00
90.0326 382.00
90.0978 383.00
90.163 382.00
90.2282 411.00
90.2934 399.00
90.3586 411.00
90.4238 379.00
90.489 396.00
90.5542 410.00
90.6193 395.00
90.6845 389.00
90.7497 370.00
90.8149 377.00
90.8801 346.00
90.9453 342.00
91.0105 365.00
91.0757 377.00
91.1409 364.00
91.2061 354.00
91.2713 367.00
91.3365 364.00
91.4017 425.00
91.4669 490.00
91.5321 544.00
91.5973 668.00
91.6625 702.00
91.7277 730.00
91.7929 743.00
91.8581 697.00
91.9233 657.00
91.9885 711.00
92.0537 663.00
92.1189 569.00
92.1841 555.00
92.2493 459.00
92.3145 430.00
92.3797 422.00
92.4449 400.00
92.5101 393.00
92.5753 384.00
92.6405 345.00
92.7057 383.00
92.7709 340.00
92.8361 364.00
92.9013 379.00
92.9665 357.00
93.0317 384.00
93.0969 400.00
93.1621 369.00
93.2273 393.00
93.2925 360.00
93.3577 357.00
93.4229 395.00
93.4881 446.00
93.5533 467.00
93.6185 507.00
93.6837 556.00
93.7489 676.00
93.8141 786.00
93.8793 1000.00
93.9445 1146.00
94.0097 1222.00
94.0749 1173.00
94.1401 1164.00
94.2053 1089.00
94.2705 1109.00
94.3357 1020.00
94.4009 935.00
94.4661 860.00
94.5313 737.00
94.5965 715.00
94.6617 620.00
94.7269 555.00
94.7921 485.00
94.8573 542.00
94.9225 489.00
94.9877 430.00
95.0529 375.00
95.1181 355.00
95.1833 384.00
95.2485 341.00
95.3137 348.00
95.3789 398.00
95.444 465.00
95.5092 521.00
95.5744 599.00
95.6396 656.00
95.7048 644.00
95.77 574.00
95.8352 547.00
95.9004 567.00
95.9656 529.00
96.0308 545.00
96.096 464.00
96.1612 439.00
96.2264 393.00
96.2916 376.00
96.3568 385.00
96.422 383.00
96.4872 369.00
96.5524 375.00
96.6176 386.00
96.6828 383.00
96.748 385.00
96.8132 368.00
96.8784 369.00
96.9436 364.00
97.0088 358.00
97.074 363.00
97.1392 383.00
97.2044 379.00
97.2696 382.00
97.3348 347.00
97.4 363.00
97.4652 362.00
97.5304 378.00
97.5956 399.00
97.6608 356.00
97.726 361.00
97.7912 405.00
97.8564 392.00
97.9216 397.00
97.9868 446.00
98.052 501.00
98.1172 493.00
98.1824 561.00
98.2476 552.00
98.3128 681.00
98.378 666.00
98.4432 660.00
98.5084 666.00
98.5736 674.00
98.6388 652.00
98.704 656.00
98.7692 575.00
98.8344 564.00
98.8996 531.00
98.9648 505.00
99.03 464.00
99.0952 415.00
99.1604 399.00
99.2256 348.00
99.2908 357.00
99.356 352.00
99.4212 378.00
99.4864 369.00
99.5516 340.00
99.6168 339.00
99.682 364.00
99.7472 353.00
99.8124 347.00
99.8776 326.00
99.9428 354.00
100.008 347.00
100.073 323.00
100.095 335.00