File: data/xrd_creation/results/NSC_77.xy
9.903433 2990.00
9.968632 2904.00
10.0338 2916.00
10.099 2986.00
10.1642 2854.00
10.2294 2929.00
10.2946 2806.00
10.3598 2917.00
10.425 2893.00
10.4902 2764.00
10.5554 2811.00
10.6206 2738.00
10.6858 2671.00
10.751 2686.00
10.8162 2764.00
10.8814 2733.00
10.9466 2739.00
11.0118 2672.00
11.077 2666.00
11.1422 2617.00
11.2074 2560.00
11.2726 2709.00
11.3378 2576.00
11.403 2578.00
11.4682 2568.00
11.5334 2608.00
11.5986 2609.00
11.6638 2457.00
11.729 2542.00
11.7942 2495.00
11.8594 2455.00
11.9246 2488.00
11.9898 2468.00
12.055 2438.00
12.1202 2384.00
12.1854 2449.00
12.2506 2496.00
12.3158 2501.00
12.381 2379.00
12.4462 2487.00
12.5114 2455.00
12.5766 2422.00
12.6418 2396.00
12.707 2387.00
12.7722 2346.00
12.8374 2440.00
12.9026 2296.00
12.9678 2276.00
13.033 2357.00
13.0982 2245.00
13.1634 2326.00
13.2286 2295.00
13.2938 2285.00
13.359 2216.00
13.4242 2267.00
13.4894 2312.00
13.5546 2275.00
13.6198 2299.00
13.685 2232.00
13.7502 2229.00
13.8154 2276.00
13.8805 2162.00
13.9457 2202.00
14.0109 2180.00
14.0761 2225.00
14.1413 2146.00
14.2065 2121.00
14.2717 2150.00
14.3369 2102.00
14.4021 2163.00
14.4673 2290.00
14.5325 2128.00
14.5977 2096.00
14.6629 2116.00
14.7281 2152.00
14.7933 2190.00
14.8585 2094.00
14.9237 2045.00
14.9889 2112.00
15.0541 2074.00
15.1193 2125.00
15.1845 2158.00
15.2497 2059.00
15.3149 2098.00
15.3801 2062.00
15.4453 2078.00
15.5105 1972.00
15.5757 2091.00
15.6409 2115.00
15.7061 1924.00
15.7713 2125.00
15.8365 1998.00
15.9017 2012.00
15.9669 1983.00
16.0321 1985.00
16.0973 2023.00
16.1625 1997.00
16.2277 1981.00
16.2929 2015.00
16.3581 1948.00
16.4233 1942.00
16.4885 1994.00
16.5537 1999.00
16.6189 1935.00
16.6841 1978.00
16.7493 1973.00
16.8145 2038.00
16.8797 1999.00
16.9449 1859.00
17.0101 1946.00
17.0753 1969.00
17.1405 2015.00
17.2057 1946.00
17.2709 1978.00
17.3361 1956.00
17.4013 1945.00
17.4665 1902.00
17.5317 1947.00
17.5969 1892.00
17.6621 1870.00
17.7273 1919.00
17.7925 1811.00
17.8577 1849.00
17.9229 1949.00
17.9881 2005.00
18.0533 1957.00
18.1185 1862.00
18.1837 1919.00
18.2489 1763.00
18.3141 1862.00
18.3793 1875.00
18.4445 1819.00
18.5097 1777.00
18.5749 1879.00
18.6401 1924.00
18.7052 1893.00
18.7704 1889.00
18.8356 1845.00
18.9008 1823.00
18.966 1853.00
19.0312 1822.00
19.0964 1879.00
19.1616 1921.00
19.2268 1901.00
19.292 2072.00
19.3572 2114.00
19.4224 2597.00
19.4876 3058.00
19.5528 3648.00
19.618 3713.00
19.6832 3143.00
19.7484 2283.00
19.8136 1909.00
19.8788 1952.00
19.944 1854.00
20.0092 1782.00
20.0744 1801.00
20.1396 1893.00
20.2048 1807.00
20.27 1721.00
20.3352 1853.00
20.4004 1729.00
20.4656 1854.00
20.5308 1803.00
20.596 1769.00
20.6612 1862.00
20.7264 1736.00
20.7916 1778.00
20.8568 1796.00
20.922 1796.00
20.9872 1781.00
21.0524 1739.00
21.1176 1740.00
21.1828 1735.00
21.248 1801.00
21.3132 1990.00
21.3784 1933.00
21.4436 2100.00
21.5088 2166.00
21.574 2270.00
21.6392 2258.00
21.7044 2164.00
21.7696 1908.00
21.8348 1828.00
21.9 1749.00
21.9652 1829.00
22.0304 1720.00
22.0956 1855.00
22.1608 1759.00
22.226 1783.00
22.2912 1671.00
22.3564 1714.00
22.4216 1787.00
22.4868 1702.00
22.552 1753.00
22.6172 1736.00
22.6824 1684.00
22.7476 1693.00
22.8128 1704.00
22.878 1727.00
22.9432 1731.00
23.0084 1698.00
23.0736 1797.00
23.1388 1717.00
23.204 1784.00
23.2692 1761.00
23.3344 1740.00
23.3996 1742.00
23.4647 1728.00
23.5299 1696.00
23.5951 1743.00
23.6603 1742.00
23.7255 1786.00
23.7907 1671.00
23.8559 1726.00
23.9211 1690.00
23.9863 1711.00
24.0515 1701.00
24.1167 1715.00
24.1819 1615.00
24.2471 1711.00
24.3123 1687.00
24.3775 1797.00
24.4427 1655.00
24.5079 1663.00
24.5731 1675.00
24.6383 1717.00
24.7035 1690.00
24.7687 1772.00
24.8339 1791.00
24.8991 1768.00
24.9643 1879.00
25.0295 1842.00
25.0947 1847.00
25.1599 1884.00
25.2251 1962.00
25.2903 2026.00
25.3555 2277.00
25.4207 2567.00
25.4859 3398.00
25.5511 5363.00
25.6163 8724.00
25.6815 12657.00
25.7467 14226.00
25.8119 10769.00
25.8771 6226.00
25.9423 3343.00
26.0075 2352.00
26.0727 2128.00
26.1379 1968.00
26.2031 1923.00
26.2683 1873.00
26.3335 1761.00
26.3987 1734.00
26.4639 1785.00
26.5291 1773.00
26.5943 1707.00
26.6595 1675.00
26.7247 1650.00
26.7899 1734.00
26.8551 1694.00
26.9203 1753.00
26.9855 1725.00
27.0507 1788.00
27.1159 1705.00
27.1811 1807.00
27.2463 1730.00
27.3115 1717.00
27.3767 1944.00
27.4419 1929.00
27.5071 2000.00
27.5723 2207.00
27.6375 2868.00
27.7027 4179.00
27.7679 6617.00
27.8331 9467.00
27.8983 9364.00
27.9635 6387.00
28.0287 3747.00
28.0939 2432.00
28.1591 1997.00
28.2243 1893.00
28.2894 1786.00
28.3546 1762.00
28.4198 1826.00
28.485 1656.00
28.5502 1766.00
28.6154 1678.00
28.6806 1681.00
28.7458 1770.00
28.811 1693.00
28.8762 1709.00
28.9414 1783.00
29.0066 1885.00
29.0718 2072.00
29.137 2363.00
29.2022 3131.00
29.2674 4229.00
29.3326 4931.00
29.3978 4305.00
29.463 3207.00
29.5282 2560.00
29.5934 2343.00
29.6586 2192.00
29.7238 2053.00
29.789 1775.00
29.8542 1697.00
29.9194 1734.00
29.9846 1763.00
30.0498 1816.00
30.115 1804.00
30.1802 1669.00
30.2454 1642.00
30.3106 1716.00
30.3758 1676.00
30.441 1584.00
30.5062 1568.00
30.5714 1634.00
30.6366 1634.00
30.7018 1598.00
30.767 1522.00
30.8322 1575.00
30.8974 1482.00
30.9626 1614.00
31.0278 1508.00
31.093 1455.00
31.1582 1465.00
31.2234 1513.00
31.2886 1527.00
31.3538 1471.00
31.419 1543.00
31.4842 1500.00
31.5494 1520.00
31.6146 1526.00
31.6798 1450.00
31.745 1546.00
31.8102 1405.00
31.8754 1472.00
31.9406 1546.00
32.0058 1483.00
32.071 1516.00
32.1362 1448.00
32.2014 1430.00
32.2666 1437.00
32.3318 1393.00
32.397 1517.00
32.4622 1453.00
32.5274 1459.00
32.5926 1491.00
32.6578 1452.00
32.723 1396.00
32.7882 1440.00
32.8534 1395.00
32.9186 1371.00
32.9838 1394.00
33.0489 1412.00
33.1141 1343.00
33.1793 1343.00
33.2445 1369.00
33.3097 1360.00
33.3749 1414.00
33.4401 1384.00
33.5053 1384.00
33.5705 1383.00
33.6357 1324.00
33.7009 1394.00
33.7661 1344.00
33.8313 1333.00
33.8965 1372.00
33.9617 1309.00
34.0269 1325.00
34.0921 1370.00
34.1573 1385.00
34.2225 1323.00
34.2877 1348.00
34.3529 1282.00
34.4181 1301.00
34.4833 1365.00
34.5485 1247.00
34.6137 1306.00
34.6789 1254.00
34.7441 1364.00
34.8093 1318.00
34.8745 1299.00
34.9397 1364.00
35.0049 1270.00
35.0701 1253.00
35.1353 1264.00
35.2005 1264.00
35.2657 1309.00
35.3309 1321.00
35.3961 1252.00
35.4613 1266.00
35.5265 1334.00
35.5917 1299.00
35.6569 1264.00
35.7221 1228.00
35.7873 1248.00
35.8525 1264.00
35.9177 1240.00
35.9829 1234.00
36.0481 1274.00
36.1133 1228.00
36.1785 1147.00
36.2437 1193.00
36.3089 1168.00
36.3741 1168.00
36.4393 1212.00
36.5045 1172.00
36.5697 1187.00
36.6349 1173.00
36.7001 1182.00
36.7653 1077.00
36.8305 1240.00
36.8957 1175.00
36.9609 1118.00
37.0261 1180.00
37.0913 1143.00
37.1565 1230.00
37.2217 1128.00
37.2869 1171.00
37.3521 1181.00
37.4173 1080.00
37.4825 1156.00
37.5477 1144.00
37.6129 1134.00
37.6781 1132.00
37.7433 1141.00
37.8085 1118.00
37.8736 1122.00
37.9388 1150.00
38.004 1129.00
38.0692 1213.00
38.1344 1434.00
38.1996 1829.00
38.2648 2221.00
38.33 2377.00
38.3952 2119.00
38.4604 1677.00
38.5256 1378.00
38.5908 1239.00
38.656 1168.00
38.7212 1159.00
38.7864 1079.00
38.8516 1095.00
38.9168 1015.00
38.982 1121.00
39.0472 1070.00
39.1124 1105.00
39.1776 1077.00
39.2428 1127.00
39.308 1122.00
39.3732 1045.00
39.4384 1053.00
39.5036 1175.00
39.5688 1124.00
39.634 1271.00
39.6992 1406.00
39.7644 1858.00
39.8296 2236.00
39.8948 2135.00
39.96 1763.00
40.0252 1389.00
40.0904 1136.00
40.1556 1152.00
40.2208 1097.00
40.286 1047.00
40.3512 1085.00
40.4164 993.00
40.4816 1085.00
40.5468 1093.00
40.612 1039.00
40.6772 1026.00
40.7424 975.00
40.8076 1065.00
40.8728 1030.00
40.938 1035.00
41.0032 1041.00
41.0684 1016.00
41.1336 1037.00
41.1988 1028.00
41.264 1085.00
41.3292 1113.00
41.3944 1021.00
41.4596 1045.00
41.5248 1064.00
41.59 1011.00
41.6552 975.00
41.7204 1046.00
41.7856 1048.00
41.8508 1049.00
41.916 980.00
41.9812 1073.00
42.0464 1089.00
42.1116 1032.00
42.1768 1115.00
42.242 1085.00
42.3072 1046.00
42.3724 1062.00
42.4376 1067.00
42.5028 1061.00
42.568 1018.00
42.6332 1058.00
42.6983 1051.00
42.7635 1052.00
42.8287 971.00
42.8939 1083.00
42.9591 1102.00
43.0243 1088.00
43.0895 1125.00
43.1547 1109.00
43.2199 1047.00
43.2851 1046.00
43.3503 1046.00
43.4155 1068.00
43.4807 1067.00
43.5459 1125.00
43.6111 1174.00
43.6763 1179.00
43.7415 1216.00
43.8067 1310.00
43.8719 1542.00
43.9371 2058.00
44.0023 2803.00
44.0675 3084.00
44.1327 2707.00
44.1979 2080.00
44.2631 1595.00
44.3283 1353.00
44.3935 1283.00
44.4587 1198.00
44.5239 1262.00
44.5891 1360.00
44.6543 1833.00
44.7195 2403.00
44.7847 2841.00
44.8499 2790.00
44.9151 2175.00
44.9803 1659.00
45.0455 1288.00
45.1107 1138.00
45.1759 1128.00
45.2411 1093.00
45.3063 1080.00
45.3715 1036.00
45.4367 1060.00
45.5019 1046.00
45.5671 978.00
45.6323 1058.00
45.6975 1029.00
45.7627 981.00
45.8279 917.00
45.8931 1025.00
45.9583 1034.00
46.0235 1026.00
46.0887 1007.00
46.1539 1043.00
46.2191 981.00
46.2843 1065.00
46.3495 1145.00
46.4147 1155.00
46.4799 1123.00
46.5451 1137.00
46.6103 1017.00
46.6755 1060.00
46.7407 985.00
46.8059 1065.00
46.8711 1008.00
46.9363 1054.00
47.0015 1072.00
47.0667 1043.00
47.1319 1076.00
47.1971 979.00
47.2623 1025.00
47.3275 1024.00
47.3927 1020.00
47.4579 1048.00
47.523 1037.00
47.5882 1091.00
47.6534 1155.00
47.7186 1163.00
47.7838 1263.00
47.849 1497.00
47.9142 2064.00
47.9794 3076.00
48.0446 4003.00
48.1098 3922.00
48.175 3235.00
48.2402 2399.00
48.3054 1876.00
48.3706 1599.00
48.4358 1752.00
48.501 2321.00
48.5662 3467.00
48.6314 4485.00
48.6966 4257.00
48.7618 3476.00
48.827 2563.00
48.8922 1826.00
48.9574 1444.00
49.0226 1202.00
49.0878 1229.00
49.153 1105.00
49.2182 1132.00
49.2834 1084.00
49.3486 1017.00
49.4138 1043.00
49.479 1056.00
49.5442 1062.00
49.6094 992.00
49.6746 1008.00
49.7398 993.00
49.805 1017.00
49.8702 1034.00
49.9354 999.00
50.0006 1071.00
50.0658 1100.00
50.131 1292.00
50.1962 1485.00
50.2614 1695.00
50.3266 1615.00
50.3918 1434.00
50.457 1187.00
50.5222 1117.00
50.5874 1116.00
50.6526 958.00
50.7178 958.00
50.783 978.00
50.8482 958.00
50.9134 934.00
50.9786 955.00
51.0438 1000.00
51.109 980.00
51.1742 993.00
51.2394 912.00
51.3046 990.00
51.3698 932.00
51.435 967.00
51.5002 893.00
51.5654 971.00
51.6306 967.00
51.6958 974.00
51.761 941.00
51.8262 888.00
51.8914 952.00
51.9566 918.00
52.0218 928.00
52.087 983.00
52.1522 882.00
52.2174 954.00
52.2826 946.00
52.3477 991.00
52.4129 981.00
52.4781 1003.00
52.5433 1007.00
52.6085 985.00
52.6737 1013.00
52.7389 1124.00
52.8041 1293.00
52.8693 1627.00
52.9345 1831.00
52.9997 1796.00
53.0649 1607.00
53.1301 1323.00
53.1953 1165.00
53.2605 1097.00
53.3257 960.00
53.3909 998.00
53.4561 1043.00
53.5213 945.00
53.5865 961.00
53.6517 1001.00
53.7169 926.00
53.7821 918.00
53.8473 957.00
53.9125 992.00
53.9777 990.00
54.0429 1028.00
54.1081 853.00
54.1733 952.00
54.2385 896.00
54.3037 885.00
54.3689 870.00
54.4341 1002.00
54.4993 920.00
54.5645 918.00
54.6297 904.00
54.6949 930.00
54.7601 1063.00
54.8253 1075.00
54.8905 1202.00
54.9557 1474.00
55.0209 1549.00
55.0861 1434.00
55.1513 1274.00
55.2165 1140.00
55.2817 1037.00
55.3469 1054.00
55.4121 929.00
55.4773 916.00
55.5425 930.00
55.6077 931.00
55.6729 946.00
55.7381 1002.00
55.8033 913.00
55.8685 990.00
55.9337 948.00
55.9989 958.00
56.0641 994.00
56.1293 994.00
56.1945 1073.00
56.2597 1091.00
56.3249 1268.00
56.3901 1689.00
56.4553 2196.00
56.5205 2125.00
56.5857 1898.00
56.6509 1696.00
56.7161 1448.00
56.7813 1161.00
56.8465 1054.00
56.9117 1027.00
56.9769 961.00
57.042 981.00
57.1073 997.00
57.1724 991.00
57.2376 972.00
57.3028 991.00
57.368 1052.00
57.4332 1094.00
57.4984 1391.00
57.5636 1682.00
57.6288 1961.00
57.694 1926.00
57.7592 1661.00
57.8244 1507.00
57.8896 1170.00
57.9548 1073.00
58.02 998.00
58.0852 965.00
58.1504 947.00
58.2156 929.00
58.2808 897.00
58.346 895.00
58.4112 925.00
58.4764 898.00
58.5416 961.00
58.6068 941.00
58.672 874.00
58.7372 853.00
58.8024 890.00
58.8676 907.00
58.9328 908.00
58.998 885.00
59.0632 832.00
59.1284 876.00
59.1936 874.00
59.2588 884.00
59.324 883.00
59.3892 915.00
59.4544 861.00
59.5196 869.00
59.5848 861.00
59.65 906.00
59.7152 869.00
59.7804 852.00
59.8456 930.00
59.9108 890.00
59.976 881.00
60.0412 868.00
60.1064 841.00
60.1716 835.00
60.2368 834.00
60.302 842.00
60.3672 857.00
60.4324 909.00
60.4976 883.00
60.5628 893.00
60.628 860.00
60.6932 849.00
60.7584 855.00
60.8236 920.00
60.8888 909.00
60.954 935.00
61.0192 922.00
61.0844 927.00
61.1496 956.00
61.2148 890.00
61.28 964.00
61.3452 987.00
61.4104 1172.00
61.4756 1295.00
61.5408 1248.00
61.606 1221.00
61.6712 1067.00
61.7364 972.00
61.8016 971.00
61.8667 910.00
61.932 859.00
61.9971 823.00
62.0623 838.00
62.1275 898.00
62.1927 873.00
62.2579 883.00
62.3231 849.00
62.3883 821.00
62.4535 888.00
62.5187 875.00
62.5839 856.00
62.6491 888.00
62.7143 862.00
62.7795 978.00
62.8447 843.00
62.9099 831.00
62.9751 804.00
63.0403 870.00
63.1055 856.00
63.1707 796.00
63.2359 856.00
63.3011 915.00
63.3663 967.00
63.4315 866.00
63.4967 861.00
63.5619 841.00
63.6271 904.00
63.6923 889.00
63.7575 871.00
63.8227 928.00
63.8879 947.00
63.9531 1015.00
64.0183 1172.00
64.0835 1416.00
64.1487 1667.00
64.2139 1598.00
64.2791 1536.00
64.3443 1485.00
64.4095 1490.00
64.4747 1753.00
64.5399 2564.00
64.6051 3455.00
64.6703 3412.00
64.7355 3089.00
64.8007 2831.00
64.8659 2265.00
64.9311 1707.00
64.9963 1439.00
65.0615 1347.00
65.1267 1467.00
65.1919 1621.00
65.2571 1601.00
65.3223 1478.00
65.3875 1367.00
65.4527 1210.00
65.5179 1045.00
65.5831 924.00
65.6483 960.00
65.7135 917.00
65.7787 855.00
65.8439 841.00
65.9091 859.00
65.9743 871.00
66.0395 908.00
66.1047 905.00
66.1699 865.00
66.2351 824.00
66.3003 857.00
66.3655 818.00
66.4307 799.00
66.4959 850.00
66.561 751.00
66.6263 738.00
66.6915 847.00
66.7566 770.00
66.8218 789.00
66.887 827.00
66.9522 780.00
67.0174 807.00
67.0826 746.00
67.1478 796.00
67.213 726.00
67.2782 776.00
67.3434 793.00
67.4086 830.00
67.4738 768.00
67.539 762.00
67.6042 799.00
67.6694 826.00
67.7346 788.00
67.7998 776.00
67.865 773.00
67.9302 789.00
67.9954 763.00
68.0606 829.00
68.1258 766.00
68.191 809.00
68.2562 782.00
68.3214 783.00
68.3866 822.00
68.4518 901.00
68.517 839.00
68.5822 861.00
68.6474 822.00
68.7126 826.00
68.7778 753.00
68.843 800.00
68.9082 755.00
68.9734 808.00
69.0386 750.00
69.1038 735.00
69.169 803.00
69.2342 813.00
69.2994 805.00
69.3646 824.00
69.4298 738.00
69.495 834.00
69.5602 759.00
69.6254 773.00
69.6906 802.00
69.7558 725.00
69.821 794.00
69.8862 780.00
69.9514 861.00
70.0166 936.00
70.0818 1041.00
70.147 1127.00
70.2122 1392.00
70.2774 1376.00
70.3426 1250.00
70.4078 1159.00
70.473 1111.00
70.5382 934.00
70.6034 911.00
70.6686 797.00
70.7338 785.00
70.799 831.00
70.8642 774.00
70.9294 713.00
70.9946 764.00
71.0598 750.00
71.125 745.00
71.1902 695.00
71.2554 729.00
71.3205 718.00
71.3858 741.00
71.451 699.00
71.5162 738.00
71.5813 778.00
71.6465 757.00
71.7117 734.00
71.7769 785.00
71.8421 785.00
71.9073 794.00
71.9725 853.00
72.0377 928.00
72.1029 826.00
72.1681 818.00
72.2333 836.00
72.2985 749.00
72.3637 757.00
72.4289 775.00
72.4941 701.00
72.5593 781.00
72.6245 748.00
72.6897 753.00
72.7549 702.00
72.8201 749.00
72.8853 772.00
72.9505 746.00
73.0157 713.00
73.0809 729.00
73.1461 712.00
73.2113 730.00
73.2765 707.00
73.3417 698.00
73.4069 755.00
73.4721 694.00
73.5373 691.00
73.6025 647.00
73.6677 732.00
73.7329 704.00
73.7981 684.00
73.8633 726.00
73.9285 721.00
73.9937 785.00
74.0589 708.00
74.1241 779.00
74.1893 667.00
74.2545 637.00
74.3197 735.00
74.3849 691.00
74.4501 784.00
74.5153 780.00
74.5805 751.00
74.6457 751.00
74.7109 721.00
74.7761 721.00
74.8413 751.00
74.9065 770.00
74.9717 791.00
75.0369 794.00
75.1021 836.00
75.1673 906.00
75.2325 1058.00
75.2977 1031.00
75.3629 1183.00
75.4281 1334.00
75.4933 1329.00
75.5585 1183.00
75.6237 1138.00
75.6889 1064.00
75.7541 1077.00
75.8193 937.00
75.8845 887.00
75.9497 774.00
76.0149 833.00
76.0801 818.00
76.1452 755.00
76.2104 737.00
76.2756 777.00
76.3409 776.00
76.406 739.00
76.4712 676.00
76.5364 753.00
76.6016 722.00
76.6668 715.00
76.732 724.00
76.7972 813.00
76.8624 752.00
76.9276 750.00
76.9928 834.00
77.058 926.00
77.1232 897.00
77.1884 1016.00
77.2536 1045.00
77.3188 917.00
77.384 959.00
77.4492 829.00
77.5144 812.00
77.5796 737.00
77.6448 795.00
77.71 761.00
77.7752 729.00
77.8404 692.00
77.9056 783.00
77.9708 789.00
78.036 887.00
78.1012 970.00
78.1664 1112.00
78.2316 1414.00
78.2968 1500.00
78.362 1272.00
78.4272 1340.00
78.4924 1306.00
78.5576 1356.00
78.6228 1401.00
78.688 1513.00
78.7532 1445.00
78.8184 1318.00
78.8836 1128.00
78.9488 1194.00
79.014 1035.00
79.0792 854.00
79.1444 837.00
79.2096 820.00
79.2748 741.00
79.34 783.00
79.4052 736.00
79.4704 760.00
79.5356 735.00
79.6008 710.00
79.666 729.00
79.7312 761.00
79.7964 775.00
79.8616 771.00
79.9268 849.00
79.992 874.00
80.0572 787.00
80.1224 831.00
80.1876 781.00
80.2528 817.00
80.318 747.00
80.3832 690.00
80.4484 697.00
80.5136 636.00
80.5788 686.00
80.644 706.00
80.7092 723.00
80.7744 689.00
80.8396 669.00
80.9048 688.00
80.9699 654.00
81.0351 673.00
81.1003 669.00
81.1655 675.00
81.2307 622.00
81.2959 646.00
81.3611 654.00
81.4263 650.00
81.4915 711.00
81.5567 716.00
81.6219 699.00
81.6871 693.00
81.7523 702.00
81.8175 754.00
81.8827 794.00
81.9479 828.00
82.0131 941.00
82.0783 991.00
82.1435 1068.00
82.2087 1229.00
82.2739 1188.00
82.3391 1204.00
82.4043 1108.00
82.4695 1012.00
82.5347 1048.00
82.5999 904.00
82.6651 838.00
82.7303 748.00
82.7955 787.00
82.8607 695.00
82.9259 670.00
82.9911 714.00
83.0563 719.00
83.1215 671.00
83.1867 699.00
83.2519 650.00
83.3171 647.00
83.3823 719.00
83.4475 678.00
83.5127 699.00
83.5779 653.00
83.6431 723.00
83.7083 720.00
83.7735 780.00
83.8387 901.00
83.9039 957.00
83.9691 985.00
84.0343 951.00
84.0995 870.00
84.1647 858.00
84.2299 806.00
84.2951 774.00
84.3603 737.00
84.4255 734.00
84.4907 696.00
84.5559 700.00
84.6211 707.00
84.6863 657.00
84.7515 732.00
84.8167 678.00
84.8819 719.00
84.9471 759.00
85.0123 740.00
85.0775 771.00
85.1427 708.00
85.2079 757.00
85.2731 736.00
85.3383 710.00
85.4035 640.00
85.4687 688.00
85.5339 677.00
85.5991 687.00
85.6643 741.00
85.7295 706.00
85.7946 713.00
85.8598 810.00
85.925 795.00
85.9903 780.00
86.0554 832.00
86.1206 717.00
86.1858 812.00
86.251 721.00
86.3162 712.00
86.3814 714.00
86.4466 664.00
86.5118 644.00
86.577 610.00
86.6422 644.00
86.7074 669.00
86.7726 636.00
86.8378 625.00
86.903 679.00
86.9682 607.00
87.0334 680.00
87.0986 690.00
87.1638 641.00
87.229 598.00
87.2942 601.00
87.3594 635.00
87.4246 595.00
87.4898 651.00
87.555 624.00
87.6202 584.00
87.6854 673.00
87.7506 589.00
87.8158 632.00
87.881 683.00
87.9462 618.00
88.0114 621.00
88.0766 609.00
88.1418 643.00
88.207 594.00
88.2722 655.00
88.3374 701.00
88.4026 623.00
88.4678 630.00
88.533 652.00
88.5982 642.00
88.6634 610.00
88.7286 619.00
88.7938 622.00
88.859 633.00
88.9242 650.00
88.9894 647.00
89.0546 664.00
89.1198 616.00
89.185 723.00
89.2502 688.00
89.3154 697.00
89.3806 666.00
89.4458 673.00
89.511 685.00
89.5762 637.00
89.6414 685.00
89.7066 634.00
89.7718 639.00
89.837 611.00
89.9022 641.00
89.9674 662.00
90.0326 616.00
90.0978 706.00
90.163 652.00
90.2282 649.00
90.2934 710.00
90.3586 736.00
90.4238 774.00
90.489 793.00
90.5542 906.00
90.6193 968.00
90.6845 959.00
90.7497 832.00
90.8149 791.00
90.8801 792.00
90.9453 805.00
91.0105 749.00
91.0757 727.00
91.1409 715.00
91.2061 681.00
91.2713 717.00
91.3365 657.00
91.4017 661.00
91.4669 675.00
91.5321 677.00
91.5973 681.00
91.6625 674.00
91.7277 736.00
91.7929 708.00
91.8581 786.00
91.9233 825.00
91.9885 884.00
92.0537 955.00
92.1189 1048.00
92.1841 999.00
92.2493 863.00
92.3145 913.00
92.3797 934.00
92.4449 904.00
92.5101 857.00
92.5753 881.00
92.6405 955.00
92.7057 843.00
92.7709 722.00
92.8361 729.00
92.9013 737.00
92.9665 743.00
93.0317 693.00
93.0969 655.00
93.1621 641.00
93.2273 719.00
93.2925 760.00
93.3577 755.00
93.4229 733.00
93.4881 673.00
93.5533 648.00
93.6185 701.00
93.6837 650.00
93.7489 686.00
93.8141 588.00
93.8793 637.00
93.9445 647.00
94.0097 681.00
94.0749 621.00
94.1401 638.00
94.2053 652.00
94.2705 628.00
94.3357 655.00
94.4009 622.00
94.4661 619.00
94.5313 608.00
94.5965 666.00
94.6617 582.00
94.7269 622.00
94.7921 679.00
94.8573 679.00
94.9225 621.00
94.9877 644.00
95.0529 580.00
95.1181 617.00
95.1833 621.00
95.2485 657.00
95.3137 680.00
95.3789 622.00
95.444 677.00
95.5092 688.00
95.5744 756.00
95.6396 749.00
95.7048 732.00
95.77 733.00
95.8352 697.00
95.9004 721.00
95.9656 685.00
96.0308 672.00
96.096 671.00
96.1612 644.00
96.2264 635.00
96.2916 633.00
96.3568 624.00
96.422 665.00
96.4872 648.00
96.5524 661.00
96.6176 604.00
96.6828 637.00
96.748 654.00
96.8132 678.00
96.8784 697.00
96.9436 704.00
97.0088 725.00
97.074 842.00
97.1392 828.00
97.2044 925.00
97.2696 897.00
97.3348 925.00
97.4 894.00
97.4652 864.00
97.5304 795.00
97.5956 857.00
97.6608 811.00
97.726 744.00
97.7912 691.00
97.8564 750.00
97.9216 637.00
97.9868 664.00
98.052 698.00
98.1172 665.00
98.1824 704.00
98.2476 822.00
98.3128 874.00
98.378 905.00
98.4432 761.00
98.5084 781.00
98.5736 754.00
98.6388 783.00
98.704 843.00
98.7692 748.00
98.8344 746.00
98.8996 779.00
98.9648 784.00
99.03 726.00
99.0952 762.00
99.1604 766.00
99.2256 855.00
99.2908 891.00
99.356 854.00
99.4212 839.00
99.4864 786.00
99.5516 797.00
99.6168 797.00
99.682 766.00
99.7472 752.00
99.8124 714.00
99.8776 679.00
99.9428 655.00
100.008 624.00
100.073 639.00
100.095 663.00