File: data/xrd_creation/results/NSC_161.xy
9.903433 2729.00
9.968632 2697.00
10.0338 2612.00
10.099 2649.00
10.1642 2724.00
10.2294 2604.00
10.2946 2567.00
10.3598 2589.00
10.425 2504.00
10.4902 2564.00
10.5554 2438.00
10.6206 2492.00
10.6858 2458.00
10.751 2364.00
10.8162 2398.00
10.8814 2343.00
10.9466 2384.00
11.0118 2401.00
11.077 2312.00
11.1422 2338.00
11.2074 2307.00
11.2726 2206.00
11.3378 2198.00
11.403 2251.00
11.4682 2206.00
11.5334 2192.00
11.5986 2133.00
11.6638 2142.00
11.729 2154.00
11.7942 2136.00
11.8594 2214.00
11.9246 2084.00
11.9898 2167.00
12.055 2032.00
12.1202 2082.00
12.1854 2094.00
12.2506 2066.00
12.3158 2000.00
12.381 2044.00
12.4462 2008.00
12.5114 1987.00
12.5766 2056.00
12.6418 1864.00
12.707 1932.00
12.7722 1918.00
12.8374 1903.00
12.9026 1886.00
12.9678 1906.00
13.033 1915.00
13.0982 1848.00
13.1634 1918.00
13.2286 1829.00
13.2938 1845.00
13.359 1849.00
13.4242 1838.00
13.4894 1847.00
13.5546 1700.00
13.6198 1783.00
13.685 1747.00
13.7502 1778.00
13.8154 1803.00
13.8805 1711.00
13.9457 1759.00
14.0109 1714.00
14.0761 1719.00
14.1413 1722.00
14.2065 1740.00
14.2717 1710.00
14.3369 1710.00
14.4021 1713.00
14.4673 1723.00
14.5325 1797.00
14.5977 1695.00
14.6629 1707.00
14.7281 1622.00
14.7933 1690.00
14.8585 1752.00
14.9237 1714.00
14.9889 1673.00
15.0541 1702.00
15.1193 1781.00
15.1845 1747.00
15.2497 1767.00
15.3149 1748.00
15.3801 1703.00
15.4453 1750.00
15.5105 1687.00
15.5757 1803.00
15.6409 1719.00
15.7061 1631.00
15.7713 1685.00
15.8365 1678.00
15.9017 1731.00
15.9669 1627.00
16.0321 1682.00
16.0973 1634.00
16.1625 1625.00
16.2277 1681.00
16.2929 1662.00
16.3581 1710.00
16.4233 1687.00
16.4885 1605.00
16.5537 1616.00
16.6189 1658.00
16.6841 1560.00
16.7493 1677.00
16.8145 1603.00
16.8797 1679.00
16.9449 1607.00
17.0101 1530.00
17.0753 1600.00
17.1405 1656.00
17.2057 1563.00
17.2709 1642.00
17.3361 1611.00
17.4013 1631.00
17.4665 1623.00
17.5317 1603.00
17.5969 1621.00
17.6621 1566.00
17.7273 1598.00
17.7925 1648.00
17.8577 1528.00
17.9229 1624.00
17.9881 1611.00
18.0533 1617.00
18.1185 1625.00
18.1837 1563.00
18.2489 1498.00
18.3141 1526.00
18.3793 1574.00
18.4445 1580.00
18.5097 1599.00
18.5749 1547.00
18.6401 1530.00
18.7052 1570.00
18.7704 1519.00
18.8356 1537.00
18.9008 1513.00
18.966 1521.00
19.0312 1532.00
19.0964 1526.00
19.1616 1549.00
19.2268 1493.00
19.292 1538.00
19.3572 1503.00
19.4224 1521.00
19.4876 1538.00
19.5528 1449.00
19.618 1532.00
19.6832 1488.00
19.7484 1426.00
19.8136 1525.00
19.8788 1541.00
19.944 1495.00
20.0092 1504.00
20.0744 1519.00
20.1396 1504.00
20.2048 1460.00
20.27 1480.00
20.3352 1518.00
20.4004 1522.00
20.4656 1524.00
20.5308 1542.00
20.596 1437.00
20.6612 1501.00
20.7264 1524.00
20.7916 1489.00
20.8568 1449.00
20.922 1458.00
20.9872 1411.00
21.0524 1438.00
21.1176 1461.00
21.1828 1458.00
21.248 1439.00
21.3132 1511.00
21.3784 1490.00
21.4436 1385.00
21.5088 1461.00
21.574 1428.00
21.6392 1518.00
21.7044 1437.00
21.7696 1435.00
21.8348 1430.00
21.9 1432.00
21.9652 1421.00
22.0304 1370.00
22.0956 1388.00
22.1608 1448.00
22.226 1394.00
22.2912 1442.00
22.3564 1401.00
22.4216 1425.00
22.4868 1383.00
22.552 1448.00
22.6172 1386.00
22.6824 1403.00
22.7476 1358.00
22.8128 1412.00
22.878 1445.00
22.9432 1483.00
23.0084 1486.00
23.0736 1449.00
23.1388 1352.00
23.204 1419.00
23.2692 1327.00
23.3344 1378.00
23.3996 1337.00
23.4647 1389.00
23.5299 1356.00
23.5951 1420.00
23.6603 1375.00
23.7255 1375.00
23.7907 1347.00
23.8559 1389.00
23.9211 1359.00
23.9863 1431.00
24.0515 1452.00
24.1167 1419.00
24.1819 1384.00
24.2471 1429.00
24.3123 1293.00
24.3775 1369.00
24.4427 1267.00
24.5079 1350.00
24.5731 1324.00
24.6383 1297.00
24.7035 1337.00
24.7687 1273.00
24.8339 1321.00
24.8991 1315.00
24.9643 1283.00
25.0295 1304.00
25.0947 1317.00
25.1599 1298.00
25.2251 1350.00
25.2903 1290.00
25.3555 1384.00
25.4207 1572.00
25.4859 1818.00
25.5511 1751.00
25.6163 1499.00
25.6815 1393.00
25.7467 1235.00
25.8119 1221.00
25.8771 1245.00
25.9423 1311.00
26.0075 1279.00
26.0727 1346.00
26.1379 1290.00
26.2031 1278.00
26.2683 1321.00
26.3335 1372.00
26.3987 1496.00
26.4639 1373.00
26.5291 1348.00
26.5943 1351.00
26.6595 1225.00
26.7247 1204.00
26.7899 1307.00
26.8551 1222.00
26.9203 1268.00
26.9855 1285.00
27.0507 1280.00
27.1159 1272.00
27.1811 1319.00
27.2463 1242.00
27.3115 1226.00
27.3767 1184.00
27.4419 1279.00
27.5071 1291.00
27.5723 1221.00
27.6375 1232.00
27.7027 1281.00
27.7679 1184.00
27.8331 1199.00
27.8983 1335.00
27.9635 1270.00
28.0287 1242.00
28.0939 1270.00
28.1591 1196.00
28.2243 1358.00
28.2894 1324.00
28.3546 1278.00
28.4198 1256.00
28.485 1241.00
28.5502 1260.00
28.6154 1273.00
28.6806 1264.00
28.7458 1351.00
28.811 1450.00
28.8762 1369.00
28.9414 1418.00
29.0066 1372.00
29.0718 1258.00
29.137 1281.00
29.2022 1235.00
29.2674 1284.00
29.3326 1234.00
29.3978 1249.00
29.463 1241.00
29.5282 1316.00
29.5934 1270.00
29.6586 1323.00
29.7238 1329.00
29.789 1343.00
29.8542 1522.00
29.9194 1506.00
29.9846 1446.00
30.0498 1315.00
30.115 1280.00
30.1802 1287.00
30.2454 1267.00
30.3106 1143.00
30.3758 1226.00
30.441 1258.00
30.5062 1179.00
30.5714 1228.00
30.6366 1209.00
30.7018 1275.00
30.767 1308.00
30.8322 1325.00
30.8974 1275.00
30.9626 1279.00
31.0278 1340.00
31.093 1304.00
31.1582 1336.00
31.2234 1200.00
31.2886 1190.00
31.3538 1205.00
31.419 1232.00
31.4842 1187.00
31.5494 1297.00
31.6146 1207.00
31.6798 1152.00
31.745 1225.00
31.8102 1160.00
31.8754 1118.00
31.9406 1234.00
32.0058 1195.00
32.071 1154.00
32.1362 1200.00
32.2014 1190.00
32.2666 1128.00
32.3318 1158.00
32.397 1113.00
32.4622 1129.00
32.5274 1146.00
32.5926 1165.00
32.6578 1148.00
32.723 1099.00
32.7882 1150.00
32.8534 1199.00
32.9186 1113.00
32.9838 1151.00
33.0489 1220.00
33.1141 1088.00
33.1793 1115.00
33.2445 1147.00
33.3097 1099.00
33.3749 1128.00
33.4401 1137.00
33.5053 1195.00
33.5705 1167.00
33.6357 1283.00
33.7009 1230.00
33.7661 1171.00
33.8313 1155.00
33.8965 1078.00
33.9617 1048.00
34.0269 1068.00
34.0921 1087.00
34.1573 988.00
34.2225 1052.00
34.2877 1043.00
34.3529 1068.00
34.4181 1015.00
34.4833 973.00
34.5485 1070.00
34.6137 1028.00
34.6789 1008.00
34.7441 968.00
34.8093 1063.00
34.8745 1047.00
34.9397 1187.00
35.0049 1603.00
35.0701 1721.00
35.1353 1657.00
35.2005 1389.00
35.2657 1073.00
35.3309 1018.00
35.3961 912.00
35.4613 934.00
35.5265 934.00
35.5917 911.00
35.6569 950.00
35.7221 939.00
35.7873 872.00
35.8525 914.00
35.9177 917.00
35.9829 915.00
36.0481 906.00
36.1133 907.00
36.1785 901.00
36.2437 863.00
36.3089 816.00
36.3741 896.00
36.4393 858.00
36.5045 866.00
36.5697 854.00
36.6349 780.00
36.7001 870.00
36.7653 826.00
36.8305 826.00
36.8957 845.00
36.9609 807.00
37.0261 759.00
37.0913 806.00
37.1565 839.00
37.2217 857.00
37.2869 812.00
37.3521 841.00
37.4173 830.00
37.4825 848.00
37.5477 808.00
37.6129 863.00
37.6781 1017.00
37.7433 1099.00
37.8085 1039.00
37.8736 887.00
37.9388 868.00
38.004 840.00
38.0692 837.00
38.1344 797.00
38.1996 771.00
38.2648 789.00
38.33 777.00
38.3952 779.00
38.4604 785.00
38.5256 734.00
38.5908 755.00
38.656 732.00
38.7212 739.00
38.7864 806.00
38.8516 807.00
38.9168 746.00
38.982 777.00
39.0472 773.00
39.1124 730.00
39.1776 701.00
39.2428 731.00
39.308 759.00
39.3732 705.00
39.4384 751.00
39.5036 722.00
39.5688 735.00
39.634 663.00
39.6992 743.00
39.7644 713.00
39.8296 723.00
39.8948 702.00
39.96 684.00
40.0252 725.00
40.0904 717.00
40.1556 691.00
40.2208 664.00
40.286 645.00
40.3512 698.00
40.4164 685.00
40.4816 718.00
40.5468 728.00
40.612 652.00
40.6772 663.00
40.7424 667.00
40.8076 668.00
40.8728 604.00
40.938 668.00
41.0032 674.00
41.0684 633.00
41.1336 634.00
41.1988 700.00
41.264 695.00
41.3292 658.00
41.3944 693.00
41.4596 619.00
41.5248 649.00
41.59 687.00
41.6552 626.00
41.7204 644.00
41.7856 643.00
41.8508 654.00
41.916 636.00
41.9812 652.00
42.0464 644.00
42.1116 630.00
42.1768 616.00
42.242 687.00
42.3072 657.00
42.3724 632.00
42.4376 619.00
42.5028 677.00
42.568 679.00
42.6332 594.00
42.6983 620.00
42.7635 663.00
42.8287 695.00
42.8939 673.00
42.9591 641.00
43.0243 647.00
43.0895 671.00
43.1547 682.00
43.2199 1103.00
43.2851 1504.00
43.3503 1369.00
43.4155 1146.00
43.4807 843.00
43.5459 693.00
43.6111 703.00
43.6763 660.00
43.7415 660.00
43.8067 662.00
43.8719 631.00
43.9371 676.00
44.0023 599.00
44.0675 594.00
44.1327 610.00
44.1979 697.00
44.2631 592.00
44.3283 629.00
44.3935 629.00
44.4587 570.00
44.5239 598.00
44.5891 546.00
44.6543 578.00
44.7195 567.00
44.7847 571.00
44.8499 631.00
44.9151 611.00
44.9803 587.00
45.0455 586.00
45.1107 616.00
45.1759 593.00
45.2411 590.00
45.3063 569.00
45.3715 581.00
45.4367 547.00
45.5019 605.00
45.5671 559.00
45.6323 568.00
45.6975 572.00
45.7627 585.00
45.8279 572.00
45.8931 562.00
45.9583 588.00
46.0235 570.00
46.0887 598.00
46.1539 573.00
46.2191 566.00
46.2843 582.00
46.3495 579.00
46.4147 589.00
46.4799 570.00
46.5451 554.00
46.6103 540.00
46.6755 548.00
46.7407 618.00
46.8059 587.00
46.8711 548.00
46.9363 565.00
47.0015 591.00
47.0667 596.00
47.1319 575.00
47.1971 601.00
47.2623 561.00
47.3275 573.00
47.3927 601.00
47.4579 552.00
47.523 592.00
47.5882 538.00
47.6534 506.00
47.7186 592.00
47.7838 541.00
47.849 555.00
47.9142 564.00
47.9794 532.00
48.0446 572.00
48.1098 589.00
48.175 617.00
48.2402 614.00
48.3054 586.00
48.3706 620.00
48.4358 600.00
48.501 540.00
48.5662 558.00
48.6314 550.00
48.6966 575.00
48.7618 504.00
48.827 540.00
48.8922 544.00
48.9574 591.00
49.0226 577.00
49.0878 609.00
49.153 543.00
49.2182 548.00
49.2834 595.00
49.3486 541.00
49.4138 551.00
49.479 570.00
49.5442 533.00
49.6094 552.00
49.6746 584.00
49.7398 518.00
49.805 540.00
49.8702 530.00
49.9354 551.00
50.0006 567.00
50.0658 540.00
50.131 565.00
50.1962 550.00
50.2614 531.00
50.3266 535.00
50.3918 493.00
50.457 477.00
50.5222 562.00
50.5874 580.00
50.6526 499.00
50.7178 539.00
50.783 473.00
50.8482 538.00
50.9134 519.00
50.9786 552.00
51.0438 516.00
51.109 522.00
51.1742 478.00
51.2394 525.00
51.3046 533.00
51.3698 552.00
51.435 513.00
51.5002 543.00
51.5654 554.00
51.6306 597.00
51.6958 532.00
51.761 605.00
51.8262 546.00
51.8914 546.00
51.9566 567.00
52.0218 564.00
52.087 537.00
52.1522 532.00
52.2174 562.00
52.2826 567.00
52.3477 510.00
52.4129 750.00
52.4781 887.00
52.5433 835.00
52.6085 729.00
52.6737 721.00
52.7389 537.00
52.8041 521.00
52.8693 513.00
52.9345 532.00
52.9997 538.00
53.0649 557.00
53.1301 510.00
53.1953 536.00
53.2605 513.00
53.3257 520.00
53.3909 523.00
53.4561 500.00
53.5213 503.00
53.5865 510.00
53.6517 503.00
53.7169 500.00
53.7821 525.00
53.8473 523.00
53.9125 489.00
53.9777 526.00
54.0429 539.00
54.1081 551.00
54.1733 518.00
54.2385 499.00
54.3037 525.00
54.3689 521.00
54.4341 566.00
54.4993 511.00
54.5645 513.00
54.6297 532.00
54.6949 558.00
54.7601 557.00
54.8253 536.00
54.8905 567.00
54.9557 493.00
55.0209 493.00
55.0861 496.00
55.1513 535.00
55.2165 494.00
55.2817 508.00
55.3469 520.00
55.4121 513.00
55.4773 502.00
55.5425 525.00
55.6077 510.00
55.6729 522.00
55.7381 509.00
55.8033 519.00
55.8685 522.00
55.9337 504.00
55.9989 516.00
56.0641 493.00
56.1293 525.00
56.1945 530.00
56.2597 475.00
56.3249 529.00
56.3901 492.00
56.4553 486.00
56.5205 530.00
56.5857 515.00
56.6509 495.00
56.7161 480.00
56.7813 505.00
56.8465 496.00
56.9117 560.00
56.9769 478.00
57.042 504.00
57.1073 539.00
57.1724 573.00
57.2376 565.00
57.3028 674.00
57.368 940.00
57.4332 1160.00
57.4984 896.00
57.5636 930.00
57.6288 689.00
57.694 591.00
57.7592 552.00
57.8244 519.00
57.8896 513.00
57.9548 537.00
58.02 500.00
58.0852 475.00
58.1504 465.00
58.2156 502.00
58.2808 483.00
58.346 485.00
58.4112 468.00
58.4764 513.00
58.5416 433.00
58.6068 493.00
58.672 471.00
58.7372 501.00
58.8024 472.00
58.8676 523.00
58.9328 524.00
58.998 461.00
59.0632 496.00
59.1284 458.00
59.1936 508.00
59.2588 527.00
59.324 506.00
59.3892 478.00
59.4544 499.00
59.5196 469.00
59.5848 457.00
59.65 542.00
59.7152 496.00
59.7804 493.00
59.8456 487.00
59.9108 488.00
59.976 509.00
60.0412 508.00
60.1064 522.00
60.1716 478.00
60.2368 512.00
60.302 495.00
60.3672 471.00
60.4324 508.00
60.4976 536.00
60.5628 477.00
60.628 490.00
60.6932 493.00
60.7584 492.00
60.8236 462.00
60.8888 448.00
60.954 474.00
61.0192 502.00
61.0844 527.00
61.1496 530.00
61.2148 639.00
61.28 559.00
61.3452 528.00
61.4104 515.00
61.4756 533.00
61.5408 499.00
61.606 454.00
61.6712 513.00
61.7364 534.00
61.8016 476.00
61.8667 483.00
61.932 477.00
61.9971 508.00
62.0623 493.00
62.1275 490.00
62.1927 498.00
62.2579 464.00
62.3231 497.00
62.3883 491.00
62.4535 433.00
62.5187 467.00
62.5839 496.00
62.6491 494.00
62.7143 471.00
62.7795 502.00
62.8447 483.00
62.9099 460.00
62.9751 497.00
63.0403 456.00
63.1055 474.00
63.1707 497.00
63.2359 453.00
63.3011 452.00
63.3663 460.00
63.4315 474.00
63.4967 520.00
63.5619 456.00
63.6271 420.00
63.6923 450.00
63.7575 495.00
63.8227 493.00
63.8879 511.00
63.9531 466.00
64.0183 479.00
64.0835 468.00
64.1487 456.00
64.2139 440.00
64.2791 460.00
64.3443 472.00
64.4095 427.00
64.4747 478.00
64.5399 486.00
64.6051 462.00
64.6703 463.00
64.7355 451.00
64.8007 466.00
64.8659 493.00
64.9311 420.00
64.9963 483.00
65.0615 443.00
65.1267 466.00
65.1919 482.00
65.2571 442.00
65.3223 477.00
65.3875 443.00
65.4527 442.00
65.5179 447.00
65.5831 468.00
65.6483 422.00
65.7135 479.00
65.7787 478.00
65.8439 467.00
65.9091 450.00
65.9743 448.00
66.0395 462.00
66.1047 432.00
66.1699 457.00
66.2351 431.00
66.3003 456.00
66.3655 539.00
66.4307 766.00
66.4959 728.00
66.561 563.00
66.6263 612.00
66.6915 546.00
66.7566 522.00
66.8218 436.00
66.887 459.00
66.9522 468.00
67.0174 429.00
67.0826 429.00
67.1478 433.00
67.213 459.00
67.2782 466.00
67.3434 427.00
67.4086 397.00
67.4738 385.00
67.539 397.00
67.6042 481.00
67.6694 424.00
67.7346 407.00
67.7998 454.00
67.865 405.00
67.9302 432.00
67.9954 435.00
68.0606 504.00
68.1258 740.00
68.191 629.00
68.2562 554.00
68.3214 573.00
68.3866 545.00
68.4518 475.00
68.517 433.00
68.5822 415.00
68.6474 407.00
68.7126 416.00
68.7778 402.00
68.843 419.00
68.9082 427.00
68.9734 422.00
69.0386 384.00
69.1038 474.00
69.169 398.00
69.2342 443.00
69.2994 402.00
69.3646 404.00
69.4298 419.00
69.495 396.00
69.5602 409.00
69.6254 448.00
69.6906 428.00
69.7558 413.00
69.821 390.00
69.8862 382.00
69.9514 396.00
70.0166 389.00
70.0818 423.00
70.147 393.00
70.2122 409.00
70.2774 421.00
70.3426 374.00
70.4078 411.00
70.473 412.00
70.5382 412.00
70.6034 415.00
70.6686 443.00
70.7338 408.00
70.799 382.00
70.8642 388.00
70.9294 389.00
70.9946 455.00
71.0598 416.00
71.125 411.00
71.1902 414.00
71.2554 390.00
71.3205 430.00
71.3858 427.00
71.451 425.00
71.5162 405.00
71.5813 388.00
71.6465 402.00
71.7117 422.00
71.7769 418.00
71.8421 379.00
71.9073 419.00
71.9725 390.00
72.0377 373.00
72.1029 408.00
72.1681 354.00
72.2333 403.00
72.2985 399.00
72.3637 414.00
72.4289 408.00
72.4941 447.00
72.5593 381.00
72.6245 355.00
72.6897 350.00
72.7549 376.00
72.8201 396.00
72.8853 411.00
72.9505 368.00
73.0157 398.00
73.0809 383.00
73.1461 374.00
73.2113 379.00
73.2765 417.00
73.3417 399.00
73.4069 400.00
73.4721 379.00
73.5373 389.00
73.6025 368.00
73.6677 394.00
73.7329 380.00
73.7981 420.00
73.8633 356.00
73.9285 376.00
73.9937 405.00
74.0589 408.00
74.1241 381.00
74.1893 361.00
74.2545 382.00
74.3197 377.00
74.3849 385.00
74.4501 432.00
74.5153 379.00
74.5805 420.00
74.6457 387.00
74.7109 367.00
74.7761 413.00
74.8413 376.00
74.9065 394.00
74.9717 374.00
75.0369 368.00
75.1021 389.00
75.1673 384.00
75.2325 390.00
75.2977 370.00
75.3629 365.00
75.4281 386.00
75.4933 373.00
75.5585 385.00
75.6237 393.00
75.6889 354.00
75.7541 377.00
75.8193 388.00
75.8845 343.00
75.9497 357.00
76.0149 348.00
76.0801 359.00
76.1452 372.00
76.2104 382.00
76.2756 402.00
76.3409 419.00
76.406 392.00
76.4712 397.00
76.5364 362.00
76.6016 347.00
76.6668 373.00
76.732 491.00
76.7972 699.00
76.8624 696.00
76.9276 442.00
76.9928 504.00
77.058 565.00
77.1232 535.00
77.1884 450.00
77.2536 403.00
77.3188 419.00
77.384 459.00
77.4492 380.00
77.5144 371.00
77.5796 378.00
77.6448 393.00
77.71 367.00
77.7752 356.00
77.8404 366.00
77.9056 379.00
77.9708 358.00
78.036 375.00
78.1012 391.00
78.1664 359.00
78.2316 348.00
78.2968 394.00
78.362 409.00
78.4272 354.00
78.4924 381.00
78.5576 410.00
78.6228 391.00
78.688 376.00
78.7532 343.00
78.8184 378.00
78.8836 373.00
78.9488 376.00
79.014 390.00
79.0792 353.00
79.1444 367.00
79.2096 357.00
79.2748 399.00
79.34 358.00
79.4052 365.00
79.4704 347.00
79.5356 358.00
79.6008 353.00
79.666 332.00
79.7312 405.00
79.7964 366.00
79.8616 382.00
79.9268 361.00
79.992 331.00
80.0572 354.00
80.1224 350.00
80.1876 388.00
80.2528 340.00
80.318 357.00
80.3832 382.00
80.4484 392.00
80.5136 375.00
80.5788 407.00
80.644 439.00
80.7092 384.00
80.7744 366.00
80.8396 373.00
80.9048 424.00
80.9699 363.00
81.0351 358.00
81.1003 333.00
81.1655 389.00
81.2307 342.00
81.2959 368.00
81.3611 328.00
81.4263 370.00
81.4915 358.00
81.5567 342.00
81.6219 326.00
81.6871 381.00
81.7523 352.00
81.8175 346.00
81.8827 348.00
81.9479 384.00
82.0131 361.00
82.0783 352.00
82.1435 371.00
82.2087 371.00
82.2739 346.00
82.3391 379.00
82.4043 389.00
82.4695 319.00
82.5347 340.00
82.5999 374.00
82.6651 342.00
82.7303 353.00
82.7955 394.00
82.8607 348.00
82.9259 348.00
82.9911 377.00
83.0563 389.00
83.1215 357.00
83.1867 348.00
83.2519 318.00
83.3171 385.00
83.3823 356.00
83.4475 367.00
83.5127 330.00
83.5779 345.00
83.6431 345.00
83.7083 337.00
83.7735 372.00
83.8387 345.00
83.9039 348.00
83.9691 320.00
84.0343 345.00
84.0995 377.00
84.1647 348.00
84.2299 393.00
84.2951 355.00
84.3603 370.00
84.4255 348.00
84.4907 369.00
84.5559 340.00
84.6211 313.00
84.6863 352.00
84.7515 338.00
84.8167 339.00
84.8819 328.00
84.9471 330.00
85.0123 311.00
85.0775 315.00
85.1427 339.00
85.2079 309.00
85.2731 328.00
85.3383 369.00
85.4035 342.00
85.4687 312.00
85.5339 316.00
85.5991 340.00
85.6643 342.00
85.7295 347.00
85.7946 357.00
85.8598 342.00
85.925 321.00
85.9903 372.00
86.0554 320.00
86.1206 345.00
86.1858 309.00
86.251 319.00
86.3162 349.00
86.3814 368.00
86.4466 326.00
86.5118 319.00
86.577 325.00
86.6422 339.00
86.7074 337.00
86.7726 332.00
86.8378 342.00
86.903 342.00
86.9682 279.00
87.0334 334.00
87.0986 345.00
87.1638 315.00
87.229 314.00
87.2942 334.00
87.3594 325.00
87.4246 297.00
87.4898 343.00
87.555 311.00
87.6202 306.00
87.6854 316.00
87.7506 318.00
87.8158 323.00
87.881 307.00
87.9462 355.00
88.0114 292.00
88.0766 289.00
88.1418 300.00
88.207 312.00
88.2722 295.00
88.3374 333.00
88.4026 319.00
88.4678 331.00
88.533 307.00
88.5982 311.00
88.6634 300.00
88.7286 290.00
88.7938 307.00
88.859 338.00
88.9242 380.00
88.9894 383.00
89.0546 285.00
89.1198 302.00
89.185 348.00
89.2502 337.00
89.3154 328.00
89.3806 295.00
89.4458 337.00
89.511 333.00
89.5762 289.00
89.6414 330.00
89.7066 313.00
89.7718 333.00
89.837 317.00
89.9022 311.00
89.9674 332.00
90.0326 345.00
90.0978 337.00
90.163 282.00
90.2282 285.00
90.2934 316.00
90.3586 351.00
90.4238 332.00
90.489 310.00
90.5542 328.00
90.6193 361.00
90.6845 395.00
90.7497 321.00
90.8149 306.00
90.8801 354.00
90.9453 319.00
91.0105 337.00
91.0757 346.00
91.1409 402.00
91.2061 334.00
91.2713 330.00
91.3365 298.00
91.4017 358.00
91.4669 367.00
91.5321 320.00
91.5973 313.00
91.6625 305.00
91.7277 320.00
91.7929 314.00
91.8581 303.00
91.9233 290.00
91.9885 303.00
92.0537 313.00
92.1189 275.00
92.1841 292.00
92.2493 313.00
92.3145 303.00
92.3797 302.00
92.4449 295.00
92.5101 312.00
92.5753 295.00
92.6405 305.00
92.7057 332.00
92.7709 280.00
92.8361 296.00
92.9013 298.00
92.9665 295.00
93.0317 311.00
93.0969 319.00
93.1621 322.00
93.2273 312.00
93.2925 273.00
93.3577 293.00
93.4229 304.00
93.4881 322.00
93.5533 257.00
93.6185 295.00
93.6837 291.00
93.7489 287.00
93.8141 293.00
93.8793 282.00
93.9445 303.00
94.0097 313.00
94.0749 290.00
94.1401 310.00
94.2053 309.00
94.2705 305.00
94.3357 323.00
94.4009 286.00
94.4661 297.00
94.5313 331.00
94.5965 306.00
94.6617 320.00
94.7269 279.00
94.7921 297.00
94.8573 318.00
94.9225 332.00
94.9877 312.00
95.0529 306.00
95.1181 385.00
95.1833 418.00
95.2485 340.00
95.3137 329.00
95.3789 324.00
95.444 328.00
95.5092 370.00
95.5744 341.00
95.6396 322.00
95.7048 307.00
95.77 295.00
95.8352 323.00
95.9004 309.00
95.9656 287.00
96.0308 299.00
96.096 299.00
96.1612 294.00
96.2264 283.00
96.2916 296.00
96.3568 317.00
96.422 314.00
96.4872 319.00
96.5524 287.00
96.6176 281.00
96.6828 306.00
96.748 231.00
96.8132 329.00
96.8784 288.00
96.9436 310.00
97.0088 307.00
97.074 300.00
97.1392 308.00
97.2044 300.00
97.2696 331.00
97.3348 307.00
97.4 298.00
97.4652 306.00
97.5304 314.00
97.5956 297.00
97.6608 320.00
97.726 304.00
97.7912 298.00
97.8564 309.00
97.9216 320.00
97.9868 265.00
98.052 312.00
98.1172 280.00
98.1824 286.00
98.2476 315.00
98.3128 316.00
98.378 311.00
98.4432 272.00
98.5084 320.00
98.5736 261.00
98.6388 294.00
98.704 302.00
98.7692 331.00
98.8344 291.00
98.8996 291.00
98.9648 303.00
99.03 260.00
99.0952 294.00
99.1604 279.00
99.2256 329.00
99.2908 293.00
99.356 312.00
99.4212 309.00
99.4864 244.00
99.5516 293.00
99.6168 304.00
99.682 304.00
99.7472 288.00
99.8124 280.00
99.8776 268.00
99.9428 302.00
100.008 325.00
100.073 297.00
100.095 300.00