File: data/xrd_creation/results/NSC_141.xy
9.903433 2723.00
9.968632 2653.00
10.0338 2672.00
10.099 2745.00
10.1642 2666.00
10.2294 2596.00
10.2946 2542.00
10.3598 2450.00
10.425 2517.00
10.4902 2484.00
10.5554 2567.00
10.6206 2429.00
10.6858 2424.00
10.751 2489.00
10.8162 2373.00
10.8814 2391.00
10.9466 2338.00
11.0118 2307.00
11.077 2410.00
11.1422 2316.00
11.2074 2337.00
11.2726 2240.00
11.3378 2252.00
11.403 2204.00
11.4682 2231.00
11.5334 2237.00
11.5986 2195.00
11.6638 2217.00
11.729 2148.00
11.7942 2104.00
11.8594 2138.00
11.9246 2050.00
11.9898 2075.00
12.055 1996.00
12.1202 2065.00
12.1854 2003.00
12.2506 2034.00
12.3158 1965.00
12.381 2000.00
12.4462 1949.00
12.5114 1975.00
12.5766 1938.00
12.6418 1900.00
12.707 1952.00
12.7722 1869.00
12.8374 1913.00
12.9026 1871.00
12.9678 1895.00
13.033 1914.00
13.0982 1782.00
13.1634 1921.00
13.2286 1855.00
13.2938 1788.00
13.359 1833.00
13.4242 1702.00
13.4894 1857.00
13.5546 1714.00
13.6198 1752.00
13.685 1730.00
13.7502 1731.00
13.8154 1707.00
13.8805 1677.00
13.9457 1743.00
14.0109 1733.00
14.0761 1730.00
14.1413 1800.00
14.2065 1705.00
14.2717 1729.00
14.3369 1750.00
14.4021 1695.00
14.4673 1850.00
14.5325 1856.00
14.5977 1940.00
14.6629 2314.00
14.7281 2863.00
14.7933 3607.00
14.8585 4619.00
14.9237 3209.00
14.9889 1854.00
15.0541 1654.00
15.1193 1576.00
15.1845 1604.00
15.2497 1578.00
15.3149 1621.00
15.3801 1560.00
15.4453 1489.00
15.5105 1562.00
15.5757 1534.00
15.6409 1507.00
15.7061 1566.00
15.7713 1554.00
15.8365 1480.00
15.9017 1556.00
15.9669 1484.00
16.0321 1550.00
16.0973 1458.00
16.1625 1530.00
16.2277 1489.00
16.2929 1477.00
16.3581 1510.00
16.4233 1509.00
16.4885 1471.00
16.5537 1463.00
16.6189 1467.00
16.6841 1433.00
16.7493 1422.00
16.8145 1397.00
16.8797 1405.00
16.9449 1401.00
17.0101 1397.00
17.0753 1498.00
17.1405 1319.00
17.2057 1395.00
17.2709 1301.00
17.3361 1327.00
17.4013 1373.00
17.4665 1341.00
17.5317 1341.00
17.5969 1333.00
17.6621 1352.00
17.7273 1300.00
17.7925 1406.00
17.8577 1290.00
17.9229 1370.00
17.9881 1297.00
18.0533 1326.00
18.1185 1318.00
18.1837 1309.00
18.2489 1263.00
18.3141 1375.00
18.3793 1288.00
18.4445 1380.00
18.5097 1285.00
18.5749 1301.00
18.6401 1147.00
18.7052 1236.00
18.7704 1278.00
18.8356 1236.00
18.9008 1159.00
18.966 1189.00
19.0312 1268.00
19.0964 1278.00
19.1616 1247.00
19.2268 1192.00
19.292 1155.00
19.3572 1258.00
19.4224 1244.00
19.4876 1143.00
19.5528 1216.00
19.618 1198.00
19.6832 1139.00
19.7484 1189.00
19.8136 1227.00
19.8788 1236.00
19.944 1273.00
20.0092 1176.00
20.0744 1269.00
20.1396 1258.00
20.2048 1221.00
20.27 1349.00
20.3352 1597.00
20.4004 1909.00
20.4656 2885.00
20.5308 4493.00
20.596 6989.00
20.6612 5136.00
20.7264 2062.00
20.7916 1464.00
20.8568 1405.00
20.922 1452.00
20.9872 1698.00
21.0524 2386.00
21.1176 3841.00
21.1828 6295.00
21.248 9068.00
21.3132 4869.00
21.3784 1626.00
21.4436 1249.00
21.5088 1250.00
21.574 1177.00
21.6392 1240.00
21.7044 1276.00
21.7696 1213.00
21.8348 1336.00
21.9 1088.00
21.9652 1114.00
22.0304 1161.00
22.0956 1233.00
22.1608 1201.00
22.226 1121.00
22.2912 1104.00
22.3564 1040.00
22.4216 1038.00
22.4868 1063.00
22.552 1047.00
22.6172 1137.00
22.6824 1058.00
22.7476 1062.00
22.8128 969.00
22.878 954.00
22.9432 1021.00
23.0084 1010.00
23.0736 999.00
23.1388 998.00
23.204 1061.00
23.2692 1160.00
23.3344 1139.00
23.3996 1018.00
23.4647 1033.00
23.5299 975.00
23.5951 1023.00
23.6603 1010.00
23.7255 970.00
23.7907 1070.00
23.8559 1096.00
23.9211 1136.00
23.9863 1162.00
24.0515 1131.00
24.1167 1202.00
24.1819 1302.00
24.2471 1368.00
24.3123 1728.00
24.3775 2917.00
24.4427 5594.00
24.5079 12629.00
24.5731 23920.00
24.6383 21271.00
24.7035 7121.00
24.7687 2337.00
24.8339 2298.00
24.8991 1668.00
24.9643 1353.00
25.0295 1085.00
25.0947 1086.00
25.1599 946.00
25.2251 965.00
25.2903 984.00
25.3555 982.00
25.4207 943.00
25.4859 1009.00
25.5511 940.00
25.6163 944.00
25.6815 1019.00
25.7467 1150.00
25.8119 1470.00
25.8771 1963.00
25.9423 1516.00
26.0075 1013.00
26.0727 889.00
26.1379 842.00
26.2031 888.00
26.2683 855.00
26.3335 869.00
26.3987 813.00
26.4639 863.00
26.5291 833.00
26.5943 797.00
26.6595 887.00
26.7247 873.00
26.7899 913.00
26.8551 853.00
26.9203 848.00
26.9855 803.00
27.0507 819.00
27.1159 847.00
27.1811 783.00
27.2463 879.00
27.3115 843.00
27.3767 814.00
27.4419 834.00
27.5071 863.00
27.5723 965.00
27.6375 1340.00
27.7027 1902.00
27.7679 2638.00
27.8331 1774.00
27.8983 964.00
27.9635 734.00
28.0287 779.00
28.0939 747.00
28.1591 788.00
28.2243 776.00
28.2894 786.00
28.3546 732.00
28.4198 693.00
28.485 794.00
28.5502 717.00
28.6154 704.00
28.6806 767.00
28.7458 729.00
28.811 787.00
28.8762 762.00
28.9414 796.00
29.0066 771.00
29.0718 754.00
29.137 781.00
29.2022 810.00
29.2674 774.00
29.3326 782.00
29.3978 1015.00
29.463 1577.00
29.5282 3667.00
29.5934 7023.00
29.6586 5893.00
29.7238 2889.00
29.789 982.00
29.8542 857.00
29.9194 789.00
29.9846 772.00
30.0498 725.00
30.115 763.00
30.1802 741.00
30.2454 698.00
30.3106 718.00
30.3758 669.00
30.441 692.00
30.5062 696.00
30.5714 694.00
30.6366 684.00
30.7018 666.00
30.767 657.00
30.8322 685.00
30.8974 648.00
30.9626 659.00
31.0278 629.00
31.093 628.00
31.1582 618.00
31.2234 611.00
31.2886 632.00
31.3538 637.00
31.419 643.00
31.4842 657.00
31.5494 644.00
31.6146 653.00
31.6798 671.00
31.745 639.00
31.8102 656.00
31.8754 688.00
31.9406 668.00
32.0058 680.00
32.071 646.00
32.1362 713.00
32.2014 776.00
32.2666 773.00
32.3318 804.00
32.397 837.00
32.4622 929.00
32.5274 1210.00
32.5926 2357.00
32.6578 6162.00
32.723 15409.00
32.7882 14956.00
32.8534 8049.00
32.9186 1975.00
32.9838 1117.00
33.0489 921.00
33.1141 850.00
33.1793 741.00
33.2445 603.00
33.3097 641.00
33.3749 680.00
33.4401 659.00
33.5053 761.00
33.5705 1075.00
33.6357 830.00
33.7009 686.00
33.7661 627.00
33.8313 568.00
33.8965 583.00
33.9617 537.00
34.0269 604.00
34.0921 632.00
34.1573 583.00
34.2225 533.00
34.2877 521.00
34.3529 534.00
34.4181 595.00
34.4833 579.00
34.5485 565.00
34.6137 545.00
34.6789 519.00
34.7441 530.00
34.8093 492.00
34.8745 560.00
34.9397 518.00
35.0049 544.00
35.0701 549.00
35.1353 524.00
35.2005 567.00
35.2657 527.00
35.3309 523.00
35.3961 608.00
35.4613 607.00
35.5265 566.00
35.5917 560.00
35.6569 511.00
35.7221 553.00
35.7873 555.00
35.8525 564.00
35.9177 556.00
35.9829 561.00
36.0481 561.00
36.1133 541.00
36.1785 625.00
36.2437 613.00
36.3089 829.00
36.3741 1212.00
36.4393 1089.00
36.5045 1035.00
36.5697 1121.00
36.6349 859.00
36.7001 781.00
36.7653 698.00
36.8305 1044.00
36.8957 2512.00
36.9609 4769.00
37.0261 2712.00
37.0913 1689.00
37.1565 649.00
37.2217 557.00
37.2869 544.00
37.3521 505.00
37.4173 530.00
37.4825 492.00
37.5477 467.00
37.6129 477.00
37.6781 475.00
37.7433 516.00
37.8085 440.00
37.8736 471.00
37.9388 443.00
38.004 451.00
38.0692 505.00
38.1344 443.00
38.1996 427.00
38.2648 482.00
38.33 434.00
38.3952 440.00
38.4604 451.00
38.5256 445.00
38.5908 435.00
38.656 463.00
38.7212 463.00
38.7864 493.00
38.8516 456.00
38.9168 438.00
38.982 407.00
39.0472 463.00
39.1124 457.00
39.1776 436.00
39.2428 474.00
39.308 445.00
39.3732 413.00
39.4384 490.00
39.5036 545.00
39.5688 523.00
39.634 480.00
39.6992 412.00
39.7644 441.00
39.8296 438.00
39.8948 436.00
39.96 430.00
40.0252 431.00
40.0904 418.00
40.1556 433.00
40.2208 437.00
40.286 412.00
40.3512 395.00
40.4164 462.00
40.4816 415.00
40.5468 450.00
40.612 408.00
40.6772 425.00
40.7424 389.00
40.8076 401.00
40.8728 374.00
40.938 424.00
41.0032 407.00
41.0684 406.00
41.1336 433.00
41.1988 423.00
41.264 382.00
41.3292 452.00
41.3944 476.00
41.4596 713.00
41.5248 1351.00
41.59 1036.00
41.6552 881.00
41.7204 509.00
41.7856 450.00
41.8508 427.00
41.916 453.00
41.9812 420.00
42.0464 419.00
42.1116 420.00
42.1768 404.00
42.242 389.00
42.3072 375.00
42.3724 382.00
42.4376 443.00
42.5028 405.00
42.568 398.00
42.6332 388.00
42.6983 393.00
42.7635 387.00
42.8287 417.00
42.8939 423.00
42.9591 459.00
43.0243 490.00
43.0895 461.00
43.1547 584.00
43.2199 1199.00
43.2851 2246.00
43.3503 1429.00
43.4155 1245.00
43.4807 571.00
43.5459 489.00
43.6111 508.00
43.6763 439.00
43.7415 421.00
43.8067 458.00
43.8719 667.00
43.9371 1058.00
44.0023 694.00
44.0675 761.00
44.1327 443.00
44.1979 449.00
44.2631 429.00
44.3283 530.00
44.3935 484.00
44.4587 460.00
44.5239 428.00
44.5891 455.00
44.6543 643.00
44.7195 1294.00
44.7847 1276.00
44.8499 1443.00
44.9151 1177.00
44.9803 788.00
45.0455 590.00
45.1107 425.00
45.1759 374.00
45.2411 382.00
45.3063 364.00
45.3715 404.00
45.4367 396.00
45.5019 457.00
45.5671 419.00
45.6323 413.00
45.6975 327.00
45.7627 343.00
45.8279 364.00
45.8931 341.00
45.9583 354.00
46.0235 403.00
46.0887 351.00
46.1539 351.00
46.2191 374.00
46.2843 334.00
46.3495 340.00
46.4147 363.00
46.4799 384.00
46.5451 384.00
46.6103 384.00
46.6755 418.00
46.7407 438.00
46.8059 539.00
46.8711 1131.00
46.9363 3413.00
47.0015 3157.00
47.0667 2176.00
47.1319 1346.00
47.1971 583.00
47.2623 430.00
47.3275 432.00
47.3927 404.00
47.4579 389.00
47.523 360.00
47.5882 386.00
47.6534 383.00
47.7186 355.00
47.7838 425.00
47.849 818.00
47.9142 973.00
47.9794 669.00
48.0446 619.00
48.1098 388.00
48.175 353.00
48.2402 355.00
48.3054 358.00
48.3706 357.00
48.4358 371.00
48.501 391.00
48.5662 355.00
48.6314 386.00
48.6966 378.00
48.7618 478.00
48.827 668.00
48.8922 523.00
48.9574 559.00
49.0226 401.00
49.0878 375.00
49.153 357.00
49.2182 324.00
49.2834 334.00
49.3486 316.00
49.4138 378.00
49.479 410.00
49.5442 533.00
49.6094 868.00
49.6746 531.00
49.7398 628.00
49.805 505.00
49.8702 645.00
49.9354 1302.00
50.0006 3814.00
50.0658 2891.00
50.131 2328.00
50.1962 1583.00
50.2614 614.00
50.3266 518.00
50.3918 540.00
50.457 935.00
50.5222 1489.00
50.5874 1586.00
50.6526 1356.00
50.7178 909.00
50.783 628.00
50.8482 380.00
50.9134 366.00
50.9786 348.00
51.0438 344.00
51.109 350.00
51.1742 311.00
51.2394 354.00
51.3046 341.00
51.3698 329.00
51.435 312.00
51.5002 345.00
51.5654 325.00
51.6306 311.00
51.6958 301.00
51.761 322.00
51.8262 332.00
51.8914 318.00
51.9566 287.00
52.0218 317.00
52.087 331.00
52.1522 307.00
52.2174 319.00
52.2826 324.00
52.3477 325.00
52.4129 334.00
52.4781 303.00
52.5433 299.00
52.6085 316.00
52.6737 346.00
52.7389 348.00
52.8041 440.00
52.8693 347.00
52.9345 352.00
52.9997 340.00
53.0649 311.00
53.1301 326.00
53.1953 295.00
53.2605 325.00
53.3257 394.00
53.3909 358.00
53.4561 342.00
53.5213 455.00
53.5865 684.00
53.6517 1973.00
53.7169 2180.00
53.7821 1310.00
53.8473 1625.00
53.9125 1008.00
53.9777 1907.00
54.0429 1258.00
54.1081 1047.00
54.1733 897.00
54.2385 440.00
54.3037 380.00
54.3689 386.00
54.4341 426.00
54.4993 517.00
54.5645 949.00
54.6297 1253.00
54.6949 686.00
54.7601 841.00
54.8253 554.00
54.8905 420.00
54.9557 356.00
55.0209 347.00
55.0861 308.00
55.1513 305.00
55.2165 350.00
55.2817 397.00
55.3469 553.00
55.4121 373.00
55.4773 436.00
55.5425 335.00
55.6077 292.00
55.6729 298.00
55.7381 299.00
55.8033 295.00
55.8685 298.00
55.9337 305.00
55.9989 314.00
56.0641 310.00
56.1293 291.00
56.1945 299.00
56.2597 297.00
56.3249 338.00
56.3901 290.00
56.4553 428.00
56.5205 623.00
56.5857 1569.00
56.6509 1454.00
56.7161 902.00
56.7813 1087.00
56.8465 584.00
56.9117 673.00
56.9769 476.00
57.042 487.00
57.1073 448.00
57.1724 345.00
57.2376 396.00
57.3028 460.00
57.368 868.00
57.4332 1394.00
57.4984 682.00
57.5636 1164.00
57.6288 1880.00
57.694 3140.00
57.7592 1158.00
57.8244 1692.00
57.8896 968.00
57.9548 643.00
58.02 824.00
58.0852 461.00
58.1504 508.00
58.2156 451.00
58.2808 304.00
58.346 275.00
58.4112 250.00
58.4764 256.00
58.5416 291.00
58.6068 305.00
58.672 319.00
58.7372 285.00
58.8024 334.00
58.8676 445.00
58.9328 856.00
58.998 472.00
59.0632 565.00
59.1284 853.00
59.1936 1279.00
59.2588 660.00
59.324 640.00
59.3892 623.00
59.4544 374.00
59.5196 270.00
59.5848 260.00
59.65 282.00
59.7152 275.00
59.7804 307.00
59.8456 292.00
59.9108 270.00
59.976 298.00
60.0412 311.00
60.1064 264.00
60.1716 286.00
60.2368 256.00
60.302 285.00
60.3672 274.00
60.4324 285.00
60.4976 302.00
60.5628 268.00
60.628 293.00
60.6932 321.00
60.7584 303.00
60.8236 316.00
60.8888 361.00
60.954 596.00
61.0192 1454.00
61.0844 1195.00
61.1496 768.00
61.2148 959.00
61.28 563.00
61.3452 359.00
61.4104 312.00
61.4756 273.00
61.5408 276.00
61.606 276.00
61.6712 262.00
61.7364 275.00
61.8016 299.00
61.8667 238.00
61.932 282.00
61.9971 298.00
62.0623 262.00
62.1275 285.00
62.1927 310.00
62.2579 305.00
62.3231 295.00
62.3883 339.00
62.4535 358.00
62.5187 700.00
62.5839 1779.00
62.6491 1234.00
62.7143 772.00
62.7795 1132.00
62.8447 862.00
62.9099 685.00
62.9751 428.00
63.0403 648.00
63.1055 428.00
63.1707 381.00
63.2359 336.00
63.3011 326.00
63.3663 342.00
63.4315 365.00
63.4967 497.00
63.5619 1211.00
63.6271 2089.00
63.6923 805.00
63.7575 967.00
63.8227 934.00
63.8879 420.00
63.9531 521.00
64.0183 844.00
64.0835 559.00
64.1487 439.00
64.2139 624.00
64.2791 409.00
64.3443 368.00
64.4095 319.00
64.4747 356.00
64.5399 337.00
64.6051 285.00
64.6703 269.00
64.7355 289.00
64.8007 247.00
64.8659 284.00
64.9311 301.00
64.9963 289.00
65.0615 290.00
65.1267 358.00
65.1919 517.00
65.2571 1122.00
65.3223 1551.00
65.3875 716.00
65.4527 859.00
65.5179 771.00
65.5831 449.00
65.6483 334.00
65.7135 297.00
65.7787 320.00
65.8439 373.00
65.9091 678.00
65.9743 983.00
66.0395 881.00
66.1047 605.00
66.1699 730.00
66.2351 916.00
66.3003 556.00
66.3655 408.00
66.4307 553.00
66.4959 355.00
66.561 316.00
66.6263 307.00
66.6915 364.00
66.7566 843.00
66.8218 652.00
66.887 405.00
66.9522 573.00
67.0174 416.00
67.0826 273.00
67.1478 249.00
67.213 220.00
67.2782 275.00
67.3434 232.00
67.4086 220.00
67.4738 240.00
67.539 260.00
67.6042 326.00
67.6694 442.00
67.7346 296.00
67.7998 302.00
67.865 354.00
67.9302 256.00
67.9954 257.00
68.0606 288.00
68.1258 359.00
68.191 374.00
68.2562 283.00
68.3214 386.00
68.3866 679.00
68.4518 1115.00
68.517 601.00
68.5822 545.00
68.6474 664.00
68.7126 474.00
68.7778 307.00
68.843 278.00
68.9082 269.00
68.9734 232.00
69.0386 300.00
69.1038 295.00
69.169 366.00
69.2342 542.00
69.2994 703.00
69.3646 1041.00
69.4298 1117.00
69.495 658.00
69.5602 707.00
69.6254 542.00
69.6906 362.00
69.7558 293.00
69.821 269.00
69.8862 294.00
69.9514 299.00
70.0166 452.00
70.0818 593.00
70.147 338.00
70.2122 360.00
70.2774 423.00
70.3426 314.00
70.4078 270.00
70.473 258.00
70.5382 346.00
70.6034 500.00
70.6686 406.00
70.7338 333.00
70.799 515.00
70.8642 487.00
70.9294 289.00
70.9946 309.00
71.0598 315.00
71.125 248.00
71.1902 238.00
71.2554 249.00
71.3205 249.00
71.3858 294.00
71.451 441.00
71.5162 282.00
71.5813 280.00
71.6465 378.00
71.7117 494.00
71.7769 892.00
71.8421 626.00
71.9073 357.00
71.9725 527.00
72.0377 504.00
72.1029 317.00
72.1681 283.00
72.2333 296.00
72.2985 217.00
72.3637 237.00
72.4289 239.00
72.4941 229.00
72.5593 216.00
72.6245 212.00
72.6897 243.00
72.7549 241.00
72.8201 223.00
72.8853 207.00
72.9505 234.00
73.0157 203.00
73.0809 225.00
73.1461 233.00
73.2113 275.00
73.2765 373.00
73.3417 296.00
73.4069 282.00
73.4721 322.00
73.5373 286.00
73.6025 269.00
73.6677 241.00
73.7329 258.00
73.7981 233.00
73.8633 247.00
73.9285 375.00
73.9937 836.00
74.0589 1312.00
74.1241 581.00
74.1893 502.00
74.2545 769.00
74.3197 437.00
74.3849 326.00
74.4501 301.00
74.5153 292.00
74.5805 266.00
74.6457 238.00
74.7109 236.00
74.7761 246.00
74.8413 217.00
74.9065 226.00
74.9717 238.00
75.0369 300.00
75.1021 242.00
75.1673 232.00
75.2325 261.00
75.2977 308.00
75.3629 572.00
75.4281 436.00
75.4933 290.00
75.5585 342.00
75.6237 401.00
75.6889 223.00
75.7541 214.00
75.8193 245.00
75.8845 235.00
75.9497 201.00
76.0149 226.00
76.0801 213.00
76.1452 222.00
76.2104 216.00
76.2756 229.00
76.3409 184.00
76.406 236.00
76.4712 220.00
76.5364 201.00
76.6016 207.00
76.6668 227.00
76.732 225.00
76.7972 275.00
76.8624 250.00
76.9276 244.00
76.9928 246.00
77.058 241.00
77.1232 235.00
77.1884 399.00
77.2536 830.00
77.3188 699.00
77.384 398.00
77.4492 465.00
77.5144 611.00
77.5796 340.00
77.6448 261.00
77.71 228.00
77.7752 216.00
77.8404 229.00
77.9056 275.00
77.9708 266.00
78.036 331.00
78.1012 699.00
78.1664 1419.00
78.2316 599.00
78.2968 438.00
78.362 688.00
78.4272 656.00
78.4924 327.00
78.5576 294.00
78.6228 281.00
78.688 293.00
78.7532 282.00
78.8184 380.00
78.8836 779.00
78.9488 684.00
79.014 351.00
79.0792 377.00
79.1444 551.00
79.2096 473.00
79.2748 667.00
79.34 490.00
79.4052 414.00
79.4704 364.00
79.5356 492.00
79.6008 322.00
79.666 293.00
79.7312 216.00
79.7964 193.00
79.8616 216.00
79.9268 234.00
79.992 353.00
80.0572 361.00
80.1224 243.00
80.1876 283.00
80.2528 322.00
80.318 246.00
80.3832 206.00
80.4484 221.00
80.5136 225.00
80.5788 224.00
80.644 214.00
80.7092 211.00
80.7744 235.00
80.8396 212.00
80.9048 206.00
80.9699 341.00
81.0351 443.00
81.1003 365.00
81.1655 292.00
81.2307 277.00
81.2959 321.00
81.3611 239.00
81.4263 221.00
81.4915 185.00
81.5567 202.00
81.6219 189.00
81.6871 215.00
81.7523 205.00
81.8175 217.00
81.8827 227.00
81.9479 352.00
82.0131 436.00
82.0783 262.00
82.1435 260.00
82.2087 339.00
82.2739 332.00
82.3391 227.00
82.4043 265.00
82.4695 323.00
82.5347 333.00
82.5999 304.00
82.6651 248.00
82.7303 244.00
82.7955 241.00
82.8607 256.00
82.9259 226.00
82.9911 247.00
83.0563 311.00
83.1215 494.00
83.1867 405.00
83.2519 351.00
83.3171 460.00
83.3823 413.00
83.4475 292.00
83.5127 304.00
83.5779 285.00
83.6431 209.00
83.7083 223.00
83.7735 183.00
83.8387 214.00
83.9039 197.00
83.9691 194.00
84.0343 204.00
84.0995 176.00
84.1647 168.00
84.2299 206.00
84.2951 197.00
84.3603 204.00
84.4255 197.00
84.4907 262.00
84.5559 222.00
84.6211 219.00
84.6863 226.00
84.7515 292.00
84.8167 345.00
84.8819 683.00
84.9471 819.00
85.0123 393.00
85.0775 359.00
85.1427 486.00
85.2079 490.00
85.2731 305.00
85.3383 239.00
85.4035 233.00
85.4687 240.00
85.5339 208.00
85.5991 201.00
85.6643 185.00
85.7295 209.00
85.7946 183.00
85.8598 179.00
85.925 192.00
85.9903 221.00
86.0554 188.00
86.1206 207.00
86.1858 214.00
86.251 260.00
86.3162 201.00
86.3814 212.00
86.4466 247.00
86.5118 443.00
86.577 270.00
86.6422 251.00
86.7074 231.00
86.7726 333.00
86.8378 236.00
86.903 205.00
86.9682 218.00
87.0334 273.00
87.0986 405.00
87.1638 902.00
87.229 480.00
87.2942 307.00
87.3594 354.00
87.4246 518.00
87.4898 434.00
87.555 327.00
87.6202 273.00
87.6854 233.00
87.7506 227.00
87.8158 237.00
87.881 257.00
87.9462 186.00
88.0114 219.00
88.0766 224.00
88.1418 210.00
88.207 207.00
88.2722 199.00
88.3374 238.00
88.4026 209.00
88.4678 227.00
88.533 268.00
88.5982 493.00
88.6634 949.00
88.7286 467.00
88.7938 320.00
88.859 324.00
88.9242 522.00
88.9894 413.00
89.0546 269.00
89.1198 245.00
89.185 311.00
89.2502 628.00
89.3154 675.00
89.3806 376.00
89.4458 267.00
89.511 382.00
89.5762 504.00
89.6414 336.00
89.7066 365.00
89.7718 339.00
89.837 241.00
89.9022 224.00
89.9674 232.00
90.0326 269.00
90.0978 240.00
90.163 202.00
90.2282 198.00
90.2934 194.00
90.3586 212.00
90.4238 193.00
90.489 179.00
90.5542 268.00
90.6193 378.00
90.6845 475.00
90.7497 290.00
90.8149 292.00
90.8801 332.00
90.9453 359.00
91.0105 319.00
91.0757 228.00
91.1409 248.00
91.2061 241.00
91.2713 226.00
91.3365 273.00
91.4017 304.00
91.4669 423.00
91.5321 468.00
91.5973 458.00
91.6625 294.00
91.7277 325.00
91.7929 328.00
91.8581 294.00
91.9233 312.00
91.9885 240.00
92.0537 183.00
92.1189 182.00
92.1841 228.00
92.2493 220.00
92.3145 273.00
92.3797 403.00
92.4449 476.00
92.5101 347.00
92.5753 250.00
92.6405 292.00
92.7057 331.00
92.7709 298.00
92.8361 257.00
92.9013 229.00
92.9665 215.00
93.0317 206.00
93.0969 189.00
93.1621 231.00
93.2273 229.00
93.2925 285.00
93.3577 323.00
93.4229 302.00
93.4881 355.00
93.5533 289.00
93.6185 299.00
93.6837 359.00
93.7489 627.00
93.8141 942.00
93.8793 574.00
93.9445 315.00
94.0097 360.00
94.0749 470.00
94.1401 473.00
94.2053 261.00
94.2705 260.00
94.3357 225.00
94.4009 209.00
94.4661 232.00
94.5313 264.00
94.5965 233.00
94.6617 242.00
94.7269 269.00
94.7921 245.00
94.8573 191.00
94.9225 216.00
94.9877 215.00
95.0529 247.00
95.1181 350.00
95.1833 347.00
95.2485 243.00
95.3137 264.00
95.3789 247.00
95.444 327.00
95.5092 327.00
95.5744 242.00
95.6396 242.00
95.7048 243.00
95.77 242.00
95.8352 225.00
95.9004 219.00
95.9656 226.00
96.0308 232.00
96.096 341.00
96.1612 499.00
96.2264 600.00
96.2916 415.00
96.3568 285.00
96.422 310.00
96.4872 398.00
96.5524 397.00
96.6176 307.00
96.6828 215.00
96.748 243.00
96.8132 320.00
96.8784 345.00
96.9436 244.00
97.0088 208.00
97.074 249.00
97.1392 262.00
97.2044 280.00
97.2696 245.00
97.3348 214.00
97.4 240.00
97.4652 230.00
97.5304 194.00
97.5956 204.00
97.6608 211.00
97.726 241.00
97.7912 191.00
97.8564 182.00
97.9216 203.00
97.9868 215.00
98.052 215.00
98.1172 229.00
98.1824 272.00
98.2476 201.00
98.3128 218.00
98.378 238.00
98.4432 275.00
98.5084 413.00
98.5736 290.00
98.6388 209.00
98.704 264.00
98.7692 275.00
98.8344 349.00
98.8996 385.00
98.9648 296.00
99.03 328.00
99.0952 279.00
99.1604 311.00
99.2256 291.00
99.2908 276.00
99.356 280.00
99.4212 268.00
99.4864 256.00
99.5516 214.00
99.6168 250.00
99.682 263.00
99.7472 250.00
99.8124 339.00
99.8776 507.00
99.9428 512.00
100.008 681.00
100.073 771.00
100.095 641.00