File: data/xrd_creation/results/NSC_64.xy
9.903433 2875.00
9.968632 2728.00
10.0338 2724.00
10.099 2693.00
10.1642 2688.00
10.2294 2598.00
10.2946 2761.00
10.3598 2721.00
10.425 2684.00
10.4902 2672.00
10.5554 2628.00
10.6206 2607.00
10.6858 2606.00
10.751 2523.00
10.8162 2386.00
10.8814 2489.00
10.9466 2374.00
11.0118 2498.00
11.077 2306.00
11.1422 2350.00
11.2074 2271.00
11.2726 2228.00
11.3378 2258.00
11.403 2267.00
11.4682 2289.00
11.5334 2257.00
11.5986 2210.00
11.6638 2112.00
11.729 2150.00
11.7942 2156.00
11.8594 2099.00
11.9246 2168.00
11.9898 2083.00
12.055 2080.00
12.1202 1992.00
12.1854 2012.00
12.2506 2090.00
12.3158 2036.00
12.381 2078.00
12.4462 2009.00
12.5114 2014.00
12.5766 2096.00
12.6418 2034.00
12.707 1975.00
12.7722 1993.00
12.8374 1881.00
12.9026 1893.00
12.9678 1843.00
13.033 1864.00
13.0982 1980.00
13.1634 1924.00
13.2286 1855.00
13.2938 1855.00
13.359 1781.00
13.4242 1871.00
13.4894 1816.00
13.5546 1854.00
13.6198 1904.00
13.685 2100.00
13.7502 2164.00
13.8154 2426.00
13.8805 2408.00
13.9457 2148.00
14.0109 2030.00
14.0761 1844.00
14.1413 1832.00
14.2065 1698.00
14.2717 1702.00
14.3369 1734.00
14.4021 1618.00
14.4673 1713.00
14.5325 1633.00
14.5977 1767.00
14.6629 1644.00
14.7281 1721.00
14.7933 1732.00
14.8585 1735.00
14.9237 1729.00
14.9889 1730.00
15.0541 1772.00
15.1193 1750.00
15.1845 1873.00
15.2497 1941.00
15.3149 1878.00
15.3801 1994.00
15.4453 2127.00
15.5105 2334.00
15.5757 2545.00
15.6409 2542.00
15.7061 2109.00
15.7713 1795.00
15.8365 1658.00
15.9017 1665.00
15.9669 1587.00
16.0321 1542.00
16.0973 1633.00
16.1625 1549.00
16.2277 1602.00
16.2929 1501.00
16.3581 1554.00
16.4233 1491.00
16.4885 1580.00
16.5537 1543.00
16.6189 1565.00
16.6841 1555.00
16.7493 1717.00
16.8145 1700.00
16.8797 1716.00
16.9449 1721.00
17.0101 1692.00
17.0753 1661.00
17.1405 1517.00
17.2057 1493.00
17.2709 1429.00
17.3361 1483.00
17.4013 1508.00
17.4665 1461.00
17.5317 1484.00
17.5969 1466.00
17.6621 1418.00
17.7273 1371.00
17.7925 1449.00
17.8577 1489.00
17.9229 1451.00
17.9881 1427.00
18.0533 1339.00
18.1185 1371.00
18.1837 1387.00
18.2489 1318.00
18.3141 1321.00
18.3793 1349.00
18.4445 1394.00
18.5097 1309.00
18.5749 1390.00
18.6401 1351.00
18.7052 1451.00
18.7704 1463.00
18.8356 1470.00
18.9008 1399.00
18.966 1478.00
19.0312 1489.00
19.0964 1403.00
19.1616 1318.00
19.2268 1545.00
19.292 1683.00
19.3572 1906.00
19.4224 2649.00
19.4876 3163.00
19.5528 3590.00
19.618 3357.00
19.6832 3523.00
19.7484 3567.00
19.8136 3482.00
19.8788 2590.00
19.944 2101.00
20.0092 1728.00
20.0744 1647.00
20.1396 1631.00
20.2048 1608.00
20.27 1580.00
20.3352 1613.00
20.4004 1500.00
20.4656 1463.00
20.5308 1381.00
20.596 1329.00
20.6612 1250.00
20.7264 1243.00
20.7916 1303.00
20.8568 1181.00
20.922 1315.00
20.9872 1279.00
21.0524 1169.00
21.1176 1254.00
21.1828 1259.00
21.248 1239.00
21.3132 1420.00
21.3784 1374.00
21.4436 1442.00
21.5088 1469.00
21.574 1472.00
21.6392 1567.00
21.7044 1575.00
21.7696 1405.00
21.8348 1344.00
21.9 1270.00
21.9652 1163.00
22.0304 1233.00
22.0956 1185.00
22.1608 1166.00
22.226 1204.00
22.2912 1134.00
22.3564 1225.00
22.4216 1134.00
22.4868 1164.00
22.552 1172.00
22.6172 1209.00
22.6824 1146.00
22.7476 1175.00
22.8128 1178.00
22.878 1198.00
22.9432 1304.00
23.0084 1585.00
23.0736 1828.00
23.1388 2145.00
23.204 1929.00
23.2692 1487.00
23.3344 1356.00
23.3996 1298.00
23.4647 1126.00
23.5299 1072.00
23.5951 1076.00
23.6603 1153.00
23.7255 1019.00
23.7907 1059.00
23.8559 1041.00
23.9211 1090.00
23.9863 1072.00
24.0515 1044.00
24.1167 1100.00
24.1819 1049.00
24.2471 1170.00
24.3123 1117.00
24.3775 1087.00
24.4427 1098.00
24.5079 1258.00
24.5731 1205.00
24.6383 1125.00
24.7035 1149.00
24.7687 1038.00
24.8339 1040.00
24.8991 1091.00
24.9643 1145.00
25.0295 1164.00
25.0947 1084.00
25.1599 1111.00
25.2251 1154.00
25.2903 1196.00
25.3555 1193.00
25.4207 1199.00
25.4859 1138.00
25.5511 1160.00
25.6163 1123.00
25.6815 1032.00
25.7467 967.00
25.8119 954.00
25.8771 960.00
25.9423 1011.00
26.0075 930.00
26.0727 887.00
26.1379 943.00
26.2031 953.00
26.2683 1011.00
26.3335 972.00
26.3987 1017.00
26.4639 1077.00
26.5291 1135.00
26.5943 1266.00
26.6595 1284.00
26.7247 1288.00
26.7899 1199.00
26.8551 1162.00
26.9203 1120.00
26.9855 1026.00
27.0507 1011.00
27.1159 998.00
27.1811 1010.00
27.2463 930.00
27.3115 982.00
27.3767 1052.00
27.4419 1079.00
27.5071 998.00
27.5723 964.00
27.6375 955.00
27.7027 1080.00
27.7679 1116.00
27.8331 1395.00
27.8983 1975.00
27.9635 2442.00
28.0287 2324.00
28.0939 1866.00
28.1591 1512.00
28.2243 1390.00
28.2894 1552.00
28.3546 1547.00
28.4198 1339.00
28.485 1160.00
28.5502 1058.00
28.6154 1022.00
28.6806 976.00
28.7458 877.00
28.811 901.00
28.8762 924.00
28.9414 861.00
29.0066 825.00
29.0718 897.00
29.137 837.00
29.2022 927.00
29.2674 859.00
29.3326 874.00
29.3978 912.00
29.463 942.00
29.5282 926.00
29.5934 862.00
29.6586 859.00
29.7238 1073.00
29.789 1058.00
29.8542 1093.00
29.9194 1055.00
29.9846 1024.00
30.0498 1000.00
30.115 1028.00
30.1802 1046.00
30.2454 1301.00
30.3106 1481.00
30.3758 2052.00
30.441 2569.00
30.5062 3189.00
30.5714 2985.00
30.6366 2514.00
30.7018 2108.00
30.767 1793.00
30.8322 1488.00
30.8974 1413.00
30.9626 1531.00
31.0278 1794.00
31.093 2446.00
31.1582 3408.00
31.2234 4003.00
31.2886 3801.00
31.3538 3014.00
31.419 2415.00
31.4842 2086.00
31.5494 2012.00
31.6146 2041.00
31.6798 1950.00
31.745 1937.00
31.8102 1787.00
31.8754 1588.00
31.9406 1388.00
32.0058 1247.00
32.071 1354.00
32.1362 1554.00
32.2014 1809.00
32.2666 2103.00
32.3318 1892.00
32.397 1510.00
32.4622 1240.00
32.5274 1082.00
32.5926 1100.00
32.6578 1059.00
32.723 1104.00
32.7882 1038.00
32.8534 1039.00
32.9186 889.00
32.9838 876.00
33.0489 867.00
33.1141 914.00
33.1793 871.00
33.2445 868.00
33.3097 871.00
33.3749 952.00
33.4401 1002.00
33.5053 1169.00
33.5705 1220.00
33.6357 1061.00
33.7009 1025.00
33.7661 883.00
33.8313 864.00
33.8965 816.00
33.9617 914.00
34.0269 931.00
34.0921 931.00
34.1573 1052.00
34.2225 985.00
34.2877 1116.00
34.3529 1190.00
34.4181 1456.00
34.4833 1950.00
34.5485 2796.00
34.6137 3383.00
34.6789 3728.00
34.7441 3488.00
34.8093 2814.00
34.8745 2145.00
34.9397 1629.00
35.0049 1256.00
35.0701 1025.00
35.1353 950.00
35.2005 915.00
35.2657 960.00
35.3309 1158.00
35.3961 1267.00
35.4613 1281.00
35.5265 1103.00
35.5917 983.00
35.6569 871.00
35.7221 813.00
35.7873 759.00
35.8525 684.00
35.9177 619.00
35.9829 691.00
36.0481 683.00
36.1133 679.00
36.1785 657.00
36.2437 698.00
36.3089 714.00
36.3741 727.00
36.4393 826.00
36.5045 825.00
36.5697 746.00
36.6349 793.00
36.7001 676.00
36.7653 707.00
36.8305 690.00
36.8957 682.00
36.9609 634.00
37.0261 655.00
37.0913 673.00
37.1565 656.00
37.2217 618.00
37.2869 609.00
37.3521 604.00
37.4173 608.00
37.4825 657.00
37.5477 663.00
37.6129 706.00
37.6781 702.00
37.7433 712.00
37.8085 671.00
37.8736 770.00
37.9388 710.00
38.004 715.00
38.0692 656.00
38.1344 607.00
38.1996 722.00
38.2648 721.00
38.33 685.00
38.3952 720.00
38.4604 728.00
38.5256 661.00
38.5908 625.00
38.656 600.00
38.7212 603.00
38.7864 597.00
38.8516 554.00
38.9168 569.00
38.982 586.00
39.0472 550.00
39.1124 629.00
39.1776 580.00
39.2428 599.00
39.308 689.00
39.3732 694.00
39.4384 646.00
39.5036 648.00
39.5688 636.00
39.634 699.00
39.6992 738.00
39.7644 742.00
39.8296 687.00
39.8948 673.00
39.96 632.00
40.0252 604.00
40.0904 592.00
40.1556 581.00
40.2208 686.00
40.286 696.00
40.3512 738.00
40.4164 805.00
40.4816 822.00
40.5468 804.00
40.612 735.00
40.6772 712.00
40.7424 646.00
40.8076 610.00
40.8728 518.00
40.938 535.00
41.0032 533.00
41.0684 569.00
41.1336 544.00
41.1988 567.00
41.264 571.00
41.3292 564.00
41.3944 577.00
41.4596 629.00
41.5248 569.00
41.59 607.00
41.6552 661.00
41.7204 761.00
41.7856 785.00
41.8508 785.00
41.916 824.00
41.9812 831.00
42.0464 904.00
42.1116 1081.00
42.1768 1138.00
42.242 1181.00
42.3072 1203.00
42.3724 1092.00
42.4376 1014.00
42.5028 1130.00
42.568 1010.00
42.6332 1038.00
42.6983 1040.00
42.7635 954.00
42.8287 884.00
42.8939 826.00
42.9591 697.00
43.0243 748.00
43.0895 658.00
43.1547 642.00
43.2199 663.00
43.2851 673.00
43.3503 671.00
43.4155 622.00
43.4807 616.00
43.5459 549.00
43.6111 539.00
43.6763 605.00
43.7415 550.00
43.8067 550.00
43.8719 539.00
43.9371 526.00
44.0023 535.00
44.0675 502.00
44.1327 568.00
44.1979 576.00
44.2631 573.00
44.3283 556.00
44.3935 588.00
44.4587 616.00
44.5239 655.00
44.5891 654.00
44.6543 713.00
44.7195 748.00
44.7847 792.00
44.8499 841.00
44.9151 796.00
44.9803 858.00
45.0455 900.00
45.1107 1078.00
45.1759 1138.00
45.2411 1180.00
45.3063 1104.00
45.3715 936.00
45.4367 881.00
45.5019 875.00
45.5671 821.00
45.6323 871.00
45.6975 818.00
45.7627 766.00
45.8279 711.00
45.8931 666.00
45.9583 610.00
46.0235 586.00
46.0887 542.00
46.1539 593.00
46.2191 575.00
46.2843 650.00
46.3495 691.00
46.4147 637.00
46.4799 651.00
46.5451 642.00
46.6103 621.00
46.6755 651.00
46.7407 636.00
46.8059 703.00
46.8711 761.00
46.9363 858.00
47.0015 830.00
47.0667 872.00
47.1319 868.00
47.1971 942.00
47.2623 1128.00
47.3275 1455.00
47.3927 1735.00
47.4579 1661.00
47.523 1503.00
47.5882 1237.00
47.6534 1051.00
47.7186 815.00
47.7838 703.00
47.849 568.00
47.9142 559.00
47.9794 509.00
48.0446 503.00
48.1098 490.00
48.175 538.00
48.2402 491.00
48.3054 535.00
48.3706 481.00
48.4358 515.00
48.501 508.00
48.5662 537.00
48.6314 530.00
48.6966 567.00
48.7618 593.00
48.827 675.00
48.8922 750.00
48.9574 854.00
49.0226 878.00
49.0878 857.00
49.153 856.00
49.2182 715.00
49.2834 658.00
49.3486 609.00
49.4138 557.00
49.479 501.00
49.5442 518.00
49.6094 476.00
49.6746 505.00
49.7398 644.00
49.805 625.00
49.8702 605.00
49.9354 618.00
50.0006 591.00
50.0658 601.00
50.131 529.00
50.1962 564.00
50.2614 545.00
50.3266 486.00
50.3918 538.00
50.457 523.00
50.5222 595.00
50.5874 618.00
50.6526 690.00
50.7178 820.00
50.783 973.00
50.8482 1125.00
50.9134 1257.00
50.9786 1367.00
51.0438 1291.00
51.109 1265.00
51.1742 1124.00
51.2394 1061.00
51.3046 1027.00
51.3698 1140.00
51.435 1221.00
51.5002 1270.00
51.5654 1268.00
51.6306 1001.00
51.6958 867.00
51.761 727.00
51.8262 617.00
51.8914 574.00
51.9566 552.00
52.0218 522.00
52.087 574.00
52.1522 548.00
52.2174 557.00
52.2826 571.00
52.3477 567.00
52.4129 549.00
52.4781 542.00
52.5433 542.00
52.6085 575.00
52.6737 571.00
52.7389 510.00
52.8041 562.00
52.8693 521.00
52.9345 536.00
52.9997 567.00
53.0649 535.00
53.1301 567.00
53.1953 535.00
53.2605 538.00
53.3257 513.00
53.3909 561.00
53.4561 540.00
53.5213 528.00
53.5865 535.00
53.6517 502.00
53.7169 573.00
53.7821 582.00
53.8473 644.00
53.9125 723.00
53.9777 902.00
54.0429 1021.00
54.1081 1270.00
54.1733 1376.00
54.2385 1437.00
54.3037 1372.00
54.3689 1086.00
54.4341 1015.00
54.4993 777.00
54.5645 660.00
54.6297 558.00
54.6949 534.00
54.7601 496.00
54.8253 516.00
54.8905 427.00
54.9557 462.00
55.0209 447.00
55.0861 465.00
55.1513 493.00
55.2165 458.00
55.2817 417.00
55.3469 513.00
55.4121 486.00
55.4773 491.00
55.5425 536.00
55.6077 614.00
55.6729 644.00
55.7381 662.00
55.8033 622.00
55.8685 633.00
55.9337 621.00
55.9989 550.00
56.0641 561.00
56.1293 519.00
56.1945 503.00
56.2597 474.00
56.3249 506.00
56.3901 531.00
56.4553 592.00
56.5205 597.00
56.5857 615.00
56.6509 703.00
56.7161 703.00
56.7813 679.00
56.8465 677.00
56.9117 583.00
56.9769 594.00
57.042 538.00
57.1073 465.00
57.1724 466.00
57.2376 453.00
57.3028 445.00
57.368 420.00
57.4332 465.00
57.4984 469.00
57.5636 463.00
57.6288 473.00
57.694 439.00
57.7592 426.00
57.8244 473.00
57.8896 486.00
57.9548 436.00
58.02 426.00
58.0852 465.00
58.1504 460.00
58.2156 453.00
58.2808 438.00
58.346 438.00
58.4112 442.00
58.4764 389.00
58.5416 410.00
58.6068 457.00
58.672 490.00
58.7372 483.00
58.8024 526.00
58.8676 500.00
58.9328 566.00
58.998 597.00
59.0632 660.00
59.1284 615.00
59.1936 659.00
59.2588 739.00
59.324 761.00
59.3892 727.00
59.4544 743.00
59.5196 741.00
59.5848 861.00
59.65 794.00
59.7152 909.00
59.7804 923.00
59.8456 973.00
59.9108 1033.00
59.976 1088.00
60.0412 1247.00
60.1064 1243.00
60.1716 1214.00
60.2368 1180.00
60.302 942.00
60.3672 830.00
60.4324 858.00
60.4976 847.00
60.5628 973.00
60.628 974.00
60.6932 972.00
60.7584 989.00
60.8236 911.00
60.8888 756.00
60.954 705.00
61.0192 580.00
61.0844 604.00
61.1496 609.00
61.2148 615.00
61.28 734.00
61.3452 720.00
61.4104 760.00
61.4756 762.00
61.5408 683.00
61.606 630.00
61.6712 591.00
61.7364 553.00
61.8016 544.00
61.8667 540.00
61.932 665.00
61.9971 675.00
62.0623 817.00
62.1275 837.00
62.1927 934.00
62.2579 875.00
62.3231 822.00
62.3883 769.00
62.4535 709.00
62.5187 602.00
62.5839 542.00
62.6491 527.00
62.7143 559.00
62.7795 519.00
62.8447 501.00
62.9099 530.00
62.9751 600.00
63.0403 580.00
63.1055 575.00
63.1707 541.00
63.2359 603.00
63.3011 521.00
63.3663 538.00
63.4315 549.00
63.4967 571.00
63.5619 650.00
63.6271 627.00
63.6923 676.00
63.7575 634.00
63.8227 629.00
63.8879 566.00
63.9531 487.00
64.0183 485.00
64.0835 443.00
64.1487 412.00
64.2139 443.00
64.2791 475.00
64.3443 429.00
64.4095 476.00
64.4747 468.00
64.5399 459.00
64.6051 464.00
64.6703 448.00
64.7355 430.00
64.8007 484.00
64.8659 471.00
64.9311 430.00
64.9963 446.00
65.0615 466.00
65.1267 432.00
65.1919 475.00
65.2571 488.00
65.3223 426.00
65.3875 431.00
65.4527 436.00
65.5179 462.00
65.5831 428.00
65.6483 398.00
65.7135 471.00
65.7787 491.00
65.8439 533.00
65.9091 510.00
65.9743 635.00
66.0395 672.00
66.1047 645.00
66.1699 606.00
66.2351 558.00
66.3003 531.00
66.3655 505.00
66.4307 510.00
66.4959 440.00
66.561 472.00
66.6263 490.00
66.6915 472.00
66.7566 463.00
66.8218 489.00
66.887 524.00
66.9522 534.00
67.0174 512.00
67.0826 547.00
67.1478 566.00
67.213 593.00
67.2782 637.00
67.3434 669.00
67.4086 704.00
67.4738 667.00
67.539 590.00
67.6042 571.00
67.6694 519.00
67.7346 463.00
67.7998 505.00
67.865 494.00
67.9302 440.00
67.9954 462.00
68.0606 473.00
68.1258 471.00
68.191 447.00
68.2562 410.00
68.3214 427.00
68.3866 404.00
68.4518 423.00
68.517 378.00
68.5822 387.00
68.6474 413.00
68.7126 401.00
68.7778 406.00
68.843 394.00
68.9082 371.00
68.9734 406.00
69.0386 386.00
69.1038 390.00
69.169 391.00
69.2342 404.00
69.2994 452.00
69.3646 455.00
69.4298 490.00
69.495 520.00
69.5602 552.00
69.6254 532.00
69.6906 518.00
69.7558 497.00
69.821 498.00
69.8862 457.00
69.9514 457.00
70.0166 400.00
70.0818 386.00
70.147 359.00
70.2122 412.00
70.2774 397.00
70.3426 346.00
70.4078 345.00
70.473 367.00
70.5382 320.00
70.6034 380.00
70.6686 359.00
70.7338 386.00
70.799 357.00
70.8642 390.00
70.9294 364.00
70.9946 383.00
71.0598 387.00
71.125 387.00
71.1902 394.00
71.2554 404.00
71.3205 362.00
71.3858 426.00
71.451 422.00
71.5162 449.00
71.5813 368.00
71.6465 402.00
71.7117 402.00
71.7769 421.00
71.8421 344.00
71.9073 359.00
71.9725 384.00
72.0377 405.00
72.1029 399.00
72.1681 399.00
72.2333 357.00
72.2985 404.00
72.3637 354.00
72.4289 367.00
72.4941 364.00
72.5593 377.00
72.6245 362.00
72.6897 341.00
72.7549 365.00
72.8201 361.00
72.8853 380.00
72.9505 368.00
73.0157 381.00
73.0809 467.00
73.1461 466.00
73.2113 564.00
73.2765 524.00
73.3417 555.00
73.4069 538.00
73.4721 524.00
73.5373 496.00
73.6025 434.00
73.6677 423.00
73.7329 450.00
73.7981 424.00
73.8633 384.00
73.9285 360.00
73.9937 401.00
74.0589 436.00
74.1241 370.00
74.1893 412.00
74.2545 387.00
74.3197 416.00
74.3849 432.00
74.4501 395.00
74.5153 389.00
74.5805 400.00
74.6457 387.00
74.7109 399.00
74.7761 389.00
74.8413 390.00
74.9065 414.00
74.9717 403.00
75.0369 427.00
75.1021 432.00
75.1673 388.00
75.2325 426.00
75.2977 415.00
75.3629 415.00
75.4281 433.00
75.4933 414.00
75.5585 420.00
75.6237 420.00
75.6889 437.00
75.7541 424.00
75.8193 402.00
75.8845 384.00
75.9497 382.00
76.0149 406.00
76.0801 334.00
76.1452 388.00
76.2104 375.00
76.2756 383.00
76.3409 366.00
76.406 384.00
76.4712 379.00
76.5364 430.00
76.6016 431.00
76.6668 492.00
76.732 502.00
76.7972 502.00
76.8624 540.00
76.9276 530.00
76.9928 514.00
77.058 465.00
77.1232 456.00
77.1884 388.00
77.2536 399.00
77.3188 339.00
77.384 375.00
77.4492 364.00
77.5144 377.00
77.5796 396.00
77.6448 363.00
77.71 406.00
77.7752 380.00
77.8404 398.00
77.9056 448.00
77.9708 422.00
78.036 473.00
78.1012 453.00
78.1664 452.00
78.2316 445.00
78.2968 413.00
78.362 379.00
78.4272 371.00
78.4924 389.00
78.5576 380.00
78.6228 357.00
78.688 350.00
78.7532 368.00
78.8184 353.00
78.8836 368.00
78.9488 329.00
79.014 337.00
79.0792 385.00
79.1444 352.00
79.2096 363.00
79.2748 372.00
79.34 373.00
79.4052 360.00
79.4704 380.00
79.5356 324.00
79.6008 337.00
79.666 286.00
79.7312 341.00
79.7964 312.00
79.8616 373.00
79.9268 349.00
79.992 350.00
80.0572 393.00
80.1224 349.00
80.1876 351.00
80.2528 369.00
80.318 376.00
80.3832 388.00
80.4484 384.00
80.5136 346.00
80.5788 344.00
80.644 389.00
80.7092 362.00
80.7744 374.00
80.8396 401.00
80.9048 383.00
80.9699 402.00
81.0351 413.00
81.1003 388.00
81.1655 395.00
81.2307 454.00
81.2959 409.00
81.3611 428.00
81.4263 455.00
81.4915 444.00
81.5567 454.00
81.6219 505.00
81.6871 527.00
81.7523 559.00
81.8175 614.00
81.8827 626.00
81.9479 559.00
82.0131 512.00
82.0783 527.00
82.1435 505.00
82.2087 450.00
82.2739 433.00
82.3391 362.00
82.4043 374.00
82.4695 428.00
82.5347 407.00
82.5999 380.00
82.6651 402.00
82.7303 354.00
82.7955 381.00
82.8607 385.00
82.9259 418.00
82.9911 427.00
83.0563 440.00
83.1215 428.00
83.1867 475.00
83.2519 405.00
83.3171 402.00
83.3823 424.00
83.4475 450.00
83.5127 470.00
83.5779 407.00
83.6431 443.00
83.7083 397.00
83.7735 442.00
83.8387 384.00
83.9039 374.00
83.9691 410.00
84.0343 391.00
84.0995 388.00
84.1647 335.00
84.2299 376.00
84.2951 324.00
84.3603 343.00
84.4255 313.00
84.4907 358.00
84.5559 339.00
84.6211 341.00
84.6863 323.00
84.7515 324.00
84.8167 350.00
84.8819 307.00
84.9471 299.00
85.0123 317.00
85.0775 332.00
85.1427 290.00
85.2079 337.00
85.2731 287.00
85.3383 330.00
85.4035 357.00
85.4687 340.00
85.5339 322.00
85.5991 342.00
85.6643 369.00
85.7295 383.00
85.7946 339.00
85.8598 376.00
85.925 394.00
85.9903 398.00
86.0554 419.00
86.1206 381.00
86.1858 354.00
86.251 339.00
86.3162 326.00
86.3814 331.00
86.4466 320.00
86.5118 319.00
86.577 331.00
86.6422 385.00
86.7074 321.00
86.7726 370.00
86.8378 386.00
86.903 400.00
86.9682 382.00
87.0334 398.00
87.0986 380.00
87.1638 413.00
87.229 418.00
87.2942 351.00
87.3594 349.00
87.4246 368.00
87.4898 383.00
87.555 346.00
87.6202 347.00
87.6854 349.00
87.7506 336.00
87.8158 334.00
87.881 385.00
87.9462 343.00
88.0114 369.00
88.0766 406.00
88.1418 425.00
88.207 413.00
88.2722 455.00
88.3374 490.00
88.4026 478.00
88.4678 469.00
88.533 447.00
88.5982 444.00
88.6634 417.00
88.7286 426.00
88.7938 414.00
88.859 389.00
88.9242 367.00
88.9894 377.00
89.0546 386.00
89.1198 359.00
89.185 381.00
89.2502 379.00
89.3154 366.00
89.3806 428.00
89.4458 368.00
89.511 360.00
89.5762 366.00
89.6414 377.00
89.7066 334.00
89.7718 308.00
89.837 340.00
89.9022 342.00
89.9674 378.00
90.0326 345.00
90.0978 336.00
90.163 343.00
90.2282 376.00
90.2934 356.00
90.3586 368.00
90.4238 384.00
90.489 354.00
90.5542 391.00
90.6193 358.00
90.6845 357.00
90.7497 375.00
90.8149 381.00
90.8801 362.00
90.9453 368.00
91.0105 375.00
91.0757 349.00
91.1409 386.00
91.2061 383.00
91.2713 361.00
91.3365 409.00
91.4017 399.00
91.4669 328.00
91.5321 386.00
91.5973 405.00
91.6625 372.00
91.7277 374.00
91.7929 377.00
91.8581 376.00
91.9233 410.00
91.9885 400.00
92.0537 414.00
92.1189 417.00
92.1841 417.00
92.2493 428.00
92.3145 394.00
92.3797 414.00
92.4449 400.00
92.5101 399.00
92.5753 387.00
92.6405 404.00
92.7057 391.00
92.7709 344.00
92.8361 356.00
92.9013 343.00
92.9665 320.00
93.0317 349.00
93.0969 321.00
93.1621 355.00
93.2273 362.00
93.2925 316.00
93.3577 392.00
93.4229 349.00
93.4881 368.00
93.5533 355.00
93.6185 321.00
93.6837 354.00
93.7489 370.00
93.8141 375.00
93.8793 374.00
93.9445 366.00
94.0097 359.00
94.0749 362.00
94.1401 347.00
94.2053 369.00
94.2705 352.00
94.3357 363.00
94.4009 322.00
94.4661 375.00
94.5313 374.00
94.5965 360.00
94.6617 391.00
94.7269 372.00
94.7921 415.00
94.8573 392.00
94.9225 397.00
94.9877 438.00
95.0529 457.00
95.1181 480.00
95.1833 488.00
95.2485 455.00
95.3137 468.00
95.3789 459.00
95.444 475.00
95.5092 441.00
95.5744 443.00
95.6396 404.00
95.7048 421.00
95.77 397.00
95.8352 375.00
95.9004 355.00
95.9656 379.00
96.0308 388.00
96.096 376.00
96.1612 372.00
96.2264 394.00
96.2916 388.00
96.3568 400.00
96.422 364.00
96.4872 425.00
96.5524 400.00
96.6176 393.00
96.6828 397.00
96.748 406.00
96.8132 361.00
96.8784 389.00
96.9436 355.00
97.0088 352.00
97.074 359.00
97.1392 375.00
97.2044 415.00
97.2696 369.00
97.3348 353.00
97.4 404.00
97.4652 378.00
97.5304 385.00
97.5956 382.00
97.6608 381.00
97.726 398.00
97.7912 425.00
97.8564 385.00
97.9216 383.00
97.9868 367.00
98.052 393.00
98.1172 344.00
98.1824 348.00
98.2476 350.00
98.3128 354.00
98.378 299.00
98.4432 357.00
98.5084 373.00
98.5736 359.00
98.6388 336.00
98.704 365.00
98.7692 353.00
98.8344 389.00
98.8996 368.00
98.9648 340.00
99.03 347.00
99.0952 353.00
99.1604 365.00
99.2256 371.00
99.2908 345.00
99.356 305.00
99.4212 346.00
99.4864 341.00
99.5516 342.00
99.6168 386.00
99.682 378.00
99.7472 333.00
99.8124 330.00
99.8776 365.00
99.9428 310.00
100.008 325.00
100.073 331.00
100.095 328.00