File: data/xrd_creation/results/NSC_69.xy
9.903433 2780.00
9.968632 2820.00
10.0338 2819.00
10.099 2852.00
10.1642 2821.00
10.2294 2656.00
10.2946 2586.00
10.3598 2715.00
10.425 2599.00
10.4902 2507.00
10.5554 2683.00
10.6206 2591.00
10.6858 2587.00
10.751 2556.00
10.8162 2615.00
10.8814 2404.00
10.9466 2443.00
11.0118 2259.00
11.077 2388.00
11.1422 2329.00
11.2074 2409.00
11.2726 2305.00
11.3378 2320.00
11.403 2274.00
11.4682 2283.00
11.5334 2159.00
11.5986 2300.00
11.6638 2296.00
11.729 2223.00
11.7942 2220.00
11.8594 2198.00
11.9246 2236.00
11.9898 2102.00
12.055 2134.00
12.1202 2124.00
12.1854 2098.00
12.2506 2064.00
12.3158 2056.00
12.381 2038.00
12.4462 2086.00
12.5114 2052.00
12.5766 1969.00
12.6418 2054.00
12.707 1996.00
12.7722 2037.00
12.8374 1904.00
12.9026 1967.00
12.9678 1890.00
13.033 1921.00
13.0982 1981.00
13.1634 1939.00
13.2286 1945.00
13.2938 1955.00
13.359 1945.00
13.4242 1966.00
13.4894 1830.00
13.5546 1939.00
13.6198 1975.00
13.685 1922.00
13.7502 1954.00
13.8154 1907.00
13.8805 1764.00
13.9457 1663.00
14.0109 1736.00
14.0761 1708.00
14.1413 1825.00
14.2065 1755.00
14.2717 1765.00
14.3369 1717.00
14.4021 1768.00
14.4673 1713.00
14.5325 1629.00
14.5977 1726.00
14.6629 1731.00
14.7281 1673.00
14.7933 1609.00
14.8585 1626.00
14.9237 1745.00
14.9889 1661.00
15.0541 1621.00
15.1193 1694.00
15.1845 1648.00
15.2497 1657.00
15.3149 1557.00
15.3801 1611.00
15.4453 1534.00
15.5105 1625.00
15.5757 1586.00
15.6409 1594.00
15.7061 1659.00
15.7713 1587.00
15.8365 1618.00
15.9017 1679.00
15.9669 1664.00
16.0321 1671.00
16.0973 1673.00
16.1625 1794.00
16.2277 1904.00
16.2929 2013.00
16.3581 1842.00
16.4233 1615.00
16.4885 1598.00
16.5537 1517.00
16.6189 1584.00
16.6841 1639.00
16.7493 1622.00
16.8145 1556.00
16.8797 1657.00
16.9449 1735.00
17.0101 1757.00
17.0753 1835.00
17.1405 1690.00
17.2057 1611.00
17.2709 1591.00
17.3361 1525.00
17.4013 1550.00
17.4665 1630.00
17.5317 1537.00
17.5969 1505.00
17.6621 1513.00
17.7273 1452.00
17.7925 1518.00
17.8577 1405.00
17.9229 1461.00
17.9881 1478.00
18.0533 1479.00
18.1185 1469.00
18.1837 1360.00
18.2489 1362.00
18.3141 1380.00
18.3793 1449.00
18.4445 1410.00
18.5097 1394.00
18.5749 1386.00
18.6401 1393.00
18.7052 1385.00
18.7704 1370.00
18.8356 1430.00
18.9008 1566.00
18.966 1611.00
19.0312 1796.00
19.0964 2031.00
19.1616 2097.00
19.2268 2220.00
19.292 2003.00
19.3572 1733.00
19.4224 1628.00
19.4876 1646.00
19.5528 1688.00
19.618 1753.00
19.6832 1878.00
19.7484 1997.00
19.8136 2234.00
19.8788 2418.00
19.944 2414.00
20.0092 2849.00
20.0744 3683.00
20.1396 4656.00
20.2048 5972.00
20.27 7278.00
20.3352 8852.00
20.4004 7867.00
20.4656 4935.00
20.5308 2875.00
20.596 2058.00
20.6612 1887.00
20.7264 1789.00
20.7916 1961.00
20.8568 2210.00
20.922 2513.00
20.9872 3145.00
21.0524 3901.00
21.1176 4759.00
21.1828 4638.00
21.248 3736.00
21.3132 2944.00
21.3784 2117.00
21.4436 1752.00
21.5088 1617.00
21.574 1628.00
21.6392 1638.00
21.7044 1621.00
21.7696 1644.00
21.8348 1583.00
21.9 1424.00
21.9652 1326.00
22.0304 1349.00
22.0956 1280.00
22.1608 1308.00
22.226 1192.00
22.2912 1302.00
22.3564 1175.00
22.4216 1174.00
22.4868 1155.00
22.552 1174.00
22.6172 1220.00
22.6824 1169.00
22.7476 1115.00
22.8128 1167.00
22.878 1185.00
22.9432 1179.00
23.0084 1134.00
23.0736 1241.00
23.1388 1230.00
23.204 1353.00
23.2692 1377.00
23.3344 1345.00
23.3996 1396.00
23.4647 1351.00
23.5299 1312.00
23.5951 1231.00
23.6603 1209.00
23.7255 1250.00
23.7907 1224.00
23.8559 1306.00
23.9211 1452.00
23.9863 1588.00
24.0515 1792.00
24.1167 2042.00
24.1819 2385.00
24.2471 2603.00
24.3123 2598.00
24.3775 2136.00
24.4427 1594.00
24.5079 1346.00
24.5731 1220.00
24.6383 1199.00
24.7035 1058.00
24.7687 1079.00
24.8339 988.00
24.8991 1014.00
24.9643 1084.00
25.0295 1025.00
25.0947 1044.00
25.1599 1001.00
25.2251 1008.00
25.2903 1020.00
25.3555 985.00
25.4207 1028.00
25.4859 1013.00
25.5511 1074.00
25.6163 1045.00
25.6815 1052.00
25.7467 1167.00
25.8119 1161.00
25.8771 1112.00
25.9423 1161.00
26.0075 1223.00
26.0727 1357.00
26.1379 1388.00
26.2031 1560.00
26.2683 1680.00
26.3335 1813.00
26.3987 2019.00
26.4639 2237.00
26.5291 2828.00
26.5943 3677.00
26.6595 4834.00
26.7247 6067.00
26.7899 6663.00
26.8551 6666.00
26.9203 4933.00
26.9855 3142.00
27.0507 1923.00
27.1159 1563.00
27.1811 1361.00
27.2463 1206.00
27.3115 1197.00
27.3767 1169.00
27.4419 1239.00
27.5071 1278.00
27.5723 1382.00
27.6375 1440.00
27.7027 1364.00
27.7679 1193.00
27.8331 1085.00
27.8983 980.00
27.9635 989.00
28.0287 947.00
28.0939 947.00
28.1591 976.00
28.2243 917.00
28.2894 885.00
28.3546 945.00
28.4198 952.00
28.485 882.00
28.5502 979.00
28.6154 987.00
28.6806 951.00
28.7458 977.00
28.811 986.00
28.8762 963.00
28.9414 1049.00
29.0066 1105.00
29.0718 1186.00
29.137 1260.00
29.2022 1326.00
29.2674 1196.00
29.3326 1111.00
29.3978 1013.00
29.463 1150.00
29.5282 1106.00
29.5934 1097.00
29.6586 1194.00
29.7238 1259.00
29.789 1337.00
29.8542 1355.00
29.9194 1260.00
29.9846 1173.00
30.0498 1138.00
30.115 1086.00
30.1802 1190.00
30.2454 1043.00
30.3106 1033.00
30.3758 1026.00
30.441 1124.00
30.5062 1167.00
30.5714 1321.00
30.6366 1428.00
30.7018 1324.00
30.767 1167.00
30.8322 1190.00
30.8974 1119.00
30.9626 1005.00
31.0278 939.00
31.093 937.00
31.1582 955.00
31.2234 969.00
31.2886 1008.00
31.3538 977.00
31.419 961.00
31.4842 820.00
31.5494 895.00
31.6146 879.00
31.6798 854.00
31.745 817.00
31.8102 919.00
31.8754 919.00
31.9406 825.00
32.0058 968.00
32.071 963.00
32.1362 1022.00
32.2014 1057.00
32.2666 1093.00
32.3318 1240.00
32.397 1422.00
32.4622 1577.00
32.5274 1807.00
32.5926 2204.00
32.6578 2402.00
32.723 2607.00
32.7882 2892.00
32.8534 3646.00
32.9186 4481.00
32.9838 5277.00
33.0489 5371.00
33.1141 5198.00
33.1793 5271.00
33.2445 6309.00
33.3097 7871.00
33.3749 9250.00
33.4401 8565.00
33.5053 6156.00
33.5705 3744.00
33.6357 2584.00
33.7009 2220.00
33.7661 2138.00
33.8313 2389.00
33.8965 2816.00
33.9617 3544.00
34.0269 4599.00
34.0921 5686.00
34.1573 5799.00
34.2225 4648.00
34.2877 3639.00
34.3529 3256.00
34.4181 3367.00
34.4833 3623.00
34.5485 4084.00
34.6137 4691.00
34.6789 5258.00
34.7441 5019.00
34.8093 4210.00
34.8745 3144.00
34.9397 2421.00
35.0049 2072.00
35.0701 1850.00
35.1353 1629.00
35.2005 1599.00
35.2657 1650.00
35.3309 1665.00
35.3961 1729.00
35.4613 1853.00
35.5265 1878.00
35.5917 1566.00
35.6569 1483.00
35.7221 1349.00
35.7873 1261.00
35.8525 1263.00
35.9177 1256.00
35.9829 1218.00
36.0481 1184.00
36.1133 1114.00
36.1785 1031.00
36.2437 938.00
36.3089 941.00
36.3741 903.00
36.4393 872.00
36.5045 882.00
36.5697 943.00
36.6349 921.00
36.7001 930.00
36.7653 960.00
36.8305 1095.00
36.8957 1187.00
36.9609 1285.00
37.0261 1458.00
37.0913 1637.00
37.1565 1782.00
37.2217 1708.00
37.2869 1573.00
37.3521 1616.00
37.4173 1678.00
37.4825 1584.00
37.5477 1382.00
37.6129 1161.00
37.6781 1017.00
37.7433 1019.00
37.8085 1001.00
37.8736 1148.00
37.9388 1237.00
38.004 1360.00
38.0692 1431.00
38.1344 1593.00
38.1996 1683.00
38.2648 1745.00
38.33 1508.00
38.3952 1401.00
38.4604 1406.00
38.5256 1470.00
38.5908 1636.00
38.656 1840.00
38.7212 2007.00
38.7864 2065.00
38.8516 1851.00
38.9168 1592.00
38.982 1354.00
39.0472 1320.00
39.1124 1281.00
39.1776 1285.00
39.2428 1295.00
39.308 1206.00
39.3732 1130.00
39.4384 978.00
39.5036 964.00
39.5688 947.00
39.634 926.00
39.6992 912.00
39.7644 851.00
39.8296 891.00
39.8948 883.00
39.96 901.00
40.0252 865.00
40.0904 872.00
40.1556 793.00
40.2208 861.00
40.286 902.00
40.3512 958.00
40.4164 1000.00
40.4816 918.00
40.5468 898.00
40.612 824.00
40.6772 781.00
40.7424 804.00
40.8076 824.00
40.8728 842.00
40.938 899.00
41.0032 960.00
41.0684 982.00
41.1336 1008.00
41.1988 1096.00
41.264 1045.00
41.3292 981.00
41.3944 938.00
41.4596 843.00
41.5248 787.00
41.59 732.00
41.6552 795.00
41.7204 733.00
41.7856 806.00
41.8508 788.00
41.916 729.00
41.9812 784.00
42.0464 719.00
42.1116 735.00
42.1768 789.00
42.242 819.00
42.3072 801.00
42.3724 921.00
42.4376 898.00
42.5028 1061.00
42.568 1096.00
42.6332 1208.00
42.6983 1331.00
42.7635 1518.00
42.8287 1756.00
42.8939 2087.00
42.9591 2567.00
43.0243 3254.00
43.0895 4327.00
43.1547 5223.00
43.2199 4381.00
43.2851 3013.00
43.3503 1873.00
43.4155 1399.00
43.4807 1268.00
43.5459 1216.00
43.6111 1282.00
43.6763 1432.00
43.7415 1513.00
43.8067 1591.00
43.8719 1579.00
43.9371 1541.00
44.0023 1196.00
44.0675 1048.00
44.1327 885.00
44.1979 855.00
44.2631 829.00
44.3283 815.00
44.3935 852.00
44.4587 902.00
44.5239 843.00
44.5891 829.00
44.6543 872.00
44.7195 807.00
44.7847 844.00
44.8499 947.00
44.9151 947.00
44.9803 1027.00
45.0455 1070.00
45.1107 1075.00
45.1759 1024.00
45.2411 988.00
45.3063 938.00
45.3715 881.00
45.4367 869.00
45.5019 813.00
45.5671 808.00
45.6323 815.00
45.6975 866.00
45.7627 795.00
45.8279 894.00
45.8931 918.00
45.9583 968.00
46.0235 916.00
46.0887 941.00
46.1539 918.00
46.2191 900.00
46.2843 860.00
46.3495 783.00
46.4147 726.00
46.4799 720.00
46.5451 697.00
46.6103 702.00
46.6755 741.00
46.7407 703.00
46.8059 727.00
46.8711 799.00
46.9363 724.00
47.0015 755.00
47.0667 759.00
47.1319 904.00
47.1971 922.00
47.2623 1053.00
47.3275 1249.00
47.3927 1419.00
47.4579 1602.00
47.523 1681.00
47.5882 1506.00
47.6534 1341.00
47.7186 1194.00
47.7838 1003.00
47.849 996.00
47.9142 973.00
47.9794 908.00
48.0446 842.00
48.1098 855.00
48.175 864.00
48.2402 880.00
48.3054 803.00
48.3706 738.00
48.4358 728.00
48.501 694.00
48.5662 664.00
48.6314 595.00
48.6966 628.00
48.7618 660.00
48.827 661.00
48.8922 666.00
48.9574 756.00
49.0226 796.00
49.0878 861.00
49.153 866.00
49.2182 1069.00
49.2834 1029.00
49.3486 1170.00
49.4138 1314.00
49.479 1280.00
49.5442 1302.00
49.6094 1284.00
49.6746 1012.00
49.7398 900.00
49.805 833.00
49.8702 822.00
49.9354 819.00
50.0006 908.00
50.0658 927.00
50.131 855.00
50.1962 928.00
50.2614 894.00
50.3266 786.00
50.3918 745.00
50.457 675.00
50.5222 641.00
50.5874 640.00
50.6526 678.00
50.7178 684.00
50.783 715.00
50.8482 636.00
50.9134 613.00
50.9786 567.00
51.0438 596.00
51.109 573.00
51.1742 580.00
51.2394 559.00
51.3046 599.00
51.3698 605.00
51.435 657.00
51.5002 643.00
51.5654 726.00
51.6306 903.00
51.6958 1101.00
51.761 1379.00
51.8262 1781.00
51.8914 2247.00
51.9566 2699.00
52.0218 3204.00
52.087 2852.00
52.1522 2393.00
52.2174 1873.00
52.2826 1507.00
52.3477 1299.00
52.4129 1196.00
52.4781 996.00
52.5433 915.00
52.6085 854.00
52.6737 761.00
52.7389 674.00
52.8041 686.00
52.8693 699.00
52.9345 710.00
52.9997 740.00
53.0649 645.00
53.1301 688.00
53.1953 699.00
53.2605 646.00
53.3257 621.00
53.3909 642.00
53.4561 674.00
53.5213 667.00
53.5865 705.00
53.6517 678.00
53.7169 769.00
53.7821 784.00
53.8473 787.00
53.9125 784.00
53.9777 762.00
54.0429 704.00
54.1081 682.00
54.1733 734.00
54.2385 719.00
54.3037 705.00
54.3689 731.00
54.4341 826.00
54.4993 804.00
54.5645 893.00
54.6297 966.00
54.6949 969.00
54.7601 1008.00
54.8253 1138.00
54.8905 1215.00
54.9557 1277.00
55.0209 1291.00
55.0861 1116.00
55.1513 996.00
55.2165 945.00
55.2817 859.00
55.3469 839.00
55.4121 795.00
55.4773 725.00
55.5425 717.00
55.6077 705.00
55.6729 647.00
55.7381 646.00
55.8033 615.00
55.8685 665.00
55.9337 705.00
55.9989 738.00
56.0641 738.00
56.1293 700.00
56.1945 695.00
56.2597 723.00
56.3249 611.00
56.3901 716.00
56.4553 679.00
56.5205 737.00
56.5857 719.00
56.6509 777.00
56.7161 768.00
56.7813 721.00
56.8465 742.00
56.9117 704.00
56.9769 659.00
57.042 699.00
57.1073 728.00
57.1724 636.00
57.2376 659.00
57.3028 609.00
57.368 674.00
57.4332 681.00
57.4984 732.00
57.5636 664.00
57.6288 658.00
57.694 676.00
57.7592 735.00
57.8244 670.00
57.8896 776.00
57.9548 716.00
58.02 863.00
58.0852 825.00
58.1504 812.00
58.2156 814.00
58.2808 758.00
58.346 819.00
58.4112 759.00
58.4764 801.00
58.5416 741.00
58.6068 751.00
58.672 709.00
58.7372 727.00
58.8024 738.00
58.8676 830.00
58.9328 875.00
58.998 937.00
59.0632 1104.00
59.1284 1205.00
59.1936 1247.00
59.2588 1483.00
59.324 1427.00
59.3892 1497.00
59.4544 1522.00
59.5196 1464.00
59.5848 1399.00
59.65 1329.00
59.7152 1170.00
59.7804 1057.00
59.8456 1004.00
59.9108 945.00
59.976 989.00
60.0412 860.00
60.1064 782.00
60.1716 748.00
60.2368 777.00
60.302 753.00
60.3672 739.00
60.4324 743.00
60.4976 698.00
60.5628 686.00
60.628 652.00
60.6932 640.00
60.7584 629.00
60.8236 655.00
60.8888 677.00
60.954 625.00
61.0192 635.00
61.0844 653.00
61.1496 751.00
61.2148 697.00
61.28 700.00
61.3452 741.00
61.4104 803.00
61.4756 857.00
61.5408 1027.00
61.606 951.00
61.6712 1084.00
61.7364 1117.00
61.8016 1189.00
61.8667 1189.00
61.932 1335.00
61.9971 1460.00
62.0623 1574.00
62.1275 1640.00
62.1927 1663.00
62.2579 1750.00
62.3231 1863.00
62.3883 2133.00
62.4535 2299.00
62.5187 2696.00
62.5839 2336.00
62.6491 1805.00
62.7143 1682.00
62.7795 1169.00
62.8447 922.00
62.9099 871.00
62.9751 915.00
63.0403 864.00
63.1055 912.00
63.1707 878.00
63.2359 783.00
63.3011 783.00
63.3663 696.00
63.4315 738.00
63.4967 663.00
63.5619 681.00
63.6271 628.00
63.6923 631.00
63.7575 659.00
63.8227 689.00
63.8879 664.00
63.9531 666.00
64.0183 640.00
64.0835 577.00
64.1487 568.00
64.2139 573.00
64.2791 542.00
64.3443 592.00
64.4095 534.00
64.4747 596.00
64.5399 657.00
64.6051 597.00
64.6703 676.00
64.7355 735.00
64.8007 802.00
64.8659 893.00
64.9311 971.00
64.9963 1015.00
65.0615 955.00
65.1267 921.00
65.1919 896.00
65.2571 888.00
65.3223 847.00
65.3875 882.00
65.4527 941.00
65.5179 1056.00
65.5831 1073.00
65.6483 1066.00
65.7135 1078.00
65.7787 993.00
65.8439 983.00
65.9091 979.00
65.9743 1053.00
66.0395 1098.00
66.1047 1172.00
66.1699 1148.00
66.2351 1080.00
66.3003 978.00
66.3655 959.00
66.4307 783.00
66.4959 668.00
66.561 680.00
66.6263 567.00
66.6915 555.00
66.7566 508.00
66.8218 495.00
66.887 498.00
66.9522 466.00
67.0174 518.00
67.0826 503.00
67.1478 479.00
67.213 466.00
67.2782 466.00
67.3434 478.00
67.4086 470.00
67.4738 485.00
67.539 457.00
67.6042 470.00
67.6694 502.00
67.7346 468.00
67.7998 435.00
67.865 486.00
67.9302 453.00
67.9954 454.00
68.0606 482.00
68.1258 449.00
68.191 440.00
68.2562 412.00
68.3214 441.00
68.3866 462.00
68.4518 458.00
68.517 425.00
68.5822 448.00
68.6474 441.00
68.7126 412.00
68.7778 427.00
68.843 487.00
68.9082 403.00
68.9734 445.00
69.0386 453.00
69.1038 457.00
69.169 457.00
69.2342 482.00
69.2994 524.00
69.3646 518.00
69.4298 543.00
69.495 632.00
69.5602 616.00
69.6254 675.00
69.6906 674.00
69.7558 783.00
69.821 739.00
69.8862 783.00
69.9514 734.00
70.0166 747.00
70.0818 743.00
70.147 687.00
70.2122 696.00
70.2774 675.00
70.3426 604.00
70.4078 612.00
70.473 537.00
70.5382 515.00
70.6034 419.00
70.6686 478.00
70.7338 422.00
70.799 409.00
70.8642 424.00
70.9294 429.00
70.9946 423.00
71.0598 429.00
71.125 426.00
71.1902 479.00
71.2554 455.00
71.3205 525.00
71.3858 554.00
71.451 635.00
71.5162 611.00
71.5813 585.00
71.6465 532.00
71.7117 565.00
71.7769 486.00
71.8421 478.00
71.9073 478.00
71.9725 486.00
72.0377 460.00
72.1029 484.00
72.1681 450.00
72.2333 428.00
72.2985 455.00
72.3637 513.00
72.4289 492.00
72.4941 494.00
72.5593 500.00
72.6245 555.00
72.6897 545.00
72.7549 541.00
72.8201 601.00
72.8853 633.00
72.9505 604.00
73.0157 611.00
73.0809 647.00
73.1461 565.00
73.2113 660.00
73.2765 618.00
73.3417 562.00
73.4069 556.00
73.4721 527.00
73.5373 506.00
73.6025 500.00
73.6677 429.00
73.7329 406.00
73.7981 443.00
73.8633 404.00
73.9285 390.00
73.9937 406.00
74.0589 444.00
74.1241 412.00
74.1893 448.00
74.2545 448.00
74.3197 459.00
74.3849 493.00
74.4501 471.00
74.5153 477.00
74.5805 551.00
74.6457 491.00
74.7109 605.00
74.7761 608.00
74.8413 691.00
74.9065 669.00
74.9717 597.00
75.0369 557.00
75.1021 556.00
75.1673 525.00
75.2325 502.00
75.2977 472.00
75.3629 471.00
75.4281 464.00
75.4933 507.00
75.5585 470.00
75.6237 460.00
75.6889 479.00
75.7541 497.00
75.8193 479.00
75.8845 468.00
75.9497 521.00
76.0149 490.00
76.0801 527.00
76.1452 472.00
76.2104 507.00
76.2756 493.00
76.3409 504.00
76.406 505.00
76.4712 491.00
76.5364 481.00
76.6016 448.00
76.6668 441.00
76.732 434.00
76.7972 449.00
76.8624 468.00
76.9276 454.00
76.9928 430.00
77.058 436.00
77.1232 408.00
77.1884 434.00
77.2536 438.00
77.3188 429.00
77.384 469.00
77.4492 415.00
77.5144 412.00
77.5796 437.00
77.6448 415.00
77.71 411.00
77.7752 429.00
77.8404 383.00
77.9056 415.00
77.9708 427.00
78.036 392.00
78.1012 434.00
78.1664 475.00
78.2316 457.00
78.2968 504.00
78.362 503.00
78.4272 523.00
78.4924 530.00
78.5576 626.00
78.6228 754.00
78.688 830.00
78.7532 1036.00
78.8184 1177.00
78.8836 1121.00
78.9488 1007.00
79.014 990.00
79.0792 943.00
79.1444 831.00
79.2096 712.00
79.2748 635.00
79.34 592.00
79.4052 579.00
79.4704 549.00
79.5356 476.00
79.6008 455.00
79.666 496.00
79.7312 394.00
79.7964 422.00
79.8616 416.00
79.9268 428.00
79.992 417.00
80.0572 420.00
80.1224 412.00
80.1876 436.00
80.2528 380.00
80.318 376.00
80.3832 394.00
80.4484 393.00
80.5136 381.00
80.5788 372.00
80.644 392.00
80.7092 396.00
80.7744 412.00
80.8396 415.00
80.9048 439.00
80.9699 400.00
81.0351 419.00
81.1003 401.00
81.1655 457.00
81.2307 475.00
81.2959 485.00
81.3611 520.00
81.4263 499.00
81.4915 477.00
81.5567 540.00
81.6219 499.00
81.6871 457.00
81.7523 419.00
81.8175 481.00
81.8827 443.00
81.9479 394.00
82.0131 387.00
82.0783 392.00
82.1435 404.00
82.2087 424.00
82.2739 405.00
82.3391 439.00
82.4043 441.00
82.4695 453.00
82.5347 529.00
82.5999 556.00
82.6651 592.00
82.7303 600.00
82.7955 539.00
82.8607 585.00
82.9259 525.00
82.9911 507.00
83.0563 535.00
83.1215 540.00
83.1867 465.00
83.2519 461.00
83.3171 499.00
83.3823 484.00
83.4475 514.00
83.5127 520.00
83.5779 514.00
83.6431 565.00
83.7083 599.00
83.7735 626.00
83.8387 679.00
83.9039 687.00
83.9691 699.00
84.0343 656.00
84.0995 613.00
84.1647 617.00
84.2299 564.00
84.2951 540.00
84.3603 479.00
84.4255 476.00
84.4907 468.00
84.5559 442.00
84.6211 508.00
84.6863 464.00
84.7515 479.00
84.8167 523.00
84.8819 476.00
84.9471 514.00
85.0123 493.00
85.0775 457.00
85.1427 505.00
85.2079 490.00
85.2731 468.00
85.3383 438.00
85.4035 410.00
85.4687 431.00
85.5339 429.00
85.5991 403.00
85.6643 388.00
85.7295 402.00
85.7946 409.00
85.8598 432.00
85.925 428.00
85.9903 402.00
86.0554 399.00
86.1206 424.00
86.1858 422.00
86.251 409.00
86.3162 427.00
86.3814 410.00
86.4466 409.00
86.5118 446.00
86.577 394.00
86.6422 468.00
86.7074 468.00
86.7726 447.00
86.8378 454.00
86.903 445.00
86.9682 462.00
87.0334 475.00
87.0986 449.00
87.1638 454.00
87.229 447.00
87.2942 471.00
87.3594 523.00
87.4246 530.00
87.4898 520.00
87.555 521.00
87.6202 492.00
87.6854 460.00
87.7506 464.00
87.8158 430.00
87.881 379.00
87.9462 445.00
88.0114 409.00
88.0766 384.00
88.1418 397.00
88.207 401.00
88.2722 424.00
88.3374 463.00
88.4026 432.00
88.4678 413.00
88.533 426.00
88.5982 450.00
88.6634 393.00
88.7286 410.00
88.7938 416.00
88.859 408.00
88.9242 423.00
88.9894 419.00
89.0546 362.00
89.1198 405.00
89.185 435.00
89.2502 391.00
89.3154 354.00
89.3806 415.00
89.4458 411.00
89.511 394.00
89.5762 439.00
89.6414 439.00
89.7066 428.00
89.7718 497.00
89.837 493.00
89.9022 559.00
89.9674 601.00
90.0326 576.00
90.0978 517.00
90.163 497.00
90.2282 500.00
90.2934 478.00
90.3586 512.00
90.4238 444.00
90.489 491.00
90.5542 437.00
90.6193 423.00
90.6845 450.00
90.7497 449.00
90.8149 469.00
90.8801 446.00
90.9453 574.00
91.0105 608.00
91.0757 591.00
91.1409 645.00
91.2061 569.00
91.2713 550.00
91.3365 528.00
91.4017 532.00
91.4669 488.00
91.5321 395.00
91.5973 425.00
91.6625 446.00
91.7277 418.00
91.7929 403.00
91.8581 447.00
91.9233 419.00
91.9885 477.00
92.0537 485.00
92.1189 425.00
92.1841 463.00
92.2493 378.00
92.3145 420.00
92.3797 400.00
92.4449 375.00
92.5101 407.00
92.5753 357.00
92.6405 397.00
92.7057 356.00
92.7709 440.00
92.8361 416.00
92.9013 417.00
92.9665 412.00
93.0317 418.00
93.0969 425.00
93.1621 450.00
93.2273 459.00
93.2925 440.00
93.3577 482.00
93.4229 488.00
93.4881 454.00
93.5533 506.00
93.6185 480.00
93.6837 512.00
93.7489 466.00
93.8141 454.00
93.8793 507.00
93.9445 494.00
94.0097 486.00
94.0749 531.00
94.1401 552.00
94.2053 605.00
94.2705 585.00
94.3357 534.00
94.4009 514.00
94.4661 510.00
94.5313 466.00
94.5965 510.00
94.6617 449.00
94.7269 416.00
94.7921 432.00
94.8573 415.00
94.9225 421.00
94.9877 404.00
95.0529 439.00
95.1181 412.00
95.1833 418.00
95.2485 360.00
95.3137 388.00
95.3789 387.00
95.444 418.00
95.5092 399.00
95.5744 372.00
95.6396 406.00
95.7048 401.00
95.77 372.00
95.8352 395.00
95.9004 417.00
95.9656 428.00
96.0308 462.00
96.096 411.00
96.1612 487.00
96.2264 491.00
96.2916 404.00
96.3568 421.00
96.422 448.00
96.4872 377.00
96.5524 444.00
96.6176 414.00
96.6828 377.00
96.748 376.00
96.8132 410.00
96.8784 406.00
96.9436 403.00
97.0088 395.00
97.074 390.00
97.1392 361.00
97.2044 375.00
97.2696 389.00
97.3348 421.00
97.4 369.00
97.4652 421.00
97.5304 363.00
97.5956 402.00
97.6608 432.00
97.726 398.00
97.7912 411.00
97.8564 470.00
97.9216 450.00
97.9868 476.00
98.052 448.00
98.1172 517.00
98.1824 523.00
98.2476 571.00
98.3128 548.00
98.378 521.00
98.4432 586.00
98.5084 515.00
98.5736 566.00
98.6388 546.00
98.704 504.00
98.7692 496.00
98.8344 463.00
98.8996 466.00
98.9648 463.00
99.03 424.00
99.0952 457.00
99.1604 469.00
99.2256 476.00
99.2908 493.00
99.356 427.00
99.4212 425.00
99.4864 405.00
99.5516 425.00
99.6168 416.00
99.682 399.00
99.7472 402.00
99.8124 412.00
99.8776 401.00
99.9428 388.00
100.008 375.00
100.073 364.00
100.095 391.00