File: data/xrd_creation/results/NSC_129.xy
9.903433 2782.00
9.968632 2712.00
10.0338 2770.00
10.099 2691.00
10.1642 2655.00
10.2294 2720.00
10.2946 2689.00
10.3598 2615.00
10.425 2598.00
10.4902 2614.00
10.5554 2522.00
10.6206 2514.00
10.6858 2613.00
10.751 2437.00
10.8162 2532.00
10.8814 2528.00
10.9466 2503.00
11.0118 2422.00
11.077 2442.00
11.1422 2437.00
11.2074 2440.00
11.2726 2329.00
11.3378 2344.00
11.403 2335.00
11.4682 2301.00
11.5334 2317.00
11.5986 2351.00
11.6638 2295.00
11.729 2369.00
11.7942 2303.00
11.8594 2296.00
11.9246 2243.00
11.9898 2280.00
12.055 2217.00
12.1202 2151.00
12.1854 2222.00
12.2506 2116.00
12.3158 2233.00
12.381 2249.00
12.4462 2170.00
12.5114 2133.00
12.5766 2107.00
12.6418 2103.00
12.707 2197.00
12.7722 2166.00
12.8374 2045.00
12.9026 2098.00
12.9678 2139.00
13.033 2075.00
13.0982 2127.00
13.1634 2048.00
13.2286 2004.00
13.2938 2121.00
13.359 2029.00
13.4242 2043.00
13.4894 2035.00
13.5546 2020.00
13.6198 1991.00
13.685 2028.00
13.7502 2047.00
13.8154 1992.00
13.8805 2072.00
13.9457 1873.00
14.0109 2029.00
14.0761 2034.00
14.1413 2131.00
14.2065 2163.00
14.2717 2196.00
14.3369 2385.00
14.4021 2668.00
14.4673 2913.00
14.5325 3182.00
14.5977 2721.00
14.6629 2295.00
14.7281 2429.00
14.7933 2513.00
14.8585 2920.00
14.9237 3357.00
14.9889 3504.00
15.0541 3397.00
15.1193 3100.00
15.1845 2672.00
15.2497 2245.00
15.3149 2149.00
15.3801 1927.00
15.4453 1932.00
15.5105 1979.00
15.5757 1913.00
15.6409 1906.00
15.7061 1863.00
15.7713 1943.00
15.8365 1865.00
15.9017 1864.00
15.9669 1984.00
16.0321 1940.00
16.0973 1810.00
16.1625 1860.00
16.2277 1841.00
16.2929 1813.00
16.3581 1864.00
16.4233 1812.00
16.4885 1791.00
16.5537 1825.00
16.6189 1860.00
16.6841 1865.00
16.7493 1837.00
16.8145 1805.00
16.8797 1780.00
16.9449 1885.00
17.0101 1877.00
17.0753 1810.00
17.1405 1779.00
17.2057 1822.00
17.2709 1734.00
17.3361 1795.00
17.4013 1738.00
17.4665 1735.00
17.5317 1717.00
17.5969 1776.00
17.6621 1789.00
17.7273 1798.00
17.7925 1642.00
17.8577 1773.00
17.9229 1780.00
17.9881 1749.00
18.0533 1784.00
18.1185 1795.00
18.1837 1788.00
18.2489 1814.00
18.3141 1771.00
18.3793 1814.00
18.4445 1827.00
18.5097 1799.00
18.5749 1947.00
18.6401 1979.00
18.7052 2120.00
18.7704 2423.00
18.8356 2743.00
18.9008 3302.00
18.966 3650.00
19.0312 2743.00
19.0964 2136.00
19.1616 1782.00
19.2268 1764.00
19.292 1752.00
19.3572 1707.00
19.4224 1719.00
19.4876 1814.00
19.5528 1769.00
19.618 1814.00
19.6832 1795.00
19.7484 2045.00
19.8136 2194.00
19.8788 2450.00
19.944 2965.00
20.0092 3665.00
20.0744 4105.00
20.1396 3968.00
20.2048 3214.00
20.27 2535.00
20.3352 2347.00
20.4004 2523.00
20.4656 2800.00
20.5308 3629.00
20.596 4692.00
20.6612 6360.00
20.7264 8091.00
20.7916 8426.00
20.8568 6568.00
20.922 4447.00
20.9872 3098.00
21.0524 2466.00
21.1176 2395.00
21.1828 2233.00
21.248 2556.00
21.3132 2953.00
21.3784 3529.00
21.4436 3916.00
21.5088 4511.00
21.574 4788.00
21.6392 5336.00
21.7044 6239.00
21.7696 7991.00
21.8348 10259.00
21.9 9957.00
21.9652 6216.00
22.0304 3550.00
22.0956 2567.00
22.1608 2182.00
22.226 2058.00
22.2912 1864.00
22.3564 1774.00
22.4216 1731.00
22.4868 1671.00
22.552 1674.00
22.6172 1775.00
22.6824 1650.00
22.7476 1620.00
22.8128 1665.00
22.878 1542.00
22.9432 1621.00
23.0084 1681.00
23.0736 1719.00
23.1388 1701.00
23.204 1631.00
23.2692 1678.00
23.3344 1695.00
23.3996 1637.00
23.4647 1660.00
23.5299 1630.00
23.5951 1652.00
23.6603 1754.00
23.7255 1960.00
23.7907 2283.00
23.8559 2567.00
23.9211 3331.00
23.9863 3944.00
24.0515 4162.00
24.1167 3345.00
24.1819 2763.00
24.2471 2600.00
24.3123 2906.00
24.3775 3737.00
24.4427 4417.00
24.5079 4089.00
24.5731 3333.00
24.6383 3121.00
24.7035 3750.00
24.7687 4451.00
24.8339 5024.00
24.8991 5046.00
24.9643 4864.00
25.0295 4727.00
25.0947 4180.00
25.1599 3775.00
25.2251 3267.00
25.2903 2647.00
25.3555 2339.00
25.4207 1956.00
25.4859 1879.00
25.5511 1707.00
25.6163 1630.00
25.6815 1601.00
25.7467 1559.00
25.8119 1629.00
25.8771 1607.00
25.9423 1598.00
26.0075 1564.00
26.0727 1573.00
26.1379 1678.00
26.2031 1576.00
26.2683 1604.00
26.3335 1666.00
26.3987 1657.00
26.4639 1700.00
26.5291 1802.00
26.5943 2117.00
26.6595 2444.00
26.7247 3244.00
26.7899 3880.00
26.8551 3267.00
26.9203 2398.00
26.9855 1983.00
27.0507 1764.00
27.1159 1572.00
27.1811 1585.00
27.2463 1443.00
27.3115 1504.00
27.3767 1528.00
27.4419 1507.00
27.5071 1548.00
27.5723 1496.00
27.6375 1452.00
27.7027 1416.00
27.7679 1430.00
27.8331 1539.00
27.8983 1521.00
27.9635 1529.00
28.0287 1621.00
28.0939 1572.00
28.1591 1485.00
28.2243 1446.00
28.2894 1482.00
28.3546 1394.00
28.4198 1486.00
28.485 1486.00
28.5502 1574.00
28.6154 1734.00
28.6806 1909.00
28.7458 2282.00
28.811 2770.00
28.8762 3303.00
28.9414 3318.00
29.0066 3019.00
29.0718 2349.00
29.137 1974.00
29.2022 1659.00
29.2674 1589.00
29.3326 1583.00
29.3978 1628.00
29.463 1751.00
29.5282 1721.00
29.5934 1897.00
29.6586 2025.00
29.7238 2501.00
29.789 2802.00
29.8542 3372.00
29.9194 3587.00
29.9846 3923.00
30.0498 3837.00
30.115 3617.00
30.1802 3338.00
30.2454 3037.00
30.3106 2650.00
30.3758 2377.00
30.441 2099.00
30.5062 1947.00
30.5714 1948.00
30.6366 1849.00
30.7018 1826.00
30.767 1877.00
30.8322 2211.00
30.8974 2915.00
30.9626 3553.00
31.0278 3450.00
31.093 2661.00
31.1582 1960.00
31.2234 1691.00
31.2886 1551.00
31.3538 1522.00
31.419 1547.00
31.4842 1512.00
31.5494 1585.00
31.6146 1556.00
31.6798 1777.00
31.745 2005.00
31.8102 2292.00
31.8754 2737.00
31.9406 2918.00
32.0058 2910.00
32.071 2705.00
32.1362 2319.00
32.2014 1875.00
32.2666 1694.00
32.3318 1633.00
32.397 1553.00
32.4622 1576.00
32.5274 1580.00
32.5926 1652.00
32.6578 1809.00
32.723 2010.00
32.7882 2280.00
32.8534 2708.00
32.9186 3245.00
32.9838 3755.00
33.0489 4295.00
33.1141 4560.00
33.1793 4207.00
33.2445 3918.00
33.3097 3508.00
33.3749 2865.00
33.4401 2341.00
33.5053 2115.00
33.5705 1992.00
33.6357 1830.00
33.7009 1659.00
33.7661 1818.00
33.8313 1838.00
33.8965 1888.00
33.9617 1738.00
34.0269 1568.00
34.0921 1434.00
34.1573 1388.00
34.2225 1470.00
34.2877 1409.00
34.3529 1434.00
34.4181 1399.00
34.4833 1466.00
34.5485 1457.00
34.6137 1496.00
34.6789 1375.00
34.7441 1299.00
34.8093 1370.00
34.8745 1390.00
34.9397 1354.00
35.0049 1317.00
35.0701 1360.00
35.1353 1289.00
35.2005 1285.00
35.2657 1376.00
35.3309 1376.00
35.3961 1450.00
35.4613 1544.00
35.5265 1762.00
35.5917 2031.00
35.6569 2313.00
35.7221 2397.00
35.7873 2254.00
35.8525 2185.00
35.9177 2280.00
35.9829 2252.00
36.0481 2578.00
36.1133 2746.00
36.1785 2500.00
36.2437 2464.00
36.3089 3056.00
36.3741 4008.00
36.4393 4899.00
36.5045 4338.00
36.5697 3225.00
36.6349 2355.00
36.7001 1889.00
36.7653 1774.00
36.8305 1654.00
36.8957 1821.00
36.9609 1860.00
37.0261 2041.00
37.0913 2013.00
37.1565 2033.00
37.2217 2151.00
37.2869 2264.00
37.3521 2151.00
37.4173 2238.00
37.4825 2476.00
37.5477 2583.00
37.6129 2548.00
37.6781 2276.00
37.7433 2041.00
37.8085 1910.00
37.8736 1891.00
37.9388 1980.00
38.004 2086.00
38.0692 2119.00
38.1344 2181.00
38.1996 2047.00
38.2648 1797.00
38.33 1521.00
38.3952 1483.00
38.4604 1473.00
38.5256 1346.00
38.5908 1348.00
38.656 1352.00
38.7212 1280.00
38.7864 1297.00
38.8516 1318.00
38.9168 1265.00
38.982 1215.00
39.0472 1329.00
39.1124 1262.00
39.1776 1201.00
39.2428 1300.00
39.308 1294.00
39.3732 1243.00
39.4384 1240.00
39.5036 1307.00
39.5688 1400.00
39.634 1470.00
39.6992 1599.00
39.7644 1633.00
39.8296 1436.00
39.8948 1431.00
39.96 1423.00
40.0252 1369.00
40.0904 1403.00
40.1556 1352.00
40.2208 1332.00
40.286 1338.00
40.3512 1444.00
40.4164 1379.00
40.4816 1431.00
40.5468 1308.00
40.612 1419.00
40.6772 1309.00
40.7424 1275.00
40.8076 1304.00
40.8728 1354.00
40.938 1287.00
41.0032 1303.00
41.0684 1357.00
41.1336 1269.00
41.1988 1291.00
41.264 1291.00
41.3292 1200.00
41.3944 1215.00
41.4596 1259.00
41.5248 1223.00
41.59 1268.00
41.6552 1438.00
41.7204 1506.00
41.7856 1555.00
41.8508 1578.00
41.916 1646.00
41.9812 1614.00
42.0464 1562.00
42.1116 1544.00
42.1768 1547.00
42.242 1548.00
42.3072 1425.00
42.3724 1376.00
42.4376 1368.00
42.5028 1321.00
42.568 1414.00
42.6332 1290.00
42.6983 1324.00
42.7635 1221.00
42.8287 1298.00
42.8939 1236.00
42.9591 1308.00
43.0243 1202.00
43.0895 1330.00
43.1547 1350.00
43.2199 1276.00
43.2851 1274.00
43.3503 1370.00
43.4155 1595.00
43.4807 1650.00
43.5459 2141.00
43.6111 2482.00
43.6763 2296.00
43.7415 2105.00
43.8067 1896.00
43.8719 1770.00
43.9371 1672.00
44.0023 1588.00
44.0675 1574.00
44.1327 1606.00
44.1979 1567.00
44.2631 1628.00
44.3283 1562.00
44.3935 1473.00
44.4587 1411.00
44.5239 1432.00
44.5891 1402.00
44.6543 1410.00
44.7195 1365.00
44.7847 1219.00
44.8499 1349.00
44.9151 1309.00
44.9803 1366.00
45.0455 1322.00
45.1107 1326.00
45.1759 1404.00
45.2411 1371.00
45.3063 1486.00
45.3715 1424.00
45.4367 1583.00
45.5019 1627.00
45.5671 1800.00
45.6323 2018.00
45.6975 2031.00
45.7627 1980.00
45.8279 1934.00
45.8931 1829.00
45.9583 1847.00
46.0235 1641.00
46.0887 1551.00
46.1539 1431.00
46.2191 1428.00
46.2843 1406.00
46.3495 1363.00
46.4147 1373.00
46.4799 1409.00
46.5451 1447.00
46.6103 1517.00
46.6755 1597.00
46.7407 1641.00
46.8059 1672.00
46.8711 1749.00
46.9363 1772.00
47.0015 1723.00
47.0667 1662.00
47.1319 1585.00
47.1971 1559.00
47.2623 1666.00
47.3275 1683.00
47.3927 1874.00
47.4579 1933.00
47.523 1916.00
47.5882 1966.00
47.6534 1915.00
47.7186 1720.00
47.7838 1826.00
47.849 1698.00
47.9142 1635.00
47.9794 1553.00
48.0446 1561.00
48.1098 1555.00
48.175 1611.00
48.2402 1759.00
48.3054 2054.00
48.3706 2314.00
48.4358 2319.00
48.501 2336.00
48.5662 2162.00
48.6314 2134.00
48.6966 1960.00
48.7618 1932.00
48.827 2048.00
48.8922 2000.00
48.9574 1955.00
49.0226 1874.00
49.0878 1822.00
49.153 1841.00
49.2182 1804.00
49.2834 1894.00
49.3486 1882.00
49.4138 1839.00
49.479 1818.00
49.5442 1989.00
49.6094 2156.00
49.6746 2606.00
49.7398 2843.00
49.805 2721.00
49.8702 2229.00
49.9354 2066.00
50.0006 1691.00
50.0658 1506.00
50.131 1361.00
50.1962 1382.00
50.2614 1442.00
50.3266 1461.00
50.3918 1529.00
50.457 1641.00
50.5222 1648.00
50.5874 1726.00
50.6526 1773.00
50.7178 1673.00
50.783 1703.00
50.8482 1778.00
50.9134 1729.00
50.9786 1876.00
51.0438 1735.00
51.109 1806.00
51.1742 1745.00
51.2394 1775.00
51.3046 1635.00
51.3698 1572.00
51.435 1505.00
51.5002 1466.00
51.5654 1410.00
51.6306 1485.00
51.6958 1410.00
51.761 1371.00
51.8262 1446.00
51.8914 1411.00
51.9566 1467.00
52.0218 1391.00
52.087 1406.00
52.1522 1594.00
52.2174 1625.00
52.2826 1656.00
52.3477 1693.00
52.4129 1651.00
52.4781 1627.00
52.5433 1561.00
52.6085 1499.00
52.6737 1472.00
52.7389 1467.00
52.8041 1410.00
52.8693 1361.00
52.9345 1330.00
52.9997 1367.00
53.0649 1275.00
53.1301 1335.00
53.1953 1328.00
53.2605 1335.00
53.3257 1252.00
53.3909 1260.00
53.4561 1302.00
53.5213 1343.00
53.5865 1270.00
53.6517 1309.00
53.7169 1340.00
53.7821 1385.00
53.8473 1428.00
53.9125 1455.00
53.9777 1620.00
54.0429 1648.00
54.1081 1671.00
54.1733 1837.00
54.2385 1912.00
54.3037 1945.00
54.3689 1975.00
54.4341 1833.00
54.4993 1826.00
54.5645 1773.00
54.6297 1937.00
54.6949 2032.00
54.7601 2268.00
54.8253 2498.00
54.8905 2469.00
54.9557 2139.00
55.0209 2152.00
55.0861 2142.00
55.1513 1995.00
55.2165 1817.00
55.2817 1753.00
55.3469 1564.00
55.4121 1436.00
55.4773 1462.00
55.5425 1457.00
55.6077 1438.00
55.6729 1496.00
55.7381 1356.00
55.8033 1439.00
55.8685 1538.00
55.9337 1542.00
55.9989 1553.00
56.0641 1672.00
56.1293 1699.00
56.1945 1753.00
56.2597 1775.00
56.3249 1735.00
56.3901 1728.00
56.4553 1682.00
56.5205 1559.00
56.5857 1531.00
56.6509 1363.00
56.7161 1412.00
56.7813 1345.00
56.8465 1342.00
56.9117 1325.00
56.9769 1260.00
57.042 1341.00
57.1073 1342.00
57.1724 1423.00
57.2376 1425.00
57.3028 1426.00
57.368 1458.00
57.4332 1489.00
57.4984 1510.00
57.5636 1492.00
57.6288 1497.00
57.694 1655.00
57.7592 1691.00
57.8244 1652.00
57.8896 1689.00
57.9548 1598.00
58.02 1693.00
58.0852 1679.00
58.1504 1804.00
58.2156 1938.00
58.2808 2221.00
58.346 2656.00
58.4112 2975.00
58.4764 2861.00
58.5416 2760.00
58.6068 2601.00
58.672 2403.00
58.7372 2075.00
58.8024 1942.00
58.8676 1909.00
58.9328 1741.00
58.998 1835.00
59.0632 1746.00
59.1284 1695.00
59.1936 1648.00
59.2588 1692.00
59.324 1617.00
59.3892 1648.00
59.4544 1768.00
59.5196 1643.00
59.5848 1601.00
59.65 1597.00
59.7152 1554.00
59.7804 1546.00
59.8456 1433.00
59.9108 1341.00
59.976 1397.00
60.0412 1367.00
60.1064 1274.00
60.1716 1361.00
60.2368 1320.00
60.302 1278.00
60.3672 1320.00
60.4324 1294.00
60.4976 1276.00
60.5628 1280.00
60.628 1326.00
60.6932 1439.00
60.7584 1402.00
60.8236 1484.00
60.8888 1419.00
60.954 1448.00
61.0192 1435.00
61.0844 1532.00
61.1496 1429.00
61.2148 1527.00
61.28 1470.00
61.3452 1502.00
61.4104 1468.00
61.4756 1455.00
61.5408 1446.00
61.606 1452.00
61.6712 1459.00
61.7364 1422.00
61.8016 1441.00
61.8667 1423.00
61.932 1497.00
61.9971 1518.00
62.0623 1573.00
62.1275 1424.00
62.1927 1387.00
62.2579 1411.00
62.3231 1415.00
62.3883 1319.00
62.4535 1393.00
62.5187 1325.00
62.5839 1247.00
62.6491 1350.00
62.7143 1249.00
62.7795 1358.00
62.8447 1374.00
62.9099 1320.00
62.9751 1358.00
63.0403 1450.00
63.1055 1621.00
63.1707 1770.00
63.2359 1818.00
63.3011 1848.00
63.3663 1860.00
63.4315 1929.00
63.4967 1759.00
63.5619 1821.00
63.6271 1820.00
63.6923 1796.00
63.7575 1721.00
63.8227 1778.00
63.8879 1728.00
63.9531 1737.00
64.0183 1676.00
64.0835 1896.00
64.1487 1885.00
64.2139 1965.00
64.2791 1728.00
64.3443 1788.00
64.4095 1713.00
64.4747 1751.00
64.5399 1644.00
64.6051 1559.00
64.6703 1501.00
64.7355 1522.00
64.8007 1578.00
64.8659 1491.00
64.9311 1462.00
64.9963 1472.00
65.0615 1586.00
65.1267 1527.00
65.1919 1546.00
65.2571 1642.00
65.3223 1616.00
65.3875 1562.00
65.4527 1512.00
65.5179 1555.00
65.5831 1584.00
65.6483 1565.00
65.7135 1523.00
65.7787 1589.00
65.8439 1576.00
65.9091 1547.00
65.9743 1500.00
66.0395 1500.00
66.1047 1464.00
66.1699 1424.00
66.2351 1387.00
66.3003 1434.00
66.3655 1345.00
66.4307 1305.00
66.4959 1232.00
66.561 1269.00
66.6263 1354.00
66.6915 1296.00
66.7566 1340.00
66.8218 1289.00
66.887 1312.00
66.9522 1356.00
67.0174 1412.00
67.0826 1451.00
67.1478 1431.00
67.213 1514.00
67.2782 1662.00
67.3434 1666.00
67.4086 1788.00
67.4738 1863.00
67.539 1824.00
67.6042 1756.00
67.6694 1691.00
67.7346 1513.00
67.7998 1561.00
67.865 1536.00
67.9302 1537.00
67.9954 1447.00
68.0606 1521.00
68.1258 1548.00
68.191 1443.00
68.2562 1523.00
68.3214 1486.00
68.3866 1556.00
68.4518 1705.00
68.517 1777.00
68.5822 1713.00
68.6474 1733.00
68.7126 1695.00
68.7778 1557.00
68.843 1529.00
68.9082 1486.00
68.9734 1517.00
69.0386 1461.00
69.1038 1479.00
69.169 1425.00
69.2342 1430.00
69.2994 1303.00
69.3646 1256.00
69.4298 1288.00
69.495 1270.00
69.5602 1239.00
69.6254 1327.00
69.6906 1311.00
69.7558 1285.00
69.821 1414.00
69.8862 1315.00
69.9514 1445.00
70.0166 1396.00
70.0818 1441.00
70.147 1416.00
70.2122 1411.00
70.2774 1408.00
70.3426 1399.00
70.4078 1411.00
70.473 1315.00
70.5382 1293.00
70.6034 1334.00
70.6686 1358.00
70.7338 1323.00
70.799 1318.00
70.8642 1316.00
70.9294 1204.00
70.9946 1279.00
71.0598 1235.00
71.125 1223.00
71.1902 1227.00
71.2554 1316.00
71.3205 1235.00
71.3858 1227.00
71.451 1205.00
71.5162 1247.00
71.5813 1217.00
71.6465 1286.00
71.7117 1193.00
71.7769 1322.00
71.8421 1347.00
71.9073 1293.00
71.9725 1260.00
72.0377 1293.00
72.1029 1358.00
72.1681 1488.00
72.2333 1373.00
72.2985 1359.00
72.3637 1428.00
72.4289 1356.00
72.4941 1276.00
72.5593 1326.00
72.6245 1341.00
72.6897 1405.00
72.7549 1276.00
72.8201 1323.00
72.8853 1444.00
72.9505 1349.00
73.0157 1327.00
73.0809 1239.00
73.1461 1238.00
73.2113 1290.00
73.2765 1264.00
73.3417 1249.00
73.4069 1232.00
73.4721 1173.00
73.5373 1231.00
73.6025 1152.00
73.6677 1185.00
73.7329 1151.00
73.7981 1285.00
73.8633 1271.00
73.9285 1181.00
73.9937 1188.00
74.0589 1181.00
74.1241 1208.00
74.1893 1224.00
74.2545 1171.00
74.3197 1110.00
74.3849 1179.00
74.4501 1172.00
74.5153 1130.00
74.5805 1204.00
74.6457 1190.00
74.7109 1199.00
74.7761 1220.00
74.8413 1276.00
74.9065 1328.00
74.9717 1305.00
75.0369 1353.00
75.1021 1320.00
75.1673 1378.00
75.2325 1256.00
75.2977 1373.00
75.3629 1319.00
75.4281 1354.00
75.4933 1339.00
75.5585 1254.00
75.6237 1451.00
75.6889 1450.00
75.7541 1532.00
75.8193 1505.00
75.8845 1460.00
75.9497 1522.00
76.0149 1483.00
76.0801 1464.00
76.1452 1395.00
76.2104 1414.00
76.2756 1365.00
76.3409 1262.00
76.406 1372.00
76.4712 1332.00
76.5364 1311.00
76.6016 1310.00
76.6668 1331.00
76.732 1369.00
76.7972 1353.00
76.8624 1340.00
76.9276 1471.00
76.9928 1440.00
77.058 1336.00
77.1232 1360.00
77.1884 1346.00
77.2536 1246.00
77.3188 1242.00
77.384 1274.00
77.4492 1207.00
77.5144 1311.00
77.5796 1158.00
77.6448 1187.00
77.71 1158.00
77.7752 1256.00
77.8404 1370.00
77.9056 1278.00
77.9708 1197.00
78.036 1191.00
78.1012 1340.00
78.1664 1272.00
78.2316 1318.00
78.2968 1337.00
78.362 1305.00
78.4272 1290.00
78.4924 1228.00
78.5576 1230.00
78.6228 1201.00
78.688 1210.00
78.7532 1264.00
78.8184 1209.00
78.8836 1293.00
78.9488 1258.00
79.014 1274.00
79.0792 1208.00
79.1444 1306.00
79.2096 1264.00
79.2748 1237.00
79.34 1379.00
79.4052 1198.00
79.4704 1299.00
79.5356 1340.00
79.6008 1454.00
79.666 1403.00
79.7312 1406.00
79.7964 1321.00
79.8616 1322.00
79.9268 1394.00
79.992 1343.00
80.0572 1400.00
80.1224 1321.00
80.1876 1219.00
80.2528 1359.00
80.318 1259.00
80.3832 1306.00
80.4484 1269.00
80.5136 1285.00
80.5788 1196.00
80.644 1209.00
80.7092 1279.00
80.7744 1175.00
80.8396 1217.00
80.9048 1268.00
80.9699 1232.00
81.0351 1206.00
81.1003 1263.00
81.1655 1250.00
81.2307 1143.00
81.2959 1203.00
81.3611 1208.00
81.4263 1244.00
81.4915 1161.00
81.5567 1206.00
81.6219 1081.00
81.6871 1191.00
81.7523 1188.00
81.8175 1214.00
81.8827 1173.00
81.9479 1216.00
82.0131 1213.00
82.0783 1223.00
82.1435 1231.00
82.2087 1192.00
82.2739 1262.00
82.3391 1291.00
82.4043 1227.00
82.4695 1181.00
82.5347 1192.00
82.5999 1208.00
82.6651 1229.00
82.7303 1284.00
82.7955 1242.00
82.8607 1186.00
82.9259 1165.00
82.9911 1206.00
83.0563 1182.00
83.1215 1198.00
83.1867 1243.00
83.2519 1321.00
83.3171 1227.00
83.3823 1250.00
83.4475 1215.00
83.5127 1204.00
83.5779 1247.00
83.6431 1297.00
83.7083 1281.00
83.7735 1282.00
83.8387 1275.00
83.9039 1258.00
83.9691 1341.00
84.0343 1242.00
84.0995 1343.00
84.1647 1238.00
84.2299 1288.00
84.2951 1302.00
84.3603 1280.00
84.4255 1309.00
84.4907 1301.00
84.5559 1221.00
84.6211 1215.00
84.6863 1291.00
84.7515 1372.00
84.8167 1284.00
84.8819 1273.00
84.9471 1379.00
85.0123 1327.00
85.0775 1381.00
85.1427 1376.00
85.2079 1334.00
85.2731 1336.00
85.3383 1295.00
85.4035 1289.00
85.4687 1267.00
85.5339 1242.00
85.5991 1205.00
85.6643 1205.00
85.7295 1265.00
85.7946 1239.00
85.8598 1271.00
85.925 1263.00
85.9903 1208.00
86.0554 1160.00
86.1206 1225.00
86.1858 1271.00
86.251 1302.00
86.3162 1279.00
86.3814 1235.00
86.4466 1250.00
86.5118 1272.00
86.577 1236.00
86.6422 1290.00
86.7074 1236.00
86.7726 1301.00
86.8378 1273.00
86.903 1266.00
86.9682 1214.00
87.0334 1257.00
87.0986 1237.00
87.1638 1216.00
87.229 1263.00
87.2942 1175.00
87.3594 1192.00
87.4246 1142.00
87.4898 1178.00
87.555 1111.00
87.6202 1202.00
87.6854 1201.00
87.7506 1198.00
87.8158 1148.00
87.881 1171.00
87.9462 1181.00
88.0114 1246.00
88.0766 1146.00
88.1418 1176.00
88.207 1100.00
88.2722 1224.00
88.3374 1107.00
88.4026 1176.00
88.4678 1205.00
88.533 1142.00
88.5982 1131.00
88.6634 1147.00
88.7286 1206.00
88.7938 1173.00
88.859 1280.00
88.9242 1352.00
88.9894 1225.00
89.0546 1258.00
89.1198 1337.00
89.185 1374.00
89.2502 1308.00
89.3154 1341.00
89.3806 1284.00
89.4458 1272.00
89.511 1203.00
89.5762 1325.00
89.6414 1225.00
89.7066 1119.00
89.7718 1177.00
89.837 1209.00
89.9022 1146.00
89.9674 1210.00
90.0326 1188.00
90.0978 1230.00
90.163 1162.00
90.2282 1223.00
90.2934 1246.00
90.3586 1232.00
90.4238 1225.00
90.489 1227.00
90.5542 1287.00
90.6193 1276.00
90.6845 1326.00
90.7497 1244.00
90.8149 1274.00
90.8801 1367.00
90.9453 1306.00
91.0105 1285.00
91.0757 1326.00
91.1409 1399.00
91.2061 1311.00
91.2713 1250.00
91.3365 1280.00
91.4017 1277.00
91.4669 1309.00
91.5321 1295.00
91.5973 1332.00
91.6625 1361.00
91.7277 1255.00
91.7929 1364.00
91.8581 1355.00
91.9233 1429.00
91.9885 1431.00
92.0537 1453.00
92.1189 1500.00
92.1841 1500.00
92.2493 1414.00
92.3145 1410.00
92.3797 1284.00
92.4449 1440.00
92.5101 1273.00
92.5753 1315.00
92.6405 1278.00
92.7057 1187.00
92.7709 1171.00
92.8361 1237.00
92.9013 1295.00
92.9665 1222.00
93.0317 1238.00
93.0969 1198.00
93.1621 1190.00
93.2273 1239.00
93.2925 1264.00
93.3577 1213.00
93.4229 1206.00
93.4881 1214.00
93.5533 1231.00
93.6185 1174.00
93.6837 1202.00
93.7489 1186.00
93.8141 1187.00
93.8793 1180.00
93.9445 1250.00
94.0097 1156.00
94.0749 1247.00
94.1401 1283.00
94.2053 1271.00
94.2705 1170.00
94.3357 1170.00
94.4009 1147.00
94.4661 1182.00
94.5313 1200.00
94.5965 1190.00
94.6617 1152.00
94.7269 1243.00
94.7921 1159.00
94.8573 1196.00
94.9225 1159.00
94.9877 1162.00
95.0529 1164.00
95.1181 1229.00
95.1833 1167.00
95.2485 1207.00
95.3137 1288.00
95.3789 1198.00
95.444 1331.00
95.5092 1269.00
95.5744 1257.00
95.6396 1270.00
95.7048 1245.00
95.77 1189.00
95.8352 1238.00
95.9004 1263.00
95.9656 1233.00
96.0308 1146.00
96.096 1275.00
96.1612 1220.00
96.2264 1221.00
96.2916 1215.00
96.3568 1210.00
96.422 1205.00
96.4872 1174.00
96.5524 1174.00
96.6176 1219.00
96.6828 1162.00
96.748 1193.00
96.8132 1310.00
96.8784 1227.00
96.9436 1272.00
97.0088 1199.00
97.074 1235.00
97.1392 1264.00
97.2044 1247.00
97.2696 1254.00
97.3348 1198.00
97.4 1272.00
97.4652 1293.00
97.5304 1208.00
97.5956 1251.00
97.6608 1278.00
97.726 1197.00
97.7912 1198.00
97.8564 1224.00
97.9216 1218.00
97.9868 1226.00
98.052 1198.00
98.1172 1231.00
98.1824 1229.00
98.2476 1249.00
98.3128 1209.00
98.378 1210.00
98.4432 1170.00
98.5084 1237.00
98.5736 1201.00
98.6388 1186.00
98.704 1223.00
98.7692 1179.00
98.8344 1188.00
98.8996 1202.00
98.9648 1148.00
99.03 1215.00
99.0952 1193.00
99.1604 1110.00
99.2256 1175.00
99.2908 1205.00
99.356 1197.00
99.4212 1189.00
99.4864 1256.00
99.5516 1205.00
99.6168 1183.00
99.682 1181.00
99.7472 1217.00
99.8124 1148.00
99.8776 1177.00
99.9428 1185.00
100.008 1188.00
100.073 1186.00
100.095 1175.00