File: data/xrd_creation/results/NSC_128.xy
9.903433 2901.00
9.968632 2885.00
10.0338 2903.00
10.099 2858.00
10.1642 2804.00
10.2294 2729.00
10.2946 2739.00
10.3598 2762.00
10.425 2755.00
10.4902 2735.00
10.5554 2699.00
10.6206 2724.00
10.6858 2640.00
10.751 2580.00
10.8162 2675.00
10.8814 2624.00
10.9466 2611.00
11.0118 2569.00
11.077 2525.00
11.1422 2589.00
11.2074 2667.00
11.2726 2494.00
11.3378 2662.00
11.403 2459.00
11.4682 2455.00
11.5334 2502.00
11.5986 2513.00
11.6638 2448.00
11.729 2440.00
11.7942 2428.00
11.8594 2417.00
11.9246 2384.00
11.9898 2451.00
12.055 2400.00
12.1202 2340.00
12.1854 2358.00
12.2506 2344.00
12.3158 2333.00
12.381 2279.00
12.4462 2283.00
12.5114 2395.00
12.5766 2326.00
12.6418 2343.00
12.707 2327.00
12.7722 2411.00
12.8374 2251.00
12.9026 2301.00
12.9678 2234.00
13.033 2266.00
13.0982 2249.00
13.1634 2213.00
13.2286 2288.00
13.2938 2264.00
13.359 2248.00
13.4242 2199.00
13.4894 2245.00
13.5546 2166.00
13.6198 2167.00
13.685 2270.00
13.7502 2283.00
13.8154 2414.00
13.8805 2467.00
13.9457 2534.00
14.0109 2757.00
14.0761 2934.00
14.1413 3290.00
14.2065 4068.00
14.2717 5126.00
14.3369 6815.00
14.4021 7347.00
14.4673 4063.00
14.5325 2445.00
14.5977 2276.00
14.6629 2296.00
14.7281 2195.00
14.7933 2281.00
14.8585 2091.00
14.9237 2094.00
14.9889 2149.00
15.0541 2116.00
15.1193 2141.00
15.1845 2179.00
15.2497 2181.00
15.3149 2137.00
15.3801 2151.00
15.4453 2211.00
15.5105 2081.00
15.5757 2143.00
15.6409 2153.00
15.7061 2123.00
15.7713 2085.00
15.8365 2022.00
15.9017 2100.00
15.9669 2123.00
16.0321 2167.00
16.0973 2151.00
16.1625 2042.00
16.2277 2032.00
16.2929 2142.00
16.3581 2078.00
16.4233 2050.00
16.4885 2129.00
16.5537 1993.00
16.6189 2094.00
16.6841 2060.00
16.7493 2090.00
16.8145 2031.00
16.8797 2107.00
16.9449 2059.00
17.0101 2004.00
17.0753 2050.00
17.1405 1969.00
17.2057 2069.00
17.2709 2018.00
17.3361 2045.00
17.4013 2027.00
17.4665 2027.00
17.5317 1984.00
17.5969 2003.00
17.6621 1967.00
17.7273 1832.00
17.7925 1997.00
17.8577 1994.00
17.9229 1975.00
17.9881 1979.00
18.0533 2021.00
18.1185 1881.00
18.1837 1893.00
18.2489 2061.00
18.3141 1981.00
18.3793 1995.00
18.4445 2041.00
18.5097 2093.00
18.5749 2082.00
18.6401 2196.00
18.7052 2265.00
18.7704 2620.00
18.8356 3087.00
18.9008 3824.00
18.966 4102.00
19.0312 2857.00
19.0964 2105.00
19.1616 2074.00
19.2268 2129.00
19.292 2218.00
19.3572 2278.00
19.4224 2411.00
19.4876 2748.00
19.5528 3183.00
19.618 3903.00
19.6832 5655.00
19.7484 8616.00
19.8136 13721.00
19.8788 17329.00
19.944 13474.00
20.0092 7534.00
20.0744 3930.00
20.1396 2876.00
20.2048 2870.00
20.27 3133.00
20.3352 3827.00
20.4004 5198.00
20.4656 8357.00
20.5308 13344.00
20.596 18303.00
20.6612 12406.00
20.7264 5243.00
20.7916 2791.00
20.8568 2347.00
20.922 2257.00
20.9872 2138.00
21.0524 2175.00
21.1176 2052.00
21.1828 2047.00
21.248 2071.00
21.3132 2073.00
21.3784 2155.00
21.4436 2223.00
21.5088 2427.00
21.574 2604.00
21.6392 3211.00
21.7044 4470.00
21.7696 6776.00
21.8348 9906.00
21.9 9112.00
21.9652 4259.00
22.0304 2395.00
22.0956 2317.00
22.1608 2173.00
22.226 1970.00
22.2912 1973.00
22.3564 1910.00
22.4216 1982.00
22.4868 1933.00
22.552 1885.00
22.6172 1865.00
22.6824 1808.00
22.7476 1869.00
22.8128 1825.00
22.878 1846.00
22.9432 1815.00
23.0084 1869.00
23.0736 1924.00
23.1388 1859.00
23.204 1924.00
23.2692 1991.00
23.3344 1961.00
23.3996 2065.00
23.4647 2212.00
23.5299 2546.00
23.5951 3594.00
23.6603 5488.00
23.7255 9207.00
23.7907 12813.00
23.8559 10808.00
23.9211 5690.00
23.9863 2953.00
24.0515 2313.00
24.1167 2131.00
24.1819 2224.00
24.2471 2322.00
24.3123 2926.00
24.3775 3826.00
24.4427 4625.00
24.5079 3486.00
24.5731 2141.00
24.6383 1973.00
24.7035 1922.00
24.7687 1855.00
24.8339 1900.00
24.8991 1771.00
24.9643 1749.00
25.0295 1739.00
25.0947 1774.00
25.1599 1715.00
25.2251 1748.00
25.2903 1756.00
25.3555 1658.00
25.4207 1671.00
25.4859 1727.00
25.5511 1715.00
25.6163 1751.00
25.6815 1760.00
25.7467 1697.00
25.8119 1639.00
25.8771 1788.00
25.9423 1741.00
26.0075 1714.00
26.0727 1716.00
26.1379 1768.00
26.2031 1688.00
26.2683 1680.00
26.3335 1691.00
26.3987 1735.00
26.4639 1759.00
26.5291 1912.00
26.5943 2111.00
26.6595 2758.00
26.7247 3717.00
26.7899 4273.00
26.8551 3112.00
26.9203 2142.00
26.9855 1713.00
27.0507 1717.00
27.1159 1712.00
27.1811 1736.00
27.2463 1692.00
27.3115 1645.00
27.3767 1626.00
27.4419 1583.00
27.5071 1624.00
27.5723 1668.00
27.6375 1624.00
27.7027 1698.00
27.7679 1684.00
27.8331 1604.00
27.8983 1692.00
27.9635 1788.00
28.0287 1756.00
28.0939 1760.00
28.1591 1764.00
28.2243 1834.00
28.2894 1872.00
28.3546 2103.00
28.4198 2825.00
28.485 4566.00
28.5502 8236.00
28.6154 12447.00
28.6806 12319.00
28.7458 7876.00
28.811 4063.00
28.8762 2521.00
28.9414 1985.00
29.0066 1874.00
29.0718 1742.00
29.137 1748.00
29.2022 1613.00
29.2674 1602.00
29.3326 1664.00
29.3978 1655.00
29.463 1614.00
29.5282 1663.00
29.5934 1688.00
29.6586 1640.00
29.7238 1624.00
29.789 1557.00
29.8542 1636.00
29.9194 1594.00
29.9846 1662.00
30.0498 1651.00
30.115 1676.00
30.1802 1591.00
30.2454 1658.00
30.3106 1700.00
30.3758 1607.00
30.441 1639.00
30.5062 1732.00
30.5714 1730.00
30.6366 1845.00
30.7018 1802.00
30.767 1979.00
30.8322 2417.00
30.8974 3259.00
30.9626 4210.00
31.0278 3626.00
31.093 2525.00
31.1582 1910.00
31.2234 1815.00
31.2886 2051.00
31.3538 2569.00
31.419 4096.00
31.4842 7003.00
31.5494 10035.00
31.6146 11189.00
31.6798 9408.00
31.745 7225.00
31.8102 4965.00
31.8754 3256.00
31.9406 2344.00
32.0058 1953.00
32.071 1721.00
32.1362 1725.00
32.2014 1669.00
32.2666 1586.00
32.3318 1594.00
32.397 1550.00
32.4622 1661.00
32.5274 1666.00
32.5926 1640.00
32.6578 1702.00
32.723 1587.00
32.7882 1574.00
32.8534 1584.00
32.9186 1612.00
32.9838 1528.00
33.0489 1560.00
33.1141 1580.00
33.1793 1573.00
33.2445 1588.00
33.3097 1634.00
33.3749 1582.00
33.4401 1528.00
33.5053 1553.00
33.5705 1641.00
33.6357 1456.00
33.7009 1474.00
33.7661 1711.00
33.8313 1712.00
33.8965 1909.00
33.9617 2005.00
34.0269 2219.00
34.0921 2315.00
34.1573 2157.00
34.2225 2056.00
34.2877 1936.00
34.3529 1671.00
34.4181 1542.00
34.4833 1678.00
34.5485 1610.00
34.6137 1595.00
34.6789 1536.00
34.7441 1561.00
34.8093 1476.00
34.8745 1583.00
34.9397 1639.00
35.0049 1621.00
35.0701 1601.00
35.1353 1698.00
35.2005 2123.00
35.2657 3380.00
35.3309 5346.00
35.3961 6644.00
35.4613 6272.00
35.5265 4521.00
35.5917 3406.00
35.6569 3247.00
35.7221 4868.00
35.7873 7002.00
35.8525 6846.00
35.9177 5505.00
35.9829 3854.00
36.0481 2974.00
36.1133 2417.00
36.1785 2289.00
36.2437 2208.00
36.3089 2888.00
36.3741 4397.00
36.4393 5104.00
36.5045 3908.00
36.5697 2515.00
36.6349 1734.00
36.7001 1504.00
36.7653 1542.00
36.8305 1543.00
36.8957 1503.00
36.9609 1420.00
37.0261 1365.00
37.0913 1434.00
37.1565 1440.00
37.2217 1463.00
37.2869 1467.00
37.3521 1478.00
37.4173 1443.00
37.4825 1635.00
37.5477 1705.00
37.6129 1803.00
37.6781 1723.00
37.7433 1589.00
37.8085 1443.00
37.8736 1495.00
37.9388 1571.00
38.004 1708.00
38.0692 1878.00
38.1344 1940.00
38.1996 1637.00
38.2648 1507.00
38.33 1356.00
38.3952 1330.00
38.4604 1289.00
38.5256 1392.00
38.5908 1332.00
38.656 1369.00
38.7212 1341.00
38.7864 1389.00
38.8516 1387.00
38.9168 1397.00
38.982 1378.00
39.0472 1383.00
39.1124 1366.00
39.1776 1386.00
39.2428 1406.00
39.308 1392.00
39.3732 1344.00
39.4384 1389.00
39.5036 1395.00
39.5688 1504.00
39.634 1686.00
39.6992 1701.00
39.7644 1682.00
39.8296 1628.00
39.8948 1815.00
39.96 2015.00
40.0252 2143.00
40.0904 2095.00
40.1556 1984.00
40.2208 1789.00
40.286 1646.00
40.3512 1500.00
40.4164 1439.00
40.4816 1381.00
40.5468 1385.00
40.612 1378.00
40.6772 1332.00
40.7424 1306.00
40.8076 1359.00
40.8728 1376.00
40.938 1355.00
41.0032 1281.00
41.0684 1337.00
41.1336 1342.00
41.1988 1381.00
41.264 1420.00
41.3292 1566.00
41.3944 1654.00
41.4596 2093.00
41.5248 2334.00
41.59 2535.00
41.6552 2564.00
41.7204 2363.00
41.7856 2242.00
41.8508 2229.00
41.916 2038.00
41.9812 1884.00
42.0464 1924.00
42.1116 1808.00
42.1768 1605.00
42.242 1562.00
42.3072 1584.00
42.3724 1579.00
42.4376 1637.00
42.5028 1540.00
42.568 1485.00
42.6332 1436.00
42.6983 1353.00
42.7635 1289.00
42.8287 1341.00
42.8939 1289.00
42.9591 1392.00
43.0243 1387.00
43.0895 1450.00
43.1547 1485.00
43.2199 1942.00
43.2851 2492.00
43.3503 2726.00
43.4155 2811.00
43.4807 2600.00
43.5459 2439.00
43.6111 2676.00
43.6763 2072.00
43.7415 2043.00
43.8067 1582.00
43.8719 1540.00
43.9371 1577.00
44.0023 1609.00
44.0675 1842.00
44.1327 1934.00
44.1979 1841.00
44.2631 1721.00
44.3283 1572.00
44.3935 1454.00
44.4587 1324.00
44.5239 1371.00
44.5891 1383.00
44.6543 1319.00
44.7195 1381.00
44.7847 1311.00
44.8499 1362.00
44.9151 1382.00
44.9803 1422.00
45.0455 1600.00
45.1107 1947.00
45.1759 2513.00
45.2411 3183.00
45.3063 3382.00
45.3715 3453.00
45.4367 3040.00
45.5019 2659.00
45.5671 2379.00
45.6323 2138.00
45.6975 1880.00
45.7627 1616.00
45.8279 1476.00
45.8931 1491.00
45.9583 1432.00
46.0235 1556.00
46.0887 1486.00
46.1539 1791.00
46.2191 2756.00
46.2843 3650.00
46.3495 4185.00
46.4147 3792.00
46.4799 2962.00
46.5451 2337.00
46.6103 1866.00
46.6755 1639.00
46.7407 1662.00
46.8059 1733.00
46.8711 2050.00
46.9363 2352.00
47.0015 2614.00
47.0667 2540.00
47.1319 2352.00
47.1971 2059.00
47.2623 1875.00
47.3275 1683.00
47.3927 1617.00
47.4579 1426.00
47.523 1434.00
47.5882 1363.00
47.6534 1368.00
47.7186 1327.00
47.7838 1395.00
47.849 1425.00
47.9142 1462.00
47.9794 1465.00
48.0446 1669.00
48.1098 1717.00
48.175 2270.00
48.2402 3414.00
48.3054 4428.00
48.3706 5019.00
48.4358 4563.00
48.501 3576.00
48.5662 2664.00
48.6314 2084.00
48.6966 1773.00
48.7618 1565.00
48.827 1598.00
48.8922 1708.00
48.9574 1808.00
49.0226 1711.00
49.0878 1818.00
49.153 1620.00
49.2182 1550.00
49.2834 1389.00
49.3486 1409.00
49.4138 1501.00
49.479 1523.00
49.5442 1722.00
49.6094 2106.00
49.6746 2764.00
49.7398 2821.00
49.805 2424.00
49.8702 2119.00
49.9354 1563.00
50.0006 1412.00
50.0658 1306.00
50.131 1324.00
50.1962 1320.00
50.2614 1405.00
50.3266 1353.00
50.3918 1362.00
50.457 1522.00
50.5222 1406.00
50.5874 1492.00
50.6526 1305.00
50.7178 1286.00
50.783 1285.00
50.8482 1329.00
50.9134 1477.00
50.9786 1638.00
51.0438 1761.00
51.109 1847.00
51.1742 1657.00
51.2394 1597.00
51.3046 1526.00
51.3698 1518.00
51.435 1699.00
51.5002 2085.00
51.5654 2766.00
51.6306 3386.00
51.6958 3605.00
51.761 3665.00
51.8262 3602.00
51.8914 3066.00
51.9566 2585.00
52.0218 2402.00
52.087 2185.00
52.1522 1969.00
52.2174 1932.00
52.2826 1746.00
52.3477 1671.00
52.4129 1552.00
52.4781 1429.00
52.5433 1466.00
52.6085 1303.00
52.6737 1413.00
52.7389 1381.00
52.8041 1399.00
52.8693 1460.00
52.9345 1426.00
52.9997 1530.00
53.0649 1561.00
53.1301 1554.00
53.1953 1497.00
53.2605 1422.00
53.3257 1424.00
53.3909 1482.00
53.4561 1413.00
53.5213 1348.00
53.5865 1306.00
53.6517 1383.00
53.7169 1341.00
53.7821 1346.00
53.8473 1313.00
53.9125 1329.00
53.9777 1335.00
54.0429 1427.00
54.1081 1338.00
54.1733 1376.00
54.2385 1474.00
54.3037 1459.00
54.3689 1547.00
54.4341 1637.00
54.4993 2034.00
54.5645 2330.00
54.6297 2576.00
54.6949 2891.00
54.7601 3127.00
54.8253 3071.00
54.8905 2636.00
54.9557 2291.00
55.0209 1889.00
55.0861 1808.00
55.1513 1576.00
55.2165 1618.00
55.2817 1642.00
55.3469 1947.00
55.4121 2656.00
55.4773 3190.00
55.5425 3514.00
55.6077 3737.00
55.6729 3924.00
55.7381 4544.00
55.8033 4805.00
55.8685 4482.00
55.9337 3920.00
55.9989 3377.00
56.0641 2559.00
56.1293 2053.00
56.1945 1696.00
56.2597 1532.00
56.3249 1457.00
56.3901 1335.00
56.4553 1319.00
56.5205 1366.00
56.5857 1279.00
56.6509 1284.00
56.7161 1381.00
56.7813 1266.00
56.8465 1306.00
56.9117 1422.00
56.9769 1392.00
57.042 1504.00
57.1073 1488.00
57.1724 1458.00
57.2376 1557.00
57.3028 1497.00
57.368 1440.00
57.4332 1427.00
57.4984 1392.00
57.5636 1400.00
57.6288 1350.00
57.694 1419.00
57.7592 1305.00
57.8244 1449.00
57.8896 1376.00
57.9548 1325.00
58.02 1384.00
58.0852 1417.00
58.1504 1483.00
58.2156 1658.00
58.2808 2012.00
58.346 2617.00
58.4112 2900.00
58.4764 2895.00
58.5416 2457.00
58.6068 2266.00
58.672 2101.00
58.7372 2035.00
58.8024 2004.00
58.8676 2068.00
58.9328 2008.00
58.998 2019.00
59.0632 1789.00
59.1284 1640.00
59.1936 1521.00
59.2588 1492.00
59.324 1395.00
59.3892 1414.00
59.4544 1329.00
59.5196 1302.00
59.5848 1276.00
59.65 1328.00
59.7152 1349.00
59.7804 1289.00
59.8456 1336.00
59.9108 1326.00
59.976 1420.00
60.0412 1510.00
60.1064 1809.00
60.1716 2175.00
60.2368 2402.00
60.302 2679.00
60.3672 2760.00
60.4324 2551.00
60.4976 2430.00
60.5628 2171.00
60.628 1940.00
60.6932 1787.00
60.7584 1630.00
60.8236 1550.00
60.8888 1456.00
60.954 1419.00
61.0192 1385.00
61.0844 1349.00
61.1496 1410.00
61.2148 1510.00
61.28 1915.00
61.3452 2183.00
61.4104 2380.00
61.4756 2381.00
61.5408 2360.00
61.606 2118.00
61.6712 1911.00
61.7364 1715.00
61.8016 1541.00
61.8667 1539.00
61.932 1460.00
61.9971 1419.00
62.0623 1360.00
62.1275 1371.00
62.1927 1333.00
62.2579 1314.00
62.3231 1478.00
62.3883 1424.00
62.4535 1617.00
62.5187 1662.00
62.5839 1862.00
62.6491 1871.00
62.7143 1932.00
62.7795 1926.00
62.8447 1841.00
62.9099 1924.00
62.9751 1856.00
63.0403 1820.00
63.1055 1935.00
63.1707 1915.00
63.2359 1834.00
63.3011 1740.00
63.3663 1759.00
63.4315 1683.00
63.4967 1645.00
63.5619 1696.00
63.6271 1722.00
63.6923 1967.00
63.7575 2080.00
63.8227 2126.00
63.8879 2222.00
63.9531 2371.00
64.0183 2528.00
64.0835 2608.00
64.1487 2749.00
64.2139 2627.00
64.2791 2295.00
64.3443 2195.00
64.4095 2057.00
64.4747 1862.00
64.5399 1654.00
64.6051 1600.00
64.6703 1531.00
64.7355 1428.00
64.8007 1367.00
64.8659 1314.00
64.9311 1376.00
64.9963 1243.00
65.0615 1326.00
65.1267 1343.00
65.1919 1320.00
65.2571 1421.00
65.3223 1501.00
65.3875 1512.00
65.4527 1540.00
65.5179 1557.00
65.5831 1558.00
65.6483 1506.00
65.7135 1516.00
65.7787 1454.00
65.8439 1457.00
65.9091 1395.00
65.9743 1322.00
66.0395 1312.00
66.1047 1375.00
66.1699 1348.00
66.2351 1368.00
66.3003 1414.00
66.3655 1502.00
66.4307 1730.00
66.4959 1701.00
66.561 1874.00
66.6263 1929.00
66.6915 2028.00
66.7566 1820.00
66.8218 1756.00
66.887 1780.00
66.9522 1680.00
67.0174 1589.00
67.0826 1539.00
67.1478 1500.00
67.213 1434.00
67.2782 1580.00
67.3434 1728.00
67.4086 1787.00
67.4738 1781.00
67.539 1889.00
67.6042 1999.00
67.6694 1952.00
67.7346 1913.00
67.7998 1928.00
67.865 1774.00
67.9302 1738.00
67.9954 1718.00
68.0606 1691.00
68.1258 1740.00
68.191 1832.00
68.2562 1950.00
68.3214 1825.00
68.3866 1848.00
68.4518 1947.00
68.517 1863.00
68.5822 1714.00
68.6474 1622.00
68.7126 1514.00
68.7778 1462.00
68.843 1297.00
68.9082 1359.00
68.9734 1286.00
69.0386 1315.00
69.1038 1453.00
69.169 1440.00
69.2342 1544.00
69.2994 1589.00
69.3646 1539.00
69.4298 1486.00
69.495 1442.00
69.5602 1391.00
69.6254 1408.00
69.6906 1278.00
69.7558 1274.00
69.821 1228.00
69.8862 1211.00
69.9514 1271.00
70.0166 1172.00
70.0818 1234.00
70.147 1186.00
70.2122 1197.00
70.2774 1253.00
70.3426 1209.00
70.4078 1295.00
70.473 1328.00
70.5382 1347.00
70.6034 1374.00
70.6686 1455.00
70.7338 1378.00
70.799 1320.00
70.8642 1341.00
70.9294 1216.00
70.9946 1356.00
71.0598 1294.00
71.125 1407.00
71.1902 1390.00
71.2554 1547.00
71.3205 1741.00
71.3858 1936.00
71.451 2100.00
71.5162 2116.00
71.5813 2108.00
71.6465 1986.00
71.7117 1806.00
71.7769 1720.00
71.8421 1546.00
71.9073 1429.00
71.9725 1362.00
72.0377 1380.00
72.1029 1278.00
72.1681 1258.00
72.2333 1257.00
72.2985 1326.00
72.3637 1220.00
72.4289 1303.00
72.4941 1281.00
72.5593 1316.00
72.6245 1340.00
72.6897 1451.00
72.7549 1463.00
72.8201 1320.00
72.8853 1337.00
72.9505 1307.00
73.0157 1293.00
73.0809 1282.00
73.1461 1362.00
73.2113 1238.00
73.2765 1180.00
73.3417 1276.00
73.4069 1241.00
73.4721 1211.00
73.5373 1174.00
73.6025 1228.00
73.6677 1266.00
73.7329 1318.00
73.7981 1320.00
73.8633 1415.00
73.9285 1422.00
73.9937 1493.00
74.0589 1578.00
74.1241 1659.00
74.1893 1628.00
74.2545 1671.00
74.3197 1753.00
74.3849 1652.00
74.4501 1624.00
74.5153 1539.00
74.5805 1618.00
74.6457 1459.00
74.7109 1405.00
74.7761 1425.00
74.8413 1448.00
74.9065 1350.00
74.9717 1381.00
75.0369 1266.00
75.1021 1353.00
75.1673 1371.00
75.2325 1550.00
75.2977 1642.00
75.3629 1790.00
75.4281 1707.00
75.4933 1885.00
75.5585 1857.00
75.6237 1898.00
75.6889 1962.00
75.7541 1900.00
75.8193 1854.00
75.8845 1822.00
75.9497 1794.00
76.0149 1706.00
76.0801 1656.00
76.1452 1584.00
76.2104 1489.00
76.2756 1446.00
76.3409 1244.00
76.406 1330.00
76.4712 1412.00
76.5364 1240.00
76.6016 1266.00
76.6668 1267.00
76.732 1325.00
76.7972 1400.00
76.8624 1479.00
76.9276 1344.00
76.9928 1427.00
77.058 1436.00
77.1232 1357.00
77.1884 1444.00
77.2536 1382.00
77.3188 1317.00
77.384 1220.00
77.4492 1283.00
77.5144 1193.00
77.5796 1266.00
77.6448 1267.00
77.71 1282.00
77.7752 1356.00
77.8404 1310.00
77.9056 1343.00
77.9708 1314.00
78.036 1377.00
78.1012 1274.00
78.1664 1347.00
78.2316 1254.00
78.2968 1277.00
78.362 1278.00
78.4272 1295.00
78.4924 1257.00
78.5576 1289.00
78.6228 1327.00
78.688 1458.00
78.7532 1482.00
78.8184 1515.00
78.8836 1648.00
78.9488 1628.00
79.014 1716.00
79.0792 1801.00
79.1444 1793.00
79.2096 1857.00
79.2748 1825.00
79.34 1830.00
79.4052 1826.00
79.4704 1766.00
79.5356 1646.00
79.6008 1589.00
79.666 1523.00
79.7312 1566.00
79.7964 1422.00
79.8616 1406.00
79.9268 1387.00
79.992 1295.00
80.0572 1308.00
80.1224 1371.00
80.1876 1332.00
80.2528 1332.00
80.318 1405.00
80.3832 1399.00
80.4484 1320.00
80.5136 1347.00
80.5788 1283.00
80.644 1243.00
80.7092 1306.00
80.7744 1289.00
80.8396 1201.00
80.9048 1273.00
80.9699 1249.00
81.0351 1304.00
81.1003 1290.00
81.1655 1334.00
81.2307 1463.00
81.2959 1531.00
81.3611 1539.00
81.4263 1493.00
81.4915 1567.00
81.5567 1503.00
81.6219 1566.00
81.6871 1559.00
81.7523 1552.00
81.8175 1516.00
81.8827 1435.00
81.9479 1319.00
82.0131 1448.00
82.0783 1308.00
82.1435 1308.00
82.2087 1259.00
82.2739 1306.00
82.3391 1275.00
82.4043 1196.00
82.4695 1208.00
82.5347 1236.00
82.5999 1206.00
82.6651 1203.00
82.7303 1222.00
82.7955 1190.00
82.8607 1249.00
82.9259 1301.00
82.9911 1253.00
83.0563 1376.00
83.1215 1258.00
83.1867 1252.00
83.2519 1241.00
83.3171 1250.00
83.3823 1241.00
83.4475 1227.00
83.5127 1196.00
83.5779 1289.00
83.6431 1353.00
83.7083 1379.00
83.7735 1516.00
83.8387 1585.00
83.9039 1586.00
83.9691 1675.00
84.0343 1639.00
84.0995 1652.00
84.1647 1586.00
84.2299 1539.00
84.2951 1457.00
84.3603 1448.00
84.4255 1401.00
84.4907 1305.00
84.5559 1352.00
84.6211 1276.00
84.6863 1282.00
84.7515 1220.00
84.8167 1269.00
84.8819 1370.00
84.9471 1447.00
85.0123 1536.00
85.0775 1531.00
85.1427 1577.00
85.2079 1609.00
85.2731 1534.00
85.3383 1497.00
85.4035 1454.00
85.4687 1483.00
85.5339 1411.00
85.5991 1451.00
85.6643 1437.00
85.7295 1438.00
85.7946 1490.00
85.8598 1504.00
85.925 1590.00
85.9903 1557.00
86.0554 1447.00
86.1206 1438.00
86.1858 1531.00
86.251 1341.00
86.3162 1445.00
86.3814 1456.00
86.4466 1413.00
86.5118 1405.00
86.577 1383.00
86.6422 1401.00
86.7074 1542.00
86.7726 1503.00
86.8378 1402.00
86.903 1481.00
86.9682 1486.00
87.0334 1401.00
87.0986 1436.00
87.1638 1353.00
87.229 1447.00
87.2942 1501.00
87.3594 1321.00
87.4246 1370.00
87.4898 1305.00
87.555 1321.00
87.6202 1299.00
87.6854 1236.00
87.7506 1309.00
87.8158 1229.00
87.881 1293.00
87.9462 1255.00
88.0114 1157.00
88.0766 1219.00
88.1418 1212.00
88.207 1244.00
88.2722 1298.00
88.3374 1330.00
88.4026 1305.00
88.4678 1385.00
88.533 1415.00
88.5982 1319.00
88.6634 1307.00
88.7286 1315.00
88.7938 1380.00
88.859 1450.00
88.9242 1462.00
88.9894 1425.00
89.0546 1484.00
89.1198 1507.00
89.185 1447.00
89.2502 1354.00
89.3154 1383.00
89.3806 1313.00
89.4458 1339.00
89.511 1362.00
89.5762 1426.00
89.6414 1331.00
89.7066 1471.00
89.7718 1528.00
89.837 1534.00
89.9022 1668.00
89.9674 1737.00
90.0326 1744.00
90.0978 1778.00
90.163 1766.00
90.2282 1642.00
90.2934 1671.00
90.3586 1662.00
90.4238 1531.00
90.489 1472.00
90.5542 1505.00
90.6193 1365.00
90.6845 1417.00
90.7497 1423.00
90.8149 1342.00
90.8801 1296.00
90.9453 1340.00
91.0105 1339.00
91.0757 1277.00
91.1409 1253.00
91.2061 1273.00
91.2713 1190.00
91.3365 1270.00
91.4017 1243.00
91.4669 1288.00
91.5321 1299.00
91.5973 1329.00
91.6625 1300.00
91.7277 1377.00
91.7929 1352.00
91.8581 1407.00
91.9233 1540.00
91.9885 1647.00
92.0537 1711.00
92.1189 1732.00
92.1841 1717.00
92.2493 1585.00
92.3145 1597.00
92.3797 1611.00
92.4449 1588.00
92.5101 1522.00
92.5753 1454.00
92.6405 1384.00
92.7057 1323.00
92.7709 1436.00
92.8361 1429.00
92.9013 1389.00
92.9665 1368.00
93.0317 1394.00
93.0969 1462.00
93.1621 1417.00
93.2273 1371.00
93.2925 1295.00
93.3577 1337.00
93.4229 1286.00
93.4881 1245.00
93.5533 1312.00
93.6185 1250.00
93.6837 1168.00
93.7489 1201.00
93.8141 1175.00
93.8793 1221.00
93.9445 1257.00
94.0097 1236.00
94.0749 1302.00
94.1401 1283.00
94.2053 1248.00
94.2705 1306.00
94.3357 1271.00
94.4009 1289.00
94.4661 1372.00
94.5313 1338.00
94.5965 1353.00
94.6617 1324.00
94.7269 1298.00
94.7921 1343.00
94.8573 1257.00
94.9225 1327.00
94.9877 1372.00
95.0529 1224.00
95.1181 1292.00
95.1833 1274.00
95.2485 1317.00
95.3137 1308.00
95.3789 1423.00
95.444 1393.00
95.5092 1476.00
95.5744 1408.00
95.6396 1570.00
95.7048 1497.00
95.77 1516.00
95.8352 1504.00
95.9004 1529.00
95.9656 1399.00
96.0308 1421.00
96.096 1364.00
96.1612 1430.00
96.2264 1372.00
96.2916 1481.00
96.3568 1494.00
96.422 1467.00
96.4872 1480.00
96.5524 1369.00
96.6176 1442.00
96.6828 1504.00
96.748 1396.00
96.8132 1515.00
96.8784 1476.00
96.9436 1453.00
97.0088 1478.00
97.074 1423.00
97.1392 1421.00
97.2044 1495.00
97.2696 1498.00
97.3348 1493.00
97.4 1347.00
97.4652 1393.00
97.5304 1344.00
97.5956 1388.00
97.6608 1318.00
97.726 1315.00
97.7912 1287.00
97.8564 1284.00
97.9216 1302.00
97.9868 1244.00
98.052 1248.00
98.1172 1294.00
98.1824 1249.00
98.2476 1277.00
98.3128 1213.00
98.378 1282.00
98.4432 1236.00
98.5084 1262.00
98.5736 1224.00
98.6388 1248.00
98.704 1237.00
98.7692 1228.00
98.8344 1203.00
98.8996 1202.00
98.9648 1198.00
99.03 1219.00
99.0952 1226.00
99.1604 1349.00
99.2256 1310.00
99.2908 1278.00
99.356 1309.00
99.4212 1357.00
99.4864 1402.00
99.5516 1381.00
99.6168 1469.00
99.682 1397.00
99.7472 1343.00
99.8124 1507.00
99.8776 1345.00
99.9428 1409.00
100.008 1330.00
100.073 1386.00
100.095 1368.00