File: data/xrd_creation/results/NSC_18.xy
9.903433 2641.00
9.968632 2513.00
10.0338 2559.00
10.099 2630.00
10.1642 2535.00
10.2294 2606.00
10.2946 2481.00
10.3598 2539.00
10.425 2527.00
10.4902 2483.00
10.5554 2575.00
10.6206 2382.00
10.6858 2441.00
10.751 2348.00
10.8162 2482.00
10.8814 2332.00
10.9466 2446.00
11.0118 2464.00
11.077 2326.00
11.1422 2418.00
11.2074 2287.00
11.2726 2250.00
11.3378 2222.00
11.403 2311.00
11.4682 2183.00
11.5334 2237.00
11.5986 2254.00
11.6638 2167.00
11.729 2267.00
11.7942 2218.00
11.8594 2138.00
11.9246 2110.00
11.9898 2112.00
12.055 2041.00
12.1202 2054.00
12.1854 2101.00
12.2506 2094.00
12.3158 2069.00
12.381 2136.00
12.4462 2071.00
12.5114 2088.00
12.5766 2048.00
12.6418 2111.00
12.707 1957.00
12.7722 2052.00
12.8374 2029.00
12.9026 2034.00
12.9678 1888.00
13.033 1971.00
13.0982 1929.00
13.1634 1933.00
13.2286 1980.00
13.2938 1922.00
13.359 1980.00
13.4242 1917.00
13.4894 1902.00
13.5546 2020.00
13.6198 1982.00
13.685 1874.00
13.7502 1909.00
13.8154 1963.00
13.8805 1882.00
13.9457 1948.00
14.0109 2103.00
14.0761 2165.00
14.1413 2220.00
14.2065 2493.00
14.2717 2864.00
14.3369 3162.00
14.4021 2825.00
14.4673 2096.00
14.5325 1843.00
14.5977 1888.00
14.6629 1862.00
14.7281 1881.00
14.7933 1877.00
14.8585 1977.00
14.9237 1995.00
14.9889 2151.00
15.0541 2275.00
15.1193 2591.00
15.1845 2960.00
15.2497 3610.00
15.3149 3821.00
15.3801 2793.00
15.4453 2012.00
15.5105 1857.00
15.5757 1831.00
15.6409 1855.00
15.7061 1784.00
15.7713 1799.00
15.8365 1645.00
15.9017 1727.00
15.9669 1748.00
16.0321 1696.00
16.0973 1653.00
16.1625 1800.00
16.2277 1651.00
16.2929 1676.00
16.3581 1641.00
16.4233 1727.00
16.4885 1707.00
16.5537 1687.00
16.6189 1697.00
16.6841 1710.00
16.7493 1711.00
16.8145 1622.00
16.8797 1632.00
16.9449 1643.00
17.0101 1621.00
17.0753 1639.00
17.1405 1696.00
17.2057 1639.00
17.2709 1649.00
17.3361 1621.00
17.4013 1649.00
17.4665 1659.00
17.5317 1645.00
17.5969 1689.00
17.6621 1697.00
17.7273 1674.00
17.7925 1657.00
17.8577 1608.00
17.9229 1632.00
17.9881 1746.00
18.0533 1619.00
18.1185 1600.00
18.1837 1587.00
18.2489 1535.00
18.3141 1550.00
18.3793 1514.00
18.4445 1671.00
18.5097 1568.00
18.5749 1611.00
18.6401 1561.00
18.7052 1642.00
18.7704 1725.00
18.8356 1884.00
18.9008 2073.00
18.966 2009.00
19.0312 1698.00
19.0964 1446.00
19.1616 1590.00
19.2268 1531.00
19.292 1719.00
19.3572 1741.00
19.4224 1819.00
19.4876 1939.00
19.5528 2270.00
19.618 2902.00
19.6832 3808.00
19.7484 5125.00
19.8136 5794.00
19.8788 4968.00
19.944 3428.00
20.0092 2296.00
20.0744 1937.00
20.1396 1977.00
20.2048 2062.00
20.27 2345.00
20.3352 2810.00
20.4004 3786.00
20.4656 5330.00
20.5308 6854.00
20.596 6861.00
20.6612 5676.00
20.7264 4514.00
20.7916 4258.00
20.8568 4819.00
20.922 6279.00
20.9872 7472.00
21.0524 5967.00
21.1176 3723.00
21.1828 2181.00
21.248 1767.00
21.3132 1732.00
21.3784 1725.00
21.4436 1710.00
21.5088 1859.00
21.574 2063.00
21.6392 2228.00
21.7044 2780.00
21.7696 3648.00
21.8348 4470.00
21.9 4558.00
21.9652 4807.00
22.0304 6759.00
22.0956 8560.00
22.1608 7902.00
22.226 4876.00
22.2912 2704.00
22.3564 2059.00
22.4216 1743.00
22.4868 1686.00
22.552 1597.00
22.6172 1542.00
22.6824 1476.00
22.7476 1523.00
22.8128 1502.00
22.878 1487.00
22.9432 1534.00
23.0084 1438.00
23.0736 1544.00
23.1388 1561.00
23.204 1500.00
23.2692 1556.00
23.3344 1710.00
23.3996 1866.00
23.4647 2155.00
23.5299 2741.00
23.5951 3834.00
23.6603 5479.00
23.7255 6755.00
23.7907 6576.00
23.8559 5065.00
23.9211 3336.00
23.9863 2117.00
24.0515 1756.00
24.1167 1510.00
24.1819 1504.00
24.2471 1680.00
24.3123 1909.00
24.3775 1944.00
24.4427 2107.00
24.5079 1760.00
24.5731 1543.00
24.6383 1521.00
24.7035 1374.00
24.7687 1533.00
24.8339 1585.00
24.8991 1544.00
24.9643 1649.00
25.0295 1774.00
25.0947 2106.00
25.1599 2784.00
25.2251 4033.00
25.2903 6498.00
25.3555 9296.00
25.4207 10201.00
25.4859 7629.00
25.5511 4221.00
25.6163 2547.00
25.6815 1911.00
25.7467 1826.00
25.8119 1814.00
25.8771 1784.00
25.9423 1759.00
26.0075 1734.00
26.0727 2313.00
26.1379 2956.00
26.2031 3822.00
26.2683 3601.00
26.3335 2614.00
26.3987 1948.00
26.4639 1655.00
26.5291 1507.00
26.5943 1507.00
26.6595 1785.00
26.7247 1865.00
26.7899 1896.00
26.8551 1584.00
26.9203 1495.00
26.9855 1367.00
27.0507 1288.00
27.1159 1296.00
27.1811 1304.00
27.2463 1275.00
27.3115 1249.00
27.3767 1239.00
27.4419 1183.00
27.5071 1231.00
27.5723 1255.00
27.6375 1193.00
27.7027 1247.00
27.7679 1238.00
27.8331 1213.00
27.8983 1280.00
27.9635 1264.00
28.0287 1265.00
28.0939 1282.00
28.1591 1407.00
28.2243 1412.00
28.2894 1624.00
28.3546 2003.00
28.4198 2784.00
28.485 3632.00
28.5502 4312.00
28.6154 4186.00
28.6806 3541.00
28.7458 2754.00
28.811 1908.00
28.8762 1561.00
28.9414 1371.00
29.0066 1301.00
29.0718 1220.00
29.137 1187.00
29.2022 1135.00
29.2674 1229.00
29.3326 1141.00
29.3978 1185.00
29.463 1177.00
29.5282 1215.00
29.5934 1182.00
29.6586 1251.00
29.7238 1227.00
29.789 1209.00
29.8542 1248.00
29.9194 1154.00
29.9846 1252.00
30.0498 1328.00
30.115 1341.00
30.1802 1429.00
30.2454 1657.00
30.3106 2027.00
30.3758 2806.00
30.441 4332.00
30.5062 5743.00
30.5714 6061.00
30.6366 4650.00
30.7018 3062.00
30.767 2130.00
30.8322 1889.00
30.8974 1848.00
30.9626 1905.00
31.0278 1639.00
31.093 1660.00
31.1582 1572.00
31.2234 1858.00
31.2886 2475.00
31.3538 3539.00
31.419 5130.00
31.4842 6017.00
31.5494 5989.00
31.6146 5058.00
31.6798 4070.00
31.745 3202.00
31.8102 2416.00
31.8754 1812.00
31.9406 1612.00
32.0058 1386.00
32.071 1191.00
32.1362 1177.00
32.2014 1184.00
32.2666 1134.00
32.3318 1159.00
32.397 1140.00
32.4622 1176.00
32.5274 1187.00
32.5926 1245.00
32.6578 1258.00
32.723 1263.00
32.7882 1240.00
32.8534 1255.00
32.9186 1328.00
32.9838 1329.00
33.0489 1321.00
33.1141 1497.00
33.1793 1812.00
33.2445 2439.00
33.3097 3674.00
33.3749 6007.00
33.4401 8329.00
33.5053 8467.00
33.5705 6355.00
33.6357 4057.00
33.7009 2599.00
33.7661 1853.00
33.8313 1666.00
33.8965 1610.00
33.9617 1677.00
34.0269 1870.00
34.0921 2270.00
34.1573 2482.00
34.2225 2235.00
34.2877 1855.00
34.3529 1614.00
34.4181 1355.00
34.4833 1204.00
34.5485 1188.00
34.6137 1137.00
34.6789 1121.00
34.7441 1132.00
34.8093 1192.00
34.8745 1182.00
34.9397 1227.00
35.0049 1294.00
35.0701 1328.00
35.1353 1499.00
35.2005 1831.00
35.2657 2133.00
35.3309 2573.00
35.3961 2758.00
35.4613 2571.00
35.5265 2336.00
35.5917 2258.00
35.6569 2741.00
35.7221 2927.00
35.7873 3225.00
35.8525 3092.00
35.9177 2629.00
35.9829 2265.00
36.0481 1978.00
36.1133 1637.00
36.1785 1558.00
36.2437 1633.00
36.3089 1723.00
36.3741 1857.00
36.4393 1683.00
36.5045 1406.00
36.5697 1184.00
36.6349 1132.00
36.7001 1072.00
36.7653 1056.00
36.8305 983.00
36.8957 990.00
36.9609 997.00
37.0261 1015.00
37.0913 1022.00
37.1565 949.00
37.2217 1030.00
37.2869 1065.00
37.3521 1008.00
37.4173 1082.00
37.4825 1053.00
37.5477 1023.00
37.6129 1110.00
37.6781 1240.00
37.7433 1452.00
37.8085 1727.00
37.8736 2015.00
37.9388 2050.00
38.004 1950.00
38.0692 1619.00
38.1344 1541.00
38.1996 1388.00
38.2648 1549.00
38.33 1785.00
38.3952 2254.00
38.4604 2917.00
38.5256 3364.00
38.5908 3287.00
38.656 2829.00
38.7212 2166.00
38.7864 1665.00
38.8516 1317.00
38.9168 1241.00
38.982 1064.00
39.0472 1113.00
39.1124 1073.00
39.1776 1028.00
39.2428 980.00
39.308 963.00
39.3732 997.00
39.4384 978.00
39.5036 1060.00
39.5688 1124.00
39.634 1314.00
39.6992 1391.00
39.7644 1382.00
39.8296 1376.00
39.8948 1362.00
39.96 1330.00
40.0252 1316.00
40.0904 1120.00
40.1556 1105.00
40.2208 982.00
40.286 1079.00
40.3512 1039.00
40.4164 1064.00
40.4816 1204.00
40.5468 1257.00
40.612 1374.00
40.6772 1472.00
40.7424 1327.00
40.8076 1104.00
40.8728 1138.00
40.938 1108.00
41.0032 1005.00
41.0684 991.00
41.1336 1048.00
41.1988 963.00
41.264 1049.00
41.3292 1131.00
41.3944 1264.00
41.4596 1289.00
41.5248 1339.00
41.59 1380.00
41.6552 1373.00
41.7204 1344.00
41.7856 1373.00
41.8508 1335.00
41.916 1470.00
41.9812 1490.00
42.0464 1482.00
42.1116 1415.00
42.1768 1333.00
42.242 1285.00
42.3072 1375.00
42.3724 1476.00
42.4376 1394.00
42.5028 1291.00
42.568 1193.00
42.6332 1054.00
42.6983 993.00
42.7635 996.00
42.8287 924.00
42.8939 975.00
42.9591 979.00
43.0243 1103.00
43.0895 1284.00
43.1547 1384.00
43.2199 1541.00
43.2851 1521.00
43.3503 1455.00
43.4155 1373.00
43.4807 1295.00
43.5459 1398.00
43.6111 1382.00
43.6763 1338.00
43.7415 1197.00
43.8067 1234.00
43.8719 1248.00
43.9371 1507.00
44.0023 1577.00
44.0675 1516.00
44.1327 1460.00
44.1979 1314.00
44.2631 1116.00
44.3283 1073.00
44.3935 1021.00
44.4587 1042.00
44.5239 1022.00
44.5891 1053.00
44.6543 1105.00
44.7195 1216.00
44.7847 1215.00
44.8499 1235.00
44.9151 1338.00
44.9803 1443.00
45.0455 1724.00
45.1107 1997.00
45.1759 2146.00
45.2411 1957.00
45.3063 1850.00
45.3715 1651.00
45.4367 1497.00
45.5019 1294.00
45.5671 1280.00
45.6323 1130.00
45.6975 1044.00
45.7627 982.00
45.8279 1047.00
45.8931 1002.00
45.9583 1025.00
46.0235 1178.00
46.0887 1233.00
46.1539 1499.00
46.2191 1684.00
46.2843 1928.00
46.3495 2104.00
46.4147 2130.00
46.4799 1890.00
46.5451 1697.00
46.6103 1664.00
46.6755 1432.00
46.7407 1396.00
46.8059 1371.00
46.8711 1364.00
46.9363 1348.00
47.0015 1288.00
47.0667 1221.00
47.1319 1160.00
47.1971 1013.00
47.2623 1051.00
47.3275 1025.00
47.3927 1035.00
47.4579 1099.00
47.523 1168.00
47.5882 1177.00
47.6534 1085.00
47.7186 996.00
47.7838 1119.00
47.849 1237.00
47.9142 1281.00
47.9794 1707.00
48.0446 2213.00
48.1098 2820.00
48.175 3270.00
48.2402 3561.00
48.3054 3278.00
48.3706 2780.00
48.4358 2449.00
48.501 2010.00
48.5662 1748.00
48.6314 1493.00
48.6966 1419.00
48.7618 1295.00
48.827 1326.00
48.8922 1349.00
48.9574 1390.00
49.0226 1290.00
49.0878 1215.00
49.153 1193.00
49.2182 1037.00
49.2834 1102.00
49.3486 996.00
49.4138 1142.00
49.479 1233.00
49.5442 1439.00
49.6094 1875.00
49.6746 2155.00
49.7398 2278.00
49.805 2358.00
49.8702 2074.00
49.9354 1748.00
50.0006 1440.00
50.0658 1211.00
50.131 1086.00
50.1962 1030.00
50.2614 1034.00
50.3266 944.00
50.3918 933.00
50.457 1011.00
50.5222 927.00
50.5874 1014.00
50.6526 974.00
50.7178 1038.00
50.783 1075.00
50.8482 1146.00
50.9134 1200.00
50.9786 1244.00
51.0438 1153.00
51.109 1163.00
51.1742 1197.00
51.2394 1211.00
51.3046 1352.00
51.3698 1520.00
51.435 1874.00
51.5002 2065.00
51.5654 2294.00
51.6306 2577.00
51.6958 2936.00
51.761 3149.00
51.8262 3228.00
51.8914 3093.00
51.9566 2695.00
52.0218 2077.00
52.087 1737.00
52.1522 1440.00
52.2174 1232.00
52.2826 1134.00
52.3477 1098.00
52.4129 1024.00
52.4781 1021.00
52.5433 987.00
52.6085 1067.00
52.6737 1000.00
52.7389 998.00
52.8041 1352.00
52.8693 1223.00
52.9345 1202.00
52.9997 1145.00
53.0649 993.00
53.1301 980.00
53.1953 978.00
53.2605 922.00
53.3257 986.00
53.3909 984.00
53.4561 943.00
53.5213 970.00
53.5865 984.00
53.6517 975.00
53.7169 1005.00
53.7821 921.00
53.8473 967.00
53.9125 947.00
53.9777 922.00
54.0429 890.00
54.1081 911.00
54.1733 931.00
54.2385 1083.00
54.3037 1137.00
54.3689 1234.00
54.4341 1217.00
54.4993 1417.00
54.5645 1400.00
54.6297 1540.00
54.6949 1806.00
54.7601 2026.00
54.8253 2255.00
54.8905 2463.00
54.9557 2306.00
55.0209 2067.00
55.0861 1849.00
55.1513 1735.00
55.2165 1516.00
55.2817 1476.00
55.3469 1480.00
55.4121 1589.00
55.4773 1665.00
55.5425 1908.00
55.6077 2061.00
55.6729 2185.00
55.7381 2187.00
55.8033 2219.00
55.8685 2158.00
55.9337 2083.00
55.9989 1905.00
56.0641 1659.00
56.1293 1503.00
56.1945 1338.00
56.2597 1217.00
56.3249 1079.00
56.3901 1004.00
56.4553 1042.00
56.5205 955.00
56.5857 908.00
56.6509 942.00
56.7161 861.00
56.7813 891.00
56.8465 996.00
56.9117 914.00
56.9769 1003.00
57.042 1087.00
57.1073 1014.00
57.1724 1025.00
57.2376 1030.00
57.3028 1042.00
57.368 1018.00
57.4332 1002.00
57.4984 945.00
57.5636 993.00
57.6288 1043.00
57.694 1152.00
57.7592 1275.00
57.8244 1081.00
57.8896 1216.00
57.9548 1026.00
58.02 1038.00
58.0852 1055.00
58.1504 1157.00
58.2156 1393.00
58.2808 1562.00
58.346 1896.00
58.4112 1964.00
58.4764 2040.00
58.5416 1950.00
58.6068 1722.00
58.672 1574.00
58.7372 1530.00
58.8024 1345.00
58.8676 1357.00
58.9328 1324.00
58.998 1323.00
59.0632 1221.00
59.1284 1226.00
59.1936 1060.00
59.2588 1022.00
59.324 945.00
59.3892 943.00
59.4544 962.00
59.5196 1032.00
59.5848 1049.00
59.65 1236.00
59.7152 1356.00
59.7804 1631.00
59.8456 1785.00
59.9108 1872.00
59.976 1988.00
60.0412 2081.00
60.1064 2037.00
60.1716 2142.00
60.2368 2322.00
60.302 2371.00
60.3672 2442.00
60.4324 2333.00
60.4976 2227.00
60.5628 1859.00
60.628 1682.00
60.6932 1447.00
60.7584 1283.00
60.8236 1195.00
60.8888 1087.00
60.954 1156.00
61.0192 1193.00
61.0844 1221.00
61.1496 1317.00
61.2148 1423.00
61.28 1484.00
61.3452 1626.00
61.4104 1683.00
61.4756 1679.00
61.5408 1733.00
61.606 1676.00
61.6712 1596.00
61.7364 1675.00
61.8016 1495.00
61.8667 1448.00
61.932 1351.00
61.9971 1346.00
62.0623 1217.00
62.1275 1112.00
62.1927 1102.00
62.2579 1110.00
62.3231 1194.00
62.3883 1132.00
62.4535 1199.00
62.5187 1156.00
62.5839 1134.00
62.6491 1141.00
62.7143 1172.00
62.7795 1135.00
62.8447 1052.00
62.9099 1120.00
62.9751 1125.00
63.0403 1164.00
63.1055 1154.00
63.1707 1239.00
63.2359 1258.00
63.3011 1245.00
63.3663 1176.00
63.4315 1183.00
63.4967 1177.00
63.5619 1125.00
63.6271 1183.00
63.6923 1184.00
63.7575 1242.00
63.8227 1267.00
63.8879 1292.00
63.9531 1360.00
64.0183 1375.00
64.0835 1405.00
64.1487 1561.00
64.2139 1628.00
64.2791 1666.00
64.3443 1839.00
64.4095 1927.00
64.4747 1838.00
64.5399 1718.00
64.6051 1542.00
64.6703 1441.00
64.7355 1266.00
64.8007 1177.00
64.8659 1048.00
64.9311 1091.00
64.9963 1020.00
65.0615 1006.00
65.1267 1022.00
65.1919 1048.00
65.2571 1108.00
65.3223 1147.00
65.3875 1228.00
65.4527 1279.00
65.5179 1194.00
65.5831 1162.00
65.6483 1130.00
65.7135 1173.00
65.7787 1072.00
65.8439 1212.00
65.9091 1281.00
65.9743 1458.00
66.0395 1798.00
66.1047 2005.00
66.1699 2338.00
66.2351 2660.00
66.3003 2671.00
66.3655 2429.00
66.4307 2268.00
66.4959 2058.00
66.561 1782.00
66.6263 1689.00
66.6915 1445.00
66.7566 1392.00
66.8218 1185.00
66.887 1106.00
66.9522 1072.00
67.0174 1002.00
67.0826 995.00
67.1478 1060.00
67.213 1055.00
67.2782 1109.00
67.3434 1097.00
67.4086 1162.00
67.4738 1105.00
67.539 1113.00
67.6042 1112.00
67.6694 1139.00
67.7346 1090.00
67.7998 1089.00
67.865 1059.00
67.9302 1110.00
67.9954 1085.00
68.0606 1103.00
68.1258 1115.00
68.191 1078.00
68.2562 1071.00
68.3214 1080.00
68.3866 1138.00
68.4518 1099.00
68.517 1000.00
68.5822 985.00
68.6474 1152.00
68.7126 1101.00
68.7778 1188.00
68.843 1333.00
68.9082 1332.00
68.9734 1410.00
69.0386 1424.00
69.1038 1461.00
69.169 1498.00
69.2342 1546.00
69.2994 1525.00
69.3646 1528.00
69.4298 1544.00
69.495 1506.00
69.5602 1420.00
69.6254 1376.00
69.6906 1217.00
69.7558 1134.00
69.821 1055.00
69.8862 1001.00
69.9514 1056.00
70.0166 837.00
70.0818 896.00
70.147 896.00
70.2122 885.00
70.2774 988.00
70.3426 925.00
70.4078 1161.00
70.473 1203.00
70.5382 1197.00
70.6034 1325.00
70.6686 1437.00
70.7338 1334.00
70.799 1358.00
70.8642 1262.00
70.9294 1288.00
70.9946 1177.00
71.0598 1103.00
71.125 1140.00
71.1902 1098.00
71.2554 1042.00
71.3205 1092.00
71.3858 1112.00
71.451 1067.00
71.5162 1054.00
71.5813 1011.00
71.6465 971.00
71.7117 924.00
71.7769 932.00
71.8421 907.00
71.9073 880.00
71.9725 868.00
72.0377 858.00
72.1029 850.00
72.1681 838.00
72.2333 820.00
72.2985 837.00
72.3637 797.00
72.4289 824.00
72.4941 871.00
72.5593 903.00
72.6245 894.00
72.6897 797.00
72.7549 850.00
72.8201 882.00
72.8853 880.00
72.9505 887.00
73.0157 924.00
73.0809 1013.00
73.1461 981.00
73.2113 1121.00
73.2765 1093.00
73.3417 1127.00
73.4069 1099.00
73.4721 1124.00
73.5373 1140.00
73.6025 1161.00
73.6677 1003.00
73.7329 1069.00
73.7981 1097.00
73.8633 1044.00
73.9285 1107.00
73.9937 1054.00
74.0589 1033.00
74.1241 991.00
74.1893 1083.00
74.2545 939.00
74.3197 940.00
74.3849 989.00
74.4501 950.00
74.5153 925.00
74.5805 923.00
74.6457 912.00
74.7109 998.00
74.7761 949.00
74.8413 1001.00
74.9065 1016.00
74.9717 996.00
75.0369 1096.00
75.1021 1075.00
75.1673 1158.00
75.2325 1216.00
75.2977 1172.00
75.3629 1216.00
75.4281 1170.00
75.4933 1243.00
75.5585 1168.00
75.6237 1131.00
75.6889 1087.00
75.7541 1075.00
75.8193 1069.00
75.8845 1038.00
75.9497 964.00
76.0149 909.00
76.0801 985.00
76.1452 949.00
76.2104 934.00
76.2756 891.00
76.3409 886.00
76.406 852.00
76.4712 837.00
76.5364 824.00
76.6016 882.00
76.6668 898.00
76.732 869.00
76.7972 871.00
76.8624 858.00
76.9276 841.00
76.9928 927.00
77.058 1140.00
77.1232 1274.00
77.1884 996.00
77.2536 1029.00
77.3188 1236.00
77.384 1159.00
77.4492 1179.00
77.5144 1293.00
77.5796 1176.00
77.6448 1320.00
77.71 1258.00
77.7752 1177.00
77.8404 1133.00
77.9056 1070.00
77.9708 1076.00
78.036 970.00
78.1012 925.00
78.1664 921.00
78.2316 898.00
78.2968 929.00
78.362 937.00
78.4272 948.00
78.4924 921.00
78.5576 896.00
78.6228 947.00
78.688 1014.00
78.7532 1020.00
78.8184 1029.00
78.8836 1102.00
78.9488 1138.00
79.014 1198.00
79.0792 1226.00
79.1444 1272.00
79.2096 1305.00
79.2748 1225.00
79.34 1244.00
79.4052 1255.00
79.4704 1191.00
79.5356 1110.00
79.6008 1047.00
79.666 1043.00
79.7312 1030.00
79.7964 1013.00
79.8616 1008.00
79.9268 981.00
79.992 1038.00
80.0572 1034.00
80.1224 1036.00
80.1876 984.00
80.2528 979.00
80.318 987.00
80.3832 896.00
80.4484 887.00
80.5136 879.00
80.5788 832.00
80.644 901.00
80.7092 867.00
80.7744 924.00
80.8396 836.00
80.9048 922.00
80.9699 905.00
81.0351 927.00
81.1003 933.00
81.1655 895.00
81.2307 889.00
81.2959 951.00
81.3611 881.00
81.4263 986.00
81.4915 887.00
81.5567 908.00
81.6219 850.00
81.6871 920.00
81.7523 917.00
81.8175 909.00
81.8827 952.00
81.9479 973.00
82.0131 941.00
82.0783 980.00
82.1435 1058.00
82.2087 1049.00
82.2739 1025.00
82.3391 1048.00
82.4043 1059.00
82.4695 1087.00
82.5347 1013.00
82.5999 1005.00
82.6651 1006.00
82.7303 896.00
82.7955 870.00
82.8607 909.00
82.9259 878.00
82.9911 831.00
83.0563 799.00
83.1215 866.00
83.1867 850.00
83.2519 869.00
83.3171 915.00
83.3823 945.00
83.4475 958.00
83.5127 995.00
83.5779 972.00
83.6431 985.00
83.7083 995.00
83.7735 959.00
83.8387 949.00
83.9039 1021.00
83.9691 973.00
84.0343 1045.00
84.0995 950.00
84.1647 1024.00
84.2299 924.00
84.2951 956.00
84.3603 981.00
84.4255 996.00
84.4907 911.00
84.5559 938.00
84.6211 959.00
84.6863 933.00
84.7515 959.00
84.8167 973.00
84.8819 919.00
84.9471 957.00
85.0123 957.00
85.0775 941.00
85.1427 916.00
85.2079 886.00
85.2731 889.00
85.3383 938.00
85.4035 946.00
85.4687 929.00
85.5339 935.00
85.5991 951.00
85.6643 968.00
85.7295 943.00
85.7946 979.00
85.8598 942.00
85.925 1014.00
85.9903 1025.00
86.0554 1112.00
86.1206 1036.00
86.1858 1039.00
86.251 1077.00
86.3162 1022.00
86.3814 1064.00
86.4466 968.00
86.5118 1032.00
86.577 1048.00
86.6422 947.00
86.7074 982.00
86.7726 900.00
86.8378 985.00
86.903 935.00
86.9682 951.00
87.0334 897.00
87.0986 980.00
87.1638 1001.00
87.229 1023.00
87.2942 1070.00
87.3594 1069.00
87.4246 1119.00
87.4898 1082.00
87.555 1093.00
87.6202 1076.00
87.6854 1056.00
87.7506 1013.00
87.8158 965.00
87.881 936.00
87.9462 906.00
88.0114 893.00
88.0766 906.00
88.1418 875.00
88.207 878.00
88.2722 859.00
88.3374 891.00
88.4026 834.00
88.4678 835.00
88.533 854.00
88.5982 831.00
88.6634 857.00
88.7286 910.00
88.7938 888.00
88.859 876.00
88.9242 855.00
88.9894 888.00
89.0546 893.00
89.1198 928.00
89.185 985.00
89.2502 960.00
89.3154 924.00
89.3806 878.00
89.4458 948.00
89.511 896.00
89.5762 921.00
89.6414 933.00
89.7066 919.00
89.7718 989.00
89.837 1035.00
89.9022 922.00
89.9674 985.00
90.0326 995.00
90.0978 975.00
90.163 931.00
90.2282 917.00
90.2934 896.00
90.3586 956.00
90.4238 823.00
90.489 932.00
90.5542 858.00
90.6193 835.00
90.6845 878.00
90.7497 822.00
90.8149 907.00
90.8801 927.00
90.9453 956.00
91.0105 827.00
91.0757 847.00
91.1409 886.00
91.2061 902.00
91.2713 1004.00
91.3365 944.00
91.4017 1045.00
91.4669 1010.00
91.5321 1076.00
91.5973 1104.00
91.6625 1139.00
91.7277 1103.00
91.7929 1108.00
91.8581 1059.00
91.9233 1102.00
91.9885 1065.00
92.0537 1118.00
92.1189 1073.00
92.1841 1116.00
92.2493 1080.00
92.3145 1080.00
92.3797 1094.00
92.4449 1094.00
92.5101 1138.00
92.5753 1181.00
92.6405 1236.00
92.7057 1151.00
92.7709 1201.00
92.8361 1144.00
92.9013 1193.00
92.9665 1113.00
93.0317 1049.00
93.0969 1123.00
93.1621 1060.00
93.2273 1023.00
93.2925 962.00
93.3577 882.00
93.4229 1015.00
93.4881 882.00
93.5533 976.00
93.6185 834.00
93.6837 861.00
93.7489 847.00
93.8141 867.00
93.8793 864.00
93.9445 909.00
94.0097 902.00
94.0749 832.00
94.1401 916.00
94.2053 993.00
94.2705 906.00
94.3357 916.00
94.4009 914.00
94.4661 914.00
94.5313 943.00
94.5965 858.00
94.6617 885.00
94.7269 861.00
94.7921 821.00
94.8573 927.00
94.9225 896.00
94.9877 853.00
95.0529 904.00
95.1181 904.00
95.1833 901.00
95.2485 941.00
95.3137 929.00
95.3789 922.00
95.444 949.00
95.5092 995.00
95.5744 948.00
95.6396 956.00
95.7048 986.00
95.77 1051.00
95.8352 985.00
95.9004 946.00
95.9656 947.00
96.0308 917.00
96.096 899.00
96.1612 936.00
96.2264 950.00
96.2916 1007.00
96.3568 971.00
96.422 1004.00
96.4872 959.00
96.5524 967.00
96.6176 964.00
96.6828 923.00
96.748 973.00
96.8132 924.00
96.8784 838.00
96.9436 945.00
97.0088 977.00
97.074 967.00
97.1392 907.00
97.2044 932.00
97.2696 903.00
97.3348 870.00
97.4 861.00
97.4652 888.00
97.5304 835.00
97.5956 877.00
97.6608 850.00
97.726 896.00
97.7912 886.00
97.8564 946.00
97.9216 914.00
97.9868 962.00
98.052 930.00
98.1172 1011.00
98.1824 982.00
98.2476 1032.00
98.3128 972.00
98.378 904.00
98.4432 930.00
98.5084 959.00
98.5736 1012.00
98.6388 950.00
98.704 919.00
98.7692 866.00
98.8344 899.00
98.8996 875.00
98.9648 910.00
99.03 896.00
99.0952 871.00
99.1604 941.00
99.2256 912.00
99.2908 919.00
99.356 936.00
99.4212 903.00
99.4864 912.00
99.5516 969.00
99.6168 976.00
99.682 1010.00
99.7472 1035.00
99.8124 1013.00
99.8776 975.00
99.9428 962.00
100.008 1065.00
100.073 1021.00
100.095 1044.00