File: data/xrd_creation/results/NSC_121.xy
9.903433 2780.00
9.968632 2587.00
10.0338 2629.00
10.099 2620.00
10.1642 2618.00
10.2294 2480.00
10.2946 2596.00
10.3598 2598.00
10.425 2568.00
10.4902 2469.00
10.5554 2564.00
10.6206 2445.00
10.6858 2347.00
10.751 2332.00
10.8162 2332.00
10.8814 2441.00
10.9466 2405.00
11.0118 2349.00
11.077 2290.00
11.1422 2282.00
11.2074 2381.00
11.2726 2228.00
11.3378 2199.00
11.403 2236.00
11.4682 2232.00
11.5334 2131.00
11.5986 2218.00
11.6638 2142.00
11.729 2238.00
11.7942 2053.00
11.8594 2183.00
11.9246 2091.00
11.9898 2122.00
12.055 2038.00
12.1202 2037.00
12.1854 2009.00
12.2506 2004.00
12.3158 2111.00
12.381 2058.00
12.4462 1910.00
12.5114 1981.00
12.5766 1898.00
12.6418 1947.00
12.707 1954.00
12.7722 1960.00
12.8374 1920.00
12.9026 1886.00
12.9678 1884.00
13.033 1889.00
13.0982 1857.00
13.1634 1893.00
13.2286 1855.00
13.2938 1899.00
13.359 1835.00
13.4242 1822.00
13.4894 1930.00
13.5546 1932.00
13.6198 1856.00
13.685 2018.00
13.7502 2177.00
13.8154 2565.00
13.8805 3013.00
13.9457 3506.00
14.0109 3889.00
14.0761 3644.00
14.1413 2754.00
14.2065 2142.00
14.2717 1904.00
14.3369 1776.00
14.4021 1741.00
14.4673 1687.00
14.5325 1723.00
14.5977 1736.00
14.6629 1693.00
14.7281 1713.00
14.7933 1791.00
14.8585 1702.00
14.9237 1697.00
14.9889 1741.00
15.0541 1641.00
15.1193 1689.00
15.1845 1611.00
15.2497 1704.00
15.3149 1624.00
15.3801 1640.00
15.4453 1545.00
15.5105 1582.00
15.5757 1666.00
15.6409 1576.00
15.7061 1680.00
15.7713 1651.00
15.8365 1640.00
15.9017 1696.00
15.9669 1615.00
16.0321 1587.00
16.0973 1603.00
16.1625 1531.00
16.2277 1610.00
16.2929 1623.00
16.3581 1609.00
16.4233 1619.00
16.4885 1626.00
16.5537 1583.00
16.6189 1508.00
16.6841 1536.00
16.7493 1608.00
16.8145 1594.00
16.8797 1457.00
16.9449 1577.00
17.0101 1508.00
17.0753 1571.00
17.1405 1481.00
17.2057 1507.00
17.2709 1533.00
17.3361 1512.00
17.4013 1581.00
17.4665 1484.00
17.5317 1539.00
17.5969 1510.00
17.6621 1505.00
17.7273 1567.00
17.7925 1490.00
17.8577 1566.00
17.9229 1431.00
17.9881 1506.00
18.0533 1439.00
18.1185 1477.00
18.1837 1500.00
18.2489 1491.00
18.3141 1493.00
18.3793 1491.00
18.4445 1600.00
18.5097 1704.00
18.5749 1779.00
18.6401 1812.00
18.7052 1896.00
18.7704 1748.00
18.8356 1723.00
18.9008 1693.00
18.966 1739.00
19.0312 1838.00
19.0964 2093.00
19.1616 2541.00
19.2268 3245.00
19.292 4952.00
19.3572 7321.00
19.4224 10018.00
19.4876 11965.00
19.5528 10866.00
19.618 7457.00
19.6832 4335.00
19.7484 2745.00
19.8136 2428.00
19.8788 2773.00
19.944 3767.00
20.0092 5644.00
20.0744 8768.00
20.1396 12485.00
20.2048 14869.00
20.27 13844.00
20.3352 9302.00
20.4004 4968.00
20.4656 2826.00
20.5308 2148.00
20.596 1933.00
20.6612 1788.00
20.7264 1656.00
20.7916 1593.00
20.8568 1554.00
20.922 1557.00
20.9872 1499.00
21.0524 1569.00
21.1176 1498.00
21.1828 1537.00
21.248 1487.00
21.3132 1581.00
21.3784 1727.00
21.4436 1767.00
21.5088 2012.00
21.574 2155.00
21.6392 2157.00
21.7044 2033.00
21.7696 1868.00
21.8348 1648.00
21.9 1499.00
21.9652 1411.00
22.0304 1373.00
22.0956 1377.00
22.1608 1334.00
22.226 1363.00
22.2912 1302.00
22.3564 1293.00
22.4216 1285.00
22.4868 1295.00
22.552 1317.00
22.6172 1332.00
22.6824 1314.00
22.7476 1284.00
22.8128 1384.00
22.878 1424.00
22.9432 1443.00
23.0084 1539.00
23.0736 1696.00
23.1388 1915.00
23.204 2594.00
23.2692 3719.00
23.3344 5092.00
23.3996 6132.00
23.4647 6013.00
23.5299 4465.00
23.5951 2705.00
23.6603 1817.00
23.7255 1573.00
23.7907 1368.00
23.8559 1354.00
23.9211 1259.00
23.9863 1324.00
24.0515 1359.00
24.1167 1384.00
24.1819 1367.00
24.2471 1444.00
24.3123 1295.00
24.3775 1313.00
24.4427 1278.00
24.5079 1320.00
24.5731 1275.00
24.6383 1259.00
24.7035 1300.00
24.7687 1277.00
24.8339 1189.00
24.8991 1246.00
24.9643 1201.00
25.0295 1163.00
25.0947 1129.00
25.1599 1146.00
25.2251 1197.00
25.2903 1131.00
25.3555 1196.00
25.4207 1166.00
25.4859 1161.00
25.5511 1206.00
25.6163 1123.00
25.6815 1237.00
25.7467 1132.00
25.8119 1167.00
25.8771 1181.00
25.9423 1155.00
26.0075 1194.00
26.0727 1139.00
26.1379 1170.00
26.2031 1128.00
26.2683 1201.00
26.3335 1190.00
26.3987 1146.00
26.4639 1228.00
26.5291 1224.00
26.5943 1255.00
26.6595 1202.00
26.7247 1149.00
26.7899 1108.00
26.8551 982.00
26.9203 1069.00
26.9855 1126.00
27.0507 1090.00
27.1159 1159.00
27.1811 1131.00
27.2463 1095.00
27.3115 1140.00
27.3767 1137.00
27.4419 1169.00
27.5071 1181.00
27.5723 1159.00
27.6375 1194.00
27.7027 1248.00
27.7679 1236.00
27.8331 1314.00
27.8983 1505.00
27.9635 2004.00
28.0287 2916.00
28.0939 4346.00
28.1591 6861.00
28.2243 8826.00
28.2894 8752.00
28.3546 6339.00
28.4198 3663.00
28.485 2227.00
28.5502 1613.00
28.6154 1374.00
28.6806 1251.00
28.7458 1152.00
28.811 1124.00
28.8762 1140.00
28.9414 1061.00
29.0066 1108.00
29.0718 1112.00
29.137 1084.00
29.2022 1088.00
29.2674 1046.00
29.3326 1065.00
29.3978 1025.00
29.463 1105.00
29.5282 1100.00
29.5934 1071.00
29.6586 1054.00
29.7238 1030.00
29.789 1024.00
29.8542 1024.00
29.9194 1093.00
29.9846 1064.00
30.0498 1020.00
30.115 1080.00
30.1802 1172.00
30.2454 1099.00
30.3106 1175.00
30.3758 1110.00
30.441 1144.00
30.5062 1298.00
30.5714 1315.00
30.6366 1424.00
30.7018 1606.00
30.767 1821.00
30.8322 2013.00
30.8974 2307.00
30.9626 3302.00
31.0278 5060.00
31.093 7637.00
31.1582 10893.00
31.2234 11999.00
31.2886 9738.00
31.3538 6258.00
31.419 3824.00
31.4842 2590.00
31.5494 1968.00
31.6146 1737.00
31.6798 1550.00
31.745 1446.00
31.8102 1311.00
31.8754 1268.00
31.9406 1208.00
32.0058 1240.00
32.071 1154.00
32.1362 1263.00
32.2014 1181.00
32.2666 1117.00
32.3318 1072.00
32.397 1061.00
32.4622 1023.00
32.5274 1000.00
32.5926 973.00
32.6578 993.00
32.723 999.00
32.7882 965.00
32.8534 1019.00
32.9186 950.00
32.9838 946.00
33.0489 967.00
33.1141 1019.00
33.1793 1031.00
33.2445 1028.00
33.3097 1028.00
33.3749 997.00
33.4401 1146.00
33.5053 1251.00
33.5705 1398.00
33.6357 1641.00
33.7009 1786.00
33.7661 1752.00
33.8313 1540.00
33.8965 1217.00
33.9617 1089.00
34.0269 1134.00
34.0921 1075.00
34.1573 1141.00
34.2225 1095.00
34.2877 1082.00
34.3529 1167.00
34.4181 1087.00
34.4833 1180.00
34.5485 1247.00
34.6137 1385.00
34.6789 1393.00
34.7441 1801.00
34.8093 2484.00
34.8745 3810.00
34.9397 5490.00
35.0049 6457.00
35.0701 5866.00
35.1353 4435.00
35.2005 3450.00
35.2657 3935.00
35.3309 5341.00
35.3961 7002.00
35.4613 6935.00
35.5265 5394.00
35.5917 3426.00
35.6569 2183.00
35.7221 1635.00
35.7873 1347.00
35.8525 1316.00
35.9177 1206.00
35.9829 1165.00
36.0481 1146.00
36.1133 1257.00
36.1785 1379.00
36.2437 1433.00
36.3089 1353.00
36.3741 1138.00
36.4393 1038.00
36.5045 945.00
36.5697 938.00
36.6349 950.00
36.7001 891.00
36.7653 923.00
36.8305 913.00
36.8957 915.00
36.9609 945.00
37.0261 922.00
37.0913 899.00
37.1565 856.00
37.2217 860.00
37.2869 896.00
37.3521 895.00
37.4173 855.00
37.4825 895.00
37.5477 887.00
37.6129 865.00
37.6781 868.00
37.7433 927.00
37.8085 957.00
37.8736 922.00
37.9388 980.00
38.004 956.00
38.0692 824.00
38.1344 871.00
38.1996 876.00
38.2648 889.00
38.33 868.00
38.3952 878.00
38.4604 813.00
38.5256 825.00
38.5908 834.00
38.656 889.00
38.7212 882.00
38.7864 870.00
38.8516 870.00
38.9168 898.00
38.982 873.00
39.0472 866.00
39.1124 866.00
39.1776 922.00
39.2428 929.00
39.308 981.00
39.3732 998.00
39.4384 1148.00
39.5036 1309.00
39.5688 1675.00
39.634 1903.00
39.6992 1822.00
39.7644 1537.00
39.8296 1163.00
39.8948 990.00
39.96 931.00
40.0252 875.00
40.0904 823.00
40.1556 842.00
40.2208 861.00
40.286 836.00
40.3512 902.00
40.4164 848.00
40.4816 839.00
40.5468 909.00
40.612 850.00
40.6772 872.00
40.7424 964.00
40.8076 984.00
40.8728 1119.00
40.938 1341.00
41.0032 1765.00
41.0684 2247.00
41.1336 2622.00
41.1988 2507.00
41.264 2358.00
41.3292 2095.00
41.3944 2072.00
41.4596 2166.00
41.5248 2205.00
41.59 1923.00
41.6552 1664.00
41.7204 1300.00
41.7856 1085.00
41.8508 1000.00
41.916 1017.00
41.9812 1014.00
42.0464 1012.00
42.1116 920.00
42.1768 962.00
42.242 944.00
42.3072 926.00
42.3724 910.00
42.4376 866.00
42.5028 908.00
42.568 905.00
42.6332 1041.00
42.6983 1157.00
42.7635 1485.00
42.8287 2003.00
42.8939 2716.00
42.9591 3131.00
43.0243 2879.00
43.0895 2243.00
43.1547 1600.00
43.2199 1185.00
43.2851 1052.00
43.3503 976.00
43.4155 934.00
43.4807 993.00
43.5459 1019.00
43.6111 1173.00
43.6763 1216.00
43.7415 1097.00
43.8067 1077.00
43.8719 989.00
43.9371 896.00
44.0023 914.00
44.0675 868.00
44.1327 884.00
44.1979 911.00
44.2631 884.00
44.3283 888.00
44.3935 948.00
44.4587 990.00
44.5239 1019.00
44.5891 1160.00
44.6543 1255.00
44.7195 1664.00
44.7847 2358.00
44.8499 3125.00
44.9151 3332.00
44.9803 2978.00
45.0455 2243.00
45.1107 1578.00
45.1759 1181.00
45.2411 1049.00
45.3063 924.00
45.3715 940.00
45.4367 936.00
45.5019 1038.00
45.5671 1038.00
45.6323 1157.00
45.6975 1379.00
45.7627 1848.00
45.8279 2726.00
45.8931 3628.00
45.9583 3487.00
46.0235 3001.00
46.0887 2246.00
46.1539 1648.00
46.2191 1318.00
46.2843 1312.00
46.3495 1323.00
46.4147 1502.00
46.4799 1758.00
46.5451 2206.00
46.6103 2419.00
46.6755 2270.00
46.7407 1791.00
46.8059 1501.00
46.8711 1090.00
46.9363 1042.00
47.0015 953.00
47.0667 942.00
47.1319 935.00
47.1971 925.00
47.2623 922.00
47.3275 948.00
47.3927 960.00
47.4579 1044.00
47.523 1073.00
47.5882 1176.00
47.6534 1399.00
47.7186 1757.00
47.7838 2631.00
47.849 3680.00
47.9142 4531.00
47.9794 4428.00
48.0446 3531.00
48.1098 2613.00
48.175 1868.00
48.2402 1486.00
48.3054 1382.00
48.3706 1239.00
48.4358 1165.00
48.501 1301.00
48.5662 1309.00
48.6314 1267.00
48.6966 1085.00
48.7618 1073.00
48.827 931.00
48.8922 904.00
48.9574 791.00
49.0226 835.00
49.0878 800.00
49.153 916.00
49.2182 867.00
49.2834 874.00
49.3486 906.00
49.4138 962.00
49.479 1013.00
49.5442 1075.00
49.6094 1138.00
49.6746 1088.00
49.7398 993.00
49.805 890.00
49.8702 890.00
49.9354 841.00
50.0006 862.00
50.0658 881.00
50.131 827.00
50.1962 885.00
50.2614 917.00
50.3266 936.00
50.3918 1020.00
50.457 1032.00
50.5222 1181.00
50.5874 1344.00
50.6526 1474.00
50.7178 1451.00
50.783 1412.00
50.8482 1330.00
50.9134 1367.00
50.9786 1488.00
51.0438 1662.00
51.109 2131.00
51.1742 2891.00
51.2394 3805.00
51.3046 4215.00
51.3698 3966.00
51.435 3168.00
51.5002 2226.00
51.5654 1604.00
51.6306 1398.00
51.6958 1295.00
51.761 1205.00
51.8262 1066.00
51.8914 929.00
51.9566 943.00
52.0218 823.00
52.087 845.00
52.1522 812.00
52.2174 826.00
52.2826 784.00
52.3477 814.00
52.4129 845.00
52.4781 840.00
52.5433 793.00
52.6085 876.00
52.6737 867.00
52.7389 791.00
52.8041 819.00
52.8693 808.00
52.9345 811.00
52.9997 838.00
53.0649 805.00
53.1301 845.00
53.1953 767.00
53.2605 804.00
53.3257 878.00
53.3909 773.00
53.4561 814.00
53.5213 819.00
53.5865 818.00
53.6517 870.00
53.7169 827.00
53.7821 934.00
53.8473 951.00
53.9125 1003.00
53.9777 1139.00
54.0429 1329.00
54.1081 1636.00
54.1733 2018.00
54.2385 2035.00
54.3037 1923.00
54.3689 1553.00
54.4341 1324.00
54.4993 1171.00
54.5645 1092.00
54.6297 1159.00
54.6949 1181.00
54.7601 1186.00
54.8253 1340.00
54.8905 1570.00
54.9557 2035.00
55.0209 2858.00
55.0861 3111.00
55.1513 3312.00
55.2165 3618.00
55.2817 4257.00
55.3469 4623.00
55.4121 4528.00
55.4773 3986.00
55.5425 3271.00
55.6077 2318.00
55.6729 1777.00
55.7381 1394.00
55.8033 1234.00
55.8685 1175.00
55.9337 994.00
55.9989 966.00
56.0641 952.00
56.1293 938.00
56.1945 925.00
56.2597 925.00
56.3249 910.00
56.3901 894.00
56.4553 922.00
56.5205 924.00
56.5857 950.00
56.6509 957.00
56.7161 967.00
56.7813 1000.00
56.8465 1024.00
56.9117 975.00
56.9769 898.00
57.042 845.00
57.1073 846.00
57.1724 852.00
57.2376 841.00
57.3028 847.00
57.368 800.00
57.4332 819.00
57.4984 871.00
57.5636 873.00
57.6288 949.00
57.694 908.00
57.7592 939.00
57.8244 968.00
57.8896 1095.00
57.9548 1144.00
58.02 1252.00
58.0852 1553.00
58.1504 1716.00
58.2156 1891.00
58.2808 1880.00
58.346 1859.00
58.4112 1841.00
58.4764 1637.00
58.5416 1420.00
58.6068 1299.00
58.672 1122.00
58.7372 986.00
58.8024 980.00
58.8676 876.00
58.9328 919.00
58.998 866.00
59.0632 818.00
59.1284 845.00
59.1936 858.00
59.2588 873.00
59.324 897.00
59.3892 927.00
59.4544 939.00
59.5196 1057.00
59.5848 1185.00
59.65 1348.00
59.7152 1716.00
59.7804 2320.00
59.8456 2809.00
59.9108 2803.00
59.976 2456.00
60.0412 2118.00
60.1064 1602.00
60.1716 1339.00
60.2368 1154.00
60.302 1064.00
60.3672 1022.00
60.4324 1058.00
60.4976 985.00
60.5628 976.00
60.628 1053.00
60.6932 1116.00
60.7584 1315.00
60.8236 1767.00
60.8888 2486.00
60.954 3024.00
61.0192 2894.00
61.0844 2603.00
61.1496 2301.00
61.2148 1803.00
61.28 1390.00
61.3452 1257.00
61.4104 1108.00
61.4756 1024.00
61.5408 1017.00
61.606 997.00
61.6712 943.00
61.7364 1008.00
61.8016 1004.00
61.8667 1035.00
61.932 1081.00
61.9971 1122.00
62.0623 1263.00
62.1275 1520.00
62.1927 1669.00
62.2579 1909.00
62.3231 1824.00
62.3883 1766.00
62.4535 1717.00
62.5187 1619.00
62.5839 1420.00
62.6491 1190.00
62.7143 1151.00
62.7795 1030.00
62.8447 977.00
62.9099 994.00
62.9751 972.00
63.0403 1068.00
63.1055 1101.00
63.1707 1254.00
63.2359 1487.00
63.3011 1688.00
63.3663 1752.00
63.4315 1816.00
63.4967 1930.00
63.5619 2035.00
63.6271 1897.00
63.6923 1857.00
63.7575 1865.00
63.8227 1953.00
63.8879 1806.00
63.9531 1620.00
64.0183 1468.00
64.0835 1269.00
64.1487 1115.00
64.2139 985.00
64.2791 911.00
64.3443 845.00
64.4095 874.00
64.4747 857.00
64.5399 867.00
64.6051 822.00
64.6703 785.00
64.7355 855.00
64.8007 874.00
64.8659 873.00
64.9311 873.00
64.9963 871.00
65.0615 909.00
65.1267 922.00
65.1919 977.00
65.2571 1012.00
65.3223 1006.00
65.3875 944.00
65.4527 900.00
65.5179 843.00
65.5831 949.00
65.6483 964.00
65.7135 950.00
65.7787 972.00
65.8439 1095.00
65.9091 1219.00
65.9743 1224.00
66.0395 1472.00
66.1047 1826.00
66.1699 1945.00
66.2351 1930.00
66.3003 1780.00
66.3655 1576.00
66.4307 1386.00
66.4959 1164.00
66.561 1040.00
66.6263 960.00
66.6915 887.00
66.7566 872.00
66.8218 924.00
66.887 936.00
66.9522 1051.00
67.0174 1110.00
67.0826 1308.00
67.1478 1657.00
67.213 1800.00
67.2782 1628.00
67.3434 1542.00
67.4086 1583.00
67.4738 1418.00
67.539 1325.00
67.6042 1450.00
67.6694 1551.00
67.7346 1777.00
67.7998 1698.00
67.865 1568.00
67.9302 1471.00
67.9954 1211.00
68.0606 1011.00
68.1258 920.00
68.191 912.00
68.2562 922.00
68.3214 866.00
68.3866 890.00
68.4518 955.00
68.517 906.00
68.5822 1005.00
68.6474 1002.00
68.7126 1207.00
68.7778 1315.00
68.843 1287.00
68.9082 1185.00
68.9734 1131.00
69.0386 1069.00
69.1038 964.00
69.169 885.00
69.2342 851.00
69.2994 793.00
69.3646 833.00
69.4298 736.00
69.495 838.00
69.5602 756.00
69.6254 748.00
69.6906 750.00
69.7558 776.00
69.821 778.00
69.8862 802.00
69.9514 770.00
70.0166 795.00
70.0818 813.00
70.147 805.00
70.2122 816.00
70.2774 803.00
70.3426 815.00
70.4078 892.00
70.473 879.00
70.5382 851.00
70.6034 891.00
70.6686 885.00
70.7338 1042.00
70.799 1127.00
70.8642 1500.00
70.9294 1753.00
70.9946 1877.00
71.0598 1732.00
71.125 1601.00
71.1902 1518.00
71.2554 1260.00
71.3205 1121.00
71.3858 982.00
71.451 890.00
71.5162 857.00
71.5813 833.00
71.6465 810.00
71.7117 834.00
71.7769 769.00
71.8421 786.00
71.9073 798.00
71.9725 817.00
72.0377 822.00
72.1029 787.00
72.1681 798.00
72.2333 791.00
72.2985 835.00
72.3637 892.00
72.4289 803.00
72.4941 782.00
72.5593 783.00
72.6245 771.00
72.6897 814.00
72.7549 779.00
72.8201 844.00
72.8853 793.00
72.9505 829.00
73.0157 796.00
73.0809 797.00
73.1461 817.00
73.2113 835.00
73.2765 847.00
73.3417 873.00
73.4069 970.00
73.4721 1027.00
73.5373 1133.00
73.6025 1305.00
73.6677 1547.00
73.7329 1564.00
73.7981 1497.00
73.8633 1457.00
73.9285 1445.00
73.9937 1334.00
74.0589 1221.00
74.1241 1016.00
74.1893 1023.00
74.2545 993.00
74.3197 908.00
74.3849 971.00
74.4501 947.00
74.5153 891.00
74.5805 1011.00
74.6457 989.00
74.7109 1071.00
74.7761 1188.00
74.8413 1486.00
74.9065 1691.00
74.9717 1531.00
75.0369 1439.00
75.1021 1503.00
75.1673 1431.00
75.2325 1350.00
75.2977 1234.00
75.3629 1149.00
75.4281 1193.00
75.4933 1064.00
75.5585 1073.00
75.6237 1019.00
75.6889 962.00
75.7541 911.00
75.8193 881.00
75.8845 853.00
75.9497 836.00
76.0149 802.00
76.0801 789.00
76.1452 827.00
76.2104 804.00
76.2756 744.00
76.3409 781.00
76.406 734.00
76.4712 777.00
76.5364 774.00
76.6016 832.00
76.6668 856.00
76.732 860.00
76.7972 882.00
76.8624 834.00
76.9276 829.00
76.9928 875.00
77.058 874.00
77.1232 826.00
77.1884 928.00
77.2536 933.00
77.3188 1017.00
77.384 1013.00
77.4492 990.00
77.5144 981.00
77.5796 948.00
77.6448 904.00
77.71 892.00
77.7752 805.00
77.8404 831.00
77.9056 862.00
77.9708 852.00
78.036 858.00
78.1012 906.00
78.1664 967.00
78.2316 1113.00
78.2968 1182.00
78.362 1274.00
78.4272 1393.00
78.4924 1561.00
78.5576 1675.00
78.6228 1705.00
78.688 1683.00
78.7532 1843.00
78.8184 1808.00
78.8836 1656.00
78.9488 1498.00
79.014 1412.00
79.0792 1387.00
79.1444 1211.00
79.2096 1100.00
79.2748 1027.00
79.34 926.00
79.4052 901.00
79.4704 891.00
79.5356 863.00
79.6008 873.00
79.666 919.00
79.7312 980.00
79.7964 948.00
79.8616 950.00
79.9268 891.00
79.992 908.00
80.0572 895.00
80.1224 821.00
80.1876 811.00
80.2528 789.00
80.318 795.00
80.3832 779.00
80.4484 826.00
80.5136 823.00
80.5788 822.00
80.644 960.00
80.7092 1051.00
80.7744 1153.00
80.8396 1214.00
80.9048 1503.00
80.9699 1405.00
81.0351 1357.00
81.1003 1276.00
81.1655 1231.00
81.2307 1124.00
81.2959 1043.00
81.3611 971.00
81.4263 855.00
81.4915 861.00
81.5567 810.00
81.6219 796.00
81.6871 791.00
81.7523 801.00
81.8175 852.00
81.8827 804.00
81.9479 817.00
82.0131 769.00
82.0783 822.00
82.1435 822.00
82.2087 861.00
82.2739 856.00
82.3391 934.00
82.4043 957.00
82.4695 947.00
82.5347 884.00
82.5999 976.00
82.6651 915.00
82.7303 880.00
82.7955 831.00
82.8607 855.00
82.9259 797.00
82.9911 843.00
83.0563 939.00
83.1215 873.00
83.1867 982.00
83.2519 1127.00
83.3171 1309.00
83.3823 1367.00
83.4475 1437.00
83.5127 1267.00
83.5779 1303.00
83.6431 1280.00
83.7083 1086.00
83.7735 956.00
83.8387 999.00
83.9039 977.00
83.9691 864.00
84.0343 908.00
84.0995 860.00
84.1647 867.00
84.2299 816.00
84.2951 841.00
84.3603 840.00
84.4255 871.00
84.4907 919.00
84.5559 850.00
84.6211 1010.00
84.6863 1124.00
84.7515 1117.00
84.8167 1082.00
84.8819 1003.00
84.9471 1077.00
85.0123 1067.00
85.0775 981.00
85.1427 1030.00
85.2079 978.00
85.2731 1005.00
85.3383 1109.00
85.4035 1163.00
85.4687 1091.00
85.5339 1137.00
85.5991 1026.00
85.6643 1006.00
85.7295 1050.00
85.7946 967.00
85.8598 1028.00
85.925 944.00
85.9903 1030.00
86.0554 1054.00
86.1206 1070.00
86.1858 1125.00
86.251 1017.00
86.3162 919.00
86.3814 918.00
86.4466 1074.00
86.5118 971.00
86.577 966.00
86.6422 882.00
86.7074 948.00
86.7726 998.00
86.8378 913.00
86.903 927.00
86.9682 893.00
87.0334 895.00
87.0986 909.00
87.1638 869.00
87.229 842.00
87.2942 755.00
87.3594 845.00
87.4246 767.00
87.4898 770.00
87.555 819.00
87.6202 773.00
87.6854 852.00
87.7506 840.00
87.8158 868.00
87.881 876.00
87.9462 931.00
88.0114 1092.00
88.0766 1001.00
88.1418 1015.00
88.207 1005.00
88.2722 955.00
88.3374 938.00
88.4026 934.00
88.4678 911.00
88.533 861.00
88.5982 830.00
88.6634 876.00
88.7286 930.00
88.7938 919.00
88.859 948.00
88.9242 1016.00
88.9894 1011.00
89.0546 1024.00
89.1198 1127.00
89.185 1159.00
89.2502 1311.00
89.3154 1346.00
89.3806 1362.00
89.4458 1665.00
89.511 1674.00
89.5762 1527.00
89.6414 1401.00
89.7066 1380.00
89.7718 1355.00
89.837 1221.00
89.9022 1130.00
89.9674 1032.00
90.0326 966.00
90.0978 891.00
90.163 862.00
90.2282 901.00
90.2934 908.00
90.3586 906.00
90.4238 940.00
90.489 885.00
90.5542 855.00
90.6193 856.00
90.6845 847.00
90.7497 901.00
90.8149 887.00
90.8801 826.00
90.9453 919.00
91.0105 886.00
91.0757 849.00
91.1409 881.00
91.2061 898.00
91.2713 901.00
91.3365 946.00
91.4017 994.00
91.4669 1082.00
91.5321 1170.00
91.5973 1297.00
91.6625 1164.00
91.7277 1230.00
91.7929 1196.00
91.8581 1261.00
91.9233 1126.00
91.9885 1019.00
92.0537 1049.00
92.1189 1045.00
92.1841 951.00
92.2493 1009.00
92.3145 905.00
92.3797 982.00
92.4449 1046.00
92.5101 1116.00
92.5753 1027.00
92.6405 1003.00
92.7057 934.00
92.7709 982.00
92.8361 911.00
92.9013 881.00
92.9665 834.00
93.0317 823.00
93.0969 831.00
93.1621 878.00
93.2273 839.00
93.2925 828.00
93.3577 899.00
93.4229 812.00
93.4881 844.00
93.5533 910.00
93.6185 890.00
93.6837 891.00
93.7489 971.00
93.8141 1085.00
93.8793 1116.00
93.9445 1103.00
94.0097 1172.00
94.0749 1063.00
94.1401 1050.00
94.2053 1068.00
94.2705 999.00
94.3357 901.00
94.4009 896.00
94.4661 909.00
94.5313 915.00
94.5965 892.00
94.6617 919.00
94.7269 914.00
94.7921 896.00
94.8573 937.00
94.9225 997.00
94.9877 1165.00
95.0529 1195.00
95.1181 1311.00
95.1833 1254.00
95.2485 1108.00
95.3137 1050.00
95.3789 1093.00
95.444 1108.00
95.5092 1041.00
95.5744 948.00
95.6396 908.00
95.7048 926.00
95.77 936.00
95.8352 962.00
95.9004 992.00
95.9656 1144.00
96.0308 1205.00
96.096 1202.00
96.1612 1090.00
96.2264 1147.00
96.2916 1090.00
96.3568 1174.00
96.422 1212.00
96.4872 1267.00
96.5524 1307.00
96.6176 1218.00
96.6828 1097.00
96.748 1028.00
96.8132 1008.00
96.8784 1048.00
96.9436 1026.00
97.0088 892.00
97.074 877.00
97.1392 837.00
97.2044 839.00
97.2696 804.00
97.3348 837.00
97.4 814.00
97.4652 791.00
97.5304 802.00
97.5956 807.00
97.6608 818.00
97.726 805.00
97.7912 808.00
97.8564 760.00
97.9216 788.00
97.9868 777.00
98.052 797.00
98.1172 831.00
98.1824 771.00
98.2476 779.00
98.3128 801.00
98.378 772.00
98.4432 790.00
98.5084 781.00
98.5736 810.00
98.6388 854.00
98.704 852.00
98.7692 950.00
98.8344 1033.00
98.8996 1088.00
98.9648 915.00
99.03 952.00
99.0952 927.00
99.1604 946.00
99.2256 1001.00
99.2908 982.00
99.356 999.00
99.4212 949.00
99.4864 951.00
99.5516 990.00
99.6168 978.00
99.682 1060.00
99.7472 1069.00
99.8124 1200.00
99.8776 1122.00
99.9428 1157.00
100.008 1170.00
100.073 1198.00
100.095 1155.00