File: data/xrd_creation/results/NSC_91.xy
9.903433 2671.00
9.968632 2743.00
10.0338 2705.00
10.099 2687.00
10.1642 2554.00
10.2294 2630.00
10.2946 2585.00
10.3598 2598.00
10.425 2451.00
10.4902 2469.00
10.5554 2515.00
10.6206 2429.00
10.6858 2487.00
10.751 2415.00
10.8162 2409.00
10.8814 2432.00
10.9466 2326.00
11.0118 2366.00
11.077 2303.00
11.1422 2230.00
11.2074 2297.00
11.2726 2208.00
11.3378 2355.00
11.403 2220.00
11.4682 2242.00
11.5334 2116.00
11.5986 2155.00
11.6638 2180.00
11.729 2162.00
11.7942 2183.00
11.8594 2244.00
11.9246 2144.00
11.9898 2061.00
12.055 2114.00
12.1202 2105.00
12.1854 2108.00
12.2506 1934.00
12.3158 2048.00
12.381 2029.00
12.4462 1937.00
12.5114 1939.00
12.5766 1982.00
12.6418 1899.00
12.707 1952.00
12.7722 1899.00
12.8374 1863.00
12.9026 1909.00
12.9678 1861.00
13.033 1888.00
13.0982 1836.00
13.1634 1802.00
13.2286 1883.00
13.2938 1917.00
13.359 1790.00
13.4242 1804.00
13.4894 1790.00
13.5546 1796.00
13.6198 1824.00
13.685 1848.00
13.7502 1815.00
13.8154 1709.00
13.8805 1745.00
13.9457 1799.00
14.0109 1707.00
14.0761 1892.00
14.1413 1914.00
14.2065 2001.00
14.2717 2118.00
14.3369 2183.00
14.4021 2309.00
14.4673 2404.00
14.5325 2565.00
14.5977 2952.00
14.6629 3591.00
14.7281 3134.00
14.7933 1924.00
14.8585 1675.00
14.9237 1714.00
14.9889 1660.00
15.0541 1786.00
15.1193 1729.00
15.1845 1634.00
15.2497 1581.00
15.3149 1663.00
15.3801 1614.00
15.4453 1682.00
15.5105 1596.00
15.5757 1615.00
15.6409 1606.00
15.7061 1578.00
15.7713 1577.00
15.8365 1519.00
15.9017 1551.00
15.9669 1597.00
16.0321 1579.00
16.0973 1552.00
16.1625 1578.00
16.2277 1587.00
16.2929 1577.00
16.3581 1491.00
16.4233 1558.00
16.4885 1470.00
16.5537 1515.00
16.6189 1531.00
16.6841 1482.00
16.7493 1561.00
16.8145 1523.00
16.8797 1456.00
16.9449 1490.00
17.0101 1561.00
17.0753 1510.00
17.1405 1468.00
17.2057 1545.00
17.2709 1445.00
17.3361 1443.00
17.4013 1470.00
17.4665 1435.00
17.5317 1429.00
17.5969 1375.00
17.6621 1400.00
17.7273 1415.00
17.7925 1396.00
17.8577 1426.00
17.9229 1402.00
17.9881 1429.00
18.0533 1385.00
18.1185 1366.00
18.1837 1399.00
18.2489 1493.00
18.3141 1378.00
18.3793 1436.00
18.4445 1420.00
18.5097 1382.00
18.5749 1390.00
18.6401 1432.00
18.7052 1366.00
18.7704 1387.00
18.8356 1361.00
18.9008 1313.00
18.966 1376.00
19.0312 1336.00
19.0964 1330.00
19.1616 1381.00
19.2268 1345.00
19.292 1397.00
19.3572 1422.00
19.4224 1346.00
19.4876 1466.00
19.5528 1531.00
19.618 1663.00
19.6832 1873.00
19.7484 2206.00
19.8136 2477.00
19.8788 2988.00
19.944 3429.00
20.0092 4506.00
20.0744 6383.00
20.1396 9845.00
20.2048 7560.00
20.27 3040.00
20.3352 1820.00
20.4004 1685.00
20.4656 1657.00
20.5308 1576.00
20.596 1655.00
20.6612 1786.00
20.7264 2144.00
20.7916 2290.00
20.8568 2707.00
20.922 3369.00
20.9872 4023.00
21.0524 5456.00
21.1176 8143.00
21.1828 12032.00
21.248 8362.00
21.3132 3188.00
21.3784 1792.00
21.4436 1597.00
21.5088 1512.00
21.574 1384.00
21.6392 1413.00
21.7044 1350.00
21.7696 1359.00
21.8348 1249.00
21.9 1325.00
21.9652 1346.00
22.0304 1251.00
22.0956 1176.00
22.1608 1254.00
22.226 1214.00
22.2912 1241.00
22.3564 1206.00
22.4216 1189.00
22.4868 1198.00
22.552 1195.00
22.6172 1213.00
22.6824 1127.00
22.7476 1150.00
22.8128 1147.00
22.878 1128.00
22.9432 1119.00
23.0084 1146.00
23.0736 1116.00
23.1388 1159.00
23.204 1101.00
23.2692 1142.00
23.3344 1125.00
23.3996 1141.00
23.4647 1264.00
23.5299 1135.00
23.5951 1161.00
23.6603 1170.00
23.7255 1218.00
23.7907 1253.00
23.8559 1412.00
23.9211 1498.00
23.9863 1879.00
24.0515 1996.00
24.1167 2344.00
24.1819 2892.00
24.2471 4147.00
24.3123 6646.00
24.3775 7094.00
24.4427 3653.00
24.5079 1770.00
24.5731 1321.00
24.6383 1176.00
24.7035 1163.00
24.7687 1111.00
24.8339 1082.00
24.8991 1108.00
24.9643 1102.00
25.0295 1046.00
25.0947 990.00
25.1599 1038.00
25.2251 944.00
25.2903 1038.00
25.3555 1028.00
25.4207 1033.00
25.4859 968.00
25.5511 952.00
25.6163 977.00
25.6815 979.00
25.7467 1050.00
25.8119 1001.00
25.8771 1056.00
25.9423 1013.00
26.0075 976.00
26.0727 973.00
26.1379 1002.00
26.2031 1015.00
26.2683 983.00
26.3335 1031.00
26.3987 1030.00
26.4639 991.00
26.5291 1040.00
26.5943 1047.00
26.6595 1173.00
26.7247 1255.00
26.7899 1508.00
26.8551 1969.00
26.9203 2506.00
26.9855 1808.00
27.0507 1153.00
27.1159 1016.00
27.1811 954.00
27.2463 996.00
27.3115 918.00
27.3767 893.00
27.4419 910.00
27.5071 853.00
27.5723 841.00
27.6375 912.00
27.7027 866.00
27.7679 893.00
27.8331 910.00
27.8983 884.00
27.9635 918.00
28.0287 821.00
28.0939 871.00
28.1591 899.00
28.2243 891.00
28.2894 903.00
28.3546 938.00
28.4198 919.00
28.485 872.00
28.5502 919.00
28.6154 953.00
28.6806 1025.00
28.7458 999.00
28.811 1091.00
28.8762 1156.00
28.9414 1379.00
29.0066 1708.00
29.0718 2196.00
29.137 3288.00
29.2022 5706.00
29.2674 8203.00
29.3326 5013.00
29.3978 2144.00
29.463 1249.00
29.5282 1088.00
29.5934 991.00
29.6586 981.00
29.7238 879.00
29.789 882.00
29.8542 856.00
29.9194 821.00
29.9846 855.00
30.0498 802.00
30.115 867.00
30.1802 797.00
30.2454 818.00
30.3106 821.00
30.3758 826.00
30.441 871.00
30.5062 817.00
30.5714 820.00
30.6366 811.00
30.7018 814.00
30.767 802.00
30.8322 810.00
30.8974 778.00
30.9626 860.00
31.0278 908.00
31.093 866.00
31.1582 830.00
31.2234 888.00
31.2886 831.00
31.3538 843.00
31.419 923.00
31.4842 882.00
31.5494 996.00
31.6146 1101.00
31.6798 1180.00
31.745 1469.00
31.8102 1829.00
31.8754 2373.00
31.9406 3876.00
32.0058 6837.00
32.071 11651.00
32.1362 9714.00
32.2014 5286.00
32.2666 1997.00
32.3318 1394.00
32.397 1217.00
32.4622 1109.00
32.5274 1153.00
32.5926 1340.00
32.6578 1632.00
32.723 1623.00
32.7882 1262.00
32.8534 978.00
32.9186 839.00
32.9838 788.00
33.0489 785.00
33.1141 760.00
33.1793 800.00
33.2445 791.00
33.3097 804.00
33.3749 793.00
33.4401 766.00
33.5053 744.00
33.5705 740.00
33.6357 753.00
33.7009 785.00
33.7661 762.00
33.8313 759.00
33.8965 761.00
33.9617 921.00
34.0269 1041.00
34.0921 1318.00
34.1573 2035.00
34.2225 2077.00
34.2877 1675.00
34.3529 1463.00
34.4181 1280.00
34.4833 1068.00
34.5485 845.00
34.6137 746.00
34.6789 708.00
34.7441 714.00
34.8093 761.00
34.8745 751.00
34.9397 680.00
35.0049 679.00
35.0701 682.00
35.1353 697.00
35.2005 740.00
35.2657 715.00
35.3309 744.00
35.3961 661.00
35.4613 720.00
35.5265 719.00
35.5917 670.00
35.6569 709.00
35.7221 722.00
35.7873 826.00
35.8525 795.00
35.9177 866.00
35.9829 950.00
36.0481 1110.00
36.1133 1589.00
36.1785 2471.00
36.2437 3978.00
36.3089 3869.00
36.3741 2529.00
36.4393 1368.00
36.5045 1089.00
36.5697 1128.00
36.6349 1347.00
36.7001 1859.00
36.7653 2729.00
36.8305 4670.00
36.8957 5384.00
36.9609 3723.00
37.0261 1990.00
37.0913 1085.00
37.1565 875.00
37.2217 867.00
37.2869 795.00
37.3521 729.00
37.4173 723.00
37.4825 681.00
37.5477 643.00
37.6129 652.00
37.6781 657.00
37.7433 633.00
37.8085 626.00
37.8736 711.00
37.9388 687.00
38.004 612.00
38.0692 698.00
38.1344 760.00
38.1996 850.00
38.2648 1022.00
38.33 923.00
38.3952 787.00
38.4604 675.00
38.5256 649.00
38.5908 648.00
38.656 709.00
38.7212 739.00
38.7864 837.00
38.8516 1016.00
38.9168 884.00
38.982 762.00
39.0472 648.00
39.1124 612.00
39.1776 615.00
39.2428 635.00
39.308 663.00
39.3732 608.00
39.4384 561.00
39.5036 602.00
39.5688 543.00
39.634 643.00
39.6992 616.00
39.7644 555.00
39.8296 589.00
39.8948 633.00
39.96 568.00
40.0252 561.00
40.0904 599.00
40.1556 581.00
40.2208 578.00
40.286 554.00
40.3512 623.00
40.4164 735.00
40.4816 904.00
40.5468 1176.00
40.612 1424.00
40.6772 1175.00
40.7424 883.00
40.8076 682.00
40.8728 622.00
40.938 558.00
41.0032 529.00
41.0684 544.00
41.1336 593.00
41.1988 551.00
41.264 541.00
41.3292 565.00
41.3944 580.00
41.4596 560.00
41.5248 546.00
41.59 592.00
41.6552 613.00
41.7204 575.00
41.7856 589.00
41.8508 617.00
41.916 640.00
41.9812 739.00
42.0464 914.00
42.1116 1165.00
42.1768 1618.00
42.242 1608.00
42.3072 1282.00
42.3724 970.00
42.4376 763.00
42.5028 734.00
42.568 724.00
42.6332 877.00
42.6983 1227.00
42.7635 1505.00
42.8287 1418.00
42.8939 1166.00
42.9591 902.00
43.0243 711.00
43.0895 639.00
43.1547 742.00
43.2199 715.00
43.2851 771.00
43.3503 668.00
43.4155 595.00
43.4807 569.00
43.5459 532.00
43.6111 560.00
43.6763 588.00
43.7415 557.00
43.8067 541.00
43.8719 565.00
43.9371 638.00
44.0023 634.00
44.0675 699.00
44.1327 780.00
44.1979 1017.00
44.2631 1632.00
44.3283 2498.00
44.3935 1964.00
44.4587 1639.00
44.5239 1086.00
44.5891 793.00
44.6543 643.00
44.7195 606.00
44.7847 577.00
44.8499 632.00
44.9151 569.00
44.9803 508.00
45.0455 530.00
45.1107 552.00
45.1759 560.00
45.2411 663.00
45.3063 788.00
45.3715 939.00
45.4367 802.00
45.5019 759.00
45.5671 569.00
45.6323 607.00
45.6975 636.00
45.7627 650.00
45.8279 645.00
45.8931 798.00
45.9583 990.00
46.0235 1589.00
46.0887 2573.00
46.1539 2146.00
46.2191 1780.00
46.2843 1138.00
46.3495 707.00
46.4147 639.00
46.4799 559.00
46.5451 561.00
46.6103 548.00
46.6755 498.00
46.7407 502.00
46.8059 472.00
46.8711 520.00
46.9363 576.00
47.0015 595.00
47.0667 565.00
47.1319 644.00
47.1971 651.00
47.2623 692.00
47.3275 801.00
47.3927 1067.00
47.4579 1636.00
47.523 2980.00
47.5882 3894.00
47.6534 3100.00
47.7186 2296.00
47.7838 1359.00
47.849 808.00
47.9142 637.00
47.9794 623.00
48.0446 512.00
48.1098 585.00
48.175 526.00
48.2402 551.00
48.3054 557.00
48.3706 531.00
48.4358 507.00
48.501 500.00
48.5662 529.00
48.6314 587.00
48.6966 644.00
48.7618 703.00
48.827 713.00
48.8922 709.00
48.9574 637.00
49.0226 587.00
49.0878 658.00
49.153 679.00
49.2182 824.00
49.2834 964.00
49.3486 1268.00
49.4138 2362.00
49.479 3859.00
49.5442 3598.00
49.6094 2568.00
49.6746 1924.00
49.7398 952.00
49.805 716.00
49.8702 612.00
49.9354 581.00
50.0006 535.00
50.0658 530.00
50.131 518.00
50.1962 556.00
50.2614 559.00
50.3266 645.00
50.3918 767.00
50.457 889.00
50.5222 836.00
50.5874 681.00
50.6526 579.00
50.7178 544.00
50.783 501.00
50.8482 499.00
50.9134 488.00
50.9786 512.00
51.0438 473.00
51.109 514.00
51.1742 503.00
51.2394 454.00
51.3046 479.00
51.3698 538.00
51.435 501.00
51.5002 535.00
51.5654 497.00
51.6306 502.00
51.6958 548.00
51.761 525.00
51.8262 584.00
51.8914 648.00
51.9566 884.00
52.0218 1369.00
52.087 1691.00
52.1522 1350.00
52.2174 1351.00
52.2826 1134.00
52.3477 1360.00
52.4129 2301.00
52.4781 3733.00
52.5433 3486.00
52.6085 2723.00
52.6737 1982.00
52.7389 1044.00
52.8041 800.00
52.8693 610.00
52.9345 547.00
52.9997 552.00
53.0649 550.00
53.1301 488.00
53.1953 536.00
53.2605 630.00
53.3257 778.00
53.3909 703.00
53.4561 622.00
53.5213 605.00
53.5865 524.00
53.6517 484.00
53.7169 424.00
53.7821 419.00
53.8473 446.00
53.9125 440.00
53.9777 427.00
54.0429 468.00
54.1081 448.00
54.1733 443.00
54.2385 465.00
54.3037 438.00
54.3689 428.00
54.4341 458.00
54.4993 427.00
54.5645 452.00
54.6297 507.00
54.6949 505.00
54.7601 529.00
54.8253 512.00
54.8905 520.00
54.9557 538.00
55.0209 714.00
55.0861 679.00
55.1513 620.00
55.2165 622.00
55.2817 527.00
55.3469 488.00
55.4121 474.00
55.4773 491.00
55.5425 523.00
55.6077 574.00
55.6729 634.00
55.7381 1030.00
55.8033 1411.00
55.8685 1304.00
55.9337 1136.00
55.9989 953.00
56.0641 651.00
56.1293 537.00
56.1945 492.00
56.2597 488.00
56.3249 460.00
56.3901 511.00
56.4553 482.00
56.5205 471.00
56.5857 510.00
56.6509 473.00
56.7161 555.00
56.7813 531.00
56.8465 624.00
56.9117 792.00
56.9769 1024.00
57.042 1661.00
57.1073 2103.00
57.1724 1983.00
57.2376 1735.00
57.3028 1535.00
57.368 1420.00
57.4332 1793.00
57.4984 2501.00
57.5636 3038.00
57.6288 2473.00
57.694 2046.00
57.7592 1555.00
57.8244 890.00
57.8896 678.00
57.9548 579.00
58.02 545.00
58.0852 639.00
58.1504 549.00
58.2156 519.00
58.2808 539.00
58.346 502.00
58.4112 509.00
58.4764 518.00
58.5416 563.00
58.6068 608.00
58.672 581.00
58.7372 594.00
58.8024 647.00
58.8676 833.00
58.9328 1108.00
58.998 1283.00
59.0632 1063.00
59.1284 1000.00
59.1936 805.00
59.2588 638.00
59.324 486.00
59.3892 482.00
59.4544 420.00
59.5196 456.00
59.5848 458.00
59.65 427.00
59.7152 398.00
59.7804 448.00
59.8456 408.00
59.9108 426.00
59.976 490.00
60.0412 457.00
60.1064 548.00
60.1716 611.00
60.2368 811.00
60.302 761.00
60.3672 658.00
60.4324 660.00
60.4976 532.00
60.5628 464.00
60.628 440.00
60.6932 410.00
60.7584 412.00
60.8236 464.00
60.8888 428.00
60.954 453.00
61.0192 469.00
61.0844 503.00
61.1496 494.00
61.2148 547.00
61.28 722.00
61.3452 863.00
61.4104 1435.00
61.4756 2218.00
61.5408 1914.00
61.606 1347.00
61.6712 1425.00
61.7364 930.00
61.8016 652.00
61.8667 531.00
61.932 532.00
61.9971 482.00
62.0623 540.00
62.1275 656.00
62.1927 673.00
62.2579 705.00
62.3231 674.00
62.3883 649.00
62.4535 707.00
62.5187 679.00
62.5839 628.00
62.6491 625.00
62.7143 718.00
62.7795 658.00
62.8447 738.00
62.9099 768.00
62.9751 1091.00
63.0403 1827.00
63.1055 2609.00
63.1707 2444.00
63.2359 2350.00
63.3011 2366.00
63.3663 1784.00
63.4315 1261.00
63.4967 1023.00
63.5619 792.00
63.6271 687.00
63.6923 537.00
63.7575 514.00
63.8227 486.00
63.8879 519.00
63.9531 410.00
64.0183 466.00
64.0835 504.00
64.1487 444.00
64.2139 414.00
64.2791 472.00
64.3443 504.00
64.4095 533.00
64.4747 620.00
64.5399 654.00
64.6051 630.00
64.6703 606.00
64.7355 537.00
64.8007 538.00
64.8659 498.00
64.9311 548.00
64.9963 633.00
65.0615 568.00
65.1267 550.00
65.1919 575.00
65.2571 519.00
65.3223 490.00
65.3875 485.00
65.4527 587.00
65.5179 641.00
65.5831 973.00
65.6483 1381.00
65.7135 1617.00
65.7787 1309.00
65.8439 1208.00
65.9091 1164.00
65.9743 1062.00
66.0395 1131.00
66.1047 1426.00
66.1699 1395.00
66.2351 1293.00
66.3003 1142.00
66.3655 940.00
66.4307 815.00
66.4959 608.00
66.561 528.00
66.6263 479.00
66.6915 394.00
66.7566 414.00
66.8218 450.00
66.887 397.00
66.9522 470.00
67.0174 416.00
67.0826 459.00
67.1478 500.00
67.213 603.00
67.2782 672.00
67.3434 1018.00
67.4086 1317.00
67.4738 1394.00
67.539 1161.00
67.6042 1081.00
67.6694 856.00
67.7346 644.00
67.7998 541.00
67.865 495.00
67.9302 505.00
67.9954 600.00
68.0606 476.00
68.1258 439.00
68.191 484.00
68.2562 404.00
68.3214 395.00
68.3866 407.00
68.4518 401.00
68.517 368.00
68.5822 369.00
68.6474 377.00
68.7126 358.00
68.7778 360.00
68.843 394.00
68.9082 370.00
68.9734 378.00
69.0386 367.00
69.1038 372.00
69.169 409.00
69.2342 410.00
69.2994 468.00
69.3646 405.00
69.4298 443.00
69.495 525.00
69.5602 673.00
69.6254 805.00
69.6906 1238.00
69.7558 1571.00
69.821 1344.00
69.8862 1079.00
69.9514 1054.00
70.0166 781.00
70.0818 589.00
70.147 459.00
70.2122 400.00
70.2774 405.00
70.3426 402.00
70.4078 352.00
70.473 396.00
70.5382 383.00
70.6034 360.00
70.6686 368.00
70.7338 379.00
70.799 371.00
70.8642 357.00
70.9294 395.00
70.9946 399.00
71.0598 466.00
71.125 513.00
71.1902 533.00
71.2554 659.00
71.3205 705.00
71.3858 549.00
71.451 619.00
71.5162 656.00
71.5813 689.00
71.6465 563.00
71.7117 500.00
71.7769 533.00
71.8421 468.00
71.9073 523.00
71.9725 495.00
72.0377 460.00
72.1029 426.00
72.1681 451.00
72.2333 430.00
72.2985 384.00
72.3637 367.00
72.4289 348.00
72.4941 377.00
72.5593 398.00
72.6245 376.00
72.6897 418.00
72.7549 377.00
72.8201 361.00
72.8853 348.00
72.9505 383.00
73.0157 374.00
73.0809 372.00
73.1461 396.00
73.2113 426.00
73.2765 378.00
73.3417 397.00
73.4069 413.00
73.4721 457.00
73.5373 525.00
73.6025 738.00
73.6677 944.00
73.7329 1069.00
73.7981 1066.00
73.8633 832.00
73.9285 790.00
73.9937 708.00
74.0589 522.00
74.1241 454.00
74.1893 386.00
74.2545 404.00
74.3197 396.00
74.3849 400.00
74.4501 423.00
74.5153 404.00
74.5805 364.00
74.6457 369.00
74.7109 400.00
74.7761 390.00
74.8413 409.00
74.9065 368.00
74.9717 414.00
75.0369 428.00
75.1021 458.00
75.1673 469.00
75.2325 560.00
75.2977 785.00
75.3629 1030.00
75.4281 860.00
75.4933 732.00
75.5585 718.00
75.6237 689.00
75.6889 569.00
75.7541 476.00
75.8193 544.00
75.8845 559.00
75.9497 584.00
76.0149 518.00
76.0801 554.00
76.1452 557.00
76.2104 566.00
76.2756 560.00
76.3409 537.00
76.406 575.00
76.4712 591.00
76.5364 540.00
76.6016 498.00
76.6668 411.00
76.732 403.00
76.7972 426.00
76.8624 357.00
76.9276 362.00
76.9928 351.00
77.058 347.00
77.1232 330.00
77.1884 318.00
77.2536 354.00
77.3188 350.00
77.384 382.00
77.4492 398.00
77.5144 429.00
77.5796 466.00
77.6448 514.00
77.71 470.00
77.7752 489.00
77.8404 610.00
77.9056 742.00
77.9708 782.00
78.036 768.00
78.1012 761.00
78.1664 685.00
78.2316 698.00
78.2968 620.00
78.362 533.00
78.4272 480.00
78.4924 436.00
78.5576 443.00
78.6228 401.00
78.688 347.00
78.7532 429.00
78.8184 415.00
78.8836 471.00
78.9488 508.00
79.014 517.00
79.0792 470.00
79.1444 516.00
79.2096 574.00
79.2748 522.00
79.34 483.00
79.4052 472.00
79.4704 488.00
79.5356 428.00
79.6008 388.00
79.666 429.00
79.7312 439.00
79.7964 464.00
79.8616 463.00
79.9268 452.00
79.992 467.00
80.0572 419.00
80.1224 442.00
80.1876 398.00
80.2528 412.00
80.318 454.00
80.3832 439.00
80.4484 421.00
80.5136 417.00
80.5788 403.00
80.644 371.00
80.7092 379.00
80.7744 367.00
80.8396 347.00
80.9048 350.00
80.9699 348.00
81.0351 374.00
81.1003 432.00
81.1655 406.00
81.2307 567.00
81.2959 577.00
81.3611 802.00
81.4263 873.00
81.4915 860.00
81.5567 783.00
81.6219 846.00
81.6871 876.00
81.7523 837.00
81.8175 767.00
81.8827 741.00
81.9479 622.00
82.0131 550.00
82.0783 529.00
82.1435 475.00
82.2087 420.00
82.2739 375.00
82.3391 380.00
82.4043 374.00
82.4695 393.00
82.5347 402.00
82.5999 398.00
82.6651 414.00
82.7303 458.00
82.7955 576.00
82.8607 682.00
82.9259 850.00
82.9911 1060.00
83.0563 1100.00
83.1215 888.00
83.1867 740.00
83.2519 732.00
83.3171 678.00
83.3823 516.00
83.4475 492.00
83.5127 443.00
83.5779 435.00
83.6431 395.00
83.7083 363.00
83.7735 414.00
83.8387 379.00
83.9039 472.00
83.9691 428.00
84.0343 439.00
84.0995 372.00
84.1647 375.00
84.2299 393.00
84.2951 389.00
84.3603 344.00
84.4255 369.00
84.4907 304.00
84.5559 330.00
84.6211 277.00
84.6863 358.00
84.7515 317.00
84.8167 329.00
84.8819 343.00
84.9471 338.00
85.0123 379.00
85.0775 382.00
85.1427 456.00
85.2079 450.00
85.2731 461.00
85.3383 391.00
85.4035 432.00
85.4687 387.00
85.5339 379.00
85.5991 357.00
85.6643 349.00
85.7295 339.00
85.7946 356.00
85.8598 350.00
85.925 348.00
85.9903 368.00
86.0554 386.00
86.1206 417.00
86.1858 378.00
86.251 425.00
86.3162 405.00
86.3814 496.00
86.4466 563.00
86.5118 649.00
86.577 733.00
86.6422 889.00
86.7074 806.00
86.7726 696.00
86.8378 652.00
86.903 656.00
86.9682 616.00
87.0334 506.00
87.0986 422.00
87.1638 453.00
87.229 411.00
87.2942 432.00
87.3594 460.00
87.4246 473.00
87.4898 507.00
87.555 615.00
87.6202 660.00
87.6854 766.00
87.7506 811.00
87.8158 918.00
87.881 938.00
87.9462 894.00
88.0114 825.00
88.0766 761.00
88.1418 682.00
88.207 573.00
88.2722 541.00
88.3374 445.00
88.4026 419.00
88.4678 396.00
88.533 379.00
88.5982 366.00
88.6634 428.00
88.7286 334.00
88.7938 432.00
88.859 476.00
88.9242 524.00
88.9894 506.00
89.0546 478.00
89.1198 440.00
89.185 435.00
89.2502 431.00
89.3154 415.00
89.3806 428.00
89.4458 399.00
89.511 384.00
89.5762 343.00
89.6414 341.00
89.7066 405.00
89.7718 369.00
89.837 373.00
89.9022 403.00
89.9674 413.00
90.0326 469.00
90.0978 461.00
90.163 403.00
90.2282 405.00
90.2934 485.00
90.3586 438.00
90.4238 478.00
90.489 549.00
90.5542 570.00
90.6193 550.00
90.6845 488.00
90.7497 499.00
90.8149 463.00
90.8801 470.00
90.9453 508.00
91.0105 537.00
91.0757 580.00
91.1409 620.00
91.2061 526.00
91.2713 513.00
91.3365 532.00
91.4017 511.00
91.4669 557.00
91.5321 504.00
91.5973 473.00
91.6625 457.00
91.7277 446.00
91.7929 412.00
91.8581 375.00
91.9233 403.00
91.9885 392.00
92.0537 357.00
92.1189 387.00
92.1841 382.00
92.2493 334.00
92.3145 350.00
92.3797 375.00
92.4449 423.00
92.5101 476.00
92.5753 600.00
92.6405 796.00
92.7057 865.00
92.7709 840.00
92.8361 713.00
92.9013 648.00
92.9665 764.00
93.0317 669.00
93.0969 619.00
93.1621 575.00
93.2273 509.00
93.2925 419.00
93.3577 396.00
93.4229 473.00
93.4881 422.00
93.5533 406.00
93.6185 418.00
93.6837 376.00
93.7489 377.00
93.8141 370.00
93.8793 398.00
93.9445 381.00
94.0097 363.00
94.0749 390.00
94.1401 491.00
94.2053 535.00
94.2705 593.00
94.3357 623.00
94.4009 601.00
94.4661 529.00
94.5313 547.00
94.5965 524.00
94.6617 540.00
94.7269 502.00
94.7921 447.00
94.8573 438.00
94.9225 383.00
94.9877 393.00
95.0529 397.00
95.1181 413.00
95.1833 481.00
95.2485 541.00
95.3137 592.00
95.3789 605.00
95.444 599.00
95.5092 555.00
95.5744 568.00
95.6396 577.00
95.7048 502.00
95.77 512.00
95.8352 519.00
95.9004 413.00
95.9656 456.00
96.0308 392.00
96.096 427.00
96.1612 454.00
96.2264 459.00
96.2916 472.00
96.3568 465.00
96.422 479.00
96.4872 550.00
96.5524 606.00
96.6176 490.00
96.6828 475.00
96.748 445.00
96.8132 474.00
96.8784 384.00
96.9436 398.00
97.0088 361.00
97.074 391.00
97.1392 364.00
97.2044 360.00
97.2696 385.00
97.3348 404.00
97.4 350.00
97.4652 392.00
97.5304 391.00
97.5956 424.00
97.6608 415.00
97.726 449.00
97.7912 480.00
97.8564 562.00
97.9216 655.00
97.9868 797.00
98.052 893.00
98.1172 862.00
98.1824 712.00
98.2476 623.00
98.3128 592.00
98.378 665.00
98.4432 615.00
98.5084 517.00
98.5736 477.00
98.6388 430.00
98.704 416.00
98.7692 374.00
98.8344 415.00
98.8996 355.00
98.9648 349.00
99.03 346.00
99.0952 352.00
99.1604 334.00
99.2256 327.00
99.2908 354.00
99.356 325.00
99.4212 338.00
99.4864 328.00
99.5516 349.00
99.6168 347.00
99.682 352.00
99.7472 352.00
99.8124 370.00
99.8776 403.00
99.9428 432.00
100.008 444.00
100.073 563.00
100.095 572.00