File: data/xrd_creation/results/NSC_203.xy
9.903433 2844.00
9.968632 2684.00
10.0338 2771.00
10.099 2662.00
10.1642 2656.00
10.2294 2730.00
10.2946 2679.00
10.3598 2681.00
10.425 2525.00
10.4902 2530.00
10.5554 2532.00
10.6206 2442.00
10.6858 2560.00
10.751 2464.00
10.8162 2442.00
10.8814 2455.00
10.9466 2452.00
11.0118 2456.00
11.077 2502.00
11.1422 2384.00
11.2074 2391.00
11.2726 2295.00
11.3378 2374.00
11.403 2418.00
11.4682 2298.00
11.5334 2303.00
11.5986 2247.00
11.6638 2294.00
11.729 2229.00
11.7942 2271.00
11.8594 2305.00
11.9246 2132.00
11.9898 2158.00
12.055 2165.00
12.1202 2115.00
12.1854 2184.00
12.2506 2110.00
12.3158 2142.00
12.381 2130.00
12.4462 2106.00
12.5114 2147.00
12.5766 2037.00
12.6418 2076.00
12.707 2014.00
12.7722 2064.00
12.8374 2144.00
12.9026 2032.00
12.9678 2021.00
13.033 2033.00
13.0982 1984.00
13.1634 2030.00
13.2286 2062.00
13.2938 2073.00
13.359 2073.00
13.4242 2035.00
13.4894 2055.00
13.5546 2125.00
13.6198 2101.00
13.685 2237.00
13.7502 2402.00
13.8154 2596.00
13.8805 2790.00
13.9457 2983.00
14.0109 3198.00
14.0761 3059.00
14.1413 2477.00
14.2065 2090.00
14.2717 2010.00
14.3369 1928.00
14.4021 1883.00
14.4673 1830.00
14.5325 1971.00
14.5977 1863.00
14.6629 1915.00
14.7281 1862.00
14.7933 1869.00
14.8585 1874.00
14.9237 1883.00
14.9889 1811.00
15.0541 1902.00
15.1193 1814.00
15.1845 1857.00
15.2497 1776.00
15.3149 1783.00
15.3801 1795.00
15.4453 1826.00
15.5105 1757.00
15.5757 1778.00
15.6409 1721.00
15.7061 1793.00
15.7713 1816.00
15.8365 1785.00
15.9017 1711.00
15.9669 1815.00
16.0321 1745.00
16.0973 1723.00
16.1625 1765.00
16.2277 1802.00
16.2929 1771.00
16.3581 1740.00
16.4233 1730.00
16.4885 1672.00
16.5537 1783.00
16.6189 1680.00
16.6841 1715.00
16.7493 1742.00
16.8145 1675.00
16.8797 1657.00
16.9449 1770.00
17.0101 1778.00
17.0753 1663.00
17.1405 1673.00
17.2057 1687.00
17.2709 1705.00
17.3361 1631.00
17.4013 1631.00
17.4665 1722.00
17.5317 1713.00
17.5969 1694.00
17.6621 1794.00
17.7273 1807.00
17.7925 1876.00
17.8577 1717.00
17.9229 1692.00
17.9881 1691.00
18.0533 1644.00
18.1185 1640.00
18.1837 1644.00
18.2489 1686.00
18.3141 1618.00
18.3793 1650.00
18.4445 1541.00
18.5097 1582.00
18.5749 1668.00
18.6401 1621.00
18.7052 1568.00
18.7704 1679.00
18.8356 1603.00
18.9008 1712.00
18.966 1723.00
19.0312 1828.00
19.0964 1993.00
19.1616 2122.00
19.2268 2342.00
19.292 2761.00
19.3572 3350.00
19.4224 4201.00
19.4876 5267.00
19.5528 6133.00
19.618 6762.00
19.6832 6218.00
19.7484 5586.00
19.8136 5412.00
19.8788 6070.00
19.944 6301.00
20.0092 4536.00
20.0744 2802.00
20.1396 1986.00
20.2048 1682.00
20.27 1617.00
20.3352 1683.00
20.4004 1663.00
20.4656 1573.00
20.5308 1662.00
20.596 1605.00
20.6612 1663.00
20.7264 1748.00
20.7916 1761.00
20.8568 1805.00
20.922 1979.00
20.9872 2143.00
21.0524 2293.00
21.1176 2114.00
21.1828 1722.00
21.248 1624.00
21.3132 1582.00
21.3784 1556.00
21.4436 1567.00
21.5088 1519.00
21.574 1587.00
21.6392 1603.00
21.7044 1614.00
21.7696 1559.00
21.8348 1496.00
21.9 1452.00
21.9652 1442.00
22.0304 1464.00
22.0956 1466.00
22.1608 1515.00
22.226 1391.00
22.2912 1470.00
22.3564 1475.00
22.4216 1548.00
22.4868 1513.00
22.552 1647.00
22.6172 1597.00
22.6824 1569.00
22.7476 1651.00
22.8128 1601.00
22.878 1733.00
22.9432 1951.00
23.0084 2230.00
23.0736 2518.00
23.1388 3072.00
23.204 3349.00
23.2692 3124.00
23.3344 2504.00
23.3996 2077.00
23.4647 1637.00
23.5299 1531.00
23.5951 1448.00
23.6603 1510.00
23.7255 1349.00
23.7907 1462.00
23.8559 1470.00
23.9211 1535.00
23.9863 1552.00
24.0515 1573.00
24.1167 1641.00
24.1819 1740.00
24.2471 1787.00
24.3123 2008.00
24.3775 2137.00
24.4427 1949.00
24.5079 1833.00
24.5731 1798.00
24.6383 1683.00
24.7035 1644.00
24.7687 1696.00
24.8339 1693.00
24.8991 1658.00
24.9643 1580.00
25.0295 1442.00
25.0947 1388.00
25.1599 1346.00
25.2251 1405.00
25.2903 1277.00
25.3555 1360.00
25.4207 1336.00
25.4859 1326.00
25.5511 1369.00
25.6163 1358.00
25.6815 1375.00
25.7467 1311.00
25.8119 1327.00
25.8771 1267.00
25.9423 1294.00
26.0075 1277.00
26.0727 1360.00
26.1379 1325.00
26.2031 1334.00
26.2683 1358.00
26.3335 1254.00
26.3987 1351.00
26.4639 1278.00
26.5291 1307.00
26.5943 1204.00
26.6595 1307.00
26.7247 1310.00
26.7899 1327.00
26.8551 1342.00
26.9203 1336.00
26.9855 1386.00
27.0507 1284.00
27.1159 1279.00
27.1811 1290.00
27.2463 1348.00
27.3115 1351.00
27.3767 1451.00
27.4419 1416.00
27.5071 1598.00
27.5723 1698.00
27.6375 1972.00
27.7027 2379.00
27.7679 2820.00
27.8331 3320.00
27.8983 4099.00
27.9635 4355.00
28.0287 4135.00
28.0939 3356.00
28.1591 2715.00
28.2243 2380.00
28.2894 2431.00
28.3546 2802.00
28.4198 3266.00
28.485 3609.00
28.5502 3940.00
28.6154 3964.00
28.6806 3452.00
28.7458 2542.00
28.811 1888.00
28.8762 1673.00
28.9414 1541.00
29.0066 1391.00
29.0718 1351.00
29.137 1374.00
29.2022 1397.00
29.2674 1397.00
29.3326 1387.00
29.3978 1477.00
29.463 1433.00
29.5282 1341.00
29.5934 1285.00
29.6586 1264.00
29.7238 1290.00
29.789 1293.00
29.8542 1269.00
29.9194 1267.00
29.9846 1235.00
30.0498 1353.00
30.115 1357.00
30.1802 1343.00
30.2454 1433.00
30.3106 1429.00
30.3758 1488.00
30.441 1549.00
30.5062 1718.00
30.5714 1941.00
30.6366 2375.00
30.7018 2723.00
30.767 3351.00
30.8322 3921.00
30.8974 4458.00
30.9626 5466.00
31.0278 6155.00
31.093 6475.00
31.1582 6084.00
31.2234 5287.00
31.2886 3998.00
31.3538 3172.00
31.419 2673.00
31.4842 2487.00
31.5494 2470.00
31.6146 2505.00
31.6798 2717.00
31.745 2952.00
31.8102 3263.00
31.8754 3320.00
31.9406 3111.00
32.0058 2598.00
32.071 1992.00
32.1362 1560.00
32.2014 1428.00
32.2666 1406.00
32.3318 1294.00
32.397 1258.00
32.4622 1277.00
32.5274 1272.00
32.5926 1229.00
32.6578 1290.00
32.723 1265.00
32.7882 1153.00
32.8534 1132.00
32.9186 1202.00
32.9838 1184.00
33.0489 1112.00
33.1141 1202.00
33.1793 1192.00
33.2445 1215.00
33.3097 1289.00
33.3749 1266.00
33.4401 1280.00
33.5053 1226.00
33.5705 1353.00
33.6357 1231.00
33.7009 1288.00
33.7661 1313.00
33.8313 1282.00
33.8965 1318.00
33.9617 1481.00
34.0269 1487.00
34.0921 1614.00
34.1573 2025.00
34.2225 2540.00
34.2877 3176.00
34.3529 4131.00
34.4181 5336.00
34.4833 6667.00
34.5485 7361.00
34.6137 7069.00
34.6789 5850.00
34.7441 4631.00
34.8093 3593.00
34.8745 2754.00
34.9397 2150.00
35.0049 1881.00
35.0701 1554.00
35.1353 1348.00
35.2005 1302.00
35.2657 1244.00
35.3309 1331.00
35.3961 1337.00
35.4613 1428.00
35.5265 1451.00
35.5917 1573.00
35.6569 1699.00
35.7221 1844.00
35.7873 1804.00
35.8525 1604.00
35.9177 1317.00
35.9829 1275.00
36.0481 1205.00
36.1133 1229.00
36.1785 1262.00
36.2437 1219.00
36.3089 1302.00
36.3741 1366.00
36.4393 1203.00
36.5045 1182.00
36.5697 1103.00
36.6349 1041.00
36.7001 1030.00
36.7653 1016.00
36.8305 1026.00
36.8957 1042.00
36.9609 988.00
37.0261 1028.00
37.0913 1066.00
37.1565 1023.00
37.2217 1018.00
37.2869 1019.00
37.3521 992.00
37.4173 1059.00
37.4825 1013.00
37.5477 1013.00
37.6129 1069.00
37.6781 1021.00
37.7433 1011.00
37.8085 946.00
37.8736 1004.00
37.9388 1032.00
38.004 978.00
38.0692 1035.00
38.1344 984.00
38.1996 984.00
38.2648 1013.00
38.33 983.00
38.3952 1016.00
38.4604 978.00
38.5256 1005.00
38.5908 1031.00
38.656 966.00
38.7212 1112.00
38.7864 1052.00
38.8516 1133.00
38.9168 1091.00
38.982 1264.00
39.0472 1217.00
39.1124 1285.00
39.1776 1256.00
39.2428 1127.00
39.308 1127.00
39.3732 1214.00
39.4384 1176.00
39.5036 1163.00
39.5688 1226.00
39.634 1188.00
39.6992 1159.00
39.7644 1143.00
39.8296 1091.00
39.8948 1175.00
39.96 1089.00
40.0252 1193.00
40.0904 1156.00
40.1556 1308.00
40.2208 1213.00
40.286 1139.00
40.3512 1111.00
40.4164 1022.00
40.4816 1164.00
40.5468 1051.00
40.612 1075.00
40.6772 1064.00
40.7424 1090.00
40.8076 1063.00
40.8728 1166.00
40.938 1206.00
41.0032 1217.00
41.0684 1373.00
41.1336 1376.00
41.1988 1548.00
41.264 1518.00
41.3292 1508.00
41.3944 1457.00
41.4596 1485.00
41.5248 1485.00
41.59 1530.00
41.6552 1528.00
41.7204 1623.00
41.7856 1628.00
41.8508 1633.00
41.916 1686.00
41.9812 1725.00
42.0464 1665.00
42.1116 1607.00
42.1768 1581.00
42.242 1548.00
42.3072 1489.00
42.3724 1410.00
42.4376 1360.00
42.5028 1296.00
42.568 1280.00
42.6332 1234.00
42.6983 1172.00
42.7635 1123.00
42.8287 1058.00
42.8939 993.00
42.9591 997.00
43.0243 947.00
43.0895 978.00
43.1547 929.00
43.2199 969.00
43.2851 1003.00
43.3503 947.00
43.4155 908.00
43.4807 986.00
43.5459 924.00
43.6111 1034.00
43.6763 930.00
43.7415 980.00
43.8067 974.00
43.8719 966.00
43.9371 932.00
44.0023 991.00
44.0675 1030.00
44.1327 1151.00
44.1979 1138.00
44.2631 1177.00
44.3283 1280.00
44.3935 1425.00
44.4587 1483.00
44.5239 1573.00
44.5891 1517.00
44.6543 1583.00
44.7195 1685.00
44.7847 1812.00
44.8499 1906.00
44.9151 2059.00
44.9803 2163.00
45.0455 1998.00
45.1107 1852.00
45.1759 1564.00
45.2411 1383.00
45.3063 1218.00
45.3715 1191.00
45.4367 1094.00
45.5019 1009.00
45.5671 1069.00
45.6323 1123.00
45.6975 1086.00
45.7627 1097.00
45.8279 1117.00
45.8931 1134.00
45.9583 1153.00
46.0235 1159.00
46.0887 1248.00
46.1539 1224.00
46.2191 1293.00
46.2843 1264.00
46.3495 1335.00
46.4147 1370.00
46.4799 1439.00
46.5451 1386.00
46.6103 1417.00
46.6755 1507.00
46.7407 1509.00
46.8059 1674.00
46.8711 1978.00
46.9363 2211.00
47.0015 2462.00
47.0667 2767.00
47.1319 2800.00
47.1971 2705.00
47.2623 2324.00
47.3275 2065.00
47.3927 1774.00
47.4579 1591.00
47.523 1379.00
47.5882 1311.00
47.6534 1182.00
47.7186 1095.00
47.7838 1012.00
47.849 1040.00
47.9142 978.00
47.9794 979.00
48.0446 923.00
48.1098 974.00
48.175 988.00
48.2402 995.00
48.3054 977.00
48.3706 962.00
48.4358 994.00
48.501 988.00
48.5662 1044.00
48.6314 987.00
48.6966 1026.00
48.7618 1003.00
48.827 982.00
48.8922 989.00
48.9574 994.00
49.0226 1012.00
49.0878 1021.00
49.153 1080.00
49.2182 1092.00
49.2834 1153.00
49.3486 1235.00
49.4138 1422.00
49.479 1640.00
49.5442 1575.00
49.6094 1590.00
49.6746 1496.00
49.7398 1530.00
49.805 1544.00
49.8702 1409.00
49.9354 1316.00
50.0006 1154.00
50.0658 1107.00
50.131 1073.00
50.1962 1117.00
50.2614 1216.00
50.3266 1216.00
50.3918 1321.00
50.457 1428.00
50.5222 1615.00
50.5874 1856.00
50.6526 2157.00
50.7178 2418.00
50.783 2519.00
50.8482 2455.00
50.9134 2512.00
50.9786 2454.00
51.0438 2326.00
51.109 2211.00
51.1742 2029.00
51.2394 1881.00
51.3046 1718.00
51.3698 1436.00
51.435 1308.00
51.5002 1278.00
51.5654 1221.00
51.6306 1215.00
51.6958 1120.00
51.761 1190.00
51.8262 1081.00
51.8914 1050.00
51.9566 1048.00
52.0218 1042.00
52.087 1018.00
52.1522 954.00
52.2174 909.00
52.2826 888.00
52.3477 881.00
52.4129 964.00
52.4781 893.00
52.5433 889.00
52.6085 890.00
52.6737 927.00
52.7389 936.00
52.8041 996.00
52.8693 959.00
52.9345 926.00
52.9997 966.00
53.0649 1056.00
53.1301 967.00
53.1953 1002.00
53.2605 1107.00
53.3257 1133.00
53.3909 1169.00
53.4561 1337.00
53.5213 1434.00
53.5865 1571.00
53.6517 1827.00
53.7169 2130.00
53.7821 2303.00
53.8473 2569.00
53.9125 2577.00
53.9777 2379.00
54.0429 2195.00
54.1081 1851.00
54.1733 1645.00
54.2385 1453.00
54.3037 1359.00
54.3689 1318.00
54.4341 1178.00
54.4993 1343.00
54.5645 1289.00
54.6297 1195.00
54.6949 1191.00
54.7601 1107.00
54.8253 1023.00
54.8905 1004.00
54.9557 968.00
55.0209 939.00
55.0861 977.00
55.1513 972.00
55.2165 1049.00
55.2817 1093.00
55.3469 1123.00
55.4121 1079.00
55.4773 1183.00
55.5425 1142.00
55.6077 1141.00
55.6729 1194.00
55.7381 1310.00
55.8033 1359.00
55.8685 1382.00
55.9337 1332.00
55.9989 1312.00
56.0641 1248.00
56.1293 1299.00
56.1945 1119.00
56.2597 1021.00
56.3249 1031.00
56.3901 1039.00
56.4553 1128.00
56.5205 1051.00
56.5857 1136.00
56.6509 1126.00
56.7161 1036.00
56.7813 1008.00
56.8465 917.00
56.9117 975.00
56.9769 924.00
57.042 893.00
57.1073 880.00
57.1724 967.00
57.2376 905.00
57.3028 950.00
57.368 1061.00
57.4332 1110.00
57.4984 1051.00
57.5636 1102.00
57.6288 1121.00
57.694 1249.00
57.7592 1140.00
57.8244 1174.00
57.8896 1122.00
57.9548 1092.00
58.02 1070.00
58.0852 1006.00
58.1504 1051.00
58.2156 1022.00
58.2808 1084.00
58.346 1048.00
58.4112 1153.00
58.4764 1195.00
58.5416 1281.00
58.6068 1255.00
58.672 1282.00
58.7372 1313.00
58.8024 1470.00
58.8676 1407.00
58.9328 1480.00
58.998 1576.00
59.0632 1645.00
59.1284 1635.00
59.1936 1726.00
59.2588 1671.00
59.324 1708.00
59.3892 1691.00
59.4544 1859.00
59.5196 1914.00
59.5848 1986.00
59.65 1908.00
59.7152 1916.00
59.7804 1817.00
59.8456 1590.00
59.9108 1568.00
59.976 1428.00
60.0412 1355.00
60.1064 1284.00
60.1716 1229.00
60.2368 1187.00
60.302 1230.00
60.3672 1333.00
60.4324 1299.00
60.4976 1347.00
60.5628 1303.00
60.628 1258.00
60.6932 1237.00
60.7584 1201.00
60.8236 1143.00
60.8888 1105.00
60.954 1089.00
61.0192 1086.00
61.0844 1030.00
61.1496 1096.00
61.2148 1059.00
61.28 1130.00
61.3452 1152.00
61.4104 1304.00
61.4756 1359.00
61.5408 1612.00
61.606 1725.00
61.6712 1809.00
61.7364 1818.00
61.8016 1845.00
61.8667 1796.00
61.932 1715.00
61.9971 1736.00
62.0623 1516.00
62.1275 1427.00
62.1927 1387.00
62.2579 1343.00
62.3231 1286.00
62.3883 1279.00
62.4535 1344.00
62.5187 1255.00
62.5839 1310.00
62.6491 1189.00
62.7143 1160.00
62.7795 1258.00
62.8447 1289.00
62.9099 1216.00
62.9751 1309.00
63.0403 1226.00
63.1055 1164.00
63.1707 1158.00
63.2359 1171.00
63.3011 1206.00
63.3663 1144.00
63.4315 1165.00
63.4967 1104.00
63.5619 1136.00
63.6271 1030.00
63.6923 977.00
63.7575 948.00
63.8227 980.00
63.8879 889.00
63.9531 850.00
64.0183 832.00
64.0835 836.00
64.1487 835.00
64.2139 867.00
64.2791 847.00
64.3443 836.00
64.4095 825.00
64.4747 876.00
64.5399 927.00
64.6051 883.00
64.6703 963.00
64.7355 963.00
64.8007 958.00
64.8659 938.00
64.9311 934.00
64.9963 1006.00
65.0615 935.00
65.1267 1014.00
65.1919 1058.00
65.2571 1103.00
65.3223 1113.00
65.3875 1146.00
65.4527 1214.00
65.5179 1235.00
65.5831 1228.00
65.6483 1209.00
65.7135 1198.00
65.7787 1302.00
65.8439 1198.00
65.9091 1244.00
65.9743 1263.00
66.0395 1274.00
66.1047 1269.00
66.1699 1247.00
66.2351 1274.00
66.3003 1362.00
66.3655 1323.00
66.4307 1322.00
66.4959 1309.00
66.561 1379.00
66.6263 1300.00
66.6915 1351.00
66.7566 1279.00
66.8218 1281.00
66.887 1311.00
66.9522 1236.00
67.0174 1202.00
67.0826 1141.00
67.1478 1143.00
67.213 1006.00
67.2782 1012.00
67.3434 941.00
67.4086 919.00
67.4738 926.00
67.539 889.00
67.6042 868.00
67.6694 825.00
67.7346 879.00
67.7998 850.00
67.865 833.00
67.9302 754.00
67.9954 809.00
68.0606 802.00
68.1258 783.00
68.191 732.00
68.2562 798.00
68.3214 702.00
68.3866 791.00
68.4518 819.00
68.517 824.00
68.5822 827.00
68.6474 867.00
68.7126 954.00
68.7778 984.00
68.843 1018.00
68.9082 1003.00
68.9734 1147.00
69.0386 1188.00
69.1038 1218.00
69.169 1150.00
69.2342 1149.00
69.2994 1096.00
69.3646 1061.00
69.4298 1026.00
69.495 967.00
69.5602 914.00
69.6254 965.00
69.6906 894.00
69.7558 866.00
69.821 868.00
69.8862 823.00
69.9514 824.00
70.0166 843.00
70.0818 839.00
70.147 839.00
70.2122 875.00
70.2774 817.00
70.3426 853.00
70.4078 894.00
70.473 779.00
70.5382 809.00
70.6034 826.00
70.6686 844.00
70.7338 840.00
70.799 897.00
70.8642 850.00
70.9294 847.00
70.9946 815.00
71.0598 844.00
71.125 805.00
71.1902 796.00
71.2554 811.00
71.3205 859.00
71.3858 818.00
71.451 910.00
71.5162 816.00
71.5813 886.00
71.6465 912.00
71.7117 931.00
71.7769 983.00
71.8421 999.00
71.9073 915.00
71.9725 949.00
72.0377 938.00
72.1029 861.00
72.1681 949.00
72.2333 946.00
72.2985 1050.00
72.3637 1034.00
72.4289 1053.00
72.4941 1184.00
72.5593 1195.00
72.6245 1273.00
72.6897 1227.00
72.7549 1274.00
72.8201 1223.00
72.8853 1241.00
72.9505 1136.00
73.0157 1135.00
73.0809 1067.00
73.1461 1055.00
73.2113 1049.00
73.2765 1001.00
73.3417 1011.00
73.4069 962.00
73.4721 998.00
73.5373 923.00
73.6025 946.00
73.6677 911.00
73.7329 975.00
73.7981 859.00
73.8633 894.00
73.9285 907.00
73.9937 851.00
74.0589 918.00
74.1241 843.00
74.1893 867.00
74.2545 901.00
74.3197 867.00
74.3849 849.00
74.4501 908.00
74.5153 874.00
74.5805 843.00
74.6457 835.00
74.7109 851.00
74.7761 852.00
74.8413 877.00
74.9065 819.00
74.9717 812.00
75.0369 840.00
75.1021 838.00
75.1673 824.00
75.2325 857.00
75.2977 847.00
75.3629 833.00
75.4281 873.00
75.4933 899.00
75.5585 910.00
75.6237 872.00
75.6889 908.00
75.7541 986.00
75.8193 995.00
75.8845 1052.00
75.9497 1041.00
76.0149 1057.00
76.0801 1113.00
76.1452 1143.00
76.2104 1121.00
76.2756 1023.00
76.3409 1028.00
76.406 957.00
76.4712 919.00
76.5364 925.00
76.6016 909.00
76.6668 911.00
76.732 859.00
76.7972 908.00
76.8624 921.00
76.9276 872.00
76.9928 927.00
77.058 1048.00
77.1232 1010.00
77.1884 958.00
77.2536 980.00
77.3188 1006.00
77.384 949.00
77.4492 920.00
77.5144 926.00
77.5796 865.00
77.6448 867.00
77.71 846.00
77.7752 818.00
77.8404 771.00
77.9056 793.00
77.9708 814.00
78.036 859.00
78.1012 848.00
78.1664 890.00
78.2316 782.00
78.2968 808.00
78.362 821.00
78.4272 766.00
78.4924 829.00
78.5576 784.00
78.6228 844.00
78.688 820.00
78.7532 786.00
78.8184 769.00
78.8836 792.00
78.9488 761.00
79.014 725.00
79.0792 822.00
79.1444 783.00
79.2096 835.00
79.2748 837.00
79.34 805.00
79.4052 844.00
79.4704 855.00
79.5356 849.00
79.6008 854.00
79.666 942.00
79.7312 914.00
79.7964 893.00
79.8616 851.00
79.9268 917.00
79.992 884.00
80.0572 879.00
80.1224 904.00
80.1876 868.00
80.2528 889.00
80.318 874.00
80.3832 860.00
80.4484 874.00
80.5136 866.00
80.5788 890.00
80.644 961.00
80.7092 976.00
80.7744 1003.00
80.8396 981.00
80.9048 1105.00
80.9699 1100.00
81.0351 1075.00
81.1003 1098.00
81.1655 1033.00
81.2307 973.00
81.2959 1033.00
81.3611 1015.00
81.4263 959.00
81.4915 905.00
81.5567 862.00
81.6219 849.00
81.6871 861.00
81.7523 838.00
81.8175 802.00
81.8827 785.00
81.9479 812.00
82.0131 851.00
82.0783 846.00
82.1435 857.00
82.2087 904.00
82.2739 875.00
82.3391 884.00
82.4043 891.00
82.4695 958.00
82.5347 893.00
82.5999 983.00
82.6651 925.00
82.7303 1017.00
82.7955 941.00
82.8607 978.00
82.9259 991.00
82.9911 915.00
83.0563 894.00
83.1215 890.00
83.1867 884.00
83.2519 932.00
83.3171 858.00
83.3823 873.00
83.4475 890.00
83.5127 909.00
83.5779 896.00
83.6431 810.00
83.7083 847.00
83.7735 871.00
83.8387 862.00
83.9039 857.00
83.9691 865.00
84.0343 809.00
84.0995 887.00
84.1647 866.00
84.2299 884.00
84.2951 779.00
84.3603 810.00
84.4255 762.00
84.4907 805.00
84.5559 843.00
84.6211 817.00
84.6863 880.00
84.7515 849.00
84.8167 838.00
84.8819 849.00
84.9471 842.00
85.0123 832.00
85.0775 847.00
85.1427 839.00
85.2079 865.00
85.2731 830.00
85.3383 809.00
85.4035 790.00
85.4687 841.00
85.5339 857.00
85.5991 798.00
85.6643 818.00
85.7295 871.00
85.7946 832.00
85.8598 898.00
85.925 826.00
85.9903 835.00
86.0554 832.00
86.1206 914.00
86.1858 862.00
86.251 863.00
86.3162 906.00
86.3814 868.00
86.4466 955.00
86.5118 900.00
86.577 924.00
86.6422 949.00
86.7074 917.00
86.7726 913.00
86.8378 957.00
86.903 895.00
86.9682 912.00
87.0334 966.00
87.0986 987.00
87.1638 1058.00
87.229 1050.00
87.2942 1031.00
87.3594 1012.00
87.4246 978.00
87.4898 1002.00
87.555 1026.00
87.6202 1007.00
87.6854 963.00
87.7506 942.00
87.8158 967.00
87.881 925.00
87.9462 961.00
88.0114 959.00
88.0766 945.00
88.1418 864.00
88.207 918.00
88.2722 927.00
88.3374 873.00
88.4026 913.00
88.4678 884.00
88.533 850.00
88.5982 870.00
88.6634 885.00
88.7286 869.00
88.7938 849.00
88.859 878.00
88.9242 844.00
88.9894 902.00
89.0546 841.00
89.1198 935.00
89.185 933.00
89.2502 910.00
89.3154 936.00
89.3806 923.00
89.4458 907.00
89.511 854.00
89.5762 943.00
89.6414 925.00
89.7066 918.00
89.7718 952.00
89.837 892.00
89.9022 910.00
89.9674 925.00
90.0326 955.00
90.0978 901.00
90.163 850.00
90.2282 928.00
90.2934 914.00
90.3586 873.00
90.4238 824.00
90.489 876.00
90.5542 881.00
90.6193 884.00
90.6845 885.00
90.7497 912.00
90.8149 892.00
90.8801 918.00
90.9453 969.00
91.0105 907.00
91.0757 891.00
91.1409 957.00
91.2061 915.00
91.2713 849.00
91.3365 829.00
91.4017 830.00
91.4669 784.00
91.5321 846.00
91.5973 814.00
91.6625 826.00
91.7277 740.00
91.7929 783.00
91.8581 803.00
91.9233 777.00
91.9885 745.00
92.0537 790.00
92.1189 807.00
92.1841 828.00
92.2493 839.00
92.3145 813.00
92.3797 815.00
92.4449 879.00
92.5101 900.00
92.5753 825.00
92.6405 827.00
92.7057 912.00
92.7709 942.00
92.8361 869.00
92.9013 898.00
92.9665 929.00
93.0317 849.00
93.0969 930.00
93.1621 865.00
93.2273 913.00
93.2925 897.00
93.3577 946.00
93.4229 926.00
93.4881 930.00
93.5533 940.00
93.6185 968.00
93.6837 891.00
93.7489 955.00
93.8141 949.00
93.8793 980.00
93.9445 864.00
94.0097 925.00
94.0749 927.00
94.1401 919.00
94.2053 897.00
94.2705 824.00
94.3357 878.00
94.4009 909.00
94.4661 824.00
94.5313 851.00
94.5965 788.00
94.6617 908.00
94.7269 769.00
94.7921 810.00
94.8573 785.00
94.9225 845.00
94.9877 871.00
95.0529 828.00
95.1181 810.00
95.1833 732.00
95.2485 831.00
95.3137 817.00
95.3789 800.00
95.444 770.00
95.5092 860.00
95.5744 800.00
95.6396 824.00
95.7048 841.00
95.77 871.00
95.8352 880.00
95.9004 883.00
95.9656 907.00
96.0308 940.00
96.096 896.00
96.1612 943.00
96.2264 951.00
96.2916 914.00
96.3568 852.00
96.422 875.00
96.4872 838.00
96.5524 873.00
96.6176 911.00
96.6828 838.00
96.748 874.00
96.8132 913.00
96.8784 902.00
96.9436 848.00
97.0088 863.00
97.074 824.00
97.1392 806.00
97.2044 828.00
97.2696 854.00
97.3348 875.00
97.4 913.00
97.4652 928.00
97.5304 933.00
97.5956 962.00
97.6608 858.00
97.726 918.00
97.7912 905.00
97.8564 889.00
97.9216 887.00
97.9868 868.00
98.052 850.00
98.1172 801.00
98.1824 756.00
98.2476 806.00
98.3128 759.00
98.378 787.00
98.4432 772.00
98.5084 775.00
98.5736 794.00
98.6388 761.00
98.704 774.00
98.7692 790.00
98.8344 852.00
98.8996 836.00
98.9648 815.00
99.03 893.00
99.0952 899.00
99.1604 827.00
99.2256 902.00
99.2908 908.00
99.356 884.00
99.4212 945.00
99.4864 841.00
99.5516 928.00
99.6168 901.00
99.682 932.00
99.7472 900.00
99.8124 958.00
99.8776 958.00
99.9428 904.00
100.008 941.00
100.073 1045.00
100.095 928.00