File: data/xrd_creation/results/NSC_179.xy
9.903433 2759.00
9.968632 2734.00
10.0338 2864.00
10.099 2717.00
10.1642 2746.00
10.2294 2737.00
10.2946 2726.00
10.3598 2543.00
10.425 2669.00
10.4902 2582.00
10.5554 2691.00
10.6206 2515.00
10.6858 2541.00
10.751 2515.00
10.8162 2570.00
10.8814 2508.00
10.9466 2538.00
11.0118 2562.00
11.077 2550.00
11.1422 2499.00
11.2074 2490.00
11.2726 2421.00
11.3378 2404.00
11.403 2373.00
11.4682 2375.00
11.5334 2395.00
11.5986 2349.00
11.6638 2367.00
11.729 2350.00
11.7942 2399.00
11.8594 2308.00
11.9246 2342.00
11.9898 2248.00
12.055 2195.00
12.1202 2260.00
12.1854 2176.00
12.2506 2234.00
12.3158 2190.00
12.381 2161.00
12.4462 2192.00
12.5114 2141.00
12.5766 2191.00
12.6418 2193.00
12.707 2142.00
12.7722 2112.00
12.8374 2167.00
12.9026 2117.00
12.9678 2149.00
13.033 2060.00
13.0982 2068.00
13.1634 2128.00
13.2286 2033.00
13.2938 2067.00
13.359 2041.00
13.4242 2034.00
13.4894 2006.00
13.5546 2014.00
13.6198 2060.00
13.685 2105.00
13.7502 2047.00
13.8154 2140.00
13.8805 2172.00
13.9457 2345.00
14.0109 2584.00
14.0761 2895.00
14.1413 3503.00
14.2065 4311.00
14.2717 4939.00
14.3369 2803.00
14.4021 2100.00
14.4673 1965.00
14.5325 1933.00
14.5977 1982.00
14.6629 1946.00
14.7281 2014.00
14.7933 1983.00
14.8585 1859.00
14.9237 1884.00
14.9889 1926.00
15.0541 1944.00
15.1193 1822.00
15.1845 2046.00
15.2497 1948.00
15.3149 2023.00
15.3801 1932.00
15.4453 1979.00
15.5105 1944.00
15.5757 1889.00
15.6409 1909.00
15.7061 1973.00
15.7713 1854.00
15.8365 1893.00
15.9017 1980.00
15.9669 1867.00
16.0321 1930.00
16.0973 1891.00
16.1625 1953.00
16.2277 1947.00
16.2929 1929.00
16.3581 1824.00
16.4233 2016.00
16.4885 1824.00
16.5537 1889.00
16.6189 1948.00
16.6841 1882.00
16.7493 1831.00
16.8145 1846.00
16.8797 1801.00
16.9449 1858.00
17.0101 1867.00
17.0753 1855.00
17.1405 1805.00
17.2057 1723.00
17.2709 1768.00
17.3361 1734.00
17.4013 1868.00
17.4665 1813.00
17.5317 1805.00
17.5969 1750.00
17.6621 1707.00
17.7273 1744.00
17.7925 1797.00
17.8577 1791.00
17.9229 1827.00
17.9881 1717.00
18.0533 1654.00
18.1185 1708.00
18.1837 1717.00
18.2489 1736.00
18.3141 1779.00
18.3793 1752.00
18.4445 1705.00
18.5097 1720.00
18.5749 1697.00
18.6401 1757.00
18.7052 1646.00
18.7704 1652.00
18.8356 1625.00
18.9008 1677.00
18.966 1748.00
19.0312 1719.00
19.0964 1784.00
19.1616 1739.00
19.2268 1805.00
19.292 1846.00
19.3572 1979.00
19.4224 1992.00
19.4876 2261.00
19.5528 2601.00
19.618 3555.00
19.6832 5390.00
19.7484 8594.00
19.8136 12802.00
19.8788 9787.00
19.944 3907.00
20.0092 2977.00
20.0744 3884.00
20.1396 5943.00
20.2048 8971.00
20.27 12228.00
20.3352 8342.00
20.4004 2857.00
20.4656 1971.00
20.5308 1865.00
20.596 1821.00
20.6612 1772.00
20.7264 1618.00
20.7916 1761.00
20.8568 1611.00
20.922 1642.00
20.9872 1701.00
21.0524 1735.00
21.1176 1654.00
21.1828 1644.00
21.248 1660.00
21.3132 1717.00
21.3784 1667.00
21.4436 1616.00
21.5088 1768.00
21.574 1776.00
21.6392 1707.00
21.7044 1595.00
21.7696 1662.00
21.8348 1646.00
21.9 1571.00
21.9652 1603.00
22.0304 1531.00
22.0956 1603.00
22.1608 1587.00
22.226 1532.00
22.2912 1641.00
22.3564 1607.00
22.4216 1572.00
22.4868 1598.00
22.552 1504.00
22.6172 1576.00
22.6824 1565.00
22.7476 1554.00
22.8128 1690.00
22.878 1631.00
22.9432 1625.00
23.0084 1648.00
23.0736 1663.00
23.1388 1832.00
23.204 1844.00
23.2692 2138.00
23.3344 2637.00
23.3996 3967.00
23.4647 6660.00
23.5299 9846.00
23.5951 8324.00
23.6603 3349.00
23.7255 1852.00
23.7907 1704.00
23.8559 1699.00
23.9211 1698.00
23.9863 1549.00
24.0515 1610.00
24.1167 1547.00
24.1819 1485.00
24.2471 1530.00
24.3123 1604.00
24.3775 1515.00
24.4427 1530.00
24.5079 1494.00
24.5731 1464.00
24.6383 1527.00
24.7035 1533.00
24.7687 1563.00
24.8339 1516.00
24.8991 1532.00
24.9643 1507.00
25.0295 1445.00
25.0947 1442.00
25.1599 1440.00
25.2251 1466.00
25.2903 1519.00
25.3555 1379.00
25.4207 1424.00
25.4859 1497.00
25.5511 1436.00
25.6163 1466.00
25.6815 1482.00
25.7467 1392.00
25.8119 1401.00
25.8771 1403.00
25.9423 1455.00
26.0075 1384.00
26.0727 1409.00
26.1379 1474.00
26.2031 1456.00
26.2683 1400.00
26.3335 1442.00
26.3987 1436.00
26.4639 1397.00
26.5291 1311.00
26.5943 1398.00
26.6595 1364.00
26.7247 1372.00
26.7899 1362.00
26.8551 1349.00
26.9203 1378.00
26.9855 1345.00
27.0507 1382.00
27.1159 1374.00
27.1811 1412.00
27.2463 1347.00
27.3115 1343.00
27.3767 1378.00
27.4419 1381.00
27.5071 1385.00
27.5723 1332.00
27.6375 1373.00
27.7027 1430.00
27.7679 1424.00
27.8331 1412.00
27.8983 1438.00
27.9635 1501.00
28.0287 1576.00
28.0939 1673.00
28.1591 2056.00
28.2243 3330.00
28.2894 6161.00
28.3546 10243.00
28.4198 7888.00
28.485 3887.00
28.5502 2252.00
28.6154 1725.00
28.6806 1542.00
28.7458 1502.00
28.811 1452.00
28.8762 1376.00
28.9414 1351.00
29.0066 1345.00
29.0718 1276.00
29.137 1356.00
29.2022 1335.00
29.2674 1362.00
29.3326 1448.00
29.3978 1447.00
29.463 1372.00
29.5282 1330.00
29.5934 1324.00
29.6586 1316.00
29.7238 1231.00
29.789 1285.00
29.8542 1309.00
29.9194 1273.00
29.9846 1338.00
30.0498 1268.00
30.115 1285.00
30.1802 1265.00
30.2454 1293.00
30.3106 1352.00
30.3758 1309.00
30.441 1396.00
30.5062 1387.00
30.5714 1406.00
30.6366 1340.00
30.7018 1388.00
30.767 1398.00
30.8322 1422.00
30.8974 1487.00
30.9626 1499.00
31.0278 1661.00
31.093 1979.00
31.1582 2682.00
31.2234 3935.00
31.2886 5619.00
31.3538 8720.00
31.419 15379.00
31.4842 17475.00
31.5494 9282.00
31.6146 3115.00
31.6798 2014.00
31.745 1979.00
31.8102 1950.00
31.8754 1597.00
31.9406 1491.00
32.0058 1430.00
32.071 1432.00
32.1362 1352.00
32.2014 1281.00
32.2666 1349.00
32.3318 1223.00
32.397 1274.00
32.4622 1220.00
32.5274 1266.00
32.5926 1258.00
32.6578 1199.00
32.723 1250.00
32.7882 1179.00
32.8534 1258.00
32.9186 1222.00
32.9838 1207.00
33.0489 1214.00
33.1141 1240.00
33.1793 1236.00
33.2445 1234.00
33.3097 1201.00
33.3749 1158.00
33.4401 1148.00
33.5053 1273.00
33.5705 1226.00
33.6357 1224.00
33.7009 1221.00
33.7661 1229.00
33.8313 1119.00
33.8965 1214.00
33.9617 1226.00
34.0269 1363.00
34.0921 1423.00
34.1573 1536.00
34.2225 1553.00
34.2877 1426.00
34.3529 1299.00
34.4181 1404.00
34.4833 1384.00
34.5485 1440.00
34.6137 1532.00
34.6789 1630.00
34.7441 1689.00
34.8093 2003.00
34.8745 2993.00
34.9397 5004.00
35.0049 5221.00
35.0701 4296.00
35.1353 4994.00
35.2005 9061.00
35.2657 8880.00
35.3309 5495.00
35.3961 2321.00
35.4613 1482.00
35.5265 1413.00
35.5917 1445.00
35.6569 1360.00
35.7221 1214.00
35.7873 1186.00
35.8525 1095.00
35.9177 1170.00
35.9829 1119.00
36.0481 1112.00
36.1133 1187.00
36.1785 1121.00
36.2437 1162.00
36.3089 1144.00
36.3741 1153.00
36.4393 1141.00
36.5045 1125.00
36.5697 1139.00
36.6349 1133.00
36.7001 1079.00
36.7653 1122.00
36.8305 1112.00
36.8957 1159.00
36.9609 1137.00
37.0261 1040.00
37.0913 1116.00
37.1565 1125.00
37.2217 1126.00
37.2869 1090.00
37.3521 1135.00
37.4173 1070.00
37.4825 1074.00
37.5477 1038.00
37.6129 1087.00
37.6781 1068.00
37.7433 1125.00
37.8085 1092.00
37.8736 1093.00
37.9388 1126.00
38.004 1132.00
38.0692 1081.00
38.1344 1046.00
38.1996 1103.00
38.2648 1088.00
38.33 1022.00
38.3952 1106.00
38.4604 1074.00
38.5256 1007.00
38.5908 1048.00
38.656 1078.00
38.7212 1053.00
38.7864 1054.00
38.8516 1091.00
38.9168 1125.00
38.982 1097.00
39.0472 1105.00
39.1124 1046.00
39.1776 1017.00
39.2428 1073.00
39.308 1139.00
39.3732 1100.00
39.4384 1155.00
39.5036 1098.00
39.5688 1074.00
39.634 1050.00
39.6992 1147.00
39.7644 1186.00
39.8296 1498.00
39.8948 1879.00
39.96 1610.00
40.0252 1408.00
40.0904 1221.00
40.1556 1036.00
40.2208 1062.00
40.286 1124.00
40.3512 1069.00
40.4164 1068.00
40.4816 1037.00
40.5468 1112.00
40.612 1052.00
40.6772 1124.00
40.7424 1179.00
40.8076 1596.00
40.8728 1610.00
40.938 1414.00
41.0032 1292.00
41.0684 1186.00
41.1336 1203.00
41.1988 1058.00
41.264 1075.00
41.3292 1104.00
41.3944 1028.00
41.4596 1122.00
41.5248 1206.00
41.59 1301.00
41.6552 1455.00
41.7204 1370.00
41.7856 1249.00
41.8508 1293.00
41.916 1455.00
41.9812 1921.00
42.0464 2122.00
42.1116 1973.00
42.1768 1611.00
42.242 1252.00
42.3072 1128.00
42.3724 1073.00
42.4376 1075.00
42.5028 1141.00
42.568 1292.00
42.6332 1664.00
42.6983 1630.00
42.7635 1650.00
42.8287 1783.00
42.8939 2579.00
42.9591 2347.00
43.0243 2033.00
43.0895 1448.00
43.1547 1132.00
43.2199 1056.00
43.2851 1296.00
43.3503 1544.00
43.4155 1428.00
43.4807 1412.00
43.5459 1194.00
43.6111 1054.00
43.6763 1043.00
43.7415 1062.00
43.8067 1018.00
43.8719 1074.00
43.9371 1044.00
44.0023 999.00
44.0675 1088.00
44.1327 1068.00
44.1979 1064.00
44.2631 1048.00
44.3283 1026.00
44.3935 1014.00
44.4587 1037.00
44.5239 1069.00
44.5891 1067.00
44.6543 1083.00
44.7195 1047.00
44.7847 1056.00
44.8499 1139.00
44.9151 1660.00
44.9803 2820.00
45.0455 3226.00
45.1107 2416.00
45.1759 1905.00
45.2411 1167.00
45.3063 1102.00
45.3715 1105.00
45.4367 1135.00
45.5019 1232.00
45.5671 1907.00
45.6323 3210.00
45.6975 3216.00
45.7627 2523.00
45.8279 1882.00
45.8931 1331.00
45.9583 1153.00
46.0235 1074.00
46.0887 1071.00
46.1539 1128.00
46.2191 1060.00
46.2843 1073.00
46.3495 1100.00
46.4147 1019.00
46.4799 1060.00
46.5451 1068.00
46.6103 1061.00
46.6755 1078.00
46.7407 1094.00
46.8059 1295.00
46.8711 2015.00
46.9363 2812.00
47.0015 2490.00
47.0667 2095.00
47.1319 1648.00
47.1971 1341.00
47.2623 1275.00
47.3275 1380.00
47.3927 1218.00
47.4579 1228.00
47.523 1256.00
47.5882 1449.00
47.6534 2277.00
47.7186 4736.00
47.7838 6592.00
47.849 4285.00
47.9142 3733.00
47.9794 1740.00
48.0446 1377.00
48.1098 1561.00
48.175 1786.00
48.2402 1609.00
48.3054 1515.00
48.3706 1170.00
48.4358 1108.00
48.501 1123.00
48.5662 1124.00
48.6314 1373.00
48.6966 1651.00
48.7618 1361.00
48.827 1294.00
48.8922 1172.00
48.9574 1036.00
49.0226 1070.00
49.0878 971.00
49.153 998.00
49.2182 1019.00
49.2834 1013.00
49.3486 961.00
49.4138 1019.00
49.479 1057.00
49.5442 1106.00
49.6094 1116.00
49.6746 1040.00
49.7398 1030.00
49.805 1002.00
49.8702 1016.00
49.9354 1004.00
50.0006 913.00
50.0658 1037.00
50.131 1064.00
50.1962 1099.00
50.2614 1331.00
50.3266 1412.00
50.3918 1394.00
50.457 1292.00
50.5222 1201.00
50.5874 1083.00
50.6526 1093.00
50.7178 1049.00
50.783 1063.00
50.8482 1067.00
50.9134 1114.00
50.9786 1030.00
51.0438 1087.00
51.109 1011.00
51.1742 1055.00
51.2394 1173.00
51.3046 1313.00
51.3698 1805.00
51.435 3366.00
51.5002 5524.00
51.5654 4384.00
51.6306 3550.00
51.6958 2381.00
51.761 1388.00
51.8262 1147.00
51.8914 1047.00
51.9566 984.00
52.0218 1032.00
52.087 1054.00
52.1522 1074.00
52.2174 1052.00
52.2826 1004.00
52.3477 1018.00
52.4129 922.00
52.4781 989.00
52.5433 978.00
52.6085 1002.00
52.6737 1015.00
52.7389 1060.00
52.8041 965.00
52.8693 1027.00
52.9345 969.00
52.9997 1035.00
53.0649 948.00
53.1301 963.00
53.1953 999.00
53.2605 986.00
53.3257 981.00
53.3909 998.00
53.4561 911.00
53.5213 970.00
53.5865 980.00
53.6517 1023.00
53.7169 1016.00
53.7821 951.00
53.8473 1030.00
53.9125 1046.00
53.9777 1168.00
54.0429 1541.00
54.1081 1884.00
54.1733 1507.00
54.2385 1560.00
54.3037 1276.00
54.3689 1167.00
54.4341 1123.00
54.4993 1355.00
54.5645 1884.00
54.6297 2995.00
54.6949 2972.00
54.7601 3913.00
54.8253 5057.00
54.8905 3723.00
54.9557 3140.00
55.0209 2459.00
55.0861 1434.00
55.1513 1151.00
55.2165 1088.00
55.2817 1027.00
55.3469 1030.00
55.4121 1112.00
55.4773 1032.00
55.5425 1055.00
55.6077 1068.00
55.6729 1068.00
55.7381 989.00
55.8033 1012.00
55.8685 1015.00
55.9337 1019.00
55.9989 1018.00
56.0641 1045.00
56.1293 1145.00
56.1945 1185.00
56.2597 1292.00
56.3249 1305.00
56.3901 1123.00
56.4553 1118.00
56.5205 969.00
56.5857 983.00
56.6509 975.00
56.7161 983.00
56.7813 989.00
56.8465 903.00
56.9117 945.00
56.9769 971.00
57.042 958.00
57.1073 969.00
57.1724 919.00
57.2376 947.00
57.3028 973.00
57.368 976.00
57.4332 965.00
57.4984 929.00
57.5636 1002.00
57.6288 966.00
57.694 960.00
57.7592 1020.00
57.8244 968.00
57.8896 953.00
57.9548 1007.00
58.02 946.00
58.0852 960.00
58.1504 1099.00
58.2156 1252.00
58.2808 1219.00
58.346 1142.00
58.4112 1088.00
58.4764 1035.00
58.5416 993.00
58.6068 1058.00
58.672 1237.00
58.7372 1548.00
58.8024 1646.00
58.8676 1539.00
58.9328 1368.00
58.998 1271.00
59.0632 1096.00
59.1284 950.00
59.1936 967.00
59.2588 1012.00
59.324 1011.00
59.3892 1026.00
59.4544 993.00
59.5196 1004.00
59.5848 998.00
59.65 1136.00
59.7152 1311.00
59.7804 2111.00
59.8456 3504.00
59.9108 2477.00
59.976 2217.00
60.0412 2126.00
60.1064 1428.00
60.1716 1136.00
60.2368 1132.00
60.302 1229.00
60.3672 1177.00
60.4324 1681.00
60.4976 3148.00
60.5628 3837.00
60.628 2682.00
60.6932 2558.00
60.7584 2010.00
60.8236 1364.00
60.8888 1219.00
60.954 1049.00
61.0192 1018.00
61.0844 1024.00
61.1496 1051.00
61.2148 1017.00
61.28 1238.00
61.3452 1516.00
61.4104 1361.00
61.4756 1332.00
61.5408 1285.00
61.606 1042.00
61.6712 1010.00
61.7364 981.00
61.8016 1006.00
61.8667 974.00
61.932 937.00
61.9971 936.00
62.0623 939.00
62.1275 1118.00
62.1927 1257.00
62.2579 1205.00
62.3231 1114.00
62.3883 1181.00
62.4535 1065.00
62.5187 1091.00
62.5839 1264.00
62.6491 1864.00
62.7143 2534.00
62.7795 2528.00
62.8447 2562.00
62.9099 2608.00
62.9751 1974.00
63.0403 1794.00
63.1055 1428.00
63.1707 1249.00
63.2359 1123.00
63.3011 1041.00
63.3663 1004.00
63.4315 1008.00
63.4967 994.00
63.5619 945.00
63.6271 1100.00
63.6923 1440.00
63.7575 1808.00
63.8227 1457.00
63.8879 1291.00
63.9531 1345.00
64.0183 1051.00
64.0835 958.00
64.1487 1014.00
64.2139 1042.00
64.2791 1021.00
64.3443 927.00
64.4095 1029.00
64.4747 970.00
64.5399 906.00
64.6051 932.00
64.6703 990.00
64.7355 947.00
64.8007 921.00
64.8659 965.00
64.9311 899.00
64.9963 929.00
65.0615 961.00
65.1267 889.00
65.1919 961.00
65.2571 956.00
65.3223 882.00
65.3875 942.00
65.4527 956.00
65.5179 962.00
65.5831 942.00
65.6483 934.00
65.7135 1085.00
65.7787 1091.00
65.8439 1116.00
65.9091 1082.00
65.9743 1063.00
66.0395 1117.00
66.1047 980.00
66.1699 1013.00
66.2351 1096.00
66.3003 989.00
66.3655 1111.00
66.4307 1454.00
66.4959 2307.00
66.561 2361.00
66.6263 1833.00
66.6915 1841.00
66.7566 1629.00
66.8218 1212.00
66.887 1073.00
66.9522 1007.00
67.0174 936.00
67.0826 931.00
67.1478 1025.00
67.213 1059.00
67.2782 1080.00
67.3434 1137.00
67.4086 1174.00
67.4738 1642.00
67.539 1857.00
67.6042 1443.00
67.6694 1459.00
67.7346 1578.00
67.7998 1356.00
67.865 1126.00
67.9302 1117.00
67.9954 1202.00
68.0606 1260.00
68.1258 1288.00
68.191 1242.00
68.2562 1212.00
68.3214 1126.00
68.3866 1109.00
68.4518 969.00
68.517 928.00
68.5822 851.00
68.6474 922.00
68.7126 900.00
68.7778 922.00
68.843 823.00
68.9082 908.00
68.9734 882.00
69.0386 812.00
69.1038 946.00
69.169 858.00
69.2342 979.00
69.2994 892.00
69.3646 886.00
69.4298 978.00
69.495 855.00
69.5602 823.00
69.6254 864.00
69.6906 915.00
69.7558 868.00
69.821 903.00
69.8862 931.00
69.9514 931.00
70.0166 1034.00
70.0818 1160.00
70.147 1574.00
70.2122 1913.00
70.2774 1733.00
70.3426 1483.00
70.4078 1513.00
70.473 1278.00
70.5382 1072.00
70.6034 945.00
70.6686 948.00
70.7338 880.00
70.799 865.00
70.8642 891.00
70.9294 896.00
70.9946 929.00
71.0598 835.00
71.125 870.00
71.1902 887.00
71.2554 983.00
71.3205 978.00
71.3858 1097.00
71.451 1143.00
71.5162 1189.00
71.5813 1130.00
71.6465 1032.00
71.7117 1048.00
71.7769 981.00
71.8421 914.00
71.9073 922.00
71.9725 916.00
72.0377 901.00
72.1029 841.00
72.1681 942.00
72.2333 796.00
72.2985 869.00
72.3637 860.00
72.4289 864.00
72.4941 891.00
72.5593 889.00
72.6245 916.00
72.6897 854.00
72.7549 943.00
72.8201 899.00
72.8853 901.00
72.9505 877.00
73.0157 968.00
73.0809 812.00
73.1461 924.00
73.2113 887.00
73.2765 880.00
73.3417 978.00
73.4069 978.00
73.4721 916.00
73.5373 937.00
73.6025 995.00
73.6677 953.00
73.7329 1051.00
73.7981 1315.00
73.8633 1719.00
73.9285 1901.00
73.9937 1969.00
74.0589 1835.00
74.1241 1599.00
74.1893 1422.00
74.2545 1240.00
74.3197 1020.00
74.3849 950.00
74.4501 966.00
74.5153 947.00
74.5805 896.00
74.6457 894.00
74.7109 910.00
74.7761 1082.00
74.8413 1196.00
74.9065 1128.00
74.9717 1149.00
75.0369 1333.00
75.1021 1210.00
75.1673 1084.00
75.2325 1064.00
75.2977 1043.00
75.3629 983.00
75.4281 917.00
75.4933 961.00
75.5585 902.00
75.6237 973.00
75.6889 1043.00
75.7541 1005.00
75.8193 1044.00
75.8845 929.00
75.9497 975.00
76.0149 925.00
76.0801 1053.00
76.1452 1048.00
76.2104 1058.00
76.2756 964.00
76.3409 1030.00
76.406 969.00
76.4712 818.00
76.5364 916.00
76.6016 961.00
76.6668 808.00
76.732 838.00
76.7972 825.00
76.8624 843.00
76.9276 937.00
76.9928 889.00
77.058 848.00
77.1232 880.00
77.1884 939.00
77.2536 1027.00
77.3188 1048.00
77.384 1241.00
77.4492 1307.00
77.5144 1386.00
77.5796 1292.00
77.6448 1237.00
77.71 1157.00
77.7752 1077.00
77.8404 931.00
77.9056 911.00
77.9708 925.00
78.036 843.00
78.1012 803.00
78.1664 949.00
78.2316 1050.00
78.2968 1257.00
78.362 1359.00
78.4272 1076.00
78.4924 1148.00
78.5576 1106.00
78.6228 1040.00
78.688 1001.00
78.7532 972.00
78.8184 906.00
78.8836 976.00
78.9488 909.00
79.014 925.00
79.0792 913.00
79.1444 874.00
79.2096 888.00
79.2748 946.00
79.34 831.00
79.4052 832.00
79.4704 873.00
79.5356 927.00
79.6008 890.00
79.666 867.00
79.7312 873.00
79.7964 854.00
79.8616 868.00
79.9268 874.00
79.992 836.00
80.0572 870.00
80.1224 801.00
80.1876 861.00
80.2528 865.00
80.318 862.00
80.3832 851.00
80.4484 849.00
80.5136 859.00
80.5788 843.00
80.644 890.00
80.7092 956.00
80.7744 980.00
80.8396 1261.00
80.9048 1537.00
80.9699 1306.00
81.0351 1132.00
81.1003 1185.00
81.1655 1251.00
81.2307 1017.00
81.2959 908.00
81.3611 927.00
81.4263 900.00
81.4915 925.00
81.5567 850.00
81.6219 824.00
81.6871 889.00
81.7523 980.00
81.8175 1015.00
81.8827 940.00
81.9479 1058.00
82.0131 1053.00
82.0783 1066.00
82.1435 1006.00
82.2087 1000.00
82.2739 1066.00
82.3391 1362.00
82.4043 1648.00
82.4695 1571.00
82.5347 1295.00
82.5999 1239.00
82.6651 1319.00
82.7303 1208.00
82.7955 1038.00
82.8607 985.00
82.9259 948.00
82.9911 939.00
83.0563 985.00
83.1215 925.00
83.1867 964.00
83.2519 859.00
83.3171 932.00
83.3823 889.00
83.4475 826.00
83.5127 934.00
83.5779 896.00
83.6431 859.00
83.7083 921.00
83.7735 950.00
83.8387 1103.00
83.9039 1193.00
83.9691 1074.00
84.0343 933.00
84.0995 1027.00
84.1647 1038.00
84.2299 1060.00
84.2951 1074.00
84.3603 1173.00
84.4255 1067.00
84.4907 997.00
84.5559 1070.00
84.6211 1052.00
84.6863 1051.00
84.7515 923.00
84.8167 917.00
84.8819 935.00
84.9471 958.00
85.0123 902.00
85.0775 850.00
85.1427 875.00
85.2079 867.00
85.2731 913.00
85.3383 895.00
85.4035 886.00
85.4687 850.00
85.5339 876.00
85.5991 789.00
85.6643 892.00
85.7295 845.00
85.7946 824.00
85.8598 838.00
85.925 835.00
85.9903 906.00
86.0554 799.00
86.1206 873.00
86.1858 817.00
86.251 854.00
86.3162 873.00
86.3814 871.00
86.4466 930.00
86.5118 983.00
86.577 1017.00
86.6422 1066.00
86.7074 956.00
86.7726 918.00
86.8378 979.00
86.903 990.00
86.9682 1001.00
87.0334 910.00
87.0986 889.00
87.1638 918.00
87.229 918.00
87.2942 938.00
87.3594 948.00
87.4246 899.00
87.4898 991.00
87.555 1225.00
87.6202 1212.00
87.6854 1174.00
87.7506 1197.00
87.8158 1329.00
87.881 1322.00
87.9462 1165.00
88.0114 1105.00
88.0766 1162.00
88.1418 959.00
88.207 999.00
88.2722 974.00
88.3374 977.00
88.4026 908.00
88.4678 979.00
88.533 962.00
88.5982 1189.00
88.6634 1577.00
88.7286 1637.00
88.7938 1325.00
88.859 1225.00
88.9242 1519.00
88.9894 1585.00
89.0546 1275.00
89.1198 1073.00
89.185 1089.00
89.2502 1064.00
89.3154 946.00
89.3806 928.00
89.4458 887.00
89.511 877.00
89.5762 914.00
89.6414 915.00
89.7066 894.00
89.7718 838.00
89.837 880.00
89.9022 978.00
89.9674 908.00
90.0326 857.00
90.0978 938.00
90.163 860.00
90.2282 883.00
90.2934 811.00
90.3586 846.00
90.4238 889.00
90.489 839.00
90.5542 824.00
90.6193 895.00
90.6845 907.00
90.7497 951.00
90.8149 1042.00
90.8801 956.00
90.9453 1034.00
91.0105 1170.00
91.0757 1169.00
91.1409 1232.00
91.2061 1434.00
91.2713 1400.00
91.3365 1249.00
91.4017 1117.00
91.4669 1128.00
91.5321 1121.00
91.5973 1085.00
91.6625 932.00
91.7277 882.00
91.7929 846.00
91.8581 886.00
91.9233 853.00
91.9885 793.00
92.0537 854.00
92.1189 882.00
92.1841 821.00
92.2493 882.00
92.3145 791.00
92.3797 853.00
92.4449 885.00
92.5101 924.00
92.5753 933.00
92.6405 1032.00
92.7057 1091.00
92.7709 1087.00
92.8361 1026.00
92.9013 911.00
92.9665 916.00
93.0317 946.00
93.0969 1009.00
93.1621 895.00
93.2273 899.00
93.2925 894.00
93.3577 899.00
93.4229 945.00
93.4881 1000.00
93.5533 903.00
93.6185 888.00
93.6837 837.00
93.7489 960.00
93.8141 926.00
93.8793 920.00
93.9445 844.00
94.0097 883.00
94.0749 945.00
94.1401 945.00
94.2053 917.00
94.2705 909.00
94.3357 1079.00
94.4009 1070.00
94.4661 1160.00
94.5313 1358.00
94.5965 1568.00
94.6617 1716.00
94.7269 1570.00
94.7921 1259.00
94.8573 1194.00
94.9225 1286.00
94.9877 1287.00
95.0529 1165.00
95.1181 938.00
95.1833 983.00
95.2485 874.00
95.3137 901.00
95.3789 952.00
95.444 1065.00
95.5092 1099.00
95.5744 1245.00
95.6396 1157.00
95.7048 1055.00
95.77 1096.00
95.8352 1180.00
95.9004 1203.00
95.9656 1047.00
96.0308 945.00
96.096 928.00
96.1612 956.00
96.2264 914.00
96.2916 907.00
96.3568 882.00
96.422 860.00
96.4872 907.00
96.5524 875.00
96.6176 796.00
96.6828 873.00
96.748 812.00
96.8132 807.00
96.8784 905.00
96.9436 875.00
97.0088 855.00
97.074 902.00
97.1392 859.00
97.2044 845.00
97.2696 838.00
97.3348 880.00
97.4 884.00
97.4652 905.00
97.5304 914.00
97.5956 972.00
97.6608 1031.00
97.726 927.00
97.7912 982.00
97.8564 910.00
97.9216 942.00
97.9868 936.00
98.052 894.00
98.1172 1000.00
98.1824 989.00
98.2476 1093.00
98.3128 1033.00
98.378 1019.00
98.4432 966.00
98.5084 968.00
98.5736 972.00
98.6388 895.00
98.704 985.00
98.7692 899.00
98.8344 912.00
98.8996 899.00
98.9648 869.00
99.03 947.00
99.0952 959.00
99.1604 980.00
99.2256 1005.00
99.2908 1020.00
99.356 1064.00
99.4212 946.00
99.4864 928.00
99.5516 969.00
99.6168 943.00
99.682 918.00
99.7472 853.00
99.8124 894.00
99.8776 880.00
99.9428 914.00
100.008 891.00
100.073 923.00
100.095 856.00