File: data/xrd_creation/results/NSC_209.xy
9.903433 2920.00
9.968632 2943.00
10.0338 2942.00
10.099 2981.00
10.1642 2894.00
10.2294 2863.00
10.2946 2990.00
10.3598 2917.00
10.425 2841.00
10.4902 2916.00
10.5554 2809.00
10.6206 2728.00
10.6858 2742.00
10.751 2742.00
10.8162 2805.00
10.8814 2782.00
10.9466 2853.00
11.0118 2706.00
11.077 2763.00
11.1422 2682.00
11.2074 2540.00
11.2726 2695.00
11.3378 2690.00
11.403 2662.00
11.4682 2649.00
11.5334 2583.00
11.5986 2504.00
11.6638 2648.00
11.729 2607.00
11.7942 2454.00
11.8594 2482.00
11.9246 2527.00
11.9898 2396.00
12.055 2546.00
12.1202 2587.00
12.1854 2515.00
12.2506 2532.00
12.3158 2376.00
12.381 2491.00
12.4462 2522.00
12.5114 2395.00
12.5766 2432.00
12.6418 2430.00
12.707 2467.00
12.7722 2355.00
12.8374 2414.00
12.9026 2436.00
12.9678 2307.00
13.033 2431.00
13.0982 2448.00
13.1634 2393.00
13.2286 2311.00
13.2938 2392.00
13.359 2336.00
13.4242 2190.00
13.4894 2269.00
13.5546 2289.00
13.6198 2283.00
13.685 2270.00
13.7502 2252.00
13.8154 2339.00
13.8805 2292.00
13.9457 2256.00
14.0109 2200.00
14.0761 2148.00
14.1413 2189.00
14.2065 2266.00
14.2717 2210.00
14.3369 2252.00
14.4021 2268.00
14.4673 2255.00
14.5325 2206.00
14.5977 2167.00
14.6629 2226.00
14.7281 2232.00
14.7933 2213.00
14.8585 2177.00
14.9237 2144.00
14.9889 2158.00
15.0541 2047.00
15.1193 2152.00
15.1845 2186.00
15.2497 2120.00
15.3149 2232.00
15.3801 2216.00
15.4453 2223.00
15.5105 2201.00
15.5757 2067.00
15.6409 2072.00
15.7061 2152.00
15.7713 2123.00
15.8365 2141.00
15.9017 2097.00
15.9669 2219.00
16.0321 2160.00
16.0973 2071.00
16.1625 2140.00
16.2277 2104.00
16.2929 2143.00
16.3581 2129.00
16.4233 2068.00
16.4885 1955.00
16.5537 2115.00
16.6189 2075.00
16.6841 2040.00
16.7493 2051.00
16.8145 2088.00
16.8797 1983.00
16.9449 2028.00
17.0101 2112.00
17.0753 2053.00
17.1405 2146.00
17.2057 2153.00
17.2709 2130.00
17.3361 2107.00
17.4013 2084.00
17.4665 2232.00
17.5317 2158.00
17.5969 2506.00
17.6621 2531.00
17.7273 2836.00
17.7925 3071.00
17.8577 3171.00
17.9229 2731.00
17.9881 2363.00
18.0533 2152.00
18.1185 2097.00
18.1837 2084.00
18.2489 2161.00
18.3141 2068.00
18.3793 2007.00
18.4445 2000.00
18.5097 2008.00
18.5749 2102.00
18.6401 1976.00
18.7052 2024.00
18.7704 1944.00
18.8356 1979.00
18.9008 1984.00
18.966 2126.00
19.0312 2026.00
19.0964 1996.00
19.1616 1984.00
19.2268 2033.00
19.292 1965.00
19.3572 1983.00
19.4224 2016.00
19.4876 2089.00
19.5528 2005.00
19.618 2074.00
19.6832 2010.00
19.7484 2030.00
19.8136 2085.00
19.8788 2041.00
19.944 2027.00
20.0092 2023.00
20.0744 1962.00
20.1396 2041.00
20.2048 2243.00
20.27 2447.00
20.3352 2678.00
20.4004 2921.00
20.4656 2675.00
20.5308 2441.00
20.596 2145.00
20.6612 2133.00
20.7264 2219.00
20.7916 2214.00
20.8568 2203.00
20.922 2282.00
20.9872 2289.00
21.0524 2355.00
21.1176 2319.00
21.1828 2235.00
21.248 2101.00
21.3132 1961.00
21.3784 2036.00
21.4436 1953.00
21.5088 1921.00
21.574 1977.00
21.6392 1962.00
21.7044 1959.00
21.7696 1892.00
21.8348 1840.00
21.9 1879.00
21.9652 1900.00
22.0304 1905.00
22.0956 1900.00
22.1608 1959.00
22.226 1860.00
22.2912 1900.00
22.3564 1964.00
22.4216 1961.00
22.4868 1927.00
22.552 1948.00
22.6172 1908.00
22.6824 1821.00
22.7476 1887.00
22.8128 1904.00
22.878 1892.00
22.9432 1948.00
23.0084 1893.00
23.0736 1857.00
23.1388 1842.00
23.204 1858.00
23.2692 1847.00
23.3344 1875.00
23.3996 1826.00
23.4647 1782.00
23.5299 1867.00
23.5951 1873.00
23.6603 1920.00
23.7255 1779.00
23.7907 1905.00
23.8559 1879.00
23.9211 2016.00
23.9863 2125.00
24.0515 2060.00
24.1167 2205.00
24.1819 2440.00
24.2471 2885.00
24.3123 3622.00
24.3775 4410.00
24.4427 4999.00
24.5079 5311.00
24.5731 4345.00
24.6383 3496.00
24.7035 3335.00
24.7687 3839.00
24.8339 4143.00
24.8991 4434.00
24.9643 3802.00
25.0295 2899.00
25.0947 2158.00
25.1599 1969.00
25.2251 1957.00
25.2903 1922.00
25.3555 1842.00
25.4207 1923.00
25.4859 1812.00
25.5511 1850.00
25.6163 1713.00
25.6815 1825.00
25.7467 1826.00
25.8119 1767.00
25.8771 1806.00
25.9423 1781.00
26.0075 1735.00
26.0727 1730.00
26.1379 1723.00
26.2031 1728.00
26.2683 1744.00
26.3335 1731.00
26.3987 1788.00
26.4639 1684.00
26.5291 1729.00
26.5943 1873.00
26.6595 1945.00
26.7247 1934.00
26.7899 1831.00
26.8551 1829.00
26.9203 1738.00
26.9855 1784.00
27.0507 1770.00
27.1159 1723.00
27.1811 1650.00
27.2463 1733.00
27.3115 1657.00
27.3767 1763.00
27.4419 1782.00
27.5071 1821.00
27.5723 1794.00
27.6375 1843.00
27.7027 1907.00
27.7679 1949.00
27.8331 2059.00
27.8983 2178.00
27.9635 2319.00
28.0287 2341.00
28.0939 2528.00
28.1591 2939.00
28.2243 3545.00
28.2894 4435.00
28.3546 6754.00
28.4198 10256.00
28.485 14924.00
28.5502 17919.00
28.6154 20295.00
28.6806 19149.00
28.7458 13086.00
28.811 7382.00
28.8762 4766.00
28.9414 3743.00
29.0066 2967.00
29.0718 2675.00
29.137 2439.00
29.2022 2242.00
29.2674 2249.00
29.3326 2049.00
29.3978 1936.00
29.463 1985.00
29.5282 1896.00
29.5934 1884.00
29.6586 1867.00
29.7238 1888.00
29.789 1721.00
29.8542 1825.00
29.9194 1831.00
29.9846 1778.00
30.0498 1783.00
30.115 1768.00
30.1802 1814.00
30.2454 1711.00
30.3106 1799.00
30.3758 1859.00
30.441 2041.00
30.5062 1932.00
30.5714 1872.00
30.6366 1827.00
30.7018 1808.00
30.767 1790.00
30.8322 1925.00
30.8974 1888.00
30.9626 1958.00
31.0278 1921.00
31.093 2038.00
31.1582 2065.00
31.2234 2094.00
31.2886 2221.00
31.3538 2375.00
31.419 2687.00
31.4842 3099.00
31.5494 3611.00
31.6146 4579.00
31.6798 6608.00
31.745 9324.00
31.8102 11596.00
31.8754 13186.00
31.9406 14976.00
32.0058 13714.00
32.071 9367.00
32.1362 5756.00
32.2014 3770.00
32.2666 2947.00
32.3318 2489.00
32.397 2219.00
32.4622 2009.00
32.5274 2016.00
32.5926 1848.00
32.6578 1832.00
32.723 1843.00
32.7882 1877.00
32.8534 1901.00
32.9186 2065.00
32.9838 2009.00
33.0489 2108.00
33.1141 1924.00
33.1793 1830.00
33.2445 1884.00
33.3097 1978.00
33.3749 2155.00
33.4401 2345.00
33.5053 2286.00
33.5705 2184.00
33.6357 2042.00
33.7009 1938.00
33.7661 1849.00
33.8313 1932.00
33.8965 1939.00
33.9617 1944.00
34.0269 1915.00
34.0921 2055.00
34.1573 2215.00
34.2225 2419.00
34.2877 2866.00
34.3529 3516.00
34.4181 4533.00
34.4833 5448.00
34.5485 6291.00
34.6137 7438.00
34.6789 7495.00
34.7441 6197.00
34.8093 5604.00
34.8745 5865.00
34.9397 5748.00
35.0049 4446.00
35.0701 3129.00
35.1353 2396.00
35.2005 2089.00
35.2657 2017.00
35.3309 2003.00
35.3961 2080.00
35.4613 2357.00
35.5265 2837.00
35.5917 3474.00
35.6569 3748.00
35.7221 4342.00
35.7873 5578.00
35.8525 5538.00
35.9177 4278.00
35.9829 2877.00
36.0481 2201.00
36.1133 1982.00
36.1785 2061.00
36.2437 2126.00
36.3089 2399.00
36.3741 2569.00
36.4393 2363.00
36.5045 2114.00
36.5697 1716.00
36.6349 1483.00
36.7001 1517.00
36.7653 1564.00
36.8305 1482.00
36.8957 1468.00
36.9609 1361.00
37.0261 1406.00
37.0913 1460.00
37.1565 1453.00
37.2217 1418.00
37.2869 1330.00
37.3521 1451.00
37.4173 1339.00
37.4825 1438.00
37.5477 1370.00
37.6129 1307.00
37.6781 1388.00
37.7433 1315.00
37.8085 1337.00
37.8736 1355.00
37.9388 1348.00
38.004 1286.00
38.0692 1326.00
38.1344 1341.00
38.1996 1393.00
38.2648 1546.00
38.33 1626.00
38.3952 1499.00
38.4604 1379.00
38.5256 1408.00
38.5908 1405.00
38.656 1534.00
38.7212 1644.00
38.7864 1800.00
38.8516 1963.00
38.9168 2123.00
38.982 2331.00
39.0472 2656.00
39.1124 2821.00
39.1776 2474.00
39.2428 1857.00
39.308 1672.00
39.3732 1496.00
39.4384 1452.00
39.5036 1391.00
39.5688 1367.00
39.634 1352.00
39.6992 1396.00
39.7644 1380.00
39.8296 1350.00
39.8948 1284.00
39.96 1308.00
40.0252 1363.00
40.0904 1315.00
40.1556 1326.00
40.2208 1364.00
40.286 1484.00
40.3512 1487.00
40.4164 1438.00
40.4816 1570.00
40.5468 1505.00
40.612 1496.00
40.6772 1501.00
40.7424 1515.00
40.8076 1696.00
40.8728 1841.00
40.938 2069.00
41.0032 2532.00
41.0684 2758.00
41.1336 2929.00
41.1988 3290.00
41.264 3635.00
41.3292 3506.00
41.3944 3043.00
41.4596 2560.00
41.5248 2416.00
41.59 2374.00
41.6552 2513.00
41.7204 2568.00
41.7856 2336.00
41.8508 2296.00
41.916 2224.00
41.9812 2055.00
42.0464 1720.00
42.1116 1534.00
42.1768 1359.00
42.242 1400.00
42.3072 1352.00
42.3724 1342.00
42.4376 1283.00
42.5028 1285.00
42.568 1326.00
42.6332 1270.00
42.6983 1282.00
42.7635 1264.00
42.8287 1273.00
42.8939 1230.00
42.9591 1232.00
43.0243 1261.00
43.0895 1274.00
43.1547 1208.00
43.2199 1163.00
43.2851 1232.00
43.3503 1258.00
43.4155 1244.00
43.4807 1300.00
43.5459 1232.00
43.6111 1218.00
43.6763 1225.00
43.7415 1219.00
43.8067 1176.00
43.8719 1280.00
43.9371 1303.00
44.0023 1283.00
44.0675 1249.00
44.1327 1248.00
44.1979 1208.00
44.2631 1170.00
44.3283 1199.00
44.3935 1182.00
44.4587 1215.00
44.5239 1238.00
44.5891 1204.00
44.6543 1262.00
44.7195 1311.00
44.7847 1327.00
44.8499 1307.00
44.9151 1382.00
44.9803 1520.00
45.0455 1557.00
45.1107 1778.00
45.1759 1797.00
45.2411 1845.00
45.3063 1955.00
45.3715 1957.00
45.4367 1933.00
45.5019 1729.00
45.5671 1595.00
45.6323 1564.00
45.6975 1551.00
45.7627 1740.00
45.8279 1839.00
45.8931 1932.00
45.9583 2049.00
46.0235 2147.00
46.0887 2234.00
46.1539 2057.00
46.2191 1763.00
46.2843 1457.00
46.3495 1298.00
46.4147 1322.00
46.4799 1254.00
46.5451 1237.00
46.6103 1238.00
46.6755 1230.00
46.7407 1190.00
46.8059 1225.00
46.8711 1181.00
46.9363 1296.00
47.0015 1148.00
47.0667 1170.00
47.1319 1201.00
47.1971 1172.00
47.2623 1237.00
47.3275 1240.00
47.3927 1239.00
47.4579 1230.00
47.523 1275.00
47.5882 1295.00
47.6534 1321.00
47.7186 1194.00
47.7838 1247.00
47.849 1229.00
47.9142 1216.00
47.9794 1216.00
48.0446 1145.00
48.1098 1139.00
48.175 1138.00
48.2402 1131.00
48.3054 1222.00
48.3706 1138.00
48.4358 1209.00
48.501 1241.00
48.5662 1235.00
48.6314 1233.00
48.6966 1177.00
48.7618 1238.00
48.827 1229.00
48.8922 1221.00
48.9574 1262.00
49.0226 1388.00
49.0878 1398.00
49.153 1494.00
49.2182 1534.00
49.2834 1702.00
49.3486 1841.00
49.4138 2114.00
49.479 2568.00
49.5442 2985.00
49.6094 2902.00
49.6746 3139.00
49.7398 3420.00
49.805 4230.00
49.8702 4360.00
49.9354 3489.00
50.0006 2923.00
50.0658 2212.00
50.131 1944.00
50.1962 1997.00
50.2614 2179.00
50.3266 2676.00
50.3918 3233.00
50.457 3122.00
50.5222 3117.00
50.5874 3514.00
50.6526 4451.00
50.7178 5649.00
50.783 5157.00
50.8482 4721.00
50.9134 3809.00
50.9786 3014.00
51.0438 2892.00
51.109 3217.00
51.1742 3240.00
51.2394 2777.00
51.3046 2451.00
51.3698 1998.00
51.435 1828.00
51.5002 1901.00
51.5654 1759.00
51.6306 1737.00
51.6958 1736.00
51.761 1905.00
51.8262 1927.00
51.8914 1834.00
51.9566 1596.00
52.0218 1424.00
52.087 1333.00
52.1522 1301.00
52.2174 1248.00
52.2826 1124.00
52.3477 1239.00
52.4129 1268.00
52.4781 1248.00
52.5433 1254.00
52.6085 1204.00
52.6737 1399.00
52.7389 1278.00
52.8041 1289.00
52.8693 1260.00
52.9345 1246.00
52.9997 1289.00
53.0649 1204.00
53.1301 1172.00
53.1953 1269.00
53.2605 1140.00
53.3257 1171.00
53.3909 1178.00
53.4561 1192.00
53.5213 1140.00
53.5865 1158.00
53.6517 1128.00
53.7169 1242.00
53.7821 1250.00
53.8473 1221.00
53.9125 1263.00
53.9777 1289.00
54.0429 1303.00
54.1081 1340.00
54.1733 1495.00
54.2385 1597.00
54.3037 1831.00
54.3689 2160.00
54.4341 2201.00
54.4993 2206.00
54.5645 2334.00
54.6297 2495.00
54.6949 2920.00
54.7601 2905.00
54.8253 2446.00
54.8905 2282.00
54.9557 1923.00
55.0209 1616.00
55.0861 1556.00
55.1513 1496.00
55.2165 1572.00
55.2817 1587.00
55.3469 1622.00
55.4121 1716.00
55.4773 1703.00
55.5425 1933.00
55.6077 2243.00
55.6729 2425.00
55.7381 2531.00
55.8033 2833.00
55.8685 3464.00
55.9337 3912.00
55.9989 3944.00
56.0641 3861.00
56.1293 3815.00
56.1945 3412.00
56.2597 2977.00
56.3249 2598.00
56.3901 2421.00
56.4553 2492.00
56.5205 2800.00
56.5857 2579.00
56.6509 2309.00
56.7161 2078.00
56.7813 1702.00
56.8465 1461.00
56.9117 1409.00
56.9769 1248.00
57.042 1257.00
57.1073 1278.00
57.1724 1363.00
57.2376 1363.00
57.3028 1459.00
57.368 1675.00
57.4332 1807.00
57.4984 1811.00
57.5636 1819.00
57.6288 1967.00
57.694 2007.00
57.7592 2341.00
57.8244 2443.00
57.8896 2170.00
57.9548 2045.00
58.02 1925.00
58.0852 1850.00
58.1504 1806.00
58.2156 1613.00
58.2808 1641.00
58.346 1665.00
58.4112 1903.00
58.4764 2208.00
58.5416 2402.00
58.6068 2193.00
58.672 2125.00
58.7372 1928.00
58.8024 1851.00
58.8676 1889.00
58.9328 1870.00
58.998 1693.00
59.0632 1579.00
59.1284 1458.00
59.1936 1367.00
59.2588 1414.00
59.324 1269.00
59.3892 1299.00
59.4544 1369.00
59.5196 1302.00
59.5848 1278.00
59.65 1339.00
59.7152 1346.00
59.7804 1362.00
59.8456 1375.00
59.9108 1494.00
59.976 1729.00
60.0412 1981.00
60.1064 1964.00
60.1716 1912.00
60.2368 2098.00
60.302 2249.00
60.3672 2655.00
60.4324 2966.00
60.4976 2760.00
60.5628 2717.00
60.628 2596.00
60.6932 2489.00
60.7584 2189.00
60.8236 1857.00
60.8888 1655.00
60.954 1563.00
61.0192 1444.00
61.0844 1393.00
61.1496 1404.00
61.2148 1354.00
61.28 1327.00
61.3452 1294.00
61.4104 1315.00
61.4756 1424.00
61.5408 1539.00
61.606 1606.00
61.6712 1645.00
61.7364 1622.00
61.8016 1722.00
61.8667 1880.00
61.932 2074.00
61.9971 2225.00
62.0623 2284.00
62.1275 2178.00
62.1927 2143.00
62.2579 2049.00
62.3231 1927.00
62.3883 1975.00
62.4535 2048.00
62.5187 2285.00
62.5839 2468.00
62.6491 2248.00
62.7143 2102.00
62.7795 1985.00
62.8447 1795.00
62.9099 1640.00
62.9751 1765.00
63.0403 1798.00
63.1055 1958.00
63.1707 1826.00
63.2359 1790.00
63.3011 1926.00
63.3663 1869.00
63.4315 2267.00
63.4967 2413.00
63.5619 2446.00
63.6271 2139.00
63.6923 1949.00
63.7575 1746.00
63.8227 1500.00
63.8879 1376.00
63.9531 1265.00
64.0183 1194.00
64.0835 1193.00
64.1487 1191.00
64.2139 1193.00
64.2791 1213.00
64.3443 1279.00
64.4095 1343.00
64.4747 1335.00
64.5399 1363.00
64.6051 1332.00
64.6703 1526.00
64.7355 1422.00
64.8007 1467.00
64.8659 1573.00
64.9311 1611.00
64.9963 1546.00
65.0615 1440.00
65.1267 1380.00
65.1919 1334.00
65.2571 1266.00
65.3223 1308.00
65.3875 1220.00
65.4527 1282.00
65.5179 1261.00
65.5831 1427.00
65.6483 1459.00
65.7135 1544.00
65.7787 1493.00
65.8439 1699.00
65.9091 1815.00
65.9743 1929.00
66.0395 2028.00
66.1047 1903.00
66.1699 1964.00
66.2351 1936.00
66.3003 2038.00
66.3655 2389.00
66.4307 2257.00
66.4959 2069.00
66.561 1988.00
66.6263 1829.00
66.6915 1428.00
66.7566 1424.00
66.8218 1291.00
66.887 1123.00
66.9522 1100.00
67.0174 1192.00
67.0826 1043.00
67.1478 1086.00
67.213 1005.00
67.2782 1057.00
67.3434 1030.00
67.4086 1066.00
67.4738 1059.00
67.539 1070.00
67.6042 1039.00
67.6694 1052.00
67.7346 1018.00
67.7998 1029.00
67.865 989.00
67.9302 1039.00
67.9954 943.00
68.0606 977.00
68.1258 959.00
68.191 1009.00
68.2562 958.00
68.3214 985.00
68.3866 980.00
68.4518 959.00
68.517 1010.00
68.5822 1025.00
68.6474 1043.00
68.7126 1030.00
68.7778 989.00
68.843 1017.00
68.9082 1025.00
68.9734 1023.00
69.0386 1004.00
69.1038 1036.00
69.169 1092.00
69.2342 1173.00
69.2994 1083.00
69.3646 1176.00
69.4298 1176.00
69.495 1216.00
69.5602 1285.00
69.6254 1431.00
69.6906 1430.00
69.7558 1302.00
69.821 1301.00
69.8862 1238.00
69.9514 1137.00
70.0166 1131.00
70.0818 1163.00
70.147 1129.00
70.2122 1156.00
70.2774 1121.00
70.3426 1166.00
70.4078 1127.00
70.473 1076.00
70.5382 1102.00
70.6034 1105.00
70.6686 1099.00
70.7338 1137.00
70.799 1073.00
70.8642 1098.00
70.9294 1146.00
70.9946 1154.00
71.0598 1088.00
71.125 1091.00
71.1902 1131.00
71.2554 1258.00
71.3205 1238.00
71.3858 1333.00
71.451 1327.00
71.5162 1447.00
71.5813 1431.00
71.6465 1443.00
71.7117 1655.00
71.7769 1768.00
71.8421 1729.00
71.9073 1831.00
71.9725 1953.00
72.0377 1554.00
72.1029 1524.00
72.1681 1414.00
72.2333 1301.00
72.2985 1315.00
72.3637 1226.00
72.4289 1268.00
72.4941 1242.00
72.5593 1231.00
72.6245 1263.00
72.6897 1360.00
72.7549 1358.00
72.8201 1366.00
72.8853 1352.00
72.9505 1291.00
73.0157 1309.00
73.0809 1271.00
73.1461 1237.00
73.2113 1280.00
73.2765 1252.00
73.3417 1303.00
73.4069 1211.00
73.4721 1211.00
73.5373 1178.00
73.6025 1132.00
73.6677 1129.00
73.7329 1024.00
73.7981 1045.00
73.8633 1051.00
73.9285 1047.00
73.9937 987.00
74.0589 1027.00
74.1241 1023.00
74.1893 1039.00
74.2545 998.00
74.3197 1059.00
74.3849 1063.00
74.4501 1031.00
74.5153 1012.00
74.5805 951.00
74.6457 1063.00
74.7109 1083.00
74.7761 1037.00
74.8413 1043.00
74.9065 1139.00
74.9717 1063.00
75.0369 1103.00
75.1021 1152.00
75.1673 1174.00
75.2325 1213.00
75.2977 1388.00
75.3629 1452.00
75.4281 1519.00
75.4933 1474.00
75.5585 1384.00
75.6237 1389.00
75.6889 1500.00
75.7541 1625.00
75.8193 1673.00
75.8845 1609.00
75.9497 1467.00
76.0149 1509.00
76.0801 1405.00
76.1452 1279.00
76.2104 1138.00
76.2756 1075.00
76.3409 1094.00
76.406 1119.00
76.4712 1044.00
76.5364 1063.00
76.6016 1153.00
76.6668 1150.00
76.732 1122.00
76.7972 1088.00
76.8624 1071.00
76.9276 1214.00
76.9928 1147.00
77.058 1147.00
77.1232 1283.00
77.1884 1414.00
77.2536 1329.00
77.3188 1286.00
77.384 1256.00
77.4492 1217.00
77.5144 1188.00
77.5796 1119.00
77.6448 1161.00
77.71 1130.00
77.7752 1225.00
77.8404 1236.00
77.9056 1120.00
77.9708 1113.00
78.036 1235.00
78.1012 1223.00
78.1664 1201.00
78.2316 1230.00
78.2968 1276.00
78.362 1198.00
78.4272 1213.00
78.4924 1191.00
78.5576 1201.00
78.6228 1061.00
78.688 1185.00
78.7532 1175.00
78.8184 1170.00
78.8836 1169.00
78.9488 1206.00
79.014 1190.00
79.0792 1222.00
79.1444 1274.00
79.2096 1188.00
79.2748 1185.00
79.34 1150.00
79.4052 1200.00
79.4704 1171.00
79.5356 1194.00
79.6008 1301.00
79.666 1382.00
79.7312 1388.00
79.7964 1291.00
79.8616 1280.00
79.9268 1142.00
79.992 1114.00
80.0572 1097.00
80.1224 993.00
80.1876 1077.00
80.2528 1007.00
80.318 992.00
80.3832 954.00
80.4484 1005.00
80.5136 975.00
80.5788 1015.00
80.644 956.00
80.7092 1006.00
80.7744 1006.00
80.8396 980.00
80.9048 1032.00
80.9699 1023.00
81.0351 1045.00
81.1003 1009.00
81.1655 1039.00
81.2307 1078.00
81.2959 1092.00
81.3611 1077.00
81.4263 1133.00
81.4915 1118.00
81.5567 1086.00
81.6219 1090.00
81.6871 1019.00
81.7523 1201.00
81.8175 1161.00
81.8827 1200.00
81.9479 1122.00
82.0131 1131.00
82.0783 1173.00
82.1435 1229.00
82.2087 1199.00
82.2739 1294.00
82.3391 1475.00
82.4043 1360.00
82.4695 1299.00
82.5347 1358.00
82.5999 1279.00
82.6651 1182.00
82.7303 1176.00
82.7955 1225.00
82.8607 1229.00
82.9259 1223.00
82.9911 1209.00
83.0563 1246.00
83.1215 1172.00
83.1867 1298.00
83.2519 1355.00
83.3171 1403.00
83.3823 1422.00
83.4475 1435.00
83.5127 1425.00
83.5779 1389.00
83.6431 1332.00
83.7083 1354.00
83.7735 1463.00
83.8387 1370.00
83.9039 1440.00
83.9691 1416.00
84.0343 1467.00
84.0995 1535.00
84.1647 1438.00
84.2299 1315.00
84.2951 1356.00
84.3603 1352.00
84.4255 1288.00
84.4907 1322.00
84.5559 1212.00
84.6211 1349.00
84.6863 1442.00
84.7515 1449.00
84.8167 1359.00
84.8819 1430.00
84.9471 1466.00
85.0123 1405.00
85.0775 1426.00
85.1427 1355.00
85.2079 1291.00
85.2731 1212.00
85.3383 1180.00
85.4035 1115.00
85.4687 1108.00
85.5339 1144.00
85.5991 1183.00
85.6643 1216.00
85.7295 1287.00
85.7946 1138.00
85.8598 1098.00
85.925 1184.00
85.9903 1154.00
86.0554 1114.00
86.1206 1083.00
86.1858 994.00
86.251 1045.00
86.3162 1070.00
86.3814 1012.00
86.4466 1048.00
86.5118 1083.00
86.577 1080.00
86.6422 1126.00
86.7074 1093.00
86.7726 1146.00
86.8378 1136.00
86.903 1224.00
86.9682 1184.00
87.0334 1163.00
87.0986 1122.00
87.1638 1121.00
87.229 1135.00
87.2942 1023.00
87.3594 1023.00
87.4246 1022.00
87.4898 1039.00
87.555 1061.00
87.6202 1166.00
87.6854 1069.00
87.7506 1119.00
87.8158 1095.00
87.881 1133.00
87.9462 1045.00
88.0114 1121.00
88.0766 1112.00
88.1418 1189.00
88.207 1271.00
88.2722 1403.00
88.3374 1429.00
88.4026 1397.00
88.4678 1334.00
88.533 1297.00
88.5982 1411.00
88.6634 1426.00
88.7286 1344.00
88.7938 1384.00
88.859 1301.00
88.9242 1402.00
88.9894 1456.00
89.0546 1458.00
89.1198 1382.00
89.185 1347.00
89.2502 1349.00
89.3154 1430.00
89.3806 1447.00
89.4458 1491.00
89.511 1426.00
89.5762 1314.00
89.6414 1361.00
89.7066 1228.00
89.7718 1264.00
89.837 1229.00
89.9022 1207.00
89.9674 1279.00
90.0326 1291.00
90.0978 1328.00
90.163 1298.00
90.2282 1277.00
90.2934 1196.00
90.3586 1250.00
90.4238 1233.00
90.489 1269.00
90.5542 1299.00
90.6193 1437.00
90.6845 1324.00
90.7497 1368.00
90.8149 1268.00
90.8801 1342.00
90.9453 1150.00
91.0105 1108.00
91.0757 1138.00
91.1409 1084.00
91.2061 997.00
91.2713 1078.00
91.3365 1106.00
91.4017 1029.00
91.4669 1117.00
91.5321 1090.00
91.5973 1030.00
91.6625 1025.00
91.7277 1055.00
91.7929 1036.00
91.8581 970.00
91.9233 1004.00
91.9885 1073.00
92.0537 1045.00
92.1189 1050.00
92.1841 1142.00
92.2493 1155.00
92.3145 1061.00
92.3797 1063.00
92.4449 1056.00
92.5101 1042.00
92.5753 988.00
92.6405 954.00
92.7057 1003.00
92.7709 997.00
92.8361 933.00
92.9013 950.00
92.9665 923.00
93.0317 958.00
93.0969 955.00
93.1621 911.00
93.2273 992.00
93.2925 944.00
93.3577 895.00
93.4229 943.00
93.4881 945.00
93.5533 959.00
93.6185 956.00
93.6837 1000.00
93.7489 1081.00
93.8141 1026.00
93.8793 1010.00
93.9445 1051.00
94.0097 1047.00
94.0749 1007.00
94.1401 1042.00
94.2053 1033.00
94.2705 1049.00
94.3357 995.00
94.4009 980.00
94.4661 1062.00
94.5313 1090.00
94.5965 1098.00
94.6617 1144.00
94.7269 1127.00
94.7921 1151.00
94.8573 1082.00
94.9225 1150.00
94.9877 1192.00
95.0529 1148.00
95.1181 1181.00
95.1833 1167.00
95.2485 1055.00
95.3137 1147.00
95.3789 1089.00
95.444 1196.00
95.5092 1143.00
95.5744 1156.00
95.6396 1188.00
95.7048 1270.00
95.77 1266.00
95.8352 1192.00
95.9004 1261.00
95.9656 1286.00
96.0308 1370.00
96.096 1327.00
96.1612 1316.00
96.2264 1235.00
96.2916 1256.00
96.3568 1284.00
96.422 1326.00
96.4872 1185.00
96.5524 1179.00
96.6176 1253.00
96.6828 1212.00
96.748 1313.00
96.8132 1303.00
96.8784 1293.00
96.9436 1458.00
97.0088 1427.00
97.074 1401.00
97.1392 1445.00
97.2044 1402.00
97.2696 1452.00
97.3348 1471.00
97.4 1501.00
97.4652 1561.00
97.5304 1563.00
97.5956 1560.00
97.6608 1530.00
97.726 1517.00
97.7912 1441.00
97.8564 1467.00
97.9216 1495.00
97.9868 1407.00
98.052 1329.00
98.1172 1318.00
98.1824 1290.00
98.2476 1280.00
98.3128 1243.00
98.378 1248.00
98.4432 1132.00
98.5084 1140.00
98.5736 1082.00
98.6388 1105.00
98.704 1173.00
98.7692 1216.00
98.8344 1245.00
98.8996 1323.00
98.9648 1426.00
99.03 1291.00
99.0952 1289.00
99.1604 1292.00
99.2256 1391.00
99.2908 1305.00
99.356 1212.00
99.4212 1317.00
99.4864 1375.00
99.5516 1421.00
99.6168 1406.00
99.682 1393.00
99.7472 1419.00
99.8124 1318.00
99.8776 1352.00
99.9428 1294.00
100.008 1388.00
100.073 1432.00
100.095 1402.00