File: data/xrd_creation/results/NSC_126.xy
9.903433 2970.00
9.968632 2803.00
10.0338 2878.00
10.099 2997.00
10.1642 2810.00
10.2294 2949.00
10.2946 2872.00
10.3598 2819.00
10.425 2747.00
10.4902 2763.00
10.5554 2840.00
10.6206 2714.00
10.6858 2706.00
10.751 2774.00
10.8162 2718.00
10.8814 2701.00
10.9466 2667.00
11.0118 2653.00
11.077 2790.00
11.1422 2646.00
11.2074 2515.00
11.2726 2544.00
11.3378 2601.00
11.403 2566.00
11.4682 2659.00
11.5334 2611.00
11.5986 2543.00
11.6638 2505.00
11.729 2534.00
11.7942 2495.00
11.8594 2420.00
11.9246 2507.00
11.9898 2417.00
12.055 2490.00
12.1202 2247.00
12.1854 2435.00
12.2506 2511.00
12.3158 2475.00
12.381 2462.00
12.4462 2372.00
12.5114 2392.00
12.5766 2399.00
12.6418 2349.00
12.707 2387.00
12.7722 2446.00
12.8374 2316.00
12.9026 2372.00
12.9678 2321.00
13.033 2429.00
13.0982 2293.00
13.1634 2308.00
13.2286 2289.00
13.2938 2303.00
13.359 2311.00
13.4242 2286.00
13.4894 2276.00
13.5546 2275.00
13.6198 2285.00
13.685 2264.00
13.7502 2407.00
13.8154 2465.00
13.8805 2744.00
13.9457 2897.00
14.0109 3021.00
14.0761 3229.00
14.1413 3587.00
14.2065 4369.00
14.2717 5837.00
14.3369 4684.00
14.4021 2428.00
14.4673 2298.00
14.5325 2251.00
14.5977 2275.00
14.6629 2209.00
14.7281 2247.00
14.7933 2207.00
14.8585 2186.00
14.9237 2182.00
14.9889 2138.00
15.0541 2070.00
15.1193 2121.00
15.1845 2137.00
15.2497 2143.00
15.3149 2121.00
15.3801 2171.00
15.4453 2259.00
15.5105 2197.00
15.5757 2118.00
15.6409 2148.00
15.7061 2055.00
15.7713 2149.00
15.8365 2145.00
15.9017 2131.00
15.9669 2072.00
16.0321 2116.00
16.0973 2115.00
16.1625 2079.00
16.2277 2043.00
16.2929 2137.00
16.3581 2079.00
16.4233 2090.00
16.4885 2094.00
16.5537 2157.00
16.6189 2023.00
16.6841 2075.00
16.7493 2085.00
16.8145 2045.00
16.8797 2046.00
16.9449 2155.00
17.0101 2047.00
17.0753 1992.00
17.1405 2024.00
17.2057 2084.00
17.2709 2067.00
17.3361 1977.00
17.4013 2041.00
17.4665 2030.00
17.5317 2092.00
17.5969 1982.00
17.6621 2019.00
17.7273 2059.00
17.7925 2022.00
17.8577 1977.00
17.9229 1942.00
17.9881 1987.00
18.0533 1965.00
18.1185 1940.00
18.1837 2007.00
18.2489 2014.00
18.3141 1971.00
18.3793 1960.00
18.4445 2011.00
18.5097 1972.00
18.5749 1939.00
18.6401 1968.00
18.7052 2040.00
18.7704 1991.00
18.8356 1963.00
18.9008 1951.00
18.966 2030.00
19.0312 1986.00
19.0964 2050.00
19.1616 2081.00
19.2268 2246.00
19.292 2282.00
19.3572 2651.00
19.4224 3018.00
19.4876 3626.00
19.5528 4339.00
19.618 5625.00
19.6832 8731.00
19.7484 14038.00
19.8136 14271.00
19.8788 5176.00
19.944 2769.00
20.0092 2859.00
20.0744 3025.00
20.1396 3681.00
20.2048 4332.00
20.27 5582.00
20.3352 8268.00
20.4004 13862.00
20.4656 19827.00
20.5308 9880.00
20.596 3124.00
20.6612 2455.00
20.7264 2297.00
20.7916 2365.00
20.8568 2235.00
20.922 2230.00
20.9872 2302.00
21.0524 2424.00
21.1176 2151.00
21.1828 2043.00
21.248 2064.00
21.3132 1980.00
21.3784 2023.00
21.4436 2030.00
21.5088 2012.00
21.574 2026.00
21.6392 2102.00
21.7044 2087.00
21.7696 2269.00
21.8348 2407.00
21.9 2168.00
21.9652 2171.00
22.0304 2244.00
22.0956 2576.00
22.1608 2354.00
22.226 1883.00
22.2912 1803.00
22.3564 1868.00
22.4216 1898.00
22.4868 1934.00
22.552 2014.00
22.6172 2032.00
22.6824 1880.00
22.7476 1978.00
22.8128 1822.00
22.878 1949.00
22.9432 2041.00
23.0084 2039.00
23.0736 1985.00
23.1388 2155.00
23.204 2417.00
23.2692 2584.00
23.3344 3025.00
23.3996 3778.00
23.4647 5225.00
23.5299 8025.00
23.5951 14203.00
23.6603 22293.00
23.7255 11535.00
23.7907 3344.00
23.8559 2318.00
23.9211 2115.00
23.9863 2065.00
24.0515 2050.00
24.1167 1958.00
24.1819 2002.00
24.2471 1919.00
24.3123 1887.00
24.3775 2090.00
24.4427 2065.00
24.5079 1911.00
24.5731 1918.00
24.6383 1857.00
24.7035 1993.00
24.7687 2172.00
24.8339 2121.00
24.8991 1883.00
24.9643 1858.00
25.0295 1864.00
25.0947 1792.00
25.1599 1807.00
25.2251 1811.00
25.2903 1787.00
25.3555 1710.00
25.4207 1779.00
25.4859 1710.00
25.5511 1714.00
25.6163 1729.00
25.6815 1764.00
25.7467 1750.00
25.8119 1845.00
25.8771 1773.00
25.9423 1798.00
26.0075 1832.00
26.0727 1807.00
26.1379 1789.00
26.2031 1814.00
26.2683 1752.00
26.3335 1834.00
26.3987 1951.00
26.4639 2114.00
26.5291 2224.00
26.5943 2884.00
26.6595 3909.00
26.7247 4136.00
26.7899 2896.00
26.8551 2055.00
26.9203 1772.00
26.9855 1785.00
27.0507 1842.00
27.1159 1720.00
27.1811 1829.00
27.2463 1722.00
27.3115 1726.00
27.3767 1732.00
27.4419 1801.00
27.5071 1766.00
27.5723 1741.00
27.6375 1809.00
27.7027 1796.00
27.7679 1814.00
27.8331 1735.00
27.8983 1824.00
27.9635 1884.00
28.0287 1849.00
28.0939 2026.00
28.1591 2202.00
28.2243 2527.00
28.2894 3571.00
28.3546 5723.00
28.4198 10932.00
28.485 14047.00
28.5502 7535.00
28.6154 2749.00
28.6806 2096.00
28.7458 1892.00
28.811 1841.00
28.8762 1861.00
28.9414 1762.00
29.0066 1786.00
29.0718 1745.00
29.137 1736.00
29.2022 1655.00
29.2674 1649.00
29.3326 1687.00
29.3978 1726.00
29.463 1703.00
29.5282 1694.00
29.5934 1645.00
29.6586 1702.00
29.7238 1596.00
29.789 1634.00
29.8542 1565.00
29.9194 1623.00
29.9846 1676.00
30.0498 1670.00
30.115 1727.00
30.1802 1710.00
30.2454 1689.00
30.3106 1722.00
30.3758 1850.00
30.441 1842.00
30.5062 1785.00
30.5714 1827.00
30.6366 1888.00
30.7018 1944.00
30.767 1888.00
30.8322 1930.00
30.8974 1879.00
30.9626 2076.00
31.0278 2177.00
31.093 2287.00
31.1582 2691.00
31.2234 3746.00
31.2886 6219.00
31.3538 12404.00
31.419 20722.00
31.4842 15754.00
31.5494 9283.00
31.6146 4398.00
31.6798 2885.00
31.745 2346.00
31.8102 2127.00
31.8754 1981.00
31.9406 1761.00
32.0058 1745.00
32.071 1681.00
32.1362 1537.00
32.2014 1778.00
32.2666 1639.00
32.3318 1656.00
32.397 1622.00
32.4622 1666.00
32.5274 1689.00
32.5926 1604.00
32.6578 1634.00
32.723 1630.00
32.7882 1662.00
32.8534 1586.00
32.9186 1691.00
32.9838 1623.00
33.0489 1674.00
33.1141 1629.00
33.1793 1689.00
33.2445 1595.00
33.3097 1665.00
33.3749 1620.00
33.4401 1597.00
33.5053 1585.00
33.5705 1601.00
33.6357 1619.00
33.7009 1754.00
33.7661 1783.00
33.8313 2056.00
33.8965 2425.00
33.9617 2335.00
34.0269 2110.00
34.0921 1779.00
34.1573 1615.00
34.2225 1551.00
34.2877 1699.00
34.3529 1664.00
34.4181 1728.00
34.4833 1696.00
34.5485 1660.00
34.6137 1680.00
34.6789 1642.00
34.7441 1775.00
34.8093 1743.00
34.8745 1794.00
34.9397 1904.00
35.0049 2377.00
35.0701 3486.00
35.1353 6141.00
35.2005 6259.00
35.2657 4528.00
35.3309 2711.00
35.3961 2819.00
35.4613 4379.00
35.5265 8784.00
35.5917 10164.00
35.6569 6695.00
35.7221 3224.00
35.7873 2112.00
35.8525 1872.00
35.9177 2118.00
35.9829 2285.00
36.0481 2311.00
36.1133 2196.00
36.1785 1962.00
36.2437 1821.00
36.3089 1694.00
36.3741 1882.00
36.4393 1966.00
36.5045 1947.00
36.5697 1904.00
36.6349 1783.00
36.7001 1698.00
36.7653 1500.00
36.8305 1594.00
36.8957 1504.00
36.9609 1515.00
37.0261 1463.00
37.0913 1525.00
37.1565 1453.00
37.2217 1592.00
37.2869 1564.00
37.3521 1548.00
37.4173 1638.00
37.4825 1616.00
37.5477 1790.00
37.6129 1909.00
37.6781 1718.00
37.7433 1605.00
37.8085 1525.00
37.8736 1589.00
37.9388 1510.00
38.004 1490.00
38.0692 1563.00
38.1344 1460.00
38.1996 1445.00
38.2648 1550.00
38.33 1516.00
38.3952 1530.00
38.4604 1513.00
38.5256 1545.00
38.5908 1520.00
38.656 1496.00
38.7212 1478.00
38.7864 1510.00
38.8516 1603.00
38.9168 1533.00
38.982 1510.00
39.0472 1510.00
39.1124 1513.00
39.1776 1571.00
39.2428 1606.00
39.308 1657.00
39.3732 1621.00
39.4384 1471.00
39.5036 1565.00
39.5688 1507.00
39.634 1704.00
39.6992 1892.00
39.7644 2391.00
39.8296 2907.00
39.8948 2320.00
39.96 1973.00
40.0252 1661.00
40.0904 1575.00
40.1556 1671.00
40.2208 1570.00
40.286 1622.00
40.3512 1608.00
40.4164 1383.00
40.4816 1512.00
40.5468 1529.00
40.612 1415.00
40.6772 1504.00
40.7424 1467.00
40.8076 1526.00
40.8728 1421.00
40.938 1580.00
41.0032 1651.00
41.0684 1597.00
41.1336 1731.00
41.1988 2200.00
41.264 2358.00
41.3292 2221.00
41.3944 2353.00
41.4596 2619.00
41.5248 2475.00
41.59 2351.00
41.6552 2187.00
41.7204 2211.00
41.7856 2091.00
41.8508 1872.00
41.916 1630.00
41.9812 1541.00
42.0464 1727.00
42.1116 1774.00
42.1768 1973.00
42.242 1760.00
42.3072 1682.00
42.3724 1552.00
42.4376 1635.00
42.5028 1646.00
42.568 1684.00
42.6332 1466.00
42.6983 1524.00
42.7635 1619.00
42.8287 1641.00
42.8939 1834.00
42.9591 2261.00
43.0243 3351.00
43.0895 4197.00
43.1547 3158.00
43.2199 2580.00
43.2851 1771.00
43.3503 1677.00
43.4155 1629.00
43.4807 1682.00
43.5459 1937.00
43.6111 2222.00
43.6763 2116.00
43.7415 2257.00
43.8067 2054.00
43.8719 1831.00
43.9371 1578.00
44.0023 1580.00
44.0675 1442.00
44.1327 1540.00
44.1979 1476.00
44.2631 1476.00
44.3283 1399.00
44.3935 1444.00
44.4587 1555.00
44.5239 1537.00
44.5891 1514.00
44.6543 1572.00
44.7195 1538.00
44.7847 1689.00
44.8499 1881.00
44.9151 2463.00
44.9803 4415.00
45.0455 6158.00
45.1107 4544.00
45.1759 3698.00
45.2411 2109.00
45.3063 1581.00
45.3715 1584.00
45.4367 1538.00
45.5019 1512.00
45.5671 1500.00
45.6323 1578.00
45.6975 1629.00
45.7627 1641.00
45.8279 1760.00
45.8931 2116.00
45.9583 3309.00
46.0235 4448.00
46.0887 3079.00
46.1539 2794.00
46.2191 1792.00
46.2843 1599.00
46.3495 1551.00
46.4147 1581.00
46.4799 1507.00
46.5451 1517.00
46.6103 1798.00
46.6755 2321.00
46.7407 2893.00
46.8059 2924.00
46.8711 2440.00
46.9363 2155.00
47.0015 1644.00
47.0667 1576.00
47.1319 1475.00
47.1971 1455.00
47.2623 1408.00
47.3275 1496.00
47.3927 1497.00
47.4579 1436.00
47.523 1572.00
47.5882 1747.00
47.6534 1887.00
47.7186 1870.00
47.7838 1922.00
47.849 2195.00
47.9142 3146.00
47.9794 6340.00
48.0446 7597.00
48.1098 4855.00
48.175 4352.00
48.2402 2396.00
48.3054 2073.00
48.3706 1908.00
48.4358 1849.00
48.501 1800.00
48.5662 1961.00
48.6314 2548.00
48.6966 2077.00
48.7618 2067.00
48.827 1606.00
48.8922 1533.00
48.9574 1488.00
49.0226 1485.00
49.0878 1422.00
49.153 1475.00
49.2182 1387.00
49.2834 1418.00
49.3486 1498.00
49.4138 1477.00
49.479 1443.00
49.5442 1529.00
49.6094 1548.00
49.6746 1527.00
49.7398 1493.00
49.805 1548.00
49.8702 1639.00
49.9354 1695.00
50.0006 1585.00
50.0658 1598.00
50.131 1494.00
50.1962 1532.00
50.2614 1526.00
50.3266 1598.00
50.3918 1573.00
50.457 1710.00
50.5222 1680.00
50.5874 1579.00
50.6526 1704.00
50.7178 1705.00
50.783 1588.00
50.8482 1629.00
50.9134 1606.00
50.9786 1482.00
51.0438 1440.00
51.109 1600.00
51.1742 1734.00
51.2394 2100.00
51.3046 2897.00
51.3698 4910.00
51.435 5974.00
51.5002 4707.00
51.5654 3799.00
51.6306 2638.00
51.6958 2016.00
51.761 2442.00
51.8262 2360.00
51.8914 1903.00
51.9566 1898.00
52.0218 1676.00
52.087 1367.00
52.1522 1430.00
52.2174 1388.00
52.2826 1385.00
52.3477 1511.00
52.4129 1408.00
52.4781 1458.00
52.5433 1406.00
52.6085 1511.00
52.6737 1477.00
52.7389 1424.00
52.8041 1528.00
52.8693 1542.00
52.9345 1414.00
52.9997 1430.00
53.0649 1448.00
53.1301 1504.00
53.1953 1427.00
53.2605 1586.00
53.3257 1413.00
53.3909 1511.00
53.4561 1463.00
53.5213 1454.00
53.5865 1511.00
53.6517 1449.00
53.7169 1477.00
53.7821 1440.00
53.8473 1461.00
53.9125 1449.00
53.9777 1539.00
54.0429 1552.00
54.1081 1630.00
54.1733 2056.00
54.2385 3223.00
54.3037 3276.00
54.3689 2504.00
54.4341 2499.00
54.4993 1824.00
54.5645 1613.00
54.6297 1643.00
54.6949 1605.00
54.7601 1716.00
54.8253 1585.00
54.8905 1797.00
54.9557 1927.00
55.0209 2487.00
55.0861 4151.00
55.1513 4238.00
55.2165 3340.00
55.2817 4183.00
55.3469 5483.00
55.4121 6867.00
55.4773 4555.00
55.5425 4751.00
55.6077 3139.00
55.6729 2156.00
55.7381 1863.00
55.8033 1619.00
55.8685 1574.00
55.9337 1428.00
55.9989 1492.00
56.0641 1574.00
56.1293 1447.00
56.1945 1435.00
56.2597 1418.00
56.3249 1449.00
56.3901 1438.00
56.4553 1453.00
56.5205 1627.00
56.5857 1672.00
56.6509 1493.00
56.7161 1666.00
56.7813 1847.00
56.8465 1936.00
56.9117 1755.00
56.9769 1686.00
57.042 1516.00
57.1073 1443.00
57.1724 1470.00
57.2376 1393.00
57.3028 1420.00
57.368 1445.00
57.4332 1358.00
57.4984 1436.00
57.5636 1432.00
57.6288 1480.00
57.694 1511.00
57.7592 1533.00
57.8244 1578.00
57.8896 1553.00
57.9548 1543.00
58.02 1539.00
58.0852 1639.00
58.1504 1733.00
58.2156 2015.00
58.2808 2261.00
58.346 2441.00
58.4112 2673.00
58.4764 2794.00
58.5416 2361.00
58.6068 2066.00
58.672 1920.00
58.7372 1615.00
58.8024 1455.00
58.8676 1389.00
58.9328 1439.00
58.998 1464.00
59.0632 1371.00
59.1284 1401.00
59.1936 1396.00
59.2588 1425.00
59.324 1502.00
59.3892 1392.00
59.4544 1425.00
59.5196 1553.00
59.5848 1535.00
59.65 1606.00
59.7152 1719.00
59.7804 2003.00
59.8456 2653.00
59.9108 3930.00
59.976 3549.00
60.0412 2696.00
60.1064 2826.00
60.1716 2122.00
60.2368 1841.00
60.302 1634.00
60.3672 1539.00
60.4324 1582.00
60.4976 1499.00
60.5628 1482.00
60.628 1445.00
60.6932 1463.00
60.7584 1626.00
60.8236 1706.00
60.8888 2310.00
60.954 3945.00
61.0192 4288.00
61.0844 2802.00
61.1496 3441.00
61.2148 2545.00
61.28 1800.00
61.3452 1762.00
61.4104 1638.00
61.4756 1537.00
61.5408 1440.00
61.606 1522.00
61.6712 1376.00
61.7364 1434.00
61.8016 1427.00
61.8667 1484.00
61.932 1500.00
61.9971 1392.00
62.0623 1474.00
62.1275 1581.00
62.1927 1708.00
62.2579 2196.00
62.3231 2359.00
62.3883 2684.00
62.4535 2621.00
62.5187 2586.00
62.5839 2282.00
62.6491 1931.00
62.7143 1796.00
62.7795 1529.00
62.8447 1388.00
62.9099 1538.00
62.9751 1653.00
63.0403 1758.00
63.1055 1908.00
63.1707 2130.00
63.2359 2452.00
63.3011 2980.00
63.3663 2380.00
63.4315 2376.00
63.4967 2757.00
63.5619 2794.00
63.6271 2311.00
63.6923 2185.00
63.7575 2097.00
63.8227 2058.00
63.8879 2334.00
63.9531 2158.00
64.0183 1881.00
64.0835 1894.00
64.1487 1678.00
64.2139 1533.00
64.2791 1345.00
64.3443 1432.00
64.4095 1404.00
64.4747 1353.00
64.5399 1282.00
64.6051 1359.00
64.6703 1378.00
64.7355 1365.00
64.8007 1494.00
64.8659 1499.00
64.9311 1581.00
64.9963 1485.00
65.0615 1538.00
65.1267 1552.00
65.1919 1650.00
65.2571 1725.00
65.3223 1772.00
65.3875 1823.00
65.4527 1717.00
65.5179 1573.00
65.5831 1623.00
65.6483 1488.00
65.7135 1428.00
65.7787 1409.00
65.8439 1442.00
65.9091 1442.00
65.9743 1523.00
66.0395 1573.00
66.1047 1795.00
66.1699 2228.00
66.2351 2476.00
66.3003 2608.00
66.3655 2249.00
66.4307 2020.00
66.4959 1869.00
66.561 1668.00
66.6263 1464.00
66.6915 1405.00
66.7566 1430.00
66.8218 1408.00
66.887 1362.00
66.9522 1436.00
67.0174 1489.00
67.0826 1720.00
67.1478 2341.00
67.213 2125.00
67.2782 1814.00
67.3434 2030.00
67.4086 1783.00
67.4738 1639.00
67.539 1729.00
67.6042 1977.00
67.6694 1978.00
67.7346 2387.00
67.7998 2300.00
67.865 1884.00
67.9302 1866.00
67.9954 1894.00
68.0606 1557.00
68.1258 1473.00
68.191 1479.00
68.2562 1404.00
68.3214 1393.00
68.3866 1443.00
68.4518 1538.00
68.517 1436.00
68.5822 1525.00
68.6474 1567.00
68.7126 1910.00
68.7778 2108.00
68.843 1890.00
68.9082 1770.00
68.9734 1685.00
69.0386 1560.00
69.1038 1455.00
69.169 1435.00
69.2342 1366.00
69.2994 1383.00
69.3646 1326.00
69.4298 1327.00
69.495 1390.00
69.5602 1278.00
69.6254 1290.00
69.6906 1290.00
69.7558 1381.00
69.821 1436.00
69.8862 1364.00
69.9514 1370.00
70.0166 1435.00
70.0818 1426.00
70.147 1347.00
70.2122 1393.00
70.2774 1382.00
70.3426 1286.00
70.4078 1322.00
70.473 1370.00
70.5382 1351.00
70.6034 1364.00
70.6686 1406.00
70.7338 1568.00
70.799 1797.00
70.8642 2558.00
70.9294 2930.00
70.9946 2184.00
71.0598 2215.00
71.125 2259.00
71.1902 1849.00
71.2554 1495.00
71.3205 1411.00
71.3858 1401.00
71.451 1293.00
71.5162 1350.00
71.5813 1309.00
71.6465 1334.00
71.7117 1321.00
71.7769 1399.00
71.8421 1358.00
71.9073 1329.00
71.9725 1343.00
72.0377 1429.00
72.1029 1504.00
72.1681 1495.00
72.2333 1438.00
72.2985 1408.00
72.3637 1399.00
72.4289 1368.00
72.4941 1368.00
72.5593 1345.00
72.6245 1385.00
72.6897 1341.00
72.7549 1329.00
72.8201 1319.00
72.8853 1327.00
72.9505 1320.00
73.0157 1416.00
73.0809 1319.00
73.1461 1362.00
73.2113 1357.00
73.2765 1317.00
73.3417 1420.00
73.4069 1356.00
73.4721 1418.00
73.5373 1479.00
73.6025 1725.00
73.6677 1988.00
73.7329 2091.00
73.7981 2131.00
73.8633 2057.00
73.9285 1960.00
73.9937 1793.00
74.0589 1650.00
74.1241 1477.00
74.1893 1345.00
74.2545 1315.00
74.3197 1341.00
74.3849 1272.00
74.4501 1338.00
74.5153 1475.00
74.5805 1441.00
74.6457 1563.00
74.7109 1781.00
74.7761 2460.00
74.8413 2716.00
74.9065 2127.00
74.9717 2049.00
75.0369 2139.00
75.1021 1899.00
75.1673 1700.00
75.2325 1624.00
75.2977 1618.00
75.3629 1682.00
75.4281 1844.00
75.4933 1906.00
75.5585 1728.00
75.6237 1703.00
75.6889 1658.00
75.7541 1647.00
75.8193 1497.00
75.8845 1462.00
75.9497 1386.00
76.0149 1386.00
76.0801 1250.00
76.1452 1303.00
76.2104 1369.00
76.2756 1386.00
76.3409 1318.00
76.406 1277.00
76.4712 1371.00
76.5364 1439.00
76.6016 1544.00
76.6668 1415.00
76.732 1304.00
76.7972 1427.00
76.8624 1326.00
76.9276 1354.00
76.9928 1384.00
77.058 1324.00
77.1232 1352.00
77.1884 1359.00
77.2536 1565.00
77.3188 1577.00
77.384 1522.00
77.4492 1462.00
77.5144 1448.00
77.5796 1439.00
77.6448 1362.00
77.71 1335.00
77.7752 1309.00
77.8404 1294.00
77.9056 1321.00
77.9708 1278.00
78.036 1321.00
78.1012 1336.00
78.1664 1564.00
78.2316 1581.00
78.2968 1579.00
78.362 1824.00
78.4272 2116.00
78.4924 1813.00
78.5576 1650.00
78.6228 1776.00
78.688 1941.00
78.7532 2084.00
78.8184 1741.00
78.8836 1633.00
78.9488 1759.00
79.014 1701.00
79.0792 1605.00
79.1444 1527.00
79.2096 1583.00
79.2748 1530.00
79.34 1403.00
79.4052 1391.00
79.4704 1470.00
79.5356 1342.00
79.6008 1480.00
79.666 1520.00
79.7312 1541.00
79.7964 1407.00
79.8616 1375.00
79.9268 1428.00
79.992 1427.00
80.0572 1346.00
80.1224 1364.00
80.1876 1333.00
80.2528 1289.00
80.318 1310.00
80.3832 1279.00
80.4484 1357.00
80.5136 1374.00
80.5788 1337.00
80.644 1401.00
80.7092 1486.00
80.7744 1670.00
80.8396 2047.00
80.9048 2222.00
80.9699 2095.00
81.0351 1840.00
81.1003 1817.00
81.1655 1824.00
81.2307 1656.00
81.2959 1456.00
81.3611 1381.00
81.4263 1381.00
81.4915 1318.00
81.5567 1375.00
81.6219 1296.00
81.6871 1288.00
81.7523 1365.00
81.8175 1367.00
81.8827 1291.00
81.9479 1359.00
82.0131 1271.00
82.0783 1373.00
82.1435 1322.00
82.2087 1315.00
82.2739 1318.00
82.3391 1390.00
82.4043 1356.00
82.4695 1340.00
82.5347 1447.00
82.5999 1432.00
82.6651 1387.00
82.7303 1263.00
82.7955 1332.00
82.8607 1382.00
82.9259 1367.00
82.9911 1353.00
83.0563 1420.00
83.1215 1677.00
83.1867 2207.00
83.2519 2188.00
83.3171 1778.00
83.3823 1627.00
83.4475 1945.00
83.5127 1868.00
83.5779 1414.00
83.6431 1539.00
83.7083 1423.00
83.7735 1344.00
83.8387 1319.00
83.9039 1309.00
83.9691 1303.00
84.0343 1363.00
84.0995 1243.00
84.1647 1263.00
84.2299 1366.00
84.2951 1364.00
84.3603 1372.00
84.4255 1387.00
84.4907 1555.00
84.5559 2011.00
84.6211 1878.00
84.6863 1532.00
84.7515 1540.00
84.8167 1705.00
84.8819 1651.00
84.9471 1400.00
85.0123 1521.00
85.0775 1526.00
85.1427 1529.00
85.2079 1575.00
85.2731 1639.00
85.3383 1612.00
85.4035 1490.00
85.4687 1435.00
85.5339 1454.00
85.5991 1403.00
85.6643 1346.00
85.7295 1331.00
85.7946 1322.00
85.8598 1289.00
85.925 1400.00
85.9903 1467.00
86.0554 1472.00
86.1206 1570.00
86.1858 1573.00
86.251 1575.00
86.3162 1499.00
86.3814 1475.00
86.4466 1516.00
86.5118 1412.00
86.577 1398.00
86.6422 1529.00
86.7074 1418.00
86.7726 1533.00
86.8378 1525.00
86.903 1569.00
86.9682 1432.00
87.0334 1489.00
87.0986 1429.00
87.1638 1408.00
87.229 1395.00
87.2942 1321.00
87.3594 1379.00
87.4246 1376.00
87.4898 1297.00
87.555 1259.00
87.6202 1340.00
87.6854 1290.00
87.7506 1427.00
87.8158 1494.00
87.881 1674.00
87.9462 1769.00
88.0114 1516.00
88.0766 1517.00
88.1418 1486.00
88.207 1533.00
88.2722 1508.00
88.3374 1408.00
88.4026 1309.00
88.4678 1318.00
88.533 1341.00
88.5982 1347.00
88.6634 1329.00
88.7286 1431.00
88.7938 1395.00
88.859 1554.00
88.9242 1569.00
88.9894 1679.00
89.0546 1687.00
89.1198 1589.00
89.185 1667.00
89.2502 2018.00
89.3154 2567.00
89.3806 2162.00
89.4458 1718.00
89.511 1730.00
89.5762 1884.00
89.6414 1794.00
89.7066 1487.00
89.7718 1508.00
89.837 1394.00
89.9022 1385.00
89.9674 1326.00
90.0326 1382.00
90.0978 1364.00
90.163 1461.00
90.2282 1479.00
90.2934 1460.00
90.3586 1485.00
90.4238 1371.00
90.489 1392.00
90.5542 1461.00
90.6193 1415.00
90.6845 1469.00
90.7497 1441.00
90.8149 1368.00
90.8801 1357.00
90.9453 1377.00
91.0105 1398.00
91.0757 1298.00
91.1409 1408.00
91.2061 1409.00
91.2713 1455.00
91.3365 1702.00
91.4017 1792.00
91.4669 1871.00
91.5321 1822.00
91.5973 1759.00
91.6625 1623.00
91.7277 1616.00
91.7929 1619.00
91.8581 1487.00
91.9233 1456.00
91.9885 1378.00
92.0537 1399.00
92.1189 1327.00
92.1841 1454.00
92.2493 1538.00
92.3145 1496.00
92.3797 1392.00
92.4449 1374.00
92.5101 1453.00
92.5753 1407.00
92.6405 1304.00
92.7057 1260.00
92.7709 1242.00
92.8361 1309.00
92.9013 1270.00
92.9665 1312.00
93.0317 1338.00
93.0969 1250.00
93.1621 1318.00
93.2273 1281.00
93.2925 1300.00
93.3577 1387.00
93.4229 1322.00
93.4881 1361.00
93.5533 1460.00
93.6185 1518.00
93.6837 1668.00
93.7489 1681.00
93.8141 1605.00
93.8793 1612.00
93.9445 1459.00
94.0097 1697.00
94.0749 1579.00
94.1401 1526.00
94.2053 1379.00
94.2705 1404.00
94.3357 1393.00
94.4009 1410.00
94.4661 1436.00
94.5313 1400.00
94.5965 1492.00
94.6617 1414.00
94.7269 1492.00
94.7921 1491.00
94.8573 1745.00
94.9225 1961.00
94.9877 1941.00
95.0529 1766.00
95.1181 1609.00
95.1833 1508.00
95.2485 1656.00
95.3137 1688.00
95.3789 1529.00
95.444 1454.00
95.5092 1497.00
95.5744 1385.00
95.6396 1473.00
95.7048 1688.00
95.77 1887.00
95.8352 1833.00
95.9004 1605.00
95.9656 1479.00
96.0308 1631.00
96.096 1669.00
96.1612 1704.00
96.2264 1564.00
96.2916 1690.00
96.3568 1742.00
96.422 1431.00
96.4872 1438.00
96.5524 1356.00
96.6176 1505.00
96.6828 1510.00
96.748 1342.00
96.8132 1369.00
96.8784 1380.00
96.9436 1372.00
97.0088 1377.00
97.074 1225.00
97.1392 1312.00
97.2044 1299.00
97.2696 1356.00
97.3348 1263.00
97.4 1192.00
97.4652 1241.00
97.5304 1265.00
97.5956 1350.00
97.6608 1273.00
97.726 1294.00
97.7912 1357.00
97.8564 1340.00
97.9216 1305.00
97.9868 1271.00
98.052 1283.00
98.1172 1303.00
98.1824 1302.00
98.2476 1335.00
98.3128 1290.00
98.378 1270.00
98.4432 1321.00
98.5084 1489.00
98.5736 1716.00
98.6388 1713.00
98.704 1454.00
98.7692 1352.00
98.8344 1387.00
98.8996 1542.00
98.9648 1500.00
99.03 1445.00
99.0952 1338.00
99.1604 1399.00
99.2256 1365.00
99.2908 1408.00
99.356 1427.00
99.4212 1454.00
99.4864 1654.00
99.5516 1703.00
99.6168 1460.00
99.682 1471.00
99.7472 1436.00
99.8124 1463.00
99.8776 1521.00
99.9428 1509.00
100.008 1584.00
100.073 1696.00
100.095 1684.00