File: data/xrd_creation/results/NSC_202.xy
9.903433 2842.00
9.968632 2823.00
10.0338 2729.00
10.099 2689.00
10.1642 2787.00
10.2294 2738.00
10.2946 2679.00
10.3598 2714.00
10.425 2619.00
10.4902 2656.00
10.5554 2651.00
10.6206 2600.00
10.6858 2628.00
10.751 2496.00
10.8162 2608.00
10.8814 2401.00
10.9466 2480.00
11.0118 2478.00
11.077 2387.00
11.1422 2454.00
11.2074 2440.00
11.2726 2433.00
11.3378 2314.00
11.403 2358.00
11.4682 2370.00
11.5334 2399.00
11.5986 2336.00
11.6638 2316.00
11.729 2319.00
11.7942 2168.00
11.8594 2282.00
11.9246 2253.00
11.9898 2183.00
12.055 2181.00
12.1202 2234.00
12.1854 2136.00
12.2506 2137.00
12.3158 2114.00
12.381 2147.00
12.4462 2157.00
12.5114 2095.00
12.5766 2127.00
12.6418 2098.00
12.707 2086.00
12.7722 2072.00
12.8374 2012.00
12.9026 1979.00
12.9678 2011.00
13.033 1984.00
13.0982 2062.00
13.1634 2036.00
13.2286 2026.00
13.2938 1956.00
13.359 2057.00
13.4242 2035.00
13.4894 2077.00
13.5546 2060.00
13.6198 2213.00
13.685 2245.00
13.7502 2296.00
13.8154 2350.00
13.8805 2203.00
13.9457 2056.00
14.0109 1963.00
14.0761 1937.00
14.1413 1934.00
14.2065 1886.00
14.2717 1946.00
14.3369 1952.00
14.4021 2011.00
14.4673 1955.00
14.5325 2007.00
14.5977 2080.00
14.6629 2200.00
14.7281 2268.00
14.7933 2249.00
14.8585 2219.00
14.9237 2168.00
14.9889 1874.00
15.0541 1966.00
15.1193 1892.00
15.1845 1784.00
15.2497 1887.00
15.3149 1767.00
15.3801 1790.00
15.4453 1831.00
15.5105 1718.00
15.5757 1775.00
15.6409 1876.00
15.7061 1844.00
15.7713 1811.00
15.8365 1843.00
15.9017 1774.00
15.9669 1812.00
16.0321 1701.00
16.0973 1772.00
16.1625 1688.00
16.2277 1768.00
16.2929 1778.00
16.3581 1712.00
16.4233 1679.00
16.4885 1765.00
16.5537 1737.00
16.6189 1725.00
16.6841 1627.00
16.7493 1700.00
16.8145 1705.00
16.8797 1689.00
16.9449 1680.00
17.0101 1685.00
17.0753 1620.00
17.1405 1705.00
17.2057 1646.00
17.2709 1576.00
17.3361 1656.00
17.4013 1668.00
17.4665 1638.00
17.5317 1634.00
17.5969 1838.00
17.6621 1619.00
17.7273 1694.00
17.7925 1691.00
17.8577 1691.00
17.9229 1666.00
17.9881 1609.00
18.0533 1636.00
18.1185 1529.00
18.1837 1661.00
18.2489 1598.00
18.3141 1644.00
18.3793 1635.00
18.4445 1592.00
18.5097 1585.00
18.5749 1532.00
18.6401 1559.00
18.7052 1541.00
18.7704 1529.00
18.8356 1638.00
18.9008 1678.00
18.966 1587.00
19.0312 1653.00
19.0964 1755.00
19.1616 1822.00
19.2268 2164.00
19.292 2574.00
19.3572 3220.00
19.4224 3779.00
19.4876 4141.00
19.5528 3973.00
19.618 3595.00
19.6832 2921.00
19.7484 2364.00
19.8136 2030.00
19.8788 1662.00
19.944 1581.00
20.0092 1632.00
20.0744 1528.00
20.1396 1572.00
20.2048 1624.00
20.27 1636.00
20.3352 1600.00
20.4004 1629.00
20.4656 1605.00
20.5308 1667.00
20.596 1764.00
20.6612 1834.00
20.7264 2026.00
20.7916 2083.00
20.8568 2051.00
20.922 2069.00
20.9872 2012.00
21.0524 2066.00
21.1176 2128.00
21.1828 2302.00
21.248 2484.00
21.3132 2474.00
21.3784 2530.00
21.4436 2438.00
21.5088 2134.00
21.574 2006.00
21.6392 1726.00
21.7044 1604.00
21.7696 1635.00
21.8348 1549.00
21.9 1526.00
21.9652 1510.00
22.0304 1475.00
22.0956 1545.00
22.1608 1695.00
22.226 1930.00
22.2912 2174.00
22.3564 2584.00
22.4216 2826.00
22.4868 2508.00
22.552 2262.00
22.6172 1906.00
22.6824 1636.00
22.7476 1688.00
22.8128 1800.00
22.878 1940.00
22.9432 1975.00
23.0084 1886.00
23.0736 1773.00
23.1388 1603.00
23.204 1394.00
23.2692 1315.00
23.3344 1383.00
23.3996 1362.00
23.4647 1331.00
23.5299 1384.00
23.5951 1371.00
23.6603 1310.00
23.7255 1385.00
23.7907 1459.00
23.8559 1462.00
23.9211 1561.00
23.9863 1721.00
24.0515 1705.00
24.1167 1703.00
24.1819 1693.00
24.2471 1636.00
24.3123 1614.00
24.3775 1565.00
24.4427 1535.00
24.5079 1463.00
24.5731 1481.00
24.6383 1546.00
24.7035 1475.00
24.7687 1481.00
24.8339 1392.00
24.8991 1330.00
24.9643 1278.00
25.0295 1354.00
25.0947 1308.00
25.1599 1185.00
25.2251 1325.00
25.2903 1254.00
25.3555 1259.00
25.4207 1238.00
25.4859 1345.00
25.5511 1218.00
25.6163 1323.00
25.6815 1297.00
25.7467 1347.00
25.8119 1439.00
25.8771 1436.00
25.9423 1381.00
26.0075 1299.00
26.0727 1224.00
26.1379 1239.00
26.2031 1273.00
26.2683 1272.00
26.3335 1207.00
26.3987 1188.00
26.4639 1245.00
26.5291 1242.00
26.5943 1185.00
26.6595 1169.00
26.7247 1192.00
26.7899 1289.00
26.8551 1307.00
26.9203 1257.00
26.9855 1315.00
27.0507 1259.00
27.1159 1336.00
27.1811 1321.00
27.2463 1310.00
27.3115 1394.00
27.3767 1376.00
27.4419 1471.00
27.5071 1684.00
27.5723 1854.00
27.6375 2141.00
27.7027 2287.00
27.7679 2290.00
27.8331 2095.00
27.8983 1876.00
27.9635 1736.00
28.0287 1768.00
28.0939 2084.00
28.1591 2443.00
28.2243 2823.00
28.2894 3043.00
28.3546 3039.00
28.4198 2770.00
28.485 2405.00
28.5502 2113.00
28.6154 1724.00
28.6806 1541.00
28.7458 1384.00
28.811 1271.00
28.8762 1283.00
28.9414 1244.00
29.0066 1344.00
29.0718 1318.00
29.137 1327.00
29.2022 1402.00
29.2674 1370.00
29.3326 1277.00
29.3978 1323.00
29.463 1246.00
29.5282 1225.00
29.5934 1132.00
29.6586 1174.00
29.7238 1158.00
29.789 1243.00
29.8542 1232.00
29.9194 1188.00
29.9846 1262.00
30.0498 1206.00
30.115 1289.00
30.1802 1364.00
30.2454 1455.00
30.3106 1554.00
30.3758 1583.00
30.441 1714.00
30.5062 1799.00
30.5714 1915.00
30.6366 2199.00
30.7018 2689.00
30.767 3181.00
30.8322 3709.00
30.8974 3968.00
30.9626 3963.00
31.0278 3821.00
31.093 3340.00
31.1582 2692.00
31.2234 2221.00
31.2886 1972.00
31.3538 1916.00
31.419 2012.00
31.4842 2186.00
31.5494 2386.00
31.6146 2322.00
31.6798 2307.00
31.745 2169.00
31.8102 1920.00
31.8754 1581.00
31.9406 1405.00
32.0058 1320.00
32.071 1371.00
32.1362 1368.00
32.2014 1327.00
32.2666 1329.00
32.3318 1303.00
32.397 1230.00
32.4622 1243.00
32.5274 1188.00
32.5926 1193.00
32.6578 1135.00
32.723 1207.00
32.7882 1310.00
32.8534 1336.00
32.9186 1444.00
32.9838 1641.00
33.0489 1788.00
33.1141 1879.00
33.1793 1963.00
33.2445 2109.00
33.3097 2027.00
33.3749 1754.00
33.4401 1651.00
33.5053 1689.00
33.5705 1770.00
33.6357 1760.00
33.7009 1700.00
33.7661 1725.00
33.8313 1714.00
33.8965 1977.00
33.9617 2237.00
34.0269 2769.00
34.0921 3574.00
34.1573 4554.00
34.2225 4914.00
34.2877 4591.00
34.3529 3922.00
34.4181 3041.00
34.4833 2265.00
34.5485 1851.00
34.6137 1618.00
34.6789 1612.00
34.7441 1488.00
34.8093 1429.00
34.8745 1294.00
34.9397 1217.00
35.0049 1100.00
35.0701 1137.00
35.1353 1109.00
35.2005 1208.00
35.2657 1288.00
35.3309 1392.00
35.3961 1389.00
35.4613 1408.00
35.5265 1478.00
35.5917 1413.00
35.6569 1304.00
35.7221 1271.00
35.7873 1214.00
35.8525 1181.00
35.9177 1217.00
35.9829 1337.00
36.0481 1260.00
36.1133 1416.00
36.1785 1282.00
36.2437 1215.00
36.3089 1113.00
36.3741 1080.00
36.4393 1069.00
36.5045 1030.00
36.5697 966.00
36.6349 1059.00
36.7001 1041.00
36.7653 1133.00
36.8305 1116.00
36.8957 1113.00
36.9609 1165.00
37.0261 1052.00
37.0913 1017.00
37.1565 1015.00
37.2217 1001.00
37.2869 983.00
37.3521 1008.00
37.4173 1013.00
37.4825 1013.00
37.5477 918.00
37.6129 962.00
37.6781 938.00
37.7433 956.00
37.8085 946.00
37.8736 914.00
37.9388 945.00
38.004 960.00
38.0692 972.00
38.1344 987.00
38.1996 986.00
38.2648 939.00
38.33 893.00
38.3952 970.00
38.4604 1033.00
38.5256 996.00
38.5908 1091.00
38.656 1083.00
38.7212 1105.00
38.7864 1054.00
38.8516 1050.00
38.9168 1083.00
38.982 1129.00
39.0472 1026.00
39.1124 1010.00
39.1776 1037.00
39.2428 1023.00
39.308 1008.00
39.3732 1093.00
39.4384 1061.00
39.5036 1098.00
39.5688 1082.00
39.634 1208.00
39.6992 1182.00
39.7644 1274.00
39.8296 1223.00
39.8948 1102.00
39.96 1055.00
40.0252 1085.00
40.0904 1063.00
40.1556 1046.00
40.2208 974.00
40.286 1024.00
40.3512 1032.00
40.4164 988.00
40.4816 951.00
40.5468 1010.00
40.612 1115.00
40.6772 1044.00
40.7424 1171.00
40.8076 1219.00
40.8728 1252.00
40.938 1357.00
41.0032 1410.00
41.0684 1513.00
41.1336 1554.00
41.1988 1576.00
41.264 1463.00
41.3292 1545.00
41.3944 1445.00
41.4596 1378.00
41.5248 1453.00
41.59 1421.00
41.6552 1424.00
41.7204 1400.00
41.7856 1356.00
41.8508 1268.00
41.916 1198.00
41.9812 1167.00
42.0464 1136.00
42.1116 1151.00
42.1768 1079.00
42.242 1139.00
42.3072 1054.00
42.3724 1017.00
42.4376 947.00
42.5028 960.00
42.568 950.00
42.6332 948.00
42.6983 976.00
42.7635 950.00
42.8287 950.00
42.8939 984.00
42.9591 982.00
43.0243 931.00
43.0895 999.00
43.1547 998.00
43.2199 1022.00
43.2851 1126.00
43.3503 1116.00
43.4155 1147.00
43.4807 1159.00
43.5459 1166.00
43.6111 1044.00
43.6763 1028.00
43.7415 979.00
43.8067 931.00
43.8719 984.00
43.9371 934.00
44.0023 1023.00
44.0675 1003.00
44.1327 1012.00
44.1979 1051.00
44.2631 1127.00
44.3283 1134.00
44.3935 1323.00
44.4587 1447.00
44.5239 1554.00
44.5891 1593.00
44.6543 1436.00
44.7195 1488.00
44.7847 1293.00
44.8499 1313.00
44.9151 1097.00
44.9803 1071.00
45.0455 1149.00
45.1107 1094.00
45.1759 1044.00
45.2411 1123.00
45.3063 1130.00
45.3715 1087.00
45.4367 1111.00
45.5019 1149.00
45.5671 1213.00
45.6323 1258.00
45.6975 1275.00
45.7627 1317.00
45.8279 1237.00
45.8931 1181.00
45.9583 1162.00
46.0235 1096.00
46.0887 972.00
46.1539 1131.00
46.2191 1032.00
46.2843 1132.00
46.3495 1125.00
46.4147 1227.00
46.4799 1290.00
46.5451 1227.00
46.6103 1346.00
46.6755 1555.00
46.7407 1720.00
46.8059 1966.00
46.8711 1948.00
46.9363 1950.00
47.0015 1705.00
47.0667 1574.00
47.1319 1481.00
47.1971 1463.00
47.2623 1292.00
47.3275 1252.00
47.3927 1196.00
47.4579 1073.00
47.523 1108.00
47.5882 1055.00
47.6534 1003.00
47.7186 963.00
47.7838 1021.00
47.849 992.00
47.9142 905.00
47.9794 964.00
48.0446 940.00
48.1098 1004.00
48.175 996.00
48.2402 1029.00
48.3054 1043.00
48.3706 1032.00
48.4358 1027.00
48.501 954.00
48.5662 957.00
48.6314 1003.00
48.6966 996.00
48.7618 989.00
48.827 960.00
48.8922 1014.00
48.9574 993.00
49.0226 1080.00
49.0878 1211.00
49.153 1310.00
49.2182 1422.00
49.2834 1436.00
49.3486 1323.00
49.4138 1243.00
49.479 1257.00
49.5442 1149.00
49.6094 1157.00
49.6746 1139.00
49.7398 1108.00
49.805 1036.00
49.8702 991.00
49.9354 982.00
50.0006 985.00
50.0658 1039.00
50.131 1139.00
50.1962 1142.00
50.2614 1183.00
50.3266 1231.00
50.3918 1212.00
50.457 1383.00
50.5222 1488.00
50.5874 1513.00
50.6526 1520.00
50.7178 1604.00
50.783 1401.00
50.8482 1437.00
50.9134 1565.00
50.9786 1429.00
51.0438 1522.00
51.109 1422.00
51.1742 1337.00
51.2394 1268.00
51.3046 1206.00
51.3698 1160.00
51.435 1087.00
51.5002 1053.00
51.5654 1020.00
51.6306 1032.00
51.6958 1006.00
51.761 956.00
51.8262 971.00
51.8914 972.00
51.9566 971.00
52.0218 993.00
52.087 1038.00
52.1522 1024.00
52.2174 1009.00
52.2826 1037.00
52.3477 1057.00
52.4129 1011.00
52.4781 985.00
52.5433 1003.00
52.6085 1005.00
52.6737 1054.00
52.7389 1040.00
52.8041 1005.00
52.8693 1008.00
52.9345 1064.00
52.9997 1064.00
53.0649 1183.00
53.1301 1179.00
53.1953 1322.00
53.2605 1448.00
53.3257 1523.00
53.3909 1692.00
53.4561 1693.00
53.5213 1627.00
53.5865 1510.00
53.6517 1484.00
53.7169 1291.00
53.7821 1229.00
53.8473 1229.00
53.9125 1251.00
53.9777 1211.00
54.0429 1246.00
54.1081 1231.00
54.1733 1168.00
54.2385 1269.00
54.3037 1224.00
54.3689 1209.00
54.4341 1209.00
54.4993 1064.00
54.5645 1137.00
54.6297 1060.00
54.6949 1013.00
54.7601 977.00
54.8253 1045.00
54.8905 1081.00
54.9557 1074.00
55.0209 1000.00
55.0861 960.00
55.1513 1038.00
55.2165 1078.00
55.2817 1030.00
55.3469 1174.00
55.4121 1127.00
55.4773 1125.00
55.5425 1159.00
55.6077 1211.00
55.6729 1189.00
55.7381 1228.00
55.8033 1144.00
55.8685 1197.00
55.9337 1120.00
55.9989 1101.00
56.0641 1141.00
56.1293 1041.00
56.1945 1025.00
56.2597 1059.00
56.3249 1058.00
56.3901 1027.00
56.4553 1055.00
56.5205 1038.00
56.5857 1042.00
56.6509 979.00
56.7161 954.00
56.7813 951.00
56.8465 921.00
56.9117 903.00
56.9769 921.00
57.042 912.00
57.1073 1009.00
57.1724 1069.00
57.2376 1111.00
57.3028 1112.00
57.368 1144.00
57.4332 1127.00
57.4984 1205.00
57.5636 1177.00
57.6288 1257.00
57.694 1225.00
57.7592 1184.00
57.8244 1141.00
57.8896 1080.00
57.9548 1110.00
58.02 1054.00
58.0852 1034.00
58.1504 1025.00
58.2156 1120.00
58.2808 1130.00
58.346 1140.00
58.4112 1172.00
58.4764 1186.00
58.5416 1129.00
58.6068 1129.00
58.672 1159.00
58.7372 1179.00
58.8024 1152.00
58.8676 1217.00
58.9328 1272.00
58.998 1330.00
59.0632 1383.00
59.1284 1473.00
59.1936 1532.00
59.2588 1544.00
59.324 1577.00
59.3892 1424.00
59.4544 1373.00
59.5196 1221.00
59.5848 1141.00
59.65 1105.00
59.7152 1004.00
59.7804 1053.00
59.8456 1106.00
59.9108 1099.00
59.976 1138.00
60.0412 1238.00
60.1064 1205.00
60.1716 1230.00
60.2368 1209.00
60.302 1289.00
60.3672 1254.00
60.4324 1249.00
60.4976 1253.00
60.5628 1227.00
60.628 1214.00
60.6932 1191.00
60.7584 1122.00
60.8236 1100.00
60.8888 1100.00
60.954 1146.00
61.0192 1236.00
61.0844 1283.00
61.1496 1366.00
61.2148 1496.00
61.28 1596.00
61.3452 1478.00
61.4104 1436.00
61.4756 1299.00
61.5408 1231.00
61.606 1165.00
61.6712 1093.00
61.7364 1007.00
61.8016 1021.00
61.8667 1034.00
61.932 1021.00
61.9971 1027.00
62.0623 1084.00
62.1275 994.00
62.1927 1035.00
62.2579 1043.00
62.3231 1084.00
62.3883 1035.00
62.4535 1071.00
62.5187 1046.00
62.5839 1126.00
62.6491 1174.00
62.7143 1124.00
62.7795 1140.00
62.8447 1142.00
62.9099 1071.00
62.9751 1091.00
63.0403 1088.00
63.1055 1068.00
63.1707 1019.00
63.2359 983.00
63.3011 971.00
63.3663 955.00
63.4315 924.00
63.4967 845.00
63.5619 902.00
63.6271 836.00
63.6923 817.00
63.7575 806.00
63.8227 802.00
63.8879 838.00
63.9531 819.00
64.0183 845.00
64.0835 835.00
64.1487 786.00
64.2139 863.00
64.2791 831.00
64.3443 854.00
64.4095 861.00
64.4747 891.00
64.5399 933.00
64.6051 979.00
64.6703 988.00
64.7355 973.00
64.8007 1027.00
64.8659 1020.00
64.9311 1020.00
64.9963 970.00
65.0615 996.00
65.1267 969.00
65.1919 982.00
65.2571 956.00
65.3223 972.00
65.3875 986.00
65.4527 923.00
65.5179 930.00
65.5831 972.00
65.6483 961.00
65.7135 1025.00
65.7787 1089.00
65.8439 1043.00
65.9091 1016.00
65.9743 1158.00
66.0395 1143.00
66.1047 1185.00
66.1699 1163.00
66.2351 1244.00
66.3003 1204.00
66.3655 1160.00
66.4307 1075.00
66.4959 1164.00
66.561 1088.00
66.6263 1016.00
66.6915 1008.00
66.7566 947.00
66.8218 990.00
66.887 903.00
66.9522 866.00
67.0174 848.00
67.0826 830.00
67.1478 839.00
67.213 812.00
67.2782 836.00
67.3434 809.00
67.4086 824.00
67.4738 788.00
67.539 805.00
67.6042 851.00
67.6694 758.00
67.7346 791.00
67.7998 778.00
67.865 851.00
67.9302 838.00
67.9954 807.00
68.0606 824.00
68.1258 815.00
68.191 833.00
68.2562 806.00
68.3214 853.00
68.3866 876.00
68.4518 892.00
68.517 880.00
68.5822 902.00
68.6474 962.00
68.7126 859.00
68.7778 872.00
68.843 883.00
68.9082 788.00
68.9734 855.00
69.0386 804.00
69.1038 825.00
69.169 880.00
69.2342 845.00
69.2994 828.00
69.3646 834.00
69.4298 870.00
69.495 788.00
69.5602 851.00
69.6254 825.00
69.6906 907.00
69.7558 873.00
69.821 780.00
69.8862 922.00
69.9514 851.00
70.0166 792.00
70.0818 841.00
70.147 724.00
70.2122 817.00
70.2774 797.00
70.3426 842.00
70.4078 758.00
70.473 848.00
70.5382 884.00
70.6034 834.00
70.6686 837.00
70.7338 837.00
70.799 792.00
70.8642 831.00
70.9294 855.00
70.9946 787.00
71.0598 805.00
71.125 808.00
71.1902 871.00
71.2554 851.00
71.3205 887.00
71.3858 872.00
71.451 862.00
71.5162 873.00
71.5813 956.00
71.6465 924.00
71.7117 952.00
71.7769 1004.00
71.8421 975.00
71.9073 987.00
71.9725 963.00
72.0377 1068.00
72.1029 1070.00
72.1681 1134.00
72.2333 1062.00
72.2985 1053.00
72.3637 1015.00
72.4289 1036.00
72.4941 953.00
72.5593 944.00
72.6245 892.00
72.6897 910.00
72.7549 914.00
72.8201 826.00
72.8853 847.00
72.9505 894.00
73.0157 858.00
73.0809 879.00
73.1461 927.00
73.2113 867.00
73.2765 899.00
73.3417 935.00
73.4069 902.00
73.4721 840.00
73.5373 870.00
73.6025 847.00
73.6677 771.00
73.7329 860.00
73.7981 836.00
73.8633 853.00
73.9285 844.00
73.9937 850.00
74.0589 796.00
74.1241 807.00
74.1893 833.00
74.2545 818.00
74.3197 817.00
74.3849 864.00
74.4501 792.00
74.5153 850.00
74.5805 801.00
74.6457 794.00
74.7109 824.00
74.7761 795.00
74.8413 816.00
74.9065 868.00
74.9717 839.00
75.0369 879.00
75.1021 864.00
75.1673 871.00
75.2325 902.00
75.2977 924.00
75.3629 931.00
75.4281 929.00
75.4933 890.00
75.5585 929.00
75.6237 919.00
75.6889 861.00
75.7541 846.00
75.8193 872.00
75.8845 896.00
75.9497 850.00
76.0149 885.00
76.0801 866.00
76.1452 882.00
76.2104 845.00
76.2756 862.00
76.3409 871.00
76.406 881.00
76.4712 955.00
76.5364 860.00
76.6016 901.00
76.6668 898.00
76.732 881.00
76.7972 867.00
76.8624 849.00
76.9276 927.00
76.9928 920.00
77.058 848.00
77.1232 871.00
77.1884 794.00
77.2536 826.00
77.3188 812.00
77.384 819.00
77.4492 754.00
77.5144 751.00
77.5796 766.00
77.6448 729.00
77.71 771.00
77.7752 733.00
77.8404 791.00
77.9056 752.00
77.9708 757.00
78.036 838.00
78.1012 792.00
78.1664 752.00
78.2316 809.00
78.2968 839.00
78.362 825.00
78.4272 740.00
78.4924 807.00
78.5576 806.00
78.6228 850.00
78.688 740.00
78.7532 761.00
78.8184 773.00
78.8836 744.00
78.9488 785.00
79.014 786.00
79.0792 746.00
79.1444 765.00
79.2096 717.00
79.2748 780.00
79.34 759.00
79.4052 791.00
79.4704 832.00
79.5356 875.00
79.6008 826.00
79.666 799.00
79.7312 844.00
79.7964 838.00
79.8616 872.00
79.9268 838.00
79.992 909.00
80.0572 862.00
80.1224 884.00
80.1876 868.00
80.2528 908.00
80.318 902.00
80.3832 912.00
80.4484 931.00
80.5136 919.00
80.5788 975.00
80.644 980.00
80.7092 912.00
80.7744 882.00
80.8396 866.00
80.9048 791.00
80.9699 780.00
81.0351 763.00
81.1003 755.00
81.1655 778.00
81.2307 737.00
81.2959 724.00
81.3611 737.00
81.4263 760.00
81.4915 735.00
81.5567 778.00
81.6219 785.00
81.6871 770.00
81.7523 818.00
81.8175 792.00
81.8827 819.00
81.9479 805.00
82.0131 891.00
82.0783 903.00
82.1435 906.00
82.2087 916.00
82.2739 941.00
82.3391 905.00
82.4043 905.00
82.4695 855.00
82.5347 884.00
82.5999 816.00
82.6651 832.00
82.7303 791.00
82.7955 857.00
82.8607 829.00
82.9259 778.00
82.9911 770.00
83.0563 797.00
83.1215 861.00
83.1867 868.00
83.2519 814.00
83.3171 885.00
83.3823 829.00
83.4475 825.00
83.5127 817.00
83.5779 859.00
83.6431 803.00
83.7083 777.00
83.7735 867.00
83.8387 849.00
83.9039 818.00
83.9691 803.00
84.0343 872.00
84.0995 832.00
84.1647 831.00
84.2299 769.00
84.2951 758.00
84.3603 812.00
84.4255 818.00
84.4907 805.00
84.5559 777.00
84.6211 825.00
84.6863 790.00
84.7515 715.00
84.8167 741.00
84.8819 788.00
84.9471 771.00
85.0123 786.00
85.0775 723.00
85.1427 753.00
85.2079 783.00
85.2731 791.00
85.3383 767.00
85.4035 779.00
85.4687 810.00
85.5339 763.00
85.5991 778.00
85.6643 813.00
85.7295 772.00
85.7946 764.00
85.8598 761.00
85.925 714.00
85.9903 772.00
86.0554 748.00
86.1206 819.00
86.1858 739.00
86.251 777.00
86.3162 799.00
86.3814 770.00
86.4466 841.00
86.5118 790.00
86.577 827.00
86.6422 822.00
86.7074 855.00
86.7726 872.00
86.8378 934.00
86.903 882.00
86.9682 919.00
87.0334 872.00
87.0986 881.00
87.1638 829.00
87.229 819.00
87.2942 858.00
87.3594 856.00
87.4246 808.00
87.4898 819.00
87.555 745.00
87.6202 829.00
87.6854 862.00
87.7506 829.00
87.8158 791.00
87.881 810.00
87.9462 832.00
88.0114 875.00
88.0766 862.00
88.1418 868.00
88.207 902.00
88.2722 885.00
88.3374 772.00
88.4026 805.00
88.4678 856.00
88.533 907.00
88.5982 884.00
88.6634 862.00
88.7286 826.00
88.7938 854.00
88.859 825.00
88.9242 860.00
88.9894 862.00
89.0546 878.00
89.1198 807.00
89.185 826.00
89.2502 805.00
89.3154 821.00
89.3806 885.00
89.4458 870.00
89.511 836.00
89.5762 852.00
89.6414 886.00
89.7066 854.00
89.7718 892.00
89.837 835.00
89.9022 904.00
89.9674 846.00
90.0326 878.00
90.0978 802.00
90.163 878.00
90.2282 908.00
90.2934 895.00
90.3586 904.00
90.4238 910.00
90.489 861.00
90.5542 853.00
90.6193 925.00
90.6845 970.00
90.7497 821.00
90.8149 897.00
90.8801 827.00
90.9453 823.00
91.0105 804.00
91.0757 875.00
91.1409 771.00
91.2061 769.00
91.2713 786.00
91.3365 823.00
91.4017 783.00
91.4669 813.00
91.5321 845.00
91.5973 831.00
91.6625 818.00
91.7277 817.00
91.7929 852.00
91.8581 803.00
91.9233 828.00
91.9885 857.00
92.0537 746.00
92.1189 885.00
92.1841 875.00
92.2493 832.00
92.3145 826.00
92.3797 800.00
92.4449 765.00
92.5101 842.00
92.5753 732.00
92.6405 797.00
92.7057 721.00
92.7709 781.00
92.8361 750.00
92.9013 804.00
92.9665 775.00
93.0317 763.00
93.0969 812.00
93.1621 729.00
93.2273 793.00
93.2925 751.00
93.3577 828.00
93.4229 864.00
93.4881 833.00
93.5533 814.00
93.6185 845.00
93.6837 778.00
93.7489 787.00
93.8141 840.00
93.8793 849.00
93.9445 838.00
94.0097 787.00
94.0749 839.00
94.1401 832.00
94.2053 820.00
94.2705 830.00
94.3357 788.00
94.4009 815.00
94.4661 733.00
94.5313 775.00
94.5965 872.00
94.6617 844.00
94.7269 794.00
94.7921 787.00
94.8573 771.00
94.9225 844.00
94.9877 780.00
95.0529 808.00
95.1181 840.00
95.1833 812.00
95.2485 852.00
95.3137 893.00
95.3789 791.00
95.444 802.00
95.5092 838.00
95.5744 884.00
95.6396 844.00
95.7048 801.00
95.77 844.00
95.8352 889.00
95.9004 848.00
95.9656 788.00
96.0308 796.00
96.096 823.00
96.1612 848.00
96.2264 801.00
96.2916 798.00
96.3568 818.00
96.422 764.00
96.4872 834.00
96.5524 826.00
96.6176 819.00
96.6828 806.00
96.748 861.00
96.8132 799.00
96.8784 813.00
96.9436 841.00
97.0088 835.00
97.074 894.00
97.1392 771.00
97.2044 806.00
97.2696 874.00
97.3348 806.00
97.4 846.00
97.4652 817.00
97.5304 790.00
97.5956 811.00
97.6608 882.00
97.726 790.00
97.7912 830.00
97.8564 835.00
97.9216 791.00
97.9868 778.00
98.052 774.00
98.1172 771.00
98.1824 830.00
98.2476 765.00
98.3128 781.00
98.378 787.00
98.4432 821.00
98.5084 774.00
98.5736 769.00
98.6388 720.00
98.704 800.00
98.7692 846.00
98.8344 764.00
98.8996 828.00
98.9648 822.00
99.03 809.00
99.0952 745.00
99.1604 824.00
99.2256 855.00
99.2908 825.00
99.356 835.00
99.4212 873.00
99.4864 800.00
99.5516 796.00
99.6168 825.00
99.682 799.00
99.7472 859.00
99.8124 884.00
99.8776 810.00
99.9428 916.00
100.008 909.00
100.073 904.00
100.095 906.00