File: data/xrd_creation/results/NSC_14.xy
9.903433 3118.00
9.968632 2990.00
10.0338 2850.00
10.099 3014.00
10.1642 2865.00
10.2294 2938.00
10.2946 2909.00
10.3598 2769.00
10.425 2952.00
10.4902 2934.00
10.5554 2886.00
10.6206 2791.00
10.6858 2857.00
10.751 2798.00
10.8162 2805.00
10.8814 2888.00
10.9466 2755.00
11.0118 2728.00
11.077 2604.00
11.1422 2777.00
11.2074 2655.00
11.2726 2679.00
11.3378 2662.00
11.403 2581.00
11.4682 2655.00
11.5334 2662.00
11.5986 2629.00
11.6638 2689.00
11.729 2576.00
11.7942 2562.00
11.8594 2594.00
11.9246 2495.00
11.9898 2702.00
12.055 2547.00
12.1202 2620.00
12.1854 2633.00
12.2506 2645.00
12.3158 2731.00
12.381 2713.00
12.4462 2669.00
12.5114 2565.00
12.5766 2482.00
12.6418 2349.00
12.707 2429.00
12.7722 2333.00
12.8374 2432.00
12.9026 2482.00
12.9678 2399.00
13.033 2296.00
13.0982 2358.00
13.1634 2370.00
13.2286 2266.00
13.2938 2409.00
13.359 2262.00
13.4242 2317.00
13.4894 2244.00
13.5546 2247.00
13.6198 2330.00
13.685 2290.00
13.7502 2395.00
13.8154 2359.00
13.8805 2462.00
13.9457 2691.00
14.0109 2791.00
14.0761 2978.00
14.1413 3334.00
14.2065 3541.00
14.2717 3604.00
14.3369 3047.00
14.4021 2553.00
14.4673 2363.00
14.5325 2318.00
14.5977 2402.00
14.6629 2290.00
14.7281 2234.00
14.7933 2223.00
14.8585 2265.00
14.9237 2270.00
14.9889 2295.00
15.0541 2240.00
15.1193 2254.00
15.1845 2196.00
15.2497 2221.00
15.3149 2130.00
15.3801 2124.00
15.4453 2237.00
15.5105 2170.00
15.5757 2185.00
15.6409 2141.00
15.7061 2133.00
15.7713 2143.00
15.8365 2231.00
15.9017 2237.00
15.9669 2257.00
16.0321 2324.00
16.0973 2050.00
16.1625 2163.00
16.2277 2132.00
16.2929 2156.00
16.3581 2151.00
16.4233 2172.00
16.4885 2140.00
16.5537 2053.00
16.6189 2083.00
16.6841 2199.00
16.7493 2115.00
16.8145 2069.00
16.8797 2046.00
16.9449 2063.00
17.0101 2149.00
17.0753 2130.00
17.1405 2127.00
17.2057 2058.00
17.2709 2045.00
17.3361 2133.00
17.4013 2106.00
17.4665 2103.00
17.5317 2103.00
17.5969 2205.00
17.6621 2185.00
17.7273 2218.00
17.7925 2098.00
17.8577 2251.00
17.9229 2082.00
17.9881 2036.00
18.0533 2113.00
18.1185 2116.00
18.1837 2143.00
18.2489 2046.00
18.3141 2124.00
18.3793 2130.00
18.4445 2066.00
18.5097 2140.00
18.5749 2057.00
18.6401 2051.00
18.7052 2092.00
18.7704 2075.00
18.8356 1959.00
18.9008 2046.00
18.966 2165.00
19.0312 2082.00
19.0964 2175.00
19.1616 2203.00
19.2268 2382.00
19.292 2404.00
19.3572 2719.00
19.4224 3144.00
19.4876 3785.00
19.5528 4582.00
19.618 5822.00
19.6832 6956.00
19.7484 6275.00
19.8136 4370.00
19.8788 3258.00
19.944 2718.00
20.0092 2889.00
20.0744 2943.00
20.1396 3361.00
20.2048 3849.00
20.27 4931.00
20.3352 6461.00
20.4004 8454.00
20.4656 8272.00
20.5308 5455.00
20.596 3479.00
20.6612 2581.00
20.7264 2287.00
20.7916 2309.00
20.8568 2229.00
20.922 2134.00
20.9872 2025.00
21.0524 2040.00
21.1176 2030.00
21.1828 2009.00
21.248 2102.00
21.3132 2002.00
21.3784 2033.00
21.4436 2012.00
21.5088 1979.00
21.574 2007.00
21.6392 2011.00
21.7044 1996.00
21.7696 1974.00
21.8348 2018.00
21.9 2008.00
21.9652 2124.00
22.0304 2052.00
22.0956 2080.00
22.1608 1916.00
22.226 2043.00
22.2912 2015.00
22.3564 2064.00
22.4216 2042.00
22.4868 2074.00
22.552 2086.00
22.6172 2105.00
22.6824 2085.00
22.7476 2156.00
22.8128 2062.00
22.878 2266.00
22.9432 2344.00
23.0084 2476.00
23.0736 2760.00
23.1388 2755.00
23.204 2740.00
23.2692 2843.00
23.3344 3263.00
23.3996 3964.00
23.4647 5361.00
23.5299 7559.00
23.5951 9342.00
23.6603 8276.00
23.7255 4958.00
23.7907 3020.00
23.8559 2382.00
23.9211 2284.00
23.9863 2121.00
24.0515 2112.00
24.1167 2106.00
24.1819 2233.00
24.2471 2438.00
24.3123 2541.00
24.3775 2384.00
24.4427 2197.00
24.5079 2078.00
24.5731 2031.00
24.6383 2117.00
24.7035 2102.00
24.7687 2168.00
24.8339 2036.00
24.8991 2006.00
24.9643 2001.00
25.0295 1772.00
25.0947 1807.00
25.1599 1873.00
25.2251 1845.00
25.2903 1812.00
25.3555 1760.00
25.4207 1765.00
25.4859 1818.00
25.5511 1853.00
25.6163 1791.00
25.6815 1786.00
25.7467 1817.00
25.8119 1731.00
25.8771 1782.00
25.9423 1808.00
26.0075 1782.00
26.0727 1669.00
26.1379 1784.00
26.2031 1739.00
26.2683 1812.00
26.3335 1723.00
26.3987 1703.00
26.4639 1798.00
26.5291 1848.00
26.5943 1817.00
26.6595 1779.00
26.7247 1751.00
26.7899 1679.00
26.8551 1788.00
26.9203 1634.00
26.9855 1680.00
27.0507 1741.00
27.1159 1827.00
27.1811 1760.00
27.2463 1798.00
27.3115 1759.00
27.3767 1699.00
27.4419 1767.00
27.5071 1768.00
27.5723 1834.00
27.6375 1792.00
27.7027 1782.00
27.7679 1892.00
27.8331 1861.00
27.8983 1970.00
27.9635 2031.00
28.0287 2088.00
28.0939 2412.00
28.1591 2986.00
28.2243 3872.00
28.2894 5387.00
28.3546 7713.00
28.4198 9241.00
28.485 7821.00
28.5502 5368.00
28.6154 3518.00
28.6806 2458.00
28.7458 2196.00
28.811 2055.00
28.8762 1955.00
28.9414 1845.00
29.0066 1884.00
29.0718 1764.00
29.137 1717.00
29.2022 1830.00
29.2674 1724.00
29.3326 1712.00
29.3978 1703.00
29.463 1718.00
29.5282 1760.00
29.5934 1726.00
29.6586 1724.00
29.7238 1773.00
29.789 1798.00
29.8542 1762.00
29.9194 1805.00
29.9846 1769.00
30.0498 1763.00
30.115 1826.00
30.1802 1790.00
30.2454 1844.00
30.3106 1822.00
30.3758 1833.00
30.441 1755.00
30.5062 1883.00
30.5714 1972.00
30.6366 1856.00
30.7018 1919.00
30.767 2063.00
30.8322 2150.00
30.8974 2275.00
30.9626 2448.00
31.0278 2883.00
31.093 3585.00
31.1582 5019.00
31.2234 6857.00
31.2886 8922.00
31.3538 9481.00
31.419 8200.00
31.4842 5869.00
31.5494 4817.00
31.6146 4579.00
31.6798 4741.00
31.745 4465.00
31.8102 3563.00
31.8754 2770.00
31.9406 2227.00
32.0058 1913.00
32.071 1822.00
32.1362 1750.00
32.2014 1742.00
32.2666 1666.00
32.3318 1697.00
32.397 1703.00
32.4622 1663.00
32.5274 1647.00
32.5926 1708.00
32.6578 1697.00
32.723 1517.00
32.7882 1660.00
32.8534 1618.00
32.9186 1717.00
32.9838 1639.00
33.0489 1698.00
33.1141 1602.00
33.1793 1625.00
33.2445 1618.00
33.3097 1509.00
33.3749 1572.00
33.4401 1583.00
33.5053 1771.00
33.5705 1701.00
33.6357 1768.00
33.7009 1756.00
33.7661 1743.00
33.8313 1946.00
33.8965 1870.00
33.9617 1910.00
34.0269 1950.00
34.0921 2105.00
34.1573 2481.00
34.2225 2741.00
34.2877 2797.00
34.3529 2684.00
34.4181 2377.00
34.4833 2174.00
34.5485 2079.00
34.6137 1953.00
34.6789 2075.00
34.7441 2138.00
34.8093 2101.00
34.8745 2087.00
34.9397 2270.00
35.0049 2577.00
35.0701 3070.00
35.1353 3424.00
35.2005 3096.00
35.2657 2946.00
35.3309 2873.00
35.3961 3465.00
35.4613 4423.00
35.5265 5084.00
35.5917 4912.00
35.6569 3993.00
35.7221 2947.00
35.7873 2254.00
35.8525 1945.00
35.9177 1790.00
35.9829 1754.00
36.0481 1699.00
36.1133 1690.00
36.1785 1632.00
36.2437 1621.00
36.3089 1567.00
36.3741 1428.00
36.4393 1493.00
36.5045 1496.00
36.5697 1448.00
36.6349 1410.00
36.7001 1480.00
36.7653 1468.00
36.8305 1415.00
36.8957 1453.00
36.9609 1447.00
37.0261 1419.00
37.0913 1482.00
37.1565 1415.00
37.2217 1457.00
37.2869 1556.00
37.3521 1422.00
37.4173 1378.00
37.4825 1498.00
37.5477 1397.00
37.6129 1396.00
37.6781 1450.00
37.7433 1444.00
37.8085 1413.00
37.8736 1421.00
37.9388 1409.00
38.004 1377.00
38.0692 1441.00
38.1344 1499.00
38.1996 1451.00
38.2648 1369.00
38.33 1384.00
38.3952 1373.00
38.4604 1412.00
38.5256 1387.00
38.5908 1510.00
38.656 1502.00
38.7212 1593.00
38.7864 1682.00
38.8516 1676.00
38.9168 1623.00
38.982 1585.00
39.0472 1527.00
39.1124 1472.00
39.1776 1458.00
39.2428 1504.00
39.308 1528.00
39.3732 1420.00
39.4384 1605.00
39.5036 1630.00
39.5688 1679.00
39.634 1819.00
39.6992 1822.00
39.7644 1820.00
39.8296 1729.00
39.8948 1580.00
39.96 1518.00
40.0252 1421.00
40.0904 1411.00
40.1556 1466.00
40.2208 1401.00
40.286 1407.00
40.3512 1431.00
40.4164 1398.00
40.4816 1429.00
40.5468 1478.00
40.612 1559.00
40.6772 1463.00
40.7424 1557.00
40.8076 1656.00
40.8728 1739.00
40.938 1889.00
41.0032 1924.00
41.0684 1962.00
41.1336 1993.00
41.1988 2103.00
41.264 2173.00
41.3292 2284.00
41.3944 2080.00
41.4596 2054.00
41.5248 2014.00
41.59 1909.00
41.6552 1907.00
41.7204 1806.00
41.7856 1586.00
41.8508 1604.00
41.916 1540.00
41.9812 1649.00
42.0464 1613.00
42.1116 1598.00
42.1768 1563.00
42.242 1552.00
42.3072 1437.00
42.3724 1417.00
42.4376 1428.00
42.5028 1422.00
42.568 1452.00
42.6332 1433.00
42.6983 1470.00
42.7635 1564.00
42.8287 1672.00
42.8939 1923.00
42.9591 2180.00
43.0243 2387.00
43.0895 2247.00
43.1547 2009.00
43.2199 1799.00
43.2851 1577.00
43.3503 1425.00
43.4155 1404.00
43.4807 1422.00
43.5459 1454.00
43.6111 1476.00
43.6763 1500.00
43.7415 1599.00
43.8067 1485.00
43.8719 1443.00
43.9371 1503.00
44.0023 1531.00
44.0675 1453.00
44.1327 1468.00
44.1979 1428.00
44.2631 1388.00
44.3283 1466.00
44.3935 1397.00
44.4587 1451.00
44.5239 1504.00
44.5891 1571.00
44.6543 1579.00
44.7195 1810.00
44.7847 2102.00
44.8499 2487.00
44.9151 2865.00
44.9803 3118.00
45.0455 2711.00
45.1107 2264.00
45.1759 1985.00
45.2411 1741.00
45.3063 1604.00
45.3715 1603.00
45.4367 1470.00
45.5019 1515.00
45.5671 1687.00
45.6323 1665.00
45.6975 1775.00
45.7627 1810.00
45.8279 1870.00
45.8931 2267.00
45.9583 2418.00
46.0235 2430.00
46.0887 2170.00
46.1539 2001.00
46.2191 1895.00
46.2843 1678.00
46.3495 1673.00
46.4147 1686.00
46.4799 1858.00
46.5451 1983.00
46.6103 2040.00
46.6755 2021.00
46.7407 1915.00
46.8059 1925.00
46.8711 1822.00
46.9363 1778.00
47.0015 1739.00
47.0667 1603.00
47.1319 1542.00
47.1971 1477.00
47.2623 1469.00
47.3275 1418.00
47.3927 1544.00
47.4579 1525.00
47.523 1591.00
47.5882 1692.00
47.6534 1772.00
47.7186 1867.00
47.7838 2269.00
47.849 2824.00
47.9142 3412.00
47.9794 3667.00
48.0446 3410.00
48.1098 2784.00
48.175 2431.00
48.2402 1972.00
48.3054 1787.00
48.3706 1652.00
48.4358 1606.00
48.501 1641.00
48.5662 1692.00
48.6314 1780.00
48.6966 1717.00
48.7618 1596.00
48.827 1478.00
48.8922 1508.00
48.9574 1469.00
49.0226 1435.00
49.0878 1501.00
49.153 1545.00
49.2182 1510.00
49.2834 1537.00
49.3486 1693.00
49.4138 1856.00
49.479 2072.00
49.5442 1931.00
49.6094 1830.00
49.6746 1644.00
49.7398 1592.00
49.805 1562.00
49.8702 1447.00
49.9354 1504.00
50.0006 1476.00
50.0658 1608.00
50.131 1576.00
50.1962 1656.00
50.2614 1850.00
50.3266 2100.00
50.3918 2206.00
50.457 2166.00
50.5222 2031.00
50.5874 1880.00
50.6526 1877.00
50.7178 1967.00
50.783 1944.00
50.8482 1975.00
50.9134 1927.00
50.9786 1975.00
51.0438 2029.00
51.109 2182.00
51.1742 2527.00
51.2394 2853.00
51.3046 3088.00
51.3698 2833.00
51.435 2587.00
51.5002 2307.00
51.5654 2002.00
51.6306 1882.00
51.6958 1920.00
51.761 1748.00
51.8262 1686.00
51.8914 1589.00
51.9566 1497.00
52.0218 1473.00
52.087 1411.00
52.1522 1335.00
52.2174 1322.00
52.2826 1342.00
52.3477 1262.00
52.4129 1367.00
52.4781 1350.00
52.5433 1403.00
52.6085 1351.00
52.6737 1412.00
52.7389 1384.00
52.8041 1390.00
52.8693 1345.00
52.9345 1291.00
52.9997 1310.00
53.0649 1331.00
53.1301 1365.00
53.1953 1421.00
53.2605 1359.00
53.3257 1372.00
53.3909 1346.00
53.4561 1404.00
53.5213 1347.00
53.5865 1454.00
53.6517 1414.00
53.7169 1376.00
53.7821 1374.00
53.8473 1484.00
53.9125 1607.00
53.9777 1695.00
54.0429 1840.00
54.1081 2110.00
54.1733 2230.00
54.2385 2344.00
54.3037 2265.00
54.3689 2015.00
54.4341 1968.00
54.4993 1680.00
54.5645 1634.00
54.6297 1548.00
54.6949 1592.00
54.7601 1596.00
54.8253 1636.00
54.8905 1741.00
54.9557 2008.00
55.0209 2166.00
55.0861 2467.00
55.1513 2663.00
55.2165 2792.00
55.2817 3098.00
55.3469 3426.00
55.4121 3458.00
55.4773 3400.00
55.5425 3216.00
55.6077 2825.00
55.6729 2454.00
55.7381 2066.00
55.8033 1915.00
55.8685 1692.00
55.9337 1607.00
55.9989 1652.00
56.0641 1618.00
56.1293 1595.00
56.1945 1606.00
56.2597 1564.00
56.3249 1567.00
56.3901 1557.00
56.4553 1452.00
56.5205 1506.00
56.5857 1465.00
56.6509 1440.00
56.7161 1547.00
56.7813 1459.00
56.8465 1473.00
56.9117 1547.00
56.9769 1403.00
57.042 1437.00
57.1073 1420.00
57.1724 1516.00
57.2376 1562.00
57.3028 1503.00
57.368 1556.00
57.4332 1518.00
57.4984 1518.00
57.5636 1476.00
57.6288 1387.00
57.694 1553.00
57.7592 1519.00
57.8244 1540.00
57.8896 1615.00
57.9548 1580.00
58.02 1711.00
58.0852 1870.00
58.1504 1721.00
58.2156 1816.00
58.2808 1794.00
58.346 1812.00
58.4112 1870.00
58.4764 1746.00
58.5416 1734.00
58.6068 1618.00
58.672 1515.00
58.7372 1483.00
58.8024 1397.00
58.8676 1387.00
58.9328 1382.00
58.998 1350.00
59.0632 1455.00
59.1284 1450.00
59.1936 1445.00
59.2588 1497.00
59.324 1427.00
59.3892 1502.00
59.4544 1459.00
59.5196 1598.00
59.5848 1705.00
59.65 1834.00
59.7152 2043.00
59.7804 2234.00
59.8456 2305.00
59.9108 2338.00
59.976 2300.00
60.0412 2180.00
60.1064 2026.00
60.1716 1940.00
60.2368 1864.00
60.302 1778.00
60.3672 1729.00
60.4324 1640.00
60.4976 1550.00
60.5628 1565.00
60.628 1599.00
60.6932 1647.00
60.7584 1793.00
60.8236 2025.00
60.8888 2218.00
60.954 2377.00
61.0192 2458.00
61.0844 2263.00
61.1496 2135.00
61.2148 2014.00
61.28 1812.00
61.3452 1619.00
61.4104 1589.00
61.4756 1658.00
61.5408 1622.00
61.606 1612.00
61.6712 1547.00
61.7364 1552.00
61.8016 1578.00
61.8667 1588.00
61.932 1640.00
61.9971 1789.00
62.0623 1857.00
62.1275 1999.00
62.1927 1961.00
62.2579 1862.00
62.3231 1852.00
62.3883 1706.00
62.4535 1680.00
62.5187 1601.00
62.5839 1599.00
62.6491 1567.00
62.7143 1599.00
62.7795 1670.00
62.8447 1597.00
62.9099 1689.00
62.9751 1734.00
63.0403 1812.00
63.1055 1856.00
63.1707 1757.00
63.2359 1805.00
63.3011 1884.00
63.3663 1841.00
63.4315 1952.00
63.4967 1981.00
63.5619 1867.00
63.6271 1880.00
63.6923 1909.00
63.7575 1771.00
63.8227 1733.00
63.8879 1732.00
63.9531 1616.00
64.0183 1499.00
64.0835 1384.00
64.1487 1382.00
64.2139 1389.00
64.2791 1384.00
64.3443 1397.00
64.4095 1448.00
64.4747 1375.00
64.5399 1366.00
64.6051 1423.00
64.6703 1379.00
64.7355 1472.00
64.8007 1419.00
64.8659 1420.00
64.9311 1484.00
64.9963 1477.00
65.0615 1499.00
65.1267 1468.00
65.1919 1350.00
65.2571 1455.00
65.3223 1416.00
65.3875 1425.00
65.4527 1480.00
65.5179 1446.00
65.5831 1450.00
65.6483 1525.00
65.7135 1631.00
65.7787 1675.00
65.8439 1762.00
65.9091 1809.00
65.9743 1864.00
66.0395 1847.00
66.1047 1795.00
66.1699 1826.00
66.2351 1674.00
66.3003 1689.00
66.3655 1517.00
66.4307 1358.00
66.4959 1393.00
66.561 1322.00
66.6263 1348.00
66.6915 1334.00
66.7566 1324.00
66.8218 1282.00
66.887 1349.00
66.9522 1385.00
67.0174 1431.00
67.0826 1454.00
67.1478 1621.00
67.213 1511.00
67.2782 1590.00
67.3434 1524.00
67.4086 1446.00
67.4738 1526.00
67.539 1556.00
67.6042 1665.00
67.6694 1543.00
67.7346 1593.00
67.7998 1498.00
67.865 1425.00
67.9302 1488.00
67.9954 1323.00
68.0606 1317.00
68.1258 1300.00
68.191 1293.00
68.2562 1261.00
68.3214 1297.00
68.3866 1226.00
68.4518 1310.00
68.517 1375.00
68.5822 1304.00
68.6474 1382.00
68.7126 1373.00
68.7778 1455.00
68.843 1458.00
68.9082 1485.00
68.9734 1424.00
69.0386 1353.00
69.1038 1443.00
69.169 1302.00
69.2342 1377.00
69.2994 1301.00
69.3646 1350.00
69.4298 1238.00
69.495 1355.00
69.5602 1316.00
69.6254 1278.00
69.6906 1264.00
69.7558 1354.00
69.821 1302.00
69.8862 1264.00
69.9514 1214.00
70.0166 1319.00
70.0818 1256.00
70.147 1259.00
70.2122 1241.00
70.2774 1264.00
70.3426 1310.00
70.4078 1347.00
70.473 1295.00
70.5382 1315.00
70.6034 1305.00
70.6686 1422.00
70.7338 1516.00
70.799 1668.00
70.8642 1611.00
70.9294 1680.00
70.9946 1731.00
71.0598 1634.00
71.125 1694.00
71.1902 1567.00
71.2554 1587.00
71.3205 1515.00
71.3858 1434.00
71.451 1455.00
71.5162 1410.00
71.5813 1358.00
71.6465 1355.00
71.7117 1391.00
71.7769 1301.00
71.8421 1282.00
71.9073 1300.00
71.9725 1362.00
72.0377 1307.00
72.1029 1278.00
72.1681 1327.00
72.2333 1253.00
72.2985 1300.00
72.3637 1360.00
72.4289 1289.00
72.4941 1270.00
72.5593 1244.00
72.6245 1308.00
72.6897 1260.00
72.7549 1325.00
72.8201 1272.00
72.8853 1282.00
72.9505 1280.00
73.0157 1320.00
73.0809 1259.00
73.1461 1246.00
73.2113 1240.00
73.2765 1372.00
73.3417 1373.00
73.4069 1425.00
73.4721 1427.00
73.5373 1562.00
73.6025 1497.00
73.6677 1487.00
73.7329 1484.00
73.7981 1413.00
73.8633 1428.00
73.9285 1331.00
73.9937 1378.00
74.0589 1381.00
74.1241 1301.00
74.1893 1282.00
74.2545 1265.00
74.3197 1267.00
74.3849 1280.00
74.4501 1401.00
74.5153 1399.00
74.5805 1394.00
74.6457 1504.00
74.7109 1611.00
74.7761 1611.00
74.8413 1713.00
74.9065 1713.00
74.9717 1690.00
75.0369 1576.00
75.1021 1654.00
75.1673 1539.00
75.2325 1641.00
75.2977 1594.00
75.3629 1515.00
75.4281 1514.00
75.4933 1520.00
75.5585 1483.00
75.6237 1419.00
75.6889 1341.00
75.7541 1295.00
75.8193 1227.00
75.8845 1220.00
75.9497 1244.00
76.0149 1234.00
76.0801 1293.00
76.1452 1239.00
76.2104 1152.00
76.2756 1144.00
76.3409 1206.00
76.406 1330.00
76.4712 1331.00
76.5364 1326.00
76.6016 1289.00
76.6668 1292.00
76.732 1276.00
76.7972 1328.00
76.8624 1305.00
76.9276 1224.00
76.9928 1225.00
77.058 1379.00
77.1232 1354.00
77.1884 1297.00
77.2536 1348.00
77.3188 1294.00
77.384 1251.00
77.4492 1289.00
77.5144 1238.00
77.5796 1310.00
77.6448 1256.00
77.71 1212.00
77.7752 1193.00
77.8404 1235.00
77.9056 1278.00
77.9708 1253.00
78.036 1290.00
78.1012 1291.00
78.1664 1369.00
78.2316 1415.00
78.2968 1388.00
78.362 1443.00
78.4272 1467.00
78.4924 1483.00
78.5576 1555.00
78.6228 1554.00
78.688 1579.00
78.7532 1575.00
78.8184 1434.00
78.8836 1521.00
78.9488 1422.00
79.014 1389.00
79.0792 1337.00
79.1444 1409.00
79.2096 1314.00
79.2748 1446.00
79.34 1283.00
79.4052 1307.00
79.4704 1275.00
79.5356 1281.00
79.6008 1265.00
79.666 1275.00
79.7312 1237.00
79.7964 1215.00
79.8616 1304.00
79.9268 1177.00
79.992 1318.00
80.0572 1260.00
80.1224 1277.00
80.1876 1294.00
80.2528 1264.00
80.318 1309.00
80.3832 1282.00
80.4484 1321.00
80.5136 1378.00
80.5788 1376.00
80.644 1389.00
80.7092 1506.00
80.7744 1532.00
80.8396 1521.00
80.9048 1345.00
80.9699 1358.00
81.0351 1355.00
81.1003 1365.00
81.1655 1368.00
81.2307 1282.00
81.2959 1264.00
81.3611 1253.00
81.4263 1181.00
81.4915 1277.00
81.5567 1277.00
81.6219 1350.00
81.6871 1128.00
81.7523 1256.00
81.8175 1239.00
81.8827 1237.00
81.9479 1208.00
82.0131 1250.00
82.0783 1246.00
82.1435 1242.00
82.2087 1200.00
82.2739 1219.00
82.3391 1228.00
82.4043 1275.00
82.4695 1276.00
82.5347 1353.00
82.5999 1310.00
82.6651 1291.00
82.7303 1335.00
82.7955 1257.00
82.8607 1295.00
82.9259 1351.00
82.9911 1403.00
83.0563 1531.00
83.1215 1527.00
83.1867 1562.00
83.2519 1476.00
83.3171 1505.00
83.3823 1492.00
83.4475 1539.00
83.5127 1480.00
83.5779 1415.00
83.6431 1402.00
83.7083 1332.00
83.7735 1347.00
83.8387 1279.00
83.9039 1341.00
83.9691 1286.00
84.0343 1240.00
84.0995 1349.00
84.1647 1294.00
84.2299 1327.00
84.2951 1336.00
84.3603 1366.00
84.4255 1367.00
84.4907 1429.00
84.5559 1442.00
84.6211 1429.00
84.6863 1422.00
84.7515 1435.00
84.8167 1460.00
84.8819 1416.00
84.9471 1436.00
85.0123 1346.00
85.0775 1396.00
85.1427 1387.00
85.2079 1378.00
85.2731 1298.00
85.3383 1350.00
85.4035 1358.00
85.4687 1303.00
85.5339 1291.00
85.5991 1318.00
85.6643 1356.00
85.7295 1304.00
85.7946 1310.00
85.8598 1327.00
85.925 1297.00
85.9903 1287.00
86.0554 1325.00
86.1206 1354.00
86.1858 1289.00
86.251 1277.00
86.3162 1362.00
86.3814 1344.00
86.4466 1261.00
86.5118 1296.00
86.577 1294.00
86.6422 1249.00
86.7074 1226.00
86.7726 1177.00
86.8378 1287.00
86.903 1259.00
86.9682 1170.00
87.0334 1231.00
87.0986 1154.00
87.1638 1207.00
87.229 1196.00
87.2942 1217.00
87.3594 1285.00
87.4246 1216.00
87.4898 1322.00
87.555 1211.00
87.6202 1385.00
87.6854 1299.00
87.7506 1297.00
87.8158 1379.00
87.881 1318.00
87.9462 1316.00
88.0114 1303.00
88.0766 1365.00
88.1418 1338.00
88.207 1380.00
88.2722 1331.00
88.3374 1383.00
88.4026 1304.00
88.4678 1295.00
88.533 1433.00
88.5982 1369.00
88.6634 1362.00
88.7286 1376.00
88.7938 1432.00
88.859 1404.00
88.9242 1507.00
88.9894 1395.00
89.0546 1509.00
89.1198 1502.00
89.185 1553.00
89.2502 1551.00
89.3154 1570.00
89.3806 1633.00
89.4458 1502.00
89.511 1552.00
89.5762 1479.00
89.6414 1378.00
89.7066 1455.00
89.7718 1343.00
89.837 1334.00
89.9022 1391.00
89.9674 1317.00
90.0326 1231.00
90.0978 1309.00
90.163 1219.00
90.2282 1252.00
90.2934 1296.00
90.3586 1251.00
90.4238 1271.00
90.489 1213.00
90.5542 1243.00
90.6193 1222.00
90.6845 1265.00
90.7497 1228.00
90.8149 1260.00
90.8801 1227.00
90.9453 1282.00
91.0105 1312.00
91.0757 1342.00
91.1409 1308.00
91.2061 1361.00
91.2713 1422.00
91.3365 1342.00
91.4017 1434.00
91.4669 1317.00
91.5321 1300.00
91.5973 1349.00
91.6625 1367.00
91.7277 1328.00
91.7929 1305.00
91.8581 1234.00
91.9233 1263.00
91.9885 1201.00
92.0537 1249.00
92.1189 1191.00
92.1841 1248.00
92.2493 1221.00
92.3145 1319.00
92.3797 1264.00
92.4449 1176.00
92.5101 1172.00
92.5753 1258.00
92.6405 1177.00
92.7057 1206.00
92.7709 1203.00
92.8361 1206.00
92.9013 1178.00
92.9665 1184.00
93.0317 1164.00
93.0969 1194.00
93.1621 1228.00
93.2273 1255.00
93.2925 1235.00
93.3577 1312.00
93.4229 1194.00
93.4881 1267.00
93.5533 1300.00
93.6185 1297.00
93.6837 1399.00
93.7489 1325.00
93.8141 1370.00
93.8793 1340.00
93.9445 1342.00
94.0097 1301.00
94.0749 1299.00
94.1401 1301.00
94.2053 1298.00
94.2705 1249.00
94.3357 1370.00
94.4009 1234.00
94.4661 1345.00
94.5313 1241.00
94.5965 1397.00
94.6617 1369.00
94.7269 1428.00
94.7921 1378.00
94.8573 1428.00
94.9225 1397.00
94.9877 1405.00
95.0529 1401.00
95.1181 1413.00
95.1833 1305.00
95.2485 1401.00
95.3137 1400.00
95.3789 1271.00
95.444 1307.00
95.5092 1375.00
95.5744 1376.00
95.6396 1425.00
95.7048 1408.00
95.77 1380.00
95.8352 1382.00
95.9004 1384.00
95.9656 1429.00
96.0308 1365.00
96.096 1481.00
96.1612 1441.00
96.2264 1544.00
96.2916 1474.00
96.3568 1362.00
96.422 1330.00
96.4872 1371.00
96.5524 1382.00
96.6176 1392.00
96.6828 1368.00
96.748 1307.00
96.8132 1305.00
96.8784 1371.00
96.9436 1384.00
97.0088 1265.00
97.074 1210.00
97.1392 1303.00
97.2044 1237.00
97.2696 1236.00
97.3348 1265.00
97.4 1223.00
97.4652 1197.00
97.5304 1209.00
97.5956 1209.00
97.6608 1163.00
97.726 1221.00
97.7912 1219.00
97.8564 1143.00
97.9216 1185.00
97.9868 1132.00
98.052 1242.00
98.1172 1208.00
98.1824 1289.00
98.2476 1283.00
98.3128 1315.00
98.378 1277.00
98.4432 1246.00
98.5084 1403.00
98.5736 1344.00
98.6388 1299.00
98.704 1299.00
98.7692 1280.00
98.8344 1316.00
98.8996 1431.00
98.9648 1394.00
99.03 1336.00
99.0952 1350.00
99.1604 1392.00
99.2256 1404.00
99.2908 1390.00
99.356 1333.00
99.4212 1427.00
99.4864 1395.00
99.5516 1476.00
99.6168 1498.00
99.682 1422.00
99.7472 1408.00
99.8124 1404.00
99.8776 1438.00
99.9428 1426.00
100.008 1478.00
100.073 1405.00
100.095 1302.00