File: data/xrd_creation/results/NSC_62.xy
9.903433 2688.00
9.968632 2655.00
10.0338 2798.00
10.099 2672.00
10.1642 2653.00
10.2294 2656.00
10.2946 2649.00
10.3598 2683.00
10.425 2637.00
10.4902 2656.00
10.5554 2594.00
10.6206 2484.00
10.6858 2521.00
10.751 2585.00
10.8162 2537.00
10.8814 2440.00
10.9466 2407.00
11.0118 2443.00
11.077 2333.00
11.1422 2429.00
11.2074 2312.00
11.2726 2308.00
11.3378 2230.00
11.403 2236.00
11.4682 2302.00
11.5334 2209.00
11.5986 2191.00
11.6638 2215.00
11.729 2163.00
11.7942 2113.00
11.8594 2243.00
11.9246 2113.00
11.9898 2104.00
12.055 2084.00
12.1202 2150.00
12.1854 2066.00
12.2506 1981.00
12.3158 2041.00
12.381 2035.00
12.4462 2090.00
12.5114 1974.00
12.5766 2075.00
12.6418 2046.00
12.707 2060.00
12.7722 2021.00
12.8374 2065.00
12.9026 2042.00
12.9678 2077.00
13.033 2066.00
13.0982 2169.00
13.1634 2135.00
13.2286 2025.00
13.2938 1912.00
13.359 1933.00
13.4242 1913.00
13.4894 1878.00
13.5546 1973.00
13.6198 1943.00
13.685 2011.00
13.7502 2098.00
13.8154 2226.00
13.8805 2198.00
13.9457 2212.00
14.0109 2189.00
14.0761 2260.00
14.1413 2362.00
14.2065 2391.00
14.2717 1885.00
14.3369 1787.00
14.4021 1828.00
14.4673 1836.00
14.5325 1763.00
14.5977 1833.00
14.6629 1769.00
14.7281 1714.00
14.7933 1739.00
14.8585 1752.00
14.9237 1820.00
14.9889 1807.00
15.0541 1877.00
15.1193 1836.00
15.1845 1795.00
15.2497 1819.00
15.3149 1887.00
15.3801 1781.00
15.4453 1976.00
15.5105 2132.00
15.5757 2180.00
15.6409 2174.00
15.7061 2140.00
15.7713 1979.00
15.8365 2087.00
15.9017 2215.00
15.9669 2042.00
16.0321 1957.00
16.0973 1731.00
16.1625 1691.00
16.2277 1575.00
16.2929 1643.00
16.3581 1637.00
16.4233 1603.00
16.4885 1609.00
16.5537 1601.00
16.6189 1603.00
16.6841 1637.00
16.7493 1539.00
16.8145 1638.00
16.8797 1651.00
16.9449 1569.00
17.0101 1650.00
17.0753 1611.00
17.1405 1649.00
17.2057 1612.00
17.2709 1660.00
17.3361 1618.00
17.4013 1534.00
17.4665 1586.00
17.5317 1530.00
17.5969 1559.00
17.6621 1513.00
17.7273 1562.00
17.7925 1586.00
17.8577 1511.00
17.9229 1516.00
17.9881 1503.00
18.0533 1471.00
18.1185 1424.00
18.1837 1455.00
18.2489 1485.00
18.3141 1541.00
18.3793 1484.00
18.4445 1488.00
18.5097 1455.00
18.5749 1462.00
18.6401 1504.00
18.7052 1486.00
18.7704 1385.00
18.8356 1497.00
18.9008 1422.00
18.966 1509.00
19.0312 1531.00
19.0964 1506.00
19.1616 1473.00
19.2268 1537.00
19.292 1624.00
19.3572 1750.00
19.4224 1997.00
19.4876 2209.00
19.5528 2391.00
19.618 2482.00
19.6832 2888.00
19.7484 3375.00
19.8136 3898.00
19.8788 3729.00
19.944 2994.00
20.0092 2796.00
20.0744 3222.00
20.1396 3043.00
20.2048 2264.00
20.27 1834.00
20.3352 1678.00
20.4004 1603.00
20.4656 1587.00
20.5308 1590.00
20.596 1725.00
20.6612 1686.00
20.7264 1418.00
20.7916 1417.00
20.8568 1460.00
20.922 1426.00
20.9872 1373.00
21.0524 1404.00
21.1176 1370.00
21.1828 1399.00
21.248 1319.00
21.3132 1395.00
21.3784 1350.00
21.4436 1457.00
21.5088 1415.00
21.574 1494.00
21.6392 1519.00
21.7044 1609.00
21.7696 1584.00
21.8348 1483.00
21.9 1476.00
21.9652 1503.00
22.0304 1467.00
22.0956 1432.00
22.1608 1437.00
22.226 1437.00
22.2912 1527.00
22.3564 1516.00
22.4216 1517.00
22.4868 1633.00
22.552 1702.00
22.6172 1886.00
22.6824 1831.00
22.7476 1892.00
22.8128 1842.00
22.878 1747.00
22.9432 1774.00
23.0084 1827.00
23.0736 1796.00
23.1388 1863.00
23.204 2018.00
23.2692 1925.00
23.3344 1983.00
23.3996 2211.00
23.4647 2192.00
23.5299 1807.00
23.5951 1387.00
23.6603 1300.00
23.7255 1275.00
23.7907 1246.00
23.8559 1279.00
23.9211 1251.00
23.9863 1201.00
24.0515 1251.00
24.1167 1248.00
24.1819 1281.00
24.2471 1354.00
24.3123 1371.00
24.3775 1345.00
24.4427 1417.00
24.5079 1485.00
24.5731 1484.00
24.6383 1407.00
24.7035 1334.00
24.7687 1313.00
24.8339 1330.00
24.8991 1337.00
24.9643 1243.00
25.0295 1209.00
25.0947 1213.00
25.1599 1163.00
25.2251 1209.00
25.2903 1179.00
25.3555 1228.00
25.4207 1218.00
25.4859 1171.00
25.5511 1156.00
25.6163 1129.00
25.6815 1116.00
25.7467 1155.00
25.8119 1084.00
25.8771 1097.00
25.9423 1089.00
26.0075 1079.00
26.0727 1068.00
26.1379 1169.00
26.2031 1130.00
26.2683 1036.00
26.3335 1081.00
26.3987 1123.00
26.4639 1098.00
26.5291 1097.00
26.5943 1232.00
26.6595 1189.00
26.7247 1166.00
26.7899 1214.00
26.8551 1185.00
26.9203 1164.00
26.9855 1235.00
27.0507 1152.00
27.1159 1182.00
27.1811 1142.00
27.2463 1117.00
27.3115 1119.00
27.3767 1068.00
27.4419 1169.00
27.5071 1120.00
27.5723 1167.00
27.6375 1207.00
27.7027 1188.00
27.7679 1262.00
27.8331 1309.00
27.8983 1403.00
27.9635 1582.00
28.0287 1598.00
28.0939 1705.00
28.1591 2003.00
28.2243 2477.00
28.2894 2722.00
28.3546 2169.00
28.4198 1708.00
28.485 1440.00
28.5502 1401.00
28.6154 1435.00
28.6806 1433.00
28.7458 1347.00
28.811 1227.00
28.8762 1047.00
28.9414 1025.00
29.0066 1104.00
29.0718 1101.00
29.137 1163.00
29.2022 1130.00
29.2674 1097.00
29.3326 1162.00
29.3978 1059.00
29.463 1087.00
29.5282 1070.00
29.5934 1084.00
29.6586 1170.00
29.7238 1054.00
29.789 1081.00
29.8542 1092.00
29.9194 1123.00
29.9846 1294.00
30.0498 1286.00
30.115 1337.00
30.1802 1354.00
30.2454 1420.00
30.3106 1481.00
30.3758 1641.00
30.441 1782.00
30.5062 2100.00
30.5714 2387.00
30.6366 2583.00
30.7018 3084.00
30.767 3827.00
30.8322 3849.00
30.8974 2916.00
30.9626 2090.00
31.0278 1953.00
31.093 2008.00
31.1582 2216.00
31.2234 2334.00
31.2886 2622.00
31.3538 2973.00
31.419 3669.00
31.4842 3953.00
31.5494 3564.00
31.6146 2610.00
31.6798 1912.00
31.745 1605.00
31.8102 1550.00
31.8754 1775.00
31.9406 1733.00
32.0058 1686.00
32.071 1657.00
32.1362 1593.00
32.2014 1400.00
32.2666 1323.00
32.3318 1321.00
32.397 1370.00
32.4622 1522.00
32.5274 1774.00
32.5926 1738.00
32.6578 1342.00
32.723 1294.00
32.7882 1158.00
32.8534 1151.00
32.9186 1327.00
32.9838 1314.00
33.0489 1315.00
33.1141 1120.00
33.1793 1004.00
33.2445 1055.00
33.3097 1114.00
33.3749 1109.00
33.4401 1052.00
33.5053 1096.00
33.5705 1021.00
33.6357 1037.00
33.7009 1061.00
33.7661 1174.00
33.8313 1226.00
33.8965 1100.00
33.9617 1054.00
34.0269 931.00
34.0921 942.00
34.1573 1003.00
34.2225 1094.00
34.2877 1115.00
34.3529 1142.00
34.4181 1199.00
34.4833 1323.00
34.5485 1546.00
34.6137 1857.00
34.6789 2040.00
34.7441 2537.00
34.8093 2901.00
34.8745 3259.00
34.9397 3569.00
35.0049 3408.00
35.0701 2752.00
35.1353 1995.00
35.2005 1434.00
35.2657 1271.00
35.3309 1272.00
35.3961 1343.00
35.4613 1317.00
35.5265 1442.00
35.5917 1579.00
35.6569 1763.00
35.7221 1655.00
35.7873 1398.00
35.8525 1097.00
35.9177 955.00
35.9829 970.00
36.0481 946.00
36.1133 905.00
36.1785 818.00
36.2437 851.00
36.3089 856.00
36.3741 846.00
36.4393 817.00
36.5045 886.00
36.5697 870.00
36.6349 915.00
36.7001 963.00
36.7653 963.00
36.8305 928.00
36.8957 846.00
36.9609 847.00
37.0261 824.00
37.0913 820.00
37.1565 837.00
37.2217 797.00
37.2869 836.00
37.3521 797.00
37.4173 727.00
37.4825 767.00
37.5477 747.00
37.6129 780.00
37.6781 809.00
37.7433 826.00
37.8085 855.00
37.8736 857.00
37.9388 842.00
38.004 772.00
38.0692 851.00
38.1344 829.00
38.1996 905.00
38.2648 842.00
38.33 790.00
38.3952 821.00
38.4604 829.00
38.5256 849.00
38.5908 825.00
38.656 922.00
38.7212 835.00
38.7864 824.00
38.8516 790.00
38.9168 746.00
38.982 716.00
39.0472 744.00
39.1124 733.00
39.1776 692.00
39.2428 680.00
39.308 723.00
39.3732 718.00
39.4384 782.00
39.5036 784.00
39.5688 755.00
39.634 807.00
39.6992 785.00
39.7644 753.00
39.8296 822.00
39.8948 809.00
39.96 823.00
40.0252 821.00
40.0904 850.00
40.1556 785.00
40.2208 726.00
40.286 729.00
40.3512 741.00
40.4164 777.00
40.4816 849.00
40.5468 903.00
40.612 920.00
40.6772 928.00
40.7424 880.00
40.8076 852.00
40.8728 779.00
40.938 732.00
41.0032 739.00
41.0684 677.00
41.1336 708.00
41.1988 680.00
41.264 717.00
41.3292 668.00
41.3944 686.00
41.4596 653.00
41.5248 663.00
41.59 743.00
41.6552 763.00
41.7204 788.00
41.7856 804.00
41.8508 860.00
41.916 936.00
41.9812 943.00
42.0464 1026.00
42.1116 1088.00
42.1768 1012.00
42.242 1058.00
42.3072 1042.00
42.3724 1084.00
42.4376 1200.00
42.5028 1175.00
42.568 1258.00
42.6332 1209.00
42.6983 1150.00
42.7635 1180.00
42.8287 1242.00
42.8939 1230.00
42.9591 1136.00
43.0243 1070.00
43.0895 913.00
43.1547 877.00
43.2199 817.00
43.2851 766.00
43.3503 765.00
43.4155 712.00
43.4807 801.00
43.5459 739.00
43.6111 742.00
43.6763 689.00
43.7415 671.00
43.8067 724.00
43.8719 710.00
43.9371 704.00
44.0023 740.00
44.0675 737.00
44.1327 718.00
44.1979 706.00
44.2631 713.00
44.3283 736.00
44.3935 733.00
44.4587 726.00
44.5239 686.00
44.5891 720.00
44.6543 763.00
44.7195 820.00
44.7847 823.00
44.8499 901.00
44.9151 911.00
44.9803 912.00
45.0455 935.00
45.1107 1018.00
45.1759 939.00
45.2411 988.00
45.3063 1093.00
45.3715 1169.00
45.4367 1297.00
45.5019 1230.00
45.5671 1170.00
45.6323 1030.00
45.6975 936.00
45.7627 983.00
45.8279 919.00
45.8931 946.00
45.9583 969.00
46.0235 948.00
46.0887 837.00
46.1539 780.00
46.2191 768.00
46.2843 702.00
46.3495 723.00
46.4147 691.00
46.4799 762.00
46.5451 787.00
46.6103 814.00
46.6755 788.00
46.7407 771.00
46.8059 854.00
46.8711 797.00
46.9363 872.00
47.0015 918.00
47.0667 1049.00
47.1319 982.00
47.1971 1095.00
47.2623 1085.00
47.3275 1177.00
47.3927 1236.00
47.4579 1379.00
47.523 1498.00
47.5882 1845.00
47.6534 2018.00
47.7186 1774.00
47.7838 1467.00
47.849 1197.00
47.9142 976.00
47.9794 891.00
48.0446 740.00
48.1098 771.00
48.175 678.00
48.2402 624.00
48.3054 611.00
48.3706 629.00
48.4358 619.00
48.501 634.00
48.5662 591.00
48.6314 638.00
48.6966 646.00
48.7618 662.00
48.827 742.00
48.8922 731.00
48.9574 762.00
49.0226 846.00
49.0878 820.00
49.153 879.00
49.2182 878.00
49.2834 872.00
49.3486 846.00
49.4138 823.00
49.479 706.00
49.5442 726.00
49.6094 654.00
49.6746 612.00
49.7398 611.00
49.805 700.00
49.8702 678.00
49.9354 753.00
50.0006 686.00
50.0658 807.00
50.131 730.00
50.1962 774.00
50.2614 741.00
50.3266 654.00
50.3918 636.00
50.457 588.00
50.5222 618.00
50.5874 612.00
50.6526 649.00
50.7178 658.00
50.783 750.00
50.8482 814.00
50.9134 939.00
50.9786 1127.00
51.0438 1289.00
51.109 1510.00
51.1742 1746.00
51.2394 1764.00
51.3046 1604.00
51.3698 1383.00
51.435 1347.00
51.5002 1283.00
51.5654 1317.00
51.6306 1380.00
51.6958 1280.00
51.761 1203.00
51.8262 1055.00
51.8914 823.00
51.9566 787.00
52.0218 667.00
52.087 672.00
52.1522 602.00
52.2174 693.00
52.2826 631.00
52.3477 611.00
52.4129 652.00
52.4781 688.00
52.5433 650.00
52.6085 629.00
52.6737 607.00
52.7389 618.00
52.8041 613.00
52.8693 616.00
52.9345 651.00
52.9997 708.00
53.0649 567.00
53.1301 614.00
53.1953 636.00
53.2605 603.00
53.3257 608.00
53.3909 683.00
53.4561 647.00
53.5213 675.00
53.5865 673.00
53.6517 700.00
53.7169 646.00
53.7821 666.00
53.8473 722.00
53.9125 736.00
53.9777 824.00
54.0429 870.00
54.1081 951.00
54.1733 1001.00
54.2385 1135.00
54.3037 1244.00
54.3689 1431.00
54.4341 1516.00
54.4993 1532.00
54.5645 1388.00
54.6297 1251.00
54.6949 959.00
54.7601 793.00
54.8253 708.00
54.8905 659.00
54.9557 650.00
55.0209 614.00
55.0861 547.00
55.1513 615.00
55.2165 582.00
55.2817 572.00
55.3469 610.00
55.4121 585.00
55.4773 595.00
55.5425 596.00
55.6077 577.00
55.6729 621.00
55.7381 633.00
55.8033 660.00
55.8685 712.00
55.9337 718.00
55.9989 734.00
56.0641 789.00
56.1293 735.00
56.1945 722.00
56.2597 662.00
56.3249 653.00
56.3901 653.00
56.4553 642.00
56.5205 599.00
56.5857 664.00
56.6509 668.00
56.7161 732.00
56.7813 724.00
56.8465 770.00
56.9117 749.00
56.9769 791.00
57.042 772.00
57.1073 754.00
57.1724 717.00
57.2376 654.00
57.3028 625.00
57.368 680.00
57.4332 556.00
57.4984 571.00
57.5636 597.00
57.6288 563.00
57.694 604.00
57.7592 616.00
57.8244 586.00
57.8896 653.00
57.9548 597.00
58.02 572.00
58.0852 613.00
58.1504 595.00
58.2156 571.00
58.2808 544.00
58.346 566.00
58.4112 566.00
58.4764 533.00
58.5416 589.00
58.6068 590.00
58.672 605.00
58.7372 599.00
58.8024 603.00
58.8676 628.00
58.9328 664.00
58.998 695.00
59.0632 663.00
59.1284 704.00
59.1936 785.00
59.2588 788.00
59.324 794.00
59.3892 806.00
59.4544 811.00
59.5196 832.00
59.5848 804.00
59.65 888.00
59.7152 879.00
59.7804 960.00
59.8456 986.00
59.9108 1056.00
59.976 1051.00
60.0412 1078.00
60.1064 1114.00
60.1716 1216.00
60.2368 1221.00
60.302 1280.00
60.3672 1339.00
60.4324 1288.00
60.4976 1154.00
60.5628 1053.00
60.628 1053.00
60.6932 1097.00
60.7584 1187.00
60.8236 1268.00
60.8888 1296.00
60.954 1135.00
61.0192 1015.00
61.0844 879.00
61.1496 728.00
61.2148 699.00
61.28 662.00
61.3452 736.00
61.4104 743.00
61.4756 790.00
61.5408 791.00
61.606 759.00
61.6712 752.00
61.7364 765.00
61.8016 749.00
61.8667 686.00
61.932 669.00
61.9971 641.00
62.0623 771.00
62.1275 778.00
62.1927 842.00
62.2579 956.00
62.3231 1005.00
62.3883 1092.00
62.4535 1092.00
62.5187 1041.00
62.5839 1065.00
62.6491 877.00
62.7143 827.00
62.7795 729.00
62.8447 727.00
62.9099 716.00
62.9751 734.00
63.0403 732.00
63.1055 740.00
63.1707 737.00
63.2359 726.00
63.3011 770.00
63.3663 668.00
63.4315 714.00
63.4967 683.00
63.5619 702.00
63.6271 684.00
63.6923 712.00
63.7575 794.00
63.8227 732.00
63.8879 758.00
63.9531 674.00
64.0183 656.00
64.0835 622.00
64.1487 615.00
64.2139 525.00
64.2791 542.00
64.3443 522.00
64.4095 532.00
64.4747 515.00
64.5399 524.00
64.6051 581.00
64.6703 586.00
64.7355 535.00
64.8007 572.00
64.8659 594.00
64.9311 548.00
64.9963 572.00
65.0615 516.00
65.1267 535.00
65.1919 567.00
65.2571 536.00
65.3223 636.00
65.3875 576.00
65.4527 582.00
65.5179 521.00
65.5831 508.00
65.6483 541.00
65.7135 544.00
65.7787 531.00
65.8439 547.00
65.9091 554.00
65.9743 599.00
66.0395 611.00
66.1047 663.00
66.1699 679.00
66.2351 675.00
66.3003 680.00
66.3655 725.00
66.4307 619.00
66.4959 600.00
66.561 610.00
66.6263 607.00
66.6915 591.00
66.7566 669.00
66.8218 674.00
66.887 627.00
66.9522 652.00
67.0174 606.00
67.0826 615.00
67.1478 608.00
67.213 644.00
67.2782 618.00
67.3434 672.00
67.4086 676.00
67.4738 717.00
67.539 722.00
67.6042 751.00
67.6694 700.00
67.7346 649.00
67.7998 657.00
67.865 623.00
67.9302 581.00
67.9954 591.00
68.0606 579.00
68.1258 584.00
68.191 620.00
68.2562 590.00
68.3214 619.00
68.3866 552.00
68.4518 552.00
68.517 478.00
68.5822 517.00
68.6474 549.00
68.7126 522.00
68.7778 475.00
68.843 488.00
68.9082 502.00
68.9734 473.00
69.0386 504.00
69.1038 445.00
69.169 490.00
69.2342 457.00
69.2994 519.00
69.3646 487.00
69.4298 493.00
69.495 524.00
69.5602 578.00
69.6254 654.00
69.6906 629.00
69.7558 695.00
69.821 681.00
69.8862 672.00
69.9514 654.00
70.0166 606.00
70.0818 586.00
70.147 557.00
70.2122 514.00
70.2774 461.00
70.3426 474.00
70.4078 430.00
70.473 471.00
70.5382 457.00
70.6034 436.00
70.6686 441.00
70.7338 442.00
70.799 480.00
70.8642 461.00
70.9294 447.00
70.9946 478.00
71.0598 474.00
71.125 494.00
71.1902 484.00
71.2554 456.00
71.3205 466.00
71.3858 499.00
71.451 477.00
71.5162 502.00
71.5813 462.00
71.6465 505.00
71.7117 486.00
71.7769 490.00
71.8421 483.00
71.9073 485.00
71.9725 446.00
72.0377 499.00
72.1029 439.00
72.1681 458.00
72.2333 475.00
72.2985 462.00
72.3637 456.00
72.4289 448.00
72.4941 455.00
72.5593 477.00
72.6245 458.00
72.6897 477.00
72.7549 458.00
72.8201 420.00
72.8853 467.00
72.9505 463.00
73.0157 438.00
73.0809 468.00
73.1461 501.00
73.2113 490.00
73.2765 526.00
73.3417 594.00
73.4069 600.00
73.4721 626.00
73.5373 674.00
73.6025 631.00
73.6677 616.00
73.7329 619.00
73.7981 569.00
73.8633 564.00
73.9285 600.00
73.9937 593.00
74.0589 540.00
74.1241 501.00
74.1893 522.00
74.2545 535.00
74.3197 526.00
74.3849 465.00
74.4501 512.00
74.5153 452.00
74.5805 464.00
74.6457 547.00
74.7109 477.00
74.7761 499.00
74.8413 475.00
74.9065 519.00
74.9717 527.00
75.0369 506.00
75.1021 503.00
75.1673 549.00
75.2325 583.00
75.2977 563.00
75.3629 576.00
75.4281 511.00
75.4933 521.00
75.5585 556.00
75.6237 526.00
75.6889 551.00
75.7541 521.00
75.8193 518.00
75.8845 499.00
75.9497 524.00
76.0149 490.00
76.0801 442.00
76.1452 442.00
76.2104 447.00
76.2756 438.00
76.3409 474.00
76.406 504.00
76.4712 470.00
76.5364 526.00
76.6016 490.00
76.6668 488.00
76.732 540.00
76.7972 541.00
76.8624 606.00
76.9276 589.00
76.9928 583.00
77.058 556.00
77.1232 577.00
77.1884 565.00
77.2536 541.00
77.3188 546.00
77.384 570.00
77.4492 462.00
77.5144 487.00
77.5796 516.00
77.6448 469.00
77.71 465.00
77.7752 474.00
77.8404 534.00
77.9056 519.00
77.9708 544.00
78.036 511.00
78.1012 522.00
78.1664 508.00
78.2316 543.00
78.2968 574.00
78.362 487.00
78.4272 480.00
78.4924 526.00
78.5576 491.00
78.6228 481.00
78.688 489.00
78.7532 457.00
78.8184 474.00
78.8836 473.00
78.9488 428.00
79.014 399.00
79.0792 486.00
79.1444 530.00
79.2096 507.00
79.2748 503.00
79.34 449.00
79.4052 441.00
79.4704 438.00
79.5356 433.00
79.6008 448.00
79.666 392.00
79.7312 432.00
79.7964 408.00
79.8616 400.00
79.9268 401.00
79.992 404.00
80.0572 417.00
80.1224 408.00
80.1876 418.00
80.2528 419.00
80.318 452.00
80.3832 440.00
80.4484 464.00
80.5136 490.00
80.5788 418.00
80.644 481.00
80.7092 413.00
80.7744 472.00
80.8396 463.00
80.9048 481.00
80.9699 479.00
81.0351 511.00
81.1003 504.00
81.1655 510.00
81.2307 540.00
81.2959 536.00
81.3611 495.00
81.4263 549.00
81.4915 464.00
81.5567 524.00
81.6219 519.00
81.6871 540.00
81.7523 583.00
81.8175 609.00
81.8827 657.00
81.9479 699.00
82.0131 687.00
82.0783 696.00
82.1435 628.00
82.2087 663.00
82.2739 605.00
82.3391 550.00
82.4043 544.00
82.4695 512.00
82.5347 495.00
82.5999 484.00
82.6651 496.00
82.7303 477.00
82.7955 523.00
82.8607 469.00
82.9259 442.00
82.9911 491.00
83.0563 481.00
83.1215 514.00
83.1867 526.00
83.2519 581.00
83.3171 583.00
83.3823 568.00
83.4475 624.00
83.5127 560.00
83.5779 530.00
83.6431 544.00
83.7083 492.00
83.7735 528.00
83.8387 463.00
83.9039 513.00
83.9691 467.00
84.0343 529.00
84.0995 430.00
84.1647 453.00
84.2299 462.00
84.2951 442.00
84.3603 415.00
84.4255 421.00
84.4907 438.00
84.5559 417.00
84.6211 443.00
84.6863 407.00
84.7515 428.00
84.8167 412.00
84.8819 445.00
84.9471 384.00
85.0123 420.00
85.0775 397.00
85.1427 425.00
85.2079 404.00
85.2731 413.00
85.3383 400.00
85.4035 409.00
85.4687 394.00
85.5339 396.00
85.5991 446.00
85.6643 425.00
85.7295 433.00
85.7946 486.00
85.8598 448.00
85.925 468.00
85.9903 521.00
86.0554 498.00
86.1206 461.00
86.1858 494.00
86.251 447.00
86.3162 424.00
86.3814 437.00
86.4466 402.00
86.5118 412.00
86.577 399.00
86.6422 386.00
86.7074 432.00
86.7726 438.00
86.8378 406.00
86.903 411.00
86.9682 427.00
87.0334 485.00
87.0986 477.00
87.1638 437.00
87.229 516.00
87.2942 469.00
87.3594 452.00
87.4246 508.00
87.4898 478.00
87.555 444.00
87.6202 436.00
87.6854 493.00
87.7506 431.00
87.8158 476.00
87.881 429.00
87.9462 410.00
88.0114 477.00
88.0766 453.00
88.1418 464.00
88.207 477.00
88.2722 519.00
88.3374 514.00
88.4026 524.00
88.4678 593.00
88.533 618.00
88.5982 559.00
88.6634 576.00
88.7286 565.00
88.7938 521.00
88.859 536.00
88.9242 469.00
88.9894 492.00
89.0546 481.00
89.1198 462.00
89.185 499.00
89.2502 513.00
89.3154 469.00
89.3806 456.00
89.4458 444.00
89.511 463.00
89.5762 442.00
89.6414 440.00
89.7066 418.00
89.7718 419.00
89.837 458.00
89.9022 454.00
89.9674 497.00
90.0326 441.00
90.0978 476.00
90.163 417.00
90.2282 426.00
90.2934 457.00
90.3586 403.00
90.4238 381.00
90.489 456.00
90.5542 429.00
90.6193 429.00
90.6845 457.00
90.7497 458.00
90.8149 451.00
90.8801 474.00
90.9453 401.00
91.0105 405.00
91.0757 378.00
91.1409 483.00
91.2061 435.00
91.2713 472.00
91.3365 469.00
91.4017 437.00
91.4669 476.00
91.5321 499.00
91.5973 460.00
91.6625 482.00
91.7277 492.00
91.7929 466.00
91.8581 464.00
91.9233 406.00
91.9885 463.00
92.0537 447.00
92.1189 488.00
92.1841 514.00
92.2493 497.00
92.3145 503.00
92.3797 455.00
92.4449 497.00
92.5101 492.00
92.5753 475.00
92.6405 511.00
92.7057 524.00
92.7709 478.00
92.8361 498.00
92.9013 463.00
92.9665 443.00
93.0317 438.00
93.0969 456.00
93.1621 431.00
93.2273 418.00
93.2925 489.00
93.3577 454.00
93.4229 438.00
93.4881 434.00
93.5533 462.00
93.6185 415.00
93.6837 401.00
93.7489 410.00
93.8141 436.00
93.8793 453.00
93.9445 417.00
94.0097 461.00
94.0749 455.00
94.1401 469.00
94.2053 477.00
94.2705 453.00
94.3357 466.00
94.4009 439.00
94.4661 435.00
94.5313 460.00
94.5965 462.00
94.6617 469.00
94.7269 500.00
94.7921 447.00
94.8573 523.00
94.9225 455.00
94.9877 472.00
95.0529 516.00
95.1181 460.00
95.1833 573.00
95.2485 532.00
95.3137 521.00
95.3789 590.00
95.444 558.00
95.5092 544.00
95.5744 526.00
95.6396 516.00
95.7048 513.00
95.77 485.00
95.8352 484.00
95.9004 472.00
95.9656 469.00
96.0308 457.00
96.096 454.00
96.1612 398.00
96.2264 480.00
96.2916 446.00
96.3568 455.00
96.422 433.00
96.4872 480.00
96.5524 508.00
96.6176 460.00
96.6828 514.00
96.748 491.00
96.8132 497.00
96.8784 468.00
96.9436 467.00
97.0088 457.00
97.074 457.00
97.1392 463.00
97.2044 486.00
97.2696 441.00
97.3348 483.00
97.4 448.00
97.4652 440.00
97.5304 503.00
97.5956 444.00
97.6608 466.00
97.726 488.00
97.7912 519.00
97.8564 496.00
97.9216 479.00
97.9868 488.00
98.052 470.00
98.1172 476.00
98.1824 463.00
98.2476 433.00
98.3128 429.00
98.378 476.00
98.4432 483.00
98.5084 443.00
98.5736 408.00
98.6388 414.00
98.704 436.00
98.7692 435.00
98.8344 410.00
98.8996 451.00
98.9648 480.00
99.03 440.00
99.0952 445.00
99.1604 440.00
99.2256 446.00
99.2908 483.00
99.356 401.00
99.4212 434.00
99.4864 441.00
99.5516 472.00
99.6168 445.00
99.682 412.00
99.7472 428.00
99.8124 425.00
99.8776 388.00
99.9428 427.00
100.008 455.00
100.073 385.00
100.095 406.00