File: data/xrd_creation/results/NSC_54.xy
9.903433 2831.00
9.968632 2852.00
10.0338 2852.00
10.099 2796.00
10.1642 2833.00
10.2294 2733.00
10.2946 2727.00
10.3598 2660.00
10.425 2633.00
10.4902 2630.00
10.5554 2706.00
10.6206 2627.00
10.6858 2639.00
10.751 2534.00
10.8162 2627.00
10.8814 2585.00
10.9466 2509.00
11.0118 2476.00
11.077 2589.00
11.1422 2481.00
11.2074 2479.00
11.2726 2481.00
11.3378 2490.00
11.403 2411.00
11.4682 2448.00
11.5334 2421.00
11.5986 2362.00
11.6638 2313.00
11.729 2239.00
11.7942 2285.00
11.8594 2369.00
11.9246 2364.00
11.9898 2258.00
12.055 2347.00
12.1202 2222.00
12.1854 2285.00
12.2506 2265.00
12.3158 2242.00
12.381 2236.00
12.4462 2161.00
12.5114 2271.00
12.5766 2133.00
12.6418 2126.00
12.707 2146.00
12.7722 2124.00
12.8374 2176.00
12.9026 2094.00
12.9678 2150.00
13.033 2145.00
13.0982 2112.00
13.1634 2144.00
13.2286 2141.00
13.2938 2081.00
13.359 2227.00
13.4242 2126.00
13.4894 2062.00
13.5546 2103.00
13.6198 2108.00
13.685 2093.00
13.7502 2108.00
13.8154 1982.00
13.8805 2005.00
13.9457 1991.00
14.0109 2042.00
14.0761 1944.00
14.1413 2011.00
14.2065 1997.00
14.2717 2052.00
14.3369 1980.00
14.4021 2060.00
14.4673 2075.00
14.5325 2001.00
14.5977 2036.00
14.6629 1947.00
14.7281 2098.00
14.7933 1963.00
14.8585 1925.00
14.9237 1955.00
14.9889 1945.00
15.0541 2024.00
15.1193 2021.00
15.1845 1931.00
15.2497 1946.00
15.3149 1973.00
15.3801 1949.00
15.4453 1941.00
15.5105 2025.00
15.5757 2036.00
15.6409 1986.00
15.7061 2018.00
15.7713 1902.00
15.8365 1883.00
15.9017 1991.00
15.9669 1967.00
16.0321 1923.00
16.0973 1919.00
16.1625 2014.00
16.2277 2004.00
16.2929 2034.00
16.3581 1935.00
16.4233 2023.00
16.4885 1949.00
16.5537 1991.00
16.6189 2032.00
16.6841 2013.00
16.7493 1899.00
16.8145 1962.00
16.8797 1957.00
16.9449 2014.00
17.0101 2084.00
17.0753 2079.00
17.1405 1981.00
17.2057 2078.00
17.2709 2006.00
17.3361 1985.00
17.4013 1991.00
17.4665 1963.00
17.5317 1932.00
17.5969 2107.00
17.6621 1994.00
17.7273 1957.00
17.7925 1965.00
17.8577 2062.00
17.9229 1972.00
17.9881 1935.00
18.0533 2089.00
18.1185 1941.00
18.1837 1924.00
18.2489 2021.00
18.3141 2035.00
18.3793 2052.00
18.4445 1949.00
18.5097 1983.00
18.5749 1994.00
18.6401 1918.00
18.7052 1972.00
18.7704 2028.00
18.8356 1996.00
18.9008 1972.00
18.966 1963.00
19.0312 1970.00
19.0964 1999.00
19.1616 1976.00
19.2268 1973.00
19.292 2016.00
19.3572 2044.00
19.4224 1887.00
19.4876 2018.00
19.5528 1961.00
19.618 2013.00
19.6832 1973.00
19.7484 2000.00
19.8136 1999.00
19.8788 2053.00
19.944 2013.00
20.0092 2047.00
20.0744 2067.00
20.1396 2029.00
20.2048 2219.00
20.27 2175.00
20.3352 2232.00
20.4004 2525.00
20.4656 2762.00
20.5308 3483.00
20.596 4072.00
20.6612 4147.00
20.7264 3809.00
20.7916 3438.00
20.8568 3019.00
20.922 2467.00
20.9872 2264.00
21.0524 2021.00
21.1176 2059.00
21.1828 2196.00
21.248 2076.00
21.3132 2128.00
21.3784 2048.00
21.4436 2012.00
21.5088 2063.00
21.574 2025.00
21.6392 2056.00
21.7044 2003.00
21.7696 1963.00
21.8348 2021.00
21.9 2032.00
21.9652 2018.00
22.0304 2047.00
22.0956 1999.00
22.1608 2065.00
22.226 2043.00
22.2912 2073.00
22.3564 2010.00
22.4216 2026.00
22.4868 2032.00
22.552 2017.00
22.6172 1979.00
22.6824 1976.00
22.7476 2076.00
22.8128 2045.00
22.878 2027.00
22.9432 2109.00
23.0084 2106.00
23.0736 2044.00
23.1388 2067.00
23.204 2062.00
23.2692 2079.00
23.3344 2081.00
23.3996 1967.00
23.4647 2059.00
23.5299 2100.00
23.5951 2094.00
23.6603 2251.00
23.7255 2431.00
23.7907 2521.00
23.8559 2634.00
23.9211 2757.00
23.9863 2696.00
24.0515 2483.00
24.1167 2351.00
24.1819 2192.00
24.2471 2196.00
24.3123 2055.00
24.3775 2048.00
24.4427 1960.00
24.5079 2048.00
24.5731 2006.00
24.6383 2078.00
24.7035 1993.00
24.7687 1993.00
24.8339 2003.00
24.8991 2058.00
24.9643 2018.00
25.0295 1923.00
25.0947 2066.00
25.1599 2067.00
25.2251 2064.00
25.2903 1911.00
25.3555 1946.00
25.4207 2022.00
25.4859 1920.00
25.5511 1987.00
25.6163 1960.00
25.6815 1932.00
25.7467 1974.00
25.8119 1930.00
25.8771 1935.00
25.9423 1987.00
26.0075 1995.00
26.0727 2040.00
26.1379 1964.00
26.2031 1949.00
26.2683 1972.00
26.3335 1874.00
26.3987 1931.00
26.4639 1991.00
26.5291 1912.00
26.5943 2004.00
26.6595 1923.00
26.7247 2004.00
26.7899 1924.00
26.8551 1961.00
26.9203 1905.00
26.9855 1856.00
27.0507 1977.00
27.1159 1925.00
27.1811 1960.00
27.2463 1863.00
27.3115 1909.00
27.3767 1994.00
27.4419 1975.00
27.5071 1923.00
27.5723 2009.00
27.6375 1911.00
27.7027 1878.00
27.7679 1898.00
27.8331 1845.00
27.8983 1926.00
27.9635 1928.00
28.0287 1867.00
28.0939 1871.00
28.1591 1890.00
28.2243 1892.00
28.2894 1932.00
28.3546 1803.00
28.4198 1857.00
28.485 1865.00
28.5502 1963.00
28.6154 1821.00
28.6806 1820.00
28.7458 1867.00
28.811 1877.00
28.8762 1770.00
28.9414 1863.00
29.0066 1819.00
29.0718 1788.00
29.137 1891.00
29.2022 1908.00
29.2674 1820.00
29.3326 1895.00
29.3978 1899.00
29.463 1867.00
29.5282 1824.00
29.5934 1806.00
29.6586 1723.00
29.7238 1814.00
29.789 1833.00
29.8542 1747.00
29.9194 1780.00
29.9846 1774.00
30.0498 1851.00
30.115 1787.00
30.1802 1872.00
30.2454 1877.00
30.3106 1788.00
30.3758 1783.00
30.441 1840.00
30.5062 1859.00
30.5714 1812.00
30.6366 1799.00
30.7018 1699.00
30.767 1789.00
30.8322 1797.00
30.8974 1750.00
30.9626 1746.00
31.0278 1695.00
31.093 1786.00
31.1582 1856.00
31.2234 1745.00
31.2886 1667.00
31.3538 1790.00
31.419 1595.00
31.4842 1674.00
31.5494 1731.00
31.6146 1780.00
31.6798 1662.00
31.745 1752.00
31.8102 1777.00
31.8754 1729.00
31.9406 1756.00
32.0058 1706.00
32.071 1674.00
32.1362 1764.00
32.2014 1721.00
32.2666 1688.00
32.3318 1701.00
32.397 1714.00
32.4622 1685.00
32.5274 1660.00
32.5926 1727.00
32.6578 1647.00
32.723 1701.00
32.7882 1641.00
32.8534 1679.00
32.9186 1704.00
32.9838 1665.00
33.0489 1633.00
33.1141 1765.00
33.1793 1687.00
33.2445 1709.00
33.3097 1642.00
33.3749 1809.00
33.4401 1654.00
33.5053 1788.00
33.5705 1736.00
33.6357 1906.00
33.7009 1961.00
33.7661 2395.00
33.8313 3078.00
33.8965 4116.00
33.9617 5206.00
34.0269 5946.00
34.0921 6078.00
34.1573 5693.00
34.2225 4687.00
34.2877 3690.00
34.3529 2846.00
34.4181 2196.00
34.4833 1962.00
34.5485 1707.00
34.6137 1697.00
34.6789 1618.00
34.7441 1609.00
34.8093 1609.00
34.8745 1625.00
34.9397 1577.00
35.0049 1557.00
35.0701 1578.00
35.1353 1544.00
35.2005 1507.00
35.2657 1639.00
35.3309 1600.00
35.3961 1570.00
35.4613 1508.00
35.5265 1482.00
35.5917 1530.00
35.6569 1483.00
35.7221 1509.00
35.7873 1478.00
35.8525 1432.00
35.9177 1480.00
35.9829 1520.00
36.0481 1451.00
36.1133 1468.00
36.1785 1412.00
36.2437 1414.00
36.3089 1412.00
36.3741 1438.00
36.4393 1451.00
36.5045 1430.00
36.5697 1478.00
36.6349 1441.00
36.7001 1432.00
36.7653 1413.00
36.8305 1374.00
36.8957 1352.00
36.9609 1398.00
37.0261 1436.00
37.0913 1406.00
37.1565 1426.00
37.2217 1466.00
37.2869 1302.00
37.3521 1313.00
37.4173 1410.00
37.4825 1373.00
37.5477 1376.00
37.6129 1336.00
37.6781 1362.00
37.7433 1329.00
37.8085 1303.00
37.8736 1339.00
37.9388 1361.00
38.004 1361.00
38.0692 1346.00
38.1344 1344.00
38.1996 1326.00
38.2648 1326.00
38.33 1346.00
38.3952 1363.00
38.4604 1324.00
38.5256 1345.00
38.5908 1303.00
38.656 1289.00
38.7212 1281.00
38.7864 1337.00
38.8516 1308.00
38.9168 1298.00
38.982 1308.00
39.0472 1219.00
39.1124 1318.00
39.1776 1235.00
39.2428 1286.00
39.308 1239.00
39.3732 1211.00
39.4384 1226.00
39.5036 1316.00
39.5688 1394.00
39.634 1296.00
39.6992 1250.00
39.7644 1283.00
39.8296 1186.00
39.8948 1225.00
39.96 1310.00
40.0252 1268.00
40.0904 1276.00
40.1556 1227.00
40.2208 1310.00
40.286 1219.00
40.3512 1204.00
40.4164 1203.00
40.4816 1236.00
40.5468 1294.00
40.612 1263.00
40.6772 1274.00
40.7424 1245.00
40.8076 1204.00
40.8728 1236.00
40.938 1235.00
41.0032 1169.00
41.0684 1238.00
41.1336 1188.00
41.1988 1146.00
41.264 1132.00
41.3292 1222.00
41.3944 1182.00
41.4596 1184.00
41.5248 1205.00
41.59 1224.00
41.6552 1235.00
41.7204 1198.00
41.7856 1237.00
41.8508 1216.00
41.916 1308.00
41.9812 1311.00
42.0464 1352.00
42.1116 1270.00
42.1768 1253.00
42.242 1319.00
42.3072 1192.00
42.3724 1169.00
42.4376 1217.00
42.5028 1189.00
42.568 1121.00
42.6332 1126.00
42.6983 1187.00
42.7635 1141.00
42.8287 1167.00
42.8939 1224.00
42.9591 1202.00
43.0243 1198.00
43.0895 1081.00
43.1547 1147.00
43.2199 1144.00
43.2851 1136.00
43.3503 1175.00
43.4155 1134.00
43.4807 1185.00
43.5459 1091.00
43.6111 1132.00
43.6763 1193.00
43.7415 1134.00
43.8067 1192.00
43.8719 1137.00
43.9371 1166.00
44.0023 1142.00
44.0675 1064.00
44.1327 1066.00
44.1979 1098.00
44.2631 1104.00
44.3283 1176.00
44.3935 1126.00
44.4587 1101.00
44.5239 1097.00
44.5891 1090.00
44.6543 1159.00
44.7195 1125.00
44.7847 1089.00
44.8499 1174.00
44.9151 1133.00
44.9803 1083.00
45.0455 1136.00
45.1107 1163.00
45.1759 1185.00
45.2411 1099.00
45.3063 1100.00
45.3715 1106.00
45.4367 1144.00
45.5019 1095.00
45.5671 1119.00
45.6323 1049.00
45.6975 1090.00
45.7627 1116.00
45.8279 1067.00
45.8931 1048.00
45.9583 1143.00
46.0235 1094.00
46.0887 1091.00
46.1539 1158.00
46.2191 1111.00
46.2843 1098.00
46.3495 1156.00
46.4147 1152.00
46.4799 1088.00
46.5451 1101.00
46.6103 1073.00
46.6755 1089.00
46.7407 1089.00
46.8059 1132.00
46.8711 1104.00
46.9363 1116.00
47.0015 1092.00
47.0667 1139.00
47.1319 1089.00
47.1971 1068.00
47.2623 1055.00
47.3275 1198.00
47.3927 1109.00
47.4579 1075.00
47.523 1099.00
47.5882 1158.00
47.6534 1109.00
47.7186 1114.00
47.7838 1110.00
47.849 1160.00
47.9142 1057.00
47.9794 1061.00
48.0446 1043.00
48.1098 1051.00
48.175 1055.00
48.2402 1145.00
48.3054 1082.00
48.3706 1154.00
48.4358 1104.00
48.501 1227.00
48.5662 1282.00
48.6314 1328.00
48.6966 1401.00
48.7618 1631.00
48.827 1728.00
48.8922 1746.00
48.9574 1813.00
49.0226 1785.00
49.0878 1671.00
49.153 1552.00
49.2182 1425.00
49.2834 1256.00
49.3486 1217.00
49.4138 1214.00
49.479 1150.00
49.5442 1142.00
49.6094 1076.00
49.6746 1074.00
49.7398 1091.00
49.805 1057.00
49.8702 1083.00
49.9354 1103.00
50.0006 1041.00
50.0658 1098.00
50.131 1107.00
50.1962 1073.00
50.2614 1113.00
50.3266 1091.00
50.3918 1034.00
50.457 1137.00
50.5222 1062.00
50.5874 1085.00
50.6526 1129.00
50.7178 1089.00
50.783 1120.00
50.8482 1120.00
50.9134 1110.00
50.9786 1048.00
51.0438 1070.00
51.109 1138.00
51.1742 1091.00
51.2394 1176.00
51.3046 1055.00
51.3698 1052.00
51.435 1179.00
51.5002 1056.00
51.5654 1058.00
51.6306 1052.00
51.6958 1133.00
51.761 1107.00
51.8262 1067.00
51.8914 1100.00
51.9566 1081.00
52.0218 1052.00
52.087 1078.00
52.1522 1061.00
52.2174 1031.00
52.2826 1116.00
52.3477 1087.00
52.4129 1045.00
52.4781 1049.00
52.5433 1048.00
52.6085 1066.00
52.6737 1019.00
52.7389 1073.00
52.8041 1090.00
52.8693 1064.00
52.9345 1067.00
52.9997 1011.00
53.0649 1100.00
53.1301 1104.00
53.1953 1100.00
53.2605 1093.00
53.3257 1064.00
53.3909 1080.00
53.4561 1042.00
53.5213 1074.00
53.5865 1030.00
53.6517 1046.00
53.7169 1050.00
53.7821 1088.00
53.8473 1087.00
53.9125 1114.00
53.9777 1062.00
54.0429 1159.00
54.1081 1085.00
54.1733 1078.00
54.2385 1122.00
54.3037 1068.00
54.3689 1027.00
54.4341 1062.00
54.4993 1045.00
54.5645 1127.00
54.6297 1008.00
54.6949 1052.00
54.7601 1081.00
54.8253 1118.00
54.8905 1085.00
54.9557 1017.00
55.0209 1077.00
55.0861 1137.00
55.1513 1069.00
55.2165 1092.00
55.2817 1039.00
55.3469 1080.00
55.4121 1103.00
55.4773 1046.00
55.5425 1112.00
55.6077 1093.00
55.6729 1054.00
55.7381 1141.00
55.8033 1043.00
55.8685 1091.00
55.9337 1040.00
55.9989 1037.00
56.0641 1059.00
56.1293 1088.00
56.1945 1161.00
56.2597 1029.00
56.3249 1104.00
56.3901 1047.00
56.4553 1033.00
56.5205 1056.00
56.5857 1027.00
56.6509 1097.00
56.7161 1042.00
56.7813 1028.00
56.8465 1102.00
56.9117 1058.00
56.9769 1063.00
57.042 1052.00
57.1073 1035.00
57.1724 1065.00
57.2376 1052.00
57.3028 1003.00
57.368 1043.00
57.4332 1031.00
57.4984 1021.00
57.5636 1055.00
57.6288 1068.00
57.694 1084.00
57.7592 1061.00
57.8244 1057.00
57.8896 1026.00
57.9548 1079.00
58.02 1040.00
58.0852 1036.00
58.1504 1054.00
58.2156 1127.00
58.2808 1075.00
58.346 1035.00
58.4112 1078.00
58.4764 1058.00
58.5416 1102.00
58.6068 1044.00
58.672 992.00
58.7372 1093.00
58.8024 1065.00
58.8676 1052.00
58.9328 1055.00
58.998 1006.00
59.0632 1085.00
59.1284 1092.00
59.1936 1042.00
59.2588 1078.00
59.324 1016.00
59.3892 1127.00
59.4544 1089.00
59.5196 1067.00
59.5848 1019.00
59.65 1080.00
59.7152 1064.00
59.7804 1069.00
59.8456 1041.00
59.9108 1090.00
59.976 1037.00
60.0412 1108.00
60.1064 1105.00
60.1716 1075.00
60.2368 1096.00
60.302 1103.00
60.3672 1040.00
60.4324 1098.00
60.4976 1136.00
60.5628 1115.00
60.628 1308.00
60.6932 1442.00
60.7584 1526.00
60.8236 1591.00
60.8888 1692.00
60.954 1748.00
61.0192 1700.00
61.0844 1551.00
61.1496 1444.00
61.2148 1381.00
61.28 1211.00
61.3452 1171.00
61.4104 1166.00
61.4756 1115.00
61.5408 1071.00
61.606 1060.00
61.6712 1033.00
61.7364 1111.00
61.8016 1052.00
61.8667 1019.00
61.932 1121.00
61.9971 1036.00
62.0623 1062.00
62.1275 978.00
62.1927 1022.00
62.2579 1024.00
62.3231 1042.00
62.3883 1043.00
62.4535 1032.00
62.5187 1030.00
62.5839 1034.00
62.6491 1015.00
62.7143 1059.00
62.7795 1040.00
62.8447 1051.00
62.9099 1016.00
62.9751 1070.00
63.0403 1138.00
63.1055 1039.00
63.1707 1067.00
63.2359 1044.00
63.3011 1055.00
63.3663 1032.00
63.4315 1060.00
63.4967 1124.00
63.5619 1038.00
63.6271 1009.00
63.6923 1003.00
63.7575 1065.00
63.8227 1003.00
63.8879 964.00
63.9531 990.00
64.0183 1048.00
64.0835 1030.00
64.1487 1058.00
64.2139 1008.00
64.2791 983.00
64.3443 984.00
64.4095 1029.00
64.4747 1017.00
64.5399 1028.00
64.6051 1105.00
64.6703 1014.00
64.7355 1010.00
64.8007 1067.00
64.8659 1078.00
64.9311 1019.00
64.9963 982.00
65.0615 1052.00
65.1267 1111.00
65.1919 1069.00
65.2571 1040.00
65.3223 1064.00
65.3875 984.00
65.4527 1040.00
65.5179 1032.00
65.5831 1017.00
65.6483 998.00
65.7135 1007.00
65.7787 1053.00
65.8439 1001.00
65.9091 1015.00
65.9743 1013.00
66.0395 977.00
66.1047 951.00
66.1699 1013.00
66.2351 977.00
66.3003 998.00
66.3655 970.00
66.4307 997.00
66.4959 972.00
66.561 1010.00
66.6263 983.00
66.6915 1037.00
66.7566 977.00
66.8218 1081.00
66.887 962.00
66.9522 1016.00
67.0174 932.00
67.0826 1015.00
67.1478 1019.00
67.213 982.00
67.2782 1006.00
67.3434 991.00
67.4086 970.00
67.4738 985.00
67.539 965.00
67.6042 939.00
67.6694 972.00
67.7346 922.00
67.7998 898.00
67.865 919.00
67.9302 984.00
67.9954 945.00
68.0606 945.00
68.1258 945.00
68.191 953.00
68.2562 976.00
68.3214 953.00
68.3866 943.00
68.4518 950.00
68.517 935.00
68.5822 930.00
68.6474 941.00
68.7126 986.00
68.7778 974.00
68.843 893.00
68.9082 901.00
68.9734 933.00
69.0386 934.00
69.1038 889.00
69.169 943.00
69.2342 945.00
69.2994 905.00
69.3646 915.00
69.4298 922.00
69.495 917.00
69.5602 943.00
69.6254 900.00
69.6906 880.00
69.7558 868.00
69.821 893.00
69.8862 887.00
69.9514 932.00
70.0166 915.00
70.0818 904.00
70.147 892.00
70.2122 905.00
70.2774 896.00
70.3426 876.00
70.4078 909.00
70.473 874.00
70.5382 912.00
70.6034 922.00
70.6686 971.00
70.7338 842.00
70.799 890.00
70.8642 862.00
70.9294 909.00
70.9946 922.00
71.0598 919.00
71.125 896.00
71.1902 958.00
71.2554 962.00
71.3205 919.00
71.3858 962.00
71.451 956.00
71.5162 1031.00
71.5813 1037.00
71.6465 1072.00
71.7117 1053.00
71.7769 1049.00
71.8421 1011.00
71.9073 1046.00
71.9725 995.00
72.0377 953.00
72.1029 919.00
72.1681 945.00
72.2333 844.00
72.2985 828.00
72.3637 871.00
72.4289 857.00
72.4941 839.00
72.5593 873.00
72.6245 897.00
72.6897 823.00
72.7549 823.00
72.8201 863.00
72.8853 852.00
72.9505 787.00
73.0157 864.00
73.0809 870.00
73.1461 893.00
73.2113 851.00
73.2765 853.00
73.3417 860.00
73.4069 857.00
73.4721 886.00
73.5373 810.00
73.6025 795.00
73.6677 788.00
73.7329 805.00
73.7981 808.00
73.8633 831.00
73.9285 847.00
73.9937 827.00
74.0589 843.00
74.1241 857.00
74.1893 843.00
74.2545 766.00
74.3197 816.00
74.3849 740.00
74.4501 853.00
74.5153 799.00
74.5805 850.00
74.6457 857.00
74.7109 778.00
74.7761 807.00
74.8413 813.00
74.9065 791.00
74.9717 817.00
75.0369 805.00
75.1021 833.00
75.1673 833.00
75.2325 815.00
75.2977 806.00
75.3629 844.00
75.4281 805.00
75.4933 871.00
75.5585 861.00
75.6237 835.00
75.6889 833.00
75.7541 822.00
75.8193 842.00
75.8845 809.00
75.9497 843.00
76.0149 773.00
76.0801 762.00
76.1452 812.00
76.2104 802.00
76.2756 806.00
76.3409 824.00
76.406 786.00
76.4712 799.00
76.5364 771.00
76.6016 808.00
76.6668 846.00
76.732 790.00
76.7972 798.00
76.8624 780.00
76.9276 831.00
76.9928 821.00
77.058 802.00
77.1232 781.00
77.1884 791.00
77.2536 777.00
77.3188 805.00
77.384 809.00
77.4492 768.00
77.5144 808.00
77.5796 778.00
77.6448 819.00
77.71 753.00
77.7752 766.00
77.8404 779.00
77.9056 773.00
77.9708 784.00
78.036 740.00
78.1012 696.00
78.1664 736.00
78.2316 774.00
78.2968 840.00
78.362 754.00
78.4272 774.00
78.4924 764.00
78.5576 819.00
78.6228 792.00
78.688 796.00
78.7532 772.00
78.8184 754.00
78.8836 720.00
78.9488 717.00
79.014 738.00
79.0792 753.00
79.1444 786.00
79.2096 744.00
79.2748 731.00
79.34 745.00
79.4052 698.00
79.4704 752.00
79.5356 799.00
79.6008 741.00
79.666 755.00
79.7312 723.00
79.7964 792.00
79.8616 699.00
79.9268 718.00
79.992 729.00
80.0572 766.00
80.1224 750.00
80.1876 743.00
80.2528 735.00
80.318 738.00
80.3832 803.00
80.4484 725.00
80.5136 725.00
80.5788 738.00
80.644 774.00
80.7092 768.00
80.7744 705.00
80.8396 773.00
80.9048 762.00
80.9699 752.00
81.0351 758.00
81.1003 724.00
81.1655 763.00
81.2307 786.00
81.2959 818.00
81.3611 757.00
81.4263 815.00
81.4915 783.00
81.5567 795.00
81.6219 824.00
81.6871 824.00
81.7523 836.00
81.8175 861.00
81.8827 833.00
81.9479 778.00
82.0131 857.00
82.0783 841.00
82.1435 803.00
82.2087 810.00
82.2739 774.00
82.3391 790.00
82.4043 746.00
82.4695 689.00
82.5347 783.00
82.5999 714.00
82.6651 735.00
82.7303 708.00
82.7955 738.00
82.8607 691.00
82.9259 739.00
82.9911 713.00
83.0563 706.00
83.1215 732.00
83.1867 740.00
83.2519 750.00
83.3171 655.00
83.3823 673.00
83.4475 705.00
83.5127 711.00
83.5779 711.00
83.6431 732.00
83.7083 735.00
83.7735 724.00
83.8387 789.00
83.9039 728.00
83.9691 699.00
84.0343 716.00
84.0995 733.00
84.1647 728.00
84.2299 740.00
84.2951 747.00
84.3603 740.00
84.4255 729.00
84.4907 729.00
84.5559 722.00
84.6211 673.00
84.6863 712.00
84.7515 732.00
84.8167 750.00
84.8819 744.00
84.9471 698.00
85.0123 690.00
85.0775 732.00
85.1427 724.00
85.2079 738.00
85.2731 652.00
85.3383 752.00
85.4035 709.00
85.4687 711.00
85.5339 714.00
85.5991 706.00
85.6643 683.00
85.7295 676.00
85.7946 741.00
85.8598 672.00
85.925 719.00
85.9903 704.00
86.0554 716.00
86.1206 710.00
86.1858 709.00
86.251 766.00
86.3162 718.00
86.3814 711.00
86.4466 703.00
86.5118 661.00
86.577 700.00
86.6422 702.00
86.7074 720.00
86.7726 719.00
86.8378 730.00
86.903 703.00
86.9682 708.00
87.0334 701.00
87.0986 704.00
87.1638 705.00
87.229 688.00
87.2942 708.00
87.3594 737.00
87.4246 687.00
87.4898 706.00
87.555 704.00
87.6202 681.00
87.6854 698.00
87.7506 685.00
87.8158 728.00
87.881 694.00
87.9462 678.00
88.0114 661.00
88.0766 755.00
88.1418 671.00
88.207 700.00
88.2722 726.00
88.3374 660.00
88.4026 702.00
88.4678 658.00
88.533 717.00
88.5982 729.00
88.6634 666.00
88.7286 711.00
88.7938 703.00
88.859 702.00
88.9242 713.00
88.9894 692.00
89.0546 677.00
89.1198 695.00
89.185 644.00
89.2502 695.00
89.3154 691.00
89.3806 668.00
89.4458 697.00
89.511 661.00
89.5762 694.00
89.6414 725.00
89.7066 670.00
89.7718 660.00
89.837 654.00
89.9022 709.00
89.9674 728.00
90.0326 635.00
90.0978 716.00
90.163 690.00
90.2282 684.00
90.2934 637.00
90.3586 712.00
90.4238 674.00
90.489 706.00
90.5542 732.00
90.6193 683.00
90.6845 703.00
90.7497 707.00
90.8149 687.00
90.8801 688.00
90.9453 655.00
91.0105 707.00
91.0757 682.00
91.1409 735.00
91.2061 697.00
91.2713 688.00
91.3365 671.00
91.4017 765.00
91.4669 770.00
91.5321 763.00
91.5973 721.00
91.6625 743.00
91.7277 783.00
91.7929 743.00
91.8581 725.00
91.9233 779.00
91.9885 673.00
92.0537 685.00
92.1189 667.00
92.1841 722.00
92.2493 672.00
92.3145 686.00
92.3797 745.00
92.4449 675.00
92.5101 668.00
92.5753 617.00
92.6405 694.00
92.7057 726.00
92.7709 740.00
92.8361 735.00
92.9013 678.00
92.9665 680.00
93.0317 655.00
93.0969 695.00
93.1621 696.00
93.2273 747.00
93.2925 693.00
93.3577 672.00
93.4229 700.00
93.4881 662.00
93.5533 684.00
93.6185 710.00
93.6837 703.00
93.7489 700.00
93.8141 696.00
93.8793 733.00
93.9445 747.00
94.0097 660.00
94.0749 711.00
94.1401 733.00
94.2053 710.00
94.2705 677.00
94.3357 692.00
94.4009 697.00
94.4661 658.00
94.5313 734.00
94.5965 699.00
94.6617 694.00
94.7269 730.00
94.7921 689.00
94.8573 676.00
94.9225 707.00
94.9877 681.00
95.0529 731.00
95.1181 676.00
95.1833 739.00
95.2485 726.00
95.3137 669.00
95.3789 708.00
95.444 702.00
95.5092 724.00
95.5744 697.00
95.6396 724.00
95.7048 655.00
95.77 679.00
95.8352 727.00
95.9004 688.00
95.9656 707.00
96.0308 679.00
96.096 717.00
96.1612 704.00
96.2264 679.00
96.2916 699.00
96.3568 706.00
96.422 703.00
96.4872 679.00
96.5524 701.00
96.6176 685.00
96.6828 672.00
96.748 696.00
96.8132 737.00
96.8784 638.00
96.9436 708.00
97.0088 695.00
97.074 681.00
97.1392 657.00
97.2044 669.00
97.2696 695.00
97.3348 692.00
97.4 625.00
97.4652 692.00
97.5304 655.00
97.5956 698.00
97.6608 682.00
97.726 670.00
97.7912 624.00
97.8564 725.00
97.9216 710.00
97.9868 662.00
98.052 679.00
98.1172 668.00
98.1824 647.00
98.2476 699.00
98.3128 719.00
98.378 705.00
98.4432 717.00
98.5084 700.00
98.5736 675.00
98.6388 694.00
98.704 679.00
98.7692 669.00
98.8344 739.00
98.8996 708.00
98.9648 634.00
99.03 685.00
99.0952 647.00
99.1604 697.00
99.2256 678.00
99.2908 686.00
99.356 625.00
99.4212 702.00
99.4864 698.00
99.5516 667.00
99.6168 662.00
99.682 671.00
99.7472 680.00
99.8124 717.00
99.8776 727.00
99.9428 695.00
100.008 637.00
100.073 658.00
100.095 646.00