File: data/xrd_creation/results/NSC_42.xy
9.903433 3243.00
9.968632 3266.00
10.0338 3221.00
10.099 3234.00
10.1642 3230.00
10.2294 3242.00
10.2946 3289.00
10.3598 3182.00
10.425 3314.00
10.4902 3331.00
10.5554 3395.00
10.6206 3247.00
10.6858 3080.00
10.751 2902.00
10.8162 2805.00
10.8814 2884.00
10.9466 2922.00
11.0118 2858.00
11.077 2901.00
11.1422 2816.00
11.2074 2875.00
11.2726 2796.00
11.3378 2758.00
11.403 2728.00
11.4682 2809.00
11.5334 2713.00
11.5986 2626.00
11.6638 2658.00
11.729 2704.00
11.7942 2755.00
11.8594 2639.00
11.9246 2697.00
11.9898 2716.00
12.055 2562.00
12.1202 2566.00
12.1854 2646.00
12.2506 2581.00
12.3158 2471.00
12.381 2570.00
12.4462 2566.00
12.5114 2592.00
12.5766 2687.00
12.6418 2564.00
12.707 2557.00
12.7722 2529.00
12.8374 2441.00
12.9026 2455.00
12.9678 2454.00
13.033 2578.00
13.0982 2489.00
13.1634 2392.00
13.2286 2436.00
13.2938 2381.00
13.359 2343.00
13.4242 2478.00
13.4894 2363.00
13.5546 2368.00
13.6198 2456.00
13.685 2435.00
13.7502 2359.00
13.8154 2403.00
13.8805 2376.00
13.9457 2404.00
14.0109 2348.00
14.0761 2335.00
14.1413 2321.00
14.2065 2249.00
14.2717 2273.00
14.3369 2242.00
14.4021 2280.00
14.4673 2392.00
14.5325 2285.00
14.5977 2338.00
14.6629 2254.00
14.7281 2273.00
14.7933 2176.00
14.8585 2219.00
14.9237 2225.00
14.9889 2242.00
15.0541 2161.00
15.1193 2195.00
15.1845 2206.00
15.2497 2164.00
15.3149 2259.00
15.3801 2158.00
15.4453 2304.00
15.5105 2250.00
15.5757 2163.00
15.6409 2161.00
15.7061 2141.00
15.7713 2084.00
15.8365 2132.00
15.9017 2133.00
15.9669 2073.00
16.0321 2084.00
16.0973 2034.00
16.1625 2109.00
16.2277 2022.00
16.2929 2112.00
16.3581 2106.00
16.4233 2100.00
16.4885 2047.00
16.5537 2022.00
16.6189 1979.00
16.6841 2030.00
16.7493 2005.00
16.8145 1964.00
16.8797 2036.00
16.9449 1990.00
17.0101 1978.00
17.0753 2011.00
17.1405 1993.00
17.2057 1945.00
17.2709 1961.00
17.3361 2012.00
17.4013 1986.00
17.4665 1954.00
17.5317 2021.00
17.5969 2008.00
17.6621 1992.00
17.7273 2038.00
17.7925 1971.00
17.8577 2042.00
17.9229 2160.00
17.9881 2372.00
18.0533 2576.00
18.1185 2390.00
18.1837 2039.00
18.2489 1858.00
18.3141 1864.00
18.3793 1881.00
18.4445 1858.00
18.5097 1862.00
18.5749 1822.00
18.6401 1863.00
18.7052 1882.00
18.7704 1850.00
18.8356 1881.00
18.9008 1803.00
18.966 1809.00
19.0312 1836.00
19.0964 1886.00
19.1616 1784.00
19.2268 1832.00
19.292 1763.00
19.3572 1913.00
19.4224 1708.00
19.4876 1782.00
19.5528 1790.00
19.618 1816.00
19.6832 1786.00
19.7484 1780.00
19.8136 1820.00
19.8788 1806.00
19.944 1743.00
20.0092 1753.00
20.0744 1794.00
20.1396 1876.00
20.2048 2026.00
20.27 2016.00
20.3352 1957.00
20.4004 1958.00
20.4656 1972.00
20.5308 2024.00
20.596 2243.00
20.6612 2698.00
20.7264 3454.00
20.7916 4797.00
20.8568 6629.00
20.922 8613.00
20.9872 11173.00
21.0524 11090.00
21.1176 5424.00
21.1828 2722.00
21.248 2401.00
21.3132 2428.00
21.3784 2810.00
21.4436 3541.00
21.5088 4468.00
21.574 5324.00
21.6392 4740.00
21.7044 3598.00
21.7696 3286.00
21.8348 2600.00
21.9 2086.00
21.9652 1787.00
22.0304 1725.00
22.0956 1705.00
22.1608 1625.00
22.226 1623.00
22.2912 1644.00
22.3564 1552.00
22.4216 1608.00
22.4868 1590.00
22.552 1631.00
22.6172 1651.00
22.6824 1648.00
22.7476 1635.00
22.8128 1676.00
22.878 1694.00
22.9432 1643.00
23.0084 1675.00
23.0736 1758.00
23.1388 1905.00
23.204 2082.00
23.2692 2541.00
23.3344 3482.00
23.3996 4959.00
23.4647 5898.00
23.5299 4871.00
23.5951 2737.00
23.6603 2052.00
23.7255 1809.00
23.7907 1708.00
23.8559 1693.00
23.9211 1643.00
23.9863 1688.00
24.0515 1795.00
24.1167 1979.00
24.1819 2376.00
24.2471 2732.00
24.3123 2573.00
24.3775 1961.00
24.4427 1639.00
24.5079 1576.00
24.5731 1414.00
24.6383 1512.00
24.7035 1470.00
24.7687 1432.00
24.8339 1539.00
24.8991 1472.00
24.9643 1502.00
25.0295 1428.00
25.0947 1427.00
25.1599 1442.00
25.2251 1444.00
25.2903 1480.00
25.3555 1445.00
25.4207 1491.00
25.4859 1418.00
25.5511 1480.00
25.6163 1466.00
25.6815 1497.00
25.7467 1578.00
25.8119 1526.00
25.8771 1479.00
25.9423 1390.00
26.0075 1359.00
26.0727 1353.00
26.1379 1431.00
26.2031 1364.00
26.2683 1336.00
26.3335 1340.00
26.3987 1426.00
26.4639 1303.00
26.5291 1394.00
26.5943 1357.00
26.6595 1389.00
26.7247 1365.00
26.7899 1441.00
26.8551 1343.00
26.9203 1397.00
26.9855 1345.00
27.0507 1466.00
27.1159 1481.00
27.1811 1568.00
27.2463 1537.00
27.3115 1808.00
27.3767 2236.00
27.4419 3064.00
27.5071 4103.00
27.5723 4848.00
27.6375 4457.00
27.7027 2977.00
27.7679 1881.00
27.8331 1580.00
27.8983 1468.00
27.9635 1450.00
28.0287 1434.00
28.0939 1503.00
28.1591 1484.00
28.2243 1453.00
28.2894 1446.00
28.3546 1424.00
28.4198 1463.00
28.485 1478.00
28.5502 1423.00
28.6154 1376.00
28.6806 1357.00
28.7458 1346.00
28.811 1328.00
28.8762 1293.00
28.9414 1304.00
29.0066 1323.00
29.0718 1422.00
29.137 1450.00
29.2022 1376.00
29.2674 1427.00
29.3326 1523.00
29.3978 1527.00
29.463 1653.00
29.5282 1847.00
29.5934 2064.00
29.6586 2127.00
29.7238 2062.00
29.789 2126.00
29.8542 2582.00
29.9194 3383.00
29.9846 4659.00
30.0498 5450.00
30.115 4572.00
30.1802 2965.00
30.2454 2061.00
30.3106 1658.00
30.3758 1718.00
30.441 1642.00
30.5062 1598.00
30.5714 1748.00
30.6366 2266.00
30.7018 3535.00
30.767 6043.00
30.8322 9651.00
30.8974 9502.00
30.9626 5546.00
31.0278 2757.00
31.093 2214.00
31.1582 2040.00
31.2234 2399.00
31.2886 2779.00
31.3538 2880.00
31.419 2438.00
31.4842 1943.00
31.5494 1631.00
31.6146 1416.00
31.6798 1384.00
31.745 1419.00
31.8102 1408.00
31.8754 1387.00
31.9406 1385.00
32.0058 1374.00
32.071 1371.00
32.1362 1390.00
32.2014 1461.00
32.2666 1652.00
32.3318 1836.00
32.397 1698.00
32.4622 1635.00
32.5274 1313.00
32.5926 1298.00
32.6578 1270.00
32.723 1305.00
32.7882 1351.00
32.8534 1323.00
32.9186 1294.00
32.9838 1374.00
33.0489 1292.00
33.1141 1301.00
33.1793 1225.00
33.2445 1356.00
33.3097 1369.00
33.3749 1383.00
33.4401 1387.00
33.5053 1291.00
33.5705 1367.00
33.6357 1384.00
33.7009 1344.00
33.7661 1327.00
33.8313 1414.00
33.8965 1489.00
33.9617 1636.00
34.0269 1838.00
34.0921 2034.00
34.1573 2448.00
34.2225 3432.00
34.2877 5107.00
34.3529 8592.00
34.4181 14099.00
34.4833 15446.00
34.5485 8713.00
34.6137 3804.00
34.6789 2043.00
34.7441 1762.00
34.8093 1585.00
34.8745 1583.00
34.9397 1586.00
35.0049 1761.00
35.0701 2033.00
35.1353 2432.00
35.2005 2431.00
35.2657 2037.00
35.3309 1794.00
35.3961 1527.00
35.4613 1497.00
35.5265 1569.00
35.5917 2056.00
35.6569 2950.00
35.7221 3802.00
35.7873 3149.00
35.8525 2199.00
35.9177 1546.00
35.9829 1410.00
36.0481 1408.00
36.1133 1423.00
36.1785 1467.00
36.2437 1698.00
36.3089 1681.00
36.3741 1461.00
36.4393 1338.00
36.5045 1181.00
36.5697 1176.00
36.6349 1147.00
36.7001 1127.00
36.7653 1152.00
36.8305 1129.00
36.8957 1146.00
36.9609 1167.00
37.0261 1214.00
37.0913 1154.00
37.1565 1208.00
37.2217 1173.00
37.2869 1195.00
37.3521 1260.00
37.4173 1145.00
37.4825 1228.00
37.5477 1251.00
37.6129 1283.00
37.6781 1355.00
37.7433 1503.00
37.8085 1691.00
37.8736 1679.00
37.9388 1827.00
38.004 1737.00
38.0692 1471.00
38.1344 1299.00
38.1996 1238.00
38.2648 1197.00
38.33 1269.00
38.3952 1216.00
38.4604 1320.00
38.5256 1453.00
38.5908 1655.00
38.656 2197.00
38.7212 2789.00
38.7864 2878.00
38.8516 2396.00
38.9168 1848.00
38.982 1541.00
39.0472 1339.00
39.1124 1423.00
39.1776 1500.00
39.2428 1702.00
39.308 1933.00
39.3732 2191.00
39.4384 2049.00
39.5036 1621.00
39.5688 1413.00
39.634 1178.00
39.6992 1202.00
39.7644 1266.00
39.8296 1107.00
39.8948 1063.00
39.96 1124.00
40.0252 1132.00
40.0904 1137.00
40.1556 1050.00
40.2208 1057.00
40.286 1034.00
40.3512 1047.00
40.4164 1062.00
40.4816 1097.00
40.5468 1013.00
40.612 1030.00
40.6772 1000.00
40.7424 1025.00
40.8076 988.00
40.8728 1004.00
40.938 988.00
41.0032 1001.00
41.0684 930.00
41.1336 982.00
41.1988 966.00
41.264 1021.00
41.3292 1048.00
41.3944 950.00
41.4596 1060.00
41.5248 1041.00
41.59 1050.00
41.6552 1122.00
41.7204 1154.00
41.7856 1119.00
41.8508 1052.00
41.916 1151.00
41.9812 1222.00
42.0464 1410.00
42.1116 1517.00
42.1768 1405.00
42.242 1278.00
42.3072 1184.00
42.3724 1258.00
42.4376 1405.00
42.5028 1283.00
42.568 1179.00
42.6332 1082.00
42.6983 1000.00
42.7635 1014.00
42.8287 1117.00
42.8939 1195.00
42.9591 1246.00
43.0243 1235.00
43.0895 1123.00
43.1547 1022.00
43.2199 976.00
43.2851 1056.00
43.3503 1030.00
43.4155 1134.00
43.4807 1198.00
43.5459 1341.00
43.6111 1438.00
43.6763 1498.00
43.7415 1534.00
43.8067 1514.00
43.8719 1367.00
43.9371 1270.00
44.0023 1218.00
44.0675 1185.00
44.1327 1061.00
44.1979 1029.00
44.2631 945.00
44.3283 953.00
44.3935 947.00
44.4587 872.00
44.5239 911.00
44.5891 919.00
44.6543 945.00
44.7195 984.00
44.7847 915.00
44.8499 890.00
44.9151 931.00
44.9803 991.00
45.0455 946.00
45.1107 897.00
45.1759 936.00
45.2411 912.00
45.3063 873.00
45.3715 928.00
45.4367 953.00
45.5019 923.00
45.5671 956.00
45.6323 1038.00
45.6975 1082.00
45.7627 1211.00
45.8279 1376.00
45.8931 1614.00
45.9583 1829.00
46.0235 1644.00
46.0887 1372.00
46.1539 1198.00
46.2191 1045.00
46.2843 961.00
46.3495 926.00
46.4147 913.00
46.4799 937.00
46.5451 989.00
46.6103 946.00
46.6755 931.00
46.7407 903.00
46.8059 917.00
46.8711 900.00
46.9363 827.00
47.0015 853.00
47.0667 843.00
47.1319 892.00
47.1971 967.00
47.2623 1163.00
47.3275 1206.00
47.3927 1204.00
47.4579 1180.00
47.523 1125.00
47.5882 1016.00
47.6534 1002.00
47.7186 949.00
47.7838 905.00
47.849 890.00
47.9142 845.00
47.9794 852.00
48.0446 850.00
48.1098 774.00
48.175 794.00
48.2402 884.00
48.3054 905.00
48.3706 898.00
48.4358 916.00
48.501 955.00
48.5662 1003.00
48.6314 1011.00
48.6966 1000.00
48.7618 978.00
48.827 978.00
48.8922 983.00
48.9574 885.00
49.0226 1054.00
49.0878 1097.00
49.153 1242.00
49.2182 1554.00
49.2834 2164.00
49.3486 3016.00
49.4138 2839.00
49.479 2209.00
49.5442 1894.00
49.6094 1299.00
49.6746 1037.00
49.7398 920.00
49.805 945.00
49.8702 944.00
49.9354 901.00
50.0006 802.00
50.0658 827.00
50.131 740.00
50.1962 803.00
50.2614 769.00
50.3266 827.00
50.3918 866.00
50.457 824.00
50.5222 885.00
50.5874 798.00
50.6526 883.00
50.7178 835.00
50.783 784.00
50.8482 872.00
50.9134 857.00
50.9786 990.00
51.0438 1203.00
51.109 1624.00
51.1742 2274.00
51.2394 3623.00
51.3046 3462.00
51.3698 2448.00
51.435 2109.00
51.5002 1296.00
51.5654 1069.00
51.6306 871.00
51.6958 815.00
51.761 827.00
51.8262 808.00
51.8914 814.00
51.9566 784.00
52.0218 718.00
52.087 756.00
52.1522 722.00
52.2174 717.00
52.2826 818.00
52.3477 814.00
52.4129 874.00
52.4781 825.00
52.5433 790.00
52.6085 796.00
52.6737 803.00
52.7389 821.00
52.8041 824.00
52.8693 847.00
52.9345 919.00
52.9997 884.00
53.0649 886.00
53.1301 878.00
53.1953 838.00
53.2605 829.00
53.3257 799.00
53.3909 847.00
53.4561 819.00
53.5213 817.00
53.5865 844.00
53.6517 824.00
53.7169 819.00
53.7821 829.00
53.8473 790.00
53.9125 801.00
53.9777 893.00
54.0429 820.00
54.1081 861.00
54.1733 832.00
54.2385 817.00
54.3037 836.00
54.3689 806.00
54.4341 954.00
54.4993 954.00
54.5645 954.00
54.6297 881.00
54.6949 807.00
54.7601 678.00
54.8253 740.00
54.8905 670.00
54.9557 716.00
55.0209 759.00
55.0861 735.00
55.1513 767.00
55.2165 753.00
55.2817 735.00
55.3469 731.00
55.4121 762.00
55.4773 783.00
55.5425 727.00
55.6077 805.00
55.6729 746.00
55.7381 759.00
55.8033 767.00
55.8685 771.00
55.9337 716.00
55.9989 777.00
56.0641 796.00
56.1293 913.00
56.1945 1043.00
56.2597 994.00
56.3249 892.00
56.3901 924.00
56.4553 795.00
56.5205 784.00
56.5857 889.00
56.6509 842.00
56.7161 799.00
56.7813 730.00
56.8465 727.00
56.9117 768.00
56.9769 751.00
57.042 769.00
57.1073 808.00
57.1724 856.00
57.2376 977.00
57.3028 1059.00
57.368 1024.00
57.4332 938.00
57.4984 835.00
57.5636 787.00
57.6288 809.00
57.694 873.00
57.7592 845.00
57.8244 887.00
57.8896 834.00
57.9548 893.00
58.02 916.00
58.0852 839.00
58.1504 757.00
58.2156 805.00
58.2808 782.00
58.346 731.00
58.4112 722.00
58.4764 675.00
58.5416 708.00
58.6068 697.00
58.672 736.00
58.7372 736.00
58.8024 698.00
58.8676 700.00
58.9328 746.00
58.998 783.00
59.0632 783.00
59.1284 863.00
59.1936 952.00
59.2588 1070.00
59.324 1343.00
59.3892 1477.00
59.4544 1491.00
59.5196 1626.00
59.5848 1597.00
59.65 1377.00
59.7152 1331.00
59.7804 1190.00
59.8456 1122.00
59.9108 1008.00
59.976 942.00
60.0412 900.00
60.1064 787.00
60.1716 789.00
60.2368 784.00
60.302 785.00
60.3672 822.00
60.4324 780.00
60.4976 839.00
60.5628 805.00
60.628 955.00
60.6932 1100.00
60.7584 1460.00
60.8236 2061.00
60.8888 2639.00
60.954 2272.00
61.0192 2022.00
61.0844 1899.00
61.1496 1512.00
61.2148 1353.00
61.28 1595.00
61.3452 2121.00
61.4104 2918.00
61.4756 2697.00
61.5408 1832.00
61.606 1770.00
61.6712 1345.00
61.7364 957.00
61.8016 857.00
61.8667 791.00
61.932 743.00
61.9971 727.00
62.0623 746.00
62.1275 721.00
62.1927 735.00
62.2579 771.00
62.3231 914.00
62.3883 1001.00
62.4535 916.00
62.5187 848.00
62.5839 871.00
62.6491 739.00
62.7143 712.00
62.7795 726.00
62.8447 724.00
62.9099 704.00
62.9751 765.00
63.0403 661.00
63.1055 639.00
63.1707 663.00
63.2359 618.00
63.3011 681.00
63.3663 719.00
63.4315 766.00
63.4967 800.00
63.5619 858.00
63.6271 858.00
63.6923 800.00
63.7575 869.00
63.8227 934.00
63.8879 1096.00
63.9531 930.00
64.0183 861.00
64.0835 821.00
64.1487 798.00
64.2139 770.00
64.2791 780.00
64.3443 729.00
64.4095 732.00
64.4747 705.00
64.5399 662.00
64.6051 665.00
64.6703 639.00
64.7355 703.00
64.8007 671.00
64.8659 655.00
64.9311 678.00
64.9963 698.00
65.0615 688.00
65.1267 647.00
65.1919 720.00
65.2571 767.00
65.3223 885.00
65.3875 893.00
65.4527 898.00
65.5179 1066.00
65.5831 1073.00
65.6483 1096.00
65.7135 1034.00
65.7787 979.00
65.8439 898.00
65.9091 789.00
65.9743 767.00
66.0395 671.00
66.1047 651.00
66.1699 674.00
66.2351 628.00
66.3003 648.00
66.3655 660.00
66.4307 649.00
66.4959 652.00
66.561 673.00
66.6263 706.00
66.6915 694.00
66.7566 742.00
66.8218 785.00
66.887 770.00
66.9522 700.00
67.0174 722.00
67.0826 680.00
67.1478 655.00
67.213 730.00
67.2782 707.00
67.3434 722.00
67.4086 719.00
67.4738 758.00
67.539 772.00
67.6042 801.00
67.6694 840.00
67.7346 818.00
67.7998 896.00
67.865 936.00
67.9302 966.00
67.9954 1066.00
68.0606 1006.00
68.1258 1000.00
68.191 1022.00
68.2562 913.00
68.3214 785.00
68.3866 741.00
68.4518 773.00
68.517 662.00
68.5822 691.00
68.6474 742.00
68.7126 750.00
68.7778 702.00
68.843 699.00
68.9082 730.00
68.9734 626.00
69.0386 641.00
69.1038 644.00
69.169 591.00
69.2342 588.00
69.2994 598.00
69.3646 593.00
69.4298 584.00
69.495 604.00
69.5602 588.00
69.6254 623.00
69.6906 665.00
69.7558 623.00
69.821 604.00
69.8862 614.00
69.9514 564.00
70.0166 553.00
70.0818 525.00
70.147 538.00
70.2122 585.00
70.2774 552.00
70.3426 537.00
70.4078 566.00
70.473 560.00
70.5382 580.00
70.6034 566.00
70.6686 504.00
70.7338 507.00
70.799 498.00
70.8642 497.00
70.9294 520.00
70.9946 519.00
71.0598 493.00
71.125 561.00
71.1902 555.00
71.2554 543.00
71.3205 488.00
71.3858 538.00
71.451 552.00
71.5162 561.00
71.5813 662.00
71.6465 640.00
71.7117 609.00
71.7769 647.00
71.8421 699.00
71.9073 648.00
71.9725 723.00
72.0377 794.00
72.1029 955.00
72.1681 1119.00
72.2333 1177.00
72.2985 1006.00
72.3637 877.00
72.4289 810.00
72.4941 628.00
72.5593 565.00
72.6245 523.00
72.6897 531.00
72.7549 588.00
72.8201 496.00
72.8853 481.00
72.9505 521.00
73.0157 519.00
73.0809 513.00
73.1461 487.00
73.2113 467.00
73.2765 495.00
73.3417 503.00
73.4069 506.00
73.4721 504.00
73.5373 505.00
73.6025 501.00
73.6677 536.00
73.7329 552.00
73.7981 578.00
73.8633 633.00
73.9285 606.00
73.9937 583.00
74.0589 565.00
74.1241 547.00
74.1893 589.00
74.2545 585.00
74.3197 623.00
74.3849 626.00
74.4501 659.00
74.5153 664.00
74.5805 650.00
74.6457 609.00
74.7109 628.00
74.7761 646.00
74.8413 529.00
74.9065 518.00
74.9717 540.00
75.0369 530.00
75.1021 577.00
75.1673 647.00
75.2325 775.00
75.2977 696.00
75.3629 660.00
75.4281 660.00
75.4933 622.00
75.5585 556.00
75.6237 576.00
75.6889 490.00
75.7541 472.00
75.8193 548.00
75.8845 523.00
75.9497 580.00
76.0149 548.00
76.0801 641.00
76.1452 604.00
76.2104 637.00
76.2756 562.00
76.3409 622.00
76.406 598.00
76.4712 572.00
76.5364 630.00
76.6016 727.00
76.6668 671.00
76.732 647.00
76.7972 598.00
76.8624 621.00
76.9276 538.00
76.9928 537.00
77.058 509.00
77.1232 509.00
77.1884 546.00
77.2536 555.00
77.3188 573.00
77.384 600.00
77.4492 587.00
77.5144 578.00
77.5796 562.00
77.6448 562.00
77.71 531.00
77.7752 493.00
77.8404 564.00
77.9056 580.00
77.9708 623.00
78.036 566.00
78.1012 514.00
78.1664 531.00
78.2316 509.00
78.2968 512.00
78.362 532.00
78.4272 532.00
78.4924 461.00
78.5576 511.00
78.6228 438.00
78.688 501.00
78.7532 508.00
78.8184 503.00
78.8836 519.00
78.9488 511.00
79.014 530.00
79.0792 574.00
79.1444 569.00
79.2096 577.00
79.2748 574.00
79.34 573.00
79.4052 578.00
79.4704 502.00
79.5356 546.00
79.6008 558.00
79.666 495.00
79.7312 544.00
79.7964 591.00
79.8616 567.00
79.9268 554.00
79.992 620.00
80.0572 587.00
80.1224 600.00
80.1876 569.00
80.2528 605.00
80.318 586.00
80.3832 543.00
80.4484 577.00
80.5136 546.00
80.5788 537.00
80.644 559.00
80.7092 516.00
80.7744 542.00
80.8396 500.00
80.9048 520.00
80.9699 457.00
81.0351 474.00
81.1003 495.00
81.1655 498.00
81.2307 519.00
81.2959 537.00
81.3611 562.00
81.4263 603.00
81.4915 603.00
81.5567 643.00
81.6219 621.00
81.6871 611.00
81.7523 598.00
81.8175 594.00
81.8827 621.00
81.9479 717.00
82.0131 779.00
82.0783 675.00
82.1435 725.00
82.2087 684.00
82.2739 751.00
82.3391 918.00
82.4043 867.00
82.4695 710.00
82.5347 645.00
82.5999 688.00
82.6651 592.00
82.7303 559.00
82.7955 507.00
82.8607 494.00
82.9259 495.00
82.9911 492.00
83.0563 540.00
83.1215 536.00
83.1867 614.00
83.2519 668.00
83.3171 821.00
83.3823 791.00
83.4475 675.00
83.5127 590.00
83.5779 640.00
83.6431 597.00
83.7083 543.00
83.7735 485.00
83.8387 486.00
83.9039 499.00
83.9691 472.00
84.0343 508.00
84.0995 514.00
84.1647 490.00
84.2299 527.00
84.2951 512.00
84.3603 482.00
84.4255 471.00
84.4907 465.00
84.5559 503.00
84.6211 432.00
84.6863 471.00
84.7515 478.00
84.8167 431.00
84.8819 443.00
84.9471 483.00
85.0123 514.00
85.0775 474.00
85.1427 500.00
85.2079 484.00
85.2731 518.00
85.3383 506.00
85.4035 505.00
85.4687 535.00
85.5339 556.00
85.5991 525.00
85.6643 536.00
85.7295 614.00
85.7946 552.00
85.8598 574.00
85.925 581.00
85.9903 736.00
86.0554 654.00
86.1206 653.00
86.1858 613.00
86.251 592.00
86.3162 610.00
86.3814 560.00
86.4466 541.00
86.5118 489.00
86.577 516.00
86.6422 456.00
86.7074 493.00
86.7726 444.00
86.8378 446.00
86.903 490.00
86.9682 428.00
87.0334 418.00
87.0986 464.00
87.1638 483.00
87.229 440.00
87.2942 460.00
87.3594 470.00
87.4246 452.00
87.4898 470.00
87.555 442.00
87.6202 420.00
87.6854 425.00
87.7506 453.00
87.8158 416.00
87.881 435.00
87.9462 431.00
88.0114 380.00
88.0766 473.00
88.1418 431.00
88.207 387.00
88.2722 431.00
88.3374 438.00
88.4026 477.00
88.4678 456.00
88.533 456.00
88.5982 476.00
88.6634 479.00
88.7286 473.00
88.7938 475.00
88.859 421.00
88.9242 469.00
88.9894 456.00
89.0546 425.00
89.1198 423.00
89.185 408.00
89.2502 454.00
89.3154 460.00
89.3806 431.00
89.4458 444.00
89.511 417.00
89.5762 476.00
89.6414 457.00
89.7066 440.00
89.7718 449.00
89.837 481.00
89.9022 496.00
89.9674 519.00
90.0326 537.00
90.0978 492.00
90.163 471.00
90.2282 502.00
90.2934 493.00
90.3586 436.00
90.4238 421.00
90.489 425.00
90.5542 443.00
90.6193 412.00
90.6845 426.00
90.7497 387.00
90.8149 437.00
90.8801 461.00
90.9453 495.00
91.0105 434.00
91.0757 458.00
91.1409 449.00
91.2061 448.00
91.2713 446.00
91.3365 469.00
91.4017 409.00
91.4669 440.00
91.5321 412.00
91.5973 426.00
91.6625 454.00
91.7277 438.00
91.7929 412.00
91.8581 440.00
91.9233 444.00
91.9885 460.00
92.0537 467.00
92.1189 463.00
92.1841 521.00
92.2493 514.00
92.3145 495.00
92.3797 471.00
92.4449 506.00
92.5101 554.00
92.5753 610.00
92.6405 562.00
92.7057 603.00
92.7709 465.00
92.8361 493.00
92.9013 455.00
92.9665 473.00
93.0317 468.00
93.0969 455.00
93.1621 408.00
93.2273 447.00
93.2925 412.00
93.3577 402.00
93.4229 426.00
93.4881 441.00
93.5533 430.00
93.6185 432.00
93.6837 383.00
93.7489 441.00
93.8141 434.00
93.8793 390.00
93.9445 416.00
94.0097 459.00
94.0749 391.00
94.1401 402.00
94.2053 411.00
94.2705 395.00
94.3357 389.00
94.4009 379.00
94.4661 422.00
94.5313 427.00
94.5965 458.00
94.6617 416.00
94.7269 423.00
94.7921 429.00
94.8573 442.00
94.9225 400.00
94.9877 468.00
95.0529 402.00
95.1181 465.00
95.1833 463.00
95.2485 501.00
95.3137 519.00
95.3789 481.00
95.444 444.00
95.5092 477.00
95.5744 469.00
95.6396 466.00
95.7048 452.00
95.77 436.00
95.8352 399.00
95.9004 482.00
95.9656 446.00
96.0308 461.00
96.096 461.00
96.1612 458.00
96.2264 446.00
96.2916 464.00
96.3568 457.00
96.422 476.00
96.4872 495.00
96.5524 573.00
96.6176 609.00
96.6828 577.00
96.748 525.00
96.8132 536.00
96.8784 552.00
96.9436 553.00
97.0088 510.00
97.074 458.00
97.1392 426.00
97.2044 469.00
97.2696 431.00
97.3348 422.00
97.4 445.00
97.4652 423.00
97.5304 464.00
97.5956 481.00
97.6608 462.00
97.726 428.00
97.7912 462.00
97.8564 508.00
97.9216 567.00
97.9868 568.00
98.052 545.00
98.1172 522.00
98.1824 529.00
98.2476 528.00
98.3128 466.00
98.378 435.00
98.4432 483.00
98.5084 448.00
98.5736 429.00
98.6388 434.00
98.704 418.00
98.7692 415.00
98.8344 422.00
98.8996 468.00
98.9648 420.00
99.03 449.00
99.0952 488.00
99.1604 488.00
99.2256 514.00
99.2908 519.00
99.356 532.00
99.4212 508.00
99.4864 486.00
99.5516 446.00
99.6168 475.00
99.682 475.00
99.7472 453.00
99.8124 413.00
99.8776 442.00
99.9428 441.00
100.008 433.00
100.073 403.00
100.095 431.00