File: data/xrd_creation/results/NSC_214.xy
9.903433 2688.00
9.968632 2688.00
10.0338 2600.00
10.099 2641.00
10.1642 2510.00
10.2294 2587.00
10.2946 2595.00
10.3598 2470.00
10.425 2445.00
10.4902 2556.00
10.5554 2417.00
10.6206 2489.00
10.6858 2357.00
10.751 2329.00
10.8162 2362.00
10.8814 2334.00
10.9466 2362.00
11.0118 2417.00
11.077 2243.00
11.1422 2295.00
11.2074 2319.00
11.2726 2235.00
11.3378 2247.00
11.403 2243.00
11.4682 2169.00
11.5334 2113.00
11.5986 2186.00
11.6638 2212.00
11.729 2026.00
11.7942 2102.00
11.8594 2049.00
11.9246 2055.00
11.9898 2068.00
12.055 1998.00
12.1202 1975.00
12.1854 1983.00
12.2506 1954.00
12.3158 2007.00
12.381 1976.00
12.4462 2013.00
12.5114 1988.00
12.5766 1985.00
12.6418 1913.00
12.707 1960.00
12.7722 1916.00
12.8374 1892.00
12.9026 1839.00
12.9678 1800.00
13.033 1747.00
13.0982 1749.00
13.1634 1773.00
13.2286 1854.00
13.2938 1819.00
13.359 1761.00
13.4242 1801.00
13.4894 1822.00
13.5546 1626.00
13.6198 1768.00
13.685 1763.00
13.7502 1711.00
13.8154 1721.00
13.8805 1680.00
13.9457 1692.00
14.0109 1680.00
14.0761 1686.00
14.1413 1766.00
14.2065 1756.00
14.2717 1670.00
14.3369 1616.00
14.4021 1708.00
14.4673 1593.00
14.5325 1651.00
14.5977 1681.00
14.6629 1557.00
14.7281 1592.00
14.7933 1509.00
14.8585 1575.00
14.9237 1547.00
14.9889 1558.00
15.0541 1526.00
15.1193 1554.00
15.1845 1527.00
15.2497 1582.00
15.3149 1585.00
15.3801 1524.00
15.4453 1554.00
15.5105 1515.00
15.5757 1476.00
15.6409 1530.00
15.7061 1533.00
15.7713 1549.00
15.8365 1536.00
15.9017 1451.00
15.9669 1492.00
16.0321 1449.00
16.0973 1483.00
16.1625 1426.00
16.2277 1423.00
16.2929 1498.00
16.3581 1405.00
16.4233 1531.00
16.4885 1543.00
16.5537 1469.00
16.6189 1456.00
16.6841 1445.00
16.7493 1436.00
16.8145 1519.00
16.8797 1373.00
16.9449 1479.00
17.0101 1437.00
17.0753 1518.00
17.1405 1373.00
17.2057 1495.00
17.2709 1522.00
17.3361 1556.00
17.4013 1625.00
17.4665 1644.00
17.5317 1665.00
17.5969 1547.00
17.6621 1484.00
17.7273 1377.00
17.7925 1448.00
17.8577 1423.00
17.9229 1362.00
17.9881 1321.00
18.0533 1329.00
18.1185 1352.00
18.1837 1321.00
18.2489 1283.00
18.3141 1315.00
18.3793 1325.00
18.4445 1386.00
18.5097 1306.00
18.5749 1302.00
18.6401 1373.00
18.7052 1390.00
18.7704 1371.00
18.8356 1401.00
18.9008 1345.00
18.966 1348.00
19.0312 1304.00
19.0964 1367.00
19.1616 1377.00
19.2268 1259.00
19.292 1327.00
19.3572 1346.00
19.4224 1237.00
19.4876 1305.00
19.5528 1252.00
19.618 1316.00
19.6832 1282.00
19.7484 1376.00
19.8136 1376.00
19.8788 1475.00
19.944 1650.00
20.0092 1732.00
20.0744 1695.00
20.1396 1545.00
20.2048 1556.00
20.27 1373.00
20.3352 1354.00
20.4004 1357.00
20.4656 1341.00
20.5308 1299.00
20.596 1294.00
20.6612 1333.00
20.7264 1378.00
20.7916 1302.00
20.8568 1275.00
20.922 1317.00
20.9872 1223.00
21.0524 1306.00
21.1176 1266.00
21.1828 1246.00
21.248 1192.00
21.3132 1201.00
21.3784 1178.00
21.4436 1235.00
21.5088 1188.00
21.574 1146.00
21.6392 1172.00
21.7044 1211.00
21.7696 1222.00
21.8348 1272.00
21.9 1224.00
21.9652 1158.00
22.0304 1186.00
22.0956 1181.00
22.1608 1185.00
22.226 1122.00
22.2912 1174.00
22.3564 1151.00
22.4216 1167.00
22.4868 1176.00
22.552 1197.00
22.6172 1086.00
22.6824 1104.00
22.7476 1145.00
22.8128 1236.00
22.878 1155.00
22.9432 1158.00
23.0084 1122.00
23.0736 1107.00
23.1388 1141.00
23.204 1148.00
23.2692 1090.00
23.3344 1109.00
23.3996 1072.00
23.4647 1101.00
23.5299 1095.00
23.5951 1160.00
23.6603 1154.00
23.7255 1119.00
23.7907 1195.00
23.8559 1295.00
23.9211 1434.00
23.9863 1552.00
24.0515 1710.00
24.1167 1963.00
24.1819 1749.00
24.2471 1576.00
24.3123 1536.00
24.3775 1463.00
24.4427 1663.00
24.5079 1783.00
24.5731 1638.00
24.6383 1508.00
24.7035 1334.00
24.7687 1156.00
24.8339 1222.00
24.8991 1126.00
24.9643 1153.00
25.0295 1220.00
25.0947 1434.00
25.1599 1809.00
25.2251 2132.00
25.2903 2116.00
25.3555 1725.00
25.4207 1463.00
25.4859 1217.00
25.5511 1073.00
25.6163 1040.00
25.6815 980.00
25.7467 1045.00
25.8119 1070.00
25.8771 1054.00
25.9423 1056.00
26.0075 965.00
26.0727 1088.00
26.1379 1034.00
26.2031 1035.00
26.2683 1051.00
26.3335 1127.00
26.3987 1137.00
26.4639 1047.00
26.5291 1075.00
26.5943 949.00
26.6595 951.00
26.7247 992.00
26.7899 954.00
26.8551 945.00
26.9203 922.00
26.9855 1011.00
27.0507 968.00
27.1159 984.00
27.1811 953.00
27.2463 978.00
27.3115 984.00
27.3767 1022.00
27.4419 1041.00
27.5071 1050.00
27.5723 1095.00
27.6375 1080.00
27.7027 1083.00
27.7679 1137.00
27.8331 1275.00
27.8983 1422.00
27.9635 1707.00
28.0287 2244.00
28.0939 3081.00
28.1591 4086.00
28.2243 4788.00
28.2894 4961.00
28.3546 4542.00
28.4198 3499.00
28.485 2463.00
28.5502 1874.00
28.6154 1496.00
28.6806 1216.00
28.7458 1127.00
28.811 1051.00
28.8762 1004.00
28.9414 1015.00
29.0066 1022.00
29.0718 966.00
29.137 953.00
29.2022 943.00
29.2674 924.00
29.3326 933.00
29.3978 926.00
29.463 953.00
29.5282 851.00
29.5934 883.00
29.6586 899.00
29.7238 947.00
29.789 951.00
29.8542 950.00
29.9194 887.00
29.9846 975.00
30.0498 1012.00
30.115 1035.00
30.1802 969.00
30.2454 923.00
30.3106 913.00
30.3758 960.00
30.441 976.00
30.5062 907.00
30.5714 906.00
30.6366 914.00
30.7018 930.00
30.767 939.00
30.8322 948.00
30.8974 1017.00
30.9626 1006.00
31.0278 1081.00
31.093 1135.00
31.1582 1237.00
31.2234 1483.00
31.2886 1867.00
31.3538 2255.00
31.419 2721.00
31.4842 3202.00
31.5494 3621.00
31.6146 3827.00
31.6798 3387.00
31.745 2603.00
31.8102 1921.00
31.8754 1471.00
31.9406 1185.00
32.0058 1067.00
32.071 1041.00
32.1362 939.00
32.2014 889.00
32.2666 927.00
32.3318 850.00
32.397 927.00
32.4622 864.00
32.5274 923.00
32.5926 1012.00
32.6578 975.00
32.723 986.00
32.7882 966.00
32.8534 928.00
32.9186 932.00
32.9838 1022.00
33.0489 1023.00
33.1141 1098.00
33.1793 1124.00
33.2445 1074.00
33.3097 947.00
33.3749 853.00
33.4401 824.00
33.5053 864.00
33.5705 823.00
33.6357 850.00
33.7009 863.00
33.7661 884.00
33.8313 969.00
33.8965 971.00
33.9617 1111.00
34.0269 1232.00
34.0921 1453.00
34.1573 1639.00
34.2225 1802.00
34.2877 1972.00
34.3529 1980.00
34.4181 1756.00
34.4833 1796.00
34.5485 1745.00
34.6137 1599.00
34.6789 1339.00
34.7441 1143.00
34.8093 949.00
34.8745 863.00
34.9397 833.00
35.0049 887.00
35.0701 902.00
35.1353 962.00
35.2005 1086.00
35.2657 1114.00
35.3309 1289.00
35.3961 1534.00
35.4613 1617.00
35.5265 1372.00
35.5917 1281.00
35.6569 1062.00
35.7221 880.00
35.7873 820.00
35.8525 853.00
35.9177 857.00
35.9829 880.00
36.0481 853.00
36.1133 885.00
36.1785 816.00
36.2437 702.00
36.3089 711.00
36.3741 663.00
36.4393 700.00
36.5045 699.00
36.5697 710.00
36.6349 695.00
36.7001 663.00
36.7653 697.00
36.8305 690.00
36.8957 714.00
36.9609 689.00
37.0261 667.00
37.0913 700.00
37.1565 667.00
37.2217 678.00
37.2869 665.00
37.3521 587.00
37.4173 649.00
37.4825 628.00
37.5477 636.00
37.6129 697.00
37.6781 744.00
37.7433 828.00
37.8085 821.00
37.8736 784.00
37.9388 832.00
38.004 743.00
38.0692 748.00
38.1344 733.00
38.1996 688.00
38.2648 646.00
38.33 675.00
38.3952 720.00
38.4604 863.00
38.5256 874.00
38.5908 820.00
38.656 879.00
38.7212 919.00
38.7864 930.00
38.8516 850.00
38.9168 740.00
38.982 696.00
39.0472 632.00
39.1124 581.00
39.1776 680.00
39.2428 612.00
39.308 555.00
39.3732 548.00
39.4384 600.00
39.5036 619.00
39.5688 574.00
39.634 572.00
39.6992 561.00
39.7644 603.00
39.8296 641.00
39.8948 693.00
39.96 628.00
40.0252 631.00
40.0904 626.00
40.1556 624.00
40.2208 571.00
40.286 609.00
40.3512 631.00
40.4164 559.00
40.4816 587.00
40.5468 690.00
40.612 763.00
40.6772 779.00
40.7424 776.00
40.8076 872.00
40.8728 927.00
40.938 1019.00
41.0032 937.00
41.0684 969.00
41.1336 860.00
41.1988 870.00
41.264 841.00
41.3292 768.00
41.3944 794.00
41.4596 809.00
41.5248 757.00
41.59 749.00
41.6552 706.00
41.7204 664.00
41.7856 587.00
41.8508 568.00
41.916 532.00
41.9812 562.00
42.0464 578.00
42.1116 503.00
42.1768 519.00
42.242 552.00
42.3072 539.00
42.3724 515.00
42.4376 546.00
42.5028 523.00
42.568 579.00
42.6332 494.00
42.6983 548.00
42.7635 573.00
42.8287 536.00
42.8939 564.00
42.9591 557.00
43.0243 549.00
43.0895 563.00
43.1547 546.00
43.2199 559.00
43.2851 545.00
43.3503 522.00
43.4155 491.00
43.4807 537.00
43.5459 545.00
43.6111 608.00
43.6763 503.00
43.7415 536.00
43.8067 491.00
43.8719 549.00
43.9371 518.00
44.0023 550.00
44.0675 555.00
44.1327 508.00
44.1979 506.00
44.2631 511.00
44.3283 484.00
44.3935 545.00
44.4587 484.00
44.5239 571.00
44.5891 564.00
44.6543 596.00
44.7195 589.00
44.7847 641.00
44.8499 613.00
44.9151 631.00
44.9803 646.00
45.0455 645.00
45.1107 606.00
45.1759 640.00
45.2411 584.00
45.3063 607.00
45.3715 588.00
45.4367 542.00
45.5019 596.00
45.5671 608.00
45.6323 631.00
45.6975 685.00
45.7627 732.00
45.8279 672.00
45.8931 609.00
45.9583 578.00
46.0235 505.00
46.0887 509.00
46.1539 538.00
46.2191 511.00
46.2843 451.00
46.3495 509.00
46.4147 558.00
46.4799 518.00
46.5451 499.00
46.6103 509.00
46.6755 506.00
46.7407 472.00
46.8059 470.00
46.8711 511.00
46.9363 533.00
47.0015 526.00
47.0667 504.00
47.1319 543.00
47.1971 549.00
47.2623 530.00
47.3275 537.00
47.3927 499.00
47.4579 470.00
47.523 500.00
47.5882 502.00
47.6534 481.00
47.7186 452.00
47.7838 505.00
47.849 529.00
47.9142 645.00
47.9794 678.00
48.0446 676.00
48.1098 662.00
48.175 624.00
48.2402 567.00
48.3054 548.00
48.3706 536.00
48.4358 455.00
48.501 472.00
48.5662 488.00
48.6314 528.00
48.6966 462.00
48.7618 488.00
48.827 515.00
48.8922 525.00
48.9574 576.00
49.0226 537.00
49.0878 585.00
49.153 714.00
49.2182 745.00
49.2834 794.00
49.3486 769.00
49.4138 833.00
49.479 956.00
49.5442 959.00
49.6094 910.00
49.6746 815.00
49.7398 727.00
49.805 621.00
49.8702 555.00
49.9354 637.00
50.0006 690.00
50.0658 736.00
50.131 813.00
50.1962 787.00
50.2614 879.00
50.3266 1033.00
50.3918 1164.00
50.457 1120.00
50.5222 1021.00
50.5874 918.00
50.6526 900.00
50.7178 798.00
50.783 890.00
50.8482 839.00
50.9134 772.00
50.9786 671.00
51.0438 627.00
51.109 572.00
51.1742 553.00
51.2394 569.00
51.3046 561.00
51.3698 520.00
51.435 614.00
51.5002 581.00
51.5654 571.00
51.6306 570.00
51.6958 518.00
51.761 467.00
51.8262 464.00
51.8914 462.00
51.9566 456.00
52.0218 445.00
52.087 494.00
52.1522 478.00
52.2174 478.00
52.2826 495.00
52.3477 501.00
52.4129 526.00
52.4781 530.00
52.5433 534.00
52.6085 584.00
52.6737 565.00
52.7389 515.00
52.8041 483.00
52.8693 465.00
52.9345 449.00
52.9997 509.00
53.0649 437.00
53.1301 457.00
53.1953 467.00
53.2605 471.00
53.3257 420.00
53.3909 433.00
53.4561 427.00
53.5213 452.00
53.5865 443.00
53.6517 464.00
53.7169 523.00
53.7821 597.00
53.8473 600.00
53.9125 589.00
53.9777 645.00
54.0429 622.00
54.1081 641.00
54.1733 608.00
54.2385 655.00
54.3037 646.00
54.3689 772.00
54.4341 735.00
54.4993 728.00
54.5645 668.00
54.6297 601.00
54.6949 525.00
54.7601 548.00
54.8253 484.00
54.8905 533.00
54.9557 545.00
55.0209 591.00
55.0861 561.00
55.1513 664.00
55.2165 628.00
55.2817 588.00
55.3469 630.00
55.4121 598.00
55.4773 731.00
55.5425 775.00
55.6077 815.00
55.6729 858.00
55.7381 869.00
55.8033 828.00
55.8685 815.00
55.9337 732.00
55.9989 702.00
56.0641 651.00
56.1293 626.00
56.1945 637.00
56.2597 673.00
56.3249 607.00
56.3901 547.00
56.4553 547.00
56.5205 459.00
56.5857 457.00
56.6509 407.00
56.7161 442.00
56.7813 431.00
56.8465 405.00
56.9117 446.00
56.9769 448.00
57.042 443.00
57.1073 468.00
57.1724 501.00
57.2376 500.00
57.3028 511.00
57.368 561.00
57.4332 579.00
57.4984 608.00
57.5636 578.00
57.6288 544.00
57.694 546.00
57.7592 508.00
57.8244 438.00
57.8896 473.00
57.9548 476.00
58.02 525.00
58.0852 543.00
58.1504 555.00
58.2156 586.00
58.2808 574.00
58.346 575.00
58.4112 531.00
58.4764 562.00
58.5416 474.00
58.6068 522.00
58.672 517.00
58.7372 514.00
58.8024 516.00
58.8676 471.00
58.9328 442.00
58.998 473.00
59.0632 428.00
59.1284 446.00
59.1936 417.00
59.2588 380.00
59.324 410.00
59.3892 395.00
59.4544 456.00
59.5196 419.00
59.5848 442.00
59.65 473.00
59.7152 481.00
59.7804 476.00
59.8456 516.00
59.9108 510.00
59.976 554.00
60.0412 575.00
60.1064 616.00
60.1716 653.00
60.2368 654.00
60.302 630.00
60.3672 630.00
60.4324 617.00
60.4976 589.00
60.5628 531.00
60.628 451.00
60.6932 499.00
60.7584 416.00
60.8236 439.00
60.8888 436.00
60.954 434.00
61.0192 422.00
61.0844 382.00
61.1496 424.00
61.2148 423.00
61.28 407.00
61.3452 423.00
61.4104 476.00
61.4756 464.00
61.5408 531.00
61.606 492.00
61.6712 525.00
61.7364 574.00
61.8016 547.00
61.8667 540.00
61.932 542.00
61.9971 533.00
62.0623 528.00
62.1275 539.00
62.1927 530.00
62.2579 601.00
62.3231 616.00
62.3883 623.00
62.4535 554.00
62.5187 548.00
62.5839 574.00
62.6491 585.00
62.7143 610.00
62.7795 581.00
62.8447 532.00
62.9099 561.00
62.9751 546.00
63.0403 488.00
63.1055 518.00
63.1707 577.00
63.2359 563.00
63.3011 540.00
63.3663 526.00
63.4315 471.00
63.4967 460.00
63.5619 415.00
63.6271 400.00
63.6923 403.00
63.7575 377.00
63.8227 398.00
63.8879 400.00
63.9531 366.00
64.0183 409.00
64.0835 373.00
64.1487 408.00
64.2139 386.00
64.2791 379.00
64.3443 414.00
64.4095 395.00
64.4747 414.00
64.5399 421.00
64.6051 433.00
64.6703 405.00
64.7355 409.00
64.8007 409.00
64.8659 424.00
64.9311 394.00
64.9963 390.00
65.0615 391.00
65.1267 326.00
65.1919 371.00
65.2571 416.00
65.3223 401.00
65.3875 460.00
65.4527 454.00
65.5179 448.00
65.5831 457.00
65.6483 457.00
65.7135 487.00
65.7787 511.00
65.8439 522.00
65.9091 481.00
65.9743 488.00
66.0395 502.00
66.1047 581.00
66.1699 536.00
66.2351 526.00
66.3003 500.00
66.3655 434.00
66.4307 444.00
66.4959 382.00
66.561 424.00
66.6263 364.00
66.6915 380.00
66.7566 343.00
66.8218 353.00
66.887 320.00
66.9522 324.00
67.0174 363.00
67.0826 335.00
67.1478 341.00
67.213 337.00
67.2782 343.00
67.3434 349.00
67.4086 344.00
67.4738 342.00
67.539 355.00
67.6042 356.00
67.6694 339.00
67.7346 329.00
67.7998 329.00
67.865 332.00
67.9302 334.00
67.9954 325.00
68.0606 348.00
68.1258 313.00
68.191 346.00
68.2562 317.00
68.3214 316.00
68.3866 311.00
68.4518 331.00
68.517 314.00
68.5822 325.00
68.6474 383.00
68.7126 362.00
68.7778 362.00
68.843 363.00
68.9082 372.00
68.9734 357.00
69.0386 372.00
69.1038 355.00
69.169 350.00
69.2342 316.00
69.2994 380.00
69.3646 389.00
69.4298 374.00
69.495 378.00
69.5602 384.00
69.6254 387.00
69.6906 348.00
69.7558 337.00
69.821 350.00
69.8862 370.00
69.9514 342.00
70.0166 350.00
70.0818 356.00
70.147 397.00
70.2122 382.00
70.2774 402.00
70.3426 377.00
70.4078 387.00
70.473 383.00
70.5382 368.00
70.6034 321.00
70.6686 353.00
70.7338 322.00
70.799 367.00
70.8642 348.00
70.9294 324.00
70.9946 341.00
71.0598 361.00
71.125 363.00
71.1902 385.00
71.2554 361.00
71.3205 398.00
71.3858 372.00
71.451 416.00
71.5162 441.00
71.5813 453.00
71.6465 497.00
71.7117 417.00
71.7769 435.00
71.8421 434.00
71.9073 404.00
71.9725 368.00
72.0377 392.00
72.1029 351.00
72.1681 343.00
72.2333 323.00
72.2985 362.00
72.3637 346.00
72.4289 400.00
72.4941 412.00
72.5593 394.00
72.6245 370.00
72.6897 346.00
72.7549 375.00
72.8201 381.00
72.8853 380.00
72.9505 373.00
73.0157 379.00
73.0809 366.00
73.1461 365.00
73.2113 372.00
73.2765 377.00
73.3417 347.00
73.4069 354.00
73.4721 333.00
73.5373 334.00
73.6025 344.00
73.6677 310.00
73.7329 345.00
73.7981 315.00
73.8633 317.00
73.9285 327.00
73.9937 323.00
74.0589 314.00
74.1241 332.00
74.1893 339.00
74.2545 314.00
74.3197 331.00
74.3849 311.00
74.4501 361.00
74.5153 302.00
74.5805 355.00
74.6457 355.00
74.7109 378.00
74.7761 368.00
74.8413 347.00
74.9065 425.00
74.9717 435.00
75.0369 441.00
75.1021 406.00
75.1673 408.00
75.2325 443.00
75.2977 401.00
75.3629 396.00
75.4281 387.00
75.4933 426.00
75.5585 429.00
75.6237 411.00
75.6889 411.00
75.7541 386.00
75.8193 391.00
75.8845 386.00
75.9497 385.00
76.0149 387.00
76.0801 340.00
76.1452 350.00
76.2104 330.00
76.2756 364.00
76.3409 358.00
76.406 362.00
76.4712 309.00
76.5364 330.00
76.6016 336.00
76.6668 335.00
76.732 341.00
76.7972 369.00
76.8624 357.00
76.9276 375.00
76.9928 375.00
77.058 356.00
77.1232 378.00
77.1884 376.00
77.2536 360.00
77.3188 398.00
77.384 349.00
77.4492 379.00
77.5144 385.00
77.5796 373.00
77.6448 376.00
77.71 381.00
77.7752 367.00
77.8404 356.00
77.9056 330.00
77.9708 353.00
78.036 389.00
78.1012 361.00
78.1664 363.00
78.2316 332.00
78.2968 326.00
78.362 326.00
78.4272 349.00
78.4924 371.00
78.5576 395.00
78.6228 342.00
78.688 367.00
78.7532 373.00
78.8184 381.00
78.8836 366.00
78.9488 362.00
79.014 361.00
79.0792 387.00
79.1444 369.00
79.2096 357.00
79.2748 381.00
79.34 391.00
79.4052 387.00
79.4704 386.00
79.5356 367.00
79.6008 365.00
79.666 363.00
79.7312 319.00
79.7964 397.00
79.8616 382.00
79.9268 362.00
79.992 345.00
80.0572 325.00
80.1224 327.00
80.1876 327.00
80.2528 360.00
80.318 361.00
80.3832 368.00
80.4484 351.00
80.5136 314.00
80.5788 316.00
80.644 333.00
80.7092 327.00
80.7744 330.00
80.8396 349.00
80.9048 340.00
80.9699 357.00
81.0351 334.00
81.1003 334.00
81.1655 355.00
81.2307 344.00
81.2959 342.00
81.3611 359.00
81.4263 366.00
81.4915 349.00
81.5567 337.00
81.6219 346.00
81.6871 384.00
81.7523 356.00
81.8175 331.00
81.8827 371.00
81.9479 393.00
82.0131 417.00
82.0783 368.00
82.1435 377.00
82.2087 367.00
82.2739 394.00
82.3391 381.00
82.4043 346.00
82.4695 359.00
82.5347 433.00
82.5999 365.00
82.6651 377.00
82.7303 401.00
82.7955 355.00
82.8607 350.00
82.9259 392.00
82.9911 413.00
83.0563 406.00
83.1215 405.00
83.1867 378.00
83.2519 420.00
83.3171 387.00
83.3823 413.00
83.4475 397.00
83.5127 391.00
83.5779 427.00
83.6431 418.00
83.7083 376.00
83.7735 407.00
83.8387 399.00
83.9039 404.00
83.9691 366.00
84.0343 359.00
84.0995 395.00
84.1647 380.00
84.2299 370.00
84.2951 380.00
84.3603 363.00
84.4255 377.00
84.4907 364.00
84.5559 387.00
84.6211 412.00
84.6863 398.00
84.7515 397.00
84.8167 401.00
84.8819 382.00
84.9471 356.00
85.0123 364.00
85.0775 347.00
85.1427 313.00
85.2079 373.00
85.2731 331.00
85.3383 337.00
85.4035 402.00
85.4687 350.00
85.5339 359.00
85.5991 363.00
85.6643 331.00
85.7295 333.00
85.7946 341.00
85.8598 329.00
85.925 341.00
85.9903 344.00
86.0554 331.00
86.1206 354.00
86.1858 364.00
86.251 328.00
86.3162 298.00
86.3814 314.00
86.4466 312.00
86.5118 329.00
86.577 349.00
86.6422 314.00
86.7074 357.00
86.7726 310.00
86.8378 355.00
86.903 330.00
86.9682 342.00
87.0334 309.00
87.0986 352.00
87.1638 363.00
87.229 340.00
87.2942 287.00
87.3594 302.00
87.4246 340.00
87.4898 316.00
87.555 310.00
87.6202 298.00
87.6854 314.00
87.7506 349.00
87.8158 350.00
87.881 311.00
87.9462 361.00
88.0114 354.00
88.0766 350.00
88.1418 335.00
88.207 373.00
88.2722 332.00
88.3374 368.00
88.4026 357.00
88.4678 356.00
88.533 323.00
88.5982 336.00
88.6634 352.00
88.7286 370.00
88.7938 384.00
88.859 362.00
88.9242 396.00
88.9894 368.00
89.0546 349.00
89.1198 376.00
89.185 355.00
89.2502 383.00
89.3154 368.00
89.3806 350.00
89.4458 336.00
89.511 368.00
89.5762 336.00
89.6414 343.00
89.7066 310.00
89.7718 361.00
89.837 329.00
89.9022 343.00
89.9674 351.00
90.0326 344.00
90.0978 339.00
90.163 301.00
90.2282 346.00
90.2934 363.00
90.3586 364.00
90.4238 352.00
90.489 360.00
90.5542 326.00
90.6193 334.00
90.6845 314.00
90.7497 338.00
90.8149 350.00
90.8801 319.00
90.9453 308.00
91.0105 301.00
91.0757 309.00
91.1409 310.00
91.2061 339.00
91.2713 310.00
91.3365 338.00
91.4017 313.00
91.4669 304.00
91.5321 295.00
91.5973 323.00
91.6625 306.00
91.7277 300.00
91.7929 323.00
91.8581 325.00
91.9233 274.00
91.9885 332.00
92.0537 310.00
92.1189 301.00
92.1841 294.00
92.2493 324.00
92.3145 307.00
92.3797 284.00
92.4449 288.00
92.5101 293.00
92.5753 304.00
92.6405 289.00
92.7057 279.00
92.7709 286.00
92.8361 310.00
92.9013 298.00
92.9665 306.00
93.0317 286.00
93.0969 291.00
93.1621 231.00
93.2273 312.00
93.2925 293.00
93.3577 322.00
93.4229 286.00
93.4881 332.00
93.5533 305.00
93.6185 293.00
93.6837 313.00
93.7489 316.00
93.8141 297.00
93.8793 296.00
93.9445 285.00
94.0097 315.00
94.0749 313.00
94.1401 329.00
94.2053 319.00
94.2705 329.00
94.3357 277.00
94.4009 327.00
94.4661 317.00
94.5313 330.00
94.5965 369.00
94.6617 336.00
94.7269 301.00
94.7921 316.00
94.8573 330.00
94.9225 285.00
94.9877 315.00
95.0529 302.00
95.1181 322.00
95.1833 306.00
95.2485 307.00
95.3137 299.00
95.3789 331.00
95.444 344.00
95.5092 324.00
95.5744 287.00
95.6396 355.00
95.7048 323.00
95.77 359.00
95.8352 338.00
95.9004 311.00
95.9656 379.00
96.0308 314.00
96.096 349.00
96.1612 346.00
96.2264 338.00
96.2916 308.00
96.3568 307.00
96.422 306.00
96.4872 350.00
96.5524 335.00
96.6176 333.00
96.6828 344.00
96.748 329.00
96.8132 327.00
96.8784 367.00
96.9436 310.00
97.0088 335.00
97.074 358.00
97.1392 345.00
97.2044 365.00
97.2696 365.00
97.3348 394.00
97.4 347.00
97.4652 359.00
97.5304 359.00
97.5956 380.00
97.6608 364.00
97.726 374.00
97.7912 371.00
97.8564 348.00
97.9216 355.00
97.9868 325.00
98.052 305.00
98.1172 306.00
98.1824 283.00
98.2476 304.00
98.3128 298.00
98.378 302.00
98.4432 304.00
98.5084 305.00
98.5736 335.00
98.6388 334.00
98.704 354.00
98.7692 318.00
98.8344 403.00
98.8996 310.00
98.9648 343.00
99.03 367.00
99.0952 337.00
99.1604 285.00
99.2256 346.00
99.2908 333.00
99.356 345.00
99.4212 361.00
99.4864 338.00
99.5516 333.00
99.6168 342.00
99.682 282.00
99.7472 372.00
99.8124 322.00
99.8776 334.00
99.9428 332.00
100.008 353.00
100.073 367.00
100.095 356.00