File: data/xrd_creation/results/NSC_155.xy
9.903433 2604.00
9.968632 2565.00
10.0338 2559.00
10.099 2508.00
10.1642 2451.00
10.2294 2524.00
10.2946 2436.00
10.3598 2463.00
10.425 2406.00
10.4902 2391.00
10.5554 2418.00
10.6206 2299.00
10.6858 2290.00
10.751 2239.00
10.8162 2212.00
10.8814 2233.00
10.9466 2319.00
11.0118 2315.00
11.077 2340.00
11.1422 2227.00
11.2074 2208.00
11.2726 2203.00
11.3378 2137.00
11.403 2183.00
11.4682 2128.00
11.5334 2194.00
11.5986 2078.00
11.6638 2123.00
11.729 2094.00
11.7942 2073.00
11.8594 2061.00
11.9246 2068.00
11.9898 2038.00
12.055 2057.00
12.1202 1960.00
12.1854 1963.00
12.2506 1894.00
12.3158 1980.00
12.381 1918.00
12.4462 1945.00
12.5114 1918.00
12.5766 1894.00
12.6418 1854.00
12.707 1875.00
12.7722 1784.00
12.8374 1847.00
12.9026 1842.00
12.9678 1787.00
13.033 1851.00
13.0982 1818.00
13.1634 1816.00
13.2286 1718.00
13.2938 1798.00
13.359 1757.00
13.4242 1724.00
13.4894 1711.00
13.5546 1781.00
13.6198 1769.00
13.685 1786.00
13.7502 1673.00
13.8154 1695.00
13.8805 1666.00
13.9457 1709.00
14.0109 1685.00
14.0761 1658.00
14.1413 1665.00
14.2065 1627.00
14.2717 1622.00
14.3369 1524.00
14.4021 1591.00
14.4673 1524.00
14.5325 1592.00
14.5977 1574.00
14.6629 1614.00
14.7281 1615.00
14.7933 1632.00
14.8585 1640.00
14.9237 1665.00
14.9889 1596.00
15.0541 1594.00
15.1193 1535.00
15.1845 1516.00
15.2497 1537.00
15.3149 1538.00
15.3801 1526.00
15.4453 1521.00
15.5105 1561.00
15.5757 1608.00
15.6409 1648.00
15.7061 1576.00
15.7713 1597.00
15.8365 1731.00
15.9017 1670.00
15.9669 1790.00
16.0321 2030.00
16.0973 2320.00
16.1625 2529.00
16.2277 2579.00
16.2929 2547.00
16.3581 2377.00
16.4233 2564.00
16.4885 2747.00
16.5537 3112.00
16.6189 3295.00
16.6841 2169.00
16.7493 1709.00
16.8145 1639.00
16.8797 1676.00
16.9449 1552.00
17.0101 1461.00
17.0753 1561.00
17.1405 1509.00
17.2057 1602.00
17.2709 1601.00
17.3361 1513.00
17.4013 1485.00
17.4665 1533.00
17.5317 1391.00
17.5969 1446.00
17.6621 1446.00
17.7273 1394.00
17.7925 1372.00
17.8577 1424.00
17.9229 1379.00
17.9881 1426.00
18.0533 1365.00
18.1185 1342.00
18.1837 1361.00
18.2489 1399.00
18.3141 1326.00
18.3793 1335.00
18.4445 1376.00
18.5097 1325.00
18.5749 1318.00
18.6401 1347.00
18.7052 1354.00
18.7704 1359.00
18.8356 1351.00
18.9008 1352.00
18.966 1319.00
19.0312 1349.00
19.0964 1338.00
19.1616 1403.00
19.2268 1371.00
19.292 1346.00
19.3572 1333.00
19.4224 1381.00
19.4876 1355.00
19.5528 1297.00
19.618 1264.00
19.6832 1257.00
19.7484 1191.00
19.8136 1254.00
19.8788 1252.00
19.944 1211.00
20.0092 1212.00
20.0744 1259.00
20.1396 1345.00
20.2048 1293.00
20.27 1243.00
20.3352 1341.00
20.4004 1362.00
20.4656 1343.00
20.5308 1406.00
20.596 1358.00
20.6612 1417.00
20.7264 1533.00
20.7916 1701.00
20.8568 1882.00
20.922 1890.00
20.9872 1815.00
21.0524 1720.00
21.1176 1866.00
21.1828 1934.00
21.248 2067.00
21.3132 1982.00
21.3784 1636.00
21.4436 1411.00
21.5088 1424.00
21.574 1347.00
21.6392 1330.00
21.7044 1245.00
21.7696 1267.00
21.8348 1304.00
21.9 1366.00
21.9652 1199.00
22.0304 1190.00
22.0956 1199.00
22.1608 1164.00
22.226 1147.00
22.2912 1123.00
22.3564 1132.00
22.4216 1115.00
22.4868 1126.00
22.552 1129.00
22.6172 1121.00
22.6824 1140.00
22.7476 1151.00
22.8128 1148.00
22.878 1176.00
22.9432 1057.00
23.0084 1091.00
23.0736 1084.00
23.1388 1127.00
23.204 1113.00
23.2692 1146.00
23.3344 1160.00
23.3996 1114.00
23.4647 1251.00
23.5299 1228.00
23.5951 1107.00
23.6603 1158.00
23.7255 1131.00
23.7907 1123.00
23.8559 1029.00
23.9211 1026.00
23.9863 1063.00
24.0515 1072.00
24.1167 1095.00
24.1819 1038.00
24.2471 1056.00
24.3123 1118.00
24.3775 1031.00
24.4427 1079.00
24.5079 988.00
24.5731 1028.00
24.6383 1057.00
24.7035 995.00
24.7687 1030.00
24.8339 1069.00
24.8991 1031.00
24.9643 1066.00
25.0295 1074.00
25.0947 1125.00
25.1599 1024.00
25.2251 1078.00
25.2903 1100.00
25.3555 1026.00
25.4207 1072.00
25.4859 1025.00
25.5511 1016.00
25.6163 1002.00
25.6815 1004.00
25.7467 923.00
25.8119 980.00
25.8771 970.00
25.9423 928.00
26.0075 989.00
26.0727 928.00
26.1379 980.00
26.2031 980.00
26.2683 1006.00
26.3335 923.00
26.3987 992.00
26.4639 929.00
26.5291 988.00
26.5943 945.00
26.6595 932.00
26.7247 941.00
26.7899 944.00
26.8551 907.00
26.9203 958.00
26.9855 966.00
27.0507 963.00
27.1159 929.00
27.1811 971.00
27.2463 932.00
27.3115 898.00
27.3767 948.00
27.4419 910.00
27.5071 924.00
27.5723 886.00
27.6375 876.00
27.7027 936.00
27.7679 900.00
27.8331 906.00
27.8983 928.00
27.9635 951.00
28.0287 897.00
28.0939 932.00
28.1591 920.00
28.2243 896.00
28.2894 896.00
28.3546 934.00
28.4198 894.00
28.485 911.00
28.5502 852.00
28.6154 858.00
28.6806 902.00
28.7458 870.00
28.811 885.00
28.8762 946.00
28.9414 941.00
29.0066 930.00
29.0718 936.00
29.137 919.00
29.2022 962.00
29.2674 1097.00
29.3326 1115.00
29.3978 1138.00
29.463 1184.00
29.5282 1224.00
29.5934 1223.00
29.6586 1332.00
29.7238 1346.00
29.789 1289.00
29.8542 1220.00
29.9194 1121.00
29.9846 1035.00
30.0498 1010.00
30.115 987.00
30.1802 966.00
30.2454 1032.00
30.3106 1096.00
30.3758 1162.00
30.441 1556.00
30.5062 1834.00
30.5714 2046.00
30.6366 2018.00
30.7018 1995.00
30.767 2081.00
30.8322 2063.00
30.8974 2510.00
30.9626 2763.00
31.0278 2012.00
31.093 1266.00
31.1582 960.00
31.2234 896.00
31.2886 925.00
31.3538 869.00
31.419 893.00
31.4842 893.00
31.5494 865.00
31.6146 870.00
31.6798 871.00
31.745 856.00
31.8102 829.00
31.8754 941.00
31.9406 933.00
32.0058 931.00
32.071 934.00
32.1362 1023.00
32.2014 1142.00
32.2666 1413.00
32.3318 1738.00
32.397 1802.00
32.4622 1940.00
32.5274 1998.00
32.5926 2079.00
32.6578 2340.00
32.723 2738.00
32.7882 2932.00
32.8534 2412.00
32.9186 1917.00
32.9838 1717.00
33.0489 1707.00
33.1141 1920.00
33.1793 1656.00
33.2445 1411.00
33.3097 1270.00
33.3749 1313.00
33.4401 1317.00
33.5053 1296.00
33.5705 1435.00
33.6357 1670.00
33.7009 2111.00
33.7661 2393.00
33.8313 2334.00
33.8965 2208.00
33.9617 2233.00
34.0269 2366.00
34.0921 2732.00
34.1573 3317.00
34.2225 2962.00
34.2877 2340.00
34.3529 2133.00
34.4181 2186.00
34.4833 2148.00
34.5485 2215.00
34.6137 2193.00
34.6789 2356.00
34.7441 2288.00
34.8093 2312.00
34.8745 2068.00
34.9397 1765.00
35.0049 1440.00
35.0701 1318.00
35.1353 1190.00
35.2005 1202.00
35.2657 1240.00
35.3309 1191.00
35.3961 1325.00
35.4613 1226.00
35.5265 1178.00
35.5917 1164.00
35.6569 1175.00
35.7221 1245.00
35.7873 1320.00
35.8525 1297.00
35.9177 1160.00
35.9829 925.00
36.0481 797.00
36.1133 808.00
36.1785 785.00
36.2437 831.00
36.3089 812.00
36.3741 769.00
36.4393 780.00
36.5045 815.00
36.5697 784.00
36.6349 750.00
36.7001 765.00
36.7653 757.00
36.8305 845.00
36.8957 830.00
36.9609 857.00
37.0261 871.00
37.0913 917.00
37.1565 918.00
37.2217 951.00
37.2869 951.00
37.3521 963.00
37.4173 935.00
37.4825 958.00
37.5477 934.00
37.6129 910.00
37.6781 815.00
37.7433 881.00
37.8085 844.00
37.8736 827.00
37.9388 853.00
38.004 898.00
38.0692 922.00
38.1344 895.00
38.1996 832.00
38.2648 800.00
38.33 832.00
38.3952 814.00
38.4604 795.00
38.5256 879.00
38.5908 937.00
38.656 1027.00
38.7212 1355.00
38.7864 1996.00
38.8516 2644.00
38.9168 2967.00
38.982 3011.00
39.0472 3035.00
39.1124 3042.00
39.1776 3638.00
39.2428 4265.00
39.308 4231.00
39.3732 2987.00
39.4384 1881.00
39.5036 1286.00
39.5688 1006.00
39.634 949.00
39.6992 860.00
39.7644 780.00
39.8296 798.00
39.8948 793.00
39.96 754.00
40.0252 790.00
40.0904 779.00
40.1556 703.00
40.2208 784.00
40.286 719.00
40.3512 680.00
40.4164 701.00
40.4816 687.00
40.5468 719.00
40.612 739.00
40.6772 712.00
40.7424 701.00
40.8076 694.00
40.8728 689.00
40.938 713.00
41.0032 656.00
41.0684 676.00
41.1336 704.00
41.1988 732.00
41.264 728.00
41.3292 680.00
41.3944 630.00
41.4596 755.00
41.5248 739.00
41.59 658.00
41.6552 681.00
41.7204 712.00
41.7856 741.00
41.8508 722.00
41.916 717.00
41.9812 706.00
42.0464 788.00
42.1116 703.00
42.1768 797.00
42.242 851.00
42.3072 1019.00
42.3724 1030.00
42.4376 1043.00
42.5028 1093.00
42.568 1117.00
42.6332 1179.00
42.6983 1284.00
42.7635 1394.00
42.8287 1176.00
42.8939 1001.00
42.9591 767.00
43.0243 772.00
43.0895 670.00
43.1547 628.00
43.2199 658.00
43.2851 669.00
43.3503 642.00
43.4155 638.00
43.4807 691.00
43.5459 666.00
43.6111 623.00
43.6763 625.00
43.7415 689.00
43.8067 634.00
43.8719 586.00
43.9371 663.00
44.0023 612.00
44.0675 627.00
44.1327 648.00
44.1979 593.00
44.2631 588.00
44.3283 636.00
44.3935 588.00
44.4587 607.00
44.5239 649.00
44.5891 563.00
44.6543 618.00
44.7195 620.00
44.7847 572.00
44.8499 594.00
44.9151 634.00
44.9803 618.00
45.0455 665.00
45.1107 632.00
45.1759 604.00
45.2411 639.00
45.3063 631.00
45.3715 599.00
45.4367 577.00
45.5019 611.00
45.5671 702.00
45.6323 751.00
45.6975 789.00
45.7627 776.00
45.8279 802.00
45.8931 796.00
45.9583 875.00
46.0235 856.00
46.0887 776.00
46.1539 765.00
46.2191 671.00
46.2843 581.00
46.3495 628.00
46.4147 587.00
46.4799 585.00
46.5451 593.00
46.6103 618.00
46.6755 612.00
46.7407 614.00
46.8059 566.00
46.8711 605.00
46.9363 614.00
47.0015 529.00
47.0667 575.00
47.1319 566.00
47.1971 607.00
47.2623 531.00
47.3275 551.00
47.3927 559.00
47.4579 577.00
47.523 614.00
47.5882 587.00
47.6534 650.00
47.7186 645.00
47.7838 659.00
47.849 664.00
47.9142 709.00
47.9794 818.00
48.0446 759.00
48.1098 753.00
48.175 775.00
48.2402 753.00
48.3054 753.00
48.3706 715.00
48.4358 742.00
48.501 642.00
48.5662 600.00
48.6314 640.00
48.6966 581.00
48.7618 555.00
48.827 591.00
48.8922 606.00
48.9574 588.00
49.0226 585.00
49.0878 560.00
49.153 599.00
49.2182 641.00
49.2834 644.00
49.3486 708.00
49.4138 697.00
49.479 731.00
49.5442 770.00
49.6094 836.00
49.6746 810.00
49.7398 858.00
49.805 805.00
49.8702 752.00
49.9354 803.00
50.0006 731.00
50.0658 773.00
50.131 744.00
50.1962 746.00
50.2614 742.00
50.3266 700.00
50.3918 720.00
50.457 675.00
50.5222 699.00
50.5874 754.00
50.6526 866.00
50.7178 971.00
50.783 991.00
50.8482 1182.00
50.9134 1274.00
50.9786 1437.00
51.0438 1607.00
51.109 1859.00
51.1742 1631.00
51.2394 1509.00
51.3046 1590.00
51.3698 1504.00
51.435 1217.00
51.5002 1085.00
51.5654 798.00
51.6306 714.00
51.6958 669.00
51.761 667.00
51.8262 607.00
51.8914 593.00
51.9566 665.00
52.0218 694.00
52.087 645.00
52.1522 666.00
52.2174 676.00
52.2826 675.00
52.3477 715.00
52.4129 678.00
52.4781 761.00
52.5433 650.00
52.6085 734.00
52.6737 672.00
52.7389 641.00
52.8041 626.00
52.8693 633.00
52.9345 621.00
52.9997 610.00
53.0649 563.00
53.1301 554.00
53.1953 523.00
53.2605 524.00
53.3257 536.00
53.3909 513.00
53.4561 542.00
53.5213 504.00
53.5865 534.00
53.6517 542.00
53.7169 501.00
53.7821 562.00
53.8473 554.00
53.9125 559.00
53.9777 521.00
54.0429 567.00
54.1081 592.00
54.1733 544.00
54.2385 553.00
54.3037 605.00
54.3689 550.00
54.4341 554.00
54.4993 572.00
54.5645 607.00
54.6297 669.00
54.6949 589.00
54.7601 581.00
54.8253 530.00
54.8905 534.00
54.9557 548.00
55.0209 552.00
55.0861 606.00
55.1513 583.00
55.2165 636.00
55.2817 682.00
55.3469 835.00
55.4121 988.00
55.4773 1133.00
55.5425 1300.00
55.6077 1355.00
55.6729 1388.00
55.7381 1473.00
55.8033 1694.00
55.8685 1653.00
55.9337 1378.00
55.9989 1181.00
56.0641 943.00
56.1293 769.00
56.1945 776.00
56.2597 690.00
56.3249 678.00
56.3901 667.00
56.4553 715.00
56.5205 629.00
56.5857 615.00
56.6509 590.00
56.7161 736.00
56.7813 877.00
56.8465 1036.00
56.9117 1210.00
56.9769 1285.00
57.042 1290.00
57.1073 1434.00
57.1724 1571.00
57.2376 1690.00
57.3028 1338.00
57.368 1146.00
57.4332 927.00
57.4984 794.00
57.5636 642.00
57.6288 610.00
57.694 559.00
57.7592 547.00
57.8244 555.00
57.8896 550.00
57.9548 526.00
58.02 513.00
58.0852 535.00
58.1504 544.00
58.2156 525.00
58.2808 455.00
58.346 507.00
58.4112 498.00
58.4764 487.00
58.5416 517.00
58.6068 543.00
58.672 509.00
58.7372 555.00
58.8024 503.00
58.8676 521.00
58.9328 551.00
58.998 586.00
59.0632 606.00
59.1284 596.00
59.1936 646.00
59.2588 664.00
59.324 654.00
59.3892 774.00
59.4544 900.00
59.5196 980.00
59.5848 970.00
59.65 1122.00
59.7152 1149.00
59.7804 1135.00
59.8456 1309.00
59.9108 1378.00
59.976 1294.00
60.0412 1018.00
60.1064 835.00
60.1716 783.00
60.2368 666.00
60.302 559.00
60.3672 586.00
60.4324 621.00
60.4976 664.00
60.5628 751.00
60.628 826.00
60.6932 895.00
60.7584 962.00
60.8236 991.00
60.8888 1040.00
60.954 1108.00
61.0192 1081.00
61.0844 958.00
61.1496 893.00
61.2148 716.00
61.28 623.00
61.3452 573.00
61.4104 623.00
61.4756 617.00
61.5408 610.00
61.606 683.00
61.6712 670.00
61.7364 730.00
61.8016 821.00
61.8667 818.00
61.932 876.00
61.9971 886.00
62.0623 821.00
62.1275 857.00
62.1927 778.00
62.2579 756.00
62.3231 714.00
62.3883 714.00
62.4535 720.00
62.5187 672.00
62.5839 567.00
62.6491 564.00
62.7143 577.00
62.7795 530.00
62.8447 518.00
62.9099 509.00
62.9751 521.00
63.0403 520.00
63.1055 451.00
63.1707 473.00
63.2359 523.00
63.3011 495.00
63.3663 496.00
63.4315 461.00
63.4967 497.00
63.5619 510.00
63.6271 520.00
63.6923 552.00
63.7575 560.00
63.8227 567.00
63.8879 561.00
63.9531 651.00
64.0183 555.00
64.0835 574.00
64.1487 544.00
64.2139 546.00
64.2791 527.00
64.3443 531.00
64.4095 485.00
64.4747 542.00
64.5399 524.00
64.6051 539.00
64.6703 476.00
64.7355 498.00
64.8007 488.00
64.8659 480.00
64.9311 479.00
64.9963 470.00
65.0615 500.00
65.1267 529.00
65.1919 537.00
65.2571 525.00
65.3223 511.00
65.3875 598.00
65.4527 590.00
65.5179 615.00
65.5831 576.00
65.6483 614.00
65.7135 600.00
65.7787 670.00
65.8439 719.00
65.9091 816.00
65.9743 807.00
66.0395 897.00
66.1047 873.00
66.1699 880.00
66.2351 947.00
66.3003 927.00
66.3655 850.00
66.4307 741.00
66.4959 754.00
66.561 618.00
66.6263 603.00
66.6915 565.00
66.7566 579.00
66.8218 643.00
66.887 622.00
66.9522 649.00
67.0174 737.00
67.0826 816.00
67.1478 888.00
67.213 1015.00
67.2782 1090.00
67.3434 1136.00
67.4086 1122.00
67.4738 1176.00
67.539 1233.00
67.6042 1081.00
67.6694 974.00
67.7346 839.00
67.7998 836.00
67.865 762.00
67.9302 744.00
67.9954 796.00
68.0606 796.00
68.1258 836.00
68.191 808.00
68.2562 726.00
68.3214 748.00
68.3866 688.00
68.4518 641.00
68.517 623.00
68.5822 596.00
68.6474 614.00
68.7126 617.00
68.7778 577.00
68.843 630.00
68.9082 693.00
68.9734 595.00
69.0386 533.00
69.1038 523.00
69.169 504.00
69.2342 478.00
69.2994 451.00
69.3646 482.00
69.4298 420.00
69.495 456.00
69.5602 496.00
69.6254 468.00
69.6906 495.00
69.7558 455.00
69.821 538.00
69.8862 512.00
69.9514 440.00
70.0166 451.00
70.0818 481.00
70.147 440.00
70.2122 452.00
70.2774 449.00
70.3426 454.00
70.4078 451.00
70.473 430.00
70.5382 434.00
70.6034 426.00
70.6686 427.00
70.7338 474.00
70.799 489.00
70.8642 496.00
70.9294 528.00
70.9946 682.00
71.0598 636.00
71.125 692.00
71.1902 774.00
71.2554 818.00
71.3205 890.00
71.3858 986.00
71.451 922.00
71.5162 747.00
71.5813 814.00
71.6465 742.00
71.7117 709.00
71.7769 632.00
71.8421 691.00
71.9073 715.00
71.9725 689.00
72.0377 600.00
72.1029 579.00
72.1681 529.00
72.2333 489.00
72.2985 489.00
72.3637 442.00
72.4289 473.00
72.4941 487.00
72.5593 421.00
72.6245 478.00
72.6897 432.00
72.7549 471.00
72.8201 463.00
72.8853 473.00
72.9505 473.00
73.0157 432.00
73.0809 459.00
73.1461 474.00
73.2113 431.00
73.2765 459.00
73.3417 478.00
73.4069 511.00
73.4721 514.00
73.5373 550.00
73.6025 494.00
73.6677 561.00
73.7329 587.00
73.7981 612.00
73.8633 578.00
73.9285 580.00
73.9937 495.00
74.0589 485.00
74.1241 461.00
74.1893 409.00
74.2545 476.00
74.3197 414.00
74.3849 414.00
74.4501 418.00
74.5153 419.00
74.5805 417.00
74.6457 439.00
74.7109 421.00
74.7761 414.00
74.8413 405.00
74.9065 470.00
74.9717 452.00
75.0369 461.00
75.1021 465.00
75.1673 424.00
75.2325 507.00
75.2977 464.00
75.3629 493.00
75.4281 510.00
75.4933 467.00
75.5585 420.00
75.6237 394.00
75.6889 438.00
75.7541 406.00
75.8193 426.00
75.8845 365.00
75.9497 383.00
76.0149 416.00
76.0801 433.00
76.1452 377.00
76.2104 427.00
76.2756 421.00
76.3409 454.00
76.406 462.00
76.4712 457.00
76.5364 455.00
76.6016 431.00
76.6668 479.00
76.732 452.00
76.7972 484.00
76.8624 478.00
76.9276 411.00
76.9928 395.00
77.058 437.00
77.1232 418.00
77.1884 397.00
77.2536 425.00
77.3188 410.00
77.384 382.00
77.4492 428.00
77.5144 363.00
77.5796 411.00
77.6448 387.00
77.71 428.00
77.7752 417.00
77.8404 420.00
77.9056 424.00
77.9708 410.00
78.036 434.00
78.1012 465.00
78.1664 402.00
78.2316 413.00
78.2968 397.00
78.362 422.00
78.4272 365.00
78.4924 399.00
78.5576 365.00
78.6228 394.00
78.688 366.00
78.7532 404.00
78.8184 427.00
78.8836 414.00
78.9488 430.00
79.014 442.00
79.0792 448.00
79.1444 524.00
79.2096 541.00
79.2748 597.00
79.34 635.00
79.4052 636.00
79.4704 603.00
79.5356 542.00
79.6008 603.00
79.666 609.00
79.7312 578.00
79.7964 526.00
79.8616 528.00
79.9268 589.00
79.992 582.00
80.0572 600.00
80.1224 473.00
80.1876 508.00
80.2528 494.00
80.318 430.00
80.3832 441.00
80.4484 436.00
80.5136 392.00
80.5788 430.00
80.644 473.00
80.7092 395.00
80.7744 430.00
80.8396 407.00
80.9048 352.00
80.9699 406.00
81.0351 447.00
81.1003 404.00
81.1655 399.00
81.2307 367.00
81.2959 371.00
81.3611 415.00
81.4263 394.00
81.4915 407.00
81.5567 366.00
81.6219 374.00
81.6871 411.00
81.7523 412.00
81.8175 411.00
81.8827 427.00
81.9479 440.00
82.0131 445.00
82.0783 459.00
82.1435 457.00
82.2087 437.00
82.2739 416.00
82.3391 401.00
82.4043 385.00
82.4695 417.00
82.5347 364.00
82.5999 435.00
82.6651 385.00
82.7303 408.00
82.7955 416.00
82.8607 396.00
82.9259 453.00
82.9911 436.00
83.0563 481.00
83.1215 520.00
83.1867 567.00
83.2519 545.00
83.3171 618.00
83.3823 627.00
83.4475 636.00
83.5127 695.00
83.5779 628.00
83.6431 698.00
83.7083 783.00
83.7735 696.00
83.8387 765.00
83.9039 662.00
83.9691 628.00
84.0343 574.00
84.0995 573.00
84.1647 547.00
84.2299 487.00
84.2951 526.00
84.3603 506.00
84.4255 481.00
84.4907 432.00
84.5559 450.00
84.6211 440.00
84.6863 451.00
84.7515 429.00
84.8167 411.00
84.8819 394.00
84.9471 363.00
85.0123 409.00
85.0775 446.00
85.1427 382.00
85.2079 389.00
85.2731 368.00
85.3383 361.00
85.4035 393.00
85.4687 401.00
85.5339 349.00
85.5991 409.00
85.6643 382.00
85.7295 430.00
85.7946 450.00
85.8598 417.00
85.925 474.00
85.9903 554.00
86.0554 472.00
86.1206 533.00
86.1858 446.00
86.251 454.00
86.3162 421.00
86.3814 439.00
86.4466 412.00
86.5118 369.00
86.577 359.00
86.6422 364.00
86.7074 381.00
86.7726 416.00
86.8378 397.00
86.903 392.00
86.9682 392.00
87.0334 377.00
87.0986 372.00
87.1638 387.00
87.229 416.00
87.2942 449.00
87.3594 436.00
87.4246 422.00
87.4898 418.00
87.555 447.00
87.6202 407.00
87.6854 394.00
87.7506 404.00
87.8158 391.00
87.881 374.00
87.9462 403.00
88.0114 375.00
88.0766 409.00
88.1418 391.00
88.207 384.00
88.2722 394.00
88.3374 370.00
88.4026 401.00
88.4678 383.00
88.533 409.00
88.5982 374.00
88.6634 440.00
88.7286 441.00
88.7938 410.00
88.859 390.00
88.9242 390.00
88.9894 388.00
89.0546 343.00
89.1198 364.00
89.185 365.00
89.2502 375.00
89.3154 385.00
89.3806 393.00
89.4458 423.00
89.511 385.00
89.5762 392.00
89.6414 418.00
89.7066 420.00
89.7718 418.00
89.837 449.00
89.9022 460.00
89.9674 449.00
90.0326 427.00
90.0978 428.00
90.163 376.00
90.2282 367.00
90.2934 408.00
90.3586 413.00
90.4238 428.00
90.489 362.00
90.5542 355.00
90.6193 391.00
90.6845 367.00
90.7497 371.00
90.8149 426.00
90.8801 386.00
90.9453 439.00
91.0105 464.00
91.0757 509.00
91.1409 560.00
91.2061 532.00
91.2713 483.00
91.3365 440.00
91.4017 516.00
91.4669 448.00
91.5321 414.00
91.5973 428.00
91.6625 373.00
91.7277 330.00
91.7929 382.00
91.8581 380.00
91.9233 344.00
91.9885 409.00
92.0537 380.00
92.1189 387.00
92.1841 380.00
92.2493 409.00
92.3145 401.00
92.3797 385.00
92.4449 417.00
92.5101 379.00
92.5753 472.00
92.6405 476.00
92.7057 478.00
92.7709 545.00
92.8361 521.00
92.9013 513.00
92.9665 484.00
93.0317 512.00
93.0969 456.00
93.1621 463.00
93.2273 483.00
93.2925 439.00
93.3577 446.00
93.4229 436.00
93.4881 453.00
93.5533 452.00
93.6185 458.00
93.6837 487.00
93.7489 480.00
93.8141 521.00
93.8793 543.00
93.9445 529.00
94.0097 542.00
94.0749 533.00
94.1401 512.00
94.2053 516.00
94.2705 533.00
94.3357 543.00
94.4009 573.00
94.4661 566.00
94.5313 569.00
94.5965 658.00
94.6617 657.00
94.7269 598.00
94.7921 606.00
94.8573 585.00
94.9225 606.00
94.9877 578.00
95.0529 613.00
95.1181 707.00
95.1833 662.00
95.2485 704.00
95.3137 798.00
95.3789 809.00
95.444 735.00
95.5092 682.00
95.5744 655.00
95.6396 630.00
95.7048 606.00
95.77 485.00
95.8352 481.00
95.9004 480.00
95.9656 443.00
96.0308 402.00
96.096 387.00
96.1612 432.00
96.2264 400.00
96.2916 397.00
96.3568 394.00
96.422 411.00
96.4872 423.00
96.5524 458.00
96.6176 490.00
96.6828 481.00
96.748 465.00
96.8132 443.00
96.8784 482.00
96.9436 440.00
97.0088 457.00
97.074 439.00
97.1392 417.00
97.2044 497.00
97.2696 482.00
97.3348 522.00
97.4 542.00
97.4652 621.00
97.5304 642.00
97.5956 712.00
97.6608 755.00
97.726 747.00
97.7912 704.00
97.8564 696.00
97.9216 718.00
97.9868 718.00
98.052 655.00
98.1172 623.00
98.1824 561.00
98.2476 561.00
98.3128 559.00
98.378 498.00
98.4432 495.00
98.5084 477.00
98.5736 431.00
98.6388 442.00
98.704 420.00
98.7692 384.00
98.8344 411.00
98.8996 348.00
98.9648 450.00
99.03 407.00
99.0952 391.00
99.1604 370.00
99.2256 378.00
99.2908 433.00
99.356 380.00
99.4212 400.00
99.4864 407.00
99.5516 412.00
99.6168 459.00
99.682 440.00
99.7472 432.00
99.8124 512.00
99.8776 473.00
99.9428 496.00
100.008 536.00
100.073 457.00
100.095 443.00