File: data/xrd_creation/results/NSC_110.xy
9.903433 2696.00
9.968632 2694.00
10.0338 2545.00
10.099 2582.00
10.1642 2595.00
10.2294 2571.00
10.2946 2448.00
10.3598 2584.00
10.425 2505.00
10.4902 2521.00
10.5554 2461.00
10.6206 2329.00
10.6858 2416.00
10.751 2292.00
10.8162 2376.00
10.8814 2487.00
10.9466 2250.00
11.0118 2241.00
11.077 2255.00
11.1422 2382.00
11.2074 2191.00
11.2726 2255.00
11.3378 2221.00
11.403 2164.00
11.4682 2272.00
11.5334 2120.00
11.5986 2125.00
11.6638 2128.00
11.729 2195.00
11.7942 2099.00
11.8594 2085.00
11.9246 2083.00
11.9898 2038.00
12.055 2009.00
12.1202 2054.00
12.1854 2048.00
12.2506 1964.00
12.3158 1933.00
12.381 1939.00
12.4462 2007.00
12.5114 2005.00
12.5766 2001.00
12.6418 1912.00
12.707 1902.00
12.7722 1869.00
12.8374 1911.00
12.9026 1805.00
12.9678 1869.00
13.033 1810.00
13.0982 1818.00
13.1634 1904.00
13.2286 1892.00
13.2938 1820.00
13.359 1801.00
13.4242 1770.00
13.4894 1786.00
13.5546 1885.00
13.6198 1798.00
13.685 1771.00
13.7502 1722.00
13.8154 1731.00
13.8805 1784.00
13.9457 1710.00
14.0109 1684.00
14.0761 1695.00
14.1413 1732.00
14.2065 1760.00
14.2717 1639.00
14.3369 1663.00
14.4021 1741.00
14.4673 1643.00
14.5325 1688.00
14.5977 1703.00
14.6629 1741.00
14.7281 1840.00
14.7933 1950.00
14.8585 2017.00
14.9237 2269.00
14.9889 2598.00
15.0541 2991.00
15.1193 3353.00
15.1845 3746.00
15.2497 4409.00
15.3149 6127.00
15.3801 8365.00
15.4453 4272.00
15.5105 1907.00
15.5757 1719.00
15.6409 1721.00
15.7061 1790.00
15.7713 1598.00
15.8365 1598.00
15.9017 1606.00
15.9669 1671.00
16.0321 1655.00
16.0973 1614.00
16.1625 1606.00
16.2277 1609.00
16.2929 1545.00
16.3581 1541.00
16.4233 1476.00
16.4885 1610.00
16.5537 1537.00
16.6189 1488.00
16.6841 1513.00
16.7493 1606.00
16.8145 1554.00
16.8797 1534.00
16.9449 1445.00
17.0101 1560.00
17.0753 1580.00
17.1405 1439.00
17.2057 1522.00
17.2709 1424.00
17.3361 1436.00
17.4013 1458.00
17.4665 1479.00
17.5317 1426.00
17.5969 1446.00
17.6621 1501.00
17.7273 1412.00
17.7925 1442.00
17.8577 1445.00
17.9229 1388.00
17.9881 1344.00
18.0533 1453.00
18.1185 1447.00
18.1837 1436.00
18.2489 1377.00
18.3141 1414.00
18.3793 1374.00
18.4445 1422.00
18.5097 1379.00
18.5749 1416.00
18.6401 1346.00
18.7052 1351.00
18.7704 1403.00
18.8356 1336.00
18.9008 1382.00
18.966 1347.00
19.0312 1382.00
19.0964 1383.00
19.1616 1384.00
19.2268 1355.00
19.292 1326.00
19.3572 1336.00
19.4224 1337.00
19.4876 1319.00
19.5528 1220.00
19.618 1291.00
19.6832 1283.00
19.7484 1289.00
19.8136 1356.00
19.8788 1307.00
19.944 1313.00
20.0092 1297.00
20.0744 1378.00
20.1396 1379.00
20.2048 1330.00
20.27 1462.00
20.3352 1406.00
20.4004 1496.00
20.4656 1635.00
20.5308 1649.00
20.596 1997.00
20.6612 2438.00
20.7264 2953.00
20.7916 3731.00
20.8568 5060.00
20.922 6923.00
20.9872 10896.00
21.0524 18140.00
21.1176 18396.00
21.1828 5982.00
21.248 2018.00
21.3132 1763.00
21.3784 1599.00
21.4436 1616.00
21.5088 1623.00
21.574 1592.00
21.6392 1663.00
21.7044 1865.00
21.7696 2141.00
21.8348 2808.00
21.9 3276.00
21.9652 4524.00
22.0304 6357.00
22.0956 9656.00
22.1608 16129.00
22.226 25374.00
22.2912 16906.00
22.3564 4376.00
22.4216 2008.00
22.4868 1778.00
22.552 1629.00
22.6172 1526.00
22.6824 1448.00
22.7476 1393.00
22.8128 1293.00
22.878 1324.00
22.9432 1251.00
23.0084 1381.00
23.0736 1333.00
23.1388 1270.00
23.204 1262.00
23.2692 1286.00
23.3344 1165.00
23.3996 1196.00
23.4647 1222.00
23.5299 1195.00
23.5951 1194.00
23.6603 1173.00
23.7255 1236.00
23.7907 1210.00
23.8559 1123.00
23.9211 1166.00
23.9863 1226.00
24.0515 1250.00
24.1167 1231.00
24.1819 1233.00
24.2471 1190.00
24.3123 1182.00
24.3775 1228.00
24.4427 1161.00
24.5079 1238.00
24.5731 1360.00
24.6383 1322.00
24.7035 1343.00
24.7687 1406.00
24.8339 1413.00
24.8991 1494.00
24.9643 1582.00
25.0295 1830.00
25.0947 2124.00
25.1599 2447.00
25.2251 3405.00
25.2903 4898.00
25.3555 8010.00
25.4207 14326.00
25.4859 26349.00
25.5511 32544.00
25.6163 14044.00
25.6815 3007.00
25.7467 1920.00
25.8119 1787.00
25.8771 1623.00
25.9423 1496.00
26.0075 1547.00
26.0727 1634.00
26.1379 1993.00
26.2031 2586.00
26.2683 2876.00
26.3335 2076.00
26.3987 1405.00
26.4639 1305.00
26.5291 1186.00
26.5943 1280.00
26.6595 1206.00
26.7247 1329.00
26.7899 1196.00
26.8551 1181.00
26.9203 1264.00
26.9855 1419.00
27.0507 1385.00
27.1159 1226.00
27.1811 1043.00
27.2463 1036.00
27.3115 1076.00
27.3767 1078.00
27.4419 1067.00
27.5071 1048.00
27.5723 1085.00
27.6375 1070.00
27.7027 1037.00
27.7679 1090.00
27.8331 1077.00
27.8983 1077.00
27.9635 1026.00
28.0287 1039.00
28.0939 999.00
28.1591 991.00
28.2243 1087.00
28.2894 960.00
28.3546 991.00
28.4198 998.00
28.485 1041.00
28.5502 993.00
28.6154 1011.00
28.6806 963.00
28.7458 982.00
28.811 986.00
28.8762 1018.00
28.9414 976.00
29.0066 948.00
29.0718 1015.00
29.137 974.00
29.2022 981.00
29.2674 961.00
29.3326 981.00
29.3978 926.00
29.463 998.00
29.5282 964.00
29.5934 974.00
29.6586 980.00
29.7238 1008.00
29.789 984.00
29.8542 1006.00
29.9194 1079.00
29.9846 994.00
30.0498 1025.00
30.115 1091.00
30.1802 1140.00
30.2454 1317.00
30.3106 1492.00
30.3758 1737.00
30.441 2405.00
30.5062 3959.00
30.5714 7325.00
30.6366 14332.00
30.7018 19916.00
30.767 10433.00
30.8322 3177.00
30.8974 1588.00
30.9626 1309.00
31.0278 1141.00
31.093 1146.00
31.1582 1003.00
31.2234 992.00
31.2886 959.00
31.3538 981.00
31.419 935.00
31.4842 952.00
31.5494 974.00
31.6146 959.00
31.6798 906.00
31.745 908.00
31.8102 953.00
31.8754 997.00
31.9406 899.00
32.0058 918.00
32.071 968.00
32.1362 896.00
32.2014 885.00
32.2666 876.00
32.3318 945.00
32.397 903.00
32.4622 950.00
32.5274 972.00
32.5926 988.00
32.6578 1005.00
32.723 970.00
32.7882 1065.00
32.8534 1031.00
32.9186 965.00
32.9838 1084.00
33.0489 1167.00
33.1141 1394.00
33.1793 1510.00
33.2445 1754.00
33.3097 2185.00
33.3749 3003.00
33.4401 5392.00
33.5053 10606.00
33.5705 22878.00
33.6357 31190.00
33.7009 16635.00
33.7661 5461.00
33.8313 1977.00
33.8965 1574.00
33.9617 1490.00
34.0269 1386.00
34.0921 1433.00
34.1573 1697.00
34.2225 2622.00
34.2877 4673.00
34.3529 6220.00
34.4181 3719.00
34.4833 1845.00
34.5485 1097.00
34.6137 1028.00
34.6789 973.00
34.7441 996.00
34.8093 895.00
34.8745 991.00
34.9397 993.00
35.0049 964.00
35.0701 1149.00
35.1353 1261.00
35.2005 1062.00
35.2657 907.00
35.3309 847.00
35.3961 880.00
35.4613 865.00
35.5265 839.00
35.5917 834.00
35.6569 866.00
35.7221 961.00
35.7873 954.00
35.8525 1158.00
35.9177 1600.00
35.9829 2132.00
36.0481 1606.00
36.1133 1195.00
36.1785 989.00
36.2437 1004.00
36.3089 941.00
36.3741 952.00
36.4393 860.00
36.5045 864.00
36.5697 827.00
36.6349 834.00
36.7001 827.00
36.7653 793.00
36.8305 809.00
36.8957 807.00
36.9609 801.00
37.0261 790.00
37.0913 822.00
37.1565 739.00
37.2217 809.00
37.2869 801.00
37.3521 850.00
37.4173 839.00
37.4825 820.00
37.5477 856.00
37.6129 852.00
37.6781 862.00
37.7433 985.00
37.8085 980.00
37.8736 1162.00
37.9388 1653.00
38.004 2810.00
38.0692 4834.00
38.1344 3707.00
38.1996 2693.00
38.2648 1492.00
38.33 1358.00
38.3952 1380.00
38.4604 1437.00
38.5256 1650.00
38.5908 2299.00
38.656 4202.00
38.7212 8483.00
38.7864 9941.00
38.8516 5959.00
38.9168 2936.00
38.982 1191.00
39.0472 1157.00
39.1124 1247.00
39.1776 1338.00
39.2428 1168.00
39.308 1077.00
39.3732 847.00
39.4384 809.00
39.5036 797.00
39.5688 805.00
39.634 850.00
39.6992 961.00
39.7644 901.00
39.8296 878.00
39.8948 839.00
39.96 787.00
40.0252 802.00
40.0904 771.00
40.1556 840.00
40.2208 862.00
40.286 800.00
40.3512 808.00
40.4164 769.00
40.4816 802.00
40.5468 874.00
40.612 955.00
40.6772 1232.00
40.7424 1820.00
40.8076 3067.00
40.8728 2852.00
40.938 2054.00
41.0032 1132.00
41.0684 894.00
41.1336 805.00
41.1988 757.00
41.264 785.00
41.3292 694.00
41.3944 751.00
41.4596 754.00
41.5248 716.00
41.59 733.00
41.6552 743.00
41.7204 692.00
41.7856 731.00
41.8508 818.00
41.916 907.00
41.9812 949.00
42.0464 958.00
42.1116 926.00
42.1768 874.00
42.242 848.00
42.3072 786.00
42.3724 926.00
42.4376 1191.00
42.5028 1850.00
42.568 2637.00
42.6332 1888.00
42.6983 1446.00
42.7635 888.00
42.8287 792.00
42.8939 745.00
42.9591 746.00
43.0243 730.00
43.0895 684.00
43.1547 684.00
43.2199 769.00
43.2851 723.00
43.3503 679.00
43.4155 736.00
43.4807 708.00
43.5459 715.00
43.6111 747.00
43.6763 700.00
43.7415 709.00
43.8067 761.00
43.8719 767.00
43.9371 846.00
44.0023 980.00
44.0675 1338.00
44.1327 2404.00
44.1979 3521.00
44.2631 2257.00
44.3283 1759.00
44.3935 969.00
44.4587 760.00
44.5239 789.00
44.5891 768.00
44.6543 780.00
44.7195 757.00
44.7847 734.00
44.8499 923.00
44.9151 1273.00
44.9803 1734.00
45.0455 1638.00
45.1107 1422.00
45.1759 1050.00
45.2411 932.00
45.3063 1154.00
45.3715 1628.00
45.4367 1352.00
45.5019 1279.00
45.5671 795.00
45.6323 689.00
45.6975 744.00
45.7627 736.00
45.8279 719.00
45.8931 729.00
45.9583 647.00
46.0235 676.00
46.0887 775.00
46.1539 726.00
46.2191 710.00
46.2843 806.00
46.3495 945.00
46.4147 1031.00
46.4799 1695.00
46.5451 3380.00
46.6103 3985.00
46.6755 2532.00
46.7407 2218.00
46.8059 1492.00
46.8711 1372.00
46.9363 1140.00
47.0015 928.00
47.0667 822.00
47.1319 835.00
47.1971 820.00
47.2623 796.00
47.3275 741.00
47.3927 751.00
47.4579 748.00
47.523 795.00
47.5882 887.00
47.6534 1100.00
47.7186 1551.00
47.7838 1286.00
47.849 1203.00
47.9142 894.00
47.9794 834.00
48.0446 827.00
48.1098 869.00
48.175 1115.00
48.2402 1518.00
48.3054 2593.00
48.3706 5411.00
48.4358 6215.00
48.501 3811.00
48.5662 3123.00
48.6314 1136.00
48.6966 956.00
48.7618 884.00
48.827 867.00
48.8922 836.00
48.9574 839.00
49.0226 780.00
49.0878 808.00
49.153 733.00
49.2182 742.00
49.2834 789.00
49.3486 689.00
49.4138 729.00
49.479 785.00
49.5442 817.00
49.6094 832.00
49.6746 931.00
49.7398 1142.00
49.805 1724.00
49.8702 3016.00
49.9354 3576.00
50.0006 3593.00
50.0658 5032.00
50.131 3018.00
50.1962 2497.00
50.2614 1654.00
50.3266 865.00
50.3918 774.00
50.457 765.00
50.5222 725.00
50.5874 684.00
50.6526 738.00
50.7178 730.00
50.783 738.00
50.8482 760.00
50.9134 885.00
50.9786 978.00
51.0438 1481.00
51.109 1891.00
51.1742 1319.00
51.2394 1317.00
51.3046 946.00
51.3698 812.00
51.435 780.00
51.5002 749.00
51.5654 844.00
51.6306 901.00
51.6958 1016.00
51.761 1229.00
51.8262 1454.00
51.8914 1818.00
51.9566 3146.00
52.0218 7008.00
52.087 9717.00
52.1522 5130.00
52.2174 5170.00
52.2826 2208.00
52.3477 1074.00
52.4129 826.00
52.4781 818.00
52.5433 816.00
52.6085 798.00
52.6737 725.00
52.7389 711.00
52.8041 697.00
52.8693 748.00
52.9345 791.00
52.9997 931.00
53.0649 1406.00
53.1301 1960.00
53.1953 1375.00
53.2605 1318.00
53.3257 1054.00
53.3909 731.00
53.4561 731.00
53.5213 733.00
53.5865 728.00
53.6517 763.00
53.7169 700.00
53.7821 724.00
53.8473 697.00
53.9125 693.00
53.9777 668.00
54.0429 641.00
54.1081 754.00
54.1733 725.00
54.2385 626.00
54.3037 698.00
54.3689 712.00
54.4341 650.00
54.4993 725.00
54.5645 693.00
54.6297 738.00
54.6949 706.00
54.7601 792.00
54.8253 826.00
54.8905 1023.00
54.9557 1279.00
55.0209 2072.00
55.0861 4558.00
55.1513 7096.00
55.2165 3767.00
55.2817 3845.00
55.3469 2186.00
55.4121 1009.00
55.4773 816.00
55.5425 722.00
55.6077 715.00
55.6729 706.00
55.7381 666.00
55.8033 679.00
55.8685 718.00
55.9337 779.00
55.9989 955.00
56.0641 1454.00
56.1293 2295.00
56.1945 1724.00
56.2597 1462.00
56.3249 1281.00
56.3901 793.00
56.4553 763.00
56.5205 718.00
56.5857 722.00
56.6509 643.00
56.7161 661.00
56.7813 643.00
56.8465 675.00
56.9117 632.00
56.9769 624.00
57.042 605.00
57.1073 679.00
57.1724 626.00
57.2376 684.00
57.3028 647.00
57.368 659.00
57.4332 713.00
57.4984 693.00
57.5636 806.00
57.6288 1102.00
57.694 960.00
57.7592 855.00
57.8244 860.00
57.8896 722.00
57.9548 673.00
58.02 679.00
58.0852 674.00
58.1504 666.00
58.2156 615.00
58.2808 695.00
58.346 737.00
58.4112 757.00
58.4764 836.00
58.5416 982.00
58.6068 1274.00
58.672 2260.00
58.7372 4057.00
58.8024 3157.00
58.8676 2317.00
58.9328 2487.00
58.998 1443.00
59.0632 1032.00
59.1284 900.00
59.1936 828.00
59.2588 733.00
59.324 778.00
59.3892 726.00
59.4544 717.00
59.5196 668.00
59.5848 664.00
59.65 714.00
59.7152 714.00
59.7804 737.00
59.8456 785.00
59.9108 1030.00
59.976 1213.00
60.0412 1684.00
60.1064 2090.00
60.1716 3489.00
60.2368 4249.00
60.302 2373.00
60.3672 2769.00
60.4324 2049.00
60.4976 1523.00
60.5628 2090.00
60.628 4035.00
60.6932 6727.00
60.7584 4542.00
60.8236 3292.00
60.8888 3602.00
60.954 1480.00
61.0192 991.00
61.0844 867.00
61.1496 718.00
61.2148 714.00
61.28 689.00
61.3452 688.00
61.4104 722.00
61.4756 733.00
61.5408 767.00
61.606 893.00
61.6712 1337.00
61.7364 1540.00
61.8016 1340.00
61.8667 1682.00
61.932 2102.00
61.9971 1424.00
62.0623 1387.00
62.1275 1603.00
62.1927 1745.00
62.2579 1263.00
62.3231 1048.00
62.3883 1108.00
62.4535 778.00
62.5187 712.00
62.5839 653.00
62.6491 657.00
62.7143 645.00
62.7795 629.00
62.8447 702.00
62.9099 657.00
62.9751 681.00
63.0403 687.00
63.1055 709.00
63.1707 684.00
63.2359 737.00
63.3011 777.00
63.3663 1011.00
63.4315 1757.00
63.4967 2518.00
63.5619 1595.00
63.6271 1413.00
63.6923 1498.00
63.7575 921.00
63.8227 707.00
63.8879 680.00
63.9531 652.00
64.0183 639.00
64.0835 660.00
64.1487 665.00
64.2139 742.00
64.2791 695.00
64.3443 742.00
64.4095 776.00
64.4747 935.00
64.5399 1069.00
64.6051 1483.00
64.6703 2698.00
64.7355 5071.00
64.8007 3786.00
64.8659 2409.00
64.9311 3101.00
64.9963 1665.00
65.0615 948.00
65.1267 801.00
65.1919 812.00
65.2571 726.00
65.3223 713.00
65.3875 745.00
65.4527 742.00
65.5179 827.00
65.5831 1101.00
65.6483 1549.00
65.7135 1593.00
65.7787 1787.00
65.8439 1382.00
65.9091 1262.00
65.9743 1255.00
66.0395 982.00
66.1047 976.00
66.1699 1013.00
66.2351 1070.00
66.3003 1253.00
66.3655 1569.00
66.4307 2293.00
66.4959 4619.00
66.561 7067.00
66.6263 6198.00
66.6915 3886.00
66.7566 4113.00
66.8218 2814.00
66.887 1306.00
66.9522 1084.00
67.0174 952.00
67.0826 937.00
67.1478 792.00
67.213 752.00
67.2782 807.00
67.3434 736.00
67.4086 677.00
67.4738 693.00
67.539 706.00
67.6042 653.00
67.6694 645.00
67.7346 608.00
67.7998 650.00
67.865 717.00
67.9302 789.00
67.9954 936.00
68.0606 1149.00
68.1258 1069.00
68.191 852.00
68.2562 880.00
68.3214 768.00
68.3866 715.00
68.4518 645.00
68.517 597.00
68.5822 594.00
68.6474 624.00
68.7126 616.00
68.7778 651.00
68.843 691.00
68.9082 731.00
68.9734 777.00
69.0386 804.00
69.1038 987.00
69.169 1534.00
69.2342 2421.00
69.2994 2436.00
69.3646 2195.00
69.4298 2524.00
69.495 2053.00
69.5602 1935.00
69.6254 2401.00
69.6906 1888.00
69.7558 2096.00
69.821 3157.00
69.8862 2957.00
69.9514 1589.00
70.0166 1737.00
70.0818 1597.00
70.147 985.00
70.2122 840.00
70.2774 810.00
70.3426 755.00
70.4078 790.00
70.473 756.00
70.5382 748.00
70.6034 774.00
70.6686 808.00
70.7338 809.00
70.799 950.00
70.8642 1231.00
70.9294 2282.00
70.9946 3339.00
71.0598 2135.00
71.125 1698.00
71.1902 2159.00
71.2554 1634.00
71.3205 969.00
71.3858 824.00
71.451 832.00
71.5162 829.00
71.5813 699.00
71.6465 679.00
71.7117 694.00
71.7769 672.00
71.8421 596.00
71.9073 572.00
71.9725 603.00
72.0377 639.00
72.1029 562.00
72.1681 632.00
72.2333 615.00
72.2985 559.00
72.3637 599.00
72.4289 552.00
72.4941 509.00
72.5593 582.00
72.6245 573.00
72.6897 577.00
72.7549 576.00
72.8201 593.00
72.8853 585.00
72.9505 581.00
73.0157 635.00
73.0809 648.00
73.1461 589.00
73.2113 599.00
73.2765 633.00
73.3417 659.00
73.4069 692.00
73.4721 815.00
73.5373 1028.00
73.6025 1569.00
73.6677 1696.00
73.7329 1742.00
73.7981 2110.00
73.8633 1525.00
73.9285 1287.00
73.9937 1275.00
74.0589 925.00
74.1241 680.00
74.1893 730.00
74.2545 663.00
74.3197 615.00
74.3849 593.00
74.4501 580.00
74.5153 563.00
74.5805 569.00
74.6457 569.00
74.7109 590.00
74.7761 579.00
74.8413 599.00
74.9065 602.00
74.9717 605.00
75.0369 729.00
75.1021 929.00
75.1673 957.00
75.2325 838.00
75.2977 932.00
75.3629 1215.00
75.4281 1024.00
75.4933 885.00
75.5585 912.00
75.6237 929.00
75.6889 956.00
75.7541 1150.00
75.8193 1276.00
75.8845 928.00
75.9497 862.00
76.0149 906.00
76.0801 795.00
76.1452 642.00
76.2104 631.00
76.2756 648.00
76.3409 618.00
76.406 609.00
76.4712 639.00
76.5364 593.00
76.6016 619.00
76.6668 633.00
76.732 754.00
76.7972 882.00
76.8624 849.00
76.9276 707.00
76.9928 682.00
77.058 708.00
77.1232 621.00
77.1884 620.00
77.2536 593.00
77.3188 577.00
77.384 637.00
77.4492 626.00
77.5144 622.00
77.5796 649.00
77.6448 691.00
77.71 704.00
77.7752 755.00
77.8404 896.00
77.9056 1190.00
77.9708 1821.00
78.036 2769.00
78.1012 2385.00
78.1664 1391.00
78.2316 1615.00
78.2968 1844.00
78.362 1069.00
78.4272 804.00
78.4924 765.00
78.5576 740.00
78.6228 694.00
78.688 738.00
78.7532 805.00
78.8184 707.00
78.8836 680.00
78.9488 655.00
79.014 681.00
79.0792 634.00
79.1444 638.00
79.2096 672.00
79.2748 696.00
79.34 917.00
79.4052 1140.00
79.4704 1307.00
79.5356 1897.00
79.6008 2116.00
79.666 1376.00
79.7312 1240.00
79.7964 1513.00
79.8616 1195.00
79.9268 867.00
79.992 945.00
80.0572 999.00
80.1224 966.00
80.1876 896.00
80.2528 970.00
80.318 1340.00
80.3832 1409.00
80.4484 1078.00
80.5136 864.00
80.5788 969.00
80.644 898.00
80.7092 716.00
80.7744 658.00
80.8396 642.00
80.9048 704.00
80.9699 827.00
81.0351 784.00
81.1003 655.00
81.1655 650.00
81.2307 624.00
81.2959 617.00
81.3611 599.00
81.4263 549.00
81.4915 591.00
81.5567 562.00
81.6219 551.00
81.6871 575.00
81.7523 570.00
81.8175 610.00
81.8827 573.00
81.9479 549.00
82.0131 659.00
82.0783 686.00
82.1435 655.00
82.2087 673.00
82.2739 625.00
82.3391 707.00
82.4043 675.00
82.4695 750.00
82.5347 893.00
82.5999 1272.00
82.6651 1775.00
82.7303 1588.00
82.7955 1165.00
82.8607 1305.00
82.9259 1852.00
82.9911 1558.00
83.0563 989.00
83.1215 881.00
83.1867 965.00
83.2519 876.00
83.3171 637.00
83.3823 589.00
83.4475 603.00
83.5127 589.00
83.5779 565.00
83.6431 653.00
83.7083 649.00
83.7735 681.00
83.8387 736.00
83.9039 892.00
83.9691 1009.00
84.0343 832.00
84.0995 682.00
84.1647 760.00
84.2299 850.00
84.2951 669.00
84.3603 604.00
84.4255 627.00
84.4907 738.00
84.5559 855.00
84.6211 1016.00
84.6863 1109.00
84.7515 809.00
84.8167 821.00
84.8819 983.00
84.9471 1138.00
85.0123 911.00
85.0775 727.00
85.1427 691.00
85.2079 758.00
85.2731 756.00
85.3383 640.00
85.4035 622.00
85.4687 554.00
85.5339 541.00
85.5991 587.00
85.6643 578.00
85.7295 601.00
85.7946 583.00
85.8598 584.00
85.925 536.00
85.9903 605.00
86.0554 591.00
86.1206 619.00
86.1858 693.00
86.251 899.00
86.3162 926.00
86.3814 864.00
86.4466 909.00
86.5118 743.00
86.577 860.00
86.6422 806.00
86.7074 961.00
86.7726 1186.00
86.8378 1456.00
86.903 1210.00
86.9682 873.00
87.0334 845.00
87.0986 1020.00
87.1638 927.00
87.229 741.00
87.2942 679.00
87.3594 608.00
87.4246 664.00
87.4898 641.00
87.555 651.00
87.6202 701.00
87.6854 772.00
87.7506 929.00
87.8158 1207.00
87.881 2041.00
87.9462 2251.00
88.0114 1566.00
88.0766 1188.00
88.1418 1431.00
88.207 1579.00
88.2722 1095.00
88.3374 785.00
88.4026 720.00
88.4678 716.00
88.533 615.00
88.5982 572.00
88.6634 623.00
88.7286 577.00
88.7938 558.00
88.859 587.00
88.9242 557.00
88.9894 538.00
89.0546 570.00
89.1198 532.00
89.185 570.00
89.2502 554.00
89.3154 628.00
89.3806 640.00
89.4458 592.00
89.511 591.00
89.5762 579.00
89.6414 562.00
89.7066 555.00
89.7718 568.00
89.837 549.00
89.9022 505.00
89.9674 553.00
90.0326 578.00
90.0978 602.00
90.163 569.00
90.2282 572.00
90.2934 612.00
90.3586 648.00
90.4238 687.00
90.489 628.00
90.5542 598.00
90.6193 592.00
90.6845 633.00
90.7497 577.00
90.8149 568.00
90.8801 550.00
90.9453 557.00
91.0105 524.00
91.0757 612.00
91.1409 600.00
91.2061 662.00
91.2713 705.00
91.3365 723.00
91.4017 659.00
91.4669 676.00
91.5321 703.00
91.5973 657.00
91.6625 602.00
91.7277 591.00
91.7929 706.00
91.8581 729.00
91.9233 857.00
91.9885 1057.00
92.0537 1532.00
92.1189 1934.00
92.1841 1383.00
92.2493 1024.00
92.3145 1091.00
92.3797 1246.00
92.4449 1293.00
92.5101 944.00
92.5753 766.00
92.6405 763.00
92.7057 840.00
92.7709 1083.00
92.8361 1467.00
92.9013 1629.00
92.9665 1404.00
93.0317 1120.00
93.0969 1105.00
93.1621 1231.00
93.2273 1340.00
93.2925 1162.00
93.3577 1278.00
93.4229 1792.00
93.4881 1963.00
93.5533 1410.00
93.6185 1014.00
93.6837 1061.00
93.7489 1310.00
93.8141 1218.00
93.8793 842.00
93.9445 661.00
94.0097 569.00
94.0749 583.00
94.1401 598.00
94.2053 537.00
94.2705 534.00
94.3357 568.00
94.4009 541.00
94.4661 610.00
94.5313 627.00
94.5965 682.00
94.6617 804.00
94.7269 868.00
94.7921 697.00
94.8573 761.00
94.9225 858.00
94.9877 830.00
95.0529 801.00
95.1181 662.00
95.1833 624.00
95.2485 686.00
95.3137 633.00
95.3789 641.00
95.444 663.00
95.5092 653.00
95.5744 626.00
95.6396 543.00
95.7048 573.00
95.77 589.00
95.8352 639.00
95.9004 628.00
95.9656 640.00
96.0308 655.00
96.096 718.00
96.1612 912.00
96.2264 1024.00
96.2916 779.00
96.3568 870.00
96.422 895.00
96.4872 830.00
96.5524 884.00
96.6176 825.00
96.6828 943.00
96.748 911.00
96.8132 712.00
96.8784 721.00
96.9436 760.00
97.0088 884.00
97.074 895.00
97.1392 783.00
97.2044 629.00
97.2696 587.00
97.3348 702.00
97.4 681.00
97.4652 655.00
97.5304 586.00
97.5956 575.00
97.6608 574.00
97.726 549.00
97.7912 508.00
97.8564 563.00
97.9216 573.00
97.9868 558.00
98.052 560.00
98.1172 596.00
98.1824 604.00
98.2476 550.00
98.3128 639.00
98.378 625.00
98.4432 622.00
98.5084 707.00
98.5736 787.00
98.6388 1110.00
98.704 1561.00
98.7692 1898.00
98.8344 1259.00
98.8996 859.00
98.9648 913.00
99.03 1085.00
99.0952 1241.00
99.1604 1059.00
99.2256 915.00
99.2908 1041.00
99.356 915.00
99.4212 757.00
99.4864 706.00
99.5516 762.00
99.6168 794.00
99.682 701.00
99.7472 711.00
99.8124 625.00
99.8776 587.00
99.9428 600.00
100.008 644.00
100.073 671.00
100.095 595.00