File: data/xrd_creation/results/NSC_74.xy
9.903433 2745.00
9.968632 2714.00
10.0338 2725.00
10.099 2662.00
10.1642 2539.00
10.2294 2627.00
10.2946 2699.00
10.3598 2763.00
10.425 2886.00
10.4902 2788.00
10.5554 2582.00
10.6206 2473.00
10.6858 2449.00
10.751 2387.00
10.8162 2459.00
10.8814 2461.00
10.9466 2419.00
11.0118 2373.00
11.077 2308.00
11.1422 2223.00
11.2074 2301.00
11.2726 2240.00
11.3378 2193.00
11.403 2248.00
11.4682 2141.00
11.5334 2156.00
11.5986 2042.00
11.6638 2102.00
11.729 2113.00
11.7942 2032.00
11.8594 2031.00
11.9246 1951.00
11.9898 2049.00
12.055 1954.00
12.1202 1948.00
12.1854 1941.00
12.2506 1990.00
12.3158 1943.00
12.381 1878.00
12.4462 1902.00
12.5114 1909.00
12.5766 1873.00
12.6418 1790.00
12.707 1868.00
12.7722 1914.00
12.8374 1903.00
12.9026 1984.00
12.9678 2039.00
13.033 2106.00
13.0982 1974.00
13.1634 1840.00
13.2286 1750.00
13.2938 1677.00
13.359 1678.00
13.4242 1854.00
13.4894 1661.00
13.5546 1652.00
13.6198 1634.00
13.685 1600.00
13.7502 1658.00
13.8154 1587.00
13.8805 1633.00
13.9457 1574.00
14.0109 1641.00
14.0761 1643.00
14.1413 1602.00
14.2065 1544.00
14.2717 1565.00
14.3369 1550.00
14.4021 1496.00
14.4673 1564.00
14.5325 1530.00
14.5977 1565.00
14.6629 1507.00
14.7281 1501.00
14.7933 1456.00
14.8585 1503.00
14.9237 1526.00
14.9889 1467.00
15.0541 1579.00
15.1193 1505.00
15.1845 1466.00
15.2497 1401.00
15.3149 1465.00
15.3801 1494.00
15.4453 1415.00
15.5105 1436.00
15.5757 1468.00
15.6409 1415.00
15.7061 1461.00
15.7713 1553.00
15.8365 1415.00
15.9017 1438.00
15.9669 1479.00
16.0321 1390.00
16.0973 1383.00
16.1625 1406.00
16.2277 1399.00
16.2929 1334.00
16.3581 1323.00
16.4233 1414.00
16.4885 1329.00
16.5537 1339.00
16.6189 1326.00
16.6841 1307.00
16.7493 1357.00
16.8145 1366.00
16.8797 1303.00
16.9449 1400.00
17.0101 1300.00
17.0753 1342.00
17.1405 1362.00
17.2057 1276.00
17.2709 1353.00
17.3361 1267.00
17.4013 1306.00
17.4665 1275.00
17.5317 1367.00
17.5969 1275.00
17.6621 1295.00
17.7273 1252.00
17.7925 1244.00
17.8577 1225.00
17.9229 1281.00
17.9881 1201.00
18.0533 1192.00
18.1185 1184.00
18.1837 1210.00
18.2489 1235.00
18.3141 1181.00
18.3793 1245.00
18.4445 1162.00
18.5097 1190.00
18.5749 1124.00
18.6401 1178.00
18.7052 1147.00
18.7704 1240.00
18.8356 1198.00
18.9008 1175.00
18.966 1169.00
19.0312 1234.00
19.0964 1161.00
19.1616 1166.00
19.2268 1156.00
19.292 1103.00
19.3572 1086.00
19.4224 1194.00
19.4876 1208.00
19.5528 1187.00
19.618 1186.00
19.6832 1165.00
19.7484 1218.00
19.8136 1312.00
19.8788 1366.00
19.944 1375.00
20.0092 1392.00
20.0744 1274.00
20.1396 1225.00
20.2048 1228.00
20.27 1168.00
20.3352 1158.00
20.4004 1191.00
20.4656 1280.00
20.5308 1378.00
20.596 1623.00
20.6612 1897.00
20.7264 2689.00
20.7916 3983.00
20.8568 5486.00
20.922 6045.00
20.9872 5076.00
21.0524 4068.00
21.1176 3711.00
21.1828 2844.00
21.248 1840.00
21.3132 1346.00
21.3784 1171.00
21.4436 1117.00
21.5088 1093.00
21.574 1111.00
21.6392 1145.00
21.7044 1036.00
21.7696 1025.00
21.8348 1030.00
21.9 1015.00
21.9652 1047.00
22.0304 1039.00
22.0956 1048.00
22.1608 1030.00
22.226 1025.00
22.2912 1037.00
22.3564 1022.00
22.4216 1112.00
22.4868 1160.00
22.552 1333.00
22.6172 1344.00
22.6824 1302.00
22.7476 1198.00
22.8128 1143.00
22.878 1009.00
22.9432 1001.00
23.0084 1072.00
23.0736 1004.00
23.1388 1039.00
23.204 1157.00
23.2692 1149.00
23.3344 1136.00
23.3996 1109.00
23.4647 1106.00
23.5299 1024.00
23.5951 1045.00
23.6603 939.00
23.7255 924.00
23.7907 912.00
23.8559 960.00
23.9211 970.00
23.9863 973.00
24.0515 957.00
24.1167 968.00
24.1819 923.00
24.2471 876.00
24.3123 905.00
24.3775 906.00
24.4427 947.00
24.5079 918.00
24.5731 893.00
24.6383 859.00
24.7035 856.00
24.7687 915.00
24.8339 898.00
24.8991 925.00
24.9643 960.00
25.0295 1121.00
25.0947 1170.00
25.1599 1155.00
25.2251 973.00
25.2903 982.00
25.3555 888.00
25.4207 866.00
25.4859 990.00
25.5511 957.00
25.6163 941.00
25.6815 855.00
25.7467 851.00
25.8119 897.00
25.8771 925.00
25.9423 889.00
26.0075 855.00
26.0727 849.00
26.1379 887.00
26.2031 852.00
26.2683 807.00
26.3335 840.00
26.3987 814.00
26.4639 872.00
26.5291 859.00
26.5943 864.00
26.6595 853.00
26.7247 893.00
26.7899 746.00
26.8551 795.00
26.9203 811.00
26.9855 780.00
27.0507 738.00
27.1159 788.00
27.1811 803.00
27.2463 726.00
27.3115 821.00
27.3767 764.00
27.4419 776.00
27.5071 825.00
27.5723 826.00
27.6375 764.00
27.7027 780.00
27.7679 769.00
27.8331 785.00
27.8983 757.00
27.9635 765.00
28.0287 757.00
28.0939 753.00
28.1591 768.00
28.2243 703.00
28.2894 763.00
28.3546 764.00
28.4198 752.00
28.485 777.00
28.5502 759.00
28.6154 722.00
28.6806 786.00
28.7458 779.00
28.811 797.00
28.8762 730.00
28.9414 736.00
29.0066 718.00
29.0718 766.00
29.137 840.00
29.2022 816.00
29.2674 800.00
29.3326 775.00
29.3978 756.00
29.463 761.00
29.5282 710.00
29.5934 724.00
29.6586 728.00
29.7238 703.00
29.789 710.00
29.8542 729.00
29.9194 785.00
29.9846 730.00
30.0498 702.00
30.115 783.00
30.1802 726.00
30.2454 746.00
30.3106 737.00
30.3758 772.00
30.441 705.00
30.5062 749.00
30.5714 696.00
30.6366 697.00
30.7018 678.00
30.767 695.00
30.8322 727.00
30.8974 703.00
30.9626 680.00
31.0278 654.00
31.093 707.00
31.1582 687.00
31.2234 696.00
31.2886 752.00
31.3538 706.00
31.419 775.00
31.4842 792.00
31.5494 759.00
31.6146 711.00
31.6798 787.00
31.745 798.00
31.8102 746.00
31.8754 737.00
31.9406 879.00
32.0058 844.00
32.071 928.00
32.1362 904.00
32.2014 919.00
32.2666 1135.00
32.3318 1256.00
32.397 1382.00
32.4622 1124.00
32.5274 967.00
32.5926 831.00
32.6578 751.00
32.723 736.00
32.7882 713.00
32.8534 659.00
32.9186 652.00
32.9838 720.00
33.0489 636.00
33.1141 625.00
33.1793 648.00
33.2445 622.00
33.3097 691.00
33.3749 592.00
33.4401 664.00
33.5053 659.00
33.5705 622.00
33.6357 648.00
33.7009 666.00
33.7661 629.00
33.8313 637.00
33.8965 611.00
33.9617 729.00
34.0269 742.00
34.0921 882.00
34.1573 1046.00
34.2225 1297.00
34.2877 1359.00
34.3529 1298.00
34.4181 1400.00
34.4833 1547.00
34.5485 1835.00
34.6137 2102.00
34.6789 2028.00
34.7441 1723.00
34.8093 1492.00
34.8745 1317.00
34.9397 1209.00
35.0049 1066.00
35.0701 927.00
35.1353 824.00
35.2005 753.00
35.2657 648.00
35.3309 610.00
35.3961 630.00
35.4613 617.00
35.5265 609.00
35.5917 639.00
35.6569 607.00
35.7221 651.00
35.7873 594.00
35.8525 615.00
35.9177 604.00
35.9829 632.00
36.0481 595.00
36.1133 605.00
36.1785 585.00
36.2437 538.00
36.3089 647.00
36.3741 581.00
36.4393 607.00
36.5045 620.00
36.5697 646.00
36.6349 537.00
36.7001 551.00
36.7653 522.00
36.8305 549.00
36.8957 516.00
36.9609 531.00
37.0261 544.00
37.0913 525.00
37.1565 536.00
37.2217 523.00
37.2869 519.00
37.3521 509.00
37.4173 508.00
37.4825 525.00
37.5477 513.00
37.6129 510.00
37.6781 561.00
37.7433 533.00
37.8085 560.00
37.8736 546.00
37.9388 635.00
38.004 581.00
38.0692 545.00
38.1344 544.00
38.1996 519.00
38.2648 552.00
38.33 523.00
38.3952 500.00
38.4604 468.00
38.5256 523.00
38.5908 510.00
38.656 479.00
38.7212 465.00
38.7864 494.00
38.8516 459.00
38.9168 466.00
38.982 473.00
39.0472 474.00
39.1124 465.00
39.1776 492.00
39.2428 447.00
39.308 463.00
39.3732 436.00
39.4384 432.00
39.5036 467.00
39.5688 487.00
39.634 472.00
39.6992 459.00
39.7644 472.00
39.8296 429.00
39.8948 489.00
39.96 539.00
40.0252 528.00
40.0904 600.00
40.1556 558.00
40.2208 606.00
40.286 549.00
40.3512 515.00
40.4164 559.00
40.4816 563.00
40.5468 647.00
40.612 609.00
40.6772 622.00
40.7424 598.00
40.8076 589.00
40.8728 589.00
40.938 483.00
41.0032 511.00
41.0684 451.00
41.1336 484.00
41.1988 448.00
41.264 478.00
41.3292 458.00
41.3944 421.00
41.4596 447.00
41.5248 413.00
41.59 427.00
41.6552 461.00
41.7204 447.00
41.7856 448.00
41.8508 443.00
41.916 439.00
41.9812 436.00
42.0464 486.00
42.1116 428.00
42.1768 456.00
42.242 492.00
42.3072 452.00
42.3724 486.00
42.4376 529.00
42.5028 510.00
42.568 515.00
42.6332 539.00
42.6983 562.00
42.7635 527.00
42.8287 572.00
42.8939 488.00
42.9591 519.00
43.0243 481.00
43.0895 481.00
43.1547 434.00
43.2199 456.00
43.2851 428.00
43.3503 437.00
43.4155 472.00
43.4807 416.00
43.5459 399.00
43.6111 460.00
43.6763 451.00
43.7415 457.00
43.8067 431.00
43.8719 440.00
43.9371 429.00
44.0023 422.00
44.0675 460.00
44.1327 482.00
44.1979 502.00
44.2631 474.00
44.3283 429.00
44.3935 445.00
44.4587 512.00
44.5239 539.00
44.5891 514.00
44.6543 475.00
44.7195 492.00
44.7847 481.00
44.8499 469.00
44.9151 432.00
44.9803 447.00
45.0455 417.00
45.1107 409.00
45.1759 438.00
45.2411 399.00
45.3063 377.00
45.3715 402.00
45.4367 371.00
45.5019 426.00
45.5671 398.00
45.6323 428.00
45.6975 402.00
45.7627 377.00
45.8279 371.00
45.8931 381.00
45.9583 411.00
46.0235 416.00
46.0887 422.00
46.1539 427.00
46.2191 449.00
46.2843 480.00
46.3495 526.00
46.4147 500.00
46.4799 440.00
46.5451 486.00
46.6103 461.00
46.6755 451.00
46.7407 433.00
46.8059 394.00
46.8711 453.00
46.9363 354.00
47.0015 412.00
47.0667 357.00
47.1319 360.00
47.1971 370.00
47.2623 349.00
47.3275 382.00
47.3927 393.00
47.4579 388.00
47.523 400.00
47.5882 429.00
47.6534 402.00
47.7186 389.00
47.7838 401.00
47.849 419.00
47.9142 438.00
47.9794 445.00
48.0446 441.00
48.1098 403.00
48.175 405.00
48.2402 404.00
48.3054 395.00
48.3706 363.00
48.4358 402.00
48.501 398.00
48.5662 404.00
48.6314 416.00
48.6966 406.00
48.7618 382.00
48.827 393.00
48.8922 373.00
48.9574 420.00
49.0226 394.00
49.0878 424.00
49.153 395.00
49.2182 377.00
49.2834 431.00
49.3486 447.00
49.4138 436.00
49.479 383.00
49.5442 404.00
49.6094 366.00
49.6746 362.00
49.7398 411.00
49.805 414.00
49.8702 485.00
49.9354 488.00
50.0006 447.00
50.0658 460.00
50.131 513.00
50.1962 493.00
50.2614 468.00
50.3266 450.00
50.3918 472.00
50.457 489.00
50.5222 420.00
50.5874 379.00
50.6526 420.00
50.7178 369.00
50.783 346.00
50.8482 370.00
50.9134 399.00
50.9786 317.00
51.0438 359.00
51.109 336.00
51.1742 355.00
51.2394 339.00
51.3046 312.00
51.3698 384.00
51.435 352.00
51.5002 310.00
51.5654 363.00
51.6306 351.00
51.6958 366.00
51.761 367.00
51.8262 369.00
51.8914 392.00
51.9566 386.00
52.0218 417.00
52.087 407.00
52.1522 396.00
52.2174 409.00
52.2826 450.00
52.3477 410.00
52.4129 473.00
52.4781 453.00
52.5433 388.00
52.6085 415.00
52.6737 405.00
52.7389 394.00
52.8041 361.00
52.8693 341.00
52.9345 326.00
52.9997 337.00
53.0649 358.00
53.1301 369.00
53.1953 361.00
53.2605 345.00
53.3257 380.00
53.3909 352.00
53.4561 368.00
53.5213 388.00
53.5865 389.00
53.6517 383.00
53.7169 379.00
53.7821 328.00
53.8473 328.00
53.9125 364.00
53.9777 358.00
54.0429 343.00
54.1081 408.00
54.1733 407.00
54.2385 371.00
54.3037 361.00
54.3689 361.00
54.4341 356.00
54.4993 333.00
54.5645 407.00
54.6297 385.00
54.6949 371.00
54.7601 398.00
54.8253 361.00
54.8905 393.00
54.9557 370.00
55.0209 326.00
55.0861 348.00
55.1513 353.00
55.2165 329.00
55.2817 316.00
55.3469 328.00
55.4121 302.00
55.4773 288.00
55.5425 356.00
55.6077 327.00
55.6729 352.00
55.7381 366.00
55.8033 306.00
55.8685 333.00
55.9337 342.00
55.9989 360.00
56.0641 360.00
56.1293 332.00
56.1945 329.00
56.2597 318.00
56.3249 302.00
56.3901 307.00
56.4553 341.00
56.5205 326.00
56.5857 318.00
56.6509 327.00
56.7161 364.00
56.7813 322.00
56.8465 332.00
56.9117 305.00
56.9769 329.00
57.042 292.00
57.1073 349.00
57.1724 322.00
57.2376 363.00
57.3028 352.00
57.368 350.00
57.4332 381.00
57.4984 376.00
57.5636 321.00
57.6288 374.00
57.694 371.00
57.7592 375.00
57.8244 403.00
57.8896 398.00
57.9548 383.00
58.02 405.00
58.0852 392.00
58.1504 335.00
58.2156 342.00
58.2808 316.00
58.346 290.00
58.4112 278.00
58.4764 292.00
58.5416 296.00
58.6068 272.00
58.672 294.00
58.7372 286.00
58.8024 320.00
58.8676 265.00
58.9328 288.00
58.998 297.00
59.0632 304.00
59.1284 286.00
59.1936 265.00
59.2588 268.00
59.324 317.00
59.3892 297.00
59.4544 294.00
59.5196 300.00
59.5848 300.00
59.65 336.00
59.7152 314.00
59.7804 315.00
59.8456 316.00
59.9108 284.00
59.976 317.00
60.0412 320.00
60.1064 324.00
60.1716 352.00
60.2368 364.00
60.302 355.00
60.3672 299.00
60.4324 331.00
60.4976 307.00
60.5628 318.00
60.628 327.00
60.6932 308.00
60.7584 319.00
60.8236 321.00
60.8888 292.00
60.954 292.00
61.0192 283.00
61.0844 306.00
61.1496 259.00
61.2148 305.00
61.28 287.00
61.3452 299.00
61.4104 312.00
61.4756 304.00
61.5408 299.00
61.606 331.00
61.6712 323.00
61.7364 371.00
61.8016 360.00
61.8667 402.00
61.932 357.00
61.9971 381.00
62.0623 416.00
62.1275 414.00
62.1927 420.00
62.2579 427.00
62.3231 415.00
62.3883 419.00
62.4535 389.00
62.5187 384.00
62.5839 377.00
62.6491 320.00
62.7143 376.00
62.7795 373.00
62.8447 345.00
62.9099 332.00
62.9751 296.00
63.0403 291.00
63.1055 312.00
63.1707 308.00
63.2359 291.00
63.3011 274.00
63.3663 271.00
63.4315 249.00
63.4967 279.00
63.5619 318.00
63.6271 308.00
63.6923 259.00
63.7575 309.00
63.8227 262.00
63.8879 277.00
63.9531 277.00
64.0183 277.00
64.0835 291.00
64.1487 282.00
64.2139 274.00
64.2791 287.00
64.3443 302.00
64.4095 320.00
64.4747 310.00
64.5399 277.00
64.6051 286.00
64.6703 258.00
64.7355 278.00
64.8007 249.00
64.8659 297.00
64.9311 275.00
64.9963 234.00
65.0615 239.00
65.1267 286.00
65.1919 281.00
65.2571 285.00
65.3223 273.00
65.3875 258.00
65.4527 270.00
65.5179 259.00
65.5831 242.00
65.6483 278.00
65.7135 273.00
65.7787 259.00
65.8439 275.00
65.9091 298.00
65.9743 269.00
66.0395 295.00
66.1047 273.00
66.1699 298.00
66.2351 300.00
66.3003 294.00
66.3655 294.00
66.4307 293.00
66.4959 308.00
66.561 260.00
66.6263 284.00
66.6915 261.00
66.7566 263.00
66.8218 263.00
66.887 282.00
66.9522 268.00
67.0174 299.00
67.0826 294.00
67.1478 298.00
67.213 300.00
67.2782 267.00
67.3434 292.00
67.4086 245.00
67.4738 279.00
67.539 269.00
67.6042 277.00
67.6694 258.00
67.7346 275.00
67.7998 317.00
67.865 307.00
67.9302 301.00
67.9954 294.00
68.0606 264.00
68.1258 266.00
68.191 241.00
68.2562 270.00
68.3214 263.00
68.3866 249.00
68.4518 232.00
68.517 268.00
68.5822 237.00
68.6474 245.00
68.7126 267.00
68.7778 272.00
68.843 239.00
68.9082 279.00
68.9734 238.00
69.0386 264.00
69.1038 259.00
69.169 234.00
69.2342 313.00
69.2994 274.00
69.3646 276.00
69.4298 264.00
69.495 240.00
69.5602 293.00
69.6254 276.00
69.6906 260.00
69.7558 211.00
69.821 269.00
69.8862 299.00
69.9514 262.00
70.0166 237.00
70.0818 289.00
70.147 233.00
70.2122 275.00
70.2774 223.00
70.3426 268.00
70.4078 234.00
70.473 210.00
70.5382 210.00
70.6034 241.00
70.6686 222.00
70.7338 215.00
70.799 239.00
70.8642 250.00
70.9294 265.00
70.9946 238.00
71.0598 270.00
71.125 240.00
71.1902 248.00
71.2554 262.00
71.3205 263.00
71.3858 203.00
71.451 235.00
71.5162 220.00
71.5813 230.00
71.6465 279.00
71.7117 263.00
71.7769 233.00
71.8421 268.00
71.9073 278.00
71.9725 276.00
72.0377 229.00
72.1029 269.00
72.1681 240.00
72.2333 263.00
72.2985 272.00
72.3637 264.00
72.4289 268.00
72.4941 273.00
72.5593 306.00
72.6245 276.00
72.6897 293.00
72.7549 266.00
72.8201 259.00
72.8853 268.00
72.9505 287.00
73.0157 282.00
73.0809 274.00
73.1461 271.00
73.2113 304.00
73.2765 299.00
73.3417 279.00
73.4069 248.00
73.4721 245.00
73.5373 266.00
73.6025 268.00
73.6677 274.00
73.7329 288.00
73.7981 264.00
73.8633 243.00
73.9285 269.00
73.9937 223.00
74.0589 263.00
74.1241 258.00
74.1893 259.00
74.2545 242.00
74.3197 271.00
74.3849 242.00
74.4501 229.00
74.5153 278.00
74.5805 248.00
74.6457 291.00
74.7109 276.00
74.7761 232.00
74.8413 243.00
74.9065 232.00
74.9717 251.00
75.0369 266.00
75.1021 222.00
75.1673 219.00
75.2325 241.00
75.2977 231.00
75.3629 214.00
75.4281 268.00
75.4933 262.00
75.5585 242.00
75.6237 247.00
75.6889 265.00
75.7541 241.00
75.8193 280.00
75.8845 208.00
75.9497 304.00
76.0149 239.00
76.0801 246.00
76.1452 238.00
76.2104 267.00
76.2756 260.00
76.3409 262.00
76.406 228.00
76.4712 276.00
76.5364 281.00
76.6016 266.00
76.6668 260.00
76.732 286.00
76.7972 295.00
76.8624 271.00
76.9276 289.00
76.9928 290.00
77.058 265.00
77.1232 301.00
77.1884 267.00
77.2536 282.00
77.3188 280.00
77.384 293.00
77.4492 291.00
77.5144 323.00
77.5796 308.00
77.6448 303.00
77.71 272.00
77.7752 249.00
77.8404 284.00
77.9056 263.00
77.9708 275.00
78.036 243.00
78.1012 279.00
78.1664 272.00
78.2316 259.00
78.2968 221.00
78.362 249.00
78.4272 266.00
78.4924 242.00
78.5576 232.00
78.6228 234.00
78.688 248.00
78.7532 320.00
78.8184 247.00
78.8836 257.00
78.9488 279.00
79.014 277.00
79.0792 261.00
79.1444 270.00
79.2096 260.00
79.2748 282.00
79.34 220.00
79.4052 276.00
79.4704 262.00
79.5356 283.00
79.6008 222.00
79.666 238.00
79.7312 262.00
79.7964 208.00
79.8616 226.00
79.9268 247.00
79.992 242.00
80.0572 259.00
80.1224 223.00
80.1876 273.00
80.2528 279.00
80.318 241.00
80.3832 274.00
80.4484 263.00
80.5136 238.00
80.5788 265.00
80.644 250.00
80.7092 293.00
80.7744 260.00
80.8396 247.00
80.9048 258.00
80.9699 270.00
81.0351 288.00
81.1003 278.00
81.1655 233.00
81.2307 276.00
81.2959 258.00
81.3611 272.00
81.4263 241.00
81.4915 264.00
81.5567 243.00
81.6219 240.00
81.6871 267.00
81.7523 245.00
81.8175 276.00
81.8827 274.00
81.9479 290.00
82.0131 265.00
82.0783 272.00
82.1435 282.00
82.2087 229.00
82.2739 262.00
82.3391 245.00
82.4043 212.00
82.4695 234.00
82.5347 264.00
82.5999 242.00
82.6651 228.00
82.7303 258.00
82.7955 272.00
82.8607 269.00
82.9259 249.00
82.9911 232.00
83.0563 280.00
83.1215 268.00
83.1867 235.00
83.2519 286.00
83.3171 269.00
83.3823 238.00
83.4475 263.00
83.5127 263.00
83.5779 264.00
83.6431 279.00
83.7083 290.00
83.7735 272.00
83.8387 271.00
83.9039 241.00
83.9691 305.00
84.0343 299.00
84.0995 266.00
84.1647 272.00
84.2299 239.00
84.2951 303.00
84.3603 256.00
84.4255 281.00
84.4907 266.00
84.5559 256.00
84.6211 232.00
84.6863 288.00
84.7515 286.00
84.8167 257.00
84.8819 275.00
84.9471 279.00
85.0123 274.00
85.0775 248.00
85.1427 238.00
85.2079 269.00
85.2731 230.00
85.3383 265.00
85.4035 240.00
85.4687 237.00
85.5339 264.00
85.5991 247.00
85.6643 210.00
85.7295 266.00
85.7946 229.00
85.8598 269.00
85.925 246.00
85.9903 237.00
86.0554 229.00
86.1206 257.00
86.1858 219.00
86.251 216.00
86.3162 219.00
86.3814 237.00
86.4466 203.00
86.5118 277.00
86.577 258.00
86.6422 269.00
86.7074 229.00
86.7726 207.00
86.8378 240.00
86.903 223.00
86.9682 231.00
87.0334 234.00
87.0986 247.00
87.1638 241.00
87.229 260.00
87.2942 213.00
87.3594 244.00
87.4246 247.00
87.4898 222.00
87.555 278.00
87.6202 213.00
87.6854 225.00
87.7506 271.00
87.8158 244.00
87.881 232.00
87.9462 256.00
88.0114 216.00
88.0766 204.00
88.1418 262.00
88.207 239.00
88.2722 246.00
88.3374 249.00
88.4026 238.00
88.4678 238.00
88.533 244.00
88.5982 228.00
88.6634 227.00
88.7286 237.00
88.7938 203.00
88.859 240.00
88.9242 231.00
88.9894 232.00
89.0546 214.00
89.1198 242.00
89.185 256.00
89.2502 220.00
89.3154 200.00
89.3806 242.00
89.4458 229.00
89.511 220.00
89.5762 205.00
89.6414 226.00
89.7066 216.00
89.7718 233.00
89.837 236.00
89.9022 214.00
89.9674 218.00
90.0326 222.00
90.0978 223.00
90.163 228.00
90.2282 222.00
90.2934 237.00
90.3586 225.00
90.4238 228.00
90.489 246.00
90.5542 241.00
90.6193 232.00
90.6845 223.00
90.7497 257.00
90.8149 212.00
90.8801 222.00
90.9453 242.00
91.0105 214.00
91.0757 236.00
91.1409 240.00
91.2061 227.00
91.2713 220.00
91.3365 221.00
91.4017 197.00
91.4669 207.00
91.5321 217.00
91.5973 208.00
91.6625 220.00
91.7277 215.00
91.7929 208.00
91.8581 243.00
91.9233 205.00
91.9885 215.00
92.0537 200.00
92.1189 182.00
92.1841 215.00
92.2493 221.00
92.3145 185.00
92.3797 189.00
92.4449 211.00
92.5101 226.00
92.5753 218.00
92.6405 227.00
92.7057 208.00
92.7709 233.00
92.8361 244.00
92.9013 216.00
92.9665 208.00
93.0317 221.00
93.0969 248.00
93.1621 213.00
93.2273 211.00
93.2925 201.00
93.3577 230.00
93.4229 229.00
93.4881 183.00
93.5533 217.00
93.6185 209.00
93.6837 235.00
93.7489 221.00
93.8141 220.00
93.8793 236.00
93.9445 222.00
94.0097 203.00
94.0749 235.00
94.1401 218.00
94.2053 199.00
94.2705 235.00
94.3357 226.00
94.4009 234.00
94.4661 202.00
94.5313 241.00
94.5965 208.00
94.6617 203.00
94.7269 240.00
94.7921 238.00
94.8573 193.00
94.9225 218.00
94.9877 245.00
95.0529 221.00
95.1181 231.00
95.1833 265.00
95.2485 224.00
95.3137 237.00
95.3789 236.00
95.444 238.00
95.5092 259.00
95.5744 235.00
95.6396 262.00
95.7048 233.00
95.77 216.00
95.8352 228.00
95.9004 231.00
95.9656 234.00
96.0308 218.00
96.096 205.00
96.1612 224.00
96.2264 209.00
96.2916 211.00
96.3568 226.00
96.422 217.00
96.4872 217.00
96.5524 227.00
96.6176 211.00
96.6828 244.00
96.748 215.00
96.8132 218.00
96.8784 202.00
96.9436 210.00
97.0088 240.00
97.074 215.00
97.1392 192.00
97.2044 232.00
97.2696 219.00
97.3348 203.00
97.4 221.00
97.4652 226.00
97.5304 241.00
97.5956 221.00
97.6608 232.00
97.726 201.00
97.7912 224.00
97.8564 225.00
97.9216 199.00
97.9868 223.00
98.052 213.00
98.1172 201.00
98.1824 210.00
98.2476 223.00
98.3128 203.00
98.378 239.00
98.4432 219.00
98.5084 208.00
98.5736 213.00
98.6388 194.00
98.704 225.00
98.7692 205.00
98.8344 211.00
98.8996 212.00
98.9648 204.00
99.03 202.00
99.0952 244.00
99.1604 220.00
99.2256 216.00
99.2908 207.00
99.356 204.00
99.4212 234.00
99.4864 208.00
99.5516 212.00
99.6168 244.00
99.682 202.00
99.7472 192.00
99.8124 187.00
99.8776 210.00
99.9428 218.00
100.008 220.00
100.073 206.00
100.095 192.00