File: data/xrd_creation/results/NSC_60.xy
9.903433 2602.00
9.968632 2621.00
10.0338 2638.00
10.099 2654.00
10.1642 2535.00
10.2294 2535.00
10.2946 2589.00
10.3598 2493.00
10.425 2493.00
10.4902 2472.00
10.5554 2422.00
10.6206 2469.00
10.6858 2435.00
10.751 2317.00
10.8162 2309.00
10.8814 2293.00
10.9466 2380.00
11.0118 2257.00
11.077 2275.00
11.1422 2230.00
11.2074 2265.00
11.2726 2197.00
11.3378 2188.00
11.403 2216.00
11.4682 2185.00
11.5334 2104.00
11.5986 2027.00
11.6638 2069.00
11.729 2045.00
11.7942 2027.00
11.8594 2029.00
11.9246 2032.00
11.9898 2014.00
12.055 2013.00
12.1202 1948.00
12.1854 2028.00
12.2506 1902.00
12.3158 1857.00
12.381 1935.00
12.4462 1900.00
12.5114 1927.00
12.5766 1917.00
12.6418 1816.00
12.707 1814.00
12.7722 1781.00
12.8374 1799.00
12.9026 1794.00
12.9678 1741.00
13.033 1755.00
13.0982 1759.00
13.1634 1789.00
13.2286 1785.00
13.2938 1766.00
13.359 1670.00
13.4242 1724.00
13.4894 1737.00
13.5546 1747.00
13.6198 1812.00
13.685 1870.00
13.7502 2127.00
13.8154 2433.00
13.8805 2500.00
13.9457 2101.00
14.0109 1757.00
14.0761 1712.00
14.1413 1649.00
14.2065 1666.00
14.2717 1511.00
14.3369 1685.00
14.4021 1569.00
14.4673 1492.00
14.5325 1512.00
14.5977 1569.00
14.6629 1591.00
14.7281 1563.00
14.7933 1613.00
14.8585 1578.00
14.9237 1601.00
14.9889 1532.00
15.0541 1473.00
15.1193 1496.00
15.1845 1487.00
15.2497 1508.00
15.3149 1475.00
15.3801 1479.00
15.4453 1480.00
15.5105 1437.00
15.5757 1430.00
15.6409 1432.00
15.7061 1489.00
15.7713 1490.00
15.8365 1380.00
15.9017 1387.00
15.9669 1410.00
16.0321 1382.00
16.0973 1419.00
16.1625 1430.00
16.2277 1374.00
16.2929 1335.00
16.3581 1397.00
16.4233 1316.00
16.4885 1425.00
16.5537 1350.00
16.6189 1367.00
16.6841 1331.00
16.7493 1296.00
16.8145 1320.00
16.8797 1277.00
16.9449 1231.00
17.0101 1305.00
17.0753 1358.00
17.1405 1252.00
17.2057 1251.00
17.2709 1307.00
17.3361 1304.00
17.4013 1310.00
17.4665 1280.00
17.5317 1321.00
17.5969 1264.00
17.6621 1253.00
17.7273 1219.00
17.7925 1217.00
17.8577 1212.00
17.9229 1129.00
17.9881 1194.00
18.0533 1201.00
18.1185 1278.00
18.1837 1211.00
18.2489 1172.00
18.3141 1197.00
18.3793 1161.00
18.4445 1211.00
18.5097 1160.00
18.5749 1146.00
18.6401 1178.00
18.7052 1152.00
18.7704 1187.00
18.8356 1125.00
18.9008 1166.00
18.966 1231.00
19.0312 1316.00
19.0964 1487.00
19.1616 1777.00
19.2268 2569.00
19.292 3408.00
19.3572 3681.00
19.4224 2729.00
19.4876 1790.00
19.5528 1432.00
19.618 1289.00
19.6832 1239.00
19.7484 1354.00
19.8136 1416.00
19.8788 1684.00
19.944 2128.00
20.0092 3195.00
20.0744 4194.00
20.1396 3854.00
20.2048 2757.00
20.27 1744.00
20.3352 1440.00
20.4004 1272.00
20.4656 1202.00
20.5308 1234.00
20.596 1143.00
20.6612 1108.00
20.7264 1112.00
20.7916 1005.00
20.8568 1057.00
20.922 1068.00
20.9872 1077.00
21.0524 977.00
21.1176 988.00
21.1828 1055.00
21.248 1065.00
21.3132 1010.00
21.3784 1029.00
21.4436 1028.00
21.5088 1088.00
21.574 1051.00
21.6392 1134.00
21.7044 1071.00
21.7696 967.00
21.8348 1015.00
21.9 1042.00
21.9652 940.00
22.0304 922.00
22.0956 949.00
22.1608 957.00
22.226 938.00
22.2912 943.00
22.3564 903.00
22.4216 921.00
22.4868 947.00
22.552 932.00
22.6172 1082.00
22.6824 883.00
22.7476 974.00
22.8128 1019.00
22.878 1005.00
22.9432 1053.00
23.0084 1256.00
23.0736 1495.00
23.1388 2170.00
23.204 3291.00
23.2692 4242.00
23.3344 3559.00
23.3996 2411.00
23.4647 1589.00
23.5299 1197.00
23.5951 1051.00
23.6603 966.00
23.7255 949.00
23.7907 933.00
23.8559 939.00
23.9211 913.00
23.9863 892.00
24.0515 883.00
24.1167 880.00
24.1819 921.00
24.2471 880.00
24.3123 895.00
24.3775 946.00
24.4427 826.00
24.5079 900.00
24.5731 906.00
24.6383 845.00
24.7035 884.00
24.7687 903.00
24.8339 909.00
24.8991 952.00
24.9643 914.00
25.0295 951.00
25.0947 908.00
25.1599 809.00
25.2251 843.00
25.2903 795.00
25.3555 826.00
25.4207 839.00
25.4859 817.00
25.5511 829.00
25.6163 778.00
25.6815 829.00
25.7467 854.00
25.8119 869.00
25.8771 806.00
25.9423 794.00
26.0075 798.00
26.0727 839.00
26.1379 802.00
26.2031 826.00
26.2683 815.00
26.3335 772.00
26.3987 799.00
26.4639 773.00
26.5291 763.00
26.5943 760.00
26.6595 781.00
26.7247 754.00
26.7899 782.00
26.8551 774.00
26.9203 724.00
26.9855 736.00
27.0507 757.00
27.1159 748.00
27.1811 753.00
27.2463 732.00
27.3115 770.00
27.3767 769.00
27.4419 762.00
27.5071 794.00
27.5723 715.00
27.6375 760.00
27.7027 780.00
27.7679 824.00
27.8331 910.00
27.8983 1098.00
27.9635 1609.00
28.0287 2282.00
28.0939 2597.00
28.1591 2167.00
28.2243 1644.00
28.2894 1186.00
28.3546 935.00
28.4198 805.00
28.485 763.00
28.5502 777.00
28.6154 749.00
28.6806 710.00
28.7458 702.00
28.811 750.00
28.8762 704.00
28.9414 687.00
29.0066 677.00
29.0718 715.00
29.137 657.00
29.2022 672.00
29.2674 674.00
29.3326 653.00
29.3978 728.00
29.463 638.00
29.5282 697.00
29.5934 630.00
29.6586 738.00
29.7238 674.00
29.789 663.00
29.8542 721.00
29.9194 659.00
29.9846 763.00
30.0498 705.00
30.115 718.00
30.1802 687.00
30.2454 718.00
30.3106 688.00
30.3758 699.00
30.441 730.00
30.5062 725.00
30.5714 703.00
30.6366 751.00
30.7018 817.00
30.767 963.00
30.8322 1434.00
30.8974 2048.00
30.9626 2813.00
31.0278 3145.00
31.093 2812.00
31.1582 2184.00
31.2234 1776.00
31.2886 1436.00
31.3538 1203.00
31.419 983.00
31.4842 802.00
31.5494 766.00
31.6146 722.00
31.6798 715.00
31.745 668.00
31.8102 630.00
31.8754 665.00
31.9406 618.00
32.0058 612.00
32.071 603.00
32.1362 626.00
32.2014 632.00
32.2666 651.00
32.3318 614.00
32.397 574.00
32.4622 612.00
32.5274 592.00
32.5926 634.00
32.6578 654.00
32.723 614.00
32.7882 591.00
32.8534 622.00
32.9186 664.00
32.9838 642.00
33.0489 689.00
33.1141 670.00
33.1793 638.00
33.2445 605.00
33.3097 635.00
33.3749 626.00
33.4401 622.00
33.5053 636.00
33.5705 627.00
33.6357 648.00
33.7009 674.00
33.7661 653.00
33.8313 641.00
33.8965 599.00
33.9617 622.00
34.0269 619.00
34.0921 553.00
34.1573 532.00
34.2225 573.00
34.2877 602.00
34.3529 596.00
34.4181 614.00
34.4833 636.00
34.5485 596.00
34.6137 639.00
34.6789 729.00
34.7441 919.00
34.8093 1132.00
34.8745 1211.00
34.9397 1066.00
35.0049 921.00
35.0701 907.00
35.1353 1047.00
35.2005 1303.00
35.2657 1427.00
35.3309 1396.00
35.3961 1285.00
35.4613 1044.00
35.5265 803.00
35.5917 724.00
35.6569 618.00
35.7221 563.00
35.7873 535.00
35.8525 562.00
35.9177 547.00
35.9829 565.00
36.0481 503.00
36.1133 544.00
36.1785 530.00
36.2437 488.00
36.3089 474.00
36.3741 510.00
36.4393 504.00
36.5045 503.00
36.5697 488.00
36.6349 523.00
36.7001 485.00
36.7653 483.00
36.8305 510.00
36.8957 491.00
36.9609 484.00
37.0261 517.00
37.0913 513.00
37.1565 517.00
37.2217 474.00
37.2869 498.00
37.3521 482.00
37.4173 491.00
37.4825 489.00
37.5477 482.00
37.6129 489.00
37.6781 471.00
37.7433 484.00
37.8085 455.00
37.8736 502.00
37.9388 514.00
38.004 488.00
38.0692 505.00
38.1344 512.00
38.1996 505.00
38.2648 509.00
38.33 438.00
38.3952 499.00
38.4604 462.00
38.5256 458.00
38.5908 490.00
38.656 460.00
38.7212 422.00
38.7864 484.00
38.8516 478.00
38.9168 453.00
38.982 461.00
39.0472 423.00
39.1124 473.00
39.1776 459.00
39.2428 537.00
39.308 552.00
39.3732 566.00
39.4384 588.00
39.5036 562.00
39.5688 590.00
39.634 513.00
39.6992 473.00
39.7644 459.00
39.8296 471.00
39.8948 450.00
39.96 418.00
40.0252 441.00
40.0904 442.00
40.1556 416.00
40.2208 448.00
40.286 436.00
40.3512 441.00
40.4164 484.00
40.4816 505.00
40.5468 499.00
40.612 471.00
40.6772 446.00
40.7424 470.00
40.8076 444.00
40.8728 510.00
40.938 522.00
41.0032 598.00
41.0684 675.00
41.1336 616.00
41.1988 549.00
41.264 571.00
41.3292 493.00
41.3944 504.00
41.4596 485.00
41.5248 428.00
41.59 472.00
41.6552 471.00
41.7204 438.00
41.7856 489.00
41.8508 461.00
41.916 443.00
41.9812 506.00
42.0464 460.00
42.1116 421.00
42.1768 413.00
42.242 475.00
42.3072 451.00
42.3724 404.00
42.4376 400.00
42.5028 463.00
42.568 531.00
42.6332 555.00
42.6983 659.00
42.7635 678.00
42.8287 638.00
42.8939 641.00
42.9591 585.00
43.0243 532.00
43.0895 468.00
43.1547 438.00
43.2199 425.00
43.2851 383.00
43.3503 426.00
43.4155 444.00
43.4807 460.00
43.5459 453.00
43.6111 412.00
43.6763 469.00
43.7415 428.00
43.8067 411.00
43.8719 387.00
43.9371 397.00
44.0023 419.00
44.0675 380.00
44.1327 414.00
44.1979 431.00
44.2631 398.00
44.3283 415.00
44.3935 464.00
44.4587 481.00
44.5239 635.00
44.5891 678.00
44.6543 815.00
44.7195 819.00
44.7847 817.00
44.8499 671.00
44.9151 577.00
44.9803 504.00
45.0455 449.00
45.1107 397.00
45.1759 400.00
45.2411 382.00
45.3063 432.00
45.3715 404.00
45.4367 478.00
45.5019 407.00
45.5671 483.00
45.6323 477.00
45.6975 549.00
45.7627 636.00
45.8279 611.00
45.8931 592.00
45.9583 568.00
46.0235 504.00
46.0887 450.00
46.1539 518.00
46.2191 521.00
46.2843 506.00
46.3495 546.00
46.4147 549.00
46.4799 460.00
46.5451 456.00
46.6103 445.00
46.6755 424.00
46.7407 390.00
46.8059 385.00
46.8711 386.00
46.9363 390.00
47.0015 379.00
47.0667 361.00
47.1319 399.00
47.1971 415.00
47.2623 384.00
47.3275 480.00
47.3927 417.00
47.4579 474.00
47.523 544.00
47.5882 640.00
47.6534 834.00
47.7186 924.00
47.7838 1005.00
47.849 855.00
47.9142 844.00
47.9794 659.00
48.0446 587.00
48.1098 469.00
48.175 466.00
48.2402 482.00
48.3054 456.00
48.3706 453.00
48.4358 465.00
48.501 471.00
48.5662 457.00
48.6314 417.00
48.6966 404.00
48.7618 410.00
48.827 353.00
48.8922 339.00
48.9574 341.00
49.0226 372.00
49.0878 394.00
49.153 376.00
49.2182 418.00
49.2834 372.00
49.3486 386.00
49.4138 354.00
49.479 397.00
49.5442 399.00
49.6094 376.00
49.6746 345.00
49.7398 344.00
49.805 355.00
49.8702 360.00
49.9354 374.00
50.0006 381.00
50.0658 359.00
50.131 388.00
50.1962 412.00
50.2614 364.00
50.3266 382.00
50.3918 370.00
50.457 395.00
50.5222 406.00
50.5874 449.00
50.6526 401.00
50.7178 441.00
50.783 513.00
50.8482 537.00
50.9134 575.00
50.9786 701.00
51.0438 773.00
51.109 763.00
51.1742 722.00
51.2394 617.00
51.3046 557.00
51.3698 510.00
51.435 483.00
51.5002 468.00
51.5654 469.00
51.6306 462.00
51.6958 393.00
51.761 397.00
51.8262 375.00
51.8914 380.00
51.9566 346.00
52.0218 364.00
52.087 351.00
52.1522 345.00
52.2174 342.00
52.2826 319.00
52.3477 330.00
52.4129 313.00
52.4781 368.00
52.5433 335.00
52.6085 339.00
52.6737 339.00
52.7389 327.00
52.8041 338.00
52.8693 336.00
52.9345 319.00
52.9997 348.00
53.0649 337.00
53.1301 307.00
53.1953 354.00
53.2605 350.00
53.3257 340.00
53.3909 345.00
53.4561 304.00
53.5213 314.00
53.5865 357.00
53.6517 399.00
53.7169 341.00
53.7821 413.00
53.8473 432.00
53.9125 461.00
53.9777 484.00
54.0429 501.00
54.1081 455.00
54.1733 437.00
54.2385 416.00
54.3037 377.00
54.3689 373.00
54.4341 376.00
54.4993 359.00
54.5645 363.00
54.6297 358.00
54.6949 384.00
54.7601 423.00
54.8253 494.00
54.8905 548.00
54.9557 572.00
55.0209 637.00
55.0861 708.00
55.1513 761.00
55.2165 735.00
55.2817 783.00
55.3469 717.00
55.4121 722.00
55.4773 597.00
55.5425 571.00
55.6077 498.00
55.6729 430.00
55.7381 383.00
55.8033 356.00
55.8685 385.00
55.9337 370.00
55.9989 375.00
56.0641 315.00
56.1293 330.00
56.1945 341.00
56.2597 342.00
56.3249 294.00
56.3901 334.00
56.4553 323.00
56.5205 327.00
56.5857 322.00
56.6509 371.00
56.7161 355.00
56.7813 336.00
56.8465 373.00
56.9117 370.00
56.9769 338.00
57.042 331.00
57.1073 317.00
57.1724 327.00
57.2376 302.00
57.3028 320.00
57.368 312.00
57.4332 298.00
57.4984 328.00
57.5636 341.00
57.6288 340.00
57.694 331.00
57.7592 385.00
57.8244 386.00
57.8896 393.00
57.9548 402.00
58.02 386.00
58.0852 386.00
58.1504 405.00
58.2156 415.00
58.2808 379.00
58.346 373.00
58.4112 330.00
58.4764 338.00
58.5416 322.00
58.6068 322.00
58.672 327.00
58.7372 329.00
58.8024 330.00
58.8676 270.00
58.9328 322.00
58.998 317.00
59.0632 300.00
59.1284 300.00
59.1936 313.00
59.2588 308.00
59.324 328.00
59.3892 391.00
59.4544 425.00
59.5196 413.00
59.5848 449.00
59.65 489.00
59.7152 470.00
59.7804 447.00
59.8456 446.00
59.9108 411.00
59.976 365.00
60.0412 398.00
60.1064 342.00
60.1716 334.00
60.2368 305.00
60.302 338.00
60.3672 314.00
60.4324 360.00
60.4976 319.00
60.5628 329.00
60.628 393.00
60.6932 457.00
60.7584 468.00
60.8236 491.00
60.8888 503.00
60.954 476.00
61.0192 459.00
61.0844 417.00
61.1496 375.00
61.2148 377.00
61.28 308.00
61.3452 338.00
61.4104 364.00
61.4756 299.00
61.5408 330.00
61.606 351.00
61.6712 353.00
61.7364 359.00
61.8016 342.00
61.8667 339.00
61.932 404.00
61.9971 372.00
62.0623 352.00
62.1275 369.00
62.1927 350.00
62.2579 340.00
62.3231 338.00
62.3883 318.00
62.4535 382.00
62.5187 308.00
62.5839 337.00
62.6491 335.00
62.7143 298.00
62.7795 318.00
62.8447 299.00
62.9099 369.00
62.9751 327.00
63.0403 327.00
63.1055 372.00
63.1707 367.00
63.2359 390.00
63.3011 372.00
63.3663 403.00
63.4315 393.00
63.4967 428.00
63.5619 442.00
63.6271 404.00
63.6923 374.00
63.7575 380.00
63.8227 368.00
63.8879 345.00
63.9531 349.00
64.0183 307.00
64.0835 310.00
64.1487 293.00
64.2139 241.00
64.2791 293.00
64.3443 259.00
64.4095 276.00
64.4747 229.00
64.5399 292.00
64.6051 248.00
64.6703 330.00
64.7355 322.00
64.8007 302.00
64.8659 305.00
64.9311 274.00
64.9963 301.00
65.0615 295.00
65.1267 293.00
65.1919 299.00
65.2571 298.00
65.3223 278.00
65.3875 303.00
65.4527 299.00
65.5179 353.00
65.5831 304.00
65.6483 322.00
65.7135 342.00
65.7787 356.00
65.8439 371.00
65.9091 351.00
65.9743 374.00
66.0395 370.00
66.1047 350.00
66.1699 335.00
66.2351 294.00
66.3003 322.00
66.3655 285.00
66.4307 291.00
66.4959 264.00
66.561 244.00
66.6263 258.00
66.6915 246.00
66.7566 259.00
66.8218 326.00
66.887 312.00
66.9522 324.00
67.0174 320.00
67.0826 327.00
67.1478 332.00
67.213 332.00
67.2782 311.00
67.3434 300.00
67.4086 330.00
67.4738 339.00
67.539 326.00
67.6042 300.00
67.6694 289.00
67.7346 283.00
67.7998 280.00
67.865 262.00
67.9302 295.00
67.9954 269.00
68.0606 285.00
68.1258 293.00
68.191 241.00
68.2562 283.00
68.3214 249.00
68.3866 251.00
68.4518 301.00
68.517 274.00
68.5822 280.00
68.6474 293.00
68.7126 341.00
68.7778 330.00
68.843 284.00
68.9082 312.00
68.9734 266.00
69.0386 305.00
69.1038 273.00
69.169 259.00
69.2342 272.00
69.2994 229.00
69.3646 237.00
69.4298 281.00
69.495 276.00
69.5602 244.00
69.6254 244.00
69.6906 259.00
69.7558 249.00
69.821 266.00
69.8862 244.00
69.9514 224.00
70.0166 274.00
70.0818 258.00
70.147 250.00
70.2122 273.00
70.2774 274.00
70.3426 302.00
70.4078 290.00
70.473 287.00
70.5382 285.00
70.6034 308.00
70.6686 294.00
70.7338 355.00
70.799 350.00
70.8642 347.00
70.9294 293.00
70.9946 361.00
71.0598 337.00
71.125 300.00
71.1902 337.00
71.2554 290.00
71.3205 303.00
71.3858 265.00
71.451 269.00
71.5162 287.00
71.5813 258.00
71.6465 260.00
71.7117 227.00
71.7769 230.00
71.8421 257.00
71.9073 262.00
71.9725 236.00
72.0377 311.00
72.1029 256.00
72.1681 260.00
72.2333 235.00
72.2985 279.00
72.3637 282.00
72.4289 286.00
72.4941 240.00
72.5593 262.00
72.6245 248.00
72.6897 287.00
72.7549 245.00
72.8201 291.00
72.8853 266.00
72.9505 242.00
73.0157 237.00
73.0809 265.00
73.1461 298.00
73.2113 299.00
73.2765 295.00
73.3417 307.00
73.4069 342.00
73.4721 280.00
73.5373 349.00
73.6025 290.00
73.6677 278.00
73.7329 327.00
73.7981 332.00
73.8633 293.00
73.9285 284.00
73.9937 283.00
74.0589 261.00
74.1241 283.00
74.1893 284.00
74.2545 258.00
74.3197 260.00
74.3849 283.00
74.4501 278.00
74.5153 315.00
74.5805 333.00
74.6457 371.00
74.7109 374.00
74.7761 324.00
74.8413 314.00
74.9065 330.00
74.9717 364.00
75.0369 334.00
75.1021 340.00
75.1673 326.00
75.2325 329.00
75.2977 323.00
75.3629 300.00
75.4281 309.00
75.4933 322.00
75.5585 282.00
75.6237 277.00
75.6889 298.00
75.7541 245.00
75.8193 266.00
75.8845 270.00
75.9497 242.00
76.0149 280.00
76.0801 249.00
76.1452 240.00
76.2104 258.00
76.2756 262.00
76.3409 279.00
76.406 285.00
76.4712 299.00
76.5364 245.00
76.6016 267.00
76.6668 242.00
76.732 274.00
76.7972 289.00
76.8624 234.00
76.9276 291.00
76.9928 240.00
77.058 283.00
77.1232 296.00
77.1884 227.00
77.2536 308.00
77.3188 280.00
77.384 289.00
77.4492 282.00
77.5144 277.00
77.5796 308.00
77.6448 268.00
77.71 257.00
77.7752 245.00
77.8404 245.00
77.9056 278.00
77.9708 262.00
78.036 256.00
78.1012 280.00
78.1664 322.00
78.2316 280.00
78.2968 316.00
78.362 310.00
78.4272 341.00
78.4924 306.00
78.5576 344.00
78.6228 315.00
78.688 355.00
78.7532 339.00
78.8184 340.00
78.8836 290.00
78.9488 315.00
79.014 307.00
79.0792 297.00
79.1444 293.00
79.2096 272.00
79.2748 268.00
79.34 259.00
79.4052 279.00
79.4704 271.00
79.5356 304.00
79.6008 299.00
79.666 285.00
79.7312 312.00
79.7964 276.00
79.8616 263.00
79.9268 271.00
79.992 287.00
80.0572 271.00
80.1224 271.00
80.1876 285.00
80.2528 301.00
80.318 299.00
80.3832 327.00
80.4484 258.00
80.5136 327.00
80.5788 341.00
80.644 324.00
80.7092 298.00
80.7744 320.00
80.8396 295.00
80.9048 287.00
80.9699 324.00
81.0351 327.00
81.1003 319.00
81.1655 288.00
81.2307 288.00
81.2959 286.00
81.3611 288.00
81.4263 324.00
81.4915 241.00
81.5567 266.00
81.6219 289.00
81.6871 274.00
81.7523 286.00
81.8175 302.00
81.8827 286.00
81.9479 300.00
82.0131 284.00
82.0783 275.00
82.1435 257.00
82.2087 293.00
82.2739 310.00
82.3391 249.00
82.4043 277.00
82.4695 242.00
82.5347 305.00
82.5999 277.00
82.6651 343.00
82.7303 298.00
82.7955 294.00
82.8607 281.00
82.9259 318.00
82.9911 309.00
83.0563 328.00
83.1215 329.00
83.1867 278.00
83.2519 305.00
83.3171 331.00
83.3823 314.00
83.4475 261.00
83.5127 328.00
83.5779 308.00
83.6431 318.00
83.7083 315.00
83.7735 322.00
83.8387 285.00
83.9039 265.00
83.9691 238.00
84.0343 244.00
84.0995 268.00
84.1647 256.00
84.2299 312.00
84.2951 275.00
84.3603 295.00
84.4255 300.00
84.4907 276.00
84.5559 309.00
84.6211 269.00
84.6863 298.00
84.7515 293.00
84.8167 308.00
84.8819 311.00
84.9471 312.00
85.0123 297.00
85.0775 284.00
85.1427 285.00
85.2079 276.00
85.2731 301.00
85.3383 296.00
85.4035 295.00
85.4687 267.00
85.5339 304.00
85.5991 293.00
85.6643 279.00
85.7295 266.00
85.7946 269.00
85.8598 274.00
85.925 256.00
85.9903 272.00
86.0554 291.00
86.1206 260.00
86.1858 283.00
86.251 273.00
86.3162 279.00
86.3814 274.00
86.4466 242.00
86.5118 267.00
86.577 271.00
86.6422 242.00
86.7074 226.00
86.7726 270.00
86.8378 260.00
86.903 268.00
86.9682 257.00
87.0334 235.00
87.0986 300.00
87.1638 227.00
87.229 230.00
87.2942 238.00
87.3594 275.00
87.4246 237.00
87.4898 288.00
87.555 275.00
87.6202 260.00
87.6854 267.00
87.7506 267.00
87.8158 265.00
87.881 243.00
87.9462 294.00
88.0114 258.00
88.0766 259.00
88.1418 302.00
88.207 277.00
88.2722 244.00
88.3374 238.00
88.4026 250.00
88.4678 257.00
88.533 283.00
88.5982 234.00
88.6634 241.00
88.7286 258.00
88.7938 245.00
88.859 256.00
88.9242 233.00
88.9894 278.00
89.0546 284.00
89.1198 279.00
89.185 289.00
89.2502 305.00
89.3154 286.00
89.3806 329.00
89.4458 283.00
89.511 309.00
89.5762 291.00
89.6414 315.00
89.7066 295.00
89.7718 257.00
89.837 280.00
89.9022 263.00
89.9674 240.00
90.0326 245.00
90.0978 268.00
90.163 233.00
90.2282 221.00
90.2934 276.00
90.3586 290.00
90.4238 209.00
90.489 233.00
90.5542 259.00
90.6193 236.00
90.6845 266.00
90.7497 257.00
90.8149 232.00
90.8801 266.00
90.9453 295.00
91.0105 236.00
91.0757 221.00
91.1409 261.00
91.2061 266.00
91.2713 267.00
91.3365 275.00
91.4017 262.00
91.4669 243.00
91.5321 277.00
91.5973 266.00
91.6625 265.00
91.7277 271.00
91.7929 246.00
91.8581 265.00
91.9233 298.00
91.9885 247.00
92.0537 258.00
92.1189 276.00
92.1841 269.00
92.2493 269.00
92.3145 217.00
92.3797 269.00
92.4449 223.00
92.5101 264.00
92.5753 267.00
92.6405 229.00
92.7057 209.00
92.7709 263.00
92.8361 235.00
92.9013 247.00
92.9665 221.00
93.0317 257.00
93.0969 218.00
93.1621 261.00
93.2273 261.00
93.2925 238.00
93.3577 229.00
93.4229 267.00
93.4881 277.00
93.5533 239.00
93.6185 242.00
93.6837 283.00
93.7489 294.00
93.8141 268.00
93.8793 264.00
93.9445 263.00
94.0097 243.00
94.0749 240.00
94.1401 256.00
94.2053 249.00
94.2705 269.00
94.3357 225.00
94.4009 237.00
94.4661 227.00
94.5313 284.00
94.5965 263.00
94.6617 249.00
94.7269 309.00
94.7921 287.00
94.8573 268.00
94.9225 279.00
94.9877 277.00
95.0529 258.00
95.1181 241.00
95.1833 276.00
95.2485 264.00
95.3137 269.00
95.3789 276.00
95.444 266.00
95.5092 265.00
95.5744 263.00
95.6396 283.00
95.7048 284.00
95.77 261.00
95.8352 243.00
95.9004 268.00
95.9656 267.00
96.0308 266.00
96.096 241.00
96.1612 264.00
96.2264 279.00
96.2916 263.00
96.3568 272.00
96.422 287.00
96.4872 263.00
96.5524 276.00
96.6176 236.00
96.6828 217.00
96.748 260.00
96.8132 246.00
96.8784 243.00
96.9436 258.00
97.0088 245.00
97.074 238.00
97.1392 244.00
97.2044 260.00
97.2696 237.00
97.3348 272.00
97.4 246.00
97.4652 224.00
97.5304 229.00
97.5956 219.00
97.6608 235.00
97.726 215.00
97.7912 236.00
97.8564 223.00
97.9216 263.00
97.9868 235.00
98.052 244.00
98.1172 233.00
98.1824 227.00
98.2476 211.00
98.3128 267.00
98.378 214.00
98.4432 200.00
98.5084 245.00
98.5736 251.00
98.6388 238.00
98.704 235.00
98.7692 274.00
98.8344 235.00
98.8996 240.00
98.9648 274.00
99.03 239.00
99.0952 262.00
99.1604 242.00
99.2256 279.00
99.2908 286.00
99.356 275.00
99.4212 256.00
99.4864 245.00
99.5516 290.00
99.6168 246.00
99.682 235.00
99.7472 260.00
99.8124 278.00
99.8776 261.00
99.9428 243.00
100.008 304.00
100.073 256.00
100.095 269.00