File: data/xrd_creation/results/NSC_160.xy
9.903433 2617.00
9.968632 2642.00
10.0338 2594.00
10.099 2493.00
10.1642 2566.00
10.2294 2439.00
10.2946 2442.00
10.3598 2461.00
10.425 2514.00
10.4902 2405.00
10.5554 2346.00
10.6206 2367.00
10.6858 2399.00
10.751 2343.00
10.8162 2301.00
10.8814 2296.00
10.9466 2299.00
11.0118 2254.00
11.077 2341.00
11.1422 2247.00
11.2074 2246.00
11.2726 2204.00
11.3378 2246.00
11.403 2101.00
11.4682 2107.00
11.5334 2099.00
11.5986 2126.00
11.6638 2160.00
11.729 2014.00
11.7942 2063.00
11.8594 2141.00
11.9246 2043.00
11.9898 1939.00
12.055 1917.00
12.1202 1973.00
12.1854 1990.00
12.2506 1974.00
12.3158 1844.00
12.381 1928.00
12.4462 1910.00
12.5114 1895.00
12.5766 1808.00
12.6418 1917.00
12.707 1873.00
12.7722 1761.00
12.8374 1830.00
12.9026 1790.00
12.9678 1771.00
13.033 1773.00
13.0982 1806.00
13.1634 1824.00
13.2286 1777.00
13.2938 1866.00
13.359 1656.00
13.4242 1720.00
13.4894 1650.00
13.5546 1636.00
13.6198 1680.00
13.685 1729.00
13.7502 1680.00
13.8154 1764.00
13.8805 1586.00
13.9457 1687.00
14.0109 1675.00
14.0761 1603.00
14.1413 1631.00
14.2065 1621.00
14.2717 1661.00
14.3369 1619.00
14.4021 1635.00
14.4673 1544.00
14.5325 1554.00
14.5977 1544.00
14.6629 1579.00
14.7281 1556.00
14.7933 1594.00
14.8585 1606.00
14.9237 1604.00
14.9889 1537.00
15.0541 1645.00
15.1193 1554.00
15.1845 1531.00
15.2497 1519.00
15.3149 1568.00
15.3801 1474.00
15.4453 1515.00
15.5105 1425.00
15.5757 1516.00
15.6409 1526.00
15.7061 1478.00
15.7713 1522.00
15.8365 1428.00
15.9017 1461.00
15.9669 1448.00
16.0321 1546.00
16.0973 1530.00
16.1625 1413.00
16.2277 1503.00
16.2929 1520.00
16.3581 1522.00
16.4233 1505.00
16.4885 1415.00
16.5537 1474.00
16.6189 1527.00
16.6841 1438.00
16.7493 1443.00
16.8145 1444.00
16.8797 1417.00
16.9449 1440.00
17.0101 1392.00
17.0753 1460.00
17.1405 1378.00
17.2057 1354.00
17.2709 1443.00
17.3361 1366.00
17.4013 1346.00
17.4665 1388.00
17.5317 1397.00
17.5969 1364.00
17.6621 1336.00
17.7273 1246.00
17.7925 1330.00
17.8577 1323.00
17.9229 1344.00
17.9881 1290.00
18.0533 1256.00
18.1185 1322.00
18.1837 1292.00
18.2489 1280.00
18.3141 1349.00
18.3793 1339.00
18.4445 1358.00
18.5097 1252.00
18.5749 1275.00
18.6401 1258.00
18.7052 1276.00
18.7704 1265.00
18.8356 1249.00
18.9008 1296.00
18.966 1293.00
19.0312 1295.00
19.0964 1247.00
19.1616 1217.00
19.2268 1241.00
19.292 1240.00
19.3572 1254.00
19.4224 1198.00
19.4876 1294.00
19.5528 1228.00
19.618 1235.00
19.6832 1220.00
19.7484 1203.00
19.8136 1216.00
19.8788 1193.00
19.944 1219.00
20.0092 1289.00
20.0744 1307.00
20.1396 1368.00
20.2048 1346.00
20.27 1491.00
20.3352 1578.00
20.4004 1914.00
20.4656 2684.00
20.5308 3861.00
20.596 5637.00
20.6612 7479.00
20.7264 8393.00
20.7916 7318.00
20.8568 5170.00
20.922 5018.00
20.9872 6226.00
21.0524 8048.00
21.1176 9095.00
21.1828 9365.00
21.248 7019.00
21.3132 3794.00
21.3784 2090.00
21.4436 1626.00
21.5088 1402.00
21.574 1274.00
21.6392 1333.00
21.7044 1276.00
21.7696 1248.00
21.8348 1217.00
21.9 1152.00
21.9652 1151.00
22.0304 1233.00
22.0956 1175.00
22.1608 1177.00
22.226 1159.00
22.2912 1155.00
22.3564 1181.00
22.4216 1125.00
22.4868 1164.00
22.552 1097.00
22.6172 1169.00
22.6824 1123.00
22.7476 1118.00
22.8128 1144.00
22.878 1022.00
22.9432 1089.00
23.0084 1053.00
23.0736 1099.00
23.1388 1065.00
23.204 1040.00
23.2692 1127.00
23.3344 1171.00
23.3996 1275.00
23.4647 1443.00
23.5299 1720.00
23.5951 1925.00
23.6603 2032.00
23.7255 1872.00
23.7907 1515.00
23.8559 1199.00
23.9211 1114.00
23.9863 1049.00
24.0515 1153.00
24.1167 1047.00
24.1819 1105.00
24.2471 999.00
24.3123 1002.00
24.3775 1055.00
24.4427 1035.00
24.5079 992.00
24.5731 958.00
24.6383 1069.00
24.7035 1013.00
24.7687 1148.00
24.8339 1070.00
24.8991 1007.00
24.9643 1037.00
25.0295 1127.00
25.0947 1177.00
25.1599 1439.00
25.2251 1595.00
25.2903 1618.00
25.3555 1585.00
25.4207 1305.00
25.4859 1115.00
25.5511 997.00
25.6163 978.00
25.6815 964.00
25.7467 971.00
25.8119 931.00
25.8771 960.00
25.9423 988.00
26.0075 889.00
26.0727 1008.00
26.1379 923.00
26.2031 958.00
26.2683 940.00
26.3335 955.00
26.3987 998.00
26.4639 1098.00
26.5291 1088.00
26.5943 1161.00
26.6595 1342.00
26.7247 1594.00
26.7899 1833.00
26.8551 1873.00
26.9203 1719.00
26.9855 1518.00
27.0507 1235.00
27.1159 1006.00
27.1811 978.00
27.2463 942.00
27.3115 949.00
27.3767 932.00
27.4419 958.00
27.5071 843.00
27.5723 884.00
27.6375 968.00
27.7027 892.00
27.7679 888.00
27.8331 901.00
27.8983 838.00
27.9635 925.00
28.0287 921.00
28.0939 846.00
28.1591 856.00
28.2243 956.00
28.2894 895.00
28.3546 899.00
28.4198 867.00
28.485 844.00
28.5502 822.00
28.6154 924.00
28.6806 833.00
28.7458 909.00
28.811 863.00
28.8762 807.00
28.9414 894.00
29.0066 869.00
29.0718 889.00
29.137 835.00
29.2022 958.00
29.2674 926.00
29.3326 949.00
29.3978 983.00
29.463 992.00
29.5282 986.00
29.5934 984.00
29.6586 1009.00
29.7238 1059.00
29.789 1150.00
29.8542 1248.00
29.9194 1478.00
29.9846 1908.00
30.0498 3048.00
30.115 4842.00
30.1802 6985.00
30.2454 8545.00
30.3106 8303.00
30.3758 6335.00
30.441 3894.00
30.5062 2390.00
30.5714 1742.00
30.6366 1413.00
30.7018 1193.00
30.767 1057.00
30.8322 1004.00
30.8974 981.00
30.9626 920.00
31.0278 973.00
31.093 968.00
31.1582 980.00
31.2234 1056.00
31.2886 1139.00
31.3538 1228.00
31.419 1142.00
31.4842 1064.00
31.5494 1031.00
31.6146 1109.00
31.6798 1370.00
31.745 1468.00
31.8102 1945.00
31.8754 2012.00
31.9406 1506.00
32.0058 1147.00
32.071 998.00
32.1362 921.00
32.2014 986.00
32.2666 955.00
32.3318 982.00
32.397 966.00
32.4622 1000.00
32.5274 971.00
32.5926 1024.00
32.6578 1171.00
32.723 1380.00
32.7882 1974.00
32.8534 3127.00
32.9186 4697.00
32.9838 6101.00
33.0489 7130.00
33.1141 7057.00
33.1793 5464.00
33.2445 3878.00
33.3097 2661.00
33.3749 1900.00
33.4401 1555.00
33.5053 1405.00
33.5705 1357.00
33.6357 1529.00
33.7009 1638.00
33.7661 1775.00
33.8313 1852.00
33.8965 1934.00
33.9617 2479.00
34.0269 3911.00
34.0921 6890.00
34.1573 10447.00
34.2225 12476.00
34.2877 11495.00
34.3529 8672.00
34.4181 6086.00
34.4833 4588.00
34.5485 4289.00
34.6137 4968.00
34.6789 7636.00
34.7441 11458.00
34.8093 15595.00
34.8745 17097.00
34.9397 14304.00
35.0049 9252.00
35.0701 5076.00
35.1353 2811.00
35.2005 1900.00
35.2657 1609.00
35.3309 1458.00
35.3961 1477.00
35.4613 1400.00
35.5265 1422.00
35.5917 1241.00
35.6569 1100.00
35.7221 979.00
35.7873 1024.00
35.8525 1013.00
35.9177 1035.00
35.9829 1055.00
36.0481 1150.00
36.1133 1474.00
36.1785 2014.00
36.2437 2609.00
36.3089 3159.00
36.3741 2818.00
36.4393 1990.00
36.5045 1363.00
36.5697 1001.00
36.6349 1022.00
36.7001 930.00
36.7653 1001.00
36.8305 886.00
36.8957 867.00
36.9609 960.00
37.0261 1020.00
37.0913 1251.00
37.1565 1645.00
37.2217 2132.00
37.2869 2529.00
37.3521 2721.00
37.4173 2582.00
37.4825 2169.00
37.5477 1737.00
37.6129 1376.00
37.6781 1116.00
37.7433 1010.00
37.8085 948.00
37.8736 938.00
37.9388 871.00
38.004 1061.00
38.0692 992.00
38.1344 955.00
38.1996 886.00
38.2648 839.00
38.33 797.00
38.3952 801.00
38.4604 751.00
38.5256 756.00
38.5908 770.00
38.656 759.00
38.7212 766.00
38.7864 833.00
38.8516 823.00
38.9168 767.00
38.982 736.00
39.0472 752.00
39.1124 754.00
39.1776 762.00
39.2428 765.00
39.308 884.00
39.3732 1017.00
39.4384 1173.00
39.5036 1452.00
39.5688 1536.00
39.634 1524.00
39.6992 1347.00
39.7644 1173.00
39.8296 978.00
39.8948 955.00
39.96 819.00
40.0252 971.00
40.0904 961.00
40.1556 1047.00
40.2208 1249.00
40.286 1378.00
40.3512 1370.00
40.4164 1380.00
40.4816 1176.00
40.5468 943.00
40.612 827.00
40.6772 750.00
40.7424 726.00
40.8076 704.00
40.8728 727.00
40.938 692.00
41.0032 669.00
41.0684 726.00
41.1336 703.00
41.1988 745.00
41.264 758.00
41.3292 767.00
41.3944 759.00
41.4596 751.00
41.5248 795.00
41.59 844.00
41.6552 826.00
41.7204 951.00
41.7856 992.00
41.8508 1229.00
41.916 1575.00
41.9812 1866.00
42.0464 2074.00
42.1116 1981.00
42.1768 1686.00
42.242 1367.00
42.3072 1083.00
42.3724 826.00
42.4376 795.00
42.5028 730.00
42.568 741.00
42.6332 819.00
42.6983 820.00
42.7635 898.00
42.8287 1012.00
42.8939 1101.00
42.9591 1359.00
43.0243 1404.00
43.0895 1303.00
43.1547 1150.00
43.2199 942.00
43.2851 793.00
43.3503 739.00
43.4155 677.00
43.4807 615.00
43.5459 645.00
43.6111 665.00
43.6763 623.00
43.7415 609.00
43.8067 589.00
43.8719 620.00
43.9371 551.00
44.0023 632.00
44.0675 616.00
44.1327 577.00
44.1979 624.00
44.2631 608.00
44.3283 654.00
44.3935 642.00
44.4587 658.00
44.5239 663.00
44.5891 590.00
44.6543 690.00
44.7195 690.00
44.7847 656.00
44.8499 629.00
44.9151 634.00
44.9803 639.00
45.0455 634.00
45.1107 674.00
45.1759 725.00
45.2411 853.00
45.3063 956.00
45.3715 1188.00
45.4367 1405.00
45.5019 1514.00
45.5671 1515.00
45.6323 1371.00
45.6975 1171.00
45.7627 981.00
45.8279 894.00
45.8931 860.00
45.9583 935.00
46.0235 1188.00
46.0887 1562.00
46.1539 1949.00
46.2191 2432.00
46.2843 2729.00
46.3495 2691.00
46.4147 2293.00
46.4799 1733.00
46.5451 1287.00
46.6103 1062.00
46.6755 897.00
46.7407 722.00
46.8059 675.00
46.8711 611.00
46.9363 669.00
47.0015 623.00
47.0667 591.00
47.1319 637.00
47.1971 625.00
47.2623 634.00
47.3275 680.00
47.3927 723.00
47.4579 820.00
47.523 932.00
47.5882 1095.00
47.6534 1047.00
47.7186 910.00
47.7838 804.00
47.849 710.00
47.9142 709.00
47.9794 805.00
48.0446 1048.00
48.1098 1349.00
48.175 1830.00
48.2402 2252.00
48.3054 2442.00
48.3706 2145.00
48.4358 1943.00
48.501 1495.00
48.5662 1096.00
48.6314 905.00
48.6966 770.00
48.7618 713.00
48.827 721.00
48.8922 651.00
48.9574 566.00
49.0226 665.00
49.0878 621.00
49.153 703.00
49.2182 723.00
49.2834 682.00
49.3486 697.00
49.4138 685.00
49.479 607.00
49.5442 618.00
49.6094 603.00
49.6746 591.00
49.7398 564.00
49.805 631.00
49.8702 611.00
49.9354 747.00
50.0006 821.00
50.0658 814.00
50.131 866.00
50.1962 865.00
50.2614 890.00
50.3266 813.00
50.3918 783.00
50.457 861.00
50.5222 894.00
50.5874 909.00
50.6526 959.00
50.7178 923.00
50.783 860.00
50.8482 781.00
50.9134 697.00
50.9786 655.00
51.0438 599.00
51.109 661.00
51.1742 728.00
51.2394 716.00
51.3046 834.00
51.3698 964.00
51.435 1089.00
51.5002 1102.00
51.5654 1276.00
51.6306 1576.00
51.6958 1942.00
51.761 2266.00
51.8262 2714.00
51.8914 3018.00
51.9566 2854.00
52.0218 2420.00
52.087 1935.00
52.1522 1614.00
52.2174 1271.00
52.2826 1033.00
52.3477 949.00
52.4129 839.00
52.4781 741.00
52.5433 642.00
52.6085 611.00
52.6737 593.00
52.7389 598.00
52.8041 576.00
52.8693 568.00
52.9345 565.00
52.9997 559.00
53.0649 556.00
53.1301 549.00
53.1953 520.00
53.2605 568.00
53.3257 538.00
53.3909 601.00
53.4561 598.00
53.5213 605.00
53.5865 645.00
53.6517 608.00
53.7169 637.00
53.7821 647.00
53.8473 779.00
53.9125 912.00
53.9777 1053.00
54.0429 1169.00
54.1081 1099.00
54.1733 1039.00
54.2385 910.00
54.3037 960.00
54.3689 953.00
54.4341 1018.00
54.4993 1138.00
54.5645 1095.00
54.6297 1032.00
54.6949 987.00
54.7601 894.00
54.8253 862.00
54.8905 828.00
54.9557 893.00
55.0209 1168.00
55.0861 1524.00
55.1513 1868.00
55.2165 2094.00
55.2817 2154.00
55.3469 1896.00
55.4121 1591.00
55.4773 1273.00
55.5425 1024.00
55.6077 877.00
55.6729 707.00
55.7381 653.00
55.8033 656.00
55.8685 697.00
55.9337 654.00
55.9989 677.00
56.0641 634.00
56.1293 615.00
56.1945 625.00
56.2597 644.00
56.3249 653.00
56.3901 699.00
56.4553 784.00
56.5205 951.00
56.5857 1302.00
56.6509 1274.00
56.7161 1239.00
56.7813 1248.00
56.8465 1160.00
56.9117 1120.00
56.9769 1340.00
57.042 1769.00
57.1073 2352.00
57.1724 2773.00
57.2376 3274.00
57.3028 3485.00
57.368 3168.00
57.4332 2579.00
57.4984 2175.00
57.5636 1714.00
57.6288 1488.00
57.694 1366.00
57.7592 1139.00
57.8244 994.00
57.8896 862.00
57.9548 775.00
58.02 707.00
58.0852 719.00
58.1504 696.00
58.2156 710.00
58.2808 606.00
58.346 617.00
58.4112 607.00
58.4764 646.00
58.5416 595.00
58.6068 567.00
58.672 571.00
58.7372 543.00
58.8024 575.00
58.8676 586.00
58.9328 580.00
58.998 564.00
59.0632 647.00
59.1284 606.00
59.1936 613.00
59.2588 613.00
59.324 631.00
59.3892 597.00
59.4544 677.00
59.5196 678.00
59.5848 660.00
59.65 662.00
59.7152 628.00
59.7804 680.00
59.8456 660.00
59.9108 737.00
59.976 887.00
60.0412 1046.00
60.1064 1140.00
60.1716 1089.00
60.2368 1120.00
60.302 1051.00
60.3672 928.00
60.4324 834.00
60.4976 737.00
60.5628 745.00
60.628 651.00
60.6932 625.00
60.7584 597.00
60.8236 606.00
60.8888 666.00
60.954 698.00
61.0192 694.00
61.0844 765.00
61.1496 768.00
61.2148 848.00
61.28 1044.00
61.3452 1390.00
61.4104 1975.00
61.4756 2788.00
61.5408 3610.00
61.606 4112.00
61.6712 4044.00
61.7364 3634.00
61.8016 3022.00
61.8667 2395.00
61.932 1693.00
61.9971 1266.00
62.0623 1056.00
62.1275 928.00
62.1927 891.00
62.2579 943.00
62.3231 941.00
62.3883 974.00
62.4535 1043.00
62.5187 1152.00
62.5839 1168.00
62.6491 1286.00
62.7143 1726.00
62.7795 2033.00
62.8447 2396.00
62.9099 2751.00
62.9751 2364.00
63.0403 2165.00
63.1055 2039.00
63.1707 1908.00
63.2359 1904.00
63.3011 1932.00
63.3663 2038.00
63.4315 2134.00
63.4967 2191.00
63.5619 2313.00
63.6271 2174.00
63.6923 2036.00
63.7575 1847.00
63.8227 1547.00
63.8879 1274.00
63.9531 1065.00
64.0183 844.00
64.0835 711.00
64.1487 637.00
64.2139 638.00
64.2791 608.00
64.3443 578.00
64.4095 608.00
64.4747 573.00
64.5399 648.00
64.6051 668.00
64.6703 713.00
64.7355 763.00
64.8007 793.00
64.8659 858.00
64.9311 840.00
64.9963 818.00
65.0615 854.00
65.1267 804.00
65.1919 826.00
65.2571 793.00
65.3223 819.00
65.3875 915.00
65.4527 1087.00
65.5179 1327.00
65.5831 1456.00
65.6483 1501.00
65.7135 1347.00
65.7787 1187.00
65.8439 1080.00
65.9091 877.00
65.9743 779.00
66.0395 663.00
66.1047 667.00
66.1699 625.00
66.2351 599.00
66.3003 661.00
66.3655 612.00
66.4307 733.00
66.4959 724.00
66.561 739.00
66.6263 751.00
66.6915 743.00
66.7566 718.00
66.8218 665.00
66.887 631.00
66.9522 572.00
67.0174 555.00
67.0826 588.00
67.1478 562.00
67.213 572.00
67.2782 614.00
67.3434 619.00
67.4086 639.00
67.4738 684.00
67.539 648.00
67.6042 769.00
67.6694 828.00
67.7346 880.00
67.7998 938.00
67.865 1055.00
67.9302 1219.00
67.9954 1213.00
68.0606 1228.00
68.1258 1377.00
68.191 1631.00
68.2562 1853.00
68.3214 2164.00
68.3866 2143.00
68.4518 2111.00
68.517 2000.00
68.5822 1919.00
68.6474 1719.00
68.7126 1489.00
68.7778 1393.00
68.843 1255.00
68.9082 1214.00
68.9734 1227.00
69.0386 1272.00
69.1038 1155.00
69.169 1092.00
69.2342 915.00
69.2994 785.00
69.3646 744.00
69.4298 568.00
69.495 561.00
69.5602 550.00
69.6254 530.00
69.6906 519.00
69.7558 471.00
69.821 457.00
69.8862 488.00
69.9514 483.00
70.0166 468.00
70.0818 399.00
70.147 465.00
70.2122 440.00
70.2774 479.00
70.3426 465.00
70.4078 506.00
70.473 489.00
70.5382 515.00
70.6034 533.00
70.6686 512.00
70.7338 549.00
70.799 519.00
70.8642 473.00
70.9294 488.00
70.9946 465.00
71.0598 487.00
71.125 504.00
71.1902 445.00
71.2554 467.00
71.3205 502.00
71.3858 514.00
71.451 548.00
71.5162 591.00
71.5813 687.00
71.6465 767.00
71.7117 849.00
71.7769 1007.00
71.8421 1131.00
71.9073 1160.00
71.9725 1297.00
72.0377 1203.00
72.1029 1119.00
72.1681 1034.00
72.2333 882.00
72.2985 802.00
72.3637 661.00
72.4289 644.00
72.4941 639.00
72.5593 635.00
72.6245 576.00
72.6897 570.00
72.7549 515.00
72.8201 553.00
72.8853 540.00
72.9505 527.00
73.0157 558.00
73.0809 630.00
73.1461 655.00
73.2113 726.00
73.2765 783.00
73.3417 895.00
73.4069 1087.00
73.4721 1164.00
73.5373 1122.00
73.6025 1145.00
73.6677 1014.00
73.7329 890.00
73.7981 762.00
73.8633 656.00
73.9285 558.00
73.9937 515.00
74.0589 489.00
74.1241 481.00
74.1893 461.00
74.2545 427.00
74.3197 468.00
74.3849 423.00
74.4501 401.00
74.5153 455.00
74.5805 415.00
74.6457 459.00
74.7109 439.00
74.7761 416.00
74.8413 464.00
74.9065 439.00
74.9717 471.00
75.0369 433.00
75.1021 442.00
75.1673 444.00
75.2325 465.00
75.2977 455.00
75.3629 490.00
75.4281 503.00
75.4933 517.00
75.5585 524.00
75.6237 592.00
75.6889 588.00
75.7541 646.00
75.8193 595.00
75.8845 578.00
75.9497 640.00
76.0149 570.00
76.0801 599.00
76.1452 552.00
76.2104 562.00
76.2756 553.00
76.3409 561.00
76.406 621.00
76.4712 600.00
76.5364 562.00
76.6016 536.00
76.6668 527.00
76.732 554.00
76.7972 547.00
76.8624 591.00
76.9276 615.00
76.9928 609.00
77.058 548.00
77.1232 616.00
77.1884 533.00
77.2536 522.00
77.3188 536.00
77.384 483.00
77.4492 511.00
77.5144 499.00
77.5796 498.00
77.6448 503.00
77.71 502.00
77.7752 533.00
77.8404 477.00
77.9056 517.00
77.9708 465.00
78.036 475.00
78.1012 469.00
78.1664 482.00
78.2316 434.00
78.2968 438.00
78.362 492.00
78.4272 508.00
78.4924 490.00
78.5576 547.00
78.6228 520.00
78.688 496.00
78.7532 498.00
78.8184 510.00
78.8836 524.00
78.9488 491.00
79.014 506.00
79.0792 487.00
79.1444 510.00
79.2096 586.00
79.2748 480.00
79.34 493.00
79.4052 458.00
79.4704 460.00
79.5356 455.00
79.6008 445.00
79.666 419.00
79.7312 439.00
79.7964 431.00
79.8616 487.00
79.9268 526.00
79.992 498.00
80.0572 459.00
80.1224 466.00
80.1876 477.00
80.2528 435.00
80.318 469.00
80.3832 433.00
80.4484 443.00
80.5136 463.00
80.5788 422.00
80.644 470.00
80.7092 488.00
80.7744 480.00
80.8396 482.00
80.9048 528.00
80.9699 581.00
81.0351 584.00
81.1003 624.00
81.1655 707.00
81.2307 712.00
81.2959 692.00
81.3611 763.00
81.4263 803.00
81.4915 758.00
81.5567 711.00
81.6219 665.00
81.6871 666.00
81.7523 631.00
81.8175 610.00
81.8827 561.00
81.9479 483.00
82.0131 498.00
82.0783 546.00
82.1435 495.00
82.2087 473.00
82.2739 442.00
82.3391 457.00
82.4043 485.00
82.4695 472.00
82.5347 414.00
82.5999 471.00
82.6651 480.00
82.7303 481.00
82.7955 469.00
82.8607 495.00
82.9259 522.00
82.9911 464.00
83.0563 462.00
83.1215 462.00
83.1867 437.00
83.2519 409.00
83.3171 463.00
83.3823 417.00
83.4475 402.00
83.5127 384.00
83.5779 397.00
83.6431 350.00
83.7083 386.00
83.7735 383.00
83.8387 394.00
83.9039 422.00
83.9691 392.00
84.0343 392.00
84.0995 420.00
84.1647 447.00
84.2299 464.00
84.2951 426.00
84.3603 433.00
84.4255 428.00
84.4907 463.00
84.5559 415.00
84.6211 475.00
84.6863 503.00
84.7515 511.00
84.8167 422.00
84.8819 413.00
84.9471 487.00
85.0123 456.00
85.0775 463.00
85.1427 409.00
85.2079 489.00
85.2731 439.00
85.3383 421.00
85.4035 465.00
85.4687 488.00
85.5339 466.00
85.5991 537.00
85.6643 474.00
85.7295 522.00
85.7946 588.00
85.8598 639.00
85.925 688.00
85.9903 676.00
86.0554 736.00
86.1206 785.00
86.1858 835.00
86.251 842.00
86.3162 885.00
86.3814 830.00
86.4466 851.00
86.5118 911.00
86.577 994.00
86.6422 1050.00
86.7074 1092.00
86.7726 1092.00
86.8378 1113.00
86.903 1137.00
86.9682 1060.00
87.0334 975.00
87.0986 844.00
87.1638 747.00
87.229 710.00
87.2942 617.00
87.3594 570.00
87.4246 501.00
87.4898 441.00
87.555 422.00
87.6202 450.00
87.6854 441.00
87.7506 451.00
87.8158 453.00
87.881 463.00
87.9462 472.00
88.0114 459.00
88.0766 482.00
88.1418 479.00
88.207 456.00
88.2722 454.00
88.3374 460.00
88.4026 435.00
88.4678 455.00
88.533 405.00
88.5982 431.00
88.6634 426.00
88.7286 407.00
88.7938 404.00
88.859 437.00
88.9242 409.00
88.9894 402.00
89.0546 440.00
89.1198 448.00
89.185 446.00
89.2502 439.00
89.3154 437.00
89.3806 441.00
89.4458 442.00
89.511 453.00
89.5762 533.00
89.6414 524.00
89.7066 533.00
89.7718 474.00
89.837 461.00
89.9022 475.00
89.9674 444.00
90.0326 411.00
90.0978 436.00
90.163 414.00
90.2282 467.00
90.2934 440.00
90.3586 403.00
90.4238 471.00
90.489 426.00
90.5542 399.00
90.6193 438.00
90.6845 376.00
90.7497 414.00
90.8149 428.00
90.8801 382.00
90.9453 393.00
91.0105 431.00
91.0757 420.00
91.1409 391.00
91.2061 395.00
91.2713 448.00
91.3365 406.00
91.4017 462.00
91.4669 483.00
91.5321 453.00
91.5973 520.00
91.6625 539.00
91.7277 583.00
91.7929 610.00
91.8581 628.00
91.9233 635.00
91.9885 659.00
92.0537 624.00
92.1189 652.00
92.1841 607.00
92.2493 590.00
92.3145 541.00
92.3797 493.00
92.4449 480.00
92.5101 518.00
92.5753 443.00
92.6405 485.00
92.7057 483.00
92.7709 478.00
92.8361 496.00
92.9013 472.00
92.9665 429.00
93.0317 484.00
93.0969 506.00
93.1621 475.00
93.2273 472.00
93.2925 468.00
93.3577 462.00
93.4229 510.00
93.4881 510.00
93.5533 528.00
93.6185 623.00
93.6837 675.00
93.7489 718.00
93.8141 812.00
93.8793 915.00
93.9445 1111.00
94.0097 1180.00
94.0749 1133.00
94.1401 1161.00
94.2053 1166.00
94.2705 1188.00
94.3357 1100.00
94.4009 1047.00
94.4661 880.00
94.5313 771.00
94.5965 748.00
94.6617 705.00
94.7269 572.00
94.7921 564.00
94.8573 551.00
94.9225 480.00
94.9877 490.00
95.0529 469.00
95.1181 460.00
95.1833 525.00
95.2485 578.00
95.3137 538.00
95.3789 580.00
95.444 534.00
95.5092 544.00
95.5744 597.00
95.6396 568.00
95.7048 584.00
95.77 634.00
95.8352 579.00
95.9004 599.00
95.9656 614.00
96.0308 613.00
96.096 625.00
96.1612 650.00
96.2264 577.00
96.2916 554.00
96.3568 566.00
96.422 494.00
96.4872 563.00
96.5524 497.00
96.6176 458.00
96.6828 462.00
96.748 480.00
96.8132 452.00
96.8784 440.00
96.9436 450.00
97.0088 432.00
97.074 421.00
97.1392 399.00
97.2044 420.00
97.2696 416.00
97.3348 399.00
97.4 403.00
97.4652 420.00
97.5304 418.00
97.5956 455.00
97.6608 435.00
97.726 441.00
97.7912 441.00
97.8564 459.00
97.9216 450.00
97.9868 444.00
98.052 536.00
98.1172 472.00
98.1824 533.00
98.2476 594.00
98.3128 575.00
98.378 637.00
98.4432 704.00
98.5084 709.00
98.5736 764.00
98.6388 818.00
98.704 789.00
98.7692 709.00
98.8344 764.00
98.8996 631.00
98.9648 597.00
99.03 593.00
99.0952 503.00
99.1604 508.00
99.2256 503.00
99.2908 469.00
99.356 467.00
99.4212 449.00
99.4864 483.00
99.5516 425.00
99.6168 439.00
99.682 400.00
99.7472 400.00
99.8124 400.00
99.8776 404.00
99.9428 394.00
100.008 393.00
100.073 383.00
100.095 403.00