File: data/xrd_creation/results/NSC_66.xy
9.903433 2700.00
9.968632 2662.00
10.0338 2483.00
10.099 2563.00
10.1642 2509.00
10.2294 2475.00
10.2946 2573.00
10.3598 2530.00
10.425 2510.00
10.4902 2526.00
10.5554 2395.00
10.6206 2366.00
10.6858 2313.00
10.751 2326.00
10.8162 2222.00
10.8814 2424.00
10.9466 2217.00
11.0118 2299.00
11.077 2229.00
11.1422 2311.00
11.2074 2140.00
11.2726 2079.00
11.3378 2157.00
11.403 2038.00
11.4682 2085.00
11.5334 2088.00
11.5986 2018.00
11.6638 2049.00
11.729 2143.00
11.7942 1926.00
11.8594 1989.00
11.9246 1934.00
11.9898 1980.00
12.055 1960.00
12.1202 1890.00
12.1854 1931.00
12.2506 1982.00
12.3158 1926.00
12.381 1885.00
12.4462 1834.00
12.5114 1793.00
12.5766 1826.00
12.6418 1797.00
12.707 1752.00
12.7722 1808.00
12.8374 1682.00
12.9026 1722.00
12.9678 1761.00
13.033 1736.00
13.0982 1758.00
13.1634 1686.00
13.2286 1744.00
13.2938 1744.00
13.359 1768.00
13.4242 1801.00
13.4894 1672.00
13.5546 1672.00
13.6198 1623.00
13.685 1629.00
13.7502 1505.00
13.8154 1537.00
13.8805 1574.00
13.9457 1569.00
14.0109 1548.00
14.0761 1570.00
14.1413 1542.00
14.2065 1578.00
14.2717 1463.00
14.3369 1422.00
14.4021 1456.00
14.4673 1508.00
14.5325 1485.00
14.5977 1440.00
14.6629 1387.00
14.7281 1394.00
14.7933 1472.00
14.8585 1406.00
14.9237 1417.00
14.9889 1402.00
15.0541 1427.00
15.1193 1421.00
15.1845 1335.00
15.2497 1417.00
15.3149 1389.00
15.3801 1415.00
15.4453 1407.00
15.5105 1355.00
15.5757 1396.00
15.6409 1375.00
15.7061 1423.00
15.7713 1317.00
15.8365 1371.00
15.9017 1407.00
15.9669 1472.00
16.0321 1443.00
16.0973 1338.00
16.1625 1350.00
16.2277 1355.00
16.2929 1295.00
16.3581 1317.00
16.4233 1266.00
16.4885 1306.00
16.5537 1285.00
16.6189 1315.00
16.6841 1378.00
16.7493 1351.00
16.8145 1307.00
16.8797 1288.00
16.9449 1299.00
17.0101 1300.00
17.0753 1281.00
17.1405 1256.00
17.2057 1309.00
17.2709 1293.00
17.3361 1223.00
17.4013 1255.00
17.4665 1244.00
17.5317 1235.00
17.5969 1162.00
17.6621 1248.00
17.7273 1172.00
17.7925 1215.00
17.8577 1191.00
17.9229 1155.00
17.9881 1197.00
18.0533 1144.00
18.1185 1141.00
18.1837 1182.00
18.2489 1148.00
18.3141 1118.00
18.3793 1152.00
18.4445 1104.00
18.5097 1159.00
18.5749 1096.00
18.6401 1134.00
18.7052 1199.00
18.7704 1275.00
18.8356 1424.00
18.9008 1487.00
18.966 1307.00
19.0312 1283.00
19.0964 1246.00
19.1616 1188.00
19.2268 1206.00
19.292 1226.00
19.3572 1120.00
19.4224 1262.00
19.4876 1293.00
19.5528 1333.00
19.618 1329.00
19.6832 1385.00
19.7484 1545.00
19.8136 1956.00
19.8788 2453.00
19.944 3289.00
20.0092 3962.00
20.0744 3913.00
20.1396 3386.00
20.2048 2630.00
20.27 2032.00
20.3352 1521.00
20.4004 1364.00
20.4656 1280.00
20.5308 1305.00
20.596 1359.00
20.6612 1693.00
20.7264 2413.00
20.7916 2976.00
20.8568 3083.00
20.922 3037.00
20.9872 2358.00
21.0524 1906.00
21.1176 1522.00
21.1828 1297.00
21.248 1187.00
21.3132 1142.00
21.3784 1216.00
21.4436 1222.00
21.5088 1179.00
21.574 1119.00
21.6392 1090.00
21.7044 1028.00
21.7696 1026.00
21.8348 999.00
21.9 986.00
21.9652 906.00
22.0304 933.00
22.0956 929.00
22.1608 831.00
22.226 906.00
22.2912 949.00
22.3564 915.00
22.4216 875.00
22.4868 890.00
22.552 864.00
22.6172 875.00
22.6824 874.00
22.7476 953.00
22.8128 918.00
22.878 969.00
22.9432 977.00
23.0084 913.00
23.0736 950.00
23.1388 922.00
23.204 939.00
23.2692 917.00
23.3344 943.00
23.3996 916.00
23.4647 865.00
23.5299 893.00
23.5951 900.00
23.6603 844.00
23.7255 974.00
23.7907 995.00
23.8559 1120.00
23.9211 1301.00
23.9863 1403.00
24.0515 1285.00
24.1167 1129.00
24.1819 987.00
24.2471 960.00
24.3123 907.00
24.3775 885.00
24.4427 848.00
24.5079 855.00
24.5731 827.00
24.6383 780.00
24.7035 812.00
24.7687 775.00
24.8339 761.00
24.8991 746.00
24.9643 773.00
25.0295 804.00
25.0947 751.00
25.1599 788.00
25.2251 810.00
25.2903 785.00
25.3555 745.00
25.4207 790.00
25.4859 801.00
25.5511 719.00
25.6163 779.00
25.6815 722.00
25.7467 769.00
25.8119 868.00
25.8771 844.00
25.9423 806.00
26.0075 930.00
26.0727 869.00
26.1379 922.00
26.2031 981.00
26.2683 1041.00
26.3335 1346.00
26.3987 1581.00
26.4639 1752.00
26.5291 1594.00
26.5943 1378.00
26.6595 1082.00
26.7247 905.00
26.7899 834.00
26.8551 729.00
26.9203 767.00
26.9855 763.00
27.0507 729.00
27.1159 759.00
27.1811 753.00
27.2463 797.00
27.3115 852.00
27.3767 838.00
27.4419 792.00
27.5071 768.00
27.5723 775.00
27.6375 726.00
27.7027 722.00
27.7679 687.00
27.8331 704.00
27.8983 675.00
27.9635 644.00
28.0287 664.00
28.0939 707.00
28.1591 714.00
28.2243 732.00
28.2894 677.00
28.3546 676.00
28.4198 605.00
28.485 670.00
28.5502 684.00
28.6154 710.00
28.6806 707.00
28.7458 707.00
28.811 733.00
28.8762 713.00
28.9414 728.00
29.0066 724.00
29.0718 724.00
29.137 651.00
29.2022 706.00
29.2674 711.00
29.3326 711.00
29.3978 704.00
29.463 751.00
29.5282 781.00
29.5934 790.00
29.6586 763.00
29.7238 752.00
29.789 784.00
29.8542 747.00
29.9194 795.00
29.9846 692.00
30.0498 686.00
30.115 679.00
30.1802 741.00
30.2454 693.00
30.3106 729.00
30.3758 751.00
30.441 733.00
30.5062 704.00
30.5714 654.00
30.6366 613.00
30.7018 617.00
30.767 644.00
30.8322 629.00
30.8974 649.00
30.9626 663.00
31.0278 676.00
31.093 654.00
31.1582 641.00
31.2234 598.00
31.2886 666.00
31.3538 689.00
31.419 627.00
31.4842 591.00
31.5494 635.00
31.6146 577.00
31.6798 611.00
31.745 583.00
31.8102 620.00
31.8754 621.00
31.9406 618.00
32.0058 676.00
32.071 756.00
32.1362 800.00
32.2014 834.00
32.2666 975.00
32.3318 1026.00
32.397 970.00
32.4622 1128.00
32.5274 1240.00
32.5926 1552.00
32.6578 1729.00
32.723 1864.00
32.7882 1739.00
32.8534 1785.00
32.9186 2006.00
32.9838 2677.00
33.0489 3366.00
33.1141 3522.00
33.1793 3116.00
33.2445 2313.00
33.3097 1722.00
33.3749 1244.00
33.4401 981.00
33.5053 847.00
33.5705 854.00
33.6357 839.00
33.7009 975.00
33.7661 1050.00
33.8313 1132.00
33.8965 1055.00
33.9617 1029.00
34.0269 1071.00
34.0921 1059.00
34.1573 1323.00
34.2225 1639.00
34.2877 2162.00
34.3529 2440.00
34.4181 2714.00
34.4833 2506.00
34.5485 2094.00
34.6137 1701.00
34.6789 1273.00
34.7441 1049.00
34.8093 929.00
34.8745 834.00
34.9397 711.00
35.0049 762.00
35.0701 818.00
35.1353 869.00
35.2005 901.00
35.2657 893.00
35.3309 922.00
35.3961 870.00
35.4613 796.00
35.5265 759.00
35.5917 731.00
35.6569 722.00
35.7221 649.00
35.7873 676.00
35.8525 616.00
35.9177 572.00
35.9829 584.00
36.0481 543.00
36.1133 571.00
36.1785 526.00
36.2437 539.00
36.3089 544.00
36.3741 563.00
36.4393 551.00
36.5045 550.00
36.5697 580.00
36.6349 572.00
36.7001 650.00
36.7653 732.00
36.8305 850.00
36.8957 796.00
36.9609 788.00
37.0261 805.00
37.0913 763.00
37.1565 776.00
37.2217 751.00
37.2869 679.00
37.3521 601.00
37.4173 697.00
37.4825 605.00
37.5477 564.00
37.6129 507.00
37.6781 544.00
37.7433 574.00
37.8085 522.00
37.8736 517.00
37.9388 520.00
38.004 541.00
38.0692 499.00
38.1344 558.00
38.1996 619.00
38.2648 616.00
38.33 768.00
38.3952 842.00
38.4604 871.00
38.5256 836.00
38.5908 866.00
38.656 711.00
38.7212 631.00
38.7864 644.00
38.8516 641.00
38.9168 622.00
38.982 638.00
39.0472 575.00
39.1124 567.00
39.1776 537.00
39.2428 589.00
39.308 551.00
39.3732 520.00
39.4384 525.00
39.5036 474.00
39.5688 480.00
39.634 476.00
39.6992 540.00
39.7644 506.00
39.8296 484.00
39.8948 500.00
39.96 513.00
40.0252 522.00
40.0904 543.00
40.1556 543.00
40.2208 514.00
40.286 554.00
40.3512 541.00
40.4164 521.00
40.4816 473.00
40.5468 487.00
40.612 511.00
40.6772 526.00
40.7424 531.00
40.8076 561.00
40.8728 548.00
40.938 523.00
41.0032 560.00
41.0684 511.00
41.1336 523.00
41.1988 480.00
41.264 446.00
41.3292 519.00
41.3944 436.00
41.4596 455.00
41.5248 433.00
41.59 400.00
41.6552 480.00
41.7204 487.00
41.7856 463.00
41.8508 475.00
41.916 458.00
41.9812 478.00
42.0464 468.00
42.1116 475.00
42.1768 526.00
42.242 520.00
42.3072 608.00
42.3724 601.00
42.4376 602.00
42.5028 611.00
42.568 668.00
42.6332 700.00
42.6983 883.00
42.7635 1363.00
42.8287 1851.00
42.8939 2044.00
42.9591 1713.00
43.0243 1300.00
43.0895 965.00
43.1547 865.00
43.2199 668.00
43.2851 632.00
43.3503 597.00
43.4155 686.00
43.4807 728.00
43.5459 712.00
43.6111 702.00
43.6763 687.00
43.7415 600.00
43.8067 525.00
43.8719 497.00
43.9371 471.00
44.0023 464.00
44.0675 415.00
44.1327 456.00
44.1979 468.00
44.2631 440.00
44.3283 462.00
44.3935 419.00
44.4587 467.00
44.5239 381.00
44.5891 480.00
44.6543 498.00
44.7195 487.00
44.7847 488.00
44.8499 542.00
44.9151 494.00
44.9803 466.00
45.0455 459.00
45.1107 476.00
45.1759 464.00
45.2411 469.00
45.3063 433.00
45.3715 411.00
45.4367 432.00
45.5019 457.00
45.5671 461.00
45.6323 466.00
45.6975 462.00
45.7627 462.00
45.8279 515.00
45.8931 453.00
45.9583 465.00
46.0235 392.00
46.0887 426.00
46.1539 430.00
46.2191 380.00
46.2843 395.00
46.3495 371.00
46.4147 403.00
46.4799 429.00
46.5451 432.00
46.6103 412.00
46.6755 418.00
46.7407 429.00
46.8059 424.00
46.8711 419.00
46.9363 439.00
47.0015 517.00
47.0667 599.00
47.1319 643.00
47.1971 708.00
47.2623 683.00
47.3275 631.00
47.3927 645.00
47.4579 518.00
47.523 476.00
47.5882 469.00
47.6534 465.00
47.7186 438.00
47.7838 502.00
47.849 432.00
47.9142 452.00
47.9794 475.00
48.0446 427.00
48.1098 432.00
48.175 406.00
48.2402 423.00
48.3054 390.00
48.3706 376.00
48.4358 383.00
48.501 369.00
48.5662 356.00
48.6314 371.00
48.6966 388.00
48.7618 364.00
48.827 377.00
48.8922 436.00
48.9574 460.00
49.0226 478.00
49.0878 546.00
49.153 589.00
49.2182 629.00
49.2834 706.00
49.3486 605.00
49.4138 535.00
49.479 479.00
49.5442 481.00
49.6094 426.00
49.6746 474.00
49.7398 500.00
49.805 502.00
49.8702 511.00
49.9354 500.00
50.0006 468.00
50.0658 436.00
50.131 391.00
50.1962 368.00
50.2614 387.00
50.3266 367.00
50.3918 384.00
50.457 356.00
50.5222 342.00
50.5874 363.00
50.6526 309.00
50.7178 350.00
50.783 346.00
50.8482 335.00
50.9134 306.00
50.9786 362.00
51.0438 359.00
51.109 355.00
51.1742 328.00
51.2394 314.00
51.3046 323.00
51.3698 339.00
51.435 320.00
51.5002 346.00
51.5654 394.00
51.6306 399.00
51.6958 410.00
51.761 414.00
51.8262 388.00
51.8914 414.00
51.9566 425.00
52.0218 422.00
52.087 383.00
52.1522 422.00
52.2174 430.00
52.2826 407.00
52.3477 406.00
52.4129 389.00
52.4781 392.00
52.5433 359.00
52.6085 355.00
52.6737 370.00
52.7389 340.00
52.8041 350.00
52.8693 358.00
52.9345 333.00
52.9997 343.00
53.0649 339.00
53.1301 308.00
53.1953 322.00
53.2605 372.00
53.3257 356.00
53.3909 363.00
53.4561 349.00
53.5213 336.00
53.5865 341.00
53.6517 379.00
53.7169 369.00
53.7821 362.00
53.8473 373.00
53.9125 367.00
53.9777 385.00
54.0429 381.00
54.1081 372.00
54.1733 376.00
54.2385 365.00
54.3037 353.00
54.3689 384.00
54.4341 373.00
54.4993 433.00
54.5645 387.00
54.6297 375.00
54.6949 385.00
54.7601 358.00
54.8253 372.00
54.8905 379.00
54.9557 357.00
55.0209 380.00
55.0861 371.00
55.1513 371.00
55.2165 362.00
55.2817 340.00
55.3469 351.00
55.4121 326.00
55.4773 309.00
55.5425 354.00
55.6077 342.00
55.6729 347.00
55.7381 348.00
55.8033 365.00
55.8685 341.00
55.9337 343.00
55.9989 348.00
56.0641 310.00
56.1293 349.00
56.1945 365.00
56.2597 343.00
56.3249 364.00
56.3901 324.00
56.4553 339.00
56.5205 343.00
56.5857 379.00
56.6509 338.00
56.7161 342.00
56.7813 345.00
56.8465 338.00
56.9117 316.00
56.9769 337.00
57.042 332.00
57.1073 316.00
57.1724 340.00
57.2376 347.00
57.3028 320.00
57.368 318.00
57.4332 334.00
57.4984 300.00
57.5636 303.00
57.6288 313.00
57.694 347.00
57.7592 339.00
57.8244 319.00
57.8896 302.00
57.9548 353.00
58.02 328.00
58.0852 309.00
58.1504 348.00
58.2156 362.00
58.2808 306.00
58.346 359.00
58.4112 291.00
58.4764 319.00
58.5416 337.00
58.6068 335.00
58.672 341.00
58.7372 347.00
58.8024 414.00
58.8676 386.00
58.9328 492.00
58.998 477.00
59.0632 558.00
59.1284 576.00
59.1936 516.00
59.2588 544.00
59.324 528.00
59.3892 472.00
59.4544 489.00
59.5196 416.00
59.5848 412.00
59.65 401.00
59.7152 405.00
59.7804 406.00
59.8456 375.00
59.9108 372.00
59.976 350.00
60.0412 325.00
60.1064 324.00
60.1716 362.00
60.2368 321.00
60.302 307.00
60.3672 294.00
60.4324 315.00
60.4976 302.00
60.5628 297.00
60.628 309.00
60.6932 277.00
60.7584 305.00
60.8236 317.00
60.8888 313.00
60.954 296.00
61.0192 305.00
61.0844 294.00
61.1496 353.00
61.2148 341.00
61.28 359.00
61.3452 419.00
61.4104 510.00
61.4756 472.00
61.5408 508.00
61.606 480.00
61.6712 488.00
61.7364 496.00
61.8016 525.00
61.8667 525.00
61.932 448.00
61.9971 484.00
62.0623 511.00
62.1275 602.00
62.1927 826.00
62.2579 905.00
62.3231 875.00
62.3883 767.00
62.4535 673.00
62.5187 530.00
62.5839 429.00
62.6491 406.00
62.7143 381.00
62.7795 399.00
62.8447 331.00
62.9099 395.00
62.9751 338.00
63.0403 359.00
63.1055 346.00
63.1707 376.00
63.2359 316.00
63.3011 317.00
63.3663 330.00
63.4315 331.00
63.4967 328.00
63.5619 318.00
63.6271 279.00
63.6923 305.00
63.7575 299.00
63.8227 310.00
63.8879 280.00
63.9531 284.00
64.0183 264.00
64.0835 317.00
64.1487 273.00
64.2139 306.00
64.2791 249.00
64.3443 270.00
64.4095 283.00
64.4747 279.00
64.5399 246.00
64.6051 292.00
64.6703 271.00
64.7355 278.00
64.8007 292.00
64.8659 292.00
64.9311 267.00
64.9963 301.00
65.0615 311.00
65.1267 324.00
65.1919 348.00
65.2571 365.00
65.3223 398.00
65.3875 379.00
65.4527 396.00
65.5179 392.00
65.5831 369.00
65.6483 369.00
65.7135 325.00
65.7787 369.00
65.8439 331.00
65.9091 311.00
65.9743 324.00
66.0395 327.00
66.1047 301.00
66.1699 290.00
66.2351 245.00
66.3003 245.00
66.3655 239.00
66.4307 278.00
66.4959 259.00
66.561 293.00
66.6263 238.00
66.6915 265.00
66.7566 268.00
66.8218 257.00
66.887 269.00
66.9522 257.00
67.0174 246.00
67.0826 274.00
67.1478 243.00
67.213 239.00
67.2782 275.00
67.3434 269.00
67.4086 236.00
67.4738 262.00
67.539 279.00
67.6042 240.00
67.6694 274.00
67.7346 221.00
67.7998 247.00
67.865 236.00
67.9302 244.00
67.9954 238.00
68.0606 237.00
68.1258 228.00
68.191 243.00
68.2562 225.00
68.3214 242.00
68.3866 241.00
68.4518 256.00
68.517 256.00
68.5822 249.00
68.6474 259.00
68.7126 248.00
68.7778 257.00
68.843 239.00
68.9082 220.00
68.9734 258.00
69.0386 237.00
69.1038 278.00
69.169 272.00
69.2342 262.00
69.2994 284.00
69.3646 293.00
69.4298 313.00
69.495 317.00
69.5602 305.00
69.6254 325.00
69.6906 333.00
69.7558 301.00
69.821 303.00
69.8862 349.00
69.9514 320.00
70.0166 279.00
70.0818 326.00
70.147 329.00
70.2122 263.00
70.2774 272.00
70.3426 271.00
70.4078 247.00
70.473 266.00
70.5382 208.00
70.6034 248.00
70.6686 204.00
70.7338 267.00
70.799 229.00
70.8642 243.00
70.9294 215.00
70.9946 224.00
71.0598 250.00
71.125 237.00
71.1902 235.00
71.2554 257.00
71.3205 203.00
71.3858 235.00
71.451 234.00
71.5162 243.00
71.5813 231.00
71.6465 238.00
71.7117 259.00
71.7769 238.00
71.8421 241.00
71.9073 242.00
71.9725 249.00
72.0377 284.00
72.1029 275.00
72.1681 219.00
72.2333 279.00
72.2985 309.00
72.3637 274.00
72.4289 276.00
72.4941 327.00
72.5593 296.00
72.6245 296.00
72.6897 320.00
72.7549 302.00
72.8201 311.00
72.8853 302.00
72.9505 284.00
73.0157 309.00
73.0809 262.00
73.1461 319.00
73.2113 247.00
73.2765 284.00
73.3417 280.00
73.4069 258.00
73.4721 218.00
73.5373 231.00
73.6025 236.00
73.6677 221.00
73.7329 244.00
73.7981 241.00
73.8633 240.00
73.9285 250.00
73.9937 223.00
74.0589 247.00
74.1241 257.00
74.1893 259.00
74.2545 236.00
74.3197 225.00
74.3849 277.00
74.4501 261.00
74.5153 263.00
74.5805 323.00
74.6457 334.00
74.7109 339.00
74.7761 304.00
74.8413 286.00
74.9065 295.00
74.9717 283.00
75.0369 269.00
75.1021 260.00
75.1673 294.00
75.2325 248.00
75.2977 280.00
75.3629 277.00
75.4281 248.00
75.4933 265.00
75.5585 277.00
75.6237 250.00
75.6889 279.00
75.7541 276.00
75.8193 264.00
75.8845 227.00
75.9497 271.00
76.0149 262.00
76.0801 284.00
76.1452 287.00
76.2104 300.00
76.2756 302.00
76.3409 267.00
76.406 268.00
76.4712 238.00
76.5364 272.00
76.6016 259.00
76.6668 276.00
76.732 291.00
76.7972 261.00
76.8624 278.00
76.9276 265.00
76.9928 273.00
77.058 265.00
77.1232 267.00
77.1884 281.00
77.2536 271.00
77.3188 261.00
77.384 272.00
77.4492 231.00
77.5144 288.00
77.5796 238.00
77.6448 241.00
77.71 235.00
77.7752 236.00
77.8404 262.00
77.9056 266.00
77.9708 279.00
78.036 259.00
78.1012 248.00
78.1664 278.00
78.2316 297.00
78.2968 271.00
78.362 291.00
78.4272 308.00
78.4924 328.00
78.5576 367.00
78.6228 374.00
78.688 326.00
78.7532 300.00
78.8184 354.00
78.8836 306.00
78.9488 298.00
79.014 301.00
79.0792 315.00
79.1444 305.00
79.2096 269.00
79.2748 292.00
79.34 274.00
79.4052 296.00
79.4704 271.00
79.5356 271.00
79.6008 238.00
79.666 270.00
79.7312 293.00
79.7964 232.00
79.8616 282.00
79.9268 301.00
79.992 234.00
80.0572 262.00
80.1224 263.00
80.1876 242.00
80.2528 234.00
80.318 250.00
80.3832 261.00
80.4484 246.00
80.5136 258.00
80.5788 249.00
80.644 278.00
80.7092 221.00
80.7744 238.00
80.8396 273.00
80.9048 240.00
80.9699 268.00
81.0351 227.00
81.1003 238.00
81.1655 272.00
81.2307 309.00
81.2959 266.00
81.3611 294.00
81.4263 307.00
81.4915 231.00
81.5567 243.00
81.6219 291.00
81.6871 233.00
81.7523 280.00
81.8175 290.00
81.8827 269.00
81.9479 248.00
82.0131 257.00
82.0783 296.00
82.1435 282.00
82.2087 293.00
82.2739 292.00
82.3391 299.00
82.4043 300.00
82.4695 312.00
82.5347 348.00
82.5999 274.00
82.6651 304.00
82.7303 298.00
82.7955 305.00
82.8607 307.00
82.9259 306.00
82.9911 285.00
83.0563 273.00
83.1215 258.00
83.1867 282.00
83.2519 285.00
83.3171 257.00
83.3823 294.00
83.4475 292.00
83.5127 290.00
83.5779 295.00
83.6431 284.00
83.7083 308.00
83.7735 240.00
83.8387 270.00
83.9039 284.00
83.9691 300.00
84.0343 302.00
84.0995 279.00
84.1647 233.00
84.2299 275.00
84.2951 286.00
84.3603 262.00
84.4255 263.00
84.4907 259.00
84.5559 264.00
84.6211 294.00
84.6863 289.00
84.7515 258.00
84.8167 269.00
84.8819 241.00
84.9471 287.00
85.0123 257.00
85.0775 266.00
85.1427 265.00
85.2079 260.00
85.2731 250.00
85.3383 287.00
85.4035 259.00
85.4687 281.00
85.5339 259.00
85.5991 217.00
85.6643 257.00
85.7295 224.00
85.7946 235.00
85.8598 217.00
85.925 226.00
85.9903 256.00
86.0554 268.00
86.1206 249.00
86.1858 231.00
86.251 275.00
86.3162 250.00
86.3814 304.00
86.4466 238.00
86.5118 234.00
86.577 293.00
86.6422 274.00
86.7074 230.00
86.7726 268.00
86.8378 218.00
86.903 263.00
86.9682 248.00
87.0334 223.00
87.0986 220.00
87.1638 243.00
87.229 229.00
87.2942 270.00
87.3594 232.00
87.4246 240.00
87.4898 225.00
87.555 243.00
87.6202 238.00
87.6854 246.00
87.7506 274.00
87.8158 241.00
87.881 239.00
87.9462 197.00
88.0114 230.00
88.0766 227.00
88.1418 231.00
88.207 225.00
88.2722 225.00
88.3374 243.00
88.4026 215.00
88.4678 223.00
88.533 190.00
88.5982 229.00
88.6634 229.00
88.7286 237.00
88.7938 231.00
88.859 226.00
88.9242 212.00
88.9894 249.00
89.0546 216.00
89.1198 240.00
89.185 229.00
89.2502 249.00
89.3154 256.00
89.3806 211.00
89.4458 227.00
89.511 222.00
89.5762 228.00
89.6414 204.00
89.7066 208.00
89.7718 220.00
89.837 212.00
89.9022 213.00
89.9674 226.00
90.0326 231.00
90.0978 211.00
90.163 225.00
90.2282 220.00
90.2934 206.00
90.3586 222.00
90.4238 235.00
90.489 217.00
90.5542 247.00
90.6193 200.00
90.6845 214.00
90.7497 237.00
90.8149 220.00
90.8801 230.00
90.9453 203.00
91.0105 214.00
91.0757 231.00
91.1409 202.00
91.2061 222.00
91.2713 216.00
91.3365 195.00
91.4017 190.00
91.4669 221.00
91.5321 206.00
91.5973 241.00
91.6625 199.00
91.7277 220.00
91.7929 228.00
91.8581 257.00
91.9233 231.00
91.9885 246.00
92.0537 213.00
92.1189 220.00
92.1841 242.00
92.2493 234.00
92.3145 184.00
92.3797 200.00
92.4449 215.00
92.5101 220.00
92.5753 237.00
92.6405 205.00
92.7057 221.00
92.7709 238.00
92.8361 227.00
92.9013 219.00
92.9665 224.00
93.0317 245.00
93.0969 195.00
93.1621 177.00
93.2273 226.00
93.2925 233.00
93.3577 200.00
93.4229 241.00
93.4881 241.00
93.5533 243.00
93.6185 215.00
93.6837 238.00
93.7489 234.00
93.8141 248.00
93.8793 224.00
93.9445 286.00
94.0097 240.00
94.0749 268.00
94.1401 245.00
94.2053 235.00
94.2705 269.00
94.3357 262.00
94.4009 202.00
94.4661 239.00
94.5313 228.00
94.5965 204.00
94.6617 264.00
94.7269 206.00
94.7921 219.00
94.8573 239.00
94.9225 217.00
94.9877 205.00
95.0529 245.00
95.1181 214.00
95.1833 236.00
95.2485 210.00
95.3137 235.00
95.3789 242.00
95.444 231.00
95.5092 195.00
95.5744 211.00
95.6396 233.00
95.7048 236.00
95.77 208.00
95.8352 209.00
95.9004 207.00
95.9656 222.00
96.0308 218.00
96.096 226.00
96.1612 197.00
96.2264 194.00
96.2916 219.00
96.3568 205.00
96.422 210.00
96.4872 196.00
96.5524 198.00
96.6176 203.00
96.6828 214.00
96.748 248.00
96.8132 200.00
96.8784 217.00
96.9436 229.00
97.0088 235.00
97.074 224.00
97.1392 220.00
97.2044 215.00
97.2696 222.00
97.3348 208.00
97.4 208.00
97.4652 218.00
97.5304 201.00
97.5956 213.00
97.6608 229.00
97.726 241.00
97.7912 256.00
97.8564 258.00
97.9216 262.00
97.9868 242.00
98.052 266.00
98.1172 259.00
98.1824 244.00
98.2476 235.00
98.3128 238.00
98.378 257.00
98.4432 216.00
98.5084 239.00
98.5736 248.00
98.6388 237.00
98.704 228.00
98.7692 211.00
98.8344 196.00
98.8996 209.00
98.9648 242.00
99.03 235.00
99.0952 240.00
99.1604 221.00
99.2256 214.00
99.2908 229.00
99.356 189.00
99.4212 232.00
99.4864 236.00
99.5516 207.00
99.6168 193.00
99.682 215.00
99.7472 223.00
99.8124 171.00
99.8776 211.00
99.9428 248.00
100.008 202.00
100.073 210.00
100.095 233.00