File: data/xrd_creation/results/NSC_40.xy
9.903433 3269.00
9.968632 3314.00
10.0338 3180.00
10.099 3306.00
10.1642 3231.00
10.2294 3243.00
10.2946 3173.00
10.3598 3217.00
10.425 3210.00
10.4902 3225.00
10.5554 3089.00
10.6206 3168.00
10.6858 3101.00
10.751 3126.00
10.8162 3021.00
10.8814 3080.00
10.9466 3022.00
11.0118 2965.00
11.077 2856.00
11.1422 2939.00
11.2074 2900.00
11.2726 2869.00
11.3378 2901.00
11.403 2936.00
11.4682 2923.00
11.5334 2942.00
11.5986 2837.00
11.6638 2959.00
11.729 2987.00
11.7942 2856.00
11.8594 2874.00
11.9246 2832.00
11.9898 2749.00
12.055 2651.00
12.1202 2755.00
12.1854 2820.00
12.2506 2775.00
12.3158 2803.00
12.381 2815.00
12.4462 2705.00
12.5114 2777.00
12.5766 2862.00
12.6418 2938.00
12.707 2959.00
12.7722 2916.00
12.8374 3052.00
12.9026 2963.00
12.9678 2953.00
13.033 3021.00
13.0982 3100.00
13.1634 3025.00
13.2286 2953.00
13.2938 3037.00
13.359 2948.00
13.4242 2819.00
13.4894 2859.00
13.5546 2921.00
13.6198 2899.00
13.685 2830.00
13.7502 2981.00
13.8154 3084.00
13.8805 3156.00
13.9457 3330.00
14.0109 3433.00
14.0761 3294.00
14.1413 2922.00
14.2065 2793.00
14.2717 2778.00
14.3369 2610.00
14.4021 2648.00
14.4673 2619.00
14.5325 2633.00
14.5977 2664.00
14.6629 2568.00
14.7281 2509.00
14.7933 2638.00
14.8585 2617.00
14.9237 2606.00
14.9889 2450.00
15.0541 2521.00
15.1193 2550.00
15.1845 2517.00
15.2497 2626.00
15.3149 2542.00
15.3801 2496.00
15.4453 2605.00
15.5105 2584.00
15.5757 2525.00
15.6409 2607.00
15.7061 2595.00
15.7713 2592.00
15.8365 2482.00
15.9017 2516.00
15.9669 2486.00
16.0321 2489.00
16.0973 2574.00
16.1625 2417.00
16.2277 2479.00
16.2929 2547.00
16.3581 2404.00
16.4233 2381.00
16.4885 2530.00
16.5537 2505.00
16.6189 2390.00
16.6841 2405.00
16.7493 2503.00
16.8145 2500.00
16.8797 2421.00
16.9449 2500.00
17.0101 2448.00
17.0753 2430.00
17.1405 2329.00
17.2057 2434.00
17.2709 2417.00
17.3361 2405.00
17.4013 2402.00
17.4665 2517.00
17.5317 2506.00
17.5969 2511.00
17.6621 2697.00
17.7273 2843.00
17.7925 2846.00
17.8577 2680.00
17.9229 2418.00
17.9881 2498.00
18.0533 2459.00
18.1185 2366.00
18.1837 2374.00
18.2489 2227.00
18.3141 2219.00
18.3793 2301.00
18.4445 2264.00
18.5097 2263.00
18.5749 2322.00
18.6401 2362.00
18.7052 2306.00
18.7704 2245.00
18.8356 2366.00
18.9008 2346.00
18.966 2412.00
19.0312 2314.00
19.0964 2328.00
19.1616 2446.00
19.2268 2470.00
19.292 2539.00
19.3572 2821.00
19.4224 3214.00
19.4876 3679.00
19.5528 4397.00
19.618 4636.00
19.6832 4811.00
19.7484 4808.00
19.8136 5313.00
19.8788 5863.00
19.944 5371.00
20.0092 4103.00
20.0744 3129.00
20.1396 2770.00
20.2048 2769.00
20.27 2581.00
20.3352 2672.00
20.4004 2610.00
20.4656 2590.00
20.5308 2502.00
20.596 2423.00
20.6612 2425.00
20.7264 2559.00
20.7916 2602.00
20.8568 2597.00
20.922 2706.00
20.9872 2734.00
21.0524 2776.00
21.1176 2489.00
21.1828 2420.00
21.248 2551.00
21.3132 2465.00
21.3784 2309.00
21.4436 2342.00
21.5088 2373.00
21.574 2322.00
21.6392 2490.00
21.7044 2635.00
21.7696 2694.00
21.8348 2770.00
21.9 2608.00
21.9652 2632.00
22.0304 2648.00
22.0956 2708.00
22.1608 2774.00
22.226 2572.00
22.2912 2400.00
22.3564 2206.00
22.4216 2190.00
22.4868 2207.00
22.552 2174.00
22.6172 2189.00
22.6824 2205.00
22.7476 2174.00
22.8128 2214.00
22.878 2314.00
22.9432 2516.00
23.0084 2676.00
23.0736 3455.00
23.1388 4314.00
23.204 4494.00
23.2692 3864.00
23.3344 2878.00
23.3996 2415.00
23.4647 2304.00
23.5299 2299.00
23.5951 2425.00
23.6603 2231.00
23.7255 2138.00
23.7907 2176.00
23.8559 2176.00
23.9211 2218.00
23.9863 2342.00
24.0515 2249.00
24.1167 2464.00
24.1819 2676.00
24.2471 3091.00
24.3123 3751.00
24.3775 3949.00
24.4427 3237.00
24.5079 2619.00
24.5731 2452.00
24.6383 2603.00
24.7035 2903.00
24.7687 3160.00
24.8339 2979.00
24.8991 2507.00
24.9643 2096.00
25.0295 2085.00
25.0947 2002.00
25.1599 2082.00
25.2251 2057.00
25.2903 1958.00
25.3555 1962.00
25.4207 1940.00
25.4859 1994.00
25.5511 1998.00
25.6163 1973.00
25.6815 1914.00
25.7467 1974.00
25.8119 2015.00
25.8771 1993.00
25.9423 2055.00
26.0075 1986.00
26.0727 1967.00
26.1379 1953.00
26.2031 1923.00
26.2683 1928.00
26.3335 1941.00
26.3987 2050.00
26.4639 1944.00
26.5291 2017.00
26.5943 2038.00
26.6595 1883.00
26.7247 1976.00
26.7899 1960.00
26.8551 1919.00
26.9203 2007.00
26.9855 1913.00
27.0507 1848.00
27.1159 1942.00
27.1811 1989.00
27.2463 1947.00
27.3115 1922.00
27.3767 2018.00
27.4419 1905.00
27.5071 2033.00
27.5723 2149.00
27.6375 2129.00
27.7027 2254.00
27.7679 2574.00
27.8331 2876.00
27.8983 3118.00
27.9635 3384.00
28.0287 3319.00
28.0939 2994.00
28.1591 2838.00
28.2243 3121.00
28.2894 3924.00
28.3546 5858.00
28.4198 9231.00
28.485 13179.00
28.5502 11639.00
28.6154 6972.00
28.6806 4043.00
28.7458 2951.00
28.811 2601.00
28.8762 2547.00
28.9414 2372.00
29.0066 2318.00
29.0718 2225.00
29.137 2130.00
29.2022 2109.00
29.2674 2007.00
29.3326 1979.00
29.3978 2012.00
29.463 1932.00
29.5282 1957.00
29.5934 1966.00
29.6586 1891.00
29.7238 1939.00
29.789 1892.00
29.8542 1914.00
29.9194 1870.00
29.9846 1977.00
30.0498 1973.00
30.115 1892.00
30.1802 2042.00
30.2454 2029.00
30.3106 2077.00
30.3758 2082.00
30.441 2118.00
30.5062 2395.00
30.5714 2331.00
30.6366 2688.00
30.7018 3269.00
30.767 4394.00
30.8322 6547.00
30.8974 8622.00
30.9626 7458.00
31.0278 6536.00
31.093 6721.00
31.1582 6598.00
31.2234 5924.00
31.2886 4727.00
31.3538 4024.00
31.419 3518.00
31.4842 3170.00
31.5494 3383.00
31.6146 4302.00
31.6798 6470.00
31.745 9035.00
31.8102 8322.00
31.8754 5825.00
31.9406 3594.00
32.0058 2595.00
32.071 2190.00
32.1362 2035.00
32.2014 2057.00
32.2666 1988.00
32.3318 1947.00
32.397 1891.00
32.4622 1805.00
32.5274 1772.00
32.5926 1769.00
32.6578 1825.00
32.723 1754.00
32.7882 1755.00
32.8534 1791.00
32.9186 1784.00
32.9838 1757.00
33.0489 1776.00
33.1141 1790.00
33.1793 1731.00
33.2445 1745.00
33.3097 1773.00
33.3749 1851.00
33.4401 1904.00
33.5053 1798.00
33.5705 1859.00
33.6357 1857.00
33.7009 1819.00
33.7661 1822.00
33.8313 1864.00
33.8965 2003.00
33.9617 1876.00
34.0269 1974.00
34.0921 2176.00
34.1573 2343.00
34.2225 2854.00
34.2877 3823.00
34.3529 5378.00
34.4181 6734.00
34.4833 7211.00
34.5485 6689.00
34.6137 5803.00
34.6789 5057.00
34.7441 4242.00
34.8093 3478.00
34.8745 2767.00
34.9397 2355.00
35.0049 2199.00
35.0701 2018.00
35.1353 2036.00
35.2005 1945.00
35.2657 1820.00
35.3309 1959.00
35.3961 2128.00
35.4613 2455.00
35.5265 2979.00
35.5917 3495.00
35.6569 3515.00
35.7221 3460.00
35.7873 3177.00
35.8525 2532.00
35.9177 1942.00
35.9829 1818.00
36.0481 1930.00
36.1133 1904.00
36.1785 1963.00
36.2437 1971.00
36.3089 1774.00
36.3741 1697.00
36.4393 1716.00
36.5045 1667.00
36.5697 1655.00
36.6349 1635.00
36.7001 1631.00
36.7653 1608.00
36.8305 1515.00
36.8957 1582.00
36.9609 1541.00
37.0261 1491.00
37.0913 1514.00
37.1565 1563.00
37.2217 1518.00
37.2869 1536.00
37.3521 1472.00
37.4173 1445.00
37.4825 1520.00
37.5477 1522.00
37.6129 1540.00
37.6781 1439.00
37.7433 1513.00
37.8085 1523.00
37.8736 1588.00
37.9388 1672.00
38.004 1679.00
38.0692 1640.00
38.1344 1537.00
38.1996 1511.00
38.2648 1570.00
38.33 1555.00
38.3952 1533.00
38.4604 1476.00
38.5256 1492.00
38.5908 1540.00
38.656 1574.00
38.7212 1632.00
38.7864 1900.00
38.8516 2058.00
38.9168 2088.00
38.982 1970.00
39.0472 1782.00
39.1124 1636.00
39.1776 1624.00
39.2428 1547.00
39.308 1568.00
39.3732 1574.00
39.4384 1535.00
39.5036 1549.00
39.5688 1666.00
39.634 1653.00
39.6992 1704.00
39.7644 1585.00
39.8296 1635.00
39.8948 1543.00
39.96 1546.00
40.0252 1578.00
40.0904 1655.00
40.1556 1618.00
40.2208 1535.00
40.286 1548.00
40.3512 1577.00
40.4164 1493.00
40.4816 1518.00
40.5468 1576.00
40.612 1541.00
40.6772 1558.00
40.7424 1619.00
40.8076 1744.00
40.8728 1834.00
40.938 2156.00
41.0032 2719.00
41.0684 2781.00
41.1336 2505.00
41.1988 2184.00
41.264 2021.00
41.3292 2150.00
41.3944 2104.00
41.4596 2167.00
41.5248 1997.00
41.59 1910.00
41.6552 2123.00
41.7204 2330.00
41.7856 2230.00
41.8508 2132.00
41.916 2030.00
41.9812 1857.00
42.0464 1919.00
42.1116 1936.00
42.1768 1904.00
42.242 1883.00
42.3072 1816.00
42.3724 1717.00
42.4376 1637.00
42.5028 1573.00
42.568 1648.00
42.6332 1590.00
42.6983 1590.00
42.7635 1523.00
42.8287 1446.00
42.8939 1513.00
42.9591 1526.00
43.0243 1455.00
43.0895 1519.00
43.1547 1555.00
43.2199 1448.00
43.2851 1432.00
43.3503 1481.00
43.4155 1476.00
43.4807 1477.00
43.5459 1565.00
43.6111 1509.00
43.6763 1537.00
43.7415 1495.00
43.8067 1481.00
43.8719 1486.00
43.9371 1447.00
44.0023 1499.00
44.0675 1543.00
44.1327 1559.00
44.1979 1477.00
44.2631 1588.00
44.3283 1534.00
44.3935 1574.00
44.4587 1658.00
44.5239 1691.00
44.5891 1689.00
44.6543 1668.00
44.7195 1777.00
44.7847 1813.00
44.8499 1981.00
44.9151 2110.00
44.9803 2212.00
45.0455 2395.00
45.1107 2367.00
45.1759 2214.00
45.2411 1867.00
45.3063 1768.00
45.3715 1793.00
45.4367 1586.00
45.5019 1762.00
45.5671 1724.00
45.6323 1790.00
45.6975 1936.00
45.7627 2245.00
45.8279 2214.00
45.8931 2251.00
45.9583 2226.00
46.0235 1969.00
46.0887 1783.00
46.1539 1650.00
46.2191 1587.00
46.2843 1549.00
46.3495 1679.00
46.4147 1636.00
46.4799 1645.00
46.5451 1686.00
46.6103 1710.00
46.6755 1793.00
46.7407 1944.00
46.8059 2079.00
46.8711 2226.00
46.9363 2738.00
47.0015 2951.00
47.0667 2975.00
47.1319 2876.00
47.1971 2500.00
47.2623 2276.00
47.3275 2022.00
47.3927 1744.00
47.4579 1617.00
47.523 1583.00
47.5882 1499.00
47.6534 1563.00
47.7186 1571.00
47.7838 1469.00
47.849 1534.00
47.9142 1512.00
47.9794 1531.00
48.0446 1527.00
48.1098 1604.00
48.175 1486.00
48.2402 1525.00
48.3054 1539.00
48.3706 1547.00
48.4358 1489.00
48.501 1616.00
48.5662 1584.00
48.6314 1551.00
48.6966 1565.00
48.7618 1468.00
48.827 1580.00
48.8922 1633.00
48.9574 1575.00
49.0226 1610.00
49.0878 1642.00
49.153 1791.00
49.2182 1897.00
49.2834 1969.00
49.3486 2050.00
49.4138 2355.00
49.479 2961.00
49.5442 3379.00
49.6094 3120.00
49.6746 2698.00
49.7398 2248.00
49.805 1962.00
49.8702 1710.00
49.9354 1600.00
50.0006 1715.00
50.0658 1587.00
50.131 1713.00
50.1962 1786.00
50.2614 1992.00
50.3266 2628.00
50.3918 3667.00
50.457 3802.00
50.5222 3271.00
50.5874 2990.00
50.6526 2563.00
50.7178 2399.00
50.783 2768.00
50.8482 3131.00
50.9134 2983.00
50.9786 2777.00
51.0438 2510.00
51.109 2240.00
51.1742 2261.00
51.2394 2821.00
51.3046 3175.00
51.3698 2774.00
51.435 2779.00
51.5002 2466.00
51.5654 2116.00
51.6306 1961.00
51.6958 1906.00
51.761 1710.00
51.8262 1528.00
51.8914 1582.00
51.9566 1506.00
52.0218 1514.00
52.087 1433.00
52.1522 1479.00
52.2174 1456.00
52.2826 1483.00
52.3477 1510.00
52.4129 1415.00
52.4781 1540.00
52.5433 1526.00
52.6085 1533.00
52.6737 1423.00
52.7389 1391.00
52.8041 1469.00
52.8693 1434.00
52.9345 1497.00
52.9997 1564.00
53.0649 1506.00
53.1301 1560.00
53.1953 1532.00
53.2605 1506.00
53.3257 1493.00
53.3909 1562.00
53.4561 1714.00
53.5213 1746.00
53.5865 2035.00
53.6517 2133.00
53.7169 2189.00
53.7821 2393.00
53.8473 2267.00
53.9125 2125.00
53.9777 2085.00
54.0429 1913.00
54.1081 1978.00
54.1733 2096.00
54.2385 2413.00
54.3037 2606.00
54.3689 2496.00
54.4341 2233.00
54.4993 2051.00
54.5645 1787.00
54.6297 1608.00
54.6949 1526.00
54.7601 1550.00
54.8253 1554.00
54.8905 1573.00
54.9557 1520.00
55.0209 1623.00
55.0861 1534.00
55.1513 1576.00
55.2165 1657.00
55.2817 1632.00
55.3469 1648.00
55.4121 1831.00
55.4773 2123.00
55.5425 2426.00
55.6077 2592.00
55.6729 2580.00
55.7381 2559.00
55.8033 2362.00
55.8685 2279.00
55.9337 1933.00
55.9989 1876.00
56.0641 1851.00
56.1293 1893.00
56.1945 2177.00
56.2597 2248.00
56.3249 2134.00
56.3901 1941.00
56.4553 1862.00
56.5205 1584.00
56.5857 1562.00
56.6509 1456.00
56.7161 1396.00
56.7813 1452.00
56.8465 1440.00
56.9117 1445.00
56.9769 1457.00
57.042 1429.00
57.1073 1471.00
57.1724 1504.00
57.2376 1552.00
57.3028 1642.00
57.368 1816.00
57.4332 2117.00
57.4984 2023.00
57.5636 2005.00
57.6288 1875.00
57.694 1732.00
57.7592 1584.00
57.8244 1508.00
57.8896 1571.00
57.9548 1509.00
58.02 1514.00
58.0852 1650.00
58.1504 1821.00
58.2156 1888.00
58.2808 1787.00
58.346 1803.00
58.4112 1864.00
58.4764 1755.00
58.5416 1796.00
58.6068 1766.00
58.672 1631.00
58.7372 1583.00
58.8024 1691.00
58.8676 1577.00
58.9328 1650.00
58.998 1701.00
59.0632 1659.00
59.1284 1718.00
59.1936 1696.00
59.2588 1864.00
59.324 2033.00
59.3892 2251.00
59.4544 2268.00
59.5196 2284.00
59.5848 2154.00
59.65 2054.00
59.7152 1945.00
59.7804 1875.00
59.8456 1729.00
59.9108 1819.00
59.976 2083.00
60.0412 2135.00
60.1064 2385.00
60.1716 2342.00
60.2368 2407.00
60.302 2366.00
60.3672 2272.00
60.4324 2118.00
60.4976 2011.00
60.5628 1876.00
60.628 1742.00
60.6932 1720.00
60.7584 1816.00
60.8236 2025.00
60.8888 2391.00
60.954 2414.00
61.0192 2160.00
61.0844 2161.00
61.1496 1937.00
61.2148 1713.00
61.28 1814.00
61.3452 1750.00
61.4104 1994.00
61.4756 2099.00
61.5408 2207.00
61.606 2271.00
61.6712 2083.00
61.7364 2078.00
61.8016 1918.00
61.8667 1759.00
61.932 1760.00
61.9971 1747.00
62.0623 1729.00
62.1275 1866.00
62.1927 1945.00
62.2579 2007.00
62.3231 2001.00
62.3883 1981.00
62.4535 1846.00
62.5187 1658.00
62.5839 1631.00
62.6491 1533.00
62.7143 1535.00
62.7795 1595.00
62.8447 1596.00
62.9099 1770.00
62.9751 1911.00
63.0403 2240.00
63.1055 2373.00
63.1707 2119.00
63.2359 1927.00
63.3011 1865.00
63.3663 1600.00
63.4315 1545.00
63.4967 1444.00
63.5619 1419.00
63.6271 1431.00
63.6923 1387.00
63.7575 1402.00
63.8227 1466.00
63.8879 1562.00
63.9531 1532.00
64.0183 1428.00
64.0835 1363.00
64.1487 1398.00
64.2139 1487.00
64.2791 1516.00
64.3443 1492.00
64.4095 1545.00
64.4747 1603.00
64.5399 1600.00
64.6051 1598.00
64.6703 1564.00
64.7355 1421.00
64.8007 1400.00
64.8659 1428.00
64.9311 1437.00
64.9963 1334.00
65.0615 1451.00
65.1267 1425.00
65.1919 1437.00
65.2571 1636.00
65.3223 1627.00
65.3875 1567.00
65.4527 1632.00
65.5179 1602.00
65.5831 1691.00
65.6483 1729.00
65.7135 1724.00
65.7787 1833.00
65.8439 1966.00
65.9091 1970.00
65.9743 1970.00
66.0395 1895.00
66.1047 1835.00
66.1699 1865.00
66.2351 1658.00
66.3003 1543.00
66.3655 1518.00
66.4307 1474.00
66.4959 1503.00
66.561 1487.00
66.6263 1386.00
66.6915 1490.00
66.7566 1459.00
66.8218 1410.00
66.887 1515.00
66.9522 1429.00
67.0174 1395.00
67.0826 1416.00
67.1478 1331.00
67.213 1369.00
67.2782 1323.00
67.3434 1303.00
67.4086 1228.00
67.4738 1293.00
67.539 1284.00
67.6042 1267.00
67.6694 1268.00
67.7346 1285.00
67.7998 1274.00
67.865 1252.00
67.9302 1271.00
67.9954 1318.00
68.0606 1257.00
68.1258 1296.00
68.191 1303.00
68.2562 1375.00
68.3214 1326.00
68.3866 1243.00
68.4518 1386.00
68.517 1362.00
68.5822 1315.00
68.6474 1304.00
68.7126 1319.00
68.7778 1376.00
68.843 1310.00
68.9082 1368.00
68.9734 1467.00
69.0386 1488.00
69.1038 1466.00
69.169 1454.00
69.2342 1605.00
69.2994 1529.00
69.3646 1495.00
69.4298 1380.00
69.495 1371.00
69.5602 1333.00
69.6254 1363.00
69.6906 1398.00
69.7558 1325.00
69.821 1337.00
69.8862 1336.00
69.9514 1373.00
70.0166 1255.00
70.0818 1326.00
70.147 1238.00
70.2122 1296.00
70.2774 1280.00
70.3426 1321.00
70.4078 1357.00
70.473 1290.00
70.5382 1261.00
70.6034 1295.00
70.6686 1234.00
70.7338 1185.00
70.799 1255.00
70.8642 1302.00
70.9294 1254.00
70.9946 1221.00
71.0598 1294.00
71.125 1354.00
71.1902 1378.00
71.2554 1389.00
71.3205 1624.00
71.3858 1551.00
71.451 1658.00
71.5162 1589.00
71.5813 1537.00
71.6465 1508.00
71.7117 1416.00
71.7769 1367.00
71.8421 1349.00
71.9073 1266.00
71.9725 1360.00
72.0377 1391.00
72.1029 1363.00
72.1681 1359.00
72.2333 1449.00
72.2985 1528.00
72.3637 1533.00
72.4289 1529.00
72.4941 1557.00
72.5593 1497.00
72.6245 1546.00
72.6897 1526.00
72.7549 1484.00
72.8201 1488.00
72.8853 1405.00
72.9505 1437.00
73.0157 1377.00
73.0809 1368.00
73.1461 1357.00
73.2113 1252.00
73.2765 1302.00
73.3417 1279.00
73.4069 1230.00
73.4721 1237.00
73.5373 1272.00
73.6025 1376.00
73.6677 1311.00
73.7329 1272.00
73.7981 1300.00
73.8633 1333.00
73.9285 1420.00
73.9937 1291.00
74.0589 1306.00
74.1241 1288.00
74.1893 1290.00
74.2545 1255.00
74.3197 1219.00
74.3849 1224.00
74.4501 1270.00
74.5153 1186.00
74.5805 1216.00
74.6457 1249.00
74.7109 1327.00
74.7761 1317.00
74.8413 1377.00
74.9065 1446.00
74.9717 1406.00
75.0369 1317.00
75.1021 1351.00
75.1673 1376.00
75.2325 1489.00
75.2977 1581.00
75.3629 1464.00
75.4281 1607.00
75.4933 1601.00
75.5585 1548.00
75.6237 1539.00
75.6889 1506.00
75.7541 1386.00
75.8193 1469.00
75.8845 1427.00
75.9497 1335.00
76.0149 1293.00
76.0801 1281.00
76.1452 1249.00
76.2104 1278.00
76.2756 1323.00
76.3409 1244.00
76.406 1273.00
76.4712 1346.00
76.5364 1273.00
76.6016 1499.00
76.6668 1460.00
76.732 1415.00
76.7972 1434.00
76.8624 1406.00
76.9276 1313.00
76.9928 1288.00
77.058 1377.00
77.1232 1344.00
77.1884 1235.00
77.2536 1280.00
77.3188 1269.00
77.384 1248.00
77.4492 1392.00
77.5144 1285.00
77.5796 1314.00
77.6448 1223.00
77.71 1230.00
77.7752 1306.00
77.8404 1405.00
77.9056 1302.00
77.9708 1295.00
78.036 1359.00
78.1012 1363.00
78.1664 1261.00
78.2316 1262.00
78.2968 1362.00
78.362 1251.00
78.4272 1188.00
78.4924 1226.00
78.5576 1280.00
78.6228 1204.00
78.688 1233.00
78.7532 1212.00
78.8184 1218.00
78.8836 1306.00
78.9488 1217.00
79.014 1304.00
79.0792 1328.00
79.1444 1320.00
79.2096 1445.00
79.2748 1368.00
79.34 1346.00
79.4052 1293.00
79.4704 1349.00
79.5356 1302.00
79.6008 1240.00
79.666 1269.00
79.7312 1269.00
79.7964 1189.00
79.8616 1226.00
79.9268 1231.00
79.992 1206.00
80.0572 1220.00
80.1224 1138.00
80.1876 1260.00
80.2528 1241.00
80.318 1164.00
80.3832 1186.00
80.4484 1250.00
80.5136 1266.00
80.5788 1357.00
80.644 1342.00
80.7092 1446.00
80.7744 1414.00
80.8396 1418.00
80.9048 1374.00
80.9699 1319.00
81.0351 1363.00
81.1003 1283.00
81.1655 1285.00
81.2307 1292.00
81.2959 1221.00
81.3611 1257.00
81.4263 1250.00
81.4915 1284.00
81.5567 1345.00
81.6219 1301.00
81.6871 1341.00
81.7523 1338.00
81.8175 1296.00
81.8827 1298.00
81.9479 1295.00
82.0131 1404.00
82.0783 1377.00
82.1435 1392.00
82.2087 1349.00
82.2739 1415.00
82.3391 1339.00
82.4043 1399.00
82.4695 1270.00
82.5347 1320.00
82.5999 1359.00
82.6651 1368.00
82.7303 1391.00
82.7955 1359.00
82.8607 1320.00
82.9259 1287.00
82.9911 1362.00
83.0563 1351.00
83.1215 1334.00
83.1867 1405.00
83.2519 1462.00
83.3171 1582.00
83.3823 1565.00
83.4475 1585.00
83.5127 1460.00
83.5779 1502.00
83.6431 1479.00
83.7083 1377.00
83.7735 1390.00
83.8387 1259.00
83.9039 1283.00
83.9691 1301.00
84.0343 1298.00
84.0995 1303.00
84.1647 1356.00
84.2299 1387.00
84.2951 1334.00
84.3603 1331.00
84.4255 1425.00
84.4907 1385.00
84.5559 1311.00
84.6211 1263.00
84.6863 1268.00
84.7515 1329.00
84.8167 1317.00
84.8819 1302.00
84.9471 1239.00
85.0123 1239.00
85.0775 1367.00
85.1427 1345.00
85.2079 1264.00
85.2731 1344.00
85.3383 1299.00
85.4035 1206.00
85.4687 1200.00
85.5339 1217.00
85.5991 1257.00
85.6643 1203.00
85.7295 1170.00
85.7946 1195.00
85.8598 1258.00
85.925 1284.00
85.9903 1365.00
86.0554 1372.00
86.1206 1316.00
86.1858 1383.00
86.251 1367.00
86.3162 1388.00
86.3814 1342.00
86.4466 1322.00
86.5118 1335.00
86.577 1345.00
86.6422 1233.00
86.7074 1304.00
86.7726 1231.00
86.8378 1273.00
86.903 1266.00
86.9682 1250.00
87.0334 1286.00
87.0986 1320.00
87.1638 1321.00
87.229 1327.00
87.2942 1282.00
87.3594 1276.00
87.4246 1361.00
87.4898 1305.00
87.555 1327.00
87.6202 1377.00
87.6854 1443.00
87.7506 1286.00
87.8158 1416.00
87.881 1338.00
87.9462 1322.00
88.0114 1419.00
88.0766 1364.00
88.1418 1397.00
88.207 1439.00
88.2722 1453.00
88.3374 1385.00
88.4026 1492.00
88.4678 1472.00
88.533 1525.00
88.5982 1544.00
88.6634 1469.00
88.7286 1421.00
88.7938 1402.00
88.859 1406.00
88.9242 1411.00
88.9894 1379.00
89.0546 1342.00
89.1198 1303.00
89.185 1239.00
89.2502 1313.00
89.3154 1241.00
89.3806 1282.00
89.4458 1318.00
89.511 1267.00
89.5762 1231.00
89.6414 1279.00
89.7066 1288.00
89.7718 1326.00
89.837 1334.00
89.9022 1415.00
89.9674 1462.00
90.0326 1393.00
90.0978 1473.00
90.163 1354.00
90.2282 1365.00
90.2934 1424.00
90.3586 1350.00
90.4238 1286.00
90.489 1263.00
90.5542 1335.00
90.6193 1232.00
90.6845 1327.00
90.7497 1279.00
90.8149 1256.00
90.8801 1188.00
90.9453 1300.00
91.0105 1259.00
91.0757 1267.00
91.1409 1177.00
91.2061 1260.00
91.2713 1234.00
91.3365 1214.00
91.4017 1267.00
91.4669 1240.00
91.5321 1231.00
91.5973 1189.00
91.6625 1151.00
91.7277 1285.00
91.7929 1217.00
91.8581 1200.00
91.9233 1185.00
91.9885 1210.00
92.0537 1319.00
92.1189 1051.00
92.1841 1240.00
92.2493 1239.00
92.3145 1222.00
92.3797 1208.00
92.4449 1134.00
92.5101 1142.00
92.5753 1236.00
92.6405 1282.00
92.7057 1268.00
92.7709 1272.00
92.8361 1286.00
92.9013 1246.00
92.9665 1235.00
93.0317 1216.00
93.0969 1298.00
93.1621 1324.00
93.2273 1231.00
93.2925 1268.00
93.3577 1251.00
93.4229 1265.00
93.4881 1207.00
93.5533 1148.00
93.6185 1235.00
93.6837 1201.00
93.7489 1220.00
93.8141 1320.00
93.8793 1275.00
93.9445 1282.00
94.0097 1277.00
94.0749 1291.00
94.1401 1295.00
94.2053 1337.00
94.2705 1207.00
94.3357 1217.00
94.4009 1262.00
94.4661 1214.00
94.5313 1180.00
94.5965 1145.00
94.6617 1177.00
94.7269 1218.00
94.7921 1224.00
94.8573 1164.00
94.9225 1263.00
94.9877 1219.00
95.0529 1257.00
95.1181 1295.00
95.1833 1300.00
95.2485 1323.00
95.3137 1315.00
95.3789 1332.00
95.444 1346.00
95.5092 1368.00
95.5744 1292.00
95.6396 1326.00
95.7048 1287.00
95.77 1348.00
95.8352 1282.00
95.9004 1274.00
95.9656 1275.00
96.0308 1203.00
96.096 1314.00
96.1612 1344.00
96.2264 1261.00
96.2916 1368.00
96.3568 1348.00
96.422 1419.00
96.4872 1427.00
96.5524 1372.00
96.6176 1502.00
96.6828 1560.00
96.748 1482.00
96.8132 1502.00
96.8784 1537.00
96.9436 1530.00
97.0088 1609.00
97.074 1426.00
97.1392 1488.00
97.2044 1442.00
97.2696 1384.00
97.3348 1311.00
97.4 1349.00
97.4652 1327.00
97.5304 1228.00
97.5956 1241.00
97.6608 1273.00
97.726 1250.00
97.7912 1121.00
97.8564 1187.00
97.9216 1286.00
97.9868 1247.00
98.052 1226.00
98.1172 1314.00
98.1824 1267.00
98.2476 1336.00
98.3128 1376.00
98.378 1245.00
98.4432 1271.00
98.5084 1310.00
98.5736 1211.00
98.6388 1291.00
98.704 1277.00
98.7692 1289.00
98.8344 1298.00
98.8996 1329.00
98.9648 1345.00
99.03 1314.00
99.0952 1323.00
99.1604 1346.00
99.2256 1358.00
99.2908 1375.00
99.356 1437.00
99.4212 1426.00
99.4864 1407.00
99.5516 1401.00
99.6168 1371.00
99.682 1443.00
99.7472 1323.00
99.8124 1308.00
99.8776 1318.00
99.9428 1252.00
100.008 1231.00
100.073 1312.00
100.095 1300.00