File: data/xrd_creation/results/NSC_112.xy
9.903433 2768.00
9.968632 2696.00
10.0338 2809.00
10.099 2759.00
10.1642 2725.00
10.2294 2677.00
10.2946 2583.00
10.3598 2569.00
10.425 2636.00
10.4902 2681.00
10.5554 2563.00
10.6206 2510.00
10.6858 2550.00
10.751 2477.00
10.8162 2512.00
10.8814 2506.00
10.9466 2383.00
11.0118 2438.00
11.077 2327.00
11.1422 2404.00
11.2074 2292.00
11.2726 2275.00
11.3378 2310.00
11.403 2237.00
11.4682 2167.00
11.5334 2251.00
11.5986 2221.00
11.6638 2173.00
11.729 2143.00
11.7942 2224.00
11.8594 2211.00
11.9246 2199.00
11.9898 2173.00
12.055 2048.00
12.1202 2036.00
12.1854 1995.00
12.2506 1939.00
12.3158 1993.00
12.381 2020.00
12.4462 2026.00
12.5114 1986.00
12.5766 2018.00
12.6418 1962.00
12.707 1893.00
12.7722 1993.00
12.8374 1978.00
12.9026 1991.00
12.9678 1871.00
13.033 1959.00
13.0982 1924.00
13.1634 1852.00
13.2286 1964.00
13.2938 1922.00
13.359 1842.00
13.4242 1809.00
13.4894 1854.00
13.5546 1818.00
13.6198 1845.00
13.685 1812.00
13.7502 1825.00
13.8154 1752.00
13.8805 1829.00
13.9457 1885.00
14.0109 1826.00
14.0761 1879.00
14.1413 2021.00
14.2065 2126.00
14.2717 2409.00
14.3369 2541.00
14.4021 2704.00
14.4673 2617.00
14.5325 2450.00
14.5977 1944.00
14.6629 1724.00
14.7281 1671.00
14.7933 1704.00
14.8585 1740.00
14.9237 1630.00
14.9889 1764.00
15.0541 1698.00
15.1193 1592.00
15.1845 1560.00
15.2497 1673.00
15.3149 1561.00
15.3801 1627.00
15.4453 1665.00
15.5105 1590.00
15.5757 1660.00
15.6409 1546.00
15.7061 1565.00
15.7713 1609.00
15.8365 1569.00
15.9017 1514.00
15.9669 1554.00
16.0321 1539.00
16.0973 1578.00
16.1625 1568.00
16.2277 1497.00
16.2929 1523.00
16.3581 1597.00
16.4233 1582.00
16.4885 1497.00
16.5537 1543.00
16.6189 1554.00
16.6841 1528.00
16.7493 1528.00
16.8145 1513.00
16.8797 1509.00
16.9449 1517.00
17.0101 1460.00
17.0753 1498.00
17.1405 1441.00
17.2057 1524.00
17.2709 1449.00
17.3361 1469.00
17.4013 1436.00
17.4665 1471.00
17.5317 1509.00
17.5969 1320.00
17.6621 1471.00
17.7273 1496.00
17.7925 1452.00
17.8577 1382.00
17.9229 1420.00
17.9881 1384.00
18.0533 1471.00
18.1185 1400.00
18.1837 1386.00
18.2489 1356.00
18.3141 1375.00
18.3793 1357.00
18.4445 1305.00
18.5097 1368.00
18.5749 1415.00
18.6401 1402.00
18.7052 1389.00
18.7704 1332.00
18.8356 1324.00
18.9008 1321.00
18.966 1381.00
19.0312 1311.00
19.0964 1339.00
19.1616 1395.00
19.2268 1465.00
19.292 1457.00
19.3572 1451.00
19.4224 1460.00
19.4876 1576.00
19.5528 1677.00
19.618 2040.00
19.6832 2657.00
19.7484 3553.00
19.8136 4563.00
19.8788 5275.00
19.944 5599.00
20.0092 4530.00
20.0744 3028.00
20.1396 1877.00
20.2048 1488.00
20.27 1437.00
20.3352 1420.00
20.4004 1425.00
20.4656 1499.00
20.5308 1656.00
20.596 1873.00
20.6612 2421.00
20.7264 3144.00
20.7916 4512.00
20.8568 5642.00
20.922 6573.00
20.9872 6172.00
21.0524 4768.00
21.1176 2743.00
21.1828 1792.00
21.248 1514.00
21.3132 1453.00
21.3784 1379.00
21.4436 1255.00
21.5088 1297.00
21.574 1314.00
21.6392 1354.00
21.7044 1361.00
21.7696 1312.00
21.8348 1329.00
21.9 1202.00
21.9652 1241.00
22.0304 1171.00
22.0956 1204.00
22.1608 1170.00
22.226 1232.00
22.2912 1252.00
22.3564 1233.00
22.4216 1287.00
22.4868 1261.00
22.552 1208.00
22.6172 1166.00
22.6824 1092.00
22.7476 1098.00
22.8128 1137.00
22.878 1082.00
22.9432 1118.00
23.0084 1070.00
23.0736 1107.00
23.1388 1111.00
23.204 1130.00
23.2692 1116.00
23.3344 1088.00
23.3996 1168.00
23.4647 1122.00
23.5299 1124.00
23.5951 1190.00
23.6603 1176.00
23.7255 1298.00
23.7907 1473.00
23.8559 1867.00
23.9211 2359.00
23.9863 3060.00
24.0515 3913.00
24.1167 4376.00
24.1819 3887.00
24.2471 2719.00
24.3123 1671.00
24.3775 1223.00
24.4427 1143.00
24.5079 1070.00
24.5731 1053.00
24.6383 1062.00
24.7035 1079.00
24.7687 1036.00
24.8339 1005.00
24.8991 1022.00
24.9643 1043.00
25.0295 1033.00
25.0947 967.00
25.1599 970.00
25.2251 983.00
25.2903 913.00
25.3555 1000.00
25.4207 956.00
25.4859 978.00
25.5511 1043.00
25.6163 920.00
25.6815 912.00
25.7467 972.00
25.8119 942.00
25.8771 898.00
25.9423 919.00
26.0075 968.00
26.0727 939.00
26.1379 905.00
26.2031 933.00
26.2683 881.00
26.3335 903.00
26.3987 955.00
26.4639 917.00
26.5291 931.00
26.5943 855.00
26.6595 833.00
26.7247 980.00
26.7899 888.00
26.8551 891.00
26.9203 816.00
26.9855 882.00
27.0507 818.00
27.1159 816.00
27.1811 834.00
27.2463 838.00
27.3115 864.00
27.3767 886.00
27.4419 884.00
27.5071 922.00
27.5723 889.00
27.6375 914.00
27.7027 867.00
27.7679 902.00
27.8331 807.00
27.8983 845.00
27.9635 868.00
28.0287 884.00
28.0939 837.00
28.1591 878.00
28.2243 857.00
28.2894 883.00
28.3546 929.00
28.4198 852.00
28.485 906.00
28.5502 887.00
28.6154 918.00
28.6806 1060.00
28.7458 1219.00
28.811 1632.00
28.8762 2414.00
28.9414 3399.00
29.0066 4175.00
29.0718 4351.00
29.137 3377.00
29.2022 2116.00
29.2674 1212.00
29.3326 1046.00
29.3978 944.00
29.463 852.00
29.5282 826.00
29.5934 770.00
29.6586 808.00
29.7238 780.00
29.789 752.00
29.8542 748.00
29.9194 814.00
29.9846 803.00
30.0498 726.00
30.115 786.00
30.1802 745.00
30.2454 774.00
30.3106 747.00
30.3758 753.00
30.441 763.00
30.5062 718.00
30.5714 767.00
30.6366 766.00
30.7018 787.00
30.767 805.00
30.8322 816.00
30.8974 821.00
30.9626 804.00
31.0278 796.00
31.093 847.00
31.1582 812.00
31.2234 796.00
31.2886 863.00
31.3538 849.00
31.419 943.00
31.4842 938.00
31.5494 1192.00
31.6146 1561.00
31.6798 2390.00
31.745 3760.00
31.8102 5831.00
31.8754 6927.00
31.9406 6161.00
32.0058 4011.00
32.071 2169.00
32.1362 1342.00
32.2014 1008.00
32.2666 1076.00
32.3318 1071.00
32.397 1258.00
32.4622 1282.00
32.5274 1179.00
32.5926 1053.00
32.6578 808.00
32.723 725.00
32.7882 705.00
32.8534 717.00
32.9186 801.00
32.9838 725.00
33.0489 692.00
33.1141 729.00
33.1793 753.00
33.2445 706.00
33.3097 636.00
33.3749 684.00
33.4401 648.00
33.5053 646.00
33.5705 657.00
33.6357 664.00
33.7009 671.00
33.7661 680.00
33.8313 681.00
33.8965 722.00
33.9617 745.00
34.0269 814.00
34.0921 885.00
34.1573 984.00
34.2225 953.00
34.2877 885.00
34.3529 727.00
34.4181 733.00
34.4833 658.00
34.5485 656.00
34.6137 624.00
34.6789 645.00
34.7441 653.00
34.8093 670.00
34.8745 655.00
34.9397 602.00
35.0049 612.00
35.0701 604.00
35.1353 615.00
35.2005 672.00
35.2657 702.00
35.3309 643.00
35.3961 680.00
35.4613 685.00
35.5265 694.00
35.5917 741.00
35.6569 699.00
35.7221 793.00
35.7873 904.00
35.8525 1152.00
35.9177 1636.00
35.9829 2265.00
36.0481 2603.00
36.1133 2497.00
36.1785 1811.00
36.2437 1275.00
36.3089 1044.00
36.3741 1090.00
36.4393 1320.00
36.5045 1916.00
36.5697 2714.00
36.6349 3416.00
36.7001 3130.00
36.7653 2319.00
36.8305 1638.00
36.8957 971.00
36.9609 806.00
37.0261 718.00
37.0913 699.00
37.1565 629.00
37.2217 608.00
37.2869 644.00
37.3521 600.00
37.4173 612.00
37.4825 597.00
37.5477 632.00
37.6129 640.00
37.6781 628.00
37.7433 593.00
37.8085 564.00
37.8736 597.00
37.9388 542.00
38.004 573.00
38.0692 545.00
38.1344 579.00
38.1996 512.00
38.2648 597.00
38.33 576.00
38.3952 535.00
38.4604 588.00
38.5256 613.00
38.5908 754.00
38.656 768.00
38.7212 707.00
38.7864 661.00
38.8516 601.00
38.9168 551.00
38.982 558.00
39.0472 585.00
39.1124 555.00
39.1776 527.00
39.2428 580.00
39.308 536.00
39.3732 534.00
39.4384 471.00
39.5036 470.00
39.5688 542.00
39.634 545.00
39.6992 486.00
39.7644 497.00
39.8296 518.00
39.8948 492.00
39.96 541.00
40.0252 580.00
40.0904 525.00
40.1556 557.00
40.2208 672.00
40.286 737.00
40.3512 932.00
40.4164 1048.00
40.4816 905.00
40.5468 798.00
40.612 705.00
40.6772 586.00
40.7424 519.00
40.8076 532.00
40.8728 511.00
40.938 520.00
41.0032 509.00
41.0684 518.00
41.1336 486.00
41.1988 512.00
41.264 501.00
41.3292 499.00
41.3944 525.00
41.4596 475.00
41.5248 511.00
41.59 494.00
41.6552 539.00
41.7204 583.00
41.7856 641.00
41.8508 743.00
41.916 923.00
41.9812 1104.00
42.0464 1176.00
42.1116 1054.00
42.1768 851.00
42.242 790.00
42.3072 684.00
42.3724 702.00
42.4376 871.00
42.5028 992.00
42.568 1189.00
42.6332 1039.00
42.6983 795.00
42.7635 683.00
42.8287 571.00
42.8939 587.00
42.9591 652.00
43.0243 651.00
43.0895 598.00
43.1547 576.00
43.2199 551.00
43.2851 529.00
43.3503 532.00
43.4155 535.00
43.4807 497.00
43.5459 482.00
43.6111 478.00
43.6763 509.00
43.7415 485.00
43.8067 571.00
43.8719 573.00
43.9371 727.00
44.0023 940.00
44.0675 1365.00
44.1327 1599.00
44.1979 1528.00
44.2631 1213.00
44.3283 909.00
44.3935 717.00
44.4587 605.00
44.5239 585.00
44.5891 504.00
44.6543 536.00
44.7195 481.00
44.7847 497.00
44.8499 509.00
44.9151 487.00
44.9803 527.00
45.0455 596.00
45.1107 666.00
45.1759 666.00
45.2411 652.00
45.3063 594.00
45.3715 540.00
45.4367 506.00
45.5019 535.00
45.5671 570.00
45.6323 591.00
45.6975 655.00
45.7627 919.00
45.8279 1326.00
45.8931 1604.00
45.9583 1678.00
46.0235 1345.00
46.0887 934.00
46.1539 707.00
46.2191 592.00
46.2843 538.00
46.3495 522.00
46.4147 462.00
46.4799 487.00
46.5451 479.00
46.6103 463.00
46.6755 468.00
46.7407 454.00
46.8059 452.00
46.8711 488.00
46.9363 542.00
47.0015 525.00
47.0667 624.00
47.1319 721.00
47.1971 966.00
47.2623 1402.00
47.3275 2154.00
47.3927 2441.00
47.4579 2256.00
47.523 1766.00
47.5882 1209.00
47.6534 764.00
47.7186 574.00
47.7838 578.00
47.849 490.00
47.9142 472.00
47.9794 487.00
48.0446 477.00
48.1098 457.00
48.175 466.00
48.2402 474.00
48.3054 501.00
48.3706 491.00
48.4358 478.00
48.501 509.00
48.5662 537.00
48.6314 596.00
48.6966 573.00
48.7618 557.00
48.827 553.00
48.8922 591.00
48.9574 599.00
49.0226 670.00
49.0878 879.00
49.153 1296.00
49.2182 1888.00
49.2834 2430.00
49.3486 2490.00
49.4138 2029.00
49.479 1405.00
49.5442 964.00
49.6094 623.00
49.6746 545.00
49.7398 510.00
49.805 498.00
49.8702 472.00
49.9354 475.00
50.0006 518.00
50.0658 514.00
50.131 574.00
50.1962 642.00
50.2614 658.00
50.3266 657.00
50.3918 526.00
50.457 500.00
50.5222 435.00
50.5874 411.00
50.6526 444.00
50.7178 422.00
50.783 403.00
50.8482 430.00
50.9134 409.00
50.9786 429.00
51.0438 443.00
51.109 454.00
51.1742 465.00
51.2394 440.00
51.3046 432.00
51.3698 443.00
51.435 411.00
51.5002 477.00
51.5654 438.00
51.6306 448.00
51.6958 450.00
51.761 471.00
51.8262 452.00
51.8914 493.00
51.9566 495.00
52.0218 588.00
52.087 743.00
52.1522 1126.00
52.2174 1712.00
52.2826 2381.00
52.3477 2475.00
52.4129 2201.00
52.4781 1531.00
52.5433 1137.00
52.6085 696.00
52.6737 577.00
52.7389 464.00
52.8041 504.00
52.8693 504.00
52.9345 440.00
52.9997 490.00
53.0649 540.00
53.1301 580.00
53.1953 604.00
53.2605 537.00
53.3257 512.00
53.3909 476.00
53.4561 407.00
53.5213 362.00
53.5865 426.00
53.6517 395.00
53.7169 392.00
53.7821 371.00
53.8473 422.00
53.9125 388.00
53.9777 386.00
54.0429 357.00
54.1081 363.00
54.1733 387.00
54.2385 373.00
54.3037 367.00
54.3689 440.00
54.4341 387.00
54.4993 433.00
54.5645 414.00
54.6297 400.00
54.6949 363.00
54.7601 390.00
54.8253 405.00
54.8905 398.00
54.9557 356.00
55.0209 368.00
55.0861 418.00
55.1513 409.00
55.2165 430.00
55.2817 430.00
55.3469 484.00
55.4121 522.00
55.4773 607.00
55.5425 782.00
55.6077 1049.00
55.6729 1008.00
55.7381 889.00
55.8033 777.00
55.8685 562.00
55.9337 501.00
55.9989 445.00
56.0641 454.00
56.1293 412.00
56.1945 395.00
56.2597 411.00
56.3249 452.00
56.3901 481.00
56.4553 453.00
56.5205 451.00
56.5857 554.00
56.6509 538.00
56.7161 687.00
56.7813 906.00
56.8465 1209.00
56.9117 1571.00
56.9769 1524.00
57.042 1382.00
57.1073 1265.00
57.1724 1355.00
57.2376 1561.00
57.3028 1891.00
57.368 1959.00
57.4332 1857.00
57.4984 1552.00
57.5636 1093.00
57.6288 765.00
57.694 613.00
57.7592 508.00
57.8244 455.00
57.8896 473.00
57.9548 449.00
58.02 432.00
58.0852 476.00
58.1504 426.00
58.2156 445.00
58.2808 449.00
58.346 459.00
58.4112 477.00
58.4764 500.00
58.5416 502.00
58.6068 531.00
58.672 630.00
58.7372 735.00
58.8024 834.00
58.8676 905.00
58.9328 801.00
58.998 763.00
59.0632 610.00
59.1284 515.00
59.1936 448.00
59.2588 437.00
59.324 393.00
59.3892 363.00
59.4544 353.00
59.5196 438.00
59.5848 389.00
59.65 377.00
59.7152 394.00
59.7804 358.00
59.8456 411.00
59.9108 462.00
59.976 557.00
60.0412 618.00
60.1064 640.00
60.1716 610.00
60.2368 572.00
60.302 530.00
60.3672 415.00
60.4324 396.00
60.4976 401.00
60.5628 435.00
60.628 405.00
60.6932 379.00
60.7584 394.00
60.8236 440.00
60.8888 411.00
60.954 442.00
61.0192 492.00
61.0844 636.00
61.1496 735.00
61.2148 1035.00
61.28 1473.00
61.3452 1512.00
61.4104 1319.00
61.4756 1116.00
61.5408 833.00
61.606 538.00
61.6712 471.00
61.7364 443.00
61.8016 421.00
61.8667 391.00
61.932 406.00
61.9971 440.00
62.0623 444.00
62.1275 472.00
62.1927 469.00
62.2579 531.00
62.3231 584.00
62.3883 591.00
62.4535 527.00
62.5187 552.00
62.5839 541.00
62.6491 565.00
62.7143 760.00
62.7795 974.00
62.8447 1422.00
62.9099 1754.00
62.9751 1850.00
63.0403 1783.00
63.1055 1697.00
63.1707 1465.00
63.2359 1209.00
63.3011 912.00
63.3663 772.00
63.4315 626.00
63.4967 520.00
63.5619 427.00
63.6271 430.00
63.6923 383.00
63.7575 379.00
63.8227 389.00
63.8879 409.00
63.9531 378.00
64.0183 383.00
64.0835 416.00
64.1487 392.00
64.2139 440.00
64.2791 487.00
64.3443 528.00
64.4095 503.00
64.4747 481.00
64.5399 482.00
64.6051 413.00
64.6703 431.00
64.7355 355.00
64.8007 361.00
64.8659 399.00
64.9311 353.00
64.9963 368.00
65.0615 392.00
65.1267 443.00
65.1919 411.00
65.2571 467.00
65.3223 591.00
65.3875 772.00
65.4527 974.00
65.5179 1139.00
65.5831 1046.00
65.6483 961.00
65.7135 974.00
65.7787 927.00
65.8439 923.00
65.9091 920.00
65.9743 949.00
66.0395 866.00
66.1047 798.00
66.1699 669.00
66.2351 546.00
66.3003 501.00
66.3655 409.00
66.4307 404.00
66.4959 374.00
66.561 366.00
66.6263 384.00
66.6915 408.00
66.7566 390.00
66.8218 356.00
66.887 365.00
66.9522 409.00
67.0174 477.00
67.0826 551.00
67.1478 717.00
67.213 839.00
67.2782 991.00
67.3434 1010.00
67.4086 892.00
67.4738 763.00
67.539 651.00
67.6042 519.00
67.6694 457.00
67.7346 434.00
67.7998 430.00
67.865 420.00
67.9302 440.00
67.9954 386.00
68.0606 405.00
68.1258 357.00
68.191 346.00
68.2562 323.00
68.3214 363.00
68.3866 325.00
68.4518 290.00
68.517 304.00
68.5822 293.00
68.6474 300.00
68.7126 335.00
68.7778 288.00
68.843 283.00
68.9082 318.00
68.9734 334.00
69.0386 330.00
69.1038 346.00
69.169 382.00
69.2342 358.00
69.2994 419.00
69.3646 517.00
69.4298 689.00
69.495 927.00
69.5602 1102.00
69.6254 1070.00
69.6906 905.00
69.7558 833.00
69.821 737.00
69.8862 553.00
69.9514 423.00
70.0166 407.00
70.0818 362.00
70.147 367.00
70.2122 342.00
70.2774 340.00
70.3426 277.00
70.4078 349.00
70.473 357.00
70.5382 302.00
70.6034 312.00
70.6686 353.00
70.7338 343.00
70.799 367.00
70.8642 393.00
70.9294 453.00
70.9946 472.00
71.0598 485.00
71.125 514.00
71.1902 496.00
71.2554 446.00
71.3205 440.00
71.3858 481.00
71.451 433.00
71.5162 432.00
71.5813 374.00
71.6465 396.00
71.7117 384.00
71.7769 387.00
71.8421 383.00
71.9073 378.00
71.9725 414.00
72.0377 363.00
72.1029 345.00
72.1681 347.00
72.2333 334.00
72.2985 357.00
72.3637 339.00
72.4289 336.00
72.4941 358.00
72.5593 329.00
72.6245 322.00
72.6897 340.00
72.7549 322.00
72.8201 360.00
72.8853 306.00
72.9505 332.00
73.0157 297.00
73.0809 330.00
73.1461 314.00
73.2113 355.00
73.2765 399.00
73.3417 450.00
73.4069 593.00
73.4721 787.00
73.5373 828.00
73.6025 808.00
73.6677 701.00
73.7329 667.00
73.7981 549.00
73.8633 482.00
73.9285 376.00
73.9937 347.00
74.0589 362.00
74.1241 347.00
74.1893 340.00
74.2545 345.00
74.3197 345.00
74.3849 329.00
74.4501 331.00
74.5153 299.00
74.5805 348.00
74.6457 312.00
74.7109 329.00
74.7761 361.00
74.8413 379.00
74.9065 378.00
74.9717 406.00
75.0369 459.00
75.1021 553.00
75.1673 700.00
75.2325 746.00
75.2977 678.00
75.3629 599.00
75.4281 587.00
75.4933 550.00
75.5585 462.00
75.6237 441.00
75.6889 406.00
75.7541 408.00
75.8193 465.00
75.8845 498.00
75.9497 424.00
76.0149 428.00
76.0801 482.00
76.1452 486.00
76.2104 457.00
76.2756 467.00
76.3409 447.00
76.406 416.00
76.4712 434.00
76.5364 380.00
76.6016 352.00
76.6668 366.00
76.732 306.00
76.7972 316.00
76.8624 310.00
76.9276 273.00
76.9928 288.00
77.058 307.00
77.1232 325.00
77.1884 309.00
77.2536 326.00
77.3188 341.00
77.384 400.00
77.4492 382.00
77.5144 431.00
77.5796 444.00
77.6448 558.00
77.71 608.00
77.7752 635.00
77.8404 617.00
77.9056 615.00
77.9708 545.00
78.036 588.00
78.1012 510.00
78.1664 476.00
78.2316 441.00
78.2968 374.00
78.362 348.00
78.4272 339.00
78.4924 303.00
78.5576 282.00
78.6228 315.00
78.688 324.00
78.7532 300.00
78.8184 318.00
78.8836 347.00
78.9488 380.00
79.014 418.00
79.0792 390.00
79.1444 401.00
79.2096 375.00
79.2748 373.00
79.34 378.00
79.4052 357.00
79.4704 340.00
79.5356 385.00
79.6008 373.00
79.666 396.00
79.7312 348.00
79.7964 389.00
79.8616 374.00
79.9268 391.00
79.992 361.00
80.0572 386.00
80.1224 383.00
80.1876 342.00
80.2528 365.00
80.318 321.00
80.3832 335.00
80.4484 361.00
80.5136 330.00
80.5788 308.00
80.644 312.00
80.7092 292.00
80.7744 325.00
80.8396 280.00
80.9048 379.00
80.9699 351.00
81.0351 405.00
81.1003 470.00
81.1655 575.00
81.2307 662.00
81.2959 674.00
81.3611 568.00
81.4263 619.00
81.4915 707.00
81.5567 683.00
81.6219 607.00
81.6871 545.00
81.7523 575.00
81.8175 422.00
81.8827 420.00
81.9479 390.00
82.0131 359.00
82.0783 327.00
82.1435 308.00
82.2087 298.00
82.2739 294.00
82.3391 311.00
82.4043 321.00
82.4695 327.00
82.5347 386.00
82.5999 416.00
82.6651 477.00
82.7303 593.00
82.7955 737.00
82.8607 828.00
82.9259 837.00
82.9911 666.00
83.0563 605.00
83.1215 613.00
83.1867 536.00
83.2519 395.00
83.3171 385.00
83.3823 328.00
83.4475 367.00
83.5127 290.00
83.5779 300.00
83.6431 313.00
83.7083 316.00
83.7735 295.00
83.8387 298.00
83.9039 293.00
83.9691 278.00
84.0343 289.00
84.0995 269.00
84.1647 311.00
84.2299 269.00
84.2951 284.00
84.3603 272.00
84.4255 292.00
84.4907 281.00
84.5559 258.00
84.6211 272.00
84.6863 269.00
84.7515 273.00
84.8167 286.00
84.8819 316.00
84.9471 320.00
85.0123 379.00
85.0775 400.00
85.1427 358.00
85.2079 374.00
85.2731 377.00
85.3383 321.00
85.4035 318.00
85.4687 317.00
85.5339 282.00
85.5991 320.00
85.6643 281.00
85.7295 300.00
85.7946 283.00
85.8598 296.00
85.925 324.00
85.9903 347.00
86.0554 330.00
86.1206 338.00
86.1858 388.00
86.251 427.00
86.3162 504.00
86.3814 631.00
86.4466 676.00
86.5118 620.00
86.577 576.00
86.6422 560.00
86.7074 581.00
86.7726 484.00
86.8378 417.00
86.903 375.00
86.9682 352.00
87.0334 346.00
87.0986 354.00
87.1638 366.00
87.229 346.00
87.2942 373.00
87.3594 415.00
87.4246 458.00
87.4898 480.00
87.555 611.00
87.6202 710.00
87.6854 743.00
87.7506 705.00
87.8158 747.00
87.881 676.00
87.9462 637.00
88.0114 535.00
88.0766 491.00
88.1418 446.00
88.207 411.00
88.2722 363.00
88.3374 318.00
88.4026 311.00
88.4678 347.00
88.533 347.00
88.5982 360.00
88.6634 348.00
88.7286 403.00
88.7938 380.00
88.859 425.00
88.9242 433.00
88.9894 370.00
89.0546 369.00
89.1198 388.00
89.185 354.00
89.2502 335.00
89.3154 293.00
89.3806 341.00
89.4458 274.00
89.511 287.00
89.5762 279.00
89.6414 276.00
89.7066 288.00
89.7718 269.00
89.837 289.00
89.9022 279.00
89.9674 270.00
90.0326 305.00
90.0978 307.00
90.163 274.00
90.2282 324.00
90.2934 353.00
90.3586 444.00
90.4238 403.00
90.489 426.00
90.5542 435.00
90.6193 407.00
90.6845 397.00
90.7497 410.00
90.8149 375.00
90.8801 437.00
90.9453 405.00
91.0105 386.00
91.0757 358.00
91.1409 350.00
91.2061 356.00
91.2713 388.00
91.3365 384.00
91.4017 390.00
91.4669 360.00
91.5321 327.00
91.5973 372.00
91.6625 300.00
91.7277 371.00
91.7929 325.00
91.8581 345.00
91.9233 326.00
91.9885 328.00
92.0537 303.00
92.1189 323.00
92.1841 310.00
92.2493 352.00
92.3145 418.00
92.3797 482.00
92.4449 555.00
92.5101 694.00
92.5753 677.00
92.6405 657.00
92.7057 630.00
92.7709 584.00
92.8361 583.00
92.9013 545.00
92.9665 506.00
93.0317 469.00
93.0969 392.00
93.1621 377.00
93.2273 351.00
93.2925 318.00
93.3577 330.00
93.4229 287.00
93.4881 291.00
93.5533 289.00
93.6185 283.00
93.6837 299.00
93.7489 281.00
93.8141 347.00
93.8793 351.00
93.9445 310.00
94.0097 371.00
94.0749 453.00
94.1401 518.00
94.2053 526.00
94.2705 444.00
94.3357 437.00
94.4009 428.00
94.4661 440.00
94.5313 431.00
94.5965 362.00
94.6617 393.00
94.7269 289.00
94.7921 355.00
94.8573 309.00
94.9225 331.00
94.9877 358.00
95.0529 392.00
95.1181 446.00
95.1833 482.00
95.2485 476.00
95.3137 494.00
95.3789 470.00
95.444 440.00
95.5092 480.00
95.5744 462.00
95.6396 393.00
95.7048 419.00
95.77 393.00
95.8352 341.00
95.9004 325.00
95.9656 342.00
96.0308 345.00
96.096 381.00
96.1612 372.00
96.2264 433.00
96.2916 375.00
96.3568 408.00
96.422 450.00
96.4872 396.00
96.5524 386.00
96.6176 377.00
96.6828 383.00
96.748 324.00
96.8132 301.00
96.8784 305.00
96.9436 288.00
97.0088 312.00
97.074 293.00
97.1392 336.00
97.2044 319.00
97.2696 342.00
97.3348 369.00
97.4 320.00
97.4652 348.00
97.5304 411.00
97.5956 416.00
97.6608 441.00
97.726 445.00
97.7912 555.00
97.8564 627.00
97.9216 682.00
97.9868 628.00
98.052 580.00
98.1172 532.00
98.1824 502.00
98.2476 538.00
98.3128 513.00
98.378 398.00
98.4432 409.00
98.5084 389.00
98.5736 362.00
98.6388 301.00
98.704 322.00
98.7692 318.00
98.8344 330.00
98.8996 314.00
98.9648 315.00
99.03 297.00
99.0952 314.00
99.1604 308.00
99.2256 294.00
99.2908 245.00
99.356 273.00
99.4212 292.00
99.4864 294.00
99.5516 306.00
99.6168 345.00
99.682 329.00
99.7472 328.00
99.8124 349.00
99.8776 422.00
99.9428 517.00
100.008 582.00
100.073 619.00
100.095 642.00