File: data/xrd_creation/results/NSC_81.xy
9.903433 3037.00
9.968632 2959.00
10.0338 2953.00
10.099 2875.00
10.1642 2824.00
10.2294 2852.00
10.2946 2876.00
10.3598 2774.00
10.425 2842.00
10.4902 2805.00
10.5554 2769.00
10.6206 2748.00
10.6858 2721.00
10.751 2732.00
10.8162 2653.00
10.8814 2683.00
10.9466 2634.00
11.0118 2603.00
11.077 2711.00
11.1422 2674.00
11.2074 2597.00
11.2726 2576.00
11.3378 2658.00
11.403 2575.00
11.4682 2536.00
11.5334 2455.00
11.5986 2467.00
11.6638 2460.00
11.729 2403.00
11.7942 2455.00
11.8594 2425.00
11.9246 2369.00
11.9898 2396.00
12.055 2383.00
12.1202 2381.00
12.1854 2366.00
12.2506 2315.00
12.3158 2416.00
12.381 2266.00
12.4462 2223.00
12.5114 2275.00
12.5766 2240.00
12.6418 2268.00
12.707 2271.00
12.7722 2259.00
12.8374 2144.00
12.9026 2189.00
12.9678 2191.00
13.033 2222.00
13.0982 2190.00
13.1634 2225.00
13.2286 2094.00
13.2938 2128.00
13.359 2154.00
13.4242 2100.00
13.4894 2164.00
13.5546 2159.00
13.6198 2141.00
13.685 2159.00
13.7502 2374.00
13.8154 2460.00
13.8805 2586.00
13.9457 2903.00
14.0109 3190.00
14.0761 3290.00
14.1413 3204.00
14.2065 2785.00
14.2717 2531.00
14.3369 2247.00
14.4021 2228.00
14.4673 2123.00
14.5325 2057.00
14.5977 2046.00
14.6629 2076.00
14.7281 2015.00
14.7933 1896.00
14.8585 2073.00
14.9237 2048.00
14.9889 2003.00
15.0541 1913.00
15.1193 2059.00
15.1845 2018.00
15.2497 2003.00
15.3149 2007.00
15.3801 2000.00
15.4453 1964.00
15.5105 1968.00
15.5757 1917.00
15.6409 1994.00
15.7061 1953.00
15.7713 1940.00
15.8365 1976.00
15.9017 1972.00
15.9669 1921.00
16.0321 1957.00
16.0973 1976.00
16.1625 1992.00
16.2277 1975.00
16.2929 1961.00
16.3581 1938.00
16.4233 1849.00
16.4885 1867.00
16.5537 1917.00
16.6189 1914.00
16.6841 1980.00
16.7493 1905.00
16.8145 1891.00
16.8797 1934.00
16.9449 1887.00
17.0101 1928.00
17.0753 1816.00
17.1405 1883.00
17.2057 1775.00
17.2709 1837.00
17.3361 1856.00
17.4013 1812.00
17.4665 1851.00
17.5317 1834.00
17.5969 1871.00
17.6621 1858.00
17.7273 1803.00
17.7925 1868.00
17.8577 1837.00
17.9229 1766.00
17.9881 1807.00
18.0533 1813.00
18.1185 1789.00
18.1837 1758.00
18.2489 1839.00
18.3141 1785.00
18.3793 1727.00
18.4445 1754.00
18.5097 1769.00
18.5749 1726.00
18.6401 1738.00
18.7052 1796.00
18.7704 1789.00
18.8356 1719.00
18.9008 1748.00
18.966 1753.00
19.0312 1768.00
19.0964 1729.00
19.1616 1792.00
19.2268 1900.00
19.292 2004.00
19.3572 2296.00
19.4224 2651.00
19.4876 3484.00
19.5528 4030.00
19.618 4563.00
19.6832 4331.00
19.7484 4171.00
19.8136 3809.00
19.8788 3823.00
19.944 3758.00
20.0092 3956.00
20.0744 4408.00
20.1396 4972.00
20.2048 5043.00
20.27 4492.00
20.3352 3443.00
20.4004 2499.00
20.4656 2020.00
20.5308 1865.00
20.596 1785.00
20.6612 1827.00
20.7264 1860.00
20.7916 1720.00
20.8568 1690.00
20.922 1750.00
20.9872 1686.00
21.0524 1735.00
21.1176 1697.00
21.1828 1826.00
21.248 1762.00
21.3132 1791.00
21.3784 1756.00
21.4436 1805.00
21.5088 1743.00
21.574 1678.00
21.6392 1652.00
21.7044 1615.00
21.7696 1691.00
21.8348 1654.00
21.9 1616.00
21.9652 1771.00
22.0304 1606.00
22.0956 1695.00
22.1608 1637.00
22.226 1621.00
22.2912 1645.00
22.3564 1641.00
22.4216 1604.00
22.4868 1617.00
22.552 1682.00
22.6172 1610.00
22.6824 1696.00
22.7476 1665.00
22.8128 1723.00
22.878 1728.00
22.9432 1678.00
23.0084 1895.00
23.0736 2020.00
23.1388 2250.00
23.204 2836.00
23.2692 3819.00
23.3344 5246.00
23.3996 6836.00
23.4647 8241.00
23.5299 8414.00
23.5951 7209.00
23.6603 5786.00
23.7255 4023.00
23.7907 3035.00
23.8559 2335.00
23.9211 2200.00
23.9863 1925.00
24.0515 2013.00
24.1167 2211.00
24.1819 2224.00
24.2471 2298.00
24.3123 2207.00
24.3775 1989.00
24.4427 1852.00
24.5079 1711.00
24.5731 1704.00
24.6383 1687.00
24.7035 1678.00
24.7687 1655.00
24.8339 1639.00
24.8991 1600.00
24.9643 1578.00
25.0295 1656.00
25.0947 1557.00
25.1599 1496.00
25.2251 1517.00
25.2903 1443.00
25.3555 1467.00
25.4207 1461.00
25.4859 1530.00
25.5511 1468.00
25.6163 1525.00
25.6815 1491.00
25.7467 1417.00
25.8119 1468.00
25.8771 1482.00
25.9423 1358.00
26.0075 1489.00
26.0727 1468.00
26.1379 1496.00
26.2031 1403.00
26.2683 1376.00
26.3335 1487.00
26.3987 1474.00
26.4639 1457.00
26.5291 1410.00
26.5943 1432.00
26.6595 1408.00
26.7247 1327.00
26.7899 1489.00
26.8551 1445.00
26.9203 1413.00
26.9855 1477.00
27.0507 1445.00
27.1159 1416.00
27.1811 1438.00
27.2463 1440.00
27.3115 1451.00
27.3767 1513.00
27.4419 1574.00
27.5071 1498.00
27.5723 1569.00
27.6375 1547.00
27.7027 1535.00
27.7679 1432.00
27.8331 1401.00
27.8983 1465.00
27.9635 1546.00
28.0287 1725.00
28.0939 2034.00
28.1591 2631.00
28.2243 3231.00
28.2894 3870.00
28.3546 3972.00
28.4198 3672.00
28.485 3309.00
28.5502 2873.00
28.6154 2324.00
28.6806 1885.00
28.7458 1634.00
28.811 1492.00
28.8762 1494.00
28.9414 1364.00
29.0066 1362.00
29.0718 1300.00
29.137 1368.00
29.2022 1430.00
29.2674 1343.00
29.3326 1329.00
29.3978 1382.00
29.463 1355.00
29.5282 1338.00
29.5934 1336.00
29.6586 1395.00
29.7238 1328.00
29.789 1264.00
29.8542 1271.00
29.9194 1272.00
29.9846 1281.00
30.0498 1384.00
30.115 1325.00
30.1802 1332.00
30.2454 1371.00
30.3106 1373.00
30.3758 1296.00
30.441 1394.00
30.5062 1351.00
30.5714 1423.00
30.6366 1364.00
30.7018 1439.00
30.767 1479.00
30.8322 1455.00
30.8974 1410.00
30.9626 1690.00
31.0278 1911.00
31.093 2515.00
31.1582 3441.00
31.2234 4857.00
31.2886 6430.00
31.3538 7302.00
31.419 7043.00
31.4842 6006.00
31.5494 4959.00
31.6146 4643.00
31.6798 4950.00
31.745 5008.00
31.8102 4709.00
31.8754 3712.00
31.9406 2888.00
32.0058 2236.00
32.071 1815.00
32.1362 1619.00
32.2014 1509.00
32.2666 1553.00
32.3318 1455.00
32.397 1519.00
32.4622 1480.00
32.5274 1449.00
32.5926 1436.00
32.6578 1510.00
32.723 1321.00
32.7882 1344.00
32.8534 1286.00
32.9186 1295.00
32.9838 1243.00
33.0489 1189.00
33.1141 1146.00
33.1793 1180.00
33.2445 1240.00
33.3097 1171.00
33.3749 1216.00
33.4401 1205.00
33.5053 1195.00
33.5705 1197.00
33.6357 1185.00
33.7009 1186.00
33.7661 1142.00
33.8313 1141.00
33.8965 1213.00
33.9617 1184.00
34.0269 1213.00
34.0921 1219.00
34.1573 1194.00
34.2225 1126.00
34.2877 1249.00
34.3529 1248.00
34.4181 1212.00
34.4833 1202.00
34.5485 1219.00
34.6137 1182.00
34.6789 1185.00
34.7441 1278.00
34.8093 1500.00
34.8745 1580.00
34.9397 1950.00
35.0049 2187.00
35.0701 2388.00
35.1353 2673.00
35.2005 3172.00
35.2657 3722.00
35.3309 4436.00
35.3961 4752.00
35.4613 4258.00
35.5265 3346.00
35.5917 2412.00
35.6569 1776.00
35.7221 1471.00
35.7873 1312.00
35.8525 1138.00
35.9177 1192.00
35.9829 1155.00
36.0481 1118.00
36.1133 1088.00
36.1785 1150.00
36.2437 1150.00
36.3089 1101.00
36.3741 1162.00
36.4393 1160.00
36.5045 1106.00
36.5697 1097.00
36.6349 1132.00
36.7001 1053.00
36.7653 1068.00
36.8305 1089.00
36.8957 1041.00
36.9609 1100.00
37.0261 1017.00
37.0913 1092.00
37.1565 1009.00
37.2217 1085.00
37.2869 1049.00
37.3521 1041.00
37.4173 1109.00
37.4825 1048.00
37.5477 1002.00
37.6129 1087.00
37.6781 1052.00
37.7433 1069.00
37.8085 1030.00
37.8736 986.00
37.9388 1011.00
38.004 1024.00
38.0692 1029.00
38.1344 1029.00
38.1996 943.00
38.2648 1006.00
38.33 940.00
38.3952 1060.00
38.4604 958.00
38.5256 973.00
38.5908 1016.00
38.656 984.00
38.7212 1042.00
38.7864 1027.00
38.8516 972.00
38.9168 999.00
38.982 1004.00
39.0472 922.00
39.1124 1041.00
39.1776 1063.00
39.2428 996.00
39.308 1010.00
39.3732 978.00
39.4384 963.00
39.5036 1103.00
39.5688 1009.00
39.634 1030.00
39.6992 1014.00
39.7644 1268.00
39.8296 1185.00
39.8948 1219.00
39.96 1149.00
40.0252 1125.00
40.0904 1089.00
40.1556 1063.00
40.2208 1005.00
40.286 1138.00
40.3512 1111.00
40.4164 1130.00
40.4816 1079.00
40.5468 1103.00
40.612 1106.00
40.6772 1012.00
40.7424 996.00
40.8076 1017.00
40.8728 1043.00
40.938 1084.00
41.0032 1049.00
41.0684 1070.00
41.1336 1158.00
41.1988 1152.00
41.264 1049.00
41.3292 1057.00
41.3944 1092.00
41.4596 1135.00
41.5248 1120.00
41.59 1223.00
41.6552 1186.00
41.7204 1195.00
41.7856 1114.00
41.8508 1138.00
41.916 1146.00
41.9812 1120.00
42.0464 1106.00
42.1116 1172.00
42.1768 1244.00
42.242 1254.00
42.3072 1196.00
42.3724 1208.00
42.4376 1215.00
42.5028 1232.00
42.568 1212.00
42.6332 1254.00
42.6983 1345.00
42.7635 1493.00
42.8287 1652.00
42.8939 1762.00
42.9591 1945.00
43.0243 2058.00
43.0895 1933.00
43.1547 1677.00
43.2199 1508.00
43.2851 1267.00
43.3503 1188.00
43.4155 1149.00
43.4807 1155.00
43.5459 1168.00
43.6111 1096.00
43.6763 1130.00
43.7415 1105.00
43.8067 1066.00
43.8719 972.00
43.9371 1006.00
44.0023 959.00
44.0675 1067.00
44.1327 977.00
44.1979 971.00
44.2631 1039.00
44.3283 1041.00
44.3935 997.00
44.4587 972.00
44.5239 940.00
44.5891 988.00
44.6543 1018.00
44.7195 1011.00
44.7847 1070.00
44.8499 1243.00
44.9151 1328.00
44.9803 1530.00
45.0455 1722.00
45.1107 1732.00
45.1759 1713.00
45.2411 1565.00
45.3063 1432.00
45.3715 1337.00
45.4367 1259.00
45.5019 1409.00
45.5671 1495.00
45.6323 1467.00
45.6975 1573.00
45.7627 1570.00
45.8279 1607.00
45.8931 1655.00
45.9583 1715.00
46.0235 1543.00
46.0887 1473.00
46.1539 1326.00
46.2191 1148.00
46.2843 1094.00
46.3495 960.00
46.4147 964.00
46.4799 1006.00
46.5451 1054.00
46.6103 1081.00
46.6755 1025.00
46.7407 1093.00
46.8059 1165.00
46.8711 1245.00
46.9363 1238.00
47.0015 1201.00
47.0667 1168.00
47.1319 1082.00
47.1971 1062.00
47.2623 1003.00
47.3275 1016.00
47.3927 1037.00
47.4579 1084.00
47.523 1164.00
47.5882 1340.00
47.6534 1390.00
47.7186 1552.00
47.7838 1726.00
47.849 1955.00
47.9142 2247.00
47.9794 2558.00
48.0446 2809.00
48.1098 2636.00
48.175 2568.00
48.2402 2520.00
48.3054 2351.00
48.3706 2290.00
48.4358 2069.00
48.501 1878.00
48.5662 1683.00
48.6314 1531.00
48.6966 1403.00
48.7618 1239.00
48.827 1092.00
48.8922 1037.00
48.9574 1043.00
49.0226 1052.00
49.0878 1013.00
49.153 973.00
49.2182 969.00
49.2834 974.00
49.3486 944.00
49.4138 971.00
49.479 1053.00
49.5442 1055.00
49.6094 1065.00
49.6746 1104.00
49.7398 1154.00
49.805 1044.00
49.8702 1052.00
49.9354 952.00
50.0006 1016.00
50.0658 985.00
50.131 958.00
50.1962 931.00
50.2614 883.00
50.3266 966.00
50.3918 908.00
50.457 947.00
50.5222 931.00
50.5874 897.00
50.6526 934.00
50.7178 884.00
50.783 893.00
50.8482 903.00
50.9134 908.00
50.9786 923.00
51.0438 917.00
51.109 1006.00
51.1742 994.00
51.2394 1064.00
51.3046 1196.00
51.3698 1376.00
51.435 1509.00
51.5002 1611.00
51.5654 1760.00
51.6306 1759.00
51.6958 1715.00
51.761 1609.00
51.8262 1551.00
51.8914 1459.00
51.9566 1457.00
52.0218 1461.00
52.087 1467.00
52.1522 1676.00
52.2174 1646.00
52.2826 1736.00
52.3477 1541.00
52.4129 1552.00
52.4781 1345.00
52.5433 1229.00
52.6085 1124.00
52.6737 1040.00
52.7389 1087.00
52.8041 1041.00
52.8693 950.00
52.9345 883.00
52.9997 874.00
53.0649 878.00
53.1301 939.00
53.1953 917.00
53.2605 881.00
53.3257 896.00
53.3909 869.00
53.4561 864.00
53.5213 874.00
53.5865 903.00
53.6517 933.00
53.7169 958.00
53.7821 993.00
53.8473 973.00
53.9125 900.00
53.9777 910.00
54.0429 927.00
54.1081 1020.00
54.1733 1101.00
54.2385 1079.00
54.3037 1246.00
54.3689 1246.00
54.4341 1225.00
54.4993 1224.00
54.5645 1140.00
54.6297 1154.00
54.6949 1195.00
54.7601 1176.00
54.8253 1267.00
54.8905 1348.00
54.9557 1529.00
55.0209 1773.00
55.0861 1916.00
55.1513 2200.00
55.2165 2393.00
55.2817 2490.00
55.3469 2396.00
55.4121 2229.00
55.4773 1875.00
55.5425 1581.00
55.6077 1394.00
55.6729 1198.00
55.7381 1029.00
55.8033 911.00
55.8685 937.00
55.9337 921.00
55.9989 900.00
56.0641 816.00
56.1293 839.00
56.1945 863.00
56.2597 956.00
56.3249 954.00
56.3901 938.00
56.4553 980.00
56.5205 1073.00
56.5857 1068.00
56.6509 1163.00
56.7161 1118.00
56.7813 1088.00
56.8465 1058.00
56.9117 1064.00
56.9769 1011.00
57.042 947.00
57.1073 984.00
57.1724 955.00
57.2376 891.00
57.3028 816.00
57.368 868.00
57.4332 801.00
57.4984 816.00
57.5636 825.00
57.6288 873.00
57.694 806.00
57.7592 820.00
57.8244 855.00
57.8896 846.00
57.9548 786.00
58.02 818.00
58.0852 856.00
58.1504 811.00
58.2156 802.00
58.2808 879.00
58.346 857.00
58.4112 936.00
58.4764 976.00
58.5416 1084.00
58.6068 1126.00
58.672 1067.00
58.7372 1181.00
58.8024 1095.00
58.8676 975.00
58.9328 992.00
58.998 972.00
59.0632 959.00
59.1284 886.00
59.1936 872.00
59.2588 773.00
59.324 838.00
59.3892 834.00
59.4544 851.00
59.5196 823.00
59.5848 871.00
59.65 854.00
59.7152 884.00
59.7804 979.00
59.8456 1029.00
59.9108 1128.00
59.976 1226.00
60.0412 1301.00
60.1064 1283.00
60.1716 1282.00
60.2368 1295.00
60.302 1120.00
60.3672 1110.00
60.4324 1088.00
60.4976 1124.00
60.5628 1106.00
60.628 1152.00
60.6932 1231.00
60.7584 1343.00
60.8236 1393.00
60.8888 1465.00
60.954 1620.00
61.0192 1676.00
61.0844 1714.00
61.1496 1710.00
61.2148 1684.00
61.28 1519.00
61.3452 1444.00
61.4104 1310.00
61.4756 1200.00
61.5408 1138.00
61.606 1099.00
61.6712 1022.00
61.7364 959.00
61.8016 890.00
61.8667 898.00
61.932 836.00
61.9971 886.00
62.0623 900.00
62.1275 863.00
62.1927 906.00
62.2579 937.00
62.3231 962.00
62.3883 1061.00
62.4535 1050.00
62.5187 1157.00
62.5839 1145.00
62.6491 1204.00
62.7143 1144.00
62.7795 1167.00
62.8447 1123.00
62.9099 1122.00
62.9751 1106.00
63.0403 1068.00
63.1055 1065.00
63.1707 1136.00
63.2359 1157.00
63.3011 1258.00
63.3663 1274.00
63.4315 1346.00
63.4967 1282.00
63.5619 1396.00
63.6271 1296.00
63.6923 1239.00
63.7575 1153.00
63.8227 1141.00
63.8879 1116.00
63.9531 1106.00
64.0183 1187.00
64.0835 1103.00
64.1487 1131.00
64.2139 1066.00
64.2791 1011.00
64.3443 1002.00
64.4095 936.00
64.4747 889.00
64.5399 906.00
64.6051 923.00
64.6703 904.00
64.7355 909.00
64.8007 880.00
64.8659 863.00
64.9311 836.00
64.9963 900.00
65.0615 824.00
65.1267 829.00
65.1919 825.00
65.2571 787.00
65.3223 814.00
65.3875 753.00
65.4527 779.00
65.5179 764.00
65.5831 830.00
65.6483 882.00
65.7135 851.00
65.7787 871.00
65.8439 819.00
65.9091 810.00
65.9743 770.00
66.0395 796.00
66.1047 858.00
66.1699 841.00
66.2351 852.00
66.3003 826.00
66.3655 818.00
66.4307 954.00
66.4959 897.00
66.561 931.00
66.6263 968.00
66.6915 954.00
66.7566 997.00
66.8218 1015.00
66.887 958.00
66.9522 1048.00
67.0174 966.00
67.0826 1021.00
67.1478 1033.00
67.213 1085.00
67.2782 1003.00
67.3434 1020.00
67.4086 972.00
67.4738 1022.00
67.539 957.00
67.6042 930.00
67.6694 1002.00
67.7346 957.00
67.7998 1036.00
67.865 1008.00
67.9302 995.00
67.9954 1060.00
68.0606 1025.00
68.1258 983.00
68.191 871.00
68.2562 948.00
68.3214 954.00
68.3866 903.00
68.4518 881.00
68.517 883.00
68.5822 1002.00
68.6474 1038.00
68.7126 1005.00
68.7778 1073.00
68.843 1078.00
68.9082 957.00
68.9734 977.00
69.0386 991.00
69.1038 913.00
69.169 815.00
69.2342 811.00
69.2994 776.00
69.3646 735.00
69.4298 767.00
69.495 733.00
69.5602 747.00
69.6254 677.00
69.6906 749.00
69.7558 712.00
69.821 729.00
69.8862 679.00
69.9514 769.00
70.0166 726.00
70.0818 715.00
70.147 680.00
70.2122 701.00
70.2774 697.00
70.3426 773.00
70.4078 712.00
70.473 777.00
70.5382 827.00
70.6034 875.00
70.6686 809.00
70.7338 910.00
70.799 975.00
70.8642 1023.00
70.9294 1122.00
70.9946 1168.00
71.0598 1147.00
71.125 1161.00
71.1902 1030.00
71.2554 1036.00
71.3205 984.00
71.3858 961.00
71.451 895.00
71.5162 842.00
71.5813 795.00
71.6465 738.00
71.7117 782.00
71.7769 770.00
71.8421 765.00
71.9073 754.00
71.9725 775.00
72.0377 791.00
72.1029 790.00
72.1681 860.00
72.2333 758.00
72.2985 873.00
72.3637 841.00
72.4289 801.00
72.4941 804.00
72.5593 755.00
72.6245 787.00
72.6897 737.00
72.7549 709.00
72.8201 703.00
72.8853 726.00
72.9505 704.00
73.0157 707.00
73.0809 736.00
73.1461 710.00
73.2113 756.00
73.2765 733.00
73.3417 739.00
73.4069 694.00
73.4721 719.00
73.5373 738.00
73.6025 680.00
73.6677 732.00
73.7329 739.00
73.7981 744.00
73.8633 738.00
73.9285 810.00
73.9937 801.00
74.0589 812.00
74.1241 859.00
74.1893 872.00
74.2545 826.00
74.3197 872.00
74.3849 887.00
74.4501 913.00
74.5153 866.00
74.5805 920.00
74.6457 934.00
74.7109 1037.00
74.7761 1102.00
74.8413 1130.00
74.9065 1192.00
74.9717 1183.00
75.0369 1068.00
75.1021 1036.00
75.1673 1019.00
75.2325 954.00
75.2977 948.00
75.3629 835.00
75.4281 862.00
75.4933 865.00
75.5585 908.00
75.6237 866.00
75.6889 823.00
75.7541 846.00
75.8193 855.00
75.8845 797.00
75.9497 847.00
76.0149 812.00
76.0801 894.00
76.1452 818.00
76.2104 818.00
76.2756 752.00
76.3409 799.00
76.406 785.00
76.4712 758.00
76.5364 732.00
76.6016 752.00
76.6668 742.00
76.732 746.00
76.7972 762.00
76.8624 727.00
76.9276 698.00
76.9928 717.00
77.058 697.00
77.1232 681.00
77.1884 633.00
77.2536 719.00
77.3188 696.00
77.384 667.00
77.4492 737.00
77.5144 712.00
77.5796 686.00
77.6448 750.00
77.71 749.00
77.7752 739.00
77.8404 751.00
77.9056 782.00
77.9708 774.00
78.036 736.00
78.1012 758.00
78.1664 797.00
78.2316 784.00
78.2968 817.00
78.362 741.00
78.4272 839.00
78.4924 810.00
78.5576 885.00
78.6228 781.00
78.688 835.00
78.7532 744.00
78.8184 791.00
78.8836 762.00
78.9488 756.00
79.014 765.00
79.0792 799.00
79.1444 695.00
79.2096 753.00
79.2748 742.00
79.34 718.00
79.4052 770.00
79.4704 725.00
79.5356 648.00
79.6008 716.00
79.666 768.00
79.7312 709.00
79.7964 696.00
79.8616 709.00
79.9268 697.00
79.992 705.00
80.0572 618.00
80.1224 674.00
80.1876 642.00
80.2528 632.00
80.318 660.00
80.3832 651.00
80.4484 689.00
80.5136 658.00
80.5788 724.00
80.644 660.00
80.7092 646.00
80.7744 658.00
80.8396 643.00
80.9048 664.00
80.9699 691.00
81.0351 718.00
81.1003 731.00
81.1655 738.00
81.2307 804.00
81.2959 779.00
81.3611 834.00
81.4263 795.00
81.4915 828.00
81.5567 749.00
81.6219 782.00
81.6871 749.00
81.7523 755.00
81.8175 693.00
81.8827 695.00
81.9479 679.00
82.0131 748.00
82.0783 676.00
82.1435 711.00
82.2087 722.00
82.2739 705.00
82.3391 717.00
82.4043 750.00
82.4695 737.00
82.5347 764.00
82.5999 707.00
82.6651 870.00
82.7303 803.00
82.7955 770.00
82.8607 763.00
82.9259 796.00
82.9911 687.00
83.0563 820.00
83.1215 754.00
83.1867 824.00
83.2519 829.00
83.3171 849.00
83.3823 858.00
83.4475 879.00
83.5127 852.00
83.5779 888.00
83.6431 905.00
83.7083 811.00
83.7735 841.00
83.8387 835.00
83.9039 747.00
83.9691 779.00
84.0343 717.00
84.0995 688.00
84.1647 713.00
84.2299 674.00
84.2951 683.00
84.3603 751.00
84.4255 661.00
84.4907 696.00
84.5559 744.00
84.6211 798.00
84.6863 721.00
84.7515 816.00
84.8167 797.00
84.8819 816.00
84.9471 768.00
85.0123 774.00
85.0775 799.00
85.1427 780.00
85.2079 841.00
85.2731 814.00
85.3383 872.00
85.4035 822.00
85.4687 855.00
85.5339 800.00
85.5991 764.00
85.6643 766.00
85.7295 784.00
85.7946 697.00
85.8598 655.00
85.925 701.00
85.9903 729.00
86.0554 729.00
86.1206 690.00
86.1858 722.00
86.251 708.00
86.3162 752.00
86.3814 651.00
86.4466 672.00
86.5118 675.00
86.577 684.00
86.6422 729.00
86.7074 661.00
86.7726 710.00
86.8378 669.00
86.903 697.00
86.9682 680.00
87.0334 754.00
87.0986 727.00
87.1638 679.00
87.229 644.00
87.2942 686.00
87.3594 634.00
87.4246 693.00
87.4898 714.00
87.555 699.00
87.6202 658.00
87.6854 706.00
87.7506 667.00
87.8158 718.00
87.881 665.00
87.9462 678.00
88.0114 679.00
88.0766 698.00
88.1418 704.00
88.207 698.00
88.2722 699.00
88.3374 699.00
88.4026 771.00
88.4678 679.00
88.533 732.00
88.5982 717.00
88.6634 751.00
88.7286 750.00
88.7938 705.00
88.859 780.00
88.9242 744.00
88.9894 703.00
89.0546 798.00
89.1198 757.00
89.185 819.00
89.2502 756.00
89.3154 832.00
89.3806 826.00
89.4458 805.00
89.511 891.00
89.5762 806.00
89.6414 907.00
89.7066 863.00
89.7718 918.00
89.837 883.00
89.9022 871.00
89.9674 944.00
90.0326 824.00
90.0978 844.00
90.163 893.00
90.2282 820.00
90.2934 807.00
90.3586 809.00
90.4238 721.00
90.489 774.00
90.5542 798.00
90.6193 732.00
90.6845 716.00
90.7497 720.00
90.8149 712.00
90.8801 733.00
90.9453 695.00
91.0105 723.00
91.0757 668.00
91.1409 667.00
91.2061 714.00
91.2713 666.00
91.3365 674.00
91.4017 682.00
91.4669 692.00
91.5321 711.00
91.5973 626.00
91.6625 642.00
91.7277 696.00
91.7929 658.00
91.8581 752.00
91.9233 750.00
91.9885 710.00
92.0537 728.00
92.1189 768.00
92.1841 733.00
92.2493 761.00
92.3145 723.00
92.3797 724.00
92.4449 721.00
92.5101 716.00
92.5753 738.00
92.6405 680.00
92.7057 661.00
92.7709 639.00
92.8361 657.00
92.9013 685.00
92.9665 614.00
93.0317 666.00
93.0969 648.00
93.1621 561.00
93.2273 621.00
93.2925 647.00
93.3577 704.00
93.4229 666.00
93.4881 693.00
93.5533 658.00
93.6185 653.00
93.6837 653.00
93.7489 646.00
93.8141 748.00
93.8793 653.00
93.9445 716.00
94.0097 689.00
94.0749 720.00
94.1401 742.00
94.2053 642.00
94.2705 711.00
94.3357 680.00
94.4009 686.00
94.4661 699.00
94.5313 677.00
94.5965 724.00
94.6617 721.00
94.7269 667.00
94.7921 701.00
94.8573 650.00
94.9225 648.00
94.9877 737.00
95.0529 671.00
95.1181 749.00
95.1833 721.00
95.2485 708.00
95.3137 735.00
95.3789 772.00
95.444 764.00
95.5092 804.00
95.5744 799.00
95.6396 758.00
95.7048 809.00
95.77 770.00
95.8352 766.00
95.9004 801.00
95.9656 777.00
96.0308 845.00
96.096 791.00
96.1612 814.00
96.2264 822.00
96.2916 804.00
96.3568 708.00
96.422 792.00
96.4872 781.00
96.5524 793.00
96.6176 787.00
96.6828 774.00
96.748 808.00
96.8132 773.00
96.8784 759.00
96.9436 781.00
97.0088 744.00
97.074 773.00
97.1392 729.00
97.2044 733.00
97.2696 725.00
97.3348 711.00
97.4 727.00
97.4652 669.00
97.5304 651.00
97.5956 667.00
97.6608 637.00
97.726 663.00
97.7912 647.00
97.8564 646.00
97.9216 608.00
97.9868 663.00
98.052 614.00
98.1172 716.00
98.1824 621.00
98.2476 666.00
98.3128 643.00
98.378 655.00
98.4432 657.00
98.5084 661.00
98.5736 589.00
98.6388 646.00
98.704 675.00
98.7692 683.00
98.8344 709.00
98.8996 690.00
98.9648 661.00
99.03 678.00
99.0952 730.00
99.1604 688.00
99.2256 713.00
99.2908 705.00
99.356 674.00
99.4212 671.00
99.4864 748.00
99.5516 692.00
99.6168 694.00
99.682 691.00
99.7472 665.00
99.8124 689.00
99.8776 695.00
99.9428 651.00
100.008 708.00
100.073 686.00
100.095 657.00