File: data/xrd_creation/results/NSC_93.xy
9.903433 2898.00
9.968632 2736.00
10.0338 2728.00
10.099 2657.00
10.1642 2675.00
10.2294 2636.00
10.2946 2528.00
10.3598 2568.00
10.425 2576.00
10.4902 2557.00
10.5554 2469.00
10.6206 2382.00
10.6858 2534.00
10.751 2442.00
10.8162 2377.00
10.8814 2405.00
10.9466 2449.00
11.0118 2356.00
11.077 2336.00
11.1422 2345.00
11.2074 2256.00
11.2726 2355.00
11.3378 2256.00
11.403 2277.00
11.4682 2245.00
11.5334 2216.00
11.5986 2220.00
11.6638 2160.00
11.729 2152.00
11.7942 2065.00
11.8594 2109.00
11.9246 2112.00
11.9898 2098.00
12.055 2073.00
12.1202 2057.00
12.1854 2068.00
12.2506 2068.00
12.3158 1999.00
12.381 1961.00
12.4462 1974.00
12.5114 1952.00
12.5766 1975.00
12.6418 1913.00
12.707 1905.00
12.7722 1896.00
12.8374 1910.00
12.9026 1920.00
12.9678 1872.00
13.033 1892.00
13.0982 1867.00
13.1634 1837.00
13.2286 1830.00
13.2938 1858.00
13.359 1795.00
13.4242 1830.00
13.4894 1802.00
13.5546 1829.00
13.6198 1794.00
13.685 1797.00
13.7502 1784.00
13.8154 1699.00
13.8805 1752.00
13.9457 1753.00
14.0109 1850.00
14.0761 1814.00
14.1413 1930.00
14.2065 2052.00
14.2717 2309.00
14.3369 2353.00
14.4021 2283.00
14.4673 2327.00
14.5325 2262.00
14.5977 2113.00
14.6629 2000.00
14.7281 1784.00
14.7933 1674.00
14.8585 1625.00
14.9237 1612.00
14.9889 1623.00
15.0541 1669.00
15.1193 1607.00
15.1845 1644.00
15.2497 1577.00
15.3149 1674.00
15.3801 1457.00
15.4453 1552.00
15.5105 1613.00
15.5757 1594.00
15.6409 1540.00
15.7061 1532.00
15.7713 1588.00
15.8365 1560.00
15.9017 1520.00
15.9669 1559.00
16.0321 1514.00
16.0973 1551.00
16.1625 1550.00
16.2277 1542.00
16.2929 1526.00
16.3581 1533.00
16.4233 1510.00
16.4885 1541.00
16.5537 1527.00
16.6189 1462.00
16.6841 1459.00
16.7493 1541.00
16.8145 1419.00
16.8797 1542.00
16.9449 1416.00
17.0101 1471.00
17.0753 1479.00
17.1405 1410.00
17.2057 1481.00
17.2709 1478.00
17.3361 1446.00
17.4013 1416.00
17.4665 1476.00
17.5317 1408.00
17.5969 1447.00
17.6621 1409.00
17.7273 1430.00
17.7925 1367.00
17.8577 1434.00
17.9229 1409.00
17.9881 1460.00
18.0533 1386.00
18.1185 1343.00
18.1837 1372.00
18.2489 1379.00
18.3141 1391.00
18.3793 1327.00
18.4445 1354.00
18.5097 1349.00
18.5749 1370.00
18.6401 1288.00
18.7052 1312.00
18.7704 1309.00
18.8356 1325.00
18.9008 1327.00
18.966 1313.00
19.0312 1388.00
19.0964 1333.00
19.1616 1398.00
19.2268 1391.00
19.292 1445.00
19.3572 1532.00
19.4224 1558.00
19.4876 1587.00
19.5528 1703.00
19.618 1977.00
19.6832 2538.00
19.7484 3124.00
19.8136 3693.00
19.8788 4015.00
19.944 3930.00
20.0092 3794.00
20.0744 3563.00
20.1396 2967.00
20.2048 2039.00
20.27 1613.00
20.3352 1497.00
20.4004 1501.00
20.4656 1539.00
20.5308 1609.00
20.596 1738.00
20.6612 2157.00
20.7264 2695.00
20.7916 3360.00
20.8568 4158.00
20.922 4606.00
20.9872 4464.00
21.0524 4278.00
21.1176 3973.00
21.1828 3256.00
21.248 2219.00
21.3132 1558.00
21.3784 1365.00
21.4436 1341.00
21.5088 1353.00
21.574 1282.00
21.6392 1264.00
21.7044 1299.00
21.7696 1216.00
21.8348 1239.00
21.9 1188.00
21.9652 1147.00
22.0304 1086.00
22.0956 1199.00
22.1608 1201.00
22.226 1228.00
22.2912 1196.00
22.3564 1253.00
22.4216 1248.00
22.4868 1213.00
22.552 1250.00
22.6172 1143.00
22.6824 1184.00
22.7476 1117.00
22.8128 1079.00
22.878 1137.00
22.9432 1146.00
23.0084 1082.00
23.0736 1081.00
23.1388 1114.00
23.204 1101.00
23.2692 1127.00
23.3344 1056.00
23.3996 1135.00
23.4647 1132.00
23.5299 1102.00
23.5951 1116.00
23.6603 1260.00
23.7255 1332.00
23.7907 1408.00
23.8559 1752.00
23.9211 2076.00
23.9863 2497.00
24.0515 2842.00
24.1167 3040.00
24.1819 3051.00
24.2471 2750.00
24.3123 2619.00
24.3775 1860.00
24.4427 1427.00
24.5079 1121.00
24.5731 1059.00
24.6383 1047.00
24.7035 1031.00
24.7687 1045.00
24.8339 1074.00
24.8991 980.00
24.9643 1007.00
25.0295 1031.00
25.0947 1014.00
25.1599 970.00
25.2251 1027.00
25.2903 986.00
25.3555 951.00
25.4207 980.00
25.4859 1009.00
25.5511 886.00
25.6163 937.00
25.6815 945.00
25.7467 1004.00
25.8119 958.00
25.8771 982.00
25.9423 953.00
26.0075 978.00
26.0727 946.00
26.1379 898.00
26.2031 921.00
26.2683 944.00
26.3335 913.00
26.3987 1037.00
26.4639 1102.00
26.5291 1266.00
26.5943 1399.00
26.6595 1397.00
26.7247 1417.00
26.7899 1408.00
26.8551 1383.00
26.9203 1204.00
26.9855 1009.00
27.0507 944.00
27.1159 901.00
27.1811 930.00
27.2463 874.00
27.3115 909.00
27.3767 908.00
27.4419 927.00
27.5071 860.00
27.5723 867.00
27.6375 971.00
27.7027 852.00
27.7679 798.00
27.8331 891.00
27.8983 827.00
27.9635 848.00
28.0287 853.00
28.0939 856.00
28.1591 861.00
28.2243 846.00
28.2894 837.00
28.3546 906.00
28.4198 831.00
28.485 882.00
28.5502 853.00
28.6154 952.00
28.6806 1015.00
28.7458 1240.00
28.811 1610.00
28.8762 1954.00
28.9414 2432.00
29.0066 2773.00
29.0718 3081.00
29.137 3074.00
29.2022 2727.00
29.2674 2093.00
29.3326 1482.00
29.3978 1064.00
29.463 914.00
29.5282 902.00
29.5934 804.00
29.6586 852.00
29.7238 777.00
29.789 795.00
29.8542 762.00
29.9194 780.00
29.9846 714.00
30.0498 752.00
30.115 800.00
30.1802 742.00
30.2454 781.00
30.3106 706.00
30.3758 761.00
30.441 801.00
30.5062 708.00
30.5714 691.00
30.6366 735.00
30.7018 778.00
30.767 715.00
30.8322 784.00
30.8974 825.00
30.9626 730.00
31.0278 775.00
31.093 785.00
31.1582 782.00
31.2234 793.00
31.2886 772.00
31.3538 859.00
31.419 934.00
31.4842 1004.00
31.5494 1173.00
31.6146 1595.00
31.6798 2162.00
31.745 2943.00
31.8102 3837.00
31.8754 4412.00
31.9406 4627.00
32.0058 4351.00
32.071 3448.00
32.1362 2305.00
32.2014 1372.00
32.2666 1153.00
32.3318 1040.00
32.397 1041.00
32.4622 1102.00
32.5274 999.00
32.5926 994.00
32.6578 1002.00
32.723 917.00
32.7882 776.00
32.8534 764.00
32.9186 739.00
32.9838 733.00
33.0489 716.00
33.1141 707.00
33.1793 743.00
33.2445 687.00
33.3097 709.00
33.3749 676.00
33.4401 678.00
33.5053 731.00
33.5705 712.00
33.6357 688.00
33.7009 755.00
33.7661 829.00
33.8313 932.00
33.8965 1119.00
33.9617 1194.00
34.0269 1380.00
34.0921 1389.00
34.1573 1376.00
34.2225 1147.00
34.2877 1004.00
34.3529 872.00
34.4181 763.00
34.4833 733.00
34.5485 671.00
34.6137 656.00
34.6789 715.00
34.7441 596.00
34.8093 671.00
34.8745 662.00
34.9397 631.00
35.0049 677.00
35.0701 675.00
35.1353 641.00
35.2005 625.00
35.2657 656.00
35.3309 643.00
35.3961 616.00
35.4613 595.00
35.5265 650.00
35.5917 698.00
35.6569 712.00
35.7221 770.00
35.7873 880.00
35.8525 1025.00
35.9177 1249.00
35.9829 1493.00
36.0481 1799.00
36.1133 1891.00
36.1785 1918.00
36.2437 1669.00
36.3089 1400.00
36.3741 1127.00
36.4393 1225.00
36.5045 1412.00
36.5697 1737.00
36.6349 2063.00
36.7001 2321.00
36.7653 2381.00
36.8305 2225.00
36.8957 1782.00
36.9609 1303.00
37.0261 861.00
37.0913 769.00
37.1565 709.00
37.2217 711.00
37.2869 677.00
37.3521 675.00
37.4173 644.00
37.4825 696.00
37.5477 666.00
37.6129 685.00
37.6781 710.00
37.7433 670.00
37.8085 657.00
37.8736 709.00
37.9388 694.00
38.004 730.00
38.0692 752.00
38.1344 722.00
38.1996 698.00
38.2648 716.00
38.33 594.00
38.3952 600.00
38.4604 603.00
38.5256 645.00
38.5908 674.00
38.656 671.00
38.7212 680.00
38.7864 667.00
38.8516 669.00
38.9168 624.00
38.982 527.00
39.0472 553.00
39.1124 586.00
39.1776 592.00
39.2428 606.00
39.308 540.00
39.3732 527.00
39.4384 566.00
39.5036 539.00
39.5688 493.00
39.634 510.00
39.6992 509.00
39.7644 537.00
39.8296 524.00
39.8948 554.00
39.96 520.00
40.0252 513.00
40.0904 578.00
40.1556 547.00
40.2208 614.00
40.286 661.00
40.3512 753.00
40.4164 818.00
40.4816 893.00
40.5468 801.00
40.612 715.00
40.6772 671.00
40.7424 532.00
40.8076 544.00
40.8728 533.00
40.938 502.00
41.0032 509.00
41.0684 502.00
41.1336 505.00
41.1988 513.00
41.264 525.00
41.3292 477.00
41.3944 485.00
41.4596 520.00
41.5248 516.00
41.59 498.00
41.6552 556.00
41.7204 599.00
41.7856 589.00
41.8508 751.00
41.916 789.00
41.9812 916.00
42.0464 997.00
42.1116 946.00
42.1768 916.00
42.242 810.00
42.3072 710.00
42.3724 692.00
42.4376 748.00
42.5028 777.00
42.568 900.00
42.6332 942.00
42.6983 973.00
42.7635 907.00
42.8287 805.00
42.8939 694.00
42.9591 624.00
43.0243 609.00
43.0895 625.00
43.1547 563.00
43.2199 599.00
43.2851 529.00
43.3503 519.00
43.4155 548.00
43.4807 501.00
43.5459 529.00
43.6111 514.00
43.6763 578.00
43.7415 525.00
43.8067 542.00
43.8719 619.00
43.9371 652.00
44.0023 811.00
44.0675 974.00
44.1327 1154.00
44.1979 1252.00
44.2631 1269.00
44.3283 1106.00
44.3935 921.00
44.4587 689.00
44.5239 595.00
44.5891 586.00
44.6543 495.00
44.7195 531.00
44.7847 535.00
44.8499 485.00
44.9151 501.00
44.9803 561.00
45.0455 520.00
45.1107 552.00
45.1759 649.00
45.2411 651.00
45.3063 587.00
45.3715 570.00
45.4367 621.00
45.5019 514.00
45.5671 521.00
45.6323 576.00
45.6975 694.00
45.7627 789.00
45.8279 998.00
45.8931 1192.00
45.9583 1309.00
46.0235 1281.00
46.0887 1166.00
46.1539 875.00
46.2191 734.00
46.2843 595.00
46.3495 518.00
46.4147 493.00
46.4799 490.00
46.5451 500.00
46.6103 514.00
46.6755 490.00
46.7407 484.00
46.8059 472.00
46.8711 496.00
46.9363 521.00
47.0015 579.00
47.0667 615.00
47.1319 687.00
47.1971 861.00
47.2623 1119.00
47.3275 1457.00
47.3927 1649.00
47.4579 1896.00
47.523 1801.00
47.5882 1553.00
47.6534 1161.00
47.7186 844.00
47.7838 664.00
47.849 533.00
47.9142 474.00
47.9794 492.00
48.0446 503.00
48.1098 446.00
48.175 473.00
48.2402 433.00
48.3054 488.00
48.3706 502.00
48.4358 478.00
48.501 538.00
48.5662 524.00
48.6314 555.00
48.6966 606.00
48.7618 530.00
48.827 562.00
48.8922 506.00
48.9574 614.00
49.0226 668.00
49.0878 829.00
49.153 1002.00
49.2182 1240.00
49.2834 1629.00
49.3486 1846.00
49.4138 2022.00
49.479 1764.00
49.5442 1434.00
49.6094 1027.00
49.6746 703.00
49.7398 608.00
49.805 523.00
49.8702 502.00
49.9354 465.00
50.0006 512.00
50.0658 559.00
50.131 529.00
50.1962 619.00
50.2614 620.00
50.3266 641.00
50.3918 628.00
50.457 598.00
50.5222 510.00
50.5874 539.00
50.6526 456.00
50.7178 430.00
50.783 459.00
50.8482 417.00
50.9134 401.00
50.9786 405.00
51.0438 412.00
51.109 452.00
51.1742 450.00
51.2394 493.00
51.3046 497.00
51.3698 474.00
51.435 503.00
51.5002 446.00
51.5654 473.00
51.6306 561.00
51.6958 640.00
51.761 707.00
51.8262 881.00
51.8914 999.00
51.9566 1100.00
52.0218 1182.00
52.087 1193.00
52.1522 1219.00
52.2174 1485.00
52.2826 1684.00
52.3477 1925.00
52.4129 1947.00
52.4781 1674.00
52.5433 1328.00
52.6085 968.00
52.6737 722.00
52.7389 608.00
52.8041 528.00
52.8693 515.00
52.9345 421.00
52.9997 524.00
53.0649 541.00
53.1301 488.00
53.1953 573.00
53.2605 516.00
53.3257 523.00
53.3909 468.00
53.4561 434.00
53.5213 440.00
53.5865 439.00
53.6517 354.00
53.7169 446.00
53.7821 412.00
53.8473 379.00
53.9125 371.00
53.9777 451.00
54.0429 365.00
54.1081 386.00
54.1733 415.00
54.2385 409.00
54.3037 420.00
54.3689 419.00
54.4341 426.00
54.4993 440.00
54.5645 442.00
54.6297 450.00
54.6949 462.00
54.7601 456.00
54.8253 469.00
54.8905 555.00
54.9557 594.00
55.0209 548.00
55.0861 500.00
55.1513 488.00
55.2165 454.00
55.2817 484.00
55.3469 462.00
55.4121 460.00
55.4773 501.00
55.5425 558.00
55.6077 689.00
55.6729 840.00
55.7381 822.00
55.8033 818.00
55.8685 683.00
55.9337 610.00
55.9989 567.00
56.0641 458.00
56.1293 472.00
56.1945 444.00
56.2597 448.00
56.3249 409.00
56.3901 470.00
56.4553 504.00
56.5205 476.00
56.5857 486.00
56.6509 506.00
56.7161 665.00
56.7813 767.00
56.8465 882.00
56.9117 1024.00
56.9769 1248.00
57.042 1323.00
57.1073 1324.00
57.1724 1251.00
57.2376 1248.00
57.3028 1347.00
57.368 1571.00
57.4332 1694.00
57.4984 1676.00
57.5636 1482.00
57.6288 1188.00
57.694 902.00
57.7592 806.00
57.8244 587.00
57.8896 575.00
57.9548 548.00
58.02 506.00
58.0852 506.00
58.1504 442.00
58.2156 463.00
58.2808 444.00
58.346 487.00
58.4112 509.00
58.4764 488.00
58.5416 515.00
58.6068 559.00
58.672 638.00
58.7372 681.00
58.8024 710.00
58.8676 813.00
58.9328 701.00
58.998 680.00
59.0632 605.00
59.1284 524.00
59.1936 501.00
59.2588 439.00
59.324 428.00
59.3892 404.00
59.4544 394.00
59.5196 412.00
59.5848 379.00
59.65 395.00
59.7152 402.00
59.7804 377.00
59.8456 402.00
59.9108 462.00
59.976 437.00
60.0412 509.00
60.1064 546.00
60.1716 553.00
60.2368 599.00
60.302 540.00
60.3672 486.00
60.4324 511.00
60.4976 474.00
60.5628 406.00
60.628 405.00
60.6932 421.00
60.7584 435.00
60.8236 426.00
60.8888 408.00
60.954 469.00
61.0192 488.00
61.0844 562.00
61.1496 653.00
61.2148 830.00
61.28 1063.00
61.3452 1262.00
61.4104 1183.00
61.4756 1164.00
61.5408 977.00
61.606 794.00
61.6712 570.00
61.7364 526.00
61.8016 484.00
61.8667 505.00
61.932 495.00
61.9971 537.00
62.0623 620.00
62.1275 587.00
62.1927 577.00
62.2579 558.00
62.3231 533.00
62.3883 563.00
62.4535 542.00
62.5187 604.00
62.5839 515.00
62.6491 555.00
62.7143 626.00
62.7795 774.00
62.8447 1009.00
62.9099 1213.00
62.9751 1537.00
63.0403 1737.00
63.1055 1716.00
63.1707 1581.00
63.2359 1299.00
63.3011 1023.00
63.3663 894.00
63.4315 726.00
63.4967 565.00
63.5619 547.00
63.6271 491.00
63.6923 448.00
63.7575 409.00
63.8227 410.00
63.8879 399.00
63.9531 384.00
64.0183 401.00
64.0835 402.00
64.1487 430.00
64.2139 440.00
64.2791 445.00
64.3443 456.00
64.4095 461.00
64.4747 497.00
64.5399 513.00
64.6051 501.00
64.6703 493.00
64.7355 483.00
64.8007 464.00
64.8659 542.00
64.9311 509.00
64.9963 491.00
65.0615 515.00
65.1267 467.00
65.1919 475.00
65.2571 473.00
65.3223 547.00
65.3875 644.00
65.4527 785.00
65.5179 864.00
65.5831 967.00
65.6483 980.00
65.7135 962.00
65.7787 937.00
65.8439 887.00
65.9091 926.00
65.9743 1004.00
66.0395 1024.00
66.1047 937.00
66.1699 975.00
66.2351 818.00
66.3003 653.00
66.3655 557.00
66.4307 490.00
66.4959 422.00
66.561 467.00
66.6263 394.00
66.6915 382.00
66.7566 408.00
66.8218 420.00
66.887 410.00
66.9522 468.00
67.0174 463.00
67.0826 521.00
67.1478 692.00
67.213 785.00
67.2782 834.00
67.3434 960.00
67.4086 843.00
67.4738 765.00
67.539 655.00
67.6042 583.00
67.6694 481.00
67.7346 459.00
67.7998 465.00
67.865 453.00
67.9302 411.00
67.9954 401.00
68.0606 371.00
68.1258 394.00
68.191 355.00
68.2562 354.00
68.3214 335.00
68.3866 333.00
68.4518 366.00
68.517 369.00
68.5822 350.00
68.6474 338.00
68.7126 353.00
68.7778 362.00
68.843 337.00
68.9082 337.00
68.9734 360.00
69.0386 380.00
69.1038 332.00
69.169 395.00
69.2342 395.00
69.2994 407.00
69.3646 442.00
69.4298 557.00
69.495 673.00
69.5602 840.00
69.6254 883.00
69.6906 985.00
69.7558 862.00
69.821 745.00
69.8862 660.00
69.9514 571.00
70.0166 429.00
70.0818 402.00
70.147 411.00
70.2122 377.00
70.2774 347.00
70.3426 359.00
70.4078 351.00
70.473 334.00
70.5382 328.00
70.6034 358.00
70.6686 363.00
70.7338 340.00
70.799 362.00
70.8642 396.00
70.9294 369.00
70.9946 423.00
71.0598 457.00
71.125 511.00
71.1902 511.00
71.2554 521.00
71.3205 559.00
71.3858 509.00
71.451 557.00
71.5162 507.00
71.5813 462.00
71.6465 466.00
71.7117 402.00
71.7769 430.00
71.8421 391.00
71.9073 416.00
71.9725 395.00
72.0377 369.00
72.1029 404.00
72.1681 354.00
72.2333 373.00
72.2985 350.00
72.3637 336.00
72.4289 337.00
72.4941 336.00
72.5593 354.00
72.6245 345.00
72.6897 307.00
72.7549 343.00
72.8201 329.00
72.8853 321.00
72.9505 306.00
73.0157 338.00
73.0809 347.00
73.1461 356.00
73.2113 352.00
73.2765 357.00
73.3417 430.00
73.4069 467.00
73.4721 548.00
73.5373 612.00
73.6025 674.00
73.6677 711.00
73.7329 729.00
73.7981 610.00
73.8633 605.00
73.9285 503.00
73.9937 449.00
74.0589 400.00
74.1241 412.00
74.1893 340.00
74.2545 393.00
74.3197 357.00
74.3849 379.00
74.4501 363.00
74.5153 350.00
74.5805 345.00
74.6457 363.00
74.7109 307.00
74.7761 344.00
74.8413 353.00
74.9065 390.00
74.9717 424.00
75.0369 462.00
75.1021 532.00
75.1673 630.00
75.2325 670.00
75.2977 676.00
75.3629 624.00
75.4281 597.00
75.4933 520.00
75.5585 502.00
75.6237 517.00
75.6889 521.00
75.7541 475.00
75.8193 470.00
75.8845 488.00
75.9497 463.00
76.0149 493.00
76.0801 482.00
76.1452 429.00
76.2104 479.00
76.2756 444.00
76.3409 459.00
76.406 432.00
76.4712 409.00
76.5364 380.00
76.6016 378.00
76.6668 340.00
76.732 358.00
76.7972 331.00
76.8624 302.00
76.9276 337.00
76.9928 328.00
77.058 338.00
77.1232 295.00
77.1884 333.00
77.2536 338.00
77.3188 336.00
77.384 328.00
77.4492 382.00
77.5144 413.00
77.5796 428.00
77.6448 418.00
77.71 495.00
77.7752 556.00
77.8404 593.00
77.9056 598.00
77.9708 545.00
78.036 528.00
78.1012 510.00
78.1664 514.00
78.2316 482.00
78.2968 447.00
78.362 423.00
78.4272 402.00
78.4924 343.00
78.5576 328.00
78.6228 361.00
78.688 365.00
78.7532 409.00
78.8184 446.00
78.8836 451.00
78.9488 471.00
79.014 424.00
79.0792 445.00
79.1444 420.00
79.2096 423.00
79.2748 401.00
79.34 428.00
79.4052 386.00
79.4704 361.00
79.5356 383.00
79.6008 354.00
79.666 398.00
79.7312 380.00
79.7964 424.00
79.8616 376.00
79.9268 373.00
79.992 374.00
80.0572 406.00
80.1224 375.00
80.1876 358.00
80.2528 341.00
80.318 363.00
80.3832 371.00
80.4484 364.00
80.5136 340.00
80.5788 340.00
80.644 349.00
80.7092 345.00
80.7744 348.00
80.8396 330.00
80.9048 308.00
80.9699 314.00
81.0351 384.00
81.1003 450.00
81.1655 506.00
81.2307 583.00
81.2959 612.00
81.3611 650.00
81.4263 631.00
81.4915 631.00
81.5567 593.00
81.6219 629.00
81.6871 608.00
81.7523 582.00
81.8175 550.00
81.8827 519.00
81.9479 436.00
82.0131 422.00
82.0783 395.00
82.1435 375.00
82.2087 325.00
82.2739 307.00
82.3391 350.00
82.4043 364.00
82.4695 364.00
82.5347 380.00
82.5999 425.00
82.6651 479.00
82.7303 572.00
82.7955 636.00
82.8607 671.00
82.9259 718.00
82.9911 659.00
83.0563 648.00
83.1215 587.00
83.1867 604.00
83.2519 527.00
83.3171 436.00
83.3823 400.00
83.4475 354.00
83.5127 385.00
83.5779 345.00
83.6431 345.00
83.7083 358.00
83.7735 378.00
83.8387 377.00
83.9039 400.00
83.9691 361.00
84.0343 328.00
84.0995 328.00
84.1647 353.00
84.2299 363.00
84.2951 297.00
84.3603 337.00
84.4255 280.00
84.4907 310.00
84.5559 313.00
84.6211 279.00
84.6863 318.00
84.7515 310.00
84.8167 309.00
84.8819 305.00
84.9471 358.00
85.0123 383.00
85.0775 340.00
85.1427 349.00
85.2079 353.00
85.2731 359.00
85.3383 373.00
85.4035 339.00
85.4687 300.00
85.5339 293.00
85.5991 323.00
85.6643 307.00
85.7295 324.00
85.7946 322.00
85.8598 316.00
85.925 373.00
85.9903 325.00
86.0554 351.00
86.1206 340.00
86.1858 359.00
86.251 396.00
86.3162 419.00
86.3814 453.00
86.4466 570.00
86.5118 601.00
86.577 563.00
86.6422 605.00
86.7074 582.00
86.7726 544.00
86.8378 468.00
86.903 471.00
86.9682 393.00
87.0334 407.00
87.0986 411.00
87.1638 397.00
87.229 391.00
87.2942 433.00
87.3594 463.00
87.4246 538.00
87.4898 552.00
87.555 627.00
87.6202 613.00
87.6854 698.00
87.7506 664.00
87.8158 733.00
87.881 662.00
87.9462 600.00
88.0114 581.00
88.0766 513.00
88.1418 442.00
88.207 438.00
88.2722 404.00
88.3374 379.00
88.4026 346.00
88.4678 335.00
88.533 308.00
88.5982 310.00
88.6634 383.00
88.7286 374.00
88.7938 382.00
88.859 423.00
88.9242 415.00
88.9894 374.00
89.0546 372.00
89.1198 394.00
89.185 407.00
89.2502 376.00
89.3154 359.00
89.3806 384.00
89.4458 293.00
89.511 327.00
89.5762 341.00
89.6414 303.00
89.7066 356.00
89.7718 387.00
89.837 345.00
89.9022 410.00
89.9674 386.00
90.0326 398.00
90.0978 375.00
90.163 391.00
90.2282 395.00
90.2934 417.00
90.3586 404.00
90.4238 441.00
90.489 422.00
90.5542 425.00
90.6193 466.00
90.6845 440.00
90.7497 388.00
90.8149 424.00
90.8801 458.00
90.9453 462.00
91.0105 525.00
91.0757 476.00
91.1409 468.00
91.2061 475.00
91.2713 452.00
91.3365 442.00
91.4017 429.00
91.4669 386.00
91.5321 372.00
91.5973 386.00
91.6625 353.00
91.7277 359.00
91.7929 398.00
91.8581 375.00
91.9233 303.00
91.9885 331.00
92.0537 303.00
92.1189 311.00
92.1841 314.00
92.2493 377.00
92.3145 369.00
92.3797 410.00
92.4449 500.00
92.5101 526.00
92.5753 620.00
92.6405 594.00
92.7057 594.00
92.7709 582.00
92.8361 526.00
92.9013 526.00
92.9665 515.00
93.0317 503.00
93.0969 454.00
93.1621 425.00
93.2273 388.00
93.2925 367.00
93.3577 403.00
93.4229 375.00
93.4881 405.00
93.5533 340.00
93.6185 379.00
93.6837 337.00
93.7489 350.00
93.8141 344.00
93.8793 332.00
93.9445 382.00
94.0097 402.00
94.0749 428.00
94.1401 450.00
94.2053 487.00
94.2705 472.00
94.3357 464.00
94.4009 461.00
94.4661 435.00
94.5313 415.00
94.5965 432.00
94.6617 377.00
94.7269 393.00
94.7921 318.00
94.8573 393.00
94.9225 363.00
94.9877 385.00
95.0529 408.00
95.1181 471.00
95.1833 441.00
95.2485 510.00
95.3137 466.00
95.3789 472.00
95.444 457.00
95.5092 446.00
95.5744 387.00
95.6396 409.00
95.7048 377.00
95.77 391.00
95.8352 355.00
95.9004 356.00
95.9656 379.00
96.0308 368.00
96.096 381.00
96.1612 399.00
96.2264 453.00
96.2916 421.00
96.3568 427.00
96.422 433.00
96.4872 432.00
96.5524 465.00
96.6176 374.00
96.6828 380.00
96.748 334.00
96.8132 381.00
96.8784 368.00
96.9436 344.00
97.0088 319.00
97.074 363.00
97.1392 317.00
97.2044 341.00
97.2696 349.00
97.3348 336.00
97.4 347.00
97.4652 331.00
97.5304 383.00
97.5956 367.00
97.6608 383.00
97.726 458.00
97.7912 505.00
97.8564 571.00
97.9216 631.00
97.9868 649.00
98.052 623.00
98.1172 574.00
98.1824 545.00
98.2476 475.00
98.3128 469.00
98.378 458.00
98.4432 438.00
98.5084 405.00
98.5736 394.00
98.6388 356.00
98.704 342.00
98.7692 311.00
98.8344 379.00
98.8996 316.00
98.9648 286.00
99.03 321.00
99.0952 323.00
99.1604 336.00
99.2256 293.00
99.2908 322.00
99.356 303.00
99.4212 256.00
99.4864 283.00
99.5516 307.00
99.6168 320.00
99.682 317.00
99.7472 317.00
99.8124 324.00
99.8776 335.00
99.9428 415.00
100.008 461.00
100.073 500.00
100.095 529.00