File: data/xrd_creation/results/NSC_162.xy
9.903433 2681.00
9.968632 2547.00
10.0338 2584.00
10.099 2572.00
10.1642 2380.00
10.2294 2464.00
10.2946 2391.00
10.3598 2441.00
10.425 2489.00
10.4902 2364.00
10.5554 2268.00
10.6206 2321.00
10.6858 2254.00
10.751 2196.00
10.8162 2169.00
10.8814 2144.00
10.9466 2189.00
11.0118 2240.00
11.077 2223.00
11.1422 2111.00
11.2074 2036.00
11.2726 2107.00
11.3378 2023.00
11.403 2086.00
11.4682 2022.00
11.5334 2055.00
11.5986 1921.00
11.6638 1958.00
11.729 1924.00
11.7942 2046.00
11.8594 1850.00
11.9246 1810.00
11.9898 1857.00
12.055 1846.00
12.1202 1889.00
12.1854 1805.00
12.2506 1752.00
12.3158 1728.00
12.381 1692.00
12.4462 1706.00
12.5114 1706.00
12.5766 1712.00
12.6418 1737.00
12.707 1728.00
12.7722 1629.00
12.8374 1678.00
12.9026 1708.00
12.9678 1670.00
13.033 1608.00
13.0982 1512.00
13.1634 1623.00
13.2286 1596.00
13.2938 1589.00
13.359 1616.00
13.4242 1589.00
13.4894 1580.00
13.5546 1524.00
13.6198 1520.00
13.685 1486.00
13.7502 1533.00
13.8154 1502.00
13.8805 1491.00
13.9457 1444.00
14.0109 1417.00
14.0761 1498.00
14.1413 1465.00
14.2065 1445.00
14.2717 1424.00
14.3369 1443.00
14.4021 1364.00
14.4673 1428.00
14.5325 1453.00
14.5977 1400.00
14.6629 1408.00
14.7281 1367.00
14.7933 1420.00
14.8585 1403.00
14.9237 1324.00
14.9889 1326.00
15.0541 1299.00
15.1193 1364.00
15.1845 1345.00
15.2497 1348.00
15.3149 1352.00
15.3801 1322.00
15.4453 1421.00
15.5105 1304.00
15.5757 1312.00
15.6409 1300.00
15.7061 1342.00
15.7713 1397.00
15.8365 1208.00
15.9017 1342.00
15.9669 1282.00
16.0321 1321.00
16.0973 1196.00
16.1625 1265.00
16.2277 1313.00
16.2929 1178.00
16.3581 1271.00
16.4233 1205.00
16.4885 1253.00
16.5537 1234.00
16.6189 1190.00
16.6841 1217.00
16.7493 1233.00
16.8145 1163.00
16.8797 1190.00
16.9449 1189.00
17.0101 1167.00
17.0753 1153.00
17.1405 1187.00
17.2057 1160.00
17.2709 1203.00
17.3361 1153.00
17.4013 1092.00
17.4665 1119.00
17.5317 1125.00
17.5969 1158.00
17.6621 1133.00
17.7273 1097.00
17.7925 1108.00
17.8577 1103.00
17.9229 1118.00
17.9881 1070.00
18.0533 1146.00
18.1185 1112.00
18.1837 1032.00
18.2489 1085.00
18.3141 1081.00
18.3793 1051.00
18.4445 1057.00
18.5097 1010.00
18.5749 1071.00
18.6401 1093.00
18.7052 967.00
18.7704 1050.00
18.8356 1008.00
18.9008 1012.00
18.966 1048.00
19.0312 1035.00
19.0964 975.00
19.1616 971.00
19.2268 976.00
19.292 974.00
19.3572 984.00
19.4224 1056.00
19.4876 1012.00
19.5528 914.00
19.618 956.00
19.6832 972.00
19.7484 976.00
19.8136 1017.00
19.8788 961.00
19.944 967.00
20.0092 969.00
20.0744 964.00
20.1396 960.00
20.2048 911.00
20.27 955.00
20.3352 988.00
20.4004 913.00
20.4656 925.00
20.5308 925.00
20.596 964.00
20.6612 921.00
20.7264 889.00
20.7916 942.00
20.8568 885.00
20.922 900.00
20.9872 902.00
21.0524 859.00
21.1176 896.00
21.1828 866.00
21.248 871.00
21.3132 847.00
21.3784 844.00
21.4436 890.00
21.5088 868.00
21.574 828.00
21.6392 843.00
21.7044 843.00
21.7696 844.00
21.8348 828.00
21.9 863.00
21.9652 880.00
22.0304 864.00
22.0956 878.00
22.1608 800.00
22.226 836.00
22.2912 867.00
22.3564 831.00
22.4216 803.00
22.4868 799.00
22.552 878.00
22.6172 834.00
22.6824 846.00
22.7476 814.00
22.8128 821.00
22.878 779.00
22.9432 781.00
23.0084 839.00
23.0736 857.00
23.1388 848.00
23.204 761.00
23.2692 786.00
23.3344 756.00
23.3996 801.00
23.4647 794.00
23.5299 756.00
23.5951 753.00
23.6603 762.00
23.7255 748.00
23.7907 764.00
23.8559 761.00
23.9211 740.00
23.9863 741.00
24.0515 736.00
24.1167 810.00
24.1819 742.00
24.2471 783.00
24.3123 767.00
24.3775 790.00
24.4427 729.00
24.5079 679.00
24.5731 726.00
24.6383 762.00
24.7035 752.00
24.7687 724.00
24.8339 700.00
24.8991 790.00
24.9643 747.00
25.0295 762.00
25.0947 741.00
25.1599 791.00
25.2251 772.00
25.2903 772.00
25.3555 729.00
25.4207 676.00
25.4859 710.00
25.5511 729.00
25.6163 750.00
25.6815 707.00
25.7467 711.00
25.8119 685.00
25.8771 672.00
25.9423 622.00
26.0075 653.00
26.0727 711.00
26.1379 680.00
26.2031 654.00
26.2683 640.00
26.3335 713.00
26.3987 718.00
26.4639 656.00
26.5291 673.00
26.5943 695.00
26.6595 702.00
26.7247 673.00
26.7899 696.00
26.8551 654.00
26.9203 655.00
26.9855 678.00
27.0507 693.00
27.1159 700.00
27.1811 661.00
27.2463 702.00
27.3115 673.00
27.3767 657.00
27.4419 673.00
27.5071 678.00
27.5723 705.00
27.6375 850.00
27.7027 1079.00
27.7679 1588.00
27.8331 1547.00
27.8983 1129.00
27.9635 673.00
28.0287 714.00
28.0939 682.00
28.1591 647.00
28.2243 652.00
28.2894 655.00
28.3546 618.00
28.4198 642.00
28.485 653.00
28.5502 615.00
28.6154 603.00
28.6806 630.00
28.7458 591.00
28.811 677.00
28.8762 643.00
28.9414 636.00
29.0066 591.00
29.0718 608.00
29.137 629.00
29.2022 623.00
29.2674 603.00
29.3326 572.00
29.3978 606.00
29.463 589.00
29.5282 569.00
29.5934 579.00
29.6586 615.00
29.7238 572.00
29.789 597.00
29.8542 562.00
29.9194 564.00
29.9846 584.00
30.0498 617.00
30.115 620.00
30.1802 601.00
30.2454 588.00
30.3106 614.00
30.3758 563.00
30.441 585.00
30.5062 588.00
30.5714 584.00
30.6366 538.00
30.7018 533.00
30.767 546.00
30.8322 578.00
30.8974 515.00
30.9626 560.00
31.0278 534.00
31.093 503.00
31.1582 570.00
31.2234 570.00
31.2886 524.00
31.3538 547.00
31.419 551.00
31.4842 561.00
31.5494 596.00
31.6146 725.00
31.6798 652.00
31.745 605.00
31.8102 589.00
31.8754 509.00
31.9406 521.00
32.0058 522.00
32.071 523.00
32.1362 535.00
32.2014 519.00
32.2666 523.00
32.3318 502.00
32.397 551.00
32.4622 657.00
32.5274 820.00
32.5926 705.00
32.6578 610.00
32.723 544.00
32.7882 484.00
32.8534 552.00
32.9186 541.00
32.9838 535.00
33.0489 466.00
33.1141 461.00
33.1793 483.00
33.2445 476.00
33.3097 491.00
33.3749 474.00
33.4401 485.00
33.5053 523.00
33.5705 466.00
33.6357 483.00
33.7009 446.00
33.7661 506.00
33.8313 473.00
33.8965 456.00
33.9617 454.00
34.0269 496.00
34.0921 445.00
34.1573 472.00
34.2225 469.00
34.2877 463.00
34.3529 432.00
34.4181 510.00
34.4833 494.00
34.5485 489.00
34.6137 431.00
34.6789 492.00
34.7441 493.00
34.8093 526.00
34.8745 486.00
34.9397 467.00
35.0049 446.00
35.0701 430.00
35.1353 453.00
35.2005 482.00
35.2657 473.00
35.3309 471.00
35.3961 445.00
35.4613 485.00
35.5265 463.00
35.5917 442.00
35.6569 437.00
35.7221 404.00
35.7873 418.00
35.8525 480.00
35.9177 406.00
35.9829 456.00
36.0481 420.00
36.1133 434.00
36.1785 427.00
36.2437 423.00
36.3089 466.00
36.3741 459.00
36.4393 415.00
36.5045 405.00
36.5697 422.00
36.6349 409.00
36.7001 416.00
36.7653 410.00
36.8305 397.00
36.8957 442.00
36.9609 398.00
37.0261 396.00
37.0913 419.00
37.1565 423.00
37.2217 405.00
37.2869 387.00
37.3521 392.00
37.4173 380.00
37.4825 431.00
37.5477 400.00
37.6129 384.00
37.6781 408.00
37.7433 443.00
37.8085 402.00
37.8736 387.00
37.9388 390.00
38.004 374.00
38.0692 400.00
38.1344 402.00
38.1996 360.00
38.2648 418.00
38.33 420.00
38.3952 376.00
38.4604 389.00
38.5256 359.00
38.5908 394.00
38.656 427.00
38.7212 387.00
38.7864 405.00
38.8516 429.00
38.9168 382.00
38.982 384.00
39.0472 382.00
39.1124 389.00
39.1776 396.00
39.2428 379.00
39.308 383.00
39.3732 373.00
39.4384 367.00
39.5036 381.00
39.5688 353.00
39.634 359.00
39.6992 386.00
39.7644 360.00
39.8296 340.00
39.8948 335.00
39.96 367.00
40.0252 355.00
40.0904 353.00
40.1556 336.00
40.2208 355.00
40.286 351.00
40.3512 355.00
40.4164 346.00
40.4816 322.00
40.5468 357.00
40.612 382.00
40.6772 340.00
40.7424 363.00
40.8076 340.00
40.8728 381.00
40.938 344.00
41.0032 356.00
41.0684 318.00
41.1336 355.00
41.1988 403.00
41.264 323.00
41.3292 339.00
41.3944 318.00
41.4596 332.00
41.5248 378.00
41.59 354.00
41.6552 336.00
41.7204 332.00
41.7856 333.00
41.8508 378.00
41.916 344.00
41.9812 343.00
42.0464 389.00
42.1116 337.00
42.1768 328.00
42.242 345.00
42.3072 333.00
42.3724 339.00
42.4376 352.00
42.5028 376.00
42.568 357.00
42.6332 310.00
42.6983 357.00
42.7635 358.00
42.8287 371.00
42.8939 324.00
42.9591 341.00
43.0243 329.00
43.0895 352.00
43.1547 349.00
43.2199 357.00
43.2851 306.00
43.3503 343.00
43.4155 374.00
43.4807 323.00
43.5459 321.00
43.6111 346.00
43.6763 346.00
43.7415 321.00
43.8067 363.00
43.8719 297.00
43.9371 342.00
44.0023 345.00
44.0675 339.00
44.1327 301.00
44.1979 321.00
44.2631 318.00
44.3283 285.00
44.3935 328.00
44.4587 317.00
44.5239 309.00
44.5891 283.00
44.6543 309.00
44.7195 318.00
44.7847 330.00
44.8499 334.00
44.9151 351.00
44.9803 332.00
45.0455 324.00
45.1107 307.00
45.1759 320.00
45.2411 313.00
45.3063 309.00
45.3715 306.00
45.4367 321.00
45.5019 324.00
45.5671 328.00
45.6323 310.00
45.6975 301.00
45.7627 327.00
45.8279 329.00
45.8931 339.00
45.9583 343.00
46.0235 446.00
46.0887 542.00
46.1539 447.00
46.2191 407.00
46.2843 340.00
46.3495 299.00
46.4147 342.00
46.4799 324.00
46.5451 318.00
46.6103 296.00
46.6755 338.00
46.7407 425.00
46.8059 382.00
46.8711 354.00
46.9363 340.00
47.0015 300.00
47.0667 267.00
47.1319 333.00
47.1971 297.00
47.2623 331.00
47.3275 300.00
47.3927 282.00
47.4579 291.00
47.523 278.00
47.5882 324.00
47.6534 303.00
47.7186 285.00
47.7838 277.00
47.849 302.00
47.9142 307.00
47.9794 301.00
48.0446 276.00
48.1098 308.00
48.175 314.00
48.2402 294.00
48.3054 312.00
48.3706 270.00
48.4358 289.00
48.501 305.00
48.5662 325.00
48.6314 257.00
48.6966 278.00
48.7618 235.00
48.827 289.00
48.8922 317.00
48.9574 240.00
49.0226 259.00
49.0878 248.00
49.153 288.00
49.2182 300.00
49.2834 287.00
49.3486 265.00
49.4138 299.00
49.479 283.00
49.5442 325.00
49.6094 301.00
49.6746 275.00
49.7398 243.00
49.805 322.00
49.8702 270.00
49.9354 291.00
50.0006 267.00
50.0658 280.00
50.131 306.00
50.1962 308.00
50.2614 305.00
50.3266 268.00
50.3918 292.00
50.457 262.00
50.5222 290.00
50.5874 277.00
50.6526 260.00
50.7178 266.00
50.783 240.00
50.8482 280.00
50.9134 269.00
50.9786 286.00
51.0438 290.00
51.109 323.00
51.1742 264.00
51.2394 298.00
51.3046 278.00
51.3698 284.00
51.435 293.00
51.5002 284.00
51.5654 239.00
51.6306 304.00
51.6958 281.00
51.761 258.00
51.8262 281.00
51.8914 248.00
51.9566 243.00
52.0218 269.00
52.087 256.00
52.1522 268.00
52.2174 279.00
52.2826 295.00
52.3477 301.00
52.4129 256.00
52.4781 278.00
52.5433 290.00
52.6085 261.00
52.6737 278.00
52.7389 239.00
52.8041 241.00
52.8693 241.00
52.9345 258.00
52.9997 273.00
53.0649 281.00
53.1301 282.00
53.1953 269.00
53.2605 280.00
53.3257 247.00
53.3909 295.00
53.4561 302.00
53.5213 249.00
53.5865 280.00
53.6517 249.00
53.7169 266.00
53.7821 277.00
53.8473 266.00
53.9125 238.00
53.9777 278.00
54.0429 295.00
54.1081 343.00
54.1733 318.00
54.2385 322.00
54.3037 289.00
54.3689 284.00
54.4341 287.00
54.4993 235.00
54.5645 243.00
54.6297 260.00
54.6949 230.00
54.7601 230.00
54.8253 287.00
54.8905 242.00
54.9557 270.00
55.0209 248.00
55.0861 261.00
55.1513 260.00
55.2165 266.00
55.2817 367.00
55.3469 455.00
55.4121 337.00
55.4773 331.00
55.5425 327.00
55.6077 247.00
55.6729 242.00
55.7381 285.00
55.8033 262.00
55.8685 266.00
55.9337 272.00
55.9989 266.00
56.0641 258.00
56.1293 239.00
56.1945 230.00
56.2597 266.00
56.3249 213.00
56.3901 242.00
56.4553 247.00
56.5205 247.00
56.5857 226.00
56.6509 239.00
56.7161 236.00
56.7813 245.00
56.8465 267.00
56.9117 219.00
56.9769 205.00
57.042 239.00
57.1073 208.00
57.1724 231.00
57.2376 264.00
57.3028 236.00
57.368 239.00
57.4332 206.00
57.4984 249.00
57.5636 281.00
57.6288 305.00
57.694 268.00
57.7592 307.00
57.8244 270.00
57.8896 244.00
57.9548 236.00
58.02 231.00
58.0852 217.00
58.1504 240.00
58.2156 226.00
58.2808 215.00
58.346 237.00
58.4112 231.00
58.4764 225.00
58.5416 210.00
58.6068 228.00
58.672 220.00
58.7372 235.00
58.8024 215.00
58.8676 246.00
58.9328 188.00
58.998 217.00
59.0632 199.00
59.1284 245.00
59.1936 241.00
59.2588 212.00
59.324 198.00
59.3892 245.00
59.4544 210.00
59.5196 225.00
59.5848 222.00
59.65 263.00
59.7152 199.00
59.7804 206.00
59.8456 243.00
59.9108 238.00
59.976 203.00
60.0412 213.00
60.1064 221.00
60.1716 239.00
60.2368 228.00
60.302 176.00
60.3672 238.00
60.4324 215.00
60.4976 212.00
60.5628 236.00
60.628 171.00
60.6932 212.00
60.7584 241.00
60.8236 217.00
60.8888 230.00
60.954 210.00
61.0192 191.00
61.0844 196.00
61.1496 217.00
61.2148 222.00
61.28 231.00
61.3452 225.00
61.4104 269.00
61.4756 226.00
61.5408 217.00
61.606 211.00
61.6712 219.00
61.7364 196.00
61.8016 225.00
61.8667 223.00
61.932 227.00
61.9971 218.00
62.0623 201.00
62.1275 238.00
62.1927 200.00
62.2579 199.00
62.3231 213.00
62.3883 238.00
62.4535 209.00
62.5187 201.00
62.5839 221.00
62.6491 219.00
62.7143 216.00
62.7795 203.00
62.8447 229.00
62.9099 210.00
62.9751 216.00
63.0403 221.00
63.1055 234.00
63.1707 225.00
63.2359 190.00
63.3011 205.00
63.3663 214.00
63.4315 220.00
63.4967 210.00
63.5619 225.00
63.6271 197.00
63.6923 169.00
63.7575 207.00
63.8227 186.00
63.8879 224.00
63.9531 176.00
64.0183 178.00
64.0835 225.00
64.1487 226.00
64.2139 205.00
64.2791 197.00
64.3443 201.00
64.4095 177.00
64.4747 219.00
64.5399 181.00
64.6051 234.00
64.6703 204.00
64.7355 208.00
64.8007 179.00
64.8659 194.00
64.9311 187.00
64.9963 177.00
65.0615 195.00
65.1267 213.00
65.1919 191.00
65.2571 206.00
65.3223 183.00
65.3875 198.00
65.4527 212.00
65.5179 216.00
65.5831 212.00
65.6483 216.00
65.7135 201.00
65.7787 204.00
65.8439 221.00
65.9091 222.00
65.9743 211.00
66.0395 216.00
66.1047 219.00
66.1699 231.00
66.2351 206.00
66.3003 241.00
66.3655 239.00
66.4307 232.00
66.4959 204.00
66.561 212.00
66.6263 202.00
66.6915 260.00
66.7566 200.00
66.8218 197.00
66.887 188.00
66.9522 183.00
67.0174 191.00
67.0826 189.00
67.1478 225.00
67.213 200.00
67.2782 215.00
67.3434 188.00
67.4086 173.00
67.4738 219.00
67.539 207.00
67.6042 177.00
67.6694 214.00
67.7346 193.00
67.7998 163.00
67.865 178.00
67.9302 213.00
67.9954 182.00
68.0606 220.00
68.1258 193.00
68.191 199.00
68.2562 204.00
68.3214 189.00
68.3866 194.00
68.4518 231.00
68.517 237.00
68.5822 204.00
68.6474 233.00
68.7126 178.00
68.7778 213.00
68.843 200.00
68.9082 182.00
68.9734 193.00
69.0386 208.00
69.1038 177.00
69.169 208.00
69.2342 188.00
69.2994 208.00
69.3646 217.00
69.4298 199.00
69.495 186.00
69.5602 188.00
69.6254 198.00
69.6906 218.00
69.7558 209.00
69.821 203.00
69.8862 193.00
69.9514 209.00
70.0166 191.00
70.0818 177.00
70.147 196.00
70.2122 193.00
70.2774 190.00
70.3426 220.00
70.4078 176.00
70.473 203.00
70.5382 181.00
70.6034 224.00
70.6686 198.00
70.7338 222.00
70.799 198.00
70.8642 189.00
70.9294 220.00
70.9946 225.00
71.0598 188.00
71.125 200.00
71.1902 193.00
71.2554 198.00
71.3205 202.00
71.3858 214.00
71.451 194.00
71.5162 212.00
71.5813 179.00
71.6465 202.00
71.7117 190.00
71.7769 223.00
71.8421 191.00
71.9073 207.00
71.9725 206.00
72.0377 200.00
72.1029 200.00
72.1681 204.00
72.2333 203.00
72.2985 196.00
72.3637 189.00
72.4289 204.00
72.4941 228.00
72.5593 209.00
72.6245 209.00
72.6897 200.00
72.7549 203.00
72.8201 207.00
72.8853 192.00
72.9505 199.00
73.0157 198.00
73.0809 204.00
73.1461 198.00
73.2113 209.00
73.2765 209.00
73.3417 205.00
73.4069 187.00
73.4721 207.00
73.5373 199.00
73.6025 214.00
73.6677 214.00
73.7329 208.00
73.7981 210.00
73.8633 219.00
73.9285 188.00
73.9937 201.00
74.0589 195.00
74.1241 205.00
74.1893 192.00
74.2545 194.00
74.3197 236.00
74.3849 275.00
74.4501 232.00
74.5153 227.00
74.5805 237.00
74.6457 214.00
74.7109 221.00
74.7761 226.00
74.8413 224.00
74.9065 203.00
74.9717 220.00
75.0369 212.00
75.1021 212.00
75.1673 231.00
75.2325 234.00
75.2977 240.00
75.3629 224.00
75.4281 276.00
75.4933 237.00
75.5585 219.00
75.6237 218.00
75.6889 209.00
75.7541 238.00
75.8193 272.00
75.8845 234.00
75.9497 209.00
76.0149 239.00
76.0801 226.00
76.1452 193.00
76.2104 222.00
76.2756 187.00
76.3409 193.00
76.406 220.00
76.4712 206.00
76.5364 191.00
76.6016 213.00
76.6668 193.00
76.732 211.00
76.7972 213.00
76.8624 274.00
76.9276 209.00
76.9928 220.00
77.058 262.00
77.1232 205.00
77.1884 203.00
77.2536 188.00
77.3188 234.00
77.384 229.00
77.4492 232.00
77.5144 235.00
77.5796 216.00
77.6448 235.00
77.71 233.00
77.7752 262.00
77.8404 218.00
77.9056 258.00
77.9708 197.00
78.036 256.00
78.1012 215.00
78.1664 197.00
78.2316 225.00
78.2968 202.00
78.362 245.00
78.4272 241.00
78.4924 211.00
78.5576 229.00
78.6228 220.00
78.688 233.00
78.7532 231.00
78.8184 210.00
78.8836 221.00
78.9488 213.00
79.014 207.00
79.0792 246.00
79.1444 224.00
79.2096 229.00
79.2748 214.00
79.34 222.00
79.4052 199.00
79.4704 225.00
79.5356 215.00
79.6008 217.00
79.666 234.00
79.7312 238.00
79.7964 250.00
79.8616 197.00
79.9268 245.00
79.992 227.00
80.0572 215.00
80.1224 190.00
80.1876 245.00
80.2528 233.00
80.318 224.00
80.3832 221.00
80.4484 222.00
80.5136 256.00
80.5788 223.00
80.644 218.00
80.7092 222.00
80.7744 230.00
80.8396 228.00
80.9048 220.00
80.9699 261.00
81.0351 233.00
81.1003 244.00
81.1655 260.00
81.2307 234.00
81.2959 260.00
81.3611 232.00
81.4263 219.00
81.4915 244.00
81.5567 243.00
81.6219 222.00
81.6871 242.00
81.7523 246.00
81.8175 231.00
81.8827 214.00
81.9479 210.00
82.0131 243.00
82.0783 238.00
82.1435 246.00
82.2087 235.00
82.2739 230.00
82.3391 235.00
82.4043 224.00
82.4695 220.00
82.5347 220.00
82.5999 213.00
82.6651 234.00
82.7303 268.00
82.7955 240.00
82.8607 221.00
82.9259 217.00
82.9911 225.00
83.0563 243.00
83.1215 223.00
83.1867 209.00
83.2519 212.00
83.3171 225.00
83.3823 261.00
83.4475 204.00
83.5127 216.00
83.5779 267.00
83.6431 250.00
83.7083 202.00
83.7735 257.00
83.8387 226.00
83.9039 213.00
83.9691 222.00
84.0343 220.00
84.0995 214.00
84.1647 216.00
84.2299 215.00
84.2951 223.00
84.3603 229.00
84.4255 243.00
84.4907 199.00
84.5559 213.00
84.6211 230.00
84.6863 236.00
84.7515 256.00
84.8167 234.00
84.8819 220.00
84.9471 218.00
85.0123 241.00
85.0775 237.00
85.1427 206.00
85.2079 234.00
85.2731 224.00
85.3383 236.00
85.4035 216.00
85.4687 213.00
85.5339 209.00
85.5991 233.00
85.6643 208.00
85.7295 217.00
85.7946 186.00
85.8598 233.00
85.925 237.00
85.9903 223.00
86.0554 189.00
86.1206 242.00
86.1858 219.00
86.251 221.00
86.3162 205.00
86.3814 208.00
86.4466 206.00
86.5118 235.00
86.577 217.00
86.6422 212.00
86.7074 225.00
86.7726 222.00
86.8378 197.00
86.903 198.00
86.9682 196.00
87.0334 178.00
87.0986 224.00
87.1638 225.00
87.229 195.00
87.2942 234.00
87.3594 189.00
87.4246 209.00
87.4898 193.00
87.555 214.00
87.6202 189.00
87.6854 240.00
87.7506 208.00
87.8158 193.00
87.881 205.00
87.9462 195.00
88.0114 218.00
88.0766 215.00
88.1418 211.00
88.207 223.00
88.2722 218.00
88.3374 206.00
88.4026 209.00
88.4678 188.00
88.533 208.00
88.5982 201.00
88.6634 209.00
88.7286 200.00
88.7938 177.00
88.859 177.00
88.9242 195.00
88.9894 192.00
89.0546 194.00
89.1198 204.00
89.185 180.00
89.2502 197.00
89.3154 187.00
89.3806 200.00
89.4458 188.00
89.511 192.00
89.5762 218.00
89.6414 211.00
89.7066 226.00
89.7718 225.00
89.837 223.00
89.9022 227.00
89.9674 194.00
90.0326 196.00
90.0978 201.00
90.163 206.00
90.2282 181.00
90.2934 171.00
90.3586 219.00
90.4238 188.00
90.489 210.00
90.5542 194.00
90.6193 200.00
90.6845 188.00
90.7497 211.00
90.8149 216.00
90.8801 192.00
90.9453 169.00
91.0105 209.00
91.0757 184.00
91.1409 204.00
91.2061 197.00
91.2713 192.00
91.3365 177.00
91.4017 205.00
91.4669 189.00
91.5321 217.00
91.5973 199.00
91.6625 216.00
91.7277 221.00
91.7929 194.00
91.8581 152.00
91.9233 221.00
91.9885 199.00
92.0537 192.00
92.1189 226.00
92.1841 189.00
92.2493 202.00
92.3145 179.00
92.3797 196.00
92.4449 204.00
92.5101 182.00
92.5753 180.00
92.6405 196.00
92.7057 224.00
92.7709 211.00
92.8361 196.00
92.9013 179.00
92.9665 180.00
93.0317 228.00
93.0969 205.00
93.1621 198.00
93.2273 194.00
93.2925 178.00
93.3577 168.00
93.4229 207.00
93.4881 182.00
93.5533 195.00
93.6185 218.00
93.6837 178.00
93.7489 205.00
93.8141 203.00
93.8793 218.00
93.9445 216.00
94.0097 179.00
94.0749 210.00
94.1401 184.00
94.2053 198.00
94.2705 202.00
94.3357 187.00
94.4009 194.00
94.4661 184.00
94.5313 179.00
94.5965 180.00
94.6617 211.00
94.7269 217.00
94.7921 185.00
94.8573 157.00
94.9225 183.00
94.9877 188.00
95.0529 206.00
95.1181 174.00
95.1833 186.00
95.2485 201.00
95.3137 205.00
95.3789 189.00
95.444 192.00
95.5092 192.00
95.5744 181.00
95.6396 172.00
95.7048 174.00
95.77 191.00
95.8352 187.00
95.9004 167.00
95.9656 205.00
96.0308 177.00
96.096 197.00
96.1612 205.00
96.2264 200.00
96.2916 185.00
96.3568 167.00
96.422 171.00
96.4872 183.00
96.5524 191.00
96.6176 176.00
96.6828 171.00
96.748 207.00
96.8132 176.00
96.8784 202.00
96.9436 197.00
97.0088 181.00
97.074 213.00
97.1392 180.00
97.2044 196.00
97.2696 162.00
97.3348 176.00
97.4 198.00
97.4652 176.00
97.5304 184.00
97.5956 196.00
97.6608 205.00
97.726 186.00
97.7912 187.00
97.8564 211.00
97.9216 195.00
97.9868 187.00
98.052 192.00
98.1172 185.00
98.1824 189.00
98.2476 166.00
98.3128 199.00
98.378 186.00
98.4432 196.00
98.5084 195.00
98.5736 190.00
98.6388 195.00
98.704 175.00
98.7692 207.00
98.8344 192.00
98.8996 197.00
98.9648 178.00
99.03 187.00
99.0952 187.00
99.1604 183.00
99.2256 175.00
99.2908 191.00
99.356 172.00
99.4212 184.00
99.4864 195.00
99.5516 181.00
99.6168 182.00
99.682 178.00
99.7472 206.00
99.8124 180.00
99.8776 189.00
99.9428 195.00
100.008 187.00
100.073 198.00
100.095 210.00