File: data/xrd_creation/results/NSC_148.xy
9.903433 2655.00
9.968632 2690.00
10.0338 2654.00
10.099 2590.00
10.1642 2708.00
10.2294 2653.00
10.2946 2613.00
10.3598 2560.00
10.425 2617.00
10.4902 2486.00
10.5554 2543.00
10.6206 2517.00
10.6858 2488.00
10.751 2560.00
10.8162 2415.00
10.8814 2402.00
10.9466 2429.00
11.0118 2362.00
11.077 2336.00
11.1422 2314.00
11.2074 2292.00
11.2726 2220.00
11.3378 2261.00
11.403 2271.00
11.4682 2283.00
11.5334 2239.00
11.5986 2207.00
11.6638 2118.00
11.729 2163.00
11.7942 2135.00
11.8594 2082.00
11.9246 2122.00
11.9898 2118.00
12.055 2094.00
12.1202 2086.00
12.1854 2047.00
12.2506 2014.00
12.3158 1921.00
12.381 1931.00
12.4462 2019.00
12.5114 2029.00
12.5766 1973.00
12.6418 1934.00
12.707 1927.00
12.7722 1899.00
12.8374 1945.00
12.9026 1945.00
12.9678 1950.00
13.033 1837.00
13.0982 1903.00
13.1634 1944.00
13.2286 1910.00
13.2938 1954.00
13.359 1920.00
13.4242 2016.00
13.4894 2077.00
13.5546 2363.00
13.6198 2800.00
13.685 2850.00
13.7502 3135.00
13.8154 2964.00
13.8805 2597.00
13.9457 2096.00
14.0109 1807.00
14.0761 1772.00
14.1413 1716.00
14.2065 1778.00
14.2717 1701.00
14.3369 1692.00
14.4021 1776.00
14.4673 1779.00
14.5325 1860.00
14.5977 1895.00
14.6629 2006.00
14.7281 2072.00
14.7933 2134.00
14.8585 2113.00
14.9237 1919.00
14.9889 1871.00
15.0541 1786.00
15.1193 1657.00
15.1845 1657.00
15.2497 1616.00
15.3149 1725.00
15.3801 1579.00
15.4453 1634.00
15.5105 1631.00
15.5757 1553.00
15.6409 1588.00
15.7061 1639.00
15.7713 1627.00
15.8365 1558.00
15.9017 1629.00
15.9669 1650.00
16.0321 1614.00
16.0973 1587.00
16.1625 1485.00
16.2277 1492.00
16.2929 1552.00
16.3581 1521.00
16.4233 1519.00
16.4885 1555.00
16.5537 1528.00
16.6189 1543.00
16.6841 1547.00
16.7493 1577.00
16.8145 1539.00
16.8797 1601.00
16.9449 1471.00
17.0101 1568.00
17.0753 1469.00
17.1405 1560.00
17.2057 1468.00
17.2709 1451.00
17.3361 1562.00
17.4013 1571.00
17.4665 1608.00
17.5317 1571.00
17.5969 1531.00
17.6621 1448.00
17.7273 1521.00
17.7925 1478.00
17.8577 1427.00
17.9229 1414.00
17.9881 1448.00
18.0533 1397.00
18.1185 1389.00
18.1837 1378.00
18.2489 1450.00
18.3141 1373.00
18.3793 1410.00
18.4445 1373.00
18.5097 1391.00
18.5749 1429.00
18.6401 1502.00
18.7052 1476.00
18.7704 1498.00
18.8356 1535.00
18.9008 1722.00
18.966 1813.00
19.0312 2084.00
19.0964 2711.00
19.1616 3895.00
19.2268 5914.00
19.292 9069.00
19.3572 12966.00
19.4224 15850.00
19.4876 16083.00
19.5528 13807.00
19.618 10260.00
19.6832 6299.00
19.7484 3527.00
19.8136 2207.00
19.8788 1767.00
19.944 1619.00
20.0092 1437.00
20.0744 1550.00
20.1396 1536.00
20.2048 1411.00
20.27 1334.00
20.3352 1391.00
20.4004 1437.00
20.4656 1346.00
20.5308 1447.00
20.596 1530.00
20.6612 1732.00
20.7264 1788.00
20.7916 1940.00
20.8568 1938.00
20.922 1744.00
20.9872 1522.00
21.0524 1325.00
21.1176 1290.00
21.1828 1194.00
21.248 1354.00
21.3132 1291.00
21.3784 1308.00
21.4436 1279.00
21.5088 1244.00
21.574 1260.00
21.6392 1313.00
21.7044 1252.00
21.7696 1293.00
21.8348 1340.00
21.9 1409.00
21.9652 1462.00
22.0304 1547.00
22.0956 1454.00
22.1608 1459.00
22.226 1349.00
22.2912 1286.00
22.3564 1276.00
22.4216 1165.00
22.4868 1237.00
22.552 1252.00
22.6172 1330.00
22.6824 1569.00
22.7476 1735.00
22.8128 2031.00
22.878 2048.00
22.9432 1930.00
23.0084 1518.00
23.0736 1297.00
23.1388 1218.00
23.204 1193.00
23.2692 1118.00
23.3344 1105.00
23.3996 1166.00
23.4647 1110.00
23.5299 1171.00
23.5951 1145.00
23.6603 1179.00
23.7255 1193.00
23.7907 1316.00
23.8559 1374.00
23.9211 1351.00
23.9863 1275.00
24.0515 1301.00
24.1167 1423.00
24.1819 1363.00
24.2471 1335.00
24.3123 1261.00
24.3775 1201.00
24.4427 1206.00
24.5079 1165.00
24.5731 1234.00
24.6383 1235.00
24.7035 1265.00
24.7687 1193.00
24.8339 1122.00
24.8991 1109.00
24.9643 1157.00
25.0295 1026.00
25.0947 1137.00
25.1599 1107.00
25.2251 1073.00
25.2903 1103.00
25.3555 1104.00
25.4207 1320.00
25.4859 1316.00
25.5511 1495.00
25.6163 1513.00
25.6815 1360.00
25.7467 1283.00
25.8119 1207.00
25.8771 1122.00
25.9423 1117.00
26.0075 1027.00
26.0727 1000.00
26.1379 990.00
26.2031 1051.00
26.2683 1052.00
26.3335 1031.00
26.3987 982.00
26.4639 1008.00
26.5291 983.00
26.5943 1002.00
26.6595 1002.00
26.7247 1024.00
26.7899 1092.00
26.8551 970.00
26.9203 1041.00
26.9855 1029.00
27.0507 1045.00
27.1159 1034.00
27.1811 1053.00
27.2463 1133.00
27.3115 1247.00
27.3767 1458.00
27.4419 1928.00
27.5071 3085.00
27.5723 4537.00
27.6375 5826.00
27.7027 5843.00
27.7679 4221.00
27.8331 2568.00
27.8983 1607.00
27.9635 1264.00
28.0287 1276.00
28.0939 1273.00
28.1591 1525.00
28.2243 1777.00
28.2894 2048.00
28.3546 2257.00
28.4198 2105.00
28.485 1920.00
28.5502 1650.00
28.6154 1352.00
28.6806 1208.00
28.7458 1076.00
28.811 1035.00
28.8762 1028.00
28.9414 1016.00
29.0066 978.00
29.0718 989.00
29.137 971.00
29.2022 981.00
29.2674 1012.00
29.3326 1011.00
29.3978 1097.00
29.463 1100.00
29.5282 938.00
29.5934 952.00
29.6586 1020.00
29.7238 977.00
29.789 1054.00
29.8542 1148.00
29.9194 1382.00
29.9846 1618.00
30.0498 1898.00
30.115 1971.00
30.1802 1709.00
30.2454 1399.00
30.3106 1251.00
30.3758 1086.00
30.441 1174.00
30.5062 1180.00
30.5714 1278.00
30.6366 1328.00
30.7018 1432.00
30.767 1686.00
30.8322 2382.00
30.8974 3892.00
30.9626 6435.00
31.0278 9467.00
31.093 10986.00
31.1582 9615.00
31.2234 6161.00
31.2886 3301.00
31.3538 2041.00
31.419 1673.00
31.4842 1777.00
31.5494 1983.00
31.6146 2198.00
31.6798 2281.00
31.745 2121.00
31.8102 1832.00
31.8754 1589.00
31.9406 1303.00
32.0058 1066.00
32.071 1032.00
32.1362 976.00
32.2014 977.00
32.2666 976.00
32.3318 917.00
32.397 1024.00
32.4622 1049.00
32.5274 1175.00
32.5926 1234.00
32.6578 1221.00
32.723 1388.00
32.7882 1367.00
32.8534 1182.00
32.9186 1096.00
32.9838 963.00
33.0489 928.00
33.1141 978.00
33.1793 976.00
33.2445 975.00
33.3097 986.00
33.3749 964.00
33.4401 1033.00
33.5053 1148.00
33.5705 1228.00
33.6357 1578.00
33.7009 2443.00
33.7661 4290.00
33.8313 7441.00
33.8965 10478.00
33.9617 11828.00
34.0269 10048.00
34.0921 6936.00
34.1573 4327.00
34.2225 2955.00
34.2877 2383.00
34.3529 2059.00
34.4181 1827.00
34.4833 1619.00
34.5485 1446.00
34.6137 1366.00
34.6789 1370.00
34.7441 1180.00
34.8093 1188.00
34.8745 1087.00
34.9397 1000.00
35.0049 925.00
35.0701 950.00
35.1353 886.00
35.2005 876.00
35.2657 906.00
35.3309 1014.00
35.3961 1031.00
35.4613 1146.00
35.5265 1109.00
35.5917 1122.00
35.6569 1021.00
35.7221 983.00
35.7873 889.00
35.8525 876.00
35.9177 920.00
35.9829 953.00
36.0481 971.00
36.1133 943.00
36.1785 979.00
36.2437 963.00
36.3089 893.00
36.3741 781.00
36.4393 748.00
36.5045 762.00
36.5697 803.00
36.6349 791.00
36.7001 846.00
36.7653 792.00
36.8305 804.00
36.8957 822.00
36.9609 724.00
37.0261 826.00
37.0913 861.00
37.1565 853.00
37.2217 812.00
37.2869 883.00
37.3521 808.00
37.4173 778.00
37.4825 797.00
37.5477 796.00
37.6129 803.00
37.6781 766.00
37.7433 738.00
37.8085 740.00
37.8736 731.00
37.9388 713.00
38.004 737.00
38.0692 774.00
38.1344 732.00
38.1996 772.00
38.2648 804.00
38.33 818.00
38.3952 825.00
38.4604 859.00
38.5256 834.00
38.5908 832.00
38.656 804.00
38.7212 839.00
38.7864 855.00
38.8516 901.00
38.9168 873.00
38.982 904.00
39.0472 878.00
39.1124 911.00
39.1776 1021.00
39.2428 1381.00
39.308 1632.00
39.3732 1772.00
39.4384 1734.00
39.5036 1585.00
39.5688 1513.00
39.634 1626.00
39.6992 1562.00
39.7644 1358.00
39.8296 1148.00
39.8948 873.00
39.96 810.00
40.0252 796.00
40.0904 767.00
40.1556 797.00
40.2208 769.00
40.286 812.00
40.3512 815.00
40.4164 750.00
40.4816 755.00
40.5468 746.00
40.612 838.00
40.6772 770.00
40.7424 779.00
40.8076 848.00
40.8728 869.00
40.938 933.00
41.0032 948.00
41.0684 1000.00
41.1336 1179.00
41.1988 1376.00
41.264 1457.00
41.3292 1521.00
41.3944 1270.00
41.4596 1099.00
41.5248 979.00
41.59 934.00
41.6552 911.00
41.7204 954.00
41.7856 1096.00
41.8508 1330.00
41.916 1691.00
41.9812 1897.00
42.0464 1960.00
42.1116 1820.00
42.1768 1615.00
42.242 1693.00
42.3072 1757.00
42.3724 1649.00
42.4376 1342.00
42.5028 982.00
42.568 857.00
42.6332 793.00
42.6983 754.00
42.7635 795.00
42.8287 782.00
42.8939 740.00
42.9591 770.00
43.0243 814.00
43.0895 789.00
43.1547 831.00
43.2199 821.00
43.2851 838.00
43.3503 876.00
43.4155 796.00
43.4807 788.00
43.5459 842.00
43.6111 761.00
43.6763 704.00
43.7415 804.00
43.8067 793.00
43.8719 844.00
43.9371 748.00
44.0023 910.00
44.0675 1052.00
44.1327 1559.00
44.1979 2476.00
44.2631 3444.00
44.3283 3938.00
44.3935 3865.00
44.4587 3638.00
44.5239 3027.00
44.5891 2495.00
44.6543 1873.00
44.7195 1276.00
44.7847 997.00
44.8499 952.00
44.9151 907.00
44.9803 950.00
45.0455 1063.00
45.1107 873.00
45.1759 906.00
45.2411 843.00
45.3063 781.00
45.3715 748.00
45.4367 775.00
45.5019 795.00
45.5671 853.00
45.6323 750.00
45.6975 856.00
45.7627 809.00
45.8279 849.00
45.8931 901.00
45.9583 976.00
46.0235 1054.00
46.0887 1014.00
46.1539 977.00
46.2191 986.00
46.2843 948.00
46.3495 1133.00
46.4147 1370.00
46.4799 2089.00
46.5451 3479.00
46.6103 4689.00
46.6755 5088.00
46.7407 4483.00
46.8059 3723.00
46.8711 3056.00
46.9363 2592.00
47.0015 2113.00
47.0667 1695.00
47.1319 1265.00
47.1971 954.00
47.2623 818.00
47.3275 786.00
47.3927 760.00
47.4579 734.00
47.523 720.00
47.5882 722.00
47.6534 735.00
47.7186 684.00
47.7838 648.00
47.849 632.00
47.9142 731.00
47.9794 743.00
48.0446 820.00
48.1098 822.00
48.175 904.00
48.2402 899.00
48.3054 927.00
48.3706 960.00
48.4358 909.00
48.501 902.00
48.5662 894.00
48.6314 1033.00
48.6966 1244.00
48.7618 1426.00
48.827 1428.00
48.8922 1339.00
48.9574 1159.00
49.0226 1002.00
49.0878 937.00
49.153 948.00
49.2182 944.00
49.2834 1054.00
49.3486 956.00
49.4138 1001.00
49.479 1043.00
49.5442 981.00
49.6094 879.00
49.6746 875.00
49.7398 856.00
49.805 823.00
49.8702 766.00
49.9354 769.00
50.0006 819.00
50.0658 816.00
50.131 787.00
50.1962 840.00
50.2614 947.00
50.3266 1071.00
50.3918 1257.00
50.457 1337.00
50.5222 1331.00
50.5874 1224.00
50.6526 1159.00
50.7178 1105.00
50.783 1122.00
50.8482 1125.00
50.9134 1274.00
50.9786 1470.00
51.0438 1773.00
51.109 2418.00
51.1742 3117.00
51.2394 3286.00
51.3046 2842.00
51.3698 2260.00
51.435 1644.00
51.5002 1142.00
51.5654 969.00
51.6306 859.00
51.6958 799.00
51.761 798.00
51.8262 807.00
51.8914 823.00
51.9566 762.00
52.0218 801.00
52.087 749.00
52.1522 759.00
52.2174 713.00
52.2826 764.00
52.3477 768.00
52.4129 801.00
52.4781 837.00
52.5433 883.00
52.6085 1003.00
52.6737 1272.00
52.7389 2061.00
52.8041 3531.00
52.8693 4686.00
52.9345 5054.00
52.9997 4578.00
53.0649 3786.00
53.1301 3011.00
53.1953 2216.00
53.2605 1622.00
53.3257 1254.00
53.3909 945.00
53.4561 841.00
53.5213 770.00
53.5865 741.00
53.6517 683.00
53.7169 640.00
53.7821 724.00
53.8473 666.00
53.9125 778.00
53.9777 675.00
54.0429 785.00
54.1081 841.00
54.1733 830.00
54.2385 869.00
54.3037 914.00
54.3689 900.00
54.4341 996.00
54.4993 938.00
54.5645 868.00
54.6297 808.00
54.6949 750.00
54.7601 726.00
54.8253 733.00
54.8905 673.00
54.9557 698.00
55.0209 718.00
55.0861 747.00
55.1513 692.00
55.2165 682.00
55.2817 754.00
55.3469 748.00
55.4121 751.00
55.4773 843.00
55.5425 857.00
55.6077 901.00
55.6729 861.00
55.7381 860.00
55.8033 891.00
55.8685 819.00
55.9337 762.00
55.9989 807.00
56.0641 790.00
56.1293 757.00
56.1945 765.00
56.2597 758.00
56.3249 714.00
56.3901 837.00
56.4553 770.00
56.5205 770.00
56.5857 705.00
56.6509 725.00
56.7161 773.00
56.7813 805.00
56.8465 817.00
56.9117 869.00
56.9769 1015.00
57.042 1078.00
57.1073 1115.00
57.1724 992.00
57.2376 953.00
57.3028 937.00
57.368 836.00
57.4332 882.00
57.4984 842.00
57.5636 821.00
57.6288 858.00
57.694 896.00
57.7592 872.00
57.8244 875.00
57.8896 865.00
57.9548 755.00
58.02 790.00
58.0852 841.00
58.1504 838.00
58.2156 797.00
58.2808 842.00
58.346 983.00
58.4112 930.00
58.4764 981.00
58.5416 1027.00
58.6068 1119.00
58.672 1437.00
58.7372 1903.00
58.8024 2951.00
58.8676 3958.00
58.9328 4056.00
58.998 3845.00
59.0632 4023.00
59.1284 3474.00
59.1936 2941.00
59.2588 2318.00
59.324 1934.00
59.3892 1786.00
59.4544 1627.00
59.5196 1562.00
59.5848 1340.00
59.65 1131.00
59.7152 1006.00
59.7804 811.00
59.8456 813.00
59.9108 764.00
59.976 739.00
60.0412 729.00
60.1064 792.00
60.1716 881.00
60.2368 843.00
60.302 860.00
60.3672 910.00
60.4324 956.00
60.4976 1266.00
60.5628 1765.00
60.628 2243.00
60.6932 2419.00
60.7584 2336.00
60.8236 2288.00
60.8888 1783.00
60.954 1542.00
61.0192 1271.00
61.0844 1117.00
61.1496 1106.00
61.2148 1049.00
61.28 893.00
61.3452 845.00
61.4104 810.00
61.4756 819.00
61.5408 807.00
61.606 751.00
61.6712 744.00
61.7364 763.00
61.8016 787.00
61.8667 767.00
61.932 776.00
61.9971 774.00
62.0623 764.00
62.1275 754.00
62.1927 808.00
62.2579 820.00
62.3231 864.00
62.3883 810.00
62.4535 901.00
62.5187 860.00
62.5839 899.00
62.6491 1009.00
62.7143 1144.00
62.7795 1337.00
62.8447 1529.00
62.9099 1404.00
62.9751 1395.00
63.0403 1415.00
63.1055 1553.00
63.1707 1445.00
63.2359 1394.00
63.3011 1253.00
63.3663 1106.00
63.4315 998.00
63.4967 876.00
63.5619 773.00
63.6271 790.00
63.6923 769.00
63.7575 718.00
63.8227 679.00
63.8879 665.00
63.9531 696.00
64.0183 702.00
64.0835 779.00
64.1487 759.00
64.2139 980.00
64.2791 1275.00
64.3443 1402.00
64.4095 1450.00
64.4747 1273.00
64.5399 1255.00
64.6051 1021.00
64.6703 854.00
64.7355 814.00
64.8007 831.00
64.8659 772.00
64.9311 666.00
64.9963 695.00
65.0615 640.00
65.1267 627.00
65.1919 654.00
65.2571 640.00
65.3223 656.00
65.3875 650.00
65.4527 693.00
65.5179 762.00
65.5831 853.00
65.6483 957.00
65.7135 980.00
65.7787 994.00
65.8439 986.00
65.9091 983.00
65.9743 1054.00
66.0395 1013.00
66.1047 1152.00
66.1699 1327.00
66.2351 1363.00
66.3003 1580.00
66.3655 1880.00
66.4307 2036.00
66.4959 1836.00
66.561 1815.00
66.6263 1716.00
66.6915 1805.00
66.7566 1733.00
66.8218 1564.00
66.887 1366.00
66.9522 1260.00
67.0174 1087.00
67.0826 805.00
67.1478 762.00
67.213 718.00
67.2782 705.00
67.3434 647.00
67.4086 651.00
67.4738 669.00
67.539 649.00
67.6042 700.00
67.6694 748.00
67.7346 867.00
67.7998 1267.00
67.865 1478.00
67.9302 1547.00
67.9954 1413.00
68.0606 1381.00
68.1258 1228.00
68.191 962.00
68.2562 859.00
68.3214 765.00
68.3866 715.00
68.4518 736.00
68.517 730.00
68.5822 730.00
68.6474 793.00
68.7126 766.00
68.7778 783.00
68.843 792.00
68.9082 768.00
68.9734 765.00
69.0386 722.00
69.1038 695.00
69.169 720.00
69.2342 742.00
69.2994 728.00
69.3646 767.00
69.4298 729.00
69.495 789.00
69.5602 713.00
69.6254 712.00
69.6906 721.00
69.7558 740.00
69.821 691.00
69.8862 672.00
69.9514 663.00
70.0166 691.00
70.0818 684.00
70.147 651.00
70.2122 688.00
70.2774 664.00
70.3426 669.00
70.4078 625.00
70.473 626.00
70.5382 651.00
70.6034 703.00
70.6686 679.00
70.7338 632.00
70.799 649.00
70.8642 682.00
70.9294 691.00
70.9946 743.00
71.0598 779.00
71.125 890.00
71.1902 1221.00
71.2554 1533.00
71.3205 1640.00
71.3858 1591.00
71.451 1592.00
71.5162 1503.00
71.5813 1302.00
71.6465 1134.00
71.7117 1031.00
71.7769 933.00
71.8421 789.00
71.9073 810.00
71.9725 747.00
72.0377 723.00
72.1029 782.00
72.1681 758.00
72.2333 722.00
72.2985 750.00
72.3637 735.00
72.4289 738.00
72.4941 736.00
72.5593 693.00
72.6245 719.00
72.6897 764.00
72.7549 710.00
72.8201 731.00
72.8853 759.00
72.9505 732.00
73.0157 819.00
73.0809 731.00
73.1461 820.00
73.2113 864.00
73.2765 911.00
73.3417 900.00
73.4069 1011.00
73.4721 1043.00
73.5373 1137.00
73.6025 1307.00
73.6677 1297.00
73.7329 1172.00
73.7981 1049.00
73.8633 991.00
73.9285 911.00
73.9937 783.00
74.0589 692.00
74.1241 656.00
74.1893 671.00
74.2545 652.00
74.3197 651.00
74.3849 702.00
74.4501 710.00
74.5153 733.00
74.5805 1069.00
74.6457 1307.00
74.7109 1489.00
74.7761 1386.00
74.8413 1362.00
74.9065 1360.00
74.9717 1138.00
75.0369 1099.00
75.1021 909.00
75.1673 788.00
75.2325 841.00
75.2977 765.00
75.3629 774.00
75.4281 783.00
75.4933 814.00
75.5585 813.00
75.6237 844.00
75.6889 809.00
75.7541 736.00
75.8193 752.00
75.8845 773.00
75.9497 727.00
76.0149 739.00
76.0801 631.00
76.1452 628.00
76.2104 720.00
76.2756 711.00
76.3409 743.00
76.406 802.00
76.4712 864.00
76.5364 1045.00
76.6016 1116.00
76.6668 1297.00
76.732 1272.00
76.7972 1181.00
76.8624 1173.00
76.9276 1175.00
76.9928 1077.00
77.058 1001.00
77.1232 921.00
77.1884 825.00
77.2536 804.00
77.3188 811.00
77.384 783.00
77.4492 742.00
77.5144 742.00
77.5796 759.00
77.6448 751.00
77.71 753.00
77.7752 742.00
77.8404 709.00
77.9056 708.00
77.9708 706.00
78.036 719.00
78.1012 644.00
78.1664 717.00
78.2316 701.00
78.2968 669.00
78.362 643.00
78.4272 668.00
78.4924 622.00
78.5576 676.00
78.6228 629.00
78.688 636.00
78.7532 594.00
78.8184 616.00
78.8836 683.00
78.9488 657.00
79.014 675.00
79.0792 625.00
79.1444 666.00
79.2096 663.00
79.2748 658.00
79.34 697.00
79.4052 714.00
79.4704 738.00
79.5356 751.00
79.6008 891.00
79.666 1109.00
79.7312 1376.00
79.7964 1568.00
79.8616 1473.00
79.9268 1445.00
79.992 1515.00
80.0572 1526.00
80.1224 1420.00
80.1876 1294.00
80.2528 1273.00
80.318 1323.00
80.3832 1219.00
80.4484 1095.00
80.5136 996.00
80.5788 982.00
80.644 933.00
80.7092 777.00
80.7744 757.00
80.8396 735.00
80.9048 685.00
80.9699 724.00
81.0351 718.00
81.1003 753.00
81.1655 714.00
81.2307 827.00
81.2959 890.00
81.3611 1038.00
81.4263 1124.00
81.4915 1090.00
81.5567 1192.00
81.6219 1109.00
81.6871 1062.00
81.7523 987.00
81.8175 888.00
81.8827 823.00
81.9479 785.00
82.0131 741.00
82.0783 797.00
82.1435 809.00
82.2087 750.00
82.2739 761.00
82.3391 710.00
82.4043 726.00
82.4695 692.00
82.5347 696.00
82.5999 697.00
82.6651 681.00
82.7303 657.00
82.7955 660.00
82.8607 675.00
82.9259 733.00
82.9911 640.00
83.0563 698.00
83.1215 719.00
83.1867 682.00
83.2519 690.00
83.3171 609.00
83.3823 638.00
83.4475 603.00
83.5127 706.00
83.5779 706.00
83.6431 672.00
83.7083 636.00
83.7735 667.00
83.8387 684.00
83.9039 657.00
83.9691 676.00
84.0343 646.00
84.0995 671.00
84.1647 633.00
84.2299 655.00
84.2951 665.00
84.3603 723.00
84.4255 697.00
84.4907 788.00
84.5559 813.00
84.6211 835.00
84.6863 781.00
84.7515 766.00
84.8167 746.00
84.8819 708.00
84.9471 734.00
85.0123 677.00
85.0775 661.00
85.1427 640.00
85.2079 681.00
85.2731 691.00
85.3383 684.00
85.4035 681.00
85.4687 652.00
85.5339 630.00
85.5991 645.00
85.6643 631.00
85.7295 669.00
85.7946 636.00
85.8598 663.00
85.925 703.00
85.9903 686.00
86.0554 674.00
86.1206 763.00
86.1858 777.00
86.251 840.00
86.3162 817.00
86.3814 931.00
86.4466 1102.00
86.5118 1262.00
86.577 1221.00
86.6422 1111.00
86.7074 1201.00
86.7726 1152.00
86.8378 1189.00
86.903 1112.00
86.9682 1002.00
87.0334 1024.00
87.0986 928.00
87.1638 918.00
87.229 917.00
87.2942 889.00
87.3594 903.00
87.4246 807.00
87.4898 813.00
87.555 760.00
87.6202 779.00
87.6854 800.00
87.7506 766.00
87.8158 804.00
87.881 953.00
87.9462 861.00
88.0114 913.00
88.0766 900.00
88.1418 905.00
88.207 869.00
88.2722 846.00
88.3374 863.00
88.4026 831.00
88.4678 836.00
88.533 840.00
88.5982 799.00
88.6634 818.00
88.7286 816.00
88.7938 770.00
88.859 833.00
88.9242 752.00
88.9894 858.00
89.0546 882.00
89.1198 807.00
89.185 904.00
89.2502 838.00
89.3154 840.00
89.3806 855.00
89.4458 840.00
89.511 1030.00
89.5762 992.00
89.6414 936.00
89.7066 924.00
89.7718 899.00
89.837 921.00
89.9022 958.00
89.9674 941.00
90.0326 1004.00
90.0978 1081.00
90.163 1024.00
90.2282 913.00
90.2934 830.00
90.3586 885.00
90.4238 818.00
90.489 813.00
90.5542 696.00
90.6193 719.00
90.6845 718.00
90.7497 727.00
90.8149 686.00
90.8801 661.00
90.9453 750.00
91.0105 837.00
91.0757 899.00
91.1409 939.00
91.2061 922.00
91.2713 814.00
91.3365 853.00
91.4017 898.00
91.4669 887.00
91.5321 872.00
91.5973 790.00
91.6625 773.00
91.7277 713.00
91.7929 723.00
91.8581 724.00
91.9233 720.00
91.9885 679.00
92.0537 690.00
92.1189 673.00
92.1841 689.00
92.2493 666.00
92.3145 718.00
92.3797 729.00
92.4449 773.00
92.5101 728.00
92.5753 709.00
92.6405 712.00
92.7057 727.00
92.7709 756.00
92.8361 757.00
92.9013 824.00
92.9665 954.00
93.0317 1019.00
93.0969 1045.00
93.1621 956.00
93.2273 1105.00
93.2925 1210.00
93.3577 1202.00
93.4229 1106.00
93.4881 901.00
93.5533 912.00
93.6185 842.00
93.6837 889.00
93.7489 779.00
93.8141 737.00
93.8793 649.00
93.9445 684.00
94.0097 695.00
94.0749 720.00
94.1401 774.00
94.2053 768.00
94.2705 894.00
94.3357 953.00
94.4009 966.00
94.4661 988.00
94.5313 1032.00
94.5965 1041.00
94.6617 961.00
94.7269 792.00
94.7921 912.00
94.8573 848.00
94.9225 760.00
94.9877 787.00
95.0529 787.00
95.1181 784.00
95.1833 748.00
95.2485 720.00
95.3137 762.00
95.3789 797.00
95.444 820.00
95.5092 871.00
95.5744 838.00
95.6396 876.00
95.7048 896.00
95.77 837.00
95.8352 812.00
95.9004 856.00
95.9656 804.00
96.0308 766.00
96.096 715.00
96.1612 732.00
96.2264 712.00
96.2916 675.00
96.3568 654.00
96.422 673.00
96.4872 715.00
96.5524 689.00
96.6176 642.00
96.6828 621.00
96.748 671.00
96.8132 648.00
96.8784 699.00
96.9436 705.00
97.0088 721.00
97.074 749.00
97.1392 721.00
97.2044 705.00
97.2696 710.00
97.3348 698.00
97.4 662.00
97.4652 705.00
97.5304 668.00
97.5956 698.00
97.6608 730.00
97.726 730.00
97.7912 734.00
97.8564 711.00
97.9216 669.00
97.9868 678.00
98.052 676.00
98.1172 685.00
98.1824 660.00
98.2476 685.00
98.3128 712.00
98.378 702.00
98.4432 723.00
98.5084 691.00
98.5736 638.00
98.6388 701.00
98.704 705.00
98.7692 718.00
98.8344 709.00
98.8996 728.00
98.9648 754.00
99.03 701.00
99.0952 782.00
99.1604 904.00
99.2256 990.00
99.2908 1110.00
99.356 1269.00
99.4212 1228.00
99.4864 1359.00
99.5516 1471.00
99.6168 1410.00
99.682 1387.00
99.7472 1291.00
99.8124 1326.00
99.8776 1356.00
99.9428 1241.00
100.008 1169.00
100.073 1008.00
100.095 1011.00