File: data/xrd_creation/results/NSC_204.xy
9.903433 2807.00
9.968632 2901.00
10.0338 2851.00
10.099 2882.00
10.1642 2884.00
10.2294 2804.00
10.2946 2777.00
10.3598 2730.00
10.425 2738.00
10.4902 2782.00
10.5554 2760.00
10.6206 2721.00
10.6858 2752.00
10.751 2730.00
10.8162 2695.00
10.8814 2593.00
10.9466 2569.00
11.0118 2597.00
11.077 2514.00
11.1422 2593.00
11.2074 2538.00
11.2726 2467.00
11.3378 2515.00
11.403 2498.00
11.4682 2476.00
11.5334 2427.00
11.5986 2413.00
11.6638 2471.00
11.729 2367.00
11.7942 2349.00
11.8594 2352.00
11.9246 2359.00
11.9898 2389.00
12.055 2301.00
12.1202 2428.00
12.1854 2351.00
12.2506 2309.00
12.3158 2313.00
12.381 2331.00
12.4462 2194.00
12.5114 2237.00
12.5766 2265.00
12.6418 2225.00
12.707 2181.00
12.7722 2208.00
12.8374 2224.00
12.9026 2146.00
12.9678 2183.00
13.033 2122.00
13.0982 2095.00
13.1634 2152.00
13.2286 2102.00
13.2938 2086.00
13.359 2168.00
13.4242 2173.00
13.4894 2119.00
13.5546 2261.00
13.6198 2194.00
13.685 2198.00
13.7502 2416.00
13.8154 2512.00
13.8805 2687.00
13.9457 3073.00
14.0109 3424.00
14.0761 3895.00
14.1413 3643.00
14.2065 3026.00
14.2717 2403.00
14.3369 2241.00
14.4021 2098.00
14.4673 2064.00
14.5325 2116.00
14.5977 2120.00
14.6629 2078.00
14.7281 2127.00
14.7933 2020.00
14.8585 2195.00
14.9237 2230.00
14.9889 2331.00
15.0541 2252.00
15.1193 2222.00
15.1845 2095.00
15.2497 2043.00
15.3149 2022.00
15.3801 2020.00
15.4453 2022.00
15.5105 1985.00
15.5757 1997.00
15.6409 1999.00
15.7061 2009.00
15.7713 1935.00
15.8365 2018.00
15.9017 1968.00
15.9669 1978.00
16.0321 1983.00
16.0973 2022.00
16.1625 1972.00
16.2277 1949.00
16.2929 1942.00
16.3581 1955.00
16.4233 2018.00
16.4885 1956.00
16.5537 1924.00
16.6189 1932.00
16.6841 1844.00
16.7493 1840.00
16.8145 1972.00
16.8797 1907.00
16.9449 1868.00
17.0101 1944.00
17.0753 1851.00
17.1405 1848.00
17.2057 1966.00
17.2709 1830.00
17.3361 1901.00
17.4013 1829.00
17.4665 1919.00
17.5317 1974.00
17.5969 1967.00
17.6621 1943.00
17.7273 2004.00
17.7925 2022.00
17.8577 2104.00
17.9229 2159.00
17.9881 2110.00
18.0533 2009.00
18.1185 1941.00
18.1837 1837.00
18.2489 1872.00
18.3141 1831.00
18.3793 1849.00
18.4445 1771.00
18.5097 1846.00
18.5749 1838.00
18.6401 1819.00
18.7052 1762.00
18.7704 1728.00
18.8356 1747.00
18.9008 1849.00
18.966 1856.00
19.0312 1785.00
19.0964 1940.00
19.1616 1979.00
19.2268 2003.00
19.292 2290.00
19.3572 2379.00
19.4224 3026.00
19.4876 3768.00
19.5528 5110.00
19.618 6989.00
19.6832 9192.00
19.7484 10126.00
19.8136 9576.00
19.8788 8979.00
19.944 8023.00
20.0092 6544.00
20.0744 4552.00
20.1396 3014.00
20.2048 2310.00
20.27 2066.00
20.3352 1929.00
20.4004 1857.00
20.4656 1849.00
20.5308 1921.00
20.596 1889.00
20.6612 1758.00
20.7264 1799.00
20.7916 1810.00
20.8568 1978.00
20.922 1937.00
20.9872 2274.00
21.0524 2703.00
21.1176 3136.00
21.1828 3024.00
21.248 2342.00
21.3132 1912.00
21.3784 1948.00
21.4436 1872.00
21.5088 1874.00
21.574 1896.00
21.6392 2010.00
21.7044 1925.00
21.7696 1868.00
21.8348 1977.00
21.9 1869.00
21.9652 1776.00
22.0304 1688.00
22.0956 1718.00
22.1608 1680.00
22.226 1706.00
22.2912 1640.00
22.3564 1802.00
22.4216 1700.00
22.4868 1833.00
22.552 1931.00
22.6172 1978.00
22.6824 2142.00
22.7476 2262.00
22.8128 2105.00
22.878 1933.00
22.9432 1929.00
23.0084 1975.00
23.0736 2403.00
23.1388 2748.00
23.204 3349.00
23.2692 3679.00
23.3344 3483.00
23.3996 2884.00
23.4647 2519.00
23.5299 2277.00
23.5951 2066.00
23.6603 1860.00
23.7255 1718.00
23.7907 1613.00
23.8559 1759.00
23.9211 1608.00
23.9863 1606.00
24.0515 1723.00
24.1167 1709.00
24.1819 1818.00
24.2471 1990.00
24.3123 2380.00
24.3775 2516.00
24.4427 2807.00
24.5079 2660.00
24.5731 2541.00
24.6383 2212.00
24.7035 1948.00
24.7687 2022.00
24.8339 2028.00
24.8991 2182.00
24.9643 2223.00
25.0295 2026.00
25.0947 1815.00
25.1599 1581.00
25.2251 1638.00
25.2903 1568.00
25.3555 1495.00
25.4207 1545.00
25.4859 1604.00
25.5511 1502.00
25.6163 1543.00
25.6815 1507.00
25.7467 1491.00
25.8119 1553.00
25.8771 1520.00
25.9423 1520.00
26.0075 1449.00
26.0727 1454.00
26.1379 1536.00
26.2031 1438.00
26.2683 1492.00
26.3335 1490.00
26.3987 1482.00
26.4639 1492.00
26.5291 1482.00
26.5943 1439.00
26.6595 1472.00
26.7247 1490.00
26.7899 1486.00
26.8551 1518.00
26.9203 1438.00
26.9855 1415.00
27.0507 1461.00
27.1159 1482.00
27.1811 1505.00
27.2463 1498.00
27.3115 1459.00
27.3767 1504.00
27.4419 1488.00
27.5071 1519.00
27.5723 1642.00
27.6375 1778.00
27.7027 1771.00
27.7679 2125.00
27.8331 2827.00
27.8983 3699.00
27.9635 4891.00
28.0287 5328.00
28.0939 4709.00
28.1591 3747.00
28.2243 2900.00
28.2894 2640.00
28.3546 2640.00
28.4198 3151.00
28.485 4099.00
28.5502 5183.00
28.6154 6108.00
28.6806 6927.00
28.7458 6506.00
28.811 4751.00
28.8762 3172.00
28.9414 2370.00
29.0066 1921.00
29.0718 1701.00
29.137 1773.00
29.2022 1547.00
29.2674 1489.00
29.3326 1520.00
29.3978 1454.00
29.463 1490.00
29.5282 1549.00
29.5934 1504.00
29.6586 1460.00
29.7238 1441.00
29.789 1421.00
29.8542 1427.00
29.9194 1504.00
29.9846 1407.00
30.0498 1373.00
30.115 1404.00
30.1802 1410.00
30.2454 1486.00
30.3106 1531.00
30.3758 1604.00
30.441 1669.00
30.5062 1787.00
30.5714 2075.00
30.6366 2268.00
30.7018 2541.00
30.767 2737.00
30.8322 3191.00
30.8974 4178.00
30.9626 5109.00
31.0278 5507.00
31.093 6420.00
31.1582 7667.00
31.2234 8407.00
31.2886 7682.00
31.3538 6381.00
31.419 4575.00
31.4842 3674.00
31.5494 3184.00
31.6146 3063.00
31.6798 3025.00
31.745 3422.00
31.8102 3994.00
31.8754 4521.00
31.9406 5101.00
32.0058 5605.00
32.071 4901.00
32.1362 3586.00
32.2014 2451.00
32.2666 2038.00
32.3318 1793.00
32.397 1646.00
32.4622 1638.00
32.5274 1458.00
32.5926 1502.00
32.6578 1460.00
32.723 1388.00
32.7882 1412.00
32.8534 1361.00
32.9186 1420.00
32.9838 1386.00
33.0489 1360.00
33.1141 1417.00
33.1793 1415.00
33.2445 1438.00
33.3097 1519.00
33.3749 1520.00
33.4401 1567.00
33.5053 1626.00
33.5705 1589.00
33.6357 1452.00
33.7009 1525.00
33.7661 1551.00
33.8313 1555.00
33.8965 1610.00
33.9617 1669.00
34.0269 1706.00
34.0921 1832.00
34.1573 2080.00
34.2225 2530.00
34.2877 3300.00
34.3529 4673.00
34.4181 6165.00
34.4833 7648.00
34.5485 9372.00
34.6137 10162.00
34.6789 8671.00
34.7441 6782.00
34.8093 4886.00
34.8745 3839.00
34.9397 3620.00
35.0049 3215.00
35.0701 2797.00
35.1353 2243.00
35.2005 1729.00
35.2657 1534.00
35.3309 1470.00
35.3961 1366.00
35.4613 1504.00
35.5265 1506.00
35.5917 1592.00
35.6569 1806.00
35.7221 2216.00
35.7873 2694.00
35.8525 2954.00
35.9177 2631.00
35.9829 2067.00
36.0481 1590.00
36.1133 1510.00
36.1785 1361.00
36.2437 1431.00
36.3089 1531.00
36.3741 1542.00
36.4393 1562.00
36.5045 1507.00
36.5697 1497.00
36.6349 1352.00
36.7001 1283.00
36.7653 1146.00
36.8305 1153.00
36.8957 1223.00
36.9609 1280.00
37.0261 1215.00
37.0913 1218.00
37.1565 1167.00
37.2217 1167.00
37.2869 1214.00
37.3521 1154.00
37.4173 1155.00
37.4825 1149.00
37.5477 1209.00
37.6129 1198.00
37.6781 1216.00
37.7433 1212.00
37.8085 1218.00
37.8736 1183.00
37.9388 1190.00
38.004 1215.00
38.0692 1281.00
38.1344 1139.00
38.1996 1124.00
38.2648 1119.00
38.33 1140.00
38.3952 1089.00
38.4604 1089.00
38.5256 1112.00
38.5908 1130.00
38.656 1186.00
38.7212 1153.00
38.7864 1198.00
38.8516 1221.00
38.9168 1297.00
38.982 1255.00
39.0472 1413.00
39.1124 1596.00
39.1776 1619.00
39.2428 1570.00
39.308 1484.00
39.3732 1360.00
39.4384 1301.00
39.5036 1310.00
39.5688 1326.00
39.634 1420.00
39.6992 1442.00
39.7644 1461.00
39.8296 1408.00
39.8948 1414.00
39.96 1420.00
40.0252 1315.00
40.0904 1385.00
40.1556 1441.00
40.2208 1324.00
40.286 1341.00
40.3512 1207.00
40.4164 1195.00
40.4816 1270.00
40.5468 1194.00
40.612 1183.00
40.6772 1166.00
40.7424 1216.00
40.8076 1194.00
40.8728 1297.00
40.938 1317.00
41.0032 1369.00
41.0684 1487.00
41.1336 1525.00
41.1988 1659.00
41.264 1773.00
41.3292 1974.00
41.3944 2049.00
41.4596 1893.00
41.5248 1842.00
41.59 1695.00
41.6552 1787.00
41.7204 1957.00
41.7856 2031.00
41.8508 1969.00
41.916 2059.00
41.9812 2140.00
42.0464 2089.00
42.1116 2031.00
42.1768 1906.00
42.242 1836.00
42.3072 1804.00
42.3724 1791.00
42.4376 1770.00
42.5028 1680.00
42.568 1588.00
42.6332 1474.00
42.6983 1378.00
42.7635 1291.00
42.8287 1190.00
42.8939 1210.00
42.9591 1172.00
43.0243 1136.00
43.0895 1152.00
43.1547 1161.00
43.2199 1081.00
43.2851 1111.00
43.3503 1072.00
43.4155 1081.00
43.4807 1103.00
43.5459 1100.00
43.6111 1153.00
43.6763 1121.00
43.7415 1113.00
43.8067 1112.00
43.8719 1024.00
43.9371 1095.00
44.0023 1079.00
44.0675 1156.00
44.1327 1141.00
44.1979 1123.00
44.2631 1149.00
44.3283 1301.00
44.3935 1278.00
44.4587 1520.00
44.5239 1756.00
44.5891 1989.00
44.6543 2139.00
44.7195 2102.00
44.7847 2293.00
44.8499 2272.00
44.9151 2275.00
44.9803 2223.00
45.0455 2123.00
45.1107 2006.00
45.1759 1808.00
45.2411 1722.00
45.3063 1633.00
45.3715 1584.00
45.4367 1456.00
45.5019 1363.00
45.5671 1356.00
45.6323 1331.00
45.6975 1196.00
45.7627 1275.00
45.8279 1349.00
45.8931 1297.00
45.9583 1503.00
46.0235 1512.00
46.0887 1568.00
46.1539 1496.00
46.2191 1411.00
46.2843 1351.00
46.3495 1413.00
46.4147 1469.00
46.4799 1451.00
46.5451 1624.00
46.6103 1615.00
46.6755 1800.00
46.7407 1941.00
46.8059 2015.00
46.8711 2305.00
46.9363 2617.00
47.0015 2828.00
47.0667 3063.00
47.1319 3093.00
47.1971 2990.00
47.2623 2739.00
47.3275 2457.00
47.3927 2132.00
47.4579 1894.00
47.523 1684.00
47.5882 1562.00
47.6534 1495.00
47.7186 1548.00
47.7838 1308.00
47.849 1258.00
47.9142 1207.00
47.9794 1151.00
48.0446 1104.00
48.1098 1105.00
48.175 1078.00
48.2402 1111.00
48.3054 1173.00
48.3706 1162.00
48.4358 1127.00
48.501 1159.00
48.5662 1098.00
48.6314 1224.00
48.6966 1185.00
48.7618 1188.00
48.827 1190.00
48.8922 1204.00
48.9574 1197.00
49.0226 1253.00
49.0878 1175.00
49.153 1212.00
49.2182 1285.00
49.2834 1345.00
49.3486 1479.00
49.4138 1535.00
49.479 1817.00
49.5442 2093.00
49.6094 2084.00
49.6746 2066.00
49.7398 1916.00
49.805 1960.00
49.8702 2048.00
49.9354 2001.00
50.0006 1797.00
50.0658 1479.00
50.131 1332.00
50.1962 1276.00
50.2614 1242.00
50.3266 1317.00
50.3918 1341.00
50.457 1565.00
50.5222 1552.00
50.5874 1699.00
50.6526 1927.00
50.7178 2384.00
50.783 2796.00
50.8482 2957.00
50.9134 2986.00
50.9786 2966.00
51.0438 2821.00
51.109 2916.00
51.1742 2847.00
51.2394 2963.00
51.3046 2844.00
51.3698 2693.00
51.435 2173.00
51.5002 1908.00
51.5654 1792.00
51.6306 1466.00
51.6958 1451.00
51.761 1435.00
51.8262 1409.00
51.8914 1407.00
51.9566 1432.00
52.0218 1300.00
52.087 1265.00
52.1522 1169.00
52.2174 1087.00
52.2826 1123.00
52.3477 998.00
52.4129 1055.00
52.4781 972.00
52.5433 1075.00
52.6085 1013.00
52.6737 1111.00
52.7389 1065.00
52.8041 1071.00
52.8693 1087.00
52.9345 1082.00
52.9997 1128.00
53.0649 1111.00
53.1301 1170.00
53.1953 1208.00
53.2605 1288.00
53.3257 1521.00
53.3909 1661.00
53.4561 1838.00
53.5213 2026.00
53.5865 2127.00
53.6517 2299.00
53.7169 2335.00
53.7821 2375.00
53.8473 2387.00
53.9125 2263.00
53.9777 2086.00
54.0429 1946.00
54.1081 1852.00
54.1733 1705.00
54.2385 1593.00
54.3037 1507.00
54.3689 1420.00
54.4341 1481.00
54.4993 1414.00
54.5645 1545.00
54.6297 1498.00
54.6949 1592.00
54.7601 1540.00
54.8253 1529.00
54.8905 1446.00
54.9557 1300.00
55.0209 1319.00
55.0861 1215.00
55.1513 1135.00
55.2165 1183.00
55.2817 1215.00
55.3469 1231.00
55.4121 1198.00
55.4773 1255.00
55.5425 1314.00
55.6077 1337.00
55.6729 1302.00
55.7381 1400.00
55.8033 1568.00
55.8685 1660.00
55.9337 1780.00
55.9989 1867.00
56.0641 1798.00
56.1293 1673.00
56.1945 1635.00
56.2597 1602.00
56.3249 1488.00
56.3901 1407.00
56.4553 1337.00
56.5205 1363.00
56.5857 1457.00
56.6509 1453.00
56.7161 1484.00
56.7813 1291.00
56.8465 1341.00
56.9117 1144.00
56.9769 1102.00
57.042 1032.00
57.1073 1070.00
57.1724 1056.00
57.2376 1104.00
57.3028 1137.00
57.368 1174.00
57.4332 1208.00
57.4984 1192.00
57.5636 1266.00
57.6288 1228.00
57.694 1303.00
57.7592 1419.00
57.8244 1372.00
57.8896 1450.00
57.9548 1408.00
58.02 1342.00
58.0852 1272.00
58.1504 1231.00
58.2156 1205.00
58.2808 1230.00
58.346 1195.00
58.4112 1206.00
58.4764 1338.00
58.5416 1389.00
58.6068 1513.00
58.672 1517.00
58.7372 1601.00
58.8024 1597.00
58.8676 1578.00
58.9328 1740.00
58.998 1824.00
59.0632 1892.00
59.1284 1914.00
59.1936 2048.00
59.2588 2243.00
59.324 2298.00
59.3892 2249.00
59.4544 2335.00
59.5196 2324.00
59.5848 2160.00
59.65 2028.00
59.7152 2015.00
59.7804 1884.00
59.8456 1688.00
59.9108 1607.00
59.976 1512.00
60.0412 1473.00
60.1064 1403.00
60.1716 1417.00
60.2368 1451.00
60.302 1511.00
60.3672 1483.00
60.4324 1574.00
60.4976 1592.00
60.5628 1672.00
60.628 1677.00
60.6932 1731.00
60.7584 1657.00
60.8236 1630.00
60.8888 1586.00
60.954 1768.00
61.0192 1631.00
61.0844 1565.00
61.1496 1615.00
61.2148 1453.00
61.28 1560.00
61.3452 1561.00
61.4104 1670.00
61.4756 1678.00
61.5408 1912.00
61.606 2024.00
61.6712 2081.00
61.7364 1943.00
61.8016 1919.00
61.8667 1854.00
61.932 1798.00
61.9971 1689.00
62.0623 1682.00
62.1275 1612.00
62.1927 1481.00
62.2579 1524.00
62.3231 1474.00
62.3883 1475.00
62.4535 1527.00
62.5187 1645.00
62.5839 1678.00
62.6491 1596.00
62.7143 1643.00
62.7795 1604.00
62.8447 1541.00
62.9099 1447.00
62.9751 1455.00
63.0403 1450.00
63.1055 1380.00
63.1707 1439.00
63.2359 1377.00
63.3011 1357.00
63.3663 1349.00
63.4315 1414.00
63.4967 1502.00
63.5619 1425.00
63.6271 1425.00
63.6923 1377.00
63.7575 1251.00
63.8227 1193.00
63.8879 1134.00
63.9531 1119.00
64.0183 1032.00
64.0835 981.00
64.1487 1051.00
64.2139 1063.00
64.2791 1019.00
64.3443 929.00
64.4095 1056.00
64.4747 977.00
64.5399 1067.00
64.6051 1012.00
64.6703 1084.00
64.7355 1091.00
64.8007 1117.00
64.8659 1150.00
64.9311 1176.00
64.9963 1256.00
65.0615 1287.00
65.1267 1185.00
65.1919 1257.00
65.2571 1254.00
65.3223 1200.00
65.3875 1204.00
65.4527 1196.00
65.5179 1184.00
65.5831 1235.00
65.6483 1285.00
65.7135 1217.00
65.7787 1242.00
65.8439 1292.00
65.9091 1340.00
65.9743 1373.00
66.0395 1387.00
66.1047 1503.00
66.1699 1477.00
66.2351 1604.00
66.3003 1640.00
66.3655 1771.00
66.4307 1790.00
66.4959 1838.00
66.561 1797.00
66.6263 1718.00
66.6915 1602.00
66.7566 1633.00
66.8218 1486.00
66.887 1362.00
66.9522 1333.00
67.0174 1237.00
67.0826 1209.00
67.1478 1126.00
67.213 1040.00
67.2782 1085.00
67.3434 1094.00
67.4086 1020.00
67.4738 984.00
67.539 1014.00
67.6042 979.00
67.6694 1006.00
67.7346 1017.00
67.7998 973.00
67.865 965.00
67.9302 919.00
67.9954 912.00
68.0606 980.00
68.1258 901.00
68.191 894.00
68.2562 970.00
68.3214 1026.00
68.3866 994.00
68.4518 1031.00
68.517 1067.00
68.5822 1166.00
68.6474 1136.00
68.7126 1164.00
68.7778 1141.00
68.843 1143.00
68.9082 1182.00
68.9734 1150.00
69.0386 1155.00
69.1038 1175.00
69.169 1122.00
69.2342 1113.00
69.2994 1097.00
69.3646 1085.00
69.4298 1006.00
69.495 1040.00
69.5602 1067.00
69.6254 1014.00
69.6906 1093.00
69.7558 1141.00
69.821 1062.00
69.8862 1085.00
69.9514 1043.00
70.0166 992.00
70.0818 1074.00
70.147 948.00
70.2122 955.00
70.2774 1037.00
70.3426 1016.00
70.4078 954.00
70.473 962.00
70.5382 985.00
70.6034 931.00
70.6686 904.00
70.7338 885.00
70.799 915.00
70.8642 892.00
70.9294 969.00
70.9946 973.00
71.0598 1001.00
71.125 902.00
71.1902 1034.00
71.2554 995.00
71.3205 981.00
71.3858 1036.00
71.451 1046.00
71.5162 1028.00
71.5813 1041.00
71.6465 1096.00
71.7117 1159.00
71.7769 1102.00
71.8421 1186.00
71.9073 1303.00
71.9725 1322.00
72.0377 1272.00
72.1029 1239.00
72.1681 1265.00
72.2333 1267.00
72.2985 1281.00
72.3637 1305.00
72.4289 1330.00
72.4941 1399.00
72.5593 1307.00
72.6245 1357.00
72.6897 1301.00
72.7549 1270.00
72.8201 1275.00
72.8853 1216.00
72.9505 1234.00
73.0157 1248.00
73.0809 1194.00
73.1461 1135.00
73.2113 1211.00
73.2765 1237.00
73.3417 1131.00
73.4069 1213.00
73.4721 1173.00
73.5373 1175.00
73.6025 1112.00
73.6677 1050.00
73.7329 1034.00
73.7981 1029.00
73.8633 1004.00
73.9285 1041.00
73.9937 1061.00
74.0589 994.00
74.1241 975.00
74.1893 947.00
74.2545 999.00
74.3197 991.00
74.3849 956.00
74.4501 1027.00
74.5153 1003.00
74.5805 988.00
74.6457 945.00
74.7109 1019.00
74.7761 1017.00
74.8413 939.00
74.9065 970.00
74.9717 928.00
75.0369 951.00
75.1021 887.00
75.1673 993.00
75.2325 973.00
75.2977 1024.00
75.3629 1064.00
75.4281 1112.00
75.4933 1147.00
75.5585 1160.00
75.6237 1135.00
75.6889 1198.00
75.7541 1161.00
75.8193 1148.00
75.8845 1233.00
75.9497 1201.00
76.0149 1214.00
76.0801 1233.00
76.1452 1190.00
76.2104 1137.00
76.2756 1205.00
76.3409 1066.00
76.406 1095.00
76.4712 1022.00
76.5364 1021.00
76.6016 1052.00
76.6668 1062.00
76.732 1050.00
76.7972 1011.00
76.8624 1090.00
76.9276 1074.00
76.9928 1100.00
77.058 1050.00
77.1232 1030.00
77.1884 1106.00
77.2536 1078.00
77.3188 1094.00
77.384 1048.00
77.4492 1075.00
77.5144 1084.00
77.5796 1029.00
77.6448 931.00
77.71 945.00
77.7752 930.00
77.8404 947.00
77.9056 958.00
77.9708 919.00
78.036 970.00
78.1012 932.00
78.1664 960.00
78.2316 961.00
78.2968 933.00
78.362 981.00
78.4272 991.00
78.4924 880.00
78.5576 900.00
78.6228 893.00
78.688 893.00
78.7532 918.00
78.8184 962.00
78.8836 923.00
78.9488 893.00
79.014 924.00
79.0792 895.00
79.1444 937.00
79.2096 970.00
79.2748 927.00
79.34 942.00
79.4052 931.00
79.4704 898.00
79.5356 966.00
79.6008 941.00
79.666 983.00
79.7312 1029.00
79.7964 1043.00
79.8616 1067.00
79.9268 1067.00
79.992 1123.00
80.0572 1056.00
80.1224 1111.00
80.1876 1101.00
80.2528 1086.00
80.318 1101.00
80.3832 1097.00
80.4484 1166.00
80.5136 1151.00
80.5788 1154.00
80.644 1155.00
80.7092 1137.00
80.7744 1147.00
80.8396 1057.00
80.9048 1113.00
80.9699 1071.00
81.0351 1041.00
81.1003 1069.00
81.1655 996.00
81.2307 1067.00
81.2959 1062.00
81.3611 1069.00
81.4263 1080.00
81.4915 969.00
81.5567 995.00
81.6219 932.00
81.6871 967.00
81.7523 977.00
81.8175 1025.00
81.8827 1035.00
81.9479 1058.00
82.0131 1057.00
82.0783 1062.00
82.1435 1110.00
82.2087 1076.00
82.2739 1063.00
82.3391 1131.00
82.4043 1132.00
82.4695 1171.00
82.5347 1148.00
82.5999 1102.00
82.6651 1143.00
82.7303 1139.00
82.7955 1059.00
82.8607 1048.00
82.9259 1055.00
82.9911 961.00
83.0563 963.00
83.1215 1023.00
83.1867 956.00
83.2519 1030.00
83.3171 1086.00
83.3823 1060.00
83.4475 1087.00
83.5127 1067.00
83.5779 1024.00
83.6431 1046.00
83.7083 1133.00
83.7735 946.00
83.8387 964.00
83.9039 1013.00
83.9691 994.00
84.0343 1120.00
84.0995 1066.00
84.1647 1007.00
84.2299 1029.00
84.2951 972.00
84.3603 906.00
84.4255 996.00
84.4907 973.00
84.5559 991.00
84.6211 946.00
84.6863 970.00
84.7515 984.00
84.8167 998.00
84.8819 993.00
84.9471 980.00
85.0123 1025.00
85.0775 1020.00
85.1427 978.00
85.2079 956.00
85.2731 983.00
85.3383 938.00
85.4035 924.00
85.4687 936.00
85.5339 927.00
85.5991 965.00
85.6643 964.00
85.7295 981.00
85.7946 978.00
85.8598 947.00
85.925 1004.00
85.9903 965.00
86.0554 1023.00
86.1206 997.00
86.1858 972.00
86.251 959.00
86.3162 1058.00
86.3814 1021.00
86.4466 1063.00
86.5118 1014.00
86.577 959.00
86.6422 1006.00
86.7074 1024.00
86.7726 1105.00
86.8378 1162.00
86.903 1158.00
86.9682 1169.00
87.0334 1134.00
87.0986 1166.00
87.1638 1192.00
87.229 1084.00
87.2942 1147.00
87.3594 1110.00
87.4246 1097.00
87.4898 1094.00
87.555 1101.00
87.6202 1046.00
87.6854 1080.00
87.7506 1061.00
87.8158 1030.00
87.881 1035.00
87.9462 1015.00
88.0114 992.00
88.0766 1028.00
88.1418 1001.00
88.207 1070.00
88.2722 996.00
88.3374 1059.00
88.4026 1095.00
88.4678 1060.00
88.533 1046.00
88.5982 1021.00
88.6634 1093.00
88.7286 1095.00
88.7938 1020.00
88.859 1053.00
88.9242 1033.00
88.9894 1066.00
89.0546 1068.00
89.1198 1084.00
89.185 1048.00
89.2502 1085.00
89.3154 1131.00
89.3806 1048.00
89.4458 1090.00
89.511 1014.00
89.5762 1032.00
89.6414 1040.00
89.7066 1064.00
89.7718 1027.00
89.837 985.00
89.9022 1023.00
89.9674 1052.00
90.0326 1031.00
90.0978 1047.00
90.163 1059.00
90.2282 1056.00
90.2934 1046.00
90.3586 1076.00
90.4238 1078.00
90.489 1088.00
90.5542 1093.00
90.6193 1038.00
90.6845 1041.00
90.7497 1055.00
90.8149 1031.00
90.8801 1085.00
90.9453 1005.00
91.0105 952.00
91.0757 1048.00
91.1409 976.00
91.2061 1060.00
91.2713 967.00
91.3365 907.00
91.4017 906.00
91.4669 939.00
91.5321 950.00
91.5973 928.00
91.6625 917.00
91.7277 920.00
91.7929 934.00
91.8581 960.00
91.9233 971.00
91.9885 965.00
92.0537 956.00
92.1189 967.00
92.1841 947.00
92.2493 936.00
92.3145 961.00
92.3797 997.00
92.4449 926.00
92.5101 969.00
92.5753 964.00
92.6405 899.00
92.7057 957.00
92.7709 940.00
92.8361 964.00
92.9013 983.00
92.9665 967.00
93.0317 1004.00
93.0969 1030.00
93.1621 1012.00
93.2273 1019.00
93.2925 1034.00
93.3577 1078.00
93.4229 1011.00
93.4881 1032.00
93.5533 987.00
93.6185 961.00
93.6837 1010.00
93.7489 992.00
93.8141 989.00
93.8793 1087.00
93.9445 1076.00
94.0097 1018.00
94.0749 1000.00
94.1401 995.00
94.2053 1032.00
94.2705 961.00
94.3357 951.00
94.4009 932.00
94.4661 1043.00
94.5313 1020.00
94.5965 920.00
94.6617 1005.00
94.7269 954.00
94.7921 1012.00
94.8573 949.00
94.9225 996.00
94.9877 1002.00
95.0529 1006.00
95.1181 952.00
95.1833 966.00
95.2485 1018.00
95.3137 950.00
95.3789 975.00
95.444 995.00
95.5092 930.00
95.5744 1004.00
95.6396 1023.00
95.7048 1012.00
95.77 1025.00
95.8352 1010.00
95.9004 995.00
95.9656 1055.00
96.0308 982.00
96.096 1071.00
96.1612 987.00
96.2264 1007.00
96.2916 1049.00
96.3568 985.00
96.422 1036.00
96.4872 995.00
96.5524 1009.00
96.6176 983.00
96.6828 949.00
96.748 968.00
96.8132 982.00
96.8784 991.00
96.9436 982.00
97.0088 1034.00
97.074 1002.00
97.1392 934.00
97.2044 946.00
97.2696 956.00
97.3348 1042.00
97.4 979.00
97.4652 979.00
97.5304 1003.00
97.5956 1034.00
97.6608 1096.00
97.726 1076.00
97.7912 1110.00
97.8564 1009.00
97.9216 1049.00
97.9868 976.00
98.052 1067.00
98.1172 997.00
98.1824 941.00
98.2476 979.00
98.3128 996.00
98.378 907.00
98.4432 920.00
98.5084 924.00
98.5736 949.00
98.6388 958.00
98.704 914.00
98.7692 1018.00
98.8344 914.00
98.8996 963.00
98.9648 968.00
99.03 974.00
99.0952 931.00
99.1604 973.00
99.2256 1002.00
99.2908 1044.00
99.356 1026.00
99.4212 1040.00
99.4864 1024.00
99.5516 1031.00
99.6168 1065.00
99.682 1071.00
99.7472 1077.00
99.8124 1101.00
99.8776 1104.00
99.9428 1117.00
100.008 1192.00
100.073 1127.00
100.095 1238.00