File: data/xrd_creation/results/NSC_67.xy
9.903433 2695.00
9.968632 2746.00
10.0338 2637.00
10.099 2662.00
10.1642 2524.00
10.2294 2546.00
10.2946 2579.00
10.3598 2588.00
10.425 2575.00
10.4902 2534.00
10.5554 2542.00
10.6206 2463.00
10.6858 2533.00
10.751 2426.00
10.8162 2318.00
10.8814 2362.00
10.9466 2338.00
11.0118 2344.00
11.077 2343.00
11.1422 2276.00
11.2074 2240.00
11.2726 2280.00
11.3378 2204.00
11.403 2148.00
11.4682 2127.00
11.5334 2172.00
11.5986 2162.00
11.6638 2180.00
11.729 2146.00
11.7942 1964.00
11.8594 2056.00
11.9246 2140.00
11.9898 2044.00
12.055 1999.00
12.1202 2000.00
12.1854 2041.00
12.2506 1948.00
12.3158 1871.00
12.381 1942.00
12.4462 1907.00
12.5114 1883.00
12.5766 1911.00
12.6418 1806.00
12.707 1781.00
12.7722 1800.00
12.8374 1878.00
12.9026 1748.00
12.9678 1790.00
13.033 1841.00
13.0982 1827.00
13.1634 1849.00
13.2286 1839.00
13.2938 1756.00
13.359 1775.00
13.4242 1770.00
13.4894 1773.00
13.5546 1741.00
13.6198 1691.00
13.685 1648.00
13.7502 1678.00
13.8154 1680.00
13.8805 1557.00
13.9457 1604.00
14.0109 1585.00
14.0761 1560.00
14.1413 1576.00
14.2065 1495.00
14.2717 1487.00
14.3369 1624.00
14.4021 1489.00
14.4673 1546.00
14.5325 1533.00
14.5977 1475.00
14.6629 1535.00
14.7281 1487.00
14.7933 1436.00
14.8585 1458.00
14.9237 1409.00
14.9889 1451.00
15.0541 1387.00
15.1193 1397.00
15.1845 1455.00
15.2497 1433.00
15.3149 1396.00
15.3801 1391.00
15.4453 1347.00
15.5105 1414.00
15.5757 1331.00
15.6409 1434.00
15.7061 1306.00
15.7713 1372.00
15.8365 1331.00
15.9017 1417.00
15.9669 1360.00
16.0321 1289.00
16.0973 1311.00
16.1625 1284.00
16.2277 1326.00
16.2929 1312.00
16.3581 1281.00
16.4233 1367.00
16.4885 1263.00
16.5537 1281.00
16.6189 1294.00
16.6841 1266.00
16.7493 1271.00
16.8145 1314.00
16.8797 1276.00
16.9449 1233.00
17.0101 1219.00
17.0753 1336.00
17.1405 1300.00
17.2057 1243.00
17.2709 1263.00
17.3361 1222.00
17.4013 1211.00
17.4665 1211.00
17.5317 1233.00
17.5969 1180.00
17.6621 1175.00
17.7273 1139.00
17.7925 1170.00
17.8577 1132.00
17.9229 1117.00
17.9881 1100.00
18.0533 1099.00
18.1185 1092.00
18.1837 1179.00
18.2489 1132.00
18.3141 1102.00
18.3793 1089.00
18.4445 1045.00
18.5097 1080.00
18.5749 1106.00
18.6401 1064.00
18.7052 1112.00
18.7704 1108.00
18.8356 1098.00
18.9008 1078.00
18.966 1091.00
19.0312 1076.00
19.0964 1012.00
19.1616 1049.00
19.2268 1075.00
19.292 984.00
19.3572 1067.00
19.4224 1046.00
19.4876 1068.00
19.5528 1124.00
19.618 1047.00
19.6832 1078.00
19.7484 1013.00
19.8136 1028.00
19.8788 1023.00
19.944 1075.00
20.0092 1062.00
20.0744 1101.00
20.1396 1125.00
20.2048 1102.00
20.27 1099.00
20.3352 1024.00
20.4004 1019.00
20.4656 1093.00
20.5308 1085.00
20.596 1100.00
20.6612 1333.00
20.7264 1524.00
20.7916 1988.00
20.8568 2314.00
20.922 2414.00
20.9872 2258.00
21.0524 1906.00
21.1176 1734.00
21.1828 1395.00
21.248 1279.00
21.3132 1151.00
21.3784 1098.00
21.4436 1028.00
21.5088 987.00
21.574 983.00
21.6392 954.00
21.7044 944.00
21.7696 927.00
21.8348 945.00
21.9 932.00
21.9652 896.00
22.0304 874.00
22.0956 848.00
22.1608 901.00
22.226 879.00
22.2912 893.00
22.3564 894.00
22.4216 862.00
22.4868 842.00
22.552 873.00
22.6172 873.00
22.6824 846.00
22.7476 847.00
22.8128 855.00
22.878 864.00
22.9432 873.00
23.0084 847.00
23.0736 895.00
23.1388 876.00
23.204 869.00
23.2692 911.00
23.3344 847.00
23.3996 873.00
23.4647 810.00
23.5299 835.00
23.5951 853.00
23.6603 910.00
23.7255 919.00
23.7907 985.00
23.8559 943.00
23.9211 1009.00
23.9863 1024.00
24.0515 1008.00
24.1167 1004.00
24.1819 918.00
24.2471 881.00
24.3123 867.00
24.3775 807.00
24.4427 806.00
24.5079 777.00
24.5731 802.00
24.6383 779.00
24.7035 735.00
24.7687 758.00
24.8339 819.00
24.8991 753.00
24.9643 757.00
25.0295 811.00
25.0947 731.00
25.1599 768.00
25.2251 791.00
25.2903 745.00
25.3555 736.00
25.4207 826.00
25.4859 778.00
25.5511 797.00
25.6163 890.00
25.6815 872.00
25.7467 972.00
25.8119 875.00
25.8771 732.00
25.9423 704.00
26.0075 750.00
26.0727 749.00
26.1379 731.00
26.2031 683.00
26.2683 727.00
26.3335 699.00
26.3987 742.00
26.4639 776.00
26.5291 723.00
26.5943 709.00
26.6595 729.00
26.7247 707.00
26.7899 731.00
26.8551 686.00
26.9203 709.00
26.9855 702.00
27.0507 680.00
27.1159 714.00
27.1811 696.00
27.2463 697.00
27.3115 732.00
27.3767 724.00
27.4419 689.00
27.5071 749.00
27.5723 707.00
27.6375 728.00
27.7027 713.00
27.7679 682.00
27.8331 681.00
27.8983 738.00
27.9635 741.00
28.0287 809.00
28.0939 744.00
28.1591 772.00
28.2243 812.00
28.2894 896.00
28.3546 801.00
28.4198 707.00
28.485 695.00
28.5502 609.00
28.6154 629.00
28.6806 675.00
28.7458 680.00
28.811 634.00
28.8762 700.00
28.9414 643.00
29.0066 648.00
29.0718 677.00
29.137 670.00
29.2022 655.00
29.2674 714.00
29.3326 686.00
29.3978 663.00
29.463 602.00
29.5282 647.00
29.5934 640.00
29.6586 613.00
29.7238 617.00
29.789 637.00
29.8542 657.00
29.9194 652.00
29.9846 669.00
30.0498 687.00
30.115 663.00
30.1802 609.00
30.2454 622.00
30.3106 671.00
30.3758 640.00
30.441 612.00
30.5062 656.00
30.5714 662.00
30.6366 624.00
30.7018 575.00
30.767 602.00
30.8322 576.00
30.8974 572.00
30.9626 581.00
31.0278 608.00
31.093 614.00
31.1582 630.00
31.2234 597.00
31.2886 629.00
31.3538 636.00
31.419 608.00
31.4842 599.00
31.5494 584.00
31.6146 620.00
31.6798 576.00
31.745 564.00
31.8102 533.00
31.8754 564.00
31.9406 583.00
32.0058 543.00
32.071 591.00
32.1362 596.00
32.2014 554.00
32.2666 556.00
32.3318 607.00
32.397 667.00
32.4622 650.00
32.5274 677.00
32.5926 667.00
32.6578 715.00
32.723 629.00
32.7882 537.00
32.8534 630.00
32.9186 562.00
32.9838 596.00
33.0489 621.00
33.1141 610.00
33.1793 638.00
33.2445 587.00
33.3097 573.00
33.3749 539.00
33.4401 591.00
33.5053 535.00
33.5705 561.00
33.6357 557.00
33.7009 561.00
33.7661 534.00
33.8313 551.00
33.8965 633.00
33.9617 612.00
34.0269 637.00
34.0921 697.00
34.1573 784.00
34.2225 926.00
34.2877 1085.00
34.3529 1281.00
34.4181 1481.00
34.4833 1523.00
34.5485 1428.00
34.6137 1269.00
34.6789 1093.00
34.7441 1021.00
34.8093 956.00
34.8745 896.00
34.9397 735.00
35.0049 684.00
35.0701 629.00
35.1353 654.00
35.2005 629.00
35.2657 616.00
35.3309 646.00
35.3961 555.00
35.4613 548.00
35.5265 533.00
35.5917 457.00
35.6569 471.00
35.7221 519.00
35.7873 534.00
35.8525 519.00
35.9177 436.00
35.9829 511.00
36.0481 486.00
36.1133 498.00
36.1785 512.00
36.2437 464.00
36.3089 462.00
36.3741 461.00
36.4393 458.00
36.5045 469.00
36.5697 493.00
36.6349 474.00
36.7001 499.00
36.7653 502.00
36.8305 497.00
36.8957 519.00
36.9609 484.00
37.0261 441.00
37.0913 480.00
37.1565 471.00
37.2217 479.00
37.2869 431.00
37.3521 466.00
37.4173 452.00
37.4825 426.00
37.5477 422.00
37.6129 491.00
37.6781 435.00
37.7433 438.00
37.8085 428.00
37.8736 421.00
37.9388 426.00
38.004 420.00
38.0692 437.00
38.1344 432.00
38.1996 437.00
38.2648 397.00
38.33 506.00
38.3952 444.00
38.4604 459.00
38.5256 507.00
38.5908 466.00
38.656 429.00
38.7212 449.00
38.7864 451.00
38.8516 415.00
38.9168 404.00
38.982 400.00
39.0472 383.00
39.1124 446.00
39.1776 411.00
39.2428 420.00
39.308 443.00
39.3732 386.00
39.4384 423.00
39.5036 422.00
39.5688 449.00
39.634 378.00
39.6992 451.00
39.7644 391.00
39.8296 396.00
39.8948 385.00
39.96 398.00
40.0252 416.00
40.0904 417.00
40.1556 465.00
40.2208 460.00
40.286 449.00
40.3512 426.00
40.4164 439.00
40.4816 421.00
40.5468 430.00
40.612 423.00
40.6772 424.00
40.7424 438.00
40.8076 491.00
40.8728 449.00
40.938 420.00
41.0032 438.00
41.0684 369.00
41.1336 419.00
41.1988 405.00
41.264 396.00
41.3292 435.00
41.3944 417.00
41.4596 388.00
41.5248 404.00
41.59 353.00
41.6552 364.00
41.7204 361.00
41.7856 374.00
41.8508 398.00
41.916 420.00
41.9812 418.00
42.0464 399.00
42.1116 406.00
42.1768 381.00
42.242 338.00
42.3072 383.00
42.3724 432.00
42.4376 447.00
42.5028 455.00
42.568 437.00
42.6332 426.00
42.6983 458.00
42.7635 477.00
42.8287 496.00
42.8939 440.00
42.9591 466.00
43.0243 492.00
43.0895 439.00
43.1547 414.00
43.2199 393.00
43.2851 404.00
43.3503 422.00
43.4155 407.00
43.4807 408.00
43.5459 423.00
43.6111 412.00
43.6763 380.00
43.7415 387.00
43.8067 360.00
43.8719 398.00
43.9371 362.00
44.0023 369.00
44.0675 357.00
44.1327 358.00
44.1979 371.00
44.2631 399.00
44.3283 345.00
44.3935 320.00
44.4587 372.00
44.5239 368.00
44.5891 384.00
44.6543 383.00
44.7195 385.00
44.7847 368.00
44.8499 365.00
44.9151 340.00
44.9803 359.00
45.0455 357.00
45.1107 327.00
45.1759 342.00
45.2411 332.00
45.3063 348.00
45.3715 326.00
45.4367 359.00
45.5019 343.00
45.5671 368.00
45.6323 321.00
45.6975 361.00
45.7627 358.00
45.8279 306.00
45.8931 333.00
45.9583 336.00
46.0235 359.00
46.0887 317.00
46.1539 338.00
46.2191 283.00
46.2843 328.00
46.3495 345.00
46.4147 336.00
46.4799 342.00
46.5451 328.00
46.6103 379.00
46.6755 351.00
46.7407 363.00
46.8059 357.00
46.8711 352.00
46.9363 347.00
47.0015 377.00
47.0667 359.00
47.1319 348.00
47.1971 322.00
47.2623 340.00
47.3275 341.00
47.3927 301.00
47.4579 311.00
47.523 314.00
47.5882 287.00
47.6534 341.00
47.7186 318.00
47.7838 353.00
47.849 318.00
47.9142 310.00
47.9794 313.00
48.0446 288.00
48.1098 319.00
48.175 337.00
48.2402 331.00
48.3054 334.00
48.3706 340.00
48.4358 319.00
48.501 308.00
48.5662 310.00
48.6314 356.00
48.6966 310.00
48.7618 299.00
48.827 323.00
48.8922 361.00
48.9574 351.00
49.0226 343.00
49.0878 360.00
49.153 423.00
49.2182 428.00
49.2834 428.00
49.3486 473.00
49.4138 437.00
49.479 417.00
49.5442 374.00
49.6094 366.00
49.6746 366.00
49.7398 372.00
49.805 336.00
49.8702 406.00
49.9354 430.00
50.0006 438.00
50.0658 396.00
50.131 380.00
50.1962 370.00
50.2614 347.00
50.3266 331.00
50.3918 337.00
50.457 340.00
50.5222 334.00
50.5874 316.00
50.6526 308.00
50.7178 311.00
50.783 328.00
50.8482 314.00
50.9134 293.00
50.9786 279.00
51.0438 306.00
51.109 280.00
51.1742 290.00
51.2394 265.00
51.3046 330.00
51.3698 267.00
51.435 338.00
51.5002 300.00
51.5654 326.00
51.6306 313.00
51.6958 375.00
51.761 321.00
51.8262 318.00
51.8914 293.00
51.9566 326.00
52.0218 288.00
52.087 289.00
52.1522 275.00
52.2174 281.00
52.2826 303.00
52.3477 279.00
52.4129 272.00
52.4781 319.00
52.5433 302.00
52.6085 281.00
52.6737 265.00
52.7389 284.00
52.8041 305.00
52.8693 293.00
52.9345 306.00
52.9997 285.00
53.0649 284.00
53.1301 306.00
53.1953 308.00
53.2605 264.00
53.3257 319.00
53.3909 291.00
53.4561 272.00
53.5213 294.00
53.5865 307.00
53.6517 266.00
53.7169 270.00
53.7821 374.00
53.8473 291.00
53.9125 311.00
53.9777 278.00
54.0429 274.00
54.1081 298.00
54.1733 303.00
54.2385 292.00
54.3037 291.00
54.3689 270.00
54.4341 281.00
54.4993 294.00
54.5645 306.00
54.6297 279.00
54.6949 275.00
54.7601 276.00
54.8253 292.00
54.8905 290.00
54.9557 301.00
55.0209 281.00
55.0861 296.00
55.1513 289.00
55.2165 269.00
55.2817 303.00
55.3469 299.00
55.4121 297.00
55.4773 266.00
55.5425 289.00
55.6077 284.00
55.6729 273.00
55.7381 258.00
55.8033 267.00
55.8685 242.00
55.9337 259.00
55.9989 277.00
56.0641 298.00
56.1293 303.00
56.1945 270.00
56.2597 241.00
56.3249 292.00
56.3901 271.00
56.4553 283.00
56.5205 258.00
56.5857 301.00
56.6509 235.00
56.7161 270.00
56.7813 270.00
56.8465 221.00
56.9117 270.00
56.9769 272.00
57.042 273.00
57.1073 262.00
57.1724 271.00
57.2376 263.00
57.3028 257.00
57.368 283.00
57.4332 249.00
57.4984 264.00
57.5636 256.00
57.6288 227.00
57.694 264.00
57.7592 256.00
57.8244 266.00
57.8896 272.00
57.9548 238.00
58.02 263.00
58.0852 256.00
58.1504 265.00
58.2156 296.00
58.2808 259.00
58.346 258.00
58.4112 278.00
58.4764 264.00
58.5416 276.00
58.6068 214.00
58.672 232.00
58.7372 280.00
58.8024 233.00
58.8676 243.00
58.9328 262.00
58.998 262.00
59.0632 277.00
59.1284 249.00
59.1936 278.00
59.2588 262.00
59.324 245.00
59.3892 222.00
59.4544 256.00
59.5196 237.00
59.5848 283.00
59.65 236.00
59.7152 248.00
59.7804 273.00
59.8456 269.00
59.9108 273.00
59.976 258.00
60.0412 250.00
60.1064 249.00
60.1716 279.00
60.2368 225.00
60.302 247.00
60.3672 268.00
60.4324 242.00
60.4976 270.00
60.5628 282.00
60.628 265.00
60.6932 230.00
60.7584 249.00
60.8236 234.00
60.8888 244.00
60.954 232.00
61.0192 264.00
61.0844 242.00
61.1496 260.00
61.2148 231.00
61.28 247.00
61.3452 265.00
61.4104 289.00
61.4756 298.00
61.5408 321.00
61.606 315.00
61.6712 337.00
61.7364 344.00
61.8016 335.00
61.8667 338.00
61.932 325.00
61.9971 317.00
62.0623 323.00
62.1275 351.00
62.1927 323.00
62.2579 311.00
62.3231 300.00
62.3883 285.00
62.4535 280.00
62.5187 264.00
62.5839 266.00
62.6491 256.00
62.7143 289.00
62.7795 225.00
62.8447 240.00
62.9099 233.00
62.9751 258.00
63.0403 227.00
63.1055 243.00
63.1707 237.00
63.2359 235.00
63.3011 233.00
63.3663 226.00
63.4315 229.00
63.4967 239.00
63.5619 230.00
63.6271 247.00
63.6923 230.00
63.7575 213.00
63.8227 247.00
63.8879 246.00
63.9531 222.00
64.0183 247.00
64.0835 247.00
64.1487 211.00
64.2139 231.00
64.2791 225.00
64.3443 221.00
64.4095 226.00
64.4747 221.00
64.5399 193.00
64.6051 213.00
64.6703 217.00
64.7355 213.00
64.8007 234.00
64.8659 230.00
64.9311 242.00
64.9963 206.00
65.0615 223.00
65.1267 248.00
65.1919 219.00
65.2571 262.00
65.3223 219.00
65.3875 220.00
65.4527 235.00
65.5179 213.00
65.5831 215.00
65.6483 258.00
65.7135 257.00
65.7787 231.00
65.8439 257.00
65.9091 225.00
65.9743 207.00
66.0395 228.00
66.1047 248.00
66.1699 259.00
66.2351 247.00
66.3003 218.00
66.3655 241.00
66.4307 217.00
66.4959 234.00
66.561 204.00
66.6263 204.00
66.6915 260.00
66.7566 211.00
66.8218 224.00
66.887 203.00
66.9522 227.00
67.0174 212.00
67.0826 249.00
67.1478 258.00
67.213 201.00
67.2782 223.00
67.3434 217.00
67.4086 239.00
67.4738 222.00
67.539 233.00
67.6042 192.00
67.6694 217.00
67.7346 232.00
67.7998 220.00
67.865 238.00
67.9302 221.00
67.9954 222.00
68.0606 230.00
68.1258 215.00
68.191 240.00
68.2562 229.00
68.3214 200.00
68.3866 228.00
68.4518 235.00
68.517 205.00
68.5822 256.00
68.6474 201.00
68.7126 242.00
68.7778 205.00
68.843 215.00
68.9082 217.00
68.9734 212.00
69.0386 245.00
69.1038 187.00
69.169 207.00
69.2342 245.00
69.2994 205.00
69.3646 224.00
69.4298 205.00
69.495 215.00
69.5602 217.00
69.6254 264.00
69.6906 198.00
69.7558 242.00
69.821 240.00
69.8862 219.00
69.9514 229.00
70.0166 201.00
70.0818 260.00
70.147 221.00
70.2122 231.00
70.2774 195.00
70.3426 226.00
70.4078 219.00
70.473 203.00
70.5382 229.00
70.6034 193.00
70.6686 247.00
70.7338 214.00
70.799 212.00
70.8642 207.00
70.9294 213.00
70.9946 212.00
71.0598 222.00
71.125 227.00
71.1902 218.00
71.2554 204.00
71.3205 208.00
71.3858 209.00
71.451 220.00
71.5162 247.00
71.5813 217.00
71.6465 186.00
71.7117 200.00
71.7769 203.00
71.8421 189.00
71.9073 216.00
71.9725 206.00
72.0377 223.00
72.1029 228.00
72.1681 222.00
72.2333 228.00
72.2985 220.00
72.3637 210.00
72.4289 227.00
72.4941 231.00
72.5593 215.00
72.6245 215.00
72.6897 232.00
72.7549 226.00
72.8201 233.00
72.8853 228.00
72.9505 248.00
73.0157 213.00
73.0809 259.00
73.1461 224.00
73.2113 227.00
73.2765 218.00
73.3417 218.00
73.4069 222.00
73.4721 227.00
73.5373 202.00
73.6025 242.00
73.6677 222.00
73.7329 217.00
73.7981 256.00
73.8633 266.00
73.9285 212.00
73.9937 196.00
74.0589 222.00
74.1241 222.00
74.1893 221.00
74.2545 223.00
74.3197 247.00
74.3849 202.00
74.4501 245.00
74.5153 219.00
74.5805 217.00
74.6457 212.00
74.7109 217.00
74.7761 260.00
74.8413 225.00
74.9065 213.00
74.9717 198.00
75.0369 213.00
75.1021 219.00
75.1673 205.00
75.2325 230.00
75.2977 220.00
75.3629 247.00
75.4281 202.00
75.4933 246.00
75.5585 219.00
75.6237 233.00
75.6889 212.00
75.7541 218.00
75.8193 212.00
75.8845 208.00
75.9497 228.00
76.0149 191.00
76.0801 203.00
76.1452 234.00
76.2104 242.00
76.2756 234.00
76.3409 187.00
76.406 256.00
76.4712 239.00
76.5364 221.00
76.6016 223.00
76.6668 229.00
76.732 232.00
76.7972 223.00
76.8624 235.00
76.9276 225.00
76.9928 226.00
77.058 227.00
77.1232 187.00
77.1884 239.00
77.2536 237.00
77.3188 231.00
77.384 260.00
77.4492 226.00
77.5144 201.00
77.5796 221.00
77.6448 243.00
77.71 235.00
77.7752 262.00
77.8404 221.00
77.9056 207.00
77.9708 243.00
78.036 215.00
78.1012 257.00
78.1664 219.00
78.2316 222.00
78.2968 210.00
78.362 269.00
78.4272 203.00
78.4924 227.00
78.5576 227.00
78.6228 225.00
78.688 243.00
78.7532 210.00
78.8184 217.00
78.8836 235.00
78.9488 214.00
79.014 231.00
79.0792 212.00
79.1444 210.00
79.2096 235.00
79.2748 216.00
79.34 245.00
79.4052 247.00
79.4704 242.00
79.5356 270.00
79.6008 218.00
79.666 217.00
79.7312 246.00
79.7964 223.00
79.8616 219.00
79.9268 225.00
79.992 240.00
80.0572 221.00
80.1224 225.00
80.1876 237.00
80.2528 230.00
80.318 221.00
80.3832 209.00
80.4484 260.00
80.5136 223.00
80.5788 221.00
80.644 236.00
80.7092 232.00
80.7744 231.00
80.8396 214.00
80.9048 213.00
80.9699 199.00
81.0351 217.00
81.1003 194.00
81.1655 235.00
81.2307 240.00
81.2959 219.00
81.3611 240.00
81.4263 229.00
81.4915 247.00
81.5567 215.00
81.6219 219.00
81.6871 214.00
81.7523 240.00
81.8175 262.00
81.8827 206.00
81.9479 228.00
82.0131 248.00
82.0783 236.00
82.1435 230.00
82.2087 199.00
82.2739 244.00
82.3391 221.00
82.4043 258.00
82.4695 264.00
82.5347 248.00
82.5999 207.00
82.6651 233.00
82.7303 237.00
82.7955 213.00
82.8607 233.00
82.9259 277.00
82.9911 218.00
83.0563 241.00
83.1215 239.00
83.1867 211.00
83.2519 238.00
83.3171 240.00
83.3823 221.00
83.4475 236.00
83.5127 256.00
83.5779 222.00
83.6431 242.00
83.7083 237.00
83.7735 250.00
83.8387 234.00
83.9039 236.00
83.9691 232.00
84.0343 279.00
84.0995 233.00
84.1647 230.00
84.2299 236.00
84.2951 249.00
84.3603 228.00
84.4255 208.00
84.4907 235.00
84.5559 208.00
84.6211 222.00
84.6863 233.00
84.7515 267.00
84.8167 242.00
84.8819 198.00
84.9471 218.00
85.0123 215.00
85.0775 235.00
85.1427 250.00
85.2079 229.00
85.2731 199.00
85.3383 196.00
85.4035 219.00
85.4687 242.00
85.5339 209.00
85.5991 212.00
85.6643 221.00
85.7295 232.00
85.7946 216.00
85.8598 217.00
85.925 228.00
85.9903 212.00
86.0554 236.00
86.1206 221.00
86.1858 230.00
86.251 209.00
86.3162 227.00
86.3814 223.00
86.4466 246.00
86.5118 230.00
86.577 201.00
86.6422 209.00
86.7074 241.00
86.7726 228.00
86.8378 213.00
86.903 262.00
86.9682 194.00
87.0334 223.00
87.0986 197.00
87.1638 240.00
87.229 237.00
87.2942 213.00
87.3594 236.00
87.4246 199.00
87.4898 198.00
87.555 211.00
87.6202 228.00
87.6854 216.00
87.7506 240.00
87.8158 198.00
87.881 222.00
87.9462 213.00
88.0114 205.00
88.0766 208.00
88.1418 219.00
88.207 210.00
88.2722 217.00
88.3374 220.00
88.4026 192.00
88.4678 218.00
88.533 235.00
88.5982 206.00
88.6634 204.00
88.7286 182.00
88.7938 190.00
88.859 210.00
88.9242 232.00
88.9894 178.00
89.0546 176.00
89.1198 224.00
89.185 185.00
89.2502 197.00
89.3154 216.00
89.3806 173.00
89.4458 211.00
89.511 202.00
89.5762 179.00
89.6414 217.00
89.7066 182.00
89.7718 212.00
89.837 188.00
89.9022 187.00
89.9674 221.00
90.0326 213.00
90.0978 193.00
90.163 192.00
90.2282 174.00
90.2934 220.00
90.3586 197.00
90.4238 192.00
90.489 212.00
90.5542 191.00
90.6193 221.00
90.6845 208.00
90.7497 218.00
90.8149 200.00
90.8801 169.00
90.9453 196.00
91.0105 174.00
91.0757 198.00
91.1409 180.00
91.2061 199.00
91.2713 183.00
91.3365 214.00
91.4017 186.00
91.4669 204.00
91.5321 206.00
91.5973 193.00
91.6625 186.00
91.7277 174.00
91.7929 210.00
91.8581 192.00
91.9233 200.00
91.9885 215.00
92.0537 203.00
92.1189 183.00
92.1841 202.00
92.2493 206.00
92.3145 180.00
92.3797 191.00
92.4449 186.00
92.5101 209.00
92.5753 207.00
92.6405 205.00
92.7057 191.00
92.7709 193.00
92.8361 203.00
92.9013 211.00
92.9665 198.00
93.0317 217.00
93.0969 196.00
93.1621 188.00
93.2273 201.00
93.2925 181.00
93.3577 181.00
93.4229 178.00
93.4881 202.00
93.5533 180.00
93.6185 191.00
93.6837 211.00
93.7489 216.00
93.8141 195.00
93.8793 199.00
93.9445 194.00
94.0097 188.00
94.0749 171.00
94.1401 215.00
94.2053 179.00
94.2705 181.00
94.3357 197.00
94.4009 199.00
94.4661 173.00
94.5313 203.00
94.5965 177.00
94.6617 187.00
94.7269 188.00
94.7921 189.00
94.8573 193.00
94.9225 209.00
94.9877 199.00
95.0529 206.00
95.1181 207.00
95.1833 204.00
95.2485 199.00
95.3137 198.00
95.3789 223.00
95.444 187.00
95.5092 182.00
95.5744 161.00
95.6396 214.00
95.7048 210.00
95.77 178.00
95.8352 189.00
95.9004 180.00
95.9656 209.00
96.0308 212.00
96.096 209.00
96.1612 213.00
96.2264 194.00
96.2916 182.00
96.3568 184.00
96.422 194.00
96.4872 201.00
96.5524 217.00
96.6176 205.00
96.6828 193.00
96.748 208.00
96.8132 195.00
96.8784 194.00
96.9436 195.00
97.0088 212.00
97.074 200.00
97.1392 184.00
97.2044 195.00
97.2696 238.00
97.3348 168.00
97.4 194.00
97.4652 187.00
97.5304 200.00
97.5956 220.00
97.6608 201.00
97.726 178.00
97.7912 225.00
97.8564 201.00
97.9216 192.00
97.9868 184.00
98.052 247.00
98.1172 204.00
98.1824 189.00
98.2476 169.00
98.3128 212.00
98.378 191.00
98.4432 178.00
98.5084 178.00
98.5736 184.00
98.6388 210.00
98.704 202.00
98.7692 198.00
98.8344 179.00
98.8996 216.00
98.9648 188.00
99.03 226.00
99.0952 219.00
99.1604 207.00
99.2256 191.00
99.2908 190.00
99.356 176.00
99.4212 185.00
99.4864 183.00
99.5516 201.00
99.6168 183.00
99.682 217.00
99.7472 190.00
99.8124 200.00
99.8776 176.00
99.9428 187.00
100.008 184.00
100.073 190.00
100.095 205.00