File: data/xrd_creation/results/NSC_113.xy
9.903433 2808.00
9.968632 2781.00
10.0338 2716.00
10.099 2653.00
10.1642 2594.00
10.2294 2607.00
10.2946 2548.00
10.3598 2538.00
10.425 2580.00
10.4902 2516.00
10.5554 2456.00
10.6206 2453.00
10.6858 2420.00
10.751 2384.00
10.8162 2382.00
10.8814 2377.00
10.9466 2350.00
11.0118 2297.00
11.077 2342.00
11.1422 2345.00
11.2074 2273.00
11.2726 2243.00
11.3378 2272.00
11.403 2232.00
11.4682 2292.00
11.5334 2219.00
11.5986 2175.00
11.6638 2240.00
11.729 2150.00
11.7942 2119.00
11.8594 2110.00
11.9246 2087.00
11.9898 2081.00
12.055 2040.00
12.1202 2066.00
12.1854 2053.00
12.2506 2021.00
12.3158 1934.00
12.381 2020.00
12.4462 1953.00
12.5114 1979.00
12.5766 1928.00
12.6418 1937.00
12.707 1927.00
12.7722 1871.00
12.8374 1935.00
12.9026 1900.00
12.9678 1827.00
13.033 1865.00
13.0982 1934.00
13.1634 1784.00
13.2286 1898.00
13.2938 1825.00
13.359 1830.00
13.4242 1854.00
13.4894 1789.00
13.5546 1798.00
13.6198 1806.00
13.685 1749.00
13.7502 1801.00
13.8154 1721.00
13.8805 1817.00
13.9457 1806.00
14.0109 1770.00
14.0761 1805.00
14.1413 1895.00
14.2065 2081.00
14.2717 2194.00
14.3369 2482.00
14.4021 2391.00
14.4673 2381.00
14.5325 2215.00
14.5977 2199.00
14.6629 2215.00
14.7281 1742.00
14.7933 1635.00
14.8585 1691.00
14.9237 1671.00
14.9889 1552.00
15.0541 1589.00
15.1193 1660.00
15.1845 1592.00
15.2497 1668.00
15.3149 1559.00
15.3801 1571.00
15.4453 1514.00
15.5105 1650.00
15.5757 1602.00
15.6409 1558.00
15.7061 1544.00
15.7713 1531.00
15.8365 1474.00
15.9017 1511.00
15.9669 1541.00
16.0321 1608.00
16.0973 1576.00
16.1625 1531.00
16.2277 1592.00
16.2929 1509.00
16.3581 1559.00
16.4233 1451.00
16.4885 1493.00
16.5537 1492.00
16.6189 1550.00
16.6841 1483.00
16.7493 1489.00
16.8145 1481.00
16.8797 1457.00
16.9449 1466.00
17.0101 1486.00
17.0753 1535.00
17.1405 1447.00
17.2057 1503.00
17.2709 1409.00
17.3361 1493.00
17.4013 1437.00
17.4665 1459.00
17.5317 1376.00
17.5969 1456.00
17.6621 1397.00
17.7273 1470.00
17.7925 1415.00
17.8577 1447.00
17.9229 1442.00
17.9881 1355.00
18.0533 1419.00
18.1185 1373.00
18.1837 1340.00
18.2489 1328.00
18.3141 1363.00
18.3793 1341.00
18.4445 1355.00
18.5097 1311.00
18.5749 1401.00
18.6401 1316.00
18.7052 1375.00
18.7704 1305.00
18.8356 1356.00
18.9008 1326.00
18.966 1281.00
19.0312 1300.00
19.0964 1370.00
19.1616 1375.00
19.2268 1442.00
19.292 1535.00
19.3572 1495.00
19.4224 1581.00
19.4876 1641.00
19.5528 1759.00
19.618 2008.00
19.6832 2559.00
19.7484 3211.00
19.8136 3771.00
19.8788 4055.00
19.944 4015.00
20.0092 4009.00
20.0744 3880.00
20.1396 3613.00
20.2048 2388.00
20.27 1572.00
20.3352 1471.00
20.4004 1324.00
20.4656 1494.00
20.5308 1488.00
20.596 1750.00
20.6612 2275.00
20.7264 2959.00
20.7916 3952.00
20.8568 4338.00
20.922 4714.00
20.9872 4662.00
21.0524 4602.00
21.1176 4456.00
21.1828 3559.00
21.248 1964.00
21.3132 1403.00
21.3784 1443.00
21.4436 1388.00
21.5088 1407.00
21.574 1293.00
21.6392 1365.00
21.7044 1357.00
21.7696 1315.00
21.8348 1313.00
21.9 1273.00
21.9652 1255.00
22.0304 1306.00
22.0956 1221.00
22.1608 1289.00
22.226 1360.00
22.2912 1267.00
22.3564 1341.00
22.4216 1372.00
22.4868 1500.00
22.552 1387.00
22.6172 1403.00
22.6824 1348.00
22.7476 1239.00
22.8128 1105.00
22.878 1184.00
22.9432 1118.00
23.0084 1100.00
23.0736 1152.00
23.1388 1109.00
23.204 1122.00
23.2692 1139.00
23.3344 1079.00
23.3996 1167.00
23.4647 1099.00
23.5299 1173.00
23.5951 1141.00
23.6603 1273.00
23.7255 1286.00
23.7907 1420.00
23.8559 1679.00
23.9211 2135.00
23.9863 2536.00
24.0515 2970.00
24.1167 3185.00
24.1819 3073.00
24.2471 3117.00
24.3123 2990.00
24.3775 2093.00
24.4427 1234.00
24.5079 1103.00
24.5731 1126.00
24.6383 1063.00
24.7035 1076.00
24.7687 1030.00
24.8339 917.00
24.8991 1013.00
24.9643 1035.00
25.0295 1008.00
25.0947 1068.00
25.1599 1039.00
25.2251 1059.00
25.2903 997.00
25.3555 1013.00
25.4207 964.00
25.4859 994.00
25.5511 976.00
25.6163 973.00
25.6815 957.00
25.7467 927.00
25.8119 986.00
25.8771 969.00
25.9423 931.00
26.0075 953.00
26.0727 925.00
26.1379 933.00
26.2031 865.00
26.2683 896.00
26.3335 920.00
26.3987 915.00
26.4639 932.00
26.5291 900.00
26.5943 971.00
26.6595 874.00
26.7247 930.00
26.7899 954.00
26.8551 881.00
26.9203 918.00
26.9855 854.00
27.0507 895.00
27.1159 894.00
27.1811 894.00
27.2463 896.00
27.3115 896.00
27.3767 945.00
27.4419 914.00
27.5071 908.00
27.5723 913.00
27.6375 902.00
27.7027 980.00
27.7679 839.00
27.8331 888.00
27.8983 915.00
27.9635 807.00
28.0287 871.00
28.0939 894.00
28.1591 893.00
28.2243 901.00
28.2894 838.00
28.3546 929.00
28.4198 856.00
28.485 878.00
28.5502 887.00
28.6154 906.00
28.6806 968.00
28.7458 1228.00
28.811 1432.00
28.8762 1833.00
28.9414 2348.00
29.0066 2987.00
29.0718 3123.00
29.137 3221.00
29.2022 3359.00
29.2674 2627.00
29.3326 1632.00
29.3978 976.00
29.463 917.00
29.5282 890.00
29.5934 858.00
29.6586 855.00
29.7238 839.00
29.789 844.00
29.8542 855.00
29.9194 738.00
29.9846 804.00
30.0498 785.00
30.115 830.00
30.1802 767.00
30.2454 817.00
30.3106 776.00
30.3758 814.00
30.441 706.00
30.5062 783.00
30.5714 822.00
30.6366 835.00
30.7018 840.00
30.767 900.00
30.8322 771.00
30.8974 849.00
30.9626 762.00
31.0278 758.00
31.093 776.00
31.1582 824.00
31.2234 803.00
31.2886 835.00
31.3538 853.00
31.419 902.00
31.4842 920.00
31.5494 1069.00
31.6146 1417.00
31.6798 1906.00
31.745 2758.00
31.8102 3558.00
31.8754 4358.00
31.9406 4733.00
32.0058 5131.00
32.071 5003.00
32.1362 3027.00
32.2014 1821.00
32.2666 1269.00
32.3318 1120.00
32.397 1109.00
32.4622 1135.00
32.5274 1168.00
32.5926 1072.00
32.6578 1061.00
32.723 851.00
32.7882 792.00
32.8534 709.00
32.9186 758.00
32.9838 705.00
33.0489 713.00
33.1141 663.00
33.1793 687.00
33.2445 706.00
33.3097 710.00
33.3749 671.00
33.4401 704.00
33.5053 689.00
33.5705 712.00
33.6357 671.00
33.7009 689.00
33.7661 735.00
33.8313 765.00
33.8965 676.00
33.9617 727.00
34.0269 736.00
34.0921 798.00
34.1573 791.00
34.2225 851.00
34.2877 879.00
34.3529 904.00
34.4181 874.00
34.4833 807.00
34.5485 656.00
34.6137 660.00
34.6789 675.00
34.7441 638.00
34.8093 610.00
34.8745 683.00
34.9397 666.00
35.0049 609.00
35.0701 639.00
35.1353 629.00
35.2005 620.00
35.2657 614.00
35.3309 681.00
35.3961 656.00
35.4613 665.00
35.5265 656.00
35.5917 696.00
35.6569 714.00
35.7221 762.00
35.7873 890.00
35.8525 1008.00
35.9177 1273.00
35.9829 1557.00
36.0481 1816.00
36.1133 2024.00
36.1785 2269.00
36.2437 1960.00
36.3089 1418.00
36.3741 1155.00
36.4393 1228.00
36.5045 1534.00
36.5697 1906.00
36.6349 2169.00
36.7001 2652.00
36.7653 2671.00
36.8305 2446.00
36.8957 1790.00
36.9609 1130.00
37.0261 853.00
37.0913 728.00
37.1565 664.00
37.2217 699.00
37.2869 705.00
37.3521 673.00
37.4173 653.00
37.4825 705.00
37.5477 726.00
37.6129 794.00
37.6781 803.00
37.7433 843.00
37.8085 802.00
37.8736 660.00
37.9388 619.00
38.004 607.00
38.0692 622.00
38.1344 609.00
38.1996 600.00
38.2648 560.00
38.33 559.00
38.3952 543.00
38.4604 579.00
38.5256 647.00
38.5908 672.00
38.656 710.00
38.7212 745.00
38.7864 761.00
38.8516 709.00
38.9168 581.00
38.982 566.00
39.0472 541.00
39.1124 556.00
39.1776 541.00
39.2428 624.00
39.308 579.00
39.3732 638.00
39.4384 646.00
39.5036 582.00
39.5688 617.00
39.634 590.00
39.6992 544.00
39.7644 558.00
39.8296 521.00
39.8948 522.00
39.96 543.00
40.0252 558.00
40.0904 547.00
40.1556 587.00
40.2208 587.00
40.286 663.00
40.3512 706.00
40.4164 786.00
40.4816 828.00
40.5468 906.00
40.612 808.00
40.6772 664.00
40.7424 614.00
40.8076 541.00
40.8728 517.00
40.938 571.00
41.0032 525.00
41.0684 574.00
41.1336 500.00
41.1988 491.00
41.264 560.00
41.3292 541.00
41.3944 503.00
41.4596 546.00
41.5248 500.00
41.59 537.00
41.6552 549.00
41.7204 552.00
41.7856 593.00
41.8508 590.00
41.916 746.00
41.9812 802.00
42.0464 917.00
42.1116 1071.00
42.1768 1009.00
42.242 1001.00
42.3072 830.00
42.3724 710.00
42.4376 778.00
42.5028 829.00
42.568 919.00
42.6332 1038.00
42.6983 1004.00
42.7635 844.00
42.8287 732.00
42.8939 665.00
42.9591 597.00
43.0243 577.00
43.0895 587.00
43.1547 631.00
43.2199 569.00
43.2851 568.00
43.3503 522.00
43.4155 550.00
43.4807 503.00
43.5459 523.00
43.6111 495.00
43.6763 547.00
43.7415 510.00
43.8067 511.00
43.8719 566.00
43.9371 582.00
44.0023 776.00
44.0675 923.00
44.1327 1087.00
44.1979 1267.00
44.2631 1432.00
44.3283 1275.00
44.3935 980.00
44.4587 749.00
44.5239 610.00
44.5891 617.00
44.6543 542.00
44.7195 494.00
44.7847 483.00
44.8499 507.00
44.9151 509.00
44.9803 551.00
45.0455 559.00
45.1107 603.00
45.1759 663.00
45.2411 688.00
45.3063 650.00
45.3715 579.00
45.4367 538.00
45.5019 471.00
45.5671 531.00
45.6323 585.00
45.6975 629.00
45.7627 787.00
45.8279 891.00
45.8931 1136.00
45.9583 1312.00
46.0235 1492.00
46.0887 1437.00
46.1539 1095.00
46.2191 933.00
46.2843 668.00
46.3495 515.00
46.4147 487.00
46.4799 517.00
46.5451 495.00
46.6103 477.00
46.6755 489.00
46.7407 516.00
46.8059 505.00
46.8711 542.00
46.9363 495.00
47.0015 513.00
47.0667 561.00
47.1319 690.00
47.1971 779.00
47.2623 970.00
47.3275 1280.00
47.3927 1664.00
47.4579 2017.00
47.523 2147.00
47.5882 1834.00
47.6534 1425.00
47.7186 983.00
47.7838 716.00
47.849 570.00
47.9142 532.00
47.9794 517.00
48.0446 563.00
48.1098 507.00
48.175 469.00
48.2402 487.00
48.3054 478.00
48.3706 461.00
48.4358 511.00
48.501 506.00
48.5662 565.00
48.6314 565.00
48.6966 605.00
48.7618 645.00
48.827 607.00
48.8922 639.00
48.9574 572.00
49.0226 668.00
49.0878 745.00
49.153 967.00
49.2182 1194.00
49.2834 1564.00
49.3486 1971.00
49.4138 2272.00
49.479 2093.00
49.5442 1608.00
49.6094 1133.00
49.6746 686.00
49.7398 590.00
49.805 543.00
49.8702 497.00
49.9354 565.00
50.0006 525.00
50.0658 567.00
50.131 578.00
50.1962 631.00
50.2614 701.00
50.3266 716.00
50.3918 690.00
50.457 607.00
50.5222 583.00
50.5874 488.00
50.6526 471.00
50.7178 446.00
50.783 410.00
50.8482 472.00
50.9134 467.00
50.9786 427.00
51.0438 447.00
51.109 438.00
51.1742 430.00
51.2394 409.00
51.3046 480.00
51.3698 465.00
51.435 530.00
51.5002 520.00
51.5654 544.00
51.6306 576.00
51.6958 531.00
51.761 502.00
51.8262 483.00
51.8914 538.00
51.9566 492.00
52.0218 499.00
52.087 598.00
52.1522 784.00
52.2174 980.00
52.2826 1403.00
52.3477 1805.00
52.4129 2116.00
52.4781 2290.00
52.5433 1681.00
52.6085 1330.00
52.6737 919.00
52.7389 637.00
52.8041 535.00
52.8693 498.00
52.9345 505.00
52.9997 487.00
53.0649 502.00
53.1301 556.00
53.1953 561.00
53.2605 558.00
53.3257 599.00
53.3909 555.00
53.4561 493.00
53.5213 462.00
53.5865 409.00
53.6517 403.00
53.7169 412.00
53.7821 402.00
53.8473 387.00
53.9125 413.00
53.9777 389.00
54.0429 413.00
54.1081 373.00
54.1733 425.00
54.2385 409.00
54.3037 406.00
54.3689 412.00
54.4341 439.00
54.4993 470.00
54.5645 485.00
54.6297 440.00
54.6949 435.00
54.7601 418.00
54.8253 467.00
54.8905 427.00
54.9557 400.00
55.0209 436.00
55.0861 451.00
55.1513 434.00
55.2165 441.00
55.2817 435.00
55.3469 483.00
55.4121 492.00
55.4773 518.00
55.5425 620.00
55.6077 767.00
55.6729 876.00
55.7381 980.00
55.8033 954.00
55.8685 817.00
55.9337 674.00
55.9989 590.00
56.0641 493.00
56.1293 467.00
56.1945 442.00
56.2597 478.00
56.3249 459.00
56.3901 445.00
56.4553 504.00
56.5205 477.00
56.5857 537.00
56.6509 589.00
56.7161 691.00
56.7813 855.00
56.8465 991.00
56.9117 1222.00
56.9769 1450.00
57.042 1574.00
57.1073 1408.00
57.1724 1371.00
57.2376 1369.00
57.3028 1474.00
57.368 1722.00
57.4332 1814.00
57.4984 1667.00
57.5636 1451.00
57.6288 1193.00
57.694 806.00
57.7592 610.00
57.8244 493.00
57.8896 461.00
57.9548 459.00
58.02 433.00
58.0852 406.00
58.1504 450.00
58.2156 437.00
58.2808 437.00
58.346 494.00
58.4112 523.00
58.4764 509.00
58.5416 482.00
58.6068 498.00
58.672 559.00
58.7372 589.00
58.8024 630.00
58.8676 716.00
58.9328 823.00
58.998 783.00
59.0632 776.00
59.1284 700.00
59.1936 585.00
59.2588 532.00
59.324 451.00
59.3892 438.00
59.4544 417.00
59.5196 400.00
59.5848 416.00
59.65 421.00
59.7152 396.00
59.7804 395.00
59.8456 408.00
59.9108 440.00
59.976 491.00
60.0412 541.00
60.1064 533.00
60.1716 608.00
60.2368 618.00
60.302 557.00
60.3672 502.00
60.4324 517.00
60.4976 447.00
60.5628 510.00
60.628 514.00
60.6932 543.00
60.7584 516.00
60.8236 507.00
60.8888 509.00
60.954 466.00
61.0192 527.00
61.0844 498.00
61.1496 638.00
61.2148 803.00
61.28 939.00
61.3452 1245.00
61.4104 1573.00
61.4756 1427.00
61.5408 1136.00
61.606 929.00
61.6712 734.00
61.7364 560.00
61.8016 473.00
61.8667 447.00
61.932 455.00
61.9971 393.00
62.0623 453.00
62.1275 457.00
62.1927 498.00
62.2579 515.00
62.3231 521.00
62.3883 526.00
62.4535 555.00
62.5187 567.00
62.5839 546.00
62.6491 576.00
62.7143 688.00
62.7795 750.00
62.8447 967.00
62.9099 1264.00
62.9751 1534.00
63.0403 1678.00
63.1055 1662.00
63.1707 1516.00
63.2359 1456.00
63.3011 1243.00
63.3663 1030.00
63.4315 833.00
63.4967 712.00
63.5619 601.00
63.6271 496.00
63.6923 457.00
63.7575 470.00
63.8227 457.00
63.8879 415.00
63.9531 417.00
64.0183 371.00
64.0835 420.00
64.1487 413.00
64.2139 452.00
64.2791 451.00
64.3443 518.00
64.4095 525.00
64.4747 474.00
64.5399 509.00
64.6051 493.00
64.6703 459.00
64.7355 417.00
64.8007 425.00
64.8659 422.00
64.9311 381.00
64.9963 386.00
65.0615 383.00
65.1267 414.00
65.1919 388.00
65.2571 454.00
65.3223 503.00
65.3875 569.00
65.4527 723.00
65.5179 908.00
65.5831 1068.00
65.6483 1089.00
65.7135 1045.00
65.7787 940.00
65.8439 973.00
65.9091 992.00
65.9743 901.00
66.0395 922.00
66.1047 817.00
66.1699 761.00
66.2351 673.00
66.3003 583.00
66.3655 513.00
66.4307 509.00
66.4959 448.00
66.561 425.00
66.6263 437.00
66.6915 405.00
66.7566 407.00
66.8218 420.00
66.887 410.00
66.9522 412.00
67.0174 405.00
67.0826 465.00
67.1478 535.00
67.213 639.00
67.2782 777.00
67.3434 877.00
67.4086 957.00
67.4738 948.00
67.539 855.00
67.6042 687.00
67.6694 657.00
67.7346 520.00
67.7998 477.00
67.865 404.00
67.9302 447.00
67.9954 421.00
68.0606 401.00
68.1258 360.00
68.191 382.00
68.2562 366.00
68.3214 391.00
68.3866 343.00
68.4518 370.00
68.517 350.00
68.5822 311.00
68.6474 354.00
68.7126 351.00
68.7778 383.00
68.843 340.00
68.9082 349.00
68.9734 353.00
69.0386 330.00
69.1038 364.00
69.169 412.00
69.2342 364.00
69.2994 397.00
69.3646 483.00
69.4298 540.00
69.495 680.00
69.5602 830.00
69.6254 1044.00
69.6906 1076.00
69.7558 932.00
69.821 821.00
69.8862 748.00
69.9514 609.00
70.0166 486.00
70.0818 416.00
70.147 407.00
70.2122 393.00
70.2774 397.00
70.3426 423.00
70.4078 363.00
70.473 381.00
70.5382 351.00
70.6034 334.00
70.6686 362.00
70.7338 382.00
70.799 341.00
70.8642 409.00
70.9294 434.00
70.9946 469.00
71.0598 461.00
71.125 566.00
71.1902 517.00
71.2554 548.00
71.3205 503.00
71.3858 556.00
71.451 509.00
71.5162 463.00
71.5813 448.00
71.6465 416.00
71.7117 408.00
71.7769 405.00
71.8421 373.00
71.9073 412.00
71.9725 384.00
72.0377 389.00
72.1029 375.00
72.1681 407.00
72.2333 385.00
72.2985 341.00
72.3637 334.00
72.4289 367.00
72.4941 366.00
72.5593 371.00
72.6245 363.00
72.6897 381.00
72.7549 348.00
72.8201 323.00
72.8853 336.00
72.9505 355.00
73.0157 345.00
73.0809 320.00
73.1461 384.00
73.2113 347.00
73.2765 389.00
73.3417 458.00
73.4069 532.00
73.4721 614.00
73.5373 730.00
73.6025 792.00
73.6677 737.00
73.7329 739.00
73.7981 642.00
73.8633 570.00
73.9285 468.00
73.9937 446.00
74.0589 388.00
74.1241 389.00
74.1893 359.00
74.2545 357.00
74.3197 398.00
74.3849 392.00
74.4501 358.00
74.5153 329.00
74.5805 329.00
74.6457 346.00
74.7109 345.00
74.7761 358.00
74.8413 392.00
74.9065 374.00
74.9717 368.00
75.0369 379.00
75.1021 452.00
75.1673 503.00
75.2325 627.00
75.2977 706.00
75.3629 697.00
75.4281 696.00
75.4933 609.00
75.5585 560.00
75.6237 532.00
75.6889 475.00
75.7541 479.00
75.8193 464.00
75.8845 510.00
75.9497 493.00
76.0149 472.00
76.0801 480.00
76.1452 476.00
76.2104 489.00
76.2756 490.00
76.3409 540.00
76.406 482.00
76.4712 515.00
76.5364 433.00
76.6016 435.00
76.6668 385.00
76.732 335.00
76.7972 344.00
76.8624 315.00
76.9276 323.00
76.9928 312.00
77.058 314.00
77.1232 320.00
77.1884 334.00
77.2536 344.00
77.3188 343.00
77.384 376.00
77.4492 403.00
77.5144 430.00
77.5796 466.00
77.6448 460.00
77.71 540.00
77.7752 655.00
77.8404 713.00
77.9056 616.00
77.9708 672.00
78.036 621.00
78.1012 596.00
78.1664 494.00
78.2316 457.00
78.2968 414.00
78.362 392.00
78.4272 336.00
78.4924 346.00
78.5576 350.00
78.6228 310.00
78.688 359.00
78.7532 319.00
78.8184 308.00
78.8836 344.00
78.9488 316.00
79.014 381.00
79.0792 375.00
79.1444 451.00
79.2096 450.00
79.2748 457.00
79.34 420.00
79.4052 429.00
79.4704 400.00
79.5356 401.00
79.6008 442.00
79.666 391.00
79.7312 405.00
79.7964 396.00
79.8616 372.00
79.9268 390.00
79.992 335.00
80.0572 413.00
80.1224 426.00
80.1876 405.00
80.2528 343.00
80.318 365.00
80.3832 403.00
80.4484 384.00
80.5136 379.00
80.5788 376.00
80.644 356.00
80.7092 311.00
80.7744 373.00
80.8396 350.00
80.9048 358.00
80.9699 342.00
81.0351 374.00
81.1003 469.00
81.1655 499.00
81.2307 625.00
81.2959 679.00
81.3611 687.00
81.4263 668.00
81.4915 639.00
81.5567 650.00
81.6219 689.00
81.6871 635.00
81.7523 588.00
81.8175 514.00
81.8827 494.00
81.9479 429.00
82.0131 424.00
82.0783 390.00
82.1435 370.00
82.2087 353.00
82.2739 305.00
82.3391 344.00
82.4043 343.00
82.4695 352.00
82.5347 384.00
82.5999 421.00
82.6651 442.00
82.7303 539.00
82.7955 584.00
82.8607 627.00
82.9259 797.00
82.9911 780.00
83.0563 675.00
83.1215 663.00
83.1867 592.00
83.2519 569.00
83.3171 487.00
83.3823 419.00
83.4475 328.00
83.5127 389.00
83.5779 332.00
83.6431 326.00
83.7083 365.00
83.7735 324.00
83.8387 289.00
83.9039 340.00
83.9691 311.00
84.0343 311.00
84.0995 322.00
84.1647 310.00
84.2299 272.00
84.2951 308.00
84.3603 310.00
84.4255 291.00
84.4907 321.00
84.5559 312.00
84.6211 295.00
84.6863 299.00
84.7515 285.00
84.8167 317.00
84.8819 335.00
84.9471 320.00
85.0123 379.00
85.0775 397.00
85.1427 381.00
85.2079 397.00
85.2731 372.00
85.3383 337.00
85.4035 383.00
85.4687 313.00
85.5339 334.00
85.5991 322.00
85.6643 324.00
85.7295 305.00
85.7946 341.00
85.8598 329.00
85.925 371.00
85.9903 362.00
86.0554 365.00
86.1206 394.00
86.1858 379.00
86.251 407.00
86.3162 505.00
86.3814 567.00
86.4466 626.00
86.5118 651.00
86.577 636.00
86.6422 614.00
86.7074 563.00
86.7726 536.00
86.8378 527.00
86.903 399.00
86.9682 394.00
87.0334 373.00
87.0986 338.00
87.1638 374.00
87.229 392.00
87.2942 395.00
87.3594 400.00
87.4246 420.00
87.4898 469.00
87.555 558.00
87.6202 605.00
87.6854 741.00
87.7506 787.00
87.8158 695.00
87.881 748.00
87.9462 699.00
88.0114 684.00
88.0766 595.00
88.1418 513.00
88.207 533.00
88.2722 441.00
88.3374 374.00
88.4026 366.00
88.4678 366.00
88.533 349.00
88.5982 395.00
88.6634 399.00
88.7286 416.00
88.7938 439.00
88.859 455.00
88.9242 444.00
88.9894 435.00
89.0546 367.00
89.1198 409.00
89.185 356.00
89.2502 336.00
89.3154 342.00
89.3806 373.00
89.4458 331.00
89.511 287.00
89.5762 344.00
89.6414 276.00
89.7066 317.00
89.7718 314.00
89.837 275.00
89.9022 299.00
89.9674 336.00
90.0326 300.00
90.0978 325.00
90.163 320.00
90.2282 352.00
90.2934 347.00
90.3586 372.00
90.4238 441.00
90.489 464.00
90.5542 460.00
90.6193 428.00
90.6845 390.00
90.7497 361.00
90.8149 401.00
90.8801 373.00
90.9453 412.00
91.0105 415.00
91.0757 423.00
91.1409 416.00
91.2061 386.00
91.2713 405.00
91.3365 405.00
91.4017 377.00
91.4669 380.00
91.5321 385.00
91.5973 426.00
91.6625 357.00
91.7277 349.00
91.7929 376.00
91.8581 374.00
91.9233 395.00
91.9885 369.00
92.0537 352.00
92.1189 322.00
92.1841 362.00
92.2493 376.00
92.3145 372.00
92.3797 477.00
92.4449 536.00
92.5101 564.00
92.5753 651.00
92.6405 626.00
92.7057 669.00
92.7709 578.00
92.8361 617.00
92.9013 620.00
92.9665 581.00
93.0317 508.00
93.0969 449.00
93.1621 443.00
93.2273 403.00
93.2925 365.00
93.3577 386.00
93.4229 364.00
93.4881 327.00
93.5533 332.00
93.6185 309.00
93.6837 313.00
93.7489 353.00
93.8141 323.00
93.8793 356.00
93.9445 353.00
94.0097 381.00
94.0749 383.00
94.1401 412.00
94.2053 499.00
94.2705 560.00
94.3357 471.00
94.4009 460.00
94.4661 467.00
94.5313 451.00
94.5965 417.00
94.6617 397.00
94.7269 355.00
94.7921 377.00
94.8573 374.00
94.9225 352.00
94.9877 380.00
95.0529 371.00
95.1181 444.00
95.1833 444.00
95.2485 434.00
95.3137 462.00
95.3789 470.00
95.444 482.00
95.5092 531.00
95.5744 433.00
95.6396 446.00
95.7048 442.00
95.77 397.00
95.8352 432.00
95.9004 355.00
95.9656 349.00
96.0308 376.00
96.096 419.00
96.1612 372.00
96.2264 453.00
96.2916 472.00
96.3568 474.00
96.422 492.00
96.4872 400.00
96.5524 418.00
96.6176 402.00
96.6828 402.00
96.748 347.00
96.8132 319.00
96.8784 336.00
96.9436 342.00
97.0088 321.00
97.074 325.00
97.1392 350.00
97.2044 345.00
97.2696 330.00
97.3348 337.00
97.4 347.00
97.4652 331.00
97.5304 374.00
97.5956 429.00
97.6608 441.00
97.726 518.00
97.7912 496.00
97.8564 567.00
97.9216 644.00
97.9868 715.00
98.052 722.00
98.1172 645.00
98.1824 554.00
98.2476 536.00
98.3128 541.00
98.378 467.00
98.4432 466.00
98.5084 426.00
98.5736 418.00
98.6388 373.00
98.704 317.00
98.7692 330.00
98.8344 349.00
98.8996 299.00
98.9648 331.00
99.03 326.00
99.0952 335.00
99.1604 330.00
99.2256 305.00
99.2908 312.00
99.356 292.00
99.4212 316.00
99.4864 348.00
99.5516 296.00
99.6168 316.00
99.682 339.00
99.7472 374.00
99.8124 435.00
99.8776 408.00
99.9428 496.00
100.008 616.00
100.073 626.00
100.095 624.00