File: data/xrd_creation/results/NSC_6.xy
9.903433 3142.00
9.968632 2954.00
10.0338 2858.00
10.099 2877.00
10.1642 2912.00
10.2294 2905.00
10.2946 2902.00
10.3598 2878.00
10.425 2754.00
10.4902 2817.00
10.5554 2896.00
10.6206 2815.00
10.6858 2720.00
10.751 2846.00
10.8162 2758.00
10.8814 2678.00
10.9466 2673.00
11.0118 2800.00
11.077 2831.00
11.1422 2674.00
11.2074 2738.00
11.2726 2698.00
11.3378 2590.00
11.403 2553.00
11.4682 2560.00
11.5334 2716.00
11.5986 2612.00
11.6638 2573.00
11.729 2614.00
11.7942 2603.00
11.8594 2502.00
11.9246 2568.00
11.9898 2561.00
12.055 2504.00
12.1202 2462.00
12.1854 2438.00
12.2506 2510.00
12.3158 2407.00
12.381 2361.00
12.4462 2323.00
12.5114 2425.00
12.5766 2306.00
12.6418 2484.00
12.707 2389.00
12.7722 2393.00
12.8374 2327.00
12.9026 2390.00
12.9678 2406.00
13.033 2411.00
13.0982 2412.00
13.1634 2350.00
13.2286 2192.00
13.2938 2254.00
13.359 2335.00
13.4242 2205.00
13.4894 2322.00
13.5546 2263.00
13.6198 2232.00
13.685 2313.00
13.7502 2360.00
13.8154 2390.00
13.8805 2486.00
13.9457 2526.00
14.0109 2781.00
14.0761 3186.00
14.1413 3501.00
14.2065 3878.00
14.2717 3660.00
14.3369 2889.00
14.4021 2529.00
14.4673 2327.00
14.5325 2303.00
14.5977 2366.00
14.6629 2305.00
14.7281 2226.00
14.7933 2365.00
14.8585 2197.00
14.9237 2203.00
14.9889 2218.00
15.0541 2122.00
15.1193 2231.00
15.1845 2181.00
15.2497 2173.00
15.3149 2144.00
15.3801 2171.00
15.4453 2173.00
15.5105 2181.00
15.5757 2197.00
15.6409 2294.00
15.7061 2151.00
15.7713 2183.00
15.8365 2189.00
15.9017 2241.00
15.9669 2276.00
16.0321 2232.00
16.0973 2229.00
16.1625 2305.00
16.2277 2098.00
16.2929 2132.00
16.3581 2224.00
16.4233 2124.00
16.4885 2120.00
16.5537 2250.00
16.6189 2125.00
16.6841 2215.00
16.7493 2187.00
16.8145 2170.00
16.8797 2126.00
16.9449 2212.00
17.0101 2081.00
17.0753 2214.00
17.1405 2165.00
17.2057 2203.00
17.2709 2068.00
17.3361 2146.00
17.4013 2035.00
17.4665 2127.00
17.5317 2137.00
17.5969 2204.00
17.6621 2265.00
17.7273 2383.00
17.7925 2148.00
17.8577 2059.00
17.9229 2065.00
17.9881 2165.00
18.0533 2127.00
18.1185 2090.00
18.1837 2196.00
18.2489 2079.00
18.3141 2084.00
18.3793 2128.00
18.4445 2086.00
18.5097 2175.00
18.5749 2115.00
18.6401 1961.00
18.7052 2098.00
18.7704 2092.00
18.8356 2122.00
18.9008 2115.00
18.966 2178.00
19.0312 2237.00
19.0964 2183.00
19.1616 2252.00
19.2268 2413.00
19.292 2504.00
19.3572 2744.00
19.4224 3220.00
19.4876 3991.00
19.5528 5223.00
19.618 6944.00
19.6832 7539.00
19.7484 5921.00
19.8136 4039.00
19.8788 3161.00
19.944 2882.00
20.0092 2827.00
20.0744 3054.00
20.1396 3389.00
20.2048 4255.00
20.27 6200.00
20.3352 8700.00
20.4004 10250.00
20.4656 8165.00
20.5308 4907.00
20.596 3140.00
20.6612 2679.00
20.7264 2385.00
20.7916 2349.00
20.8568 2244.00
20.922 2117.00
20.9872 2187.00
21.0524 2210.00
21.1176 2254.00
21.1828 2152.00
21.248 2070.00
21.3132 2110.00
21.3784 2144.00
21.4436 2209.00
21.5088 2137.00
21.574 2059.00
21.6392 2082.00
21.7044 2105.00
21.7696 2033.00
21.8348 2127.00
21.9 2041.00
21.9652 2085.00
22.0304 2049.00
22.0956 2077.00
22.1608 2105.00
22.226 1934.00
22.2912 2068.00
22.3564 1926.00
22.4216 1996.00
22.4868 1987.00
22.552 1984.00
22.6172 1967.00
22.6824 2121.00
22.7476 2048.00
22.8128 2130.00
22.878 2180.00
22.9432 2071.00
23.0084 2081.00
23.0736 2308.00
23.1388 2259.00
23.204 2399.00
23.2692 2668.00
23.3344 3152.00
23.3996 4448.00
23.4647 6778.00
23.5299 9732.00
23.5951 10850.00
23.6603 7604.00
23.7255 4301.00
23.7907 2910.00
23.8559 2435.00
23.9211 2316.00
23.9863 2192.00
24.0515 2145.00
24.1167 2270.00
24.1819 2337.00
24.2471 2486.00
24.3123 2609.00
24.3775 2508.00
24.4427 2210.00
24.5079 2258.00
24.5731 2160.00
24.6383 2286.00
24.7035 2350.00
24.7687 2363.00
24.8339 2180.00
24.8991 2019.00
24.9643 1983.00
25.0295 1893.00
25.0947 1802.00
25.1599 1834.00
25.2251 1838.00
25.2903 1864.00
25.3555 1844.00
25.4207 1828.00
25.4859 1856.00
25.5511 1883.00
25.6163 1829.00
25.6815 1848.00
25.7467 1861.00
25.8119 1809.00
25.8771 1914.00
25.9423 1869.00
26.0075 1817.00
26.0727 1772.00
26.1379 1799.00
26.2031 1773.00
26.2683 1741.00
26.3335 1894.00
26.3987 1825.00
26.4639 1750.00
26.5291 1857.00
26.5943 1930.00
26.6595 1938.00
26.7247 1915.00
26.7899 1815.00
26.8551 1685.00
26.9203 1721.00
26.9855 1811.00
27.0507 1765.00
27.1159 1738.00
27.1811 1718.00
27.2463 1757.00
27.3115 1853.00
27.3767 1813.00
27.4419 1843.00
27.5071 1756.00
27.5723 1866.00
27.6375 1946.00
27.7027 1872.00
27.7679 1874.00
27.8331 1956.00
27.8983 2039.00
27.9635 2109.00
28.0287 2326.00
28.0939 2452.00
28.1591 3049.00
28.2243 4357.00
28.2894 6546.00
28.3546 9431.00
28.4198 10251.00
28.485 8284.00
28.5502 5440.00
28.6154 3410.00
28.6806 2730.00
28.7458 2251.00
28.811 2056.00
28.8762 2072.00
28.9414 1944.00
29.0066 1874.00
29.0718 1822.00
29.137 1702.00
29.2022 1817.00
29.2674 1798.00
29.3326 1810.00
29.3978 1710.00
29.463 1690.00
29.5282 1715.00
29.5934 1715.00
29.6586 1797.00
29.7238 1769.00
29.789 1677.00
29.8542 1675.00
29.9194 1720.00
29.9846 1675.00
30.0498 1708.00
30.115 1668.00
30.1802 1748.00
30.2454 1750.00
30.3106 1711.00
30.3758 1829.00
30.441 1787.00
30.5062 1747.00
30.5714 1913.00
30.6366 1788.00
30.7018 1866.00
30.767 1947.00
30.8322 1955.00
30.8974 2117.00
30.9626 2349.00
31.0278 2725.00
31.093 3539.00
31.1582 5187.00
31.2234 7737.00
31.2886 9585.00
31.3538 9301.00
31.419 7111.00
31.4842 5460.00
31.5494 4607.00
31.6146 4841.00
31.6798 5245.00
31.745 4934.00
31.8102 3839.00
31.8754 2678.00
31.9406 2295.00
32.0058 2027.00
32.071 1860.00
32.1362 1887.00
32.2014 1783.00
32.2666 1744.00
32.3318 1654.00
32.397 1702.00
32.4622 1635.00
32.5274 1696.00
32.5926 1615.00
32.6578 1686.00
32.723 1646.00
32.7882 1686.00
32.8534 1823.00
32.9186 2037.00
32.9838 2000.00
33.0489 1887.00
33.1141 1704.00
33.1793 1730.00
33.2445 1677.00
33.3097 1918.00
33.3749 2073.00
33.4401 2081.00
33.5053 1945.00
33.5705 1847.00
33.6357 1893.00
33.7009 1752.00
33.7661 1735.00
33.8313 1769.00
33.8965 1802.00
33.9617 1758.00
34.0269 1794.00
34.0921 1882.00
34.1573 1912.00
34.2225 2252.00
34.2877 2409.00
34.3529 2554.00
34.4181 2470.00
34.4833 2180.00
34.5485 2161.00
34.6137 2071.00
34.6789 2337.00
34.7441 2210.00
34.8093 2103.00
34.8745 2307.00
34.9397 2433.00
35.0049 2966.00
35.0701 3466.00
35.1353 3404.00
35.2005 3166.00
35.2657 2939.00
35.3309 3094.00
35.3961 4132.00
35.4613 5177.00
35.5265 5758.00
35.5917 5087.00
35.6569 3810.00
35.7221 2739.00
35.7873 2124.00
35.8525 1870.00
35.9177 1825.00
35.9829 1684.00
36.0481 1720.00
36.1133 1736.00
36.1785 1606.00
36.2437 1583.00
36.3089 1647.00
36.3741 1535.00
36.4393 1586.00
36.5045 1482.00
36.5697 1546.00
36.6349 1549.00
36.7001 1468.00
36.7653 1442.00
36.8305 1500.00
36.8957 1522.00
36.9609 1544.00
37.0261 1536.00
37.0913 1436.00
37.1565 1532.00
37.2217 1500.00
37.2869 1442.00
37.3521 1513.00
37.4173 1443.00
37.4825 1493.00
37.5477 1466.00
37.6129 1440.00
37.6781 1495.00
37.7433 1422.00
37.8085 1433.00
37.8736 1426.00
37.9388 1460.00
38.004 1431.00
38.0692 1439.00
38.1344 1442.00
38.1996 1469.00
38.2648 1425.00
38.33 1421.00
38.3952 1381.00
38.4604 1430.00
38.5256 1469.00
38.5908 1485.00
38.656 1602.00
38.7212 1700.00
38.7864 1780.00
38.8516 1670.00
38.9168 1562.00
38.982 1610.00
39.0472 1449.00
39.1124 1552.00
39.1776 1403.00
39.2428 1510.00
39.308 1492.00
39.3732 1535.00
39.4384 1613.00
39.5036 1645.00
39.5688 1787.00
39.634 1848.00
39.6992 1998.00
39.7644 1770.00
39.8296 1734.00
39.8948 1600.00
39.96 1510.00
40.0252 1426.00
40.0904 1484.00
40.1556 1461.00
40.2208 1396.00
40.286 1448.00
40.3512 1474.00
40.4164 1518.00
40.4816 1382.00
40.5468 1429.00
40.612 1462.00
40.6772 1532.00
40.7424 1583.00
40.8076 1656.00
40.8728 1832.00
40.938 1991.00
41.0032 2017.00
41.0684 2088.00
41.1336 2088.00
41.1988 2187.00
41.264 2271.00
41.3292 2375.00
41.3944 2206.00
41.4596 2117.00
41.5248 1869.00
41.59 1861.00
41.6552 1850.00
41.7204 1722.00
41.7856 1529.00
41.8508 1582.00
41.916 1551.00
41.9812 1522.00
42.0464 1656.00
42.1116 1559.00
42.1768 1550.00
42.242 1435.00
42.3072 1480.00
42.3724 1461.00
42.4376 1450.00
42.5028 1437.00
42.568 1397.00
42.6332 1451.00
42.6983 1553.00
42.7635 1562.00
42.8287 1846.00
42.8939 2165.00
42.9591 2354.00
43.0243 2439.00
43.0895 2236.00
43.1547 1880.00
43.2199 1762.00
43.2851 1568.00
43.3503 1510.00
43.4155 1471.00
43.4807 1522.00
43.5459 1505.00
43.6111 1608.00
43.6763 1677.00
43.7415 1606.00
43.8067 1544.00
43.8719 1533.00
43.9371 1449.00
44.0023 1402.00
44.0675 1393.00
44.1327 1456.00
44.1979 1397.00
44.2631 1437.00
44.3283 1422.00
44.3935 1440.00
44.4587 1384.00
44.5239 1585.00
44.5891 1548.00
44.6543 1768.00
44.7195 1961.00
44.7847 2363.00
44.8499 2650.00
44.9151 2882.00
44.9803 2898.00
45.0455 2771.00
45.1107 2360.00
45.1759 1845.00
45.2411 1703.00
45.3063 1628.00
45.3715 1660.00
45.4367 1647.00
45.5019 1602.00
45.5671 1632.00
45.6323 1749.00
45.6975 1794.00
45.7627 2015.00
45.8279 2142.00
45.8931 2323.00
45.9583 2413.00
46.0235 2243.00
46.0887 2088.00
46.1539 1871.00
46.2191 1720.00
46.2843 1647.00
46.3495 1635.00
46.4147 1763.00
46.4799 1825.00
46.5451 1978.00
46.6103 1945.00
46.6755 1905.00
46.7407 1688.00
46.8059 1645.00
46.8711 1583.00
46.9363 1491.00
47.0015 1417.00
47.0667 1424.00
47.1319 1384.00
47.1971 1482.00
47.2623 1508.00
47.3275 1462.00
47.3927 1676.00
47.4579 1598.00
47.523 1702.00
47.5882 1906.00
47.6534 1908.00
47.7186 2157.00
47.7838 2547.00
47.849 3201.00
47.9142 3668.00
47.9794 3652.00
48.0446 3336.00
48.1098 2703.00
48.175 2233.00
48.2402 1839.00
48.3054 1743.00
48.3706 1628.00
48.4358 1579.00
48.501 1618.00
48.5662 1763.00
48.6314 1736.00
48.6966 1703.00
48.7618 1592.00
48.827 1499.00
48.8922 1434.00
48.9574 1468.00
49.0226 1505.00
49.0878 1500.00
49.153 1554.00
49.2182 1596.00
49.2834 1567.00
49.3486 1754.00
49.4138 1961.00
49.479 2077.00
49.5442 2075.00
49.6094 1912.00
49.6746 1721.00
49.7398 1621.00
49.805 1609.00
49.8702 1463.00
49.9354 1436.00
50.0006 1456.00
50.0658 1529.00
50.131 1612.00
50.1962 1752.00
50.2614 2033.00
50.3266 2336.00
50.3918 2276.00
50.457 2193.00
50.5222 2124.00
50.5874 1939.00
50.6526 1897.00
50.7178 2023.00
50.783 2108.00
50.8482 2164.00
50.9134 2102.00
50.9786 2080.00
51.0438 2247.00
51.109 2436.00
51.1742 2850.00
51.2394 2966.00
51.3046 3021.00
51.3698 2836.00
51.435 2492.00
51.5002 2230.00
51.5654 2090.00
51.6306 1905.00
51.6958 1884.00
51.761 1741.00
51.8262 1639.00
51.8914 1578.00
51.9566 1532.00
52.0218 1456.00
52.087 1335.00
52.1522 1420.00
52.2174 1319.00
52.2826 1354.00
52.3477 1389.00
52.4129 1316.00
52.4781 1307.00
52.5433 1411.00
52.6085 1366.00
52.6737 1473.00
52.7389 1373.00
52.8041 1339.00
52.8693 1361.00
52.9345 1350.00
52.9997 1305.00
53.0649 1342.00
53.1301 1288.00
53.1953 1285.00
53.2605 1322.00
53.3257 1357.00
53.3909 1325.00
53.4561 1304.00
53.5213 1316.00
53.5865 1347.00
53.6517 1401.00
53.7169 1449.00
53.7821 1382.00
53.8473 1434.00
53.9125 1571.00
53.9777 1738.00
54.0429 1790.00
54.1081 2097.00
54.1733 2262.00
54.2385 2279.00
54.3037 2362.00
54.3689 2037.00
54.4341 1829.00
54.4993 1733.00
54.5645 1624.00
54.6297 1523.00
54.6949 1574.00
54.7601 1589.00
54.8253 1740.00
54.8905 1840.00
54.9557 2217.00
55.0209 2357.00
55.0861 2529.00
55.1513 2735.00
55.2165 2935.00
55.2817 3378.00
55.3469 3528.00
55.4121 3656.00
55.4773 3404.00
55.5425 3155.00
55.6077 2752.00
55.6729 2447.00
55.7381 2286.00
55.8033 1909.00
55.8685 1853.00
55.9337 1702.00
55.9989 1646.00
56.0641 1631.00
56.1293 1727.00
56.1945 1675.00
56.2597 1762.00
56.3249 1643.00
56.3901 1600.00
56.4553 1521.00
56.5205 1485.00
56.5857 1504.00
56.6509 1617.00
56.7161 1590.00
56.7813 1464.00
56.8465 1484.00
56.9117 1510.00
56.9769 1428.00
57.042 1492.00
57.1073 1482.00
57.1724 1423.00
57.2376 1522.00
57.3028 1626.00
57.368 1535.00
57.4332 1574.00
57.4984 1485.00
57.5636 1524.00
57.6288 1459.00
57.694 1544.00
57.7592 1544.00
57.8244 1559.00
57.8896 1611.00
57.9548 1667.00
58.02 1675.00
58.0852 1932.00
58.1504 1847.00
58.2156 1857.00
58.2808 1859.00
58.346 1964.00
58.4112 1886.00
58.4764 1886.00
58.5416 1696.00
58.6068 1678.00
58.672 1530.00
58.7372 1471.00
58.8024 1385.00
58.8676 1328.00
58.9328 1336.00
58.998 1389.00
59.0632 1420.00
59.1284 1384.00
59.1936 1359.00
59.2588 1403.00
59.324 1372.00
59.3892 1490.00
59.4544 1585.00
59.5196 1595.00
59.5848 1801.00
59.65 2006.00
59.7152 2221.00
59.7804 2308.00
59.8456 2311.00
59.9108 2298.00
59.976 2225.00
60.0412 2047.00
60.1064 2112.00
60.1716 1877.00
60.2368 1850.00
60.302 1873.00
60.3672 1728.00
60.4324 1561.00
60.4976 1545.00
60.5628 1544.00
60.628 1567.00
60.6932 1735.00
60.7584 1989.00
60.8236 2141.00
60.8888 2420.00
60.954 2446.00
61.0192 2266.00
61.0844 2070.00
61.1496 1982.00
61.2148 1790.00
61.28 1755.00
61.3452 1568.00
61.4104 1691.00
61.4756 1727.00
61.5408 1701.00
61.606 1624.00
61.6712 1533.00
61.7364 1529.00
61.8016 1696.00
61.8667 1639.00
61.932 1700.00
61.9971 1794.00
62.0623 1913.00
62.1275 1979.00
62.1927 1952.00
62.2579 1767.00
62.3231 1798.00
62.3883 1666.00
62.4535 1655.00
62.5187 1592.00
62.5839 1488.00
62.6491 1551.00
62.7143 1577.00
62.7795 1618.00
62.8447 1678.00
62.9099 1766.00
62.9751 1879.00
63.0403 1860.00
63.1055 1923.00
63.1707 1863.00
63.2359 1915.00
63.3011 1865.00
63.3663 1823.00
63.4315 1955.00
63.4967 1912.00
63.5619 1878.00
63.6271 1828.00
63.6923 1784.00
63.7575 1832.00
63.8227 1671.00
63.8879 1654.00
63.9531 1513.00
64.0183 1408.00
64.0835 1368.00
64.1487 1453.00
64.2139 1327.00
64.2791 1420.00
64.3443 1405.00
64.4095 1354.00
64.4747 1408.00
64.5399 1401.00
64.6051 1451.00
64.6703 1374.00
64.7355 1422.00
64.8007 1424.00
64.8659 1441.00
64.9311 1359.00
64.9963 1547.00
65.0615 1412.00
65.1267 1446.00
65.1919 1483.00
65.2571 1388.00
65.3223 1431.00
65.3875 1477.00
65.4527 1472.00
65.5179 1609.00
65.5831 1494.00
65.6483 1639.00
65.7135 1695.00
65.7787 1750.00
65.8439 1810.00
65.9091 1903.00
65.9743 1949.00
66.0395 1889.00
66.1047 1869.00
66.1699 1796.00
66.2351 1720.00
66.3003 1543.00
66.3655 1400.00
66.4307 1444.00
66.4959 1361.00
66.561 1437.00
66.6263 1276.00
66.6915 1377.00
66.7566 1300.00
66.8218 1353.00
66.887 1317.00
66.9522 1454.00
67.0174 1475.00
67.0826 1515.00
67.1478 1503.00
67.213 1459.00
67.2782 1520.00
67.3434 1581.00
67.4086 1474.00
67.4738 1582.00
67.539 1622.00
67.6042 1555.00
67.6694 1590.00
67.7346 1536.00
67.7998 1475.00
67.865 1354.00
67.9302 1304.00
67.9954 1254.00
68.0606 1253.00
68.1258 1261.00
68.191 1316.00
68.2562 1249.00
68.3214 1424.00
68.3866 1285.00
68.4518 1346.00
68.517 1451.00
68.5822 1372.00
68.6474 1524.00
68.7126 1446.00
68.7778 1426.00
68.843 1339.00
68.9082 1381.00
68.9734 1428.00
69.0386 1311.00
69.1038 1423.00
69.169 1372.00
69.2342 1287.00
69.2994 1391.00
69.3646 1272.00
69.4298 1308.00
69.495 1257.00
69.5602 1315.00
69.6254 1238.00
69.6906 1301.00
69.7558 1234.00
69.821 1235.00
69.8862 1288.00
69.9514 1222.00
70.0166 1292.00
70.0818 1294.00
70.147 1198.00
70.2122 1323.00
70.2774 1290.00
70.3426 1205.00
70.4078 1369.00
70.473 1404.00
70.5382 1352.00
70.6034 1472.00
70.6686 1603.00
70.7338 1645.00
70.799 1676.00
70.8642 1679.00
70.9294 1668.00
70.9946 1658.00
71.0598 1687.00
71.125 1573.00
71.1902 1550.00
71.2554 1522.00
71.3205 1508.00
71.3858 1448.00
71.451 1378.00
71.5162 1405.00
71.5813 1339.00
71.6465 1364.00
71.7117 1297.00
71.7769 1299.00
71.8421 1208.00
71.9073 1276.00
71.9725 1258.00
72.0377 1306.00
72.1029 1315.00
72.1681 1332.00
72.2333 1317.00
72.2985 1346.00
72.3637 1301.00
72.4289 1320.00
72.4941 1317.00
72.5593 1217.00
72.6245 1343.00
72.6897 1327.00
72.7549 1282.00
72.8201 1311.00
72.8853 1234.00
72.9505 1241.00
73.0157 1266.00
73.0809 1323.00
73.1461 1293.00
73.2113 1362.00
73.2765 1356.00
73.3417 1399.00
73.4069 1468.00
73.4721 1480.00
73.5373 1491.00
73.6025 1401.00
73.6677 1539.00
73.7329 1424.00
73.7981 1432.00
73.8633 1361.00
73.9285 1282.00
73.9937 1316.00
74.0589 1329.00
74.1241 1330.00
74.1893 1301.00
74.2545 1294.00
74.3197 1380.00
74.3849 1309.00
74.4501 1429.00
74.5153 1515.00
74.5805 1468.00
74.6457 1488.00
74.7109 1658.00
74.7761 1619.00
74.8413 1754.00
74.9065 1628.00
74.9717 1655.00
75.0369 1604.00
75.1021 1629.00
75.1673 1655.00
75.2325 1526.00
75.2977 1510.00
75.3629 1574.00
75.4281 1478.00
75.4933 1403.00
75.5585 1385.00
75.6237 1381.00
75.6889 1342.00
75.7541 1279.00
75.8193 1254.00
75.8845 1201.00
75.9497 1179.00
76.0149 1201.00
76.0801 1223.00
76.1452 1268.00
76.2104 1242.00
76.2756 1234.00
76.3409 1214.00
76.406 1278.00
76.4712 1344.00
76.5364 1293.00
76.6016 1356.00
76.6668 1370.00
76.732 1288.00
76.7972 1239.00
76.8624 1333.00
76.9276 1275.00
76.9928 1380.00
77.058 1317.00
77.1232 1367.00
77.1884 1265.00
77.2536 1358.00
77.3188 1262.00
77.384 1326.00
77.4492 1241.00
77.5144 1300.00
77.5796 1288.00
77.6448 1252.00
77.71 1231.00
77.7752 1262.00
77.8404 1289.00
77.9056 1226.00
77.9708 1276.00
78.036 1339.00
78.1012 1267.00
78.1664 1403.00
78.2316 1506.00
78.2968 1493.00
78.362 1528.00
78.4272 1497.00
78.4924 1641.00
78.5576 1514.00
78.6228 1575.00
78.688 1550.00
78.7532 1476.00
78.8184 1508.00
78.8836 1442.00
78.9488 1441.00
79.014 1474.00
79.0792 1397.00
79.1444 1311.00
79.2096 1289.00
79.2748 1336.00
79.34 1313.00
79.4052 1282.00
79.4704 1269.00
79.5356 1349.00
79.6008 1276.00
79.666 1248.00
79.7312 1232.00
79.7964 1208.00
79.8616 1240.00
79.9268 1211.00
79.992 1239.00
80.0572 1188.00
80.1224 1323.00
80.1876 1244.00
80.2528 1250.00
80.318 1283.00
80.3832 1213.00
80.4484 1388.00
80.5136 1379.00
80.5788 1429.00
80.644 1356.00
80.7092 1488.00
80.7744 1450.00
80.8396 1441.00
80.9048 1425.00
80.9699 1375.00
81.0351 1331.00
81.1003 1257.00
81.1655 1251.00
81.2307 1291.00
81.2959 1270.00
81.3611 1236.00
81.4263 1236.00
81.4915 1268.00
81.5567 1229.00
81.6219 1245.00
81.6871 1178.00
81.7523 1251.00
81.8175 1256.00
81.8827 1223.00
81.9479 1271.00
82.0131 1170.00
82.0783 1269.00
82.1435 1177.00
82.2087 1207.00
82.2739 1212.00
82.3391 1223.00
82.4043 1255.00
82.4695 1275.00
82.5347 1267.00
82.5999 1260.00
82.6651 1258.00
82.7303 1301.00
82.7955 1354.00
82.8607 1408.00
82.9259 1350.00
82.9911 1440.00
83.0563 1532.00
83.1215 1570.00
83.1867 1584.00
83.2519 1543.00
83.3171 1554.00
83.3823 1461.00
83.4475 1474.00
83.5127 1404.00
83.5779 1393.00
83.6431 1307.00
83.7083 1296.00
83.7735 1275.00
83.8387 1300.00
83.9039 1270.00
83.9691 1282.00
84.0343 1288.00
84.0995 1341.00
84.1647 1297.00
84.2299 1383.00
84.2951 1337.00
84.3603 1467.00
84.4255 1445.00
84.4907 1400.00
84.5559 1485.00
84.6211 1464.00
84.6863 1400.00
84.7515 1462.00
84.8167 1403.00
84.8819 1419.00
84.9471 1417.00
85.0123 1468.00
85.0775 1365.00
85.1427 1363.00
85.2079 1282.00
85.2731 1371.00
85.3383 1354.00
85.4035 1350.00
85.4687 1329.00
85.5339 1384.00
85.5991 1317.00
85.6643 1283.00
85.7295 1276.00
85.7946 1316.00
85.8598 1379.00
85.925 1366.00
85.9903 1437.00
86.0554 1241.00
86.1206 1229.00
86.1858 1326.00
86.251 1364.00
86.3162 1345.00
86.3814 1308.00
86.4466 1286.00
86.5118 1325.00
86.577 1321.00
86.6422 1207.00
86.7074 1247.00
86.7726 1187.00
86.8378 1222.00
86.903 1194.00
86.9682 1247.00
87.0334 1286.00
87.0986 1199.00
87.1638 1277.00
87.229 1254.00
87.2942 1236.00
87.3594 1187.00
87.4246 1310.00
87.4898 1248.00
87.555 1346.00
87.6202 1262.00
87.6854 1342.00
87.7506 1393.00
87.8158 1370.00
87.881 1338.00
87.9462 1344.00
88.0114 1259.00
88.0766 1338.00
88.1418 1302.00
88.207 1332.00
88.2722 1360.00
88.3374 1382.00
88.4026 1379.00
88.4678 1409.00
88.533 1398.00
88.5982 1382.00
88.6634 1447.00
88.7286 1473.00
88.7938 1446.00
88.859 1428.00
88.9242 1367.00
88.9894 1551.00
89.0546 1537.00
89.1198 1512.00
89.185 1543.00
89.2502 1573.00
89.3154 1565.00
89.3806 1489.00
89.4458 1529.00
89.511 1463.00
89.5762 1387.00
89.6414 1403.00
89.7066 1340.00
89.7718 1358.00
89.837 1335.00
89.9022 1318.00
89.9674 1236.00
90.0326 1271.00
90.0978 1188.00
90.163 1289.00
90.2282 1220.00
90.2934 1212.00
90.3586 1209.00
90.4238 1269.00
90.489 1204.00
90.5542 1232.00
90.6193 1220.00
90.6845 1239.00
90.7497 1264.00
90.8149 1266.00
90.8801 1238.00
90.9453 1225.00
91.0105 1310.00
91.0757 1353.00
91.1409 1377.00
91.2061 1420.00
91.2713 1278.00
91.3365 1363.00
91.4017 1300.00
91.4669 1307.00
91.5321 1339.00
91.5973 1272.00
91.6625 1321.00
91.7277 1271.00
91.7929 1251.00
91.8581 1244.00
91.9233 1261.00
91.9885 1227.00
92.0537 1277.00
92.1189 1266.00
92.1841 1279.00
92.2493 1183.00
92.3145 1131.00
92.3797 1304.00
92.4449 1204.00
92.5101 1247.00
92.5753 1256.00
92.6405 1250.00
92.7057 1209.00
92.7709 1214.00
92.8361 1174.00
92.9013 1202.00
92.9665 1193.00
93.0317 1136.00
93.0969 1253.00
93.1621 1229.00
93.2273 1166.00
93.2925 1257.00
93.3577 1251.00
93.4229 1278.00
93.4881 1269.00
93.5533 1393.00
93.6185 1402.00
93.6837 1307.00
93.7489 1304.00
93.8141 1353.00
93.8793 1380.00
93.9445 1278.00
94.0097 1349.00
94.0749 1256.00
94.1401 1327.00
94.2053 1392.00
94.2705 1343.00
94.3357 1303.00
94.4009 1338.00
94.4661 1274.00
94.5313 1284.00
94.5965 1343.00
94.6617 1359.00
94.7269 1407.00
94.7921 1400.00
94.8573 1377.00
94.9225 1366.00
94.9877 1386.00
95.0529 1357.00
95.1181 1339.00
95.1833 1407.00
95.2485 1326.00
95.3137 1329.00
95.3789 1373.00
95.444 1416.00
95.5092 1339.00
95.5744 1381.00
95.6396 1347.00
95.7048 1387.00
95.77 1337.00
95.8352 1405.00
95.9004 1402.00
95.9656 1419.00
96.0308 1424.00
96.096 1413.00
96.1612 1311.00
96.2264 1428.00
96.2916 1439.00
96.3568 1335.00
96.422 1464.00
96.4872 1354.00
96.5524 1305.00
96.6176 1329.00
96.6828 1433.00
96.748 1299.00
96.8132 1387.00
96.8784 1359.00
96.9436 1341.00
97.0088 1369.00
97.074 1323.00
97.1392 1257.00
97.2044 1217.00
97.2696 1253.00
97.3348 1251.00
97.4 1195.00
97.4652 1162.00
97.5304 1200.00
97.5956 1227.00
97.6608 1206.00
97.726 1151.00
97.7912 1237.00
97.8564 1191.00
97.9216 1202.00
97.9868 1175.00
98.052 1220.00
98.1172 1165.00
98.1824 1290.00
98.2476 1207.00
98.3128 1212.00
98.378 1276.00
98.4432 1366.00
98.5084 1326.00
98.5736 1367.00
98.6388 1293.00
98.704 1333.00
98.7692 1349.00
98.8344 1346.00
98.8996 1352.00
98.9648 1324.00
99.03 1370.00
99.0952 1333.00
99.1604 1275.00
99.2256 1383.00
99.2908 1386.00
99.356 1483.00
99.4212 1389.00
99.4864 1389.00
99.5516 1439.00
99.6168 1475.00
99.682 1383.00
99.7472 1578.00
99.8124 1407.00
99.8776 1379.00
99.9428 1379.00
100.008 1429.00
100.073 1348.00
100.095 1442.00