File: data/xrd_creation/results/NSC_181.xy
9.903433 2826.00
9.968632 2812.00
10.0338 2801.00
10.099 2796.00
10.1642 2750.00
10.2294 2781.00
10.2946 2718.00
10.3598 2794.00
10.425 2711.00
10.4902 2757.00
10.5554 2781.00
10.6206 2672.00
10.6858 2716.00
10.751 2701.00
10.8162 2719.00
10.8814 2727.00
10.9466 2608.00
11.0118 2544.00
11.077 2541.00
11.1422 2541.00
11.2074 2482.00
11.2726 2504.00
11.3378 2522.00
11.403 2483.00
11.4682 2394.00
11.5334 2381.00
11.5986 2459.00
11.6638 2321.00
11.729 2383.00
11.7942 2301.00
11.8594 2296.00
11.9246 2381.00
11.9898 2301.00
12.055 2228.00
12.1202 2358.00
12.1854 2308.00
12.2506 2300.00
12.3158 2178.00
12.381 2308.00
12.4462 2213.00
12.5114 2190.00
12.5766 2218.00
12.6418 2243.00
12.707 2145.00
12.7722 2180.00
12.8374 2192.00
12.9026 2048.00
12.9678 2218.00
13.033 2150.00
13.0982 2073.00
13.1634 2085.00
13.2286 2235.00
13.2938 2211.00
13.359 2225.00
13.4242 2406.00
13.4894 2414.00
13.5546 2265.00
13.6198 2343.00
13.685 2420.00
13.7502 2528.00
13.8154 2240.00
13.8805 2236.00
13.9457 2111.00
14.0109 2223.00
14.0761 2443.00
14.1413 2759.00
14.2065 3061.00
14.2717 3543.00
14.3369 2751.00
14.4021 2000.00
14.4673 1955.00
14.5325 1930.00
14.5977 1936.00
14.6629 1922.00
14.7281 1803.00
14.7933 1808.00
14.8585 1921.00
14.9237 1851.00
14.9889 1913.00
15.0541 1784.00
15.1193 1847.00
15.1845 1795.00
15.2497 1776.00
15.3149 1884.00
15.3801 1870.00
15.4453 1764.00
15.5105 1775.00
15.5757 1768.00
15.6409 1782.00
15.7061 1737.00
15.7713 1785.00
15.8365 1833.00
15.9017 1764.00
15.9669 1749.00
16.0321 1712.00
16.0973 1865.00
16.1625 1835.00
16.2277 1806.00
16.2929 1793.00
16.3581 1795.00
16.4233 1837.00
16.4885 1756.00
16.5537 1703.00
16.6189 1585.00
16.6841 1689.00
16.7493 1712.00
16.8145 1683.00
16.8797 1650.00
16.9449 1590.00
17.0101 1626.00
17.0753 1628.00
17.1405 1628.00
17.2057 1699.00
17.2709 1717.00
17.3361 1717.00
17.4013 1840.00
17.4665 1834.00
17.5317 1811.00
17.5969 1624.00
17.6621 1646.00
17.7273 1617.00
17.7925 1652.00
17.8577 1568.00
17.9229 1536.00
17.9881 1560.00
18.0533 1513.00
18.1185 1587.00
18.1837 1533.00
18.2489 1463.00
18.3141 1473.00
18.3793 1577.00
18.4445 1518.00
18.5097 1383.00
18.5749 1424.00
18.6401 1471.00
18.7052 1515.00
18.7704 1455.00
18.8356 1455.00
18.9008 1441.00
18.966 1446.00
19.0312 1481.00
19.0964 1517.00
19.1616 1564.00
19.2268 1631.00
19.292 1675.00
19.3572 1580.00
19.4224 1469.00
19.4876 1492.00
19.5528 1462.00
19.618 1502.00
19.6832 1603.00
19.7484 1665.00
19.8136 1901.00
19.8788 2576.00
19.944 3596.00
20.0092 4931.00
20.0744 6183.00
20.1396 4067.00
20.2048 2051.00
20.27 1755.00
20.3352 1683.00
20.4004 1759.00
20.4656 1741.00
20.5308 1946.00
20.596 1899.00
20.6612 1733.00
20.7264 1617.00
20.7916 1683.00
20.8568 1795.00
20.922 2242.00
20.9872 3064.00
21.0524 5064.00
21.1176 7900.00
21.1828 10103.00
21.248 7550.00
21.3132 4614.00
21.3784 3490.00
21.4436 2563.00
21.5088 2416.00
21.574 2416.00
21.6392 2018.00
21.7044 1621.00
21.7696 1435.00
21.8348 1509.00
21.9 1434.00
21.9652 1382.00
22.0304 1476.00
22.0956 1399.00
22.1608 1459.00
22.226 1380.00
22.2912 1353.00
22.3564 1459.00
22.4216 1428.00
22.4868 1320.00
22.552 1320.00
22.6172 1217.00
22.6824 1268.00
22.7476 1243.00
22.8128 1295.00
22.878 1302.00
22.9432 1326.00
23.0084 1375.00
23.0736 1339.00
23.1388 1497.00
23.204 1637.00
23.2692 2017.00
23.3344 2490.00
23.3996 3845.00
23.4647 7056.00
23.5299 11885.00
23.5951 11419.00
23.6603 4680.00
23.7255 1796.00
23.7907 1480.00
23.8559 1432.00
23.9211 1410.00
23.9863 1342.00
24.0515 1333.00
24.1167 1276.00
24.1819 1437.00
24.2471 1554.00
24.3123 1912.00
24.3775 2598.00
24.4427 3579.00
24.5079 4504.00
24.5731 3666.00
24.6383 2291.00
24.7035 1672.00
24.7687 1482.00
24.8339 1352.00
24.8991 1231.00
24.9643 1163.00
25.0295 1181.00
25.0947 1138.00
25.1599 1199.00
25.2251 1098.00
25.2903 1145.00
25.3555 1205.00
25.4207 1115.00
25.4859 1232.00
25.5511 1253.00
25.6163 1274.00
25.6815 1153.00
25.7467 1127.00
25.8119 1124.00
25.8771 1096.00
25.9423 1072.00
26.0075 1086.00
26.0727 1046.00
26.1379 1078.00
26.2031 1139.00
26.2683 1048.00
26.3335 1121.00
26.3987 1057.00
26.4639 1090.00
26.5291 1013.00
26.5943 1001.00
26.6595 1031.00
26.7247 1031.00
26.7899 1082.00
26.8551 1053.00
26.9203 1069.00
26.9855 1097.00
27.0507 1105.00
27.1159 1004.00
27.1811 1097.00
27.2463 1017.00
27.3115 1110.00
27.3767 1027.00
27.4419 1008.00
27.5071 1001.00
27.5723 1049.00
27.6375 1002.00
27.7027 1001.00
27.7679 1013.00
27.8331 1059.00
27.8983 1074.00
27.9635 1072.00
28.0287 1065.00
28.0939 1060.00
28.1591 1024.00
28.2243 1200.00
28.2894 1764.00
28.3546 2781.00
28.4198 4299.00
28.485 3070.00
28.5502 1680.00
28.6154 1127.00
28.6806 1040.00
28.7458 984.00
28.811 983.00
28.8762 968.00
28.9414 900.00
29.0066 935.00
29.0718 910.00
29.137 909.00
29.2022 862.00
29.2674 907.00
29.3326 893.00
29.3978 863.00
29.463 914.00
29.5282 922.00
29.5934 945.00
29.6586 1016.00
29.7238 956.00
29.789 932.00
29.8542 915.00
29.9194 898.00
29.9846 1008.00
30.0498 1093.00
30.115 1119.00
30.1802 991.00
30.2454 898.00
30.3106 891.00
30.3758 837.00
30.441 843.00
30.5062 870.00
30.5714 968.00
30.6366 916.00
30.7018 977.00
30.767 1038.00
30.8322 1175.00
30.8974 1671.00
30.9626 3208.00
31.0278 5740.00
31.093 5707.00
31.1582 3119.00
31.2234 1311.00
31.2886 1105.00
31.3538 1185.00
31.419 1125.00
31.4842 1247.00
31.5494 1723.00
31.6146 3164.00
31.6798 6916.00
31.745 13065.00
31.8102 13460.00
31.8754 7489.00
31.9406 2832.00
32.0058 1773.00
32.071 1415.00
32.1362 1173.00
32.2014 1066.00
32.2666 925.00
32.3318 853.00
32.397 930.00
32.4622 904.00
32.5274 868.00
32.5926 861.00
32.6578 827.00
32.723 811.00
32.7882 844.00
32.8534 896.00
32.9186 839.00
32.9838 868.00
33.0489 897.00
33.1141 859.00
33.1793 782.00
33.2445 840.00
33.3097 808.00
33.3749 784.00
33.4401 730.00
33.5053 807.00
33.5705 785.00
33.6357 847.00
33.7009 901.00
33.7661 943.00
33.8313 883.00
33.8965 931.00
33.9617 905.00
34.0269 896.00
34.0921 899.00
34.1573 937.00
34.2225 1026.00
34.2877 1092.00
34.3529 1254.00
34.4181 1697.00
34.4833 2944.00
34.5485 4695.00
34.6137 5491.00
34.6789 5940.00
34.7441 6893.00
34.8093 7184.00
34.8745 7817.00
34.9397 10083.00
35.0049 10258.00
35.0701 6416.00
35.1353 3075.00
35.2005 1956.00
35.2657 1567.00
35.3309 1320.00
35.3961 1144.00
35.4613 1072.00
35.5265 1153.00
35.5917 1011.00
35.6569 905.00
35.7221 801.00
35.7873 753.00
35.8525 747.00
35.9177 762.00
35.9829 773.00
36.0481 816.00
36.1133 789.00
36.1785 778.00
36.2437 731.00
36.3089 741.00
36.3741 792.00
36.4393 764.00
36.5045 744.00
36.5697 750.00
36.6349 788.00
36.7001 816.00
36.7653 879.00
36.8305 851.00
36.8957 793.00
36.9609 847.00
37.0261 775.00
37.0913 789.00
37.1565 819.00
37.2217 841.00
37.2869 851.00
37.3521 769.00
37.4173 742.00
37.4825 636.00
37.5477 720.00
37.6129 682.00
37.6781 682.00
37.7433 659.00
37.8085 714.00
37.8736 727.00
37.9388 698.00
38.004 717.00
38.0692 729.00
38.1344 750.00
38.1996 747.00
38.2648 781.00
38.33 746.00
38.3952 687.00
38.4604 729.00
38.5256 694.00
38.5908 645.00
38.656 659.00
38.7212 676.00
38.7864 688.00
38.8516 692.00
38.9168 701.00
38.982 670.00
39.0472 700.00
39.1124 740.00
39.1776 631.00
39.2428 651.00
39.308 640.00
39.3732 635.00
39.4384 718.00
39.5036 723.00
39.5688 742.00
39.634 746.00
39.6992 660.00
39.7644 722.00
39.8296 714.00
39.8948 673.00
39.96 659.00
40.0252 637.00
40.0904 667.00
40.1556 688.00
40.2208 765.00
40.286 880.00
40.3512 1179.00
40.4164 1607.00
40.4816 1799.00
40.5468 1809.00
40.612 1330.00
40.6772 1108.00
40.7424 843.00
40.8076 850.00
40.8728 798.00
40.938 840.00
41.0032 815.00
41.0684 861.00
41.1336 935.00
41.1988 883.00
41.264 866.00
41.3292 841.00
41.3944 790.00
41.4596 755.00
41.5248 700.00
41.59 635.00
41.6552 633.00
41.7204 631.00
41.7856 639.00
41.8508 673.00
41.916 682.00
41.9812 651.00
42.0464 664.00
42.1116 719.00
42.1768 813.00
42.242 1021.00
42.3072 1557.00
42.3724 2509.00
42.4376 3946.00
42.5028 3475.00
42.568 2500.00
42.6332 1459.00
42.6983 1180.00
42.7635 1169.00
42.8287 1128.00
42.8939 1065.00
42.9591 1076.00
43.0243 1164.00
43.0895 1100.00
43.1547 1028.00
43.2199 839.00
43.2851 700.00
43.3503 769.00
43.4155 791.00
43.4807 698.00
43.5459 811.00
43.6111 699.00
43.6763 682.00
43.7415 707.00
43.8067 754.00
43.8719 834.00
43.9371 869.00
44.0023 922.00
44.0675 805.00
44.1327 710.00
44.1979 651.00
44.2631 648.00
44.3283 621.00
44.3935 606.00
44.4587 572.00
44.5239 580.00
44.5891 577.00
44.6543 570.00
44.7195 665.00
44.7847 618.00
44.8499 623.00
44.9151 659.00
44.9803 623.00
45.0455 680.00
45.1107 663.00
45.1759 670.00
45.2411 831.00
45.3063 1167.00
45.3715 2039.00
45.4367 2456.00
45.5019 2227.00
45.5671 1656.00
45.6323 1090.00
45.6975 748.00
45.7627 723.00
45.8279 660.00
45.8931 642.00
45.9583 580.00
46.0235 561.00
46.0887 540.00
46.1539 550.00
46.2191 551.00
46.2843 530.00
46.3495 583.00
46.4147 551.00
46.4799 556.00
46.5451 555.00
46.6103 543.00
46.6755 529.00
46.7407 580.00
46.8059 596.00
46.8711 593.00
46.9363 584.00
47.0015 585.00
47.0667 629.00
47.1319 723.00
47.1971 1016.00
47.2623 1234.00
47.3275 1031.00
47.3927 964.00
47.4579 795.00
47.523 819.00
47.5882 1011.00
47.6534 1535.00
47.7186 2808.00
47.7838 5095.00
47.849 5343.00
47.9142 3840.00
47.9794 2583.00
48.0446 1186.00
48.1098 837.00
48.175 634.00
48.2402 568.00
48.3054 600.00
48.3706 630.00
48.4358 627.00
48.501 606.00
48.5662 584.00
48.6314 556.00
48.6966 566.00
48.7618 526.00
48.827 503.00
48.8922 571.00
48.9574 550.00
49.0226 587.00
49.0878 573.00
49.153 573.00
49.2182 667.00
49.2834 700.00
49.3486 783.00
49.4138 1125.00
49.479 1486.00
49.5442 1723.00
49.6094 1644.00
49.6746 1515.00
49.7398 1378.00
49.805 1535.00
49.8702 1506.00
49.9354 1287.00
50.0006 1201.00
50.0658 1010.00
50.131 1019.00
50.1962 980.00
50.2614 906.00
50.3266 935.00
50.3918 839.00
50.457 724.00
50.5222 671.00
50.5874 679.00
50.6526 704.00
50.7178 669.00
50.783 671.00
50.8482 714.00
50.9134 658.00
50.9786 651.00
51.0438 632.00
51.109 546.00
51.1742 556.00
51.2394 552.00
51.3046 531.00
51.3698 522.00
51.435 583.00
51.5002 626.00
51.5654 869.00
51.6306 1501.00
51.6958 2073.00
51.761 1650.00
51.8262 1551.00
51.8914 1057.00
51.9566 946.00
52.0218 1077.00
52.087 1630.00
52.1522 1876.00
52.2174 1423.00
52.2826 1257.00
52.3477 890.00
52.4129 639.00
52.4781 598.00
52.5433 538.00
52.6085 588.00
52.6737 607.00
52.7389 707.00
52.8041 735.00
52.8693 731.00
52.9345 664.00
52.9997 657.00
53.0649 584.00
53.1301 518.00
53.1953 484.00
53.2605 532.00
53.3257 506.00
53.3909 469.00
53.4561 475.00
53.5213 501.00
53.5865 569.00
53.6517 573.00
53.7169 547.00
53.7821 516.00
53.8473 552.00
53.9125 549.00
53.9777 520.00
54.0429 539.00
54.1081 560.00
54.1733 692.00
54.2385 831.00
54.3037 1290.00
54.3689 1945.00
54.4341 2728.00
54.4993 1826.00
54.5645 1686.00
54.6297 1116.00
54.6949 658.00
54.7601 588.00
54.8253 598.00
54.8905 527.00
54.9557 556.00
55.0209 545.00
55.0861 588.00
55.1513 600.00
55.2165 554.00
55.2817 533.00
55.3469 543.00
55.4121 529.00
55.4773 477.00
55.5425 484.00
55.6077 492.00
55.6729 470.00
55.7381 483.00
55.8033 627.00
55.8685 802.00
55.9337 1124.00
55.9989 1032.00
56.0641 784.00
56.1293 766.00
56.1945 515.00
56.2597 502.00
56.3249 488.00
56.3901 471.00
56.4553 553.00
56.5205 572.00
56.5857 516.00
56.6509 501.00
56.7161 497.00
56.7813 465.00
56.8465 462.00
56.9117 492.00
56.9769 505.00
57.042 482.00
57.1073 443.00
57.1724 528.00
57.2376 474.00
57.3028 485.00
57.368 498.00
57.4332 434.00
57.4984 418.00
57.5636 431.00
57.6288 464.00
57.694 442.00
57.7592 475.00
57.8244 408.00
57.8896 467.00
57.9548 440.00
58.02 451.00
58.0852 465.00
58.1504 497.00
58.2156 484.00
58.2808 511.00
58.346 567.00
58.4112 589.00
58.4764 488.00
58.5416 520.00
58.6068 485.00
58.672 465.00
58.7372 440.00
58.8024 406.00
58.8676 441.00
58.9328 449.00
58.998 408.00
59.0632 417.00
59.1284 401.00
59.1936 419.00
59.2588 448.00
59.324 408.00
59.3892 415.00
59.4544 466.00
59.5196 446.00
59.5848 469.00
59.65 415.00
59.7152 438.00
59.7804 419.00
59.8456 501.00
59.9108 596.00
59.976 612.00
60.0412 649.00
60.1064 744.00
60.1716 831.00
60.2368 1016.00
60.302 1648.00
60.3672 2333.00
60.4324 3003.00
60.4976 2059.00
60.5628 1712.00
60.628 1426.00
60.6932 829.00
60.7584 643.00
60.8236 547.00
60.8888 500.00
60.954 527.00
61.0192 453.00
61.0844 458.00
61.1496 485.00
61.2148 463.00
61.28 512.00
61.3452 514.00
61.4104 511.00
61.4756 561.00
61.5408 654.00
61.606 835.00
61.6712 1060.00
61.7364 1334.00
61.8016 1346.00
61.8667 1225.00
61.932 1248.00
61.9971 1195.00
62.0623 1330.00
62.1275 1708.00
62.1927 1829.00
62.2579 1696.00
62.3231 1858.00
62.3883 2126.00
62.4535 1641.00
62.5187 1222.00
62.5839 1190.00
62.6491 937.00
62.7143 793.00
62.7795 696.00
62.8447 602.00
62.9099 604.00
62.9751 532.00
63.0403 525.00
63.1055 470.00
63.1707 500.00
63.2359 487.00
63.3011 503.00
63.3663 474.00
63.4315 509.00
63.4967 486.00
63.5619 643.00
63.6271 771.00
63.6923 769.00
63.7575 745.00
63.8227 915.00
63.8879 885.00
63.9531 868.00
64.0183 990.00
64.0835 814.00
64.1487 850.00
64.2139 740.00
64.2791 651.00
64.3443 553.00
64.4095 467.00
64.4747 429.00
64.5399 428.00
64.6051 425.00
64.6703 402.00
64.7355 417.00
64.8007 421.00
64.8659 383.00
64.9311 373.00
64.9963 406.00
65.0615 407.00
65.1267 429.00
65.1919 423.00
65.2571 408.00
65.3223 397.00
65.3875 419.00
65.4527 435.00
65.5179 441.00
65.5831 403.00
65.6483 422.00
65.7135 494.00
65.7787 484.00
65.8439 546.00
65.9091 557.00
65.9743 573.00
66.0395 537.00
66.1047 581.00
66.1699 625.00
66.2351 481.00
66.3003 458.00
66.3655 475.00
66.4307 414.00
66.4959 435.00
66.561 442.00
66.6263 411.00
66.6915 389.00
66.7566 427.00
66.8218 415.00
66.887 462.00
66.9522 481.00
67.0174 515.00
67.0826 572.00
67.1478 613.00
67.213 795.00
67.2782 790.00
67.3434 741.00
67.4086 862.00
67.4738 1147.00
67.539 1434.00
67.6042 1327.00
67.6694 1084.00
67.7346 1134.00
67.7998 921.00
67.865 750.00
67.9302 681.00
67.9954 571.00
68.0606 535.00
68.1258 444.00
68.191 377.00
68.2562 415.00
68.3214 360.00
68.3866 395.00
68.4518 362.00
68.517 373.00
68.5822 385.00
68.6474 376.00
68.7126 319.00
68.7778 370.00
68.843 358.00
68.9082 338.00
68.9734 387.00
69.0386 361.00
69.1038 364.00
69.169 409.00
69.2342 404.00
69.2994 419.00
69.3646 403.00
69.4298 424.00
69.495 441.00
69.5602 442.00
69.6254 485.00
69.6906 499.00
69.7558 808.00
69.821 1078.00
69.8862 717.00
69.9514 655.00
70.0166 736.00
70.0818 539.00
70.147 417.00
70.2122 396.00
70.2774 414.00
70.3426 359.00
70.4078 365.00
70.473 378.00
70.5382 389.00
70.6034 410.00
70.6686 383.00
70.7338 372.00
70.799 391.00
70.8642 447.00
70.9294 539.00
70.9946 608.00
71.0598 683.00
71.125 928.00
71.1902 847.00
71.2554 642.00
71.3205 638.00
71.3858 592.00
71.451 440.00
71.5162 359.00
71.5813 377.00
71.6465 355.00
71.7117 344.00
71.7769 384.00
71.8421 337.00
71.9073 333.00
71.9725 347.00
72.0377 364.00
72.1029 350.00
72.1681 377.00
72.2333 366.00
72.2985 407.00
72.3637 480.00
72.4289 517.00
72.4941 471.00
72.5593 529.00
72.6245 554.00
72.6897 450.00
72.7549 489.00
72.8201 518.00
72.8853 555.00
72.9505 591.00
73.0157 590.00
73.0809 577.00
73.1461 596.00
73.2113 591.00
73.2765 695.00
73.3417 918.00
73.4069 1481.00
73.4721 1160.00
73.5373 789.00
73.6025 987.00
73.6677 830.00
73.7329 449.00
73.7981 441.00
73.8633 382.00
73.9285 377.00
73.9937 403.00
74.0589 374.00
74.1241 335.00
74.1893 338.00
74.2545 338.00
74.3197 348.00
74.3849 402.00
74.4501 365.00
74.5153 427.00
74.5805 602.00
74.6457 754.00
74.7109 690.00
74.7761 592.00
74.8413 629.00
74.9065 696.00
74.9717 556.00
75.0369 484.00
75.1021 460.00
75.1673 506.00
75.2325 419.00
75.2977 391.00
75.3629 386.00
75.4281 376.00
75.4933 342.00
75.5585 361.00
75.6237 345.00
75.6889 326.00
75.7541 289.00
75.8193 293.00
75.8845 326.00
75.9497 322.00
76.0149 333.00
76.0801 322.00
76.1452 312.00
76.2104 336.00
76.2756 337.00
76.3409 353.00
76.406 377.00
76.4712 396.00
76.5364 461.00
76.6016 434.00
76.6668 405.00
76.732 407.00
76.7972 398.00
76.8624 430.00
76.9276 375.00
76.9928 374.00
77.058 410.00
77.1232 373.00
77.1884 411.00
77.2536 326.00
77.3188 331.00
77.384 378.00
77.4492 347.00
77.5144 392.00
77.5796 324.00
77.6448 369.00
77.71 364.00
77.7752 389.00
77.8404 395.00
77.9056 457.00
77.9708 456.00
78.036 534.00
78.1012 470.00
78.1664 559.00
78.2316 572.00
78.2968 451.00
78.362 436.00
78.4272 479.00
78.4924 469.00
78.5576 437.00
78.6228 413.00
78.688 345.00
78.7532 362.00
78.8184 356.00
78.8836 363.00
78.9488 296.00
79.014 307.00
79.0792 331.00
79.1444 344.00
79.2096 344.00
79.2748 341.00
79.34 300.00
79.4052 346.00
79.4704 344.00
79.5356 350.00
79.6008 329.00
79.666 314.00
79.7312 336.00
79.7964 294.00
79.8616 306.00
79.9268 294.00
79.992 290.00
80.0572 297.00
80.1224 295.00
80.1876 304.00
80.2528 286.00
80.318 321.00
80.3832 304.00
80.4484 316.00
80.5136 306.00
80.5788 290.00
80.644 326.00
80.7092 347.00
80.7744 306.00
80.8396 313.00
80.9048 316.00
80.9699 297.00
81.0351 335.00
81.1003 336.00
81.1655 366.00
81.2307 369.00
81.2959 369.00
81.3611 387.00
81.4263 455.00
81.4915 454.00
81.5567 459.00
81.6219 508.00
81.6871 562.00
81.7523 519.00
81.8175 593.00
81.8827 630.00
81.9479 672.00
82.0131 898.00
82.0783 942.00
82.1435 607.00
82.2087 483.00
82.2739 678.00
82.3391 610.00
82.4043 454.00
82.4695 460.00
82.5347 414.00
82.5999 421.00
82.6651 527.00
82.7303 477.00
82.7955 506.00
82.8607 509.00
82.9259 483.00
82.9911 512.00
83.0563 406.00
83.1215 359.00
83.1867 383.00
83.2519 375.00
83.3171 357.00
83.3823 342.00
83.4475 431.00
83.5127 410.00
83.5779 567.00
83.6431 658.00
83.7083 733.00
83.7735 672.00
83.8387 586.00
83.9039 603.00
83.9691 551.00
84.0343 504.00
84.0995 409.00
84.1647 346.00
84.2299 345.00
84.2951 344.00
84.3603 338.00
84.4255 334.00
84.4907 346.00
84.5559 304.00
84.6211 342.00
84.6863 314.00
84.7515 358.00
84.8167 406.00
84.8819 529.00
84.9471 522.00
85.0123 450.00
85.0775 458.00
85.1427 493.00
85.2079 475.00
85.2731 420.00
85.3383 376.00
85.4035 320.00
85.4687 307.00
85.5339 311.00
85.5991 287.00
85.6643 311.00
85.7295 308.00
85.7946 302.00
85.8598 271.00
85.925 308.00
85.9903 294.00
86.0554 303.00
86.1206 318.00
86.1858 339.00
86.251 303.00
86.3162 329.00
86.3814 316.00
86.4466 321.00
86.5118 292.00
86.577 330.00
86.6422 312.00
86.7074 278.00
86.7726 301.00
86.8378 307.00
86.903 315.00
86.9682 293.00
87.0334 310.00
87.0986 317.00
87.1638 300.00
87.229 330.00
87.2942 308.00
87.3594 302.00
87.4246 329.00
87.4898 337.00
87.555 289.00
87.6202 339.00
87.6854 290.00
87.7506 323.00
87.8158 318.00
87.881 326.00
87.9462 351.00
88.0114 336.00
88.0766 381.00
88.1418 396.00
88.207 452.00
88.2722 441.00
88.3374 555.00
88.4026 542.00
88.4678 608.00
88.533 562.00
88.5982 585.00
88.6634 664.00
88.7286 866.00
88.7938 801.00
88.859 644.00
88.9242 548.00
88.9894 583.00
89.0546 541.00
89.1198 472.00
89.185 403.00
89.2502 358.00
89.3154 335.00
89.3806 324.00
89.4458 325.00
89.511 282.00
89.5762 347.00
89.6414 286.00
89.7066 339.00
89.7718 330.00
89.837 346.00
89.9022 345.00
89.9674 421.00
90.0326 362.00
90.0978 383.00
90.163 389.00
90.2282 418.00
90.2934 388.00
90.3586 392.00
90.4238 373.00
90.489 405.00
90.5542 376.00
90.6193 359.00
90.6845 360.00
90.7497 364.00
90.8149 378.00
90.8801 330.00
90.9453 316.00
91.0105 299.00
91.0757 334.00
91.1409 325.00
91.2061 294.00
91.2713 304.00
91.3365 296.00
91.4017 312.00
91.4669 364.00
91.5321 336.00
91.5973 380.00
91.6625 454.00
91.7277 440.00
91.7929 441.00
91.8581 493.00
91.9233 467.00
91.9885 466.00
92.0537 407.00
92.1189 489.00
92.1841 547.00
92.2493 544.00
92.3145 466.00
92.3797 393.00
92.4449 339.00
92.5101 387.00
92.5753 407.00
92.6405 325.00
92.7057 326.00
92.7709 350.00
92.8361 297.00
92.9013 364.00
92.9665 354.00
93.0317 306.00
93.0969 365.00
93.1621 328.00
93.2273 346.00
93.2925 336.00
93.3577 348.00
93.4229 366.00
93.4881 338.00
93.5533 365.00
93.6185 424.00
93.6837 416.00
93.7489 464.00
93.8141 568.00
93.8793 528.00
93.9445 527.00
94.0097 510.00
94.0749 471.00
94.1401 432.00
94.2053 398.00
94.2705 426.00
94.3357 367.00
94.4009 338.00
94.4661 361.00
94.5313 317.00
94.5965 319.00
94.6617 308.00
94.7269 314.00
94.7921 305.00
94.8573 327.00
94.9225 350.00
94.9877 377.00
95.0529 314.00
95.1181 407.00
95.1833 437.00
95.2485 488.00
95.3137 487.00
95.3789 524.00
95.444 577.00
95.5092 536.00
95.5744 501.00
95.6396 435.00
95.7048 457.00
95.77 421.00
95.8352 399.00
95.9004 399.00
95.9656 317.00
96.0308 338.00
96.096 321.00
96.1612 336.00
96.2264 271.00
96.2916 334.00
96.3568 298.00
96.422 319.00
96.4872 290.00
96.5524 318.00
96.6176 321.00
96.6828 316.00
96.748 346.00
96.8132 341.00
96.8784 371.00
96.9436 371.00
97.0088 352.00
97.074 372.00
97.1392 373.00
97.2044 389.00
97.2696 497.00
97.3348 450.00
97.4 439.00
97.4652 356.00
97.5304 321.00
97.5956 411.00
97.6608 396.00
97.726 363.00
97.7912 357.00
97.8564 336.00
97.9216 384.00
97.9868 318.00
98.052 381.00
98.1172 365.00
98.1824 362.00
98.2476 378.00
98.3128 329.00
98.378 360.00
98.4432 356.00
98.5084 454.00
98.5736 446.00
98.6388 492.00
98.704 402.00
98.7692 356.00
98.8344 375.00
98.8996 369.00
98.9648 428.00
99.03 371.00
99.0952 322.00
99.1604 322.00
99.2256 328.00
99.2908 323.00
99.356 325.00
99.4212 311.00
99.4864 331.00
99.5516 309.00
99.6168 333.00
99.682 301.00
99.7472 290.00
99.8124 271.00
99.8776 280.00
99.9428 310.00
100.008 330.00
100.073 298.00
100.095 337.00