File: data/xrd_creation/results/NSC_200.xy
9.903433 2822.00
9.968632 2829.00
10.0338 2755.00
10.099 2766.00
10.1642 2690.00
10.2294 2787.00
10.2946 2769.00
10.3598 2656.00
10.425 2760.00
10.4902 2778.00
10.5554 2737.00
10.6206 2660.00
10.6858 2806.00
10.751 2711.00
10.8162 2709.00
10.8814 2746.00
10.9466 2687.00
11.0118 2612.00
11.077 2490.00
11.1422 2572.00
11.2074 2452.00
11.2726 2533.00
11.3378 2507.00
11.403 2379.00
11.4682 2396.00
11.5334 2380.00
11.5986 2421.00
11.6638 2322.00
11.729 2238.00
11.7942 2368.00
11.8594 2294.00
11.9246 2332.00
11.9898 2244.00
12.055 2180.00
12.1202 2147.00
12.1854 2323.00
12.2506 2330.00
12.3158 2225.00
12.381 2221.00
12.4462 2254.00
12.5114 2247.00
12.5766 2211.00
12.6418 2187.00
12.707 2217.00
12.7722 2200.00
12.8374 2154.00
12.9026 2137.00
12.9678 2103.00
13.033 2228.00
13.0982 2231.00
13.1634 2179.00
13.2286 2145.00
13.2938 2047.00
13.359 2135.00
13.4242 2184.00
13.4894 2063.00
13.5546 2138.00
13.6198 2114.00
13.685 2097.00
13.7502 2269.00
13.8154 2164.00
13.8805 2206.00
13.9457 2249.00
14.0109 2371.00
14.0761 2310.00
14.1413 2265.00
14.2065 2088.00
14.2717 2137.00
14.3369 2109.00
14.4021 2083.00
14.4673 2053.00
14.5325 2134.00
14.5977 2203.00
14.6629 2240.00
14.7281 2393.00
14.7933 2589.00
14.8585 2772.00
14.9237 3177.00
14.9889 3455.00
15.0541 3009.00
15.1193 2503.00
15.1845 2142.00
15.2497 2146.00
15.3149 2058.00
15.3801 2007.00
15.4453 2055.00
15.5105 2105.00
15.5757 2029.00
15.6409 1890.00
15.7061 1904.00
15.7713 1886.00
15.8365 2023.00
15.9017 1885.00
15.9669 2030.00
16.0321 1935.00
16.0973 1932.00
16.1625 1989.00
16.2277 1944.00
16.2929 1946.00
16.3581 1907.00
16.4233 1904.00
16.4885 1893.00
16.5537 1943.00
16.6189 1933.00
16.6841 1982.00
16.7493 1956.00
16.8145 1894.00
16.8797 1964.00
16.9449 2007.00
17.0101 2053.00
17.0753 2000.00
17.1405 2052.00
17.2057 1980.00
17.2709 2020.00
17.3361 1965.00
17.4013 1840.00
17.4665 1926.00
17.5317 1918.00
17.5969 1984.00
17.6621 1937.00
17.7273 2161.00
17.7925 2184.00
17.8577 2294.00
17.9229 2267.00
17.9881 1997.00
18.0533 1865.00
18.1185 1793.00
18.1837 1860.00
18.2489 1864.00
18.3141 1751.00
18.3793 1762.00
18.4445 1790.00
18.5097 1809.00
18.5749 1729.00
18.6401 1716.00
18.7052 1828.00
18.7704 1702.00
18.8356 1841.00
18.9008 1879.00
18.966 1788.00
19.0312 1852.00
19.0964 1757.00
19.1616 1888.00
19.2268 1900.00
19.292 2004.00
19.3572 2001.00
19.4224 2183.00
19.4876 2591.00
19.5528 3157.00
19.618 3620.00
19.6832 3987.00
19.7484 3986.00
19.8136 3563.00
19.8788 3216.00
19.944 2747.00
20.0092 2510.00
20.0744 2238.00
20.1396 2102.00
20.2048 2086.00
20.27 1894.00
20.3352 1895.00
20.4004 1966.00
20.4656 2042.00
20.5308 2064.00
20.596 2098.00
20.6612 2035.00
20.7264 2040.00
20.7916 2172.00
20.8568 2410.00
20.922 2750.00
20.9872 3018.00
21.0524 2966.00
21.1176 2562.00
21.1828 2564.00
21.248 2868.00
21.3132 3150.00
21.3784 3493.00
21.4436 3464.00
21.5088 3595.00
21.574 4004.00
21.6392 3885.00
21.7044 3347.00
21.7696 2856.00
21.8348 2372.00
21.9 2310.00
21.9652 1970.00
22.0304 1980.00
22.0956 1981.00
22.1608 1913.00
22.226 1983.00
22.2912 2083.00
22.3564 2362.00
22.4216 2780.00
22.4868 3078.00
22.552 3711.00
22.6172 3917.00
22.6824 4061.00
22.7476 3923.00
22.8128 3243.00
22.878 2486.00
22.9432 2205.00
23.0084 1920.00
23.0736 2112.00
23.1388 2230.00
23.204 2142.00
23.2692 2080.00
23.3344 1986.00
23.3996 1936.00
23.4647 1978.00
23.5299 1881.00
23.5951 1714.00
23.6603 1718.00
23.7255 1651.00
23.7907 1696.00
23.8559 1653.00
23.9211 1796.00
23.9863 1881.00
24.0515 1871.00
24.1167 2075.00
24.1819 2457.00
24.2471 2571.00
24.3123 2769.00
24.3775 2928.00
24.4427 3032.00
24.5079 3087.00
24.5731 2730.00
24.6383 2415.00
24.7035 2244.00
24.7687 2361.00
24.8339 2595.00
24.8991 2759.00
24.9643 2771.00
25.0295 2169.00
25.0947 1798.00
25.1599 1746.00
25.2251 1613.00
25.2903 1586.00
25.3555 1590.00
25.4207 1511.00
25.4859 1583.00
25.5511 1650.00
25.6163 1526.00
25.6815 1558.00
25.7467 1568.00
25.8119 1645.00
25.8771 1588.00
25.9423 1712.00
26.0075 1838.00
26.0727 1975.00
26.1379 1777.00
26.2031 1730.00
26.2683 1533.00
26.3335 1581.00
26.3987 1654.00
26.4639 1620.00
26.5291 1714.00
26.5943 1606.00
26.6595 1600.00
26.7247 1586.00
26.7899 1578.00
26.8551 1546.00
26.9203 1576.00
26.9855 1617.00
27.0507 1690.00
27.1159 1587.00
27.1811 1572.00
27.2463 1716.00
27.3115 1662.00
27.3767 1621.00
27.4419 1584.00
27.5071 1627.00
27.5723 1670.00
27.6375 1607.00
27.7027 1792.00
27.7679 2106.00
27.8331 2329.00
27.8983 2678.00
27.9635 2659.00
28.0287 2529.00
28.0939 2411.00
28.1591 2398.00
28.2243 2663.00
28.2894 2930.00
28.3546 3819.00
28.4198 5234.00
28.485 7652.00
28.5502 9086.00
28.6154 9878.00
28.6806 9921.00
28.7458 7869.00
28.811 5185.00
28.8762 3467.00
28.9414 2618.00
29.0066 2206.00
29.0718 2042.00
29.137 1818.00
29.2022 1730.00
29.2674 1665.00
29.3326 1653.00
29.3978 1707.00
29.463 1650.00
29.5282 1712.00
29.5934 1748.00
29.6586 1655.00
29.7238 1579.00
29.789 1673.00
29.8542 1648.00
29.9194 1671.00
29.9846 1720.00
30.0498 1621.00
30.115 1655.00
30.1802 1608.00
30.2454 1639.00
30.3106 1715.00
30.3758 1715.00
30.441 1833.00
30.5062 1932.00
30.5714 2006.00
30.6366 2098.00
30.7018 2202.00
30.767 2400.00
30.8322 2787.00
30.8974 3608.00
30.9626 4288.00
31.0278 4571.00
31.093 4501.00
31.1582 4186.00
31.2234 3775.00
31.2886 3127.00
31.3538 2847.00
31.419 2583.00
31.4842 2563.00
31.5494 2852.00
31.6146 3429.00
31.6798 4231.00
31.745 5337.00
31.8102 6399.00
31.8754 7056.00
31.9406 7508.00
32.0058 7261.00
32.071 5492.00
32.1362 3803.00
32.2014 2772.00
32.2666 2476.00
32.3318 2332.00
32.397 2193.00
32.4622 2115.00
32.5274 2032.00
32.5926 1898.00
32.6578 1844.00
32.723 1791.00
32.7882 1773.00
32.8534 1779.00
32.9186 1924.00
32.9838 1872.00
33.0489 2098.00
33.1141 2127.00
33.1793 2322.00
33.2445 2609.00
33.3097 2952.00
33.3749 3092.00
33.4401 3126.00
33.5053 2816.00
33.5705 2627.00
33.6357 2456.00
33.7009 2497.00
33.7661 2505.00
33.8313 2722.00
33.8965 2707.00
33.9617 2646.00
34.0269 2750.00
34.0921 3026.00
34.1573 3488.00
34.2225 3993.00
34.2877 4677.00
34.3529 5969.00
34.4181 6804.00
34.4833 6790.00
34.5485 6270.00
34.6137 5609.00
34.6789 4693.00
34.7441 4043.00
34.8093 3516.00
34.8745 3412.00
34.9397 3558.00
35.0049 3279.00
35.0701 2662.00
35.1353 2053.00
35.2005 1841.00
35.2657 1652.00
35.3309 1616.00
35.3961 1628.00
35.4613 1740.00
35.5265 1888.00
35.5917 2220.00
35.6569 2386.00
35.7221 2696.00
35.7873 3165.00
35.8525 3421.00
35.9177 2837.00
35.9829 2251.00
36.0481 1999.00
36.1133 1785.00
36.1785 1877.00
36.2437 1921.00
36.3089 1937.00
36.3741 2022.00
36.4393 1823.00
36.5045 1684.00
36.5697 1530.00
36.6349 1558.00
36.7001 1455.00
36.7653 1521.00
36.8305 1469.00
36.8957 1465.00
36.9609 1528.00
37.0261 1533.00
37.0913 1485.00
37.1565 1438.00
37.2217 1492.00
37.2869 1408.00
37.3521 1374.00
37.4173 1307.00
37.4825 1360.00
37.5477 1390.00
37.6129 1391.00
37.6781 1354.00
37.7433 1348.00
37.8085 1386.00
37.8736 1363.00
37.9388 1331.00
38.004 1281.00
38.0692 1264.00
38.1344 1301.00
38.1996 1294.00
38.2648 1187.00
38.33 1272.00
38.3952 1253.00
38.4604 1269.00
38.5256 1245.00
38.5908 1283.00
38.656 1343.00
38.7212 1363.00
38.7864 1397.00
38.8516 1568.00
38.9168 1591.00
38.982 1682.00
39.0472 1842.00
39.1124 1990.00
39.1776 1889.00
39.2428 1636.00
39.308 1471.00
39.3732 1432.00
39.4384 1448.00
39.5036 1378.00
39.5688 1481.00
39.634 1426.00
39.6992 1590.00
39.7644 1585.00
39.8296 1618.00
39.8948 1584.00
39.96 1589.00
40.0252 1562.00
40.0904 1507.00
40.1556 1424.00
40.2208 1405.00
40.286 1298.00
40.3512 1377.00
40.4164 1307.00
40.4816 1405.00
40.5468 1407.00
40.612 1444.00
40.6772 1281.00
40.7424 1363.00
40.8076 1494.00
40.8728 1516.00
40.938 1670.00
41.0032 1989.00
41.0684 2127.00
41.1336 2371.00
41.1988 2559.00
41.264 2771.00
41.3292 2870.00
41.3944 2685.00
41.4596 2360.00
41.5248 2215.00
41.59 2136.00
41.6552 2144.00
41.7204 2070.00
41.7856 2063.00
41.8508 2044.00
41.916 2006.00
41.9812 1976.00
42.0464 1839.00
42.1116 1725.00
42.1768 1600.00
42.242 1450.00
42.3072 1550.00
42.3724 1467.00
42.4376 1491.00
42.5028 1411.00
42.568 1331.00
42.6332 1328.00
42.6983 1322.00
42.7635 1273.00
42.8287 1284.00
42.8939 1229.00
42.9591 1317.00
43.0243 1247.00
43.0895 1347.00
43.1547 1394.00
43.2199 1375.00
43.2851 1393.00
43.3503 1466.00
43.4155 1534.00
43.4807 1586.00
43.5459 1612.00
43.6111 1590.00
43.6763 1524.00
43.7415 1470.00
43.8067 1407.00
43.8719 1376.00
43.9371 1367.00
44.0023 1233.00
44.0675 1390.00
44.1327 1263.00
44.1979 1251.00
44.2631 1405.00
44.3283 1321.00
44.3935 1327.00
44.4587 1425.00
44.5239 1481.00
44.5891 1525.00
44.6543 1656.00
44.7195 1594.00
44.7847 1706.00
44.8499 1666.00
44.9151 1631.00
44.9803 1657.00
45.0455 1725.00
45.1107 1770.00
45.1759 1856.00
45.2411 1867.00
45.3063 1878.00
45.3715 1909.00
45.4367 1817.00
45.5019 1748.00
45.5671 1655.00
45.6323 1713.00
45.6975 1694.00
45.7627 1813.00
45.8279 1800.00
45.8931 1867.00
45.9583 1879.00
46.0235 1872.00
46.0887 1965.00
46.1539 1758.00
46.2191 1692.00
46.2843 1559.00
46.3495 1529.00
46.4147 1545.00
46.4799 1465.00
46.5451 1538.00
46.6103 1585.00
46.6755 1629.00
46.7407 1649.00
46.8059 1783.00
46.8711 1786.00
46.9363 1889.00
47.0015 1898.00
47.0667 1832.00
47.1319 1874.00
47.1971 1773.00
47.2623 1707.00
47.3275 1796.00
47.3927 1851.00
47.4579 1726.00
47.523 1703.00
47.5882 1534.00
47.6534 1569.00
47.7186 1404.00
47.7838 1320.00
47.849 1324.00
47.9142 1266.00
47.9794 1301.00
48.0446 1348.00
48.1098 1334.00
48.175 1371.00
48.2402 1369.00
48.3054 1376.00
48.3706 1404.00
48.4358 1416.00
48.501 1438.00
48.5662 1431.00
48.6314 1397.00
48.6966 1330.00
48.7618 1369.00
48.827 1344.00
48.8922 1304.00
48.9574 1334.00
49.0226 1410.00
49.0878 1519.00
49.153 1546.00
49.2182 1681.00
49.2834 1784.00
49.3486 1927.00
49.4138 1935.00
49.479 2107.00
49.5442 2174.00
49.6094 2088.00
49.6746 2215.00
49.7398 2263.00
49.805 2440.00
49.8702 2571.00
49.9354 2370.00
50.0006 2112.00
50.0658 1754.00
50.131 1565.00
50.1962 1512.00
50.2614 1508.00
50.3266 1674.00
50.3918 1999.00
50.457 2207.00
50.5222 2212.00
50.5874 2309.00
50.6526 2614.00
50.7178 3083.00
50.783 3335.00
50.8482 3174.00
50.9134 2934.00
50.9786 2620.00
51.0438 2443.00
51.109 2374.00
51.1742 2373.00
51.2394 2262.00
51.3046 2093.00
51.3698 1904.00
51.435 1810.00
51.5002 1669.00
51.5654 1585.00
51.6306 1593.00
51.6958 1572.00
51.761 1640.00
51.8262 1703.00
51.8914 1748.00
51.9566 1584.00
52.0218 1572.00
52.087 1528.00
52.1522 1401.00
52.2174 1495.00
52.2826 1435.00
52.3477 1472.00
52.4129 1399.00
52.4781 1381.00
52.5433 1394.00
52.6085 1414.00
52.6737 1452.00
52.7389 1446.00
52.8041 1432.00
52.8693 1411.00
52.9345 1384.00
52.9997 1315.00
53.0649 1450.00
53.1301 1448.00
53.1953 1549.00
53.2605 1535.00
53.3257 1618.00
53.3909 1636.00
53.4561 1713.00
53.5213 1647.00
53.5865 1757.00
53.6517 1750.00
53.7169 1643.00
53.7821 1613.00
53.8473 1625.00
53.9125 1617.00
53.9777 1636.00
54.0429 1643.00
54.1081 1609.00
54.1733 1757.00
54.2385 1702.00
54.3037 1769.00
54.3689 1851.00
54.4341 1865.00
54.4993 1858.00
54.5645 1868.00
54.6297 1989.00
54.6949 2057.00
54.7601 2087.00
54.8253 1936.00
54.8905 1832.00
54.9557 1742.00
55.0209 1660.00
55.0861 1543.00
55.1513 1531.00
55.2165 1519.00
55.2817 1465.00
55.3469 1434.00
55.4121 1541.00
55.4773 1619.00
55.5425 1769.00
55.6077 1768.00
55.6729 1952.00
55.7381 2009.00
55.8033 2090.00
55.8685 2255.00
55.9337 2426.00
55.9989 2387.00
56.0641 2355.00
56.1293 2353.00
56.1945 2221.00
56.2597 2076.00
56.3249 1995.00
56.3901 1803.00
56.4553 1737.00
56.5205 1881.00
56.5857 1896.00
56.6509 1891.00
56.7161 1766.00
56.7813 1668.00
56.8465 1630.00
56.9117 1476.00
56.9769 1355.00
57.042 1300.00
57.1073 1281.00
57.1724 1354.00
57.2376 1405.00
57.3028 1444.00
57.368 1508.00
57.4332 1600.00
57.4984 1663.00
57.5636 1720.00
57.6288 1756.00
57.694 1827.00
57.7592 1940.00
57.8244 2040.00
57.8896 2136.00
57.9548 2012.00
58.02 1847.00
58.0852 1772.00
58.1504 1700.00
58.2156 1687.00
58.2808 1634.00
58.346 1538.00
58.4112 1692.00
58.4764 1697.00
58.5416 1806.00
58.6068 1976.00
58.672 1811.00
58.7372 1792.00
58.8024 1741.00
58.8676 1701.00
58.9328 1699.00
58.998 1732.00
59.0632 1688.00
59.1284 1742.00
59.1936 1762.00
59.2588 1762.00
59.324 1738.00
59.3892 1633.00
59.4544 1553.00
59.5196 1555.00
59.5848 1467.00
59.65 1467.00
59.7152 1434.00
59.7804 1458.00
59.8456 1413.00
59.9108 1510.00
59.976 1480.00
60.0412 1624.00
60.1064 1795.00
60.1716 1871.00
60.2368 1992.00
60.302 1988.00
60.3672 2081.00
60.4324 2191.00
60.4976 2226.00
60.5628 2271.00
60.628 2256.00
60.6932 2156.00
60.7584 2006.00
60.8236 1960.00
60.8888 1776.00
60.954 1686.00
61.0192 1722.00
61.0844 1608.00
61.1496 1558.00
61.2148 1654.00
61.28 1768.00
61.3452 1776.00
61.4104 1757.00
61.4756 1825.00
61.5408 1722.00
61.606 1658.00
61.6712 1639.00
61.7364 1612.00
61.8016 1641.00
61.8667 1665.00
61.932 1708.00
61.9971 1686.00
62.0623 1656.00
62.1275 1795.00
62.1927 1652.00
62.2579 1651.00
62.3231 1608.00
62.3883 1680.00
62.4535 1758.00
62.5187 1767.00
62.5839 1781.00
62.6491 1750.00
62.7143 1724.00
62.7795 1625.00
62.8447 1689.00
62.9099 1622.00
62.9751 1579.00
63.0403 1583.00
63.1055 1678.00
63.1707 1636.00
63.2359 1500.00
63.3011 1563.00
63.3663 1635.00
63.4315 1645.00
63.4967 1736.00
63.5619 1694.00
63.6271 1643.00
63.6923 1527.00
63.7575 1531.00
63.8227 1396.00
63.8879 1293.00
63.9531 1212.00
64.0183 1233.00
64.0835 1185.00
64.1487 1135.00
64.2139 1170.00
64.2791 1172.00
64.3443 1218.00
64.4095 1190.00
64.4747 1299.00
64.5399 1284.00
64.6051 1423.00
64.6703 1334.00
64.7355 1391.00
64.8007 1446.00
64.8659 1341.00
64.9311 1494.00
64.9963 1524.00
65.0615 1380.00
65.1267 1382.00
65.1919 1443.00
65.2571 1332.00
65.3223 1336.00
65.3875 1289.00
65.4527 1212.00
65.5179 1206.00
65.5831 1321.00
65.6483 1332.00
65.7135 1417.00
65.7787 1374.00
65.8439 1572.00
65.9091 1521.00
65.9743 1585.00
66.0395 1705.00
66.1047 1628.00
66.1699 1729.00
66.2351 1707.00
66.3003 1849.00
66.3655 1778.00
66.4307 1891.00
66.4959 1814.00
66.561 1784.00
66.6263 1674.00
66.6915 1536.00
66.7566 1542.00
66.8218 1343.00
66.887 1257.00
66.9522 1254.00
67.0174 1191.00
67.0826 1174.00
67.1478 1177.00
67.213 1170.00
67.2782 1132.00
67.3434 1118.00
67.4086 1169.00
67.4738 1112.00
67.539 1198.00
67.6042 1116.00
67.6694 1079.00
67.7346 1107.00
67.7998 1059.00
67.865 1141.00
67.9302 1154.00
67.9954 1095.00
68.0606 1070.00
68.1258 1053.00
68.191 1055.00
68.2562 1076.00
68.3214 1076.00
68.3866 1099.00
68.4518 1105.00
68.517 1127.00
68.5822 1058.00
68.6474 1044.00
68.7126 1114.00
68.7778 1054.00
68.843 1099.00
68.9082 1065.00
68.9734 1110.00
69.0386 1130.00
69.1038 1172.00
69.169 1036.00
69.2342 1153.00
69.2994 1145.00
69.3646 1158.00
69.4298 1136.00
69.495 1185.00
69.5602 1156.00
69.6254 1257.00
69.6906 1262.00
69.7558 1243.00
69.821 1209.00
69.8862 1172.00
69.9514 1148.00
70.0166 1154.00
70.0818 1158.00
70.147 1119.00
70.2122 1087.00
70.2774 1109.00
70.3426 1116.00
70.4078 1114.00
70.473 1163.00
70.5382 1160.00
70.6034 1180.00
70.6686 1243.00
70.7338 1173.00
70.799 1167.00
70.8642 1136.00
70.9294 1152.00
70.9946 1144.00
71.0598 1163.00
71.125 1149.00
71.1902 1191.00
71.2554 1202.00
71.3205 1218.00
71.3858 1290.00
71.451 1273.00
71.5162 1362.00
71.5813 1408.00
71.6465 1430.00
71.7117 1457.00
71.7769 1529.00
71.8421 1543.00
71.9073 1459.00
71.9725 1591.00
72.0377 1642.00
72.1029 1520.00
72.1681 1418.00
72.2333 1467.00
72.2985 1383.00
72.3637 1328.00
72.4289 1358.00
72.4941 1279.00
72.5593 1299.00
72.6245 1324.00
72.6897 1267.00
72.7549 1221.00
72.8201 1189.00
72.8853 1263.00
72.9505 1219.00
73.0157 1236.00
73.0809 1228.00
73.1461 1235.00
73.2113 1264.00
73.2765 1223.00
73.3417 1267.00
73.4069 1225.00
73.4721 1199.00
73.5373 1192.00
73.6025 1181.00
73.6677 1156.00
73.7329 1104.00
73.7981 1121.00
73.8633 1173.00
73.9285 1089.00
73.9937 1083.00
74.0589 1105.00
74.1241 1124.00
74.1893 1121.00
74.2545 1158.00
74.3197 1059.00
74.3849 1145.00
74.4501 1122.00
74.5153 1080.00
74.5805 1128.00
74.6457 1058.00
74.7109 1077.00
74.7761 1134.00
74.8413 1112.00
74.9065 1137.00
74.9717 1087.00
75.0369 1163.00
75.1021 1149.00
75.1673 1177.00
75.2325 1163.00
75.2977 1196.00
75.3629 1213.00
75.4281 1255.00
75.4933 1274.00
75.5585 1341.00
75.6237 1282.00
75.6889 1223.00
75.7541 1326.00
75.8193 1343.00
75.8845 1337.00
75.9497 1308.00
76.0149 1324.00
76.0801 1361.00
76.1452 1301.00
76.2104 1192.00
76.2756 1190.00
76.3409 1161.00
76.406 1133.00
76.4712 1115.00
76.5364 1166.00
76.6016 1203.00
76.6668 1139.00
76.732 1157.00
76.7972 1116.00
76.8624 1206.00
76.9276 1187.00
76.9928 1042.00
77.058 1146.00
77.1232 1213.00
77.1884 1170.00
77.2536 1189.00
77.3188 1183.00
77.384 1178.00
77.4492 1114.00
77.5144 1060.00
77.5796 1148.00
77.6448 1069.00
77.71 1106.00
77.7752 1089.00
77.8404 1043.00
77.9056 1039.00
77.9708 1114.00
78.036 1134.00
78.1012 1120.00
78.1664 1181.00
78.2316 1175.00
78.2968 1148.00
78.362 1110.00
78.4272 1112.00
78.4924 1205.00
78.5576 1183.00
78.6228 1165.00
78.688 1033.00
78.7532 1171.00
78.8184 1127.00
78.8836 1108.00
78.9488 1185.00
79.014 1105.00
79.0792 1123.00
79.1444 1174.00
79.2096 1151.00
79.2748 1113.00
79.34 1119.00
79.4052 1107.00
79.4704 1116.00
79.5356 1160.00
79.6008 1244.00
79.666 1249.00
79.7312 1159.00
79.7964 1243.00
79.8616 1239.00
79.9268 1169.00
79.992 1170.00
80.0572 1142.00
80.1224 1165.00
80.1876 1116.00
80.2528 1117.00
80.318 1099.00
80.3832 1039.00
80.4484 1116.00
80.5136 1133.00
80.5788 1117.00
80.644 1081.00
80.7092 1112.00
80.7744 1091.00
80.8396 1117.00
80.9048 1063.00
80.9699 1031.00
81.0351 1083.00
81.1003 1051.00
81.1655 1014.00
81.2307 1048.00
81.2959 1120.00
81.3611 1030.00
81.4263 1035.00
81.4915 1103.00
81.5567 1068.00
81.6219 1130.00
81.6871 1081.00
81.7523 1101.00
81.8175 1159.00
81.8827 1115.00
81.9479 1138.00
82.0131 1107.00
82.0783 1221.00
82.1435 1215.00
82.2087 1259.00
82.2739 1172.00
82.3391 1263.00
82.4043 1217.00
82.4695 1215.00
82.5347 1211.00
82.5999 1199.00
82.6651 1186.00
82.7303 1151.00
82.7955 1131.00
82.8607 1229.00
82.9259 1173.00
82.9911 1230.00
83.0563 1140.00
83.1215 1141.00
83.1867 1133.00
83.2519 1249.00
83.3171 1250.00
83.3823 1236.00
83.4475 1269.00
83.5127 1303.00
83.5779 1269.00
83.6431 1288.00
83.7083 1246.00
83.7735 1162.00
83.8387 1276.00
83.9039 1259.00
83.9691 1283.00
84.0343 1274.00
84.0995 1237.00
84.1647 1277.00
84.2299 1207.00
84.2951 1150.00
84.3603 1138.00
84.4255 1220.00
84.4907 1178.00
84.5559 1205.00
84.6211 1172.00
84.6863 1178.00
84.7515 1330.00
84.8167 1186.00
84.8819 1134.00
84.9471 1193.00
85.0123 1268.00
85.0775 1222.00
85.1427 1229.00
85.2079 1254.00
85.2731 1079.00
85.3383 1157.00
85.4035 1084.00
85.4687 1103.00
85.5339 1116.00
85.5991 1124.00
85.6643 1120.00
85.7295 1109.00
85.7946 1092.00
85.8598 1100.00
85.925 1128.00
85.9903 1045.00
86.0554 1110.00
86.1206 1071.00
86.1858 1081.00
86.251 1122.00
86.3162 1098.00
86.3814 1108.00
86.4466 1111.00
86.5118 1096.00
86.577 1125.00
86.6422 1111.00
86.7074 1133.00
86.7726 1078.00
86.8378 1134.00
86.903 1168.00
86.9682 1157.00
87.0334 1130.00
87.0986 1054.00
87.1638 1164.00
87.229 1092.00
87.2942 1083.00
87.3594 1055.00
87.4246 1034.00
87.4898 1101.00
87.555 1007.00
87.6202 1029.00
87.6854 1055.00
87.7506 1127.00
87.8158 1073.00
87.881 1070.00
87.9462 1205.00
88.0114 1024.00
88.0766 1142.00
88.1418 1105.00
88.207 1105.00
88.2722 1228.00
88.3374 1249.00
88.4026 1307.00
88.4678 1226.00
88.533 1306.00
88.5982 1236.00
88.6634 1242.00
88.7286 1245.00
88.7938 1281.00
88.859 1266.00
88.9242 1231.00
88.9894 1188.00
89.0546 1174.00
89.1198 1242.00
89.185 1191.00
89.2502 1246.00
89.3154 1240.00
89.3806 1287.00
89.4458 1227.00
89.511 1205.00
89.5762 1186.00
89.6414 1210.00
89.7066 1168.00
89.7718 1127.00
89.837 1199.00
89.9022 1298.00
89.9674 1282.00
90.0326 1112.00
90.0978 1192.00
90.163 1225.00
90.2282 1232.00
90.2934 1223.00
90.3586 1245.00
90.4238 1247.00
90.489 1191.00
90.5542 1138.00
90.6193 1227.00
90.6845 1265.00
90.7497 1188.00
90.8149 1274.00
90.8801 1249.00
90.9453 1201.00
91.0105 1144.00
91.0757 1098.00
91.1409 1062.00
91.2061 1107.00
91.2713 1107.00
91.3365 1113.00
91.4017 1097.00
91.4669 1124.00
91.5321 1103.00
91.5973 1075.00
91.6625 1119.00
91.7277 1122.00
91.7929 1038.00
91.8581 1147.00
91.9233 1101.00
91.9885 1117.00
92.0537 1147.00
92.1189 1143.00
92.1841 1084.00
92.2493 1175.00
92.3145 1029.00
92.3797 1097.00
92.4449 1118.00
92.5101 1085.00
92.5753 1077.00
92.6405 1031.00
92.7057 1057.00
92.7709 1036.00
92.8361 1073.00
92.9013 1059.00
92.9665 1040.00
93.0317 1035.00
93.0969 1054.00
93.1621 1047.00
93.2273 1019.00
93.2925 1016.00
93.3577 1030.00
93.4229 1170.00
93.4881 1083.00
93.5533 1023.00
93.6185 1004.00
93.6837 998.00
93.7489 1064.00
93.8141 1034.00
93.8793 1038.00
93.9445 1075.00
94.0097 1052.00
94.0749 1090.00
94.1401 1131.00
94.2053 1099.00
94.2705 1101.00
94.3357 1067.00
94.4009 1049.00
94.4661 1022.00
94.5313 1103.00
94.5965 1065.00
94.6617 1083.00
94.7269 1051.00
94.7921 1104.00
94.8573 1102.00
94.9225 1077.00
94.9877 1100.00
95.0529 1173.00
95.1181 1154.00
95.1833 1121.00
95.2485 1118.00
95.3137 1098.00
95.3789 1137.00
95.444 1114.00
95.5092 1197.00
95.5744 1086.00
95.6396 1106.00
95.7048 1187.00
95.77 1144.00
95.8352 1140.00
95.9004 1186.00
95.9656 1153.00
96.0308 1156.00
96.096 1233.00
96.1612 1169.00
96.2264 1191.00
96.2916 1232.00
96.3568 1197.00
96.422 1138.00
96.4872 1278.00
96.5524 1220.00
96.6176 1152.00
96.6828 1184.00
96.748 1246.00
96.8132 1179.00
96.8784 1181.00
96.9436 1154.00
97.0088 1270.00
97.074 1276.00
97.1392 1272.00
97.2044 1287.00
97.2696 1240.00
97.3348 1262.00
97.4 1325.00
97.4652 1268.00
97.5304 1277.00
97.5956 1344.00
97.6608 1270.00
97.726 1252.00
97.7912 1312.00
97.8564 1309.00
97.9216 1189.00
97.9868 1223.00
98.052 1257.00
98.1172 1200.00
98.1824 1121.00
98.2476 1179.00
98.3128 1150.00
98.378 1175.00
98.4432 1153.00
98.5084 1128.00
98.5736 1110.00
98.6388 1073.00
98.704 1101.00
98.7692 1106.00
98.8344 1114.00
98.8996 1062.00
98.9648 1189.00
99.03 1184.00
99.0952 1165.00
99.1604 1126.00
99.2256 1107.00
99.2908 1225.00
99.356 1213.00
99.4212 1233.00
99.4864 1302.00
99.5516 1211.00
99.6168 1194.00
99.682 1274.00
99.7472 1247.00
99.8124 1235.00
99.8776 1225.00
99.9428 1257.00
100.008 1252.00
100.073 1215.00
100.095 1315.00