File: data/xrd_creation/results/NSC_163.xy
9.903433 2692.00
9.968632 2646.00
10.0338 2587.00
10.099 2622.00
10.1642 2466.00
10.2294 2424.00
10.2946 2578.00
10.3598 2565.00
10.425 2399.00
10.4902 2460.00
10.5554 2430.00
10.6206 2373.00
10.6858 2372.00
10.751 2313.00
10.8162 2297.00
10.8814 2364.00
10.9466 2330.00
11.0118 2181.00
11.077 2261.00
11.1422 2371.00
11.2074 2315.00
11.2726 2210.00
11.3378 2204.00
11.403 2204.00
11.4682 2098.00
11.5334 2215.00
11.5986 2198.00
11.6638 2182.00
11.729 2159.00
11.7942 2104.00
11.8594 2148.00
11.9246 2023.00
11.9898 1990.00
12.055 2068.00
12.1202 2059.00
12.1854 1977.00
12.2506 1991.00
12.3158 1983.00
12.381 2048.00
12.4462 1939.00
12.5114 1938.00
12.5766 1891.00
12.6418 1992.00
12.707 1939.00
12.7722 1913.00
12.8374 1880.00
12.9026 1871.00
12.9678 1857.00
13.033 1924.00
13.0982 1876.00
13.1634 1866.00
13.2286 1866.00
13.2938 1730.00
13.359 1790.00
13.4242 1830.00
13.4894 1811.00
13.5546 1763.00
13.6198 1863.00
13.685 1790.00
13.7502 1796.00
13.8154 1675.00
13.8805 1809.00
13.9457 1882.00
14.0109 1795.00
14.0761 1911.00
14.1413 1982.00
14.2065 2097.00
14.2717 2289.00
14.3369 2798.00
14.4021 3498.00
14.4673 3853.00
14.5325 3261.00
14.5977 2156.00
14.6629 1750.00
14.7281 1803.00
14.7933 1695.00
14.8585 1725.00
14.9237 1718.00
14.9889 1645.00
15.0541 1659.00
15.1193 1699.00
15.1845 1644.00
15.2497 1666.00
15.3149 1608.00
15.3801 1629.00
15.4453 1684.00
15.5105 1651.00
15.5757 1667.00
15.6409 1675.00
15.7061 1571.00
15.7713 1689.00
15.8365 1655.00
15.9017 1688.00
15.9669 1603.00
16.0321 1684.00
16.0973 1582.00
16.1625 1633.00
16.2277 1535.00
16.2929 1621.00
16.3581 1628.00
16.4233 1607.00
16.4885 1610.00
16.5537 1548.00
16.6189 1531.00
16.6841 1564.00
16.7493 1620.00
16.8145 1522.00
16.8797 1587.00
16.9449 1573.00
17.0101 1570.00
17.0753 1530.00
17.1405 1573.00
17.2057 1531.00
17.2709 1603.00
17.3361 1521.00
17.4013 1478.00
17.4665 1539.00
17.5317 1671.00
17.5969 1464.00
17.6621 1476.00
17.7273 1511.00
17.7925 1527.00
17.8577 1503.00
17.9229 1515.00
17.9881 1546.00
18.0533 1463.00
18.1185 1452.00
18.1837 1502.00
18.2489 1518.00
18.3141 1457.00
18.3793 1481.00
18.4445 1452.00
18.5097 1537.00
18.5749 1435.00
18.6401 1498.00
18.7052 1512.00
18.7704 1439.00
18.8356 1403.00
18.9008 1490.00
18.966 1438.00
19.0312 1405.00
19.0964 1420.00
19.1616 1482.00
19.2268 1489.00
19.292 1456.00
19.3572 1471.00
19.4224 1563.00
19.4876 1499.00
19.5528 1622.00
19.618 1814.00
19.6832 2253.00
19.7484 3184.00
19.8136 4635.00
19.8788 6374.00
19.944 7898.00
20.0092 7732.00
20.0744 5889.00
20.1396 3086.00
20.2048 1947.00
20.27 1853.00
20.3352 1992.00
20.4004 2302.00
20.4656 3060.00
20.5308 4501.00
20.596 6961.00
20.6612 10279.00
20.7264 11192.00
20.7916 8449.00
20.8568 4441.00
20.922 2380.00
20.9872 1838.00
21.0524 1627.00
21.1176 1479.00
21.1828 1436.00
21.248 1463.00
21.3132 1459.00
21.3784 1308.00
21.4436 1353.00
21.5088 1338.00
21.574 1346.00
21.6392 1385.00
21.7044 1329.00
21.7696 1402.00
21.8348 1372.00
21.9 1367.00
21.9652 1358.00
22.0304 1364.00
22.0956 1438.00
22.1608 1309.00
22.226 1242.00
22.2912 1274.00
22.3564 1309.00
22.4216 1254.00
22.4868 1266.00
22.552 1247.00
22.6172 1253.00
22.6824 1271.00
22.7476 1347.00
22.8128 1305.00
22.878 1285.00
22.9432 1327.00
23.0084 1261.00
23.0736 1353.00
23.1388 1301.00
23.204 1304.00
23.2692 1296.00
23.3344 1368.00
23.3996 1415.00
23.4647 1340.00
23.5299 1522.00
23.5951 1713.00
23.6603 2072.00
23.7255 3051.00
23.7907 4744.00
23.8559 6875.00
23.9211 8093.00
23.9863 7128.00
24.0515 4353.00
24.1167 2250.00
24.1819 1590.00
24.2471 1407.00
24.3123 1314.00
24.3775 1285.00
24.4427 1328.00
24.5079 1343.00
24.5731 1371.00
24.6383 1311.00
24.7035 1160.00
24.7687 1193.00
24.8339 1275.00
24.8991 1305.00
24.9643 1190.00
25.0295 1221.00
25.0947 1182.00
25.1599 1183.00
25.2251 1296.00
25.2903 1187.00
25.3555 1188.00
25.4207 1148.00
25.4859 1175.00
25.5511 1145.00
25.6163 1160.00
25.6815 1182.00
25.7467 1157.00
25.8119 1272.00
25.8771 1208.00
25.9423 1343.00
26.0075 1525.00
26.0727 1876.00
26.1379 2427.00
26.2031 3075.00
26.2683 3246.00
26.3335 2709.00
26.3987 1944.00
26.4639 1566.00
26.5291 1387.00
26.5943 1266.00
26.6595 1181.00
26.7247 1213.00
26.7899 1171.00
26.8551 1204.00
26.9203 1142.00
26.9855 1172.00
27.0507 1098.00
27.1159 1167.00
27.1811 1173.00
27.2463 1090.00
27.3115 1151.00
27.3767 1072.00
27.4419 1121.00
27.5071 1069.00
27.5723 1106.00
27.6375 1167.00
27.7027 1250.00
27.7679 1351.00
27.8331 1696.00
27.8983 2099.00
27.9635 2121.00
28.0287 1634.00
28.0939 1328.00
28.1591 1290.00
28.2243 1170.00
28.2894 1216.00
28.3546 1309.00
28.4198 1439.00
28.485 1722.00
28.5502 2450.00
28.6154 3685.00
28.6806 5019.00
28.7458 6077.00
28.811 6034.00
28.8762 4746.00
28.9414 2637.00
29.0066 1690.00
29.0718 1342.00
29.137 1233.00
29.2022 1116.00
29.2674 1140.00
29.3326 1132.00
29.3978 1189.00
29.463 1113.00
29.5282 1062.00
29.5934 1003.00
29.6586 1049.00
29.7238 1026.00
29.789 1096.00
29.8542 1049.00
29.9194 1004.00
29.9846 1039.00
30.0498 1039.00
30.115 994.00
30.1802 1007.00
30.2454 1012.00
30.3106 1040.00
30.3758 1034.00
30.441 1050.00
30.5062 1024.00
30.5714 949.00
30.6366 1040.00
30.7018 1101.00
30.767 1033.00
30.8322 1019.00
30.8974 1050.00
30.9626 1127.00
31.0278 1093.00
31.093 1125.00
31.1582 1138.00
31.2234 1158.00
31.2886 1378.00
31.3538 1577.00
31.419 2171.00
31.4842 3193.00
31.5494 4520.00
31.6146 5975.00
31.6798 7060.00
31.745 7952.00
31.8102 7376.00
31.8754 5681.00
31.9406 3764.00
32.0058 2507.00
32.071 1796.00
32.1362 1404.00
32.2014 1234.00
32.2666 1125.00
32.3318 1084.00
32.397 1051.00
32.4622 1005.00
32.5274 1063.00
32.5926 1022.00
32.6578 1037.00
32.723 1104.00
32.7882 1016.00
32.8534 1023.00
32.9186 947.00
32.9838 1063.00
33.0489 996.00
33.1141 1025.00
33.1793 933.00
33.2445 1048.00
33.3097 978.00
33.3749 952.00
33.4401 1024.00
33.5053 954.00
33.5705 1004.00
33.6357 1054.00
33.7009 1046.00
33.7661 929.00
33.8313 985.00
33.8965 1090.00
33.9617 1111.00
34.0269 1139.00
34.0921 1138.00
34.1573 1248.00
34.2225 1223.00
34.2877 1286.00
34.3529 1194.00
34.4181 1104.00
34.4833 1059.00
34.5485 995.00
34.6137 1018.00
34.6789 995.00
34.7441 948.00
34.8093 1006.00
34.8745 995.00
34.9397 1024.00
35.0049 1000.00
35.0701 1012.00
35.1353 1086.00
35.2005 1183.00
35.2657 1447.00
35.3309 1755.00
35.3961 2299.00
35.4613 2735.00
35.5265 3220.00
35.5917 3257.00
35.6569 2904.00
35.7221 2667.00
35.7873 2859.00
35.8525 3256.00
35.9177 4008.00
35.9829 4535.00
36.0481 4317.00
36.1133 3347.00
36.1785 2429.00
36.2437 1820.00
36.3089 1337.00
36.3741 1286.00
36.4393 1166.00
36.5045 1292.00
36.5697 1434.00
36.6349 1252.00
36.7001 1210.00
36.7653 951.00
36.8305 950.00
36.8957 855.00
36.9609 925.00
37.0261 931.00
37.0913 897.00
37.1565 947.00
37.2217 867.00
37.2869 878.00
37.3521 878.00
37.4173 959.00
37.4825 889.00
37.5477 854.00
37.6129 875.00
37.6781 897.00
37.7433 881.00
37.8085 920.00
37.8736 891.00
37.9388 900.00
38.004 885.00
38.0692 868.00
38.1344 917.00
38.1996 1051.00
38.2648 1212.00
38.33 1292.00
38.3952 1258.00
38.4604 1207.00
38.5256 1002.00
38.5908 899.00
38.656 901.00
38.7212 918.00
38.7864 825.00
38.8516 902.00
38.9168 860.00
38.982 840.00
39.0472 891.00
39.1124 905.00
39.1776 917.00
39.2428 900.00
39.308 919.00
39.3732 884.00
39.4384 953.00
39.5036 998.00
39.5688 1059.00
39.634 1026.00
39.6992 1085.00
39.7644 1179.00
39.8296 1135.00
39.8948 1165.00
39.96 1205.00
40.0252 1192.00
40.0904 1206.00
40.1556 1247.00
40.2208 1343.00
40.286 1252.00
40.3512 1169.00
40.4164 1092.00
40.4816 902.00
40.5468 862.00
40.612 911.00
40.6772 829.00
40.7424 860.00
40.8076 824.00
40.8728 808.00
40.938 835.00
41.0032 868.00
41.0684 864.00
41.1336 869.00
41.1988 898.00
41.264 901.00
41.3292 937.00
41.3944 964.00
41.4596 1053.00
41.5248 1238.00
41.59 1425.00
41.6552 1625.00
41.7204 1835.00
41.7856 1880.00
41.8508 1916.00
41.916 1780.00
41.9812 1526.00
42.0464 1552.00
42.1116 1517.00
42.1768 1406.00
42.242 1217.00
42.3072 1050.00
42.3724 993.00
42.4376 963.00
42.5028 962.00
42.568 1000.00
42.6332 959.00
42.6983 940.00
42.7635 937.00
42.8287 920.00
42.8939 882.00
42.9591 849.00
43.0243 902.00
43.0895 893.00
43.1547 971.00
43.2199 1086.00
43.2851 1146.00
43.3503 1324.00
43.4155 1616.00
43.4807 1673.00
43.5459 1785.00
43.6111 1777.00
43.6763 1543.00
43.7415 1357.00
43.8067 1091.00
43.8719 937.00
43.9371 960.00
44.0023 990.00
44.0675 978.00
44.1327 911.00
44.1979 963.00
44.2631 1005.00
44.3283 1043.00
44.3935 943.00
44.4587 906.00
44.5239 908.00
44.5891 942.00
44.6543 889.00
44.7195 837.00
44.7847 957.00
44.8499 860.00
44.9151 900.00
44.9803 965.00
45.0455 1000.00
45.1107 1134.00
45.1759 1327.00
45.2411 1493.00
45.3063 1633.00
45.3715 1796.00
45.4367 2067.00
45.5019 2177.00
45.5671 2241.00
45.6323 1932.00
45.6975 1580.00
45.7627 1269.00
45.8279 1061.00
45.8931 904.00
45.9583 869.00
46.0235 907.00
46.0887 892.00
46.1539 958.00
46.2191 1128.00
46.2843 1227.00
46.3495 1503.00
46.4147 1608.00
46.4799 1842.00
46.5451 1995.00
46.6103 1893.00
46.6755 1763.00
46.7407 1470.00
46.8059 1352.00
46.8711 1240.00
46.9363 1242.00
47.0015 1255.00
47.0667 1269.00
47.1319 1383.00
47.1971 1329.00
47.2623 1326.00
47.3275 1270.00
47.3927 1171.00
47.4579 1006.00
47.523 1004.00
47.5882 927.00
47.6534 873.00
47.7186 825.00
47.7838 860.00
47.849 831.00
47.9142 930.00
47.9794 937.00
48.0446 1022.00
48.1098 1096.00
48.175 1293.00
48.2402 1521.00
48.3054 1824.00
48.3706 2212.00
48.4358 2452.00
48.501 2743.00
48.5662 2989.00
48.6314 2823.00
48.6966 2492.00
48.7618 2142.00
48.827 1686.00
48.8922 1533.00
48.9574 1367.00
49.0226 1279.00
49.0878 1202.00
49.153 1170.00
49.2182 1187.00
49.2834 1083.00
49.3486 1076.00
49.4138 942.00
49.479 941.00
49.5442 919.00
49.6094 856.00
49.6746 800.00
49.7398 784.00
49.805 823.00
49.8702 803.00
49.9354 831.00
50.0006 820.00
50.0658 826.00
50.131 793.00
50.1962 760.00
50.2614 782.00
50.3266 778.00
50.3918 804.00
50.457 776.00
50.5222 773.00
50.5874 821.00
50.6526 790.00
50.7178 813.00
50.783 816.00
50.8482 757.00
50.9134 822.00
50.9786 914.00
51.0438 838.00
51.109 891.00
51.1742 963.00
51.2394 917.00
51.3046 993.00
51.3698 1075.00
51.435 1198.00
51.5002 1292.00
51.5654 1451.00
51.6306 1613.00
51.6958 1712.00
51.761 1855.00
51.8262 2103.00
51.8914 2160.00
51.9566 2192.00
52.0218 2178.00
52.087 1907.00
52.1522 1654.00
52.2174 1453.00
52.2826 1267.00
52.3477 1183.00
52.4129 1085.00
52.4781 1034.00
52.5433 967.00
52.6085 915.00
52.6737 852.00
52.7389 780.00
52.8041 824.00
52.8693 796.00
52.9345 846.00
52.9997 792.00
53.0649 807.00
53.1301 805.00
53.1953 876.00
53.2605 866.00
53.3257 915.00
53.3909 877.00
53.4561 869.00
53.5213 939.00
53.5865 865.00
53.6517 901.00
53.7169 848.00
53.7821 833.00
53.8473 855.00
53.9125 839.00
53.9777 757.00
54.0429 820.00
54.1081 721.00
54.1733 815.00
54.2385 860.00
54.3037 869.00
54.3689 833.00
54.4341 982.00
54.4993 993.00
54.5645 1091.00
54.6297 1181.00
54.6949 1261.00
54.7601 1452.00
54.8253 1651.00
54.8905 1790.00
54.9557 1696.00
55.0209 1512.00
55.0861 1438.00
55.1513 1221.00
55.2165 1037.00
55.2817 963.00
55.3469 1030.00
55.4121 1045.00
55.4773 1231.00
55.5425 1423.00
55.6077 1653.00
55.6729 1850.00
55.7381 2150.00
55.8033 2443.00
55.8685 2638.00
55.9337 2785.00
55.9989 2773.00
56.0641 2866.00
56.1293 2652.00
56.1945 2350.00
56.2597 2121.00
56.3249 1706.00
56.3901 1407.00
56.4553 1108.00
56.5205 939.00
56.5857 946.00
56.6509 877.00
56.7161 873.00
56.7813 821.00
56.8465 813.00
56.9117 830.00
56.9769 825.00
57.042 880.00
57.1073 930.00
57.1724 963.00
57.2376 1048.00
57.3028 1022.00
57.368 996.00
57.4332 982.00
57.4984 985.00
57.5636 1036.00
57.6288 880.00
57.694 914.00
57.7592 871.00
57.8244 774.00
57.8896 873.00
57.9548 762.00
58.02 807.00
58.0852 787.00
58.1504 853.00
58.2156 862.00
58.2808 886.00
58.346 901.00
58.4112 919.00
58.4764 1037.00
58.5416 1037.00
58.6068 1036.00
58.672 1197.00
58.7372 1198.00
58.8024 1265.00
58.8676 1370.00
58.9328 1375.00
58.998 1475.00
59.0632 1455.00
59.1284 1422.00
59.1936 1256.00
59.2588 1225.00
59.324 1103.00
59.3892 951.00
59.4544 966.00
59.5196 800.00
59.5848 856.00
59.65 769.00
59.7152 825.00
59.7804 739.00
59.8456 819.00
59.9108 797.00
59.976 896.00
60.0412 927.00
60.1064 1019.00
60.1716 1106.00
60.2368 1217.00
60.302 1251.00
60.3672 1294.00
60.4324 1468.00
60.4976 1517.00
60.5628 1565.00
60.628 1539.00
60.6932 1580.00
60.7584 1370.00
60.8236 1268.00
60.8888 1121.00
60.954 984.00
61.0192 907.00
61.0844 955.00
61.1496 931.00
61.2148 1059.00
61.28 1089.00
61.3452 1193.00
61.4104 1350.00
61.4756 1415.00
61.5408 1567.00
61.606 1733.00
61.6712 1760.00
61.7364 1774.00
61.8016 1740.00
61.8667 1579.00
61.932 1528.00
61.9971 1293.00
62.0623 1175.00
62.1275 1061.00
62.1927 1020.00
62.2579 1009.00
62.3231 934.00
62.3883 968.00
62.4535 944.00
62.5187 949.00
62.5839 1065.00
62.6491 1051.00
62.7143 1119.00
62.7795 1085.00
62.8447 1184.00
62.9099 1264.00
62.9751 1237.00
63.0403 1240.00
63.1055 1293.00
63.1707 1265.00
63.2359 1183.00
63.3011 1179.00
63.3663 1064.00
63.4315 1030.00
63.4967 933.00
63.5619 1001.00
63.6271 951.00
63.6923 971.00
63.7575 985.00
63.8227 1048.00
63.8879 1141.00
63.9531 1260.00
64.0183 1356.00
64.0835 1317.00
64.1487 1438.00
64.2139 1445.00
64.2791 1463.00
64.3443 1482.00
64.4095 1450.00
64.4747 1414.00
64.5399 1345.00
64.6051 1336.00
64.6703 1234.00
64.7355 1197.00
64.8007 1096.00
64.8659 972.00
64.9311 961.00
64.9963 840.00
65.0615 888.00
65.1267 820.00
65.1919 805.00
65.2571 803.00
65.3223 801.00
65.3875 805.00
65.4527 842.00
65.5179 849.00
65.5831 871.00
65.6483 859.00
65.7135 940.00
65.7787 1028.00
65.8439 1075.00
65.9091 1056.00
65.9743 1051.00
66.0395 1079.00
66.1047 1091.00
66.1699 1126.00
66.2351 1089.00
66.3003 1111.00
66.3655 1088.00
66.4307 1161.00
66.4959 1071.00
66.561 1050.00
66.6263 1088.00
66.6915 1130.00
66.7566 1218.00
66.8218 1186.00
66.887 1272.00
66.9522 1312.00
67.0174 1193.00
67.0826 1222.00
67.1478 1077.00
67.213 1076.00
67.2782 1031.00
67.3434 917.00
67.4086 884.00
67.4738 912.00
67.539 879.00
67.6042 897.00
67.6694 910.00
67.7346 911.00
67.7998 967.00
67.865 1014.00
67.9302 1090.00
67.9954 1157.00
68.0606 1129.00
68.1258 1222.00
68.191 1145.00
68.2562 1189.00
68.3214 1137.00
68.3866 1085.00
68.4518 1156.00
68.517 1131.00
68.5822 1049.00
68.6474 1016.00
68.7126 955.00
68.7778 918.00
68.843 899.00
68.9082 817.00
68.9734 876.00
69.0386 872.00
69.1038 806.00
69.169 852.00
69.2342 837.00
69.2994 854.00
69.3646 924.00
69.4298 940.00
69.495 965.00
69.5602 1010.00
69.6254 1115.00
69.6906 1074.00
69.7558 1056.00
69.821 988.00
69.8862 945.00
69.9514 862.00
70.0166 905.00
70.0818 834.00
70.147 852.00
70.2122 924.00
70.2774 853.00
70.3426 839.00
70.4078 890.00
70.473 820.00
70.5382 820.00
70.6034 843.00
70.6686 846.00
70.7338 838.00
70.799 767.00
70.8642 785.00
70.9294 751.00
70.9946 792.00
71.0598 725.00
71.125 736.00
71.1902 823.00
71.2554 877.00
71.3205 862.00
71.3858 945.00
71.451 960.00
71.5162 1038.00
71.5813 1054.00
71.6465 1102.00
71.7117 1186.00
71.7769 1186.00
71.8421 1155.00
71.9073 1109.00
71.9725 1068.00
72.0377 1061.00
72.1029 991.00
72.1681 893.00
72.2333 833.00
72.2985 804.00
72.3637 803.00
72.4289 788.00
72.4941 783.00
72.5593 762.00
72.6245 776.00
72.6897 735.00
72.7549 748.00
72.8201 750.00
72.8853 758.00
72.9505 731.00
73.0157 746.00
73.0809 804.00
73.1461 760.00
73.2113 782.00
73.2765 714.00
73.3417 802.00
73.4069 787.00
73.4721 768.00
73.5373 780.00
73.6025 744.00
73.6677 756.00
73.7329 792.00
73.7981 779.00
73.8633 888.00
73.9285 912.00
73.9937 898.00
74.0589 901.00
74.1241 954.00
74.1893 975.00
74.2545 958.00
74.3197 976.00
74.3849 969.00
74.4501 1043.00
74.5153 1011.00
74.5805 1102.00
74.6457 1082.00
74.7109 1019.00
74.7761 989.00
74.8413 965.00
74.9065 931.00
74.9717 953.00
75.0369 862.00
75.1021 896.00
75.1673 868.00
75.2325 876.00
75.2977 931.00
75.3629 983.00
75.4281 958.00
75.4933 997.00
75.5585 1009.00
75.6237 1083.00
75.6889 1038.00
75.7541 1177.00
75.8193 1215.00
75.8845 1194.00
75.9497 1111.00
76.0149 1110.00
76.0801 1050.00
76.1452 1087.00
76.2104 939.00
76.2756 960.00
76.3409 898.00
76.406 850.00
76.4712 859.00
76.5364 861.00
76.6016 822.00
76.6668 787.00
76.732 778.00
76.7972 783.00
76.8624 817.00
76.9276 681.00
76.9928 726.00
77.058 784.00
77.1232 760.00
77.1884 811.00
77.2536 761.00
77.3188 823.00
77.384 785.00
77.4492 801.00
77.5144 777.00
77.5796 837.00
77.6448 832.00
77.71 838.00
77.7752 941.00
77.8404 842.00
77.9056 817.00
77.9708 804.00
78.036 795.00
78.1012 816.00
78.1664 841.00
78.2316 783.00
78.2968 814.00
78.362 801.00
78.4272 796.00
78.4924 750.00
78.5576 785.00
78.6228 861.00
78.688 794.00
78.7532 746.00
78.8184 849.00
78.8836 865.00
78.9488 880.00
79.014 932.00
79.0792 953.00
79.1444 985.00
79.2096 1017.00
79.2748 1143.00
79.34 1078.00
79.4052 1112.00
79.4704 1229.00
79.5356 1179.00
79.6008 1082.00
79.666 1091.00
79.7312 1076.00
79.7964 1061.00
79.8616 1071.00
79.9268 976.00
79.992 971.00
80.0572 923.00
80.1224 873.00
80.1876 813.00
80.2528 894.00
80.318 820.00
80.3832 842.00
80.4484 777.00
80.5136 805.00
80.5788 812.00
80.644 758.00
80.7092 779.00
80.7744 806.00
80.8396 775.00
80.9048 853.00
80.9699 774.00
81.0351 830.00
81.1003 869.00
81.1655 790.00
81.2307 844.00
81.2959 854.00
81.3611 892.00
81.4263 810.00
81.4915 945.00
81.5567 928.00
81.6219 1009.00
81.6871 947.00
81.7523 936.00
81.8175 927.00
81.8827 973.00
81.9479 953.00
82.0131 1001.00
82.0783 977.00
82.1435 868.00
82.2087 839.00
82.2739 831.00
82.3391 777.00
82.4043 763.00
82.4695 772.00
82.5347 766.00
82.5999 743.00
82.6651 760.00
82.7303 742.00
82.7955 671.00
82.8607 746.00
82.9259 732.00
82.9911 759.00
83.0563 794.00
83.1215 718.00
83.1867 776.00
83.2519 737.00
83.3171 775.00
83.3823 771.00
83.4475 797.00
83.5127 811.00
83.5779 794.00
83.6431 750.00
83.7083 816.00
83.7735 841.00
83.8387 814.00
83.9039 834.00
83.9691 931.00
84.0343 1002.00
84.0995 847.00
84.1647 944.00
84.2299 953.00
84.2951 1020.00
84.3603 1017.00
84.4255 935.00
84.4907 960.00
84.5559 951.00
84.6211 854.00
84.6863 889.00
84.7515 909.00
84.8167 833.00
84.8819 865.00
84.9471 869.00
85.0123 820.00
85.0775 812.00
85.1427 824.00
85.2079 833.00
85.2731 818.00
85.3383 760.00
85.4035 808.00
85.4687 811.00
85.5339 868.00
85.5991 924.00
85.6643 901.00
85.7295 893.00
85.7946 991.00
85.8598 920.00
85.925 934.00
85.9903 889.00
86.0554 890.00
86.1206 913.00
86.1858 887.00
86.251 973.00
86.3162 953.00
86.3814 873.00
86.4466 872.00
86.5118 896.00
86.577 895.00
86.6422 875.00
86.7074 907.00
86.7726 847.00
86.8378 883.00
86.903 892.00
86.9682 814.00
87.0334 846.00
87.0986 847.00
87.1638 830.00
87.229 888.00
87.2942 821.00
87.3594 844.00
87.4246 871.00
87.4898 833.00
87.555 801.00
87.6202 810.00
87.6854 820.00
87.7506 822.00
87.8158 781.00
87.881 768.00
87.9462 752.00
88.0114 758.00
88.0766 790.00
88.1418 757.00
88.207 829.00
88.2722 769.00
88.3374 763.00
88.4026 732.00
88.4678 815.00
88.533 825.00
88.5982 819.00
88.6634 805.00
88.7286 809.00
88.7938 803.00
88.859 820.00
88.9242 807.00
88.9894 838.00
89.0546 798.00
89.1198 832.00
89.185 796.00
89.2502 868.00
89.3154 888.00
89.3806 824.00
89.4458 888.00
89.511 916.00
89.5762 905.00
89.6414 833.00
89.7066 913.00
89.7718 926.00
89.837 915.00
89.9022 969.00
89.9674 987.00
90.0326 1001.00
90.0978 1050.00
90.163 1065.00
90.2282 1048.00
90.2934 1066.00
90.3586 1120.00
90.4238 1113.00
90.489 1090.00
90.5542 1076.00
90.6193 1086.00
90.6845 1028.00
90.7497 952.00
90.8149 919.00
90.8801 953.00
90.9453 834.00
91.0105 875.00
91.0757 852.00
91.1409 864.00
91.2061 836.00
91.2713 806.00
91.3365 789.00
91.4017 786.00
91.4669 789.00
91.5321 769.00
91.5973 826.00
91.6625 789.00
91.7277 800.00
91.7929 804.00
91.8581 832.00
91.9233 829.00
91.9885 831.00
92.0537 884.00
92.1189 863.00
92.1841 883.00
92.2493 903.00
92.3145 893.00
92.3797 964.00
92.4449 889.00
92.5101 954.00
92.5753 936.00
92.6405 957.00
92.7057 925.00
92.7709 972.00
92.8361 958.00
92.9013 883.00
92.9665 933.00
93.0317 908.00
93.0969 814.00
93.1621 877.00
93.2273 832.00
93.2925 841.00
93.3577 800.00
93.4229 831.00
93.4881 842.00
93.5533 793.00
93.6185 842.00
93.6837 829.00
93.7489 806.00
93.8141 835.00
93.8793 817.00
93.9445 807.00
94.0097 796.00
94.0749 760.00
94.1401 797.00
94.2053 795.00
94.2705 771.00
94.3357 808.00
94.4009 837.00
94.4661 861.00
94.5313 892.00
94.5965 869.00
94.6617 872.00
94.7269 843.00
94.7921 819.00
94.8573 947.00
94.9225 853.00
94.9877 853.00
95.0529 892.00
95.1181 920.00
95.1833 879.00
95.2485 869.00
95.3137 916.00
95.3789 1012.00
95.444 922.00
95.5092 970.00
95.5744 878.00
95.6396 997.00
95.7048 946.00
95.77 964.00
95.8352 920.00
95.9004 945.00
95.9656 968.00
96.0308 1001.00
96.096 993.00
96.1612 990.00
96.2264 999.00
96.2916 971.00
96.3568 1029.00
96.422 963.00
96.4872 984.00
96.5524 985.00
96.6176 934.00
96.6828 945.00
96.748 935.00
96.8132 951.00
96.8784 987.00
96.9436 989.00
97.0088 916.00
97.074 987.00
97.1392 950.00
97.2044 995.00
97.2696 949.00
97.3348 985.00
97.4 985.00
97.4652 980.00
97.5304 874.00
97.5956 948.00
97.6608 917.00
97.726 914.00
97.7912 938.00
97.8564 871.00
97.9216 834.00
97.9868 829.00
98.052 793.00
98.1172 797.00
98.1824 806.00
98.2476 767.00
98.3128 821.00
98.378 765.00
98.4432 709.00
98.5084 698.00
98.5736 738.00
98.6388 802.00
98.704 712.00
98.7692 816.00
98.8344 778.00
98.8996 795.00
98.9648 797.00
99.03 773.00
99.0952 826.00
99.1604 808.00
99.2256 833.00
99.2908 830.00
99.356 795.00
99.4212 815.00
99.4864 802.00
99.5516 826.00
99.6168 827.00
99.682 844.00
99.7472 862.00
99.8124 870.00
99.8776 884.00
99.9428 894.00
100.008 910.00
100.073 843.00
100.095 900.00