File: data/xrd_creation/results/NSC_167.xy
9.903433 2713.00
9.968632 2676.00
10.0338 2636.00
10.099 2591.00
10.1642 2702.00
10.2294 2509.00
10.2946 2622.00
10.3598 2584.00
10.425 2560.00
10.4902 2506.00
10.5554 2501.00
10.6206 2495.00
10.6858 2442.00
10.751 2398.00
10.8162 2378.00
10.8814 2414.00
10.9466 2587.00
11.0118 2557.00
11.077 2397.00
11.1422 2449.00
11.2074 2343.00
11.2726 2278.00
11.3378 2217.00
11.403 2336.00
11.4682 2204.00
11.5334 2170.00
11.5986 2246.00
11.6638 2166.00
11.729 2202.00
11.7942 2178.00
11.8594 2105.00
11.9246 2109.00
11.9898 2024.00
12.055 2120.00
12.1202 1968.00
12.1854 2007.00
12.2506 1968.00
12.3158 2036.00
12.381 2095.00
12.4462 1928.00
12.5114 2016.00
12.5766 2007.00
12.6418 1896.00
12.707 2008.00
12.7722 1930.00
12.8374 1922.00
12.9026 1977.00
12.9678 1883.00
13.033 1876.00
13.0982 1940.00
13.1634 1863.00
13.2286 1844.00
13.2938 1910.00
13.359 1921.00
13.4242 1906.00
13.4894 1775.00
13.5546 1794.00
13.6198 1805.00
13.685 1782.00
13.7502 1836.00
13.8154 1871.00
13.8805 1852.00
13.9457 1892.00
14.0109 1952.00
14.0761 1983.00
14.1413 2269.00
14.2065 2564.00
14.2717 2678.00
14.3369 2374.00
14.4021 2094.00
14.4673 1931.00
14.5325 1751.00
14.5977 1730.00
14.6629 1652.00
14.7281 1725.00
14.7933 1605.00
14.8585 1631.00
14.9237 1594.00
14.9889 1696.00
15.0541 1622.00
15.1193 1545.00
15.1845 1601.00
15.2497 1627.00
15.3149 1599.00
15.3801 1614.00
15.4453 1710.00
15.5105 1571.00
15.5757 1535.00
15.6409 1610.00
15.7061 1643.00
15.7713 1579.00
15.8365 1596.00
15.9017 1585.00
15.9669 1590.00
16.0321 1582.00
16.0973 1573.00
16.1625 1539.00
16.2277 1490.00
16.2929 1552.00
16.3581 1546.00
16.4233 1502.00
16.4885 1481.00
16.5537 1634.00
16.6189 1596.00
16.6841 1473.00
16.7493 1575.00
16.8145 1577.00
16.8797 1596.00
16.9449 1611.00
17.0101 1554.00
17.0753 1571.00
17.1405 1530.00
17.2057 1572.00
17.2709 1636.00
17.3361 1693.00
17.4013 1959.00
17.4665 2170.00
17.5317 2220.00
17.5969 1745.00
17.6621 1458.00
17.7273 1455.00
17.7925 1434.00
17.8577 1506.00
17.9229 1411.00
17.9881 1391.00
18.0533 1483.00
18.1185 1409.00
18.1837 1382.00
18.2489 1361.00
18.3141 1441.00
18.3793 1396.00
18.4445 1338.00
18.5097 1398.00
18.5749 1371.00
18.6401 1410.00
18.7052 1425.00
18.7704 1404.00
18.8356 1379.00
18.9008 1353.00
18.966 1466.00
19.0312 1349.00
19.0964 1429.00
19.1616 1491.00
19.2268 1525.00
19.292 1604.00
19.3572 1614.00
19.4224 1788.00
19.4876 1794.00
19.5528 1825.00
19.618 1806.00
19.6832 2170.00
19.7484 2346.00
19.8136 2238.00
19.8788 2146.00
19.944 2397.00
20.0092 2280.00
20.0744 2055.00
20.1396 2039.00
20.2048 1962.00
20.27 1929.00
20.3352 1977.00
20.4004 1797.00
20.4656 1421.00
20.5308 1341.00
20.596 1365.00
20.6612 1271.00
20.7264 1386.00
20.7916 1302.00
20.8568 1364.00
20.922 1302.00
20.9872 1236.00
21.0524 1355.00
21.1176 1315.00
21.1828 1412.00
21.248 1436.00
21.3132 1411.00
21.3784 1336.00
21.4436 1335.00
21.5088 1352.00
21.574 1302.00
21.6392 1421.00
21.7044 1389.00
21.7696 1366.00
21.8348 1335.00
21.9 1395.00
21.9652 1308.00
22.0304 1264.00
22.0956 1278.00
22.1608 1230.00
22.226 1269.00
22.2912 1326.00
22.3564 1242.00
22.4216 1330.00
22.4868 1358.00
22.552 1289.00
22.6172 1258.00
22.6824 1298.00
22.7476 1275.00
22.8128 1342.00
22.878 1455.00
22.9432 1417.00
23.0084 1519.00
23.0736 1682.00
23.1388 1947.00
23.204 1931.00
23.2692 2028.00
23.3344 2202.00
23.3996 2672.00
23.4647 3416.00
23.5299 4222.00
23.5951 4516.00
23.6603 4913.00
23.7255 5225.00
23.7907 3964.00
23.8559 2640.00
23.9211 2168.00
23.9863 1752.00
24.0515 1470.00
24.1167 1315.00
24.1819 1335.00
24.2471 1395.00
24.3123 1375.00
24.3775 1413.00
24.4427 1388.00
24.5079 1457.00
24.5731 1365.00
24.6383 1291.00
24.7035 1284.00
24.7687 1249.00
24.8339 1366.00
24.8991 1399.00
24.9643 1359.00
25.0295 1251.00
25.0947 1175.00
25.1599 1164.00
25.2251 1104.00
25.2903 1138.00
25.3555 1111.00
25.4207 1132.00
25.4859 1158.00
25.5511 1108.00
25.6163 1133.00
25.6815 1161.00
25.7467 1102.00
25.8119 1110.00
25.8771 1290.00
25.9423 1469.00
26.0075 1612.00
26.0727 1752.00
26.1379 1726.00
26.2031 1511.00
26.2683 1239.00
26.3335 1127.00
26.3987 1139.00
26.4639 1050.00
26.5291 1055.00
26.5943 1033.00
26.6595 1061.00
26.7247 1017.00
26.7899 1009.00
26.8551 1122.00
26.9203 1129.00
26.9855 1164.00
27.0507 1191.00
27.1159 1159.00
27.1811 1263.00
27.2463 1463.00
27.3115 1634.00
27.3767 1869.00
27.4419 1892.00
27.5071 1806.00
27.5723 1467.00
27.6375 1177.00
27.7027 1131.00
27.7679 1113.00
27.8331 1155.00
27.8983 1164.00
27.9635 1231.00
28.0287 1228.00
28.0939 1377.00
28.1591 1587.00
28.2243 1934.00
28.2894 1771.00
28.3546 1953.00
28.4198 2311.00
28.485 2565.00
28.5502 1950.00
28.6154 1527.00
28.6806 1200.00
28.7458 1087.00
28.811 1055.00
28.8762 1039.00
28.9414 1075.00
29.0066 1098.00
29.0718 1160.00
29.137 1051.00
29.2022 1094.00
29.2674 1020.00
29.3326 1028.00
29.3978 975.00
29.463 1091.00
29.5282 1059.00
29.5934 1096.00
29.6586 1016.00
29.7238 1010.00
29.789 889.00
29.8542 948.00
29.9194 977.00
29.9846 987.00
30.0498 971.00
30.115 952.00
30.1802 1005.00
30.2454 1002.00
30.3106 952.00
30.3758 1014.00
30.441 997.00
30.5062 975.00
30.5714 1070.00
30.6366 1115.00
30.7018 1132.00
30.767 1313.00
30.8322 1366.00
30.8974 1514.00
30.9626 1652.00
31.0278 1910.00
31.093 2492.00
31.1582 3586.00
31.2234 4708.00
31.2886 5164.00
31.3538 4602.00
31.419 3380.00
31.4842 2728.00
31.5494 2500.00
31.6146 2707.00
31.6798 2555.00
31.745 2493.00
31.8102 2550.00
31.8754 2614.00
31.9406 1967.00
32.0058 1692.00
32.071 1622.00
32.1362 1714.00
32.2014 1801.00
32.2666 1769.00
32.3318 1572.00
32.397 1356.00
32.4622 1166.00
32.5274 1076.00
32.5926 1146.00
32.6578 1079.00
32.723 1059.00
32.7882 953.00
32.8534 890.00
32.9186 956.00
32.9838 893.00
33.0489 847.00
33.1141 784.00
33.1793 844.00
33.2445 827.00
33.3097 842.00
33.3749 812.00
33.4401 842.00
33.5053 889.00
33.5705 828.00
33.6357 867.00
33.7009 844.00
33.7661 846.00
33.8313 912.00
33.8965 909.00
33.9617 891.00
34.0269 852.00
34.0921 859.00
34.1573 854.00
34.2225 809.00
34.2877 846.00
34.3529 879.00
34.4181 956.00
34.4833 994.00
34.5485 967.00
34.6137 1038.00
34.6789 1025.00
34.7441 1234.00
34.8093 1566.00
34.8745 1950.00
34.9397 2116.00
35.0049 2100.00
35.0701 2063.00
35.1353 2366.00
35.2005 2775.00
35.2657 3185.00
35.3309 2709.00
35.3961 2062.00
35.4613 1436.00
35.5265 1084.00
35.5917 925.00
35.6569 801.00
35.7221 779.00
35.7873 742.00
35.8525 746.00
35.9177 708.00
35.9829 730.00
36.0481 713.00
36.1133 756.00
36.1785 783.00
36.2437 825.00
36.3089 839.00
36.3741 897.00
36.4393 867.00
36.5045 808.00
36.5697 802.00
36.6349 785.00
36.7001 764.00
36.7653 765.00
36.8305 843.00
36.8957 788.00
36.9609 765.00
37.0261 797.00
37.0913 777.00
37.1565 779.00
37.2217 733.00
37.2869 753.00
37.3521 690.00
37.4173 679.00
37.4825 631.00
37.5477 641.00
37.6129 614.00
37.6781 659.00
37.7433 680.00
37.8085 617.00
37.8736 631.00
37.9388 594.00
38.004 671.00
38.0692 619.00
38.1344 635.00
38.1996 667.00
38.2648 637.00
38.33 670.00
38.3952 618.00
38.4604 587.00
38.5256 640.00
38.5908 654.00
38.656 704.00
38.7212 681.00
38.7864 675.00
38.8516 697.00
38.9168 658.00
38.982 670.00
39.0472 602.00
39.1124 590.00
39.1776 655.00
39.2428 642.00
39.308 657.00
39.3732 605.00
39.4384 641.00
39.5036 599.00
39.5688 582.00
39.634 605.00
39.6992 618.00
39.7644 656.00
39.8296 620.00
39.8948 660.00
39.96 677.00
40.0252 708.00
40.0904 756.00
40.1556 699.00
40.2208 712.00
40.286 690.00
40.3512 695.00
40.4164 685.00
40.4816 683.00
40.5468 732.00
40.612 604.00
40.6772 591.00
40.7424 715.00
40.8076 654.00
40.8728 742.00
40.938 699.00
41.0032 735.00
41.0684 687.00
41.1336 669.00
41.1988 700.00
41.264 687.00
41.3292 746.00
41.3944 791.00
41.4596 786.00
41.5248 701.00
41.59 734.00
41.6552 752.00
41.7204 724.00
41.7856 743.00
41.8508 800.00
41.916 801.00
41.9812 743.00
42.0464 747.00
42.1116 730.00
42.1768 721.00
42.242 849.00
42.3072 959.00
42.3724 984.00
42.4376 1071.00
42.5028 1171.00
42.568 1414.00
42.6332 1748.00
42.6983 1770.00
42.7635 1554.00
42.8287 1325.00
42.8939 1240.00
42.9591 1112.00
43.0243 926.00
43.0895 769.00
43.1547 759.00
43.2199 704.00
43.2851 765.00
43.3503 756.00
43.4155 699.00
43.4807 679.00
43.5459 669.00
43.6111 678.00
43.6763 671.00
43.7415 627.00
43.8067 632.00
43.8719 679.00
43.9371 673.00
44.0023 604.00
44.0675 581.00
44.1327 597.00
44.1979 576.00
44.2631 550.00
44.3283 553.00
44.3935 507.00
44.4587 534.00
44.5239 621.00
44.5891 616.00
44.6543 675.00
44.7195 648.00
44.7847 687.00
44.8499 820.00
44.9151 894.00
44.9803 852.00
45.0455 778.00
45.1107 765.00
45.1759 704.00
45.2411 713.00
45.3063 731.00
45.3715 767.00
45.4367 888.00
45.5019 999.00
45.5671 1084.00
45.6323 1055.00
45.6975 1001.00
45.7627 900.00
45.8279 844.00
45.8931 688.00
45.9583 665.00
46.0235 588.00
46.0887 612.00
46.1539 619.00
46.2191 542.00
46.2843 569.00
46.3495 602.00
46.4147 594.00
46.4799 616.00
46.5451 577.00
46.6103 567.00
46.6755 596.00
46.7407 629.00
46.8059 802.00
46.8711 937.00
46.9363 794.00
47.0015 724.00
47.0667 661.00
47.1319 678.00
47.1971 620.00
47.2623 726.00
47.3275 810.00
47.3927 1041.00
47.4579 1278.00
47.523 1495.00
47.5882 1502.00
47.6534 1678.00
47.7186 1409.00
47.7838 1309.00
47.849 1224.00
47.9142 1389.00
47.9794 1535.00
48.0446 1647.00
48.1098 1344.00
48.175 1251.00
48.2402 1090.00
48.3054 1016.00
48.3706 892.00
48.4358 749.00
48.501 686.00
48.5662 563.00
48.6314 564.00
48.6966 508.00
48.7618 542.00
48.827 515.00
48.8922 497.00
48.9574 486.00
49.0226 547.00
49.0878 551.00
49.153 526.00
49.2182 612.00
49.2834 627.00
49.3486 645.00
49.4138 645.00
49.479 645.00
49.5442 607.00
49.6094 579.00
49.6746 597.00
49.7398 615.00
49.805 576.00
49.8702 592.00
49.9354 510.00
50.0006 600.00
50.0658 523.00
50.131 527.00
50.1962 573.00
50.2614 536.00
50.3266 547.00
50.3918 511.00
50.457 490.00
50.5222 500.00
50.5874 572.00
50.6526 534.00
50.7178 579.00
50.783 620.00
50.8482 699.00
50.9134 845.00
50.9786 976.00
51.0438 1002.00
51.109 1150.00
51.1742 1242.00
51.2394 1081.00
51.3046 1014.00
51.3698 941.00
51.435 882.00
51.5002 869.00
51.5654 993.00
51.6306 1077.00
51.6958 1263.00
51.761 1194.00
51.8262 1014.00
51.8914 970.00
51.9566 902.00
52.0218 790.00
52.087 790.00
52.1522 777.00
52.2174 781.00
52.2826 621.00
52.3477 565.00
52.4129 544.00
52.4781 536.00
52.5433 491.00
52.6085 518.00
52.6737 542.00
52.7389 566.00
52.8041 554.00
52.8693 609.00
52.9345 590.00
52.9997 673.00
53.0649 724.00
53.1301 706.00
53.1953 685.00
53.2605 660.00
53.3257 664.00
53.3909 561.00
53.4561 580.00
53.5213 544.00
53.5865 569.00
53.6517 584.00
53.7169 630.00
53.7821 538.00
53.8473 577.00
53.9125 560.00
53.9777 550.00
54.0429 510.00
54.1081 508.00
54.1733 544.00
54.2385 515.00
54.3037 591.00
54.3689 628.00
54.4341 724.00
54.4993 926.00
54.5645 948.00
54.6297 956.00
54.6949 1055.00
54.7601 1160.00
54.8253 1236.00
54.8905 1157.00
54.9557 1102.00
55.0209 906.00
55.0861 733.00
55.1513 651.00
55.2165 565.00
55.2817 601.00
55.3469 536.00
55.4121 500.00
55.4773 509.00
55.5425 515.00
55.6077 503.00
55.6729 485.00
55.7381 542.00
55.8033 492.00
55.8685 561.00
55.9337 609.00
55.9989 598.00
56.0641 612.00
56.1293 687.00
56.1945 641.00
56.2597 658.00
56.3249 606.00
56.3901 595.00
56.4553 513.00
56.5205 545.00
56.5857 535.00
56.6509 512.00
56.7161 463.00
56.7813 455.00
56.8465 447.00
56.9117 452.00
56.9769 409.00
57.042 478.00
57.1073 438.00
57.1724 425.00
57.2376 444.00
57.3028 403.00
57.368 448.00
57.4332 422.00
57.4984 378.00
57.5636 420.00
57.6288 412.00
57.694 443.00
57.7592 431.00
57.8244 434.00
57.8896 443.00
57.9548 447.00
58.02 408.00
58.0852 387.00
58.1504 426.00
58.2156 427.00
58.2808 448.00
58.346 487.00
58.4112 483.00
58.4764 506.00
58.5416 438.00
58.6068 426.00
58.672 433.00
58.7372 441.00
58.8024 448.00
58.8676 417.00
58.9328 449.00
58.998 434.00
59.0632 456.00
59.1284 482.00
59.1936 609.00
59.2588 689.00
59.324 632.00
59.3892 656.00
59.4544 605.00
59.5196 605.00
59.5848 649.00
59.65 765.00
59.7152 753.00
59.7804 749.00
59.8456 695.00
59.9108 854.00
59.976 793.00
60.0412 719.00
60.1064 821.00
60.1716 762.00
60.2368 821.00
60.302 782.00
60.3672 815.00
60.4324 786.00
60.4976 781.00
60.5628 928.00
60.628 1019.00
60.6932 968.00
60.7584 982.00
60.8236 873.00
60.8888 765.00
60.954 796.00
61.0192 687.00
61.0844 594.00
61.1496 598.00
61.2148 602.00
61.28 601.00
61.3452 535.00
61.4104 465.00
61.4756 524.00
61.5408 526.00
61.606 517.00
61.6712 529.00
61.7364 531.00
61.8016 504.00
61.8667 514.00
61.932 570.00
61.9971 540.00
62.0623 619.00
62.1275 675.00
62.1927 608.00
62.2579 585.00
62.3231 594.00
62.3883 584.00
62.4535 558.00
62.5187 584.00
62.5839 636.00
62.6491 724.00
62.7143 727.00
62.7795 835.00
62.8447 750.00
62.9099 676.00
62.9751 690.00
63.0403 666.00
63.1055 573.00
63.1707 612.00
63.2359 689.00
63.3011 695.00
63.3663 569.00
63.4315 596.00
63.4967 578.00
63.5619 541.00
63.6271 483.00
63.6923 501.00
63.7575 516.00
63.8227 488.00
63.8879 496.00
63.9531 512.00
64.0183 493.00
64.0835 555.00
64.1487 609.00
64.2139 507.00
64.2791 513.00
64.3443 505.00
64.4095 466.00
64.4747 507.00
64.5399 427.00
64.6051 435.00
64.6703 465.00
64.7355 460.00
64.8007 411.00
64.8659 414.00
64.9311 421.00
64.9963 478.00
65.0615 422.00
65.1267 418.00
65.1919 451.00
65.2571 413.00
65.3223 431.00
65.3875 477.00
65.4527 481.00
65.5179 487.00
65.5831 484.00
65.6483 536.00
65.7135 549.00
65.7787 511.00
65.8439 537.00
65.9091 460.00
65.9743 430.00
66.0395 484.00
66.1047 442.00
66.1699 487.00
66.2351 476.00
66.3003 506.00
66.3655 609.00
66.4307 607.00
66.4959 682.00
66.561 597.00
66.6263 615.00
66.6915 649.00
66.7566 618.00
66.8218 532.00
66.887 536.00
66.9522 548.00
67.0174 541.00
67.0826 583.00
67.1478 561.00
67.213 526.00
67.2782 487.00
67.3434 524.00
67.4086 517.00
67.4738 503.00
67.539 565.00
67.6042 595.00
67.6694 569.00
67.7346 596.00
67.7998 705.00
67.865 708.00
67.9302 741.00
67.9954 743.00
68.0606 694.00
68.1258 609.00
68.191 647.00
68.2562 608.00
68.3214 491.00
68.3866 482.00
68.4518 434.00
68.517 425.00
68.5822 417.00
68.6474 355.00
68.7126 401.00
68.7778 335.00
68.843 371.00
68.9082 334.00
68.9734 377.00
69.0386 356.00
69.1038 365.00
69.169 357.00
69.2342 419.00
69.2994 377.00
69.3646 359.00
69.4298 376.00
69.495 393.00
69.5602 328.00
69.6254 370.00
69.6906 406.00
69.7558 396.00
69.821 394.00
69.8862 436.00
69.9514 548.00
70.0166 559.00
70.0818 586.00
70.147 589.00
70.2122 559.00
70.2774 502.00
70.3426 491.00
70.4078 443.00
70.473 441.00
70.5382 459.00
70.6034 508.00
70.6686 506.00
70.7338 511.00
70.799 443.00
70.8642 441.00
70.9294 423.00
70.9946 453.00
71.0598 447.00
71.125 504.00
71.1902 488.00
71.2554 449.00
71.3205 454.00
71.3858 492.00
71.451 489.00
71.5162 523.00
71.5813 472.00
71.6465 468.00
71.7117 509.00
71.7769 429.00
71.8421 401.00
71.9073 372.00
71.9725 375.00
72.0377 378.00
72.1029 352.00
72.1681 357.00
72.2333 389.00
72.2985 407.00
72.3637 394.00
72.4289 399.00
72.4941 407.00
72.5593 406.00
72.6245 358.00
72.6897 396.00
72.7549 397.00
72.8201 375.00
72.8853 366.00
72.9505 401.00
73.0157 372.00
73.0809 405.00
73.1461 407.00
73.2113 417.00
73.2765 407.00
73.3417 417.00
73.4069 391.00
73.4721 370.00
73.5373 351.00
73.6025 430.00
73.6677 436.00
73.7329 499.00
73.7981 582.00
73.8633 592.00
73.9285 733.00
73.9937 673.00
74.0589 666.00
74.1241 630.00
74.1893 574.00
74.2545 542.00
74.3197 515.00
74.3849 538.00
74.4501 572.00
74.5153 513.00
74.5805 485.00
74.6457 546.00
74.7109 420.00
74.7761 472.00
74.8413 432.00
74.9065 435.00
74.9717 456.00
75.0369 409.00
75.1021 398.00
75.1673 416.00
75.2325 383.00
75.2977 392.00
75.3629 409.00
75.4281 425.00
75.4933 461.00
75.5585 422.00
75.6237 438.00
75.6889 457.00
75.7541 412.00
75.8193 411.00
75.8845 384.00
75.9497 394.00
76.0149 381.00
76.0801 399.00
76.1452 361.00
76.2104 386.00
76.2756 419.00
76.3409 398.00
76.406 416.00
76.4712 422.00
76.5364 387.00
76.6016 390.00
76.6668 393.00
76.732 399.00
76.7972 339.00
76.8624 324.00
76.9276 312.00
76.9928 339.00
77.058 331.00
77.1232 368.00
77.1884 356.00
77.2536 350.00
77.3188 371.00
77.384 355.00
77.4492 360.00
77.5144 337.00
77.5796 379.00
77.6448 401.00
77.71 367.00
77.7752 384.00
77.8404 336.00
77.9056 349.00
77.9708 339.00
78.036 327.00
78.1012 310.00
78.1664 312.00
78.2316 302.00
78.2968 358.00
78.362 293.00
78.4272 356.00
78.4924 369.00
78.5576 368.00
78.6228 408.00
78.688 394.00
78.7532 376.00
78.8184 369.00
78.8836 362.00
78.9488 439.00
79.014 417.00
79.0792 410.00
79.1444 367.00
79.2096 404.00
79.2748 439.00
79.34 368.00
79.4052 369.00
79.4704 391.00
79.5356 355.00
79.6008 334.00
79.666 317.00
79.7312 300.00
79.7964 302.00
79.8616 333.00
79.9268 344.00
79.992 318.00
80.0572 335.00
80.1224 304.00
80.1876 293.00
80.2528 307.00
80.318 330.00
80.3832 342.00
80.4484 364.00
80.5136 288.00
80.5788 350.00
80.644 341.00
80.7092 344.00
80.7744 322.00
80.8396 320.00
80.9048 336.00
80.9699 349.00
81.0351 326.00
81.1003 358.00
81.1655 337.00
81.2307 306.00
81.2959 367.00
81.3611 314.00
81.4263 343.00
81.4915 317.00
81.5567 323.00
81.6219 353.00
81.6871 351.00
81.7523 369.00
81.8175 333.00
81.8827 363.00
81.9479 426.00
82.0131 396.00
82.0783 490.00
82.1435 452.00
82.2087 426.00
82.2739 458.00
82.3391 487.00
82.4043 493.00
82.4695 427.00
82.5347 428.00
82.5999 431.00
82.6651 360.00
82.7303 374.00
82.7955 335.00
82.8607 335.00
82.9259 372.00
82.9911 335.00
83.0563 303.00
83.1215 309.00
83.1867 341.00
83.2519 338.00
83.3171 329.00
83.3823 368.00
83.4475 379.00
83.5127 384.00
83.5779 372.00
83.6431 371.00
83.7083 419.00
83.7735 413.00
83.8387 376.00
83.9039 444.00
83.9691 390.00
84.0343 396.00
84.0995 403.00
84.1647 374.00
84.2299 419.00
84.2951 414.00
84.3603 353.00
84.4255 351.00
84.4907 375.00
84.5559 370.00
84.6211 349.00
84.6863 338.00
84.7515 327.00
84.8167 354.00
84.8819 329.00
84.9471 369.00
85.0123 385.00
85.0775 345.00
85.1427 345.00
85.2079 316.00
85.2731 328.00
85.3383 333.00
85.4035 304.00
85.4687 309.00
85.5339 317.00
85.5991 341.00
85.6643 299.00
85.7295 356.00
85.7946 314.00
85.8598 310.00
85.925 315.00
85.9903 314.00
86.0554 347.00
86.1206 349.00
86.1858 314.00
86.251 334.00
86.3162 326.00
86.3814 344.00
86.4466 409.00
86.5118 364.00
86.577 406.00
86.6422 387.00
86.7074 352.00
86.7726 384.00
86.8378 354.00
86.903 335.00
86.9682 332.00
87.0334 314.00
87.0986 345.00
87.1638 327.00
87.229 330.00
87.2942 352.00
87.3594 341.00
87.4246 332.00
87.4898 332.00
87.555 311.00
87.6202 374.00
87.6854 323.00
87.7506 352.00
87.8158 353.00
87.881 359.00
87.9462 375.00
88.0114 395.00
88.0766 415.00
88.1418 430.00
88.207 441.00
88.2722 516.00
88.3374 445.00
88.4026 377.00
88.4678 379.00
88.533 403.00
88.5982 375.00
88.6634 367.00
88.7286 390.00
88.7938 379.00
88.859 386.00
88.9242 392.00
88.9894 376.00
89.0546 391.00
89.1198 417.00
89.185 444.00
89.2502 465.00
89.3154 434.00
89.3806 395.00
89.4458 367.00
89.511 385.00
89.5762 371.00
89.6414 351.00
89.7066 377.00
89.7718 315.00
89.837 308.00
89.9022 350.00
89.9674 332.00
90.0326 348.00
90.0978 350.00
90.163 360.00
90.2282 395.00
90.2934 345.00
90.3586 354.00
90.4238 384.00
90.489 350.00
90.5542 316.00
90.6193 306.00
90.6845 299.00
90.7497 317.00
90.8149 315.00
90.8801 313.00
90.9453 287.00
91.0105 329.00
91.0757 285.00
91.1409 284.00
91.2061 303.00
91.2713 295.00
91.3365 338.00
91.4017 318.00
91.4669 321.00
91.5321 305.00
91.5973 333.00
91.6625 373.00
91.7277 353.00
91.7929 384.00
91.8581 334.00
91.9233 338.00
91.9885 356.00
92.0537 342.00
92.1189 340.00
92.1841 350.00
92.2493 325.00
92.3145 333.00
92.3797 365.00
92.4449 370.00
92.5101 338.00
92.5753 358.00
92.6405 387.00
92.7057 366.00
92.7709 357.00
92.8361 327.00
92.9013 349.00
92.9665 302.00
93.0317 324.00
93.0969 318.00
93.1621 291.00
93.2273 298.00
93.2925 313.00
93.3577 339.00
93.4229 370.00
93.4881 399.00
93.5533 350.00
93.6185 340.00
93.6837 326.00
93.7489 320.00
93.8141 361.00
93.8793 324.00
93.9445 305.00
94.0097 316.00
94.0749 327.00
94.1401 342.00
94.2053 319.00
94.2705 383.00
94.3357 408.00
94.4009 441.00
94.4661 366.00
94.5313 382.00
94.5965 394.00
94.6617 408.00
94.7269 406.00
94.7921 364.00
94.8573 357.00
94.9225 344.00
94.9877 344.00
95.0529 366.00
95.1181 370.00
95.1833 359.00
95.2485 337.00
95.3137 313.00
95.3789 347.00
95.444 354.00
95.5092 349.00
95.5744 404.00
95.6396 411.00
95.7048 427.00
95.77 404.00
95.8352 411.00
95.9004 369.00
95.9656 379.00
96.0308 334.00
96.096 355.00
96.1612 341.00
96.2264 316.00
96.2916 308.00
96.3568 280.00
96.422 292.00
96.4872 261.00
96.5524 302.00
96.6176 263.00
96.6828 277.00
96.748 260.00
96.8132 304.00
96.8784 288.00
96.9436 286.00
97.0088 277.00
97.074 291.00
97.1392 298.00
97.2044 290.00
97.2696 295.00
97.3348 270.00
97.4 279.00
97.4652 293.00
97.5304 319.00
97.5956 328.00
97.6608 366.00
97.726 389.00
97.7912 310.00
97.8564 318.00
97.9216 316.00
97.9868 340.00
98.052 287.00
98.1172 313.00
98.1824 332.00
98.2476 322.00
98.3128 343.00
98.378 325.00
98.4432 331.00
98.5084 350.00
98.5736 385.00
98.6388 348.00
98.704 341.00
98.7692 336.00
98.8344 338.00
98.8996 344.00
98.9648 322.00
99.03 302.00
99.0952 360.00
99.1604 290.00
99.2256 299.00
99.2908 260.00
99.356 289.00
99.4212 293.00
99.4864 293.00
99.5516 314.00
99.6168 318.00
99.682 323.00
99.7472 336.00
99.8124 294.00
99.8776 339.00
99.9428 315.00
100.008 305.00
100.073 288.00
100.095 288.00