File: data/xrd_creation/results/NSC_43.xy
9.903433 2772.00
9.968632 2878.00
10.0338 2825.00
10.099 2784.00
10.1642 2780.00
10.2294 2806.00
10.2946 2791.00
10.3598 2653.00
10.425 2751.00
10.4902 2626.00
10.5554 2577.00
10.6206 2637.00
10.6858 2615.00
10.751 2589.00
10.8162 2465.00
10.8814 2463.00
10.9466 2557.00
11.0118 2485.00
11.077 2460.00
11.1422 2423.00
11.2074 2405.00
11.2726 2275.00
11.3378 2329.00
11.403 2295.00
11.4682 2346.00
11.5334 2272.00
11.5986 2174.00
11.6638 2230.00
11.729 2291.00
11.7942 2206.00
11.8594 2313.00
11.9246 2219.00
11.9898 2357.00
12.055 2221.00
12.1202 2252.00
12.1854 2223.00
12.2506 2093.00
12.3158 2109.00
12.381 2102.00
12.4462 2065.00
12.5114 2146.00
12.5766 2027.00
12.6418 2047.00
12.707 2123.00
12.7722 2084.00
12.8374 2001.00
12.9026 2009.00
12.9678 1922.00
13.033 1975.00
13.0982 1981.00
13.1634 1926.00
13.2286 2008.00
13.2938 1869.00
13.359 2026.00
13.4242 1935.00
13.4894 1972.00
13.5546 2015.00
13.6198 1980.00
13.685 1992.00
13.7502 1926.00
13.8154 2153.00
13.8805 2114.00
13.9457 2187.00
14.0109 2242.00
14.0761 2560.00
14.1413 2418.00
14.2065 2061.00
14.2717 1924.00
14.3369 1910.00
14.4021 1898.00
14.4673 1812.00
14.5325 1783.00
14.5977 1763.00
14.6629 1782.00
14.7281 1830.00
14.7933 1760.00
14.8585 1788.00
14.9237 1846.00
14.9889 1879.00
15.0541 1714.00
15.1193 1708.00
15.1845 1723.00
15.2497 1675.00
15.3149 1853.00
15.3801 1862.00
15.4453 1778.00
15.5105 1708.00
15.5757 1795.00
15.6409 1708.00
15.7061 1654.00
15.7713 1717.00
15.8365 1708.00
15.9017 1671.00
15.9669 1658.00
16.0321 1673.00
16.0973 1762.00
16.1625 1756.00
16.2277 1586.00
16.2929 1588.00
16.3581 1632.00
16.4233 1626.00
16.4885 1678.00
16.5537 1592.00
16.6189 1657.00
16.6841 1718.00
16.7493 1676.00
16.8145 1629.00
16.8797 1540.00
16.9449 1587.00
17.0101 1605.00
17.0753 1613.00
17.1405 1583.00
17.2057 1575.00
17.2709 1664.00
17.3361 1600.00
17.4013 1599.00
17.4665 1605.00
17.5317 1579.00
17.5969 1590.00
17.6621 1604.00
17.7273 1637.00
17.7925 1640.00
17.8577 1591.00
17.9229 1591.00
17.9881 1582.00
18.0533 1597.00
18.1185 1503.00
18.1837 1520.00
18.2489 1535.00
18.3141 1591.00
18.3793 1526.00
18.4445 1473.00
18.5097 1561.00
18.5749 1501.00
18.6401 1495.00
18.7052 1456.00
18.7704 1404.00
18.8356 1506.00
18.9008 1521.00
18.966 1494.00
19.0312 1489.00
19.0964 1524.00
19.1616 1537.00
19.2268 1567.00
19.292 1572.00
19.3572 1665.00
19.4224 1894.00
19.4876 2082.00
19.5528 2498.00
19.618 2812.00
19.6832 3331.00
19.7484 4061.00
19.8136 4530.00
19.8788 4275.00
19.944 3670.00
20.0092 3620.00
20.0744 3032.00
20.1396 2050.00
20.2048 1701.00
20.27 1597.00
20.3352 1579.00
20.4004 1598.00
20.4656 1725.00
20.5308 1952.00
20.596 2288.00
20.6612 2755.00
20.7264 3389.00
20.7916 3869.00
20.8568 4695.00
20.922 5395.00
20.9872 5813.00
21.0524 4414.00
21.1176 2511.00
21.1828 1850.00
21.248 1772.00
21.3132 1834.00
21.3784 1865.00
21.4436 1920.00
21.5088 2097.00
21.574 1893.00
21.6392 1550.00
21.7044 1447.00
21.7696 1432.00
21.8348 1409.00
21.9 1431.00
21.9652 1422.00
22.0304 1339.00
22.0956 1387.00
22.1608 1389.00
22.226 1322.00
22.2912 1297.00
22.3564 1368.00
22.4216 1316.00
22.4868 1301.00
22.552 1315.00
22.6172 1283.00
22.6824 1333.00
22.7476 1381.00
22.8128 1339.00
22.878 1370.00
22.9432 1435.00
23.0084 1695.00
23.0736 1753.00
23.1388 2037.00
23.204 2310.00
23.2692 2775.00
23.3344 3105.00
23.3996 3066.00
23.4647 2411.00
23.5299 1631.00
23.5951 1313.00
23.6603 1314.00
23.7255 1294.00
23.7907 1346.00
23.8559 1336.00
23.9211 1295.00
23.9863 1265.00
24.0515 1260.00
24.1167 1210.00
24.1819 1284.00
24.2471 1222.00
24.3123 1228.00
24.3775 1328.00
24.4427 1293.00
24.5079 1298.00
24.5731 1211.00
24.6383 1237.00
24.7035 1243.00
24.7687 1195.00
24.8339 1158.00
24.8991 1214.00
24.9643 1178.00
25.0295 1190.00
25.0947 1139.00
25.1599 1170.00
25.2251 1205.00
25.2903 1155.00
25.3555 1198.00
25.4207 1156.00
25.4859 1111.00
25.5511 1145.00
25.6163 1198.00
25.6815 1127.00
25.7467 1130.00
25.8119 1171.00
25.8771 1141.00
25.9423 1162.00
26.0075 1112.00
26.0727 1153.00
26.1379 1109.00
26.2031 1206.00
26.2683 1177.00
26.3335 1115.00
26.3987 1143.00
26.4639 1108.00
26.5291 1133.00
26.5943 1114.00
26.6595 1132.00
26.7247 1094.00
26.7899 1139.00
26.8551 1063.00
26.9203 1182.00
26.9855 1174.00
27.0507 1167.00
27.1159 1229.00
27.1811 1257.00
27.2463 1312.00
27.3115 1445.00
27.3767 1619.00
27.4419 1803.00
27.5071 1766.00
27.5723 1581.00
27.6375 1333.00
27.7027 1290.00
27.7679 1218.00
27.8331 1234.00
27.8983 1368.00
27.9635 1507.00
28.0287 1879.00
28.0939 2205.00
28.1591 2596.00
28.2243 2589.00
28.2894 2056.00
28.3546 1418.00
28.4198 1221.00
28.485 1112.00
28.5502 1132.00
28.6154 1125.00
28.6806 1105.00
28.7458 1019.00
28.811 986.00
28.8762 995.00
28.9414 1075.00
29.0066 1127.00
29.0718 1065.00
29.137 1027.00
29.2022 1064.00
29.2674 1052.00
29.3326 1038.00
29.3978 1123.00
29.463 1180.00
29.5282 1246.00
29.5934 1274.00
29.6586 1304.00
29.7238 1408.00
29.789 1559.00
29.8542 1693.00
29.9194 1989.00
29.9846 1907.00
30.0498 1625.00
30.115 1284.00
30.1802 1084.00
30.2454 1107.00
30.3106 1091.00
30.3758 1088.00
30.441 1101.00
30.5062 1206.00
30.5714 1364.00
30.6366 1564.00
30.7018 1818.00
30.767 2096.00
30.8322 2057.00
30.8974 1953.00
30.9626 1715.00
31.0278 1791.00
31.093 1919.00
31.1582 2244.00
31.2234 2794.00
31.2886 3620.00
31.3538 4643.00
31.419 5443.00
31.4842 5258.00
31.5494 3763.00
31.6146 2241.00
31.6798 1428.00
31.745 1185.00
31.8102 1080.00
31.8754 1034.00
31.9406 1016.00
32.0058 973.00
32.071 1009.00
32.1362 996.00
32.2014 949.00
32.2666 956.00
32.3318 961.00
32.397 956.00
32.4622 917.00
32.5274 984.00
32.5926 942.00
32.6578 975.00
32.723 995.00
32.7882 939.00
32.8534 866.00
32.9186 921.00
32.9838 902.00
33.0489 897.00
33.1141 872.00
33.1793 905.00
33.2445 962.00
33.3097 996.00
33.3749 864.00
33.4401 919.00
33.5053 901.00
33.5705 856.00
33.6357 983.00
33.7009 934.00
33.7661 941.00
33.8313 986.00
33.8965 1013.00
33.9617 1106.00
34.0269 1165.00
34.0921 1398.00
34.1573 1699.00
34.2225 2318.00
34.2877 3179.00
34.3529 4169.00
34.4181 5139.00
34.4833 5032.00
34.5485 3958.00
34.6137 3279.00
34.6789 3364.00
34.7441 3966.00
34.8093 4280.00
34.8745 4152.00
34.9397 3126.00
35.0049 2130.00
35.0701 1502.00
35.1353 1246.00
35.2005 1082.00
35.2657 992.00
35.3309 936.00
35.3961 916.00
35.4613 940.00
35.5265 954.00
35.5917 1092.00
35.6569 1119.00
35.7221 1085.00
35.7873 995.00
35.8525 967.00
35.9177 938.00
35.9829 859.00
36.0481 887.00
36.1133 949.00
36.1785 953.00
36.2437 958.00
36.3089 906.00
36.3741 857.00
36.4393 847.00
36.5045 847.00
36.5697 787.00
36.6349 748.00
36.7001 802.00
36.7653 831.00
36.8305 782.00
36.8957 807.00
36.9609 770.00
37.0261 789.00
37.0913 810.00
37.1565 823.00
37.2217 868.00
37.2869 874.00
37.3521 760.00
37.4173 805.00
37.4825 810.00
37.5477 860.00
37.6129 941.00
37.6781 908.00
37.7433 919.00
37.8085 890.00
37.8736 883.00
37.9388 855.00
38.004 846.00
38.0692 769.00
38.1344 732.00
38.1996 815.00
38.2648 805.00
38.33 847.00
38.3952 856.00
38.4604 900.00
38.5256 1092.00
38.5908 1231.00
38.656 1353.00
38.7212 1348.00
38.7864 1182.00
38.8516 997.00
38.9168 911.00
38.982 846.00
39.0472 813.00
39.1124 942.00
39.1776 1022.00
39.2428 1101.00
39.308 1082.00
39.3732 1003.00
39.4384 943.00
39.5036 849.00
39.5688 778.00
39.634 778.00
39.6992 811.00
39.7644 770.00
39.8296 804.00
39.8948 861.00
39.96 891.00
40.0252 879.00
40.0904 843.00
40.1556 857.00
40.2208 820.00
40.286 893.00
40.3512 934.00
40.4164 956.00
40.4816 958.00
40.5468 859.00
40.612 845.00
40.6772 818.00
40.7424 818.00
40.8076 778.00
40.8728 768.00
40.938 710.00
41.0032 746.00
41.0684 789.00
41.1336 732.00
41.1988 712.00
41.264 745.00
41.3292 671.00
41.3944 781.00
41.4596 742.00
41.5248 733.00
41.59 761.00
41.6552 755.00
41.7204 762.00
41.7856 736.00
41.8508 837.00
41.916 893.00
41.9812 950.00
42.0464 918.00
42.1116 1032.00
42.1768 1077.00
42.242 1166.00
42.3072 1251.00
42.3724 1271.00
42.4376 1157.00
42.5028 1065.00
42.568 1023.00
42.6332 1054.00
42.6983 1174.00
42.7635 1241.00
42.8287 1200.00
42.8939 1118.00
42.9591 994.00
43.0243 960.00
43.0895 903.00
43.1547 733.00
43.2199 708.00
43.2851 692.00
43.3503 785.00
43.4155 777.00
43.4807 870.00
43.5459 956.00
43.6111 998.00
43.6763 962.00
43.7415 902.00
43.8067 810.00
43.8719 793.00
43.9371 741.00
44.0023 690.00
44.0675 738.00
44.1327 638.00
44.1979 684.00
44.2631 634.00
44.3283 663.00
44.3935 670.00
44.4587 701.00
44.5239 674.00
44.5891 684.00
44.6543 653.00
44.7195 720.00
44.7847 778.00
44.8499 807.00
44.9151 925.00
44.9803 973.00
45.0455 1042.00
45.1107 1037.00
45.1759 1103.00
45.2411 1245.00
45.3063 1410.00
45.3715 1280.00
45.4367 1028.00
45.5019 862.00
45.5671 746.00
45.6323 721.00
45.6975 661.00
45.7627 700.00
45.8279 786.00
45.8931 806.00
45.9583 761.00
46.0235 762.00
46.0887 744.00
46.1539 684.00
46.2191 664.00
46.2843 636.00
46.3495 633.00
46.4147 690.00
46.4799 656.00
46.5451 627.00
46.6103 647.00
46.6755 672.00
46.7407 697.00
46.8059 671.00
46.8711 759.00
46.9363 854.00
47.0015 940.00
47.0667 1031.00
47.1319 1247.00
47.1971 1282.00
47.2623 1386.00
47.3275 1476.00
47.3927 1673.00
47.4579 2133.00
47.523 2492.00
47.5882 2399.00
47.6534 1998.00
47.7186 1574.00
47.7838 1102.00
47.849 821.00
47.9142 743.00
47.9794 732.00
48.0446 700.00
48.1098 680.00
48.175 684.00
48.2402 644.00
48.3054 649.00
48.3706 617.00
48.4358 676.00
48.501 666.00
48.5662 639.00
48.6314 660.00
48.6966 683.00
48.7618 660.00
48.827 670.00
48.8922 723.00
48.9574 749.00
49.0226 815.00
49.0878 794.00
49.153 961.00
49.2182 1010.00
49.2834 1074.00
49.3486 1203.00
49.4138 1066.00
49.479 1076.00
49.5442 911.00
49.6094 819.00
49.6746 796.00
49.7398 740.00
49.805 755.00
49.8702 830.00
49.9354 757.00
50.0006 733.00
50.0658 656.00
50.131 622.00
50.1962 624.00
50.2614 624.00
50.3266 617.00
50.3918 604.00
50.457 644.00
50.5222 613.00
50.5874 569.00
50.6526 594.00
50.7178 542.00
50.783 614.00
50.8482 643.00
50.9134 610.00
50.9786 664.00
51.0438 759.00
51.109 891.00
51.1742 1040.00
51.2394 1076.00
51.3046 1105.00
51.3698 1152.00
51.435 1170.00
51.5002 1321.00
51.5654 1538.00
51.6306 1548.00
51.6958 1466.00
51.761 1273.00
51.8262 995.00
51.8914 781.00
51.9566 710.00
52.0218 681.00
52.087 703.00
52.1522 672.00
52.2174 722.00
52.2826 609.00
52.3477 655.00
52.4129 584.00
52.4781 593.00
52.5433 585.00
52.6085 597.00
52.6737 616.00
52.7389 582.00
52.8041 557.00
52.8693 632.00
52.9345 545.00
52.9997 612.00
53.0649 612.00
53.1301 617.00
53.1953 619.00
53.2605 588.00
53.3257 607.00
53.3909 647.00
53.4561 646.00
53.5213 666.00
53.5865 611.00
53.6517 614.00
53.7169 664.00
53.7821 673.00
53.8473 699.00
53.9125 793.00
53.9777 869.00
54.0429 1036.00
54.1081 1278.00
54.1733 1628.00
54.2385 1811.00
54.3037 1869.00
54.3689 1719.00
54.4341 1421.00
54.4993 1057.00
54.5645 832.00
54.6297 715.00
54.6949 627.00
54.7601 577.00
54.8253 577.00
54.8905 559.00
54.9557 562.00
55.0209 565.00
55.0861 597.00
55.1513 598.00
55.2165 538.00
55.2817 587.00
55.3469 549.00
55.4121 585.00
55.4773 581.00
55.5425 563.00
55.6077 613.00
55.6729 565.00
55.7381 585.00
55.8033 662.00
55.8685 649.00
55.9337 599.00
55.9989 581.00
56.0641 614.00
56.1293 571.00
56.1945 573.00
56.2597 633.00
56.3249 616.00
56.3901 570.00
56.4553 585.00
56.5205 601.00
56.5857 607.00
56.6509 546.00
56.7161 573.00
56.7813 538.00
56.8465 566.00
56.9117 564.00
56.9769 589.00
57.042 655.00
57.1073 635.00
57.1724 605.00
57.2376 674.00
57.3028 655.00
57.368 610.00
57.4332 553.00
57.4984 526.00
57.5636 564.00
57.6288 559.00
57.694 571.00
57.7592 580.00
57.8244 627.00
57.8896 630.00
57.9548 622.00
58.02 609.00
58.0852 643.00
58.1504 598.00
58.2156 549.00
58.2808 595.00
58.346 543.00
58.4112 534.00
58.4764 574.00
58.5416 521.00
58.6068 539.00
58.672 588.00
58.7372 532.00
58.8024 516.00
58.8676 565.00
58.9328 609.00
58.998 598.00
59.0632 588.00
59.1284 649.00
59.1936 702.00
59.2588 804.00
59.324 868.00
59.3892 916.00
59.4544 905.00
59.5196 965.00
59.5848 946.00
59.65 1019.00
59.7152 1047.00
59.7804 1186.00
59.8456 1241.00
59.9108 1258.00
59.976 1312.00
60.0412 1402.00
60.1064 1625.00
60.1716 1652.00
60.2368 1559.00
60.302 1328.00
60.3672 1007.00
60.4324 865.00
60.4976 720.00
60.5628 675.00
60.628 612.00
60.6932 664.00
60.7584 728.00
60.8236 678.00
60.8888 784.00
60.954 783.00
61.0192 800.00
61.0844 723.00
61.1496 753.00
61.2148 787.00
61.28 928.00
61.3452 1062.00
61.4104 1281.00
61.4756 1505.00
61.5408 1457.00
61.606 1330.00
61.6712 1216.00
61.7364 1031.00
61.8016 772.00
61.8667 689.00
61.932 685.00
61.9971 706.00
62.0623 732.00
62.1275 919.00
62.1927 1007.00
62.2579 1023.00
62.3231 1006.00
62.3883 926.00
62.4535 756.00
62.5187 700.00
62.5839 646.00
62.6491 596.00
62.7143 528.00
62.7795 545.00
62.8447 564.00
62.9099 562.00
62.9751 551.00
63.0403 548.00
63.1055 634.00
63.1707 671.00
63.2359 674.00
63.3011 695.00
63.3663 692.00
63.4315 712.00
63.4967 701.00
63.5619 705.00
63.6271 786.00
63.6923 738.00
63.7575 748.00
63.8227 756.00
63.8879 635.00
63.9531 624.00
64.0183 588.00
64.0835 559.00
64.1487 542.00
64.2139 569.00
64.2791 536.00
64.3443 523.00
64.4095 492.00
64.4747 459.00
64.5399 492.00
64.6051 512.00
64.6703 448.00
64.7355 438.00
64.8007 466.00
64.8659 493.00
64.9311 473.00
64.9963 533.00
65.0615 524.00
65.1267 516.00
65.1919 464.00
65.2571 527.00
65.3223 588.00
65.3875 589.00
65.4527 671.00
65.5179 623.00
65.5831 711.00
65.6483 722.00
65.7135 728.00
65.7787 702.00
65.8439 724.00
65.9091 659.00
65.9743 694.00
66.0395 625.00
66.1047 635.00
66.1699 561.00
66.2351 571.00
66.3003 545.00
66.3655 546.00
66.4307 516.00
66.4959 547.00
66.561 508.00
66.6263 469.00
66.6915 520.00
66.7566 586.00
66.8218 575.00
66.887 619.00
66.9522 664.00
67.0174 665.00
67.0826 648.00
67.1478 676.00
67.213 654.00
67.2782 774.00
67.3434 798.00
67.4086 849.00
67.4738 847.00
67.539 826.00
67.6042 797.00
67.6694 819.00
67.7346 796.00
67.7998 728.00
67.865 676.00
67.9302 643.00
67.9954 656.00
68.0606 615.00
68.1258 578.00
68.191 554.00
68.2562 527.00
68.3214 519.00
68.3866 500.00
68.4518 534.00
68.517 528.00
68.5822 542.00
68.6474 602.00
68.7126 515.00
68.7778 563.00
68.843 523.00
68.9082 521.00
68.9734 477.00
69.0386 431.00
69.1038 433.00
69.169 499.00
69.2342 470.00
69.2994 519.00
69.3646 516.00
69.4298 549.00
69.495 630.00
69.5602 640.00
69.6254 721.00
69.6906 664.00
69.7558 661.00
69.821 588.00
69.8862 571.00
69.9514 506.00
70.0166 450.00
70.0818 491.00
70.147 462.00
70.2122 455.00
70.2774 449.00
70.3426 443.00
70.4078 435.00
70.473 438.00
70.5382 489.00
70.6034 489.00
70.6686 426.00
70.7338 460.00
70.799 469.00
70.8642 472.00
70.9294 453.00
70.9946 487.00
71.0598 442.00
71.125 494.00
71.1902 445.00
71.2554 458.00
71.3205 471.00
71.3858 454.00
71.451 469.00
71.5162 431.00
71.5813 451.00
71.6465 486.00
71.7117 460.00
71.7769 438.00
71.8421 533.00
71.9073 577.00
71.9725 550.00
72.0377 555.00
72.1029 581.00
72.1681 655.00
72.2333 627.00
72.2985 665.00
72.3637 634.00
72.4289 636.00
72.4941 551.00
72.5593 489.00
72.6245 491.00
72.6897 466.00
72.7549 440.00
72.8201 373.00
72.8853 460.00
72.9505 483.00
73.0157 498.00
73.0809 517.00
73.1461 606.00
73.2113 668.00
73.2765 623.00
73.3417 691.00
73.4069 669.00
73.4721 621.00
73.5373 567.00
73.6025 516.00
73.6677 456.00
73.7329 456.00
73.7981 468.00
73.8633 448.00
73.9285 464.00
73.9937 485.00
74.0589 521.00
74.1241 561.00
74.1893 541.00
74.2545 572.00
74.3197 633.00
74.3849 575.00
74.4501 617.00
74.5153 607.00
74.5805 520.00
74.6457 502.00
74.7109 509.00
74.7761 472.00
74.8413 455.00
74.9065 472.00
74.9717 516.00
75.0369 497.00
75.1021 511.00
75.1673 526.00
75.2325 494.00
75.2977 494.00
75.3629 506.00
75.4281 491.00
75.4933 481.00
75.5585 468.00
75.6237 477.00
75.6889 477.00
75.7541 501.00
75.8193 463.00
75.8845 496.00
75.9497 495.00
76.0149 554.00
76.0801 557.00
76.1452 545.00
76.2104 534.00
76.2756 514.00
76.3409 520.00
76.406 515.00
76.4712 487.00
76.5364 529.00
76.6016 500.00
76.6668 572.00
76.732 615.00
76.7972 592.00
76.8624 570.00
76.9276 573.00
76.9928 530.00
77.058 479.00
77.1232 475.00
77.1884 449.00
77.2536 440.00
77.3188 460.00
77.384 451.00
77.4492 465.00
77.5144 392.00
77.5796 426.00
77.6448 460.00
77.71 460.00
77.7752 451.00
77.8404 426.00
77.9056 458.00
77.9708 520.00
78.036 543.00
78.1012 539.00
78.1664 510.00
78.2316 518.00
78.2968 509.00
78.362 465.00
78.4272 464.00
78.4924 427.00
78.5576 436.00
78.6228 415.00
78.688 410.00
78.7532 390.00
78.8184 419.00
78.8836 420.00
78.9488 418.00
79.014 445.00
79.0792 398.00
79.1444 424.00
79.2096 456.00
79.2748 397.00
79.34 401.00
79.4052 418.00
79.4704 408.00
79.5356 408.00
79.6008 394.00
79.666 406.00
79.7312 410.00
79.7964 418.00
79.8616 435.00
79.9268 434.00
79.992 447.00
80.0572 459.00
80.1224 454.00
80.1876 451.00
80.2528 486.00
80.318 404.00
80.3832 434.00
80.4484 413.00
80.5136 390.00
80.5788 382.00
80.644 420.00
80.7092 419.00
80.7744 435.00
80.8396 425.00
80.9048 450.00
80.9699 456.00
81.0351 449.00
81.1003 517.00
81.1655 484.00
81.2307 564.00
81.2959 522.00
81.3611 543.00
81.4263 559.00
81.4915 553.00
81.5567 616.00
81.6219 649.00
81.6871 683.00
81.7523 724.00
81.8175 718.00
81.8827 696.00
81.9479 652.00
82.0131 590.00
82.0783 571.00
82.1435 590.00
82.2087 499.00
82.2739 532.00
82.3391 554.00
82.4043 575.00
82.4695 527.00
82.5347 572.00
82.5999 549.00
82.6651 572.00
82.7303 532.00
82.7955 474.00
82.8607 519.00
82.9259 494.00
82.9911 456.00
83.0563 459.00
83.1215 419.00
83.1867 497.00
83.2519 501.00
83.3171 506.00
83.3823 498.00
83.4475 485.00
83.5127 479.00
83.5779 506.00
83.6431 492.00
83.7083 471.00
83.7735 452.00
83.8387 458.00
83.9039 397.00
83.9691 414.00
84.0343 412.00
84.0995 407.00
84.1647 432.00
84.2299 388.00
84.2951 385.00
84.3603 413.00
84.4255 394.00
84.4907 406.00
84.5559 381.00
84.6211 373.00
84.6863 366.00
84.7515 385.00
84.8167 351.00
84.8819 398.00
84.9471 351.00
85.0123 419.00
85.0775 419.00
85.1427 386.00
85.2079 418.00
85.2731 431.00
85.3383 420.00
85.4035 426.00
85.4687 446.00
85.5339 441.00
85.5991 427.00
85.6643 424.00
85.7295 450.00
85.7946 393.00
85.8598 429.00
85.925 437.00
85.9903 455.00
86.0554 444.00
86.1206 422.00
86.1858 451.00
86.251 436.00
86.3162 401.00
86.3814 405.00
86.4466 392.00
86.5118 422.00
86.577 372.00
86.6422 386.00
86.7074 419.00
86.7726 342.00
86.8378 434.00
86.903 418.00
86.9682 413.00
87.0334 410.00
87.0986 449.00
87.1638 406.00
87.229 401.00
87.2942 447.00
87.3594 413.00
87.4246 445.00
87.4898 418.00
87.555 397.00
87.6202 401.00
87.6854 413.00
87.7506 425.00
87.8158 404.00
87.881 428.00
87.9462 383.00
88.0114 461.00
88.0766 495.00
88.1418 510.00
88.207 523.00
88.2722 546.00
88.3374 617.00
88.4026 543.00
88.4678 524.00
88.533 546.00
88.5982 513.00
88.6634 483.00
88.7286 509.00
88.7938 471.00
88.859 443.00
88.9242 473.00
88.9894 445.00
89.0546 465.00
89.1198 428.00
89.185 367.00
89.2502 433.00
89.3154 429.00
89.3806 427.00
89.4458 454.00
89.511 451.00
89.5762 391.00
89.6414 401.00
89.7066 393.00
89.7718 408.00
89.837 383.00
89.9022 360.00
89.9674 419.00
90.0326 409.00
90.0978 410.00
90.163 433.00
90.2282 408.00
90.2934 440.00
90.3586 431.00
90.4238 407.00
90.489 394.00
90.5542 362.00
90.6193 415.00
90.6845 411.00
90.7497 427.00
90.8149 418.00
90.8801 349.00
90.9453 397.00
91.0105 426.00
91.0757 452.00
91.1409 430.00
91.2061 447.00
91.2713 440.00
91.3365 443.00
91.4017 417.00
91.4669 435.00
91.5321 430.00
91.5973 422.00
91.6625 421.00
91.7277 435.00
91.7929 452.00
91.8581 502.00
91.9233 480.00
91.9885 456.00
92.0537 446.00
92.1189 524.00
92.1841 472.00
92.2493 442.00
92.3145 471.00
92.3797 471.00
92.4449 426.00
92.5101 422.00
92.5753 405.00
92.6405 435.00
92.7057 394.00
92.7709 430.00
92.8361 392.00
92.9013 378.00
92.9665 415.00
93.0317 382.00
93.0969 393.00
93.1621 436.00
93.2273 408.00
93.2925 435.00
93.3577 403.00
93.4229 420.00
93.4881 435.00
93.5533 418.00
93.6185 417.00
93.6837 439.00
93.7489 426.00
93.8141 442.00
93.8793 431.00
93.9445 416.00
94.0097 392.00
94.0749 444.00
94.1401 407.00
94.2053 394.00
94.2705 381.00
94.3357 400.00
94.4009 395.00
94.4661 378.00
94.5313 390.00
94.5965 474.00
94.6617 463.00
94.7269 472.00
94.7921 426.00
94.8573 471.00
94.9225 512.00
94.9877 510.00
95.0529 508.00
95.1181 491.00
95.1833 502.00
95.2485 465.00
95.3137 491.00
95.3789 478.00
95.444 515.00
95.5092 461.00
95.5744 476.00
95.6396 462.00
95.7048 441.00
95.77 463.00
95.8352 412.00
95.9004 433.00
95.9656 427.00
96.0308 434.00
96.096 444.00
96.1612 414.00
96.2264 442.00
96.2916 446.00
96.3568 451.00
96.422 418.00
96.4872 401.00
96.5524 449.00
96.6176 432.00
96.6828 433.00
96.748 433.00
96.8132 458.00
96.8784 426.00
96.9436 446.00
97.0088 432.00
97.074 454.00
97.1392 471.00
97.2044 419.00
97.2696 453.00
97.3348 437.00
97.4 422.00
97.4652 410.00
97.5304 422.00
97.5956 367.00
97.6608 387.00
97.726 387.00
97.7912 395.00
97.8564 369.00
97.9216 361.00
97.9868 381.00
98.052 390.00
98.1172 365.00
98.1824 359.00
98.2476 393.00
98.3128 365.00
98.378 422.00
98.4432 370.00
98.5084 379.00
98.5736 369.00
98.6388 381.00
98.704 341.00
98.7692 352.00
98.8344 354.00
98.8996 400.00
98.9648 344.00
99.03 382.00
99.0952 380.00
99.1604 407.00
99.2256 402.00
99.2908 420.00
99.356 419.00
99.4212 410.00
99.4864 396.00
99.5516 389.00
99.6168 393.00
99.682 422.00
99.7472 391.00
99.8124 426.00
99.8776 388.00
99.9428 404.00
100.008 391.00
100.073 352.00
100.095 373.00