File: data/xrd_creation/results/NSC_212.xy
9.903433 2971.00
9.968632 2959.00
10.0338 2893.00
10.099 2922.00
10.1642 2947.00
10.2294 2927.00
10.2946 2950.00
10.3598 2824.00
10.425 2734.00
10.4902 2746.00
10.5554 2824.00
10.6206 2799.00
10.6858 2753.00
10.751 2720.00
10.8162 2735.00
10.8814 2706.00
10.9466 2725.00
11.0118 2673.00
11.077 2660.00
11.1422 2629.00
11.2074 2635.00
11.2726 2639.00
11.3378 2566.00
11.403 2554.00
11.4682 2588.00
11.5334 2448.00
11.5986 2527.00
11.6638 2465.00
11.729 2540.00
11.7942 2550.00
11.8594 2507.00
11.9246 2521.00
11.9898 2413.00
12.055 2450.00
12.1202 2530.00
12.1854 2423.00
12.2506 2445.00
12.3158 2314.00
12.381 2447.00
12.4462 2331.00
12.5114 2388.00
12.5766 2436.00
12.6418 2350.00
12.707 2286.00
12.7722 2255.00
12.8374 2304.00
12.9026 2236.00
12.9678 2310.00
13.033 2232.00
13.0982 2179.00
13.1634 2242.00
13.2286 2328.00
13.2938 2306.00
13.359 2234.00
13.4242 2142.00
13.4894 2233.00
13.5546 2257.00
13.6198 2254.00
13.685 2137.00
13.7502 2164.00
13.8154 2176.00
13.8805 2165.00
13.9457 2116.00
14.0109 2183.00
14.0761 2148.00
14.1413 2239.00
14.2065 2165.00
14.2717 2231.00
14.3369 2157.00
14.4021 2078.00
14.4673 2163.00
14.5325 2133.00
14.5977 2126.00
14.6629 2041.00
14.7281 2077.00
14.7933 2126.00
14.8585 2080.00
14.9237 2084.00
14.9889 2099.00
15.0541 2073.00
15.1193 2044.00
15.1845 2043.00
15.2497 2100.00
15.3149 1970.00
15.3801 2069.00
15.4453 2098.00
15.5105 2061.00
15.5757 2106.00
15.6409 2055.00
15.7061 2024.00
15.7713 2050.00
15.8365 2153.00
15.9017 2031.00
15.9669 2002.00
16.0321 1988.00
16.0973 1968.00
16.1625 1983.00
16.2277 2110.00
16.2929 2092.00
16.3581 1975.00
16.4233 2051.00
16.4885 1981.00
16.5537 2072.00
16.6189 2012.00
16.6841 2039.00
16.7493 1954.00
16.8145 2034.00
16.8797 1990.00
16.9449 1924.00
17.0101 1904.00
17.0753 2007.00
17.1405 2053.00
17.2057 1997.00
17.2709 1933.00
17.3361 1930.00
17.4013 2058.00
17.4665 1984.00
17.5317 2071.00
17.5969 2142.00
17.6621 2268.00
17.7273 2473.00
17.7925 2738.00
17.8577 2707.00
17.9229 2522.00
17.9881 2157.00
18.0533 1997.00
18.1185 1944.00
18.1837 1951.00
18.2489 1929.00
18.3141 1887.00
18.3793 1830.00
18.4445 2030.00
18.5097 1896.00
18.5749 1845.00
18.6401 1813.00
18.7052 1844.00
18.7704 1935.00
18.8356 1840.00
18.9008 1878.00
18.966 1907.00
19.0312 1932.00
19.0964 1877.00
19.1616 2019.00
19.2268 2094.00
19.292 2027.00
19.3572 2015.00
19.4224 1942.00
19.4876 1879.00
19.5528 1778.00
19.618 1896.00
19.6832 1972.00
19.7484 1865.00
19.8136 1885.00
19.8788 1878.00
19.944 1919.00
20.0092 1906.00
20.0744 2010.00
20.1396 2187.00
20.2048 2494.00
20.27 2993.00
20.3352 3534.00
20.4004 4150.00
20.4656 3437.00
20.5308 2732.00
20.596 2216.00
20.6612 2048.00
20.7264 2109.00
20.7916 2016.00
20.8568 2051.00
20.922 2183.00
20.9872 2198.00
21.0524 2181.00
21.1176 2318.00
21.1828 2135.00
21.248 2003.00
21.3132 1953.00
21.3784 1909.00
21.4436 1884.00
21.5088 1906.00
21.574 1977.00
21.6392 2037.00
21.7044 2206.00
21.7696 2610.00
21.8348 2757.00
21.9 2243.00
21.9652 1874.00
22.0304 1830.00
22.0956 1860.00
22.1608 1842.00
22.226 1769.00
22.2912 1823.00
22.3564 1818.00
22.4216 1908.00
22.4868 1826.00
22.552 1818.00
22.6172 1852.00
22.6824 1787.00
22.7476 1791.00
22.8128 1790.00
22.878 1704.00
22.9432 1764.00
23.0084 1705.00
23.0736 1763.00
23.1388 1789.00
23.204 1682.00
23.2692 1731.00
23.3344 1749.00
23.3996 1847.00
23.4647 1738.00
23.5299 1713.00
23.5951 1727.00
23.6603 1803.00
23.7255 1728.00
23.7907 1714.00
23.8559 1751.00
23.9211 1734.00
23.9863 1894.00
24.0515 1817.00
24.1167 1993.00
24.1819 2068.00
24.2471 2384.00
24.3123 2942.00
24.3775 3513.00
24.4427 4027.00
24.5079 4177.00
24.5731 3555.00
24.6383 2924.00
24.7035 2619.00
24.7687 2981.00
24.8339 3273.00
24.8991 3653.00
24.9643 3172.00
25.0295 2384.00
25.0947 1925.00
25.1599 1683.00
25.2251 1728.00
25.2903 1707.00
25.3555 1676.00
25.4207 1668.00
25.4859 1510.00
25.5511 1630.00
25.6163 1603.00
25.6815 1596.00
25.7467 1678.00
25.8119 1631.00
25.8771 1622.00
25.9423 1589.00
26.0075 1632.00
26.0727 1630.00
26.1379 1574.00
26.2031 1558.00
26.2683 1555.00
26.3335 1544.00
26.3987 1611.00
26.4639 1727.00
26.5291 1706.00
26.5943 1869.00
26.6595 2030.00
26.7247 2156.00
26.7899 1981.00
26.8551 1824.00
26.9203 1708.00
26.9855 1628.00
27.0507 1641.00
27.1159 1554.00
27.1811 1582.00
27.2463 1556.00
27.3115 1492.00
27.3767 1591.00
27.4419 1651.00
27.5071 1568.00
27.5723 1658.00
27.6375 1787.00
27.7027 1705.00
27.7679 1813.00
27.8331 1813.00
27.8983 1843.00
27.9635 1973.00
28.0287 2034.00
28.0939 2185.00
28.1591 2394.00
28.2243 2793.00
28.2894 3370.00
28.3546 4749.00
28.4198 7175.00
28.485 10627.00
28.5502 13082.00
28.6154 15231.00
28.6806 14655.00
28.7458 10164.00
28.811 5915.00
28.8762 3896.00
28.9414 2957.00
29.0066 2436.00
29.0718 2267.00
29.137 2067.00
29.2022 1928.00
29.2674 1890.00
29.3326 1803.00
29.3978 1733.00
29.463 1693.00
29.5282 1637.00
29.5934 1710.00
29.6586 1592.00
29.7238 1673.00
29.789 1666.00
29.8542 1664.00
29.9194 1551.00
29.9846 1585.00
30.0498 1631.00
30.115 1611.00
30.1802 1543.00
30.2454 1615.00
30.3106 1689.00
30.3758 1841.00
30.441 1911.00
30.5062 1861.00
30.5714 1955.00
30.6366 2074.00
30.7018 2685.00
30.767 4363.00
30.8322 7507.00
30.8974 9876.00
30.9626 6617.00
31.0278 3318.00
31.093 2381.00
31.1582 2146.00
31.2234 2028.00
31.2886 2069.00
31.3538 2212.00
31.419 2286.00
31.4842 2565.00
31.5494 3060.00
31.6146 3712.00
31.6798 5122.00
31.745 6956.00
31.8102 8719.00
31.8754 10069.00
31.9406 11833.00
32.0058 10933.00
32.071 7505.00
32.1362 4685.00
32.2014 3330.00
32.2666 2543.00
32.3318 2154.00
32.397 1986.00
32.4622 1843.00
32.5274 1741.00
32.5926 1713.00
32.6578 1729.00
32.723 1734.00
32.7882 1754.00
32.8534 1975.00
32.9186 2158.00
32.9838 2529.00
33.0489 2670.00
33.1141 2302.00
33.1793 2071.00
33.2445 2043.00
33.3097 2218.00
33.3749 2607.00
33.4401 2995.00
33.5053 2974.00
33.5705 2569.00
33.6357 2141.00
33.7009 1807.00
33.7661 1789.00
33.8313 1701.00
33.8965 1657.00
33.9617 1657.00
34.0269 1729.00
34.0921 1860.00
34.1573 2058.00
34.2225 2184.00
34.2877 2324.00
34.3529 2756.00
34.4181 3469.00
34.4833 4102.00
34.5485 4987.00
34.6137 5776.00
34.6789 5928.00
34.7441 4941.00
34.8093 4357.00
34.8745 4668.00
34.9397 4662.00
35.0049 3610.00
35.0701 2734.00
35.1353 2019.00
35.2005 1853.00
35.2657 1812.00
35.3309 1735.00
35.3961 1908.00
35.4613 1995.00
35.5265 2446.00
35.5917 3095.00
35.6569 3806.00
35.7221 5488.00
35.7873 6564.00
35.8525 5828.00
35.9177 3976.00
35.9829 2577.00
36.0481 1880.00
36.1133 1901.00
36.1785 1797.00
36.2437 1881.00
36.3089 2094.00
36.3741 2196.00
36.4393 1972.00
36.5045 1817.00
36.5697 1527.00
36.6349 1347.00
36.7001 1369.00
36.7653 1381.00
36.8305 1303.00
36.8957 1360.00
36.9609 1430.00
37.0261 1378.00
37.0913 1375.00
37.1565 1392.00
37.2217 1342.00
37.2869 1252.00
37.3521 1239.00
37.4173 1293.00
37.4825 1309.00
37.5477 1276.00
37.6129 1263.00
37.6781 1237.00
37.7433 1228.00
37.8085 1296.00
37.8736 1325.00
37.9388 1510.00
38.004 1544.00
38.0692 1380.00
38.1344 1391.00
38.1996 1255.00
38.2648 1333.00
38.33 1372.00
38.3952 1352.00
38.4604 1329.00
38.5256 1281.00
38.5908 1390.00
38.656 1483.00
38.7212 1621.00
38.7864 1725.00
38.8516 1901.00
38.9168 1867.00
38.982 2014.00
39.0472 2348.00
39.1124 2299.00
39.1776 2077.00
39.2428 1704.00
39.308 1443.00
39.3732 1397.00
39.4384 1403.00
39.5036 1256.00
39.5688 1241.00
39.634 1279.00
39.6992 1277.00
39.7644 1281.00
39.8296 1211.00
39.8948 1161.00
39.96 1196.00
40.0252 1197.00
40.0904 1262.00
40.1556 1265.00
40.2208 1314.00
40.286 1301.00
40.3512 1263.00
40.4164 1228.00
40.4816 1313.00
40.5468 1319.00
40.612 1293.00
40.6772 1181.00
40.7424 1304.00
40.8076 1349.00
40.8728 1521.00
40.938 1682.00
41.0032 1949.00
41.0684 2172.00
41.1336 2295.00
41.1988 2539.00
41.264 2982.00
41.3292 2757.00
41.3944 2420.00
41.4596 2044.00
41.5248 1930.00
41.59 1962.00
41.6552 2045.00
41.7204 1971.00
41.7856 1923.00
41.8508 1814.00
41.916 1700.00
41.9812 1718.00
42.0464 1573.00
42.1116 1670.00
42.1768 1491.00
42.242 1377.00
42.3072 1213.00
42.3724 1205.00
42.4376 1145.00
42.5028 1116.00
42.568 1179.00
42.6332 1108.00
42.6983 1089.00
42.7635 1126.00
42.8287 1045.00
42.8939 1161.00
42.9591 1179.00
43.0243 1196.00
43.0895 1213.00
43.1547 1457.00
43.2199 1548.00
43.2851 1389.00
43.3503 1282.00
43.4155 1164.00
43.4807 1078.00
43.5459 1187.00
43.6111 1114.00
43.6763 1092.00
43.7415 1106.00
43.8067 1195.00
43.8719 1248.00
43.9371 1224.00
44.0023 1260.00
44.0675 1253.00
44.1327 1203.00
44.1979 1141.00
44.2631 1086.00
44.3283 1113.00
44.3935 1132.00
44.4587 1090.00
44.5239 1103.00
44.5891 1082.00
44.6543 1118.00
44.7195 1108.00
44.7847 1109.00
44.8499 1131.00
44.9151 1232.00
44.9803 1310.00
45.0455 1373.00
45.1107 1488.00
45.1759 1542.00
45.2411 1608.00
45.3063 1570.00
45.3715 1685.00
45.4367 1663.00
45.5019 1480.00
45.5671 1310.00
45.6323 1263.00
45.6975 1352.00
45.7627 1523.00
45.8279 1648.00
45.8931 2020.00
45.9583 2317.00
46.0235 2278.00
46.0887 2193.00
46.1539 1829.00
46.2191 1533.00
46.2843 1357.00
46.3495 1173.00
46.4147 1120.00
46.4799 1015.00
46.5451 1083.00
46.6103 1004.00
46.6755 1037.00
46.7407 1074.00
46.8059 1050.00
46.8711 1038.00
46.9363 1039.00
47.0015 1036.00
47.0667 1028.00
47.1319 1068.00
47.1971 1039.00
47.2623 1102.00
47.3275 1207.00
47.3927 1249.00
47.4579 1344.00
47.523 1358.00
47.5882 1345.00
47.6534 1334.00
47.7186 1141.00
47.7838 1199.00
47.849 1083.00
47.9142 1135.00
47.9794 1068.00
48.0446 1065.00
48.1098 1049.00
48.175 1059.00
48.2402 1064.00
48.3054 1039.00
48.3706 1065.00
48.4358 1059.00
48.501 1039.00
48.5662 1038.00
48.6314 1092.00
48.6966 1003.00
48.7618 1025.00
48.827 1003.00
48.8922 1077.00
48.9574 1118.00
49.0226 1169.00
49.0878 1170.00
49.153 1208.00
49.2182 1333.00
49.2834 1440.00
49.3486 1511.00
49.4138 1725.00
49.479 2139.00
49.5442 2466.00
49.6094 2442.00
49.6746 2382.00
49.7398 2742.00
49.805 3350.00
49.8702 3435.00
49.9354 2816.00
50.0006 2437.00
50.0658 1831.00
50.131 1576.00
50.1962 1621.00
50.2614 1653.00
50.3266 1909.00
50.3918 2437.00
50.457 2322.00
50.5222 2366.00
50.5874 2645.00
50.6526 3465.00
50.7178 4351.00
50.783 3976.00
50.8482 3648.00
50.9134 2958.00
50.9786 2482.00
51.0438 2511.00
51.109 2968.00
51.1742 3485.00
51.2394 4069.00
51.3046 4684.00
51.3698 3143.00
51.435 2935.00
51.5002 2025.00
51.5654 1594.00
51.6306 1600.00
51.6958 1581.00
51.761 1647.00
51.8262 1632.00
51.8914 1588.00
51.9566 1484.00
52.0218 1347.00
52.087 1235.00
52.1522 1186.00
52.2174 1137.00
52.2826 1135.00
52.3477 1205.00
52.4129 1103.00
52.4781 1143.00
52.5433 1174.00
52.6085 1141.00
52.6737 1264.00
52.7389 1253.00
52.8041 1276.00
52.8693 1231.00
52.9345 1311.00
52.9997 1264.00
53.0649 1207.00
53.1301 1223.00
53.1953 1146.00
53.2605 1067.00
53.3257 1065.00
53.3909 999.00
53.4561 1029.00
53.5213 967.00
53.5865 986.00
53.6517 984.00
53.7169 1054.00
53.7821 1117.00
53.8473 1076.00
53.9125 1135.00
53.9777 1071.00
54.0429 1058.00
54.1081 1129.00
54.1733 1230.00
54.2385 1318.00
54.3037 1404.00
54.3689 1640.00
54.4341 1692.00
54.4993 1769.00
54.5645 1975.00
54.6297 2176.00
54.6949 2478.00
54.7601 2401.00
54.8253 2043.00
54.8905 1772.00
54.9557 1646.00
55.0209 1348.00
55.0861 1272.00
55.1513 1228.00
55.2165 1338.00
55.2817 1281.00
55.3469 1297.00
55.4121 1397.00
55.4773 1465.00
55.5425 1567.00
55.6077 1752.00
55.6729 1867.00
55.7381 1934.00
55.8033 2261.00
55.8685 2583.00
55.9337 3006.00
55.9989 3105.00
56.0641 3041.00
56.1293 2970.00
56.1945 2884.00
56.2597 2691.00
56.3249 2237.00
56.3901 2137.00
56.4553 2069.00
56.5205 2211.00
56.5857 2129.00
56.6509 1907.00
56.7161 1699.00
56.7813 1407.00
56.8465 1289.00
56.9117 1164.00
56.9769 1172.00
57.042 1059.00
57.1073 1095.00
57.1724 1167.00
57.2376 1135.00
57.3028 1194.00
57.368 1342.00
57.4332 1448.00
57.4984 1453.00
57.5636 1383.00
57.6288 1525.00
57.694 1648.00
57.7592 1960.00
57.8244 2044.00
57.8896 1832.00
57.9548 1806.00
58.02 1617.00
58.0852 1446.00
58.1504 1421.00
58.2156 1402.00
58.2808 1388.00
58.346 1422.00
58.4112 1549.00
58.4764 1721.00
58.5416 1968.00
58.6068 1788.00
58.672 1690.00
58.7372 1606.00
58.8024 1543.00
58.8676 1612.00
58.9328 1639.00
58.998 1457.00
59.0632 1421.00
59.1284 1359.00
59.1936 1313.00
59.2588 1379.00
59.324 1441.00
59.3892 1479.00
59.4544 1411.00
59.5196 1428.00
59.5848 1327.00
59.65 1242.00
59.7152 1266.00
59.7804 1239.00
59.8456 1270.00
59.9108 1284.00
59.976 1425.00
60.0412 1535.00
60.1064 1484.00
60.1716 1566.00
60.2368 1755.00
60.302 1748.00
60.3672 2055.00
60.4324 2276.00
60.4976 2309.00
60.5628 2193.00
60.628 2299.00
60.6932 2178.00
60.7584 2042.00
60.8236 2272.00
60.8888 2856.00
60.954 2765.00
61.0192 2070.00
61.0844 2087.00
61.1496 1652.00
61.2148 1363.00
61.28 1217.00
61.3452 1245.00
61.4104 1254.00
61.4756 1278.00
61.5408 1347.00
61.606 1349.00
61.6712 1389.00
61.7364 1364.00
61.8016 1465.00
61.8667 1556.00
61.932 1624.00
61.9971 1905.00
62.0623 1764.00
62.1275 1773.00
62.1927 1782.00
62.2579 1754.00
62.3231 1770.00
62.3883 1904.00
62.4535 2075.00
62.5187 2173.00
62.5839 2296.00
62.6491 2151.00
62.7143 1939.00
62.7795 1757.00
62.8447 1573.00
62.9099 1549.00
62.9751 1475.00
63.0403 1448.00
63.1055 1639.00
63.1707 1622.00
63.2359 1486.00
63.3011 1541.00
63.3663 1679.00
63.4315 1771.00
63.4967 1957.00
63.5619 1989.00
63.6271 1843.00
63.6923 1697.00
63.7575 1487.00
63.8227 1388.00
63.8879 1358.00
63.9531 1365.00
64.0183 1183.00
64.0835 1149.00
64.1487 1124.00
64.2139 1100.00
64.2791 1078.00
64.3443 1074.00
64.4095 1145.00
64.4747 1158.00
64.5399 1079.00
64.6051 1192.00
64.6703 1131.00
64.7355 1239.00
64.8007 1308.00
64.8659 1335.00
64.9311 1322.00
64.9963 1309.00
65.0615 1214.00
65.1267 1209.00
65.1919 1108.00
65.2571 1108.00
65.3223 1142.00
65.3875 1165.00
65.4527 1227.00
65.5179 1214.00
65.5831 1343.00
65.6483 1240.00
65.7135 1204.00
65.7787 1267.00
65.8439 1402.00
65.9091 1419.00
65.9743 1483.00
66.0395 1514.00
66.1047 1517.00
66.1699 1534.00
66.2351 1560.00
66.3003 1769.00
66.3655 1949.00
66.4307 1948.00
66.4959 1728.00
66.561 1676.00
66.6263 1450.00
66.6915 1273.00
66.7566 1238.00
66.8218 1055.00
66.887 1073.00
66.9522 958.00
67.0174 975.00
67.0826 966.00
67.1478 930.00
67.213 969.00
67.2782 828.00
67.3434 905.00
67.4086 894.00
67.4738 889.00
67.539 913.00
67.6042 869.00
67.6694 916.00
67.7346 862.00
67.7998 876.00
67.865 837.00
67.9302 854.00
67.9954 863.00
68.0606 877.00
68.1258 912.00
68.191 996.00
68.2562 1037.00
68.3214 1005.00
68.3866 963.00
68.4518 933.00
68.517 936.00
68.5822 909.00
68.6474 817.00
68.7126 862.00
68.7778 881.00
68.843 904.00
68.9082 869.00
68.9734 863.00
69.0386 879.00
69.1038 865.00
69.169 961.00
69.2342 955.00
69.2994 958.00
69.3646 917.00
69.4298 1047.00
69.495 1036.00
69.5602 1195.00
69.6254 1195.00
69.6906 1284.00
69.7558 1241.00
69.821 1147.00
69.8862 1157.00
69.9514 1075.00
70.0166 1021.00
70.0818 978.00
70.147 939.00
70.2122 1023.00
70.2774 997.00
70.3426 1028.00
70.4078 1041.00
70.473 986.00
70.5382 919.00
70.6034 960.00
70.6686 939.00
70.7338 932.00
70.799 955.00
70.8642 964.00
70.9294 899.00
70.9946 972.00
71.0598 883.00
71.125 929.00
71.1902 966.00
71.2554 949.00
71.3205 1014.00
71.3858 1025.00
71.451 1044.00
71.5162 1131.00
71.5813 1204.00
71.6465 1177.00
71.7117 1330.00
71.7769 1411.00
71.8421 1468.00
71.9073 1445.00
71.9725 1490.00
72.0377 1313.00
72.1029 1276.00
72.1681 1179.00
72.2333 1126.00
72.2985 1115.00
72.3637 990.00
72.4289 1048.00
72.4941 1038.00
72.5593 1047.00
72.6245 1039.00
72.6897 1094.00
72.7549 1108.00
72.8201 1169.00
72.8853 1087.00
72.9505 1053.00
73.0157 1057.00
73.0809 1068.00
73.1461 1112.00
73.2113 1024.00
73.2765 1057.00
73.3417 1099.00
73.4069 1033.00
73.4721 1005.00
73.5373 1013.00
73.6025 992.00
73.6677 910.00
73.7329 945.00
73.7981 942.00
73.8633 987.00
73.9285 1029.00
73.9937 918.00
74.0589 893.00
74.1241 913.00
74.1893 912.00
74.2545 881.00
74.3197 899.00
74.3849 923.00
74.4501 829.00
74.5153 858.00
74.5805 860.00
74.6457 873.00
74.7109 909.00
74.7761 875.00
74.8413 939.00
74.9065 911.00
74.9717 963.00
75.0369 953.00
75.1021 945.00
75.1673 1039.00
75.2325 1185.00
75.2977 1271.00
75.3629 1292.00
75.4281 1242.00
75.4933 1331.00
75.5585 1212.00
75.6237 1192.00
75.6889 1242.00
75.7541 1262.00
75.8193 1404.00
75.8845 1335.00
75.9497 1279.00
76.0149 1238.00
76.0801 1139.00
76.1452 1118.00
76.2104 1081.00
76.2756 906.00
76.3409 911.00
76.406 958.00
76.4712 957.00
76.5364 970.00
76.6016 1094.00
76.6668 1161.00
76.732 1005.00
76.7972 1010.00
76.8624 1003.00
76.9276 1009.00
76.9928 1041.00
77.058 1039.00
77.1232 1087.00
77.1884 1055.00
77.2536 1097.00
77.3188 1129.00
77.384 1043.00
77.4492 1116.00
77.5144 956.00
77.5796 1034.00
77.6448 975.00
77.71 1017.00
77.7752 993.00
77.8404 1015.00
77.9056 961.00
77.9708 1046.00
78.036 1124.00
78.1012 1083.00
78.1664 1074.00
78.2316 1069.00
78.2968 1106.00
78.362 1031.00
78.4272 1024.00
78.4924 943.00
78.5576 1000.00
78.6228 947.00
78.688 1000.00
78.7532 1037.00
78.8184 1069.00
78.8836 1107.00
78.9488 1066.00
79.014 1041.00
79.0792 1001.00
79.1444 1105.00
79.2096 1043.00
79.2748 1086.00
79.34 1109.00
79.4052 1184.00
79.4704 1093.00
79.5356 1116.00
79.6008 1156.00
79.666 1218.00
79.7312 1113.00
79.7964 1033.00
79.8616 1105.00
79.9268 993.00
79.992 989.00
80.0572 949.00
80.1224 832.00
80.1876 870.00
80.2528 836.00
80.318 793.00
80.3832 836.00
80.4484 801.00
80.5136 846.00
80.5788 816.00
80.644 913.00
80.7092 920.00
80.7744 846.00
80.8396 870.00
80.9048 882.00
80.9699 854.00
81.0351 865.00
81.1003 927.00
81.1655 892.00
81.2307 944.00
81.2959 910.00
81.3611 876.00
81.4263 871.00
81.4915 882.00
81.5567 912.00
81.6219 854.00
81.6871 855.00
81.7523 983.00
81.8175 957.00
81.8827 1008.00
81.9479 993.00
82.0131 1081.00
82.0783 1153.00
82.1435 1054.00
82.2087 1123.00
82.2739 1233.00
82.3391 1212.00
82.4043 1211.00
82.4695 1090.00
82.5347 1051.00
82.5999 1006.00
82.6651 1051.00
82.7303 1049.00
82.7955 1044.00
82.8607 1055.00
82.9259 1016.00
82.9911 1003.00
83.0563 1044.00
83.1215 1023.00
83.1867 1112.00
83.2519 1236.00
83.3171 1370.00
83.3823 1520.00
83.4475 1431.00
83.5127 1276.00
83.5779 1324.00
83.6431 1409.00
83.7083 1241.00
83.7735 1144.00
83.8387 1171.00
83.9039 1215.00
83.9691 1156.00
84.0343 1195.00
84.0995 1267.00
84.1647 1262.00
84.2299 1091.00
84.2951 1147.00
84.3603 1125.00
84.4255 1084.00
84.4907 1093.00
84.5559 1137.00
84.6211 1208.00
84.6863 1202.00
84.7515 1202.00
84.8167 1167.00
84.8819 1189.00
84.9471 1193.00
85.0123 1232.00
85.0775 1170.00
85.1427 1137.00
85.2079 1051.00
85.2731 1009.00
85.3383 1017.00
85.4035 944.00
85.4687 950.00
85.5339 926.00
85.5991 966.00
85.6643 1030.00
85.7295 1030.00
85.7946 1018.00
85.8598 1005.00
85.925 1072.00
85.9903 1225.00
86.0554 1157.00
86.1206 1091.00
86.1858 1006.00
86.251 959.00
86.3162 1023.00
86.3814 944.00
86.4466 933.00
86.5118 904.00
86.577 915.00
86.6422 897.00
86.7074 939.00
86.7726 909.00
86.8378 934.00
86.903 961.00
86.9682 992.00
87.0334 992.00
87.0986 916.00
87.1638 917.00
87.229 902.00
87.2942 933.00
87.3594 948.00
87.4246 891.00
87.4898 880.00
87.555 879.00
87.6202 883.00
87.6854 933.00
87.7506 870.00
87.8158 920.00
87.881 883.00
87.9462 916.00
88.0114 880.00
88.0766 950.00
88.1418 937.00
88.207 1066.00
88.2722 1094.00
88.3374 1118.00
88.4026 1148.00
88.4678 1026.00
88.533 1170.00
88.5982 1094.00
88.6634 1128.00
88.7286 1113.00
88.7938 1103.00
88.859 1132.00
88.9242 1145.00
88.9894 1197.00
89.0546 1120.00
89.1198 1120.00
89.185 1077.00
89.2502 1166.00
89.3154 1195.00
89.3806 1164.00
89.4458 1229.00
89.511 1214.00
89.5762 1122.00
89.6414 1095.00
89.7066 1038.00
89.7718 1041.00
89.837 1012.00
89.9022 1065.00
89.9674 1056.00
90.0326 1105.00
90.0978 1105.00
90.163 1087.00
90.2282 1068.00
90.2934 1043.00
90.3586 1019.00
90.4238 1050.00
90.489 1149.00
90.5542 1128.00
90.6193 1090.00
90.6845 1140.00
90.7497 1070.00
90.8149 995.00
90.8801 1061.00
90.9453 999.00
91.0105 962.00
91.0757 973.00
91.1409 902.00
91.2061 875.00
91.2713 898.00
91.3365 843.00
91.4017 891.00
91.4669 880.00
91.5321 893.00
91.5973 915.00
91.6625 922.00
91.7277 812.00
91.7929 860.00
91.8581 875.00
91.9233 836.00
91.9885 857.00
92.0537 848.00
92.1189 946.00
92.1841 917.00
92.2493 903.00
92.3145 853.00
92.3797 891.00
92.4449 898.00
92.5101 909.00
92.5753 887.00
92.6405 934.00
92.7057 921.00
92.7709 887.00
92.8361 836.00
92.9013 826.00
92.9665 862.00
93.0317 843.00
93.0969 879.00
93.1621 858.00
93.2273 859.00
93.2925 832.00
93.3577 792.00
93.4229 849.00
93.4881 811.00
93.5533 817.00
93.6185 855.00
93.6837 845.00
93.7489 875.00
93.8141 824.00
93.8793 890.00
93.9445 932.00
94.0097 910.00
94.0749 887.00
94.1401 835.00
94.2053 882.00
94.2705 966.00
94.3357 829.00
94.4009 903.00
94.4661 915.00
94.5313 913.00
94.5965 935.00
94.6617 989.00
94.7269 1020.00
94.7921 969.00
94.8573 991.00
94.9225 964.00
94.9877 924.00
95.0529 993.00
95.1181 934.00
95.1833 972.00
95.2485 930.00
95.3137 1018.00
95.3789 1001.00
95.444 914.00
95.5092 960.00
95.5744 1014.00
95.6396 997.00
95.7048 1086.00
95.77 1032.00
95.8352 1017.00
95.9004 1030.00
95.9656 1080.00
96.0308 1101.00
96.096 1148.00
96.1612 1091.00
96.2264 1068.00
96.2916 1050.00
96.3568 1074.00
96.422 1089.00
96.4872 1025.00
96.5524 1118.00
96.6176 1146.00
96.6828 1203.00
96.748 1112.00
96.8132 1141.00
96.8784 1092.00
96.9436 1224.00
97.0088 1234.00
97.074 1223.00
97.1392 1205.00
97.2044 1207.00
97.2696 1138.00
97.3348 1204.00
97.4 1276.00
97.4652 1261.00
97.5304 1145.00
97.5956 1214.00
97.6608 1179.00
97.726 1214.00
97.7912 1225.00
97.8564 1267.00
97.9216 1306.00
97.9868 1271.00
98.052 1090.00
98.1172 1126.00
98.1824 1131.00
98.2476 1077.00
98.3128 1019.00
98.378 1078.00
98.4432 965.00
98.5084 955.00
98.5736 974.00
98.6388 916.00
98.704 988.00
98.7692 983.00
98.8344 1026.00
98.8996 1121.00
98.9648 1175.00
99.03 1131.00
99.0952 1068.00
99.1604 1034.00
99.2256 1085.00
99.2908 1076.00
99.356 1102.00
99.4212 1105.00
99.4864 1100.00
99.5516 1141.00
99.6168 1158.00
99.682 1136.00
99.7472 1149.00
99.8124 1112.00
99.8776 1044.00
99.9428 1083.00
100.008 1096.00
100.073 998.00
100.095 1084.00