File: data/xrd_creation/results/NSC_170.xy
9.903433 2589.00
9.968632 2604.00
10.0338 2585.00
10.099 2631.00
10.1642 2515.00
10.2294 2542.00
10.2946 2501.00
10.3598 2405.00
10.425 2527.00
10.4902 2441.00
10.5554 2372.00
10.6206 2499.00
10.6858 2420.00
10.751 2443.00
10.8162 2334.00
10.8814 2279.00
10.9466 2323.00
11.0118 2272.00
11.077 2257.00
11.1422 2303.00
11.2074 2238.00
11.2726 2138.00
11.3378 2256.00
11.403 2222.00
11.4682 2158.00
11.5334 2084.00
11.5986 2136.00
11.6638 2059.00
11.729 2084.00
11.7942 2089.00
11.8594 2125.00
11.9246 2053.00
11.9898 2011.00
12.055 2034.00
12.1202 2007.00
12.1854 1993.00
12.2506 1969.00
12.3158 1863.00
12.381 1926.00
12.4462 1934.00
12.5114 1874.00
12.5766 1937.00
12.6418 1867.00
12.707 1988.00
12.7722 1920.00
12.8374 1774.00
12.9026 1877.00
12.9678 1845.00
13.033 1775.00
13.0982 1737.00
13.1634 1739.00
13.2286 1761.00
13.2938 1832.00
13.359 1808.00
13.4242 1809.00
13.4894 1794.00
13.5546 1772.00
13.6198 1759.00
13.685 1770.00
13.7502 1777.00
13.8154 1866.00
13.8805 1907.00
13.9457 2211.00
14.0109 2229.00
14.0761 2502.00
14.1413 2530.00
14.2065 2542.00
14.2717 2382.00
14.3369 2351.00
14.4021 2156.00
14.4673 1946.00
14.5325 1701.00
14.5977 1717.00
14.6629 1606.00
14.7281 1630.00
14.7933 1614.00
14.8585 1561.00
14.9237 1593.00
14.9889 1686.00
15.0541 1617.00
15.1193 1597.00
15.1845 1604.00
15.2497 1582.00
15.3149 1544.00
15.3801 1625.00
15.4453 1541.00
15.5105 1487.00
15.5757 1606.00
15.6409 1491.00
15.7061 1562.00
15.7713 1562.00
15.8365 1459.00
15.9017 1538.00
15.9669 1504.00
16.0321 1536.00
16.0973 1562.00
16.1625 1432.00
16.2277 1510.00
16.2929 1510.00
16.3581 1556.00
16.4233 1471.00
16.4885 1482.00
16.5537 1403.00
16.6189 1555.00
16.6841 1519.00
16.7493 1478.00
16.8145 1507.00
16.8797 1492.00
16.9449 1449.00
17.0101 1415.00
17.0753 1444.00
17.1405 1419.00
17.2057 1460.00
17.2709 1481.00
17.3361 1416.00
17.4013 1454.00
17.4665 1413.00
17.5317 1492.00
17.5969 1318.00
17.6621 1412.00
17.7273 1490.00
17.7925 1351.00
17.8577 1390.00
17.9229 1384.00
17.9881 1362.00
18.0533 1339.00
18.1185 1395.00
18.1837 1407.00
18.2489 1385.00
18.3141 1337.00
18.3793 1455.00
18.4445 1394.00
18.5097 1305.00
18.5749 1342.00
18.6401 1390.00
18.7052 1329.00
18.7704 1313.00
18.8356 1294.00
18.9008 1346.00
18.966 1384.00
19.0312 1393.00
19.0964 1398.00
19.1616 1457.00
19.2268 1456.00
19.292 1675.00
19.3572 2031.00
19.4224 2598.00
19.4876 3249.00
19.5528 4068.00
19.618 4963.00
19.6832 5587.00
19.7484 5506.00
19.8136 5148.00
19.8788 4487.00
19.944 3518.00
20.0092 2783.00
20.0744 2371.00
20.1396 2626.00
20.2048 3378.00
20.27 4493.00
20.3352 5511.00
20.4004 6457.00
20.4656 6844.00
20.5308 6572.00
20.596 6040.00
20.6612 4853.00
20.7264 3369.00
20.7916 2329.00
20.8568 1795.00
20.922 1546.00
20.9872 1416.00
21.0524 1317.00
21.1176 1298.00
21.1828 1253.00
21.248 1313.00
21.3132 1309.00
21.3784 1417.00
21.4436 1395.00
21.5088 1468.00
21.574 1442.00
21.6392 1427.00
21.7044 1390.00
21.7696 1336.00
21.8348 1244.00
21.9 1278.00
21.9652 1261.00
22.0304 1198.00
22.0956 1196.00
22.1608 1265.00
22.226 1114.00
22.2912 1222.00
22.3564 1204.00
22.4216 1133.00
22.4868 1193.00
22.552 1138.00
22.6172 1201.00
22.6824 1199.00
22.7476 1239.00
22.8128 1216.00
22.878 1256.00
22.9432 1271.00
23.0084 1280.00
23.0736 1315.00
23.1388 1402.00
23.204 1352.00
23.2692 1480.00
23.3344 1537.00
23.3996 1773.00
23.4647 2045.00
23.5299 2521.00
23.5951 2923.00
23.6603 3203.00
23.7255 3236.00
23.7907 3170.00
23.8559 2634.00
23.9211 2230.00
23.9863 1688.00
24.0515 1398.00
24.1167 1307.00
24.1819 1210.00
24.2471 1134.00
24.3123 1088.00
24.3775 1098.00
24.4427 1061.00
24.5079 1088.00
24.5731 1109.00
24.6383 1123.00
24.7035 1102.00
24.7687 1110.00
24.8339 1100.00
24.8991 1032.00
24.9643 1048.00
25.0295 1009.00
25.0947 971.00
25.1599 1070.00
25.2251 999.00
25.2903 994.00
25.3555 953.00
25.4207 986.00
25.4859 1028.00
25.5511 1042.00
25.6163 982.00
25.6815 1003.00
25.7467 1005.00
25.8119 1009.00
25.8771 971.00
25.9423 1016.00
26.0075 1000.00
26.0727 1057.00
26.1379 1034.00
26.2031 999.00
26.2683 1127.00
26.3335 1150.00
26.3987 1462.00
26.4639 1856.00
26.5291 2355.00
26.5943 2855.00
26.6595 3204.00
26.7247 3404.00
26.7899 3217.00
26.8551 2678.00
26.9203 1893.00
26.9855 1353.00
27.0507 1116.00
27.1159 1061.00
27.1811 972.00
27.2463 951.00
27.3115 947.00
27.3767 956.00
27.4419 945.00
27.5071 984.00
27.5723 1003.00
27.6375 896.00
27.7027 943.00
27.7679 908.00
27.8331 911.00
27.8983 1049.00
27.9635 1063.00
28.0287 1013.00
28.0939 1110.00
28.1591 1320.00
28.2243 1527.00
28.2894 1995.00
28.3546 2524.00
28.4198 3180.00
28.485 3578.00
28.5502 3813.00
28.6154 3710.00
28.6806 3274.00
28.7458 2617.00
28.811 2132.00
28.8762 1584.00
28.9414 1184.00
29.0066 1080.00
29.0718 941.00
29.137 948.00
29.2022 935.00
29.2674 923.00
29.3326 953.00
29.3978 891.00
29.463 889.00
29.5282 896.00
29.5934 961.00
29.6586 939.00
29.7238 914.00
29.789 925.00
29.8542 906.00
29.9194 907.00
29.9846 897.00
30.0498 874.00
30.115 858.00
30.1802 904.00
30.2454 903.00
30.3106 945.00
30.3758 864.00
30.441 854.00
30.5062 866.00
30.5714 859.00
30.6366 918.00
30.7018 915.00
30.767 856.00
30.8322 897.00
30.8974 942.00
30.9626 1009.00
31.0278 1099.00
31.093 1258.00
31.1582 1608.00
31.2234 2083.00
31.2886 2739.00
31.3538 3608.00
31.419 4180.00
31.4842 4723.00
31.5494 4784.00
31.6146 4596.00
31.6798 4059.00
31.745 3425.00
31.8102 2573.00
31.8754 1941.00
31.9406 1380.00
32.0058 1211.00
32.071 1050.00
32.1362 953.00
32.2014 915.00
32.2666 880.00
32.3318 873.00
32.397 877.00
32.4622 876.00
32.5274 891.00
32.5926 843.00
32.6578 824.00
32.723 813.00
32.7882 844.00
32.8534 855.00
32.9186 788.00
32.9838 776.00
33.0489 788.00
33.1141 774.00
33.1793 805.00
33.2445 771.00
33.3097 799.00
33.3749 816.00
33.4401 795.00
33.5053 774.00
33.5705 854.00
33.6357 1035.00
33.7009 1256.00
33.7661 1566.00
33.8313 1989.00
33.8965 2676.00
33.9617 3182.00
34.0269 3224.00
34.0921 3131.00
34.1573 2554.00
34.2225 1873.00
34.2877 1285.00
34.3529 1099.00
34.4181 946.00
34.4833 889.00
34.5485 825.00
34.6137 895.00
34.6789 872.00
34.7441 900.00
34.8093 861.00
34.8745 919.00
34.9397 982.00
35.0049 1163.00
35.0701 1391.00
35.1353 1639.00
35.2005 2039.00
35.2657 2339.00
35.3309 2510.00
35.3961 2765.00
35.4613 2723.00
35.5265 2864.00
35.5917 2886.00
35.6569 2948.00
35.7221 2942.00
35.7873 3105.00
35.8525 2923.00
35.9177 2706.00
35.9829 2404.00
36.0481 1883.00
36.1133 1443.00
36.1785 1185.00
36.2437 1017.00
36.3089 909.00
36.3741 811.00
36.4393 750.00
36.5045 778.00
36.5697 802.00
36.6349 728.00
36.7001 739.00
36.7653 727.00
36.8305 743.00
36.8957 719.00
36.9609 706.00
37.0261 717.00
37.0913 789.00
37.1565 738.00
37.2217 742.00
37.2869 710.00
37.3521 681.00
37.4173 649.00
37.4825 713.00
37.5477 729.00
37.6129 684.00
37.6781 737.00
37.7433 770.00
37.8085 837.00
37.8736 934.00
37.9388 995.00
38.004 1216.00
38.0692 1235.00
38.1344 1309.00
38.1996 1168.00
38.2648 953.00
38.33 813.00
38.3952 812.00
38.4604 684.00
38.5256 695.00
38.5908 713.00
38.656 679.00
38.7212 698.00
38.7864 715.00
38.8516 763.00
38.9168 757.00
38.982 772.00
39.0472 763.00
39.1124 795.00
39.1776 797.00
39.2428 739.00
39.308 744.00
39.3732 697.00
39.4384 629.00
39.5036 675.00
39.5688 664.00
39.634 707.00
39.6992 741.00
39.7644 852.00
39.8296 920.00
39.8948 923.00
39.96 908.00
40.0252 975.00
40.0904 936.00
40.1556 886.00
40.2208 882.00
40.286 817.00
40.3512 761.00
40.4164 690.00
40.4816 678.00
40.5468 647.00
40.612 623.00
40.6772 583.00
40.7424 660.00
40.8076 648.00
40.8728 689.00
40.938 647.00
41.0032 739.00
41.0684 733.00
41.1336 739.00
41.1988 804.00
41.264 837.00
41.3292 1053.00
41.3944 1113.00
41.4596 1272.00
41.5248 1303.00
41.59 1355.00
41.6552 1421.00
41.7204 1442.00
41.7856 1416.00
41.8508 1283.00
41.916 1167.00
41.9812 1107.00
42.0464 996.00
42.1116 922.00
42.1768 853.00
42.242 840.00
42.3072 740.00
42.3724 722.00
42.4376 743.00
42.5028 722.00
42.568 678.00
42.6332 723.00
42.6983 693.00
42.7635 720.00
42.8287 653.00
42.8939 762.00
42.9591 753.00
43.0243 827.00
43.0895 959.00
43.1547 1083.00
43.2199 1192.00
43.2851 1227.00
43.3503 1356.00
43.4155 1307.00
43.4807 1273.00
43.5459 1178.00
43.6111 1049.00
43.6763 949.00
43.7415 895.00
43.8067 763.00
43.8719 772.00
43.9371 724.00
44.0023 762.00
44.0675 771.00
44.1327 718.00
44.1979 708.00
44.2631 699.00
44.3283 686.00
44.3935 671.00
44.4587 637.00
44.5239 660.00
44.5891 681.00
44.6543 646.00
44.7195 688.00
44.7847 671.00
44.8499 731.00
44.9151 778.00
44.9803 901.00
45.0455 1059.00
45.1107 1167.00
45.1759 1311.00
45.2411 1325.00
45.3063 1322.00
45.3715 1353.00
45.4367 1300.00
45.5019 1268.00
45.5671 1142.00
45.6323 922.00
45.6975 832.00
45.7627 762.00
45.8279 728.00
45.8931 761.00
45.9583 804.00
46.0235 886.00
46.0887 998.00
46.1539 1118.00
46.2191 1302.00
46.2843 1417.00
46.3495 1429.00
46.4147 1421.00
46.4799 1406.00
46.5451 1346.00
46.6103 1298.00
46.6755 1224.00
46.7407 1159.00
46.8059 1116.00
46.8711 1192.00
46.9363 1142.00
47.0015 1105.00
47.0667 1135.00
47.1319 1023.00
47.1971 1005.00
47.2623 864.00
47.3275 869.00
47.3927 781.00
47.4579 705.00
47.523 662.00
47.5882 676.00
47.6534 645.00
47.7186 665.00
47.7838 641.00
47.849 750.00
47.9142 783.00
47.9794 929.00
48.0446 1065.00
48.1098 1312.00
48.175 1399.00
48.2402 1558.00
48.3054 1739.00
48.3706 1768.00
48.4358 1733.00
48.501 1721.00
48.5662 1550.00
48.6314 1416.00
48.6966 1233.00
48.7618 1111.00
48.827 978.00
48.8922 830.00
48.9574 828.00
49.0226 789.00
49.0878 742.00
49.153 804.00
49.2182 741.00
49.2834 696.00
49.3486 713.00
49.4138 670.00
49.479 660.00
49.5442 673.00
49.6094 572.00
49.6746 650.00
49.7398 682.00
49.805 653.00
49.8702 656.00
49.9354 614.00
50.0006 629.00
50.0658 626.00
50.131 607.00
50.1962 600.00
50.2614 633.00
50.3266 586.00
50.3918 605.00
50.457 620.00
50.5222 641.00
50.5874 630.00
50.6526 641.00
50.7178 697.00
50.783 691.00
50.8482 720.00
50.9134 754.00
50.9786 796.00
51.0438 807.00
51.109 832.00
51.1742 917.00
51.2394 978.00
51.3046 1097.00
51.3698 1279.00
51.435 1394.00
51.5002 1462.00
51.5654 1746.00
51.6306 1936.00
51.6958 2320.00
51.761 2733.00
51.8262 3204.00
51.8914 3459.00
51.9566 3439.00
52.0218 2958.00
52.087 2337.00
52.1522 1651.00
52.2174 1167.00
52.2826 1001.00
52.3477 807.00
52.4129 798.00
52.4781 733.00
52.5433 677.00
52.6085 607.00
52.6737 589.00
52.7389 655.00
52.8041 608.00
52.8693 569.00
52.9345 627.00
52.9997 572.00
53.0649 615.00
53.1301 583.00
53.1953 586.00
53.2605 599.00
53.3257 591.00
53.3909 619.00
53.4561 590.00
53.5213 585.00
53.5865 592.00
53.6517 573.00
53.7169 573.00
53.7821 599.00
53.8473 592.00
53.9125 546.00
53.9777 613.00
54.0429 637.00
54.1081 699.00
54.1733 677.00
54.2385 737.00
54.3037 700.00
54.3689 842.00
54.4341 858.00
54.4993 947.00
54.5645 943.00
54.6297 1056.00
54.6949 1131.00
54.7601 1227.00
54.8253 1296.00
54.8905 1389.00
54.9557 1319.00
55.0209 1200.00
55.0861 1053.00
55.1513 957.00
55.2165 914.00
55.2817 1007.00
55.3469 1090.00
55.4121 1206.00
55.4773 1389.00
55.5425 1598.00
55.6077 1760.00
55.6729 1799.00
55.7381 1939.00
55.8033 2022.00
55.8685 2062.00
55.9337 2044.00
55.9989 1814.00
56.0641 1716.00
56.1293 1570.00
56.1945 1432.00
56.2597 1280.00
56.3249 1107.00
56.3901 998.00
56.4553 927.00
56.5205 770.00
56.5857 741.00
56.6509 674.00
56.7161 677.00
56.7813 656.00
56.8465 620.00
56.9117 642.00
56.9769 636.00
57.042 634.00
57.1073 610.00
57.1724 618.00
57.2376 635.00
57.3028 621.00
57.368 628.00
57.4332 670.00
57.4984 638.00
57.5636 680.00
57.6288 668.00
57.694 685.00
57.7592 693.00
57.8244 811.00
57.8896 853.00
57.9548 840.00
58.02 924.00
58.0852 869.00
58.1504 785.00
58.2156 761.00
58.2808 834.00
58.346 757.00
58.4112 836.00
58.4764 794.00
58.5416 840.00
58.6068 830.00
58.672 923.00
58.7372 878.00
58.8024 969.00
58.8676 858.00
58.9328 869.00
58.998 858.00
59.0632 860.00
59.1284 787.00
59.1936 740.00
59.2588 635.00
59.324 686.00
59.3892 673.00
59.4544 629.00
59.5196 597.00
59.5848 608.00
59.65 612.00
59.7152 580.00
59.7804 666.00
59.8456 705.00
59.9108 761.00
59.976 821.00
60.0412 905.00
60.1064 958.00
60.1716 1029.00
60.2368 1094.00
60.302 1132.00
60.3672 1156.00
60.4324 1146.00
60.4976 1105.00
60.5628 1128.00
60.628 1026.00
60.6932 1001.00
60.7584 954.00
60.8236 853.00
60.8888 748.00
60.954 770.00
61.0192 759.00
61.0844 773.00
61.1496 901.00
61.2148 1018.00
61.28 1032.00
61.3452 1100.00
61.4104 1105.00
61.4756 1184.00
61.5408 1221.00
61.606 1232.00
61.6712 1302.00
61.7364 1262.00
61.8016 1343.00
61.8667 1346.00
61.932 1289.00
61.9971 1282.00
62.0623 1217.00
62.1275 1166.00
62.1927 1036.00
62.2579 961.00
62.3231 888.00
62.3883 866.00
62.4535 844.00
62.5187 857.00
62.5839 874.00
62.6491 880.00
62.7143 948.00
62.7795 870.00
62.8447 906.00
62.9099 946.00
62.9751 946.00
63.0403 951.00
63.1055 854.00
63.1707 902.00
63.2359 792.00
63.3011 761.00
63.3663 703.00
63.4315 736.00
63.4967 741.00
63.5619 770.00
63.6271 795.00
63.6923 794.00
63.7575 842.00
63.8227 879.00
63.8879 922.00
63.9531 972.00
64.0183 1066.00
64.0835 1081.00
64.1487 1113.00
64.2139 1115.00
64.2791 1106.00
64.3443 1101.00
64.4095 1022.00
64.4747 1055.00
64.5399 1029.00
64.6051 1014.00
64.6703 1039.00
64.7355 1122.00
64.8007 1159.00
64.8659 1179.00
64.9311 1067.00
64.9963 1019.00
65.0615 898.00
65.1267 771.00
65.1919 749.00
65.2571 653.00
65.3223 631.00
65.3875 584.00
65.4527 596.00
65.5179 604.00
65.5831 644.00
65.6483 655.00
65.7135 715.00
65.7787 782.00
65.8439 829.00
65.9091 898.00
65.9743 1021.00
66.0395 1151.00
66.1047 1156.00
66.1699 1225.00
66.2351 1115.00
66.3003 1072.00
66.3655 1050.00
66.4307 935.00
66.4959 932.00
66.561 927.00
66.6263 916.00
66.6915 942.00
66.7566 917.00
66.8218 881.00
66.887 820.00
66.9522 775.00
67.0174 832.00
67.0826 812.00
67.1478 776.00
67.213 664.00
67.2782 725.00
67.3434 628.00
67.4086 645.00
67.4738 655.00
67.539 702.00
67.6042 729.00
67.6694 752.00
67.7346 764.00
67.7998 827.00
67.865 807.00
67.9302 817.00
67.9954 901.00
68.0606 904.00
68.1258 941.00
68.191 856.00
68.2562 940.00
68.3214 920.00
68.3866 852.00
68.4518 864.00
68.517 843.00
68.5822 797.00
68.6474 721.00
68.7126 694.00
68.7778 666.00
68.843 643.00
68.9082 604.00
68.9734 673.00
69.0386 640.00
69.1038 657.00
69.169 696.00
69.2342 680.00
69.2994 625.00
69.3646 710.00
69.4298 673.00
69.495 689.00
69.5602 670.00
69.6254 624.00
69.6906 610.00
69.7558 627.00
69.821 647.00
69.8862 592.00
69.9514 588.00
70.0166 547.00
70.0818 545.00
70.147 573.00
70.2122 562.00
70.2774 526.00
70.3426 539.00
70.4078 505.00
70.473 549.00
70.5382 527.00
70.6034 532.00
70.6686 565.00
70.7338 560.00
70.799 585.00
70.8642 573.00
70.9294 586.00
70.9946 608.00
71.0598 661.00
71.125 673.00
71.1902 771.00
71.2554 853.00
71.3205 918.00
71.3858 994.00
71.451 1015.00
71.5162 979.00
71.5813 975.00
71.6465 918.00
71.7117 887.00
71.7769 866.00
71.8421 845.00
71.9073 778.00
71.9725 820.00
72.0377 748.00
72.1029 662.00
72.1681 634.00
72.2333 631.00
72.2985 598.00
72.3637 612.00
72.4289 527.00
72.4941 562.00
72.5593 543.00
72.6245 506.00
72.6897 567.00
72.7549 547.00
72.8201 526.00
72.8853 564.00
72.9505 551.00
73.0157 529.00
73.0809 535.00
73.1461 547.00
73.2113 537.00
73.2765 504.00
73.3417 535.00
73.4069 505.00
73.4721 548.00
73.5373 553.00
73.6025 545.00
73.6677 574.00
73.7329 652.00
73.7981 618.00
73.8633 585.00
73.9285 666.00
73.9937 664.00
74.0589 690.00
74.1241 719.00
74.1893 768.00
74.2545 738.00
74.3197 740.00
74.3849 764.00
74.4501 765.00
74.5153 746.00
74.5805 739.00
74.6457 765.00
74.7109 746.00
74.7761 776.00
74.8413 732.00
74.9065 694.00
74.9717 702.00
75.0369 667.00
75.1021 672.00
75.1673 741.00
75.2325 688.00
75.2977 745.00
75.3629 727.00
75.4281 743.00
75.4933 765.00
75.5585 807.00
75.6237 830.00
75.6889 834.00
75.7541 798.00
75.8193 803.00
75.8845 805.00
75.9497 803.00
76.0149 776.00
76.0801 757.00
76.1452 732.00
76.2104 689.00
76.2756 717.00
76.3409 679.00
76.406 599.00
76.4712 587.00
76.5364 572.00
76.6016 610.00
76.6668 547.00
76.732 548.00
76.7972 497.00
76.8624 527.00
76.9276 534.00
76.9928 556.00
77.058 533.00
77.1232 531.00
77.1884 536.00
77.2536 543.00
77.3188 555.00
77.384 558.00
77.4492 569.00
77.5144 581.00
77.5796 510.00
77.6448 584.00
77.71 581.00
77.7752 583.00
77.8404 583.00
77.9056 585.00
77.9708 614.00
78.036 609.00
78.1012 609.00
78.1664 605.00
78.2316 613.00
78.2968 580.00
78.362 547.00
78.4272 631.00
78.4924 648.00
78.5576 745.00
78.6228 824.00
78.688 887.00
78.7532 982.00
78.8184 989.00
78.8836 1046.00
78.9488 1039.00
79.014 961.00
79.0792 998.00
79.1444 944.00
79.2096 929.00
79.2748 960.00
79.34 874.00
79.4052 842.00
79.4704 907.00
79.5356 913.00
79.6008 900.00
79.666 880.00
79.7312 765.00
79.7964 811.00
79.8616 797.00
79.9268 716.00
79.992 720.00
80.0572 715.00
80.1224 672.00
80.1876 667.00
80.2528 625.00
80.318 670.00
80.3832 607.00
80.4484 599.00
80.5136 599.00
80.5788 570.00
80.644 571.00
80.7092 570.00
80.7744 557.00
80.8396 623.00
80.9048 629.00
80.9699 634.00
81.0351 659.00
81.1003 682.00
81.1655 729.00
81.2307 735.00
81.2959 748.00
81.3611 749.00
81.4263 752.00
81.4915 728.00
81.5567 772.00
81.6219 758.00
81.6871 737.00
81.7523 673.00
81.8175 698.00
81.8827 681.00
81.9479 688.00
82.0131 688.00
82.0783 644.00
82.1435 611.00
82.2087 589.00
82.2739 603.00
82.3391 607.00
82.4043 568.00
82.4695 557.00
82.5347 572.00
82.5999 593.00
82.6651 533.00
82.7303 545.00
82.7955 585.00
82.8607 540.00
82.9259 552.00
82.9911 592.00
83.0563 579.00
83.1215 611.00
83.1867 521.00
83.2519 555.00
83.3171 604.00
83.3823 622.00
83.4475 573.00
83.5127 691.00
83.5779 716.00
83.6431 768.00
83.7083 791.00
83.7735 856.00
83.8387 865.00
83.9039 869.00
83.9691 768.00
84.0343 813.00
84.0995 738.00
84.1647 780.00
84.2299 748.00
84.2951 698.00
84.3603 727.00
84.4255 677.00
84.4907 671.00
84.5559 648.00
84.6211 676.00
84.6863 676.00
84.7515 648.00
84.8167 640.00
84.8819 594.00
84.9471 602.00
85.0123 625.00
85.0775 656.00
85.1427 603.00
85.2079 564.00
85.2731 617.00
85.3383 657.00
85.4035 646.00
85.4687 586.00
85.5339 558.00
85.5991 635.00
85.6643 642.00
85.7295 674.00
85.7946 652.00
85.8598 695.00
85.925 679.00
85.9903 683.00
86.0554 703.00
86.1206 618.00
86.1858 669.00
86.251 676.00
86.3162 686.00
86.3814 669.00
86.4466 658.00
86.5118 632.00
86.577 700.00
86.6422 678.00
86.7074 652.00
86.7726 672.00
86.8378 678.00
86.903 610.00
86.9682 626.00
87.0334 695.00
87.0986 661.00
87.1638 703.00
87.229 694.00
87.2942 696.00
87.3594 731.00
87.4246 648.00
87.4898 711.00
87.555 660.00
87.6202 615.00
87.6854 581.00
87.7506 581.00
87.8158 541.00
87.881 596.00
87.9462 515.00
88.0114 570.00
88.0766 551.00
88.1418 594.00
88.207 548.00
88.2722 582.00
88.3374 609.00
88.4026 548.00
88.4678 573.00
88.533 597.00
88.5982 629.00
88.6634 564.00
88.7286 599.00
88.7938 587.00
88.859 619.00
88.9242 590.00
88.9894 641.00
89.0546 574.00
89.1198 598.00
89.185 627.00
89.2502 614.00
89.3154 625.00
89.3806 639.00
89.4458 674.00
89.511 698.00
89.5762 725.00
89.6414 769.00
89.7066 814.00
89.7718 875.00
89.837 966.00
89.9022 950.00
89.9674 954.00
90.0326 926.00
90.0978 925.00
90.163 852.00
90.2282 829.00
90.2934 833.00
90.3586 762.00
90.4238 847.00
90.489 834.00
90.5542 851.00
90.6193 777.00
90.6845 898.00
90.7497 888.00
90.8149 901.00
90.8801 877.00
90.9453 865.00
91.0105 873.00
91.0757 895.00
91.1409 825.00
91.2061 793.00
91.2713 766.00
91.3365 708.00
91.4017 674.00
91.4669 617.00
91.5321 656.00
91.5973 653.00
91.6625 591.00
91.7277 631.00
91.7929 623.00
91.8581 620.00
91.9233 628.00
91.9885 603.00
92.0537 601.00
92.1189 630.00
92.1841 638.00
92.2493 641.00
92.3145 630.00
92.3797 700.00
92.4449 594.00
92.5101 631.00
92.5753 705.00
92.6405 627.00
92.7057 690.00
92.7709 684.00
92.8361 660.00
92.9013 679.00
92.9665 645.00
93.0317 713.00
93.0969 681.00
93.1621 737.00
93.2273 744.00
93.2925 712.00
93.3577 695.00
93.4229 715.00
93.4881 695.00
93.5533 733.00
93.6185 703.00
93.6837 726.00
93.7489 661.00
93.8141 611.00
93.8793 608.00
93.9445 635.00
94.0097 596.00
94.0749 615.00
94.1401 644.00
94.2053 601.00
94.2705 628.00
94.3357 635.00
94.4009 591.00
94.4661 600.00
94.5313 618.00
94.5965 644.00
94.6617 597.00
94.7269 632.00
94.7921 611.00
94.8573 645.00
94.9225 648.00
94.9877 637.00
95.0529 687.00
95.1181 684.00
95.1833 627.00
95.2485 698.00
95.3137 637.00
95.3789 669.00
95.444 701.00
95.5092 683.00
95.5744 705.00
95.6396 636.00
95.7048 654.00
95.77 700.00
95.8352 745.00
95.9004 797.00
95.9656 756.00
96.0308 827.00
96.096 745.00
96.1612 735.00
96.2264 734.00
96.2916 734.00
96.3568 778.00
96.422 793.00
96.4872 666.00
96.5524 733.00
96.6176 738.00
96.6828 686.00
96.748 710.00
96.8132 694.00
96.8784 705.00
96.9436 685.00
97.0088 745.00
97.074 625.00
97.1392 707.00
97.2044 696.00
97.2696 702.00
97.3348 712.00
97.4 692.00
97.4652 687.00
97.5304 678.00
97.5956 693.00
97.6608 689.00
97.726 667.00
97.7912 666.00
97.8564 654.00
97.9216 648.00
97.9868 630.00
98.052 585.00
98.1172 616.00
98.1824 611.00
98.2476 549.00
98.3128 477.00
98.378 560.00
98.4432 599.00
98.5084 546.00
98.5736 533.00
98.6388 552.00
98.704 528.00
98.7692 544.00
98.8344 523.00
98.8996 547.00
98.9648 496.00
99.03 512.00
99.0952 558.00
99.1604 591.00
99.2256 597.00
99.2908 588.00
99.356 505.00
99.4212 614.00
99.4864 563.00
99.5516 601.00
99.6168 623.00
99.682 610.00
99.7472 581.00
99.8124 620.00
99.8776 560.00
99.9428 591.00
100.008 649.00
100.073 614.00
100.095 566.00