File: data/xrd_creation/results/NSC_217.xy
9.903433 2721.00
9.968632 2616.00
10.0338 2652.00
10.099 2700.00
10.1642 2547.00
10.2294 2577.00
10.2946 2541.00
10.3598 2589.00
10.425 2524.00
10.4902 2537.00
10.5554 2573.00
10.6206 2393.00
10.6858 2494.00
10.751 2396.00
10.8162 2457.00
10.8814 2294.00
10.9466 2299.00
11.0118 2297.00
11.077 2271.00
11.1422 2297.00
11.2074 2382.00
11.2726 2334.00
11.3378 2307.00
11.403 2298.00
11.4682 2246.00
11.5334 2249.00
11.5986 2226.00
11.6638 2178.00
11.729 2132.00
11.7942 2150.00
11.8594 2188.00
11.9246 2101.00
11.9898 2115.00
12.055 2127.00
12.1202 2018.00
12.1854 2152.00
12.2506 2033.00
12.3158 2020.00
12.381 1983.00
12.4462 2062.00
12.5114 1930.00
12.5766 2018.00
12.6418 2068.00
12.707 2027.00
12.7722 1975.00
12.8374 1972.00
12.9026 1986.00
12.9678 1993.00
13.033 1995.00
13.0982 1937.00
13.1634 1960.00
13.2286 1862.00
13.2938 1858.00
13.359 1920.00
13.4242 1870.00
13.4894 2054.00
13.5546 2085.00
13.6198 2127.00
13.685 2308.00
13.7502 2505.00
13.8154 2607.00
13.8805 2893.00
13.9457 3104.00
14.0109 2785.00
14.0761 2282.00
14.1413 1995.00
14.2065 1814.00
14.2717 1903.00
14.3369 1858.00
14.4021 1792.00
14.4673 1795.00
14.5325 1878.00
14.5977 1852.00
14.6629 1831.00
14.7281 1787.00
14.7933 1867.00
14.8585 1939.00
14.9237 1847.00
14.9889 1975.00
15.0541 1787.00
15.1193 1800.00
15.1845 1715.00
15.2497 1760.00
15.3149 1778.00
15.3801 1673.00
15.4453 1748.00
15.5105 1757.00
15.5757 1770.00
15.6409 1731.00
15.7061 1726.00
15.7713 1692.00
15.8365 1639.00
15.9017 1687.00
15.9669 1709.00
16.0321 1674.00
16.0973 1680.00
16.1625 1681.00
16.2277 1731.00
16.2929 1579.00
16.3581 1684.00
16.4233 1647.00
16.4885 1674.00
16.5537 1655.00
16.6189 1629.00
16.6841 1636.00
16.7493 1632.00
16.8145 1596.00
16.8797 1614.00
16.9449 1624.00
17.0101 1628.00
17.0753 1539.00
17.1405 1675.00
17.2057 1601.00
17.2709 1614.00
17.3361 1551.00
17.4013 1621.00
17.4665 1668.00
17.5317 1665.00
17.5969 1647.00
17.6621 1740.00
17.7273 1730.00
17.7925 1698.00
17.8577 1623.00
17.9229 1553.00
17.9881 1612.00
18.0533 1450.00
18.1185 1541.00
18.1837 1507.00
18.2489 1551.00
18.3141 1522.00
18.3793 1525.00
18.4445 1469.00
18.5097 1587.00
18.5749 1490.00
18.6401 1558.00
18.7052 1579.00
18.7704 1649.00
18.8356 1639.00
18.9008 1649.00
18.966 1704.00
19.0312 2032.00
19.0964 2111.00
19.1616 2591.00
19.2268 3176.00
19.292 3911.00
19.3572 4916.00
19.4224 6091.00
19.4876 7091.00
19.5528 7125.00
19.618 6496.00
19.6832 5867.00
19.7484 5689.00
19.8136 5549.00
19.8788 4726.00
19.944 3371.00
20.0092 2187.00
20.0744 1859.00
20.1396 1646.00
20.2048 1613.00
20.27 1466.00
20.3352 1605.00
20.4004 1454.00
20.4656 1586.00
20.5308 1635.00
20.596 1583.00
20.6612 1539.00
20.7264 1585.00
20.7916 1612.00
20.8568 1632.00
20.922 1665.00
20.9872 1713.00
21.0524 1608.00
21.1176 1725.00
21.1828 1721.00
21.248 1821.00
21.3132 1782.00
21.3784 1807.00
21.4436 1838.00
21.5088 1859.00
21.574 1847.00
21.6392 1685.00
21.7044 1507.00
21.7696 1583.00
21.8348 1431.00
21.9 1456.00
21.9652 1432.00
22.0304 1412.00
22.0956 1397.00
22.1608 1510.00
22.226 1513.00
22.2912 1516.00
22.3564 1581.00
22.4216 1626.00
22.4868 1740.00
22.552 1803.00
22.6172 1904.00
22.6824 1856.00
22.7476 1728.00
22.8128 1826.00
22.878 1997.00
22.9432 2314.00
23.0084 2630.00
23.0736 2928.00
23.1388 2796.00
23.204 2139.00
23.2692 1807.00
23.3344 1586.00
23.3996 1457.00
23.4647 1453.00
23.5299 1362.00
23.5951 1355.00
23.6603 1319.00
23.7255 1328.00
23.7907 1406.00
23.8559 1403.00
23.9211 1434.00
23.9863 1462.00
24.0515 1465.00
24.1167 1637.00
24.1819 1749.00
24.2471 1803.00
24.3123 1776.00
24.3775 1766.00
24.4427 1606.00
24.5079 1542.00
24.5731 1512.00
24.6383 1448.00
24.7035 1566.00
24.7687 1573.00
24.8339 1522.00
24.8991 1459.00
24.9643 1358.00
25.0295 1308.00
25.0947 1259.00
25.1599 1350.00
25.2251 1280.00
25.2903 1229.00
25.3555 1274.00
25.4207 1259.00
25.4859 1237.00
25.5511 1236.00
25.6163 1308.00
25.6815 1294.00
25.7467 1255.00
25.8119 1307.00
25.8771 1329.00
25.9423 1236.00
26.0075 1249.00
26.0727 1281.00
26.1379 1223.00
26.2031 1250.00
26.2683 1201.00
26.3335 1187.00
26.3987 1172.00
26.4639 1203.00
26.5291 1253.00
26.5943 1210.00
26.6595 1246.00
26.7247 1280.00
26.7899 1277.00
26.8551 1254.00
26.9203 1174.00
26.9855 1213.00
27.0507 1349.00
27.1159 1326.00
27.1811 1238.00
27.2463 1336.00
27.3115 1339.00
27.3767 1452.00
27.4419 1608.00
27.5071 1780.00
27.5723 2288.00
27.6375 2766.00
27.7027 3486.00
27.7679 4242.00
27.8331 4339.00
27.8983 4066.00
27.9635 3194.00
28.0287 2289.00
28.0939 1746.00
28.1591 1799.00
28.2243 1921.00
28.2894 2260.00
28.3546 2728.00
28.4198 3222.00
28.485 3440.00
28.5502 3482.00
28.6154 2954.00
28.6806 2391.00
28.7458 1821.00
28.811 1522.00
28.8762 1356.00
28.9414 1210.00
29.0066 1184.00
29.0718 1242.00
29.137 1155.00
29.2022 1207.00
29.2674 1164.00
29.3326 1203.00
29.3978 1197.00
29.463 1199.00
29.5282 1152.00
29.5934 1172.00
29.6586 1200.00
29.7238 1164.00
29.789 1160.00
29.8542 1185.00
29.9194 1223.00
29.9846 1241.00
30.0498 1238.00
30.115 1251.00
30.1802 1322.00
30.2454 1396.00
30.3106 1488.00
30.3758 1577.00
30.441 1857.00
30.5062 2227.00
30.5714 2655.00
30.6366 3092.00
30.7018 3838.00
30.767 4657.00
30.8322 5712.00
30.8974 6486.00
30.9626 6850.00
31.0278 6030.00
31.093 4947.00
31.1582 3621.00
31.2234 2447.00
31.2886 1878.00
31.3538 1685.00
31.419 1687.00
31.4842 1695.00
31.5494 1860.00
31.6146 2194.00
31.6798 2519.00
31.745 2632.00
31.8102 2801.00
31.8754 2747.00
31.9406 2310.00
32.0058 1872.00
32.071 1480.00
32.1362 1346.00
32.2014 1317.00
32.2666 1204.00
32.3318 1242.00
32.397 1169.00
32.4622 1184.00
32.5274 1136.00
32.5926 1043.00
32.6578 1137.00
32.723 1160.00
32.7882 1136.00
32.8534 1178.00
32.9186 1239.00
32.9838 1214.00
33.0489 1231.00
33.1141 1347.00
33.1793 1321.00
33.2445 1391.00
33.3097 1400.00
33.3749 1438.00
33.4401 1376.00
33.5053 1356.00
33.5705 1327.00
33.6357 1449.00
33.7009 1492.00
33.7661 1560.00
33.8313 1487.00
33.8965 1669.00
33.9617 1903.00
34.0269 2309.00
34.0921 3033.00
34.1573 3931.00
34.2225 4671.00
34.2877 5506.00
34.3529 5616.00
34.4181 5656.00
34.4833 5347.00
34.5485 4660.00
34.6137 3659.00
34.6789 2596.00
34.7441 2067.00
34.8093 1818.00
34.8745 1698.00
34.9397 1476.00
35.0049 1258.00
35.0701 1163.00
35.1353 1169.00
35.2005 1110.00
35.2657 1107.00
35.3309 1154.00
35.3961 1267.00
35.4613 1257.00
35.5265 1373.00
35.5917 1481.00
35.6569 1628.00
35.7221 1531.00
35.7873 1499.00
35.8525 1276.00
35.9177 1128.00
35.9829 1149.00
36.0481 1098.00
36.1133 1117.00
36.1785 1242.00
36.2437 1240.00
36.3089 1209.00
36.3741 1151.00
36.4393 1042.00
36.5045 1071.00
36.5697 948.00
36.6349 1013.00
36.7001 1086.00
36.7653 1045.00
36.8305 1036.00
36.8957 944.00
36.9609 1004.00
37.0261 1010.00
37.0913 1034.00
37.1565 1032.00
37.2217 988.00
37.2869 958.00
37.3521 892.00
37.4173 1031.00
37.4825 958.00
37.5477 963.00
37.6129 1013.00
37.6781 997.00
37.7433 931.00
37.8085 956.00
37.8736 981.00
37.9388 952.00
38.004 948.00
38.0692 920.00
38.1344 948.00
38.1996 949.00
38.2648 919.00
38.33 1020.00
38.3952 919.00
38.4604 966.00
38.5256 1025.00
38.5908 965.00
38.656 1050.00
38.7212 1041.00
38.7864 1077.00
38.8516 1134.00
38.9168 1150.00
38.982 1250.00
39.0472 1143.00
39.1124 1151.00
39.1776 1217.00
39.2428 1206.00
39.308 1167.00
39.3732 1185.00
39.4384 1215.00
39.5036 1183.00
39.5688 1069.00
39.634 1191.00
39.6992 1094.00
39.7644 1115.00
39.8296 1197.00
39.8948 1228.00
39.96 1199.00
40.0252 1144.00
40.0904 1113.00
40.1556 1070.00
40.2208 1039.00
40.286 1040.00
40.3512 1001.00
40.4164 1021.00
40.4816 947.00
40.5468 1006.00
40.612 977.00
40.6772 982.00
40.7424 1110.00
40.8076 1108.00
40.8728 1159.00
40.938 1275.00
41.0032 1336.00
41.0684 1480.00
41.1336 1544.00
41.1988 1526.00
41.264 1592.00
41.3292 1531.00
41.3944 1570.00
41.4596 1580.00
41.5248 1672.00
41.59 1695.00
41.6552 1773.00
41.7204 1722.00
41.7856 1741.00
41.8508 1616.00
41.916 1584.00
41.9812 1615.00
42.0464 1459.00
42.1116 1440.00
42.1768 1342.00
42.242 1356.00
42.3072 1262.00
42.3724 1188.00
42.4376 1117.00
42.5028 1057.00
42.568 1025.00
42.6332 1077.00
42.6983 1059.00
42.7635 934.00
42.8287 955.00
42.8939 914.00
42.9591 952.00
43.0243 951.00
43.0895 867.00
43.1547 943.00
43.2199 926.00
43.2851 913.00
43.3503 953.00
43.4155 916.00
43.4807 1049.00
43.5459 992.00
43.6111 956.00
43.6763 1035.00
43.7415 960.00
43.8067 1005.00
43.8719 1045.00
43.9371 1040.00
44.0023 1175.00
44.0675 1174.00
44.1327 1419.00
44.1979 1450.00
44.2631 1601.00
44.3283 1728.00
44.3935 1771.00
44.4587 1853.00
44.5239 1959.00
44.5891 2052.00
44.6543 2158.00
44.7195 2184.00
44.7847 2090.00
44.8499 1925.00
44.9151 1711.00
44.9803 1461.00
45.0455 1309.00
45.1107 1163.00
45.1759 1188.00
45.2411 1119.00
45.3063 1091.00
45.3715 1097.00
45.4367 1085.00
45.5019 1076.00
45.5671 1087.00
45.6323 1077.00
45.6975 1164.00
45.7627 1158.00
45.8279 1235.00
45.8931 1216.00
45.9583 1305.00
46.0235 1334.00
46.0887 1335.00
46.1539 1500.00
46.2191 1446.00
46.2843 1609.00
46.3495 1644.00
46.4147 1664.00
46.4799 1740.00
46.5451 1841.00
46.6103 1992.00
46.6755 2362.00
46.7407 2637.00
46.8059 2761.00
46.8711 2834.00
46.9363 2605.00
47.0015 2363.00
47.0667 2105.00
47.1319 1864.00
47.1971 1601.00
47.2623 1408.00
47.3275 1337.00
47.3927 1150.00
47.4579 969.00
47.523 1048.00
47.5882 978.00
47.6534 915.00
47.7186 934.00
47.7838 906.00
47.849 935.00
47.9142 961.00
47.9794 926.00
48.0446 1011.00
48.1098 1031.00
48.175 967.00
48.2402 975.00
48.3054 1030.00
48.3706 1036.00
48.4358 1023.00
48.501 1021.00
48.5662 958.00
48.6314 911.00
48.6966 966.00
48.7618 929.00
48.827 920.00
48.8922 964.00
48.9574 997.00
49.0226 1079.00
49.0878 1074.00
49.153 1159.00
49.2182 1194.00
49.2834 1136.00
49.3486 1249.00
49.4138 1298.00
49.479 1359.00
49.5442 1271.00
49.6094 1282.00
49.6746 1326.00
49.7398 1324.00
49.805 1318.00
49.8702 1188.00
49.9354 1133.00
50.0006 961.00
50.0658 1049.00
50.131 1089.00
50.1962 1146.00
50.2614 1359.00
50.3266 1555.00
50.3918 1774.00
50.457 2084.00
50.5222 2330.00
50.5874 2530.00
50.6526 2729.00
50.7178 2642.00
50.783 2530.00
50.8482 2472.00
50.9134 2341.00
50.9786 2116.00
51.0438 1814.00
51.109 1626.00
51.1742 1441.00
51.2394 1264.00
51.3046 1098.00
51.3698 1094.00
51.435 1027.00
51.5002 1055.00
51.5654 1034.00
51.6306 976.00
51.6958 980.00
51.761 1064.00
51.8262 1026.00
51.8914 990.00
51.9566 964.00
52.0218 914.00
52.087 994.00
52.1522 958.00
52.2174 941.00
52.2826 981.00
52.3477 960.00
52.4129 920.00
52.4781 947.00
52.5433 900.00
52.6085 924.00
52.6737 983.00
52.7389 1058.00
52.8041 1040.00
52.8693 1065.00
52.9345 1243.00
52.9997 1269.00
53.0649 1327.00
53.1301 1385.00
53.1953 1578.00
53.2605 1674.00
53.3257 1885.00
53.3909 2089.00
53.4561 2265.00
53.5213 2290.00
53.5865 2307.00
53.6517 2342.00
53.7169 2294.00
53.7821 2171.00
53.8473 1950.00
53.9125 1736.00
53.9777 1484.00
54.0429 1362.00
54.1081 1246.00
54.1733 1183.00
54.2385 1134.00
54.3037 1148.00
54.3689 1085.00
54.4341 1229.00
54.4993 1209.00
54.5645 1159.00
54.6297 1138.00
54.6949 1179.00
54.7601 1074.00
54.8253 1031.00
54.8905 1004.00
54.9557 1045.00
55.0209 1028.00
55.0861 1050.00
55.1513 1070.00
55.2165 1024.00
55.2817 1065.00
55.3469 998.00
55.4121 1040.00
55.4773 1019.00
55.5425 1148.00
55.6077 1085.00
55.6729 1204.00
55.7381 1251.00
55.8033 1270.00
55.8685 1200.00
55.9337 1290.00
55.9989 1233.00
56.0641 1156.00
56.1293 1098.00
56.1945 1096.00
56.2597 1054.00
56.3249 1106.00
56.3901 1081.00
56.4553 1095.00
56.5205 1046.00
56.5857 1061.00
56.6509 1046.00
56.7161 989.00
56.7813 973.00
56.8465 966.00
56.9117 974.00
56.9769 1029.00
57.042 964.00
57.1073 1003.00
57.1724 1040.00
57.2376 1073.00
57.3028 1079.00
57.368 1198.00
57.4332 1170.00
57.4984 1214.00
57.5636 1136.00
57.6288 1226.00
57.694 1203.00
57.7592 1209.00
57.8244 1151.00
57.8896 1179.00
57.9548 1172.00
58.02 1081.00
58.0852 1189.00
58.1504 1172.00
58.2156 1232.00
58.2808 1251.00
58.346 1275.00
58.4112 1313.00
58.4764 1423.00
58.5416 1500.00
58.6068 1572.00
58.672 1581.00
58.7372 1630.00
58.8024 1789.00
58.8676 1792.00
58.9328 2051.00
58.998 2031.00
59.0632 2079.00
59.1284 2165.00
59.1936 2136.00
59.2588 2090.00
59.324 1915.00
59.3892 1936.00
59.4544 1732.00
59.5196 1676.00
59.5848 1526.00
59.65 1381.00
59.7152 1309.00
59.7804 1200.00
59.8456 1157.00
59.9108 1033.00
59.976 1102.00
60.0412 1143.00
60.1064 1222.00
60.1716 1289.00
60.2368 1290.00
60.302 1315.00
60.3672 1298.00
60.4324 1387.00
60.4976 1317.00
60.5628 1311.00
60.628 1280.00
60.6932 1211.00
60.7584 1216.00
60.8236 1195.00
60.8888 1202.00
60.954 1183.00
61.0192 1278.00
61.0844 1281.00
61.1496 1321.00
61.2148 1371.00
61.28 1461.00
61.3452 1540.00
61.4104 1556.00
61.4756 1683.00
61.5408 1647.00
61.606 1667.00
61.6712 1630.00
61.7364 1601.00
61.8016 1476.00
61.8667 1430.00
61.932 1381.00
61.9971 1290.00
62.0623 1348.00
62.1275 1228.00
62.1927 1296.00
62.2579 1309.00
62.3231 1343.00
62.3883 1394.00
62.4535 1407.00
62.5187 1466.00
62.5839 1442.00
62.6491 1248.00
62.7143 1274.00
62.7795 1167.00
62.8447 1142.00
62.9099 1134.00
62.9751 1135.00
63.0403 1174.00
63.1055 1086.00
63.1707 1139.00
63.2359 1079.00
63.3011 1047.00
63.3663 1152.00
63.4315 1118.00
63.4967 1039.00
63.5619 977.00
63.6271 910.00
63.6923 863.00
63.7575 864.00
63.8227 834.00
63.8879 905.00
63.9531 875.00
64.0183 870.00
64.0835 830.00
64.1487 843.00
64.2139 958.00
64.2791 890.00
64.3443 896.00
64.4095 973.00
64.4747 915.00
64.5399 959.00
64.6051 1043.00
64.6703 1030.00
64.7355 1216.00
64.8007 1106.00
64.8659 1166.00
64.9311 1228.00
64.9963 1164.00
65.0615 1285.00
65.1267 1267.00
65.1919 1245.00
65.2571 1247.00
65.3223 1285.00
65.3875 1303.00
65.4527 1172.00
65.5179 1232.00
65.5831 1288.00
65.6483 1224.00
65.7135 1308.00
65.7787 1312.00
65.8439 1300.00
65.9091 1379.00
65.9743 1382.00
66.0395 1373.00
66.1047 1508.00
66.1699 1523.00
66.2351 1521.00
66.3003 1475.00
66.3655 1427.00
66.4307 1417.00
66.4959 1359.00
66.561 1353.00
66.6263 1312.00
66.6915 1239.00
66.7566 1156.00
66.8218 1109.00
66.887 1091.00
66.9522 1102.00
67.0174 976.00
67.0826 959.00
67.1478 888.00
67.213 936.00
67.2782 952.00
67.3434 894.00
67.4086 920.00
67.4738 864.00
67.539 946.00
67.6042 873.00
67.6694 849.00
67.7346 914.00
67.7998 897.00
67.865 861.00
67.9302 843.00
67.9954 852.00
68.0606 842.00
68.1258 855.00
68.191 880.00
68.2562 922.00
68.3214 937.00
68.3866 972.00
68.4518 1041.00
68.517 1135.00
68.5822 1124.00
68.6474 1180.00
68.7126 1172.00
68.7778 1133.00
68.843 1136.00
68.9082 1125.00
68.9734 1075.00
69.0386 1009.00
69.1038 992.00
69.169 1123.00
69.2342 936.00
69.2994 913.00
69.3646 947.00
69.4298 966.00
69.495 952.00
69.5602 922.00
69.6254 938.00
69.6906 920.00
69.7558 903.00
69.821 940.00
69.8862 1006.00
69.9514 926.00
70.0166 873.00
70.0818 880.00
70.147 920.00
70.2122 881.00
70.2774 947.00
70.3426 928.00
70.4078 864.00
70.473 952.00
70.5382 888.00
70.6034 897.00
70.6686 873.00
70.7338 947.00
70.799 859.00
70.8642 817.00
70.9294 882.00
70.9946 852.00
71.0598 827.00
71.125 926.00
71.1902 831.00
71.2554 878.00
71.3205 905.00
71.3858 954.00
71.451 989.00
71.5162 985.00
71.5813 1056.00
71.6465 1018.00
71.7117 1110.00
71.7769 1082.00
71.8421 1106.00
71.9073 1175.00
71.9725 1106.00
72.0377 1098.00
72.1029 1193.00
72.1681 1178.00
72.2333 1208.00
72.2985 1247.00
72.3637 1279.00
72.4289 1294.00
72.4941 1255.00
72.5593 1328.00
72.6245 1211.00
72.6897 1250.00
72.7549 1197.00
72.8201 1173.00
72.8853 1117.00
72.9505 1108.00
73.0157 1038.00
73.0809 1091.00
73.1461 1069.00
73.2113 1032.00
73.2765 1075.00
73.3417 1016.00
73.4069 1019.00
73.4721 1016.00
73.5373 899.00
73.6025 935.00
73.6677 978.00
73.7329 919.00
73.7981 944.00
73.8633 916.00
73.9285 966.00
73.9937 949.00
74.0589 938.00
74.1241 916.00
74.1893 941.00
74.2545 912.00
74.3197 949.00
74.3849 873.00
74.4501 845.00
74.5153 849.00
74.5805 885.00
74.6457 888.00
74.7109 884.00
74.7761 852.00
74.8413 884.00
74.9065 934.00
74.9717 885.00
75.0369 954.00
75.1021 934.00
75.1673 978.00
75.2325 1004.00
75.2977 979.00
75.3629 1072.00
75.4281 1053.00
75.4933 1066.00
75.5585 1155.00
75.6237 1098.00
75.6889 1133.00
75.7541 1202.00
75.8193 1207.00
75.8845 1165.00
75.9497 1139.00
76.0149 1080.00
76.0801 1149.00
76.1452 1061.00
76.2104 980.00
76.2756 1015.00
76.3409 922.00
76.406 985.00
76.4712 976.00
76.5364 983.00
76.6016 981.00
76.6668 1023.00
76.732 999.00
76.7972 1033.00
76.8624 1036.00
76.9276 952.00
76.9928 998.00
77.058 1037.00
77.1232 942.00
77.1884 923.00
77.2536 933.00
77.3188 952.00
77.384 955.00
77.4492 896.00
77.5144 875.00
77.5796 871.00
77.6448 873.00
77.71 804.00
77.7752 852.00
77.8404 795.00
77.9056 850.00
77.9708 890.00
78.036 897.00
78.1012 903.00
78.1664 843.00
78.2316 861.00
78.2968 881.00
78.362 888.00
78.4272 849.00
78.4924 845.00
78.5576 867.00
78.6228 895.00
78.688 846.00
78.7532 820.00
78.8184 831.00
78.8836 913.00
78.9488 864.00
79.014 924.00
79.0792 989.00
79.1444 921.00
79.2096 906.00
79.2748 984.00
79.34 950.00
79.4052 941.00
79.4704 1003.00
79.5356 1064.00
79.6008 1022.00
79.666 1036.00
79.7312 1092.00
79.7964 1050.00
79.8616 1069.00
79.9268 1074.00
79.992 1006.00
80.0572 1064.00
80.1224 1099.00
80.1876 1015.00
80.2528 1094.00
80.318 1126.00
80.3832 1041.00
80.4484 1184.00
80.5136 1066.00
80.5788 1097.00
80.644 1043.00
80.7092 1136.00
80.7744 1043.00
80.8396 1024.00
80.9048 1024.00
80.9699 950.00
81.0351 955.00
81.1003 1015.00
81.1655 942.00
81.2307 904.00
81.2959 936.00
81.3611 882.00
81.4263 867.00
81.4915 892.00
81.5567 885.00
81.6219 849.00
81.6871 939.00
81.7523 894.00
81.8175 918.00
81.8827 966.00
81.9479 958.00
82.0131 987.00
82.0783 988.00
82.1435 1012.00
82.2087 1013.00
82.2739 1030.00
82.3391 996.00
82.4043 997.00
82.4695 972.00
82.5347 1028.00
82.5999 993.00
82.6651 992.00
82.7303 928.00
82.7955 922.00
82.8607 919.00
82.9259 933.00
82.9911 907.00
83.0563 869.00
83.1215 954.00
83.1867 893.00
83.2519 967.00
83.3171 902.00
83.3823 906.00
83.4475 941.00
83.5127 901.00
83.5779 947.00
83.6431 944.00
83.7083 904.00
83.7735 853.00
83.8387 881.00
83.9039 942.00
83.9691 901.00
84.0343 866.00
84.0995 866.00
84.1647 896.00
84.2299 829.00
84.2951 851.00
84.3603 870.00
84.4255 856.00
84.4907 869.00
84.5559 888.00
84.6211 890.00
84.6863 885.00
84.7515 912.00
84.8167 932.00
84.8819 885.00
84.9471 909.00
85.0123 929.00
85.0775 884.00
85.1427 981.00
85.2079 897.00
85.2731 902.00
85.3383 900.00
85.4035 907.00
85.4687 952.00
85.5339 907.00
85.5991 961.00
85.6643 963.00
85.7295 980.00
85.7946 970.00
85.8598 1020.00
85.925 998.00
85.9903 993.00
86.0554 981.00
86.1206 969.00
86.1858 957.00
86.251 980.00
86.3162 1032.00
86.3814 1039.00
86.4466 1035.00
86.5118 1106.00
86.577 1119.00
86.6422 1117.00
86.7074 1112.00
86.7726 1176.00
86.8378 1154.00
86.903 1119.00
86.9682 1114.00
87.0334 1122.00
87.0986 1083.00
87.1638 1074.00
87.229 1048.00
87.2942 1036.00
87.3594 1061.00
87.4246 976.00
87.4898 970.00
87.555 1008.00
87.6202 967.00
87.6854 1022.00
87.7506 925.00
87.8158 876.00
87.881 1022.00
87.9462 957.00
88.0114 918.00
88.0766 889.00
88.1418 949.00
88.207 966.00
88.2722 925.00
88.3374 918.00
88.4026 899.00
88.4678 938.00
88.533 945.00
88.5982 941.00
88.6634 955.00
88.7286 955.00
88.7938 956.00
88.859 972.00
88.9242 994.00
88.9894 1055.00
89.0546 1018.00
89.1198 1030.00
89.185 1030.00
89.2502 986.00
89.3154 1058.00
89.3806 1013.00
89.4458 1061.00
89.511 993.00
89.5762 988.00
89.6414 968.00
89.7066 1051.00
89.7718 1081.00
89.837 950.00
89.9022 943.00
89.9674 975.00
90.0326 1001.00
90.0978 1018.00
90.163 1029.00
90.2282 951.00
90.2934 978.00
90.3586 951.00
90.4238 1012.00
90.489 1021.00
90.5542 1018.00
90.6193 928.00
90.6845 954.00
90.7497 988.00
90.8149 998.00
90.8801 958.00
90.9453 926.00
91.0105 889.00
91.0757 957.00
91.1409 874.00
91.2061 886.00
91.2713 883.00
91.3365 882.00
91.4017 889.00
91.4669 906.00
91.5321 925.00
91.5973 949.00
91.6625 863.00
91.7277 908.00
91.7929 882.00
91.8581 934.00
91.9233 906.00
91.9885 939.00
92.0537 935.00
92.1189 1019.00
92.1841 958.00
92.2493 1034.00
92.3145 1041.00
92.3797 981.00
92.4449 1031.00
92.5101 1049.00
92.5753 1017.00
92.6405 1032.00
92.7057 995.00
92.7709 1023.00
92.8361 987.00
92.9013 1079.00
92.9665 1036.00
93.0317 1089.00
93.0969 1068.00
93.1621 1131.00
93.2273 1039.00
93.2925 1025.00
93.3577 1071.00
93.4229 1014.00
93.4881 1041.00
93.5533 999.00
93.6185 1083.00
93.6837 965.00
93.7489 1060.00
93.8141 953.00
93.8793 987.00
93.9445 942.00
94.0097 931.00
94.0749 917.00
94.1401 936.00
94.2053 977.00
94.2705 905.00
94.3357 880.00
94.4009 894.00
94.4661 849.00
94.5313 892.00
94.5965 913.00
94.6617 840.00
94.7269 848.00
94.7921 931.00
94.8573 905.00
94.9225 848.00
94.9877 832.00
95.0529 942.00
95.1181 939.00
95.1833 918.00
95.2485 880.00
95.3137 989.00
95.3789 921.00
95.444 997.00
95.5092 983.00
95.5744 934.00
95.6396 912.00
95.7048 919.00
95.77 904.00
95.8352 1029.00
95.9004 971.00
95.9656 957.00
96.0308 903.00
96.096 980.00
96.1612 951.00
96.2264 1013.00
96.2916 918.00
96.3568 904.00
96.422 878.00
96.4872 920.00
96.5524 896.00
96.6176 915.00
96.6828 850.00
96.748 891.00
96.8132 929.00
96.8784 882.00
96.9436 947.00
97.0088 968.00
97.074 976.00
97.1392 885.00
97.2044 926.00
97.2696 935.00
97.3348 946.00
97.4 993.00
97.4652 1000.00
97.5304 917.00
97.5956 1011.00
97.6608 962.00
97.726 884.00
97.7912 981.00
97.8564 958.00
97.9216 879.00
97.9868 881.00
98.052 928.00
98.1172 872.00
98.1824 870.00
98.2476 939.00
98.3128 943.00
98.378 921.00
98.4432 914.00
98.5084 895.00
98.5736 927.00
98.6388 951.00
98.704 940.00
98.7692 962.00
98.8344 1028.00
98.8996 996.00
98.9648 937.00
99.03 965.00
99.0952 1043.00
99.1604 943.00
99.2256 1039.00
99.2908 1003.00
99.356 1108.00
99.4212 1050.00
99.4864 1110.00
99.5516 1116.00
99.6168 1151.00
99.682 1068.00
99.7472 1200.00
99.8124 1180.00
99.8776 1143.00
99.9428 1233.00
100.008 1207.00
100.073 1255.00
100.095 1273.00