File: data/xrd_creation/results/NSC_76.xy
9.903433 2723.00
9.968632 2726.00
10.0338 2644.00
10.099 2598.00
10.1642 2670.00
10.2294 2508.00
10.2946 2568.00
10.3598 2532.00
10.425 2648.00
10.4902 2531.00
10.5554 2405.00
10.6206 2403.00
10.6858 2446.00
10.751 2380.00
10.8162 2329.00
10.8814 2271.00
10.9466 2316.00
11.0118 2285.00
11.077 2310.00
11.1422 2274.00
11.2074 2221.00
11.2726 2315.00
11.3378 2158.00
11.403 2189.00
11.4682 2197.00
11.5334 2174.00
11.5986 2226.00
11.6638 2096.00
11.729 2105.00
11.7942 2060.00
11.8594 2121.00
11.9246 2016.00
11.9898 2103.00
12.055 1955.00
12.1202 1969.00
12.1854 1942.00
12.2506 2013.00
12.3158 1975.00
12.381 1902.00
12.4462 1932.00
12.5114 1955.00
12.5766 1864.00
12.6418 1901.00
12.707 1931.00
12.7722 1804.00
12.8374 1807.00
12.9026 1772.00
12.9678 1790.00
13.033 1867.00
13.0982 1814.00
13.1634 1751.00
13.2286 1718.00
13.2938 1798.00
13.359 1793.00
13.4242 1706.00
13.4894 1712.00
13.5546 1605.00
13.6198 1693.00
13.685 1641.00
13.7502 1607.00
13.8154 1582.00
13.8805 1687.00
13.9457 1678.00
14.0109 1557.00
14.0761 1651.00
14.1413 1603.00
14.2065 1584.00
14.2717 1604.00
14.3369 1585.00
14.4021 1613.00
14.4673 1546.00
14.5325 1598.00
14.5977 1494.00
14.6629 1638.00
14.7281 1580.00
14.7933 1568.00
14.8585 1629.00
14.9237 1591.00
14.9889 1466.00
15.0541 1574.00
15.1193 1428.00
15.1845 1574.00
15.2497 1471.00
15.3149 1514.00
15.3801 1599.00
15.4453 1503.00
15.5105 1424.00
15.5757 1516.00
15.6409 1526.00
15.7061 1467.00
15.7713 1438.00
15.8365 1362.00
15.9017 1473.00
15.9669 1381.00
16.0321 1438.00
16.0973 1482.00
16.1625 1452.00
16.2277 1426.00
16.2929 1417.00
16.3581 1307.00
16.4233 1411.00
16.4885 1419.00
16.5537 1386.00
16.6189 1388.00
16.6841 1441.00
16.7493 1373.00
16.8145 1399.00
16.8797 1370.00
16.9449 1392.00
17.0101 1389.00
17.0753 1408.00
17.1405 1355.00
17.2057 1398.00
17.2709 1332.00
17.3361 1334.00
17.4013 1376.00
17.4665 1362.00
17.5317 1279.00
17.5969 1296.00
17.6621 1284.00
17.7273 1321.00
17.7925 1317.00
17.8577 1370.00
17.9229 1245.00
17.9881 1274.00
18.0533 1244.00
18.1185 1191.00
18.1837 1234.00
18.2489 1311.00
18.3141 1276.00
18.3793 1232.00
18.4445 1255.00
18.5097 1292.00
18.5749 1264.00
18.6401 1260.00
18.7052 1199.00
18.7704 1219.00
18.8356 1227.00
18.9008 1199.00
18.966 1209.00
19.0312 1192.00
19.0964 1198.00
19.1616 1184.00
19.2268 1283.00
19.292 1290.00
19.3572 1411.00
19.4224 1739.00
19.4876 2018.00
19.5528 1652.00
19.618 1289.00
19.6832 1229.00
19.7484 1202.00
19.8136 1139.00
19.8788 1194.00
19.944 1240.00
20.0092 1162.00
20.0744 1117.00
20.1396 1138.00
20.2048 1070.00
20.27 1170.00
20.3352 1098.00
20.4004 1095.00
20.4656 1122.00
20.5308 1118.00
20.596 1101.00
20.6612 1085.00
20.7264 1098.00
20.7916 1073.00
20.8568 1042.00
20.922 1093.00
20.9872 1161.00
21.0524 1144.00
21.1176 1064.00
21.1828 1104.00
21.248 1157.00
21.3132 1093.00
21.3784 1140.00
21.4436 1226.00
21.5088 1182.00
21.574 1135.00
21.6392 1104.00
21.7044 1058.00
21.7696 1023.00
21.8348 1014.00
21.9 1036.00
21.9652 1021.00
22.0304 1044.00
22.0956 1103.00
22.1608 1009.00
22.226 1080.00
22.2912 1086.00
22.3564 1003.00
22.4216 997.00
22.4868 1000.00
22.552 1016.00
22.6172 1052.00
22.6824 1051.00
22.7476 968.00
22.8128 984.00
22.878 947.00
22.9432 972.00
23.0084 1047.00
23.0736 988.00
23.1388 1025.00
23.204 982.00
23.2692 973.00
23.3344 1010.00
23.3996 997.00
23.4647 1015.00
23.5299 1034.00
23.5951 980.00
23.6603 926.00
23.7255 1009.00
23.7907 998.00
23.8559 940.00
23.9211 950.00
23.9863 984.00
24.0515 929.00
24.1167 975.00
24.1819 949.00
24.2471 959.00
24.3123 963.00
24.3775 959.00
24.4427 887.00
24.5079 977.00
24.5731 946.00
24.6383 969.00
24.7035 944.00
24.7687 941.00
24.8339 925.00
24.8991 900.00
24.9643 954.00
25.0295 950.00
25.0947 971.00
25.1599 1026.00
25.2251 1007.00
25.2903 1066.00
25.3555 1049.00
25.4207 1312.00
25.4859 1757.00
25.5511 3005.00
25.6163 4612.00
25.6815 3566.00
25.7467 1662.00
25.8119 1127.00
25.8771 1040.00
25.9423 1005.00
26.0075 941.00
26.0727 958.00
26.1379 975.00
26.2031 984.00
26.2683 1018.00
26.3335 1123.00
26.3987 1328.00
26.4639 1161.00
26.5291 937.00
26.5943 925.00
26.6595 873.00
26.7247 923.00
26.7899 943.00
26.8551 902.00
26.9203 880.00
26.9855 886.00
27.0507 910.00
27.1159 916.00
27.1811 900.00
27.2463 886.00
27.3115 832.00
27.3767 921.00
27.4419 944.00
27.5071 994.00
27.5723 1144.00
27.6375 1725.00
27.7027 2677.00
27.7679 3467.00
27.8331 2540.00
27.8983 1297.00
27.9635 1062.00
28.0287 970.00
28.0939 932.00
28.1591 962.00
28.2243 902.00
28.2894 958.00
28.3546 942.00
28.4198 915.00
28.485 878.00
28.5502 915.00
28.6154 902.00
28.6806 913.00
28.7458 1064.00
28.811 1261.00
28.8762 1258.00
28.9414 1127.00
29.0066 1033.00
29.0718 1103.00
29.137 1251.00
29.2022 1658.00
29.2674 1524.00
29.3326 1176.00
29.3978 903.00
29.463 814.00
29.5282 842.00
29.5934 817.00
29.6586 880.00
29.7238 846.00
29.789 860.00
29.8542 818.00
29.9194 790.00
29.9846 800.00
30.0498 759.00
30.115 806.00
30.1802 839.00
30.2454 784.00
30.3106 793.00
30.3758 805.00
30.441 810.00
30.5062 796.00
30.5714 813.00
30.6366 769.00
30.7018 770.00
30.767 773.00
30.8322 762.00
30.8974 741.00
30.9626 718.00
31.0278 683.00
31.093 778.00
31.1582 773.00
31.2234 729.00
31.2886 752.00
31.3538 700.00
31.419 748.00
31.4842 734.00
31.5494 791.00
31.6146 692.00
31.6798 741.00
31.745 712.00
31.8102 697.00
31.8754 778.00
31.9406 740.00
32.0058 703.00
32.071 732.00
32.1362 668.00
32.2014 654.00
32.2666 710.00
32.3318 723.00
32.397 646.00
32.4622 705.00
32.5274 626.00
32.5926 720.00
32.6578 749.00
32.723 697.00
32.7882 736.00
32.8534 723.00
32.9186 703.00
32.9838 684.00
33.0489 650.00
33.1141 700.00
33.1793 684.00
33.2445 654.00
33.3097 710.00
33.3749 741.00
33.4401 757.00
33.5053 814.00
33.5705 828.00
33.6357 870.00
33.7009 927.00
33.7661 868.00
33.8313 745.00
33.8965 698.00
33.9617 635.00
34.0269 606.00
34.0921 682.00
34.1573 593.00
34.2225 591.00
34.2877 624.00
34.3529 617.00
34.4181 594.00
34.4833 632.00
34.5485 599.00
34.6137 588.00
34.6789 560.00
34.7441 535.00
34.8093 525.00
34.8745 617.00
34.9397 587.00
35.0049 541.00
35.0701 533.00
35.1353 561.00
35.2005 573.00
35.2657 614.00
35.3309 643.00
35.3961 580.00
35.4613 622.00
35.5265 582.00
35.5917 554.00
35.6569 572.00
35.7221 597.00
35.7873 552.00
35.8525 529.00
35.9177 575.00
35.9829 547.00
36.0481 506.00
36.1133 510.00
36.1785 531.00
36.2437 501.00
36.3089 511.00
36.3741 499.00
36.4393 589.00
36.5045 534.00
36.5697 525.00
36.6349 509.00
36.7001 555.00
36.7653 510.00
36.8305 527.00
36.8957 514.00
36.9609 528.00
37.0261 524.00
37.0913 529.00
37.1565 537.00
37.2217 537.00
37.2869 538.00
37.3521 526.00
37.4173 502.00
37.4825 488.00
37.5477 562.00
37.6129 527.00
37.6781 527.00
37.7433 542.00
37.8085 577.00
37.8736 551.00
37.9388 540.00
38.004 525.00
38.0692 576.00
38.1344 687.00
38.1996 826.00
38.2648 718.00
38.33 630.00
38.3952 521.00
38.4604 530.00
38.5256 488.00
38.5908 481.00
38.656 515.00
38.7212 467.00
38.7864 486.00
38.8516 543.00
38.9168 477.00
38.982 470.00
39.0472 498.00
39.1124 436.00
39.1776 509.00
39.2428 447.00
39.308 460.00
39.3732 488.00
39.4384 503.00
39.5036 504.00
39.5688 472.00
39.634 551.00
39.6992 702.00
39.7644 704.00
39.8296 677.00
39.8948 606.00
39.96 563.00
40.0252 501.00
40.0904 497.00
40.1556 460.00
40.2208 462.00
40.286 470.00
40.3512 428.00
40.4164 480.00
40.4816 438.00
40.5468 430.00
40.612 450.00
40.6772 421.00
40.7424 429.00
40.8076 451.00
40.8728 407.00
40.938 436.00
41.0032 456.00
41.0684 453.00
41.1336 446.00
41.1988 443.00
41.264 476.00
41.3292 436.00
41.3944 446.00
41.4596 488.00
41.5248 450.00
41.59 406.00
41.6552 453.00
41.7204 413.00
41.7856 410.00
41.8508 408.00
41.916 411.00
41.9812 426.00
42.0464 398.00
42.1116 459.00
42.1768 441.00
42.242 382.00
42.3072 404.00
42.3724 431.00
42.4376 428.00
42.5028 453.00
42.568 446.00
42.6332 411.00
42.6983 462.00
42.7635 441.00
42.8287 442.00
42.8939 392.00
42.9591 441.00
43.0243 468.00
43.0895 407.00
43.1547 422.00
43.2199 410.00
43.2851 437.00
43.3503 444.00
43.4155 455.00
43.4807 456.00
43.5459 428.00
43.6111 452.00
43.6763 472.00
43.7415 444.00
43.8067 495.00
43.8719 609.00
43.9371 754.00
44.0023 641.00
44.0675 552.00
44.1327 439.00
44.1979 442.00
44.2631 440.00
44.3283 398.00
44.3935 414.00
44.4587 472.00
44.5239 481.00
44.5891 586.00
44.6543 787.00
44.7195 779.00
44.7847 711.00
44.8499 590.00
44.9151 482.00
44.9803 437.00
45.0455 410.00
45.1107 400.00
45.1759 454.00
45.2411 411.00
45.3063 425.00
45.3715 412.00
45.4367 411.00
45.5019 401.00
45.5671 386.00
45.6323 407.00
45.6975 429.00
45.7627 412.00
45.8279 378.00
45.8931 376.00
45.9583 389.00
46.0235 413.00
46.0887 420.00
46.1539 373.00
46.2191 382.00
46.2843 409.00
46.3495 420.00
46.4147 398.00
46.4799 419.00
46.5451 385.00
46.6103 378.00
46.6755 394.00
46.7407 410.00
46.8059 382.00
46.8711 347.00
46.9363 412.00
47.0015 371.00
47.0667 361.00
47.1319 371.00
47.1971 376.00
47.2623 390.00
47.3275 397.00
47.3927 406.00
47.4579 386.00
47.523 429.00
47.5882 392.00
47.6534 434.00
47.7186 428.00
47.7838 426.00
47.849 601.00
47.9142 888.00
47.9794 1054.00
48.0446 805.00
48.1098 781.00
48.175 599.00
48.2402 515.00
48.3054 534.00
48.3706 470.00
48.4358 582.00
48.501 969.00
48.5662 1003.00
48.6314 783.00
48.6966 672.00
48.7618 442.00
48.827 420.00
48.8922 419.00
48.9574 381.00
49.0226 391.00
49.0878 375.00
49.153 386.00
49.2182 385.00
49.2834 371.00
49.3486 385.00
49.4138 393.00
49.479 390.00
49.5442 350.00
49.6094 367.00
49.6746 366.00
49.7398 385.00
49.805 366.00
49.8702 384.00
49.9354 333.00
50.0006 377.00
50.0658 414.00
50.131 513.00
50.1962 522.00
50.2614 508.00
50.3266 408.00
50.3918 372.00
50.457 391.00
50.5222 364.00
50.5874 372.00
50.6526 366.00
50.7178 385.00
50.783 363.00
50.8482 437.00
50.9134 376.00
50.9786 355.00
51.0438 352.00
51.109 391.00
51.1742 375.00
51.2394 366.00
51.3046 386.00
51.3698 366.00
51.435 433.00
51.5002 429.00
51.5654 510.00
51.6306 476.00
51.6958 468.00
51.761 391.00
51.8262 390.00
51.8914 351.00
51.9566 406.00
52.0218 363.00
52.087 394.00
52.1522 360.00
52.2174 360.00
52.2826 374.00
52.3477 358.00
52.4129 353.00
52.4781 317.00
52.5433 358.00
52.6085 348.00
52.6737 378.00
52.7389 409.00
52.8041 484.00
52.8693 480.00
52.9345 392.00
52.9997 447.00
53.0649 377.00
53.1301 320.00
53.1953 349.00
53.2605 341.00
53.3257 338.00
53.3909 346.00
53.4561 346.00
53.5213 340.00
53.5865 339.00
53.6517 336.00
53.7169 302.00
53.7821 348.00
53.8473 352.00
53.9125 358.00
53.9777 322.00
54.0429 329.00
54.1081 353.00
54.1733 338.00
54.2385 356.00
54.3037 354.00
54.3689 345.00
54.4341 318.00
54.4993 349.00
54.5645 355.00
54.6297 359.00
54.6949 335.00
54.7601 359.00
54.8253 369.00
54.8905 411.00
54.9557 404.00
55.0209 377.00
55.0861 383.00
55.1513 315.00
55.2165 310.00
55.2817 325.00
55.3469 349.00
55.4121 359.00
55.4773 311.00
55.5425 311.00
55.6077 324.00
55.6729 341.00
55.7381 334.00
55.8033 329.00
55.8685 336.00
55.9337 341.00
55.9989 316.00
56.0641 332.00
56.1293 316.00
56.1945 331.00
56.2597 387.00
56.3249 459.00
56.3901 587.00
56.4553 480.00
56.5205 458.00
56.5857 414.00
56.6509 367.00
56.7161 352.00
56.7813 322.00
56.8465 328.00
56.9117 316.00
56.9769 359.00
57.042 351.00
57.1073 365.00
57.1724 395.00
57.2376 406.00
57.3028 415.00
57.368 405.00
57.4332 407.00
57.4984 548.00
57.5636 463.00
57.6288 454.00
57.694 469.00
57.7592 366.00
57.8244 355.00
57.8896 324.00
57.9548 328.00
58.02 304.00
58.0852 308.00
58.1504 349.00
58.2156 263.00
58.2808 296.00
58.346 296.00
58.4112 301.00
58.4764 283.00
58.5416 291.00
58.6068 333.00
58.672 334.00
58.7372 288.00
58.8024 282.00
58.8676 341.00
58.9328 340.00
58.998 316.00
59.0632 295.00
59.1284 276.00
59.1936 297.00
59.2588 266.00
59.324 264.00
59.3892 264.00
59.4544 268.00
59.5196 279.00
59.5848 290.00
59.65 300.00
59.7152 308.00
59.7804 272.00
59.8456 301.00
59.9108 306.00
59.976 337.00
60.0412 311.00
60.1064 309.00
60.1716 274.00
60.2368 324.00
60.302 270.00
60.3672 277.00
60.4324 338.00
60.4976 298.00
60.5628 309.00
60.628 311.00
60.6932 282.00
60.7584 299.00
60.8236 294.00
60.8888 293.00
60.954 316.00
61.0192 317.00
61.0844 325.00
61.1496 297.00
61.2148 319.00
61.28 317.00
61.3452 348.00
61.4104 367.00
61.4756 355.00
61.5408 354.00
61.606 331.00
61.6712 338.00
61.7364 330.00
61.8016 319.00
61.8667 312.00
61.932 300.00
61.9971 312.00
62.0623 306.00
62.1275 288.00
62.1927 285.00
62.2579 266.00
62.3231 290.00
62.3883 276.00
62.4535 311.00
62.5187 275.00
62.5839 296.00
62.6491 304.00
62.7143 300.00
62.7795 302.00
62.8447 270.00
62.9099 257.00
62.9751 274.00
63.0403 256.00
63.1055 247.00
63.1707 256.00
63.2359 284.00
63.3011 271.00
63.3663 297.00
63.4315 260.00
63.4967 279.00
63.5619 287.00
63.6271 268.00
63.6923 272.00
63.7575 282.00
63.8227 293.00
63.8879 327.00
63.9531 323.00
64.0183 369.00
64.0835 372.00
64.1487 367.00
64.2139 346.00
64.2791 348.00
64.3443 334.00
64.4095 374.00
64.4747 479.00
64.5399 670.00
64.6051 529.00
64.6703 463.00
64.7355 548.00
64.8007 369.00
64.8659 322.00
64.9311 284.00
64.9963 331.00
65.0615 345.00
65.1267 464.00
65.1919 352.00
65.2571 386.00
65.3223 360.00
65.3875 328.00
65.4527 314.00
65.5179 273.00
65.5831 270.00
65.6483 293.00
65.7135 247.00
65.7787 327.00
65.8439 320.00
65.9091 317.00
65.9743 261.00
66.0395 319.00
66.1047 295.00
66.1699 279.00
66.2351 240.00
66.3003 266.00
66.3655 278.00
66.4307 232.00
66.4959 266.00
66.561 232.00
66.6263 267.00
66.6915 250.00
66.7566 280.00
66.8218 268.00
66.887 231.00
66.9522 257.00
67.0174 245.00
67.0826 234.00
67.1478 263.00
67.213 279.00
67.2782 277.00
67.3434 271.00
67.4086 269.00
67.4738 227.00
67.539 281.00
67.6042 286.00
67.6694 282.00
67.7346 234.00
67.7998 242.00
67.865 272.00
67.9302 260.00
67.9954 261.00
68.0606 242.00
68.1258 227.00
68.191 229.00
68.2562 269.00
68.3214 278.00
68.3866 249.00
68.4518 250.00
68.517 233.00
68.5822 256.00
68.6474 291.00
68.7126 232.00
68.7778 233.00
68.843 258.00
68.9082 242.00
68.9734 242.00
69.0386 228.00
69.1038 278.00
69.169 266.00
69.2342 246.00
69.2994 245.00
69.3646 237.00
69.4298 262.00
69.495 246.00
69.5602 235.00
69.6254 244.00
69.6906 242.00
69.7558 260.00
69.821 245.00
69.8862 281.00
69.9514 296.00
70.0166 233.00
70.0818 273.00
70.147 354.00
70.2122 346.00
70.2774 261.00
70.3426 317.00
70.4078 299.00
70.473 265.00
70.5382 288.00
70.6034 290.00
70.6686 249.00
70.7338 270.00
70.799 267.00
70.8642 264.00
70.9294 236.00
70.9946 232.00
71.0598 242.00
71.125 274.00
71.1902 303.00
71.2554 272.00
71.3205 247.00
71.3858 248.00
71.451 248.00
71.5162 269.00
71.5813 249.00
71.6465 236.00
71.7117 233.00
71.7769 257.00
71.8421 305.00
71.9073 285.00
71.9725 249.00
72.0377 227.00
72.1029 270.00
72.1681 235.00
72.2333 247.00
72.2985 224.00
72.3637 233.00
72.4289 258.00
72.4941 218.00
72.5593 242.00
72.6245 259.00
72.6897 239.00
72.7549 271.00
72.8201 237.00
72.8853 238.00
72.9505 225.00
73.0157 240.00
73.0809 242.00
73.1461 258.00
73.2113 267.00
73.2765 239.00
73.3417 240.00
73.4069 262.00
73.4721 256.00
73.5373 216.00
73.6025 262.00
73.6677 218.00
73.7329 239.00
73.7981 258.00
73.8633 232.00
73.9285 257.00
73.9937 243.00
74.0589 284.00
74.1241 249.00
74.1893 240.00
74.2545 250.00
74.3197 236.00
74.3849 242.00
74.4501 208.00
74.5153 238.00
74.5805 248.00
74.6457 215.00
74.7109 234.00
74.7761 269.00
74.8413 258.00
74.9065 267.00
74.9717 273.00
75.0369 246.00
75.1021 272.00
75.1673 278.00
75.2325 312.00
75.2977 313.00
75.3629 335.00
75.4281 325.00
75.4933 287.00
75.5585 330.00
75.6237 348.00
75.6889 311.00
75.7541 279.00
75.8193 283.00
75.8845 266.00
75.9497 278.00
76.0149 266.00
76.0801 239.00
76.1452 261.00
76.2104 278.00
76.2756 265.00
76.3409 262.00
76.406 248.00
76.4712 277.00
76.5364 298.00
76.6016 259.00
76.6668 250.00
76.732 238.00
76.7972 286.00
76.8624 286.00
76.9276 306.00
76.9928 307.00
77.058 297.00
77.1232 317.00
77.1884 291.00
77.2536 277.00
77.3188 302.00
77.384 272.00
77.4492 295.00
77.5144 259.00
77.5796 279.00
77.6448 273.00
77.71 271.00
77.7752 311.00
77.8404 267.00
77.9056 286.00
77.9708 300.00
78.036 302.00
78.1012 375.00
78.1664 389.00
78.2316 370.00
78.2968 353.00
78.362 309.00
78.4272 349.00
78.4924 370.00
78.5576 372.00
78.6228 454.00
78.688 390.00
78.7532 324.00
78.8184 315.00
78.8836 341.00
78.9488 330.00
79.014 272.00
79.0792 275.00
79.1444 273.00
79.2096 293.00
79.2748 321.00
79.34 297.00
79.4052 291.00
79.4704 257.00
79.5356 287.00
79.6008 280.00
79.666 266.00
79.7312 262.00
79.7964 295.00
79.8616 293.00
79.9268 273.00
79.992 294.00
80.0572 261.00
80.1224 291.00
80.1876 277.00
80.2528 265.00
80.318 284.00
80.3832 269.00
80.4484 267.00
80.5136 265.00
80.5788 297.00
80.644 268.00
80.7092 271.00
80.7744 277.00
80.8396 277.00
80.9048 296.00
80.9699 284.00
81.0351 274.00
81.1003 302.00
81.1655 275.00
81.2307 292.00
81.2959 268.00
81.3611 269.00
81.4263 284.00
81.4915 268.00
81.5567 287.00
81.6219 277.00
81.6871 233.00
81.7523 282.00
81.8175 283.00
81.8827 271.00
81.9479 273.00
82.0131 284.00
82.0783 312.00
82.1435 359.00
82.2087 386.00
82.2739 327.00
82.3391 293.00
82.4043 277.00
82.4695 274.00
82.5347 262.00
82.5999 279.00
82.6651 271.00
82.7303 279.00
82.7955 279.00
82.8607 291.00
82.9259 296.00
82.9911 280.00
83.0563 272.00
83.1215 248.00
83.1867 262.00
83.2519 248.00
83.3171 241.00
83.3823 249.00
83.4475 273.00
83.5127 301.00
83.5779 250.00
83.6431 258.00
83.7083 273.00
83.7735 304.00
83.8387 344.00
83.9039 275.00
83.9691 279.00
84.0343 288.00
84.0995 246.00
84.1647 291.00
84.2299 256.00
84.2951 246.00
84.3603 297.00
84.4255 284.00
84.4907 244.00
84.5559 274.00
84.6211 231.00
84.6863 234.00
84.7515 268.00
84.8167 283.00
84.8819 281.00
84.9471 263.00
85.0123 283.00
85.0775 245.00
85.1427 271.00
85.2079 289.00
85.2731 259.00
85.3383 235.00
85.4035 258.00
85.4687 263.00
85.5339 242.00
85.5991 222.00
85.6643 256.00
85.7295 246.00
85.7946 234.00
85.8598 281.00
85.925 277.00
85.9903 239.00
86.0554 265.00
86.1206 237.00
86.1858 215.00
86.251 244.00
86.3162 265.00
86.3814 271.00
86.4466 274.00
86.5118 249.00
86.577 237.00
86.6422 258.00
86.7074 229.00
86.7726 220.00
86.8378 216.00
86.903 211.00
86.9682 233.00
87.0334 231.00
87.0986 237.00
87.1638 229.00
87.229 205.00
87.2942 233.00
87.3594 233.00
87.4246 270.00
87.4898 241.00
87.555 228.00
87.6202 246.00
87.6854 229.00
87.7506 257.00
87.8158 273.00
87.881 261.00
87.9462 224.00
88.0114 241.00
88.0766 234.00
88.1418 232.00
88.207 232.00
88.2722 246.00
88.3374 226.00
88.4026 216.00
88.4678 188.00
88.533 221.00
88.5982 226.00
88.6634 271.00
88.7286 181.00
88.7938 218.00
88.859 263.00
88.9242 240.00
88.9894 217.00
89.0546 198.00
89.1198 220.00
89.185 264.00
89.2502 226.00
89.3154 213.00
89.3806 203.00
89.4458 241.00
89.511 232.00
89.5762 242.00
89.6414 237.00
89.7066 281.00
89.7718 241.00
89.837 262.00
89.9022 238.00
89.9674 201.00
90.0326 262.00
90.0978 231.00
90.163 240.00
90.2282 233.00
90.2934 248.00
90.3586 231.00
90.4238 250.00
90.489 242.00
90.5542 300.00
90.6193 259.00
90.6845 238.00
90.7497 263.00
90.8149 264.00
90.8801 247.00
90.9453 250.00
91.0105 229.00
91.0757 232.00
91.1409 226.00
91.2061 213.00
91.2713 207.00
91.3365 261.00
91.4017 204.00
91.4669 240.00
91.5321 230.00
91.5973 205.00
91.6625 237.00
91.7277 207.00
91.7929 232.00
91.8581 222.00
91.9233 240.00
91.9885 267.00
92.0537 259.00
92.1189 221.00
92.1841 238.00
92.2493 220.00
92.3145 266.00
92.3797 262.00
92.4449 206.00
92.5101 234.00
92.5753 217.00
92.6405 247.00
92.7057 258.00
92.7709 243.00
92.8361 216.00
92.9013 226.00
92.9665 238.00
93.0317 211.00
93.0969 222.00
93.1621 214.00
93.2273 233.00
93.2925 192.00
93.3577 230.00
93.4229 217.00
93.4881 215.00
93.5533 229.00
93.6185 234.00
93.6837 211.00
93.7489 222.00
93.8141 198.00
93.8793 261.00
93.9445 231.00
94.0097 242.00
94.0749 219.00
94.1401 200.00
94.2053 218.00
94.2705 228.00
94.3357 222.00
94.4009 211.00
94.4661 235.00
94.5313 210.00
94.5965 176.00
94.6617 230.00
94.7269 202.00
94.7921 232.00
94.8573 221.00
94.9225 230.00
94.9877 214.00
95.0529 224.00
95.1181 243.00
95.1833 199.00
95.2485 230.00
95.3137 214.00
95.3789 228.00
95.444 217.00
95.5092 206.00
95.5744 219.00
95.6396 209.00
95.7048 208.00
95.77 227.00
95.8352 234.00
95.9004 232.00
95.9656 230.00
96.0308 231.00
96.096 228.00
96.1612 214.00
96.2264 220.00
96.2916 205.00
96.3568 189.00
96.422 192.00
96.4872 211.00
96.5524 242.00
96.6176 201.00
96.6828 218.00
96.748 202.00
96.8132 214.00
96.8784 238.00
96.9436 241.00
97.0088 246.00
97.074 212.00
97.1392 240.00
97.2044 244.00
97.2696 270.00
97.3348 245.00
97.4 286.00
97.4652 214.00
97.5304 224.00
97.5956 233.00
97.6608 258.00
97.726 281.00
97.7912 212.00
97.8564 215.00
97.9216 233.00
97.9868 222.00
98.052 224.00
98.1172 234.00
98.1824 223.00
98.2476 242.00
98.3128 242.00
98.378 250.00
98.4432 256.00
98.5084 220.00
98.5736 235.00
98.6388 248.00
98.704 210.00
98.7692 238.00
98.8344 213.00
98.8996 242.00
98.9648 225.00
99.03 238.00
99.0952 238.00
99.1604 258.00
99.2256 244.00
99.2908 277.00
99.356 213.00
99.4212 201.00
99.4864 199.00
99.5516 227.00
99.6168 236.00
99.682 228.00
99.7472 214.00
99.8124 228.00
99.8776 185.00
99.9428 224.00
100.008 222.00
100.073 193.00
100.095 224.00