File: data/xrd_creation/results/NSC_191.xy
9.903433 2754.00
9.968632 2679.00
10.0338 2666.00
10.099 2674.00
10.1642 2571.00
10.2294 2523.00
10.2946 2544.00
10.3598 2538.00
10.425 2494.00
10.4902 2505.00
10.5554 2508.00
10.6206 2541.00
10.6858 2511.00
10.751 2514.00
10.8162 2390.00
10.8814 2360.00
10.9466 2408.00
11.0118 2424.00
11.077 2397.00
11.1422 2302.00
11.2074 2407.00
11.2726 2296.00
11.3378 2297.00
11.403 2351.00
11.4682 2321.00
11.5334 2209.00
11.5986 2216.00
11.6638 2335.00
11.729 2334.00
11.7942 2321.00
11.8594 2248.00
11.9246 2353.00
11.9898 2404.00
12.055 2473.00
12.1202 2502.00
12.1854 2743.00
12.2506 3096.00
12.3158 2911.00
12.381 2323.00
12.4462 2065.00
12.5114 2084.00
12.5766 2109.00
12.6418 2097.00
12.707 1955.00
12.7722 1991.00
12.8374 2018.00
12.9026 1983.00
12.9678 2086.00
13.033 1912.00
13.0982 2054.00
13.1634 1967.00
13.2286 1922.00
13.2938 1958.00
13.359 2062.00
13.4242 1993.00
13.4894 1960.00
13.5546 1958.00
13.6198 1995.00
13.685 1974.00
13.7502 2015.00
13.8154 2005.00
13.8805 2126.00
13.9457 2122.00
14.0109 2392.00
14.0761 2639.00
14.1413 2796.00
14.2065 2169.00
14.2717 1906.00
14.3369 1863.00
14.4021 1873.00
14.4673 1885.00
14.5325 1813.00
14.5977 1832.00
14.6629 1830.00
14.7281 1846.00
14.7933 1777.00
14.8585 1789.00
14.9237 1928.00
14.9889 1852.00
15.0541 1846.00
15.1193 1878.00
15.1845 1789.00
15.2497 1778.00
15.3149 1729.00
15.3801 1732.00
15.4453 1858.00
15.5105 1835.00
15.5757 1830.00
15.6409 1779.00
15.7061 1841.00
15.7713 1761.00
15.8365 1752.00
15.9017 1787.00
15.9669 1797.00
16.0321 1711.00
16.0973 1762.00
16.1625 1755.00
16.2277 1707.00
16.2929 1798.00
16.3581 1742.00
16.4233 1739.00
16.4885 1881.00
16.5537 1851.00
16.6189 1934.00
16.6841 1952.00
16.7493 2035.00
16.8145 2181.00
16.8797 2568.00
16.9449 2995.00
17.0101 3030.00
17.0753 2273.00
17.1405 1851.00
17.2057 1845.00
17.2709 1719.00
17.3361 1708.00
17.4013 1665.00
17.4665 1601.00
17.5317 1628.00
17.5969 1706.00
17.6621 1566.00
17.7273 1724.00
17.7925 1664.00
17.8577 1653.00
17.9229 1732.00
17.9881 1690.00
18.0533 1667.00
18.1185 1683.00
18.1837 1685.00
18.2489 1650.00
18.3141 1638.00
18.3793 1683.00
18.4445 1608.00
18.5097 1595.00
18.5749 1608.00
18.6401 1690.00
18.7052 1651.00
18.7704 1614.00
18.8356 1568.00
18.9008 1596.00
18.966 1518.00
19.0312 1619.00
19.0964 1533.00
19.1616 1608.00
19.2268 1694.00
19.292 1739.00
19.3572 1717.00
19.4224 1911.00
19.4876 2091.00
19.5528 2390.00
19.618 3081.00
19.6832 4067.00
19.7484 6151.00
19.8136 8640.00
19.8788 9376.00
19.944 8571.00
20.0092 6003.00
20.0744 2803.00
20.1396 1943.00
20.2048 1791.00
20.27 1786.00
20.3352 1662.00
20.4004 1642.00
20.4656 1621.00
20.5308 1537.00
20.596 1657.00
20.6612 1751.00
20.7264 1779.00
20.7916 1686.00
20.8568 1574.00
20.922 1730.00
20.9872 1732.00
21.0524 2055.00
21.1176 2062.00
21.1828 2107.00
21.248 2548.00
21.3132 2910.00
21.3784 2295.00
21.4436 1726.00
21.5088 1668.00
21.574 1541.00
21.6392 1559.00
21.7044 1557.00
21.7696 1443.00
21.8348 1445.00
21.9 1492.00
21.9652 1396.00
22.0304 1446.00
22.0956 1481.00
22.1608 1375.00
22.226 1484.00
22.2912 1363.00
22.3564 1431.00
22.4216 1460.00
22.4868 1393.00
22.552 1513.00
22.6172 1481.00
22.6824 1525.00
22.7476 1450.00
22.8128 1565.00
22.878 1471.00
22.9432 1554.00
23.0084 1607.00
23.0736 1746.00
23.1388 2083.00
23.204 2644.00
23.2692 3380.00
23.3344 3154.00
23.3996 2092.00
23.4647 1582.00
23.5299 1468.00
23.5951 1452.00
23.6603 1440.00
23.7255 1348.00
23.7907 1434.00
23.8559 1396.00
23.9211 1344.00
23.9863 1382.00
24.0515 1439.00
24.1167 1435.00
24.1819 1607.00
24.2471 1812.00
24.3123 2182.00
24.3775 2034.00
24.4427 1850.00
24.5079 1572.00
24.5731 1487.00
24.6383 1409.00
24.7035 1447.00
24.7687 1318.00
24.8339 1356.00
24.8991 1262.00
24.9643 1374.00
25.0295 1333.00
25.0947 1278.00
25.1599 1328.00
25.2251 1352.00
25.2903 1271.00
25.3555 1312.00
25.4207 1352.00
25.4859 1283.00
25.5511 1286.00
25.6163 1298.00
25.6815 1263.00
25.7467 1275.00
25.8119 1275.00
25.8771 1269.00
25.9423 1290.00
26.0075 1245.00
26.0727 1300.00
26.1379 1397.00
26.2031 1281.00
26.2683 1332.00
26.3335 1247.00
26.3987 1286.00
26.4639 1406.00
26.5291 1399.00
26.5943 1511.00
26.6595 1716.00
26.7247 2087.00
26.7899 2879.00
26.8551 3787.00
26.9203 3900.00
26.9855 2782.00
27.0507 2046.00
27.1159 1746.00
27.1811 1617.00
27.2463 1641.00
27.3115 1767.00
27.3767 2095.00
27.4419 2730.00
27.5071 3830.00
27.5723 4440.00
27.6375 3222.00
27.7027 2063.00
27.7679 1637.00
27.8331 1623.00
27.8983 1787.00
27.9635 2242.00
28.0287 3365.00
28.0939 4542.00
28.1591 4456.00
28.2243 3070.00
28.2894 1989.00
28.3546 1641.00
28.4198 1707.00
28.485 1795.00
28.5502 1656.00
28.6154 1451.00
28.6806 1303.00
28.7458 1281.00
28.811 1331.00
28.8762 1237.00
28.9414 1214.00
29.0066 1196.00
29.0718 1211.00
29.137 1265.00
29.2022 1212.00
29.2674 1227.00
29.3326 1232.00
29.3978 1206.00
29.463 1245.00
29.5282 1313.00
29.5934 1217.00
29.6586 1211.00
29.7238 1264.00
29.789 1306.00
29.8542 1506.00
29.9194 1784.00
29.9846 2032.00
30.0498 1942.00
30.115 1649.00
30.1802 1453.00
30.2454 1291.00
30.3106 1395.00
30.3758 1514.00
30.441 1768.00
30.5062 2314.00
30.5714 2693.00
30.6366 2442.00
30.7018 1934.00
30.767 1473.00
30.8322 1409.00
30.8974 1419.00
30.9626 1380.00
31.0278 1365.00
31.093 1352.00
31.1582 1389.00
31.2234 1505.00
31.2886 1844.00
31.3538 2690.00
31.419 4130.00
31.4842 6846.00
31.5494 9277.00
31.6146 8359.00
31.6798 5271.00
31.745 3041.00
31.8102 1996.00
31.8754 1537.00
31.9406 1405.00
32.0058 1320.00
32.071 1223.00
32.1362 1307.00
32.2014 1228.00
32.2666 1145.00
32.3318 1178.00
32.397 1371.00
32.4622 1283.00
32.5274 1363.00
32.5926 1698.00
32.6578 2338.00
32.723 2634.00
32.7882 2298.00
32.8534 1730.00
32.9186 1370.00
32.9838 1284.00
33.0489 1230.00
33.1141 1184.00
33.1793 1181.00
33.2445 1210.00
33.3097 1147.00
33.3749 1224.00
33.4401 1235.00
33.5053 1246.00
33.5705 1284.00
33.6357 1227.00
33.7009 1449.00
33.7661 1673.00
33.8313 2132.00
33.8965 3309.00
33.9617 4903.00
34.0269 5314.00
34.0921 4344.00
34.1573 3402.00
34.2225 3297.00
34.2877 4186.00
34.3529 6141.00
34.4181 7921.00
34.4833 7619.00
34.5485 5858.00
34.6137 3804.00
34.6789 2548.00
34.7441 2109.00
34.8093 1872.00
34.8745 1925.00
34.9397 2520.00
35.0049 3417.00
35.0701 4405.00
35.1353 4171.00
35.2005 2860.00
35.2657 1840.00
35.3309 1456.00
35.3961 1308.00
35.4613 1348.00
35.5265 1234.00
35.5917 1243.00
35.6569 1220.00
35.7221 1163.00
35.7873 1065.00
35.8525 1074.00
35.9177 1123.00
35.9829 1102.00
36.0481 1153.00
36.1133 1146.00
36.1785 1142.00
36.2437 1096.00
36.3089 1127.00
36.3741 1081.00
36.4393 1154.00
36.5045 1163.00
36.5697 1263.00
36.6349 1318.00
36.7001 1238.00
36.7653 1203.00
36.8305 1105.00
36.8957 1052.00
36.9609 1050.00
37.0261 1004.00
37.0913 1029.00
37.1565 1044.00
37.2217 982.00
37.2869 1005.00
37.3521 1023.00
37.4173 958.00
37.4825 1044.00
37.5477 1021.00
37.6129 1007.00
37.6781 1009.00
37.7433 1036.00
37.8085 1044.00
37.8736 970.00
37.9388 980.00
38.004 984.00
38.0692 1024.00
38.1344 1083.00
38.1996 1161.00
38.2648 1128.00
38.33 1211.00
38.3952 1084.00
38.4604 1071.00
38.5256 1034.00
38.5908 997.00
38.656 982.00
38.7212 971.00
38.7864 920.00
38.8516 956.00
38.9168 1004.00
38.982 979.00
39.0472 958.00
39.1124 963.00
39.1776 978.00
39.2428 973.00
39.308 1047.00
39.3732 944.00
39.4384 1027.00
39.5036 1035.00
39.5688 1087.00
39.634 1004.00
39.6992 1159.00
39.7644 1373.00
39.8296 1473.00
39.8948 1620.00
39.96 1533.00
40.0252 1459.00
40.0904 1412.00
40.1556 1427.00
40.2208 1404.00
40.286 1279.00
40.3512 1076.00
40.4164 993.00
40.4816 977.00
40.5468 1005.00
40.612 995.00
40.6772 981.00
40.7424 1050.00
40.8076 1139.00
40.8728 1083.00
40.938 1008.00
41.0032 974.00
41.0684 901.00
41.1336 949.00
41.1988 926.00
41.264 899.00
41.3292 932.00
41.3944 943.00
41.4596 1015.00
41.5248 972.00
41.59 974.00
41.6552 1092.00
41.7204 1307.00
41.7856 1581.00
41.8508 1515.00
41.916 1540.00
41.9812 1291.00
42.0464 1133.00
42.1116 1055.00
42.1768 1050.00
42.242 971.00
42.3072 917.00
42.3724 963.00
42.4376 1139.00
42.5028 1128.00
42.568 1077.00
42.6332 1073.00
42.6983 1052.00
42.7635 1175.00
42.8287 1194.00
42.8939 1246.00
42.9591 1328.00
43.0243 1445.00
43.0895 1256.00
43.1547 1193.00
43.2199 1019.00
43.2851 960.00
43.3503 920.00
43.4155 902.00
43.4807 948.00
43.5459 921.00
43.6111 1049.00
43.6763 1219.00
43.7415 1244.00
43.8067 1186.00
43.8719 1051.00
43.9371 966.00
44.0023 911.00
44.0675 821.00
44.1327 872.00
44.1979 810.00
44.2631 913.00
44.3283 926.00
44.3935 904.00
44.4587 910.00
44.5239 939.00
44.5891 935.00
44.6543 1091.00
44.7195 1391.00
44.7847 1795.00
44.8499 2292.00
44.9151 2539.00
44.9803 2637.00
45.0455 2647.00
45.1107 2273.00
45.1759 1927.00
45.2411 1454.00
45.3063 1131.00
45.3715 972.00
45.4367 919.00
45.5019 948.00
45.5671 924.00
45.6323 901.00
45.6975 835.00
45.7627 942.00
45.8279 925.00
45.8931 989.00
45.9583 1021.00
46.0235 1152.00
46.0887 1158.00
46.1539 1014.00
46.2191 958.00
46.2843 892.00
46.3495 858.00
46.4147 930.00
46.4799 979.00
46.5451 1082.00
46.6103 1161.00
46.6755 1148.00
46.7407 1173.00
46.8059 1118.00
46.8711 1137.00
46.9363 1176.00
47.0015 1347.00
47.0667 1755.00
47.1319 2602.00
47.1971 3363.00
47.2623 3473.00
47.3275 3253.00
47.3927 2730.00
47.4579 2151.00
47.523 1731.00
47.5882 1517.00
47.6534 1223.00
47.7186 1008.00
47.7838 956.00
47.849 867.00
47.9142 876.00
47.9794 884.00
48.0446 885.00
48.1098 842.00
48.175 820.00
48.2402 859.00
48.3054 836.00
48.3706 830.00
48.4358 871.00
48.501 824.00
48.5662 866.00
48.6314 827.00
48.6966 820.00
48.7618 832.00
48.827 797.00
48.8922 835.00
48.9574 866.00
49.0226 800.00
49.0878 861.00
49.153 959.00
49.2182 1085.00
49.2834 1278.00
49.3486 1729.00
49.4138 2438.00
49.479 3117.00
49.5442 2974.00
49.6094 2508.00
49.6746 2027.00
49.7398 1580.00
49.805 1319.00
49.8702 1251.00
49.9354 1185.00
50.0006 1044.00
50.0658 971.00
50.131 999.00
50.1962 853.00
50.2614 932.00
50.3266 970.00
50.3918 943.00
50.457 979.00
50.5222 903.00
50.5874 1035.00
50.6526 954.00
50.7178 1006.00
50.783 1050.00
50.8482 1018.00
50.9134 1146.00
50.9786 1211.00
51.0438 1270.00
51.109 1293.00
51.1742 1201.00
51.2394 1160.00
51.3046 1152.00
51.3698 1252.00
51.435 1399.00
51.5002 1582.00
51.5654 1720.00
51.6306 1721.00
51.6958 1999.00
51.761 2229.00
51.8262 2424.00
51.8914 2240.00
51.9566 2214.00
52.0218 1968.00
52.087 1715.00
52.1522 1495.00
52.2174 1284.00
52.2826 1100.00
52.3477 995.00
52.4129 966.00
52.4781 906.00
52.5433 851.00
52.6085 844.00
52.6737 803.00
52.7389 803.00
52.8041 865.00
52.8693 836.00
52.9345 902.00
52.9997 880.00
53.0649 882.00
53.1301 943.00
53.1953 1034.00
53.2605 1174.00
53.3257 1336.00
53.3909 1632.00
53.4561 2101.00
53.5213 2516.00
53.5865 2718.00
53.6517 2600.00
53.7169 2346.00
53.7821 2028.00
53.8473 1747.00
53.9125 1458.00
53.9777 1262.00
54.0429 1131.00
54.1081 1005.00
54.1733 960.00
54.2385 920.00
54.3037 941.00
54.3689 857.00
54.4341 830.00
54.4993 844.00
54.5645 813.00
54.6297 916.00
54.6949 894.00
54.7601 964.00
54.8253 1031.00
54.8905 1060.00
54.9557 1135.00
55.0209 1242.00
55.0861 1344.00
55.1513 1300.00
55.2165 1206.00
55.2817 1077.00
55.3469 1100.00
55.4121 1072.00
55.4773 1098.00
55.5425 1032.00
55.6077 980.00
55.6729 951.00
55.7381 905.00
55.8033 884.00
55.8685 972.00
55.9337 994.00
55.9989 1087.00
56.0641 989.00
56.1293 941.00
56.1945 972.00
56.2597 900.00
56.3249 848.00
56.3901 807.00
56.4553 879.00
56.5205 807.00
56.5857 830.00
56.6509 791.00
56.7161 809.00
56.7813 825.00
56.8465 858.00
56.9117 822.00
56.9769 906.00
57.042 991.00
57.1073 979.00
57.1724 945.00
57.2376 918.00
57.3028 917.00
57.368 866.00
57.4332 878.00
57.4984 897.00
57.5636 950.00
57.6288 949.00
57.694 1046.00
57.7592 1222.00
57.8244 1150.00
57.8896 1085.00
57.9548 1070.00
58.02 1019.00
58.0852 995.00
58.1504 957.00
58.2156 990.00
58.2808 983.00
58.346 937.00
58.4112 907.00
58.4764 863.00
58.5416 837.00
58.6068 823.00
58.672 795.00
58.7372 866.00
58.8024 839.00
58.8676 866.00
58.9328 837.00
58.998 908.00
59.0632 868.00
59.1284 889.00
59.1936 982.00
59.2588 985.00
59.324 1173.00
59.3892 1393.00
59.4544 1695.00
59.5196 2179.00
59.5848 2479.00
59.65 2598.00
59.7152 2734.00
59.7804 2729.00
59.8456 2440.00
59.9108 2122.00
59.976 1832.00
60.0412 1625.00
60.1064 1399.00
60.1716 1355.00
60.2368 1145.00
60.302 1062.00
60.3672 988.00
60.4324 916.00
60.4976 906.00
60.5628 970.00
60.628 895.00
60.6932 848.00
60.7584 833.00
60.8236 856.00
60.8888 856.00
60.954 844.00
61.0192 858.00
61.0844 951.00
61.1496 1035.00
61.2148 1174.00
61.28 1402.00
61.3452 1508.00
61.4104 1644.00
61.4756 1550.00
61.5408 1562.00
61.606 1551.00
61.6712 1527.00
61.7364 1540.00
61.8016 1606.00
61.8667 1744.00
61.932 1838.00
61.9971 1733.00
62.0623 1590.00
62.1275 1352.00
62.1927 1186.00
62.2579 1052.00
62.3231 1040.00
62.3883 1016.00
62.4535 938.00
62.5187 1012.00
62.5839 1017.00
62.6491 1067.00
62.7143 1113.00
62.7795 1049.00
62.8447 1030.00
62.9099 1032.00
62.9751 972.00
63.0403 1017.00
63.1055 1071.00
63.1707 1053.00
63.2359 1059.00
63.3011 1040.00
63.3663 1126.00
63.4315 1163.00
63.4967 1156.00
63.5619 1285.00
63.6271 1227.00
63.6923 1161.00
63.7575 1195.00
63.8227 1267.00
63.8879 1257.00
63.9531 1361.00
64.0183 1296.00
64.0835 1203.00
64.1487 1140.00
64.2139 1042.00
64.2791 960.00
64.3443 949.00
64.4095 953.00
64.4747 895.00
64.5399 917.00
64.6051 795.00
64.6703 820.00
64.7355 826.00
64.8007 823.00
64.8659 880.00
64.9311 924.00
64.9963 1002.00
65.0615 1043.00
65.1267 1097.00
65.1919 1083.00
65.2571 999.00
65.3223 968.00
65.3875 961.00
65.4527 926.00
65.5179 818.00
65.5831 931.00
65.6483 885.00
65.7135 853.00
65.7787 803.00
65.8439 853.00
65.9091 892.00
65.9743 885.00
66.0395 877.00
66.1047 833.00
66.1699 899.00
66.2351 954.00
66.3003 1041.00
66.3655 1031.00
66.4307 1073.00
66.4959 1009.00
66.561 1012.00
66.6263 955.00
66.6915 984.00
66.7566 909.00
66.8218 967.00
66.887 998.00
66.9522 1032.00
67.0174 1125.00
67.0826 1225.00
67.1478 1275.00
67.213 1297.00
67.2782 1332.00
67.3434 1332.00
67.4086 1237.00
67.4738 1321.00
67.539 1258.00
67.6042 1292.00
67.6694 1218.00
67.7346 1063.00
67.7998 1070.00
67.865 879.00
67.9302 815.00
67.9954 835.00
68.0606 815.00
68.1258 753.00
68.191 800.00
68.2562 879.00
68.3214 889.00
68.3866 836.00
68.4518 962.00
68.517 977.00
68.5822 1065.00
68.6474 1085.00
68.7126 1151.00
68.7778 1097.00
68.843 1047.00
68.9082 967.00
68.9734 930.00
69.0386 877.00
69.1038 848.00
69.169 903.00
69.2342 989.00
69.2994 1006.00
69.3646 974.00
69.4298 898.00
69.495 955.00
69.5602 868.00
69.6254 779.00
69.6906 760.00
69.7558 715.00
69.821 727.00
69.8862 782.00
69.9514 836.00
70.0166 820.00
70.0818 864.00
70.147 837.00
70.2122 848.00
70.2774 846.00
70.3426 833.00
70.4078 739.00
70.473 758.00
70.5382 740.00
70.6034 736.00
70.6686 764.00
70.7338 779.00
70.799 838.00
70.8642 744.00
70.9294 802.00
70.9946 910.00
71.0598 918.00
71.125 967.00
71.1902 937.00
71.2554 888.00
71.3205 889.00
71.3858 818.00
71.451 831.00
71.5162 795.00
71.5813 827.00
71.6465 783.00
71.7117 814.00
71.7769 781.00
71.8421 817.00
71.9073 922.00
71.9725 991.00
72.0377 1089.00
72.1029 1143.00
72.1681 1149.00
72.2333 1177.00
72.2985 1151.00
72.3637 1028.00
72.4289 979.00
72.4941 938.00
72.5593 868.00
72.6245 812.00
72.6897 806.00
72.7549 721.00
72.8201 737.00
72.8853 735.00
72.9505 718.00
73.0157 799.00
73.0809 706.00
73.1461 740.00
73.2113 693.00
73.2765 731.00
73.3417 794.00
73.4069 829.00
73.4721 864.00
73.5373 957.00
73.6025 971.00
73.6677 1037.00
73.7329 1017.00
73.7981 1031.00
73.8633 1025.00
73.9285 1032.00
73.9937 958.00
74.0589 917.00
74.1241 902.00
74.1893 957.00
74.2545 909.00
74.3197 990.00
74.3849 976.00
74.4501 1035.00
74.5153 994.00
74.5805 972.00
74.6457 962.00
74.7109 877.00
74.7761 748.00
74.8413 806.00
74.9065 756.00
74.9717 740.00
75.0369 695.00
75.1021 795.00
75.1673 691.00
75.2325 711.00
75.2977 782.00
75.3629 814.00
75.4281 841.00
75.4933 832.00
75.5585 867.00
75.6237 915.00
75.6889 908.00
75.7541 883.00
75.8193 836.00
75.8845 763.00
75.9497 804.00
76.0149 762.00
76.0801 733.00
76.1452 693.00
76.2104 733.00
76.2756 734.00
76.3409 751.00
76.406 727.00
76.4712 721.00
76.5364 678.00
76.6016 659.00
76.6668 666.00
76.732 662.00
76.7972 676.00
76.8624 665.00
76.9276 660.00
76.9928 622.00
77.058 691.00
77.1232 746.00
77.1884 732.00
77.2536 691.00
77.3188 767.00
77.384 824.00
77.4492 839.00
77.5144 866.00
77.5796 936.00
77.6448 866.00
77.71 885.00
77.7752 822.00
77.8404 823.00
77.9056 791.00
77.9708 809.00
78.036 795.00
78.1012 726.00
78.1664 799.00
78.2316 751.00
78.2968 777.00
78.362 705.00
78.4272 703.00
78.4924 698.00
78.5576 689.00
78.6228 677.00
78.688 713.00
78.7532 700.00
78.8184 701.00
78.8836 712.00
78.9488 748.00
79.014 739.00
79.0792 777.00
79.1444 772.00
79.2096 735.00
79.2748 778.00
79.34 758.00
79.4052 714.00
79.4704 724.00
79.5356 724.00
79.6008 694.00
79.666 681.00
79.7312 676.00
79.7964 644.00
79.8616 697.00
79.9268 674.00
79.992 646.00
80.0572 718.00
80.1224 695.00
80.1876 709.00
80.2528 755.00
80.318 803.00
80.3832 735.00
80.4484 855.00
80.5136 838.00
80.5788 969.00
80.644 1007.00
80.7092 999.00
80.7744 1083.00
80.8396 1053.00
80.9048 1106.00
80.9699 1048.00
81.0351 1083.00
81.1003 1038.00
81.1655 976.00
81.2307 938.00
81.2959 946.00
81.3611 908.00
81.4263 902.00
81.4915 942.00
81.5567 887.00
81.6219 926.00
81.6871 852.00
81.7523 853.00
81.8175 838.00
81.8827 777.00
81.9479 839.00
82.0131 781.00
82.0783 797.00
82.1435 791.00
82.2087 876.00
82.2739 823.00
82.3391 934.00
82.4043 924.00
82.4695 903.00
82.5347 859.00
82.5999 887.00
82.6651 816.00
82.7303 832.00
82.7955 758.00
82.8607 785.00
82.9259 752.00
82.9911 730.00
83.0563 681.00
83.1215 696.00
83.1867 724.00
83.2519 674.00
83.3171 803.00
83.3823 805.00
83.4475 827.00
83.5127 914.00
83.5779 845.00
83.6431 899.00
83.7083 819.00
83.7735 864.00
83.8387 802.00
83.9039 853.00
83.9691 795.00
84.0343 764.00
84.0995 801.00
84.1647 771.00
84.2299 783.00
84.2951 733.00
84.3603 690.00
84.4255 688.00
84.4907 723.00
84.5559 713.00
84.6211 742.00
84.6863 654.00
84.7515 675.00
84.8167 663.00
84.8819 679.00
84.9471 667.00
85.0123 657.00
85.0775 663.00
85.1427 631.00
85.2079 619.00
85.2731 652.00
85.3383 703.00
85.4035 648.00
85.4687 663.00
85.5339 657.00
85.5991 696.00
85.6643 697.00
85.7295 681.00
85.7946 711.00
85.8598 767.00
85.925 700.00
85.9903 705.00
86.0554 638.00
86.1206 663.00
86.1858 667.00
86.251 682.00
86.3162 657.00
86.3814 679.00
86.4466 701.00
86.5118 657.00
86.577 679.00
86.6422 704.00
86.7074 671.00
86.7726 694.00
86.8378 677.00
86.903 662.00
86.9682 779.00
87.0334 812.00
87.0986 755.00
87.1638 784.00
87.229 832.00
87.2942 881.00
87.3594 929.00
87.4246 1001.00
87.4898 1037.00
87.555 1034.00
87.6202 1005.00
87.6854 939.00
87.7506 893.00
87.8158 938.00
87.881 859.00
87.9462 894.00
88.0114 865.00
88.0766 843.00
88.1418 827.00
88.207 757.00
88.2722 766.00
88.3374 763.00
88.4026 735.00
88.4678 732.00
88.533 748.00
88.5982 711.00
88.6634 799.00
88.7286 779.00
88.7938 808.00
88.859 816.00
88.9242 819.00
88.9894 813.00
89.0546 769.00
89.1198 736.00
89.185 758.00
89.2502 732.00
89.3154 743.00
89.3806 721.00
89.4458 727.00
89.511 748.00
89.5762 749.00
89.6414 691.00
89.7066 753.00
89.7718 741.00
89.837 777.00
89.9022 823.00
89.9674 788.00
90.0326 802.00
90.0978 826.00
90.163 797.00
90.2282 814.00
90.2934 845.00
90.3586 886.00
90.4238 935.00
90.489 877.00
90.5542 894.00
90.6193 869.00
90.6845 868.00
90.7497 853.00
90.8149 851.00
90.8801 841.00
90.9453 833.00
91.0105 860.00
91.0757 848.00
91.1409 821.00
91.2061 817.00
91.2713 807.00
91.3365 795.00
91.4017 716.00
91.4669 765.00
91.5321 770.00
91.5973 679.00
91.6625 689.00
91.7277 694.00
91.7929 699.00
91.8581 663.00
91.9233 689.00
91.9885 761.00
92.0537 690.00
92.1189 737.00
92.1841 723.00
92.2493 726.00
92.3145 705.00
92.3797 728.00
92.4449 729.00
92.5101 692.00
92.5753 746.00
92.6405 690.00
92.7057 744.00
92.7709 688.00
92.8361 749.00
92.9013 685.00
92.9665 666.00
93.0317 620.00
93.0969 680.00
93.1621 689.00
93.2273 676.00
93.2925 708.00
93.3577 784.00
93.4229 729.00
93.4881 787.00
93.5533 708.00
93.6185 795.00
93.6837 819.00
93.7489 812.00
93.8141 797.00
93.8793 821.00
93.9445 877.00
94.0097 814.00
94.0749 876.00
94.1401 832.00
94.2053 901.00
94.2705 863.00
94.3357 879.00
94.4009 817.00
94.4661 815.00
94.5313 800.00
94.5965 735.00
94.6617 808.00
94.7269 793.00
94.7921 716.00
94.8573 726.00
94.9225 698.00
94.9877 728.00
95.0529 730.00
95.1181 693.00
95.1833 714.00
95.2485 771.00
95.3137 778.00
95.3789 751.00
95.444 787.00
95.5092 842.00
95.5744 815.00
95.6396 868.00
95.7048 841.00
95.77 800.00
95.8352 743.00
95.9004 755.00
95.9656 771.00
96.0308 762.00
96.096 821.00
96.1612 711.00
96.2264 729.00
96.2916 710.00
96.3568 750.00
96.422 736.00
96.4872 729.00
96.5524 721.00
96.6176 719.00
96.6828 722.00
96.748 761.00
96.8132 778.00
96.8784 706.00
96.9436 747.00
97.0088 667.00
97.074 733.00
97.1392 754.00
97.2044 668.00
97.2696 673.00
97.3348 636.00
97.4 628.00
97.4652 659.00
97.5304 624.00
97.5956 647.00
97.6608 637.00
97.726 661.00
97.7912 634.00
97.8564 628.00
97.9216 679.00
97.9868 668.00
98.052 621.00
98.1172 634.00
98.1824 625.00
98.2476 597.00
98.3128 617.00
98.378 646.00
98.4432 616.00
98.5084 622.00
98.5736 656.00
98.6388 641.00
98.704 678.00
98.7692 701.00
98.8344 716.00
98.8996 679.00
98.9648 715.00
99.03 691.00
99.0952 683.00
99.1604 748.00
99.2256 731.00
99.2908 714.00
99.356 671.00
99.4212 751.00
99.4864 697.00
99.5516 759.00
99.6168 656.00
99.682 668.00
99.7472 688.00
99.8124 694.00
99.8776 680.00
99.9428 670.00
100.008 729.00
100.073 738.00
100.095 726.00