File: data/xrd_creation/results/NSC_73.xy
9.903433 2599.00
9.968632 2643.00
10.0338 2582.00
10.099 2546.00
10.1642 2569.00
10.2294 2484.00
10.2946 2469.00
10.3598 2465.00
10.425 2482.00
10.4902 2520.00
10.5554 2420.00
10.6206 2278.00
10.6858 2338.00
10.751 2260.00
10.8162 2285.00
10.8814 2275.00
10.9466 2279.00
11.0118 2208.00
11.077 2096.00
11.1422 2237.00
11.2074 2135.00
11.2726 2157.00
11.3378 2086.00
11.403 2104.00
11.4682 2059.00
11.5334 2059.00
11.5986 2057.00
11.6638 1983.00
11.729 1983.00
11.7942 1959.00
11.8594 1952.00
11.9246 1885.00
11.9898 1894.00
12.055 1923.00
12.1202 1932.00
12.1854 1842.00
12.2506 1989.00
12.3158 1773.00
12.381 1885.00
12.4462 1765.00
12.5114 1810.00
12.5766 1759.00
12.6418 1683.00
12.707 1731.00
12.7722 1773.00
12.8374 1741.00
12.9026 1774.00
12.9678 1819.00
13.033 1858.00
13.0982 1696.00
13.1634 1751.00
13.2286 1721.00
13.2938 1569.00
13.359 1633.00
13.4242 1579.00
13.4894 1582.00
13.5546 1612.00
13.6198 1526.00
13.685 1586.00
13.7502 1562.00
13.8154 1582.00
13.8805 1547.00
13.9457 1536.00
14.0109 1450.00
14.0761 1471.00
14.1413 1482.00
14.2065 1484.00
14.2717 1430.00
14.3369 1523.00
14.4021 1474.00
14.4673 1509.00
14.5325 1421.00
14.5977 1528.00
14.6629 1415.00
14.7281 1406.00
14.7933 1437.00
14.8585 1316.00
14.9237 1433.00
14.9889 1377.00
15.0541 1367.00
15.1193 1390.00
15.1845 1413.00
15.2497 1408.00
15.3149 1417.00
15.3801 1416.00
15.4453 1348.00
15.5105 1345.00
15.5757 1341.00
15.6409 1303.00
15.7061 1330.00
15.7713 1282.00
15.8365 1368.00
15.9017 1353.00
15.9669 1278.00
16.0321 1253.00
16.0973 1235.00
16.1625 1280.00
16.2277 1288.00
16.2929 1258.00
16.3581 1226.00
16.4233 1322.00
16.4885 1236.00
16.5537 1258.00
16.6189 1227.00
16.6841 1256.00
16.7493 1241.00
16.8145 1279.00
16.8797 1241.00
16.9449 1244.00
17.0101 1180.00
17.0753 1245.00
17.1405 1204.00
17.2057 1237.00
17.2709 1202.00
17.3361 1120.00
17.4013 1203.00
17.4665 1227.00
17.5317 1152.00
17.5969 1156.00
17.6621 1123.00
17.7273 1173.00
17.7925 1194.00
17.8577 1097.00
17.9229 1192.00
17.9881 1109.00
18.0533 1143.00
18.1185 1132.00
18.1837 1088.00
18.2489 1156.00
18.3141 1149.00
18.3793 1103.00
18.4445 1081.00
18.5097 1097.00
18.5749 1101.00
18.6401 1070.00
18.7052 1099.00
18.7704 1091.00
18.8356 1086.00
18.9008 1069.00
18.966 1024.00
19.0312 1076.00
19.0964 1014.00
19.1616 1064.00
19.2268 984.00
19.292 1045.00
19.3572 1010.00
19.4224 1066.00
19.4876 1026.00
19.5528 1068.00
19.618 1035.00
19.6832 1051.00
19.7484 1083.00
19.8136 1133.00
19.8788 1149.00
19.944 1170.00
20.0092 1251.00
20.0744 1129.00
20.1396 999.00
20.2048 1025.00
20.27 1000.00
20.3352 988.00
20.4004 999.00
20.4656 979.00
20.5308 941.00
20.596 998.00
20.6612 1192.00
20.7264 1381.00
20.7916 1504.00
20.8568 1642.00
20.922 1710.00
20.9872 1601.00
21.0524 1637.00
21.1176 1680.00
21.1828 1570.00
21.248 1287.00
21.3132 1065.00
21.3784 1004.00
21.4436 892.00
21.5088 903.00
21.574 892.00
21.6392 897.00
21.7044 878.00
21.7696 934.00
21.8348 896.00
21.9 841.00
21.9652 934.00
22.0304 878.00
22.0956 834.00
22.1608 903.00
22.226 901.00
22.2912 920.00
22.3564 867.00
22.4216 837.00
22.4868 858.00
22.552 903.00
22.6172 858.00
22.6824 891.00
22.7476 880.00
22.8128 929.00
22.878 851.00
22.9432 817.00
23.0084 852.00
23.0736 874.00
23.1388 881.00
23.204 892.00
23.2692 857.00
23.3344 862.00
23.3996 870.00
23.4647 847.00
23.5299 860.00
23.5951 861.00
23.6603 827.00
23.7255 828.00
23.7907 817.00
23.8559 844.00
23.9211 872.00
23.9863 820.00
24.0515 785.00
24.1167 781.00
24.1819 798.00
24.2471 795.00
24.3123 751.00
24.3775 766.00
24.4427 728.00
24.5079 782.00
24.5731 783.00
24.6383 726.00
24.7035 749.00
24.7687 765.00
24.8339 727.00
24.8991 756.00
24.9643 740.00
25.0295 800.00
25.0947 800.00
25.1599 875.00
25.2251 842.00
25.2903 754.00
25.3555 743.00
25.4207 758.00
25.4859 748.00
25.5511 746.00
25.6163 789.00
25.6815 725.00
25.7467 713.00
25.8119 734.00
25.8771 740.00
25.9423 746.00
26.0075 715.00
26.0727 757.00
26.1379 706.00
26.2031 710.00
26.2683 761.00
26.3335 743.00
26.3987 740.00
26.4639 693.00
26.5291 692.00
26.5943 667.00
26.6595 757.00
26.7247 750.00
26.7899 689.00
26.8551 678.00
26.9203 716.00
26.9855 633.00
27.0507 671.00
27.1159 673.00
27.1811 681.00
27.2463 625.00
27.3115 710.00
27.3767 644.00
27.4419 643.00
27.5071 671.00
27.5723 631.00
27.6375 635.00
27.7027 668.00
27.7679 649.00
27.8331 656.00
27.8983 665.00
27.9635 658.00
28.0287 646.00
28.0939 672.00
28.1591 659.00
28.2243 670.00
28.2894 721.00
28.3546 646.00
28.4198 645.00
28.485 693.00
28.5502 648.00
28.6154 657.00
28.6806 624.00
28.7458 704.00
28.811 657.00
28.8762 640.00
28.9414 627.00
29.0066 645.00
29.0718 646.00
29.137 614.00
29.2022 655.00
29.2674 695.00
29.3326 666.00
29.3978 628.00
29.463 606.00
29.5282 640.00
29.5934 601.00
29.6586 585.00
29.7238 611.00
29.789 630.00
29.8542 610.00
29.9194 593.00
29.9846 610.00
30.0498 591.00
30.115 580.00
30.1802 575.00
30.2454 633.00
30.3106 597.00
30.3758 603.00
30.441 664.00
30.5062 519.00
30.5714 616.00
30.6366 569.00
30.7018 608.00
30.767 586.00
30.8322 560.00
30.8974 592.00
30.9626 604.00
31.0278 588.00
31.093 580.00
31.1582 572.00
31.2234 594.00
31.2886 532.00
31.3538 573.00
31.419 579.00
31.4842 543.00
31.5494 617.00
31.6146 627.00
31.6798 603.00
31.745 585.00
31.8102 606.00
31.8754 595.00
31.9406 589.00
32.0058 593.00
32.071 574.00
32.1362 589.00
32.2014 584.00
32.2666 615.00
32.3318 671.00
32.397 645.00
32.4622 694.00
32.5274 617.00
32.5926 612.00
32.6578 579.00
32.723 569.00
32.7882 529.00
32.8534 578.00
32.9186 574.00
32.9838 616.00
33.0489 637.00
33.1141 611.00
33.1793 591.00
33.2445 587.00
33.3097 524.00
33.3749 577.00
33.4401 534.00
33.5053 538.00
33.5705 529.00
33.6357 506.00
33.7009 529.00
33.7661 532.00
33.8313 520.00
33.8965 530.00
33.9617 576.00
34.0269 599.00
34.0921 582.00
34.1573 625.00
34.2225 735.00
34.2877 664.00
34.3529 660.00
34.4181 623.00
34.4833 693.00
34.5485 737.00
34.6137 745.00
34.6789 780.00
34.7441 727.00
34.8093 782.00
34.8745 726.00
34.9397 659.00
35.0049 693.00
35.0701 655.00
35.1353 607.00
35.2005 579.00
35.2657 512.00
35.3309 496.00
35.3961 530.00
35.4613 471.00
35.5265 458.00
35.5917 490.00
35.6569 521.00
35.7221 480.00
35.7873 481.00
35.8525 480.00
35.9177 477.00
35.9829 450.00
36.0481 475.00
36.1133 447.00
36.1785 430.00
36.2437 493.00
36.3089 440.00
36.3741 470.00
36.4393 443.00
36.5045 456.00
36.5697 453.00
36.6349 439.00
36.7001 443.00
36.7653 402.00
36.8305 469.00
36.8957 418.00
36.9609 478.00
37.0261 449.00
37.0913 464.00
37.1565 442.00
37.2217 461.00
37.2869 416.00
37.3521 448.00
37.4173 376.00
37.4825 428.00
37.5477 422.00
37.6129 430.00
37.6781 461.00
37.7433 419.00
37.8085 432.00
37.8736 401.00
37.9388 409.00
38.004 407.00
38.0692 394.00
38.1344 436.00
38.1996 414.00
38.2648 413.00
38.33 388.00
38.3952 432.00
38.4604 436.00
38.5256 398.00
38.5908 374.00
38.656 416.00
38.7212 374.00
38.7864 413.00
38.8516 377.00
38.9168 363.00
38.982 384.00
39.0472 385.00
39.1124 374.00
39.1776 380.00
39.2428 396.00
39.308 383.00
39.3732 400.00
39.4384 392.00
39.5036 362.00
39.5688 373.00
39.634 389.00
39.6992 411.00
39.7644 393.00
39.8296 417.00
39.8948 438.00
39.96 475.00
40.0252 448.00
40.0904 462.00
40.1556 425.00
40.2208 400.00
40.286 399.00
40.3512 365.00
40.4164 386.00
40.4816 414.00
40.5468 429.00
40.612 428.00
40.6772 446.00
40.7424 469.00
40.8076 410.00
40.8728 445.00
40.938 421.00
41.0032 400.00
41.0684 358.00
41.1336 362.00
41.1988 347.00
41.264 377.00
41.3292 373.00
41.3944 335.00
41.4596 380.00
41.5248 329.00
41.59 358.00
41.6552 331.00
41.7204 379.00
41.7856 370.00
41.8508 356.00
41.916 341.00
41.9812 359.00
42.0464 347.00
42.1116 384.00
42.1768 337.00
42.242 340.00
42.3072 343.00
42.3724 350.00
42.4376 388.00
42.5028 411.00
42.568 354.00
42.6332 356.00
42.6983 335.00
42.7635 367.00
42.8287 385.00
42.8939 348.00
42.9591 385.00
43.0243 403.00
43.0895 393.00
43.1547 428.00
43.2199 428.00
43.2851 395.00
43.3503 371.00
43.4155 346.00
43.4807 377.00
43.5459 392.00
43.6111 387.00
43.6763 375.00
43.7415 370.00
43.8067 369.00
43.8719 364.00
43.9371 356.00
44.0023 362.00
44.0675 320.00
44.1327 380.00
44.1979 368.00
44.2631 322.00
44.3283 339.00
44.3935 349.00
44.4587 327.00
44.5239 369.00
44.5891 401.00
44.6543 386.00
44.7195 340.00
44.7847 341.00
44.8499 365.00
44.9151 320.00
44.9803 342.00
45.0455 346.00
45.1107 307.00
45.1759 318.00
45.2411 319.00
45.3063 306.00
45.3715 332.00
45.4367 295.00
45.5019 317.00
45.5671 318.00
45.6323 276.00
45.6975 297.00
45.7627 300.00
45.8279 330.00
45.8931 317.00
45.9583 300.00
46.0235 344.00
46.0887 355.00
46.1539 369.00
46.2191 307.00
46.2843 335.00
46.3495 308.00
46.4147 338.00
46.4799 335.00
46.5451 305.00
46.6103 272.00
46.6755 304.00
46.7407 296.00
46.8059 313.00
46.8711 336.00
46.9363 301.00
47.0015 326.00
47.0667 302.00
47.1319 318.00
47.1971 333.00
47.2623 314.00
47.3275 337.00
47.3927 323.00
47.4579 315.00
47.523 321.00
47.5882 300.00
47.6534 280.00
47.7186 285.00
47.7838 310.00
47.849 322.00
47.9142 307.00
47.9794 307.00
48.0446 346.00
48.1098 303.00
48.175 289.00
48.2402 307.00
48.3054 313.00
48.3706 301.00
48.4358 349.00
48.501 321.00
48.5662 317.00
48.6314 308.00
48.6966 358.00
48.7618 322.00
48.827 290.00
48.8922 339.00
48.9574 369.00
49.0226 292.00
49.0878 313.00
49.153 305.00
49.2182 288.00
49.2834 310.00
49.3486 321.00
49.4138 303.00
49.479 331.00
49.5442 302.00
49.6094 276.00
49.6746 320.00
49.7398 286.00
49.805 301.00
49.8702 293.00
49.9354 284.00
50.0006 313.00
50.0658 356.00
50.131 323.00
50.1962 347.00
50.2614 297.00
50.3266 346.00
50.3918 308.00
50.457 316.00
50.5222 303.00
50.5874 318.00
50.6526 292.00
50.7178 288.00
50.783 296.00
50.8482 310.00
50.9134 283.00
50.9786 295.00
51.0438 276.00
51.109 304.00
51.1742 272.00
51.2394 291.00
51.3046 285.00
51.3698 299.00
51.435 305.00
51.5002 287.00
51.5654 294.00
51.6306 315.00
51.6958 277.00
51.761 301.00
51.8262 305.00
51.8914 335.00
51.9566 296.00
52.0218 287.00
52.087 272.00
52.1522 282.00
52.2174 249.00
52.2826 316.00
52.3477 301.00
52.4129 268.00
52.4781 289.00
52.5433 274.00
52.6085 280.00
52.6737 306.00
52.7389 265.00
52.8041 307.00
52.8693 306.00
52.9345 277.00
52.9997 260.00
53.0649 317.00
53.1301 273.00
53.1953 274.00
53.2605 275.00
53.3257 274.00
53.3909 323.00
53.4561 251.00
53.5213 258.00
53.5865 293.00
53.6517 284.00
53.7169 273.00
53.7821 259.00
53.8473 264.00
53.9125 284.00
53.9777 299.00
54.0429 326.00
54.1081 273.00
54.1733 259.00
54.2385 274.00
54.3037 265.00
54.3689 261.00
54.4341 241.00
54.4993 245.00
54.5645 294.00
54.6297 272.00
54.6949 283.00
54.7601 304.00
54.8253 279.00
54.8905 290.00
54.9557 244.00
55.0209 292.00
55.0861 264.00
55.1513 270.00
55.2165 263.00
55.2817 263.00
55.3469 236.00
55.4121 282.00
55.4773 221.00
55.5425 238.00
55.6077 234.00
55.6729 245.00
55.7381 242.00
55.8033 243.00
55.8685 235.00
55.9337 275.00
55.9989 246.00
56.0641 270.00
56.1293 272.00
56.1945 275.00
56.2597 268.00
56.3249 242.00
56.3901 264.00
56.4553 243.00
56.5205 263.00
56.5857 260.00
56.6509 269.00
56.7161 230.00
56.7813 275.00
56.8465 211.00
56.9117 261.00
56.9769 222.00
57.042 237.00
57.1073 246.00
57.1724 233.00
57.2376 246.00
57.3028 281.00
57.368 203.00
57.4332 250.00
57.4984 228.00
57.5636 228.00
57.6288 265.00
57.694 214.00
57.7592 249.00
57.8244 223.00
57.8896 247.00
57.9548 271.00
58.02 230.00
58.0852 239.00
58.1504 232.00
58.2156 268.00
58.2808 257.00
58.346 229.00
58.4112 247.00
58.4764 229.00
58.5416 239.00
58.6068 215.00
58.672 246.00
58.7372 239.00
58.8024 265.00
58.8676 224.00
58.9328 244.00
58.998 240.00
59.0632 211.00
59.1284 237.00
59.1936 222.00
59.2588 225.00
59.324 197.00
59.3892 216.00
59.4544 225.00
59.5196 246.00
59.5848 240.00
59.65 229.00
59.7152 247.00
59.7804 193.00
59.8456 220.00
59.9108 224.00
59.976 219.00
60.0412 257.00
60.1064 244.00
60.1716 216.00
60.2368 235.00
60.302 242.00
60.3672 247.00
60.4324 218.00
60.4976 234.00
60.5628 199.00
60.628 223.00
60.6932 198.00
60.7584 205.00
60.8236 232.00
60.8888 214.00
60.954 203.00
61.0192 245.00
61.0844 233.00
61.1496 188.00
61.2148 211.00
61.28 247.00
61.3452 196.00
61.4104 227.00
61.4756 230.00
61.5408 219.00
61.606 241.00
61.6712 273.00
61.7364 230.00
61.8016 238.00
61.8667 234.00
61.932 238.00
61.9971 237.00
62.0623 239.00
62.1275 246.00
62.1927 270.00
62.2579 237.00
62.3231 262.00
62.3883 278.00
62.4535 273.00
62.5187 234.00
62.5839 244.00
62.6491 214.00
62.7143 240.00
62.7795 241.00
62.8447 203.00
62.9099 227.00
62.9751 274.00
63.0403 229.00
63.1055 224.00
63.1707 262.00
63.2359 221.00
63.3011 221.00
63.3663 201.00
63.4315 230.00
63.4967 238.00
63.5619 265.00
63.6271 233.00
63.6923 238.00
63.7575 222.00
63.8227 229.00
63.8879 192.00
63.9531 222.00
64.0183 218.00
64.0835 206.00
64.1487 231.00
64.2139 223.00
64.2791 195.00
64.3443 239.00
64.4095 210.00
64.4747 225.00
64.5399 228.00
64.6051 176.00
64.6703 195.00
64.7355 211.00
64.8007 188.00
64.8659 215.00
64.9311 232.00
64.9963 212.00
65.0615 238.00
65.1267 213.00
65.1919 228.00
65.2571 224.00
65.3223 231.00
65.3875 197.00
65.4527 229.00
65.5179 202.00
65.5831 223.00
65.6483 196.00
65.7135 210.00
65.7787 206.00
65.8439 222.00
65.9091 207.00
65.9743 224.00
66.0395 206.00
66.1047 211.00
66.1699 182.00
66.2351 233.00
66.3003 229.00
66.3655 199.00
66.4307 232.00
66.4959 227.00
66.561 205.00
66.6263 204.00
66.6915 200.00
66.7566 190.00
66.8218 201.00
66.887 209.00
66.9522 205.00
67.0174 221.00
67.0826 173.00
67.1478 207.00
67.213 236.00
67.2782 192.00
67.3434 207.00
67.4086 236.00
67.4738 212.00
67.539 198.00
67.6042 239.00
67.6694 214.00
67.7346 208.00
67.7998 199.00
67.865 183.00
67.9302 218.00
67.9954 212.00
68.0606 191.00
68.1258 214.00
68.191 185.00
68.2562 191.00
68.3214 201.00
68.3866 221.00
68.4518 218.00
68.517 211.00
68.5822 189.00
68.6474 203.00
68.7126 189.00
68.7778 227.00
68.843 211.00
68.9082 190.00
68.9734 211.00
69.0386 241.00
69.1038 211.00
69.169 191.00
69.2342 185.00
69.2994 175.00
69.3646 199.00
69.4298 210.00
69.495 197.00
69.5602 192.00
69.6254 230.00
69.6906 196.00
69.7558 210.00
69.821 240.00
69.8862 232.00
69.9514 210.00
70.0166 221.00
70.0818 204.00
70.147 211.00
70.2122 214.00
70.2774 267.00
70.3426 204.00
70.4078 212.00
70.473 190.00
70.5382 220.00
70.6034 208.00
70.6686 211.00
70.7338 221.00
70.799 220.00
70.8642 190.00
70.9294 196.00
70.9946 223.00
71.0598 192.00
71.125 213.00
71.1902 218.00
71.2554 190.00
71.3205 212.00
71.3858 225.00
71.451 205.00
71.5162 208.00
71.5813 207.00
71.6465 194.00
71.7117 187.00
71.7769 181.00
71.8421 233.00
71.9073 215.00
71.9725 199.00
72.0377 196.00
72.1029 210.00
72.1681 218.00
72.2333 182.00
72.2985 213.00
72.3637 227.00
72.4289 219.00
72.4941 221.00
72.5593 196.00
72.6245 226.00
72.6897 171.00
72.7549 199.00
72.8201 235.00
72.8853 212.00
72.9505 220.00
73.0157 217.00
73.0809 182.00
73.1461 237.00
73.2113 211.00
73.2765 234.00
73.3417 211.00
73.4069 186.00
73.4721 225.00
73.5373 208.00
73.6025 230.00
73.6677 205.00
73.7329 204.00
73.7981 206.00
73.8633 231.00
73.9285 212.00
73.9937 225.00
74.0589 204.00
74.1241 193.00
74.1893 217.00
74.2545 232.00
74.3197 179.00
74.3849 218.00
74.4501 210.00
74.5153 210.00
74.5805 257.00
74.6457 227.00
74.7109 227.00
74.7761 217.00
74.8413 213.00
74.9065 242.00
74.9717 228.00
75.0369 196.00
75.1021 233.00
75.1673 235.00
75.2325 230.00
75.2977 200.00
75.3629 233.00
75.4281 206.00
75.4933 215.00
75.5585 196.00
75.6237 222.00
75.6889 231.00
75.7541 225.00
75.8193 220.00
75.8845 214.00
75.9497 214.00
76.0149 257.00
76.0801 207.00
76.1452 224.00
76.2104 209.00
76.2756 227.00
76.3409 249.00
76.406 222.00
76.4712 217.00
76.5364 233.00
76.6016 225.00
76.6668 202.00
76.732 227.00
76.7972 214.00
76.8624 178.00
76.9276 203.00
76.9928 204.00
77.058 207.00
77.1232 229.00
77.1884 208.00
77.2536 220.00
77.3188 232.00
77.384 223.00
77.4492 207.00
77.5144 234.00
77.5796 188.00
77.6448 265.00
77.71 232.00
77.7752 215.00
77.8404 217.00
77.9056 220.00
77.9708 213.00
78.036 224.00
78.1012 240.00
78.1664 220.00
78.2316 213.00
78.2968 231.00
78.362 213.00
78.4272 248.00
78.4924 222.00
78.5576 209.00
78.6228 240.00
78.688 212.00
78.7532 222.00
78.8184 230.00
78.8836 225.00
78.9488 270.00
79.014 238.00
79.0792 248.00
79.1444 273.00
79.2096 215.00
79.2748 225.00
79.34 219.00
79.4052 242.00
79.4704 227.00
79.5356 244.00
79.6008 226.00
79.666 241.00
79.7312 205.00
79.7964 229.00
79.8616 248.00
79.9268 213.00
79.992 212.00
80.0572 197.00
80.1224 223.00
80.1876 258.00
80.2528 215.00
80.318 261.00
80.3832 245.00
80.4484 244.00
80.5136 215.00
80.5788 220.00
80.644 283.00
80.7092 233.00
80.7744 222.00
80.8396 249.00
80.9048 231.00
80.9699 266.00
81.0351 225.00
81.1003 218.00
81.1655 215.00
81.2307 235.00
81.2959 268.00
81.3611 256.00
81.4263 247.00
81.4915 223.00
81.5567 219.00
81.6219 235.00
81.6871 237.00
81.7523 222.00
81.8175 257.00
81.8827 215.00
81.9479 235.00
82.0131 218.00
82.0783 239.00
82.1435 239.00
82.2087 228.00
82.2739 219.00
82.3391 266.00
82.4043 229.00
82.4695 228.00
82.5347 229.00
82.5999 205.00
82.6651 227.00
82.7303 214.00
82.7955 245.00
82.8607 227.00
82.9259 231.00
82.9911 263.00
83.0563 228.00
83.1215 207.00
83.1867 257.00
83.2519 243.00
83.3171 270.00
83.3823 214.00
83.4475 229.00
83.5127 245.00
83.5779 258.00
83.6431 230.00
83.7083 261.00
83.7735 232.00
83.8387 242.00
83.9039 243.00
83.9691 241.00
84.0343 237.00
84.0995 223.00
84.1647 227.00
84.2299 256.00
84.2951 227.00
84.3603 260.00
84.4255 251.00
84.4907 227.00
84.5559 244.00
84.6211 239.00
84.6863 233.00
84.7515 274.00
84.8167 227.00
84.8819 230.00
84.9471 267.00
85.0123 214.00
85.0775 243.00
85.1427 205.00
85.2079 213.00
85.2731 205.00
85.3383 233.00
85.4035 186.00
85.4687 246.00
85.5339 246.00
85.5991 235.00
85.6643 208.00
85.7295 235.00
85.7946 244.00
85.8598 231.00
85.925 208.00
85.9903 224.00
86.0554 242.00
86.1206 210.00
86.1858 212.00
86.251 248.00
86.3162 192.00
86.3814 206.00
86.4466 202.00
86.5118 207.00
86.577 205.00
86.6422 216.00
86.7074 221.00
86.7726 238.00
86.8378 213.00
86.903 204.00
86.9682 190.00
87.0334 235.00
87.0986 205.00
87.1638 206.00
87.229 220.00
87.2942 230.00
87.3594 201.00
87.4246 223.00
87.4898 203.00
87.555 200.00
87.6202 230.00
87.6854 215.00
87.7506 199.00
87.8158 202.00
87.881 259.00
87.9462 222.00
88.0114 175.00
88.0766 183.00
88.1418 214.00
88.207 203.00
88.2722 180.00
88.3374 221.00
88.4026 258.00
88.4678 235.00
88.533 209.00
88.5982 199.00
88.6634 182.00
88.7286 223.00
88.7938 221.00
88.859 213.00
88.9242 182.00
88.9894 183.00
89.0546 201.00
89.1198 215.00
89.185 170.00
89.2502 186.00
89.3154 199.00
89.3806 191.00
89.4458 200.00
89.511 189.00
89.5762 203.00
89.6414 234.00
89.7066 211.00
89.7718 207.00
89.837 202.00
89.9022 213.00
89.9674 192.00
90.0326 200.00
90.0978 209.00
90.163 210.00
90.2282 162.00
90.2934 202.00
90.3586 212.00
90.4238 200.00
90.489 183.00
90.5542 191.00
90.6193 241.00
90.6845 221.00
90.7497 205.00
90.8149 209.00
90.8801 192.00
90.9453 180.00
91.0105 211.00
91.0757 211.00
91.1409 214.00
91.2061 159.00
91.2713 180.00
91.3365 206.00
91.4017 214.00
91.4669 249.00
91.5321 200.00
91.5973 212.00
91.6625 218.00
91.7277 233.00
91.7929 199.00
91.8581 178.00
91.9233 204.00
91.9885 186.00
92.0537 211.00
92.1189 216.00
92.1841 235.00
92.2493 206.00
92.3145 208.00
92.3797 186.00
92.4449 185.00
92.5101 185.00
92.5753 207.00
92.6405 174.00
92.7057 171.00
92.7709 210.00
92.8361 190.00
92.9013 198.00
92.9665 202.00
93.0317 208.00
93.0969 179.00
93.1621 215.00
93.2273 200.00
93.2925 210.00
93.3577 197.00
93.4229 199.00
93.4881 207.00
93.5533 214.00
93.6185 175.00
93.6837 201.00
93.7489 196.00
93.8141 202.00
93.8793 225.00
93.9445 196.00
94.0097 187.00
94.0749 190.00
94.1401 207.00
94.2053 182.00
94.2705 180.00
94.3357 187.00
94.4009 163.00
94.4661 184.00
94.5313 230.00
94.5965 205.00
94.6617 183.00
94.7269 177.00
94.7921 208.00
94.8573 195.00
94.9225 207.00
94.9877 195.00
95.0529 192.00
95.1181 221.00
95.1833 201.00
95.2485 189.00
95.3137 175.00
95.3789 206.00
95.444 216.00
95.5092 182.00
95.5744 203.00
95.6396 185.00
95.7048 172.00
95.77 207.00
95.8352 184.00
95.9004 203.00
95.9656 193.00
96.0308 185.00
96.096 208.00
96.1612 178.00
96.2264 170.00
96.2916 197.00
96.3568 200.00
96.422 203.00
96.4872 186.00
96.5524 193.00
96.6176 197.00
96.6828 179.00
96.748 185.00
96.8132 178.00
96.8784 206.00
96.9436 186.00
97.0088 193.00
97.074 196.00
97.1392 172.00
97.2044 214.00
97.2696 177.00
97.3348 207.00
97.4 170.00
97.4652 165.00
97.5304 199.00
97.5956 192.00
97.6608 194.00
97.726 222.00
97.7912 212.00
97.8564 190.00
97.9216 173.00
97.9868 199.00
98.052 180.00
98.1172 171.00
98.1824 215.00
98.2476 166.00
98.3128 212.00
98.378 197.00
98.4432 216.00
98.5084 213.00
98.5736 188.00
98.6388 192.00
98.704 192.00
98.7692 179.00
98.8344 222.00
98.8996 179.00
98.9648 196.00
99.03 201.00
99.0952 207.00
99.1604 213.00
99.2256 178.00
99.2908 184.00
99.356 228.00
99.4212 182.00
99.4864 179.00
99.5516 177.00
99.6168 203.00
99.682 185.00
99.7472 171.00
99.8124 207.00
99.8776 208.00
99.9428 179.00
100.008 182.00
100.073 180.00
100.095 187.00