File: data/xrd_creation/results/NSC_44.xy
9.903433 3294.00
9.968632 3104.00
10.0338 3184.00
10.099 3235.00
10.1642 3184.00
10.2294 3357.00
10.2946 3243.00
10.3598 3215.00
10.425 3391.00
10.4902 3329.00
10.5554 3430.00
10.6206 3206.00
10.6858 3008.00
10.751 3050.00
10.8162 2986.00
10.8814 2955.00
10.9466 2958.00
11.0118 2942.00
11.077 2837.00
11.1422 2739.00
11.2074 2829.00
11.2726 2884.00
11.3378 2779.00
11.403 2963.00
11.4682 2848.00
11.5334 2741.00
11.5986 2801.00
11.6638 2844.00
11.729 2709.00
11.7942 2723.00
11.8594 2748.00
11.9246 2699.00
11.9898 2643.00
12.055 2591.00
12.1202 2614.00
12.1854 2714.00
12.2506 2655.00
12.3158 2573.00
12.381 2744.00
12.4462 2542.00
12.5114 2681.00
12.5766 2575.00
12.6418 2559.00
12.707 2497.00
12.7722 2569.00
12.8374 2497.00
12.9026 2597.00
12.9678 2457.00
13.033 2556.00
13.0982 2532.00
13.1634 2478.00
13.2286 2376.00
13.2938 2459.00
13.359 2464.00
13.4242 2506.00
13.4894 2512.00
13.5546 2374.00
13.6198 2428.00
13.685 2311.00
13.7502 2492.00
13.8154 2409.00
13.8805 2310.00
13.9457 2420.00
14.0109 2362.00
14.0761 2363.00
14.1413 2395.00
14.2065 2315.00
14.2717 2288.00
14.3369 2434.00
14.4021 2319.00
14.4673 2341.00
14.5325 2312.00
14.5977 2272.00
14.6629 2300.00
14.7281 2262.00
14.7933 2258.00
14.8585 2364.00
14.9237 2271.00
14.9889 2270.00
15.0541 2276.00
15.1193 2210.00
15.1845 2312.00
15.2497 2203.00
15.3149 2205.00
15.3801 2170.00
15.4453 2249.00
15.5105 2165.00
15.5757 2213.00
15.6409 2229.00
15.7061 2116.00
15.7713 2196.00
15.8365 2191.00
15.9017 2106.00
15.9669 2179.00
16.0321 2116.00
16.0973 2115.00
16.1625 2187.00
16.2277 2128.00
16.2929 2043.00
16.3581 2099.00
16.4233 2118.00
16.4885 2102.00
16.5537 2030.00
16.6189 2140.00
16.6841 2033.00
16.7493 2046.00
16.8145 2033.00
16.8797 1999.00
16.9449 2064.00
17.0101 1987.00
17.0753 2018.00
17.1405 2034.00
17.2057 1994.00
17.2709 1998.00
17.3361 2029.00
17.4013 2023.00
17.4665 1980.00
17.5317 1909.00
17.5969 1977.00
17.6621 2041.00
17.7273 2069.00
17.7925 1977.00
17.8577 2147.00
17.9229 2188.00
17.9881 2366.00
18.0533 2420.00
18.1185 2283.00
18.1837 2054.00
18.2489 1971.00
18.3141 1888.00
18.3793 1986.00
18.4445 1885.00
18.5097 1931.00
18.5749 1909.00
18.6401 1891.00
18.7052 1882.00
18.7704 1837.00
18.8356 1875.00
18.9008 1803.00
18.966 1886.00
19.0312 1802.00
19.0964 1842.00
19.1616 1859.00
19.2268 1737.00
19.292 1793.00
19.3572 1770.00
19.4224 1836.00
19.4876 1753.00
19.5528 1836.00
19.618 1783.00
19.6832 1903.00
19.7484 1770.00
19.8136 1881.00
19.8788 1777.00
19.944 1728.00
20.0092 1745.00
20.0744 1881.00
20.1396 1797.00
20.2048 1891.00
20.27 1975.00
20.3352 1951.00
20.4004 1908.00
20.4656 1856.00
20.5308 1955.00
20.596 2019.00
20.6612 2312.00
20.7264 2791.00
20.7916 3870.00
20.8568 4991.00
20.922 6420.00
20.9872 8064.00
21.0524 7942.00
21.1176 4015.00
21.1828 2170.00
21.248 2098.00
21.3132 2116.00
21.3784 2421.00
21.4436 2940.00
21.5088 3764.00
21.574 4478.00
21.6392 4170.00
21.7044 3672.00
21.7696 3914.00
21.8348 3120.00
21.9 2100.00
21.9652 1776.00
22.0304 1761.00
22.0956 1742.00
22.1608 1638.00
22.226 1676.00
22.2912 1605.00
22.3564 1613.00
22.4216 1650.00
22.4868 1562.00
22.552 1552.00
22.6172 1564.00
22.6824 1655.00
22.7476 1648.00
22.8128 1597.00
22.878 1645.00
22.9432 1678.00
23.0084 1711.00
23.0736 1738.00
23.1388 1715.00
23.204 1843.00
23.2692 2281.00
23.3344 2974.00
23.3996 4108.00
23.4647 4742.00
23.5299 3949.00
23.5951 2453.00
23.6603 1863.00
23.7255 1694.00
23.7907 1593.00
23.8559 1676.00
23.9211 1670.00
23.9863 1662.00
24.0515 1832.00
24.1167 2062.00
24.1819 2497.00
24.2471 3158.00
24.3123 3022.00
24.3775 2057.00
24.4427 1596.00
24.5079 1591.00
24.5731 1504.00
24.6383 1496.00
24.7035 1486.00
24.7687 1518.00
24.8339 1422.00
24.8991 1482.00
24.9643 1488.00
25.0295 1419.00
25.0947 1431.00
25.1599 1448.00
25.2251 1479.00
25.2903 1418.00
25.3555 1539.00
25.4207 1473.00
25.4859 1501.00
25.5511 1362.00
25.6163 1416.00
25.6815 1565.00
25.7467 1483.00
25.8119 1494.00
25.8771 1424.00
25.9423 1446.00
26.0075 1409.00
26.0727 1354.00
26.1379 1395.00
26.2031 1344.00
26.2683 1435.00
26.3335 1354.00
26.3987 1443.00
26.4639 1409.00
26.5291 1360.00
26.5943 1378.00
26.6595 1352.00
26.7247 1306.00
26.7899 1401.00
26.8551 1360.00
26.9203 1366.00
26.9855 1430.00
27.0507 1413.00
27.1159 1408.00
27.1811 1491.00
27.2463 1399.00
27.3115 1634.00
27.3767 1923.00
27.4419 2460.00
27.5071 3257.00
27.5723 3991.00
27.6375 3699.00
27.7027 2499.00
27.7679 1755.00
27.8331 1497.00
27.8983 1423.00
27.9635 1397.00
28.0287 1374.00
28.0939 1437.00
28.1591 1475.00
28.2243 1474.00
28.2894 1447.00
28.3546 1366.00
28.4198 1355.00
28.485 1431.00
28.5502 1402.00
28.6154 1366.00
28.6806 1295.00
28.7458 1378.00
28.811 1257.00
28.8762 1292.00
28.9414 1408.00
29.0066 1382.00
29.0718 1397.00
29.137 1311.00
29.2022 1328.00
29.2674 1358.00
29.3326 1375.00
29.3978 1497.00
29.463 1525.00
29.5282 1711.00
29.5934 1822.00
29.6586 1954.00
29.7238 1859.00
29.789 1905.00
29.8542 2157.00
29.9194 2826.00
29.9846 3839.00
30.0498 4607.00
30.115 3721.00
30.1802 2406.00
30.2454 1915.00
30.3106 1739.00
30.3758 1703.00
30.441 1746.00
30.5062 1790.00
30.5714 2020.00
30.6366 2755.00
30.7018 4625.00
30.767 9284.00
30.8322 16465.00
30.8974 15869.00
30.9626 8713.00
31.0278 3472.00
31.093 2190.00
31.1582 2089.00
31.2234 2306.00
31.2886 2563.00
31.3538 2664.00
31.419 2263.00
31.4842 1759.00
31.5494 1541.00
31.6146 1401.00
31.6798 1373.00
31.745 1257.00
31.8102 1335.00
31.8754 1378.00
31.9406 1314.00
32.0058 1276.00
32.071 1272.00
32.1362 1333.00
32.2014 1389.00
32.2666 1461.00
32.3318 1627.00
32.397 1539.00
32.4622 1408.00
32.5274 1357.00
32.5926 1248.00
32.6578 1273.00
32.723 1276.00
32.7882 1334.00
32.8534 1247.00
32.9186 1203.00
32.9838 1243.00
33.0489 1302.00
33.1141 1288.00
33.1793 1293.00
33.2445 1339.00
33.3097 1417.00
33.3749 1520.00
33.4401 1384.00
33.5053 1361.00
33.5705 1258.00
33.6357 1284.00
33.7009 1291.00
33.7661 1249.00
33.8313 1334.00
33.8965 1360.00
33.9617 1476.00
34.0269 1543.00
34.0921 1703.00
34.1573 2209.00
34.2225 2757.00
34.2877 4151.00
34.3529 7352.00
34.4181 12938.00
34.4833 14296.00
34.5485 7999.00
34.6137 3189.00
34.6789 1785.00
34.7441 1556.00
34.8093 1433.00
34.8745 1365.00
34.9397 1368.00
35.0049 1489.00
35.0701 1701.00
35.1353 2073.00
35.2005 2110.00
35.2657 1785.00
35.3309 1528.00
35.3961 1394.00
35.4613 1452.00
35.5265 1705.00
35.5917 2342.00
35.6569 4033.00
35.7221 6002.00
35.7873 4795.00
35.8525 3154.00
35.9177 1648.00
35.9829 1383.00
36.0481 1332.00
36.1133 1260.00
36.1785 1413.00
36.2437 1446.00
36.3089 1420.00
36.3741 1295.00
36.4393 1240.00
36.5045 1150.00
36.5697 1151.00
36.6349 1141.00
36.7001 1121.00
36.7653 1095.00
36.8305 1068.00
36.8957 1123.00
36.9609 1117.00
37.0261 1117.00
37.0913 1036.00
37.1565 1089.00
37.2217 1161.00
37.2869 1092.00
37.3521 1059.00
37.4173 1080.00
37.4825 1162.00
37.5477 1183.00
37.6129 1137.00
37.6781 1295.00
37.7433 1370.00
37.8085 1543.00
37.8736 1806.00
37.9388 2092.00
38.004 1880.00
38.0692 1572.00
38.1344 1228.00
38.1996 1091.00
38.2648 1060.00
38.33 1210.00
38.3952 1120.00
38.4604 1155.00
38.5256 1224.00
38.5908 1428.00
38.656 1762.00
38.7212 2333.00
38.7864 2495.00
38.8516 2118.00
38.9168 1589.00
38.982 1330.00
39.0472 1203.00
39.1124 1232.00
39.1776 1344.00
39.2428 1372.00
39.308 1738.00
39.3732 1944.00
39.4384 1730.00
39.5036 1519.00
39.5688 1233.00
39.634 1109.00
39.6992 1093.00
39.7644 1087.00
39.8296 1040.00
39.8948 1005.00
39.96 1031.00
40.0252 1130.00
40.0904 1172.00
40.1556 1096.00
40.2208 1046.00
40.286 1027.00
40.3512 1008.00
40.4164 971.00
40.4816 969.00
40.5468 940.00
40.612 948.00
40.6772 927.00
40.7424 1008.00
40.8076 977.00
40.8728 958.00
40.938 944.00
41.0032 943.00
41.0684 941.00
41.1336 942.00
41.1988 990.00
41.264 980.00
41.3292 907.00
41.3944 971.00
41.4596 948.00
41.5248 915.00
41.59 980.00
41.6552 1008.00
41.7204 983.00
41.7856 989.00
41.8508 1013.00
41.916 1124.00
41.9812 1187.00
42.0464 1541.00
42.1116 1759.00
42.1768 1553.00
42.242 1363.00
42.3072 1143.00
42.3724 1140.00
42.4376 1222.00
42.5028 1203.00
42.568 1090.00
42.6332 968.00
42.6983 917.00
42.7635 998.00
42.8287 913.00
42.8939 1098.00
42.9591 1142.00
43.0243 1121.00
43.0895 1076.00
43.1547 1007.00
43.2199 925.00
43.2851 868.00
43.3503 932.00
43.4155 950.00
43.4807 987.00
43.5459 1145.00
43.6111 1336.00
43.6763 1321.00
43.7415 1350.00
43.8067 1279.00
43.8719 1361.00
43.9371 1230.00
44.0023 1122.00
44.0675 1085.00
44.1327 1032.00
44.1979 1010.00
44.2631 861.00
44.3283 890.00
44.3935 856.00
44.4587 849.00
44.5239 844.00
44.5891 876.00
44.6543 886.00
44.7195 859.00
44.7847 867.00
44.8499 846.00
44.9151 914.00
44.9803 859.00
45.0455 850.00
45.1107 867.00
45.1759 846.00
45.2411 857.00
45.3063 856.00
45.3715 893.00
45.4367 908.00
45.5019 912.00
45.5671 934.00
45.6323 935.00
45.6975 1033.00
45.7627 1081.00
45.8279 1397.00
45.8931 1970.00
45.9583 2252.00
46.0235 1908.00
46.0887 1607.00
46.1539 1154.00
46.2191 1020.00
46.2843 946.00
46.3495 853.00
46.4147 930.00
46.4799 859.00
46.5451 896.00
46.6103 850.00
46.6755 844.00
46.7407 844.00
46.8059 815.00
46.8711 838.00
46.9363 861.00
47.0015 823.00
47.0667 873.00
47.1319 822.00
47.1971 865.00
47.2623 979.00
47.3275 1058.00
47.3927 1101.00
47.4579 1105.00
47.523 987.00
47.5882 923.00
47.6534 908.00
47.7186 835.00
47.7838 858.00
47.849 796.00
47.9142 805.00
47.9794 810.00
48.0446 779.00
48.1098 849.00
48.175 813.00
48.2402 832.00
48.3054 880.00
48.3706 819.00
48.4358 821.00
48.501 862.00
48.5662 858.00
48.6314 939.00
48.6966 889.00
48.7618 929.00
48.827 946.00
48.8922 833.00
48.9574 932.00
49.0226 876.00
49.0878 1107.00
49.153 1144.00
49.2182 1332.00
49.2834 2086.00
49.3486 2918.00
49.4138 2769.00
49.479 2357.00
49.5442 1908.00
49.6094 1375.00
49.6746 1101.00
49.7398 1011.00
49.805 950.00
49.8702 862.00
49.9354 885.00
50.0006 850.00
50.0658 800.00
50.131 836.00
50.1962 768.00
50.2614 790.00
50.3266 765.00
50.3918 799.00
50.457 834.00
50.5222 807.00
50.5874 809.00
50.6526 861.00
50.7178 835.00
50.783 805.00
50.8482 890.00
50.9134 930.00
50.9786 1045.00
51.0438 1206.00
51.109 1829.00
51.1742 3202.00
51.2394 5413.00
51.3046 5381.00
51.3698 4035.00
51.435 3132.00
51.5002 1722.00
51.5654 1141.00
51.6306 984.00
51.6958 865.00
51.761 820.00
51.8262 787.00
51.8914 740.00
51.9566 761.00
52.0218 758.00
52.087 806.00
52.1522 808.00
52.2174 831.00
52.2826 769.00
52.3477 800.00
52.4129 781.00
52.4781 831.00
52.5433 793.00
52.6085 770.00
52.6737 813.00
52.7389 734.00
52.8041 801.00
52.8693 889.00
52.9345 1081.00
52.9997 996.00
53.0649 958.00
53.1301 875.00
53.1953 799.00
53.2605 798.00
53.3257 774.00
53.3909 807.00
53.4561 794.00
53.5213 887.00
53.5865 814.00
53.6517 803.00
53.7169 778.00
53.7821 737.00
53.8473 828.00
53.9125 853.00
53.9777 858.00
54.0429 826.00
54.1081 800.00
54.1733 834.00
54.2385 810.00
54.3037 792.00
54.3689 784.00
54.4341 902.00
54.4993 981.00
54.5645 931.00
54.6297 917.00
54.6949 794.00
54.7601 787.00
54.8253 741.00
54.8905 728.00
54.9557 739.00
55.0209 690.00
55.0861 712.00
55.1513 706.00
55.2165 725.00
55.2817 689.00
55.3469 706.00
55.4121 689.00
55.4773 733.00
55.5425 735.00
55.6077 731.00
55.6729 791.00
55.7381 728.00
55.8033 732.00
55.8685 752.00
55.9337 768.00
55.9989 704.00
56.0641 799.00
56.1293 1054.00
56.1945 1334.00
56.2597 1240.00
56.3249 1102.00
56.3901 1009.00
56.4553 873.00
56.5205 838.00
56.5857 823.00
56.6509 799.00
56.7161 755.00
56.7813 727.00
56.8465 740.00
56.9117 728.00
56.9769 674.00
57.042 719.00
57.1073 755.00
57.1724 818.00
57.2376 872.00
57.3028 979.00
57.368 927.00
57.4332 900.00
57.4984 782.00
57.5636 791.00
57.6288 759.00
57.694 814.00
57.7592 818.00
57.8244 893.00
57.8896 833.00
57.9548 903.00
58.02 901.00
58.0852 734.00
58.1504 759.00
58.2156 788.00
58.2808 731.00
58.346 711.00
58.4112 621.00
58.4764 654.00
58.5416 671.00
58.6068 691.00
58.672 665.00
58.7372 720.00
58.8024 702.00
58.8676 722.00
58.9328 669.00
58.998 780.00
59.0632 695.00
59.1284 819.00
59.1936 884.00
59.2588 1076.00
59.324 1317.00
59.3892 1509.00
59.4544 1413.00
59.5196 1518.00
59.5848 1485.00
59.65 1326.00
59.7152 1133.00
59.7804 1104.00
59.8456 953.00
59.9108 903.00
59.976 818.00
60.0412 803.00
60.1064 738.00
60.1716 787.00
60.2368 804.00
60.302 718.00
60.3672 782.00
60.4324 755.00
60.4976 734.00
60.5628 852.00
60.628 911.00
60.6932 1146.00
60.7584 1697.00
60.8236 2861.00
60.8888 4120.00
60.954 3354.00
61.0192 2857.00
61.0844 2583.00
61.1496 1666.00
61.2148 1353.00
61.28 1380.00
61.3452 1971.00
61.4104 2851.00
61.4756 2491.00
61.5408 1733.00
61.606 1750.00
61.6712 1147.00
61.7364 893.00
61.8016 744.00
61.8667 702.00
61.932 695.00
61.9971 610.00
62.0623 726.00
62.1275 718.00
62.1927 784.00
62.2579 778.00
62.3231 1025.00
62.3883 1385.00
62.4535 1138.00
62.5187 1023.00
62.5839 1053.00
62.6491 831.00
62.7143 701.00
62.7795 668.00
62.8447 673.00
62.9099 636.00
62.9751 653.00
63.0403 667.00
63.1055 646.00
63.1707 653.00
63.2359 594.00
63.3011 639.00
63.3663 694.00
63.4315 674.00
63.4967 736.00
63.5619 770.00
63.6271 792.00
63.6923 809.00
63.7575 924.00
63.8227 1124.00
63.8879 1223.00
63.9531 1099.00
64.0183 991.00
64.0835 1034.00
64.1487 855.00
64.2139 764.00
64.2791 658.00
64.3443 702.00
64.4095 709.00
64.4747 644.00
64.5399 627.00
64.6051 674.00
64.6703 655.00
64.7355 613.00
64.8007 645.00
64.8659 633.00
64.9311 667.00
64.9963 653.00
65.0615 621.00
65.1267 629.00
65.1919 691.00
65.2571 743.00
65.3223 811.00
65.3875 922.00
65.4527 875.00
65.5179 948.00
65.5831 1006.00
65.6483 911.00
65.7135 845.00
65.7787 832.00
65.8439 798.00
65.9091 780.00
65.9743 678.00
66.0395 601.00
66.1047 617.00
66.1699 627.00
66.2351 594.00
66.3003 610.00
66.3655 643.00
66.4307 572.00
66.4959 592.00
66.561 634.00
66.6263 636.00
66.6915 689.00
66.7566 753.00
66.8218 758.00
66.887 711.00
66.9522 698.00
67.0174 669.00
67.0826 691.00
67.1478 615.00
67.213 626.00
67.2782 621.00
67.3434 613.00
67.4086 631.00
67.4738 717.00
67.539 690.00
67.6042 749.00
67.6694 729.00
67.7346 772.00
67.7998 809.00
67.865 793.00
67.9302 927.00
67.9954 993.00
68.0606 925.00
68.1258 958.00
68.191 1019.00
68.2562 1008.00
68.3214 886.00
68.3866 845.00
68.4518 802.00
68.517 680.00
68.5822 682.00
68.6474 674.00
68.7126 670.00
68.7778 660.00
68.843 658.00
68.9082 627.00
68.9734 608.00
69.0386 646.00
69.1038 559.00
69.169 535.00
69.2342 531.00
69.2994 571.00
69.3646 527.00
69.4298 539.00
69.495 567.00
69.5602 642.00
69.6254 629.00
69.6906 717.00
69.7558 615.00
69.821 575.00
69.8862 633.00
69.9514 493.00
70.0166 540.00
70.0818 546.00
70.147 560.00
70.2122 569.00
70.2774 534.00
70.3426 553.00
70.4078 484.00
70.473 523.00
70.5382 477.00
70.6034 527.00
70.6686 498.00
70.7338 478.00
70.799 538.00
70.8642 497.00
70.9294 473.00
70.9946 509.00
71.0598 490.00
71.125 454.00
71.1902 491.00
71.2554 528.00
71.3205 524.00
71.3858 471.00
71.451 535.00
71.5162 551.00
71.5813 567.00
71.6465 554.00
71.7117 576.00
71.7769 586.00
71.8421 619.00
71.9073 632.00
71.9725 679.00
72.0377 699.00
72.1029 916.00
72.1681 1026.00
72.2333 1048.00
72.2985 874.00
72.3637 812.00
72.4289 839.00
72.4941 659.00
72.5593 556.00
72.6245 587.00
72.6897 485.00
72.7549 477.00
72.8201 526.00
72.8853 483.00
72.9505 493.00
73.0157 480.00
73.0809 496.00
73.1461 467.00
73.2113 465.00
73.2765 477.00
73.3417 471.00
73.4069 477.00
73.4721 517.00
73.5373 484.00
73.6025 494.00
73.6677 558.00
73.7329 574.00
73.7981 630.00
73.8633 724.00
73.9285 683.00
73.9937 593.00
74.0589 639.00
74.1241 623.00
74.1893 567.00
74.2545 486.00
74.3197 549.00
74.3849 580.00
74.4501 646.00
74.5153 646.00
74.5805 642.00
74.6457 591.00
74.7109 606.00
74.7761 499.00
74.8413 570.00
74.9065 517.00
74.9717 531.00
75.0369 546.00
75.1021 641.00
75.1673 754.00
75.2325 873.00
75.2977 814.00
75.3629 717.00
75.4281 728.00
75.4933 673.00
75.5585 591.00
75.6237 550.00
75.6889 550.00
75.7541 491.00
75.8193 556.00
75.8845 503.00
75.9497 507.00
76.0149 516.00
76.0801 551.00
76.1452 555.00
76.2104 570.00
76.2756 570.00
76.3409 600.00
76.406 568.00
76.4712 658.00
76.5364 688.00
76.6016 854.00
76.6668 817.00
76.732 699.00
76.7972 674.00
76.8624 653.00
76.9276 585.00
76.9928 583.00
77.058 386.00
77.1232 504.00
77.1884 486.00
77.2536 525.00
77.3188 505.00
77.384 560.00
77.4492 512.00
77.5144 543.00
77.5796 579.00
77.6448 529.00
77.71 502.00
77.7752 503.00
77.8404 572.00
77.9056 647.00
77.9708 676.00
78.036 599.00
78.1012 589.00
78.1664 580.00
78.2316 556.00
78.2968 484.00
78.362 489.00
78.4272 487.00
78.4924 498.00
78.5576 477.00
78.6228 485.00
78.688 471.00
78.7532 439.00
78.8184 485.00
78.8836 486.00
78.9488 500.00
79.014 486.00
79.0792 533.00
79.1444 516.00
79.2096 551.00
79.2748 647.00
79.34 679.00
79.4052 557.00
79.4704 555.00
79.5356 558.00
79.6008 565.00
79.666 485.00
79.7312 478.00
79.7964 448.00
79.8616 561.00
79.9268 506.00
79.992 537.00
80.0572 548.00
80.1224 516.00
80.1876 556.00
80.2528 568.00
80.318 535.00
80.3832 574.00
80.4484 527.00
80.5136 569.00
80.5788 518.00
80.644 586.00
80.7092 621.00
80.7744 537.00
80.8396 513.00
80.9048 533.00
80.9699 535.00
81.0351 456.00
81.1003 481.00
81.1655 443.00
81.2307 510.00
81.2959 463.00
81.3611 566.00
81.4263 558.00
81.4915 574.00
81.5567 612.00
81.6219 585.00
81.6871 563.00
81.7523 580.00
81.8175 605.00
81.8827 678.00
81.9479 753.00
82.0131 801.00
82.0783 766.00
82.1435 674.00
82.2087 732.00
82.2739 837.00
82.3391 899.00
82.4043 846.00
82.4695 636.00
82.5347 687.00
82.5999 678.00
82.6651 574.00
82.7303 570.00
82.7955 524.00
82.8607 455.00
82.9259 531.00
82.9911 493.00
83.0563 541.00
83.1215 526.00
83.1867 639.00
83.2519 799.00
83.3171 1053.00
83.3823 1041.00
83.4475 851.00
83.5127 749.00
83.5779 791.00
83.6431 771.00
83.7083 646.00
83.7735 548.00
83.8387 483.00
83.9039 456.00
83.9691 500.00
84.0343 457.00
84.0995 430.00
84.1647 490.00
84.2299 464.00
84.2951 470.00
84.3603 464.00
84.4255 468.00
84.4907 436.00
84.5559 478.00
84.6211 444.00
84.6863 437.00
84.7515 475.00
84.8167 427.00
84.8819 433.00
84.9471 509.00
85.0123 451.00
85.0775 475.00
85.1427 471.00
85.2079 449.00
85.2731 515.00
85.3383 535.00
85.4035 546.00
85.4687 491.00
85.5339 507.00
85.5991 561.00
85.6643 516.00
85.7295 479.00
85.7946 567.00
85.8598 669.00
85.925 743.00
85.9903 878.00
86.0554 869.00
86.1206 736.00
86.1858 685.00
86.251 724.00
86.3162 683.00
86.3814 650.00
86.4466 571.00
86.5118 517.00
86.577 470.00
86.6422 424.00
86.7074 462.00
86.7726 417.00
86.8378 458.00
86.903 474.00
86.9682 475.00
87.0334 450.00
87.0986 465.00
87.1638 479.00
87.229 460.00
87.2942 477.00
87.3594 495.00
87.4246 478.00
87.4898 474.00
87.555 479.00
87.6202 472.00
87.6854 422.00
87.7506 455.00
87.8158 461.00
87.881 453.00
87.9462 463.00
88.0114 404.00
88.0766 410.00
88.1418 392.00
88.207 431.00
88.2722 437.00
88.3374 484.00
88.4026 471.00
88.4678 441.00
88.533 455.00
88.5982 445.00
88.6634 512.00
88.7286 470.00
88.7938 467.00
88.859 461.00
88.9242 485.00
88.9894 490.00
89.0546 446.00
89.1198 402.00
89.185 449.00
89.2502 406.00
89.3154 464.00
89.3806 433.00
89.4458 434.00
89.511 418.00
89.5762 410.00
89.6414 413.00
89.7066 422.00
89.7718 415.00
89.837 476.00
89.9022 548.00
89.9674 553.00
90.0326 603.00
90.0978 511.00
90.163 550.00
90.2282 535.00
90.2934 516.00
90.3586 523.00
90.4238 476.00
90.489 481.00
90.5542 427.00
90.6193 431.00
90.6845 406.00
90.7497 425.00
90.8149 406.00
90.8801 459.00
90.9453 446.00
91.0105 434.00
91.0757 466.00
91.1409 415.00
91.2061 461.00
91.2713 434.00
91.3365 432.00
91.4017 436.00
91.4669 413.00
91.5321 407.00
91.5973 392.00
91.6625 418.00
91.7277 409.00
91.7929 420.00
91.8581 408.00
91.9233 460.00
91.9885 438.00
92.0537 436.00
92.1189 478.00
92.1841 448.00
92.2493 500.00
92.3145 499.00
92.3797 486.00
92.4449 469.00
92.5101 589.00
92.5753 601.00
92.6405 677.00
92.7057 613.00
92.7709 511.00
92.8361 510.00
92.9013 528.00
92.9665 517.00
93.0317 472.00
93.0969 457.00
93.1621 422.00
93.2273 407.00
93.2925 401.00
93.3577 426.00
93.4229 431.00
93.4881 401.00
93.5533 437.00
93.6185 441.00
93.6837 382.00
93.7489 410.00
93.8141 438.00
93.8793 400.00
93.9445 405.00
94.0097 462.00
94.0749 434.00
94.1401 410.00
94.2053 403.00
94.2705 395.00
94.3357 379.00
94.4009 414.00
94.4661 377.00
94.5313 407.00
94.5965 400.00
94.6617 428.00
94.7269 392.00
94.7921 433.00
94.8573 434.00
94.9225 417.00
94.9877 432.00
95.0529 463.00
95.1181 489.00
95.1833 520.00
95.2485 565.00
95.3137 592.00
95.3789 539.00
95.444 573.00
95.5092 499.00
95.5744 524.00
95.6396 510.00
95.7048 517.00
95.77 459.00
95.8352 454.00
95.9004 428.00
95.9656 438.00
96.0308 487.00
96.096 391.00
96.1612 408.00
96.2264 458.00
96.2916 419.00
96.3568 483.00
96.422 452.00
96.4872 573.00
96.5524 638.00
96.6176 797.00
96.6828 732.00
96.748 660.00
96.8132 624.00
96.8784 601.00
96.9436 658.00
97.0088 581.00
97.074 480.00
97.1392 487.00
97.2044 429.00
97.2696 494.00
97.3348 426.00
97.4 457.00
97.4652 422.00
97.5304 443.00
97.5956 442.00
97.6608 407.00
97.726 481.00
97.7912 478.00
97.8564 529.00
97.9216 611.00
97.9868 637.00
98.052 590.00
98.1172 540.00
98.1824 507.00
98.2476 541.00
98.3128 521.00
98.378 464.00
98.4432 419.00
98.5084 466.00
98.5736 420.00
98.6388 416.00
98.704 408.00
98.7692 406.00
98.8344 441.00
98.8996 467.00
98.9648 420.00
99.03 434.00
99.0952 473.00
99.1604 503.00
99.2256 539.00
99.2908 585.00
99.356 547.00
99.4212 523.00
99.4864 513.00
99.5516 480.00
99.6168 513.00
99.682 519.00
99.7472 450.00
99.8124 471.00
99.8776 432.00
99.9428 413.00
100.008 428.00
100.073 452.00
100.095 392.00