File: data/xrd_creation/results/NSC_11.xy
9.903433 2818.00
9.968632 2812.00
10.0338 2717.00
10.099 2836.00
10.1642 2818.00
10.2294 2678.00
10.2946 2653.00
10.3598 2689.00
10.425 2680.00
10.4902 2730.00
10.5554 2714.00
10.6206 2586.00
10.6858 2519.00
10.751 2591.00
10.8162 2700.00
10.8814 2520.00
10.9466 2559.00
11.0118 2532.00
11.077 2524.00
11.1422 2534.00
11.2074 2484.00
11.2726 2424.00
11.3378 2436.00
11.403 2350.00
11.4682 2419.00
11.5334 2417.00
11.5986 2331.00
11.6638 2247.00
11.729 2296.00
11.7942 2334.00
11.8594 2307.00
11.9246 2210.00
11.9898 2228.00
12.055 2235.00
12.1202 2299.00
12.1854 2266.00
12.2506 2207.00
12.3158 2156.00
12.381 2211.00
12.4462 2153.00
12.5114 2124.00
12.5766 2217.00
12.6418 2140.00
12.707 2161.00
12.7722 2153.00
12.8374 2087.00
12.9026 2109.00
12.9678 2124.00
13.033 2116.00
13.0982 1991.00
13.1634 2124.00
13.2286 2122.00
13.2938 2056.00
13.359 2076.00
13.4242 2036.00
13.4894 2058.00
13.5546 2036.00
13.6198 1979.00
13.685 2065.00
13.7502 2102.00
13.8154 2031.00
13.8805 2057.00
13.9457 2108.00
14.0109 2261.00
14.0761 2335.00
14.1413 2569.00
14.2065 2813.00
14.2717 3228.00
14.3369 3474.00
14.4021 3154.00
14.4673 2602.00
14.5325 2212.00
14.5977 2067.00
14.6629 2109.00
14.7281 2021.00
14.7933 2112.00
14.8585 2104.00
14.9237 2089.00
14.9889 2200.00
15.0541 2338.00
15.1193 2446.00
15.1845 2846.00
15.2497 2736.00
15.3149 2501.00
15.3801 2054.00
15.4453 1972.00
15.5105 1855.00
15.5757 1948.00
15.6409 1913.00
15.7061 1897.00
15.7713 1888.00
15.8365 1831.00
15.9017 1911.00
15.9669 1889.00
16.0321 1797.00
16.0973 1807.00
16.1625 1831.00
16.2277 1816.00
16.2929 1865.00
16.3581 1858.00
16.4233 1875.00
16.4885 1855.00
16.5537 1805.00
16.6189 1741.00
16.6841 1795.00
16.7493 1857.00
16.8145 1792.00
16.8797 1810.00
16.9449 1733.00
17.0101 1852.00
17.0753 1895.00
17.1405 1858.00
17.2057 1735.00
17.2709 1758.00
17.3361 1829.00
17.4013 1731.00
17.4665 1778.00
17.5317 1835.00
17.5969 1772.00
17.6621 1771.00
17.7273 1716.00
17.7925 1756.00
17.8577 1783.00
17.9229 1760.00
17.9881 1689.00
18.0533 1713.00
18.1185 1706.00
18.1837 1774.00
18.2489 1784.00
18.3141 1654.00
18.3793 1702.00
18.4445 1573.00
18.5097 1787.00
18.5749 1812.00
18.6401 1833.00
18.7052 1913.00
18.7704 2088.00
18.8356 2244.00
18.9008 2364.00
18.966 2088.00
19.0312 1856.00
19.0964 1878.00
19.1616 1809.00
19.2268 1845.00
19.292 1844.00
19.3572 1957.00
19.4224 2147.00
19.4876 2390.00
19.5528 2875.00
19.618 3511.00
19.6832 4801.00
19.7484 5930.00
19.8136 6481.00
19.8788 5709.00
19.944 4057.00
20.0092 2917.00
20.0744 2490.00
20.1396 2451.00
20.2048 2502.00
20.27 2702.00
20.3352 3334.00
20.4004 4170.00
20.4656 5660.00
20.5308 7145.00
20.596 7954.00
20.6612 7445.00
20.7264 5821.00
20.7916 4720.00
20.8568 4544.00
20.922 4494.00
20.9872 3929.00
21.0524 2868.00
21.1176 2160.00
21.1828 2009.00
21.248 1863.00
21.3132 1973.00
21.3784 1937.00
21.4436 2077.00
21.5088 2221.00
21.574 2443.00
21.6392 2830.00
21.7044 4002.00
21.7696 5089.00
21.8348 4900.00
21.9 4297.00
21.9652 4437.00
22.0304 4393.00
22.0956 3833.00
22.1608 2905.00
22.226 2242.00
22.2912 1986.00
22.3564 1798.00
22.4216 1754.00
22.4868 1647.00
22.552 1624.00
22.6172 1615.00
22.6824 1676.00
22.7476 1657.00
22.8128 1677.00
22.878 1686.00
22.9432 1697.00
23.0084 1553.00
23.0736 1716.00
23.1388 1777.00
23.204 1854.00
23.2692 1957.00
23.3344 2118.00
23.3996 2202.00
23.4647 2483.00
23.5299 3096.00
23.5951 4319.00
23.6603 5812.00
23.7255 7256.00
23.7907 7836.00
23.8559 6614.00
23.9211 4939.00
23.9863 3123.00
24.0515 2427.00
24.1167 2242.00
24.1819 2266.00
24.2471 2384.00
24.3123 2671.00
24.3775 2780.00
24.4427 2319.00
24.5079 2020.00
24.5731 1786.00
24.6383 1843.00
24.7035 1820.00
24.7687 1851.00
24.8339 1777.00
24.8991 1869.00
24.9643 2091.00
25.0295 2237.00
25.0947 2713.00
25.1599 3458.00
25.2251 4079.00
25.2903 4779.00
25.3555 4876.00
25.4207 3825.00
25.4859 2607.00
25.5511 1968.00
25.6163 1805.00
25.6815 1716.00
25.7467 1751.00
25.8119 1637.00
25.8771 1576.00
25.9423 1639.00
26.0075 1717.00
26.0727 1869.00
26.1379 2105.00
26.2031 2380.00
26.2683 2224.00
26.3335 1852.00
26.3987 1676.00
26.4639 1603.00
26.5291 1726.00
26.5943 1848.00
26.6595 2165.00
26.7247 2231.00
26.7899 1979.00
26.8551 1668.00
26.9203 1454.00
26.9855 1495.00
27.0507 1400.00
27.1159 1415.00
27.1811 1403.00
27.2463 1427.00
27.3115 1498.00
27.3767 1432.00
27.4419 1475.00
27.5071 1467.00
27.5723 1415.00
27.6375 1404.00
27.7027 1409.00
27.7679 1391.00
27.8331 1508.00
27.8983 1588.00
27.9635 1583.00
28.0287 1593.00
28.0939 1675.00
28.1591 1879.00
28.2243 2015.00
28.2894 2596.00
28.3546 3176.00
28.4198 4190.00
28.485 4700.00
28.5502 5041.00
28.6154 5030.00
28.6806 4507.00
28.7458 3750.00
28.811 2796.00
28.8762 2035.00
28.9414 1779.00
29.0066 1589.00
29.0718 1535.00
29.137 1417.00
29.2022 1403.00
29.2674 1435.00
29.3326 1383.00
29.3978 1432.00
29.463 1439.00
29.5282 1417.00
29.5934 1454.00
29.6586 1449.00
29.7238 1424.00
29.789 1426.00
29.8542 1414.00
29.9194 1530.00
29.9846 1571.00
30.0498 1548.00
30.115 1761.00
30.1802 1873.00
30.2454 2185.00
30.3106 2563.00
30.3758 3042.00
30.441 3290.00
30.5062 3249.00
30.5714 2669.00
30.6366 2169.00
30.7018 1943.00
30.767 2001.00
30.8322 2240.00
30.8974 2300.00
30.9626 2237.00
31.0278 2018.00
31.093 2000.00
31.1582 2170.00
31.2234 2643.00
31.2886 3300.00
31.3538 4207.00
31.419 5277.00
31.4842 6587.00
31.5494 7098.00
31.6146 7188.00
31.6798 5970.00
31.745 4739.00
31.8102 3654.00
31.8754 2885.00
31.9406 2301.00
32.0058 1956.00
32.071 1673.00
32.1362 1591.00
32.2014 1504.00
32.2666 1435.00
32.3318 1485.00
32.397 1451.00
32.4622 1460.00
32.5274 1396.00
32.5926 1411.00
32.6578 1386.00
32.723 1446.00
32.7882 1509.00
32.8534 1497.00
32.9186 1536.00
32.9838 1551.00
33.0489 1777.00
33.1141 1954.00
33.1793 2436.00
33.2445 2874.00
33.3097 3652.00
33.3749 4115.00
33.4401 4037.00
33.5053 3260.00
33.5705 2505.00
33.6357 1907.00
33.7009 1681.00
33.7661 1753.00
33.8313 1682.00
33.8965 1739.00
33.9617 1849.00
34.0269 1979.00
34.0921 1917.00
34.1573 1785.00
34.2225 1810.00
34.2877 1658.00
34.3529 1599.00
34.4181 1520.00
34.4833 1508.00
34.5485 1416.00
34.6137 1477.00
34.6789 1444.00
34.7441 1542.00
34.8093 1595.00
34.8745 1456.00
34.9397 1474.00
35.0049 1422.00
35.0701 1556.00
35.1353 1678.00
35.2005 1940.00
35.2657 2219.00
35.3309 2516.00
35.3961 2721.00
35.4613 2951.00
35.5265 2725.00
35.5917 2840.00
35.6569 2974.00
35.7221 3029.00
35.7873 3267.00
35.8525 3464.00
35.9177 3261.00
35.9829 3021.00
36.0481 2551.00
36.1133 2254.00
36.1785 2168.00
36.2437 2270.00
36.3089 2628.00
36.3741 2255.00
36.4393 1958.00
36.5045 1557.00
36.5697 1364.00
36.6349 1331.00
36.7001 1192.00
36.7653 1194.00
36.8305 1240.00
36.8957 1194.00
36.9609 1198.00
37.0261 1219.00
37.0913 1140.00
37.1565 1180.00
37.2217 1212.00
37.2869 1257.00
37.3521 1247.00
37.4173 1289.00
37.4825 1230.00
37.5477 1335.00
37.6129 1425.00
37.6781 1448.00
37.7433 1468.00
37.8085 1637.00
37.8736 1670.00
37.9388 1583.00
38.004 1628.00
38.0692 1560.00
38.1344 1553.00
38.1996 1579.00
38.2648 1739.00
38.33 2021.00
38.3952 2103.00
38.4604 1948.00
38.5256 1909.00
38.5908 1731.00
38.656 1512.00
38.7212 1330.00
38.7864 1406.00
38.8516 1283.00
38.9168 1269.00
38.982 1244.00
39.0472 1210.00
39.1124 1239.00
39.1776 1127.00
39.2428 1154.00
39.308 1108.00
39.3732 1145.00
39.4384 1223.00
39.5036 1250.00
39.5688 1320.00
39.634 1432.00
39.6992 1400.00
39.7644 1505.00
39.8296 1464.00
39.8948 1445.00
39.96 1420.00
40.0252 1508.00
40.0904 1470.00
40.1556 1329.00
40.2208 1295.00
40.286 1321.00
40.3512 1290.00
40.4164 1237.00
40.4816 1349.00
40.5468 1320.00
40.612 1321.00
40.6772 1315.00
40.7424 1288.00
40.8076 1280.00
40.8728 1235.00
40.938 1280.00
41.0032 1295.00
41.0684 1270.00
41.1336 1243.00
41.1988 1305.00
41.264 1354.00
41.3292 1435.00
41.3944 1394.00
41.4596 1547.00
41.5248 1598.00
41.59 1622.00
41.6552 1768.00
41.7204 1750.00
41.7856 1620.00
41.8508 1634.00
41.916 1480.00
41.9812 1531.00
42.0464 1416.00
42.1116 1422.00
42.1768 1416.00
42.242 1404.00
42.3072 1411.00
42.3724 1395.00
42.4376 1295.00
42.5028 1287.00
42.568 1235.00
42.6332 1301.00
42.6983 1142.00
42.7635 1132.00
42.8287 1184.00
42.8939 1126.00
42.9591 1222.00
43.0243 1257.00
43.0895 1351.00
43.1547 1473.00
43.2199 1567.00
43.2851 1677.00
43.3503 1738.00
43.4155 1709.00
43.4807 1689.00
43.5459 1608.00
43.6111 1456.00
43.6763 1436.00
43.7415 1344.00
43.8067 1383.00
43.8719 1432.00
43.9371 1412.00
44.0023 1451.00
44.0675 1396.00
44.1327 1404.00
44.1979 1403.00
44.2631 1309.00
44.3283 1254.00
44.3935 1228.00
44.4587 1170.00
44.5239 1252.00
44.5891 1197.00
44.6543 1239.00
44.7195 1307.00
44.7847 1304.00
44.8499 1537.00
44.9151 1531.00
44.9803 1804.00
45.0455 1777.00
45.1107 2068.00
45.1759 2140.00
45.2411 2096.00
45.3063 2220.00
45.3715 2074.00
45.4367 2043.00
45.5019 1818.00
45.5671 1691.00
45.6323 1540.00
45.6975 1411.00
45.7627 1340.00
45.8279 1393.00
45.8931 1362.00
45.9583 1357.00
46.0235 1484.00
46.0887 1553.00
46.1539 1751.00
46.2191 1819.00
46.2843 1992.00
46.3495 1994.00
46.4147 1858.00
46.4799 1886.00
46.5451 1768.00
46.6103 1682.00
46.6755 1733.00
46.7407 1629.00
46.8059 1662.00
46.8711 1607.00
46.9363 1578.00
47.0015 1542.00
47.0667 1582.00
47.1319 1407.00
47.1971 1413.00
47.2623 1295.00
47.3275 1210.00
47.3927 1267.00
47.4579 1272.00
47.523 1183.00
47.5882 1307.00
47.6534 1287.00
47.7186 1318.00
47.7838 1442.00
47.849 1514.00
47.9142 1717.00
47.9794 1987.00
48.0446 2240.00
48.1098 2475.00
48.175 2831.00
48.2402 2925.00
48.3054 2878.00
48.3706 2849.00
48.4358 2908.00
48.501 2458.00
48.5662 2219.00
48.6314 1953.00
48.6966 1699.00
48.7618 1623.00
48.827 1579.00
48.8922 1522.00
48.9574 1390.00
49.0226 1542.00
49.0878 1509.00
49.153 1436.00
49.2182 1454.00
49.2834 1452.00
49.3486 1589.00
49.4138 1739.00
49.479 1894.00
49.5442 2244.00
49.6094 2293.00
49.6746 2120.00
49.7398 1878.00
49.805 1648.00
49.8702 1493.00
49.9354 1298.00
50.0006 1280.00
50.0658 1199.00
50.131 1206.00
50.1962 1311.00
50.2614 1304.00
50.3266 1382.00
50.3918 1435.00
50.457 1399.00
50.5222 1349.00
50.5874 1303.00
50.6526 1402.00
50.7178 1464.00
50.783 1468.00
50.8482 1467.00
50.9134 1455.00
50.9786 1402.00
51.0438 1392.00
51.109 1418.00
51.1742 1536.00
51.2394 1612.00
51.3046 1776.00
51.3698 1924.00
51.435 2134.00
51.5002 2388.00
51.5654 2559.00
51.6306 2816.00
51.6958 2884.00
51.761 2729.00
51.8262 2537.00
51.8914 2175.00
51.9566 1916.00
52.0218 1717.00
52.087 1591.00
52.1522 1480.00
52.2174 1393.00
52.2826 1392.00
52.3477 1337.00
52.4129 1314.00
52.4781 1207.00
52.5433 1186.00
52.6085 1218.00
52.6737 1234.00
52.7389 1207.00
52.8041 1258.00
52.8693 1169.00
52.9345 1185.00
52.9997 1158.00
53.0649 1160.00
53.1301 1039.00
53.1953 1076.00
53.2605 1126.00
53.3257 1075.00
53.3909 1087.00
53.4561 1123.00
53.5213 1084.00
53.5865 1113.00
53.6517 1111.00
53.7169 1123.00
53.7821 1096.00
53.8473 1206.00
53.9125 1168.00
53.9777 1100.00
54.0429 1223.00
54.1081 1268.00
54.1733 1321.00
54.2385 1368.00
54.3037 1380.00
54.3689 1617.00
54.4341 1600.00
54.4993 1715.00
54.5645 1864.00
54.6297 2137.00
54.6949 2161.00
54.7601 2189.00
54.8253 2212.00
54.8905 1996.00
54.9557 1694.00
55.0209 1633.00
55.0861 1608.00
55.1513 1534.00
55.2165 1444.00
55.2817 1608.00
55.3469 1745.00
55.4121 1839.00
55.4773 1968.00
55.5425 2167.00
55.6077 2409.00
55.6729 2464.00
55.7381 2489.00
55.8033 2525.00
55.8685 2413.00
55.9337 2449.00
55.9989 2329.00
56.0641 2251.00
56.1293 2022.00
56.1945 1954.00
56.2597 1767.00
56.3249 1538.00
56.3901 1413.00
56.4553 1353.00
56.5205 1241.00
56.5857 1216.00
56.6509 1193.00
56.7161 1209.00
56.7813 1156.00
56.8465 1126.00
56.9117 1181.00
56.9769 1298.00
57.042 1328.00
57.1073 1280.00
57.1724 1267.00
57.2376 1223.00
57.3028 1375.00
57.368 1378.00
57.4332 1261.00
57.4984 1271.00
57.5636 1236.00
57.6288 1279.00
57.694 1194.00
57.7592 1231.00
57.8244 1219.00
57.8896 1255.00
57.9548 1268.00
58.02 1451.00
58.0852 1512.00
58.1504 1642.00
58.2156 1938.00
58.2808 2134.00
58.346 2084.00
58.4112 1904.00
58.4764 1802.00
58.5416 1693.00
58.6068 1489.00
58.672 1513.00
58.7372 1551.00
58.8024 1412.00
58.8676 1414.00
58.9328 1355.00
58.998 1366.00
59.0632 1378.00
59.1284 1404.00
59.1936 1232.00
59.2588 1378.00
59.324 1293.00
59.3892 1353.00
59.4544 1312.00
59.5196 1360.00
59.5848 1419.00
59.65 1480.00
59.7152 1519.00
59.7804 1687.00
59.8456 1618.00
59.9108 1832.00
59.976 1863.00
60.0412 1895.00
60.1064 2077.00
60.1716 2022.00
60.2368 2079.00
60.302 1980.00
60.3672 2104.00
60.4324 1938.00
60.4976 1752.00
60.5628 1697.00
60.628 1523.00
60.6932 1459.00
60.7584 1308.00
60.8236 1360.00
60.8888 1424.00
60.954 1306.00
61.0192 1369.00
61.0844 1429.00
61.1496 1525.00
61.2148 1593.00
61.28 1666.00
61.3452 1683.00
61.4104 1779.00
61.4756 1799.00
61.5408 1846.00
61.606 1913.00
61.6712 1846.00
61.7364 1763.00
61.8016 1696.00
61.8667 1589.00
61.932 1593.00
61.9971 1530.00
62.0623 1536.00
62.1275 1400.00
62.1927 1395.00
62.2579 1342.00
62.3231 1317.00
62.3883 1452.00
62.4535 1446.00
62.5187 1419.00
62.5839 1443.00
62.6491 1459.00
62.7143 1529.00
62.7795 1488.00
62.8447 1478.00
62.9099 1442.00
62.9751 1464.00
63.0403 1481.00
63.1055 1406.00
63.1707 1388.00
63.2359 1327.00
63.3011 1396.00
63.3663 1316.00
63.4315 1240.00
63.4967 1202.00
63.5619 1298.00
63.6271 1324.00
63.6923 1329.00
63.7575 1464.00
63.8227 1522.00
63.8879 1651.00
63.9531 1743.00
64.0183 1781.00
64.0835 1824.00
64.1487 1814.00
64.2139 1881.00
64.2791 1829.00
64.3443 1793.00
64.4095 1685.00
64.4747 1748.00
64.5399 1610.00
64.6051 1423.00
64.6703 1439.00
64.7355 1358.00
64.8007 1335.00
64.8659 1165.00
64.9311 1185.00
64.9963 1234.00
65.0615 1159.00
65.1267 1210.00
65.1919 1209.00
65.2571 1328.00
65.3223 1297.00
65.3875 1326.00
65.4527 1281.00
65.5179 1367.00
65.5831 1376.00
65.6483 1456.00
65.7135 1395.00
65.7787 1528.00
65.8439 1477.00
65.9091 1556.00
65.9743 1602.00
66.0395 1681.00
66.1047 1746.00
66.1699 1787.00
66.2351 1906.00
66.3003 1730.00
66.3655 1770.00
66.4307 1678.00
66.4959 1593.00
66.561 1546.00
66.6263 1432.00
66.6915 1348.00
66.7566 1306.00
66.8218 1346.00
66.887 1261.00
66.9522 1240.00
67.0174 1151.00
67.0826 1209.00
67.1478 1269.00
67.213 1280.00
67.2782 1332.00
67.3434 1366.00
67.4086 1323.00
67.4738 1283.00
67.539 1298.00
67.6042 1232.00
67.6694 1230.00
67.7346 1264.00
67.7998 1316.00
67.865 1298.00
67.9302 1281.00
67.9954 1232.00
68.0606 1286.00
68.1258 1349.00
68.191 1378.00
68.2562 1397.00
68.3214 1475.00
68.3866 1369.00
68.4518 1407.00
68.517 1356.00
68.5822 1301.00
68.6474 1278.00
68.7126 1294.00
68.7778 1303.00
68.843 1389.00
68.9082 1366.00
68.9734 1340.00
69.0386 1297.00
69.1038 1411.00
69.169 1301.00
69.2342 1391.00
69.2994 1460.00
69.3646 1425.00
69.4298 1417.00
69.495 1330.00
69.5602 1267.00
69.6254 1196.00
69.6906 1315.00
69.7558 1159.00
69.821 1215.00
69.8862 1122.00
69.9514 1065.00
70.0166 1051.00
70.0818 1108.00
70.147 1107.00
70.2122 1134.00
70.2774 1202.00
70.3426 1188.00
70.4078 1162.00
70.473 1271.00
70.5382 1373.00
70.6034 1287.00
70.6686 1282.00
70.7338 1219.00
70.799 1193.00
70.8642 1199.00
70.9294 1203.00
70.9946 1148.00
71.0598 1126.00
71.125 1181.00
71.1902 1239.00
71.2554 1223.00
71.3205 1201.00
71.3858 1276.00
71.451 1321.00
71.5162 1172.00
71.5813 1214.00
71.6465 1212.00
71.7117 1237.00
71.7769 1179.00
71.8421 1228.00
71.9073 1144.00
71.9725 1155.00
72.0377 1152.00
72.1029 1131.00
72.1681 1169.00
72.2333 1106.00
72.2985 1095.00
72.3637 1069.00
72.4289 1172.00
72.4941 1141.00
72.5593 1191.00
72.6245 1088.00
72.6897 1141.00
72.7549 1058.00
72.8201 1067.00
72.8853 1182.00
72.9505 1114.00
73.0157 1133.00
73.0809 1128.00
73.1461 1148.00
73.2113 1118.00
73.2765 1093.00
73.3417 1123.00
73.4069 1084.00
73.4721 1105.00
73.5373 1097.00
73.6025 1078.00
73.6677 1163.00
73.7329 1045.00
73.7981 1124.00
73.8633 1137.00
73.9285 1147.00
73.9937 1105.00
74.0589 1194.00
74.1241 1199.00
74.1893 1252.00
74.2545 1282.00
74.3197 1267.00
74.3849 1148.00
74.4501 1187.00
74.5153 1200.00
74.5805 1143.00
74.6457 1172.00
74.7109 1169.00
74.7761 1247.00
74.8413 1199.00
74.9065 1162.00
74.9717 1180.00
75.0369 1188.00
75.1021 1179.00
75.1673 1292.00
75.2325 1263.00
75.2977 1330.00
75.3629 1372.00
75.4281 1252.00
75.4933 1308.00
75.5585 1347.00
75.6237 1386.00
75.6889 1345.00
75.7541 1320.00
75.8193 1321.00
75.8845 1245.00
75.9497 1327.00
76.0149 1206.00
76.0801 1100.00
76.1452 1227.00
76.2104 1154.00
76.2756 1109.00
76.3409 1158.00
76.406 1033.00
76.4712 1079.00
76.5364 1103.00
76.6016 1100.00
76.6668 1135.00
76.732 1097.00
76.7972 1118.00
76.8624 1099.00
76.9276 1079.00
76.9928 1091.00
77.058 1115.00
77.1232 1077.00
77.1884 1098.00
77.2536 1126.00
77.3188 1076.00
77.384 1135.00
77.4492 1175.00
77.5144 1218.00
77.5796 1158.00
77.6448 1178.00
77.71 1176.00
77.7752 1117.00
77.8404 1123.00
77.9056 1100.00
77.9708 1109.00
78.036 1054.00
78.1012 1161.00
78.1664 1165.00
78.2316 1061.00
78.2968 1083.00
78.362 1037.00
78.4272 1085.00
78.4924 1095.00
78.5576 1155.00
78.6228 1024.00
78.688 1124.00
78.7532 1164.00
78.8184 1208.00
78.8836 1261.00
78.9488 1190.00
79.014 1326.00
79.0792 1284.00
79.1444 1311.00
79.2096 1297.00
79.2748 1305.00
79.34 1286.00
79.4052 1305.00
79.4704 1230.00
79.5356 1209.00
79.6008 1241.00
79.666 1179.00
79.7312 1223.00
79.7964 1184.00
79.8616 1176.00
79.9268 1139.00
79.992 1149.00
80.0572 1108.00
80.1224 1098.00
80.1876 1014.00
80.2528 1104.00
80.318 1074.00
80.3832 1070.00
80.4484 1079.00
80.5136 1100.00
80.5788 1085.00
80.644 1091.00
80.7092 992.00
80.7744 1065.00
80.8396 1053.00
80.9048 1108.00
80.9699 1070.00
81.0351 1071.00
81.1003 1120.00
81.1655 1085.00
81.2307 1098.00
81.2959 1160.00
81.3611 1092.00
81.4263 1179.00
81.4915 1174.00
81.5567 1149.00
81.6219 1166.00
81.6871 1239.00
81.7523 1167.00
81.8175 1240.00
81.8827 1113.00
81.9479 1115.00
82.0131 1132.00
82.0783 1081.00
82.1435 1079.00
82.2087 1129.00
82.2739 1090.00
82.3391 1060.00
82.4043 1084.00
82.4695 1050.00
82.5347 1036.00
82.5999 1005.00
82.6651 1015.00
82.7303 1050.00
82.7955 1021.00
82.8607 1123.00
82.9259 982.00
82.9911 1096.00
83.0563 1030.00
83.1215 1076.00
83.1867 1055.00
83.2519 1116.00
83.3171 1059.00
83.3823 1080.00
83.4475 1048.00
83.5127 1127.00
83.5779 1098.00
83.6431 1113.00
83.7083 1203.00
83.7735 1182.00
83.8387 1157.00
83.9039 1190.00
83.9691 1194.00
84.0343 1209.00
84.0995 1161.00
84.1647 1184.00
84.2299 1154.00
84.2951 1238.00
84.3603 1187.00
84.4255 1118.00
84.4907 1131.00
84.5559 1101.00
84.6211 1243.00
84.6863 1154.00
84.7515 1130.00
84.8167 1188.00
84.8819 1191.00
84.9471 1201.00
85.0123 1180.00
85.0775 1139.00
85.1427 1163.00
85.2079 1154.00
85.2731 1120.00
85.3383 1132.00
85.4035 1188.00
85.4687 1142.00
85.5339 1159.00
85.5991 1160.00
85.6643 1220.00
85.7295 1085.00
85.7946 1163.00
85.8598 1214.00
85.925 1176.00
85.9903 1113.00
86.0554 1246.00
86.1206 1174.00
86.1858 1242.00
86.251 1177.00
86.3162 1217.00
86.3814 1176.00
86.4466 1134.00
86.5118 1179.00
86.577 1201.00
86.6422 1157.00
86.7074 1154.00
86.7726 1115.00
86.8378 1150.00
86.903 1129.00
86.9682 1133.00
87.0334 1135.00
87.0986 1176.00
87.1638 1094.00
87.229 1102.00
87.2942 1152.00
87.3594 1150.00
87.4246 1123.00
87.4898 1192.00
87.555 1119.00
87.6202 1118.00
87.6854 1128.00
87.7506 1084.00
87.8158 1058.00
87.881 1043.00
87.9462 1033.00
88.0114 1088.00
88.0766 1075.00
88.1418 1032.00
88.207 1060.00
88.2722 1034.00
88.3374 1076.00
88.4026 1081.00
88.4678 1041.00
88.533 1051.00
88.5982 1112.00
88.6634 1086.00
88.7286 1114.00
88.7938 1156.00
88.859 1166.00
88.9242 1163.00
88.9894 1111.00
89.0546 1092.00
89.1198 1106.00
89.185 1079.00
89.2502 1098.00
89.3154 1077.00
89.3806 1063.00
89.4458 1068.00
89.511 1109.00
89.5762 1168.00
89.6414 1087.00
89.7066 1113.00
89.7718 1132.00
89.837 1254.00
89.9022 1193.00
89.9674 1128.00
90.0326 1125.00
90.0978 1191.00
90.163 1185.00
90.2282 1194.00
90.2934 1209.00
90.3586 1184.00
90.4238 1107.00
90.489 1164.00
90.5542 1106.00
90.6193 1101.00
90.6845 1177.00
90.7497 1091.00
90.8149 1159.00
90.8801 1174.00
90.9453 1155.00
91.0105 1168.00
91.0757 1060.00
91.1409 1087.00
91.2061 1011.00
91.2713 1162.00
91.3365 1105.00
91.4017 1117.00
91.4669 1169.00
91.5321 1124.00
91.5973 1141.00
91.6625 1135.00
91.7277 1238.00
91.7929 1213.00
91.8581 1190.00
91.9233 1262.00
91.9885 1242.00
92.0537 1234.00
92.1189 1239.00
92.1841 1254.00
92.2493 1272.00
92.3145 1175.00
92.3797 1302.00
92.4449 1163.00
92.5101 1261.00
92.5753 1214.00
92.6405 1207.00
92.7057 1193.00
92.7709 1169.00
92.8361 1078.00
92.9013 1105.00
92.9665 1096.00
93.0317 1079.00
93.0969 1095.00
93.1621 1113.00
93.2273 1062.00
93.2925 1046.00
93.3577 1100.00
93.4229 1036.00
93.4881 1043.00
93.5533 1052.00
93.6185 1068.00
93.6837 1098.00
93.7489 1082.00
93.8141 1064.00
93.8793 1088.00
93.9445 1053.00
94.0097 1073.00
94.0749 1073.00
94.1401 1149.00
94.2053 1099.00
94.2705 1126.00
94.3357 1054.00
94.4009 1097.00
94.4661 1072.00
94.5313 1108.00
94.5965 1066.00
94.6617 1026.00
94.7269 1021.00
94.7921 1047.00
94.8573 1110.00
94.9225 1122.00
94.9877 1113.00
95.0529 1097.00
95.1181 1144.00
95.1833 1150.00
95.2485 1106.00
95.3137 1142.00
95.3789 1177.00
95.444 1128.00
95.5092 1077.00
95.5744 1158.00
95.6396 1175.00
95.7048 1119.00
95.77 1082.00
95.8352 1159.00
95.9004 1118.00
95.9656 1132.00
96.0308 1114.00
96.096 1126.00
96.1612 1115.00
96.2264 1118.00
96.2916 1177.00
96.3568 1086.00
96.422 1191.00
96.4872 1096.00
96.5524 1134.00
96.6176 1102.00
96.6828 1180.00
96.748 1163.00
96.8132 1171.00
96.8784 1144.00
96.9436 1142.00
97.0088 1156.00
97.074 1165.00
97.1392 1096.00
97.2044 1148.00
97.2696 1155.00
97.3348 1150.00
97.4 1117.00
97.4652 1144.00
97.5304 1208.00
97.5956 1142.00
97.6608 1138.00
97.726 1106.00
97.7912 1064.00
97.8564 1145.00
97.9216 1094.00
97.9868 1119.00
98.052 1165.00
98.1172 1087.00
98.1824 1100.00
98.2476 1098.00
98.3128 1090.00
98.378 1032.00
98.4432 1062.00
98.5084 1007.00
98.5736 1093.00
98.6388 1076.00
98.704 1056.00
98.7692 1050.00
98.8344 1062.00
98.8996 1023.00
98.9648 1023.00
99.03 1016.00
99.0952 1018.00
99.1604 1095.00
99.2256 1066.00
99.2908 1142.00
99.356 1090.00
99.4212 1115.00
99.4864 1040.00
99.5516 1073.00
99.6168 1145.00
99.682 1166.00
99.7472 1140.00
99.8124 1171.00
99.8776 1070.00
99.9428 1108.00
100.008 1168.00
100.073 1066.00
100.095 1123.00