File: data/xrd_creation/results/NSC_180.xy
9.903433 2989.00
9.968632 3035.00
10.0338 3047.00
10.099 2942.00
10.1642 2924.00
10.2294 2868.00
10.2946 2876.00
10.3598 2890.00
10.425 2944.00
10.4902 2936.00
10.5554 2840.00
10.6206 2887.00
10.6858 2843.00
10.751 2802.00
10.8162 2840.00
10.8814 2835.00
10.9466 2888.00
11.0118 2817.00
11.077 2680.00
11.1422 2824.00
11.2074 2711.00
11.2726 2800.00
11.3378 2696.00
11.403 2832.00
11.4682 2710.00
11.5334 2667.00
11.5986 2695.00
11.6638 2544.00
11.729 2720.00
11.7942 2512.00
11.8594 2533.00
11.9246 2550.00
11.9898 2630.00
12.055 2601.00
12.1202 2485.00
12.1854 2589.00
12.2506 2550.00
12.3158 2443.00
12.381 2489.00
12.4462 2498.00
12.5114 2524.00
12.5766 2519.00
12.6418 2400.00
12.707 2444.00
12.7722 2445.00
12.8374 2516.00
12.9026 2478.00
12.9678 2391.00
13.033 2404.00
13.0982 2474.00
13.1634 2350.00
13.2286 2410.00
13.2938 2474.00
13.359 2394.00
13.4242 2446.00
13.4894 2395.00
13.5546 2461.00
13.6198 2610.00
13.685 2678.00
13.7502 2829.00
13.8154 3287.00
13.8805 4077.00
13.9457 5082.00
14.0109 6761.00
14.0761 7237.00
14.1413 3944.00
14.2065 2621.00
14.2717 2574.00
14.3369 2354.00
14.4021 2492.00
14.4673 2327.00
14.5325 2374.00
14.5977 2359.00
14.6629 2335.00
14.7281 2285.00
14.7933 2336.00
14.8585 2443.00
14.9237 2392.00
14.9889 2318.00
15.0541 2347.00
15.1193 2405.00
15.1845 2354.00
15.2497 2350.00
15.3149 2346.00
15.3801 2356.00
15.4453 2328.00
15.5105 2415.00
15.5757 2296.00
15.6409 2247.00
15.7061 2372.00
15.7713 2302.00
15.8365 2292.00
15.9017 2310.00
15.9669 2340.00
16.0321 2308.00
16.0973 2309.00
16.1625 2268.00
16.2277 2261.00
16.2929 2230.00
16.3581 2259.00
16.4233 2269.00
16.4885 2319.00
16.5537 2238.00
16.6189 2359.00
16.6841 2349.00
16.7493 2245.00
16.8145 2253.00
16.8797 2390.00
16.9449 2298.00
17.0101 2120.00
17.0753 2331.00
17.1405 2259.00
17.2057 2263.00
17.2709 2244.00
17.3361 2210.00
17.4013 2273.00
17.4665 2266.00
17.5317 2150.00
17.5969 2401.00
17.6621 2308.00
17.7273 2299.00
17.7925 2350.00
17.8577 2189.00
17.9229 2154.00
17.9881 2221.00
18.0533 2248.00
18.1185 2298.00
18.1837 2184.00
18.2489 2156.00
18.3141 2173.00
18.3793 2227.00
18.4445 2154.00
18.5097 2275.00
18.5749 2133.00
18.6401 2234.00
18.7052 2271.00
18.7704 2210.00
18.8356 2184.00
18.9008 2111.00
18.966 2273.00
19.0312 2302.00
19.0964 2380.00
19.1616 2679.00
19.2268 2985.00
19.292 3620.00
19.3572 5036.00
19.4224 7713.00
19.4876 11887.00
19.5528 15068.00
19.618 9929.00
19.6832 4301.00
19.7484 3808.00
19.8136 4657.00
19.8788 7029.00
19.944 10590.00
20.0092 13108.00
20.0744 10065.00
20.1396 5292.00
20.2048 3362.00
20.27 2719.00
20.3352 2456.00
20.4004 2397.00
20.4656 2271.00
20.5308 2191.00
20.596 2191.00
20.6612 2223.00
20.7264 2140.00
20.7916 2102.00
20.8568 2208.00
20.922 2197.00
20.9872 2224.00
21.0524 2105.00
21.1176 2134.00
21.1828 2107.00
21.248 2130.00
21.3132 2083.00
21.3784 2145.00
21.4436 2168.00
21.5088 2248.00
21.574 2197.00
21.6392 2062.00
21.7044 2083.00
21.7696 2155.00
21.8348 2066.00
21.9 2056.00
21.9652 2064.00
22.0304 2070.00
22.0956 2111.00
22.1608 2142.00
22.226 2089.00
22.2912 2024.00
22.3564 2206.00
22.4216 2148.00
22.4868 2186.00
22.552 2249.00
22.6172 2222.00
22.6824 2133.00
22.7476 2210.00
22.8128 2345.00
22.878 2581.00
22.9432 2868.00
23.0084 3743.00
23.0736 5848.00
23.1388 10201.00
23.204 16077.00
23.2692 14939.00
23.3344 7312.00
23.3996 3490.00
23.4647 2522.00
23.5299 2384.00
23.5951 2290.00
23.6603 2205.00
23.7255 2194.00
23.7907 2157.00
23.8559 2072.00
23.9211 2115.00
23.9863 2114.00
24.0515 2017.00
24.1167 2026.00
24.1819 2072.00
24.2471 2318.00
24.3123 2414.00
24.3775 2577.00
24.4427 2377.00
24.5079 2133.00
24.5731 2098.00
24.6383 2103.00
24.7035 2142.00
24.7687 2268.00
24.8339 2200.00
24.8991 2119.00
24.9643 1987.00
25.0295 2077.00
25.0947 2041.00
25.1599 2010.00
25.2251 2069.00
25.2903 1994.00
25.3555 1919.00
25.4207 2011.00
25.4859 1926.00
25.5511 1937.00
25.6163 1988.00
25.6815 1951.00
25.7467 1992.00
25.8119 2016.00
25.8771 1999.00
25.9423 1992.00
26.0075 2263.00
26.0727 2488.00
26.1379 3245.00
26.2031 3395.00
26.2683 2608.00
26.3335 2034.00
26.3987 1896.00
26.4639 1957.00
26.5291 1996.00
26.5943 1908.00
26.6595 1838.00
26.7247 1888.00
26.7899 1922.00
26.8551 1936.00
26.9203 1959.00
26.9855 2007.00
27.0507 2029.00
27.1159 2015.00
27.1811 1964.00
27.2463 1932.00
27.3115 1884.00
27.3767 2010.00
27.4419 2118.00
27.5071 2182.00
27.5723 2134.00
27.6375 2244.00
27.7027 2411.00
27.7679 2938.00
27.8331 4464.00
27.8983 7601.00
27.9635 10810.00
28.0287 9020.00
28.0939 4823.00
28.1591 2874.00
28.2243 2373.00
28.2894 2347.00
28.3546 2670.00
28.4198 3390.00
28.485 4225.00
28.5502 4254.00
28.6154 2945.00
28.6806 2149.00
28.7458 2069.00
28.811 2056.00
28.8762 1956.00
28.9414 1891.00
29.0066 1833.00
29.0718 1934.00
29.137 1834.00
29.2022 1944.00
29.2674 1875.00
29.3326 1919.00
29.3978 1816.00
29.463 1935.00
29.5282 1905.00
29.5934 1949.00
29.6586 1965.00
29.7238 1906.00
29.789 1980.00
29.8542 1854.00
29.9194 1922.00
29.9846 2016.00
30.0498 1935.00
30.115 1986.00
30.1802 1880.00
30.2454 1993.00
30.3106 2010.00
30.3758 2019.00
30.441 2135.00
30.5062 2169.00
30.5714 2390.00
30.6366 2657.00
30.7018 3256.00
30.767 4811.00
30.8322 7710.00
30.8974 12456.00
30.9626 20296.00
31.0278 24359.00
31.093 15387.00
31.1582 6493.00
31.2234 3166.00
31.2886 2582.00
31.3538 2431.00
31.419 2251.00
31.4842 2182.00
31.5494 2309.00
31.6146 2472.00
31.6798 2875.00
31.745 3619.00
31.8102 3511.00
31.8754 2779.00
31.9406 2248.00
32.0058 2016.00
32.071 1995.00
32.1362 1914.00
32.2014 1792.00
32.2666 1809.00
32.3318 1653.00
32.397 1780.00
32.4622 1785.00
32.5274 1737.00
32.5926 1756.00
32.6578 1799.00
32.723 1833.00
32.7882 1819.00
32.8534 1811.00
32.9186 1879.00
32.9838 1788.00
33.0489 1747.00
33.1141 1725.00
33.1793 1853.00
33.2445 1758.00
33.3097 1778.00
33.3749 1727.00
33.4401 1861.00
33.5053 1890.00
33.5705 1846.00
33.6357 2005.00
33.7009 1883.00
33.7661 1855.00
33.8313 1832.00
33.8965 1813.00
33.9617 1793.00
34.0269 1883.00
34.0921 1814.00
34.1573 1941.00
34.2225 2102.00
34.2877 2447.00
34.3529 3301.00
34.4181 4694.00
34.4833 6168.00
34.5485 6397.00
34.6137 6670.00
34.6789 8194.00
34.7441 10105.00
34.8093 9884.00
34.8745 7231.00
34.9397 4611.00
35.0049 3053.00
35.0701 2433.00
35.1353 2156.00
35.2005 2108.00
35.2657 2242.00
35.3309 2529.00
35.3961 2314.00
35.4613 2115.00
35.5265 1991.00
35.5917 2033.00
35.6569 1979.00
35.7221 1877.00
35.7873 1820.00
35.8525 1715.00
35.9177 1687.00
35.9829 1699.00
36.0481 1729.00
36.1133 1658.00
36.1785 1830.00
36.2437 1751.00
36.3089 1715.00
36.3741 1617.00
36.4393 1588.00
36.5045 1704.00
36.5697 1691.00
36.6349 1743.00
36.7001 1663.00
36.7653 1708.00
36.8305 1642.00
36.8957 1694.00
36.9609 1645.00
37.0261 1662.00
37.0913 1692.00
37.1565 1726.00
37.2217 1838.00
37.2869 1684.00
37.3521 1704.00
37.4173 1675.00
37.4825 1597.00
37.5477 1685.00
37.6129 1644.00
37.6781 1688.00
37.7433 1598.00
37.8085 1632.00
37.8736 1646.00
37.9388 1611.00
38.004 1672.00
38.0692 1717.00
38.1344 1633.00
38.1996 1713.00
38.2648 1621.00
38.33 1593.00
38.3952 1656.00
38.4604 1658.00
38.5256 1619.00
38.5908 1647.00
38.656 1610.00
38.7212 1694.00
38.7864 1724.00
38.8516 1703.00
38.9168 1828.00
38.982 1687.00
39.0472 1707.00
39.1124 1631.00
39.1776 1733.00
39.2428 1961.00
39.308 2036.00
39.3732 1964.00
39.4384 1890.00
39.5036 1797.00
39.5688 1558.00
39.634 1625.00
39.6992 1660.00
39.7644 1648.00
39.8296 1645.00
39.8948 1589.00
39.96 1725.00
40.0252 1717.00
40.0904 1821.00
40.1556 1796.00
40.2208 1849.00
40.286 1931.00
40.3512 1904.00
40.4164 1867.00
40.4816 1748.00
40.5468 1778.00
40.612 1749.00
40.6772 1714.00
40.7424 1649.00
40.8076 1724.00
40.8728 1836.00
40.938 2114.00
41.0032 2271.00
41.0684 2465.00
41.1336 2286.00
41.1988 2123.00
41.264 2014.00
41.3292 2265.00
41.3944 2500.00
41.4596 2525.00
41.5248 2391.00
41.59 2162.00
41.6552 1991.00
41.7204 1929.00
41.7856 1806.00
41.8508 1812.00
41.916 1826.00
41.9812 2114.00
42.0464 2384.00
42.1116 2560.00
42.1768 2620.00
42.242 3060.00
42.3072 3456.00
42.3724 3320.00
42.4376 2822.00
42.5028 2260.00
42.568 1989.00
42.6332 1988.00
42.6983 2032.00
42.7635 2154.00
42.8287 2181.00
42.8939 2013.00
42.9591 1944.00
43.0243 1730.00
43.0895 1703.00
43.1547 1639.00
43.2199 1630.00
43.2851 1643.00
43.3503 1626.00
43.4155 1610.00
43.4807 1546.00
43.5459 1561.00
43.6111 1674.00
43.6763 1597.00
43.7415 1586.00
43.8067 1680.00
43.8719 1619.00
43.9371 1637.00
44.0023 1644.00
44.0675 1651.00
44.1327 1692.00
44.1979 1889.00
44.2631 2117.00
44.3283 2522.00
44.3935 2933.00
44.4587 2567.00
44.5239 2262.00
44.5891 1815.00
44.6543 1817.00
44.7195 1766.00
44.7847 1857.00
44.8499 1970.00
44.9151 2516.00
44.9803 3073.00
45.0455 3659.00
45.1107 3370.00
45.1759 3006.00
45.2411 2324.00
45.3063 2055.00
45.3715 1832.00
45.4367 1737.00
45.5019 1708.00
45.5671 1707.00
45.6323 1728.00
45.6975 1809.00
45.7627 1748.00
45.8279 1865.00
45.8931 1799.00
45.9583 1841.00
46.0235 2016.00
46.0887 2149.00
46.1539 2519.00
46.2191 3007.00
46.2843 3152.00
46.3495 2729.00
46.4147 2351.00
46.4799 2032.00
46.5451 1838.00
46.6103 1821.00
46.6755 1921.00
46.7407 1891.00
46.8059 2055.00
46.8711 2283.00
46.9363 3286.00
47.0015 4810.00
47.0667 6786.00
47.1319 7213.00
47.1971 5952.00
47.2623 4446.00
47.3275 3300.00
47.3927 2651.00
47.4579 2541.00
47.523 2514.00
47.5882 2439.00
47.6534 2242.00
47.7186 2199.00
47.7838 2063.00
47.849 2153.00
47.9142 2296.00
47.9794 2220.00
48.0446 2166.00
48.1098 2145.00
48.175 1904.00
48.2402 1841.00
48.3054 1705.00
48.3706 1610.00
48.4358 1675.00
48.501 1654.00
48.5662 1671.00
48.6314 1568.00
48.6966 1667.00
48.7618 1614.00
48.827 1621.00
48.8922 1590.00
48.9574 1584.00
49.0226 1550.00
49.0878 1576.00
49.153 1626.00
49.2182 1799.00
49.2834 1669.00
49.3486 1683.00
49.4138 1896.00
49.479 1985.00
49.5442 2216.00
49.6094 2185.00
49.6746 2213.00
49.7398 2020.00
49.805 1769.00
49.8702 1673.00
49.9354 1655.00
50.0006 1692.00
50.0658 1628.00
50.131 1656.00
50.1962 1696.00
50.2614 1751.00
50.3266 2088.00
50.3918 2498.00
50.457 2541.00
50.5222 2661.00
50.5874 3148.00
50.6526 3953.00
50.7178 5320.00
50.783 5792.00
50.8482 4806.00
50.9134 4223.00
50.9786 2917.00
51.0438 2340.00
51.109 1899.00
51.1742 1716.00
51.2394 1780.00
51.3046 1576.00
51.3698 1618.00
51.435 1757.00
51.5002 1750.00
51.5654 1724.00
51.6306 1741.00
51.6958 1671.00
51.761 1629.00
51.8262 1695.00
51.8914 1685.00
51.9566 1747.00
52.0218 2060.00
52.087 2086.00
52.1522 1974.00
52.2174 1876.00
52.2826 1823.00
52.3477 1679.00
52.4129 1677.00
52.4781 1570.00
52.5433 1618.00
52.6085 1603.00
52.6737 1558.00
52.7389 1698.00
52.8041 1577.00
52.8693 1544.00
52.9345 1579.00
52.9997 1683.00
53.0649 1586.00
53.1301 1630.00
53.1953 1724.00
53.2605 1804.00
53.3257 1982.00
53.3909 1959.00
53.4561 2123.00
53.5213 1973.00
53.5865 2002.00
53.6517 2087.00
53.7169 2180.00
53.7821 2777.00
53.8473 3087.00
53.9125 3685.00
53.9777 3880.00
54.0429 4284.00
54.1081 4307.00
54.1733 3800.00
54.2385 3468.00
54.3037 3050.00
54.3689 2708.00
54.4341 2333.00
54.4993 1998.00
54.5645 1929.00
54.6297 1838.00
54.6949 1752.00
54.7601 1740.00
54.8253 1704.00
54.8905 1648.00
54.9557 1577.00
55.0209 1629.00
55.0861 1571.00
55.1513 1684.00
55.2165 1708.00
55.2817 1672.00
55.3469 1850.00
55.4121 1782.00
55.4773 1936.00
55.5425 2041.00
55.6077 2006.00
55.6729 1982.00
55.7381 1873.00
55.8033 1871.00
55.8685 1856.00
55.9337 1760.00
55.9989 1664.00
56.0641 1647.00
56.1293 1657.00
56.1945 1687.00
56.2597 1674.00
56.3249 1680.00
56.3901 1581.00
56.4553 1638.00
56.5205 1592.00
56.5857 1583.00
56.6509 1531.00
56.7161 1559.00
56.7813 1528.00
56.8465 1506.00
56.9117 1546.00
56.9769 1537.00
57.042 1552.00
57.1073 1607.00
57.1724 1590.00
57.2376 1627.00
57.3028 1654.00
57.368 1854.00
57.4332 1921.00
57.4984 1868.00
57.5636 1810.00
57.6288 1873.00
57.694 1797.00
57.7592 1823.00
57.8244 1887.00
57.8896 1884.00
57.9548 1881.00
58.02 1828.00
58.0852 1805.00
58.1504 1621.00
58.2156 1682.00
58.2808 1628.00
58.346 1639.00
58.4112 1663.00
58.4764 1670.00
58.5416 1673.00
58.6068 1720.00
58.672 1737.00
58.7372 1806.00
58.8024 2134.00
58.8676 2643.00
58.9328 3219.00
58.998 3351.00
59.0632 2936.00
59.1284 2577.00
59.1936 2346.00
59.2588 1926.00
59.324 1850.00
59.3892 1915.00
59.4544 2154.00
59.5196 2459.00
59.5848 3162.00
59.65 3604.00
59.7152 3724.00
59.7804 3389.00
59.8456 3041.00
59.9108 2691.00
59.976 2301.00
60.0412 2139.00
60.1064 2115.00
60.1716 2104.00
60.2368 2136.00
60.302 2275.00
60.3672 2471.00
60.4324 2732.00
60.4976 2421.00
60.5628 2224.00
60.628 1910.00
60.6932 1800.00
60.7584 1578.00
60.8236 1662.00
60.8888 1529.00
60.954 1490.00
61.0192 1566.00
61.0844 1477.00
61.1496 1570.00
61.2148 1687.00
61.28 1638.00
61.3452 1741.00
61.4104 1733.00
61.4756 1832.00
61.5408 1931.00
61.606 2128.00
61.6712 2419.00
61.7364 2461.00
61.8016 2741.00
61.8667 2812.00
61.932 2680.00
61.9971 2770.00
62.0623 2632.00
62.1275 2428.00
62.1927 2213.00
62.2579 2081.00
62.3231 1999.00
62.3883 1798.00
62.4535 1717.00
62.5187 1763.00
62.5839 1641.00
62.6491 1765.00
62.7143 1872.00
62.7795 2086.00
62.8447 2028.00
62.9099 1980.00
62.9751 1917.00
63.0403 1880.00
63.1055 1871.00
63.1707 1767.00
63.2359 1724.00
63.3011 1722.00
63.3663 1577.00
63.4315 1567.00
63.4967 1631.00
63.5619 1453.00
63.6271 1518.00
63.6923 1450.00
63.7575 1439.00
63.8227 1531.00
63.8879 1499.00
63.9531 1486.00
64.0183 1541.00
64.0835 1509.00
64.1487 1596.00
64.2139 1544.00
64.2791 1517.00
64.3443 1548.00
64.4095 1572.00
64.4747 1487.00
64.5399 1516.00
64.6051 1542.00
64.6703 1705.00
64.7355 1641.00
64.8007 1682.00
64.8659 1646.00
64.9311 1505.00
64.9963 1506.00
65.0615 1534.00
65.1267 1592.00
65.1919 1597.00
65.2571 1708.00
65.3223 1809.00
65.3875 2001.00
65.4527 2256.00
65.5179 2423.00
65.5831 2429.00
65.6483 2223.00
65.7135 2212.00
65.7787 2007.00
65.8439 1882.00
65.9091 1789.00
65.9743 1762.00
66.0395 1663.00
66.1047 1713.00
66.1699 1763.00
66.2351 1747.00
66.3003 1854.00
66.3655 1899.00
66.4307 2072.00
66.4959 2342.00
66.561 2265.00
66.6263 2042.00
66.6915 2086.00
66.7566 1908.00
66.8218 1912.00
66.887 1794.00
66.9522 1682.00
67.0174 1742.00
67.0826 1746.00
67.1478 1799.00
67.213 1733.00
67.2782 1803.00
67.3434 1639.00
67.4086 1588.00
67.4738 1584.00
67.539 1533.00
67.6042 1477.00
67.6694 1439.00
67.7346 1421.00
67.7998 1485.00
67.865 1458.00
67.9302 1289.00
67.9954 1473.00
68.0606 1409.00
68.1258 1487.00
68.191 1482.00
68.2562 1560.00
68.3214 1459.00
68.3866 1494.00
68.4518 1463.00
68.517 1467.00
68.5822 1457.00
68.6474 1515.00
68.7126 1435.00
68.7778 1495.00
68.843 1525.00
68.9082 1499.00
68.9734 1642.00
69.0386 1827.00
69.1038 1993.00
69.169 1934.00
69.2342 2108.00
69.2994 2019.00
69.3646 1917.00
69.4298 1907.00
69.495 1795.00
69.5602 1629.00
69.6254 1633.00
69.6906 1575.00
69.7558 1449.00
69.821 1517.00
69.8862 1554.00
69.9514 1577.00
70.0166 1506.00
70.0818 1557.00
70.147 1572.00
70.2122 1617.00
70.2774 1708.00
70.3426 1783.00
70.4078 1774.00
70.473 1722.00
70.5382 1555.00
70.6034 1527.00
70.6686 1570.00
70.7338 1505.00
70.799 1500.00
70.8642 1463.00
70.9294 1359.00
70.9946 1449.00
71.0598 1375.00
71.125 1464.00
71.1902 1459.00
71.2554 1454.00
71.3205 1501.00
71.3858 1546.00
71.451 1442.00
71.5162 1463.00
71.5813 1448.00
71.6465 1407.00
71.7117 1457.00
71.7769 1402.00
71.8421 1417.00
71.9073 1429.00
71.9725 1472.00
72.0377 1460.00
72.1029 1429.00
72.1681 1431.00
72.2333 1563.00
72.2985 1481.00
72.3637 1483.00
72.4289 1551.00
72.4941 1612.00
72.5593 1782.00
72.6245 1825.00
72.6897 1960.00
72.7549 2075.00
72.8201 2102.00
72.8853 2093.00
72.9505 2120.00
73.0157 2008.00
73.0809 1955.00
73.1461 1850.00
73.2113 1793.00
73.2765 1748.00
73.3417 1635.00
73.4069 1606.00
73.4721 1549.00
73.5373 1568.00
73.6025 1611.00
73.6677 1633.00
73.7329 1756.00
73.7981 1767.00
73.8633 1737.00
73.9285 1842.00
73.9937 1712.00
74.0589 1566.00
74.1241 1591.00
74.1893 1488.00
74.2545 1545.00
74.3197 1474.00
74.3849 1490.00
74.4501 1498.00
74.5153 1625.00
74.5805 1498.00
74.6457 1540.00
74.7109 1538.00
74.7761 1551.00
74.8413 1601.00
74.9065 1682.00
74.9717 1623.00
75.0369 1591.00
75.1021 1458.00
75.1673 1461.00
75.2325 1553.00
75.2977 1499.00
75.3629 1409.00
75.4281 1473.00
75.4933 1412.00
75.5585 1520.00
75.6237 1381.00
75.6889 1423.00
75.7541 1503.00
75.8193 1504.00
75.8845 1506.00
75.9497 1482.00
76.0149 1614.00
76.0801 1524.00
76.1452 1584.00
76.2104 1608.00
76.2756 1649.00
76.3409 1638.00
76.406 1679.00
76.4712 1703.00
76.5364 1639.00
76.6016 1605.00
76.6668 1571.00
76.732 1626.00
76.7972 1463.00
76.8624 1513.00
76.9276 1508.00
76.9928 1625.00
77.058 1707.00
77.1232 1643.00
77.1884 1699.00
77.2536 1663.00
77.3188 1638.00
77.384 1556.00
77.4492 1525.00
77.5144 1523.00
77.5796 1518.00
77.6448 1556.00
77.71 1606.00
77.7752 1557.00
77.8404 1510.00
77.9056 1502.00
77.9708 1470.00
78.036 1481.00
78.1012 1457.00
78.1664 1401.00
78.2316 1372.00
78.2968 1455.00
78.362 1337.00
78.4272 1425.00
78.4924 1440.00
78.5576 1433.00
78.6228 1473.00
78.688 1449.00
78.7532 1461.00
78.8184 1391.00
78.8836 1450.00
78.9488 1392.00
79.014 1399.00
79.0792 1395.00
79.1444 1438.00
79.2096 1487.00
79.2748 1442.00
79.34 1494.00
79.4052 1603.00
79.4704 1574.00
79.5356 1583.00
79.6008 1664.00
79.666 1711.00
79.7312 1608.00
79.7964 1624.00
79.8616 1558.00
79.9268 1473.00
79.992 1459.00
80.0572 1374.00
80.1224 1380.00
80.1876 1492.00
80.2528 1429.00
80.318 1471.00
80.3832 1526.00
80.4484 1521.00
80.5136 1495.00
80.5788 1611.00
80.644 1536.00
80.7092 1611.00
80.7744 1686.00
80.8396 1698.00
80.9048 1733.00
80.9699 1734.00
81.0351 1887.00
81.1003 1854.00
81.1655 1903.00
81.2307 1878.00
81.2959 1867.00
81.3611 1837.00
81.4263 1721.00
81.4915 1752.00
81.5567 1714.00
81.6219 1608.00
81.6871 1518.00
81.7523 1683.00
81.8175 1590.00
81.8827 1529.00
81.9479 1587.00
82.0131 1502.00
82.0783 1468.00
82.1435 1419.00
82.2087 1497.00
82.2739 1422.00
82.3391 1430.00
82.4043 1456.00
82.4695 1512.00
82.5347 1546.00
82.5999 1504.00
82.6651 1541.00
82.7303 1514.00
82.7955 1522.00
82.8607 1588.00
82.9259 1582.00
82.9911 1538.00
83.0563 1581.00
83.1215 1629.00
83.1867 1562.00
83.2519 1574.00
83.3171 1584.00
83.3823 1548.00
83.4475 1532.00
83.5127 1514.00
83.5779 1383.00
83.6431 1568.00
83.7083 1459.00
83.7735 1488.00
83.8387 1370.00
83.9039 1431.00
83.9691 1451.00
84.0343 1440.00
84.0995 1468.00
84.1647 1384.00
84.2299 1419.00
84.2951 1484.00
84.3603 1420.00
84.4255 1442.00
84.4907 1511.00
84.5559 1517.00
84.6211 1495.00
84.6863 1403.00
84.7515 1495.00
84.8167 1444.00
84.8819 1476.00
84.9471 1384.00
85.0123 1521.00
85.0775 1456.00
85.1427 1467.00
85.2079 1471.00
85.2731 1425.00
85.3383 1509.00
85.4035 1451.00
85.4687 1414.00
85.5339 1431.00
85.5991 1482.00
85.6643 1463.00
85.7295 1518.00
85.7946 1434.00
85.8598 1497.00
85.925 1556.00
85.9903 1558.00
86.0554 1555.00
86.1206 1564.00
86.1858 1651.00
86.251 1644.00
86.3162 1649.00
86.3814 1639.00
86.4466 1563.00
86.5118 1616.00
86.577 1559.00
86.6422 1569.00
86.7074 1618.00
86.7726 1505.00
86.8378 1508.00
86.903 1608.00
86.9682 1549.00
87.0334 1620.00
87.0986 1759.00
87.1638 1750.00
87.229 1916.00
87.2942 2026.00
87.3594 2054.00
87.4246 2001.00
87.4898 2057.00
87.555 1831.00
87.6202 1799.00
87.6854 1677.00
87.7506 1570.00
87.8158 1651.00
87.881 1573.00
87.9462 1522.00
88.0114 1536.00
88.0766 1437.00
88.1418 1526.00
88.207 1453.00
88.2722 1484.00
88.3374 1521.00
88.4026 1432.00
88.4678 1456.00
88.533 1457.00
88.5982 1512.00
88.6634 1399.00
88.7286 1436.00
88.7938 1471.00
88.859 1438.00
88.9242 1435.00
88.9894 1425.00
89.0546 1459.00
89.1198 1503.00
89.185 1467.00
89.2502 1627.00
89.3154 1589.00
89.3806 1531.00
89.4458 1640.00
89.511 1689.00
89.5762 1687.00
89.6414 1684.00
89.7066 1692.00
89.7718 1722.00
89.837 1592.00
89.9022 1579.00
89.9674 1648.00
90.0326 1548.00
90.0978 1442.00
90.163 1481.00
90.2282 1463.00
90.2934 1465.00
90.3586 1479.00
90.4238 1463.00
90.489 1472.00
90.5542 1427.00
90.6193 1459.00
90.6845 1431.00
90.7497 1473.00
90.8149 1446.00
90.8801 1303.00
90.9453 1444.00
91.0105 1530.00
91.0757 1515.00
91.1409 1651.00
91.2061 1625.00
91.2713 1568.00
91.3365 1604.00
91.4017 1557.00
91.4669 1574.00
91.5321 1602.00
91.5973 1561.00
91.6625 1533.00
91.7277 1588.00
91.7929 1539.00
91.8581 1628.00
91.9233 1479.00
91.9885 1548.00
92.0537 1560.00
92.1189 1523.00
92.1841 1483.00
92.2493 1497.00
92.3145 1566.00
92.3797 1408.00
92.4449 1507.00
92.5101 1479.00
92.5753 1464.00
92.6405 1591.00
92.7057 1548.00
92.7709 1556.00
92.8361 1650.00
92.9013 1644.00
92.9665 1932.00
93.0317 1829.00
93.0969 1777.00
93.1621 1705.00
93.2273 1694.00
93.2925 1660.00
93.3577 1718.00
93.4229 1637.00
93.4881 1499.00
93.5533 1510.00
93.6185 1559.00
93.6837 1579.00
93.7489 1600.00
93.8141 1613.00
93.8793 1604.00
93.9445 1665.00
94.0097 1703.00
94.0749 1786.00
94.1401 1733.00
94.2053 1572.00
94.2705 1511.00
94.3357 1642.00
94.4009 1567.00
94.4661 1517.00
94.5313 1511.00
94.5965 1480.00
94.6617 1440.00
94.7269 1420.00
94.7921 1423.00
94.8573 1390.00
94.9225 1488.00
94.9877 1395.00
95.0529 1345.00
95.1181 1437.00
95.1833 1433.00
95.2485 1449.00
95.3137 1485.00
95.3789 1467.00
95.444 1410.00
95.5092 1333.00
95.5744 1388.00
95.6396 1347.00
95.7048 1424.00
95.77 1492.00
95.8352 1477.00
95.9004 1469.00
95.9656 1405.00
96.0308 1491.00
96.096 1510.00
96.1612 1434.00
96.2264 1518.00
96.2916 1513.00
96.3568 1431.00
96.422 1554.00
96.4872 1516.00
96.5524 1459.00
96.6176 1524.00
96.6828 1520.00
96.748 1537.00
96.8132 1404.00
96.8784 1465.00
96.9436 1590.00
97.0088 1443.00
97.074 1509.00
97.1392 1587.00
97.2044 1454.00
97.2696 1512.00
97.3348 1547.00
97.4 1599.00
97.4652 1562.00
97.5304 1514.00
97.5956 1521.00
97.6608 1589.00
97.726 1543.00
97.7912 1418.00
97.8564 1526.00
97.9216 1452.00
97.9868 1442.00
98.052 1478.00
98.1172 1395.00
98.1824 1420.00
98.2476 1466.00
98.3128 1335.00
98.378 1314.00
98.4432 1381.00
98.5084 1396.00
98.5736 1382.00
98.6388 1425.00
98.704 1377.00
98.7692 1373.00
98.8344 1513.00
98.8996 1406.00
98.9648 1413.00
99.03 1424.00
99.0952 1499.00
99.1604 1446.00
99.2256 1515.00
99.2908 1552.00
99.356 1531.00
99.4212 1488.00
99.4864 1550.00
99.5516 1559.00
99.6168 1625.00
99.682 1581.00
99.7472 1521.00
99.8124 1467.00
99.8776 1556.00
99.9428 1484.00
100.008 1469.00
100.073 1473.00
100.095 1565.00