File: data/xrd_creation/results/NSC_30.xy
9.903433 2972.00
9.968632 2961.00
10.0338 3018.00
10.099 3026.00
10.1642 2856.00
10.2294 2978.00
10.2946 2871.00
10.3598 2892.00
10.425 3011.00
10.4902 2828.00
10.5554 2883.00
10.6206 2872.00
10.6858 2801.00
10.751 2817.00
10.8162 2858.00
10.8814 2938.00
10.9466 2789.00
11.0118 2772.00
11.077 2757.00
11.1422 2788.00
11.2074 2757.00
11.2726 2775.00
11.3378 2604.00
11.403 2777.00
11.4682 2734.00
11.5334 2624.00
11.5986 2604.00
11.6638 2624.00
11.729 2573.00
11.7942 2588.00
11.8594 2503.00
11.9246 2641.00
11.9898 2536.00
12.055 2666.00
12.1202 2528.00
12.1854 2679.00
12.2506 2744.00
12.3158 2747.00
12.381 2955.00
12.4462 2928.00
12.5114 2744.00
12.5766 2528.00
12.6418 2465.00
12.707 2448.00
12.7722 2355.00
12.8374 2417.00
12.9026 2452.00
12.9678 2462.00
13.033 2453.00
13.0982 2382.00
13.1634 2440.00
13.2286 2371.00
13.2938 2380.00
13.359 2376.00
13.4242 2415.00
13.4894 2385.00
13.5546 2477.00
13.6198 2381.00
13.685 2428.00
13.7502 2386.00
13.8154 2553.00
13.8805 2743.00
13.9457 2878.00
14.0109 3224.00
14.0761 3656.00
14.1413 4360.00
14.2065 4751.00
14.2717 4179.00
14.3369 2880.00
14.4021 2452.00
14.4673 2313.00
14.5325 2279.00
14.5977 2387.00
14.6629 2269.00
14.7281 2231.00
14.7933 2264.00
14.8585 2273.00
14.9237 2332.00
14.9889 2299.00
15.0541 2278.00
15.1193 2235.00
15.1845 2356.00
15.2497 2267.00
15.3149 2301.00
15.3801 2262.00
15.4453 2173.00
15.5105 2310.00
15.5757 2249.00
15.6409 2254.00
15.7061 2296.00
15.7713 2218.00
15.8365 2278.00
15.9017 2273.00
15.9669 2297.00
16.0321 2219.00
16.0973 2267.00
16.1625 2250.00
16.2277 2244.00
16.2929 2262.00
16.3581 2246.00
16.4233 2311.00
16.4885 2242.00
16.5537 2226.00
16.6189 2204.00
16.6841 2108.00
16.7493 2230.00
16.8145 2291.00
16.8797 2163.00
16.9449 2185.00
17.0101 2209.00
17.0753 2231.00
17.1405 2127.00
17.2057 2139.00
17.2709 2187.00
17.3361 2140.00
17.4013 2112.00
17.4665 2092.00
17.5317 2273.00
17.5969 2303.00
17.6621 2235.00
17.7273 2255.00
17.7925 2241.00
17.8577 2137.00
17.9229 2151.00
17.9881 2120.00
18.0533 2139.00
18.1185 2064.00
18.1837 2080.00
18.2489 2085.00
18.3141 2121.00
18.3793 2198.00
18.4445 2199.00
18.5097 2172.00
18.5749 2133.00
18.6401 2181.00
18.7052 2026.00
18.7704 2156.00
18.8356 2062.00
18.9008 2042.00
18.966 2063.00
19.0312 2134.00
19.0964 2133.00
19.1616 2272.00
19.2268 2351.00
19.292 2419.00
19.3572 2884.00
19.4224 3380.00
19.4876 4661.00
19.5528 6697.00
19.618 9431.00
19.6832 10910.00
19.7484 8773.00
19.8136 4458.00
19.8788 2953.00
19.944 2705.00
20.0092 3008.00
20.0744 3501.00
20.1396 4677.00
20.2048 6503.00
20.27 8690.00
20.3352 10266.00
20.4004 10814.00
20.4656 7964.00
20.5308 4003.00
20.596 2572.00
20.6612 2337.00
20.7264 2244.00
20.7916 2251.00
20.8568 2165.00
20.922 2235.00
20.9872 2181.00
21.0524 2138.00
21.1176 2145.00
21.1828 2134.00
21.248 2144.00
21.3132 2084.00
21.3784 2114.00
21.4436 2068.00
21.5088 2038.00
21.574 2169.00
21.6392 2111.00
21.7044 2198.00
21.7696 2136.00
21.8348 2304.00
21.9 2370.00
21.9652 2504.00
22.0304 2337.00
22.0956 2521.00
22.1608 2519.00
22.226 2381.00
22.2912 2392.00
22.3564 2445.00
22.4216 2303.00
22.4868 2286.00
22.552 2190.00
22.6172 2052.00
22.6824 2064.00
22.7476 2115.00
22.8128 2149.00
22.878 2189.00
22.9432 2208.00
23.0084 2538.00
23.0736 2924.00
23.1388 3206.00
23.204 3176.00
23.2692 3490.00
23.3344 4447.00
23.3996 6430.00
23.4647 9037.00
23.5299 10991.00
23.5951 11247.00
23.6603 7620.00
23.7255 3712.00
23.7907 2513.00
23.8559 2108.00
23.9211 2286.00
23.9863 2062.00
24.0515 2089.00
24.1167 2069.00
24.1819 2186.00
24.2471 2312.00
24.3123 2514.00
24.3775 2330.00
24.4427 1970.00
24.5079 2014.00
24.5731 2025.00
24.6383 2085.00
24.7035 2217.00
24.7687 2208.00
24.8339 2026.00
24.8991 1994.00
24.9643 1820.00
25.0295 1865.00
25.0947 1869.00
25.1599 1799.00
25.2251 1858.00
25.2903 1750.00
25.3555 1816.00
25.4207 1814.00
25.4859 1812.00
25.5511 1822.00
25.6163 1811.00
25.6815 1922.00
25.7467 1741.00
25.8119 1833.00
25.8771 1837.00
25.9423 1845.00
26.0075 1801.00
26.0727 1781.00
26.1379 1754.00
26.2031 1851.00
26.2683 1729.00
26.3335 1742.00
26.3987 1771.00
26.4639 1763.00
26.5291 1810.00
26.5943 1747.00
26.6595 1813.00
26.7247 1756.00
26.7899 1832.00
26.8551 1815.00
26.9203 1761.00
26.9855 1855.00
27.0507 1897.00
27.1159 1888.00
27.1811 1819.00
27.2463 1719.00
27.3115 1770.00
27.3767 1844.00
27.4419 1840.00
27.5071 1782.00
27.5723 1764.00
27.6375 1769.00
27.7027 1838.00
27.7679 1868.00
27.8331 1896.00
27.8983 1959.00
27.9635 2085.00
28.0287 2241.00
28.0939 2919.00
28.1591 3970.00
28.2243 5568.00
28.2894 7413.00
28.3546 8898.00
28.4198 9695.00
28.485 7234.00
28.5502 4236.00
28.6154 2665.00
28.6806 2141.00
28.7458 1919.00
28.811 1921.00
28.8762 1803.00
28.9414 1854.00
29.0066 1715.00
29.0718 1699.00
29.137 1709.00
29.2022 1735.00
29.2674 1764.00
29.3326 1731.00
29.3978 1794.00
29.463 1654.00
29.5282 1725.00
29.5934 1795.00
29.6586 1807.00
29.7238 1743.00
29.789 1802.00
29.8542 1820.00
29.9194 1821.00
29.9846 1865.00
30.0498 1793.00
30.115 1820.00
30.1802 1793.00
30.2454 1837.00
30.3106 1904.00
30.3758 1886.00
30.441 1807.00
30.5062 1817.00
30.5714 1915.00
30.6366 1901.00
30.7018 1984.00
30.767 2103.00
30.8322 2108.00
30.8974 2296.00
30.9626 2633.00
31.0278 3531.00
31.093 5153.00
31.1582 7806.00
31.2234 10966.00
31.2886 13469.00
31.3538 12671.00
31.419 8607.00
31.4842 5262.00
31.5494 3891.00
31.6146 3560.00
31.6798 3812.00
31.745 4085.00
31.8102 3360.00
31.8754 2418.00
31.9406 1985.00
32.0058 1834.00
32.071 1769.00
32.1362 1739.00
32.2014 1635.00
32.2666 1733.00
32.3318 1600.00
32.397 1685.00
32.4622 1643.00
32.5274 1649.00
32.5926 1688.00
32.6578 1647.00
32.723 1599.00
32.7882 1634.00
32.8534 1619.00
32.9186 1584.00
32.9838 1601.00
33.0489 1506.00
33.1141 1570.00
33.1793 1592.00
33.2445 1627.00
33.3097 1667.00
33.3749 1580.00
33.4401 1621.00
33.5053 1626.00
33.5705 1690.00
33.6357 1751.00
33.7009 1747.00
33.7661 1900.00
33.8313 1976.00
33.8965 1892.00
33.9617 1762.00
34.0269 1668.00
34.0921 1882.00
34.1573 2096.00
34.2225 2492.00
34.2877 2929.00
34.3529 2765.00
34.4181 2669.00
34.4833 2250.00
34.5485 2138.00
34.6137 2071.00
34.6789 2216.00
34.7441 2498.00
34.8093 2597.00
34.8745 2899.00
34.9397 3174.00
35.0049 3724.00
35.0701 4070.00
35.1353 4355.00
35.2005 4120.00
35.2657 3884.00
35.3309 4054.00
35.3961 4486.00
35.4613 5138.00
35.5265 5537.00
35.5917 4555.00
35.6569 3284.00
35.7221 2336.00
35.7873 1852.00
35.8525 1666.00
35.9177 1693.00
35.9829 1660.00
36.0481 1642.00
36.1133 1681.00
36.1785 1613.00
36.2437 1616.00
36.3089 1588.00
36.3741 1579.00
36.4393 1486.00
36.5045 1544.00
36.5697 1513.00
36.6349 1558.00
36.7001 1449.00
36.7653 1548.00
36.8305 1545.00
36.8957 1456.00
36.9609 1472.00
37.0261 1520.00
37.0913 1501.00
37.1565 1504.00
37.2217 1502.00
37.2869 1458.00
37.3521 1486.00
37.4173 1532.00
37.4825 1545.00
37.5477 1423.00
37.6129 1492.00
37.6781 1456.00
37.7433 1442.00
37.8085 1353.00
37.8736 1460.00
37.9388 1460.00
38.004 1536.00
38.0692 1434.00
38.1344 1449.00
38.1996 1485.00
38.2648 1480.00
38.33 1477.00
38.3952 1485.00
38.4604 1489.00
38.5256 1466.00
38.5908 1454.00
38.656 1507.00
38.7212 1563.00
38.7864 1633.00
38.8516 1630.00
38.9168 1601.00
38.982 1475.00
39.0472 1433.00
39.1124 1375.00
39.1776 1449.00
39.2428 1504.00
39.308 1487.00
39.3732 1529.00
39.4384 1597.00
39.5036 1631.00
39.5688 1872.00
39.634 2030.00
39.6992 2205.00
39.7644 1946.00
39.8296 1776.00
39.8948 1464.00
39.96 1487.00
40.0252 1413.00
40.0904 1343.00
40.1556 1429.00
40.2208 1394.00
40.286 1447.00
40.3512 1444.00
40.4164 1477.00
40.4816 1472.00
40.5468 1381.00
40.612 1441.00
40.6772 1484.00
40.7424 1545.00
40.8076 1671.00
40.8728 1739.00
40.938 1882.00
41.0032 2181.00
41.0684 2052.00
41.1336 2122.00
41.1988 2102.00
41.264 2202.00
41.3292 2215.00
41.3944 2249.00
41.4596 2217.00
41.5248 2068.00
41.59 2215.00
41.6552 2033.00
41.7204 1786.00
41.7856 1718.00
41.8508 1567.00
41.916 1546.00
41.9812 1578.00
42.0464 1600.00
42.1116 1639.00
42.1768 1581.00
42.242 1603.00
42.3072 1488.00
42.3724 1424.00
42.4376 1495.00
42.5028 1523.00
42.568 1614.00
42.6332 1754.00
42.6983 1843.00
42.7635 1977.00
42.8287 2053.00
42.8939 2260.00
42.9591 2557.00
43.0243 2447.00
43.0895 2186.00
43.1547 1844.00
43.2199 1555.00
43.2851 1559.00
43.3503 1549.00
43.4155 1554.00
43.4807 1557.00
43.5459 1546.00
43.6111 1494.00
43.6763 1527.00
43.7415 1513.00
43.8067 1461.00
43.8719 1483.00
43.9371 1474.00
44.0023 1372.00
44.0675 1410.00
44.1327 1350.00
44.1979 1383.00
44.2631 1453.00
44.3283 1466.00
44.3935 1426.00
44.4587 1516.00
44.5239 1646.00
44.5891 1796.00
44.6543 1921.00
44.7195 2292.00
44.7847 2709.00
44.8499 3093.00
44.9151 3453.00
44.9803 3350.00
45.0455 2720.00
45.1107 2243.00
45.1759 1803.00
45.2411 1689.00
45.3063 1578.00
45.3715 1576.00
45.4367 1581.00
45.5019 1719.00
45.5671 1880.00
45.6323 2166.00
45.6975 2300.00
45.7627 2396.00
45.8279 2416.00
45.8931 2676.00
45.9583 2660.00
46.0235 2363.00
46.0887 2059.00
46.1539 1807.00
46.2191 1570.00
46.2843 1637.00
46.3495 1719.00
46.4147 1794.00
46.4799 2029.00
46.5451 2103.00
46.6103 2287.00
46.6755 2226.00
46.7407 2075.00
46.8059 1846.00
46.8711 1891.00
46.9363 1936.00
47.0015 1876.00
47.0667 1595.00
47.1319 1570.00
47.1971 1572.00
47.2623 1467.00
47.3275 1528.00
47.3927 1781.00
47.4579 1930.00
47.523 2147.00
47.5882 2380.00
47.6534 2734.00
47.7186 3014.00
47.7838 3223.00
47.849 3535.00
47.9142 3902.00
47.9794 3666.00
48.0446 3194.00
48.1098 2815.00
48.175 2194.00
48.2402 1916.00
48.3054 1792.00
48.3706 1697.00
48.4358 1676.00
48.501 1618.00
48.5662 1766.00
48.6314 1721.00
48.6966 1641.00
48.7618 1484.00
48.827 1411.00
48.8922 1453.00
48.9574 1429.00
49.0226 1500.00
49.0878 1472.00
49.153 1454.00
49.2182 1440.00
49.2834 1480.00
49.3486 1560.00
49.4138 1674.00
49.479 1912.00
49.5442 1968.00
49.6094 1745.00
49.6746 1621.00
49.7398 1536.00
49.805 1502.00
49.8702 1506.00
49.9354 1373.00
50.0006 1395.00
50.0658 1426.00
50.131 1488.00
50.1962 1529.00
50.2614 1676.00
50.3266 2113.00
50.3918 2183.00
50.457 1996.00
50.5222 1943.00
50.5874 1719.00
50.6526 1737.00
50.7178 1827.00
50.783 1995.00
50.8482 2078.00
50.9134 2008.00
50.9786 2226.00
51.0438 2408.00
51.109 2737.00
51.1742 3197.00
51.2394 3482.00
51.3046 3619.00
51.3698 3263.00
51.435 2857.00
51.5002 2394.00
51.5654 2096.00
51.6306 1967.00
51.6958 1894.00
51.761 1738.00
51.8262 1691.00
51.8914 1509.00
51.9566 1386.00
52.0218 1437.00
52.087 1421.00
52.1522 1407.00
52.2174 1364.00
52.2826 1408.00
52.3477 1351.00
52.4129 1382.00
52.4781 1307.00
52.5433 1348.00
52.6085 1348.00
52.6737 1420.00
52.7389 1391.00
52.8041 1409.00
52.8693 1390.00
52.9345 1395.00
52.9997 1305.00
53.0649 1377.00
53.1301 1453.00
53.1953 1347.00
53.2605 1372.00
53.3257 1514.00
53.3909 1414.00
53.4561 1448.00
53.5213 1472.00
53.5865 1352.00
53.6517 1432.00
53.7169 1475.00
53.7821 1574.00
53.8473 1606.00
53.9125 1803.00
53.9777 1891.00
54.0429 1969.00
54.1081 2152.00
54.1733 2183.00
54.2385 2231.00
54.3037 2212.00
54.3689 2125.00
54.4341 1893.00
54.4993 1901.00
54.5645 1872.00
54.6297 1846.00
54.6949 2077.00
54.7601 2162.00
54.8253 2460.00
54.8905 2651.00
54.9557 2893.00
55.0209 3156.00
55.0861 3117.00
55.1513 3143.00
55.2165 3100.00
55.2817 3327.00
55.3469 3371.00
55.4121 3125.00
55.4773 2806.00
55.5425 2507.00
55.6077 2206.00
55.6729 1953.00
55.7381 1792.00
55.8033 1683.00
55.8685 1628.00
55.9337 1502.00
55.9989 1609.00
56.0641 1585.00
56.1293 1609.00
56.1945 1706.00
56.2597 1579.00
56.3249 1598.00
56.3901 1582.00
56.4553 1550.00
56.5205 1549.00
56.5857 1531.00
56.6509 1471.00
56.7161 1490.00
56.7813 1528.00
56.8465 1475.00
56.9117 1412.00
56.9769 1476.00
57.042 1388.00
57.1073 1310.00
57.1724 1347.00
57.2376 1387.00
57.3028 1422.00
57.368 1526.00
57.4332 1652.00
57.4984 1463.00
57.5636 1535.00
57.6288 1467.00
57.694 1459.00
57.7592 1447.00
57.8244 1487.00
57.8896 1609.00
57.9548 1664.00
58.02 1839.00
58.0852 1993.00
58.1504 2112.00
58.2156 2032.00
58.2808 2004.00
58.346 1934.00
58.4112 1789.00
58.4764 1705.00
58.5416 1636.00
58.6068 1527.00
58.672 1417.00
58.7372 1393.00
58.8024 1377.00
58.8676 1349.00
58.9328 1386.00
58.998 1407.00
59.0632 1334.00
59.1284 1498.00
59.1936 1496.00
59.2588 1658.00
59.324 1667.00
59.3892 1665.00
59.4544 1936.00
59.5196 1959.00
59.5848 1995.00
59.65 2106.00
59.7152 2253.00
59.7804 2379.00
59.8456 2354.00
59.9108 2334.00
59.976 2187.00
60.0412 2116.00
60.1064 1806.00
60.1716 1895.00
60.2368 1887.00
60.302 1709.00
60.3672 1859.00
60.4324 1799.00
60.4976 1966.00
60.5628 1914.00
60.628 1933.00
60.6932 2028.00
60.7584 2099.00
60.8236 2336.00
60.8888 2501.00
60.954 2447.00
61.0192 2229.00
61.0844 2137.00
61.1496 1912.00
61.2148 1731.00
61.28 1582.00
61.3452 1529.00
61.4104 1497.00
61.4756 1545.00
61.5408 1625.00
61.606 1575.00
61.6712 1554.00
61.7364 1534.00
61.8016 1541.00
61.8667 1622.00
61.932 1707.00
61.9971 1899.00
62.0623 1985.00
62.1275 2172.00
62.1927 2249.00
62.2579 2155.00
62.3231 2005.00
62.3883 1952.00
62.4535 1801.00
62.5187 1678.00
62.5839 1555.00
62.6491 1588.00
62.7143 1672.00
62.7795 1655.00
62.8447 1705.00
62.9099 1810.00
62.9751 1915.00
63.0403 1942.00
63.1055 2087.00
63.1707 2003.00
63.2359 2023.00
63.3011 1930.00
63.3663 1898.00
63.4315 2008.00
63.4967 1926.00
63.5619 1845.00
63.6271 1781.00
63.6923 1703.00
63.7575 1800.00
63.8227 1671.00
63.8879 1534.00
63.9531 1438.00
64.0183 1413.00
64.0835 1433.00
64.1487 1344.00
64.2139 1352.00
64.2791 1338.00
64.3443 1296.00
64.4095 1318.00
64.4747 1415.00
64.5399 1403.00
64.6051 1335.00
64.6703 1413.00
64.7355 1393.00
64.8007 1390.00
64.8659 1494.00
64.9311 1440.00
64.9963 1502.00
65.0615 1488.00
65.1267 1601.00
65.1919 1531.00
65.2571 1471.00
65.3223 1437.00
65.3875 1511.00
65.4527 1458.00
65.5179 1409.00
65.5831 1527.00
65.6483 1513.00
65.7135 1568.00
65.7787 1682.00
65.8439 1801.00
65.9091 1965.00
65.9743 2048.00
66.0395 2093.00
66.1047 2017.00
66.1699 1888.00
66.2351 1644.00
66.3003 1634.00
66.3655 1506.00
66.4307 1495.00
66.4959 1402.00
66.561 1418.00
66.6263 1533.00
66.6915 1313.00
66.7566 1444.00
66.8218 1512.00
66.887 1501.00
66.9522 1524.00
67.0174 1569.00
67.0826 1790.00
67.1478 1690.00
67.213 1760.00
67.2782 1525.00
67.3434 1625.00
67.4086 1600.00
67.4738 1644.00
67.539 1636.00
67.6042 1561.00
67.6694 1628.00
67.7346 1557.00
67.7998 1435.00
67.865 1407.00
67.9302 1398.00
67.9954 1361.00
68.0606 1319.00
68.1258 1267.00
68.191 1399.00
68.2562 1385.00
68.3214 1363.00
68.3866 1403.00
68.4518 1401.00
68.517 1435.00
68.5822 1453.00
68.6474 1478.00
68.7126 1460.00
68.7778 1389.00
68.843 1434.00
68.9082 1374.00
68.9734 1395.00
69.0386 1395.00
69.1038 1321.00
69.169 1295.00
69.2342 1312.00
69.2994 1357.00
69.3646 1341.00
69.4298 1262.00
69.495 1229.00
69.5602 1276.00
69.6254 1300.00
69.6906 1284.00
69.7558 1357.00
69.821 1288.00
69.8862 1313.00
69.9514 1320.00
70.0166 1366.00
70.0818 1409.00
70.147 1450.00
70.2122 1466.00
70.2774 1509.00
70.3426 1586.00
70.4078 1503.00
70.473 1522.00
70.5382 1558.00
70.6034 1643.00
70.6686 1684.00
70.7338 1696.00
70.799 1828.00
70.8642 1798.00
70.9294 1681.00
70.9946 1548.00
71.0598 1629.00
71.125 1501.00
71.1902 1397.00
71.2554 1410.00
71.3205 1378.00
71.3858 1415.00
71.451 1446.00
71.5162 1404.00
71.5813 1283.00
71.6465 1347.00
71.7117 1359.00
71.7769 1391.00
71.8421 1396.00
71.9073 1250.00
71.9725 1342.00
72.0377 1300.00
72.1029 1299.00
72.1681 1296.00
72.2333 1330.00
72.2985 1260.00
72.3637 1281.00
72.4289 1353.00
72.4941 1299.00
72.5593 1261.00
72.6245 1189.00
72.6897 1282.00
72.7549 1211.00
72.8201 1345.00
72.8853 1376.00
72.9505 1331.00
73.0157 1331.00
73.0809 1344.00
73.1461 1355.00
73.2113 1370.00
73.2765 1380.00
73.3417 1498.00
73.4069 1538.00
73.4721 1592.00
73.5373 1648.00
73.6025 1586.00
73.6677 1611.00
73.7329 1558.00
73.7981 1551.00
73.8633 1497.00
73.9285 1421.00
73.9937 1429.00
74.0589 1461.00
74.1241 1449.00
74.1893 1392.00
74.2545 1541.00
74.3197 1489.00
74.3849 1532.00
74.4501 1540.00
74.5153 1475.00
74.5805 1565.00
74.6457 1623.00
74.7109 1686.00
74.7761 1645.00
74.8413 1660.00
74.9065 1686.00
74.9717 1613.00
75.0369 1624.00
75.1021 1658.00
75.1673 1571.00
75.2325 1715.00
75.2977 1631.00
75.3629 1617.00
75.4281 1511.00
75.4933 1535.00
75.5585 1394.00
75.6237 1364.00
75.6889 1317.00
75.7541 1324.00
75.8193 1209.00
75.8845 1319.00
75.9497 1259.00
76.0149 1200.00
76.0801 1290.00
76.1452 1244.00
76.2104 1222.00
76.2756 1214.00
76.3409 1321.00
76.406 1316.00
76.4712 1231.00
76.5364 1322.00
76.6016 1345.00
76.6668 1354.00
76.732 1355.00
76.7972 1332.00
76.8624 1311.00
76.9276 1233.00
76.9928 1338.00
77.058 1241.00
77.1232 1402.00
77.1884 1361.00
77.2536 1261.00
77.3188 1351.00
77.384 1324.00
77.4492 1332.00
77.5144 1374.00
77.5796 1382.00
77.6448 1301.00
77.71 1285.00
77.7752 1434.00
77.8404 1369.00
77.9056 1387.00
77.9708 1449.00
78.036 1427.00
78.1012 1452.00
78.1664 1514.00
78.2316 1512.00
78.2968 1554.00
78.362 1612.00
78.4272 1526.00
78.4924 1509.00
78.5576 1574.00
78.6228 1634.00
78.688 1538.00
78.7532 1436.00
78.8184 1423.00
78.8836 1479.00
78.9488 1383.00
79.014 1395.00
79.0792 1364.00
79.1444 1425.00
79.2096 1342.00
79.2748 1262.00
79.34 1303.00
79.4052 1229.00
79.4704 1286.00
79.5356 1292.00
79.6008 1230.00
79.666 1267.00
79.7312 1269.00
79.7964 1310.00
79.8616 1251.00
79.9268 1215.00
79.992 1124.00
80.0572 1251.00
80.1224 1246.00
80.1876 1314.00
80.2528 1380.00
80.318 1371.00
80.3832 1422.00
80.4484 1348.00
80.5136 1444.00
80.5788 1434.00
80.644 1527.00
80.7092 1597.00
80.7744 1605.00
80.8396 1538.00
80.9048 1439.00
80.9699 1347.00
81.0351 1278.00
81.1003 1251.00
81.1655 1308.00
81.2307 1294.00
81.2959 1127.00
81.3611 1236.00
81.4263 1265.00
81.4915 1224.00
81.5567 1340.00
81.6219 1223.00
81.6871 1247.00
81.7523 1257.00
81.8175 1300.00
81.8827 1414.00
81.9479 1314.00
82.0131 1370.00
82.0783 1292.00
82.1435 1293.00
82.2087 1360.00
82.2739 1343.00
82.3391 1326.00
82.4043 1332.00
82.4695 1303.00
82.5347 1370.00
82.5999 1363.00
82.6651 1414.00
82.7303 1527.00
82.7955 1440.00
82.8607 1379.00
82.9259 1379.00
82.9911 1469.00
83.0563 1532.00
83.1215 1536.00
83.1867 1491.00
83.2519 1537.00
83.3171 1367.00
83.3823 1410.00
83.4475 1443.00
83.5127 1417.00
83.5779 1360.00
83.6431 1290.00
83.7083 1364.00
83.7735 1208.00
83.8387 1273.00
83.9039 1304.00
83.9691 1316.00
84.0343 1307.00
84.0995 1317.00
84.1647 1428.00
84.2299 1403.00
84.2951 1426.00
84.3603 1528.00
84.4255 1411.00
84.4907 1522.00
84.5559 1430.00
84.6211 1363.00
84.6863 1375.00
84.7515 1393.00
84.8167 1341.00
84.8819 1347.00
84.9471 1404.00
85.0123 1449.00
85.0775 1409.00
85.1427 1378.00
85.2079 1335.00
85.2731 1307.00
85.3383 1318.00
85.4035 1252.00
85.4687 1256.00
85.5339 1323.00
85.5991 1315.00
85.6643 1388.00
85.7295 1269.00
85.7946 1287.00
85.8598 1355.00
85.925 1340.00
85.9903 1320.00
86.0554 1385.00
86.1206 1332.00
86.1858 1332.00
86.251 1311.00
86.3162 1313.00
86.3814 1366.00
86.4466 1452.00
86.5118 1394.00
86.577 1375.00
86.6422 1331.00
86.7074 1331.00
86.7726 1241.00
86.8378 1258.00
86.903 1269.00
86.9682 1284.00
87.0334 1306.00
87.0986 1278.00
87.1638 1200.00
87.229 1217.00
87.2942 1231.00
87.3594 1229.00
87.4246 1268.00
87.4898 1329.00
87.555 1299.00
87.6202 1351.00
87.6854 1312.00
87.7506 1364.00
87.8158 1400.00
87.881 1355.00
87.9462 1397.00
88.0114 1341.00
88.0766 1302.00
88.1418 1320.00
88.207 1316.00
88.2722 1422.00
88.3374 1386.00
88.4026 1377.00
88.4678 1416.00
88.533 1518.00
88.5982 1418.00
88.6634 1462.00
88.7286 1560.00
88.7938 1572.00
88.859 1524.00
88.9242 1578.00
88.9894 1557.00
89.0546 1572.00
89.1198 1558.00
89.185 1563.00
89.2502 1573.00
89.3154 1524.00
89.3806 1446.00
89.4458 1424.00
89.511 1412.00
89.5762 1315.00
89.6414 1339.00
89.7066 1272.00
89.7718 1294.00
89.837 1328.00
89.9022 1387.00
89.9674 1345.00
90.0326 1368.00
90.0978 1378.00
90.163 1330.00
90.2282 1328.00
90.2934 1264.00
90.3586 1281.00
90.4238 1280.00
90.489 1276.00
90.5542 1319.00
90.6193 1370.00
90.6845 1332.00
90.7497 1300.00
90.8149 1271.00
90.8801 1309.00
90.9453 1368.00
91.0105 1354.00
91.0757 1343.00
91.1409 1346.00
91.2061 1464.00
91.2713 1456.00
91.3365 1516.00
91.4017 1382.00
91.4669 1430.00
91.5321 1325.00
91.5973 1359.00
91.6625 1279.00
91.7277 1359.00
91.7929 1364.00
91.8581 1292.00
91.9233 1285.00
91.9885 1285.00
92.0537 1232.00
92.1189 1261.00
92.1841 1235.00
92.2493 1313.00
92.3145 1235.00
92.3797 1202.00
92.4449 1281.00
92.5101 1272.00
92.5753 1216.00
92.6405 1223.00
92.7057 1265.00
92.7709 1222.00
92.8361 1257.00
92.9013 1180.00
92.9665 1313.00
93.0317 1243.00
93.0969 1226.00
93.1621 1286.00
93.2273 1339.00
93.2925 1374.00
93.3577 1357.00
93.4229 1388.00
93.4881 1379.00
93.5533 1390.00
93.6185 1299.00
93.6837 1415.00
93.7489 1415.00
93.8141 1402.00
93.8793 1364.00
93.9445 1421.00
94.0097 1330.00
94.0749 1398.00
94.1401 1383.00
94.2053 1329.00
94.2705 1362.00
94.3357 1448.00
94.4009 1374.00
94.4661 1418.00
94.5313 1498.00
94.5965 1390.00
94.6617 1413.00
94.7269 1576.00
94.7921 1525.00
94.8573 1439.00
94.9225 1526.00
94.9877 1496.00
95.0529 1498.00
95.1181 1321.00
95.1833 1438.00
95.2485 1370.00
95.3137 1415.00
95.3789 1423.00
95.444 1391.00
95.5092 1428.00
95.5744 1431.00
95.6396 1424.00
95.7048 1415.00
95.77 1371.00
95.8352 1371.00
95.9004 1371.00
95.9656 1377.00
96.0308 1368.00
96.096 1304.00
96.1612 1396.00
96.2264 1426.00
96.2916 1456.00
96.3568 1358.00
96.422 1265.00
96.4872 1257.00
96.5524 1312.00
96.6176 1347.00
96.6828 1257.00
96.748 1361.00
96.8132 1219.00
96.8784 1286.00
96.9436 1276.00
97.0088 1271.00
97.074 1237.00
97.1392 1249.00
97.2044 1233.00
97.2696 1258.00
97.3348 1198.00
97.4 1202.00
97.4652 1154.00
97.5304 1221.00
97.5956 1148.00
97.6608 1225.00
97.726 1261.00
97.7912 1169.00
97.8564 1172.00
97.9216 1175.00
97.9868 1213.00
98.052 1230.00
98.1172 1310.00
98.1824 1314.00
98.2476 1326.00
98.3128 1264.00
98.378 1340.00
98.4432 1326.00
98.5084 1331.00
98.5736 1332.00
98.6388 1367.00
98.704 1376.00
98.7692 1316.00
98.8344 1345.00
98.8996 1310.00
98.9648 1341.00
99.03 1408.00
99.0952 1391.00
99.1604 1410.00
99.2256 1344.00
99.2908 1369.00
99.356 1408.00
99.4212 1383.00
99.4864 1435.00
99.5516 1448.00
99.6168 1422.00
99.682 1436.00
99.7472 1450.00
99.8124 1500.00
99.8776 1440.00
99.9428 1363.00
100.008 1487.00
100.073 1408.00
100.095 1472.00