File: data/xrd_creation/results/NSC_86.xy
9.903433 2781.00
9.968632 2859.00
10.0338 2742.00
10.099 2648.00
10.1642 2619.00
10.2294 2657.00
10.2946 2644.00
10.3598 2602.00
10.425 2593.00
10.4902 2572.00
10.5554 2543.00
10.6206 2553.00
10.6858 2467.00
10.751 2467.00
10.8162 2484.00
10.8814 2442.00
10.9466 2402.00
11.0118 2425.00
11.077 2289.00
11.1422 2344.00
11.2074 2286.00
11.2726 2322.00
11.3378 2243.00
11.403 2250.00
11.4682 2215.00
11.5334 2225.00
11.5986 2159.00
11.6638 2215.00
11.729 2153.00
11.7942 2186.00
11.8594 2079.00
11.9246 2183.00
11.9898 2124.00
12.055 2035.00
12.1202 2082.00
12.1854 2064.00
12.2506 1941.00
12.3158 2023.00
12.381 1937.00
12.4462 2001.00
12.5114 2004.00
12.5766 1919.00
12.6418 1945.00
12.707 1955.00
12.7722 1993.00
12.8374 1899.00
12.9026 1882.00
12.9678 1849.00
13.033 1837.00
13.0982 1871.00
13.1634 1817.00
13.2286 1812.00
13.2938 1794.00
13.359 1835.00
13.4242 1840.00
13.4894 1855.00
13.5546 1718.00
13.6198 1738.00
13.685 1735.00
13.7502 1769.00
13.8154 1800.00
13.8805 1725.00
13.9457 1738.00
14.0109 1821.00
14.0761 1737.00
14.1413 1827.00
14.2065 2100.00
14.2717 2165.00
14.3369 2345.00
14.4021 2354.00
14.4673 2353.00
14.5325 2115.00
14.5977 1825.00
14.6629 1771.00
14.7281 1643.00
14.7933 1587.00
14.8585 1636.00
14.9237 1643.00
14.9889 1693.00
15.0541 1621.00
15.1193 1594.00
15.1845 1556.00
15.2497 1560.00
15.3149 1557.00
15.3801 1530.00
15.4453 1617.00
15.5105 1564.00
15.5757 1616.00
15.6409 1529.00
15.7061 1589.00
15.7713 1458.00
15.8365 1499.00
15.9017 1456.00
15.9669 1519.00
16.0321 1518.00
16.0973 1489.00
16.1625 1572.00
16.2277 1464.00
16.2929 1515.00
16.3581 1397.00
16.4233 1471.00
16.4885 1505.00
16.5537 1526.00
16.6189 1447.00
16.6841 1435.00
16.7493 1444.00
16.8145 1479.00
16.8797 1350.00
16.9449 1432.00
17.0101 1436.00
17.0753 1461.00
17.1405 1404.00
17.2057 1357.00
17.2709 1463.00
17.3361 1364.00
17.4013 1363.00
17.4665 1318.00
17.5317 1311.00
17.5969 1374.00
17.6621 1358.00
17.7273 1361.00
17.7925 1322.00
17.8577 1361.00
17.9229 1253.00
17.9881 1402.00
18.0533 1396.00
18.1185 1318.00
18.1837 1343.00
18.2489 1264.00
18.3141 1259.00
18.3793 1290.00
18.4445 1300.00
18.5097 1330.00
18.5749 1347.00
18.6401 1296.00
18.7052 1326.00
18.7704 1257.00
18.8356 1247.00
18.9008 1259.00
18.966 1310.00
19.0312 1283.00
19.0964 1244.00
19.1616 1219.00
19.2268 1233.00
19.292 1229.00
19.3572 1294.00
19.4224 1322.00
19.4876 1309.00
19.5528 1359.00
19.618 1406.00
19.6832 1517.00
19.7484 1747.00
19.8136 2119.00
19.8788 2716.00
19.944 3247.00
20.0092 3538.00
20.0744 3407.00
20.1396 2924.00
20.2048 2284.00
20.27 1830.00
20.3352 1552.00
20.4004 1522.00
20.4656 1597.00
20.5308 1770.00
20.596 2247.00
20.6612 2975.00
20.7264 3926.00
20.7916 4508.00
20.8568 4263.00
20.922 3585.00
20.9872 2489.00
21.0524 1865.00
21.1176 1486.00
21.1828 1381.00
21.248 1196.00
21.3132 1220.00
21.3784 1120.00
21.4436 1171.00
21.5088 1197.00
21.574 1121.00
21.6392 1183.00
21.7044 1158.00
21.7696 1143.00
21.8348 1042.00
21.9 1103.00
21.9652 1091.00
22.0304 1110.00
22.0956 1118.00
22.1608 1117.00
22.226 1064.00
22.2912 1062.00
22.3564 1063.00
22.4216 1029.00
22.4868 1079.00
22.552 1076.00
22.6172 1107.00
22.6824 1069.00
22.7476 1037.00
22.8128 1117.00
22.878 1017.00
22.9432 1047.00
23.0084 1096.00
23.0736 1041.00
23.1388 1055.00
23.204 1075.00
23.2692 1076.00
23.3344 1049.00
23.3996 1085.00
23.4647 1079.00
23.5299 1139.00
23.5951 1143.00
23.6603 1212.00
23.7255 1294.00
23.7907 1535.00
23.8559 1931.00
23.9211 2717.00
23.9863 3677.00
24.0515 4614.00
24.1167 4990.00
24.1819 4376.00
24.2471 3156.00
24.3123 2191.00
24.3775 1573.00
24.4427 1192.00
24.5079 1172.00
24.5731 1067.00
24.6383 1029.00
24.7035 1047.00
24.7687 991.00
24.8339 912.00
24.8991 1012.00
24.9643 969.00
25.0295 922.00
25.0947 966.00
25.1599 1045.00
25.2251 982.00
25.2903 1072.00
25.3555 1005.00
25.4207 899.00
25.4859 1020.00
25.5511 975.00
25.6163 933.00
25.6815 988.00
25.7467 913.00
25.8119 837.00
25.8771 934.00
25.9423 951.00
26.0075 910.00
26.0727 953.00
26.1379 927.00
26.2031 1045.00
26.2683 1057.00
26.3335 1076.00
26.3987 1242.00
26.4639 1379.00
26.5291 1608.00
26.5943 1604.00
26.6595 1519.00
26.7247 1306.00
26.7899 1131.00
26.8551 1014.00
26.9203 927.00
26.9855 896.00
27.0507 873.00
27.1159 858.00
27.1811 857.00
27.2463 824.00
27.3115 851.00
27.3767 777.00
27.4419 820.00
27.5071 774.00
27.5723 808.00
27.6375 794.00
27.7027 820.00
27.7679 768.00
27.8331 832.00
27.8983 850.00
27.9635 861.00
28.0287 798.00
28.0939 777.00
28.1591 876.00
28.2243 828.00
28.2894 808.00
28.3546 807.00
28.4198 846.00
28.485 872.00
28.5502 865.00
28.6154 875.00
28.6806 950.00
28.7458 1047.00
28.811 1293.00
28.8762 1592.00
28.9414 2273.00
29.0066 2917.00
29.0718 2969.00
29.137 2679.00
29.2022 2098.00
29.2674 1578.00
29.3326 1173.00
29.3978 1027.00
29.463 867.00
29.5282 857.00
29.5934 841.00
29.6586 780.00
29.7238 798.00
29.789 749.00
29.8542 732.00
29.9194 748.00
29.9846 803.00
30.0498 709.00
30.115 770.00
30.1802 757.00
30.2454 720.00
30.3106 698.00
30.3758 731.00
30.441 787.00
30.5062 722.00
30.5714 710.00
30.6366 744.00
30.7018 771.00
30.767 727.00
30.8322 735.00
30.8974 742.00
30.9626 782.00
31.0278 738.00
31.093 757.00
31.1582 746.00
31.2234 721.00
31.2886 750.00
31.3538 801.00
31.419 818.00
31.4842 882.00
31.5494 889.00
31.6146 986.00
31.6798 1086.00
31.745 1253.00
31.8102 1550.00
31.8754 2155.00
31.9406 2805.00
32.0058 3517.00
32.071 3961.00
32.1362 3826.00
32.2014 3408.00
32.2666 2774.00
32.3318 2247.00
32.397 1720.00
32.4622 1401.00
32.5274 1072.00
32.5926 945.00
32.6578 851.00
32.723 800.00
32.7882 732.00
32.8534 732.00
32.9186 668.00
32.9838 675.00
33.0489 664.00
33.1141 674.00
33.1793 732.00
33.2445 648.00
33.3097 714.00
33.3749 696.00
33.4401 658.00
33.5053 725.00
33.5705 746.00
33.6357 821.00
33.7009 884.00
33.7661 1157.00
33.8313 1258.00
33.8965 1268.00
33.9617 1204.00
34.0269 1009.00
34.0921 885.00
34.1573 768.00
34.2225 710.00
34.2877 705.00
34.3529 701.00
34.4181 713.00
34.4833 736.00
34.5485 702.00
34.6137 687.00
34.6789 725.00
34.7441 693.00
34.8093 637.00
34.8745 621.00
34.9397 624.00
35.0049 624.00
35.0701 613.00
35.1353 599.00
35.2005 582.00
35.2657 655.00
35.3309 641.00
35.3961 570.00
35.4613 594.00
35.5265 596.00
35.5917 585.00
35.6569 667.00
35.7221 700.00
35.7873 788.00
35.8525 900.00
35.9177 1144.00
35.9829 1302.00
36.0481 1296.00
36.1133 1242.00
36.1785 1195.00
36.2437 1095.00
36.3089 1360.00
36.3741 1601.00
36.4393 1966.00
36.5045 2012.00
36.5697 1928.00
36.6349 1531.00
36.7001 1280.00
36.7653 1073.00
36.8305 833.00
36.8957 727.00
36.9609 669.00
37.0261 614.00
37.0913 600.00
37.1565 579.00
37.2217 556.00
37.2869 571.00
37.3521 591.00
37.4173 583.00
37.4825 575.00
37.5477 510.00
37.6129 559.00
37.6781 582.00
37.7433 635.00
37.8085 637.00
37.8736 674.00
37.9388 709.00
38.004 733.00
38.0692 673.00
38.1344 648.00
38.1996 548.00
38.2648 553.00
38.33 538.00
38.3952 544.00
38.4604 535.00
38.5256 569.00
38.5908 538.00
38.656 507.00
38.7212 532.00
38.7864 507.00
38.8516 571.00
38.9168 569.00
38.982 533.00
39.0472 554.00
39.1124 520.00
39.1776 497.00
39.2428 517.00
39.308 485.00
39.3732 526.00
39.4384 492.00
39.5036 476.00
39.5688 484.00
39.634 498.00
39.6992 460.00
39.7644 485.00
39.8296 482.00
39.8948 469.00
39.96 520.00
40.0252 486.00
40.0904 462.00
40.1556 495.00
40.2208 455.00
40.286 487.00
40.3512 512.00
40.4164 548.00
40.4816 561.00
40.5468 539.00
40.612 620.00
40.6772 678.00
40.7424 662.00
40.8076 603.00
40.8728 633.00
40.938 566.00
41.0032 558.00
41.0684 536.00
41.1336 492.00
41.1988 482.00
41.264 498.00
41.3292 454.00
41.3944 501.00
41.4596 476.00
41.5248 501.00
41.59 437.00
41.6552 462.00
41.7204 425.00
41.7856 468.00
41.8508 531.00
41.916 440.00
41.9812 495.00
42.0464 547.00
42.1116 511.00
42.1768 590.00
42.242 674.00
42.3072 751.00
42.3724 801.00
42.4376 810.00
42.5028 799.00
42.568 769.00
42.6332 717.00
42.6983 658.00
42.7635 579.00
42.8287 571.00
42.8939 560.00
42.9591 487.00
43.0243 518.00
43.0895 521.00
43.1547 544.00
43.2199 500.00
43.2851 536.00
43.3503 492.00
43.4155 531.00
43.4807 524.00
43.5459 482.00
43.6111 484.00
43.6763 496.00
43.7415 470.00
43.8067 499.00
43.8719 508.00
43.9371 561.00
44.0023 638.00
44.0675 718.00
44.1327 891.00
44.1979 893.00
44.2631 959.00
44.3283 879.00
44.3935 754.00
44.4587 671.00
44.5239 569.00
44.5891 540.00
44.6543 466.00
44.7195 461.00
44.7847 482.00
44.8499 471.00
44.9151 526.00
44.9803 462.00
45.0455 471.00
45.1107 467.00
45.1759 457.00
45.2411 486.00
45.3063 457.00
45.3715 455.00
45.4367 441.00
45.5019 445.00
45.5671 462.00
45.6323 461.00
45.6975 481.00
45.7627 487.00
45.8279 537.00
45.8931 588.00
45.9583 687.00
46.0235 851.00
46.0887 986.00
46.1539 1148.00
46.2191 1142.00
46.2843 1168.00
46.3495 945.00
46.4147 871.00
46.4799 725.00
46.5451 625.00
46.6103 540.00
46.6755 526.00
46.7407 512.00
46.8059 474.00
46.8711 461.00
46.9363 500.00
47.0015 498.00
47.0667 549.00
47.1319 630.00
47.1971 813.00
47.2623 841.00
47.3275 862.00
47.3927 838.00
47.4579 798.00
47.523 753.00
47.5882 652.00
47.6534 607.00
47.7186 631.00
47.7838 628.00
47.849 647.00
47.9142 657.00
47.9794 659.00
48.0446 664.00
48.1098 580.00
48.175 574.00
48.2402 511.00
48.3054 466.00
48.3706 480.00
48.4358 406.00
48.501 456.00
48.5662 452.00
48.6314 467.00
48.6966 417.00
48.7618 470.00
48.827 462.00
48.8922 523.00
48.9574 554.00
49.0226 648.00
49.0878 654.00
49.153 959.00
49.2182 1130.00
49.2834 1417.00
49.3486 1550.00
49.4138 1551.00
49.479 1467.00
49.5442 1256.00
49.6094 1020.00
49.6746 841.00
49.7398 712.00
49.805 609.00
49.8702 583.00
49.9354 563.00
50.0006 589.00
50.0658 616.00
50.131 598.00
50.1962 520.00
50.2614 517.00
50.3266 473.00
50.3918 465.00
50.457 452.00
50.5222 411.00
50.5874 403.00
50.6526 392.00
50.7178 377.00
50.783 385.00
50.8482 403.00
50.9134 404.00
50.9786 400.00
51.0438 396.00
51.109 395.00
51.1742 397.00
51.2394 392.00
51.3046 390.00
51.3698 372.00
51.435 455.00
51.5002 465.00
51.5654 559.00
51.6306 612.00
51.6958 807.00
51.761 901.00
51.8262 945.00
51.8914 952.00
51.9566 784.00
52.0218 629.00
52.087 588.00
52.1522 506.00
52.2174 559.00
52.2826 517.00
52.3477 623.00
52.4129 617.00
52.4781 604.00
52.5433 689.00
52.6085 841.00
52.6737 984.00
52.7389 1069.00
52.8041 1086.00
52.8693 1041.00
52.9345 935.00
52.9997 860.00
53.0649 789.00
53.1301 732.00
53.1953 660.00
53.2605 714.00
53.3257 607.00
53.3909 570.00
53.4561 537.00
53.5213 507.00
53.5865 489.00
53.6517 438.00
53.7169 449.00
53.7821 381.00
53.8473 379.00
53.9125 345.00
53.9777 397.00
54.0429 365.00
54.1081 371.00
54.1733 396.00
54.2385 396.00
54.3037 415.00
54.3689 420.00
54.4341 405.00
54.4993 382.00
54.5645 435.00
54.6297 423.00
54.6949 461.00
54.7601 442.00
54.8253 496.00
54.8905 455.00
54.9557 454.00
55.0209 437.00
55.0861 394.00
55.1513 373.00
55.2165 379.00
55.2817 361.00
55.3469 384.00
55.4121 390.00
55.4773 469.00
55.5425 430.00
55.6077 509.00
55.6729 536.00
55.7381 624.00
55.8033 711.00
55.8685 754.00
55.9337 705.00
55.9989 670.00
56.0641 559.00
56.1293 533.00
56.1945 546.00
56.2597 501.00
56.3249 441.00
56.3901 467.00
56.4553 447.00
56.5205 490.00
56.5857 560.00
56.6509 679.00
56.7161 770.00
56.7813 874.00
56.8465 1062.00
56.9117 1118.00
56.9769 1284.00
57.042 1344.00
57.1073 1354.00
57.1724 1321.00
57.2376 1217.00
57.3028 1060.00
57.368 911.00
57.4332 838.00
57.4984 736.00
57.5636 648.00
57.6288 542.00
57.694 520.00
57.7592 486.00
57.8244 472.00
57.8896 446.00
57.9548 405.00
58.02 423.00
58.0852 410.00
58.1504 419.00
58.2156 416.00
58.2808 428.00
58.346 430.00
58.4112 469.00
58.4764 471.00
58.5416 519.00
58.6068 466.00
58.672 479.00
58.7372 424.00
58.8024 435.00
58.8676 435.00
58.9328 395.00
58.998 398.00
59.0632 394.00
59.1284 411.00
59.1936 372.00
59.2588 372.00
59.324 345.00
59.3892 381.00
59.4544 397.00
59.5196 430.00
59.5848 398.00
59.65 401.00
59.7152 408.00
59.7804 466.00
59.8456 446.00
59.9108 478.00
59.976 521.00
60.0412 508.00
60.1064 480.00
60.1716 535.00
60.2368 568.00
60.302 522.00
60.3672 542.00
60.4324 464.00
60.4976 456.00
60.5628 403.00
60.628 346.00
60.6932 388.00
60.7584 335.00
60.8236 347.00
60.8888 341.00
60.954 347.00
61.0192 371.00
61.0844 337.00
61.1496 366.00
61.2148 390.00
61.28 425.00
61.3452 462.00
61.4104 496.00
61.4756 575.00
61.5408 686.00
61.606 740.00
61.6712 764.00
61.7364 850.00
61.8016 747.00
61.8667 823.00
61.932 750.00
61.9971 672.00
62.0623 617.00
62.1275 554.00
62.1927 501.00
62.2579 482.00
62.3231 439.00
62.3883 444.00
62.4535 444.00
62.5187 468.00
62.5839 455.00
62.6491 555.00
62.7143 621.00
62.7795 736.00
62.8447 945.00
62.9099 907.00
62.9751 920.00
63.0403 873.00
63.1055 788.00
63.1707 686.00
63.2359 620.00
63.3011 599.00
63.3663 517.00
63.4315 520.00
63.4967 441.00
63.5619 480.00
63.6271 422.00
63.6923 437.00
63.7575 443.00
63.8227 499.00
63.8879 443.00
63.9531 455.00
64.0183 464.00
64.0835 525.00
64.1487 560.00
64.2139 536.00
64.2791 496.00
64.3443 522.00
64.4095 560.00
64.4747 566.00
64.5399 501.00
64.6051 528.00
64.6703 511.00
64.7355 529.00
64.8007 586.00
64.8659 495.00
64.9311 486.00
64.9963 464.00
65.0615 455.00
65.1267 482.00
65.1919 518.00
65.2571 538.00
65.3223 529.00
65.3875 589.00
65.4527 600.00
65.5179 635.00
65.5831 618.00
65.6483 753.00
65.7135 726.00
65.7787 765.00
65.8439 726.00
65.9091 764.00
65.9743 709.00
66.0395 721.00
66.1047 632.00
66.1699 563.00
66.2351 490.00
66.3003 431.00
66.3655 376.00
66.4307 357.00
66.4959 345.00
66.561 337.00
66.6263 387.00
66.6915 376.00
66.7566 313.00
66.8218 393.00
66.887 386.00
66.9522 331.00
67.0174 395.00
67.0826 404.00
67.1478 425.00
67.213 426.00
67.2782 408.00
67.3434 422.00
67.4086 401.00
67.4738 373.00
67.539 440.00
67.6042 365.00
67.6694 374.00
67.7346 406.00
67.7998 389.00
67.865 440.00
67.9302 434.00
67.9954 427.00
68.0606 426.00
68.1258 490.00
68.191 484.00
68.2562 520.00
68.3214 488.00
68.3866 482.00
68.4518 401.00
68.517 394.00
68.5822 375.00
68.6474 400.00
68.7126 336.00
68.7778 331.00
68.843 333.00
68.9082 319.00
68.9734 346.00
69.0386 362.00
69.1038 314.00
69.169 393.00
69.2342 348.00
69.2994 455.00
69.3646 395.00
69.4298 443.00
69.495 453.00
69.5602 475.00
69.6254 453.00
69.6906 463.00
69.7558 483.00
69.821 473.00
69.8862 476.00
69.9514 450.00
70.0166 412.00
70.0818 404.00
70.147 365.00
70.2122 346.00
70.2774 297.00
70.3426 317.00
70.4078 314.00
70.473 299.00
70.5382 282.00
70.6034 313.00
70.6686 307.00
70.7338 284.00
70.799 406.00
70.8642 367.00
70.9294 397.00
70.9946 359.00
71.0598 392.00
71.125 435.00
71.1902 388.00
71.2554 432.00
71.3205 432.00
71.3858 375.00
71.451 355.00
71.5162 360.00
71.5813 335.00
71.6465 334.00
71.7117 331.00
71.7769 301.00
71.8421 281.00
71.9073 262.00
71.9725 294.00
72.0377 306.00
72.1029 267.00
72.1681 295.00
72.2333 285.00
72.2985 261.00
72.3637 298.00
72.4289 264.00
72.4941 304.00
72.5593 283.00
72.6245 299.00
72.6897 284.00
72.7549 299.00
72.8201 325.00
72.8853 309.00
72.9505 355.00
73.0157 313.00
73.0809 379.00
73.1461 397.00
73.2113 472.00
73.2765 503.00
73.3417 486.00
73.4069 537.00
73.4721 488.00
73.5373 473.00
73.6025 458.00
73.6677 470.00
73.7329 394.00
73.7981 364.00
73.8633 378.00
73.9285 358.00
73.9937 324.00
74.0589 310.00
74.1241 314.00
74.1893 284.00
74.2545 306.00
74.3197 277.00
74.3849 312.00
74.4501 304.00
74.5153 319.00
74.5805 298.00
74.6457 327.00
74.7109 291.00
74.7761 289.00
74.8413 293.00
74.9065 307.00
74.9717 268.00
75.0369 305.00
75.1021 246.00
75.1673 273.00
75.2325 294.00
75.2977 279.00
75.3629 295.00
75.4281 271.00
75.4933 281.00
75.5585 308.00
75.6237 317.00
75.6889 346.00
75.7541 352.00
75.8193 331.00
75.8845 392.00
75.9497 381.00
76.0149 378.00
76.0801 384.00
76.1452 399.00
76.2104 401.00
76.2756 432.00
76.3409 391.00
76.406 379.00
76.4712 388.00
76.5364 352.00
76.6016 334.00
76.6668 343.00
76.732 308.00
76.7972 349.00
76.8624 350.00
76.9276 326.00
76.9928 316.00
77.058 308.00
77.1232 369.00
77.1884 359.00
77.2536 394.00
77.3188 460.00
77.384 442.00
77.4492 468.00
77.5144 504.00
77.5796 519.00
77.6448 543.00
77.71 448.00
77.7752 514.00
77.8404 473.00
77.9056 428.00
77.9708 458.00
78.036 379.00
78.1012 396.00
78.1664 420.00
78.2316 339.00
78.2968 395.00
78.362 344.00
78.4272 330.00
78.4924 340.00
78.5576 376.00
78.6228 349.00
78.688 384.00
78.7532 416.00
78.8184 352.00
78.8836 315.00
78.9488 334.00
79.014 328.00
79.0792 314.00
79.1444 290.00
79.2096 292.00
79.2748 307.00
79.34 302.00
79.4052 298.00
79.4704 284.00
79.5356 288.00
79.6008 308.00
79.666 303.00
79.7312 240.00
79.7964 324.00
79.8616 293.00
79.9268 276.00
79.992 311.00
80.0572 273.00
80.1224 273.00
80.1876 279.00
80.2528 284.00
80.318 271.00
80.3832 287.00
80.4484 261.00
80.5136 268.00
80.5788 258.00
80.644 280.00
80.7092 280.00
80.7744 313.00
80.8396 279.00
80.9048 300.00
80.9699 325.00
81.0351 358.00
81.1003 399.00
81.1655 437.00
81.2307 414.00
81.2959 435.00
81.3611 434.00
81.4263 454.00
81.4915 423.00
81.5567 425.00
81.6219 421.00
81.6871 381.00
81.7523 373.00
81.8175 371.00
81.8827 313.00
81.9479 324.00
82.0131 304.00
82.0783 303.00
82.1435 273.00
82.2087 304.00
82.2739 281.00
82.3391 289.00
82.4043 299.00
82.4695 293.00
82.5347 314.00
82.5999 308.00
82.6651 268.00
82.7303 295.00
82.7955 300.00
82.8607 280.00
82.9259 272.00
82.9911 277.00
83.0563 325.00
83.1215 283.00
83.1867 292.00
83.2519 331.00
83.3171 345.00
83.3823 332.00
83.4475 369.00
83.5127 413.00
83.5779 418.00
83.6431 463.00
83.7083 433.00
83.7735 442.00
83.8387 436.00
83.9039 404.00
83.9691 379.00
84.0343 392.00
84.0995 328.00
84.1647 345.00
84.2299 310.00
84.2951 280.00
84.3603 283.00
84.4255 283.00
84.4907 271.00
84.5559 229.00
84.6211 236.00
84.6863 243.00
84.7515 264.00
84.8167 259.00
84.8819 238.00
84.9471 272.00
85.0123 261.00
85.0775 237.00
85.1427 233.00
85.2079 259.00
85.2731 272.00
85.3383 272.00
85.4035 259.00
85.4687 292.00
85.5339 272.00
85.5991 269.00
85.6643 286.00
85.7295 264.00
85.7946 271.00
85.8598 281.00
85.925 319.00
85.9903 311.00
86.0554 366.00
86.1206 353.00
86.1858 399.00
86.251 359.00
86.3162 395.00
86.3814 380.00
86.4466 397.00
86.5118 389.00
86.577 380.00
86.6422 314.00
86.7074 379.00
86.7726 314.00
86.8378 322.00
86.903 328.00
86.9682 295.00
87.0334 285.00
87.0986 340.00
87.1638 295.00
87.229 334.00
87.2942 292.00
87.3594 333.00
87.4246 346.00
87.4898 323.00
87.555 361.00
87.6202 414.00
87.6854 379.00
87.7506 350.00
87.8158 353.00
87.881 362.00
87.9462 372.00
88.0114 395.00
88.0766 393.00
88.1418 382.00
88.207 380.00
88.2722 404.00
88.3374 401.00
88.4026 386.00
88.4678 365.00
88.533 390.00
88.5982 391.00
88.6634 343.00
88.7286 360.00
88.7938 321.00
88.859 352.00
88.9242 327.00
88.9894 342.00
89.0546 319.00
89.1198 318.00
89.185 315.00
89.2502 332.00
89.3154 304.00
89.3806 313.00
89.4458 322.00
89.511 304.00
89.5762 297.00
89.6414 351.00
89.7066 402.00
89.7718 358.00
89.837 349.00
89.9022 350.00
89.9674 368.00
90.0326 313.00
90.0978 327.00
90.163 326.00
90.2282 319.00
90.2934 316.00
90.3586 312.00
90.4238 306.00
90.489 332.00
90.5542 284.00
90.6193 278.00
90.6845 294.00
90.7497 348.00
90.8149 333.00
90.8801 360.00
90.9453 341.00
91.0105 359.00
91.0757 378.00
91.1409 345.00
91.2061 325.00
91.2713 333.00
91.3365 337.00
91.4017 312.00
91.4669 343.00
91.5321 320.00
91.5973 306.00
91.6625 317.00
91.7277 325.00
91.7929 283.00
91.8581 297.00
91.9233 325.00
91.9885 307.00
92.0537 319.00
92.1189 281.00
92.1841 298.00
92.2493 344.00
92.3145 363.00
92.3797 335.00
92.4449 378.00
92.5101 372.00
92.5753 423.00
92.6405 434.00
92.7057 422.00
92.7709 422.00
92.8361 435.00
92.9013 425.00
92.9665 453.00
93.0317 432.00
93.0969 398.00
93.1621 395.00
93.2273 417.00
93.2925 385.00
93.3577 360.00
93.4229 349.00
93.4881 297.00
93.5533 334.00
93.6185 296.00
93.6837 323.00
93.7489 315.00
93.8141 289.00
93.8793 297.00
93.9445 268.00
94.0097 210.00
94.0749 303.00
94.1401 289.00
94.2053 264.00
94.2705 305.00
94.3357 289.00
94.4009 295.00
94.4661 275.00
94.5313 312.00
94.5965 341.00
94.6617 339.00
94.7269 307.00
94.7921 319.00
94.8573 371.00
94.9225 361.00
94.9877 359.00
95.0529 331.00
95.1181 367.00
95.1833 337.00
95.2485 339.00
95.3137 355.00
95.3789 311.00
95.444 342.00
95.5092 318.00
95.5744 312.00
95.6396 300.00
95.7048 318.00
95.77 306.00
95.8352 292.00
95.9004 348.00
95.9656 305.00
96.0308 318.00
96.096 307.00
96.1612 315.00
96.2264 338.00
96.2916 317.00
96.3568 304.00
96.422 287.00
96.4872 324.00
96.5524 280.00
96.6176 285.00
96.6828 249.00
96.748 261.00
96.8132 282.00
96.8784 263.00
96.9436 281.00
97.0088 274.00
97.074 302.00
97.1392 305.00
97.2044 278.00
97.2696 299.00
97.3348 326.00
97.4 325.00
97.4652 314.00
97.5304 307.00
97.5956 325.00
97.6608 310.00
97.726 312.00
97.7912 332.00
97.8564 335.00
97.9216 334.00
97.9868 340.00
98.052 307.00
98.1172 292.00
98.1824 353.00
98.2476 344.00
98.3128 330.00
98.378 309.00
98.4432 330.00
98.5084 366.00
98.5736 361.00
98.6388 366.00
98.704 372.00
98.7692 328.00
98.8344 389.00
98.8996 366.00
98.9648 355.00
99.03 336.00
99.0952 327.00
99.1604 337.00
99.2256 358.00
99.2908 298.00
99.356 283.00
99.4212 314.00
99.4864 323.00
99.5516 359.00
99.6168 364.00
99.682 329.00
99.7472 326.00
99.8124 368.00
99.8776 368.00
99.9428 355.00
100.008 376.00
100.073 366.00
100.095 389.00