File: data/xrd_creation/results/NSC_139.xy
9.903433 2847.00
9.968632 2831.00
10.0338 2922.00
10.099 2811.00
10.1642 2817.00
10.2294 2854.00
10.2946 2778.00
10.3598 2777.00
10.425 2786.00
10.4902 2736.00
10.5554 2722.00
10.6206 2657.00
10.6858 2601.00
10.751 2699.00
10.8162 2680.00
10.8814 2641.00
10.9466 2579.00
11.0118 2623.00
11.077 2558.00
11.1422 2612.00
11.2074 2516.00
11.2726 2601.00
11.3378 2577.00
11.403 2602.00
11.4682 2547.00
11.5334 2615.00
11.5986 2599.00
11.6638 2651.00
11.729 2523.00
11.7942 2581.00
11.8594 2628.00
11.9246 2512.00
11.9898 2648.00
12.055 2559.00
12.1202 2550.00
12.1854 2591.00
12.2506 2521.00
12.3158 2565.00
12.381 2535.00
12.4462 2521.00
12.5114 2418.00
12.5766 2479.00
12.6418 2495.00
12.707 2379.00
12.7722 2476.00
12.8374 2476.00
12.9026 2428.00
12.9678 2435.00
13.033 2456.00
13.0982 2421.00
13.1634 2497.00
13.2286 2413.00
13.2938 2353.00
13.359 2356.00
13.4242 2296.00
13.4894 2358.00
13.5546 2432.00
13.6198 2368.00
13.685 2340.00
13.7502 2372.00
13.8154 2407.00
13.8805 2415.00
13.9457 2319.00
14.0109 2291.00
14.0761 2371.00
14.1413 2308.00
14.2065 2415.00
14.2717 2230.00
14.3369 2285.00
14.4021 2266.00
14.4673 2266.00
14.5325 2191.00
14.5977 2257.00
14.6629 2300.00
14.7281 2309.00
14.7933 2319.00
14.8585 2431.00
14.9237 2263.00
14.9889 2264.00
15.0541 2243.00
15.1193 2257.00
15.1845 2142.00
15.2497 2241.00
15.3149 2152.00
15.3801 2210.00
15.4453 2153.00
15.5105 2103.00
15.5757 2154.00
15.6409 2109.00
15.7061 2106.00
15.7713 2222.00
15.8365 2259.00
15.9017 2125.00
15.9669 2146.00
16.0321 2148.00
16.0973 2113.00
16.1625 2095.00
16.2277 2128.00
16.2929 2113.00
16.3581 2121.00
16.4233 2142.00
16.4885 2070.00
16.5537 2069.00
16.6189 2061.00
16.6841 2141.00
16.7493 2075.00
16.8145 1996.00
16.8797 2060.00
16.9449 2087.00
17.0101 2036.00
17.0753 2038.00
17.1405 2056.00
17.2057 2068.00
17.2709 2045.00
17.3361 2048.00
17.4013 1971.00
17.4665 1980.00
17.5317 2033.00
17.5969 1976.00
17.6621 2059.00
17.7273 2035.00
17.7925 2017.00
17.8577 2016.00
17.9229 1990.00
17.9881 1974.00
18.0533 1922.00
18.1185 1980.00
18.1837 1941.00
18.2489 1921.00
18.3141 2004.00
18.3793 1886.00
18.4445 1888.00
18.5097 1958.00
18.5749 1892.00
18.6401 1964.00
18.7052 1932.00
18.7704 2018.00
18.8356 1848.00
18.9008 1832.00
18.966 1970.00
19.0312 2002.00
19.0964 2021.00
19.1616 1922.00
19.2268 2040.00
19.292 1933.00
19.3572 1968.00
19.4224 2017.00
19.4876 2092.00
19.5528 2047.00
19.618 2314.00
19.6832 2535.00
19.7484 2836.00
19.8136 3712.00
19.8788 5226.00
19.944 7874.00
20.0092 7199.00
20.0744 3095.00
20.1396 2130.00
20.2048 2086.00
20.27 2155.00
20.3352 2057.00
20.4004 2007.00
20.4656 2055.00
20.5308 2209.00
20.596 2388.00
20.6612 2195.00
20.7264 1916.00
20.7916 1936.00
20.8568 1893.00
20.922 1901.00
20.9872 1961.00
21.0524 2078.00
21.1176 2182.00
21.1828 2221.00
21.248 2204.00
21.3132 1989.00
21.3784 1936.00
21.4436 1848.00
21.5088 1923.00
21.574 1904.00
21.6392 1876.00
21.7044 2029.00
21.7696 2021.00
21.8348 2238.00
21.9 2670.00
21.9652 3459.00
22.0304 3076.00
22.0956 2226.00
22.1608 2123.00
22.226 1941.00
22.2912 1910.00
22.3564 1766.00
22.4216 1809.00
22.4868 1833.00
22.552 1770.00
22.6172 1824.00
22.6824 1793.00
22.7476 1847.00
22.8128 1716.00
22.878 1865.00
22.9432 1829.00
23.0084 1881.00
23.0736 1817.00
23.1388 1862.00
23.204 1815.00
23.2692 1863.00
23.3344 1869.00
23.3996 1789.00
23.4647 1912.00
23.5299 1891.00
23.5951 1904.00
23.6603 1811.00
23.7255 1789.00
23.7907 1776.00
23.8559 1827.00
23.9211 1842.00
23.9863 1833.00
24.0515 1836.00
24.1167 1799.00
24.1819 1747.00
24.2471 1880.00
24.3123 1953.00
24.3775 1939.00
24.4427 1987.00
24.5079 2278.00
24.5731 2431.00
24.6383 2173.00
24.7035 1838.00
24.7687 1818.00
24.8339 1852.00
24.8991 1732.00
24.9643 1760.00
25.0295 1760.00
25.0947 1807.00
25.1599 1761.00
25.2251 1882.00
25.2903 2028.00
25.3555 1935.00
25.4207 1964.00
25.4859 2047.00
25.5511 2045.00
25.6163 2174.00
25.6815 2321.00
25.7467 2614.00
25.8119 3239.00
25.8771 4373.00
25.9423 7689.00
26.0075 16007.00
26.0727 31616.00
26.1379 35879.00
26.2031 15552.00
26.2683 3999.00
26.3335 2624.00
26.3987 2350.00
26.4639 2276.00
26.5291 2111.00
26.5943 2015.00
26.6595 1902.00
26.7247 1901.00
26.7899 1967.00
26.8551 1892.00
26.9203 1881.00
26.9855 1923.00
27.0507 1856.00
27.1159 1800.00
27.1811 1847.00
27.2463 1930.00
27.3115 1886.00
27.3767 1932.00
27.4419 1899.00
27.5071 1993.00
27.5723 1901.00
27.6375 1928.00
27.7027 1965.00
27.7679 2053.00
27.8331 2129.00
27.8983 2298.00
27.9635 2669.00
28.0287 3723.00
28.0939 6585.00
28.1591 13068.00
28.2243 26630.00
28.2894 18010.00
28.3546 6403.00
28.4198 2425.00
28.485 2226.00
28.5502 2102.00
28.6154 2094.00
28.6806 1940.00
28.7458 1878.00
28.811 1796.00
28.8762 1881.00
28.9414 1854.00
29.0066 1878.00
29.0718 1920.00
29.137 1862.00
29.2022 1838.00
29.2674 1941.00
29.3326 2006.00
29.3978 2116.00
29.463 2494.00
29.5282 3404.00
29.5934 5239.00
29.6586 9396.00
29.7238 12479.00
29.789 7275.00
29.8542 2962.00
29.9194 2007.00
29.9846 2006.00
30.0498 1795.00
30.115 1808.00
30.1802 1710.00
30.2454 1717.00
30.3106 1613.00
30.3758 1680.00
30.441 1710.00
30.5062 1670.00
30.5714 1693.00
30.6366 1639.00
30.7018 1605.00
30.767 1693.00
30.8322 1694.00
30.8974 1685.00
30.9626 1710.00
31.0278 1722.00
31.093 1631.00
31.1582 1644.00
31.2234 1601.00
31.2886 1655.00
31.3538 1690.00
31.419 1615.00
31.4842 1751.00
31.5494 1668.00
31.6146 1645.00
31.6798 1612.00
31.745 1601.00
31.8102 1627.00
31.8754 1639.00
31.9406 1623.00
32.0058 1574.00
32.071 1636.00
32.1362 1560.00
32.2014 1580.00
32.2666 1560.00
32.3318 1600.00
32.397 1654.00
32.4622 1735.00
32.5274 1620.00
32.5926 1769.00
32.6578 1830.00
32.723 1912.00
32.7882 1822.00
32.8534 1686.00
32.9186 1551.00
32.9838 1549.00
33.0489 1626.00
33.1141 1596.00
33.1793 1533.00
33.2445 1556.00
33.3097 1609.00
33.3749 1630.00
33.4401 1495.00
33.5053 1535.00
33.5705 1547.00
33.6357 1575.00
33.7009 1555.00
33.7661 1548.00
33.8313 1472.00
33.8965 1502.00
33.9617 1559.00
34.0269 1612.00
34.0921 1495.00
34.1573 1533.00
34.2225 1506.00
34.2877 1473.00
34.3529 1457.00
34.4181 1463.00
34.4833 1502.00
34.5485 1556.00
34.6137 1463.00
34.6789 1523.00
34.7441 1464.00
34.8093 1482.00
34.8745 1587.00
34.9397 1548.00
35.0049 1489.00
35.0701 1455.00
35.1353 1511.00
35.2005 1518.00
35.2657 1516.00
35.3309 1430.00
35.3961 1483.00
35.4613 1502.00
35.5265 1517.00
35.5917 1395.00
35.6569 1473.00
35.7221 1526.00
35.7873 1536.00
35.8525 1507.00
35.9177 1548.00
35.9829 1522.00
36.0481 1438.00
36.1133 1521.00
36.1785 1536.00
36.2437 1465.00
36.3089 1479.00
36.3741 1473.00
36.4393 1524.00
36.5045 1498.00
36.5697 1542.00
36.6349 1561.00
36.7001 1541.00
36.7653 1516.00
36.8305 1676.00
36.8957 1630.00
36.9609 1555.00
37.0261 1445.00
37.0913 1424.00
37.1565 1448.00
37.2217 1393.00
37.2869 1469.00
37.3521 1487.00
37.4173 1398.00
37.4825 1499.00
37.5477 1456.00
37.6129 1469.00
37.6781 1413.00
37.7433 1469.00
37.8085 1418.00
37.8736 1510.00
37.9388 1374.00
38.004 1534.00
38.0692 1488.00
38.1344 1443.00
38.1996 1483.00
38.2648 1455.00
38.33 1537.00
38.3952 1558.00
38.4604 1649.00
38.5256 2066.00
38.5908 3416.00
38.656 5906.00
38.7212 4391.00
38.7864 3429.00
38.8516 1913.00
38.9168 1595.00
38.982 1544.00
39.0472 1510.00
39.1124 1470.00
39.1776 1464.00
39.2428 1471.00
39.308 1398.00
39.3732 1410.00
39.4384 1428.00
39.5036 1394.00
39.5688 1420.00
39.634 1427.00
39.6992 1351.00
39.7644 1466.00
39.8296 1457.00
39.8948 1596.00
39.96 1570.00
40.0252 1828.00
40.0904 2468.00
40.1556 4644.00
40.2208 4559.00
40.286 3372.00
40.3512 2087.00
40.4164 1504.00
40.4816 1471.00
40.5468 1480.00
40.612 1458.00
40.6772 1408.00
40.7424 1399.00
40.8076 1408.00
40.8728 1428.00
40.938 1422.00
41.0032 1404.00
41.0684 1408.00
41.1336 1340.00
41.1988 1397.00
41.264 1389.00
41.3292 1403.00
41.3944 1474.00
41.4596 1374.00
41.5248 1398.00
41.59 1420.00
41.6552 1458.00
41.7204 1398.00
41.7856 1400.00
41.8508 1397.00
41.916 1387.00
41.9812 1357.00
42.0464 1438.00
42.1116 1409.00
42.1768 1409.00
42.242 1425.00
42.3072 1343.00
42.3724 1486.00
42.4376 1442.00
42.5028 1396.00
42.568 1402.00
42.6332 1394.00
42.6983 1406.00
42.7635 1364.00
42.8287 1385.00
42.8939 1457.00
42.9591 1370.00
43.0243 1434.00
43.0895 1431.00
43.1547 1350.00
43.2199 1367.00
43.2851 1423.00
43.3503 1489.00
43.4155 1408.00
43.4807 1428.00
43.5459 1400.00
43.6111 1459.00
43.6763 1325.00
43.7415 1446.00
43.8067 1456.00
43.8719 1504.00
43.9371 1445.00
44.0023 1505.00
44.0675 1506.00
44.1327 1631.00
44.1979 1732.00
44.2631 2189.00
44.3283 3898.00
44.3935 7345.00
44.4587 5168.00
44.5239 4570.00
44.5891 2367.00
44.6543 1705.00
44.7195 1659.00
44.7847 1679.00
44.8499 1659.00
44.9151 1740.00
44.9803 1994.00
45.0455 3455.00
45.1107 7516.00
45.1759 5692.00
45.2411 4953.00
45.3063 2496.00
45.3715 1664.00
45.4367 1478.00
45.5019 1442.00
45.5671 1438.00
45.6323 1406.00
45.6975 1406.00
45.7627 1330.00
45.8279 1366.00
45.8931 1384.00
45.9583 1511.00
46.0235 1444.00
46.0887 1360.00
46.1539 1388.00
46.2191 1416.00
46.2843 1382.00
46.3495 1321.00
46.4147 1402.00
46.4799 1402.00
46.5451 1409.00
46.6103 1434.00
46.6755 1634.00
46.7407 1898.00
46.8059 1666.00
46.8711 1653.00
46.9363 1595.00
47.0015 1460.00
47.0667 1551.00
47.1319 1470.00
47.1971 1432.00
47.2623 1425.00
47.3275 1366.00
47.3927 1386.00
47.4579 1411.00
47.523 1441.00
47.5882 1436.00
47.6534 1462.00
47.7186 1460.00
47.7838 1506.00
47.849 1470.00
47.9142 1452.00
47.9794 1580.00
48.0446 1590.00
48.1098 1724.00
48.175 1851.00
48.2402 2258.00
48.3054 4504.00
48.3706 10962.00
48.4358 8971.00
48.501 7053.00
48.5662 4567.00
48.6314 2159.00
48.6966 1906.00
48.7618 1899.00
48.827 2292.00
48.8922 3847.00
48.9574 8472.00
49.0226 10142.00
49.0878 6395.00
49.153 5685.00
49.2182 2367.00
49.2834 1766.00
49.3486 1667.00
49.4138 1533.00
49.479 1505.00
49.5442 1439.00
49.6094 1412.00
49.6746 1426.00
49.7398 1397.00
49.805 1452.00
49.8702 1463.00
49.9354 1455.00
50.0006 1470.00
50.0658 1531.00
50.131 1430.00
50.1962 1415.00
50.2614 1404.00
50.3266 1438.00
50.3918 1453.00
50.457 1705.00
50.5222 2356.00
50.5874 3977.00
50.6526 2749.00
50.7178 2724.00
50.783 1903.00
50.8482 1457.00
50.9134 1446.00
50.9786 1379.00
51.0438 1435.00
51.109 1370.00
51.1742 1331.00
51.2394 1374.00
51.3046 1384.00
51.3698 1316.00
51.435 1272.00
51.5002 1379.00
51.5654 1346.00
51.6306 1373.00
51.6958 1365.00
51.761 1321.00
51.8262 1357.00
51.8914 1309.00
51.9566 1353.00
52.0218 1343.00
52.087 1356.00
52.1522 1381.00
52.2174 1330.00
52.2826 1357.00
52.3477 1414.00
52.4129 1322.00
52.4781 1304.00
52.5433 1382.00
52.6085 1344.00
52.6737 1308.00
52.7389 1372.00
52.8041 1374.00
52.8693 1419.00
52.9345 1382.00
52.9997 1427.00
53.0649 1514.00
53.1301 1647.00
53.1953 2310.00
53.2605 3980.00
53.3257 3457.00
53.3909 2865.00
53.4561 2627.00
53.5213 1618.00
53.5865 1496.00
53.6517 1514.00
53.7169 1435.00
53.7821 1403.00
53.8473 1385.00
53.9125 1428.00
53.9777 1349.00
54.0429 1340.00
54.1081 1307.00
54.1733 1415.00
54.2385 1385.00
54.3037 1343.00
54.3689 1399.00
54.4341 1296.00
54.4993 1414.00
54.5645 1285.00
54.6297 1319.00
54.6949 1298.00
54.7601 1302.00
54.8253 1249.00
54.8905 1327.00
54.9557 1359.00
55.0209 1373.00
55.0861 1337.00
55.1513 1385.00
55.2165 1550.00
55.2817 2395.00
55.3469 3112.00
55.4121 2193.00
55.4773 2324.00
55.5425 1783.00
55.6077 1447.00
55.6729 1369.00
55.7381 1354.00
55.8033 1348.00
55.8685 1319.00
55.9337 1389.00
55.9989 1299.00
56.0641 1311.00
56.1293 1318.00
56.1945 1294.00
56.2597 1304.00
56.3249 1318.00
56.3901 1441.00
56.4553 1431.00
56.5205 1516.00
56.5857 1547.00
56.6509 1741.00
56.7161 2872.00
56.7813 5664.00
56.8465 5029.00
56.9117 3281.00
56.9769 3929.00
57.042 1984.00
57.1073 1604.00
57.1724 1512.00
57.2376 1499.00
57.3028 1415.00
57.368 1411.00
57.4332 1500.00
57.4984 1490.00
57.5636 1430.00
57.6288 1465.00
57.694 1415.00
57.7592 1483.00
57.8244 1646.00
57.8896 3177.00
57.9548 5839.00
58.02 2836.00
58.0852 3319.00
58.1504 2668.00
58.2156 1508.00
58.2808 1431.00
58.346 1335.00
58.4112 1382.00
58.4764 1325.00
58.5416 1311.00
58.6068 1280.00
58.672 1344.00
58.7372 1273.00
58.8024 1301.00
58.8676 1295.00
58.9328 1287.00
58.998 1275.00
59.0632 1333.00
59.1284 1295.00
59.1936 1289.00
59.2588 1282.00
59.324 1277.00
59.3892 1290.00
59.4544 1282.00
59.5196 1306.00
59.5848 1304.00
59.65 1287.00
59.7152 1231.00
59.7804 1265.00
59.8456 1331.00
59.9108 1333.00
59.976 1279.00
60.0412 1224.00
60.1064 1284.00
60.1716 1287.00
60.2368 1262.00
60.302 1254.00
60.3672 1223.00
60.4324 1271.00
60.4976 1232.00
60.5628 1348.00
60.628 1246.00
60.6932 1272.00
60.7584 1242.00
60.8236 1364.00
60.8888 1280.00
60.954 1292.00
61.0192 1306.00
61.0844 1354.00
61.1496 1411.00
61.2148 1656.00
61.28 1494.00
61.3452 1447.00
61.4104 1498.00
61.4756 1338.00
61.5408 1429.00
61.606 1404.00
61.6712 1446.00
61.7364 1945.00
61.8016 2879.00
61.8667 1947.00
61.932 1842.00
61.9971 1980.00
62.0623 1487.00
62.1275 1362.00
62.1927 1314.00
62.2579 1346.00
62.3231 1257.00
62.3883 1277.00
62.4535 1342.00
62.5187 1324.00
62.5839 1397.00
62.6491 1380.00
62.7143 1348.00
62.7795 1285.00
62.8447 1336.00
62.9099 1367.00
62.9751 1274.00
63.0403 1360.00
63.1055 1335.00
63.1707 1314.00
63.2359 1378.00
63.3011 1340.00
63.3663 1359.00
63.4315 1312.00
63.4967 1301.00
63.5619 1318.00
63.6271 1305.00
63.6923 1315.00
63.7575 1352.00
63.8227 1274.00
63.8879 1243.00
63.9531 1326.00
64.0183 1308.00
64.0835 1322.00
64.1487 1432.00
64.2139 1431.00
64.2791 1414.00
64.3443 1766.00
64.4095 2827.00
64.4747 4054.00
64.5399 2322.00
64.6051 2561.00
64.6703 2739.00
64.7355 1946.00
64.8007 2209.00
64.8659 3852.00
64.9311 8979.00
64.9963 8634.00
65.0615 4751.00
65.1267 6121.00
65.1919 4168.00
65.2571 2275.00
65.3223 1920.00
65.3875 1798.00
65.4527 2517.00
65.5179 4656.00
65.5831 2934.00
65.6483 2278.00
65.7135 3110.00
65.7787 1896.00
65.8439 1436.00
65.9091 1421.00
65.9743 1440.00
66.0395 1314.00
66.1047 1333.00
66.1699 1322.00
66.2351 1419.00
66.3003 1694.00
66.3655 1405.00
66.4307 1435.00
66.4959 1569.00
66.561 1332.00
66.6263 1310.00
66.6915 1334.00
66.7566 1227.00
66.8218 1279.00
66.887 1284.00
66.9522 1279.00
67.0174 1194.00
67.0826 1234.00
67.1478 1349.00
67.213 1258.00
67.2782 1242.00
67.3434 1318.00
67.4086 1272.00
67.4738 1244.00
67.539 1210.00
67.6042 1294.00
67.6694 1225.00
67.7346 1243.00
67.7998 1255.00
67.865 1301.00
67.9302 1309.00
67.9954 1274.00
68.0606 1336.00
68.1258 1269.00
68.191 1232.00
68.2562 1210.00
68.3214 1312.00
68.3866 1275.00
68.4518 1299.00
68.517 1375.00
68.5822 1306.00
68.6474 1287.00
68.7126 1376.00
68.7778 1567.00
68.843 1481.00
68.9082 1342.00
68.9734 1461.00
69.0386 1346.00
69.1038 1238.00
69.169 1230.00
69.2342 1262.00
69.2994 1281.00
69.3646 1278.00
69.4298 1320.00
69.495 1238.00
69.5602 1295.00
69.6254 1271.00
69.6906 1298.00
69.7558 1318.00
69.821 1309.00
69.8862 1291.00
69.9514 1289.00
70.0166 1302.00
70.0818 1286.00
70.147 1285.00
70.2122 1363.00
70.2774 1426.00
70.3426 1637.00
70.4078 1665.00
70.473 1938.00
70.5382 2686.00
70.6034 2935.00
70.6686 1914.00
70.7338 2055.00
70.799 2095.00
70.8642 1477.00
70.9294 1390.00
70.9946 1333.00
71.0598 1290.00
71.125 1234.00
71.1902 1219.00
71.2554 1297.00
71.3205 1245.00
71.3858 1266.00
71.451 1272.00
71.5162 1242.00
71.5813 1277.00
71.6465 1275.00
71.7117 1304.00
71.7769 1192.00
71.8421 1283.00
71.9073 1235.00
71.9725 1210.00
72.0377 1255.00
72.1029 1223.00
72.1681 1270.00
72.2333 1294.00
72.2985 1637.00
72.3637 1657.00
72.4289 1398.00
72.4941 1486.00
72.5593 1388.00
72.6245 1380.00
72.6897 1276.00
72.7549 1268.00
72.8201 1213.00
72.8853 1252.00
72.9505 1286.00
73.0157 1257.00
73.0809 1173.00
73.1461 1259.00
73.2113 1266.00
73.2765 1223.00
73.3417 1243.00
73.4069 1189.00
73.4721 1238.00
73.5373 1206.00
73.6025 1166.00
73.6677 1169.00
73.7329 1258.00
73.7981 1227.00
73.8633 1256.00
73.9285 1224.00
73.9937 1169.00
74.0589 1265.00
74.1241 1202.00
74.1893 1263.00
74.2545 1181.00
74.3197 1344.00
74.3849 1233.00
74.4501 1276.00
74.5153 1218.00
74.5805 1209.00
74.6457 1239.00
74.7109 1259.00
74.7761 1168.00
74.8413 1156.00
74.9065 1227.00
74.9717 1295.00
75.0369 1262.00
75.1021 1191.00
75.1673 1286.00
75.2325 1271.00
75.2977 1256.00
75.3629 1251.00
75.4281 1387.00
75.4933 1565.00
75.5585 2022.00
75.6237 2186.00
75.6889 2026.00
75.7541 2740.00
75.8193 3138.00
75.8845 1984.00
75.9497 1874.00
76.0149 2062.00
76.0801 1865.00
76.1452 1627.00
76.2104 1470.00
76.2756 1409.00
76.3409 1496.00
76.406 1292.00
76.4712 1305.00
76.5364 1233.00
76.6016 1297.00
76.6668 1295.00
76.732 1273.00
76.7972 1275.00
76.8624 1213.00
76.9276 1273.00
76.9928 1229.00
77.058 1228.00
77.1232 1290.00
77.1884 1357.00
77.2536 1448.00
77.3188 1641.00
77.384 1620.00
77.4492 1978.00
77.5144 2298.00
77.5796 1778.00
77.6448 1599.00
77.71 1691.00
77.7752 1549.00
77.8404 1416.00
77.9056 1409.00
77.9708 1311.00
78.036 1311.00
78.1012 1354.00
78.1664 1340.00
78.2316 1345.00
78.2968 1307.00
78.362 1405.00
78.4272 1791.00
78.4924 2997.00
78.5576 4371.00
78.6228 2421.00
78.688 1993.00
78.7532 2722.00
78.8184 2600.00
78.8836 2137.00
78.9488 3156.00
79.014 4371.00
79.0792 2581.00
79.1444 2161.00
79.2096 2714.00
79.2748 2547.00
79.34 1708.00
79.4052 1404.00
79.4704 1366.00
79.5356 1243.00
79.6008 1244.00
79.666 1308.00
79.7312 1300.00
79.7964 1249.00
79.8616 1225.00
79.9268 1284.00
79.992 1281.00
80.0572 1200.00
80.1224 1340.00
80.1876 1713.00
80.2528 2020.00
80.318 1486.00
80.3832 1421.00
80.4484 1491.00
80.5136 1516.00
80.5788 1310.00
80.644 1249.00
80.7092 1242.00
80.7744 1284.00
80.8396 1219.00
80.9048 1222.00
80.9699 1242.00
81.0351 1197.00
81.1003 1302.00
81.1655 1298.00
81.2307 1259.00
81.2959 1234.00
81.3611 1231.00
81.4263 1310.00
81.4915 1236.00
81.5567 1239.00
81.6219 1300.00
81.6871 1230.00
81.7523 1261.00
81.8175 1256.00
81.8827 1260.00
81.9479 1272.00
82.0131 1301.00
82.0783 1279.00
82.1435 1308.00
82.2087 1327.00
82.2739 1441.00
82.3391 1963.00
82.4043 1978.00
82.4695 2052.00
82.5347 2623.00
82.5999 2870.00
82.6651 1987.00
82.7303 1791.00
82.7955 1998.00
82.8607 1839.00
82.9259 1461.00
82.9911 1383.00
83.0563 1294.00
83.1215 1264.00
83.1867 1259.00
83.2519 1239.00
83.3171 1237.00
83.3823 1190.00
83.4475 1188.00
83.5127 1218.00
83.5779 1187.00
83.6431 1202.00
83.7083 1263.00
83.7735 1219.00
83.8387 1251.00
83.9039 1265.00
83.9691 1191.00
84.0343 1279.00
84.0995 1466.00
84.1647 1765.00
84.2299 2180.00
84.2951 2013.00
84.3603 1648.00
84.4255 1637.00
84.4907 1851.00
84.5559 1584.00
84.6211 1392.00
84.6863 1245.00
84.7515 1272.00
84.8167 1181.00
84.8819 1285.00
84.9471 1303.00
85.0123 1227.00
85.0775 1264.00
85.1427 1261.00
85.2079 1520.00
85.2731 1732.00
85.3383 1491.00
85.4035 1416.00
85.4687 1310.00
85.5339 1488.00
85.5991 1311.00
85.6643 1268.00
85.7295 1151.00
85.7946 1243.00
85.8598 1334.00
85.925 1334.00
85.9903 1385.00
86.0554 1323.00
86.1206 1386.00
86.1858 1783.00
86.251 1895.00
86.3162 1426.00
86.3814 1298.00
86.4466 1467.00
86.5118 1584.00
86.577 1281.00
86.6422 1243.00
86.7074 1250.00
86.7726 1270.00
86.8378 1200.00
86.903 1281.00
86.9682 1268.00
87.0334 1208.00
87.0986 1218.00
87.1638 1158.00
87.229 1255.00
87.2942 1200.00
87.3594 1230.00
87.4246 1244.00
87.4898 1178.00
87.555 1287.00
87.6202 1176.00
87.6854 1194.00
87.7506 1238.00
87.8158 1216.00
87.881 1190.00
87.9462 1169.00
88.0114 1211.00
88.0766 1225.00
88.1418 1184.00
88.207 1200.00
88.2722 1239.00
88.3374 1247.00
88.4026 1246.00
88.4678 1189.00
88.533 1294.00
88.5982 1164.00
88.6634 1174.00
88.7286 1209.00
88.7938 1229.00
88.859 1231.00
88.9242 1157.00
88.9894 1234.00
89.0546 1243.00
89.1198 1206.00
89.185 1224.00
89.2502 1154.00
89.3154 1224.00
89.3806 1268.00
89.4458 1294.00
89.511 1426.00
89.5762 1606.00
89.6414 1324.00
89.7066 1245.00
89.7718 1310.00
89.837 1427.00
89.9022 1322.00
89.9674 1238.00
90.0326 1260.00
90.0978 1206.00
90.163 1232.00
90.2282 1297.00
90.2934 1244.00
90.3586 1199.00
90.4238 1316.00
90.489 1285.00
90.5542 1289.00
90.6193 1293.00
90.6845 1422.00
90.7497 1541.00
90.8149 1592.00
90.8801 2033.00
90.9453 1931.00
91.0105 1652.00
91.0757 1447.00
91.1409 1541.00
91.2061 1602.00
91.2713 1433.00
91.3365 1290.00
91.4017 1216.00
91.4669 1246.00
91.5321 1249.00
91.5973 1218.00
91.6625 1246.00
91.7277 1201.00
91.7929 1219.00
91.8581 1263.00
91.9233 1290.00
91.9885 1265.00
92.0537 1297.00
92.1189 1298.00
92.1841 1390.00
92.2493 1601.00
92.3145 2118.00
92.3797 2647.00
92.4449 1953.00
92.5101 1553.00
92.5753 1612.00
92.6405 1977.00
92.7057 1880.00
92.7709 1577.00
92.8361 1755.00
92.9013 2331.00
92.9665 1491.00
93.0317 1369.00
93.0969 1368.00
93.1621 1652.00
93.2273 1582.00
93.2925 1412.00
93.3577 1316.00
93.4229 1267.00
93.4881 1295.00
93.5533 1559.00
93.6185 1543.00
93.6837 1214.00
93.7489 1301.00
93.8141 1316.00
93.8793 1407.00
93.9445 1376.00
94.0097 1293.00
94.0749 1204.00
94.1401 1193.00
94.2053 1210.00
94.2705 1216.00
94.3357 1229.00
94.4009 1267.00
94.4661 1229.00
94.5313 1172.00
94.5965 1191.00
94.6617 1230.00
94.7269 1239.00
94.7921 1276.00
94.8573 1192.00
94.9225 1176.00
94.9877 1201.00
95.0529 1236.00
95.1181 1223.00
95.1833 1164.00
95.2485 1148.00
95.3137 1189.00
95.3789 1226.00
95.444 1157.00
95.5092 1169.00
95.5744 1270.00
95.6396 1190.00
95.7048 1303.00
95.77 1309.00
95.8352 1504.00
95.9004 1792.00
95.9656 1429.00
96.0308 1327.00
96.096 1360.00
96.1612 1437.00
96.2264 1443.00
96.2916 1247.00
96.3568 1315.00
96.422 1217.00
96.4872 1180.00
96.5524 1197.00
96.6176 1141.00
96.6828 1251.00
96.748 1228.00
96.8132 1219.00
96.8784 1215.00
96.9436 1207.00
97.0088 1252.00
97.074 1338.00
97.1392 1264.00
97.2044 1319.00
97.2696 1339.00
97.3348 1536.00
97.4 1678.00
97.4652 1975.00
97.5304 2100.00
97.5956 2025.00
97.6608 1725.00
97.726 1606.00
97.7912 1654.00
97.8564 1656.00
97.9216 1631.00
97.9868 1374.00
98.052 1342.00
98.1172 1234.00
98.1824 1225.00
98.2476 1274.00
98.3128 1245.00
98.378 1268.00
98.4432 1329.00
98.5084 1437.00
98.5736 2043.00
98.6388 2066.00
98.704 1554.00
98.7692 1379.00
98.8344 1508.00
98.8996 1694.00
98.9648 1791.00
99.03 1375.00
99.0952 1451.00
99.1604 1608.00
99.2256 1544.00
99.2908 1368.00
99.356 1395.00
99.4212 1396.00
99.4864 1687.00
99.5516 2321.00
99.6168 2134.00
99.682 1543.00
99.7472 1316.00
99.8124 1393.00
99.8776 1643.00
99.9428 1649.00
100.008 1419.00
100.073 1312.00
100.095 1314.00