File: data/xrd_creation/results/NSC_133.xy
9.903433 2786.00
9.968632 2694.00
10.0338 2755.00
10.099 2683.00
10.1642 2660.00
10.2294 2581.00
10.2946 2688.00
10.3598 2593.00
10.425 2634.00
10.4902 2579.00
10.5554 2459.00
10.6206 2645.00
10.6858 2481.00
10.751 2602.00
10.8162 2544.00
10.8814 2499.00
10.9466 2475.00
11.0118 2513.00
11.077 2450.00
11.1422 2401.00
11.2074 2383.00
11.2726 2374.00
11.3378 2316.00
11.403 2365.00
11.4682 2303.00
11.5334 2373.00
11.5986 2302.00
11.6638 2230.00
11.729 2339.00
11.7942 2239.00
11.8594 2248.00
11.9246 2292.00
11.9898 2234.00
12.055 2254.00
12.1202 2230.00
12.1854 2368.00
12.2506 2195.00
12.3158 2204.00
12.381 2125.00
12.4462 2242.00
12.5114 2156.00
12.5766 2205.00
12.6418 2173.00
12.707 2132.00
12.7722 2115.00
12.8374 2111.00
12.9026 2086.00
12.9678 2097.00
13.033 1978.00
13.0982 2017.00
13.1634 2016.00
13.2286 1986.00
13.2938 2099.00
13.359 1964.00
13.4242 2069.00
13.4894 2089.00
13.5546 1990.00
13.6198 2038.00
13.685 2008.00
13.7502 2012.00
13.8154 1931.00
13.8805 2043.00
13.9457 2012.00
14.0109 1924.00
14.0761 1947.00
14.1413 1976.00
14.2065 1944.00
14.2717 1979.00
14.3369 2056.00
14.4021 2202.00
14.4673 2254.00
14.5325 2182.00
14.5977 2162.00
14.6629 2263.00
14.7281 2240.00
14.7933 2495.00
14.8585 2763.00
14.9237 3177.00
14.9889 3685.00
15.0541 3670.00
15.1193 3195.00
15.1845 2412.00
15.2497 2021.00
15.3149 2018.00
15.3801 1906.00
15.4453 1941.00
15.5105 1984.00
15.5757 1942.00
15.6409 1904.00
15.7061 1911.00
15.7713 1900.00
15.8365 1855.00
15.9017 1895.00
15.9669 1887.00
16.0321 1903.00
16.0973 1816.00
16.1625 1871.00
16.2277 1891.00
16.2929 1779.00
16.3581 1801.00
16.4233 1864.00
16.4885 1798.00
16.5537 1854.00
16.6189 1829.00
16.6841 1788.00
16.7493 1796.00
16.8145 1802.00
16.8797 1856.00
16.9449 1851.00
17.0101 1938.00
17.0753 1826.00
17.1405 1787.00
17.2057 1823.00
17.2709 1863.00
17.3361 1761.00
17.4013 1743.00
17.4665 1809.00
17.5317 1749.00
17.5969 1703.00
17.6621 1736.00
17.7273 1767.00
17.7925 1738.00
17.8577 1750.00
17.9229 1704.00
17.9881 1752.00
18.0533 1762.00
18.1185 1706.00
18.1837 1725.00
18.2489 1781.00
18.3141 1701.00
18.3793 1760.00
18.4445 1718.00
18.5097 1745.00
18.5749 1791.00
18.6401 1888.00
18.7052 1938.00
18.7704 2175.00
18.8356 2503.00
18.9008 3217.00
18.966 4167.00
19.0312 4223.00
19.0964 2698.00
19.1616 1954.00
19.2268 1792.00
19.292 1766.00
19.3572 1673.00
19.4224 1767.00
19.4876 1657.00
19.5528 1652.00
19.618 1661.00
19.6832 1662.00
19.7484 1777.00
19.8136 1780.00
19.8788 1907.00
19.944 2189.00
20.0092 2387.00
20.0744 2308.00
20.1396 2228.00
20.2048 2034.00
20.27 1979.00
20.3352 2021.00
20.4004 2153.00
20.4656 2511.00
20.5308 3118.00
20.596 4202.00
20.6612 5577.00
20.7264 6637.00
20.7916 6544.00
20.8568 4822.00
20.922 3239.00
20.9872 2337.00
21.0524 2131.00
21.1176 2099.00
21.1828 2132.00
21.248 2471.00
21.3132 2884.00
21.3784 3624.00
21.4436 4573.00
21.5088 5447.00
21.574 6474.00
21.6392 6736.00
21.7044 6971.00
21.7696 7428.00
21.8348 9512.00
21.9 12577.00
21.9652 10873.00
22.0304 5326.00
22.0956 2842.00
22.1608 2219.00
22.226 1957.00
22.2912 1850.00
22.3564 1713.00
22.4216 1703.00
22.4868 1791.00
22.552 1619.00
22.6172 1673.00
22.6824 1665.00
22.7476 1585.00
22.8128 1578.00
22.878 1600.00
22.9432 1473.00
23.0084 1599.00
23.0736 1494.00
23.1388 1577.00
23.204 1635.00
23.2692 1585.00
23.3344 1653.00
23.3996 1705.00
23.4647 1614.00
23.5299 1597.00
23.5951 1612.00
23.6603 1657.00
23.7255 1679.00
23.7907 1873.00
23.8559 2120.00
23.9211 2485.00
23.9863 2811.00
24.0515 2781.00
24.1167 2523.00
24.1819 2331.00
24.2471 2233.00
24.3123 2619.00
24.3775 3427.00
24.4427 4843.00
24.5079 6137.00
24.5731 5248.00
24.6383 4537.00
24.7035 5228.00
24.7687 6752.00
24.8339 8616.00
24.8991 9752.00
24.9643 9605.00
25.0295 7583.00
25.0947 5493.00
25.1599 3421.00
25.2251 2567.00
25.2903 1977.00
25.3555 1766.00
25.4207 1739.00
25.4859 1675.00
25.5511 1538.00
25.6163 1633.00
25.6815 1518.00
25.7467 1488.00
25.8119 1537.00
25.8771 1508.00
25.9423 1514.00
26.0075 1601.00
26.0727 1578.00
26.1379 1606.00
26.2031 1632.00
26.2683 1630.00
26.3335 1681.00
26.3987 1592.00
26.4639 1579.00
26.5291 1612.00
26.5943 1711.00
26.6595 2033.00
26.7247 2653.00
26.7899 3940.00
26.8551 4782.00
26.9203 3840.00
26.9855 2349.00
27.0507 1859.00
27.1159 1649.00
27.1811 1629.00
27.2463 1520.00
27.3115 1562.00
27.3767 1536.00
27.4419 1448.00
27.5071 1445.00
27.5723 1383.00
27.6375 1393.00
27.7027 1376.00
27.7679 1400.00
27.8331 1407.00
27.8983 1350.00
27.9635 1434.00
28.0287 1483.00
28.0939 1441.00
28.1591 1467.00
28.2243 1364.00
28.2894 1375.00
28.3546 1379.00
28.4198 1450.00
28.485 1314.00
28.5502 1420.00
28.6154 1487.00
28.6806 1549.00
28.7458 1697.00
28.811 1848.00
28.8762 1876.00
28.9414 1846.00
29.0066 1717.00
29.0718 1586.00
29.137 1508.00
29.2022 1521.00
29.2674 1456.00
29.3326 1393.00
29.3978 1489.00
29.463 1549.00
29.5282 1686.00
29.5934 1784.00
29.6586 1922.00
29.7238 2300.00
29.789 2734.00
29.8542 3457.00
29.9194 4010.00
29.9846 4451.00
30.0498 4257.00
30.115 3731.00
30.1802 3022.00
30.2454 2411.00
30.3106 1886.00
30.3758 1639.00
30.441 1576.00
30.5062 1531.00
30.5714 1611.00
30.6366 1690.00
30.7018 1670.00
30.767 1588.00
30.8322 1632.00
30.8974 2138.00
30.9626 2969.00
31.0278 4208.00
31.093 3906.00
31.1582 2641.00
31.2234 1764.00
31.2886 1503.00
31.3538 1489.00
31.419 1348.00
31.4842 1496.00
31.5494 1458.00
31.6146 1516.00
31.6798 1614.00
31.745 1827.00
31.8102 1983.00
31.8754 1998.00
31.9406 2039.00
32.0058 1933.00
32.071 1815.00
32.1362 1598.00
32.2014 1626.00
32.2666 1516.00
32.3318 1467.00
32.397 1509.00
32.4622 1545.00
32.5274 1704.00
32.5926 1808.00
32.6578 2036.00
32.723 2453.00
32.7882 3212.00
32.8534 4140.00
32.9186 5404.00
32.9838 6384.00
33.0489 6875.00
33.1141 6194.00
33.1793 5054.00
33.2445 3772.00
33.3097 2915.00
33.3749 2692.00
33.4401 2439.00
33.5053 2108.00
33.5705 1968.00
33.6357 1769.00
33.7009 1569.00
33.7661 1496.00
33.8313 1567.00
33.8965 1648.00
33.9617 1633.00
34.0269 1476.00
34.0921 1406.00
34.1573 1351.00
34.2225 1302.00
34.2877 1322.00
34.3529 1320.00
34.4181 1314.00
34.4833 1256.00
34.5485 1301.00
34.6137 1291.00
34.6789 1226.00
34.7441 1242.00
34.8093 1330.00
34.8745 1214.00
34.9397 1227.00
35.0049 1212.00
35.0701 1317.00
35.1353 1281.00
35.2005 1244.00
35.2657 1323.00
35.3309 1246.00
35.3961 1306.00
35.4613 1308.00
35.5265 1458.00
35.5917 1631.00
35.6569 1513.00
35.7221 1582.00
35.7873 1502.00
35.8525 1525.00
35.9177 1771.00
35.9829 1971.00
36.0481 2387.00
36.1133 2240.00
36.1785 2057.00
36.2437 1831.00
36.3089 1948.00
36.3741 2687.00
36.4393 4178.00
36.5045 5307.00
36.5697 4721.00
36.6349 3278.00
36.7001 2199.00
36.7653 1776.00
36.8305 1593.00
36.8957 1522.00
36.9609 1590.00
37.0261 1649.00
37.0913 1778.00
37.1565 1799.00
37.2217 1803.00
37.2869 1862.00
37.3521 1984.00
37.4173 2117.00
37.4825 2223.00
37.5477 2563.00
37.6129 2802.00
37.6781 2766.00
37.7433 2449.00
37.8085 2223.00
37.8736 2004.00
37.9388 1816.00
38.004 1713.00
38.0692 1705.00
38.1344 1844.00
38.1996 1835.00
38.2648 1684.00
38.33 1520.00
38.3952 1329.00
38.4604 1196.00
38.5256 1171.00
38.5908 1156.00
38.656 1135.00
38.7212 1177.00
38.7864 1166.00
38.8516 1134.00
38.9168 1155.00
38.982 1117.00
39.0472 1146.00
39.1124 1092.00
39.1776 1191.00
39.2428 1127.00
39.308 1159.00
39.3732 1128.00
39.4384 1100.00
39.5036 1143.00
39.5688 1155.00
39.634 1222.00
39.6992 1406.00
39.7644 1617.00
39.8296 1537.00
39.8948 1599.00
39.96 1375.00
40.0252 1197.00
40.0904 1226.00
40.1556 1217.00
40.2208 1139.00
40.286 1182.00
40.3512 1133.00
40.4164 1158.00
40.4816 1120.00
40.5468 1106.00
40.612 1094.00
40.6772 1102.00
40.7424 1177.00
40.8076 1055.00
40.8728 1152.00
40.938 1115.00
41.0032 1109.00
41.0684 1156.00
41.1336 1063.00
41.1988 1158.00
41.264 1226.00
41.3292 1240.00
41.3944 1227.00
41.4596 1197.00
41.5248 1219.00
41.59 1232.00
41.6552 1314.00
41.7204 1371.00
41.7856 1466.00
41.8508 1455.00
41.916 1424.00
41.9812 1333.00
42.0464 1318.00
42.1116 1313.00
42.1768 1272.00
42.242 1222.00
42.3072 1222.00
42.3724 1180.00
42.4376 1078.00
42.5028 1074.00
42.568 1131.00
42.6332 1092.00
42.6983 1141.00
42.7635 1160.00
42.8287 1142.00
42.8939 1181.00
42.9591 1104.00
43.0243 1157.00
43.0895 1156.00
43.1547 1223.00
43.2199 1199.00
43.2851 1287.00
43.3503 1410.00
43.4155 1512.00
43.4807 1582.00
43.5459 1901.00
43.6111 2277.00
43.6763 2155.00
43.7415 2070.00
43.8067 1576.00
43.8719 1372.00
43.9371 1274.00
44.0023 1210.00
44.0675 1237.00
44.1327 1237.00
44.1979 1297.00
44.2631 1463.00
44.3283 1506.00
44.3935 1420.00
44.4587 1385.00
44.5239 1313.00
44.5891 1262.00
44.6543 1193.00
44.7195 1208.00
44.7847 1107.00
44.8499 1186.00
44.9151 1092.00
44.9803 1083.00
45.0455 1195.00
45.1107 1235.00
45.1759 1234.00
45.2411 1327.00
45.3063 1456.00
45.3715 1461.00
45.4367 1582.00
45.5019 1651.00
45.5671 1674.00
45.6323 1891.00
45.6975 1886.00
45.7627 1923.00
45.8279 1801.00
45.8931 1443.00
45.9583 1300.00
46.0235 1335.00
46.0887 1218.00
46.1539 1161.00
46.2191 1202.00
46.2843 1171.00
46.3495 1190.00
46.4147 1180.00
46.4799 1201.00
46.5451 1167.00
46.6103 1250.00
46.6755 1201.00
46.7407 1166.00
46.8059 1205.00
46.8711 1219.00
46.9363 1292.00
47.0015 1315.00
47.0667 1552.00
47.1319 1712.00
47.1971 1758.00
47.2623 1892.00
47.3275 1806.00
47.3927 2017.00
47.4579 2045.00
47.523 1993.00
47.5882 1781.00
47.6534 1748.00
47.7186 1650.00
47.7838 1338.00
47.849 1262.00
47.9142 1269.00
47.9794 1116.00
48.0446 1189.00
48.1098 1185.00
48.175 1203.00
48.2402 1251.00
48.3054 1378.00
48.3706 1769.00
48.4358 2116.00
48.501 2364.00
48.5662 2240.00
48.6314 2120.00
48.6966 1915.00
48.7618 1697.00
48.827 1710.00
48.8922 1656.00
48.9574 1645.00
49.0226 1554.00
49.0878 1559.00
49.153 1549.00
49.2182 1549.00
49.2834 1401.00
49.3486 1410.00
49.4138 1354.00
49.479 1284.00
49.5442 1282.00
49.6094 1422.00
49.6746 1695.00
49.7398 2219.00
49.805 2865.00
49.8702 2774.00
49.9354 2473.00
50.0006 2036.00
50.0658 1666.00
50.131 1590.00
50.1962 1455.00
50.2614 1501.00
50.3266 1516.00
50.3918 1653.00
50.457 1870.00
50.5222 2025.00
50.5874 2124.00
50.6526 2150.00
50.7178 2256.00
50.783 2210.00
50.8482 2180.00
50.9134 2029.00
50.9786 2029.00
51.0438 1905.00
51.109 1831.00
51.1742 1769.00
51.2394 1622.00
51.3046 1381.00
51.3698 1261.00
51.435 1272.00
51.5002 1258.00
51.5654 1261.00
51.6306 1192.00
51.6958 1203.00
51.761 1315.00
51.8262 1229.00
51.8914 1213.00
51.9566 1138.00
52.0218 1252.00
52.087 1165.00
52.1522 1208.00
52.2174 1170.00
52.2826 1178.00
52.3477 1243.00
52.4129 1205.00
52.4781 1218.00
52.5433 1148.00
52.6085 1165.00
52.6737 1148.00
52.7389 1192.00
52.8041 1171.00
52.8693 1170.00
52.9345 1152.00
52.9997 1086.00
53.0649 1150.00
53.1301 1210.00
53.1953 1252.00
53.2605 1166.00
53.3257 1182.00
53.3909 1133.00
53.4561 1162.00
53.5213 1157.00
53.5865 1087.00
53.6517 1215.00
53.7169 1251.00
53.7821 1258.00
53.8473 1345.00
53.9125 1385.00
53.9777 1599.00
54.0429 1781.00
54.1081 1757.00
54.1733 1855.00
54.2385 1969.00
54.3037 1813.00
54.3689 1757.00
54.4341 1561.00
54.4993 1460.00
54.5645 1433.00
54.6297 1395.00
54.6949 1474.00
54.7601 1641.00
54.8253 2046.00
54.8905 2413.00
54.9557 2484.00
55.0209 2356.00
55.0861 2242.00
55.1513 1856.00
55.2165 1600.00
55.2817 1493.00
55.3469 1321.00
55.4121 1180.00
55.4773 1180.00
55.5425 1183.00
55.6077 1106.00
55.6729 1192.00
55.7381 1108.00
55.8033 1149.00
55.8685 1118.00
55.9337 1226.00
55.9989 1169.00
56.0641 1209.00
56.1293 1245.00
56.1945 1222.00
56.2597 1190.00
56.3249 1241.00
56.3901 1287.00
56.4553 1140.00
56.5205 1222.00
56.5857 1196.00
56.6509 1161.00
56.7161 1188.00
56.7813 1149.00
56.8465 1154.00
56.9117 1157.00
56.9769 1095.00
57.042 1233.00
57.1073 1223.00
57.1724 1335.00
57.2376 1321.00
57.3028 1391.00
57.368 1392.00
57.4332 1433.00
57.4984 1475.00
57.5636 1433.00
57.6288 1435.00
57.694 1464.00
57.7592 1433.00
57.8244 1446.00
57.8896 1456.00
57.9548 1368.00
58.02 1428.00
58.0852 1403.00
58.1504 1427.00
58.2156 1526.00
58.2808 1598.00
58.346 1926.00
58.4112 2419.00
58.4764 2819.00
58.5416 3213.00
58.6068 3236.00
58.672 2943.00
58.7372 2628.00
58.8024 2342.00
58.8676 2128.00
58.9328 1928.00
58.998 1839.00
59.0632 1807.00
59.1284 1600.00
59.1936 1504.00
59.2588 1479.00
59.324 1492.00
59.3892 1420.00
59.4544 1336.00
59.5196 1265.00
59.5848 1263.00
59.65 1193.00
59.7152 1196.00
59.7804 1184.00
59.8456 1174.00
59.9108 1221.00
59.976 1201.00
60.0412 1160.00
60.1064 1163.00
60.1716 1154.00
60.2368 1146.00
60.302 1236.00
60.3672 1160.00
60.4324 1203.00
60.4976 1194.00
60.5628 1188.00
60.628 1182.00
60.6932 1270.00
60.7584 1224.00
60.8236 1325.00
60.8888 1260.00
60.954 1155.00
61.0192 1244.00
61.0844 1236.00
61.1496 1256.00
61.2148 1278.00
61.28 1224.00
61.3452 1189.00
61.4104 1268.00
61.4756 1227.00
61.5408 1203.00
61.606 1254.00
61.6712 1138.00
61.7364 1225.00
61.8016 1314.00
61.8667 1270.00
61.932 1320.00
61.9971 1319.00
62.0623 1336.00
62.1275 1322.00
62.1927 1243.00
62.2579 1283.00
62.3231 1205.00
62.3883 1174.00
62.4535 1187.00
62.5187 1092.00
62.5839 1045.00
62.6491 1139.00
62.7143 1152.00
62.7795 1073.00
62.8447 1245.00
62.9099 1224.00
62.9751 1277.00
63.0403 1385.00
63.1055 1501.00
63.1707 1565.00
63.2359 1790.00
63.3011 1771.00
63.3663 1698.00
63.4315 1863.00
63.4967 1704.00
63.5619 1661.00
63.6271 1525.00
63.6923 1459.00
63.7575 1444.00
63.8227 1351.00
63.8879 1330.00
63.9531 1335.00
64.0183 1276.00
64.0835 1423.00
64.1487 1581.00
64.2139 1754.00
64.2791 1841.00
64.3443 1793.00
64.4095 1871.00
64.4747 1729.00
64.5399 1642.00
64.6051 1646.00
64.6703 1514.00
64.7355 1587.00
64.8007 1529.00
64.8659 1513.00
64.9311 1495.00
64.9963 1456.00
65.0615 1309.00
65.1267 1499.00
65.1919 1407.00
65.2571 1439.00
65.3223 1493.00
65.3875 1498.00
65.4527 1471.00
65.5179 1504.00
65.5831 1478.00
65.6483 1442.00
65.7135 1429.00
65.7787 1354.00
65.8439 1412.00
65.9091 1284.00
65.9743 1195.00
66.0395 1115.00
66.1047 1101.00
66.1699 1119.00
66.2351 1102.00
66.3003 1085.00
66.3655 1097.00
66.4307 1149.00
66.4959 1143.00
66.561 1159.00
66.6263 1197.00
66.6915 1213.00
66.7566 1222.00
66.8218 1191.00
66.887 1053.00
66.9522 1176.00
67.0174 1223.00
67.0826 1307.00
67.1478 1185.00
67.213 1260.00
67.2782 1310.00
67.3434 1395.00
67.4086 1530.00
67.4738 1685.00
67.539 1776.00
67.6042 1696.00
67.6694 1670.00
67.7346 1542.00
67.7998 1569.00
67.865 1488.00
67.9302 1438.00
67.9954 1346.00
68.0606 1282.00
68.1258 1186.00
68.191 1220.00
68.2562 1201.00
68.3214 1219.00
68.3866 1232.00
68.4518 1335.00
68.517 1391.00
68.5822 1495.00
68.6474 1642.00
68.7126 1508.00
68.7778 1528.00
68.843 1552.00
68.9082 1437.00
68.9734 1292.00
69.0386 1277.00
69.1038 1144.00
69.169 1102.00
69.2342 1151.00
69.2994 1125.00
69.3646 1110.00
69.4298 1022.00
69.495 1151.00
69.5602 1133.00
69.6254 1082.00
69.6906 1243.00
69.7558 1284.00
69.821 1299.00
69.8862 1279.00
69.9514 1259.00
70.0166 1232.00
70.0818 1174.00
70.147 1182.00
70.2122 1160.00
70.2774 1074.00
70.3426 1087.00
70.4078 1097.00
70.473 1047.00
70.5382 1045.00
70.6034 1010.00
70.6686 1157.00
70.7338 1145.00
70.799 1092.00
70.8642 1150.00
70.9294 1076.00
70.9946 1169.00
71.0598 1103.00
71.125 1067.00
71.1902 1028.00
71.2554 1078.00
71.3205 1107.00
71.3858 1110.00
71.451 1164.00
71.5162 1172.00
71.5813 1091.00
71.6465 1074.00
71.7117 1185.00
71.7769 1181.00
71.8421 1216.00
71.9073 1199.00
71.9725 1207.00
72.0377 1160.00
72.1029 1109.00
72.1681 1111.00
72.2333 1054.00
72.2985 1081.00
72.3637 1101.00
72.4289 1030.00
72.4941 1031.00
72.5593 1002.00
72.6245 1088.00
72.6897 1078.00
72.7549 1049.00
72.8201 1117.00
72.8853 1124.00
72.9505 1206.00
73.0157 1200.00
73.0809 1197.00
73.1461 1253.00
73.2113 1152.00
73.2765 1119.00
73.3417 1108.00
73.4069 1122.00
73.4721 1117.00
73.5373 1049.00
73.6025 1032.00
73.6677 1085.00
73.7329 1067.00
73.7981 1020.00
73.8633 1099.00
73.9285 1084.00
73.9937 1027.00
74.0589 1024.00
74.1241 1027.00
74.1893 1014.00
74.2545 1096.00
74.3197 975.00
74.3849 1078.00
74.4501 1066.00
74.5153 1025.00
74.5805 1004.00
74.6457 1067.00
74.7109 1077.00
74.7761 1038.00
74.8413 1097.00
74.9065 1138.00
74.9717 1172.00
75.0369 1230.00
75.1021 1161.00
75.1673 1187.00
75.2325 1115.00
75.2977 1147.00
75.3629 1156.00
75.4281 1168.00
75.4933 1138.00
75.5585 1087.00
75.6237 1152.00
75.6889 1252.00
75.7541 1294.00
75.8193 1175.00
75.8845 1298.00
75.9497 1315.00
76.0149 1359.00
76.0801 1372.00
76.1452 1354.00
76.2104 1234.00
76.2756 1254.00
76.3409 1167.00
76.406 1127.00
76.4712 1118.00
76.5364 1084.00
76.6016 1079.00
76.6668 1066.00
76.732 1103.00
76.7972 1055.00
76.8624 1038.00
76.9276 1078.00
76.9928 1177.00
77.058 1232.00
77.1232 1180.00
77.1884 1232.00
77.2536 1175.00
77.3188 1099.00
77.384 1080.00
77.4492 1111.00
77.5144 1060.00
77.5796 1018.00
77.6448 1096.00
77.71 1021.00
77.7752 1057.00
77.8404 1120.00
77.9056 1068.00
77.9708 1101.00
78.036 1186.00
78.1012 1181.00
78.1664 1178.00
78.2316 1228.00
78.2968 1097.00
78.362 1108.00
78.4272 1135.00
78.4924 1091.00
78.5576 1046.00
78.6228 1050.00
78.688 1030.00
78.7532 1069.00
78.8184 1043.00
78.8836 1049.00
78.9488 1079.00
79.014 1069.00
79.0792 1114.00
79.1444 1144.00
79.2096 1160.00
79.2748 1134.00
79.34 1250.00
79.4052 1213.00
79.4704 1130.00
79.5356 1138.00
79.6008 1242.00
79.666 1164.00
79.7312 1220.00
79.7964 1181.00
79.8616 1176.00
79.9268 1155.00
79.992 1169.00
80.0572 1111.00
80.1224 1113.00
80.1876 1093.00
80.2528 1122.00
80.318 1100.00
80.3832 1159.00
80.4484 1060.00
80.5136 1072.00
80.5788 1098.00
80.644 1129.00
80.7092 1014.00
80.7744 992.00
80.8396 1050.00
80.9048 1025.00
80.9699 1055.00
81.0351 1024.00
81.1003 1027.00
81.1655 1053.00
81.2307 1013.00
81.2959 1002.00
81.3611 1007.00
81.4263 950.00
81.4915 1061.00
81.5567 991.00
81.6219 965.00
81.6871 983.00
81.7523 952.00
81.8175 1045.00
81.8827 1026.00
81.9479 1059.00
82.0131 1081.00
82.0783 1064.00
82.1435 1065.00
82.2087 1074.00
82.2739 1066.00
82.3391 1110.00
82.4043 976.00
82.4695 1067.00
82.5347 993.00
82.5999 1025.00
82.6651 1001.00
82.7303 1016.00
82.7955 1013.00
82.8607 939.00
82.9259 979.00
82.9911 1002.00
83.0563 1014.00
83.1215 1013.00
83.1867 1025.00
83.2519 1061.00
83.3171 1030.00
83.3823 1087.00
83.4475 1093.00
83.5127 1102.00
83.5779 1037.00
83.6431 1048.00
83.7083 1041.00
83.7735 1032.00
83.8387 1044.00
83.9039 1038.00
83.9691 1005.00
84.0343 1008.00
84.0995 1179.00
84.1647 1194.00
84.2299 1111.00
84.2951 1097.00
84.3603 1118.00
84.4255 1136.00
84.4907 1120.00
84.5559 1080.00
84.6211 1085.00
84.6863 1082.00
84.7515 1001.00
84.8167 1062.00
84.8819 1070.00
84.9471 1056.00
85.0123 1075.00
85.0775 1167.00
85.1427 1163.00
85.2079 1221.00
85.2731 1185.00
85.3383 1211.00
85.4035 1201.00
85.4687 1207.00
85.5339 1112.00
85.5991 1093.00
85.6643 1156.00
85.7295 1215.00
85.7946 1165.00
85.8598 1125.00
85.925 1053.00
85.9903 1070.00
86.0554 1118.00
86.1206 1072.00
86.1858 1127.00
86.251 1121.00
86.3162 1083.00
86.3814 1086.00
86.4466 1000.00
86.5118 1032.00
86.577 1042.00
86.6422 1044.00
86.7074 1036.00
86.7726 1041.00
86.8378 936.00
86.903 933.00
86.9682 1001.00
87.0334 987.00
87.0986 1010.00
87.1638 967.00
87.229 1035.00
87.2942 1018.00
87.3594 1046.00
87.4246 958.00
87.4898 1022.00
87.555 1047.00
87.6202 981.00
87.6854 979.00
87.7506 993.00
87.8158 979.00
87.881 976.00
87.9462 1004.00
88.0114 950.00
88.0766 970.00
88.1418 946.00
88.207 957.00
88.2722 997.00
88.3374 982.00
88.4026 990.00
88.4678 985.00
88.533 1038.00
88.5982 1006.00
88.6634 993.00
88.7286 1063.00
88.7938 1026.00
88.859 1092.00
88.9242 1116.00
88.9894 1093.00
89.0546 1130.00
89.1198 1147.00
89.185 1177.00
89.2502 1229.00
89.3154 1225.00
89.3806 1150.00
89.4458 1224.00
89.511 1211.00
89.5762 1141.00
89.6414 1115.00
89.7066 1067.00
89.7718 1059.00
89.837 1076.00
89.9022 1093.00
89.9674 1056.00
90.0326 1057.00
90.0978 1128.00
90.163 1101.00
90.2282 1054.00
90.2934 1077.00
90.3586 1153.00
90.4238 1161.00
90.489 1094.00
90.5542 1153.00
90.6193 1123.00
90.6845 1153.00
90.7497 1121.00
90.8149 1229.00
90.8801 1174.00
90.9453 1166.00
91.0105 1128.00
91.0757 1158.00
91.1409 1170.00
91.2061 1150.00
91.2713 1190.00
91.3365 1133.00
91.4017 1153.00
91.4669 1153.00
91.5321 1177.00
91.5973 1079.00
91.6625 1170.00
91.7277 1110.00
91.7929 1140.00
91.8581 1107.00
91.9233 1039.00
91.9885 1197.00
92.0537 1182.00
92.1189 1178.00
92.1841 1254.00
92.2493 1258.00
92.3145 1236.00
92.3797 1217.00
92.4449 1259.00
92.5101 1179.00
92.5753 1111.00
92.6405 1163.00
92.7057 1127.00
92.7709 1016.00
92.8361 1040.00
92.9013 1061.00
92.9665 1012.00
93.0317 1071.00
93.0969 999.00
93.1621 978.00
93.2273 1086.00
93.2925 981.00
93.3577 1036.00
93.4229 996.00
93.4881 980.00
93.5533 1012.00
93.6185 1024.00
93.6837 988.00
93.7489 1007.00
93.8141 1056.00
93.8793 1094.00
93.9445 1048.00
94.0097 1057.00
94.0749 1016.00
94.1401 1031.00
94.2053 1076.00
94.2705 1020.00
94.3357 1060.00
94.4009 978.00
94.4661 1058.00
94.5313 1065.00
94.5965 1030.00
94.6617 956.00
94.7269 988.00
94.7921 1035.00
94.8573 1035.00
94.9225 973.00
94.9877 1015.00
95.0529 1088.00
95.1181 1081.00
95.1833 1113.00
95.2485 1082.00
95.3137 1031.00
95.3789 1091.00
95.444 1083.00
95.5092 1074.00
95.5744 1146.00
95.6396 1087.00
95.7048 1096.00
95.77 1071.00
95.8352 1108.00
95.9004 1058.00
95.9656 1041.00
96.0308 1056.00
96.096 1027.00
96.1612 1027.00
96.2264 1072.00
96.2916 1079.00
96.3568 1008.00
96.422 1060.00
96.4872 1042.00
96.5524 1086.00
96.6176 1023.00
96.6828 1028.00
96.748 1021.00
96.8132 986.00
96.8784 1033.00
96.9436 1040.00
97.0088 1014.00
97.074 1030.00
97.1392 982.00
97.2044 998.00
97.2696 1009.00
97.3348 1020.00
97.4 1009.00
97.4652 1052.00
97.5304 1007.00
97.5956 1049.00
97.6608 1101.00
97.726 1070.00
97.7912 1032.00
97.8564 1056.00
97.9216 976.00
97.9868 1033.00
98.052 1066.00
98.1172 1064.00
98.1824 1009.00
98.2476 955.00
98.3128 1002.00
98.378 1052.00
98.4432 985.00
98.5084 1046.00
98.5736 1018.00
98.6388 1035.00
98.704 974.00
98.7692 1022.00
98.8344 978.00
98.8996 948.00
98.9648 955.00
99.03 1007.00
99.0952 963.00
99.1604 1035.00
99.2256 1024.00
99.2908 994.00
99.356 981.00
99.4212 988.00
99.4864 1036.00
99.5516 983.00
99.6168 994.00
99.682 960.00
99.7472 994.00
99.8124 1029.00
99.8776 984.00
99.9428 990.00
100.008 1055.00
100.073 1053.00
100.095 1050.00