File: data/xrd_creation/results/NSC_90.xy
9.903433 2808.00
9.968632 2759.00
10.0338 2729.00
10.099 2797.00
10.1642 2678.00
10.2294 2762.00
10.2946 2627.00
10.3598 2612.00
10.425 2580.00
10.4902 2589.00
10.5554 2558.00
10.6206 2559.00
10.6858 2445.00
10.751 2502.00
10.8162 2447.00
10.8814 2452.00
10.9466 2437.00
11.0118 2489.00
11.077 2398.00
11.1422 2290.00
11.2074 2394.00
11.2726 2386.00
11.3378 2345.00
11.403 2275.00
11.4682 2236.00
11.5334 2333.00
11.5986 2219.00
11.6638 2285.00
11.729 2296.00
11.7942 2291.00
11.8594 2173.00
11.9246 2173.00
11.9898 2094.00
12.055 2144.00
12.1202 2108.00
12.1854 2165.00
12.2506 2121.00
12.3158 2096.00
12.381 2065.00
12.4462 2103.00
12.5114 2076.00
12.5766 2020.00
12.6418 1954.00
12.707 2046.00
12.7722 1973.00
12.8374 1973.00
12.9026 1935.00
12.9678 1855.00
13.033 1958.00
13.0982 1971.00
13.1634 1822.00
13.2286 1881.00
13.2938 1870.00
13.359 1864.00
13.4242 1897.00
13.4894 1968.00
13.5546 1849.00
13.6198 1762.00
13.685 1840.00
13.7502 1775.00
13.8154 1813.00
13.8805 1787.00
13.9457 1886.00
14.0109 1902.00
14.0761 1956.00
14.1413 2133.00
14.2065 2521.00
14.2717 2763.00
14.3369 2651.00
14.4021 2361.00
14.4673 1807.00
14.5325 1759.00
14.5977 1756.00
14.6629 1730.00
14.7281 1742.00
14.7933 1706.00
14.8585 1650.00
14.9237 1657.00
14.9889 1711.00
15.0541 1621.00
15.1193 1631.00
15.1845 1594.00
15.2497 1635.00
15.3149 1661.00
15.3801 1618.00
15.4453 1596.00
15.5105 1557.00
15.5757 1633.00
15.6409 1581.00
15.7061 1531.00
15.7713 1567.00
15.8365 1537.00
15.9017 1504.00
15.9669 1517.00
16.0321 1569.00
16.0973 1548.00
16.1625 1481.00
16.2277 1468.00
16.2929 1495.00
16.3581 1516.00
16.4233 1506.00
16.4885 1429.00
16.5537 1486.00
16.6189 1480.00
16.6841 1492.00
16.7493 1466.00
16.8145 1452.00
16.8797 1495.00
16.9449 1459.00
17.0101 1482.00
17.0753 1477.00
17.1405 1535.00
17.2057 1488.00
17.2709 1465.00
17.3361 1419.00
17.4013 1464.00
17.4665 1435.00
17.5317 1444.00
17.5969 1462.00
17.6621 1407.00
17.7273 1444.00
17.7925 1352.00
17.8577 1418.00
17.9229 1403.00
17.9881 1391.00
18.0533 1385.00
18.1185 1371.00
18.1837 1327.00
18.2489 1346.00
18.3141 1317.00
18.3793 1287.00
18.4445 1399.00
18.5097 1263.00
18.5749 1294.00
18.6401 1320.00
18.7052 1324.00
18.7704 1372.00
18.8356 1295.00
18.9008 1300.00
18.966 1266.00
19.0312 1383.00
19.0964 1345.00
19.1616 1340.00
19.2268 1308.00
19.292 1373.00
19.3572 1430.00
19.4224 1498.00
19.4876 1650.00
19.5528 1914.00
19.618 2517.00
19.6832 4058.00
19.7484 5568.00
19.8136 6195.00
19.8788 4144.00
19.944 2307.00
20.0092 1659.00
20.0744 1498.00
20.1396 1538.00
20.2048 1615.00
20.27 1677.00
20.3352 1652.00
20.4004 1803.00
20.4656 1782.00
20.5308 1925.00
20.596 2480.00
20.6612 3645.00
20.7264 5590.00
20.7916 7353.00
20.8568 6236.00
20.922 3475.00
20.9872 1865.00
21.0524 1533.00
21.1176 1399.00
21.1828 1354.00
21.248 1289.00
21.3132 1296.00
21.3784 1360.00
21.4436 1393.00
21.5088 1369.00
21.574 1289.00
21.6392 1208.00
21.7044 1162.00
21.7696 1173.00
21.8348 1127.00
21.9 1161.00
21.9652 1104.00
22.0304 1070.00
22.0956 1154.00
22.1608 1140.00
22.226 1095.00
22.2912 1077.00
22.3564 1113.00
22.4216 1050.00
22.4868 1081.00
22.552 1079.00
22.6172 1081.00
22.6824 1098.00
22.7476 1149.00
22.8128 1079.00
22.878 1150.00
22.9432 1167.00
23.0084 1168.00
23.0736 1264.00
23.1388 1238.00
23.204 1135.00
23.2692 1099.00
23.3344 1053.00
23.3996 1090.00
23.4647 1142.00
23.5299 1114.00
23.5951 1181.00
23.6603 1279.00
23.7255 1457.00
23.7907 1796.00
23.8559 2525.00
23.9211 4001.00
23.9863 4706.00
24.0515 3340.00
24.1167 1906.00
24.1819 1234.00
24.2471 1109.00
24.3123 1047.00
24.3775 1037.00
24.4427 1014.00
24.5079 942.00
24.5731 915.00
24.6383 963.00
24.7035 911.00
24.7687 985.00
24.8339 929.00
24.8991 956.00
24.9643 921.00
25.0295 907.00
25.0947 901.00
25.1599 928.00
25.2251 915.00
25.2903 881.00
25.3555 907.00
25.4207 939.00
25.4859 905.00
25.5511 943.00
25.6163 865.00
25.6815 833.00
25.7467 932.00
25.8119 936.00
25.8771 887.00
25.9423 909.00
26.0075 938.00
26.0727 885.00
26.1379 937.00
26.2031 948.00
26.2683 1033.00
26.3335 1250.00
26.3987 1674.00
26.4639 2600.00
26.5291 3400.00
26.5943 2916.00
26.6595 1787.00
26.7247 1123.00
26.7899 923.00
26.8551 906.00
26.9203 865.00
26.9855 832.00
27.0507 859.00
27.1159 823.00
27.1811 892.00
27.2463 818.00
27.3115 859.00
27.3767 841.00
27.4419 812.00
27.5071 763.00
27.5723 832.00
27.6375 827.00
27.7027 769.00
27.7679 802.00
27.8331 810.00
27.8983 853.00
27.9635 795.00
28.0287 797.00
28.0939 783.00
28.1591 832.00
28.2243 876.00
28.2894 771.00
28.3546 838.00
28.4198 863.00
28.485 845.00
28.5502 866.00
28.6154 973.00
28.6806 1280.00
28.7458 1904.00
28.811 2983.00
28.8762 4463.00
28.9414 4118.00
29.0066 2297.00
29.0718 1353.00
29.137 936.00
29.2022 884.00
29.2674 840.00
29.3326 765.00
29.3978 744.00
29.463 765.00
29.5282 749.00
29.5934 710.00
29.6586 750.00
29.7238 797.00
29.789 725.00
29.8542 747.00
29.9194 722.00
29.9846 731.00
30.0498 722.00
30.115 753.00
30.1802 682.00
30.2454 747.00
30.3106 708.00
30.3758 683.00
30.441 683.00
30.5062 686.00
30.5714 670.00
30.6366 717.00
30.7018 669.00
30.767 726.00
30.8322 703.00
30.8974 705.00
30.9626 666.00
31.0278 732.00
31.093 729.00
31.1582 765.00
31.2234 808.00
31.2886 828.00
31.3538 876.00
31.419 880.00
31.4842 1058.00
31.5494 1594.00
31.6146 2803.00
31.6798 5217.00
31.745 6576.00
31.8102 5068.00
31.8754 2738.00
31.9406 1403.00
32.0058 969.00
32.071 883.00
32.1362 889.00
32.2014 971.00
32.2666 1200.00
32.3318 1133.00
32.397 993.00
32.4622 785.00
32.5274 719.00
32.5926 681.00
32.6578 642.00
32.723 656.00
32.7882 681.00
32.8534 650.00
32.9186 706.00
32.9838 653.00
33.0489 623.00
33.1141 661.00
33.1793 651.00
33.2445 636.00
33.3097 661.00
33.3749 656.00
33.4401 659.00
33.5053 678.00
33.5705 713.00
33.6357 887.00
33.7009 1293.00
33.7661 2086.00
33.8313 2730.00
33.8965 2304.00
33.9617 1538.00
34.0269 1185.00
34.0921 1014.00
34.1573 821.00
34.2225 703.00
34.2877 642.00
34.3529 612.00
34.4181 606.00
34.4833 587.00
34.5485 598.00
34.6137 578.00
34.6789 552.00
34.7441 648.00
34.8093 624.00
34.8745 522.00
34.9397 608.00
35.0049 563.00
35.0701 603.00
35.1353 565.00
35.2005 579.00
35.2657 584.00
35.3309 606.00
35.3961 611.00
35.4613 599.00
35.5265 582.00
35.5917 658.00
35.6569 703.00
35.7221 973.00
35.7873 1437.00
35.8525 2246.00
35.9177 2404.00
35.9829 1818.00
36.0481 1276.00
36.1133 884.00
36.1785 795.00
36.2437 830.00
36.3089 1063.00
36.3741 1611.00
36.4393 2539.00
36.5045 3129.00
36.5697 2456.00
36.6349 1491.00
36.7001 914.00
36.7653 683.00
36.8305 669.00
36.8957 597.00
36.9609 628.00
37.0261 588.00
37.0913 591.00
37.1565 540.00
37.2217 542.00
37.2869 550.00
37.3521 542.00
37.4173 537.00
37.4825 527.00
37.5477 533.00
37.6129 562.00
37.6781 587.00
37.7433 634.00
37.8085 808.00
37.8736 1031.00
37.9388 1099.00
38.004 882.00
38.0692 657.00
38.1344 569.00
38.1996 559.00
38.2648 554.00
38.33 534.00
38.3952 612.00
38.4604 665.00
38.5256 673.00
38.5908 593.00
38.656 567.00
38.7212 529.00
38.7864 561.00
38.8516 565.00
38.9168 562.00
38.982 529.00
39.0472 544.00
39.1124 444.00
39.1776 497.00
39.2428 442.00
39.308 473.00
39.3732 498.00
39.4384 465.00
39.5036 474.00
39.5688 479.00
39.634 456.00
39.6992 469.00
39.7644 490.00
39.8296 466.00
39.8948 417.00
39.96 458.00
40.0252 439.00
40.0904 484.00
40.1556 643.00
40.2208 835.00
40.286 858.00
40.3512 805.00
40.4164 613.00
40.4816 480.00
40.5468 443.00
40.612 436.00
40.6772 454.00
40.7424 406.00
40.8076 465.00
40.8728 408.00
40.938 429.00
41.0032 424.00
41.0684 409.00
41.1336 440.00
41.1988 429.00
41.264 415.00
41.3292 430.00
41.3944 441.00
41.4596 405.00
41.5248 465.00
41.59 453.00
41.6552 481.00
41.7204 598.00
41.7856 788.00
41.8508 955.00
41.916 964.00
41.9812 873.00
42.0464 756.00
42.1116 586.00
42.1768 569.00
42.242 576.00
42.3072 710.00
42.3724 989.00
42.4376 971.00
42.5028 793.00
42.568 673.00
42.6332 560.00
42.6983 510.00
42.7635 477.00
42.8287 516.00
42.8939 541.00
42.9591 541.00
43.0243 459.00
43.0895 467.00
43.1547 446.00
43.2199 418.00
43.2851 421.00
43.3503 424.00
43.4155 475.00
43.4807 402.00
43.5459 420.00
43.6111 443.00
43.6763 455.00
43.7415 471.00
43.8067 553.00
43.8719 793.00
43.9371 1225.00
44.0023 1378.00
44.0675 1126.00
44.1327 950.00
44.1979 621.00
44.2631 518.00
44.3283 461.00
44.3935 476.00
44.4587 405.00
44.5239 402.00
44.5891 427.00
44.6543 411.00
44.7195 423.00
44.7847 434.00
44.8499 466.00
44.9151 536.00
44.9803 589.00
45.0455 587.00
45.1107 544.00
45.1759 471.00
45.2411 403.00
45.3063 444.00
45.3715 430.00
45.4367 404.00
45.5019 485.00
45.5671 501.00
45.6323 694.00
45.6975 1174.00
45.7627 1558.00
45.8279 1337.00
45.8931 1067.00
45.9583 724.00
46.0235 539.00
46.0887 441.00
46.1539 421.00
46.2191 392.00
46.2843 403.00
46.3495 417.00
46.4147 440.00
46.4799 378.00
46.5451 401.00
46.6103 408.00
46.6755 423.00
46.7407 427.00
46.8059 472.00
46.8711 472.00
46.9363 464.00
47.0015 571.00
47.0667 748.00
47.1319 1096.00
47.1971 1871.00
47.2623 2106.00
47.3275 1766.00
47.3927 1243.00
47.4579 821.00
47.523 551.00
47.5882 476.00
47.6534 386.00
47.7186 417.00
47.7838 418.00
47.849 365.00
47.9142 408.00
47.9794 394.00
48.0446 385.00
48.1098 365.00
48.175 357.00
48.2402 383.00
48.3054 393.00
48.3706 430.00
48.4358 488.00
48.501 501.00
48.5662 495.00
48.6314 467.00
48.6966 423.00
48.7618 512.00
48.827 509.00
48.8922 536.00
48.9574 640.00
49.0226 1010.00
49.0878 1794.00
49.153 2234.00
49.2182 1936.00
49.2834 1500.00
49.3486 925.00
49.4138 571.00
49.479 455.00
49.5442 499.00
49.6094 419.00
49.6746 421.00
49.7398 425.00
49.805 384.00
49.8702 429.00
49.9354 448.00
50.0006 508.00
50.0658 549.00
50.131 585.00
50.1962 476.00
50.2614 429.00
50.3266 388.00
50.3918 378.00
50.457 367.00
50.5222 363.00
50.5874 355.00
50.6526 331.00
50.7178 355.00
50.783 340.00
50.8482 339.00
50.9134 352.00
50.9786 362.00
51.0438 363.00
51.109 338.00
51.1742 394.00
51.2394 344.00
51.3046 345.00
51.3698 378.00
51.435 459.00
51.5002 508.00
51.5654 692.00
51.6306 1161.00
51.6958 1905.00
51.761 1887.00
51.8262 1570.00
51.8914 1267.00
51.9566 907.00
52.0218 811.00
52.087 1390.00
52.1522 2059.00
52.2174 1996.00
52.2826 1647.00
52.3477 1293.00
52.4129 825.00
52.4781 588.00
52.5433 513.00
52.6085 434.00
52.6737 346.00
52.7389 420.00
52.8041 357.00
52.8693 384.00
52.9345 459.00
52.9997 516.00
53.0649 506.00
53.1301 420.00
53.1953 400.00
53.2605 344.00
53.3257 372.00
53.3909 307.00
53.4561 311.00
53.5213 321.00
53.5865 351.00
53.6517 359.00
53.7169 343.00
53.7821 306.00
53.8473 330.00
53.9125 355.00
53.9777 294.00
54.0429 316.00
54.1081 333.00
54.1733 321.00
54.2385 339.00
54.3037 353.00
54.3689 346.00
54.4341 312.00
54.4993 424.00
54.5645 406.00
54.6297 583.00
54.6949 730.00
54.7601 687.00
54.8253 580.00
54.8905 514.00
54.9557 433.00
55.0209 354.00
55.0861 356.00
55.1513 342.00
55.2165 375.00
55.2817 355.00
55.3469 458.00
55.4121 731.00
55.4773 937.00
55.5425 786.00
55.6077 718.00
55.6729 587.00
55.7381 394.00
55.8033 410.00
55.8685 364.00
55.9337 307.00
55.9989 329.00
56.0641 358.00
56.1293 379.00
56.1945 350.00
56.2597 316.00
56.3249 344.00
56.3901 365.00
56.4553 450.00
56.5205 442.00
56.5857 563.00
56.6509 793.00
56.7161 1154.00
56.7813 1263.00
56.8465 1155.00
56.9117 1043.00
56.9769 974.00
57.042 1030.00
57.1073 1376.00
57.1724 1712.00
57.2376 1524.00
57.3028 1347.00
57.368 996.00
57.4332 761.00
57.4984 513.00
57.5636 450.00
57.6288 455.00
57.694 462.00
57.7592 531.00
57.8244 481.00
57.8896 470.00
57.9548 455.00
58.02 361.00
58.0852 381.00
58.1504 382.00
58.2156 405.00
58.2808 377.00
58.346 373.00
58.4112 371.00
58.4764 421.00
58.5416 505.00
58.6068 550.00
58.672 678.00
58.7372 735.00
58.8024 648.00
58.8676 585.00
58.9328 485.00
58.998 387.00
59.0632 384.00
59.1284 353.00
59.1936 346.00
59.2588 315.00
59.324 339.00
59.3892 323.00
59.4544 312.00
59.5196 318.00
59.5848 357.00
59.65 286.00
59.7152 350.00
59.7804 380.00
59.8456 449.00
59.9108 557.00
59.976 536.00
60.0412 427.00
60.1064 407.00
60.1716 399.00
60.2368 331.00
60.302 310.00
60.3672 299.00
60.4324 329.00
60.4976 316.00
60.5628 287.00
60.628 323.00
60.6932 311.00
60.7584 335.00
60.8236 334.00
60.8888 378.00
60.954 404.00
61.0192 496.00
61.0844 828.00
61.1496 1384.00
61.2148 1117.00
61.28 958.00
61.3452 896.00
61.4104 612.00
61.4756 481.00
61.5408 411.00
61.606 409.00
61.6712 386.00
61.7364 506.00
61.8016 615.00
61.8667 638.00
61.932 601.00
61.9971 573.00
62.0623 462.00
62.1275 451.00
62.1927 521.00
62.2579 414.00
62.3231 419.00
62.3883 436.00
62.4535 393.00
62.5187 452.00
62.5839 508.00
62.6491 760.00
62.7143 1231.00
62.7795 1460.00
62.8447 1220.00
62.9099 1297.00
62.9751 1265.00
63.0403 1024.00
63.1055 798.00
63.1707 722.00
63.2359 566.00
63.3011 488.00
63.3663 402.00
63.4315 379.00
63.4967 349.00
63.5619 330.00
63.6271 312.00
63.6923 338.00
63.7575 291.00
63.8227 323.00
63.8879 293.00
63.9531 314.00
64.0183 312.00
64.0835 371.00
64.1487 439.00
64.2139 455.00
64.2791 410.00
64.3443 432.00
64.4095 367.00
64.4747 419.00
64.5399 435.00
64.6051 442.00
64.6703 664.00
64.7355 576.00
64.8007 508.00
64.8659 488.00
64.9311 472.00
64.9963 413.00
65.0615 366.00
65.1267 397.00
65.1919 451.00
65.2571 592.00
65.3223 903.00
65.3875 970.00
65.4527 794.00
65.5179 829.00
65.5831 766.00
65.6483 710.00
65.7135 842.00
65.7787 826.00
65.8439 963.00
65.9091 1051.00
65.9743 889.00
66.0395 765.00
66.1047 626.00
66.1699 514.00
66.2351 415.00
66.3003 366.00
66.3655 354.00
66.4307 332.00
66.4959 287.00
66.561 301.00
66.6263 323.00
66.6915 300.00
66.7566 302.00
66.8218 281.00
66.887 342.00
66.9522 371.00
67.0174 477.00
67.0826 659.00
67.1478 823.00
67.213 756.00
67.2782 703.00
67.3434 652.00
67.4086 550.00
67.4738 415.00
67.539 369.00
67.6042 348.00
67.6694 331.00
67.7346 325.00
67.7998 342.00
67.865 293.00
67.9302 334.00
67.9954 268.00
68.0606 273.00
68.1258 251.00
68.191 272.00
68.2562 272.00
68.3214 258.00
68.3866 237.00
68.4518 263.00
68.517 285.00
68.5822 243.00
68.6474 231.00
68.7126 250.00
68.7778 266.00
68.843 239.00
68.9082 284.00
68.9734 282.00
69.0386 293.00
69.1038 321.00
69.169 313.00
69.2342 386.00
69.2994 559.00
69.3646 768.00
69.4298 953.00
69.495 787.00
69.5602 676.00
69.6254 690.00
69.6906 541.00
69.7558 395.00
69.821 310.00
69.8862 288.00
69.9514 282.00
70.0166 302.00
70.0818 256.00
70.147 289.00
70.2122 292.00
70.2774 222.00
70.3426 243.00
70.4078 270.00
70.473 262.00
70.5382 234.00
70.6034 274.00
70.6686 344.00
70.7338 325.00
70.799 337.00
70.8642 437.00
70.9294 449.00
70.9946 438.00
71.0598 398.00
71.125 432.00
71.1902 537.00
71.2554 467.00
71.3205 419.00
71.3858 393.00
71.451 394.00
71.5162 336.00
71.5813 291.00
71.6465 323.00
71.7117 308.00
71.7769 307.00
71.8421 286.00
71.9073 298.00
71.9725 285.00
72.0377 292.00
72.1029 265.00
72.1681 303.00
72.2333 233.00
72.2985 257.00
72.3637 235.00
72.4289 291.00
72.4941 243.00
72.5593 272.00
72.6245 246.00
72.6897 266.00
72.7549 244.00
72.8201 244.00
72.8853 263.00
72.9505 269.00
73.0157 262.00
73.0809 298.00
73.1461 328.00
73.2113 348.00
73.2765 512.00
73.3417 630.00
73.4069 714.00
73.4721 605.00
73.5373 545.00
73.6025 483.00
73.6677 377.00
73.7329 333.00
73.7981 294.00
73.8633 260.00
73.9285 285.00
73.9937 265.00
74.0589 276.00
74.1241 283.00
74.1893 262.00
74.2545 243.00
74.3197 274.00
74.3849 247.00
74.4501 267.00
74.5153 264.00
74.5805 242.00
74.6457 327.00
74.7109 288.00
74.7761 296.00
74.8413 296.00
74.9065 289.00
74.9717 345.00
75.0369 511.00
75.1021 571.00
75.1673 524.00
75.2325 435.00
75.2977 464.00
75.3629 423.00
75.4281 358.00
75.4933 315.00
75.5585 315.00
75.6237 376.00
75.6889 369.00
75.7541 354.00
75.8193 315.00
75.8845 338.00
75.9497 343.00
76.0149 344.00
76.0801 397.00
76.1452 441.00
76.2104 401.00
76.2756 344.00
76.3409 306.00
76.406 339.00
76.4712 287.00
76.5364 284.00
76.6016 249.00
76.6668 262.00
76.732 238.00
76.7972 243.00
76.8624 223.00
76.9276 230.00
76.9928 247.00
77.058 269.00
77.1232 276.00
77.1884 246.00
77.2536 283.00
77.3188 320.00
77.384 303.00
77.4492 333.00
77.5144 426.00
77.5796 495.00
77.6448 514.00
77.71 476.00
77.7752 444.00
77.8404 462.00
77.9056 448.00
77.9708 375.00
78.036 326.00
78.1012 312.00
78.1664 287.00
78.2316 286.00
78.2968 257.00
78.362 251.00
78.4272 290.00
78.4924 283.00
78.5576 359.00
78.6228 508.00
78.688 488.00
78.7532 397.00
78.8184 390.00
78.8836 474.00
78.9488 432.00
79.014 367.00
79.0792 351.00
79.1444 313.00
79.2096 351.00
79.2748 283.00
79.34 328.00
79.4052 279.00
79.4704 307.00
79.5356 334.00
79.6008 297.00
79.666 279.00
79.7312 301.00
79.7964 274.00
79.8616 234.00
79.9268 285.00
79.992 291.00
80.0572 288.00
80.1224 297.00
80.1876 305.00
80.2528 300.00
80.318 274.00
80.3832 257.00
80.4484 247.00
80.5136 256.00
80.5788 246.00
80.644 269.00
80.7092 237.00
80.7744 281.00
80.8396 294.00
80.9048 305.00
80.9699 412.00
81.0351 538.00
81.1003 620.00
81.1655 569.00
81.2307 517.00
81.2959 543.00
81.3611 585.00
81.4263 586.00
81.4915 521.00
81.5567 421.00
81.6219 373.00
81.6871 346.00
81.7523 348.00
81.8175 316.00
81.8827 275.00
81.9479 225.00
82.0131 240.00
82.0783 269.00
82.1435 263.00
82.2087 259.00
82.2739 198.00
82.3391 292.00
82.4043 288.00
82.4695 304.00
82.5347 403.00
82.5999 420.00
82.6651 470.00
82.7303 686.00
82.7955 642.00
82.8607 516.00
82.9259 453.00
82.9911 457.00
83.0563 455.00
83.1215 330.00
83.1867 303.00
83.2519 280.00
83.3171 304.00
83.3823 242.00
83.4475 243.00
83.5127 297.00
83.5779 341.00
83.6431 399.00
83.7083 394.00
83.7735 300.00
83.8387 291.00
83.9039 348.00
83.9691 325.00
84.0343 271.00
84.0995 267.00
84.1647 266.00
84.2299 219.00
84.2951 244.00
84.3603 217.00
84.4255 211.00
84.4907 265.00
84.5559 235.00
84.6211 202.00
84.6863 227.00
84.7515 250.00
84.8167 276.00
84.8819 345.00
84.9471 309.00
85.0123 250.00
85.0775 279.00
85.1427 284.00
85.2079 227.00
85.2731 211.00
85.3383 241.00
85.4035 225.00
85.4687 216.00
85.5339 238.00
85.5991 266.00
85.6643 234.00
85.7295 265.00
85.7946 285.00
85.8598 274.00
85.925 247.00
85.9903 259.00
86.0554 321.00
86.1206 353.00
86.1858 382.00
86.251 485.00
86.3162 542.00
86.3814 504.00
86.4466 412.00
86.5118 402.00
86.577 454.00
86.6422 391.00
86.7074 299.00
86.7726 271.00
86.8378 246.00
86.903 276.00
86.9682 303.00
87.0334 258.00
87.0986 267.00
87.1638 359.00
87.229 366.00
87.2942 335.00
87.3594 411.00
87.4246 459.00
87.4898 551.00
87.555 620.00
87.6202 582.00
87.6854 562.00
87.7506 479.00
87.8158 470.00
87.881 444.00
87.9462 397.00
88.0114 337.00
88.0766 332.00
88.1418 278.00
88.207 261.00
88.2722 283.00
88.3374 257.00
88.4026 250.00
88.4678 264.00
88.533 279.00
88.5982 350.00
88.6634 339.00
88.7286 312.00
88.7938 292.00
88.859 303.00
88.9242 300.00
88.9894 244.00
89.0546 266.00
89.1198 248.00
89.185 262.00
89.2502 257.00
89.3154 224.00
89.3806 262.00
89.4458 262.00
89.511 276.00
89.5762 267.00
89.6414 340.00
89.7066 394.00
89.7718 422.00
89.837 350.00
89.9022 296.00
89.9674 360.00
90.0326 378.00
90.0978 342.00
90.163 327.00
90.2282 380.00
90.2934 353.00
90.3586 314.00
90.4238 322.00
90.489 313.00
90.5542 358.00
90.6193 348.00
90.6845 343.00
90.7497 434.00
90.8149 495.00
90.8801 497.00
90.9453 392.00
91.0105 353.00
91.0757 361.00
91.1409 390.00
91.2061 347.00
91.2713 299.00
91.3365 320.00
91.4017 310.00
91.4669 324.00
91.5321 325.00
91.5973 298.00
91.6625 283.00
91.7277 250.00
91.7929 238.00
91.8581 265.00
91.9233 212.00
91.9885 237.00
92.0537 228.00
92.1189 300.00
92.1841 315.00
92.2493 315.00
92.3145 436.00
92.3797 550.00
92.4449 558.00
92.5101 471.00
92.5753 440.00
92.6405 488.00
92.7057 446.00
92.7709 442.00
92.8361 380.00
92.9013 327.00
92.9665 311.00
93.0317 301.00
93.0969 304.00
93.1621 297.00
93.2273 337.00
93.2925 349.00
93.3577 285.00
93.4229 280.00
93.4881 293.00
93.5533 288.00
93.6185 265.00
93.6837 264.00
93.7489 259.00
93.8141 247.00
93.8793 245.00
93.9445 311.00
94.0097 406.00
94.0749 445.00
94.1401 366.00
94.2053 309.00
94.2705 338.00
94.3357 383.00
94.4009 360.00
94.4661 311.00
94.5313 294.00
94.5965 272.00
94.6617 263.00
94.7269 222.00
94.7921 240.00
94.8573 281.00
94.9225 286.00
94.9877 296.00
95.0529 328.00
95.1181 375.00
95.1833 369.00
95.2485 364.00
95.3137 346.00
95.3789 343.00
95.444 311.00
95.5092 311.00
95.5744 336.00
95.6396 287.00
95.7048 310.00
95.77 297.00
95.8352 324.00
95.9004 342.00
95.9656 359.00
96.0308 331.00
96.096 367.00
96.1612 360.00
96.2264 373.00
96.2916 331.00
96.3568 294.00
96.422 289.00
96.4872 294.00
96.5524 283.00
96.6176 269.00
96.6828 223.00
96.748 246.00
96.8132 231.00
96.8784 267.00
96.9436 242.00
97.0088 227.00
97.074 230.00
97.1392 263.00
97.2044 258.00
97.2696 248.00
97.3348 267.00
97.4 308.00
97.4652 295.00
97.5304 284.00
97.5956 351.00
97.6608 398.00
97.726 429.00
97.7912 521.00
97.8564 524.00
97.9216 463.00
97.9868 412.00
98.052 374.00
98.1172 373.00
98.1824 428.00
98.2476 325.00
98.3128 323.00
98.378 292.00
98.4432 287.00
98.5084 242.00
98.5736 249.00
98.6388 232.00
98.704 264.00
98.7692 221.00
98.8344 231.00
98.8996 222.00
98.9648 196.00
99.03 222.00
99.0952 217.00
99.1604 228.00
99.2256 217.00
99.2908 211.00
99.356 224.00
99.4212 217.00
99.4864 264.00
99.5516 275.00
99.6168 286.00
99.682 261.00
99.7472 327.00
99.8124 366.00
99.8776 454.00
99.9428 518.00
100.008 486.00
100.073 453.00
100.095 490.00