File: data/xrd_creation/results/NSC_132.xy
9.903433 2924.00
9.968632 2753.00
10.0338 2847.00
10.099 2828.00
10.1642 2736.00
10.2294 2785.00
10.2946 2824.00
10.3598 2747.00
10.425 2634.00
10.4902 2702.00
10.5554 2700.00
10.6206 2651.00
10.6858 2622.00
10.751 2682.00
10.8162 2577.00
10.8814 2570.00
10.9466 2585.00
11.0118 2531.00
11.077 2551.00
11.1422 2547.00
11.2074 2474.00
11.2726 2507.00
11.3378 2514.00
11.403 2501.00
11.4682 2485.00
11.5334 2425.00
11.5986 2420.00
11.6638 2446.00
11.729 2501.00
11.7942 2490.00
11.8594 2310.00
11.9246 2362.00
11.9898 2393.00
12.055 2345.00
12.1202 2360.00
12.1854 2297.00
12.2506 2267.00
12.3158 2314.00
12.381 2294.00
12.4462 2308.00
12.5114 2271.00
12.5766 2216.00
12.6418 2236.00
12.707 2212.00
12.7722 2240.00
12.8374 2248.00
12.9026 2273.00
12.9678 2274.00
13.033 2248.00
13.0982 2254.00
13.1634 2168.00
13.2286 2289.00
13.2938 2175.00
13.359 2111.00
13.4242 2185.00
13.4894 2123.00
13.5546 2264.00
13.6198 2100.00
13.685 2057.00
13.7502 2166.00
13.8154 2243.00
13.8805 2286.00
13.9457 2273.00
14.0109 2329.00
14.0761 2527.00
14.1413 2687.00
14.2065 2982.00
14.2717 3528.00
14.3369 4181.00
14.4021 3769.00
14.4673 2405.00
14.5325 2132.00
14.5977 2203.00
14.6629 2121.00
14.7281 2129.00
14.7933 2078.00
14.8585 2192.00
14.9237 2110.00
14.9889 2252.00
15.0541 2281.00
15.1193 2383.00
15.1845 2589.00
15.2497 2860.00
15.3149 2947.00
15.3801 2574.00
15.4453 2140.00
15.5105 2023.00
15.5757 2076.00
15.6409 2037.00
15.7061 2004.00
15.7713 2050.00
15.8365 1972.00
15.9017 2151.00
15.9669 2004.00
16.0321 2025.00
16.0973 2042.00
16.1625 2018.00
16.2277 1993.00
16.2929 1963.00
16.3581 1969.00
16.4233 1976.00
16.4885 1983.00
16.5537 1973.00
16.6189 2081.00
16.6841 1907.00
16.7493 1926.00
16.8145 1923.00
16.8797 1918.00
16.9449 1955.00
17.0101 1971.00
17.0753 1966.00
17.1405 1966.00
17.2057 1938.00
17.2709 2022.00
17.3361 1920.00
17.4013 1917.00
17.4665 1878.00
17.5317 1917.00
17.5969 1978.00
17.6621 1856.00
17.7273 1833.00
17.7925 1871.00
17.8577 1893.00
17.9229 1887.00
17.9881 1870.00
18.0533 1870.00
18.1185 1902.00
18.1837 1916.00
18.2489 1885.00
18.3141 1910.00
18.3793 1991.00
18.4445 1886.00
18.5097 2063.00
18.5749 2063.00
18.6401 2165.00
18.7052 2533.00
18.7704 2885.00
18.8356 3799.00
18.9008 5378.00
18.966 7283.00
19.0312 5891.00
19.0964 2575.00
19.1616 2019.00
19.2268 2043.00
19.292 2067.00
19.3572 1974.00
19.4224 2134.00
19.4876 2300.00
19.5528 2504.00
19.618 3172.00
19.6832 4467.00
19.7484 6600.00
19.8136 10110.00
19.8788 10534.00
19.944 5238.00
20.0092 2813.00
20.0744 2415.00
20.1396 2346.00
20.2048 2351.00
20.27 2661.00
20.3352 3357.00
20.4004 4854.00
20.4656 7774.00
20.5308 12080.00
20.596 13043.00
20.6612 6938.00
20.7264 3834.00
20.7916 3236.00
20.8568 3370.00
20.922 3787.00
20.9872 4474.00
21.0524 4357.00
21.1176 2651.00
21.1828 2066.00
21.248 1915.00
21.3132 1951.00
21.3784 2196.00
21.4436 2150.00
21.5088 2306.00
21.574 2472.00
21.6392 3010.00
21.7044 4008.00
21.7696 6744.00
21.8348 11520.00
21.9 15931.00
21.9652 9904.00
22.0304 4954.00
22.0956 5327.00
22.1608 5368.00
22.226 3721.00
22.2912 2410.00
22.3564 1964.00
22.4216 1942.00
22.4868 1837.00
22.552 1822.00
22.6172 1779.00
22.6824 1762.00
22.7476 1785.00
22.8128 1810.00
22.878 1828.00
22.9432 1790.00
23.0084 1785.00
23.0736 1720.00
23.1388 1801.00
23.204 1794.00
23.2692 1769.00
23.3344 1885.00
23.3996 2034.00
23.4647 2118.00
23.5299 2318.00
23.5951 3007.00
23.6603 4808.00
23.7255 7489.00
23.7907 8010.00
23.8559 4933.00
23.9211 2746.00
23.9863 2215.00
24.0515 2016.00
24.1167 1845.00
24.1819 1857.00
24.2471 1994.00
24.3123 2248.00
24.3775 2872.00
24.4427 4148.00
24.5079 4386.00
24.5731 2727.00
24.6383 1934.00
24.7035 1859.00
24.7687 2126.00
24.8339 2120.00
24.8991 1894.00
24.9643 1905.00
25.0295 1977.00
25.0947 2105.00
25.1599 2360.00
25.2251 2703.00
25.2903 3188.00
25.3555 4035.00
25.4207 5164.00
25.4859 4701.00
25.5511 2727.00
25.6163 1861.00
25.6815 1736.00
25.7467 1738.00
25.8119 1662.00
25.8771 1647.00
25.9423 1618.00
26.0075 1672.00
26.0727 1636.00
26.1379 1742.00
26.2031 1772.00
26.2683 1781.00
26.3335 1717.00
26.3987 1656.00
26.4639 1697.00
26.5291 1650.00
26.5943 1752.00
26.6595 1990.00
26.7247 2780.00
26.7899 3741.00
26.8551 4068.00
26.9203 2697.00
26.9855 1787.00
27.0507 1727.00
27.1159 1770.00
27.1811 1769.00
27.2463 1584.00
27.3115 1614.00
27.3767 1661.00
27.4419 1624.00
27.5071 1580.00
27.5723 1571.00
27.6375 1527.00
27.7027 1603.00
27.7679 1535.00
27.8331 1589.00
27.8983 1627.00
27.9635 1619.00
28.0287 1779.00
28.0939 1752.00
28.1591 1676.00
28.2243 1643.00
28.2894 1698.00
28.3546 2076.00
28.4198 2578.00
28.485 4080.00
28.5502 6809.00
28.6154 7696.00
28.6806 5037.00
28.7458 2925.00
28.811 2139.00
28.8762 1857.00
28.9414 1640.00
29.0066 1647.00
29.0718 1575.00
29.137 1588.00
29.2022 1568.00
29.2674 1627.00
29.3326 1418.00
29.3978 1518.00
29.463 1512.00
29.5282 1561.00
29.5934 1599.00
29.6586 1596.00
29.7238 1618.00
29.789 1508.00
29.8542 1479.00
29.9194 1522.00
29.9846 1526.00
30.0498 1643.00
30.115 1774.00
30.1802 1720.00
30.2454 1876.00
30.3106 2054.00
30.3758 2187.00
30.441 2445.00
30.5062 3116.00
30.5714 3926.00
30.6366 3676.00
30.7018 2569.00
30.767 2079.00
30.8322 2147.00
30.8974 2919.00
30.9626 5138.00
31.0278 6978.00
31.093 4741.00
31.1582 2466.00
31.2234 1990.00
31.2886 2038.00
31.3538 2680.00
31.419 4538.00
31.4842 8262.00
31.5494 10739.00
31.6146 8299.00
31.6798 4947.00
31.745 3356.00
31.8102 2619.00
31.8754 2028.00
31.9406 1754.00
32.0058 1568.00
32.071 1577.00
32.1362 1540.00
32.2014 1513.00
32.2666 1531.00
32.3318 1576.00
32.397 1501.00
32.4622 1574.00
32.5274 1602.00
32.5926 1503.00
32.6578 1605.00
32.723 1651.00
32.7882 1631.00
32.8534 1588.00
32.9186 1622.00
32.9838 1532.00
33.0489 1576.00
33.1141 1726.00
33.1793 1867.00
33.2445 2022.00
33.3097 2483.00
33.3749 3014.00
33.4401 3827.00
33.5053 4876.00
33.5705 3997.00
33.6357 2683.00
33.7009 1777.00
33.7661 1729.00
33.8313 1877.00
33.8965 2183.00
33.9617 2233.00
34.0269 2239.00
34.0921 2126.00
34.1573 2013.00
34.2225 1952.00
34.2877 1706.00
34.3529 1576.00
34.4181 1490.00
34.4833 1483.00
34.5485 1412.00
34.6137 1437.00
34.6789 1457.00
34.7441 1407.00
34.8093 1470.00
34.8745 1390.00
34.9397 1460.00
35.0049 1437.00
35.0701 1553.00
35.1353 1696.00
35.2005 2164.00
35.2657 3510.00
35.3309 4768.00
35.3961 4066.00
35.4613 3086.00
35.5265 2346.00
35.5917 2390.00
35.6569 3407.00
35.7221 5347.00
35.7873 5753.00
35.8525 4529.00
35.9177 3424.00
35.9829 3052.00
36.0481 3054.00
36.1133 2837.00
36.1785 2395.00
36.2437 1999.00
36.3089 2259.00
36.3741 3725.00
36.4393 7065.00
36.5045 8543.00
36.5697 5642.00
36.6349 3019.00
36.7001 1755.00
36.7653 1584.00
36.8305 1539.00
36.8957 1380.00
36.9609 1462.00
37.0261 1425.00
37.0913 1353.00
37.1565 1351.00
37.2217 1351.00
37.2869 1408.00
37.3521 1372.00
37.4173 1468.00
37.4825 1535.00
37.5477 1876.00
37.6129 2211.00
37.6781 1870.00
37.7433 1778.00
37.8085 1727.00
37.8736 1757.00
37.9388 1905.00
38.004 2011.00
38.0692 2254.00
38.1344 2796.00
38.1996 2609.00
38.2648 2126.00
38.33 1642.00
38.3952 1605.00
38.4604 1658.00
38.5256 1781.00
38.5908 2198.00
38.656 2246.00
38.7212 1921.00
38.7864 1505.00
38.8516 1364.00
38.9168 1365.00
38.982 1354.00
39.0472 1403.00
39.1124 1393.00
39.1776 1349.00
39.2428 1343.00
39.308 1396.00
39.3732 1319.00
39.4384 1291.00
39.5036 1313.00
39.5688 1309.00
39.634 1412.00
39.6992 1541.00
39.7644 1768.00
39.8296 1711.00
39.8948 1994.00
39.96 2005.00
40.0252 1953.00
40.0904 1680.00
40.1556 1495.00
40.2208 1329.00
40.286 1318.00
40.3512 1387.00
40.4164 1338.00
40.4816 1391.00
40.5468 1396.00
40.612 1506.00
40.6772 1608.00
40.7424 1485.00
40.8076 1452.00
40.8728 1356.00
40.938 1260.00
41.0032 1248.00
41.0684 1274.00
41.1336 1327.00
41.1988 1360.00
41.264 1441.00
41.3292 1579.00
41.3944 1725.00
41.4596 2117.00
41.5248 2041.00
41.59 2077.00
41.6552 1989.00
41.7204 2058.00
41.7856 2103.00
41.8508 2088.00
41.916 1889.00
41.9812 1652.00
42.0464 1524.00
42.1116 1500.00
42.1768 1516.00
42.242 1451.00
42.3072 1460.00
42.3724 1529.00
42.4376 1556.00
42.5028 1530.00
42.568 1404.00
42.6332 1310.00
42.6983 1264.00
42.7635 1334.00
42.8287 1333.00
42.8939 1268.00
42.9591 1318.00
43.0243 1289.00
43.0895 1484.00
43.1547 1643.00
43.2199 2214.00
43.2851 2654.00
43.3503 2447.00
43.4155 2191.00
43.4807 1918.00
43.5459 2081.00
43.6111 2852.00
43.6763 2316.00
43.7415 2055.00
43.8067 1736.00
43.8719 1669.00
43.9371 1649.00
44.0023 1745.00
44.0675 1808.00
44.1327 1698.00
44.1979 1759.00
44.2631 2023.00
44.3283 1905.00
44.3935 1696.00
44.4587 1414.00
44.5239 1291.00
44.5891 1401.00
44.6543 1365.00
44.7195 1426.00
44.7847 1421.00
44.8499 1406.00
44.9151 1452.00
44.9803 1452.00
45.0455 1510.00
45.1107 1989.00
45.1759 2948.00
45.2411 3190.00
45.3063 2784.00
45.3715 2261.00
45.4367 1651.00
45.5019 1547.00
45.5671 1534.00
45.6323 1579.00
45.6975 1667.00
45.7627 1571.00
45.8279 1582.00
45.8931 1323.00
45.9583 1388.00
46.0235 1463.00
46.0887 1550.00
46.1539 2137.00
46.2191 2706.00
46.2843 2711.00
46.3495 2680.00
46.4147 2269.00
46.4799 1897.00
46.5451 1681.00
46.6103 1555.00
46.6755 1470.00
46.7407 1537.00
46.8059 1683.00
46.8711 2056.00
46.9363 2290.00
47.0015 2053.00
47.0667 1993.00
47.1319 1657.00
47.1971 1555.00
47.2623 1438.00
47.3275 1352.00
47.3927 1361.00
47.4579 1360.00
47.523 1326.00
47.5882 1414.00
47.6534 1440.00
47.7186 1299.00
47.7838 1394.00
47.849 1396.00
47.9142 1526.00
47.9794 1630.00
48.0446 1701.00
48.1098 2154.00
48.175 3292.00
48.2402 4378.00
48.3054 4131.00
48.3706 4139.00
48.4358 4626.00
48.501 3783.00
48.5662 2889.00
48.6314 2350.00
48.6966 1574.00
48.7618 1516.00
48.827 1556.00
48.8922 1646.00
48.9574 1642.00
49.0226 1521.00
49.0878 1436.00
49.153 1345.00
49.2182 1324.00
49.2834 1345.00
49.3486 1307.00
49.4138 1445.00
49.479 1417.00
49.5442 1493.00
49.6094 1776.00
49.6746 2225.00
49.7398 3756.00
49.805 4721.00
49.8702 3644.00
49.9354 3219.00
50.0006 2038.00
50.0658 1593.00
50.131 1441.00
50.1962 1360.00
50.2614 1285.00
50.3266 1266.00
50.3918 1273.00
50.457 1450.00
50.5222 1377.00
50.5874 1363.00
50.6526 1398.00
50.7178 1279.00
50.783 1343.00
50.8482 1400.00
50.9134 1488.00
50.9786 1538.00
51.0438 1623.00
51.109 1725.00
51.1742 1523.00
51.2394 1477.00
51.3046 1450.00
51.3698 1536.00
51.435 1737.00
51.5002 2303.00
51.5654 3210.00
51.6306 3641.00
51.6958 3117.00
51.761 2953.00
51.8262 2712.00
51.8914 2402.00
51.9566 2198.00
52.0218 2025.00
52.087 1742.00
52.1522 1525.00
52.2174 1477.00
52.2826 1266.00
52.3477 1280.00
52.4129 1353.00
52.4781 1230.00
52.5433 1289.00
52.6085 1282.00
52.6737 1392.00
52.7389 1327.00
52.8041 1379.00
52.8693 1409.00
52.9345 1420.00
52.9997 1472.00
53.0649 1464.00
53.1301 1386.00
53.1953 1361.00
53.2605 1332.00
53.3257 1300.00
53.3909 1333.00
53.4561 1272.00
53.5213 1256.00
53.5865 1299.00
53.6517 1284.00
53.7169 1247.00
53.7821 1248.00
53.8473 1221.00
53.9125 1250.00
53.9777 1329.00
54.0429 1214.00
54.1081 1287.00
54.1733 1358.00
54.2385 1392.00
54.3037 1437.00
54.3689 1484.00
54.4341 1738.00
54.4993 2076.00
54.5645 2005.00
54.6297 2042.00
54.6949 2002.00
54.7601 2117.00
54.8253 2928.00
54.8905 3917.00
54.9557 3226.00
55.0209 2999.00
55.0861 2685.00
55.1513 1897.00
55.2165 1753.00
55.2817 1891.00
55.3469 2160.00
55.4121 2432.00
55.4773 2357.00
55.5425 2427.00
55.6077 2822.00
55.6729 3429.00
55.7381 3491.00
55.8033 3146.00
55.8685 2728.00
55.9337 2351.00
55.9989 1900.00
56.0641 1795.00
56.1293 1666.00
56.1945 1439.00
56.2597 1368.00
56.3249 1335.00
56.3901 1280.00
56.4553 1258.00
56.5205 1230.00
56.5857 1187.00
56.6509 1238.00
56.7161 1285.00
56.7813 1303.00
56.8465 1324.00
56.9117 1223.00
56.9769 1220.00
57.042 1321.00
57.1073 1354.00
57.1724 1320.00
57.2376 1282.00
57.3028 1407.00
57.368 1331.00
57.4332 1290.00
57.4984 1297.00
57.5636 1363.00
57.6288 1312.00
57.694 1377.00
57.7592 1457.00
57.8244 1436.00
57.8896 1346.00
57.9548 1412.00
58.02 1348.00
58.0852 1480.00
58.1504 1291.00
58.2156 1445.00
58.2808 1578.00
58.346 1920.00
58.4112 2967.00
58.4764 4583.00
58.5416 4309.00
58.6068 3464.00
58.672 3365.00
58.7372 2408.00
58.8024 1888.00
58.8676 1662.00
58.9328 1576.00
58.998 1436.00
59.0632 1350.00
59.1284 1325.00
59.1936 1389.00
59.2588 1307.00
59.324 1374.00
59.3892 1322.00
59.4544 1349.00
59.5196 1356.00
59.5848 1381.00
59.65 1371.00
59.7152 1442.00
59.7804 1409.00
59.8456 1505.00
59.9108 1541.00
59.976 1708.00
60.0412 1921.00
60.1064 2137.00
60.1716 2501.00
60.2368 2474.00
60.302 2349.00
60.3672 2280.00
60.4324 2177.00
60.4976 1918.00
60.5628 1688.00
60.628 1695.00
60.6932 1535.00
60.7584 1407.00
60.8236 1374.00
60.8888 1339.00
60.954 1298.00
61.0192 1301.00
61.0844 1408.00
61.1496 1489.00
61.2148 1911.00
61.28 2214.00
61.3452 2354.00
61.4104 2256.00
61.4756 2307.00
61.5408 1886.00
61.606 1774.00
61.6712 1684.00
61.7364 1480.00
61.8016 1444.00
61.8667 1452.00
61.932 1508.00
61.9971 1426.00
62.0623 1383.00
62.1275 1271.00
62.1927 1309.00
62.2579 1277.00
62.3231 1261.00
62.3883 1348.00
62.4535 1521.00
62.5187 1700.00
62.5839 1810.00
62.6491 1831.00
62.7143 1774.00
62.7795 1720.00
62.8447 1673.00
62.9099 1546.00
62.9751 1524.00
63.0403 1516.00
63.1055 1645.00
63.1707 1801.00
63.2359 1844.00
63.3011 1819.00
63.3663 1807.00
63.4315 1845.00
63.4967 1834.00
63.5619 1819.00
63.6271 1884.00
63.6923 1802.00
63.7575 1781.00
63.8227 1829.00
63.8879 1941.00
63.9531 1906.00
64.0183 1841.00
64.0835 1961.00
64.1487 2345.00
64.2139 2650.00
64.2791 2361.00
64.3443 2146.00
64.4095 2209.00
64.4747 2019.00
64.5399 1723.00
64.6051 1530.00
64.6703 1517.00
64.7355 1431.00
64.8007 1335.00
64.8659 1284.00
64.9311 1184.00
64.9963 1230.00
65.0615 1225.00
65.1267 1391.00
65.1919 1332.00
65.2571 1440.00
65.3223 1527.00
65.3875 1509.00
65.4527 1619.00
65.5179 1626.00
65.5831 1628.00
65.6483 1465.00
65.7135 1381.00
65.7787 1369.00
65.8439 1271.00
65.9091 1283.00
65.9743 1378.00
66.0395 1320.00
66.1047 1376.00
66.1699 1468.00
66.2351 1669.00
66.3003 1925.00
66.3655 2042.00
66.4307 2206.00
66.4959 2298.00
66.561 2090.00
66.6263 1895.00
66.6915 1725.00
66.7566 1504.00
66.8218 1383.00
66.887 1244.00
66.9522 1302.00
67.0174 1257.00
67.0826 1144.00
67.1478 1194.00
67.213 1201.00
67.2782 1270.00
67.3434 1335.00
67.4086 1688.00
67.4738 2210.00
67.539 2677.00
67.6042 2248.00
67.6694 2136.00
67.7346 2053.00
67.7998 1794.00
67.865 1551.00
67.9302 1642.00
67.9954 1630.00
68.0606 1683.00
68.1258 1750.00
68.191 1540.00
68.2562 1507.00
68.3214 1486.00
68.3866 1430.00
68.4518 1421.00
68.517 1579.00
68.5822 1918.00
68.6474 2084.00
68.7126 1755.00
68.7778 1739.00
68.843 1675.00
68.9082 1441.00
68.9734 1499.00
69.0386 1566.00
69.1038 1622.00
69.169 1570.00
69.2342 1531.00
69.2994 1586.00
69.3646 1493.00
69.4298 1462.00
69.495 1465.00
69.5602 1412.00
69.6254 1369.00
69.6906 1324.00
69.7558 1313.00
69.821 1277.00
69.8862 1282.00
69.9514 1220.00
70.0166 1142.00
70.0818 1150.00
70.147 1147.00
70.2122 1210.00
70.2774 1139.00
70.3426 1218.00
70.4078 1165.00
70.473 1179.00
70.5382 1249.00
70.6034 1313.00
70.6686 1445.00
70.7338 1530.00
70.799 1429.00
70.8642 1421.00
70.9294 1453.00
70.9946 1414.00
71.0598 1287.00
71.125 1347.00
71.1902 1519.00
71.2554 1569.00
71.3205 1710.00
71.3858 1640.00
71.451 1633.00
71.5162 1579.00
71.5813 1421.00
71.6465 1398.00
71.7117 1268.00
71.7769 1216.00
71.8421 1216.00
71.9073 1122.00
71.9725 1185.00
72.0377 1204.00
72.1029 1196.00
72.1681 1171.00
72.2333 1193.00
72.2985 1128.00
72.3637 1193.00
72.4289 1239.00
72.4941 1233.00
72.5593 1150.00
72.6245 1183.00
72.6897 1212.00
72.7549 1290.00
72.8201 1518.00
72.8853 1475.00
72.9505 1411.00
73.0157 1374.00
73.0809 1333.00
73.1461 1359.00
73.2113 1206.00
73.2765 1257.00
73.3417 1255.00
73.4069 1316.00
73.4721 1272.00
73.5373 1286.00
73.6025 1207.00
73.6677 1210.00
73.7329 1277.00
73.7981 1184.00
73.8633 1349.00
73.9285 1424.00
73.9937 1558.00
74.0589 1597.00
74.1241 1571.00
74.1893 1583.00
74.2545 1440.00
74.3197 1452.00
74.3849 1344.00
74.4501 1394.00
74.5153 1311.00
74.5805 1290.00
74.6457 1211.00
74.7109 1280.00
74.7761 1289.00
74.8413 1267.00
74.9065 1458.00
74.9717 1384.00
75.0369 1416.00
75.1021 1385.00
75.1673 1543.00
75.2325 1623.00
75.2977 1688.00
75.3629 1578.00
75.4281 1559.00
75.4933 1567.00
75.5585 1589.00
75.6237 1489.00
75.6889 1589.00
75.7541 1530.00
75.8193 1511.00
75.8845 1618.00
75.9497 1734.00
76.0149 1762.00
76.0801 1605.00
76.1452 1433.00
76.2104 1445.00
76.2756 1376.00
76.3409 1209.00
76.406 1184.00
76.4712 1185.00
76.5364 1208.00
76.6016 1232.00
76.6668 1199.00
76.732 1136.00
76.7972 1187.00
76.8624 1227.00
76.9276 1374.00
76.9928 1608.00
77.058 1586.00
77.1232 1505.00
77.1884 1425.00
77.2536 1399.00
77.3188 1309.00
77.384 1237.00
77.4492 1214.00
77.5144 1279.00
77.5796 1332.00
77.6448 1363.00
77.71 1355.00
77.7752 1396.00
77.8404 1258.00
77.9056 1323.00
77.9708 1266.00
78.036 1322.00
78.1012 1190.00
78.1664 1103.00
78.2316 1242.00
78.2968 1208.00
78.362 1075.00
78.4272 1169.00
78.4924 1215.00
78.5576 1173.00
78.6228 1262.00
78.688 1285.00
78.7532 1288.00
78.8184 1395.00
78.8836 1502.00
78.9488 1522.00
79.014 1505.00
79.0792 1693.00
79.1444 1713.00
79.2096 1723.00
79.2748 1664.00
79.34 1649.00
79.4052 1486.00
79.4704 1471.00
79.5356 1394.00
79.6008 1427.00
79.666 1338.00
79.7312 1411.00
79.7964 1283.00
79.8616 1306.00
79.9268 1256.00
79.992 1310.00
80.0572 1337.00
80.1224 1312.00
80.1876 1291.00
80.2528 1256.00
80.318 1259.00
80.3832 1305.00
80.4484 1131.00
80.5136 1142.00
80.5788 1186.00
80.644 1194.00
80.7092 1160.00
80.7744 1193.00
80.8396 1192.00
80.9048 1114.00
80.9699 1220.00
81.0351 1228.00
81.1003 1315.00
81.1655 1419.00
81.2307 1521.00
81.2959 1497.00
81.3611 1604.00
81.4263 1416.00
81.4915 1315.00
81.5567 1376.00
81.6219 1185.00
81.6871 1213.00
81.7523 1259.00
81.8175 1186.00
81.8827 1125.00
81.9479 1174.00
82.0131 1234.00
82.0783 1214.00
82.1435 1236.00
82.2087 1302.00
82.2739 1247.00
82.3391 1239.00
82.4043 1340.00
82.4695 1261.00
82.5347 1237.00
82.5999 1220.00
82.6651 1262.00
82.7303 1303.00
82.7955 1252.00
82.8607 1184.00
82.9259 1173.00
82.9911 1181.00
83.0563 1230.00
83.1215 1185.00
83.1867 1133.00
83.2519 1195.00
83.3171 1210.00
83.3823 1221.00
83.4475 1171.00
83.5127 1219.00
83.5779 1270.00
83.6431 1464.00
83.7083 1372.00
83.7735 1367.00
83.8387 1434.00
83.9039 1425.00
83.9691 1479.00
84.0343 1463.00
84.0995 1510.00
84.1647 1587.00
84.2299 1454.00
84.2951 1317.00
84.3603 1357.00
84.4255 1410.00
84.4907 1251.00
84.5559 1193.00
84.6211 1237.00
84.6863 1187.00
84.7515 1204.00
84.8167 1224.00
84.8819 1257.00
84.9471 1295.00
85.0123 1430.00
85.0775 1489.00
85.1427 1588.00
85.2079 1602.00
85.2731 1592.00
85.3383 1473.00
85.4035 1368.00
85.4687 1421.00
85.5339 1330.00
85.5991 1274.00
85.6643 1259.00
85.7295 1339.00
85.7946 1361.00
85.8598 1340.00
85.925 1289.00
85.9903 1331.00
86.0554 1327.00
86.1206 1361.00
86.1858 1320.00
86.251 1314.00
86.3162 1327.00
86.3814 1337.00
86.4466 1360.00
86.5118 1346.00
86.577 1313.00
86.6422 1313.00
86.7074 1293.00
86.7726 1301.00
86.8378 1265.00
86.903 1316.00
86.9682 1349.00
87.0334 1306.00
87.0986 1349.00
87.1638 1333.00
87.229 1267.00
87.2942 1244.00
87.3594 1299.00
87.4246 1267.00
87.4898 1336.00
87.555 1347.00
87.6202 1252.00
87.6854 1234.00
87.7506 1291.00
87.8158 1298.00
87.881 1309.00
87.9462 1199.00
88.0114 1190.00
88.0766 1210.00
88.1418 1176.00
88.207 1256.00
88.2722 1299.00
88.3374 1260.00
88.4026 1298.00
88.4678 1219.00
88.533 1127.00
88.5982 1221.00
88.6634 1160.00
88.7286 1161.00
88.7938 1208.00
88.859 1207.00
88.9242 1200.00
88.9894 1160.00
89.0546 1258.00
89.1198 1449.00
89.185 1574.00
89.2502 1573.00
89.3154 1418.00
89.3806 1374.00
89.4458 1437.00
89.511 1473.00
89.5762 1523.00
89.6414 1358.00
89.7066 1471.00
89.7718 1561.00
89.837 1534.00
89.9022 1457.00
89.9674 1492.00
90.0326 1425.00
90.0978 1340.00
90.163 1370.00
90.2282 1392.00
90.2934 1290.00
90.3586 1339.00
90.4238 1302.00
90.489 1229.00
90.5542 1333.00
90.6193 1254.00
90.6845 1299.00
90.7497 1297.00
90.8149 1237.00
90.8801 1224.00
90.9453 1236.00
91.0105 1244.00
91.0757 1267.00
91.1409 1219.00
91.2061 1186.00
91.2713 1217.00
91.3365 1269.00
91.4017 1239.00
91.4669 1256.00
91.5321 1268.00
91.5973 1242.00
91.6625 1219.00
91.7277 1302.00
91.7929 1339.00
91.8581 1444.00
91.9233 1401.00
91.9885 1453.00
92.0537 1608.00
92.1189 1799.00
92.1841 2000.00
92.2493 1917.00
92.3145 1609.00
92.3797 1601.00
92.4449 1571.00
92.5101 1630.00
92.5753 1543.00
92.6405 1377.00
92.7057 1372.00
92.7709 1381.00
92.8361 1351.00
92.9013 1304.00
92.9665 1415.00
93.0317 1413.00
93.0969 1339.00
93.1621 1359.00
93.2273 1341.00
93.2925 1286.00
93.3577 1247.00
93.4229 1192.00
93.4881 1144.00
93.5533 1244.00
93.6185 1162.00
93.6837 1216.00
93.7489 1238.00
93.8141 1174.00
93.8793 1211.00
93.9445 1189.00
94.0097 1239.00
94.0749 1191.00
94.1401 1240.00
94.2053 1290.00
94.2705 1315.00
94.3357 1349.00
94.4009 1314.00
94.4661 1316.00
94.5313 1269.00
94.5965 1302.00
94.6617 1210.00
94.7269 1250.00
94.7921 1206.00
94.8573 1163.00
94.9225 1179.00
94.9877 1225.00
95.0529 1170.00
95.1181 1171.00
95.1833 1178.00
95.2485 1255.00
95.3137 1300.00
95.3789 1448.00
95.444 1364.00
95.5092 1393.00
95.5744 1431.00
95.6396 1422.00
95.7048 1375.00
95.77 1405.00
95.8352 1319.00
95.9004 1251.00
95.9656 1273.00
96.0308 1275.00
96.096 1232.00
96.1612 1247.00
96.2264 1284.00
96.2916 1263.00
96.3568 1347.00
96.422 1403.00
96.4872 1340.00
96.5524 1357.00
96.6176 1312.00
96.6828 1367.00
96.748 1316.00
96.8132 1281.00
96.8784 1293.00
96.9436 1340.00
97.0088 1311.00
97.074 1319.00
97.1392 1319.00
97.2044 1255.00
97.2696 1216.00
97.3348 1273.00
97.4 1222.00
97.4652 1194.00
97.5304 1153.00
97.5956 1112.00
97.6608 1153.00
97.726 1169.00
97.7912 1140.00
97.8564 1150.00
97.9216 1208.00
97.9868 1202.00
98.052 1208.00
98.1172 1150.00
98.1824 1185.00
98.2476 1233.00
98.3128 1189.00
98.378 1180.00
98.4432 1182.00
98.5084 1212.00
98.5736 1163.00
98.6388 1105.00
98.704 1182.00
98.7692 1161.00
98.8344 1161.00
98.8996 1187.00
98.9648 1142.00
99.03 1175.00
99.0952 1125.00
99.1604 1162.00
99.2256 1190.00
99.2908 1266.00
99.356 1221.00
99.4212 1190.00
99.4864 1236.00
99.5516 1220.00
99.6168 1220.00
99.682 1239.00
99.7472 1252.00
99.8124 1207.00
99.8776 1261.00
99.9428 1236.00
100.008 1294.00
100.073 1267.00
100.095 1305.00