File: data/xrd_creation/results/NSC_63.xy
9.903433 2796.00
9.968632 2788.00
10.0338 2794.00
10.099 2785.00
10.1642 2797.00
10.2294 2741.00
10.2946 2627.00
10.3598 2741.00
10.425 2753.00
10.4902 2645.00
10.5554 2631.00
10.6206 2615.00
10.6858 2554.00
10.751 2604.00
10.8162 2542.00
10.8814 2476.00
10.9466 2522.00
11.0118 2462.00
11.077 2390.00
11.1422 2397.00
11.2074 2384.00
11.2726 2404.00
11.3378 2430.00
11.403 2311.00
11.4682 2354.00
11.5334 2254.00
11.5986 2187.00
11.6638 2264.00
11.729 2168.00
11.7942 2312.00
11.8594 2313.00
11.9246 2188.00
11.9898 2198.00
12.055 2226.00
12.1202 2049.00
12.1854 2088.00
12.2506 2135.00
12.3158 2123.00
12.381 2123.00
12.4462 2110.00
12.5114 2108.00
12.5766 2028.00
12.6418 2105.00
12.707 2107.00
12.7722 2078.00
12.8374 2018.00
12.9026 2041.00
12.9678 1930.00
13.033 2037.00
13.0982 2004.00
13.1634 1899.00
13.2286 2004.00
13.2938 1922.00
13.359 1846.00
13.4242 1968.00
13.4894 1955.00
13.5546 1884.00
13.6198 1954.00
13.685 2042.00
13.7502 2173.00
13.8154 2391.00
13.8805 2336.00
13.9457 2366.00
14.0109 2252.00
14.0761 2215.00
14.1413 2010.00
14.2065 1963.00
14.2717 1822.00
14.3369 1871.00
14.4021 1813.00
14.4673 1863.00
14.5325 1742.00
14.5977 1840.00
14.6629 1768.00
14.7281 1700.00
14.7933 1822.00
14.8585 1821.00
14.9237 1772.00
14.9889 1827.00
15.0541 1894.00
15.1193 1892.00
15.1845 1853.00
15.2497 1969.00
15.3149 2050.00
15.3801 1976.00
15.4453 2089.00
15.5105 2363.00
15.5757 2394.00
15.6409 2481.00
15.7061 2419.00
15.7713 2240.00
15.8365 2062.00
15.9017 2115.00
15.9669 1953.00
16.0321 1820.00
16.0973 1667.00
16.1625 1642.00
16.2277 1579.00
16.2929 1685.00
16.3581 1675.00
16.4233 1594.00
16.4885 1593.00
16.5537 1567.00
16.6189 1623.00
16.6841 1647.00
16.7493 1623.00
16.8145 1661.00
16.8797 1681.00
16.9449 1768.00
17.0101 1733.00
17.0753 1717.00
17.1405 1580.00
17.2057 1570.00
17.2709 1635.00
17.3361 1561.00
17.4013 1559.00
17.4665 1508.00
17.5317 1529.00
17.5969 1539.00
17.6621 1541.00
17.7273 1492.00
17.7925 1491.00
17.8577 1484.00
17.9229 1492.00
17.9881 1484.00
18.0533 1443.00
18.1185 1465.00
18.1837 1384.00
18.2489 1456.00
18.3141 1355.00
18.3793 1347.00
18.4445 1448.00
18.5097 1402.00
18.5749 1381.00
18.6401 1459.00
18.7052 1447.00
18.7704 1396.00
18.8356 1504.00
18.9008 1423.00
18.966 1422.00
19.0312 1479.00
19.0964 1483.00
19.1616 1450.00
19.2268 1566.00
19.292 1652.00
19.3572 1789.00
19.4224 2104.00
19.4876 2400.00
19.5528 2630.00
19.618 2755.00
19.6832 2950.00
19.7484 3082.00
19.8136 3112.00
19.8788 2962.00
19.944 2436.00
20.0092 2270.00
20.0744 2180.00
20.1396 1936.00
20.2048 1631.00
20.27 1680.00
20.3352 1660.00
20.4004 1635.00
20.4656 1531.00
20.5308 1609.00
20.596 1521.00
20.6612 1455.00
20.7264 1387.00
20.7916 1389.00
20.8568 1385.00
20.922 1453.00
20.9872 1258.00
21.0524 1356.00
21.1176 1339.00
21.1828 1373.00
21.248 1346.00
21.3132 1357.00
21.3784 1386.00
21.4436 1469.00
21.5088 1450.00
21.574 1487.00
21.6392 1543.00
21.7044 1590.00
21.7696 1547.00
21.8348 1509.00
21.9 1432.00
21.9652 1357.00
22.0304 1275.00
22.0956 1266.00
22.1608 1239.00
22.226 1279.00
22.2912 1295.00
22.3564 1300.00
22.4216 1346.00
22.4868 1285.00
22.552 1351.00
22.6172 1301.00
22.6824 1338.00
22.7476 1342.00
22.8128 1315.00
22.878 1314.00
22.9432 1339.00
23.0084 1387.00
23.0736 1576.00
23.1388 1763.00
23.204 1792.00
23.2692 1628.00
23.3344 1691.00
23.3996 1574.00
23.4647 1384.00
23.5299 1311.00
23.5951 1135.00
23.6603 1142.00
23.7255 1136.00
23.7907 1230.00
23.8559 1140.00
23.9211 1137.00
23.9863 1129.00
24.0515 1156.00
24.1167 1198.00
24.1819 1197.00
24.2471 1310.00
24.3123 1215.00
24.3775 1326.00
24.4427 1289.00
24.5079 1350.00
24.5731 1357.00
24.6383 1345.00
24.7035 1267.00
24.7687 1189.00
24.8339 1207.00
24.8991 1149.00
24.9643 1164.00
25.0295 1139.00
25.0947 1198.00
25.1599 1157.00
25.2251 1194.00
25.2903 1148.00
25.3555 1129.00
25.4207 1196.00
25.4859 1162.00
25.5511 1082.00
25.6163 1132.00
25.6815 1087.00
25.7467 1122.00
25.8119 1046.00
25.8771 1054.00
25.9423 1023.00
26.0075 1016.00
26.0727 950.00
26.1379 1028.00
26.2031 991.00
26.2683 1088.00
26.3335 1033.00
26.3987 1074.00
26.4639 1071.00
26.5291 1157.00
26.5943 1168.00
26.6595 1121.00
26.7247 1203.00
26.7899 1201.00
26.8551 1185.00
26.9203 1153.00
26.9855 1152.00
27.0507 1086.00
27.1159 1014.00
27.1811 1037.00
27.2463 1031.00
27.3115 1054.00
27.3767 1041.00
27.4419 1029.00
27.5071 1032.00
27.5723 1031.00
27.6375 1071.00
27.7027 1058.00
27.7679 1112.00
27.8331 1226.00
27.8983 1482.00
27.9635 1822.00
28.0287 1784.00
28.0939 1796.00
28.1591 1827.00
28.2243 1825.00
28.2894 1711.00
28.3546 1563.00
28.4198 1425.00
28.485 1324.00
28.5502 1364.00
28.6154 1330.00
28.6806 1178.00
28.7458 1069.00
28.811 1037.00
28.8762 1091.00
28.9414 1003.00
29.0066 1005.00
29.0718 1004.00
29.137 1027.00
29.2022 965.00
29.2674 959.00
29.3326 952.00
29.3978 1002.00
29.463 982.00
29.5282 949.00
29.5934 988.00
29.6586 1009.00
29.7238 981.00
29.789 1046.00
29.8542 1071.00
29.9194 1057.00
29.9846 1033.00
30.0498 1099.00
30.115 1090.00
30.1802 1092.00
30.2454 1177.00
30.3106 1397.00
30.3758 1563.00
30.441 2104.00
30.5062 2439.00
30.5714 2714.00
30.6366 2584.00
30.7018 2618.00
30.767 2333.00
30.8322 2001.00
30.8974 1638.00
30.9626 1506.00
31.0278 1622.00
31.093 1871.00
31.1582 2290.00
31.2234 2698.00
31.2886 2891.00
31.3538 2842.00
31.419 2751.00
31.4842 2621.00
31.5494 2292.00
31.6146 2070.00
31.6798 1998.00
31.745 1926.00
31.8102 1957.00
31.8754 1823.00
31.9406 1735.00
32.0058 1606.00
32.071 1526.00
32.1362 1651.00
32.2014 1762.00
32.2666 1788.00
32.3318 1760.00
32.397 1739.00
32.4622 1656.00
32.5274 1407.00
32.5926 1251.00
32.6578 1176.00
32.723 1139.00
32.7882 1128.00
32.8534 1097.00
32.9186 1191.00
32.9838 1056.00
33.0489 985.00
33.1141 948.00
33.1793 945.00
33.2445 903.00
33.3097 888.00
33.3749 917.00
33.4401 1042.00
33.5053 1113.00
33.5705 1121.00
33.6357 1078.00
33.7009 1107.00
33.7661 1109.00
33.8313 1061.00
33.8965 939.00
33.9617 892.00
34.0269 919.00
34.0921 970.00
34.1573 952.00
34.2225 1002.00
34.2877 1081.00
34.3529 1133.00
34.4181 1250.00
34.4833 1417.00
34.5485 1849.00
34.6137 2245.00
34.6789 2769.00
34.7441 2874.00
34.8093 2808.00
34.8745 2666.00
34.9397 2340.00
35.0049 2001.00
35.0701 1535.00
35.1353 1159.00
35.2005 1038.00
35.2657 989.00
35.3309 1009.00
35.3961 1223.00
35.4613 1208.00
35.5265 1186.00
35.5917 1252.00
35.6569 1117.00
35.7221 982.00
35.7873 938.00
35.8525 773.00
35.9177 796.00
35.9829 700.00
36.0481 699.00
36.1133 721.00
36.1785 736.00
36.2437 715.00
36.3089 699.00
36.3741 772.00
36.4393 750.00
36.5045 846.00
36.5697 854.00
36.6349 843.00
36.7001 832.00
36.7653 827.00
36.8305 743.00
36.8957 700.00
36.9609 697.00
37.0261 715.00
37.0913 706.00
37.1565 709.00
37.2217 732.00
37.2869 716.00
37.3521 714.00
37.4173 645.00
37.4825 674.00
37.5477 689.00
37.6129 735.00
37.6781 759.00
37.7433 710.00
37.8085 822.00
37.8736 762.00
37.9388 788.00
38.004 738.00
38.0692 730.00
38.1344 743.00
38.1996 780.00
38.2648 708.00
38.33 727.00
38.3952 709.00
38.4604 787.00
38.5256 747.00
38.5908 737.00
38.656 702.00
38.7212 660.00
38.7864 713.00
38.8516 632.00
38.9168 631.00
38.982 632.00
39.0472 635.00
39.1124 590.00
39.1776 666.00
39.2428 588.00
39.308 587.00
39.3732 628.00
39.4384 672.00
39.5036 653.00
39.5688 712.00
39.634 721.00
39.6992 760.00
39.7644 762.00
39.8296 738.00
39.8948 667.00
39.96 654.00
40.0252 683.00
40.0904 696.00
40.1556 660.00
40.2208 691.00
40.286 736.00
40.3512 731.00
40.4164 788.00
40.4816 826.00
40.5468 878.00
40.612 851.00
40.6772 792.00
40.7424 814.00
40.8076 760.00
40.8728 668.00
40.938 662.00
41.0032 630.00
41.0684 606.00
41.1336 578.00
41.1988 613.00
41.264 631.00
41.3292 668.00
41.3944 629.00
41.4596 635.00
41.5248 675.00
41.59 639.00
41.6552 702.00
41.7204 711.00
41.7856 730.00
41.8508 721.00
41.916 839.00
41.9812 845.00
42.0464 891.00
42.1116 945.00
42.1768 1005.00
42.242 1189.00
42.3072 1131.00
42.3724 1130.00
42.4376 1176.00
42.5028 1107.00
42.568 1057.00
42.6332 976.00
42.6983 1026.00
42.7635 1034.00
42.8287 976.00
42.8939 872.00
42.9591 836.00
43.0243 819.00
43.0895 783.00
43.1547 746.00
43.2199 708.00
43.2851 688.00
43.3503 780.00
43.4155 724.00
43.4807 662.00
43.5459 652.00
43.6111 635.00
43.6763 634.00
43.7415 583.00
43.8067 585.00
43.8719 590.00
43.9371 658.00
44.0023 580.00
44.0675 645.00
44.1327 707.00
44.1979 620.00
44.2631 627.00
44.3283 623.00
44.3935 607.00
44.4587 654.00
44.5239 718.00
44.5891 745.00
44.6543 774.00
44.7195 832.00
44.7847 883.00
44.8499 812.00
44.9151 838.00
44.9803 818.00
45.0455 829.00
45.1107 930.00
45.1759 965.00
45.2411 988.00
45.3063 1090.00
45.3715 1085.00
45.4367 1095.00
45.5019 955.00
45.5671 1044.00
45.6323 973.00
45.6975 925.00
45.7627 862.00
45.8279 870.00
45.8931 836.00
45.9583 765.00
46.0235 720.00
46.0887 621.00
46.1539 594.00
46.2191 566.00
46.2843 665.00
46.3495 603.00
46.4147 695.00
46.4799 705.00
46.5451 705.00
46.6103 682.00
46.6755 706.00
46.7407 751.00
46.8059 773.00
46.8711 741.00
46.9363 718.00
47.0015 812.00
47.0667 852.00
47.1319 832.00
47.1971 942.00
47.2623 919.00
47.3275 1092.00
47.3927 1215.00
47.4579 1353.00
47.523 1372.00
47.5882 1375.00
47.6534 1332.00
47.7186 1019.00
47.7838 923.00
47.849 769.00
47.9142 671.00
47.9794 644.00
48.0446 576.00
48.1098 580.00
48.175 550.00
48.2402 522.00
48.3054 570.00
48.3706 558.00
48.4358 533.00
48.501 504.00
48.5662 605.00
48.6314 545.00
48.6966 572.00
48.7618 589.00
48.827 672.00
48.8922 711.00
48.9574 787.00
49.0226 829.00
49.0878 858.00
49.153 845.00
49.2182 858.00
49.2834 744.00
49.3486 690.00
49.4138 642.00
49.479 613.00
49.5442 608.00
49.6094 547.00
49.6746 560.00
49.7398 570.00
49.805 667.00
49.8702 658.00
49.9354 648.00
50.0006 660.00
50.0658 649.00
50.131 647.00
50.1962 668.00
50.2614 625.00
50.3266 606.00
50.3918 601.00
50.457 634.00
50.5222 635.00
50.5874 619.00
50.6526 666.00
50.7178 773.00
50.783 838.00
50.8482 1040.00
50.9134 1083.00
50.9786 1247.00
51.0438 1354.00
51.109 1321.00
51.1742 1306.00
51.2394 1224.00
51.3046 1123.00
51.3698 1110.00
51.435 1133.00
51.5002 1162.00
51.5654 1059.00
51.6306 1036.00
51.6958 910.00
51.761 845.00
51.8262 760.00
51.8914 627.00
51.9566 613.00
52.0218 585.00
52.087 581.00
52.1522 549.00
52.2174 599.00
52.2826 568.00
52.3477 605.00
52.4129 605.00
52.4781 578.00
52.5433 602.00
52.6085 566.00
52.6737 584.00
52.7389 588.00
52.8041 569.00
52.8693 587.00
52.9345 572.00
52.9997 589.00
53.0649 609.00
53.1301 538.00
53.1953 632.00
53.2605 621.00
53.3257 578.00
53.3909 574.00
53.4561 594.00
53.5213 601.00
53.5865 576.00
53.6517 591.00
53.7169 634.00
53.7821 654.00
53.8473 654.00
53.9125 723.00
53.9777 785.00
54.0429 919.00
54.1081 1022.00
54.1733 1142.00
54.2385 1272.00
54.3037 1347.00
54.3689 1292.00
54.4341 1060.00
54.4993 983.00
54.5645 855.00
54.6297 684.00
54.6949 639.00
54.7601 553.00
54.8253 530.00
54.8905 531.00
54.9557 514.00
55.0209 556.00
55.0861 510.00
55.1513 536.00
55.2165 495.00
55.2817 519.00
55.3469 521.00
55.4121 534.00
55.4773 535.00
55.5425 549.00
55.6077 593.00
55.6729 627.00
55.7381 682.00
55.8033 703.00
55.8685 702.00
55.9337 730.00
55.9989 728.00
56.0641 710.00
56.1293 603.00
56.1945 584.00
56.2597 529.00
56.3249 595.00
56.3901 582.00
56.4553 596.00
56.5205 734.00
56.5857 720.00
56.6509 754.00
56.7161 766.00
56.7813 782.00
56.8465 760.00
56.9117 759.00
56.9769 732.00
57.042 659.00
57.1073 632.00
57.1724 605.00
57.2376 552.00
57.3028 520.00
57.368 485.00
57.4332 512.00
57.4984 486.00
57.5636 532.00
57.6288 534.00
57.694 513.00
57.7592 536.00
57.8244 501.00
57.8896 507.00
57.9548 497.00
58.02 487.00
58.0852 458.00
58.1504 490.00
58.2156 520.00
58.2808 478.00
58.346 489.00
58.4112 503.00
58.4764 507.00
58.5416 479.00
58.6068 529.00
58.672 490.00
58.7372 531.00
58.8024 510.00
58.8676 542.00
58.9328 584.00
58.998 604.00
59.0632 630.00
59.1284 696.00
59.1936 695.00
59.2588 710.00
59.324 766.00
59.3892 784.00
59.4544 811.00
59.5196 798.00
59.5848 808.00
59.65 747.00
59.7152 852.00
59.7804 895.00
59.8456 874.00
59.9108 898.00
59.976 954.00
60.0412 1053.00
60.1064 1122.00
60.1716 1193.00
60.2368 1119.00
60.302 1174.00
60.3672 1021.00
60.4324 948.00
60.4976 934.00
60.5628 947.00
60.628 1024.00
60.6932 1121.00
60.7584 1052.00
60.8236 1092.00
60.8888 1000.00
60.954 847.00
61.0192 751.00
61.0844 710.00
61.1496 673.00
61.2148 684.00
61.28 749.00
61.3452 729.00
61.4104 798.00
61.4756 760.00
61.5408 768.00
61.606 744.00
61.6712 678.00
61.7364 627.00
61.8016 670.00
61.8667 617.00
61.932 650.00
61.9971 652.00
62.0623 754.00
62.1275 794.00
62.1927 830.00
62.2579 867.00
62.3231 936.00
62.3883 919.00
62.4535 802.00
62.5187 736.00
62.5839 708.00
62.6491 636.00
62.7143 611.00
62.7795 571.00
62.8447 593.00
62.9099 595.00
62.9751 539.00
63.0403 598.00
63.1055 589.00
63.1707 635.00
63.2359 602.00
63.3011 604.00
63.3663 596.00
63.4315 563.00
63.4967 576.00
63.5619 603.00
63.6271 639.00
63.6923 623.00
63.7575 663.00
63.8227 646.00
63.8879 560.00
63.9531 561.00
64.0183 533.00
64.0835 524.00
64.1487 482.00
64.2139 518.00
64.2791 533.00
64.3443 500.00
64.4095 496.00
64.4747 514.00
64.5399 504.00
64.6051 527.00
64.6703 536.00
64.7355 455.00
64.8007 523.00
64.8659 528.00
64.9311 500.00
64.9963 513.00
65.0615 489.00
65.1267 505.00
65.1919 484.00
65.2571 505.00
65.3223 472.00
65.3875 555.00
65.4527 416.00
65.5179 478.00
65.5831 460.00
65.6483 465.00
65.7135 499.00
65.7787 513.00
65.8439 556.00
65.9091 593.00
65.9743 638.00
66.0395 650.00
66.1047 676.00
66.1699 699.00
66.2351 672.00
66.3003 668.00
66.3655 617.00
66.4307 611.00
66.4959 536.00
66.561 540.00
66.6263 532.00
66.6915 561.00
66.7566 516.00
66.8218 554.00
66.887 509.00
66.9522 540.00
67.0174 538.00
67.0826 548.00
67.1478 553.00
67.213 577.00
67.2782 592.00
67.3434 592.00
67.4086 646.00
67.4738 595.00
67.539 629.00
67.6042 588.00
67.6694 606.00
67.7346 551.00
67.7998 509.00
67.865 519.00
67.9302 533.00
67.9954 510.00
68.0606 510.00
68.1258 572.00
68.191 517.00
68.2562 480.00
68.3214 478.00
68.3866 479.00
68.4518 468.00
68.517 440.00
68.5822 484.00
68.6474 433.00
68.7126 465.00
68.7778 435.00
68.843 456.00
68.9082 442.00
68.9734 438.00
69.0386 448.00
69.1038 422.00
69.169 395.00
69.2342 442.00
69.2994 464.00
69.3646 449.00
69.4298 522.00
69.495 501.00
69.5602 584.00
69.6254 556.00
69.6906 611.00
69.7558 577.00
69.821 589.00
69.8862 546.00
69.9514 493.00
70.0166 502.00
70.0818 449.00
70.147 446.00
70.2122 442.00
70.2774 424.00
70.3426 430.00
70.4078 403.00
70.473 435.00
70.5382 429.00
70.6034 387.00
70.6686 459.00
70.7338 426.00
70.799 400.00
70.8642 452.00
70.9294 447.00
70.9946 445.00
71.0598 463.00
71.125 442.00
71.1902 431.00
71.2554 429.00
71.3205 436.00
71.3858 410.00
71.451 398.00
71.5162 457.00
71.5813 464.00
71.6465 474.00
71.7117 459.00
71.7769 442.00
71.8421 442.00
71.9073 427.00
71.9725 418.00
72.0377 386.00
72.1029 446.00
72.1681 444.00
72.2333 426.00
72.2985 451.00
72.3637 444.00
72.4289 465.00
72.4941 418.00
72.5593 374.00
72.6245 446.00
72.6897 420.00
72.7549 371.00
72.8201 410.00
72.8853 418.00
72.9505 444.00
73.0157 418.00
73.0809 439.00
73.1461 467.00
73.2113 490.00
73.2765 525.00
73.3417 561.00
73.4069 597.00
73.4721 530.00
73.5373 538.00
73.6025 533.00
73.6677 488.00
73.7329 472.00
73.7981 481.00
73.8633 438.00
73.9285 459.00
73.9937 437.00
74.0589 433.00
74.1241 451.00
74.1893 387.00
74.2545 448.00
74.3197 422.00
74.3849 451.00
74.4501 416.00
74.5153 432.00
74.5805 404.00
74.6457 397.00
74.7109 401.00
74.7761 418.00
74.8413 361.00
74.9065 418.00
74.9717 465.00
75.0369 451.00
75.1021 454.00
75.1673 467.00
75.2325 452.00
75.2977 464.00
75.3629 479.00
75.4281 472.00
75.4933 455.00
75.5585 458.00
75.6237 427.00
75.6889 491.00
75.7541 431.00
75.8193 459.00
75.8845 449.00
75.9497 431.00
76.0149 452.00
76.0801 439.00
76.1452 431.00
76.2104 426.00
76.2756 415.00
76.3409 484.00
76.406 447.00
76.4712 451.00
76.5364 440.00
76.6016 484.00
76.6668 447.00
76.732 508.00
76.7972 564.00
76.8624 537.00
76.9276 509.00
76.9928 520.00
77.058 530.00
77.1232 535.00
77.1884 509.00
77.2536 483.00
77.3188 444.00
77.384 450.00
77.4492 425.00
77.5144 402.00
77.5796 426.00
77.6448 379.00
77.71 374.00
77.7752 417.00
77.8404 449.00
77.9056 443.00
77.9708 461.00
78.036 431.00
78.1012 483.00
78.1664 464.00
78.2316 480.00
78.2968 478.00
78.362 451.00
78.4272 445.00
78.4924 456.00
78.5576 447.00
78.6228 434.00
78.688 462.00
78.7532 385.00
78.8184 437.00
78.8836 406.00
78.9488 411.00
79.014 385.00
79.0792 399.00
79.1444 437.00
79.2096 418.00
79.2748 391.00
79.34 399.00
79.4052 399.00
79.4704 345.00
79.5356 409.00
79.6008 417.00
79.666 375.00
79.7312 405.00
79.7964 350.00
79.8616 399.00
79.9268 354.00
79.992 370.00
80.0572 433.00
80.1224 397.00
80.1876 418.00
80.2528 435.00
80.318 390.00
80.3832 415.00
80.4484 412.00
80.5136 463.00
80.5788 443.00
80.644 453.00
80.7092 430.00
80.7744 474.00
80.8396 454.00
80.9048 427.00
80.9699 465.00
81.0351 453.00
81.1003 469.00
81.1655 474.00
81.2307 465.00
81.2959 459.00
81.3611 467.00
81.4263 460.00
81.4915 432.00
81.5567 525.00
81.6219 492.00
81.6871 521.00
81.7523 516.00
81.8175 617.00
81.8827 614.00
81.9479 572.00
82.0131 575.00
82.0783 528.00
82.1435 525.00
82.2087 496.00
82.2739 504.00
82.3391 465.00
82.4043 459.00
82.4695 490.00
82.5347 455.00
82.5999 438.00
82.6651 392.00
82.7303 434.00
82.7955 413.00
82.8607 436.00
82.9259 419.00
82.9911 380.00
83.0563 389.00
83.1215 478.00
83.1867 487.00
83.2519 501.00
83.3171 474.00
83.3823 487.00
83.4475 424.00
83.5127 502.00
83.5779 492.00
83.6431 469.00
83.7083 459.00
83.7735 445.00
83.8387 460.00
83.9039 432.00
83.9691 432.00
84.0343 442.00
84.0995 378.00
84.1647 397.00
84.2299 410.00
84.2951 376.00
84.3603 375.00
84.4255 397.00
84.4907 366.00
84.5559 383.00
84.6211 366.00
84.6863 354.00
84.7515 318.00
84.8167 396.00
84.8819 391.00
84.9471 344.00
85.0123 357.00
85.0775 356.00
85.1427 361.00
85.2079 382.00
85.2731 351.00
85.3383 353.00
85.4035 379.00
85.4687 369.00
85.5339 395.00
85.5991 383.00
85.6643 389.00
85.7295 444.00
85.7946 437.00
85.8598 457.00
85.925 450.00
85.9903 452.00
86.0554 401.00
86.1206 380.00
86.1858 396.00
86.251 416.00
86.3162 402.00
86.3814 347.00
86.4466 370.00
86.5118 383.00
86.577 408.00
86.6422 353.00
86.7074 399.00
86.7726 389.00
86.8378 383.00
86.903 419.00
86.9682 398.00
87.0334 455.00
87.0986 441.00
87.1638 447.00
87.229 437.00
87.2942 433.00
87.3594 446.00
87.4246 430.00
87.4898 396.00
87.555 395.00
87.6202 403.00
87.6854 374.00
87.7506 361.00
87.8158 384.00
87.881 370.00
87.9462 377.00
88.0114 392.00
88.0766 381.00
88.1418 455.00
88.207 409.00
88.2722 452.00
88.3374 480.00
88.4026 475.00
88.4678 478.00
88.533 491.00
88.5982 467.00
88.6634 484.00
88.7286 457.00
88.7938 425.00
88.859 470.00
88.9242 441.00
88.9894 376.00
89.0546 403.00
89.1198 477.00
89.185 405.00
89.2502 391.00
89.3154 405.00
89.3806 384.00
89.4458 463.00
89.511 420.00
89.5762 393.00
89.6414 401.00
89.7066 396.00
89.7718 389.00
89.837 342.00
89.9022 420.00
89.9674 376.00
90.0326 400.00
90.0978 390.00
90.163 404.00
90.2282 395.00
90.2934 378.00
90.3586 396.00
90.4238 395.00
90.489 398.00
90.5542 463.00
90.6193 406.00
90.6845 430.00
90.7497 430.00
90.8149 386.00
90.8801 359.00
90.9453 403.00
91.0105 355.00
91.0757 384.00
91.1409 395.00
91.2061 406.00
91.2713 435.00
91.3365 411.00
91.4017 451.00
91.4669 407.00
91.5321 413.00
91.5973 399.00
91.6625 446.00
91.7277 412.00
91.7929 431.00
91.8581 392.00
91.9233 398.00
91.9885 443.00
92.0537 438.00
92.1189 458.00
92.1841 462.00
92.2493 453.00
92.3145 473.00
92.3797 498.00
92.4449 435.00
92.5101 426.00
92.5753 476.00
92.6405 401.00
92.7057 440.00
92.7709 424.00
92.8361 407.00
92.9013 401.00
92.9665 380.00
93.0317 403.00
93.0969 370.00
93.1621 417.00
93.2273 435.00
93.2925 406.00
93.3577 377.00
93.4229 378.00
93.4881 398.00
93.5533 375.00
93.6185 385.00
93.6837 404.00
93.7489 404.00
93.8141 405.00
93.8793 414.00
93.9445 406.00
94.0097 397.00
94.0749 387.00
94.1401 428.00
94.2053 411.00
94.2705 407.00
94.3357 402.00
94.4009 362.00
94.4661 418.00
94.5313 401.00
94.5965 415.00
94.6617 433.00
94.7269 382.00
94.7921 418.00
94.8573 427.00
94.9225 417.00
94.9877 423.00
95.0529 504.00
95.1181 507.00
95.1833 514.00
95.2485 533.00
95.3137 521.00
95.3789 499.00
95.444 509.00
95.5092 502.00
95.5744 479.00
95.6396 454.00
95.7048 442.00
95.77 442.00
95.8352 440.00
95.9004 425.00
95.9656 381.00
96.0308 399.00
96.096 421.00
96.1612 453.00
96.2264 423.00
96.2916 414.00
96.3568 459.00
96.422 450.00
96.4872 448.00
96.5524 444.00
96.6176 449.00
96.6828 441.00
96.748 450.00
96.8132 396.00
96.8784 423.00
96.9436 421.00
97.0088 380.00
97.074 381.00
97.1392 406.00
97.2044 403.00
97.2696 430.00
97.3348 437.00
97.4 407.00
97.4652 433.00
97.5304 446.00
97.5956 431.00
97.6608 401.00
97.726 413.00
97.7912 458.00
97.8564 424.00
97.9216 416.00
97.9868 428.00
98.052 431.00
98.1172 386.00
98.1824 397.00
98.2476 380.00
98.3128 436.00
98.378 380.00
98.4432 400.00
98.5084 394.00
98.5736 374.00
98.6388 357.00
98.704 397.00
98.7692 375.00
98.8344 398.00
98.8996 378.00
98.9648 436.00
99.03 382.00
99.0952 398.00
99.1604 431.00
99.2256 440.00
99.2908 416.00
99.356 378.00
99.4212 370.00
99.4864 379.00
99.5516 376.00
99.6168 373.00
99.682 363.00
99.7472 391.00
99.8124 353.00
99.8776 369.00
99.9428 387.00
100.008 337.00
100.073 388.00
100.095 405.00