File: data/xrd_creation/results/NSC_103.xy
9.903433 2754.00
9.968632 2781.00
10.0338 2642.00
10.099 2631.00
10.1642 2589.00
10.2294 2729.00
10.2946 2606.00
10.3598 2607.00
10.425 2495.00
10.4902 2601.00
10.5554 2565.00
10.6206 2419.00
10.6858 2449.00
10.751 2435.00
10.8162 2425.00
10.8814 2383.00
10.9466 2403.00
11.0118 2421.00
11.077 2300.00
11.1422 2379.00
11.2074 2277.00
11.2726 2233.00
11.3378 2275.00
11.403 2257.00
11.4682 2172.00
11.5334 2168.00
11.5986 2012.00
11.6638 2220.00
11.729 2155.00
11.7942 2024.00
11.8594 2003.00
11.9246 2057.00
11.9898 2030.00
12.055 2018.00
12.1202 1986.00
12.1854 1911.00
12.2506 1952.00
12.3158 1920.00
12.381 1930.00
12.4462 1930.00
12.5114 1997.00
12.5766 1960.00
12.6418 1835.00
12.707 1881.00
12.7722 1870.00
12.8374 1820.00
12.9026 1842.00
12.9678 1815.00
13.033 1771.00
13.0982 1871.00
13.1634 1802.00
13.2286 1761.00
13.2938 1695.00
13.359 1741.00
13.4242 1716.00
13.4894 1718.00
13.5546 1717.00
13.6198 1773.00
13.685 1639.00
13.7502 1688.00
13.8154 1674.00
13.8805 1649.00
13.9457 1674.00
14.0109 1695.00
14.0761 1712.00
14.1413 1870.00
14.2065 2076.00
14.2717 2063.00
14.3369 1944.00
14.4021 1760.00
14.4673 1623.00
14.5325 1572.00
14.5977 1558.00
14.6629 1537.00
14.7281 1523.00
14.7933 1590.00
14.8585 1483.00
14.9237 1558.00
14.9889 1484.00
15.0541 1559.00
15.1193 1439.00
15.1845 1432.00
15.2497 1479.00
15.3149 1509.00
15.3801 1503.00
15.4453 1450.00
15.5105 1467.00
15.5757 1403.00
15.6409 1478.00
15.7061 1409.00
15.7713 1404.00
15.8365 1422.00
15.9017 1399.00
15.9669 1444.00
16.0321 1444.00
16.0973 1421.00
16.1625 1433.00
16.2277 1437.00
16.2929 1408.00
16.3581 1420.00
16.4233 1357.00
16.4885 1425.00
16.5537 1372.00
16.6189 1409.00
16.6841 1407.00
16.7493 1424.00
16.8145 1474.00
16.8797 1574.00
16.9449 1672.00
17.0101 1616.00
17.0753 1444.00
17.1405 1358.00
17.2057 1283.00
17.2709 1337.00
17.3361 1303.00
17.4013 1375.00
17.4665 1422.00
17.5317 1481.00
17.5969 1468.00
17.6621 1319.00
17.7273 1294.00
17.7925 1300.00
17.8577 1257.00
17.9229 1252.00
17.9881 1209.00
18.0533 1198.00
18.1185 1272.00
18.1837 1310.00
18.2489 1216.00
18.3141 1232.00
18.3793 1217.00
18.4445 1264.00
18.5097 1267.00
18.5749 1239.00
18.6401 1231.00
18.7052 1246.00
18.7704 1261.00
18.8356 1268.00
18.9008 1385.00
18.966 1410.00
19.0312 1639.00
19.0964 2069.00
19.1616 2885.00
19.2268 3825.00
19.292 3806.00
19.3572 2606.00
19.4224 1790.00
19.4876 1554.00
19.5528 1505.00
19.618 1855.00
19.6832 2375.00
19.7484 3153.00
19.8136 3161.00
19.8788 2354.00
19.944 1576.00
20.0092 1305.00
20.0744 1216.00
20.1396 1265.00
20.2048 1208.00
20.27 1232.00
20.3352 1267.00
20.4004 1181.00
20.4656 1344.00
20.5308 1505.00
20.596 1899.00
20.6612 2698.00
20.7264 3604.00
20.7916 3321.00
20.8568 2359.00
20.922 1524.00
20.9872 1236.00
21.0524 1228.00
21.1176 1116.00
21.1828 1045.00
21.248 1073.00
21.3132 1080.00
21.3784 1109.00
21.4436 1127.00
21.5088 1199.00
21.574 1247.00
21.6392 1277.00
21.7044 1270.00
21.7696 1280.00
21.8348 1255.00
21.9 1316.00
21.9652 1403.00
22.0304 1682.00
22.0956 2312.00
22.1608 3499.00
22.226 5499.00
22.2912 6553.00
22.3564 5099.00
22.4216 2953.00
22.4868 1602.00
22.552 1306.00
22.6172 1251.00
22.6824 1164.00
22.7476 1158.00
22.8128 1185.00
22.878 1169.00
22.9432 1161.00
23.0084 1030.00
23.0736 1046.00
23.1388 994.00
23.204 1052.00
23.2692 1061.00
23.3344 1063.00
23.3996 1007.00
23.4647 1043.00
23.5299 967.00
23.5951 986.00
23.6603 1086.00
23.7255 1192.00
23.7907 1525.00
23.8559 1986.00
23.9211 2529.00
23.9863 2171.00
24.0515 1644.00
24.1167 1139.00
24.1819 979.00
24.2471 949.00
24.3123 969.00
24.3775 873.00
24.4427 858.00
24.5079 947.00
24.5731 897.00
24.6383 981.00
24.7035 979.00
24.7687 1129.00
24.8339 1428.00
24.8991 1821.00
24.9643 2149.00
25.0295 1898.00
25.0947 1341.00
25.1599 1058.00
25.2251 943.00
25.2903 878.00
25.3555 823.00
25.4207 875.00
25.4859 852.00
25.5511 925.00
25.6163 959.00
25.6815 857.00
25.7467 867.00
25.8119 823.00
25.8771 844.00
25.9423 788.00
26.0075 815.00
26.0727 773.00
26.1379 822.00
26.2031 878.00
26.2683 870.00
26.3335 881.00
26.3987 933.00
26.4639 839.00
26.5291 831.00
26.5943 851.00
26.6595 795.00
26.7247 824.00
26.7899 766.00
26.8551 745.00
26.9203 800.00
26.9855 815.00
27.0507 757.00
27.1159 853.00
27.1811 938.00
27.2463 1120.00
27.3115 1498.00
27.3767 2000.00
27.4419 1882.00
27.5071 1434.00
27.5723 1031.00
27.6375 867.00
27.7027 844.00
27.7679 827.00
27.8331 793.00
27.8983 772.00
27.9635 848.00
28.0287 858.00
28.0939 765.00
28.1591 806.00
28.2243 817.00
28.2894 775.00
28.3546 803.00
28.4198 828.00
28.485 847.00
28.5502 890.00
28.6154 1030.00
28.6806 1204.00
28.7458 1494.00
28.811 2083.00
28.8762 2282.00
28.9414 1845.00
29.0066 1180.00
29.0718 907.00
29.137 855.00
29.2022 855.00
29.2674 892.00
29.3326 856.00
29.3978 864.00
29.463 873.00
29.5282 822.00
29.5934 809.00
29.6586 863.00
29.7238 911.00
29.789 878.00
29.8542 746.00
29.9194 717.00
29.9846 693.00
30.0498 703.00
30.115 705.00
30.1802 683.00
30.2454 718.00
30.3106 714.00
30.3758 771.00
30.441 771.00
30.5062 769.00
30.5714 824.00
30.6366 792.00
30.7018 864.00
30.767 855.00
30.8322 842.00
30.8974 812.00
30.9626 755.00
31.0278 729.00
31.093 734.00
31.1582 736.00
31.2234 746.00
31.2886 767.00
31.3538 785.00
31.419 872.00
31.4842 962.00
31.5494 1357.00
31.6146 2268.00
31.6798 4068.00
31.745 5384.00
31.8102 4494.00
31.8754 2704.00
31.9406 1395.00
32.0058 970.00
32.071 858.00
32.1362 850.00
32.2014 922.00
32.2666 898.00
32.3318 817.00
32.397 646.00
32.4622 661.00
32.5274 608.00
32.5926 607.00
32.6578 576.00
32.723 602.00
32.7882 588.00
32.8534 595.00
32.9186 564.00
32.9838 559.00
33.0489 580.00
33.1141 558.00
33.1793 580.00
33.2445 588.00
33.3097 564.00
33.3749 599.00
33.4401 642.00
33.5053 685.00
33.5705 666.00
33.6357 653.00
33.7009 629.00
33.7661 621.00
33.8313 611.00
33.8965 598.00
33.9617 623.00
34.0269 638.00
34.0921 759.00
34.1573 795.00
34.2225 728.00
34.2877 643.00
34.3529 593.00
34.4181 593.00
34.4833 539.00
34.5485 559.00
34.6137 544.00
34.6789 511.00
34.7441 574.00
34.8093 568.00
34.8745 536.00
34.9397 538.00
35.0049 541.00
35.0701 540.00
35.1353 516.00
35.2005 522.00
35.2657 537.00
35.3309 558.00
35.3961 639.00
35.4613 638.00
35.5265 670.00
35.5917 718.00
35.6569 746.00
35.7221 864.00
35.7873 1178.00
35.8525 1296.00
35.9177 1123.00
35.9829 908.00
36.0481 746.00
36.1133 667.00
36.1785 646.00
36.2437 689.00
36.3089 957.00
36.3741 1406.00
36.4393 1572.00
36.5045 1338.00
36.5697 936.00
36.6349 696.00
36.7001 580.00
36.7653 590.00
36.8305 572.00
36.8957 615.00
36.9609 606.00
37.0261 622.00
37.0913 638.00
37.1565 848.00
37.2217 902.00
37.2869 1391.00
37.3521 2203.00
37.4173 3318.00
37.4825 3282.00
37.5477 2467.00
37.6129 1610.00
37.6781 954.00
37.7433 756.00
37.8085 678.00
37.8736 556.00
37.9388 574.00
38.004 504.00
38.0692 507.00
38.1344 482.00
38.1996 497.00
38.2648 531.00
38.33 568.00
38.3952 568.00
38.4604 558.00
38.5256 517.00
38.5908 517.00
38.656 490.00
38.7212 501.00
38.7864 527.00
38.8516 533.00
38.9168 510.00
38.982 593.00
39.0472 785.00
39.1124 1111.00
39.1776 1272.00
39.2428 1185.00
39.308 914.00
39.3732 662.00
39.4384 570.00
39.5036 528.00
39.5688 522.00
39.634 509.00
39.6992 469.00
39.7644 483.00
39.8296 465.00
39.8948 455.00
39.96 463.00
40.0252 443.00
40.0904 429.00
40.1556 516.00
40.2208 547.00
40.286 646.00
40.3512 593.00
40.4164 546.00
40.4816 471.00
40.5468 468.00
40.612 478.00
40.6772 461.00
40.7424 523.00
40.8076 542.00
40.8728 579.00
40.938 536.00
41.0032 510.00
41.0684 445.00
41.1336 400.00
41.1988 447.00
41.264 430.00
41.3292 449.00
41.3944 424.00
41.4596 399.00
41.5248 463.00
41.59 433.00
41.6552 407.00
41.7204 438.00
41.7856 482.00
41.8508 644.00
41.916 612.00
41.9812 634.00
42.0464 577.00
42.1116 530.00
42.1768 491.00
42.242 595.00
42.3072 634.00
42.3724 657.00
42.4376 591.00
42.5028 531.00
42.568 467.00
42.6332 454.00
42.6983 439.00
42.7635 435.00
42.8287 399.00
42.8939 436.00
42.9591 447.00
43.0243 501.00
43.0895 501.00
43.1547 451.00
43.2199 465.00
43.2851 521.00
43.3503 592.00
43.4155 548.00
43.4807 476.00
43.5459 453.00
43.6111 420.00
43.6763 434.00
43.7415 466.00
43.8067 513.00
43.8719 632.00
43.9371 795.00
44.0023 737.00
44.0675 694.00
44.1327 549.00
44.1979 472.00
44.2631 438.00
44.3283 474.00
44.3935 456.00
44.4587 468.00
44.5239 420.00
44.5891 456.00
44.6543 438.00
44.7195 450.00
44.7847 477.00
44.8499 520.00
44.9151 507.00
44.9803 528.00
45.0455 409.00
45.1107 451.00
45.1759 355.00
45.2411 392.00
45.3063 374.00
45.3715 409.00
45.4367 503.00
45.5019 631.00
45.5671 660.00
45.6323 710.00
45.6975 900.00
45.7627 960.00
45.8279 832.00
45.8931 728.00
45.9583 531.00
46.0235 470.00
46.0887 460.00
46.1539 416.00
46.2191 418.00
46.2843 402.00
46.3495 411.00
46.4147 375.00
46.4799 403.00
46.5451 428.00
46.6103 397.00
46.6755 433.00
46.7407 406.00
46.8059 431.00
46.8711 408.00
46.9363 435.00
47.0015 539.00
47.0667 684.00
47.1319 925.00
47.1971 979.00
47.2623 995.00
47.3275 916.00
47.3927 741.00
47.4579 626.00
47.523 486.00
47.5882 406.00
47.6534 400.00
47.7186 416.00
47.7838 389.00
47.849 406.00
47.9142 407.00
47.9794 378.00
48.0446 372.00
48.1098 377.00
48.175 356.00
48.2402 392.00
48.3054 405.00
48.3706 418.00
48.4358 431.00
48.501 458.00
48.5662 475.00
48.6314 442.00
48.6966 478.00
48.7618 479.00
48.827 494.00
48.8922 492.00
48.9574 558.00
49.0226 901.00
49.0878 1158.00
49.153 1008.00
49.2182 896.00
49.2834 656.00
49.3486 481.00
49.4138 449.00
49.479 418.00
49.5442 472.00
49.6094 450.00
49.6746 514.00
49.7398 548.00
49.805 713.00
49.8702 1093.00
49.9354 1279.00
50.0006 1209.00
50.0658 1069.00
50.131 795.00
50.1962 562.00
50.2614 498.00
50.3266 448.00
50.3918 397.00
50.457 383.00
50.5222 363.00
50.5874 385.00
50.6526 372.00
50.7178 367.00
50.783 369.00
50.8482 365.00
50.9134 420.00
50.9786 473.00
51.0438 549.00
51.109 625.00
51.1742 793.00
51.2394 980.00
51.3046 1417.00
51.3698 1397.00
51.435 1238.00
51.5002 910.00
51.5654 688.00
51.6306 524.00
51.6958 463.00
51.761 436.00
51.8262 409.00
51.8914 417.00
51.9566 418.00
52.0218 492.00
52.087 597.00
52.1522 955.00
52.2174 1063.00
52.2826 891.00
52.3477 798.00
52.4129 613.00
52.4781 473.00
52.5433 452.00
52.6085 441.00
52.6737 448.00
52.7389 457.00
52.8041 451.00
52.8693 436.00
52.9345 442.00
52.9997 424.00
53.0649 381.00
53.1301 366.00
53.1953 326.00
53.2605 349.00
53.3257 314.00
53.3909 341.00
53.4561 374.00
53.5213 347.00
53.5865 346.00
53.6517 361.00
53.7169 348.00
53.7821 312.00
53.8473 370.00
53.9125 374.00
53.9777 331.00
54.0429 393.00
54.1081 374.00
54.1733 372.00
54.2385 385.00
54.3037 436.00
54.3689 406.00
54.4341 464.00
54.4993 369.00
54.5645 364.00
54.6297 394.00
54.6949 393.00
54.7601 424.00
54.8253 469.00
54.8905 449.00
54.9557 362.00
55.0209 369.00
55.0861 367.00
55.1513 363.00
55.2165 395.00
55.2817 355.00
55.3469 428.00
55.4121 536.00
55.4773 508.00
55.5425 491.00
55.6077 494.00
55.6729 381.00
55.7381 358.00
55.8033 379.00
55.8685 345.00
55.9337 372.00
55.9989 362.00
56.0641 395.00
56.1293 388.00
56.1945 383.00
56.2597 409.00
56.3249 426.00
56.3901 497.00
56.4553 568.00
56.5205 737.00
56.5857 1088.00
56.6509 1495.00
56.7161 1346.00
56.7813 1187.00
56.8465 1000.00
56.9117 809.00
56.9769 801.00
57.042 892.00
57.1073 838.00
57.1724 758.00
57.2376 616.00
57.3028 496.00
57.368 416.00
57.4332 410.00
57.4984 354.00
57.5636 361.00
57.6288 322.00
57.694 352.00
57.7592 368.00
57.8244 341.00
57.8896 307.00
57.9548 312.00
58.02 309.00
58.0852 345.00
58.1504 372.00
58.2156 318.00
58.2808 343.00
58.346 339.00
58.4112 328.00
58.4764 346.00
58.5416 361.00
58.6068 349.00
58.672 393.00
58.7372 386.00
58.8024 400.00
58.8676 416.00
58.9328 415.00
58.998 387.00
59.0632 365.00
59.1284 350.00
59.1936 324.00
59.2588 339.00
59.324 324.00
59.3892 330.00
59.4544 308.00
59.5196 311.00
59.5848 321.00
59.65 361.00
59.7152 353.00
59.7804 313.00
59.8456 411.00
59.9108 410.00
59.976 394.00
60.0412 398.00
60.1064 450.00
60.1716 443.00
60.2368 526.00
60.302 702.00
60.3672 1101.00
60.4324 1264.00
60.4976 1243.00
60.5628 1192.00
60.628 955.00
60.6932 740.00
60.7584 586.00
60.8236 527.00
60.8888 469.00
60.954 463.00
61.0192 435.00
61.0844 583.00
61.1496 769.00
61.2148 651.00
61.28 636.00
61.3452 598.00
61.4104 485.00
61.4756 426.00
61.5408 451.00
61.606 370.00
61.6712 395.00
61.7364 353.00
61.8016 351.00
61.8667 336.00
61.932 341.00
61.9971 322.00
62.0623 315.00
62.1275 323.00
62.1927 345.00
62.2579 383.00
62.3231 392.00
62.3883 377.00
62.4535 354.00
62.5187 407.00
62.5839 480.00
62.6491 725.00
62.7143 742.00
62.7795 677.00
62.8447 626.00
62.9099 594.00
62.9751 518.00
63.0403 497.00
63.1055 521.00
63.1707 524.00
63.2359 476.00
63.3011 428.00
63.3663 385.00
63.4315 358.00
63.4967 339.00
63.5619 368.00
63.6271 308.00
63.6923 310.00
63.7575 320.00
63.8227 318.00
63.8879 333.00
63.9531 285.00
64.0183 357.00
64.0835 421.00
64.1487 387.00
64.2139 354.00
64.2791 338.00
64.3443 340.00
64.4095 325.00
64.4747 302.00
64.5399 301.00
64.6051 266.00
64.6703 287.00
64.7355 322.00
64.8007 280.00
64.8659 336.00
64.9311 284.00
64.9963 316.00
65.0615 314.00
65.1267 312.00
65.1919 423.00
65.2571 443.00
65.3223 473.00
65.3875 503.00
65.4527 443.00
65.5179 535.00
65.5831 450.00
65.6483 420.00
65.7135 358.00
65.7787 393.00
65.8439 402.00
65.9091 342.00
65.9743 337.00
66.0395 346.00
66.1047 349.00
66.1699 376.00
66.2351 373.00
66.3003 354.00
66.3655 455.00
66.4307 488.00
66.4959 587.00
66.561 496.00
66.6263 484.00
66.6915 456.00
66.7566 404.00
66.8218 359.00
66.887 336.00
66.9522 303.00
67.0174 335.00
67.0826 377.00
67.1478 404.00
67.213 443.00
67.2782 475.00
67.3434 450.00
67.4086 407.00
67.4738 415.00
67.539 387.00
67.6042 353.00
67.6694 338.00
67.7346 371.00
67.7998 382.00
67.865 382.00
67.9302 389.00
67.9954 335.00
68.0606 347.00
68.1258 339.00
68.191 329.00
68.2562 296.00
68.3214 278.00
68.3866 284.00
68.4518 267.00
68.517 279.00
68.5822 277.00
68.6474 272.00
68.7126 312.00
68.7778 287.00
68.843 276.00
68.9082 288.00
68.9734 306.00
69.0386 321.00
69.1038 347.00
69.169 328.00
69.2342 396.00
69.2994 469.00
69.3646 426.00
69.4298 526.00
69.495 446.00
69.5602 365.00
69.6254 387.00
69.6906 360.00
69.7558 397.00
69.821 384.00
69.8862 507.00
69.9514 543.00
70.0166 525.00
70.0818 470.00
70.147 469.00
70.2122 391.00
70.2774 348.00
70.3426 333.00
70.4078 313.00
70.473 293.00
70.5382 288.00
70.6034 292.00
70.6686 327.00
70.7338 356.00
70.799 357.00
70.8642 386.00
70.9294 422.00
70.9946 472.00
71.0598 589.00
71.125 559.00
71.1902 495.00
71.2554 476.00
71.3205 468.00
71.3858 387.00
71.451 334.00
71.5162 285.00
71.5813 292.00
71.6465 299.00
71.7117 292.00
71.7769 319.00
71.8421 301.00
71.9073 287.00
71.9725 284.00
72.0377 332.00
72.1029 297.00
72.1681 279.00
72.2333 286.00
72.2985 285.00
72.3637 270.00
72.4289 310.00
72.4941 283.00
72.5593 273.00
72.6245 262.00
72.6897 237.00
72.7549 294.00
72.8201 272.00
72.8853 304.00
72.9505 289.00
73.0157 233.00
73.0809 256.00
73.1461 376.00
73.2113 462.00
73.2765 448.00
73.3417 390.00
73.4069 370.00
73.4721 394.00
73.5373 385.00
73.6025 307.00
73.6677 283.00
73.7329 279.00
73.7981 248.00
73.8633 293.00
73.9285 292.00
73.9937 300.00
74.0589 283.00
74.1241 270.00
74.1893 295.00
74.2545 311.00
74.3197 277.00
74.3849 245.00
74.4501 262.00
74.5153 271.00
74.5805 257.00
74.6457 280.00
74.7109 257.00
74.7761 247.00
74.8413 257.00
74.9065 275.00
74.9717 266.00
75.0369 281.00
75.1021 368.00
75.1673 384.00
75.2325 395.00
75.2977 348.00
75.3629 348.00
75.4281 353.00
75.4933 372.00
75.5585 362.00
75.6237 345.00
75.6889 363.00
75.7541 417.00
75.8193 330.00
75.8845 360.00
75.9497 290.00
76.0149 282.00
76.0801 332.00
76.1452 288.00
76.2104 301.00
76.2756 302.00
76.3409 260.00
76.406 260.00
76.4712 282.00
76.5364 237.00
76.6016 271.00
76.6668 269.00
76.732 284.00
76.7972 267.00
76.8624 263.00
76.9276 297.00
76.9928 283.00
77.058 268.00
77.1232 301.00
77.1884 291.00
77.2536 301.00
77.3188 327.00
77.384 334.00
77.4492 359.00
77.5144 360.00
77.5796 303.00
77.6448 324.00
77.71 323.00
77.7752 313.00
77.8404 286.00
77.9056 310.00
77.9708 264.00
78.036 246.00
78.1012 234.00
78.1664 276.00
78.2316 236.00
78.2968 229.00
78.362 234.00
78.4272 209.00
78.4924 283.00
78.5576 283.00
78.6228 262.00
78.688 287.00
78.7532 290.00
78.8184 346.00
78.8836 408.00
78.9488 375.00
79.014 373.00
79.0792 369.00
79.1444 362.00
79.2096 299.00
79.2748 358.00
79.34 317.00
79.4052 287.00
79.4704 288.00
79.5356 256.00
79.6008 261.00
79.666 310.00
79.7312 312.00
79.7964 325.00
79.8616 357.00
79.9268 374.00
79.992 380.00
80.0572 355.00
80.1224 358.00
80.1876 337.00
80.2528 354.00
80.318 332.00
80.3832 295.00
80.4484 293.00
80.5136 268.00
80.5788 256.00
80.644 249.00
80.7092 279.00
80.7744 238.00
80.8396 284.00
80.9048 317.00
80.9699 318.00
81.0351 396.00
81.1003 369.00
81.1655 343.00
81.2307 407.00
81.2959 368.00
81.3611 369.00
81.4263 325.00
81.4915 292.00
81.5567 281.00
81.6219 258.00
81.6871 251.00
81.7523 226.00
81.8175 237.00
81.8827 219.00
81.9479 268.00
82.0131 214.00
82.0783 261.00
82.1435 238.00
82.2087 247.00
82.2739 225.00
82.3391 236.00
82.4043 292.00
82.4695 277.00
82.5347 301.00
82.5999 263.00
82.6651 319.00
82.7303 335.00
82.7955 412.00
82.8607 385.00
82.9259 287.00
82.9911 315.00
83.0563 326.00
83.1215 289.00
83.1867 272.00
83.2519 272.00
83.3171 243.00
83.3823 224.00
83.4475 237.00
83.5127 245.00
83.5779 257.00
83.6431 261.00
83.7083 259.00
83.7735 240.00
83.8387 246.00
83.9039 269.00
83.9691 234.00
84.0343 231.00
84.0995 234.00
84.1647 199.00
84.2299 242.00
84.2951 233.00
84.3603 248.00
84.4255 244.00
84.4907 236.00
84.5559 241.00
84.6211 224.00
84.6863 259.00
84.7515 248.00
84.8167 248.00
84.8819 265.00
84.9471 249.00
85.0123 247.00
85.0775 265.00
85.1427 261.00
85.2079 237.00
85.2731 237.00
85.3383 227.00
85.4035 267.00
85.4687 274.00
85.5339 272.00
85.5991 274.00
85.6643 281.00
85.7295 281.00
85.7946 273.00
85.8598 285.00
85.925 269.00
85.9903 243.00
86.0554 295.00
86.1206 335.00
86.1858 356.00
86.251 366.00
86.3162 314.00
86.3814 311.00
86.4466 337.00
86.5118 294.00
86.577 276.00
86.6422 271.00
86.7074 249.00
86.7726 227.00
86.8378 260.00
86.903 258.00
86.9682 217.00
87.0334 240.00
87.0986 244.00
87.1638 270.00
87.229 262.00
87.2942 261.00
87.3594 320.00
87.4246 385.00
87.4898 417.00
87.555 406.00
87.6202 369.00
87.6854 369.00
87.7506 414.00
87.8158 382.00
87.881 391.00
87.9462 382.00
88.0114 356.00
88.0766 346.00
88.1418 302.00
88.207 301.00
88.2722 286.00
88.3374 284.00
88.4026 304.00
88.4678 350.00
88.533 336.00
88.5982 363.00
88.6634 429.00
88.7286 399.00
88.7938 369.00
88.859 323.00
88.9242 324.00
88.9894 324.00
89.0546 283.00
89.1198 275.00
89.185 249.00
89.2502 249.00
89.3154 242.00
89.3806 217.00
89.4458 229.00
89.511 262.00
89.5762 241.00
89.6414 250.00
89.7066 216.00
89.7718 269.00
89.837 220.00
89.9022 243.00
89.9674 261.00
90.0326 221.00
90.0978 280.00
90.163 230.00
90.2282 248.00
90.2934 285.00
90.3586 273.00
90.4238 231.00
90.489 276.00
90.5542 286.00
90.6193 289.00
90.6845 280.00
90.7497 264.00
90.8149 221.00
90.8801 261.00
90.9453 309.00
91.0105 286.00
91.0757 263.00
91.1409 280.00
91.2061 291.00
91.2713 261.00
91.3365 272.00
91.4017 289.00
91.4669 298.00
91.5321 243.00
91.5973 268.00
91.6625 302.00
91.7277 293.00
91.7929 250.00
91.8581 241.00
91.9233 282.00
91.9885 262.00
92.0537 269.00
92.1189 273.00
92.1841 228.00
92.2493 303.00
92.3145 375.00
92.3797 337.00
92.4449 359.00
92.5101 353.00
92.5753 368.00
92.6405 324.00
92.7057 355.00
92.7709 312.00
92.8361 335.00
92.9013 353.00
92.9665 355.00
93.0317 355.00
93.0969 300.00
93.1621 319.00
93.2273 315.00
93.2925 284.00
93.3577 306.00
93.4229 311.00
93.4881 264.00
93.5533 212.00
93.6185 245.00
93.6837 263.00
93.7489 231.00
93.8141 211.00
93.8793 234.00
93.9445 243.00
94.0097 299.00
94.0749 272.00
94.1401 301.00
94.2053 274.00
94.2705 258.00
94.3357 329.00
94.4009 291.00
94.4661 267.00
94.5313 263.00
94.5965 242.00
94.6617 239.00
94.7269 227.00
94.7921 214.00
94.8573 229.00
94.9225 239.00
94.9877 243.00
95.0529 244.00
95.1181 270.00
95.1833 234.00
95.2485 278.00
95.3137 287.00
95.3789 245.00
95.444 299.00
95.5092 258.00
95.5744 303.00
95.6396 273.00
95.7048 308.00
95.77 244.00
95.8352 317.00
95.9004 296.00
95.9656 374.00
96.0308 335.00
96.096 356.00
96.1612 433.00
96.2264 403.00
96.2916 407.00
96.3568 397.00
96.422 383.00
96.4872 364.00
96.5524 362.00
96.6176 343.00
96.6828 300.00
96.748 296.00
96.8132 296.00
96.8784 290.00
96.9436 262.00
97.0088 301.00
97.074 297.00
97.1392 311.00
97.2044 269.00
97.2696 286.00
97.3348 286.00
97.4 291.00
97.4652 330.00
97.5304 246.00
97.5956 263.00
97.6608 274.00
97.726 304.00
97.7912 334.00
97.8564 363.00
97.9216 316.00
97.9868 312.00
98.052 280.00
98.1172 302.00
98.1824 260.00
98.2476 248.00
98.3128 267.00
98.378 227.00
98.4432 242.00
98.5084 242.00
98.5736 270.00
98.6388 262.00
98.704 247.00
98.7692 262.00
98.8344 196.00
98.8996 197.00
98.9648 217.00
99.03 235.00
99.0952 262.00
99.1604 215.00
99.2256 223.00
99.2908 231.00
99.356 209.00
99.4212 258.00
99.4864 228.00
99.5516 221.00
99.6168 242.00
99.682 302.00
99.7472 305.00
99.8124 368.00
99.8776 328.00
99.9428 310.00
100.008 307.00
100.073 288.00
100.095 308.00