File: data/xrd_creation/results/NSC_199.xy
9.903433 2849.00
9.968632 2913.00
10.0338 2840.00
10.099 2910.00
10.1642 2800.00
10.2294 2869.00
10.2946 2763.00
10.3598 2875.00
10.425 2810.00
10.4902 2858.00
10.5554 2914.00
10.6206 2986.00
10.6858 2889.00
10.751 2777.00
10.8162 2643.00
10.8814 2629.00
10.9466 2517.00
11.0118 2676.00
11.077 2559.00
11.1422 2502.00
11.2074 2543.00
11.2726 2519.00
11.3378 2545.00
11.403 2505.00
11.4682 2492.00
11.5334 2399.00
11.5986 2458.00
11.6638 2479.00
11.729 2373.00
11.7942 2305.00
11.8594 2295.00
11.9246 2292.00
11.9898 2337.00
12.055 2206.00
12.1202 2281.00
12.1854 2290.00
12.2506 2345.00
12.3158 2324.00
12.381 2282.00
12.4462 2298.00
12.5114 2324.00
12.5766 2303.00
12.6418 2331.00
12.707 2213.00
12.7722 2211.00
12.8374 2259.00
12.9026 2196.00
12.9678 2191.00
13.033 2230.00
13.0982 2172.00
13.1634 2203.00
13.2286 2115.00
13.2938 2233.00
13.359 2259.00
13.4242 2124.00
13.4894 2168.00
13.5546 2124.00
13.6198 2139.00
13.685 2283.00
13.7502 2204.00
13.8154 2177.00
13.8805 2147.00
13.9457 2096.00
14.0109 2077.00
14.0761 2155.00
14.1413 2014.00
14.2065 2085.00
14.2717 2165.00
14.3369 2128.00
14.4021 2123.00
14.4673 2008.00
14.5325 2015.00
14.5977 2143.00
14.6629 2120.00
14.7281 2128.00
14.7933 2091.00
14.8585 2046.00
14.9237 2059.00
14.9889 2182.00
15.0541 2201.00
15.1193 2084.00
15.1845 2090.00
15.2497 2137.00
15.3149 2067.00
15.3801 2111.00
15.4453 2080.00
15.5105 2064.00
15.5757 2043.00
15.6409 2082.00
15.7061 2052.00
15.7713 2092.00
15.8365 2063.00
15.9017 2097.00
15.9669 1997.00
16.0321 2056.00
16.0973 2050.00
16.1625 2111.00
16.2277 2010.00
16.2929 2046.00
16.3581 2073.00
16.4233 1992.00
16.4885 1991.00
16.5537 2141.00
16.6189 2085.00
16.6841 2140.00
16.7493 2011.00
16.8145 2051.00
16.8797 2107.00
16.9449 2090.00
17.0101 2064.00
17.0753 2049.00
17.1405 1989.00
17.2057 2082.00
17.2709 2033.00
17.3361 2079.00
17.4013 2027.00
17.4665 2024.00
17.5317 2041.00
17.5969 2088.00
17.6621 2226.00
17.7273 2499.00
17.7925 2687.00
17.8577 2862.00
17.9229 2557.00
17.9881 2234.00
18.0533 2088.00
18.1185 1997.00
18.1837 2025.00
18.2489 2036.00
18.3141 2011.00
18.3793 1898.00
18.4445 1895.00
18.5097 2033.00
18.5749 1965.00
18.6401 1923.00
18.7052 1996.00
18.7704 1929.00
18.8356 2044.00
18.9008 1928.00
18.966 2011.00
19.0312 1966.00
19.0964 1932.00
19.1616 1991.00
19.2268 1940.00
19.292 1949.00
19.3572 1897.00
19.4224 1906.00
19.4876 1970.00
19.5528 1988.00
19.618 1994.00
19.6832 2060.00
19.7484 2000.00
19.8136 2047.00
19.8788 2122.00
19.944 2151.00
20.0092 2226.00
20.0744 2126.00
20.1396 2068.00
20.2048 1991.00
20.27 1956.00
20.3352 1781.00
20.4004 1929.00
20.4656 1914.00
20.5308 1968.00
20.596 1962.00
20.6612 2018.00
20.7264 2034.00
20.7916 2213.00
20.8568 2398.00
20.922 2496.00
20.9872 2568.00
21.0524 2219.00
21.1176 1982.00
21.1828 1956.00
21.248 1931.00
21.3132 1916.00
21.3784 1929.00
21.4436 1963.00
21.5088 2029.00
21.574 1991.00
21.6392 1956.00
21.7044 2024.00
21.7696 1939.00
21.8348 1919.00
21.9 1916.00
21.9652 1947.00
22.0304 1934.00
22.0956 1870.00
22.1608 1882.00
22.226 1876.00
22.2912 1854.00
22.3564 1879.00
22.4216 1835.00
22.4868 1856.00
22.552 1860.00
22.6172 1931.00
22.6824 1928.00
22.7476 1849.00
22.8128 1835.00
22.878 1782.00
22.9432 1803.00
23.0084 1839.00
23.0736 1769.00
23.1388 1778.00
23.204 1777.00
23.2692 1816.00
23.3344 1793.00
23.3996 1854.00
23.4647 1783.00
23.5299 1825.00
23.5951 1813.00
23.6603 1839.00
23.7255 1850.00
23.7907 1989.00
23.8559 1916.00
23.9211 2023.00
23.9863 2225.00
24.0515 2450.00
24.1167 2582.00
24.1819 2839.00
24.2471 3001.00
24.3123 3200.00
24.3775 3556.00
24.4427 4020.00
24.5079 4304.00
24.5731 3997.00
24.6383 3144.00
24.7035 2760.00
24.7687 3065.00
24.8339 3379.00
24.8991 3748.00
24.9643 3586.00
25.0295 2813.00
25.0947 2254.00
25.1599 1983.00
25.2251 1927.00
25.2903 1786.00
25.3555 1907.00
25.4207 1762.00
25.4859 1785.00
25.5511 1758.00
25.6163 1760.00
25.6815 1893.00
25.7467 1759.00
25.8119 1825.00
25.8771 1890.00
25.9423 1768.00
26.0075 1677.00
26.0727 1867.00
26.1379 1772.00
26.2031 1761.00
26.2683 1868.00
26.3335 1749.00
26.3987 1820.00
26.4639 1761.00
26.5291 1676.00
26.5943 1756.00
26.6595 1813.00
26.7247 1704.00
26.7899 1801.00
26.8551 1852.00
26.9203 1785.00
26.9855 1738.00
27.0507 1738.00
27.1159 1756.00
27.1811 1784.00
27.2463 1752.00
27.3115 1761.00
27.3767 1773.00
27.4419 1755.00
27.5071 1748.00
27.5723 1819.00
27.6375 1888.00
27.7027 1866.00
27.7679 1972.00
27.8331 1967.00
27.8983 2045.00
27.9635 2103.00
28.0287 2121.00
28.0939 2269.00
28.1591 2420.00
28.2243 2730.00
28.2894 3229.00
28.3546 4308.00
28.4198 6393.00
28.485 9809.00
28.5502 13091.00
28.6154 15714.00
28.6806 16779.00
28.7458 13267.00
28.811 8266.00
28.8762 5029.00
28.9414 3602.00
29.0066 2963.00
29.0718 2506.00
29.137 2402.00
29.2022 2127.00
29.2674 2128.00
29.3326 1972.00
29.3978 1950.00
29.463 1904.00
29.5282 1949.00
29.5934 1914.00
29.6586 1882.00
29.7238 1862.00
29.789 1860.00
29.8542 1903.00
29.9194 1806.00
29.9846 1823.00
30.0498 1761.00
30.115 1828.00
30.1802 1871.00
30.2454 1829.00
30.3106 1843.00
30.3758 1828.00
30.441 1780.00
30.5062 1884.00
30.5714 1778.00
30.6366 1887.00
30.7018 1944.00
30.767 1941.00
30.8322 2028.00
30.8974 1996.00
30.9626 2101.00
31.0278 2145.00
31.093 2230.00
31.1582 2132.00
31.2234 2162.00
31.2886 2262.00
31.3538 2216.00
31.419 2374.00
31.4842 2606.00
31.5494 2958.00
31.6146 3586.00
31.6798 4613.00
31.745 6578.00
31.8102 8638.00
31.8754 10448.00
31.9406 12711.00
32.0058 12109.00
32.071 9496.00
32.1362 5838.00
32.2014 3785.00
32.2666 2937.00
32.3318 2529.00
32.397 2283.00
32.4622 2066.00
32.5274 2040.00
32.5926 1956.00
32.6578 1829.00
32.723 1796.00
32.7882 1841.00
32.8534 1749.00
32.9186 1736.00
32.9838 1811.00
33.0489 1657.00
33.1141 1780.00
33.1793 1800.00
33.2445 1677.00
33.3097 1775.00
33.3749 1832.00
33.4401 1786.00
33.5053 1810.00
33.5705 1760.00
33.6357 1794.00
33.7009 1710.00
33.7661 1857.00
33.8313 1939.00
33.8965 2071.00
33.9617 2320.00
34.0269 2509.00
34.0921 2819.00
34.1573 3186.00
34.2225 3797.00
34.2877 4622.00
34.3529 5253.00
34.4181 5310.00
34.4833 5147.00
34.5485 5407.00
34.6137 5811.00
34.6789 5842.00
34.7441 4968.00
34.8093 4396.00
34.8745 4401.00
34.9397 4960.00
35.0049 4763.00
35.0701 3640.00
35.1353 2661.00
35.2005 2217.00
35.2657 2035.00
35.3309 1915.00
35.3961 1943.00
35.4613 2019.00
35.5265 2255.00
35.5917 2699.00
35.6569 3108.00
35.7221 3606.00
35.7873 4721.00
35.8525 5193.00
35.9177 4282.00
35.9829 3173.00
36.0481 2291.00
36.1133 2054.00
36.1785 2070.00
36.2437 2050.00
36.3089 2255.00
36.3741 2499.00
36.4393 2363.00
36.5045 2006.00
36.5697 1790.00
36.6349 1611.00
36.7001 1594.00
36.7653 1483.00
36.8305 1460.00
36.8957 1519.00
36.9609 1531.00
37.0261 1388.00
37.0913 1556.00
37.1565 1445.00
37.2217 1410.00
37.2869 1436.00
37.3521 1357.00
37.4173 1335.00
37.4825 1445.00
37.5477 1425.00
37.6129 1438.00
37.6781 1357.00
37.7433 1364.00
37.8085 1415.00
37.8736 1357.00
37.9388 1385.00
38.004 1357.00
38.0692 1393.00
38.1344 1396.00
38.1996 1406.00
38.2648 1326.00
38.33 1358.00
38.3952 1355.00
38.4604 1367.00
38.5256 1365.00
38.5908 1363.00
38.656 1394.00
38.7212 1414.00
38.7864 1481.00
38.8516 1628.00
38.9168 1802.00
38.982 1982.00
39.0472 2284.00
39.1124 2568.00
39.1776 2554.00
39.2428 2055.00
39.308 1818.00
39.3732 1552.00
39.4384 1479.00
39.5036 1380.00
39.5688 1400.00
39.634 1380.00
39.6992 1366.00
39.7644 1403.00
39.8296 1435.00
39.8948 1356.00
39.96 1352.00
40.0252 1377.00
40.0904 1418.00
40.1556 1413.00
40.2208 1372.00
40.286 1355.00
40.3512 1433.00
40.4164 1419.00
40.4816 1537.00
40.5468 1428.00
40.612 1493.00
40.6772 1396.00
40.7424 1472.00
40.8076 1544.00
40.8728 1680.00
40.938 1786.00
41.0032 2080.00
41.0684 2230.00
41.1336 2399.00
41.1988 2797.00
41.264 3249.00
41.3292 3282.00
41.3944 3061.00
41.4596 2649.00
41.5248 2254.00
41.59 2190.00
41.6552 2287.00
41.7204 2302.00
41.7856 2138.00
41.8508 2027.00
41.916 2061.00
41.9812 2070.00
42.0464 1873.00
42.1116 1686.00
42.1768 1553.00
42.242 1449.00
42.3072 1431.00
42.3724 1383.00
42.4376 1305.00
42.5028 1385.00
42.568 1275.00
42.6332 1290.00
42.6983 1288.00
42.7635 1330.00
42.8287 1256.00
42.8939 1305.00
42.9591 1386.00
43.0243 1289.00
43.0895 1234.00
43.1547 1372.00
43.2199 1259.00
43.2851 1279.00
43.3503 1284.00
43.4155 1319.00
43.4807 1358.00
43.5459 1320.00
43.6111 1288.00
43.6763 1348.00
43.7415 1402.00
43.8067 1304.00
43.8719 1363.00
43.9371 1282.00
44.0023 1283.00
44.0675 1321.00
44.1327 1312.00
44.1979 1319.00
44.2631 1262.00
44.3283 1332.00
44.3935 1240.00
44.4587 1294.00
44.5239 1364.00
44.5891 1341.00
44.6543 1244.00
44.7195 1322.00
44.7847 1307.00
44.8499 1288.00
44.9151 1469.00
44.9803 1502.00
45.0455 1504.00
45.1107 1714.00
45.1759 1709.00
45.2411 1746.00
45.3063 1904.00
45.3715 1994.00
45.4367 1877.00
45.5019 1818.00
45.5671 1690.00
45.6323 1649.00
45.6975 1571.00
45.7627 1755.00
45.8279 1819.00
45.8931 1903.00
45.9583 1945.00
46.0235 2139.00
46.0887 2201.00
46.1539 2149.00
46.2191 1869.00
46.2843 1651.00
46.3495 1539.00
46.4147 1429.00
46.4799 1347.00
46.5451 1295.00
46.6103 1384.00
46.6755 1329.00
46.7407 1348.00
46.8059 1333.00
46.8711 1361.00
46.9363 1335.00
47.0015 1365.00
47.0667 1359.00
47.1319 1357.00
47.1971 1371.00
47.2623 1395.00
47.3275 1376.00
47.3927 1297.00
47.4579 1300.00
47.523 1329.00
47.5882 1234.00
47.6534 1359.00
47.7186 1194.00
47.7838 1291.00
47.849 1255.00
47.9142 1276.00
47.9794 1268.00
48.0446 1299.00
48.1098 1241.00
48.175 1185.00
48.2402 1222.00
48.3054 1240.00
48.3706 1278.00
48.4358 1313.00
48.501 1282.00
48.5662 1341.00
48.6314 1380.00
48.6966 1358.00
48.7618 1428.00
48.827 1438.00
48.8922 1464.00
48.9574 1556.00
49.0226 1507.00
49.0878 1689.00
49.153 1783.00
49.2182 1818.00
49.2834 1879.00
49.3486 1945.00
49.4138 1914.00
49.479 2239.00
49.5442 2628.00
49.6094 2595.00
49.6746 2672.00
49.7398 2998.00
49.805 3570.00
49.8702 3991.00
49.9354 3639.00
50.0006 3095.00
50.0658 2382.00
50.131 1928.00
50.1962 1820.00
50.2614 1736.00
50.3266 1914.00
50.3918 2345.00
50.457 2528.00
50.5222 2682.00
50.5874 2913.00
50.6526 3364.00
50.7178 4527.00
50.783 5104.00
50.8482 4543.00
50.9134 3951.00
50.9786 3184.00
51.0438 2752.00
51.109 2974.00
51.1742 3027.00
51.2394 2887.00
51.3046 2568.00
51.3698 2192.00
51.435 1841.00
51.5002 1822.00
51.5654 1757.00
51.6306 1725.00
51.6958 1663.00
51.761 1725.00
51.8262 1908.00
51.8914 1922.00
51.9566 1893.00
52.0218 1597.00
52.087 1507.00
52.1522 1359.00
52.2174 1402.00
52.2826 1372.00
52.3477 1288.00
52.4129 1269.00
52.4781 1337.00
52.5433 1340.00
52.6085 1276.00
52.6737 1262.00
52.7389 1282.00
52.8041 1270.00
52.8693 1291.00
52.9345 1277.00
52.9997 1340.00
53.0649 1254.00
53.1301 1317.00
53.1953 1328.00
53.2605 1305.00
53.3257 1226.00
53.3909 1315.00
53.4561 1347.00
53.5213 1294.00
53.5865 1278.00
53.6517 1294.00
53.7169 1283.00
53.7821 1352.00
53.8473 1339.00
53.9125 1334.00
53.9777 1340.00
54.0429 1450.00
54.1081 1419.00
54.1733 1606.00
54.2385 1656.00
54.3037 1816.00
54.3689 1918.00
54.4341 1937.00
54.4993 1932.00
54.5645 2178.00
54.6297 2487.00
54.6949 2769.00
54.7601 2746.00
54.8253 2471.00
54.8905 2146.00
54.9557 1903.00
55.0209 1664.00
55.0861 1589.00
55.1513 1571.00
55.2165 1474.00
55.2817 1504.00
55.3469 1640.00
55.4121 1701.00
55.4773 1751.00
55.5425 1999.00
55.6077 2090.00
55.6729 2069.00
55.7381 2198.00
55.8033 2547.00
55.8685 2940.00
55.9337 3366.00
55.9989 3339.00
56.0641 3320.00
56.1293 3161.00
56.1945 3073.00
56.2597 2733.00
56.3249 2377.00
56.3901 2298.00
56.4553 2188.00
56.5205 2295.00
56.5857 2484.00
56.6509 2401.00
56.7161 2252.00
56.7813 1976.00
56.8465 1811.00
56.9117 1599.00
56.9769 1520.00
57.042 1352.00
57.1073 1388.00
57.1724 1361.00
57.2376 1400.00
57.3028 1462.00
57.368 1535.00
57.4332 1612.00
57.4984 1714.00
57.5636 1741.00
57.6288 1781.00
57.694 1873.00
57.7592 2181.00
57.8244 2329.00
57.8896 2280.00
57.9548 2068.00
58.02 1968.00
58.0852 1769.00
58.1504 1794.00
58.2156 1707.00
58.2808 1601.00
58.346 1591.00
58.4112 1738.00
58.4764 1932.00
58.5416 2169.00
58.6068 2223.00
58.672 2230.00
58.7372 2053.00
58.8024 2011.00
58.8676 1970.00
58.9328 1902.00
58.998 1761.00
59.0632 1683.00
59.1284 1471.00
59.1936 1439.00
59.2588 1418.00
59.324 1425.00
59.3892 1347.00
59.4544 1310.00
59.5196 1248.00
59.5848 1292.00
59.65 1269.00
59.7152 1277.00
59.7804 1293.00
59.8456 1306.00
59.9108 1394.00
59.976 1441.00
60.0412 1596.00
60.1064 1746.00
60.1716 1794.00
60.2368 1954.00
60.302 2070.00
60.3672 2243.00
60.4324 2468.00
60.4976 2731.00
60.5628 2815.00
60.628 2805.00
60.6932 2656.00
60.7584 2456.00
60.8236 2154.00
60.8888 2025.00
60.954 1802.00
61.0192 1746.00
61.0844 1677.00
61.1496 1693.00
61.2148 1621.00
61.28 1631.00
61.3452 1565.00
61.4104 1485.00
61.4756 1568.00
61.5408 1576.00
61.606 1636.00
61.6712 1593.00
61.7364 1580.00
61.8016 1639.00
61.8667 1746.00
61.932 2054.00
61.9971 2129.00
62.0623 2057.00
62.1275 1992.00
62.1927 1981.00
62.2579 1905.00
62.3231 1851.00
62.3883 1877.00
62.4535 1980.00
62.5187 2068.00
62.5839 2122.00
62.6491 2104.00
62.7143 2009.00
62.7795 1946.00
62.8447 1705.00
62.9099 1598.00
62.9751 1607.00
63.0403 1650.00
63.1055 1745.00
63.1707 1748.00
63.2359 1729.00
63.3011 1767.00
63.3663 1884.00
63.4315 2126.00
63.4967 2298.00
63.5619 2461.00
63.6271 2199.00
63.6923 2035.00
63.7575 1855.00
63.8227 1645.00
63.8879 1389.00
63.9531 1376.00
64.0183 1287.00
64.0835 1219.00
64.1487 1240.00
64.2139 1173.00
64.2791 1242.00
64.3443 1326.00
64.4095 1269.00
64.4747 1376.00
64.5399 1414.00
64.6051 1357.00
64.6703 1411.00
64.7355 1488.00
64.8007 1472.00
64.8659 1548.00
64.9311 1593.00
64.9963 1539.00
65.0615 1627.00
65.1267 1439.00
65.1919 1377.00
65.2571 1334.00
65.3223 1290.00
65.3875 1256.00
65.4527 1303.00
65.5179 1307.00
65.5831 1346.00
65.6483 1447.00
65.7135 1491.00
65.7787 1425.00
65.8439 1482.00
65.9091 1657.00
65.9743 1731.00
66.0395 1801.00
66.1047 1813.00
66.1699 1887.00
66.2351 1924.00
66.3003 2061.00
66.3655 2245.00
66.4307 2302.00
66.4959 2176.00
66.561 1941.00
66.6263 1976.00
66.6915 1635.00
66.7566 1496.00
66.8218 1488.00
66.887 1336.00
66.9522 1319.00
67.0174 1184.00
67.0826 1208.00
67.1478 1200.00
67.213 1120.00
67.2782 1124.00
67.3434 1101.00
67.4086 1119.00
67.4738 1077.00
67.539 1131.00
67.6042 1159.00
67.6694 1142.00
67.7346 1138.00
67.7998 1037.00
67.865 1054.00
67.9302 1029.00
67.9954 1122.00
68.0606 1092.00
68.1258 1090.00
68.191 1071.00
68.2562 1022.00
68.3214 1076.00
68.3866 1042.00
68.4518 1109.00
68.517 1053.00
68.5822 1083.00
68.6474 1071.00
68.7126 1074.00
68.7778 1033.00
68.843 1076.00
68.9082 1009.00
68.9734 1122.00
69.0386 1066.00
69.1038 1106.00
69.169 1144.00
69.2342 1125.00
69.2994 1213.00
69.3646 1195.00
69.4298 1160.00
69.495 1261.00
69.5602 1403.00
69.6254 1343.00
69.6906 1438.00
69.7558 1371.00
69.821 1351.00
69.8862 1322.00
69.9514 1337.00
70.0166 1231.00
70.0818 1183.00
70.147 1174.00
70.2122 1142.00
70.2774 1146.00
70.3426 1192.00
70.4078 1079.00
70.473 1158.00
70.5382 1183.00
70.6034 1227.00
70.6686 1139.00
70.7338 1137.00
70.799 1120.00
70.8642 1083.00
70.9294 1169.00
70.9946 1248.00
71.0598 1128.00
71.125 1193.00
71.1902 1209.00
71.2554 1182.00
71.3205 1294.00
71.3858 1303.00
71.451 1377.00
71.5162 1438.00
71.5813 1385.00
71.6465 1535.00
71.7117 1647.00
71.7769 1746.00
71.8421 1818.00
71.9073 1789.00
71.9725 1916.00
72.0377 1659.00
72.1029 1587.00
72.1681 1494.00
72.2333 1377.00
72.2985 1350.00
72.3637 1198.00
72.4289 1317.00
72.4941 1240.00
72.5593 1307.00
72.6245 1313.00
72.6897 1266.00
72.7549 1317.00
72.8201 1290.00
72.8853 1297.00
72.9505 1308.00
73.0157 1320.00
73.0809 1321.00
73.1461 1317.00
73.2113 1285.00
73.2765 1266.00
73.3417 1316.00
73.4069 1289.00
73.4721 1230.00
73.5373 1223.00
73.6025 1105.00
73.6677 1170.00
73.7329 1134.00
73.7981 1039.00
73.8633 1083.00
73.9285 1029.00
73.9937 1038.00
74.0589 1094.00
74.1241 1076.00
74.1893 1086.00
74.2545 1125.00
74.3197 1084.00
74.3849 1083.00
74.4501 1101.00
74.5153 1057.00
74.5805 1018.00
74.6457 1075.00
74.7109 1067.00
74.7761 1037.00
74.8413 1107.00
74.9065 1055.00
74.9717 1134.00
75.0369 1106.00
75.1021 1102.00
75.1673 1181.00
75.2325 1220.00
75.2977 1292.00
75.3629 1337.00
75.4281 1339.00
75.4933 1371.00
75.5585 1436.00
75.6237 1261.00
75.6889 1329.00
75.7541 1419.00
75.8193 1459.00
75.8845 1537.00
75.9497 1536.00
76.0149 1475.00
76.0801 1494.00
76.1452 1428.00
76.2104 1347.00
76.2756 1243.00
76.3409 1187.00
76.406 1104.00
76.4712 1157.00
76.5364 1099.00
76.6016 1203.00
76.6668 1124.00
76.732 1153.00
76.7972 1109.00
76.8624 1135.00
76.9276 1133.00
76.9928 1198.00
77.058 1127.00
77.1232 1238.00
77.1884 1290.00
77.2536 1302.00
77.3188 1323.00
77.384 1251.00
77.4492 1267.00
77.5144 1223.00
77.5796 1215.00
77.6448 1137.00
77.71 1120.00
77.7752 1139.00
77.8404 1186.00
77.9056 1181.00
77.9708 1172.00
78.036 1262.00
78.1012 1319.00
78.1664 1315.00
78.2316 1228.00
78.2968 1273.00
78.362 1270.00
78.4272 1228.00
78.4924 1225.00
78.5576 1200.00
78.6228 1210.00
78.688 1208.00
78.7532 1156.00
78.8184 1243.00
78.8836 1210.00
78.9488 1203.00
79.014 1176.00
79.0792 1222.00
79.1444 1184.00
79.2096 1171.00
79.2748 1151.00
79.34 1171.00
79.4052 1200.00
79.4704 1179.00
79.5356 1224.00
79.6008 1264.00
79.666 1307.00
79.7312 1338.00
79.7964 1353.00
79.8616 1283.00
79.9268 1251.00
79.992 1249.00
80.0572 1240.00
80.1224 1061.00
80.1876 1057.00
80.2528 1060.00
80.318 1029.00
80.3832 1045.00
80.4484 997.00
80.5136 1116.00
80.5788 1052.00
80.644 986.00
80.7092 1030.00
80.7744 1009.00
80.8396 1011.00
80.9048 1041.00
80.9699 1068.00
81.0351 1086.00
81.1003 1092.00
81.1655 1108.00
81.2307 1056.00
81.2959 1084.00
81.3611 1118.00
81.4263 1080.00
81.4915 1120.00
81.5567 1110.00
81.6219 1063.00
81.6871 1052.00
81.7523 1136.00
81.8175 1158.00
81.8827 1134.00
81.9479 1252.00
82.0131 1247.00
82.0783 1225.00
82.1435 1275.00
82.2087 1274.00
82.2739 1405.00
82.3391 1380.00
82.4043 1363.00
82.4695 1309.00
82.5347 1298.00
82.5999 1202.00
82.6651 1209.00
82.7303 1214.00
82.7955 1200.00
82.8607 1156.00
82.9259 1220.00
82.9911 1214.00
83.0563 1170.00
83.1215 1210.00
83.1867 1237.00
83.2519 1273.00
83.3171 1315.00
83.3823 1342.00
83.4475 1397.00
83.5127 1389.00
83.5779 1365.00
83.6431 1326.00
83.7083 1371.00
83.7735 1335.00
83.8387 1352.00
83.9039 1401.00
83.9691 1425.00
84.0343 1387.00
84.0995 1408.00
84.1647 1463.00
84.2299 1340.00
84.2951 1391.00
84.3603 1313.00
84.4255 1332.00
84.4907 1375.00
84.5559 1269.00
84.6211 1338.00
84.6863 1388.00
84.7515 1413.00
84.8167 1343.00
84.8819 1438.00
84.9471 1444.00
85.0123 1375.00
85.0775 1437.00
85.1427 1355.00
85.2079 1271.00
85.2731 1315.00
85.3383 1268.00
85.4035 1244.00
85.4687 1172.00
85.5339 1212.00
85.5991 1160.00
85.6643 1265.00
85.7295 1213.00
85.7946 1213.00
85.8598 1206.00
85.925 1160.00
85.9903 1157.00
86.0554 1119.00
86.1206 1151.00
86.1858 1108.00
86.251 1097.00
86.3162 1090.00
86.3814 1108.00
86.4466 1043.00
86.5118 1111.00
86.577 1080.00
86.6422 1109.00
86.7074 1143.00
86.7726 1147.00
86.8378 1254.00
86.903 1138.00
86.9682 1158.00
87.0334 1204.00
87.0986 1067.00
87.1638 1117.00
87.229 1205.00
87.2942 1114.00
87.3594 1108.00
87.4246 1055.00
87.4898 1043.00
87.555 1131.00
87.6202 1103.00
87.6854 1095.00
87.7506 1129.00
87.8158 1122.00
87.881 1103.00
87.9462 1128.00
88.0114 1126.00
88.0766 1136.00
88.1418 1170.00
88.207 1200.00
88.2722 1230.00
88.3374 1312.00
88.4026 1336.00
88.4678 1362.00
88.533 1347.00
88.5982 1361.00
88.6634 1350.00
88.7286 1330.00
88.7938 1394.00
88.859 1356.00
88.9242 1378.00
88.9894 1406.00
89.0546 1393.00
89.1198 1386.00
89.185 1404.00
89.2502 1402.00
89.3154 1494.00
89.3806 1377.00
89.4458 1358.00
89.511 1309.00
89.5762 1313.00
89.6414 1305.00
89.7066 1247.00
89.7718 1260.00
89.837 1204.00
89.9022 1219.00
89.9674 1265.00
90.0326 1258.00
90.0978 1239.00
90.163 1271.00
90.2282 1249.00
90.2934 1191.00
90.3586 1252.00
90.4238 1293.00
90.489 1341.00
90.5542 1314.00
90.6193 1388.00
90.6845 1333.00
90.7497 1342.00
90.8149 1316.00
90.8801 1357.00
90.9453 1358.00
91.0105 1260.00
91.0757 1271.00
91.1409 1163.00
91.2061 1135.00
91.2713 1188.00
91.3365 1126.00
91.4017 1125.00
91.4669 1250.00
91.5321 1151.00
91.5973 1159.00
91.6625 1163.00
91.7277 1147.00
91.7929 1117.00
91.8581 1133.00
91.9233 1060.00
91.9885 1128.00
92.0537 1123.00
92.1189 1131.00
92.1841 1171.00
92.2493 1141.00
92.3145 1097.00
92.3797 1081.00
92.4449 1142.00
92.5101 1093.00
92.5753 1027.00
92.6405 1063.00
92.7057 1100.00
92.7709 1043.00
92.8361 1055.00
92.9013 958.00
92.9665 1024.00
93.0317 999.00
93.0969 1064.00
93.1621 1030.00
93.2273 937.00
93.2925 1057.00
93.3577 923.00
93.4229 993.00
93.4881 957.00
93.5533 1035.00
93.6185 1008.00
93.6837 1051.00
93.7489 1068.00
93.8141 1012.00
93.8793 1077.00
93.9445 1098.00
94.0097 1143.00
94.0749 1091.00
94.1401 1102.00
94.2053 1073.00
94.2705 1125.00
94.3357 1089.00
94.4009 1106.00
94.4661 1039.00
94.5313 1064.00
94.5965 1173.00
94.6617 1148.00
94.7269 1170.00
94.7921 1208.00
94.8573 1167.00
94.9225 1199.00
94.9877 1182.00
95.0529 1128.00
95.1181 1119.00
95.1833 1200.00
95.2485 1114.00
95.3137 1143.00
95.3789 1170.00
95.444 1133.00
95.5092 1173.00
95.5744 1241.00
95.6396 1215.00
95.7048 1239.00
95.77 1237.00
95.8352 1194.00
95.9004 1227.00
95.9656 1260.00
96.0308 1271.00
96.096 1339.00
96.1612 1355.00
96.2264 1279.00
96.2916 1232.00
96.3568 1265.00
96.422 1246.00
96.4872 1238.00
96.5524 1241.00
96.6176 1195.00
96.6828 1243.00
96.748 1262.00
96.8132 1335.00
96.8784 1282.00
96.9436 1314.00
97.0088 1389.00
97.074 1446.00
97.1392 1424.00
97.2044 1464.00
97.2696 1429.00
97.3348 1409.00
97.4 1421.00
97.4652 1475.00
97.5304 1516.00
97.5956 1527.00
97.6608 1538.00
97.726 1511.00
97.7912 1527.00
97.8564 1487.00
97.9216 1485.00
97.9868 1467.00
98.052 1349.00
98.1172 1277.00
98.1824 1253.00
98.2476 1220.00
98.3128 1148.00
98.378 1153.00
98.4432 1205.00
98.5084 1179.00
98.5736 1141.00
98.6388 1201.00
98.704 1130.00
98.7692 1178.00
98.8344 1198.00
98.8996 1182.00
98.9648 1232.00
99.03 1260.00
99.0952 1233.00
99.1604 1269.00
99.2256 1295.00
99.2908 1282.00
99.356 1311.00
99.4212 1417.00
99.4864 1384.00
99.5516 1315.00
99.6168 1369.00
99.682 1353.00
99.7472 1389.00
99.8124 1371.00
99.8776 1353.00
99.9428 1343.00
100.008 1449.00
100.073 1395.00
100.095 1415.00