File: data/xrd_creation/results/NSC_92.xy
9.903433 2860.00
9.968632 2736.00
10.0338 2705.00
10.099 2694.00
10.1642 2785.00
10.2294 2767.00
10.2946 2676.00
10.3598 2748.00
10.425 2738.00
10.4902 2563.00
10.5554 2488.00
10.6206 2580.00
10.6858 2504.00
10.751 2433.00
10.8162 2485.00
10.8814 2561.00
10.9466 2559.00
11.0118 2514.00
11.077 2350.00
11.1422 2432.00
11.2074 2367.00
11.2726 2333.00
11.3378 2348.00
11.403 2313.00
11.4682 2291.00
11.5334 2257.00
11.5986 2219.00
11.6638 2204.00
11.729 2273.00
11.7942 2288.00
11.8594 2226.00
11.9246 2173.00
11.9898 2170.00
12.055 2126.00
12.1202 2110.00
12.1854 2097.00
12.2506 2015.00
12.3158 2139.00
12.381 2086.00
12.4462 2082.00
12.5114 2092.00
12.5766 2063.00
12.6418 2078.00
12.707 1963.00
12.7722 2054.00
12.8374 1973.00
12.9026 1939.00
12.9678 1919.00
13.033 1854.00
13.0982 1972.00
13.1634 1939.00
13.2286 1866.00
13.2938 1837.00
13.359 1901.00
13.4242 1921.00
13.4894 1885.00
13.5546 1880.00
13.6198 1887.00
13.685 1915.00
13.7502 1908.00
13.8154 1874.00
13.8805 1847.00
13.9457 1847.00
14.0109 1945.00
14.0761 1934.00
14.1413 2245.00
14.2065 2448.00
14.2717 2884.00
14.3369 2877.00
14.4021 2547.00
14.4673 2005.00
14.5325 1874.00
14.5977 1751.00
14.6629 1803.00
14.7281 1646.00
14.7933 1676.00
14.8585 1689.00
14.9237 1701.00
14.9889 1665.00
15.0541 1706.00
15.1193 1638.00
15.1845 1625.00
15.2497 1638.00
15.3149 1589.00
15.3801 1662.00
15.4453 1553.00
15.5105 1598.00
15.5757 1600.00
15.6409 1569.00
15.7061 1582.00
15.7713 1560.00
15.8365 1569.00
15.9017 1544.00
15.9669 1410.00
16.0321 1589.00
16.0973 1621.00
16.1625 1571.00
16.2277 1552.00
16.2929 1570.00
16.3581 1491.00
16.4233 1554.00
16.4885 1563.00
16.5537 1565.00
16.6189 1489.00
16.6841 1503.00
16.7493 1498.00
16.8145 1429.00
16.8797 1498.00
16.9449 1576.00
17.0101 1515.00
17.0753 1498.00
17.1405 1562.00
17.2057 1480.00
17.2709 1431.00
17.3361 1529.00
17.4013 1459.00
17.4665 1472.00
17.5317 1465.00
17.5969 1416.00
17.6621 1445.00
17.7273 1395.00
17.7925 1400.00
17.8577 1412.00
17.9229 1410.00
17.9881 1419.00
18.0533 1348.00
18.1185 1409.00
18.1837 1396.00
18.2489 1374.00
18.3141 1318.00
18.3793 1381.00
18.4445 1417.00
18.5097 1335.00
18.5749 1413.00
18.6401 1393.00
18.7052 1358.00
18.7704 1406.00
18.8356 1290.00
18.9008 1288.00
18.966 1330.00
19.0312 1387.00
19.0964 1375.00
19.1616 1375.00
19.2268 1395.00
19.292 1365.00
19.3572 1485.00
19.4224 1568.00
19.4876 1679.00
19.5528 1998.00
19.618 2735.00
19.6832 3898.00
19.7484 5681.00
19.8136 6509.00
19.8788 4803.00
19.944 2683.00
20.0092 1785.00
20.0744 1538.00
20.1396 1459.00
20.2048 1502.00
20.27 1421.00
20.3352 1566.00
20.4004 1595.00
20.4656 1632.00
20.5308 1822.00
20.596 2312.00
20.6612 3329.00
20.7264 5000.00
20.7916 6851.00
20.8568 7311.00
20.922 4639.00
20.9872 2513.00
21.0524 1674.00
21.1176 1468.00
21.1828 1401.00
21.248 1369.00
21.3132 1257.00
21.3784 1277.00
21.4436 1287.00
21.5088 1344.00
21.574 1293.00
21.6392 1223.00
21.7044 1214.00
21.7696 1260.00
21.8348 1168.00
21.9 1079.00
21.9652 1240.00
22.0304 1167.00
22.0956 1203.00
22.1608 1083.00
22.226 1143.00
22.2912 1160.00
22.3564 1162.00
22.4216 1176.00
22.4868 1134.00
22.552 1094.00
22.6172 1114.00
22.6824 1201.00
22.7476 1091.00
22.8128 1071.00
22.878 1138.00
22.9432 1122.00
23.0084 1146.00
23.0736 1192.00
23.1388 1135.00
23.204 1135.00
23.2692 1115.00
23.3344 1151.00
23.3996 1077.00
23.4647 1084.00
23.5299 1165.00
23.5951 1249.00
23.6603 1361.00
23.7255 1461.00
23.7907 1926.00
23.8559 2505.00
23.9211 3784.00
23.9863 4817.00
24.0515 4031.00
24.1167 2413.00
24.1819 1569.00
24.2471 1197.00
24.3123 1146.00
24.3775 1089.00
24.4427 1094.00
24.5079 1051.00
24.5731 1008.00
24.6383 1042.00
24.7035 976.00
24.7687 1029.00
24.8339 934.00
24.8991 973.00
24.9643 993.00
25.0295 1017.00
25.0947 943.00
25.1599 973.00
25.2251 925.00
25.2903 1041.00
25.3555 941.00
25.4207 905.00
25.4859 932.00
25.5511 972.00
25.6163 928.00
25.6815 961.00
25.7467 930.00
25.8119 921.00
25.8771 860.00
25.9423 949.00
26.0075 955.00
26.0727 930.00
26.1379 969.00
26.2031 946.00
26.2683 995.00
26.3335 1151.00
26.3987 1394.00
26.4639 1830.00
26.5291 2407.00
26.5943 2424.00
26.6595 1671.00
26.7247 1157.00
26.7899 980.00
26.8551 946.00
26.9203 981.00
26.9855 857.00
27.0507 887.00
27.1159 847.00
27.1811 875.00
27.2463 770.00
27.3115 890.00
27.3767 835.00
27.4419 798.00
27.5071 838.00
27.5723 875.00
27.6375 839.00
27.7027 883.00
27.7679 798.00
27.8331 881.00
27.8983 831.00
27.9635 883.00
28.0287 842.00
28.0939 838.00
28.1591 883.00
28.2243 811.00
28.2894 874.00
28.3546 833.00
28.4198 885.00
28.485 932.00
28.5502 903.00
28.6154 1023.00
28.6806 1298.00
28.7458 1813.00
28.811 2852.00
28.8762 4445.00
28.9414 4833.00
29.0066 3072.00
29.0718 1699.00
29.137 1126.00
29.2022 897.00
29.2674 888.00
29.3326 864.00
29.3978 802.00
29.463 826.00
29.5282 843.00
29.5934 811.00
29.6586 793.00
29.7238 773.00
29.789 754.00
29.8542 807.00
29.9194 793.00
29.9846 786.00
30.0498 784.00
30.115 777.00
30.1802 723.00
30.2454 769.00
30.3106 800.00
30.3758 735.00
30.441 757.00
30.5062 712.00
30.5714 746.00
30.6366 731.00
30.7018 779.00
30.767 749.00
30.8322 755.00
30.8974 768.00
30.9626 777.00
31.0278 796.00
31.093 826.00
31.1582 824.00
31.2234 849.00
31.2886 865.00
31.3538 931.00
31.419 1017.00
31.4842 1128.00
31.5494 1756.00
31.6146 3053.00
31.6798 5540.00
31.745 7262.00
31.8102 5988.00
31.8754 3467.00
31.9406 1636.00
32.0058 1168.00
32.071 1032.00
32.1362 979.00
32.2014 1035.00
32.2666 1098.00
32.3318 1274.00
32.397 1122.00
32.4622 958.00
32.5274 810.00
32.5926 701.00
32.6578 743.00
32.723 678.00
32.7882 695.00
32.8534 690.00
32.9186 719.00
32.9838 716.00
33.0489 734.00
33.1141 753.00
33.1793 701.00
33.2445 649.00
33.3097 713.00
33.3749 685.00
33.4401 682.00
33.5053 684.00
33.5705 783.00
33.6357 880.00
33.7009 1110.00
33.7661 1567.00
33.8313 2153.00
33.8965 1939.00
33.9617 1577.00
34.0269 1264.00
34.0921 1027.00
34.1573 869.00
34.2225 730.00
34.2877 710.00
34.3529 628.00
34.4181 646.00
34.4833 641.00
34.5485 631.00
34.6137 571.00
34.6789 672.00
34.7441 600.00
34.8093 640.00
34.8745 580.00
34.9397 585.00
35.0049 615.00
35.0701 640.00
35.1353 620.00
35.2005 619.00
35.2657 639.00
35.3309 651.00
35.3961 670.00
35.4613 631.00
35.5265 695.00
35.5917 745.00
35.6569 803.00
35.7221 898.00
35.7873 1344.00
35.8525 2032.00
35.9177 2612.00
35.9829 2350.00
36.0481 1624.00
36.1133 1051.00
36.1785 943.00
36.2437 879.00
36.3089 1072.00
36.3741 1548.00
36.4393 2376.00
36.5045 3367.00
36.5697 2948.00
36.6349 2141.00
36.7001 1248.00
36.7653 904.00
36.8305 754.00
36.8957 744.00
36.9609 677.00
37.0261 676.00
37.0913 630.00
37.1565 619.00
37.2217 567.00
37.2869 553.00
37.3521 571.00
37.4173 589.00
37.4825 537.00
37.5477 526.00
37.6129 582.00
37.6781 537.00
37.7433 585.00
37.8085 701.00
37.8736 853.00
37.9388 915.00
38.004 766.00
38.0692 629.00
38.1344 548.00
38.1996 536.00
38.2648 548.00
38.33 547.00
38.3952 605.00
38.4604 688.00
38.5256 709.00
38.5908 664.00
38.656 583.00
38.7212 525.00
38.7864 513.00
38.8516 568.00
38.9168 549.00
38.982 581.00
39.0472 519.00
39.1124 523.00
39.1776 505.00
39.2428 437.00
39.308 536.00
39.3732 487.00
39.4384 487.00
39.5036 494.00
39.5688 466.00
39.634 530.00
39.6992 473.00
39.7644 515.00
39.8296 485.00
39.8948 520.00
39.96 500.00
40.0252 507.00
40.0904 568.00
40.1556 679.00
40.2208 850.00
40.286 1002.00
40.3512 864.00
40.4164 727.00
40.4816 564.00
40.5468 540.00
40.612 495.00
40.6772 465.00
40.7424 482.00
40.8076 445.00
40.8728 432.00
40.938 467.00
41.0032 492.00
41.0684 485.00
41.1336 494.00
41.1988 506.00
41.264 444.00
41.3292 505.00
41.3944 452.00
41.4596 471.00
41.5248 484.00
41.59 513.00
41.6552 539.00
41.7204 586.00
41.7856 824.00
41.8508 1106.00
41.916 1098.00
41.9812 1012.00
42.0464 815.00
42.1116 634.00
42.1768 604.00
42.242 602.00
42.3072 766.00
42.3724 966.00
42.4376 1014.00
42.5028 963.00
42.568 828.00
42.6332 617.00
42.6983 591.00
42.7635 550.00
42.8287 590.00
42.8939 591.00
42.9591 587.00
43.0243 508.00
43.0895 484.00
43.1547 502.00
43.2199 482.00
43.2851 469.00
43.3503 500.00
43.4155 537.00
43.4807 464.00
43.5459 476.00
43.6111 432.00
43.6763 548.00
43.7415 490.00
43.8067 607.00
43.8719 823.00
43.9371 1314.00
44.0023 1596.00
44.0675 1325.00
44.1327 1104.00
44.1979 810.00
44.2631 584.00
44.3283 555.00
44.3935 528.00
44.4587 524.00
44.5239 506.00
44.5891 406.00
44.6543 462.00
44.7195 452.00
44.7847 446.00
44.8499 503.00
44.9151 557.00
44.9803 584.00
45.0455 629.00
45.1107 560.00
45.1759 527.00
45.2411 471.00
45.3063 467.00
45.3715 461.00
45.4367 523.00
45.5019 491.00
45.5671 553.00
45.6323 789.00
45.6975 1190.00
45.7627 1689.00
45.8279 1571.00
45.8931 1213.00
45.9583 911.00
46.0235 619.00
46.0887 469.00
46.1539 477.00
46.2191 463.00
46.2843 404.00
46.3495 413.00
46.4147 415.00
46.4799 399.00
46.5451 457.00
46.6103 486.00
46.6755 449.00
46.7407 454.00
46.8059 467.00
46.8711 494.00
46.9363 578.00
47.0015 645.00
47.0667 806.00
47.1319 1212.00
47.1971 2045.00
47.2623 2468.00
47.3275 2134.00
47.3927 1574.00
47.4579 1044.00
47.523 610.00
47.5882 605.00
47.6534 487.00
47.7186 480.00
47.7838 414.00
47.849 435.00
47.9142 390.00
47.9794 400.00
48.0446 403.00
48.1098 429.00
48.175 417.00
48.2402 414.00
48.3054 460.00
48.3706 506.00
48.4358 539.00
48.501 494.00
48.5662 513.00
48.6314 526.00
48.6966 557.00
48.7618 559.00
48.827 594.00
48.8922 635.00
48.9574 737.00
49.0226 1056.00
49.0878 1784.00
49.153 2488.00
49.2182 2352.00
49.2834 1907.00
49.3486 1214.00
49.4138 728.00
49.479 588.00
49.5442 509.00
49.6094 484.00
49.6746 412.00
49.7398 443.00
49.805 406.00
49.8702 442.00
49.9354 482.00
50.0006 535.00
50.0658 585.00
50.131 616.00
50.1962 617.00
50.2614 535.00
50.3266 465.00
50.3918 410.00
50.457 396.00
50.5222 406.00
50.5874 376.00
50.6526 372.00
50.7178 388.00
50.783 442.00
50.8482 385.00
50.9134 393.00
50.9786 387.00
51.0438 406.00
51.109 390.00
51.1742 398.00
51.2394 450.00
51.3046 438.00
51.3698 441.00
51.435 505.00
51.5002 501.00
51.5654 612.00
51.6306 939.00
51.6958 1488.00
51.761 1708.00
51.8262 1449.00
51.8914 1250.00
51.9566 1016.00
52.0218 1013.00
52.087 1614.00
52.1522 2382.00
52.2174 2293.00
52.2826 1813.00
52.3477 1478.00
52.4129 933.00
52.4781 625.00
52.5433 495.00
52.6085 451.00
52.6737 474.00
52.7389 390.00
52.8041 360.00
52.8693 436.00
52.9345 480.00
52.9997 574.00
53.0649 540.00
53.1301 535.00
53.1953 419.00
53.2605 362.00
53.3257 419.00
53.3909 352.00
53.4561 380.00
53.5213 368.00
53.5865 342.00
53.6517 368.00
53.7169 350.00
53.7821 347.00
53.8473 345.00
53.9125 337.00
53.9777 302.00
54.0429 332.00
54.1081 349.00
54.1733 365.00
54.2385 364.00
54.3037 389.00
54.3689 354.00
54.4341 395.00
54.4993 409.00
54.5645 417.00
54.6297 503.00
54.6949 643.00
54.7601 622.00
54.8253 589.00
54.8905 507.00
54.9557 452.00
55.0209 381.00
55.0861 403.00
55.1513 404.00
55.2165 422.00
55.2817 455.00
55.3469 504.00
55.4121 777.00
55.4773 988.00
55.5425 891.00
55.6077 860.00
55.6729 721.00
55.7381 547.00
55.8033 427.00
55.8685 437.00
55.9337 432.00
55.9989 388.00
56.0641 389.00
56.1293 372.00
56.1945 373.00
56.2597 427.00
56.3249 411.00
56.3901 458.00
56.4553 443.00
56.5205 487.00
56.5857 590.00
56.6509 833.00
56.7161 1165.00
56.7813 1387.00
56.8465 1378.00
56.9117 1235.00
56.9769 1153.00
57.042 1084.00
57.1073 1316.00
57.1724 1748.00
57.2376 1971.00
57.3028 1586.00
57.368 1345.00
57.4332 1019.00
57.4984 668.00
57.5636 551.00
57.6288 497.00
57.694 478.00
57.7592 521.00
57.8244 504.00
57.8896 463.00
57.9548 445.00
58.02 398.00
58.0852 416.00
58.1504 420.00
58.2156 425.00
58.2808 408.00
58.346 408.00
58.4112 439.00
58.4764 452.00
58.5416 518.00
58.6068 736.00
58.672 800.00
58.7372 837.00
58.8024 714.00
58.8676 698.00
58.9328 478.00
58.998 471.00
59.0632 419.00
59.1284 402.00
59.1936 355.00
59.2588 354.00
59.324 322.00
59.3892 301.00
59.4544 328.00
59.5196 360.00
59.5848 341.00
59.65 328.00
59.7152 358.00
59.7804 336.00
59.8456 452.00
59.9108 574.00
59.976 578.00
60.0412 537.00
60.1064 500.00
60.1716 409.00
60.2368 379.00
60.302 342.00
60.3672 353.00
60.4324 328.00
60.4976 361.00
60.5628 310.00
60.628 349.00
60.6932 330.00
60.7584 375.00
60.8236 385.00
60.8888 419.00
60.954 458.00
61.0192 620.00
61.0844 974.00
61.1496 1540.00
61.2148 1488.00
61.28 1130.00
61.3452 1044.00
61.4104 813.00
61.4756 562.00
61.5408 496.00
61.606 416.00
61.6712 409.00
61.7364 469.00
61.8016 581.00
61.8667 635.00
61.932 588.00
61.9971 628.00
62.0623 524.00
62.1275 533.00
62.1927 548.00
62.2579 512.00
62.3231 496.00
62.3883 509.00
62.4535 461.00
62.5187 524.00
62.5839 603.00
62.6491 811.00
62.7143 1279.00
62.7795 1641.00
62.8447 1613.00
62.9099 1556.00
62.9751 1503.00
63.0403 1295.00
63.1055 1098.00
63.1707 832.00
63.2359 699.00
63.3011 561.00
63.3663 450.00
63.4315 440.00
63.4967 411.00
63.5619 395.00
63.6271 364.00
63.6923 365.00
63.7575 309.00
63.8227 345.00
63.8879 339.00
63.9531 351.00
64.0183 330.00
64.0835 414.00
64.1487 476.00
64.2139 476.00
64.2791 465.00
64.3443 462.00
64.4095 456.00
64.4747 464.00
64.5399 411.00
64.6051 457.00
64.6703 594.00
64.7355 560.00
64.8007 536.00
64.8659 517.00
64.9311 441.00
64.9963 402.00
65.0615 409.00
65.1267 470.00
65.1919 493.00
65.2571 623.00
65.3223 873.00
65.3875 1094.00
65.4527 972.00
65.5179 851.00
65.5831 842.00
65.6483 829.00
65.7135 878.00
65.7787 1009.00
65.8439 989.00
65.9091 1045.00
65.9743 977.00
66.0395 797.00
66.1047 675.00
66.1699 552.00
66.2351 432.00
66.3003 411.00
66.3655 345.00
66.4307 343.00
66.4959 344.00
66.561 311.00
66.6263 309.00
66.6915 359.00
66.7566 350.00
66.8218 351.00
66.887 388.00
66.9522 437.00
67.0174 574.00
67.0826 814.00
67.1478 1009.00
67.213 885.00
67.2782 776.00
67.3434 704.00
67.4086 585.00
67.4738 457.00
67.539 434.00
67.6042 379.00
67.6694 360.00
67.7346 389.00
67.7998 353.00
67.865 364.00
67.9302 322.00
67.9954 301.00
68.0606 313.00
68.1258 317.00
68.191 271.00
68.2562 293.00
68.3214 268.00
68.3866 274.00
68.4518 281.00
68.517 263.00
68.5822 245.00
68.6474 299.00
68.7126 263.00
68.7778 285.00
68.843 331.00
68.9082 308.00
68.9734 301.00
69.0386 312.00
69.1038 318.00
69.169 402.00
69.2342 426.00
69.2994 522.00
69.3646 785.00
69.4298 1068.00
69.495 980.00
69.5602 842.00
69.6254 766.00
69.6906 682.00
69.7558 459.00
69.821 326.00
69.8862 364.00
69.9514 341.00
70.0166 319.00
70.0818 311.00
70.147 309.00
70.2122 269.00
70.2774 306.00
70.3426 290.00
70.4078 302.00
70.473 259.00
70.5382 279.00
70.6034 315.00
70.6686 279.00
70.7338 346.00
70.799 339.00
70.8642 380.00
70.9294 473.00
70.9946 444.00
71.0598 458.00
71.125 437.00
71.1902 508.00
71.2554 527.00
71.3205 472.00
71.3858 397.00
71.451 404.00
71.5162 391.00
71.5813 367.00
71.6465 361.00
71.7117 354.00
71.7769 341.00
71.8421 317.00
71.9073 357.00
71.9725 299.00
72.0377 286.00
72.1029 317.00
72.1681 274.00
72.2333 276.00
72.2985 315.00
72.3637 288.00
72.4289 298.00
72.4941 297.00
72.5593 280.00
72.6245 272.00
72.6897 290.00
72.7549 268.00
72.8201 287.00
72.8853 279.00
72.9505 297.00
73.0157 293.00
73.0809 334.00
73.1461 352.00
73.2113 401.00
73.2765 547.00
73.3417 655.00
73.4069 771.00
73.4721 725.00
73.5373 615.00
73.6025 548.00
73.6677 515.00
73.7329 404.00
73.7981 355.00
73.8633 299.00
73.9285 291.00
73.9937 312.00
74.0589 304.00
74.1241 289.00
74.1893 307.00
74.2545 318.00
74.3197 274.00
74.3849 281.00
74.4501 280.00
74.5153 315.00
74.5805 320.00
74.6457 340.00
74.7109 309.00
74.7761 310.00
74.8413 346.00
74.9065 367.00
74.9717 462.00
75.0369 593.00
75.1021 716.00
75.1673 587.00
75.2325 533.00
75.2977 516.00
75.3629 482.00
75.4281 410.00
75.4933 338.00
75.5585 385.00
75.6237 393.00
75.6889 424.00
75.7541 384.00
75.8193 353.00
75.8845 376.00
75.9497 367.00
76.0149 443.00
76.0801 388.00
76.1452 436.00
76.2104 414.00
76.2756 390.00
76.3409 376.00
76.406 359.00
76.4712 323.00
76.5364 289.00
76.6016 278.00
76.6668 260.00
76.732 245.00
76.7972 265.00
76.8624 261.00
76.9276 247.00
76.9928 276.00
77.058 294.00
77.1232 289.00
77.1884 321.00
77.2536 341.00
77.3188 354.00
77.384 389.00
77.4492 411.00
77.5144 481.00
77.5796 508.00
77.6448 528.00
77.71 565.00
77.7752 532.00
77.8404 546.00
77.9056 489.00
77.9708 433.00
78.036 426.00
78.1012 334.00
78.1664 308.00
78.2316 328.00
78.2968 320.00
78.362 247.00
78.4272 307.00
78.4924 279.00
78.5576 346.00
78.6228 428.00
78.688 491.00
78.7532 448.00
78.8184 434.00
78.8836 456.00
78.9488 523.00
79.014 385.00
79.0792 364.00
79.1444 362.00
79.2096 317.00
79.2748 323.00
79.34 305.00
79.4052 340.00
79.4704 322.00
79.5356 352.00
79.6008 339.00
79.666 319.00
79.7312 320.00
79.7964 337.00
79.8616 306.00
79.9268 331.00
79.992 302.00
80.0572 361.00
80.1224 313.00
80.1876 299.00
80.2528 335.00
80.318 312.00
80.3832 293.00
80.4484 282.00
80.5136 264.00
80.5788 285.00
80.644 285.00
80.7092 291.00
80.7744 303.00
80.8396 310.00
80.9048 371.00
80.9699 450.00
81.0351 538.00
81.1003 647.00
81.1655 727.00
81.2307 569.00
81.2959 539.00
81.3611 615.00
81.4263 637.00
81.4915 620.00
81.5567 559.00
81.6219 466.00
81.6871 460.00
81.7523 384.00
81.8175 375.00
81.8827 318.00
81.9479 305.00
82.0131 273.00
82.0783 283.00
82.1435 263.00
82.2087 286.00
82.2739 336.00
82.3391 300.00
82.4043 330.00
82.4695 391.00
82.5347 421.00
82.5999 493.00
82.6651 586.00
82.7303 748.00
82.7955 758.00
82.8607 591.00
82.9259 563.00
82.9911 539.00
83.0563 490.00
83.1215 388.00
83.1867 322.00
83.2519 348.00
83.3171 307.00
83.3823 289.00
83.4475 293.00
83.5127 310.00
83.5779 365.00
83.6431 376.00
83.7083 413.00
83.7735 315.00
83.8387 317.00
83.9039 339.00
83.9691 319.00
84.0343 341.00
84.0995 293.00
84.1647 286.00
84.2299 265.00
84.2951 257.00
84.3603 234.00
84.4255 215.00
84.4907 259.00
84.5559 277.00
84.6211 249.00
84.6863 270.00
84.7515 274.00
84.8167 297.00
84.8819 352.00
84.9471 336.00
85.0123 295.00
85.0775 321.00
85.1427 341.00
85.2079 288.00
85.2731 256.00
85.3383 260.00
85.4035 242.00
85.4687 258.00
85.5339 246.00
85.5991 258.00
85.6643 320.00
85.7295 293.00
85.7946 304.00
85.8598 306.00
85.925 261.00
85.9903 308.00
86.0554 336.00
86.1206 346.00
86.1858 449.00
86.251 535.00
86.3162 626.00
86.3814 589.00
86.4466 571.00
86.5118 462.00
86.577 464.00
86.6422 457.00
86.7074 395.00
86.7726 334.00
86.8378 288.00
86.903 319.00
86.9682 272.00
87.0334 310.00
87.0986 349.00
87.1638 378.00
87.229 418.00
87.2942 434.00
87.3594 435.00
87.4246 545.00
87.4898 681.00
87.555 729.00
87.6202 713.00
87.6854 704.00
87.7506 648.00
87.8158 608.00
87.881 560.00
87.9462 423.00
88.0114 431.00
88.0766 399.00
88.1418 322.00
88.207 298.00
88.2722 315.00
88.3374 299.00
88.4026 277.00
88.4678 307.00
88.533 351.00
88.5982 345.00
88.6634 390.00
88.7286 385.00
88.7938 329.00
88.859 346.00
88.9242 334.00
88.9894 308.00
89.0546 306.00
89.1198 287.00
89.185 287.00
89.2502 285.00
89.3154 246.00
89.3806 281.00
89.4458 286.00
89.511 267.00
89.5762 288.00
89.6414 346.00
89.7066 407.00
89.7718 417.00
89.837 367.00
89.9022 322.00
89.9674 313.00
90.0326 376.00
90.0978 344.00
90.163 376.00
90.2282 353.00
90.2934 437.00
90.3586 388.00
90.4238 360.00
90.489 354.00
90.5542 408.00
90.6193 329.00
90.6845 367.00
90.7497 444.00
90.8149 489.00
90.8801 517.00
90.9453 466.00
91.0105 427.00
91.0757 389.00
91.1409 412.00
91.2061 426.00
91.2713 385.00
91.3365 384.00
91.4017 334.00
91.4669 310.00
91.5321 307.00
91.5973 293.00
91.6625 293.00
91.7277 285.00
91.7929 299.00
91.8581 280.00
91.9233 289.00
91.9885 279.00
92.0537 294.00
92.1189 314.00
92.1841 315.00
92.2493 409.00
92.3145 486.00
92.3797 579.00
92.4449 633.00
92.5101 556.00
92.5753 497.00
92.6405 516.00
92.7057 498.00
92.7709 540.00
92.8361 460.00
92.9013 393.00
92.9665 323.00
93.0317 346.00
93.0969 324.00
93.1621 333.00
93.2273 354.00
93.2925 353.00
93.3577 320.00
93.4229 302.00
93.4881 300.00
93.5533 293.00
93.6185 280.00
93.6837 298.00
93.7489 282.00
93.8141 291.00
93.8793 279.00
93.9445 393.00
94.0097 436.00
94.0749 482.00
94.1401 432.00
94.2053 398.00
94.2705 373.00
94.3357 431.00
94.4009 381.00
94.4661 370.00
94.5313 338.00
94.5965 322.00
94.6617 277.00
94.7269 294.00
94.7921 334.00
94.8573 320.00
94.9225 317.00
94.9877 307.00
95.0529 444.00
95.1181 444.00
95.1833 422.00
95.2485 414.00
95.3137 382.00
95.3789 394.00
95.444 382.00
95.5092 351.00
95.5744 354.00
95.6396 330.00
95.7048 344.00
95.77 326.00
95.8352 294.00
95.9004 333.00
95.9656 367.00
96.0308 415.00
96.096 381.00
96.1612 382.00
96.2264 416.00
96.2916 402.00
96.3568 389.00
96.422 406.00
96.4872 332.00
96.5524 323.00
96.6176 315.00
96.6828 302.00
96.748 313.00
96.8132 247.00
96.8784 256.00
96.9436 239.00
97.0088 235.00
97.074 278.00
97.1392 270.00
97.2044 323.00
97.2696 278.00
97.3348 308.00
97.4 323.00
97.4652 385.00
97.5304 352.00
97.5956 385.00
97.6608 451.00
97.726 531.00
97.7912 567.00
97.8564 696.00
97.9216 563.00
97.9868 489.00
98.052 437.00
98.1172 459.00
98.1824 467.00
98.2476 391.00
98.3128 369.00
98.378 331.00
98.4432 342.00
98.5084 249.00
98.5736 299.00
98.6388 285.00
98.704 307.00
98.7692 267.00
98.8344 282.00
98.8996 265.00
98.9648 235.00
99.03 263.00
99.0952 256.00
99.1604 273.00
99.2256 244.00
99.2908 236.00
99.356 251.00
99.4212 235.00
99.4864 267.00
99.5516 283.00
99.6168 306.00
99.682 316.00
99.7472 325.00
99.8124 377.00
99.8776 485.00
99.9428 521.00
100.008 570.00
100.073 605.00
100.095 550.00