File: data/xrd_creation/results/NSC_98.xy
9.903433 2638.00
9.968632 2691.00
10.0338 2714.00
10.099 2705.00
10.1642 2640.00
10.2294 2644.00
10.2946 2627.00
10.3598 2504.00
10.425 2484.00
10.4902 2544.00
10.5554 2539.00
10.6206 2421.00
10.6858 2410.00
10.751 2514.00
10.8162 2333.00
10.8814 2471.00
10.9466 2399.00
11.0118 2435.00
11.077 2437.00
11.1422 2342.00
11.2074 2238.00
11.2726 2369.00
11.3378 2368.00
11.403 2212.00
11.4682 2277.00
11.5334 2119.00
11.5986 2180.00
11.6638 2084.00
11.729 2222.00
11.7942 2185.00
11.8594 2185.00
11.9246 2041.00
11.9898 2104.00
12.055 2072.00
12.1202 2058.00
12.1854 2047.00
12.2506 2085.00
12.3158 2056.00
12.381 1972.00
12.4462 2027.00
12.5114 1953.00
12.5766 1981.00
12.6418 2022.00
12.707 1903.00
12.7722 1827.00
12.8374 1922.00
12.9026 1922.00
12.9678 1931.00
13.033 1930.00
13.0982 1859.00
13.1634 1855.00
13.2286 1790.00
13.2938 1836.00
13.359 1744.00
13.4242 1797.00
13.4894 1672.00
13.5546 1803.00
13.6198 1765.00
13.685 1740.00
13.7502 1687.00
13.8154 1787.00
13.8805 1748.00
13.9457 1729.00
14.0109 1789.00
14.0761 1863.00
14.1413 1907.00
14.2065 1980.00
14.2717 2177.00
14.3369 2309.00
14.4021 2308.00
14.4673 2347.00
14.5325 2345.00
14.5977 2130.00
14.6629 1995.00
14.7281 1708.00
14.7933 1650.00
14.8585 1637.00
14.9237 1635.00
14.9889 1552.00
15.0541 1598.00
15.1193 1581.00
15.1845 1629.00
15.2497 1644.00
15.3149 1653.00
15.3801 1642.00
15.4453 1629.00
15.5105 1530.00
15.5757 1551.00
15.6409 1582.00
15.7061 1529.00
15.7713 1560.00
15.8365 1513.00
15.9017 1527.00
15.9669 1506.00
16.0321 1542.00
16.0973 1545.00
16.1625 1474.00
16.2277 1562.00
16.2929 1470.00
16.3581 1559.00
16.4233 1507.00
16.4885 1511.00
16.5537 1467.00
16.6189 1572.00
16.6841 1540.00
16.7493 1515.00
16.8145 1433.00
16.8797 1498.00
16.9449 1515.00
17.0101 1551.00
17.0753 1458.00
17.1405 1520.00
17.2057 1546.00
17.2709 1485.00
17.3361 1476.00
17.4013 1454.00
17.4665 1454.00
17.5317 1487.00
17.5969 1423.00
17.6621 1433.00
17.7273 1424.00
17.7925 1431.00
17.8577 1452.00
17.9229 1385.00
17.9881 1395.00
18.0533 1313.00
18.1185 1330.00
18.1837 1412.00
18.2489 1399.00
18.3141 1366.00
18.3793 1423.00
18.4445 1321.00
18.5097 1300.00
18.5749 1436.00
18.6401 1339.00
18.7052 1322.00
18.7704 1388.00
18.8356 1304.00
18.9008 1357.00
18.966 1365.00
19.0312 1409.00
19.0964 1379.00
19.1616 1462.00
19.2268 1506.00
19.292 1568.00
19.3572 1605.00
19.4224 1620.00
19.4876 1692.00
19.5528 1848.00
19.618 2077.00
19.6832 2507.00
19.7484 2931.00
19.8136 3542.00
19.8788 3881.00
19.944 4231.00
20.0092 4251.00
20.0744 3918.00
20.1396 2926.00
20.2048 1930.00
20.27 1515.00
20.3352 1562.00
20.4004 1543.00
20.4656 1436.00
20.5308 1514.00
20.596 1766.00
20.6612 2242.00
20.7264 2868.00
20.7916 3444.00
20.8568 4093.00
20.922 4523.00
20.9872 4842.00
21.0524 4759.00
21.1176 4205.00
21.1828 2864.00
21.248 1876.00
21.3132 1512.00
21.3784 1376.00
21.4436 1456.00
21.5088 1330.00
21.574 1367.00
21.6392 1361.00
21.7044 1302.00
21.7696 1306.00
21.8348 1433.00
21.9 1367.00
21.9652 1303.00
22.0304 1322.00
22.0956 1273.00
22.1608 1333.00
22.226 1440.00
22.2912 1549.00
22.3564 1622.00
22.4216 1644.00
22.4868 1708.00
22.552 1663.00
22.6172 1612.00
22.6824 1417.00
22.7476 1218.00
22.8128 1250.00
22.878 1173.00
22.9432 1171.00
23.0084 1192.00
23.0736 1162.00
23.1388 1231.00
23.204 1133.00
23.2692 1146.00
23.3344 1084.00
23.3996 1196.00
23.4647 1180.00
23.5299 1201.00
23.5951 1216.00
23.6603 1281.00
23.7255 1279.00
23.7907 1393.00
23.8559 1712.00
23.9211 2062.00
23.9863 2371.00
24.0515 2759.00
24.1167 3148.00
24.1819 3343.00
24.2471 3188.00
24.3123 2600.00
24.3775 1791.00
24.4427 1274.00
24.5079 1140.00
24.5731 1115.00
24.6383 1123.00
24.7035 1023.00
24.7687 1058.00
24.8339 1130.00
24.8991 1086.00
24.9643 1121.00
25.0295 1158.00
25.0947 1198.00
25.1599 1145.00
25.2251 1167.00
25.2903 1133.00
25.3555 1018.00
25.4207 1030.00
25.4859 1017.00
25.5511 982.00
25.6163 1035.00
25.6815 971.00
25.7467 991.00
25.8119 1027.00
25.8771 923.00
25.9423 1004.00
26.0075 920.00
26.0727 928.00
26.1379 941.00
26.2031 917.00
26.2683 963.00
26.3335 938.00
26.3987 974.00
26.4639 936.00
26.5291 1016.00
26.5943 1038.00
26.6595 954.00
26.7247 952.00
26.7899 956.00
26.8551 965.00
26.9203 953.00
26.9855 914.00
27.0507 920.00
27.1159 881.00
27.1811 897.00
27.2463 965.00
27.3115 936.00
27.3767 956.00
27.4419 963.00
27.5071 948.00
27.5723 979.00
27.6375 1022.00
27.7027 945.00
27.7679 977.00
27.8331 882.00
27.8983 862.00
27.9635 838.00
28.0287 829.00
28.0939 894.00
28.1591 940.00
28.2243 873.00
28.2894 901.00
28.3546 1010.00
28.4198 986.00
28.485 928.00
28.5502 869.00
28.6154 962.00
28.6806 1061.00
28.7458 1172.00
28.811 1389.00
28.8762 1812.00
28.9414 2309.00
29.0066 2831.00
29.0718 3497.00
29.137 3628.00
29.2022 3195.00
29.2674 2075.00
29.3326 1323.00
29.3978 1015.00
29.463 1015.00
29.5282 919.00
29.5934 919.00
29.6586 850.00
29.7238 826.00
29.789 857.00
29.8542 947.00
29.9194 929.00
29.9846 890.00
30.0498 839.00
30.115 821.00
30.1802 764.00
30.2454 783.00
30.3106 809.00
30.3758 787.00
30.441 816.00
30.5062 779.00
30.5714 808.00
30.6366 860.00
30.7018 867.00
30.767 795.00
30.8322 846.00
30.8974 864.00
30.9626 825.00
31.0278 860.00
31.093 845.00
31.1582 874.00
31.2234 912.00
31.2886 828.00
31.3538 881.00
31.419 871.00
31.4842 1016.00
31.5494 1126.00
31.6146 1383.00
31.6798 1819.00
31.745 2455.00
31.8102 3549.00
31.8754 4817.00
31.9406 5455.00
32.0058 5611.00
32.071 4164.00
32.1362 2498.00
32.2014 1574.00
32.2666 1219.00
32.3318 1048.00
32.397 1058.00
32.4622 1162.00
32.5274 1160.00
32.5926 1100.00
32.6578 1031.00
32.723 886.00
32.7882 787.00
32.8534 752.00
32.9186 773.00
32.9838 702.00
33.0489 752.00
33.1141 739.00
33.1793 755.00
33.2445 788.00
33.3097 678.00
33.3749 756.00
33.4401 721.00
33.5053 734.00
33.5705 672.00
33.6357 752.00
33.7009 723.00
33.7661 717.00
33.8313 747.00
33.8965 745.00
33.9617 774.00
34.0269 733.00
34.0921 864.00
34.1573 866.00
34.2225 851.00
34.2877 959.00
34.3529 896.00
34.4181 803.00
34.4833 710.00
34.5485 653.00
34.6137 696.00
34.6789 657.00
34.7441 675.00
34.8093 638.00
34.8745 611.00
34.9397 654.00
35.0049 646.00
35.0701 680.00
35.1353 644.00
35.2005 700.00
35.2657 683.00
35.3309 677.00
35.3961 670.00
35.4613 665.00
35.5265 697.00
35.5917 744.00
35.6569 793.00
35.7221 761.00
35.7873 898.00
35.8525 1013.00
35.9177 1224.00
35.9829 1514.00
36.0481 1991.00
36.1133 2180.00
36.1785 2236.00
36.2437 1719.00
36.3089 1369.00
36.3741 1089.00
36.4393 1144.00
36.5045 1294.00
36.5697 1734.00
36.6349 2204.00
36.7001 2682.00
36.7653 2693.00
36.8305 2316.00
36.8957 1552.00
36.9609 1103.00
37.0261 830.00
37.0913 757.00
37.1565 716.00
37.2217 667.00
37.2869 729.00
37.3521 704.00
37.4173 786.00
37.4825 819.00
37.5477 943.00
37.6129 1051.00
37.6781 1067.00
37.7433 953.00
37.8085 860.00
37.8736 783.00
37.9388 682.00
38.004 690.00
38.0692 632.00
38.1344 589.00
38.1996 601.00
38.2648 612.00
38.33 606.00
38.3952 580.00
38.4604 643.00
38.5256 678.00
38.5908 703.00
38.656 734.00
38.7212 719.00
38.7864 740.00
38.8516 712.00
38.9168 649.00
38.982 657.00
39.0472 588.00
39.1124 608.00
39.1776 589.00
39.2428 665.00
39.308 626.00
39.3732 668.00
39.4384 656.00
39.5036 673.00
39.5688 626.00
39.634 611.00
39.6992 576.00
39.7644 575.00
39.8296 534.00
39.8948 541.00
39.96 550.00
40.0252 586.00
40.0904 539.00
40.1556 543.00
40.2208 596.00
40.286 623.00
40.3512 743.00
40.4164 845.00
40.4816 909.00
40.5468 954.00
40.612 789.00
40.6772 669.00
40.7424 558.00
40.8076 596.00
40.8728 558.00
40.938 588.00
41.0032 595.00
41.0684 606.00
41.1336 602.00
41.1988 565.00
41.264 560.00
41.3292 527.00
41.3944 535.00
41.4596 515.00
41.5248 558.00
41.59 506.00
41.6552 552.00
41.7204 582.00
41.7856 577.00
41.8508 641.00
41.916 756.00
41.9812 879.00
42.0464 1062.00
42.1116 1105.00
42.1768 999.00
42.242 832.00
42.3072 815.00
42.3724 682.00
42.4376 734.00
42.5028 866.00
42.568 956.00
42.6332 1025.00
42.6983 1053.00
42.7635 911.00
42.8287 764.00
42.8939 632.00
42.9591 613.00
43.0243 648.00
43.0895 605.00
43.1547 657.00
43.2199 544.00
43.2851 533.00
43.3503 562.00
43.4155 564.00
43.4807 602.00
43.5459 568.00
43.6111 588.00
43.6763 559.00
43.7415 567.00
43.8067 538.00
43.8719 576.00
43.9371 605.00
44.0023 732.00
44.0675 928.00
44.1327 1208.00
44.1979 1400.00
44.2631 1416.00
44.3283 1161.00
44.3935 951.00
44.4587 777.00
44.5239 627.00
44.5891 556.00
44.6543 571.00
44.7195 543.00
44.7847 540.00
44.8499 502.00
44.9151 556.00
44.9803 545.00
45.0455 607.00
45.1107 598.00
45.1759 621.00
45.2411 605.00
45.3063 648.00
45.3715 625.00
45.4367 517.00
45.5019 583.00
45.5671 521.00
45.6323 553.00
45.6975 668.00
45.7627 716.00
45.8279 919.00
45.8931 1221.00
45.9583 1468.00
46.0235 1578.00
46.0887 1291.00
46.1539 998.00
46.2191 772.00
46.2843 603.00
46.3495 538.00
46.4147 543.00
46.4799 530.00
46.5451 511.00
46.6103 516.00
46.6755 499.00
46.7407 469.00
46.8059 493.00
46.8711 492.00
46.9363 517.00
47.0015 527.00
47.0667 596.00
47.1319 661.00
47.1971 736.00
47.2623 1001.00
47.3275 1308.00
47.3927 1786.00
47.4579 2153.00
47.523 2032.00
47.5882 1619.00
47.6534 1187.00
47.7186 836.00
47.7838 629.00
47.849 570.00
47.9142 521.00
47.9794 578.00
48.0446 500.00
48.1098 530.00
48.175 500.00
48.2402 487.00
48.3054 470.00
48.3706 469.00
48.4358 513.00
48.501 513.00
48.5662 542.00
48.6314 575.00
48.6966 663.00
48.7618 615.00
48.827 580.00
48.8922 602.00
48.9574 564.00
49.0226 602.00
49.0878 705.00
49.153 865.00
49.2182 1224.00
49.2834 1736.00
49.3486 2170.00
49.4138 2068.00
49.479 1850.00
49.5442 1374.00
49.6094 1011.00
49.6746 719.00
49.7398 616.00
49.805 576.00
49.8702 522.00
49.9354 578.00
50.0006 580.00
50.0658 612.00
50.131 664.00
50.1962 674.00
50.2614 733.00
50.3266 741.00
50.3918 718.00
50.457 628.00
50.5222 527.00
50.5874 503.00
50.6526 468.00
50.7178 451.00
50.783 414.00
50.8482 479.00
50.9134 488.00
50.9786 444.00
51.0438 434.00
51.109 435.00
51.1742 495.00
51.2394 445.00
51.3046 491.00
51.3698 510.00
51.435 603.00
51.5002 601.00
51.5654 648.00
51.6306 650.00
51.6958 580.00
51.761 535.00
51.8262 553.00
51.8914 524.00
51.9566 586.00
52.0218 571.00
52.087 716.00
52.1522 739.00
52.2174 1092.00
52.2826 1464.00
52.3477 2023.00
52.4129 2223.00
52.4781 2025.00
52.5433 1559.00
52.6085 1084.00
52.6737 824.00
52.7389 637.00
52.8041 524.00
52.8693 546.00
52.9345 571.00
52.9997 463.00
53.0649 521.00
53.1301 551.00
53.1953 573.00
53.2605 565.00
53.3257 546.00
53.3909 513.00
53.4561 485.00
53.5213 411.00
53.5865 446.00
53.6517 377.00
53.7169 420.00
53.7821 426.00
53.8473 435.00
53.9125 394.00
53.9777 432.00
54.0429 433.00
54.1081 415.00
54.1733 400.00
54.2385 410.00
54.3037 419.00
54.3689 468.00
54.4341 436.00
54.4993 415.00
54.5645 473.00
54.6297 460.00
54.6949 442.00
54.7601 467.00
54.8253 411.00
54.8905 436.00
54.9557 496.00
55.0209 446.00
55.0861 478.00
55.1513 488.00
55.2165 465.00
55.2817 459.00
55.3469 453.00
55.4121 489.00
55.4773 550.00
55.5425 588.00
55.6077 763.00
55.6729 912.00
55.7381 910.00
55.8033 878.00
55.8685 714.00
55.9337 662.00
55.9989 545.00
56.0641 506.00
56.1293 467.00
56.1945 501.00
56.2597 417.00
56.3249 482.00
56.3901 481.00
56.4553 479.00
56.5205 500.00
56.5857 541.00
56.6509 594.00
56.7161 688.00
56.7813 858.00
56.8465 1003.00
56.9117 1238.00
56.9769 1473.00
57.042 1415.00
57.1073 1359.00
57.1724 1231.00
57.2376 1361.00
57.3028 1436.00
57.368 1681.00
57.4332 1880.00
57.4984 1770.00
57.5636 1418.00
57.6288 1109.00
57.694 926.00
57.7592 699.00
57.8244 601.00
57.8896 530.00
57.9548 491.00
58.02 478.00
58.0852 446.00
58.1504 440.00
58.2156 422.00
58.2808 456.00
58.346 497.00
58.4112 491.00
58.4764 462.00
58.5416 519.00
58.6068 488.00
58.672 562.00
58.7372 608.00
58.8024 735.00
58.8676 779.00
58.9328 843.00
58.998 768.00
59.0632 720.00
59.1284 629.00
59.1936 604.00
59.2588 490.00
59.324 496.00
59.3892 453.00
59.4544 398.00
59.5196 419.00
59.5848 417.00
59.65 362.00
59.7152 368.00
59.7804 390.00
59.8456 422.00
59.9108 382.00
59.976 475.00
60.0412 567.00
60.1064 612.00
60.1716 640.00
60.2368 577.00
60.302 573.00
60.3672 542.00
60.4324 548.00
60.4976 560.00
60.5628 550.00
60.628 556.00
60.6932 588.00
60.7584 610.00
60.8236 571.00
60.8888 557.00
60.954 525.00
61.0192 544.00
61.0844 512.00
61.1496 577.00
61.2148 760.00
61.28 1076.00
61.3452 1292.00
61.4104 1421.00
61.4756 1261.00
61.5408 1061.00
61.606 910.00
61.6712 666.00
61.7364 583.00
61.8016 497.00
61.8667 488.00
61.932 454.00
61.9971 451.00
62.0623 470.00
62.1275 489.00
62.1927 498.00
62.2579 490.00
62.3231 522.00
62.3883 548.00
62.4535 612.00
62.5187 600.00
62.5839 549.00
62.6491 574.00
62.7143 582.00
62.7795 723.00
62.8447 993.00
62.9099 1222.00
62.9751 1500.00
63.0403 1693.00
63.1055 1618.00
63.1707 1515.00
63.2359 1462.00
63.3011 1094.00
63.3663 975.00
63.4315 785.00
63.4967 626.00
63.5619 565.00
63.6271 496.00
63.6923 427.00
63.7575 439.00
63.8227 422.00
63.8879 422.00
63.9531 410.00
64.0183 405.00
64.0835 415.00
64.1487 437.00
64.2139 422.00
64.2791 468.00
64.3443 477.00
64.4095 546.00
64.4747 482.00
64.5399 486.00
64.6051 530.00
64.6703 448.00
64.7355 414.00
64.8007 443.00
64.8659 374.00
64.9311 414.00
64.9963 421.00
65.0615 413.00
65.1267 423.00
65.1919 465.00
65.2571 455.00
65.3223 546.00
65.3875 624.00
65.4527 697.00
65.5179 853.00
65.5831 1048.00
65.6483 1008.00
65.7135 1017.00
65.7787 946.00
65.8439 902.00
65.9091 859.00
65.9743 931.00
66.0395 877.00
66.1047 840.00
66.1699 753.00
66.2351 701.00
66.3003 618.00
66.3655 553.00
66.4307 481.00
66.4959 475.00
66.561 468.00
66.6263 495.00
66.6915 467.00
66.7566 452.00
66.8218 432.00
66.887 404.00
66.9522 406.00
67.0174 435.00
67.0826 512.00
67.1478 560.00
67.213 663.00
67.2782 827.00
67.3434 936.00
67.4086 962.00
67.4738 834.00
67.539 733.00
67.6042 671.00
67.6694 565.00
67.7346 552.00
67.7998 464.00
67.865 435.00
67.9302 437.00
67.9954 434.00
68.0606 441.00
68.1258 409.00
68.191 427.00
68.2562 420.00
68.3214 410.00
68.3866 355.00
68.4518 406.00
68.517 398.00
68.5822 366.00
68.6474 329.00
68.7126 385.00
68.7778 340.00
68.843 384.00
68.9082 354.00
68.9734 389.00
69.0386 365.00
69.1038 386.00
69.169 389.00
69.2342 407.00
69.2994 454.00
69.3646 427.00
69.4298 561.00
69.495 649.00
69.5602 877.00
69.6254 928.00
69.6906 1046.00
69.7558 843.00
69.821 801.00
69.8862 738.00
69.9514 590.00
70.0166 504.00
70.0818 524.00
70.147 399.00
70.2122 423.00
70.2774 416.00
70.3426 393.00
70.4078 387.00
70.473 358.00
70.5382 379.00
70.6034 356.00
70.6686 367.00
70.7338 400.00
70.799 367.00
70.8642 379.00
70.9294 410.00
70.9946 403.00
71.0598 513.00
71.125 552.00
71.1902 575.00
71.2554 568.00
71.3205 570.00
71.3858 506.00
71.451 497.00
71.5162 479.00
71.5813 429.00
71.6465 411.00
71.7117 386.00
71.7769 436.00
71.8421 401.00
71.9073 416.00
71.9725 411.00
72.0377 392.00
72.1029 456.00
72.1681 374.00
72.2333 411.00
72.2985 335.00
72.3637 356.00
72.4289 350.00
72.4941 350.00
72.5593 339.00
72.6245 394.00
72.6897 336.00
72.7549 379.00
72.8201 351.00
72.8853 395.00
72.9505 332.00
73.0157 358.00
73.0809 367.00
73.1461 375.00
73.2113 344.00
73.2765 386.00
73.3417 421.00
73.4069 492.00
73.4721 640.00
73.5373 686.00
73.6025 739.00
73.6677 764.00
73.7329 712.00
73.7981 603.00
73.8633 546.00
73.9285 519.00
73.9937 446.00
74.0589 423.00
74.1241 382.00
74.1893 375.00
74.2545 390.00
74.3197 364.00
74.3849 374.00
74.4501 337.00
74.5153 353.00
74.5805 393.00
74.6457 340.00
74.7109 352.00
74.7761 401.00
74.8413 358.00
74.9065 403.00
74.9717 361.00
75.0369 361.00
75.1021 487.00
75.1673 572.00
75.2325 625.00
75.2977 694.00
75.3629 677.00
75.4281 631.00
75.4933 622.00
75.5585 573.00
75.6237 511.00
75.6889 489.00
75.7541 496.00
75.8193 475.00
75.8845 495.00
75.9497 502.00
76.0149 449.00
76.0801 486.00
76.1452 482.00
76.2104 472.00
76.2756 448.00
76.3409 502.00
76.406 452.00
76.4712 498.00
76.5364 407.00
76.6016 449.00
76.6668 381.00
76.732 328.00
76.7972 352.00
76.8624 315.00
76.9276 349.00
76.9928 352.00
77.058 347.00
77.1232 351.00
77.1884 317.00
77.2536 351.00
77.3188 395.00
77.384 334.00
77.4492 393.00
77.5144 442.00
77.5796 429.00
77.6448 476.00
77.71 538.00
77.7752 601.00
77.8404 580.00
77.9056 631.00
77.9708 575.00
78.036 561.00
78.1012 558.00
78.1664 505.00
78.2316 489.00
78.2968 464.00
78.362 387.00
78.4272 382.00
78.4924 350.00
78.5576 358.00
78.6228 327.00
78.688 349.00
78.7532 401.00
78.8184 340.00
78.8836 394.00
78.9488 362.00
79.014 383.00
79.0792 425.00
79.1444 454.00
79.2096 431.00
79.2748 447.00
79.34 420.00
79.4052 380.00
79.4704 413.00
79.5356 420.00
79.6008 391.00
79.666 390.00
79.7312 410.00
79.7964 360.00
79.8616 363.00
79.9268 430.00
79.992 416.00
80.0572 426.00
80.1224 407.00
80.1876 404.00
80.2528 387.00
80.318 413.00
80.3832 396.00
80.4484 432.00
80.5136 382.00
80.5788 365.00
80.644 380.00
80.7092 376.00
80.7744 311.00
80.8396 317.00
80.9048 365.00
80.9699 372.00
81.0351 381.00
81.1003 433.00
81.1655 479.00
81.2307 586.00
81.2959 608.00
81.3611 638.00
81.4263 642.00
81.4915 624.00
81.5567 619.00
81.6219 605.00
81.6871 632.00
81.7523 543.00
81.8175 516.00
81.8827 508.00
81.9479 449.00
82.0131 403.00
82.0783 400.00
82.1435 338.00
82.2087 328.00
82.2739 347.00
82.3391 305.00
82.4043 333.00
82.4695 332.00
82.5347 370.00
82.5999 437.00
82.6651 474.00
82.7303 489.00
82.7955 577.00
82.8607 661.00
82.9259 774.00
82.9911 786.00
83.0563 643.00
83.1215 583.00
83.1867 581.00
83.2519 517.00
83.3171 490.00
83.3823 392.00
83.4475 397.00
83.5127 362.00
83.5779 366.00
83.6431 312.00
83.7083 329.00
83.7735 308.00
83.8387 320.00
83.9039 307.00
83.9691 310.00
84.0343 312.00
84.0995 303.00
84.1647 355.00
84.2299 291.00
84.2951 328.00
84.3603 301.00
84.4255 294.00
84.4907 283.00
84.5559 314.00
84.6211 328.00
84.6863 311.00
84.7515 325.00
84.8167 327.00
84.8819 286.00
84.9471 378.00
85.0123 360.00
85.0775 377.00
85.1427 423.00
85.2079 411.00
85.2731 368.00
85.3383 344.00
85.4035 370.00
85.4687 351.00
85.5339 337.00
85.5991 311.00
85.6643 312.00
85.7295 339.00
85.7946 322.00
85.8598 333.00
85.925 345.00
85.9903 392.00
86.0554 369.00
86.1206 405.00
86.1858 382.00
86.251 406.00
86.3162 444.00
86.3814 498.00
86.4466 582.00
86.5118 645.00
86.577 603.00
86.6422 598.00
86.7074 586.00
86.7726 540.00
86.8378 485.00
86.903 457.00
86.9682 392.00
87.0334 411.00
87.0986 376.00
87.1638 352.00
87.229 414.00
87.2942 396.00
87.3594 414.00
87.4246 449.00
87.4898 491.00
87.555 596.00
87.6202 648.00
87.6854 746.00
87.7506 743.00
87.8158 681.00
87.881 757.00
87.9462 697.00
88.0114 629.00
88.0766 568.00
88.1418 474.00
88.207 449.00
88.2722 417.00
88.3374 386.00
88.4026 360.00
88.4678 324.00
88.533 360.00
88.5982 379.00
88.6634 387.00
88.7286 444.00
88.7938 454.00
88.859 404.00
88.9242 431.00
88.9894 396.00
89.0546 438.00
89.1198 419.00
89.185 389.00
89.2502 341.00
89.3154 368.00
89.3806 324.00
89.4458 369.00
89.511 319.00
89.5762 327.00
89.6414 327.00
89.7066 302.00
89.7718 298.00
89.837 328.00
89.9022 333.00
89.9674 334.00
90.0326 309.00
90.0978 336.00
90.163 357.00
90.2282 371.00
90.2934 355.00
90.3586 390.00
90.4238 397.00
90.489 426.00
90.5542 452.00
90.6193 435.00
90.6845 404.00
90.7497 420.00
90.8149 425.00
90.8801 426.00
90.9453 414.00
91.0105 453.00
91.0757 432.00
91.1409 418.00
91.2061 412.00
91.2713 383.00
91.3365 399.00
91.4017 399.00
91.4669 383.00
91.5321 393.00
91.5973 401.00
91.6625 396.00
91.7277 348.00
91.7929 420.00
91.8581 386.00
91.9233 377.00
91.9885 345.00
92.0537 344.00
92.1189 354.00
92.1841 377.00
92.2493 368.00
92.3145 365.00
92.3797 460.00
92.4449 474.00
92.5101 581.00
92.5753 615.00
92.6405 660.00
92.7057 650.00
92.7709 579.00
92.8361 614.00
92.9013 543.00
92.9665 575.00
93.0317 567.00
93.0969 511.00
93.1621 436.00
93.2273 409.00
93.2925 381.00
93.3577 372.00
93.4229 354.00
93.4881 340.00
93.5533 320.00
93.6185 329.00
93.6837 337.00
93.7489 309.00
93.8141 282.00
93.8793 330.00
93.9445 364.00
94.0097 358.00
94.0749 379.00
94.1401 472.00
94.2053 510.00
94.2705 517.00
94.3357 464.00
94.4009 465.00
94.4661 450.00
94.5313 431.00
94.5965 429.00
94.6617 412.00
94.7269 353.00
94.7921 329.00
94.8573 352.00
94.9225 384.00
94.9877 339.00
95.0529 395.00
95.1181 399.00
95.1833 472.00
95.2485 504.00
95.3137 499.00
95.3789 524.00
95.444 481.00
95.5092 430.00
95.5744 437.00
95.6396 455.00
95.7048 423.00
95.77 429.00
95.8352 378.00
95.9004 391.00
95.9656 374.00
96.0308 354.00
96.096 385.00
96.1612 403.00
96.2264 427.00
96.2916 448.00
96.3568 436.00
96.422 489.00
96.4872 422.00
96.5524 429.00
96.6176 408.00
96.6828 420.00
96.748 399.00
96.8132 392.00
96.8784 379.00
96.9436 356.00
97.0088 358.00
97.074 317.00
97.1392 357.00
97.2044 368.00
97.2696 326.00
97.3348 389.00
97.4 330.00
97.4652 370.00
97.5304 372.00
97.5956 422.00
97.6608 424.00
97.726 495.00
97.7912 502.00
97.8564 553.00
97.9216 651.00
97.9868 689.00
98.052 703.00
98.1172 593.00
98.1824 527.00
98.2476 548.00
98.3128 517.00
98.378 516.00
98.4432 477.00
98.5084 399.00
98.5736 384.00
98.6388 361.00
98.704 355.00
98.7692 332.00
98.8344 337.00
98.8996 320.00
98.9648 356.00
99.03 328.00
99.0952 299.00
99.1604 306.00
99.2256 323.00
99.2908 317.00
99.356 321.00
99.4212 336.00
99.4864 299.00
99.5516 315.00
99.6168 337.00
99.682 337.00
99.7472 363.00
99.8124 375.00
99.8776 342.00
99.9428 430.00
100.008 484.00
100.073 611.00
100.095 587.00