File: data/xrd_creation/results/NSC_115.xy
9.903433 2691.00
9.968632 2708.00
10.0338 2646.00
10.099 2673.00
10.1642 2707.00
10.2294 2627.00
10.2946 2535.00
10.3598 2629.00
10.425 2545.00
10.4902 2489.00
10.5554 2474.00
10.6206 2616.00
10.6858 2444.00
10.751 2485.00
10.8162 2511.00
10.8814 2482.00
10.9466 2542.00
11.0118 2625.00
11.077 2618.00
11.1422 2732.00
11.2074 2980.00
11.2726 3354.00
11.3378 3726.00
11.403 4211.00
11.4682 5049.00
11.5334 5871.00
11.5986 7133.00
11.6638 9478.00
11.729 12419.00
11.7942 8834.00
11.8594 7052.00
11.9246 3217.00
11.9898 2483.00
12.055 2423.00
12.1202 2247.00
12.1854 2304.00
12.2506 2244.00
12.3158 2182.00
12.381 2191.00
12.4462 2187.00
12.5114 2232.00
12.5766 2170.00
12.6418 2176.00
12.707 2045.00
12.7722 2076.00
12.8374 2006.00
12.9026 2028.00
12.9678 1988.00
13.033 1895.00
13.0982 1986.00
13.1634 2023.00
13.2286 1978.00
13.2938 1977.00
13.359 1929.00
13.4242 1916.00
13.4894 1967.00
13.5546 1922.00
13.6198 2000.00
13.685 1856.00
13.7502 1875.00
13.8154 1866.00
13.8805 1838.00
13.9457 1845.00
14.0109 1855.00
14.0761 1808.00
14.1413 1793.00
14.2065 1860.00
14.2717 1870.00
14.3369 1765.00
14.4021 1809.00
14.4673 1828.00
14.5325 1799.00
14.5977 1849.00
14.6629 1754.00
14.7281 1887.00
14.7933 1955.00
14.8585 1933.00
14.9237 2009.00
14.9889 2188.00
15.0541 1834.00
15.1193 1782.00
15.1845 1760.00
15.2497 1797.00
15.3149 1762.00
15.3801 1745.00
15.4453 1735.00
15.5105 1731.00
15.5757 1755.00
15.6409 1805.00
15.7061 1764.00
15.7713 1753.00
15.8365 1808.00
15.9017 1797.00
15.9669 1883.00
16.0321 1919.00
16.0973 2083.00
16.1625 2292.00
16.2277 2644.00
16.2929 2912.00
16.3581 3445.00
16.4233 4178.00
16.4885 6119.00
16.5537 7429.00
16.6189 3565.00
16.6841 1928.00
16.7493 1785.00
16.8145 1752.00
16.8797 1703.00
16.9449 1674.00
17.0101 1506.00
17.0753 1657.00
17.1405 1612.00
17.2057 1654.00
17.2709 1606.00
17.3361 1633.00
17.4013 1651.00
17.4665 1558.00
17.5317 1565.00
17.5969 1537.00
17.6621 1624.00
17.7273 1568.00
17.7925 1724.00
17.8577 1685.00
17.9229 1826.00
17.9881 1912.00
18.0533 2139.00
18.1185 2439.00
18.1837 2718.00
18.2489 2306.00
18.3141 1924.00
18.3793 1606.00
18.4445 1705.00
18.5097 1728.00
18.5749 1607.00
18.6401 1519.00
18.7052 1440.00
18.7704 1524.00
18.8356 1448.00
18.9008 1392.00
18.966 1393.00
19.0312 1421.00
19.0964 1443.00
19.1616 1519.00
19.2268 1503.00
19.292 1495.00
19.3572 1481.00
19.4224 1370.00
19.4876 1436.00
19.5528 1317.00
19.618 1415.00
19.6832 1388.00
19.7484 1426.00
19.8136 1370.00
19.8788 1336.00
19.944 1423.00
20.0092 1400.00
20.0744 1458.00
20.1396 1552.00
20.2048 1627.00
20.27 1767.00
20.3352 2061.00
20.4004 2505.00
20.4656 2046.00
20.5308 1485.00
20.596 1444.00
20.6612 1313.00
20.7264 1330.00
20.7916 1333.00
20.8568 1331.00
20.922 1378.00
20.9872 1330.00
21.0524 1303.00
21.1176 1378.00
21.1828 1315.00
21.248 1356.00
21.3132 1264.00
21.3784 1271.00
21.4436 1302.00
21.5088 1253.00
21.574 1287.00
21.6392 1203.00
21.7044 1261.00
21.7696 1244.00
21.8348 1293.00
21.9 1190.00
21.9652 1273.00
22.0304 1158.00
22.0956 1214.00
22.1608 1238.00
22.226 1252.00
22.2912 1210.00
22.3564 1180.00
22.4216 1170.00
22.4868 1210.00
22.552 1241.00
22.6172 1167.00
22.6824 1184.00
22.7476 1233.00
22.8128 1131.00
22.878 1108.00
22.9432 1177.00
23.0084 1251.00
23.0736 1150.00
23.1388 1217.00
23.204 1296.00
23.2692 1274.00
23.3344 1255.00
23.3996 1392.00
23.4647 1262.00
23.5299 1198.00
23.5951 1180.00
23.6603 1185.00
23.7255 1216.00
23.7907 1167.00
23.8559 1171.00
23.9211 1186.00
23.9863 1194.00
24.0515 1208.00
24.1167 1240.00
24.1819 1312.00
24.2471 1321.00
24.3123 1435.00
24.3775 1527.00
24.4427 1946.00
24.5079 2044.00
24.5731 1845.00
24.6383 1899.00
24.7035 2251.00
24.7687 2044.00
24.8339 1446.00
24.8991 1226.00
24.9643 1254.00
25.0295 1246.00
25.0947 1141.00
25.1599 1175.00
25.2251 1160.00
25.2903 1207.00
25.3555 1270.00
25.4207 1380.00
25.4859 1438.00
25.5511 1471.00
25.6163 1369.00
25.6815 1483.00
25.7467 1608.00
25.8119 2173.00
25.8771 3015.00
25.9423 4633.00
26.0075 7222.00
26.0727 7004.00
26.1379 7752.00
26.2031 6872.00
26.2683 3438.00
26.3335 1728.00
26.3987 1425.00
26.4639 1372.00
26.5291 1410.00
26.5943 1548.00
26.6595 1799.00
26.7247 2359.00
26.7899 2884.00
26.8551 3858.00
26.9203 4280.00
26.9855 3178.00
27.0507 1984.00
27.1159 1640.00
27.1811 1396.00
27.2463 1497.00
27.3115 1581.00
27.3767 1469.00
27.4419 1230.00
27.5071 1259.00
27.5723 1455.00
27.6375 1611.00
27.7027 1903.00
27.7679 2815.00
27.8331 4573.00
27.8983 6362.00
27.9635 7465.00
28.0287 5079.00
28.0939 3507.00
28.1591 3674.00
28.2243 2490.00
28.2894 1743.00
28.3546 1384.00
28.4198 1325.00
28.485 1210.00
28.5502 1145.00
28.6154 1043.00
28.6806 1059.00
28.7458 968.00
28.811 993.00
28.8762 958.00
28.9414 971.00
29.0066 945.00
29.0718 959.00
29.137 973.00
29.2022 869.00
29.2674 938.00
29.3326 952.00
29.3978 918.00
29.463 907.00
29.5282 1003.00
29.5934 922.00
29.6586 941.00
29.7238 932.00
29.789 987.00
29.8542 984.00
29.9194 1083.00
29.9846 1117.00
30.0498 1305.00
30.115 1732.00
30.1802 2334.00
30.2454 2278.00
30.3106 1780.00
30.3758 1613.00
30.441 2151.00
30.5062 2024.00
30.5714 1491.00
30.6366 1055.00
30.7018 1034.00
30.767 908.00
30.8322 920.00
30.8974 916.00
30.9626 941.00
31.0278 884.00
31.093 990.00
31.1582 926.00
31.2234 1016.00
31.2886 1036.00
31.3538 1113.00
31.419 1363.00
31.4842 1818.00
31.5494 1902.00
31.6146 1641.00
31.6798 1275.00
31.745 1318.00
31.8102 1376.00
31.8754 1668.00
31.9406 2034.00
32.0058 1844.00
32.071 1480.00
32.1362 1090.00
32.2014 1027.00
32.2666 951.00
32.3318 914.00
32.397 960.00
32.4622 987.00
32.5274 1019.00
32.5926 1106.00
32.6578 1120.00
32.723 1212.00
32.7882 1439.00
32.8534 1798.00
32.9186 2947.00
32.9838 4965.00
33.0489 8777.00
33.1141 8711.00
33.1793 5127.00
33.2445 2187.00
33.3097 1628.00
33.3749 1673.00
33.4401 2021.00
33.5053 2088.00
33.5705 1654.00
33.6357 1188.00
33.7009 1083.00
33.7661 1134.00
33.8313 1206.00
33.8965 1312.00
33.9617 1594.00
34.0269 2088.00
34.0921 2873.00
34.1573 3827.00
34.2225 3871.00
34.2877 3467.00
34.3529 3747.00
34.4181 5666.00
34.4833 8384.00
34.5485 9209.00
34.6137 6075.00
34.6789 3197.00
34.7441 2214.00
34.8093 2431.00
34.8745 3065.00
34.9397 3476.00
35.0049 2705.00
35.0701 1772.00
35.1353 1237.00
35.2005 1180.00
35.2657 1215.00
35.3309 1201.00
35.3961 1128.00
35.4613 926.00
35.5265 802.00
35.5917 841.00
35.6569 749.00
35.7221 762.00
35.7873 738.00
35.8525 806.00
35.9177 793.00
35.9829 733.00
36.0481 813.00
36.1133 878.00
36.1785 912.00
36.2437 938.00
36.3089 1006.00
36.3741 1284.00
36.4393 1506.00
36.5045 1145.00
36.5697 1148.00
36.6349 1238.00
36.7001 1188.00
36.7653 1103.00
36.8305 1213.00
36.8957 1528.00
36.9609 1416.00
37.0261 1225.00
37.0913 1117.00
37.1565 1307.00
37.2217 1487.00
37.2869 1291.00
37.3521 1087.00
37.4173 812.00
37.4825 829.00
37.5477 775.00
37.6129 754.00
37.6781 864.00
37.7433 930.00
37.8085 995.00
37.8736 1027.00
37.9388 1051.00
38.004 1005.00
38.0692 983.00
38.1344 1005.00
38.1996 1225.00
38.2648 1361.00
38.33 1206.00
38.3952 1022.00
38.4604 891.00
38.5256 880.00
38.5908 799.00
38.656 801.00
38.7212 869.00
38.7864 954.00
38.8516 924.00
38.9168 816.00
38.982 739.00
39.0472 813.00
39.1124 906.00
39.1776 1010.00
39.2428 988.00
39.308 1010.00
39.3732 864.00
39.4384 844.00
39.5036 765.00
39.5688 770.00
39.634 748.00
39.6992 757.00
39.7644 774.00
39.8296 718.00
39.8948 749.00
39.96 690.00
40.0252 659.00
40.0904 610.00
40.1556 614.00
40.2208 625.00
40.286 638.00
40.3512 640.00
40.4164 654.00
40.4816 764.00
40.5468 717.00
40.612 685.00
40.6772 699.00
40.7424 686.00
40.8076 720.00
40.8728 657.00
40.938 705.00
41.0032 819.00
41.0684 834.00
41.1336 851.00
41.1988 731.00
41.264 763.00
41.3292 731.00
41.3944 739.00
41.4596 799.00
41.5248 802.00
41.59 773.00
41.6552 862.00
41.7204 1057.00
41.7856 1418.00
41.8508 1367.00
41.916 1315.00
41.9812 1049.00
42.0464 957.00
42.1116 1172.00
42.1768 1526.00
42.242 1823.00
42.3072 1728.00
42.3724 1853.00
42.4376 1538.00
42.5028 1796.00
42.568 1512.00
42.6332 1228.00
42.6983 922.00
42.7635 720.00
42.8287 780.00
42.8939 745.00
42.9591 712.00
43.0243 685.00
43.0895 683.00
43.1547 662.00
43.2199 613.00
43.2851 682.00
43.3503 676.00
43.4155 728.00
43.4807 930.00
43.5459 1228.00
43.6111 1129.00
43.6763 1078.00
43.7415 983.00
43.8067 948.00
43.8719 999.00
43.9371 935.00
44.0023 822.00
44.0675 715.00
44.1327 761.00
44.1979 685.00
44.2631 788.00
44.3283 735.00
44.3935 639.00
44.4587 669.00
44.5239 665.00
44.5891 638.00
44.6543 626.00
44.7195 589.00
44.7847 625.00
44.8499 609.00
44.9151 668.00
44.9803 724.00
45.0455 863.00
45.1107 1007.00
45.1759 1151.00
45.2411 1096.00
45.3063 1094.00
45.3715 874.00
45.4367 905.00
45.5019 986.00
45.5671 862.00
45.6323 858.00
45.6975 863.00
45.7627 840.00
45.8279 714.00
45.8931 657.00
45.9583 715.00
46.0235 664.00
46.0887 619.00
46.1539 656.00
46.2191 745.00
46.2843 773.00
46.3495 706.00
46.4147 684.00
46.4799 600.00
46.5451 656.00
46.6103 670.00
46.6755 646.00
46.7407 769.00
46.8059 900.00
46.8711 892.00
46.9363 841.00
47.0015 1041.00
47.0667 1295.00
47.1319 1260.00
47.1971 1296.00
47.2623 1333.00
47.3275 1655.00
47.3927 1508.00
47.4579 1856.00
47.523 2600.00
47.5882 3051.00
47.6534 2208.00
47.7186 1914.00
47.7838 1113.00
47.849 817.00
47.9142 771.00
47.9794 723.00
48.0446 726.00
48.1098 695.00
48.175 660.00
48.2402 641.00
48.3054 649.00
48.3706 665.00
48.4358 692.00
48.501 710.00
48.5662 871.00
48.6314 916.00
48.6966 914.00
48.7618 911.00
48.827 803.00
48.8922 823.00
48.9574 851.00
49.0226 1072.00
49.0878 1225.00
49.153 1205.00
49.2182 1134.00
49.2834 990.00
49.3486 861.00
49.4138 888.00
49.479 760.00
49.5442 802.00
49.6094 960.00
49.6746 1310.00
49.7398 1765.00
49.805 1682.00
49.8702 1489.00
49.9354 1273.00
50.0006 1265.00
50.0658 1569.00
50.131 1435.00
50.1962 1444.00
50.2614 1469.00
50.3266 1857.00
50.3918 1599.00
50.457 1328.00
50.5222 1002.00
50.5874 869.00
50.6526 711.00
50.7178 697.00
50.783 621.00
50.8482 591.00
50.9134 625.00
50.9786 572.00
51.0438 617.00
51.109 593.00
51.1742 632.00
51.2394 737.00
51.3046 718.00
51.3698 730.00
51.435 668.00
51.5002 679.00
51.5654 706.00
51.6306 773.00
51.6958 1058.00
51.761 1741.00
51.8262 2001.00
51.8914 2020.00
51.9566 2199.00
52.0218 2522.00
52.087 2360.00
52.1522 2084.00
52.2174 1809.00
52.2826 1271.00
52.3477 1097.00
52.4129 911.00
52.4781 784.00
52.5433 706.00
52.6085 643.00
52.6737 610.00
52.7389 516.00
52.8041 588.00
52.8693 565.00
52.9345 610.00
52.9997 699.00
53.0649 1035.00
53.1301 1086.00
53.1953 1266.00
53.2605 1178.00
53.3257 1048.00
53.3909 945.00
53.4561 928.00
53.5213 771.00
53.5865 801.00
53.6517 794.00
53.7169 711.00
53.7821 716.00
53.8473 816.00
53.9125 824.00
53.9777 709.00
54.0429 774.00
54.1081 717.00
54.1733 668.00
54.2385 744.00
54.3037 764.00
54.3689 648.00
54.4341 739.00
54.4993 747.00
54.5645 708.00
54.6297 719.00
54.6949 722.00
54.7601 786.00
54.8253 943.00
54.8905 946.00
54.9557 990.00
55.0209 1101.00
55.0861 951.00
55.1513 908.00
55.2165 806.00
55.2817 743.00
55.3469 790.00
55.4121 937.00
55.4773 1019.00
55.5425 1232.00
55.6077 1300.00
55.6729 1107.00
55.7381 1053.00
55.8033 881.00
55.8685 733.00
55.9337 666.00
55.9989 638.00
56.0641 682.00
56.1293 773.00
56.1945 832.00
56.2597 955.00
56.3249 941.00
56.3901 941.00
56.4553 847.00
56.5205 770.00
56.5857 777.00
56.6509 732.00
56.7161 693.00
56.7813 816.00
56.8465 936.00
56.9117 1047.00
56.9769 968.00
57.042 959.00
57.1073 939.00
57.1724 875.00
57.2376 890.00
57.3028 1039.00
57.368 1087.00
57.4332 965.00
57.4984 986.00
57.5636 820.00
57.6288 697.00
57.694 736.00
57.7592 749.00
57.8244 774.00
57.8896 710.00
57.9548 819.00
58.02 775.00
58.0852 963.00
58.1504 892.00
58.2156 880.00
58.2808 899.00
58.346 989.00
58.4112 1345.00
58.4764 1753.00
58.5416 1669.00
58.6068 1424.00
58.672 1198.00
58.7372 1043.00
58.8024 1039.00
58.8676 1062.00
58.9328 986.00
58.998 1021.00
59.0632 1175.00
59.1284 1104.00
59.1936 1042.00
59.2588 1137.00
59.324 1176.00
59.3892 1419.00
59.4544 1721.00
59.5196 1847.00
59.5848 2179.00
59.65 2210.00
59.7152 1983.00
59.7804 2005.00
59.8456 1575.00
59.9108 1427.00
59.976 1339.00
60.0412 1288.00
60.1064 1219.00
60.1716 1567.00
60.2368 1635.00
60.302 1401.00
60.3672 1161.00
60.4324 1147.00
60.4976 871.00
60.5628 711.00
60.628 694.00
60.6932 628.00
60.7584 678.00
60.8236 719.00
60.8888 725.00
60.954 680.00
61.0192 682.00
61.0844 734.00
61.1496 625.00
61.2148 554.00
61.28 545.00
61.3452 525.00
61.4104 524.00
61.4756 537.00
61.5408 614.00
61.606 721.00
61.6712 795.00
61.7364 865.00
61.8016 797.00
61.8667 706.00
61.932 754.00
61.9971 762.00
62.0623 805.00
62.1275 809.00
62.1927 889.00
62.2579 938.00
62.3231 1122.00
62.3883 1200.00
62.4535 929.00
62.5187 954.00
62.5839 811.00
62.6491 661.00
62.7143 639.00
62.7795 600.00
62.8447 694.00
62.9099 974.00
62.9751 1193.00
63.0403 1067.00
63.1055 964.00
63.1707 948.00
63.2359 719.00
63.3011 659.00
63.3663 534.00
63.4315 583.00
63.4967 538.00
63.5619 556.00
63.6271 604.00
63.6923 600.00
63.7575 619.00
63.8227 698.00
63.8879 691.00
63.9531 669.00
64.0183 650.00
64.0835 740.00
64.1487 680.00
64.2139 690.00
64.2791 727.00
64.3443 696.00
64.4095 721.00
64.4747 726.00
64.5399 736.00
64.6051 682.00
64.6703 655.00
64.7355 651.00
64.8007 786.00
64.8659 850.00
64.9311 1038.00
64.9963 1160.00
65.0615 1000.00
65.1267 989.00
65.1919 841.00
65.2571 778.00
65.3223 736.00
65.3875 752.00
65.4527 811.00
65.5179 880.00
65.5831 876.00
65.6483 849.00
65.7135 881.00
65.7787 848.00
65.8439 949.00
65.9091 943.00
65.9743 1039.00
66.0395 1018.00
66.1047 1032.00
66.1699 1143.00
66.2351 1079.00
66.3003 1030.00
66.3655 915.00
66.4307 853.00
66.4959 805.00
66.561 731.00
66.6263 666.00
66.6915 647.00
66.7566 686.00
66.8218 718.00
66.887 694.00
66.9522 581.00
67.0174 682.00
67.0826 632.00
67.1478 620.00
67.213 595.00
67.2782 606.00
67.3434 653.00
67.4086 647.00
67.4738 721.00
67.539 604.00
67.6042 628.00
67.6694 580.00
67.7346 551.00
67.7998 527.00
67.865 516.00
67.9302 595.00
67.9954 661.00
68.0606 720.00
68.1258 620.00
68.191 630.00
68.2562 584.00
68.3214 518.00
68.3866 509.00
68.4518 510.00
68.517 644.00
68.5822 638.00
68.6474 626.00
68.7126 710.00
68.7778 691.00
68.843 666.00
68.9082 705.00
68.9734 772.00
69.0386 632.00
69.1038 584.00
69.169 626.00
69.2342 611.00
69.2994 561.00
69.3646 547.00
69.4298 528.00
69.495 477.00
69.5602 471.00
69.6254 499.00
69.6906 519.00
69.7558 491.00
69.821 505.00
69.8862 502.00
69.9514 542.00
70.0166 517.00
70.0818 469.00
70.147 468.00
70.2122 452.00
70.2774 495.00
70.3426 482.00
70.4078 473.00
70.473 500.00
70.5382 463.00
70.6034 430.00
70.6686 476.00
70.7338 461.00
70.799 449.00
70.8642 531.00
70.9294 493.00
70.9946 520.00
71.0598 464.00
71.125 411.00
71.1902 453.00
71.2554 458.00
71.3205 442.00
71.3858 487.00
71.451 504.00
71.5162 595.00
71.5813 585.00
71.6465 546.00
71.7117 545.00
71.7769 523.00
71.8421 487.00
71.9073 488.00
71.9725 456.00
72.0377 530.00
72.1029 526.00
72.1681 692.00
72.2333 708.00
72.2985 702.00
72.3637 798.00
72.4289 751.00
72.4941 574.00
72.5593 570.00
72.6245 487.00
72.6897 474.00
72.7549 421.00
72.8201 407.00
72.8853 432.00
72.9505 432.00
73.0157 460.00
73.0809 459.00
73.1461 484.00
73.2113 560.00
73.2765 669.00
73.3417 795.00
73.4069 736.00
73.4721 701.00
73.5373 654.00
73.6025 630.00
73.6677 558.00
73.7329 561.00
73.7981 483.00
73.8633 446.00
73.9285 443.00
73.9937 377.00
74.0589 419.00
74.1241 473.00
74.1893 479.00
74.2545 498.00
74.3197 528.00
74.3849 527.00
74.4501 575.00
74.5153 681.00
74.5805 606.00
74.6457 506.00
74.7109 511.00
74.7761 529.00
74.8413 470.00
74.9065 476.00
74.9717 444.00
75.0369 439.00
75.1021 480.00
75.1673 482.00
75.2325 507.00
75.2977 557.00
75.3629 573.00
75.4281 560.00
75.4933 536.00
75.5585 534.00
75.6237 480.00
75.6889 489.00
75.7541 425.00
75.8193 435.00
75.8845 428.00
75.9497 453.00
76.0149 453.00
76.0801 483.00
76.1452 515.00
76.2104 549.00
76.2756 508.00
76.3409 525.00
76.406 478.00
76.4712 476.00
76.5364 467.00
76.6016 469.00
76.6668 504.00
76.732 479.00
76.7972 506.00
76.8624 608.00
76.9276 501.00
76.9928 574.00
77.058 526.00
77.1232 601.00
77.1884 606.00
77.2536 659.00
77.3188 576.00
77.384 592.00
77.4492 618.00
77.5144 589.00
77.5796 547.00
77.6448 510.00
77.71 466.00
77.7752 456.00
77.8404 449.00
77.9056 411.00
77.9708 480.00
78.036 451.00
78.1012 562.00
78.1664 503.00
78.2316 481.00
78.2968 441.00
78.362 469.00
78.4272 395.00
78.4924 453.00
78.5576 468.00
78.6228 514.00
78.688 581.00
78.7532 612.00
78.8184 778.00
78.8836 926.00
78.9488 879.00
79.014 816.00
79.0792 803.00
79.1444 807.00
79.2096 680.00
79.2748 676.00
79.34 651.00
79.4052 607.00
79.4704 572.00
79.5356 527.00
79.6008 495.00
79.666 474.00
79.7312 434.00
79.7964 445.00
79.8616 403.00
79.9268 401.00
79.992 487.00
80.0572 484.00
80.1224 524.00
80.1876 579.00
80.2528 569.00
80.318 553.00
80.3832 552.00
80.4484 528.00
80.5136 527.00
80.5788 444.00
80.644 499.00
80.7092 504.00
80.7744 468.00
80.8396 485.00
80.9048 552.00
80.9699 470.00
81.0351 492.00
81.1003 457.00
81.1655 511.00
81.2307 526.00
81.2959 495.00
81.3611 551.00
81.4263 515.00
81.4915 520.00
81.5567 564.00
81.6219 569.00
81.6871 530.00
81.7523 470.00
81.8175 442.00
81.8827 467.00
81.9479 453.00
82.0131 451.00
82.0783 449.00
82.1435 431.00
82.2087 411.00
82.2739 411.00
82.3391 404.00
82.4043 381.00
82.4695 425.00
82.5347 484.00
82.5999 508.00
82.6651 536.00
82.7303 506.00
82.7955 473.00
82.8607 507.00
82.9259 485.00
82.9911 475.00
83.0563 419.00
83.1215 383.00
83.1867 390.00
83.2519 422.00
83.3171 473.00
83.3823 478.00
83.4475 504.00
83.5127 389.00
83.5779 515.00
83.6431 564.00
83.7083 607.00
83.7735 566.00
83.8387 632.00
83.9039 652.00
83.9691 644.00
84.0343 613.00
84.0995 563.00
84.1647 567.00
84.2299 532.00
84.2951 481.00
84.3603 487.00
84.4255 482.00
84.4907 467.00
84.5559 468.00
84.6211 471.00
84.6863 565.00
84.7515 559.00
84.8167 550.00
84.8819 535.00
84.9471 601.00
85.0123 547.00
85.0775 531.00
85.1427 604.00
85.2079 585.00
85.2731 542.00
85.3383 529.00
85.4035 501.00
85.4687 503.00
85.5339 514.00
85.5991 486.00
85.6643 471.00
85.7295 523.00
85.7946 516.00
85.8598 556.00
85.925 481.00
85.9903 470.00
86.0554 552.00
86.1206 608.00
86.1858 603.00
86.251 488.00
86.3162 507.00
86.3814 514.00
86.4466 490.00
86.5118 540.00
86.577 540.00
86.6422 544.00
86.7074 550.00
86.7726 488.00
86.8378 486.00
86.903 535.00
86.9682 563.00
87.0334 536.00
87.0986 606.00
87.1638 595.00
87.229 587.00
87.2942 525.00
87.3594 574.00
87.4246 604.00
87.4898 574.00
87.555 474.00
87.6202 478.00
87.6854 524.00
87.7506 478.00
87.8158 480.00
87.881 447.00
87.9462 448.00
88.0114 362.00
88.0766 406.00
88.1418 420.00
88.207 449.00
88.2722 431.00
88.3374 480.00
88.4026 513.00
88.4678 498.00
88.533 545.00
88.5982 568.00
88.6634 587.00
88.7286 575.00
88.7938 582.00
88.859 514.00
88.9242 497.00
88.9894 448.00
89.0546 477.00
89.1198 475.00
89.185 465.00
89.2502 471.00
89.3154 441.00
89.3806 518.00
89.4458 468.00
89.511 535.00
89.5762 548.00
89.6414 483.00
89.7066 518.00
89.7718 493.00
89.837 515.00
89.9022 551.00
89.9674 618.00
90.0326 587.00
90.0978 533.00
90.163 592.00
90.2282 604.00
90.2934 581.00
90.3586 642.00
90.4238 624.00
90.489 569.00
90.5542 596.00
90.6193 622.00
90.6845 539.00
90.7497 528.00
90.8149 544.00
90.8801 594.00
90.9453 517.00
91.0105 520.00
91.0757 590.00
91.1409 631.00
91.2061 553.00
91.2713 581.00
91.3365 549.00
91.4017 573.00
91.4669 521.00
91.5321 574.00
91.5973 543.00
91.6625 530.00
91.7277 558.00
91.7929 548.00
91.8581 529.00
91.9233 533.00
91.9885 567.00
92.0537 584.00
92.1189 551.00
92.1841 502.00
92.2493 508.00
92.3145 464.00
92.3797 469.00
92.4449 492.00
92.5101 485.00
92.5753 474.00
92.6405 554.00
92.7057 522.00
92.7709 590.00
92.8361 515.00
92.9013 452.00
92.9665 487.00
93.0317 506.00
93.0969 503.00
93.1621 460.00
93.2273 453.00
93.2925 430.00
93.3577 466.00
93.4229 461.00
93.4881 484.00
93.5533 477.00
93.6185 432.00
93.6837 451.00
93.7489 442.00
93.8141 461.00
93.8793 461.00
93.9445 424.00
94.0097 456.00
94.0749 445.00
94.1401 414.00
94.2053 418.00
94.2705 409.00
94.3357 415.00
94.4009 470.00
94.4661 455.00
94.5313 409.00
94.5965 434.00
94.6617 384.00
94.7269 409.00
94.7921 451.00
94.8573 359.00
94.9225 405.00
94.9877 380.00
95.0529 419.00
95.1181 369.00
95.1833 404.00
95.2485 418.00
95.3137 460.00
95.3789 482.00
95.444 456.00
95.5092 439.00
95.5744 441.00
95.6396 464.00
95.7048 492.00
95.77 492.00
95.8352 490.00
95.9004 543.00
95.9656 497.00
96.0308 481.00
96.096 526.00
96.1612 539.00
96.2264 530.00
96.2916 539.00
96.3568 523.00
96.422 523.00
96.4872 528.00
96.5524 469.00
96.6176 505.00
96.6828 503.00
96.748 500.00
96.8132 520.00
96.8784 535.00
96.9436 516.00
97.0088 593.00
97.074 598.00
97.1392 591.00
97.2044 639.00
97.2696 587.00
97.3348 564.00
97.4 608.00
97.4652 606.00
97.5304 608.00
97.5956 519.00
97.6608 509.00
97.726 492.00
97.7912 514.00
97.8564 549.00
97.9216 523.00
97.9868 498.00
98.052 519.00
98.1172 482.00
98.1824 497.00
98.2476 518.00
98.3128 516.00
98.378 515.00
98.4432 433.00
98.5084 469.00
98.5736 483.00
98.6388 449.00
98.704 427.00
98.7692 458.00
98.8344 455.00
98.8996 473.00
98.9648 440.00
99.03 405.00
99.0952 407.00
99.1604 458.00
99.2256 441.00
99.2908 471.00
99.356 460.00
99.4212 474.00
99.4864 493.00
99.5516 515.00
99.6168 539.00
99.682 553.00
99.7472 597.00
99.8124 608.00
99.8776 533.00
99.9428 553.00
100.008 542.00
100.073 533.00
100.095 516.00