File: data/xrd_creation/results/NSC_156.xy
9.903433 2638.00
9.968632 2636.00
10.0338 2706.00
10.099 2647.00
10.1642 2610.00
10.2294 2556.00
10.2946 2573.00
10.3598 2554.00
10.425 2526.00
10.4902 2434.00
10.5554 2449.00
10.6206 2432.00
10.6858 2481.00
10.751 2492.00
10.8162 2439.00
10.8814 2362.00
10.9466 2431.00
11.0118 2400.00
11.077 2341.00
11.1422 2259.00
11.2074 2185.00
11.2726 2249.00
11.3378 2329.00
11.403 2274.00
11.4682 2189.00
11.5334 2157.00
11.5986 2178.00
11.6638 2223.00
11.729 2166.00
11.7942 2161.00
11.8594 2094.00
11.9246 2164.00
11.9898 2119.00
12.055 2102.00
12.1202 2009.00
12.1854 2032.00
12.2506 2151.00
12.3158 2022.00
12.381 2138.00
12.4462 2257.00
12.5114 2183.00
12.5766 2329.00
12.6418 2286.00
12.707 2447.00
12.7722 2705.00
12.8374 2968.00
12.9026 2280.00
12.9678 2202.00
13.033 2266.00
13.0982 2381.00
13.1634 2476.00
13.2286 2822.00
13.2938 3063.00
13.359 2970.00
13.4242 2302.00
13.4894 1925.00
13.5546 1915.00
13.6198 1856.00
13.685 1998.00
13.7502 1925.00
13.8154 1905.00
13.8805 1981.00
13.9457 2068.00
14.0109 2177.00
14.0761 2318.00
14.1413 2684.00
14.2065 3231.00
14.2717 2537.00
14.3369 1899.00
14.4021 1800.00
14.4673 1740.00
14.5325 1768.00
14.5977 1802.00
14.6629 1754.00
14.7281 1702.00
14.7933 1839.00
14.8585 1716.00
14.9237 1651.00
14.9889 1707.00
15.0541 1758.00
15.1193 1721.00
15.1845 1726.00
15.2497 1649.00
15.3149 1666.00
15.3801 1654.00
15.4453 1772.00
15.5105 1692.00
15.5757 1635.00
15.6409 1686.00
15.7061 1693.00
15.7713 1597.00
15.8365 1623.00
15.9017 1719.00
15.9669 1588.00
16.0321 1645.00
16.0973 1670.00
16.1625 1596.00
16.2277 1645.00
16.2929 1640.00
16.3581 1608.00
16.4233 1612.00
16.4885 1604.00
16.5537 1627.00
16.6189 1654.00
16.6841 1663.00
16.7493 1683.00
16.8145 1641.00
16.8797 1592.00
16.9449 1536.00
17.0101 1576.00
17.0753 1623.00
17.1405 1640.00
17.2057 1568.00
17.2709 1556.00
17.3361 1541.00
17.4013 1519.00
17.4665 1495.00
17.5317 1557.00
17.5969 1525.00
17.6621 1533.00
17.7273 1560.00
17.7925 1617.00
17.8577 1601.00
17.9229 1572.00
17.9881 1633.00
18.0533 1734.00
18.1185 1688.00
18.1837 1648.00
18.2489 1455.00
18.3141 1449.00
18.3793 1510.00
18.4445 1471.00
18.5097 1409.00
18.5749 1464.00
18.6401 1400.00
18.7052 1454.00
18.7704 1409.00
18.8356 1448.00
18.9008 1500.00
18.966 1402.00
19.0312 1446.00
19.0964 1458.00
19.1616 1480.00
19.2268 1519.00
19.292 1527.00
19.3572 1579.00
19.4224 1703.00
19.4876 1749.00
19.5528 2002.00
19.618 2321.00
19.6832 2912.00
19.7484 3976.00
19.8136 5860.00
19.8788 9017.00
19.944 14969.00
20.0092 16077.00
20.0744 12318.00
20.1396 4849.00
20.2048 2030.00
20.27 1712.00
20.3352 1680.00
20.4004 1536.00
20.4656 1429.00
20.5308 1353.00
20.596 1356.00
20.6612 1353.00
20.7264 1312.00
20.7916 1387.00
20.8568 1403.00
20.922 1403.00
20.9872 1347.00
21.0524 1368.00
21.1176 1259.00
21.1828 1272.00
21.248 1322.00
21.3132 1339.00
21.3784 1333.00
21.4436 1295.00
21.5088 1283.00
21.574 1258.00
21.6392 1248.00
21.7044 1265.00
21.7696 1311.00
21.8348 1249.00
21.9 1381.00
21.9652 1237.00
22.0304 1365.00
22.0956 1472.00
22.1608 1476.00
22.226 1776.00
22.2912 1842.00
22.3564 1648.00
22.4216 1639.00
22.4868 1413.00
22.552 1293.00
22.6172 1233.00
22.6824 1203.00
22.7476 1207.00
22.8128 1181.00
22.878 1170.00
22.9432 1178.00
23.0084 1219.00
23.0736 1211.00
23.1388 1333.00
23.204 1501.00
23.2692 1595.00
23.3344 1909.00
23.3996 2597.00
23.4647 2780.00
23.5299 1801.00
23.5951 1220.00
23.6603 1145.00
23.7255 1131.00
23.7907 1192.00
23.8559 1116.00
23.9211 1136.00
23.9863 1126.00
24.0515 1101.00
24.1167 1183.00
24.1819 1152.00
24.2471 1115.00
24.3123 1123.00
24.3775 1133.00
24.4427 1244.00
24.5079 1149.00
24.5731 1098.00
24.6383 1186.00
24.7035 1094.00
24.7687 1082.00
24.8339 1072.00
24.8991 1015.00
24.9643 1082.00
25.0295 1011.00
25.0947 1051.00
25.1599 994.00
25.2251 1068.00
25.2903 1141.00
25.3555 1147.00
25.4207 1051.00
25.4859 1165.00
25.5511 1129.00
25.6163 1037.00
25.6815 990.00
25.7467 991.00
25.8119 1095.00
25.8771 966.00
25.9423 1028.00
26.0075 1067.00
26.0727 1029.00
26.1379 1007.00
26.2031 1107.00
26.2683 1192.00
26.3335 1151.00
26.3987 1207.00
26.4639 1148.00
26.5291 1275.00
26.5943 1379.00
26.6595 1554.00
26.7247 2225.00
26.7899 3214.00
26.8551 4687.00
26.9203 4819.00
26.9855 3314.00
27.0507 1876.00
27.1159 1284.00
27.1811 1159.00
27.2463 1114.00
27.3115 1053.00
27.3767 1066.00
27.4419 1005.00
27.5071 1003.00
27.5723 974.00
27.6375 1109.00
27.7027 1159.00
27.7679 1307.00
27.8331 1579.00
27.8983 2025.00
27.9635 3160.00
28.0287 3238.00
28.0939 2520.00
28.1591 2636.00
28.2243 4482.00
28.2894 7518.00
28.3546 5345.00
28.4198 2226.00
28.485 1158.00
28.5502 1112.00
28.6154 1051.00
28.6806 984.00
28.7458 968.00
28.811 905.00
28.8762 952.00
28.9414 935.00
29.0066 944.00
29.0718 887.00
29.137 893.00
29.2022 823.00
29.2674 892.00
29.3326 853.00
29.3978 948.00
29.463 961.00
29.5282 957.00
29.5934 1017.00
29.6586 1147.00
29.7238 974.00
29.789 920.00
29.8542 865.00
29.9194 862.00
29.9846 849.00
30.0498 856.00
30.115 866.00
30.1802 863.00
30.2454 888.00
30.3106 889.00
30.3758 863.00
30.441 904.00
30.5062 961.00
30.5714 976.00
30.6366 1164.00
30.7018 1451.00
30.767 2320.00
30.8322 2269.00
30.8974 1563.00
30.9626 973.00
31.0278 864.00
31.093 908.00
31.1582 974.00
31.2234 955.00
31.2886 995.00
31.3538 1032.00
31.419 1129.00
31.4842 1486.00
31.5494 2406.00
31.6146 4792.00
31.6798 9374.00
31.745 14279.00
31.8102 8264.00
31.8754 3260.00
31.9406 1382.00
32.0058 1088.00
32.071 982.00
32.1362 912.00
32.2014 865.00
32.2666 821.00
32.3318 783.00
32.397 828.00
32.4622 794.00
32.5274 809.00
32.5926 783.00
32.6578 797.00
32.723 814.00
32.7882 756.00
32.8534 814.00
32.9186 789.00
32.9838 801.00
33.0489 754.00
33.1141 858.00
33.1793 831.00
33.2445 868.00
33.3097 875.00
33.3749 977.00
33.4401 946.00
33.5053 893.00
33.5705 898.00
33.6357 881.00
33.7009 979.00
33.7661 1075.00
33.8313 1396.00
33.8965 1719.00
33.9617 2264.00
34.0269 2634.00
34.0921 3416.00
34.1573 3976.00
34.2225 3812.00
34.2877 2884.00
34.3529 2361.00
34.4181 2325.00
34.4833 2366.00
34.5485 3426.00
34.6137 7198.00
34.6789 13382.00
34.7441 10611.00
34.8093 5769.00
34.8745 2213.00
34.9397 1344.00
35.0049 1162.00
35.0701 1067.00
35.1353 1001.00
35.2005 887.00
35.2657 861.00
35.3309 855.00
35.3961 953.00
35.4613 1168.00
35.5265 1294.00
35.5917 1412.00
35.6569 1135.00
35.7221 909.00
35.7873 749.00
35.8525 749.00
35.9177 706.00
35.9829 745.00
36.0481 837.00
36.1133 843.00
36.1785 897.00
36.2437 960.00
36.3089 932.00
36.3741 877.00
36.4393 758.00
36.5045 809.00
36.5697 731.00
36.6349 719.00
36.7001 663.00
36.7653 685.00
36.8305 707.00
36.8957 701.00
36.9609 698.00
37.0261 678.00
37.0913 583.00
37.1565 631.00
37.2217 673.00
37.2869 662.00
37.3521 743.00
37.4173 681.00
37.4825 727.00
37.5477 763.00
37.6129 790.00
37.6781 632.00
37.7433 672.00
37.8085 649.00
37.8736 682.00
37.9388 784.00
38.004 789.00
38.0692 938.00
38.1344 1128.00
38.1996 1303.00
38.2648 1333.00
38.33 1171.00
38.3952 1036.00
38.4604 881.00
38.5256 805.00
38.5908 734.00
38.656 665.00
38.7212 684.00
38.7864 654.00
38.8516 617.00
38.9168 607.00
38.982 637.00
39.0472 659.00
39.1124 637.00
39.1776 765.00
39.2428 840.00
39.308 766.00
39.3732 733.00
39.4384 719.00
39.5036 687.00
39.5688 657.00
39.634 640.00
39.6992 627.00
39.7644 654.00
39.8296 639.00
39.8948 672.00
39.96 722.00
40.0252 777.00
40.0904 900.00
40.1556 1320.00
40.2208 1458.00
40.286 1345.00
40.3512 1566.00
40.4164 1633.00
40.4816 1161.00
40.5468 894.00
40.612 622.00
40.6772 621.00
40.7424 609.00
40.8076 582.00
40.8728 585.00
40.938 606.00
41.0032 553.00
41.0684 610.00
41.1336 566.00
41.1988 583.00
41.264 582.00
41.3292 569.00
41.3944 546.00
41.4596 575.00
41.5248 571.00
41.59 592.00
41.6552 536.00
41.7204 595.00
41.7856 610.00
41.8508 647.00
41.916 567.00
41.9812 713.00
42.0464 1072.00
42.1116 1782.00
42.1768 1750.00
42.242 1525.00
42.3072 1095.00
42.3724 979.00
42.4376 803.00
42.5028 727.00
42.568 756.00
42.6332 882.00
42.6983 987.00
42.7635 1311.00
42.8287 1640.00
42.8939 1378.00
42.9591 1504.00
43.0243 1407.00
43.0895 1033.00
43.1547 865.00
43.2199 601.00
43.2851 565.00
43.3503 583.00
43.4155 574.00
43.4807 526.00
43.5459 572.00
43.6111 635.00
43.6763 558.00
43.7415 560.00
43.8067 567.00
43.8719 532.00
43.9371 562.00
44.0023 540.00
44.0675 580.00
44.1327 679.00
44.1979 607.00
44.2631 596.00
44.3283 550.00
44.3935 486.00
44.4587 523.00
44.5239 526.00
44.5891 580.00
44.6543 573.00
44.7195 604.00
44.7847 540.00
44.8499 584.00
44.9151 661.00
44.9803 820.00
45.0455 1099.00
45.1107 1848.00
45.1759 3672.00
45.2411 3486.00
45.3063 4527.00
45.3715 2887.00
45.4367 2063.00
45.5019 1068.00
45.5671 732.00
45.6323 603.00
45.6975 551.00
45.7627 563.00
45.8279 560.00
45.8931 542.00
45.9583 549.00
46.0235 593.00
46.0887 566.00
46.1539 523.00
46.2191 530.00
46.2843 485.00
46.3495 562.00
46.4147 566.00
46.4799 540.00
46.5451 579.00
46.6103 540.00
46.6755 625.00
46.7407 668.00
46.8059 639.00
46.8711 678.00
46.9363 889.00
47.0015 802.00
47.0667 829.00
47.1319 752.00
47.1971 668.00
47.2623 725.00
47.3275 839.00
47.3927 1169.00
47.4579 2452.00
47.523 5160.00
47.5882 5395.00
47.6534 4062.00
47.7186 3702.00
47.7838 1806.00
47.849 1355.00
47.9142 937.00
47.9794 678.00
48.0446 632.00
48.1098 562.00
48.175 573.00
48.2402 551.00
48.3054 567.00
48.3706 548.00
48.4358 565.00
48.501 591.00
48.5662 499.00
48.6314 561.00
48.6966 487.00
48.7618 531.00
48.827 498.00
48.8922 522.00
48.9574 499.00
49.0226 501.00
49.0878 474.00
49.153 481.00
49.2182 466.00
49.2834 503.00
49.3486 522.00
49.4138 490.00
49.479 470.00
49.5442 484.00
49.6094 524.00
49.6746 754.00
49.7398 956.00
49.805 725.00
49.8702 743.00
49.9354 728.00
50.0006 777.00
50.0658 967.00
50.131 892.00
50.1962 988.00
50.2614 817.00
50.3266 702.00
50.3918 581.00
50.457 500.00
50.5222 513.00
50.5874 478.00
50.6526 514.00
50.7178 505.00
50.783 480.00
50.8482 513.00
50.9134 503.00
50.9786 467.00
51.0438 476.00
51.109 487.00
51.1742 498.00
51.2394 574.00
51.3046 674.00
51.3698 828.00
51.435 1300.00
51.5002 918.00
51.5654 849.00
51.6306 814.00
51.6958 695.00
51.761 808.00
51.8262 1235.00
51.8914 1941.00
51.9566 2798.00
52.0218 3877.00
52.087 5308.00
52.1522 4147.00
52.2174 3264.00
52.2826 2367.00
52.3477 1362.00
52.4129 980.00
52.4781 800.00
52.5433 600.00
52.6085 591.00
52.6737 574.00
52.7389 486.00
52.8041 518.00
52.8693 456.00
52.9345 514.00
52.9997 508.00
53.0649 475.00
53.1301 455.00
53.1953 502.00
53.2605 510.00
53.3257 518.00
53.3909 534.00
53.4561 528.00
53.5213 548.00
53.5865 605.00
53.6517 643.00
53.7169 758.00
53.7821 872.00
53.8473 1513.00
53.9125 3471.00
53.9777 4552.00
54.0429 3276.00
54.1081 3782.00
54.1733 2107.00
54.2385 1689.00
54.3037 1160.00
54.3689 924.00
54.4341 702.00
54.4993 610.00
54.5645 619.00
54.6297 617.00
54.6949 626.00
54.7601 584.00
54.8253 585.00
54.8905 657.00
54.9557 820.00
55.0209 961.00
55.0861 949.00
55.1513 918.00
55.2165 814.00
55.2817 724.00
55.3469 666.00
55.4121 718.00
55.4773 831.00
55.5425 894.00
55.6077 740.00
55.6729 657.00
55.7381 571.00
55.8033 567.00
55.8685 481.00
55.9337 478.00
55.9989 448.00
56.0641 503.00
56.1293 424.00
56.1945 450.00
56.2597 451.00
56.3249 464.00
56.3901 453.00
56.4553 412.00
56.5205 471.00
56.5857 421.00
56.6509 434.00
56.7161 431.00
56.7813 454.00
56.8465 440.00
56.9117 482.00
56.9769 485.00
57.042 466.00
57.1073 486.00
57.1724 479.00
57.2376 473.00
57.3028 408.00
57.368 472.00
57.4332 432.00
57.4984 436.00
57.5636 453.00
57.6288 440.00
57.694 467.00
57.7592 477.00
57.8244 483.00
57.8896 537.00
57.9548 567.00
58.02 770.00
58.0852 1004.00
58.1504 1047.00
58.2156 833.00
58.2808 839.00
58.346 690.00
58.4112 505.00
58.4764 538.00
58.5416 474.00
58.6068 446.00
58.672 440.00
58.7372 459.00
58.8024 460.00
58.8676 413.00
58.9328 477.00
58.998 389.00
59.0632 474.00
59.1284 432.00
59.1936 403.00
59.2588 445.00
59.324 448.00
59.3892 443.00
59.4544 460.00
59.5196 551.00
59.5848 557.00
59.65 550.00
59.7152 619.00
59.7804 608.00
59.8456 878.00
59.9108 1428.00
59.976 3277.00
60.0412 4008.00
60.1064 3161.00
60.1716 4126.00
60.2368 2302.00
60.302 2027.00
60.3672 1991.00
60.4324 1371.00
60.4976 974.00
60.5628 925.00
60.628 626.00
60.6932 532.00
60.7584 480.00
60.8236 454.00
60.8888 442.00
60.954 445.00
61.0192 407.00
61.0844 443.00
61.1496 463.00
61.2148 415.00
61.28 443.00
61.3452 424.00
61.4104 439.00
61.4756 531.00
61.5408 510.00
61.606 522.00
61.6712 629.00
61.7364 914.00
61.8016 1764.00
61.8667 2380.00
61.932 1913.00
61.9971 2283.00
62.0623 1919.00
62.1275 1692.00
62.1927 1529.00
62.2579 1151.00
62.3231 1091.00
62.3883 889.00
62.4535 753.00
62.5187 648.00
62.5839 539.00
62.6491 543.00
62.7143 560.00
62.7795 590.00
62.8447 591.00
62.9099 534.00
62.9751 515.00
63.0403 503.00
63.1055 529.00
63.1707 437.00
63.2359 509.00
63.3011 526.00
63.3663 579.00
63.4315 652.00
63.4967 697.00
63.5619 673.00
63.6271 601.00
63.6923 664.00
63.7575 641.00
63.8227 643.00
63.8879 954.00
63.9531 1151.00
64.0183 907.00
64.0835 1206.00
64.1487 1402.00
64.2139 1029.00
64.2791 826.00
64.3443 786.00
64.4095 595.00
64.4747 477.00
64.5399 478.00
64.6051 472.00
64.6703 490.00
64.7355 438.00
64.8007 553.00
64.8659 676.00
64.9311 720.00
64.9963 771.00
65.0615 701.00
65.1267 753.00
65.1919 676.00
65.2571 568.00
65.3223 575.00
65.3875 575.00
65.4527 577.00
65.5179 720.00
65.5831 1179.00
65.6483 1035.00
65.7135 879.00
65.7787 1062.00
65.8439 1068.00
65.9091 936.00
65.9743 894.00
66.0395 972.00
66.1047 917.00
66.1699 914.00
66.2351 824.00
66.3003 871.00
66.3655 796.00
66.4307 703.00
66.4959 676.00
66.561 575.00
66.6263 567.00
66.6915 499.00
66.7566 490.00
66.8218 505.00
66.887 560.00
66.9522 753.00
67.0174 630.00
67.0826 598.00
67.1478 654.00
67.213 539.00
67.2782 557.00
67.3434 628.00
67.4086 758.00
67.4738 1026.00
67.539 1150.00
67.6042 1573.00
67.6694 1256.00
67.7346 1292.00
67.7998 1812.00
67.865 1271.00
67.9302 904.00
67.9954 910.00
68.0606 749.00
68.1258 500.00
68.191 441.00
68.2562 411.00
68.3214 391.00
68.3866 408.00
68.4518 405.00
68.517 397.00
68.5822 396.00
68.6474 391.00
68.7126 421.00
68.7778 409.00
68.843 401.00
68.9082 460.00
68.9734 467.00
69.0386 463.00
69.1038 577.00
69.169 1052.00
69.2342 1414.00
69.2994 939.00
69.3646 887.00
69.4298 974.00
69.495 646.00
69.5602 489.00
69.6254 457.00
69.6906 512.00
69.7558 430.00
69.821 472.00
69.8862 505.00
69.9514 453.00
70.0166 401.00
70.0818 387.00
70.147 369.00
70.2122 357.00
70.2774 377.00
70.3426 372.00
70.4078 403.00
70.473 412.00
70.5382 530.00
70.6034 568.00
70.6686 493.00
70.7338 506.00
70.799 523.00
70.8642 499.00
70.9294 495.00
70.9946 455.00
71.0598 404.00
71.125 426.00
71.1902 410.00
71.2554 411.00
71.3205 450.00
71.3858 494.00
71.451 460.00
71.5162 532.00
71.5813 574.00
71.6465 535.00
71.7117 523.00
71.7769 473.00
71.8421 451.00
71.9073 463.00
71.9725 437.00
72.0377 423.00
72.1029 408.00
72.1681 352.00
72.2333 355.00
72.2985 432.00
72.3637 422.00
72.4289 399.00
72.4941 416.00
72.5593 496.00
72.6245 710.00
72.6897 1432.00
72.7549 1365.00
72.8201 926.00
72.8853 984.00
72.9505 992.00
73.0157 723.00
73.0809 522.00
73.1461 473.00
73.2113 482.00
73.2765 465.00
73.3417 464.00
73.4069 394.00
73.4721 384.00
73.5373 400.00
73.6025 400.00
73.6677 353.00
73.7329 321.00
73.7981 355.00
73.8633 358.00
73.9285 371.00
73.9937 407.00
74.0589 491.00
74.1241 521.00
74.1893 506.00
74.2545 481.00
74.3197 481.00
74.3849 518.00
74.4501 500.00
74.5153 519.00
74.5805 527.00
74.6457 664.00
74.7109 713.00
74.7761 796.00
74.8413 1142.00
74.9065 1018.00
74.9717 757.00
75.0369 739.00
75.1021 745.00
75.1673 501.00
75.2325 404.00
75.2977 398.00
75.3629 367.00
75.4281 355.00
75.4933 367.00
75.5585 301.00
75.6237 355.00
75.6889 343.00
75.7541 327.00
75.8193 322.00
75.8845 400.00
75.9497 382.00
76.0149 403.00
76.0801 569.00
76.1452 1047.00
76.2104 1120.00
76.2756 781.00
76.3409 704.00
76.406 856.00
76.4712 684.00
76.5364 502.00
76.6016 458.00
76.6668 526.00
76.732 520.00
76.7972 452.00
76.8624 421.00
76.9276 406.00
76.9928 351.00
77.058 345.00
77.1232 348.00
77.1884 319.00
77.2536 332.00
77.3188 364.00
77.384 369.00
77.4492 408.00
77.5144 364.00
77.5796 374.00
77.6448 404.00
77.71 422.00
77.7752 426.00
77.8404 448.00
77.9056 520.00
77.9708 599.00
78.036 715.00
78.1012 830.00
78.1664 662.00
78.2316 651.00
78.2968 708.00
78.362 657.00
78.4272 554.00
78.4924 612.00
78.5576 631.00
78.6228 576.00
78.688 536.00
78.7532 581.00
78.8184 630.00
78.8836 607.00
78.9488 644.00
79.014 601.00
79.0792 574.00
79.1444 601.00
79.2096 521.00
79.2748 483.00
79.34 435.00
79.4052 428.00
79.4704 404.00
79.5356 343.00
79.6008 365.00
79.666 375.00
79.7312 341.00
79.7964 378.00
79.8616 327.00
79.9268 335.00
79.992 372.00
80.0572 382.00
80.1224 396.00
80.1876 404.00
80.2528 403.00
80.318 363.00
80.3832 377.00
80.4484 374.00
80.5136 329.00
80.5788 337.00
80.644 344.00
80.7092 364.00
80.7744 379.00
80.8396 369.00
80.9048 412.00
80.9699 372.00
81.0351 416.00
81.1003 482.00
81.1655 540.00
81.2307 662.00
81.2959 1057.00
81.3611 1371.00
81.4263 1017.00
81.4915 965.00
81.5567 1119.00
81.6219 1253.00
81.6871 1206.00
81.7523 812.00
81.8175 683.00
81.8827 691.00
81.9479 682.00
82.0131 540.00
82.0783 468.00
82.1435 418.00
82.2087 360.00
82.2739 404.00
82.3391 330.00
82.4043 339.00
82.4695 357.00
82.5347 296.00
82.5999 364.00
82.6651 389.00
82.7303 374.00
82.7955 370.00
82.8607 427.00
82.9259 580.00
82.9911 839.00
83.0563 914.00
83.1215 793.00
83.1867 668.00
83.2519 773.00
83.3171 705.00
83.3823 589.00
83.4475 559.00
83.5127 515.00
83.5779 499.00
83.6431 423.00
83.7083 479.00
83.7735 526.00
83.8387 449.00
83.9039 511.00
83.9691 517.00
84.0343 502.00
84.0995 496.00
84.1647 514.00
84.2299 529.00
84.2951 474.00
84.3603 491.00
84.4255 547.00
84.4907 540.00
84.5559 445.00
84.6211 468.00
84.6863 432.00
84.7515 473.00
84.8167 376.00
84.8819 392.00
84.9471 370.00
85.0123 359.00
85.0775 321.00
85.1427 316.00
85.2079 308.00
85.2731 333.00
85.3383 345.00
85.4035 297.00
85.4687 331.00
85.5339 283.00
85.5991 324.00
85.6643 326.00
85.7295 312.00
85.7946 295.00
85.8598 322.00
85.925 330.00
85.9903 316.00
86.0554 359.00
86.1206 336.00
86.1858 360.00
86.251 381.00
86.3162 465.00
86.3814 387.00
86.4466 372.00
86.5118 366.00
86.577 413.00
86.6422 375.00
86.7074 364.00
86.7726 372.00
86.8378 338.00
86.903 346.00
86.9682 310.00
87.0334 351.00
87.0986 344.00
87.1638 331.00
87.229 376.00
87.2942 444.00
87.3594 461.00
87.4246 419.00
87.4898 435.00
87.555 436.00
87.6202 457.00
87.6854 466.00
87.7506 476.00
87.8158 439.00
87.881 453.00
87.9462 518.00
88.0114 564.00
88.0766 633.00
88.1418 907.00
88.207 932.00
88.2722 695.00
88.3374 756.00
88.4026 829.00
88.4678 871.00
88.533 709.00
88.5982 746.00
88.6634 688.00
88.7286 583.00
88.7938 473.00
88.859 489.00
88.9242 423.00
88.9894 386.00
89.0546 375.00
89.1198 342.00
89.185 382.00
89.2502 345.00
89.3154 333.00
89.3806 398.00
89.4458 348.00
89.511 403.00
89.5762 444.00
89.6414 573.00
89.7066 642.00
89.7718 680.00
89.837 623.00
89.9022 624.00
89.9674 674.00
90.0326 661.00
90.0978 683.00
90.163 673.00
90.2282 597.00
90.2934 581.00
90.3586 618.00
90.4238 644.00
90.489 603.00
90.5542 531.00
90.6193 470.00
90.6845 539.00
90.7497 547.00
90.8149 537.00
90.8801 513.00
90.9453 529.00
91.0105 522.00
91.0757 590.00
91.1409 575.00
91.2061 632.00
91.2713 641.00
91.3365 771.00
91.4017 775.00
91.4669 682.00
91.5321 679.00
91.5973 717.00
91.6625 891.00
91.7277 845.00
91.7929 616.00
91.8581 530.00
91.9233 531.00
91.9885 581.00
92.0537 476.00
92.1189 419.00
92.1841 361.00
92.2493 362.00
92.3145 342.00
92.3797 321.00
92.4449 325.00
92.5101 333.00
92.5753 347.00
92.6405 326.00
92.7057 329.00
92.7709 355.00
92.8361 361.00
92.9013 435.00
92.9665 650.00
93.0317 716.00
93.0969 526.00
93.1621 524.00
93.2273 586.00
93.2925 700.00
93.3577 567.00
93.4229 520.00
93.4881 532.00
93.5533 521.00
93.6185 516.00
93.6837 494.00
93.7489 494.00
93.8141 488.00
93.8793 481.00
93.9445 420.00
94.0097 390.00
94.0749 478.00
94.1401 402.00
94.2053 387.00
94.2705 410.00
94.3357 369.00
94.4009 334.00
94.4661 339.00
94.5313 403.00
94.5965 447.00
94.6617 413.00
94.7269 470.00
94.7921 569.00
94.8573 670.00
94.9225 672.00
94.9877 759.00
95.0529 857.00
95.1181 703.00
95.1833 590.00
95.2485 546.00
95.3137 574.00
95.3789 529.00
95.444 394.00
95.5092 362.00
95.5744 371.00
95.6396 350.00
95.7048 340.00
95.77 364.00
95.8352 364.00
95.9004 419.00
95.9656 417.00
96.0308 375.00
96.096 454.00
96.1612 489.00
96.2264 549.00
96.2916 654.00
96.3568 797.00
96.422 826.00
96.4872 756.00
96.5524 603.00
96.6176 650.00
96.6828 555.00
96.748 615.00
96.8132 570.00
96.8784 533.00
96.9436 515.00
97.0088 479.00
97.074 580.00
97.1392 538.00
97.2044 522.00
97.2696 466.00
97.3348 397.00
97.4 468.00
97.4652 412.00
97.5304 391.00
97.5956 357.00
97.6608 412.00
97.726 382.00
97.7912 385.00
97.8564 319.00
97.9216 318.00
97.9868 369.00
98.052 323.00
98.1172 379.00
98.1824 364.00
98.2476 340.00
98.3128 344.00
98.378 348.00
98.4432 330.00
98.5084 370.00
98.5736 312.00
98.6388 373.00
98.704 297.00
98.7692 315.00
98.8344 326.00
98.8996 323.00
98.9648 296.00
99.03 305.00
99.0952 329.00
99.1604 301.00
99.2256 308.00
99.2908 290.00
99.356 339.00
99.4212 323.00
99.4864 306.00
99.5516 316.00
99.6168 318.00
99.682 366.00
99.7472 394.00
99.8124 362.00
99.8776 381.00
99.9428 353.00
100.008 380.00
100.073 362.00
100.095 418.00