File: data/xrd_creation/results/NSC_207.xy
9.903433 3098.00
9.968632 3029.00
10.0338 2992.00
10.099 2953.00
10.1642 2898.00
10.2294 3028.00
10.2946 2898.00
10.3598 2944.00
10.425 2903.00
10.4902 2890.00
10.5554 2723.00
10.6206 2865.00
10.6858 2917.00
10.751 2740.00
10.8162 2777.00
10.8814 2725.00
10.9466 2766.00
11.0118 2843.00
11.077 2717.00
11.1422 2749.00
11.2074 2732.00
11.2726 2739.00
11.3378 2722.00
11.403 2685.00
11.4682 2767.00
11.5334 2604.00
11.5986 2662.00
11.6638 2564.00
11.729 2657.00
11.7942 2538.00
11.8594 2591.00
11.9246 2547.00
11.9898 2416.00
12.055 2656.00
12.1202 2580.00
12.1854 2462.00
12.2506 2504.00
12.3158 2369.00
12.381 2553.00
12.4462 2460.00
12.5114 2361.00
12.5766 2454.00
12.6418 2413.00
12.707 2449.00
12.7722 2438.00
12.8374 2488.00
12.9026 2398.00
12.9678 2420.00
13.033 2394.00
13.0982 2332.00
13.1634 2398.00
13.2286 2366.00
13.2938 2318.00
13.359 2375.00
13.4242 2320.00
13.4894 2328.00
13.5546 2318.00
13.6198 2286.00
13.685 2294.00
13.7502 2252.00
13.8154 2308.00
13.8805 2314.00
13.9457 2313.00
14.0109 2327.00
14.0761 2238.00
14.1413 2232.00
14.2065 2198.00
14.2717 2269.00
14.3369 2246.00
14.4021 2238.00
14.4673 2218.00
14.5325 2213.00
14.5977 2294.00
14.6629 2237.00
14.7281 2267.00
14.7933 2264.00
14.8585 2251.00
14.9237 2159.00
14.9889 2094.00
15.0541 2250.00
15.1193 2046.00
15.1845 2167.00
15.2497 2170.00
15.3149 2154.00
15.3801 2237.00
15.4453 2253.00
15.5105 2273.00
15.5757 2106.00
15.6409 2248.00
15.7061 2155.00
15.7713 2109.00
15.8365 2185.00
15.9017 2143.00
15.9669 2152.00
16.0321 2145.00
16.0973 2087.00
16.1625 2145.00
16.2277 2185.00
16.2929 2076.00
16.3581 2135.00
16.4233 2171.00
16.4885 2089.00
16.5537 2069.00
16.6189 2112.00
16.6841 2168.00
16.7493 2082.00
16.8145 2125.00
16.8797 2128.00
16.9449 2028.00
17.0101 2024.00
17.0753 2090.00
17.1405 2054.00
17.2057 2136.00
17.2709 2133.00
17.3361 2123.00
17.4013 2132.00
17.4665 2275.00
17.5317 2218.00
17.5969 2459.00
17.6621 2682.00
17.7273 3079.00
17.7925 3295.00
17.8577 3267.00
17.9229 2773.00
17.9881 2360.00
18.0533 2211.00
18.1185 2092.00
18.1837 2035.00
18.2489 2079.00
18.3141 2045.00
18.3793 1988.00
18.4445 2055.00
18.5097 2091.00
18.5749 2038.00
18.6401 2085.00
18.7052 1975.00
18.7704 2027.00
18.8356 1927.00
18.9008 1993.00
18.966 1973.00
19.0312 2084.00
19.0964 2015.00
19.1616 2107.00
19.2268 1988.00
19.292 2069.00
19.3572 1986.00
19.4224 1961.00
19.4876 1975.00
19.5528 2029.00
19.618 2072.00
19.6832 1925.00
19.7484 1974.00
19.8136 2054.00
19.8788 2010.00
19.944 1968.00
20.0092 2102.00
20.0744 2113.00
20.1396 2155.00
20.2048 2421.00
20.27 2628.00
20.3352 2766.00
20.4004 3052.00
20.4656 2749.00
20.5308 2306.00
20.596 2175.00
20.6612 2111.00
20.7264 2103.00
20.7916 2051.00
20.8568 2116.00
20.922 2171.00
20.9872 2207.00
21.0524 2139.00
21.1176 2272.00
21.1828 2069.00
21.248 2037.00
21.3132 1958.00
21.3784 1992.00
21.4436 1903.00
21.5088 1939.00
21.574 1877.00
21.6392 1924.00
21.7044 1830.00
21.7696 1847.00
21.8348 1848.00
21.9 1905.00
21.9652 1938.00
22.0304 1877.00
22.0956 1888.00
22.1608 1897.00
22.226 1821.00
22.2912 1896.00
22.3564 1854.00
22.4216 1820.00
22.4868 1900.00
22.552 1912.00
22.6172 1874.00
22.6824 1876.00
22.7476 1821.00
22.8128 1838.00
22.878 1812.00
22.9432 1790.00
23.0084 1752.00
23.0736 1916.00
23.1388 1757.00
23.204 1831.00
23.2692 1879.00
23.3344 1861.00
23.3996 1910.00
23.4647 1838.00
23.5299 1842.00
23.5951 1801.00
23.6603 1797.00
23.7255 1884.00
23.7907 1884.00
23.8559 1858.00
23.9211 1943.00
23.9863 1993.00
24.0515 1998.00
24.1167 2180.00
24.1819 2548.00
24.2471 2972.00
24.3123 3857.00
24.3775 4637.00
24.4427 5295.00
24.5079 5532.00
24.5731 4364.00
24.6383 3541.00
24.7035 3451.00
24.7687 3828.00
24.8339 4296.00
24.8991 4605.00
24.9643 3998.00
25.0295 2827.00
25.0947 2218.00
25.1599 2011.00
25.2251 1902.00
25.2903 1957.00
25.3555 1736.00
25.4207 1793.00
25.4859 1739.00
25.5511 1825.00
25.6163 1702.00
25.6815 1767.00
25.7467 1775.00
25.8119 1805.00
25.8771 1775.00
25.9423 1652.00
26.0075 1799.00
26.0727 1719.00
26.1379 1875.00
26.2031 1750.00
26.2683 1799.00
26.3335 1666.00
26.3987 1724.00
26.4639 1759.00
26.5291 1792.00
26.5943 1951.00
26.6595 1990.00
26.7247 1979.00
26.7899 2000.00
26.8551 1780.00
26.9203 1733.00
26.9855 1764.00
27.0507 1744.00
27.1159 1667.00
27.1811 1704.00
27.2463 1725.00
27.3115 1821.00
27.3767 1788.00
27.4419 1703.00
27.5071 1839.00
27.5723 1764.00
27.6375 1918.00
27.7027 1848.00
27.7679 2033.00
27.8331 2032.00
27.8983 2242.00
27.9635 2266.00
28.0287 2520.00
28.0939 2680.00
28.1591 2979.00
28.2243 3535.00
28.2894 4804.00
28.3546 6911.00
28.4198 10839.00
28.485 15731.00
28.5502 19027.00
28.6154 22238.00
28.6806 20077.00
28.7458 13466.00
28.811 7400.00
28.8762 5048.00
28.9414 3728.00
29.0066 3116.00
29.0718 2711.00
29.137 2395.00
29.2022 2200.00
29.2674 2216.00
29.3326 2077.00
29.3978 1966.00
29.463 1975.00
29.5282 1956.00
29.5934 1838.00
29.6586 1849.00
29.7238 1868.00
29.789 1825.00
29.8542 1850.00
29.9194 1734.00
29.9846 1780.00
30.0498 1797.00
30.115 1700.00
30.1802 1690.00
30.2454 1806.00
30.3106 1797.00
30.3758 1859.00
30.441 1971.00
30.5062 1797.00
30.5714 1728.00
30.6366 1856.00
30.7018 1818.00
30.767 1703.00
30.8322 1793.00
30.8974 1793.00
30.9626 1913.00
31.0278 1979.00
31.093 2060.00
31.1582 2009.00
31.2234 2198.00
31.2886 2158.00
31.3538 2433.00
31.419 2637.00
31.4842 2938.00
31.5494 3510.00
31.6146 4614.00
31.6798 6619.00
31.745 9249.00
31.8102 11665.00
31.8754 14085.00
31.9406 16672.00
32.0058 14687.00
32.071 9824.00
32.1362 5705.00
32.2014 3947.00
32.2666 3012.00
32.3318 2496.00
32.397 2221.00
32.4622 1997.00
32.5274 1994.00
32.5926 1824.00
32.6578 1783.00
32.723 1872.00
32.7882 1772.00
32.8534 1974.00
32.9186 2099.00
32.9838 2285.00
33.0489 2285.00
33.1141 2037.00
33.1793 1804.00
33.2445 1898.00
33.3097 2015.00
33.3749 2271.00
33.4401 2538.00
33.5053 2378.00
33.5705 2123.00
33.6357 1902.00
33.7009 1763.00
33.7661 1769.00
33.8313 1668.00
33.8965 1803.00
33.9617 1819.00
34.0269 1963.00
34.0921 1990.00
34.1573 2132.00
34.2225 2379.00
34.2877 2775.00
34.3529 3329.00
34.4181 4353.00
34.4833 5328.00
34.5485 6554.00
34.6137 7882.00
34.6789 7484.00
34.7441 6449.00
34.8093 5743.00
34.8745 6290.00
34.9397 6009.00
35.0049 4572.00
35.0701 3261.00
35.1353 2399.00
35.2005 2189.00
35.2657 2058.00
35.3309 1996.00
35.3961 2126.00
35.4613 2259.00
35.5265 2856.00
35.5917 3340.00
35.6569 3774.00
35.7221 4863.00
35.7873 6277.00
35.8525 5922.00
35.9177 4342.00
35.9829 2835.00
36.0481 2140.00
36.1133 2134.00
36.1785 2169.00
36.2437 2294.00
36.3089 2473.00
36.3741 2725.00
36.4393 2461.00
36.5045 2110.00
36.5697 1710.00
36.6349 1556.00
36.7001 1543.00
36.7653 1467.00
36.8305 1422.00
36.8957 1464.00
36.9609 1376.00
37.0261 1436.00
37.0913 1383.00
37.1565 1390.00
37.2217 1407.00
37.2869 1350.00
37.3521 1445.00
37.4173 1366.00
37.4825 1415.00
37.5477 1352.00
37.6129 1460.00
37.6781 1352.00
37.7433 1350.00
37.8085 1386.00
37.8736 1327.00
37.9388 1238.00
38.004 1299.00
38.0692 1260.00
38.1344 1235.00
38.1996 1378.00
38.2648 1478.00
38.33 1552.00
38.3952 1476.00
38.4604 1383.00
38.5256 1319.00
38.5908 1433.00
38.656 1600.00
38.7212 1694.00
38.7864 1910.00
38.8516 2062.00
38.9168 2174.00
38.982 2455.00
39.0472 3003.00
39.1124 2857.00
39.1776 2460.00
39.2428 1981.00
39.308 1715.00
39.3732 1537.00
39.4384 1390.00
39.5036 1373.00
39.5688 1330.00
39.634 1401.00
39.6992 1334.00
39.7644 1373.00
39.8296 1277.00
39.8948 1298.00
39.96 1372.00
40.0252 1336.00
40.0904 1320.00
40.1556 1375.00
40.2208 1394.00
40.286 1370.00
40.3512 1458.00
40.4164 1430.00
40.4816 1453.00
40.5468 1484.00
40.612 1441.00
40.6772 1457.00
40.7424 1499.00
40.8076 1592.00
40.8728 1798.00
40.938 2084.00
41.0032 2422.00
41.0684 2697.00
41.1336 3026.00
41.1988 3442.00
41.264 3781.00
41.3292 3628.00
41.3944 3189.00
41.4596 2599.00
41.5248 2414.00
41.59 2432.00
41.6552 2682.00
41.7204 2618.00
41.7856 2431.00
41.8508 2291.00
41.916 2187.00
41.9812 1923.00
42.0464 1725.00
42.1116 1614.00
42.1768 1386.00
42.242 1406.00
42.3072 1282.00
42.3724 1252.00
42.4376 1241.00
42.5028 1224.00
42.568 1232.00
42.6332 1269.00
42.6983 1288.00
42.7635 1174.00
42.8287 1218.00
42.8939 1200.00
42.9591 1240.00
43.0243 1200.00
43.0895 1219.00
43.1547 1226.00
43.2199 1165.00
43.2851 1136.00
43.3503 1189.00
43.4155 1215.00
43.4807 1118.00
43.5459 1128.00
43.6111 1223.00
43.6763 1112.00
43.7415 1195.00
43.8067 1262.00
43.8719 1210.00
43.9371 1257.00
44.0023 1227.00
44.0675 1269.00
44.1327 1237.00
44.1979 1176.00
44.2631 1180.00
44.3283 1218.00
44.3935 1224.00
44.4587 1254.00
44.5239 1242.00
44.5891 1174.00
44.6543 1224.00
44.7195 1329.00
44.7847 1253.00
44.8499 1297.00
44.9151 1472.00
44.9803 1411.00
45.0455 1657.00
45.1107 1820.00
45.1759 1750.00
45.2411 1825.00
45.3063 1927.00
45.3715 2036.00
45.4367 2049.00
45.5019 1856.00
45.5671 1613.00
45.6323 1628.00
45.6975 1605.00
45.7627 1793.00
45.8279 1913.00
45.8931 1950.00
45.9583 2128.00
46.0235 2433.00
46.0887 2297.00
46.1539 2031.00
46.2191 1817.00
46.2843 1476.00
46.3495 1363.00
46.4147 1253.00
46.4799 1252.00
46.5451 1221.00
46.6103 1143.00
46.6755 1179.00
46.7407 1157.00
46.8059 1223.00
46.8711 1108.00
46.9363 1197.00
47.0015 1156.00
47.0667 1103.00
47.1319 1188.00
47.1971 1122.00
47.2623 1184.00
47.3275 1169.00
47.3927 1230.00
47.4579 1205.00
47.523 1331.00
47.5882 1249.00
47.6534 1260.00
47.7186 1231.00
47.7838 1153.00
47.849 1170.00
47.9142 1175.00
47.9794 1175.00
48.0446 1265.00
48.1098 1166.00
48.175 1178.00
48.2402 1162.00
48.3054 1179.00
48.3706 1210.00
48.4358 1213.00
48.501 1223.00
48.5662 1253.00
48.6314 1189.00
48.6966 1193.00
48.7618 1159.00
48.827 1254.00
48.8922 1326.00
48.9574 1225.00
49.0226 1303.00
49.0878 1395.00
49.153 1472.00
49.2182 1536.00
49.2834 1642.00
49.3486 1818.00
49.4138 2163.00
49.479 2578.00
49.5442 3049.00
49.6094 2947.00
49.6746 3147.00
49.7398 3676.00
49.805 4529.00
49.8702 4531.00
49.9354 3797.00
50.0006 2955.00
50.0658 2286.00
50.131 1971.00
50.1962 1942.00
50.2614 2121.00
50.3266 2599.00
50.3918 3198.00
50.457 2887.00
50.5222 3232.00
50.5874 3764.00
50.6526 4994.00
50.7178 5979.00
50.783 5397.00
50.8482 4977.00
50.9134 3730.00
50.9786 3036.00
51.0438 2944.00
51.109 3547.00
51.1742 3275.00
51.2394 2880.00
51.3046 2400.00
51.3698 1996.00
51.435 1868.00
51.5002 1829.00
51.5654 1678.00
51.6306 1750.00
51.6958 1865.00
51.761 2020.00
51.8262 1963.00
51.8914 1824.00
51.9566 1625.00
52.0218 1461.00
52.087 1360.00
52.1522 1279.00
52.2174 1217.00
52.2826 1114.00
52.3477 1177.00
52.4129 1173.00
52.4781 1208.00
52.5433 1165.00
52.6085 1138.00
52.6737 1141.00
52.7389 1125.00
52.8041 1124.00
52.8693 1060.00
52.9345 1048.00
52.9997 1136.00
53.0649 1152.00
53.1301 1127.00
53.1953 1116.00
53.2605 1189.00
53.3257 1112.00
53.3909 1083.00
53.4561 1102.00
53.5213 1218.00
53.5865 1112.00
53.6517 1131.00
53.7169 1206.00
53.7821 1205.00
53.8473 1151.00
53.9125 1276.00
53.9777 1293.00
54.0429 1280.00
54.1081 1338.00
54.1733 1479.00
54.2385 1601.00
54.3037 1782.00
54.3689 2106.00
54.4341 2036.00
54.4993 2128.00
54.5645 2469.00
54.6297 2771.00
54.6949 3225.00
54.7601 3130.00
54.8253 2648.00
54.8905 2275.00
54.9557 1880.00
55.0209 1610.00
55.0861 1572.00
55.1513 1600.00
55.2165 1477.00
55.2817 1553.00
55.3469 1613.00
55.4121 1707.00
55.4773 1813.00
55.5425 2018.00
55.6077 2237.00
55.6729 2551.00
55.7381 2514.00
55.8033 2978.00
55.8685 3640.00
55.9337 4103.00
55.9989 4216.00
56.0641 4092.00
56.1293 3997.00
56.1945 3589.00
56.2597 3017.00
56.3249 2634.00
56.3901 2635.00
56.4553 2681.00
56.5205 2877.00
56.5857 2711.00
56.6509 2412.00
56.7161 2140.00
56.7813 1788.00
56.8465 1522.00
56.9117 1329.00
56.9769 1306.00
57.042 1327.00
57.1073 1348.00
57.1724 1351.00
57.2376 1374.00
57.3028 1496.00
57.368 1640.00
57.4332 1864.00
57.4984 1756.00
57.5636 1774.00
57.6288 1988.00
57.694 2149.00
57.7592 2450.00
57.8244 2512.00
57.8896 2257.00
57.9548 2158.00
58.02 1981.00
58.0852 1886.00
58.1504 1731.00
58.2156 1641.00
58.2808 1647.00
58.346 1819.00
58.4112 2023.00
58.4764 2335.00
58.5416 2454.00
58.6068 2324.00
58.672 2219.00
58.7372 1985.00
58.8024 1888.00
58.8676 2027.00
58.9328 1959.00
58.998 1835.00
59.0632 1707.00
59.1284 1560.00
59.1936 1449.00
59.2588 1419.00
59.324 1303.00
59.3892 1259.00
59.4544 1362.00
59.5196 1312.00
59.5848 1359.00
59.65 1281.00
59.7152 1291.00
59.7804 1355.00
59.8456 1368.00
59.9108 1576.00
59.976 1698.00
60.0412 1895.00
60.1064 1866.00
60.1716 1950.00
60.2368 2141.00
60.302 2437.00
60.3672 2772.00
60.4324 3063.00
60.4976 2934.00
60.5628 2831.00
60.628 2698.00
60.6932 2555.00
60.7584 2124.00
60.8236 1954.00
60.8888 1663.00
60.954 1502.00
61.0192 1391.00
61.0844 1359.00
61.1496 1389.00
61.2148 1297.00
61.28 1314.00
61.3452 1259.00
61.4104 1318.00
61.4756 1418.00
61.5408 1523.00
61.606 1616.00
61.6712 1650.00
61.7364 1637.00
61.8016 1667.00
61.8667 1890.00
61.932 2202.00
61.9971 2312.00
62.0623 2302.00
62.1275 2256.00
62.1927 2227.00
62.2579 2051.00
62.3231 1953.00
62.3883 1985.00
62.4535 2175.00
62.5187 2305.00
62.5839 2489.00
62.6491 2332.00
62.7143 2107.00
62.7795 1926.00
62.8447 1842.00
62.9099 1599.00
62.9751 1711.00
63.0403 1816.00
63.1055 1960.00
63.1707 1942.00
63.2359 1888.00
63.3011 1848.00
63.3663 2076.00
63.4315 2381.00
63.4967 2659.00
63.5619 2613.00
63.6271 2309.00
63.6923 2097.00
63.7575 1795.00
63.8227 1490.00
63.8879 1371.00
63.9531 1242.00
64.0183 1236.00
64.0835 1162.00
64.1487 1159.00
64.2139 1277.00
64.2791 1192.00
64.3443 1212.00
64.4095 1303.00
64.4747 1269.00
64.5399 1370.00
64.6051 1356.00
64.6703 1415.00
64.7355 1472.00
64.8007 1522.00
64.8659 1650.00
64.9311 1719.00
64.9963 1574.00
65.0615 1532.00
65.1267 1387.00
65.1919 1260.00
65.2571 1275.00
65.3223 1185.00
65.3875 1203.00
65.4527 1224.00
65.5179 1267.00
65.5831 1444.00
65.6483 1496.00
65.7135 1458.00
65.7787 1561.00
65.8439 1637.00
65.9091 1775.00
65.9743 2018.00
66.0395 1979.00
66.1047 2041.00
66.1699 2024.00
66.2351 2084.00
66.3003 2225.00
66.3655 2573.00
66.4307 2421.00
66.4959 2213.00
66.561 2100.00
66.6263 1844.00
66.6915 1631.00
66.7566 1371.00
66.8218 1269.00
66.887 1270.00
66.9522 1131.00
67.0174 1060.00
67.0826 1085.00
67.1478 1103.00
67.213 1101.00
67.2782 1016.00
67.3434 945.00
67.4086 981.00
67.4738 1003.00
67.539 1031.00
67.6042 1005.00
67.6694 978.00
67.7346 1006.00
67.7998 1049.00
67.865 1025.00
67.9302 1001.00
67.9954 942.00
68.0606 986.00
68.1258 965.00
68.191 986.00
68.2562 956.00
68.3214 1036.00
68.3866 970.00
68.4518 1054.00
68.517 974.00
68.5822 1021.00
68.6474 1066.00
68.7126 1014.00
68.7778 980.00
68.843 1032.00
68.9082 1012.00
68.9734 1008.00
69.0386 1051.00
69.1038 1133.00
69.169 1149.00
69.2342 1186.00
69.2994 1078.00
69.3646 1198.00
69.4298 1188.00
69.495 1288.00
69.5602 1298.00
69.6254 1427.00
69.6906 1488.00
69.7558 1359.00
69.821 1461.00
69.8862 1301.00
69.9514 1225.00
70.0166 1182.00
70.0818 1168.00
70.147 1120.00
70.2122 1155.00
70.2774 1116.00
70.3426 1167.00
70.4078 1156.00
70.473 1106.00
70.5382 1102.00
70.6034 1080.00
70.6686 1126.00
70.7338 1084.00
70.799 1131.00
70.8642 1139.00
70.9294 1160.00
70.9946 1104.00
71.0598 1054.00
71.125 1150.00
71.1902 1139.00
71.2554 1192.00
71.3205 1284.00
71.3858 1202.00
71.451 1365.00
71.5162 1471.00
71.5813 1529.00
71.6465 1519.00
71.7117 1672.00
71.7769 1847.00
71.8421 1927.00
71.9073 1988.00
71.9725 1873.00
72.0377 1763.00
72.1029 1561.00
72.1681 1469.00
72.2333 1281.00
72.2985 1300.00
72.3637 1287.00
72.4289 1235.00
72.4941 1224.00
72.5593 1233.00
72.6245 1366.00
72.6897 1320.00
72.7549 1378.00
72.8201 1485.00
72.8853 1477.00
72.9505 1357.00
73.0157 1313.00
73.0809 1279.00
73.1461 1284.00
73.2113 1358.00
73.2765 1332.00
73.3417 1285.00
73.4069 1256.00
73.4721 1264.00
73.5373 1183.00
73.6025 1219.00
73.6677 1045.00
73.7329 1026.00
73.7981 984.00
73.8633 1077.00
73.9285 1015.00
73.9937 1001.00
74.0589 1082.00
74.1241 1027.00
74.1893 1087.00
74.2545 1038.00
74.3197 1090.00
74.3849 986.00
74.4501 1060.00
74.5153 965.00
74.5805 980.00
74.6457 1036.00
74.7109 1027.00
74.7761 1026.00
74.8413 1055.00
74.9065 1101.00
74.9717 1142.00
75.0369 1145.00
75.1021 1160.00
75.1673 1212.00
75.2325 1377.00
75.2977 1397.00
75.3629 1517.00
75.4281 1545.00
75.4933 1438.00
75.5585 1424.00
75.6237 1476.00
75.6889 1556.00
75.7541 1565.00
75.8193 1745.00
75.8845 1674.00
75.9497 1504.00
76.0149 1572.00
76.0801 1449.00
76.1452 1274.00
76.2104 1183.00
76.2756 1136.00
76.3409 1103.00
76.406 1079.00
76.4712 1041.00
76.5364 1193.00
76.6016 1160.00
76.6668 1163.00
76.732 1125.00
76.7972 1136.00
76.8624 1100.00
76.9276 1182.00
76.9928 1239.00
77.058 1275.00
77.1232 1305.00
77.1884 1396.00
77.2536 1327.00
77.3188 1221.00
77.384 1310.00
77.4492 1287.00
77.5144 1216.00
77.5796 1218.00
77.6448 1165.00
77.71 1206.00
77.7752 1237.00
77.8404 1150.00
77.9056 1188.00
77.9708 1209.00
78.036 1291.00
78.1012 1299.00
78.1664 1246.00
78.2316 1338.00
78.2968 1274.00
78.362 1229.00
78.4272 1198.00
78.4924 1151.00
78.5576 1195.00
78.6228 1136.00
78.688 1180.00
78.7532 1213.00
78.8184 1169.00
78.8836 1229.00
78.9488 1246.00
79.014 1217.00
79.0792 1175.00
79.1444 1244.00
79.2096 1250.00
79.2748 1129.00
79.34 1238.00
79.4052 1271.00
79.4704 1257.00
79.5356 1280.00
79.6008 1407.00
79.666 1495.00
79.7312 1381.00
79.7964 1320.00
79.8616 1237.00
79.9268 1211.00
79.992 1147.00
80.0572 1095.00
80.1224 1004.00
80.1876 978.00
80.2528 990.00
80.318 957.00
80.3832 980.00
80.4484 979.00
80.5136 1002.00
80.5788 1031.00
80.644 1044.00
80.7092 989.00
80.7744 1019.00
80.8396 1002.00
80.9048 1033.00
80.9699 1022.00
81.0351 1025.00
81.1003 995.00
81.1655 1073.00
81.2307 1102.00
81.2959 1046.00
81.3611 1079.00
81.4263 1115.00
81.4915 1058.00
81.5567 1030.00
81.6219 1060.00
81.6871 1139.00
81.7523 1139.00
81.8175 1128.00
81.8827 1102.00
81.9479 1209.00
82.0131 1192.00
82.0783 1181.00
82.1435 1247.00
82.2087 1284.00
82.2739 1466.00
82.3391 1522.00
82.4043 1436.00
82.4695 1322.00
82.5347 1314.00
82.5999 1245.00
82.6651 1286.00
82.7303 1251.00
82.7955 1229.00
82.8607 1210.00
82.9259 1258.00
82.9911 1217.00
83.0563 1270.00
83.1215 1239.00
83.1867 1284.00
83.2519 1388.00
83.3171 1475.00
83.3823 1508.00
83.4475 1497.00
83.5127 1468.00
83.5779 1412.00
83.6431 1414.00
83.7083 1405.00
83.7735 1455.00
83.8387 1568.00
83.9039 1530.00
83.9691 1466.00
84.0343 1514.00
84.0995 1583.00
84.1647 1441.00
84.2299 1502.00
84.2951 1367.00
84.3603 1399.00
84.4255 1386.00
84.4907 1342.00
84.5559 1306.00
84.6211 1390.00
84.6863 1485.00
84.7515 1533.00
84.8167 1535.00
84.8819 1475.00
84.9471 1510.00
85.0123 1538.00
85.0775 1456.00
85.1427 1376.00
85.2079 1251.00
85.2731 1219.00
85.3383 1239.00
85.4035 1052.00
85.4687 1137.00
85.5339 1216.00
85.5991 1200.00
85.6643 1205.00
85.7295 1279.00
85.7946 1234.00
85.8598 1205.00
85.925 1210.00
85.9903 1141.00
86.0554 1113.00
86.1206 1094.00
86.1858 1053.00
86.251 1038.00
86.3162 1162.00
86.3814 1073.00
86.4466 1021.00
86.5118 1030.00
86.577 1100.00
86.6422 1069.00
86.7074 1107.00
86.7726 1113.00
86.8378 1140.00
86.903 1218.00
86.9682 1113.00
87.0334 1195.00
87.0986 1157.00
87.1638 1091.00
87.229 1134.00
87.2942 1056.00
87.3594 1116.00
87.4246 1054.00
87.4898 1036.00
87.555 1073.00
87.6202 1112.00
87.6854 1111.00
87.7506 1083.00
87.8158 1067.00
87.881 1074.00
87.9462 1018.00
88.0114 1088.00
88.0766 1162.00
88.1418 1261.00
88.207 1331.00
88.2722 1384.00
88.3374 1416.00
88.4026 1387.00
88.4678 1356.00
88.533 1384.00
88.5982 1350.00
88.6634 1329.00
88.7286 1412.00
88.7938 1360.00
88.859 1335.00
88.9242 1371.00
88.9894 1524.00
89.0546 1513.00
89.1198 1363.00
89.185 1488.00
89.2502 1421.00
89.3154 1531.00
89.3806 1502.00
89.4458 1426.00
89.511 1421.00
89.5762 1381.00
89.6414 1365.00
89.7066 1319.00
89.7718 1316.00
89.837 1236.00
89.9022 1238.00
89.9674 1236.00
90.0326 1260.00
90.0978 1319.00
90.163 1313.00
90.2282 1342.00
90.2934 1364.00
90.3586 1234.00
90.4238 1315.00
90.489 1398.00
90.5542 1449.00
90.6193 1403.00
90.6845 1361.00
90.7497 1390.00
90.8149 1349.00
90.8801 1285.00
90.9453 1186.00
91.0105 1219.00
91.0757 1112.00
91.1409 1043.00
91.2061 1064.00
91.2713 1079.00
91.3365 1080.00
91.4017 1096.00
91.4669 1100.00
91.5321 1117.00
91.5973 1085.00
91.6625 1045.00
91.7277 1096.00
91.7929 1110.00
91.8581 1038.00
91.9233 1019.00
91.9885 1102.00
92.0537 1065.00
92.1189 1100.00
92.1841 1126.00
92.2493 1115.00
92.3145 1051.00
92.3797 1084.00
92.4449 1068.00
92.5101 1042.00
92.5753 971.00
92.6405 913.00
92.7057 998.00
92.7709 996.00
92.8361 922.00
92.9013 986.00
92.9665 996.00
93.0317 968.00
93.0969 957.00
93.1621 943.00
93.2273 943.00
93.2925 982.00
93.3577 933.00
93.4229 937.00
93.4881 939.00
93.5533 948.00
93.6185 966.00
93.6837 984.00
93.7489 961.00
93.8141 1046.00
93.8793 1029.00
93.9445 1093.00
94.0097 1017.00
94.0749 1049.00
94.1401 1109.00
94.2053 1059.00
94.2705 1039.00
94.3357 1071.00
94.4009 1068.00
94.4661 1082.00
94.5313 1120.00
94.5965 1053.00
94.6617 1227.00
94.7269 1189.00
94.7921 1206.00
94.8573 1105.00
94.9225 1073.00
94.9877 1138.00
95.0529 1151.00
95.1181 1123.00
95.1833 1125.00
95.2485 1111.00
95.3137 1167.00
95.3789 1142.00
95.444 1142.00
95.5092 1186.00
95.5744 1179.00
95.6396 1183.00
95.7048 1263.00
95.77 1172.00
95.8352 1300.00
95.9004 1313.00
95.9656 1374.00
96.0308 1384.00
96.096 1297.00
96.1612 1323.00
96.2264 1301.00
96.2916 1333.00
96.3568 1342.00
96.422 1303.00
96.4872 1279.00
96.5524 1243.00
96.6176 1253.00
96.6828 1326.00
96.748 1318.00
96.8132 1221.00
96.8784 1300.00
96.9436 1377.00
97.0088 1475.00
97.074 1515.00
97.1392 1454.00
97.2044 1444.00
97.2696 1456.00
97.3348 1542.00
97.4 1652.00
97.4652 1622.00
97.5304 1596.00
97.5956 1586.00
97.6608 1537.00
97.726 1544.00
97.7912 1591.00
97.8564 1503.00
97.9216 1581.00
97.9868 1410.00
98.052 1362.00
98.1172 1345.00
98.1824 1331.00
98.2476 1282.00
98.3128 1246.00
98.378 1241.00
98.4432 1175.00
98.5084 1115.00
98.5736 1135.00
98.6388 1157.00
98.704 1173.00
98.7692 1212.00
98.8344 1272.00
98.8996 1369.00
98.9648 1397.00
99.03 1363.00
99.0952 1350.00
99.1604 1323.00
99.2256 1259.00
99.2908 1375.00
99.356 1317.00
99.4212 1305.00
99.4864 1332.00
99.5516 1444.00
99.6168 1375.00
99.682 1449.00
99.7472 1436.00
99.8124 1350.00
99.8776 1380.00
99.9428 1401.00
100.008 1319.00
100.073 1433.00
100.095 1346.00