File: data/xrd_creation/results/NSC_111.xy
9.903433 2812.00
9.968632 2790.00
10.0338 2689.00
10.099 2738.00
10.1642 2748.00
10.2294 2583.00
10.2946 2612.00
10.3598 2477.00
10.425 2612.00
10.4902 2574.00
10.5554 2573.00
10.6206 2446.00
10.6858 2524.00
10.751 2458.00
10.8162 2479.00
10.8814 2467.00
10.9466 2365.00
11.0118 2455.00
11.077 2321.00
11.1422 2249.00
11.2074 2384.00
11.2726 2199.00
11.3378 2349.00
11.403 2237.00
11.4682 2216.00
11.5334 2224.00
11.5986 2203.00
11.6638 2242.00
11.729 2096.00
11.7942 2106.00
11.8594 2098.00
11.9246 2130.00
11.9898 2079.00
12.055 2005.00
12.1202 2067.00
12.1854 2084.00
12.2506 2032.00
12.3158 2022.00
12.381 1934.00
12.4462 1932.00
12.5114 1903.00
12.5766 1926.00
12.6418 1867.00
12.707 1946.00
12.7722 1970.00
12.8374 1965.00
12.9026 1902.00
12.9678 1882.00
13.033 1860.00
13.0982 1816.00
13.1634 1745.00
13.2286 1792.00
13.2938 1809.00
13.359 1691.00
13.4242 1784.00
13.4894 1754.00
13.5546 1742.00
13.6198 1768.00
13.685 1798.00
13.7502 1711.00
13.8154 1770.00
13.8805 1758.00
13.9457 1782.00
14.0109 1847.00
14.0761 1798.00
14.1413 2000.00
14.2065 2097.00
14.2717 2304.00
14.3369 2463.00
14.4021 2604.00
14.4673 2415.00
14.5325 2100.00
14.5977 1887.00
14.6629 1707.00
14.7281 1651.00
14.7933 1722.00
14.8585 1699.00
14.9237 1615.00
14.9889 1573.00
15.0541 1596.00
15.1193 1562.00
15.1845 1678.00
15.2497 1552.00
15.3149 1521.00
15.3801 1592.00
15.4453 1581.00
15.5105 1577.00
15.5757 1542.00
15.6409 1489.00
15.7061 1576.00
15.7713 1480.00
15.8365 1567.00
15.9017 1528.00
15.9669 1512.00
16.0321 1497.00
16.0973 1556.00
16.1625 1516.00
16.2277 1471.00
16.2929 1487.00
16.3581 1482.00
16.4233 1431.00
16.4885 1437.00
16.5537 1417.00
16.6189 1459.00
16.6841 1491.00
16.7493 1511.00
16.8145 1477.00
16.8797 1397.00
16.9449 1408.00
17.0101 1444.00
17.0753 1452.00
17.1405 1377.00
17.2057 1427.00
17.2709 1430.00
17.3361 1485.00
17.4013 1378.00
17.4665 1353.00
17.5317 1450.00
17.5969 1366.00
17.6621 1382.00
17.7273 1359.00
17.7925 1331.00
17.8577 1397.00
17.9229 1325.00
17.9881 1330.00
18.0533 1404.00
18.1185 1358.00
18.1837 1330.00
18.2489 1289.00
18.3141 1333.00
18.3793 1334.00
18.4445 1353.00
18.5097 1259.00
18.5749 1290.00
18.6401 1375.00
18.7052 1294.00
18.7704 1317.00
18.8356 1254.00
18.9008 1302.00
18.966 1239.00
19.0312 1276.00
19.0964 1354.00
19.1616 1280.00
19.2268 1270.00
19.292 1344.00
19.3572 1347.00
19.4224 1401.00
19.4876 1454.00
19.5528 1822.00
19.618 2260.00
19.6832 3107.00
19.7484 4255.00
19.8136 5149.00
19.8788 5287.00
19.944 4601.00
20.0092 3487.00
20.0744 2355.00
20.1396 1727.00
20.2048 1464.00
20.27 1434.00
20.3352 1452.00
20.4004 1467.00
20.4656 1615.00
20.5308 1781.00
20.596 2153.00
20.6612 2985.00
20.7264 4208.00
20.7916 5700.00
20.8568 6257.00
20.922 5927.00
20.9872 4642.00
21.0524 3254.00
21.1176 2132.00
21.1828 1640.00
21.248 1357.00
21.3132 1351.00
21.3784 1275.00
21.4436 1243.00
21.5088 1230.00
21.574 1259.00
21.6392 1242.00
21.7044 1130.00
21.7696 1210.00
21.8348 1211.00
21.9 1206.00
21.9652 1159.00
22.0304 1136.00
22.0956 1145.00
22.1608 1107.00
22.226 1108.00
22.2912 1106.00
22.3564 1092.00
22.4216 1069.00
22.4868 1112.00
22.552 1110.00
22.6172 1057.00
22.6824 1067.00
22.7476 1152.00
22.8128 1019.00
22.878 1086.00
22.9432 1085.00
23.0084 1013.00
23.0736 1172.00
23.1388 1075.00
23.204 1073.00
23.2692 1051.00
23.3344 1120.00
23.3996 1073.00
23.4647 1046.00
23.5299 1076.00
23.5951 1130.00
23.6603 1272.00
23.7255 1362.00
23.7907 1723.00
23.8559 2240.00
23.9211 3052.00
23.9863 3920.00
24.0515 4043.00
24.1167 3739.00
24.1819 2899.00
24.2471 1972.00
24.3123 1433.00
24.3775 1203.00
24.4427 1034.00
24.5079 1026.00
24.5731 1016.00
24.6383 1067.00
24.7035 955.00
24.7687 1001.00
24.8339 994.00
24.8991 1013.00
24.9643 1009.00
25.0295 950.00
25.0947 904.00
25.1599 995.00
25.2251 875.00
25.2903 964.00
25.3555 939.00
25.4207 893.00
25.4859 944.00
25.5511 973.00
25.6163 916.00
25.6815 914.00
25.7467 950.00
25.8119 914.00
25.8771 888.00
25.9423 895.00
26.0075 935.00
26.0727 867.00
26.1379 921.00
26.2031 911.00
26.2683 920.00
26.3335 887.00
26.3987 894.00
26.4639 1027.00
26.5291 1021.00
26.5943 1141.00
26.6595 998.00
26.7247 1052.00
26.7899 946.00
26.8551 943.00
26.9203 874.00
26.9855 819.00
27.0507 904.00
27.1159 835.00
27.1811 807.00
27.2463 832.00
27.3115 818.00
27.3767 824.00
27.4419 853.00
27.5071 861.00
27.5723 818.00
27.6375 809.00
27.7027 804.00
27.7679 788.00
27.8331 789.00
27.8983 813.00
27.9635 799.00
28.0287 805.00
28.0939 841.00
28.1591 884.00
28.2243 836.00
28.2894 745.00
28.3546 847.00
28.4198 872.00
28.485 914.00
28.5502 887.00
28.6154 1010.00
28.6806 1115.00
28.7458 1570.00
28.811 2197.00
28.8762 3324.00
28.9414 4002.00
29.0066 4081.00
29.0718 3330.00
29.137 2375.00
29.2022 1577.00
29.2674 1085.00
29.3326 903.00
29.3978 828.00
29.463 830.00
29.5282 799.00
29.5934 780.00
29.6586 814.00
29.7238 764.00
29.789 794.00
29.8542 772.00
29.9194 825.00
29.9846 751.00
30.0498 710.00
30.115 813.00
30.1802 723.00
30.2454 788.00
30.3106 711.00
30.3758 734.00
30.441 713.00
30.5062 701.00
30.5714 688.00
30.6366 811.00
30.7018 760.00
30.767 743.00
30.8322 798.00
30.8974 740.00
30.9626 754.00
31.0278 726.00
31.093 767.00
31.1582 797.00
31.2234 810.00
31.2886 790.00
31.3538 869.00
31.419 886.00
31.4842 1023.00
31.5494 1360.00
31.6146 2098.00
31.6798 3399.00
31.745 5204.00
31.8102 6201.00
31.8754 5707.00
31.9406 4480.00
32.0058 2910.00
32.071 1744.00
32.1362 1181.00
32.2014 1043.00
32.2666 1083.00
32.3318 1143.00
32.397 1187.00
32.4622 1152.00
32.5274 1005.00
32.5926 840.00
32.6578 741.00
32.723 668.00
32.7882 636.00
32.8534 729.00
32.9186 627.00
32.9838 724.00
33.0489 686.00
33.1141 651.00
33.1793 682.00
33.2445 694.00
33.3097 640.00
33.3749 678.00
33.4401 638.00
33.5053 608.00
33.5705 613.00
33.6357 680.00
33.7009 676.00
33.7661 722.00
33.8313 798.00
33.8965 810.00
33.9617 848.00
34.0269 944.00
34.0921 972.00
34.1573 929.00
34.2225 918.00
34.2877 803.00
34.3529 709.00
34.4181 676.00
34.4833 620.00
34.5485 555.00
34.6137 581.00
34.6789 623.00
34.7441 612.00
34.8093 601.00
34.8745 609.00
34.9397 594.00
35.0049 629.00
35.0701 579.00
35.1353 567.00
35.2005 582.00
35.2657 590.00
35.3309 604.00
35.3961 649.00
35.4613 685.00
35.5265 698.00
35.5917 664.00
35.6569 714.00
35.7221 838.00
35.7873 1097.00
35.8525 1556.00
35.9177 2053.00
35.9829 2394.00
36.0481 2267.00
36.1133 1753.00
36.1785 1317.00
36.2437 985.00
36.3089 1041.00
36.3741 1350.00
36.4393 1908.00
36.5045 2706.00
36.5697 3073.00
36.6349 2969.00
36.7001 2385.00
36.7653 1616.00
36.8305 974.00
36.8957 821.00
36.9609 684.00
37.0261 683.00
37.0913 645.00
37.1565 602.00
37.2217 579.00
37.2869 596.00
37.3521 578.00
37.4173 569.00
37.4825 537.00
37.5477 548.00
37.6129 568.00
37.6781 540.00
37.7433 588.00
37.8085 601.00
37.8736 572.00
37.9388 580.00
38.004 609.00
38.0692 542.00
38.1344 553.00
38.1996 549.00
38.2648 501.00
38.33 560.00
38.3952 600.00
38.4604 629.00
38.5256 700.00
38.5908 672.00
38.656 654.00
38.7212 566.00
38.7864 591.00
38.8516 539.00
38.9168 513.00
38.982 530.00
39.0472 485.00
39.1124 518.00
39.1776 500.00
39.2428 519.00
39.308 501.00
39.3732 501.00
39.4384 525.00
39.5036 489.00
39.5688 515.00
39.634 528.00
39.6992 458.00
39.7644 499.00
39.8296 489.00
39.8948 483.00
39.96 460.00
40.0252 509.00
40.0904 537.00
40.1556 586.00
40.2208 672.00
40.286 835.00
40.3512 940.00
40.4164 906.00
40.4816 827.00
40.5468 645.00
40.612 574.00
40.6772 502.00
40.7424 473.00
40.8076 467.00
40.8728 468.00
40.938 490.00
41.0032 490.00
41.0684 468.00
41.1336 479.00
41.1988 453.00
41.264 501.00
41.3292 487.00
41.3944 493.00
41.4596 499.00
41.5248 497.00
41.59 474.00
41.6552 520.00
41.7204 575.00
41.7856 628.00
41.8508 764.00
41.916 993.00
41.9812 1070.00
42.0464 1057.00
42.1116 966.00
42.1768 822.00
42.242 738.00
42.3072 696.00
42.3724 788.00
42.4376 978.00
42.5028 1061.00
42.568 984.00
42.6332 839.00
42.6983 648.00
42.7635 573.00
42.8287 583.00
42.8939 566.00
42.9591 588.00
43.0243 597.00
43.0895 590.00
43.1547 550.00
43.2199 505.00
43.2851 475.00
43.3503 491.00
43.4155 480.00
43.4807 491.00
43.5459 508.00
43.6111 486.00
43.6763 477.00
43.7415 479.00
43.8067 578.00
43.8719 638.00
43.9371 916.00
44.0023 1181.00
44.0675 1396.00
44.1327 1393.00
44.1979 1239.00
44.2631 948.00
44.3283 754.00
44.3935 552.00
44.4587 510.00
44.5239 537.00
44.5891 473.00
44.6543 485.00
44.7195 451.00
44.7847 451.00
44.8499 492.00
44.9151 498.00
44.9803 581.00
45.0455 623.00
45.1107 671.00
45.1759 664.00
45.2411 535.00
45.3063 522.00
45.3715 489.00
45.4367 491.00
45.5019 488.00
45.5671 529.00
45.6323 579.00
45.6975 820.00
45.7627 1140.00
45.8279 1456.00
45.8931 1621.00
45.9583 1392.00
46.0235 1075.00
46.0887 788.00
46.1539 613.00
46.2191 501.00
46.2843 469.00
46.3495 452.00
46.4147 448.00
46.4799 417.00
46.5451 452.00
46.6103 445.00
46.6755 485.00
46.7407 429.00
46.8059 503.00
46.8711 492.00
46.9363 461.00
47.0015 515.00
47.0667 642.00
47.1319 862.00
47.1971 1314.00
47.2623 1778.00
47.3275 2203.00
47.3927 2128.00
47.4579 1800.00
47.523 1329.00
47.5882 878.00
47.6534 636.00
47.7186 529.00
47.7838 482.00
47.849 433.00
47.9142 429.00
47.9794 425.00
48.0446 442.00
48.1098 429.00
48.175 436.00
48.2402 447.00
48.3054 428.00
48.3706 507.00
48.4358 479.00
48.501 538.00
48.5662 588.00
48.6314 565.00
48.6966 560.00
48.7618 551.00
48.827 542.00
48.8922 555.00
48.9574 649.00
49.0226 829.00
49.0878 1145.00
49.153 1796.00
49.2182 2169.00
49.2834 2346.00
49.3486 1965.00
49.4138 1419.00
49.479 973.00
49.5442 630.00
49.6094 528.00
49.6746 459.00
49.7398 453.00
49.805 440.00
49.8702 424.00
49.9354 441.00
50.0006 497.00
50.0658 530.00
50.131 625.00
50.1962 614.00
50.2614 594.00
50.3266 503.00
50.3918 464.00
50.457 407.00
50.5222 395.00
50.5874 396.00
50.6526 375.00
50.7178 418.00
50.783 387.00
50.8482 401.00
50.9134 399.00
50.9786 371.00
51.0438 394.00
51.109 355.00
51.1742 368.00
51.2394 342.00
51.3046 362.00
51.3698 389.00
51.435 403.00
51.5002 383.00
51.5654 398.00
51.6306 463.00
51.6958 482.00
51.761 543.00
51.8262 609.00
51.8914 647.00
51.9566 612.00
52.0218 722.00
52.087 910.00
52.1522 1473.00
52.2174 1957.00
52.2826 2230.00
52.3477 2234.00
52.4129 1729.00
52.4781 1242.00
52.5433 813.00
52.6085 661.00
52.6737 518.00
52.7389 475.00
52.8041 429.00
52.8693 407.00
52.9345 435.00
52.9997 509.00
53.0649 548.00
53.1301 533.00
53.1953 519.00
53.2605 441.00
53.3257 407.00
53.3909 416.00
53.4561 378.00
53.5213 366.00
53.5865 349.00
53.6517 379.00
53.7169 354.00
53.7821 360.00
53.8473 351.00
53.9125 371.00
53.9777 359.00
54.0429 397.00
54.1081 336.00
54.1733 367.00
54.2385 391.00
54.3037 385.00
54.3689 383.00
54.4341 361.00
54.4993 398.00
54.5645 353.00
54.6297 412.00
54.6949 380.00
54.7601 396.00
54.8253 401.00
54.8905 407.00
54.9557 412.00
55.0209 363.00
55.0861 359.00
55.1513 365.00
55.2165 397.00
55.2817 416.00
55.3469 454.00
55.4121 554.00
55.4773 751.00
55.5425 828.00
55.6077 985.00
55.6729 889.00
55.7381 743.00
55.8033 575.00
55.8685 494.00
55.9337 406.00
55.9989 388.00
56.0641 429.00
56.1293 406.00
56.1945 375.00
56.2597 373.00
56.3249 375.00
56.3901 446.00
56.4553 389.00
56.5205 460.00
56.5857 515.00
56.6509 605.00
56.7161 875.00
56.7813 1176.00
56.8465 1406.00
56.9117 1401.00
56.9769 1301.00
57.042 1203.00
57.1073 1281.00
57.1724 1636.00
57.2376 1811.00
57.3028 1965.00
57.368 1732.00
57.4332 1315.00
57.4984 999.00
57.5636 732.00
57.6288 588.00
57.694 465.00
57.7592 404.00
57.8244 422.00
57.8896 412.00
57.9548 416.00
58.02 367.00
58.0852 390.00
58.1504 416.00
58.2156 442.00
58.2808 403.00
58.346 429.00
58.4112 431.00
58.4764 428.00
58.5416 454.00
58.6068 503.00
58.672 623.00
58.7372 745.00
58.8024 819.00
58.8676 807.00
58.9328 758.00
58.998 655.00
59.0632 557.00
59.1284 466.00
59.1936 410.00
59.2588 387.00
59.324 360.00
59.3892 358.00
59.4544 310.00
59.5196 351.00
59.5848 388.00
59.65 373.00
59.7152 363.00
59.7804 350.00
59.8456 402.00
59.9108 498.00
59.976 529.00
60.0412 627.00
60.1064 564.00
60.1716 464.00
60.2368 447.00
60.302 383.00
60.3672 335.00
60.4324 373.00
60.4976 366.00
60.5628 372.00
60.628 321.00
60.6932 340.00
60.7584 379.00
60.8236 356.00
60.8888 404.00
60.954 403.00
61.0192 460.00
61.0844 637.00
61.1496 942.00
61.2148 1252.00
61.28 1344.00
61.3452 1286.00
61.4104 1105.00
61.4756 834.00
61.5408 623.00
61.606 502.00
61.6712 459.00
61.7364 397.00
61.8016 406.00
61.8667 426.00
61.932 428.00
61.9971 422.00
62.0623 434.00
62.1275 427.00
62.1927 456.00
62.2579 513.00
62.3231 503.00
62.3883 505.00
62.4535 490.00
62.5187 507.00
62.5839 561.00
62.6491 645.00
62.7143 961.00
62.7795 1314.00
62.8447 1666.00
62.9099 1656.00
62.9751 1591.00
63.0403 1481.00
63.1055 1373.00
63.1707 1060.00
63.2359 958.00
63.3011 803.00
63.3663 659.00
63.4315 508.00
63.4967 472.00
63.5619 444.00
63.6271 383.00
63.6923 367.00
63.7575 344.00
63.8227 337.00
63.8879 369.00
63.9531 317.00
64.0183 361.00
64.0835 379.00
64.1487 421.00
64.2139 463.00
64.2791 446.00
64.3443 469.00
64.4095 439.00
64.4747 433.00
64.5399 374.00
64.6051 394.00
64.6703 386.00
64.7355 371.00
64.8007 355.00
64.8659 363.00
64.9311 373.00
64.9963 357.00
65.0615 401.00
65.1267 385.00
65.1919 421.00
65.2571 568.00
65.3223 696.00
65.3875 955.00
65.4527 1038.00
65.5179 1025.00
65.5831 970.00
65.6483 984.00
65.7135 920.00
65.7787 942.00
65.8439 902.00
65.9091 834.00
65.9743 860.00
66.0395 779.00
66.1047 652.00
66.1699 517.00
66.2351 450.00
66.3003 406.00
66.3655 412.00
66.4307 406.00
66.4959 366.00
66.561 333.00
66.6263 317.00
66.6915 308.00
66.7566 346.00
66.8218 391.00
66.887 377.00
66.9522 372.00
67.0174 437.00
67.0826 526.00
67.1478 727.00
67.213 850.00
67.2782 877.00
67.3434 916.00
67.4086 818.00
67.4738 702.00
67.539 532.00
67.6042 466.00
67.6694 375.00
67.7346 365.00
67.7998 402.00
67.865 387.00
67.9302 430.00
67.9954 336.00
68.0606 313.00
68.1258 344.00
68.191 299.00
68.2562 339.00
68.3214 293.00
68.3866 319.00
68.4518 295.00
68.517 314.00
68.5822 260.00
68.6474 277.00
68.7126 285.00
68.7778 316.00
68.843 297.00
68.9082 352.00
68.9734 284.00
69.0386 335.00
69.1038 353.00
69.169 368.00
69.2342 404.00
69.2994 450.00
69.3646 670.00
69.4298 858.00
69.495 992.00
69.5602 992.00
69.6254 944.00
69.6906 812.00
69.7558 689.00
69.821 545.00
69.8862 411.00
69.9514 393.00
70.0166 324.00
70.0818 297.00
70.147 313.00
70.2122 281.00
70.2774 326.00
70.3426 325.00
70.4078 291.00
70.473 301.00
70.5382 324.00
70.6034 319.00
70.6686 340.00
70.7338 320.00
70.799 360.00
70.8642 372.00
70.9294 453.00
70.9946 462.00
71.0598 453.00
71.125 442.00
71.1902 415.00
71.2554 437.00
71.3205 399.00
71.3858 386.00
71.451 378.00
71.5162 338.00
71.5813 339.00
71.6465 331.00
71.7117 344.00
71.7769 337.00
71.8421 342.00
71.9073 371.00
71.9725 316.00
72.0377 362.00
72.1029 319.00
72.1681 296.00
72.2333 335.00
72.2985 282.00
72.3637 323.00
72.4289 321.00
72.4941 319.00
72.5593 284.00
72.6245 323.00
72.6897 322.00
72.7549 306.00
72.8201 264.00
72.8853 263.00
72.9505 293.00
73.0157 306.00
73.0809 331.00
73.1461 366.00
73.2113 384.00
73.2765 457.00
73.3417 556.00
73.4069 732.00
73.4721 770.00
73.5373 763.00
73.6025 642.00
73.6677 550.00
73.7329 509.00
73.7981 410.00
73.8633 342.00
73.9285 325.00
73.9937 330.00
74.0589 293.00
74.1241 344.00
74.1893 319.00
74.2545 306.00
74.3197 335.00
74.3849 306.00
74.4501 278.00
74.5153 300.00
74.5805 319.00
74.6457 304.00
74.7109 304.00
74.7761 317.00
74.8413 318.00
74.9065 349.00
74.9717 382.00
75.0369 384.00
75.1021 568.00
75.1673 619.00
75.2325 668.00
75.2977 634.00
75.3629 601.00
75.4281 506.00
75.4933 466.00
75.5585 402.00
75.6237 417.00
75.6889 391.00
75.7541 394.00
75.8193 402.00
75.8845 408.00
75.9497 426.00
76.0149 434.00
76.0801 464.00
76.1452 482.00
76.2104 481.00
76.2756 458.00
76.3409 410.00
76.406 425.00
76.4712 384.00
76.5364 361.00
76.6016 288.00
76.6668 286.00
76.732 267.00
76.7972 245.00
76.8624 247.00
76.9276 264.00
76.9928 305.00
77.058 293.00
77.1232 283.00
77.1884 314.00
77.2536 334.00
77.3188 385.00
77.384 421.00
77.4492 375.00
77.5144 435.00
77.5796 518.00
77.6448 624.00
77.71 680.00
77.7752 626.00
77.8404 562.00
77.9056 536.00
77.9708 477.00
78.036 450.00
78.1012 432.00
78.1664 401.00
78.2316 289.00
78.2968 308.00
78.362 287.00
78.4272 287.00
78.4924 269.00
78.5576 268.00
78.6228 298.00
78.688 313.00
78.7532 273.00
78.8184 325.00
78.8836 300.00
78.9488 324.00
79.014 397.00
79.0792 354.00
79.1444 408.00
79.2096 361.00
79.2748 380.00
79.34 380.00
79.4052 354.00
79.4704 358.00
79.5356 363.00
79.6008 294.00
79.666 349.00
79.7312 356.00
79.7964 336.00
79.8616 329.00
79.9268 339.00
79.992 342.00
80.0572 307.00
80.1224 337.00
80.1876 324.00
80.2528 325.00
80.318 310.00
80.3832 321.00
80.4484 315.00
80.5136 293.00
80.5788 304.00
80.644 265.00
80.7092 341.00
80.7744 301.00
80.8396 312.00
80.9048 287.00
80.9699 353.00
81.0351 396.00
81.1003 584.00
81.1655 587.00
81.2307 666.00
81.2959 636.00
81.3611 629.00
81.4263 608.00
81.4915 664.00
81.5567 568.00
81.6219 544.00
81.6871 450.00
81.7523 440.00
81.8175 394.00
81.8827 343.00
81.9479 309.00
82.0131 276.00
82.0783 273.00
82.1435 283.00
82.2087 268.00
82.2739 276.00
82.3391 279.00
82.4043 304.00
82.4695 346.00
82.5347 441.00
82.5999 437.00
82.6651 488.00
82.7303 614.00
82.7955 720.00
82.8607 771.00
82.9259 696.00
82.9911 595.00
83.0563 547.00
83.1215 513.00
83.1867 419.00
83.2519 378.00
83.3171 370.00
83.3823 315.00
83.4475 304.00
83.5127 299.00
83.5779 281.00
83.6431 300.00
83.7083 281.00
83.7735 281.00
83.8387 289.00
83.9039 283.00
83.9691 267.00
84.0343 265.00
84.0995 299.00
84.1647 239.00
84.2299 239.00
84.2951 261.00
84.3603 265.00
84.4255 287.00
84.4907 282.00
84.5559 247.00
84.6211 282.00
84.6863 243.00
84.7515 229.00
84.8167 327.00
84.8819 369.00
84.9471 344.00
85.0123 320.00
85.0775 334.00
85.1427 305.00
85.2079 317.00
85.2731 304.00
85.3383 304.00
85.4035 267.00
85.4687 279.00
85.5339 262.00
85.5991 286.00
85.6643 304.00
85.7295 284.00
85.7946 269.00
85.8598 300.00
85.925 288.00
85.9903 327.00
86.0554 312.00
86.1206 372.00
86.1858 415.00
86.251 470.00
86.3162 628.00
86.3814 663.00
86.4466 594.00
86.5118 565.00
86.577 531.00
86.6422 448.00
86.7074 440.00
86.7726 380.00
86.8378 334.00
86.903 285.00
86.9682 320.00
87.0334 316.00
87.0986 361.00
87.1638 343.00
87.229 316.00
87.2942 305.00
87.3594 343.00
87.4246 442.00
87.4898 556.00
87.555 626.00
87.6202 712.00
87.6854 740.00
87.7506 641.00
87.8158 653.00
87.881 651.00
87.9462 590.00
88.0114 526.00
88.0766 431.00
88.1418 388.00
88.207 366.00
88.2722 277.00
88.3374 298.00
88.4026 334.00
88.4678 303.00
88.533 347.00
88.5982 360.00
88.6634 358.00
88.7286 393.00
88.7938 337.00
88.859 385.00
88.9242 345.00
88.9894 324.00
89.0546 325.00
89.1198 297.00
89.185 308.00
89.2502 273.00
89.3154 281.00
89.3806 282.00
89.4458 303.00
89.511 249.00
89.5762 269.00
89.6414 272.00
89.7066 280.00
89.7718 238.00
89.837 304.00
89.9022 258.00
89.9674 281.00
90.0326 278.00
90.0978 299.00
90.163 286.00
90.2282 345.00
90.2934 375.00
90.3586 413.00
90.4238 411.00
90.489 432.00
90.5542 360.00
90.6193 327.00
90.6845 343.00
90.7497 366.00
90.8149 378.00
90.8801 375.00
90.9453 416.00
91.0105 350.00
91.0757 344.00
91.1409 330.00
91.2061 364.00
91.2713 372.00
91.3365 350.00
91.4017 332.00
91.4669 333.00
91.5321 369.00
91.5973 335.00
91.6625 318.00
91.7277 342.00
91.7929 326.00
91.8581 313.00
91.9233 292.00
91.9885 310.00
92.0537 301.00
92.1189 278.00
92.1841 295.00
92.2493 347.00
92.3145 416.00
92.3797 539.00
92.4449 623.00
92.5101 661.00
92.5753 619.00
92.6405 512.00
92.7057 527.00
92.7709 589.00
92.8361 529.00
92.9013 418.00
92.9665 403.00
93.0317 332.00
93.0969 308.00
93.1621 268.00
93.2273 274.00
93.2925 304.00
93.3577 277.00
93.4229 288.00
93.4881 239.00
93.5533 266.00
93.6185 266.00
93.6837 275.00
93.7489 266.00
93.8141 269.00
93.8793 256.00
93.9445 371.00
94.0097 397.00
94.0749 460.00
94.1401 518.00
94.2053 441.00
94.2705 410.00
94.3357 427.00
94.4009 411.00
94.4661 408.00
94.5313 373.00
94.5965 351.00
94.6617 304.00
94.7269 294.00
94.7921 285.00
94.8573 328.00
94.9225 288.00
94.9877 286.00
95.0529 362.00
95.1181 405.00
95.1833 428.00
95.2485 417.00
95.3137 443.00
95.3789 477.00
95.444 422.00
95.5092 383.00
95.5744 385.00
95.6396 344.00
95.7048 343.00
95.77 330.00
95.8352 342.00
95.9004 325.00
95.9656 312.00
96.0308 355.00
96.096 387.00
96.1612 392.00
96.2264 425.00
96.2916 363.00
96.3568 415.00
96.422 351.00
96.4872 345.00
96.5524 354.00
96.6176 324.00
96.6828 308.00
96.748 286.00
96.8132 268.00
96.8784 273.00
96.9436 275.00
97.0088 285.00
97.074 293.00
97.1392 281.00
97.2044 259.00
97.2696 261.00
97.3348 339.00
97.4 320.00
97.4652 312.00
97.5304 350.00
97.5956 403.00
97.6608 470.00
97.726 477.00
97.7912 541.00
97.8564 675.00
97.9216 659.00
97.9868 562.00
98.052 477.00
98.1172 463.00
98.1824 469.00
98.2476 448.00
98.3128 422.00
98.378 355.00
98.4432 331.00
98.5084 307.00
98.5736 325.00
98.6388 285.00
98.704 249.00
98.7692 274.00
98.8344 304.00
98.8996 263.00
98.9648 268.00
99.03 234.00
99.0952 227.00
99.1604 248.00
99.2256 248.00
99.2908 262.00
99.356 280.00
99.4212 269.00
99.4864 281.00
99.5516 283.00
99.6168 301.00
99.682 298.00
99.7472 339.00
99.8124 394.00
99.8776 453.00
99.9428 589.00
100.008 664.00
100.073 660.00
100.095 599.00