File: data/xrd_creation/results/NSC_124.xy
9.903433 2820.00
9.968632 2738.00
10.0338 2714.00
10.099 2806.00
10.1642 2682.00
10.2294 2675.00
10.2946 2690.00
10.3598 2631.00
10.425 2593.00
10.4902 2640.00
10.5554 2542.00
10.6206 2627.00
10.6858 2564.00
10.751 2583.00
10.8162 2580.00
10.8814 2603.00
10.9466 2517.00
11.0118 2542.00
11.077 2432.00
11.1422 2495.00
11.2074 2456.00
11.2726 2332.00
11.3378 2386.00
11.403 2415.00
11.4682 2444.00
11.5334 2370.00
11.5986 2406.00
11.6638 2388.00
11.729 2433.00
11.7942 2312.00
11.8594 2366.00
11.9246 2272.00
11.9898 2259.00
12.055 2331.00
12.1202 2187.00
12.1854 2215.00
12.2506 2224.00
12.3158 2226.00
12.381 2256.00
12.4462 2266.00
12.5114 2234.00
12.5766 2219.00
12.6418 2221.00
12.707 2188.00
12.7722 2124.00
12.8374 2174.00
12.9026 2111.00
12.9678 2138.00
13.033 2193.00
13.0982 2163.00
13.1634 2097.00
13.2286 2176.00
13.2938 2195.00
13.359 2191.00
13.4242 2217.00
13.4894 2142.00
13.5546 2161.00
13.6198 2055.00
13.685 2148.00
13.7502 2031.00
13.8154 2056.00
13.8805 2104.00
13.9457 2091.00
14.0109 2039.00
14.0761 2036.00
14.1413 1979.00
14.2065 1977.00
14.2717 1996.00
14.3369 2076.00
14.4021 2099.00
14.4673 2129.00
14.5325 2233.00
14.5977 2320.00
14.6629 2453.00
14.7281 2680.00
14.7933 3157.00
14.8585 3634.00
14.9237 4455.00
14.9889 5248.00
15.0541 6025.00
15.1193 6367.00
15.1845 7024.00
15.2497 6672.00
15.3149 4781.00
15.3801 3392.00
15.4453 2380.00
15.5105 2110.00
15.5757 2145.00
15.6409 2124.00
15.7061 2104.00
15.7713 2070.00
15.8365 2048.00
15.9017 2108.00
15.9669 2035.00
16.0321 2070.00
16.0973 2016.00
16.1625 1987.00
16.2277 2047.00
16.2929 1898.00
16.3581 1924.00
16.4233 1964.00
16.4885 1945.00
16.5537 1856.00
16.6189 1907.00
16.6841 1926.00
16.7493 1920.00
16.8145 1862.00
16.8797 1978.00
16.9449 1891.00
17.0101 1972.00
17.0753 1866.00
17.1405 1939.00
17.2057 1887.00
17.2709 1875.00
17.3361 1902.00
17.4013 1864.00
17.4665 1924.00
17.5317 1917.00
17.5969 1970.00
17.6621 2108.00
17.7273 2175.00
17.7925 2238.00
17.8577 2199.00
17.9229 1903.00
17.9881 1881.00
18.0533 1772.00
18.1185 1836.00
18.1837 1788.00
18.2489 1875.00
18.3141 1910.00
18.3793 1848.00
18.4445 1941.00
18.5097 1970.00
18.5749 1989.00
18.6401 1743.00
18.7052 1750.00
18.7704 1696.00
18.8356 1808.00
18.9008 1751.00
18.966 1817.00
19.0312 1789.00
19.0964 1726.00
19.1616 1737.00
19.2268 1750.00
19.292 1708.00
19.3572 1683.00
19.4224 1723.00
19.4876 1665.00
19.5528 1759.00
19.618 1715.00
19.6832 1757.00
19.7484 1673.00
19.8136 1797.00
19.8788 1736.00
19.944 1745.00
20.0092 1804.00
20.0744 1841.00
20.1396 1820.00
20.2048 1928.00
20.27 2076.00
20.3352 2175.00
20.4004 2397.00
20.4656 2825.00
20.5308 3590.00
20.596 4803.00
20.6612 6860.00
20.7264 9914.00
20.7916 13326.00
20.8568 16647.00
20.922 19061.00
20.9872 17081.00
21.0524 10988.00
21.1176 5941.00
21.1828 3653.00
21.248 3384.00
21.3132 3946.00
21.3784 4787.00
21.4436 5418.00
21.5088 5997.00
21.574 6343.00
21.6392 6100.00
21.7044 6744.00
21.7696 7862.00
21.8348 9705.00
21.9 11404.00
21.9652 11794.00
22.0304 10088.00
22.0956 8007.00
22.1608 6403.00
22.226 4828.00
22.2912 3267.00
22.3564 2376.00
22.4216 2068.00
22.4868 1998.00
22.552 2047.00
22.6172 1875.00
22.6824 1861.00
22.7476 1730.00
22.8128 1747.00
22.878 1772.00
22.9432 1779.00
23.0084 1660.00
23.0736 1775.00
23.1388 1971.00
23.204 2079.00
23.2692 1978.00
23.3344 1817.00
23.3996 1841.00
23.4647 1747.00
23.5299 1875.00
23.5951 2124.00
23.6603 2130.00
23.7255 1954.00
23.7907 1878.00
23.8559 1888.00
23.9211 1771.00
23.9863 1690.00
24.0515 1654.00
24.1167 1646.00
24.1819 1629.00
24.2471 1688.00
24.3123 1682.00
24.3775 1779.00
24.4427 1960.00
24.5079 2003.00
24.5731 2168.00
24.6383 2397.00
24.7035 2799.00
24.7687 3426.00
24.8339 3881.00
24.8991 4505.00
24.9643 4885.00
25.0295 5449.00
25.0947 6476.00
25.1599 8171.00
25.2251 10113.00
25.2903 10734.00
25.3555 9282.00
25.4207 7484.00
25.4859 6002.00
25.5511 4433.00
25.6163 2806.00
25.6815 1876.00
25.7467 1803.00
25.8119 1721.00
25.8771 1645.00
25.9423 1558.00
26.0075 1583.00
26.0727 1587.00
26.1379 1627.00
26.2031 1569.00
26.2683 1625.00
26.3335 1658.00
26.3987 1673.00
26.4639 1744.00
26.5291 1549.00
26.5943 1544.00
26.6595 1610.00
26.7247 1585.00
26.7899 1595.00
26.8551 1523.00
26.9203 1589.00
26.9855 1652.00
27.0507 1589.00
27.1159 1627.00
27.1811 1555.00
27.2463 1625.00
27.3115 1547.00
27.3767 1525.00
27.4419 1507.00
27.5071 1480.00
27.5723 1488.00
27.6375 1407.00
27.7027 1413.00
27.7679 1470.00
27.8331 1458.00
27.8983 1490.00
27.9635 1336.00
28.0287 1419.00
28.0939 1381.00
28.1591 1421.00
28.2243 1399.00
28.2894 1477.00
28.3546 1375.00
28.4198 1422.00
28.485 1578.00
28.5502 1696.00
28.6154 1659.00
28.6806 1723.00
28.7458 1638.00
28.811 1549.00
28.8762 1582.00
28.9414 1754.00
29.0066 1691.00
29.0718 1638.00
29.137 1563.00
29.2022 1491.00
29.2674 1451.00
29.3326 1452.00
29.3978 1517.00
29.463 1577.00
29.5282 1693.00
29.5934 1749.00
29.6586 2162.00
29.7238 2634.00
29.789 3406.00
29.8542 3968.00
29.9194 4542.00
29.9846 4685.00
30.0498 4943.00
30.115 5068.00
30.1802 5468.00
30.2454 6843.00
30.3106 8280.00
30.3758 9213.00
30.441 8548.00
30.5062 6905.00
30.5714 5433.00
30.6366 4333.00
30.7018 3367.00
30.767 2429.00
30.8322 1690.00
30.8974 1565.00
30.9626 1544.00
31.0278 1562.00
31.093 1685.00
31.1582 1488.00
31.2234 1472.00
31.2886 1367.00
31.3538 1473.00
31.419 1391.00
31.4842 1390.00
31.5494 1361.00
31.6146 1332.00
31.6798 1408.00
31.745 1437.00
31.8102 1500.00
31.8754 1475.00
31.9406 1534.00
32.0058 1624.00
32.071 1508.00
32.1362 1469.00
32.2014 1459.00
32.2666 1372.00
32.3318 1373.00
32.397 1423.00
32.4622 1401.00
32.5274 1344.00
32.5926 1458.00
32.6578 1516.00
32.723 1664.00
32.7882 1912.00
32.8534 2355.00
32.9186 2879.00
32.9838 3303.00
33.0489 4003.00
33.1141 4859.00
33.1793 5864.00
33.2445 7402.00
33.3097 9490.00
33.3749 10813.00
33.4401 10203.00
33.5053 8228.00
33.5705 6923.00
33.6357 5055.00
33.7009 3573.00
33.7661 2744.00
33.8313 2361.00
33.8965 2453.00
33.9617 2146.00
34.0269 2140.00
34.0921 2038.00
34.1573 1860.00
34.2225 1886.00
34.2877 1792.00
34.3529 1692.00
34.4181 1370.00
34.4833 1326.00
34.5485 1294.00
34.6137 1233.00
34.6789 1289.00
34.7441 1242.00
34.8093 1297.00
34.8745 1244.00
34.9397 1244.00
35.0049 1271.00
35.0701 1306.00
35.1353 1254.00
35.2005 1194.00
35.2657 1284.00
35.3309 1294.00
35.3961 1337.00
35.4613 1302.00
35.5265 1432.00
35.5917 1492.00
35.6569 1766.00
35.7221 1969.00
35.7873 2282.00
35.8525 2273.00
35.9177 2054.00
35.9829 1730.00
36.0481 1562.00
36.1133 1370.00
36.1785 1397.00
36.2437 1327.00
36.3089 1305.00
36.3741 1312.00
36.4393 1372.00
36.5045 1376.00
36.5697 1363.00
36.6349 1466.00
36.7001 1679.00
36.7653 1796.00
36.8305 1987.00
36.8957 2140.00
36.9609 2366.00
37.0261 2550.00
37.0913 2746.00
37.1565 2796.00
37.2217 2768.00
37.2869 3002.00
37.3521 3180.00
37.4173 3302.00
37.4825 3564.00
37.5477 3762.00
37.6129 4037.00
37.6781 3995.00
37.7433 3731.00
37.8085 3436.00
37.8736 3052.00
37.9388 2859.00
38.004 3018.00
38.0692 3101.00
38.1344 3359.00
38.1996 3395.00
38.2648 3441.00
38.33 3298.00
38.3952 2863.00
38.4604 2619.00
38.5256 2273.00
38.5908 2249.00
38.656 2162.00
38.7212 1987.00
38.7864 1761.00
38.8516 1498.00
38.9168 1355.00
38.982 1283.00
39.0472 1288.00
39.1124 1223.00
39.1776 1284.00
39.2428 1236.00
39.308 1254.00
39.3732 1281.00
39.4384 1297.00
39.5036 1200.00
39.5688 1244.00
39.634 1193.00
39.6992 1166.00
39.7644 1253.00
39.8296 1235.00
39.8948 1218.00
39.96 1244.00
40.0252 1191.00
40.0904 1310.00
40.1556 1345.00
40.2208 1371.00
40.286 1468.00
40.3512 1516.00
40.4164 1532.00
40.4816 1495.00
40.5468 1365.00
40.612 1321.00
40.6772 1313.00
40.7424 1374.00
40.8076 1292.00
40.8728 1251.00
40.938 1127.00
41.0032 1171.00
41.0684 1148.00
41.1336 1056.00
41.1988 1112.00
41.264 1160.00
41.3292 1096.00
41.3944 1079.00
41.4596 1099.00
41.5248 1139.00
41.59 1167.00
41.6552 1177.00
41.7204 1269.00
41.7856 1304.00
41.8508 1298.00
41.916 1316.00
41.9812 1395.00
42.0464 1510.00
42.1116 1597.00
42.1768 1664.00
42.242 1724.00
42.3072 1803.00
42.3724 1730.00
42.4376 1659.00
42.5028 1458.00
42.568 1369.00
42.6332 1277.00
42.6983 1180.00
42.7635 1093.00
42.8287 1114.00
42.8939 1107.00
42.9591 1119.00
43.0243 1122.00
43.0895 1173.00
43.1547 1185.00
43.2199 1210.00
43.2851 1215.00
43.3503 1233.00
43.4155 1322.00
43.4807 1349.00
43.5459 1356.00
43.6111 1448.00
43.6763 1461.00
43.7415 1622.00
43.8067 1802.00
43.8719 2063.00
43.9371 2231.00
44.0023 2340.00
44.0675 2349.00
44.1327 2069.00
44.1979 1970.00
44.2631 1831.00
44.3283 1623.00
44.3935 1525.00
44.4587 1486.00
44.5239 1384.00
44.5891 1381.00
44.6543 1335.00
44.7195 1308.00
44.7847 1353.00
44.8499 1380.00
44.9151 1345.00
44.9803 1379.00
45.0455 1404.00
45.1107 1399.00
45.1759 1344.00
45.2411 1380.00
45.3063 1389.00
45.3715 1345.00
45.4367 1288.00
45.5019 1291.00
45.5671 1394.00
45.6323 1408.00
45.6975 1298.00
45.7627 1378.00
45.8279 1427.00
45.8931 1566.00
45.9583 1669.00
46.0235 1830.00
46.0887 1911.00
46.1539 1931.00
46.2191 1887.00
46.2843 1833.00
46.3495 1782.00
46.4147 1653.00
46.4799 1608.00
46.5451 1591.00
46.6103 1389.00
46.6755 1342.00
46.7407 1335.00
46.8059 1289.00
46.8711 1254.00
46.9363 1346.00
47.0015 1397.00
47.0667 1461.00
47.1319 1540.00
47.1971 1500.00
47.2623 1638.00
47.3275 1652.00
47.3927 1733.00
47.4579 1716.00
47.523 1785.00
47.5882 1857.00
47.6534 1898.00
47.7186 2005.00
47.7838 2098.00
47.849 2300.00
47.9142 2591.00
47.9794 2784.00
48.0446 2901.00
48.1098 2825.00
48.175 2620.00
48.2402 2442.00
48.3054 2265.00
48.3706 2263.00
48.4358 2045.00
48.501 1833.00
48.5662 1746.00
48.6314 1691.00
48.6966 1559.00
48.7618 1576.00
48.827 1649.00
48.8922 1615.00
48.9574 1681.00
49.0226 1677.00
49.0878 1882.00
49.153 1915.00
49.2182 2107.00
49.2834 2367.00
49.3486 2668.00
49.4138 2831.00
49.479 2980.00
49.5442 3095.00
49.6094 3111.00
49.6746 2889.00
49.7398 2680.00
49.805 2392.00
49.8702 2047.00
49.9354 1799.00
50.0006 1657.00
50.0658 1482.00
50.131 1363.00
50.1962 1303.00
50.2614 1245.00
50.3266 1315.00
50.3918 1265.00
50.457 1286.00
50.5222 1376.00
50.5874 1500.00
50.6526 1463.00
50.7178 1540.00
50.783 1600.00
50.8482 1673.00
50.9134 1731.00
50.9786 1743.00
51.0438 1841.00
51.109 1899.00
51.1742 1913.00
51.2394 1990.00
51.3046 2193.00
51.3698 2461.00
51.435 2581.00
51.5002 2578.00
51.5654 2587.00
51.6306 2358.00
51.6958 2372.00
51.761 2242.00
51.8262 2042.00
51.8914 2005.00
51.9566 1928.00
52.0218 1934.00
52.087 1735.00
52.1522 1556.00
52.2174 1342.00
52.2826 1341.00
52.3477 1254.00
52.4129 1277.00
52.4781 1244.00
52.5433 1234.00
52.6085 1243.00
52.6737 1174.00
52.7389 1138.00
52.8041 1177.00
52.8693 1096.00
52.9345 1161.00
52.9997 1164.00
53.0649 1152.00
53.1301 1165.00
53.1953 1121.00
53.2605 1091.00
53.3257 1079.00
53.3909 1099.00
53.4561 1085.00
53.5213 1138.00
53.5865 1085.00
53.6517 1175.00
53.7169 1155.00
53.7821 1245.00
53.8473 1315.00
53.9125 1365.00
53.9777 1473.00
54.0429 1573.00
54.1081 1625.00
54.1733 1651.00
54.2385 1749.00
54.3037 1842.00
54.3689 1998.00
54.4341 2101.00
54.4993 2147.00
54.5645 2434.00
54.6297 2792.00
54.6949 3020.00
54.7601 3082.00
54.8253 2987.00
54.8905 2776.00
54.9557 2384.00
55.0209 2224.00
55.0861 1982.00
55.1513 1806.00
55.2165 1570.00
55.2817 1477.00
55.3469 1390.00
55.4121 1381.00
55.4773 1360.00
55.5425 1414.00
55.6077 1365.00
55.6729 1355.00
55.7381 1399.00
55.8033 1389.00
55.8685 1373.00
55.9337 1429.00
55.9989 1482.00
56.0641 1400.00
56.1293 1425.00
56.1945 1265.00
56.2597 1174.00
56.3249 1150.00
56.3901 1090.00
56.4553 1132.00
56.5205 1139.00
56.5857 1052.00
56.6509 1119.00
56.7161 1085.00
56.7813 1155.00
56.8465 1207.00
56.9117 1213.00
56.9769 1218.00
57.042 1271.00
57.1073 1257.00
57.1724 1296.00
57.2376 1292.00
57.3028 1362.00
57.368 1381.00
57.4332 1385.00
57.4984 1387.00
57.5636 1451.00
57.6288 1361.00
57.694 1446.00
57.7592 1477.00
57.8244 1540.00
57.8896 1697.00
57.9548 1830.00
58.02 1970.00
58.0852 2103.00
58.1504 2152.00
58.2156 2239.00
58.2808 2249.00
58.346 2218.00
58.4112 2212.00
58.4764 2018.00
58.5416 2009.00
58.6068 2026.00
58.672 1884.00
58.7372 1838.00
58.8024 1791.00
58.8676 1716.00
58.9328 1760.00
58.998 1666.00
59.0632 1847.00
59.1284 1895.00
59.1936 1950.00
59.2588 2034.00
59.324 2178.00
59.3892 2337.00
59.4544 2389.00
59.5196 2532.00
59.5848 2504.00
59.65 2582.00
59.7152 2589.00
59.7804 2592.00
59.8456 2495.00
59.9108 2362.00
59.976 2230.00
60.0412 2217.00
60.1064 2085.00
60.1716 2074.00
60.2368 1737.00
60.302 1690.00
60.3672 1628.00
60.4324 1515.00
60.4976 1436.00
60.5628 1489.00
60.628 1439.00
60.6932 1489.00
60.7584 1304.00
60.8236 1260.00
60.8888 1193.00
60.954 1216.00
61.0192 1132.00
61.0844 1262.00
61.1496 1220.00
61.2148 1270.00
61.28 1289.00
61.3452 1379.00
61.4104 1369.00
61.4756 1390.00
61.5408 1571.00
61.606 1591.00
61.6712 1650.00
61.7364 1696.00
61.8016 1652.00
61.8667 1614.00
61.932 1521.00
61.9971 1474.00
62.0623 1361.00
62.1275 1282.00
62.1927 1197.00
62.2579 1201.00
62.3231 1163.00
62.3883 1160.00
62.4535 1275.00
62.5187 1289.00
62.5839 1259.00
62.6491 1267.00
62.7143 1355.00
62.7795 1392.00
62.8447 1395.00
62.9099 1484.00
62.9751 1420.00
63.0403 1373.00
63.1055 1437.00
63.1707 1401.00
63.2359 1448.00
63.3011 1505.00
63.3663 1475.00
63.4315 1529.00
63.4967 1515.00
63.5619 1514.00
63.6271 1525.00
63.6923 1564.00
63.7575 1570.00
63.8227 1590.00
63.8879 1702.00
63.9531 1779.00
64.0183 1908.00
64.0835 2041.00
64.1487 2116.00
64.2139 2090.00
64.2791 2152.00
64.3443 1980.00
64.4095 1870.00
64.4747 1798.00
64.5399 1635.00
64.6051 1595.00
64.6703 1597.00
64.7355 1520.00
64.8007 1440.00
64.8659 1405.00
64.9311 1341.00
64.9963 1278.00
65.0615 1298.00
65.1267 1263.00
65.1919 1273.00
65.2571 1280.00
65.3223 1358.00
65.3875 1393.00
65.4527 1511.00
65.5179 1516.00
65.5831 1656.00
65.6483 1799.00
65.7135 1747.00
65.7787 1830.00
65.8439 1886.00
65.9091 1959.00
65.9743 2019.00
66.0395 2100.00
66.1047 2204.00
66.1699 2268.00
66.2351 2399.00
66.3003 2225.00
66.3655 2202.00
66.4307 2017.00
66.4959 2004.00
66.561 1922.00
66.6263 1660.00
66.6915 1558.00
66.7566 1475.00
66.8218 1343.00
66.887 1226.00
66.9522 1249.00
67.0174 1260.00
67.0826 1232.00
67.1478 1269.00
67.213 1309.00
67.2782 1335.00
67.3434 1299.00
67.4086 1307.00
67.4738 1310.00
67.539 1297.00
67.6042 1326.00
67.6694 1316.00
67.7346 1316.00
67.7998 1291.00
67.865 1298.00
67.9302 1282.00
67.9954 1332.00
68.0606 1420.00
68.1258 1398.00
68.191 1396.00
68.2562 1505.00
68.3214 1479.00
68.3866 1635.00
68.4518 1667.00
68.517 1696.00
68.5822 1838.00
68.6474 1802.00
68.7126 1698.00
68.7778 1778.00
68.843 1719.00
68.9082 1625.00
68.9734 1634.00
69.0386 1645.00
69.1038 1670.00
69.169 1681.00
69.2342 1601.00
69.2994 1505.00
69.3646 1487.00
69.4298 1512.00
69.495 1512.00
69.5602 1414.00
69.6254 1445.00
69.6906 1459.00
69.7558 1342.00
69.821 1301.00
69.8862 1300.00
69.9514 1303.00
70.0166 1347.00
70.0818 1322.00
70.147 1290.00
70.2122 1326.00
70.2774 1366.00
70.3426 1405.00
70.4078 1559.00
70.473 1643.00
70.5382 1737.00
70.6034 1844.00
70.6686 1771.00
70.7338 1705.00
70.799 1614.00
70.8642 1652.00
70.9294 1491.00
70.9946 1479.00
71.0598 1293.00
71.125 1301.00
71.1902 1251.00
71.2554 1127.00
71.3205 1160.00
71.3858 1134.00
71.451 1082.00
71.5162 1152.00
71.5813 1113.00
71.6465 1122.00
71.7117 1060.00
71.7769 1068.00
71.8421 1154.00
71.9073 1086.00
71.9725 1084.00
72.0377 1116.00
72.1029 1131.00
72.1681 1145.00
72.2333 1154.00
72.2985 1222.00
72.3637 1214.00
72.4289 1220.00
72.4941 1199.00
72.5593 1284.00
72.6245 1337.00
72.6897 1398.00
72.7549 1396.00
72.8201 1363.00
72.8853 1357.00
72.9505 1334.00
73.0157 1253.00
73.0809 1202.00
73.1461 1173.00
73.2113 1248.00
73.2765 1208.00
73.3417 1103.00
73.4069 1108.00
73.4721 1113.00
73.5373 1094.00
73.6025 1070.00
73.6677 1030.00
73.7329 1003.00
73.7981 1101.00
73.8633 1050.00
73.9285 984.00
73.9937 1083.00
74.0589 1055.00
74.1241 1078.00
74.1893 1031.00
74.2545 1099.00
74.3197 1106.00
74.3849 1078.00
74.4501 1123.00
74.5153 1110.00
74.5805 1141.00
74.6457 1050.00
74.7109 1158.00
74.7761 1096.00
74.8413 1126.00
74.9065 1075.00
74.9717 1180.00
75.0369 1127.00
75.1021 1134.00
75.1673 1114.00
75.2325 1147.00
75.2977 1139.00
75.3629 1123.00
75.4281 1127.00
75.4933 1126.00
75.5585 1111.00
75.6237 1101.00
75.6889 1113.00
75.7541 1097.00
75.8193 1079.00
75.8845 1118.00
75.9497 1088.00
76.0149 1099.00
76.0801 1065.00
76.1452 1145.00
76.2104 1148.00
76.2756 1121.00
76.3409 1187.00
76.406 1069.00
76.4712 1063.00
76.5364 1190.00
76.6016 1195.00
76.6668 1275.00
76.732 1233.00
76.7972 1194.00
76.8624 1252.00
76.9276 1274.00
76.9928 1250.00
77.058 1284.00
77.1232 1221.00
77.1884 1188.00
77.2536 1193.00
77.3188 1182.00
77.384 1134.00
77.4492 1136.00
77.5144 1087.00
77.5796 1136.00
77.6448 1175.00
77.71 1091.00
77.7752 1135.00
77.8404 1226.00
77.9056 1125.00
77.9708 1183.00
78.036 1240.00
78.1012 1166.00
78.1664 1161.00
78.2316 1153.00
78.2968 1170.00
78.362 1146.00
78.4272 1180.00
78.4924 1144.00
78.5576 1091.00
78.6228 1174.00
78.688 1235.00
78.7532 1239.00
78.8184 1167.00
78.8836 1347.00
78.9488 1346.00
79.014 1342.00
79.0792 1356.00
79.1444 1310.00
79.2096 1245.00
79.2748 1231.00
79.34 1238.00
79.4052 1271.00
79.4704 1251.00
79.5356 1194.00
79.6008 1288.00
79.666 1229.00
79.7312 1195.00
79.7964 1172.00
79.8616 1190.00
79.9268 1257.00
79.992 1250.00
80.0572 1278.00
80.1224 1276.00
80.1876 1265.00
80.2528 1281.00
80.318 1180.00
80.3832 1159.00
80.4484 1200.00
80.5136 1129.00
80.5788 1127.00
80.644 1084.00
80.7092 1049.00
80.7744 1058.00
80.8396 1059.00
80.9048 1044.00
80.9699 1106.00
81.0351 1054.00
81.1003 1141.00
81.1655 1089.00
81.2307 1165.00
81.2959 1106.00
81.3611 1153.00
81.4263 1082.00
81.4915 1122.00
81.5567 1116.00
81.6219 1208.00
81.6871 1140.00
81.7523 1144.00
81.8175 1133.00
81.8827 1152.00
81.9479 1132.00
82.0131 1129.00
82.0783 1123.00
82.1435 1095.00
82.2087 1080.00
82.2739 1095.00
82.3391 1097.00
82.4043 1101.00
82.4695 1106.00
82.5347 1155.00
82.5999 1146.00
82.6651 1134.00
82.7303 1025.00
82.7955 1107.00
82.8607 1093.00
82.9259 1088.00
82.9911 1152.00
83.0563 1147.00
83.1215 1092.00
83.1867 1199.00
83.2519 1108.00
83.3171 1148.00
83.3823 1076.00
83.4475 1156.00
83.5127 1152.00
83.5779 1062.00
83.6431 1172.00
83.7083 1137.00
83.7735 1182.00
83.8387 1158.00
83.9039 1172.00
83.9691 1139.00
84.0343 1162.00
84.0995 1199.00
84.1647 1213.00
84.2299 1194.00
84.2951 1210.00
84.3603 1225.00
84.4255 1201.00
84.4907 1141.00
84.5559 1177.00
84.6211 1160.00
84.6863 1109.00
84.7515 1134.00
84.8167 1112.00
84.8819 1162.00
84.9471 1119.00
85.0123 1179.00
85.0775 1137.00
85.1427 1172.00
85.2079 1108.00
85.2731 1158.00
85.3383 1176.00
85.4035 1193.00
85.4687 1138.00
85.5339 1156.00
85.5991 1150.00
85.6643 1151.00
85.7295 1137.00
85.7946 1154.00
85.8598 1089.00
85.925 1184.00
85.9903 1076.00
86.0554 1049.00
86.1206 1034.00
86.1858 1079.00
86.251 1044.00
86.3162 1110.00
86.3814 1011.00
86.4466 1153.00
86.5118 1166.00
86.577 1138.00
86.6422 1144.00
86.7074 1157.00
86.7726 1175.00
86.8378 1230.00
86.903 1215.00
86.9682 1232.00
87.0334 1242.00
87.0986 1283.00
87.1638 1221.00
87.229 1198.00
87.2942 1222.00
87.3594 1171.00
87.4246 1198.00
87.4898 1159.00
87.555 1178.00
87.6202 1119.00
87.6854 1026.00
87.7506 1065.00
87.8158 1010.00
87.881 1079.00
87.9462 1028.00
88.0114 1030.00
88.0766 1058.00
88.1418 927.00
88.207 980.00
88.2722 1022.00
88.3374 918.00
88.4026 946.00
88.4678 946.00
88.533 907.00
88.5982 998.00
88.6634 923.00
88.7286 939.00
88.7938 967.00
88.859 969.00
88.9242 1001.00
88.9894 907.00
89.0546 988.00
89.1198 961.00
89.185 960.00
89.2502 938.00
89.3154 980.00
89.3806 935.00
89.4458 973.00
89.511 1042.00
89.5762 910.00
89.6414 936.00
89.7066 1000.00
89.7718 981.00
89.837 1003.00
89.9022 1015.00
89.9674 1060.00
90.0326 987.00
90.0978 996.00
90.163 1028.00
90.2282 1056.00
90.2934 1062.00
90.3586 1034.00
90.4238 1102.00
90.489 1085.00
90.5542 1116.00
90.6193 1103.00
90.6845 1059.00
90.7497 1059.00
90.8149 1128.00
90.8801 1128.00
90.9453 1070.00
91.0105 1166.00
91.0757 1174.00
91.1409 1156.00
91.2061 1170.00
91.2713 1130.00
91.3365 1104.00
91.4017 1133.00
91.4669 1101.00
91.5321 1183.00
91.5973 1121.00
91.6625 1212.00
91.7277 1230.00
91.7929 1253.00
91.8581 1245.00
91.9233 1278.00
91.9885 1273.00
92.0537 1351.00
92.1189 1374.00
92.1841 1357.00
92.2493 1402.00
92.3145 1369.00
92.3797 1425.00
92.4449 1434.00
92.5101 1370.00
92.5753 1367.00
92.6405 1323.00
92.7057 1273.00
92.7709 1249.00
92.8361 1199.00
92.9013 1211.00
92.9665 1184.00
93.0317 1212.00
93.0969 1113.00
93.1621 1071.00
93.2273 1092.00
93.2925 1035.00
93.3577 1035.00
93.4229 1067.00
93.4881 1001.00
93.5533 1020.00
93.6185 1018.00
93.6837 992.00
93.7489 1007.00
93.8141 955.00
93.8793 955.00
93.9445 955.00
94.0097 991.00
94.0749 944.00
94.1401 922.00
94.2053 939.00
94.2705 930.00
94.3357 953.00
94.4009 996.00
94.4661 944.00
94.5313 989.00
94.5965 946.00
94.6617 958.00
94.7269 969.00
94.7921 1018.00
94.8573 1058.00
94.9225 1097.00
94.9877 1079.00
95.0529 1041.00
95.1181 1060.00
95.1833 977.00
95.2485 1019.00
95.3137 1026.00
95.3789 1112.00
95.444 1045.00
95.5092 1072.00
95.5744 1051.00
95.6396 1051.00
95.7048 1148.00
95.77 1120.00
95.8352 1050.00
95.9004 1104.00
95.9656 1063.00
96.0308 1047.00
96.096 1051.00
96.1612 1040.00
96.2264 1017.00
96.2916 1050.00
96.3568 1076.00
96.422 1117.00
96.4872 1024.00
96.5524 1070.00
96.6176 1085.00
96.6828 1058.00
96.748 1087.00
96.8132 1042.00
96.8784 1086.00
96.9436 1138.00
97.0088 1030.00
97.074 1111.00
97.1392 1091.00
97.2044 1156.00
97.2696 1169.00
97.3348 1120.00
97.4 1192.00
97.4652 1155.00
97.5304 1083.00
97.5956 1147.00
97.6608 1125.00
97.726 1165.00
97.7912 1093.00
97.8564 1135.00
97.9216 1141.00
97.9868 1081.00
98.052 1071.00
98.1172 1137.00
98.1824 1109.00
98.2476 1083.00
98.3128 1056.00
98.378 985.00
98.4432 1026.00
98.5084 1038.00
98.5736 1108.00
98.6388 1139.00
98.704 1047.00
98.7692 1046.00
98.8344 1055.00
98.8996 1085.00
98.9648 1134.00
99.03 1091.00
99.0952 1077.00
99.1604 1103.00
99.2256 1150.00
99.2908 1137.00
99.356 1037.00
99.4212 1069.00
99.4864 1115.00
99.5516 1081.00
99.6168 1121.00
99.682 1074.00
99.7472 1068.00
99.8124 1097.00
99.8776 1009.00
99.9428 1072.00
100.008 1013.00
100.073 1085.00
100.095 1061.00