File: data/xrd_creation/results/NSC_196.xy
9.903433 2798.00
9.968632 2821.00
10.0338 2796.00
10.099 2848.00
10.1642 2776.00
10.2294 2680.00
10.2946 2705.00
10.3598 2690.00
10.425 2637.00
10.4902 2683.00
10.5554 2667.00
10.6206 2650.00
10.6858 2568.00
10.751 2710.00
10.8162 2571.00
10.8814 2708.00
10.9466 2556.00
11.0118 2489.00
11.077 2618.00
11.1422 2559.00
11.2074 2343.00
11.2726 2563.00
11.3378 2492.00
11.403 2452.00
11.4682 2387.00
11.5334 2385.00
11.5986 2405.00
11.6638 2330.00
11.729 2378.00
11.7942 2366.00
11.8594 2338.00
11.9246 2401.00
11.9898 2278.00
12.055 2246.00
12.1202 2336.00
12.1854 2147.00
12.2506 2214.00
12.3158 2277.00
12.381 2265.00
12.4462 2255.00
12.5114 2147.00
12.5766 2216.00
12.6418 2091.00
12.707 2103.00
12.7722 2112.00
12.8374 2087.00
12.9026 2059.00
12.9678 2140.00
13.033 2108.00
13.0982 2104.00
13.1634 2106.00
13.2286 2030.00
13.2938 2065.00
13.359 2018.00
13.4242 2089.00
13.4894 1968.00
13.5546 2092.00
13.6198 2051.00
13.685 2039.00
13.7502 2104.00
13.8154 2156.00
13.8805 2317.00
13.9457 2504.00
14.0109 2784.00
14.0761 3211.00
14.1413 3382.00
14.2065 2856.00
14.2717 2314.00
14.3369 2044.00
14.4021 2043.00
14.4673 2005.00
14.5325 2037.00
14.5977 1979.00
14.6629 1931.00
14.7281 1990.00
14.7933 1951.00
14.8585 1934.00
14.9237 1984.00
14.9889 2064.00
15.0541 2054.00
15.1193 2126.00
15.1845 1936.00
15.2497 1886.00
15.3149 1922.00
15.3801 1862.00
15.4453 1893.00
15.5105 1853.00
15.5757 1867.00
15.6409 1798.00
15.7061 1813.00
15.7713 1808.00
15.8365 1728.00
15.9017 1865.00
15.9669 1730.00
16.0321 1780.00
16.0973 1768.00
16.1625 1796.00
16.2277 1831.00
16.2929 1828.00
16.3581 1818.00
16.4233 1796.00
16.4885 1771.00
16.5537 1770.00
16.6189 1672.00
16.6841 1790.00
16.7493 1742.00
16.8145 1783.00
16.8797 1804.00
16.9449 1841.00
17.0101 1963.00
17.0753 2138.00
17.1405 2518.00
17.2057 2276.00
17.2709 1770.00
17.3361 1715.00
17.4013 1650.00
17.4665 1666.00
17.5317 1675.00
17.5969 1740.00
17.6621 1863.00
17.7273 1870.00
17.7925 2003.00
17.8577 2092.00
17.9229 2012.00
17.9881 1803.00
18.0533 1733.00
18.1185 1656.00
18.1837 1581.00
18.2489 1559.00
18.3141 1600.00
18.3793 1708.00
18.4445 1592.00
18.5097 1649.00
18.5749 1611.00
18.6401 1575.00
18.7052 1627.00
18.7704 1527.00
18.8356 1587.00
18.9008 1592.00
18.966 1589.00
19.0312 1653.00
19.0964 1650.00
19.1616 1609.00
19.2268 1714.00
19.292 1800.00
19.3572 1889.00
19.4224 2018.00
19.4876 2367.00
19.5528 2861.00
19.618 4040.00
19.6832 5892.00
19.7484 9847.00
19.8136 14160.00
19.8788 16815.00
19.944 15610.00
20.0092 11298.00
20.0744 5836.00
20.1396 3032.00
20.2048 2208.00
20.27 1960.00
20.3352 1823.00
20.4004 1745.00
20.4656 1639.00
20.5308 1659.00
20.596 1563.00
20.6612 1612.00
20.7264 1549.00
20.7916 1572.00
20.8568 1572.00
20.922 1625.00
20.9872 1558.00
21.0524 1610.00
21.1176 1569.00
21.1828 1570.00
21.248 1553.00
21.3132 1509.00
21.3784 1591.00
21.4436 1622.00
21.5088 1602.00
21.574 1562.00
21.6392 1560.00
21.7044 1595.00
21.7696 1581.00
21.8348 1616.00
21.9 1552.00
21.9652 1567.00
22.0304 1445.00
22.0956 1435.00
22.1608 1478.00
22.226 1429.00
22.2912 1435.00
22.3564 1538.00
22.4216 1513.00
22.4868 1443.00
22.552 1499.00
22.6172 1411.00
22.6824 1440.00
22.7476 1438.00
22.8128 1499.00
22.878 1423.00
22.9432 1563.00
23.0084 1454.00
23.0736 1626.00
23.1388 1746.00
23.204 1960.00
23.2692 2257.00
23.3344 2446.00
23.3996 2145.00
23.4647 1701.00
23.5299 1451.00
23.5951 1361.00
23.6603 1374.00
23.7255 1323.00
23.7907 1305.00
23.8559 1369.00
23.9211 1326.00
23.9863 1301.00
24.0515 1334.00
24.1167 1417.00
24.1819 1484.00
24.2471 1548.00
24.3123 1690.00
24.3775 2038.00
24.4427 2423.00
24.5079 2538.00
24.5731 2236.00
24.6383 1844.00
24.7035 1742.00
24.7687 1708.00
24.8339 2007.00
24.8991 2321.00
24.9643 2102.00
25.0295 1835.00
25.0947 1565.00
25.1599 1414.00
25.2251 1590.00
25.2903 1889.00
25.3555 2020.00
25.4207 1592.00
25.4859 1263.00
25.5511 1223.00
25.6163 1296.00
25.6815 1293.00
25.7467 1345.00
25.8119 1332.00
25.8771 1337.00
25.9423 1393.00
26.0075 1295.00
26.0727 1343.00
26.1379 1371.00
26.2031 1400.00
26.2683 1377.00
26.3335 1411.00
26.3987 1422.00
26.4639 1454.00
26.5291 1515.00
26.5943 1688.00
26.6595 2064.00
26.7247 2782.00
26.7899 4383.00
26.8551 6699.00
26.9203 7561.00
26.9855 5462.00
27.0507 3263.00
27.1159 2160.00
27.1811 1727.00
27.2463 1518.00
27.3115 1471.00
27.3767 1411.00
27.4419 1428.00
27.5071 1381.00
27.5723 1351.00
27.6375 1410.00
27.7027 1465.00
27.7679 1537.00
27.8331 1750.00
27.8983 2048.00
27.9635 2651.00
28.0287 3671.00
28.0939 4774.00
28.1591 5536.00
28.2243 5027.00
28.2894 3734.00
28.3546 2744.00
28.4198 2774.00
28.485 3681.00
28.5502 5513.00
28.6154 7828.00
28.6806 8613.00
28.7458 6844.00
28.811 4378.00
28.8762 2767.00
28.9414 2185.00
29.0066 1756.00
29.0718 1640.00
29.137 1489.00
29.2022 1382.00
29.2674 1365.00
29.3326 1318.00
29.3978 1343.00
29.463 1490.00
29.5282 1736.00
29.5934 2623.00
29.6586 3780.00
29.7238 3290.00
29.789 2053.00
29.8542 1422.00
29.9194 1247.00
29.9846 1261.00
30.0498 1257.00
30.115 1178.00
30.1802 1234.00
30.2454 1229.00
30.3106 1230.00
30.3758 1439.00
30.441 1460.00
30.5062 1708.00
30.5714 1892.00
30.6366 1977.00
30.7018 1971.00
30.767 1804.00
30.8322 1562.00
30.8974 1455.00
30.9626 1466.00
31.0278 1438.00
31.093 1573.00
31.1582 1750.00
31.2234 2093.00
31.2886 2526.00
31.3538 3418.00
31.419 4846.00
31.4842 6408.00
31.5494 8517.00
31.6146 9352.00
31.6798 7908.00
31.745 5651.00
31.8102 4939.00
31.8754 5852.00
31.9406 6858.00
32.0058 6192.00
32.071 4622.00
32.1362 3092.00
32.2014 2163.00
32.2666 1739.00
32.3318 1505.00
32.397 1398.00
32.4622 1351.00
32.5274 1211.00
32.5926 1188.00
32.6578 1216.00
32.723 1204.00
32.7882 1192.00
32.8534 1127.00
32.9186 1199.00
32.9838 1148.00
33.0489 1263.00
33.1141 1215.00
33.1793 1175.00
33.2445 1218.00
33.3097 1199.00
33.3749 1226.00
33.4401 1262.00
33.5053 1281.00
33.5705 1329.00
33.6357 1331.00
33.7009 1357.00
33.7661 1368.00
33.8313 1507.00
33.8965 1724.00
33.9617 1983.00
34.0269 2847.00
34.0921 4514.00
34.1573 6645.00
34.2225 6991.00
34.2877 6585.00
34.3529 6557.00
34.4181 7671.00
34.4833 9192.00
34.5485 9926.00
34.6137 9033.00
34.6789 6836.00
34.7441 4484.00
34.8093 3275.00
34.8745 3043.00
34.9397 3063.00
35.0049 2838.00
35.0701 2800.00
35.1353 2962.00
35.2005 2618.00
35.2657 1941.00
35.3309 1482.00
35.3961 1303.00
35.4613 1259.00
35.5265 1342.00
35.5917 1435.00
35.6569 1704.00
35.7221 2214.00
35.7873 2752.00
35.8525 2826.00
35.9177 2221.00
35.9829 1665.00
36.0481 1321.00
36.1133 1268.00
36.1785 1274.00
36.2437 1316.00
36.3089 1425.00
36.3741 1451.00
36.4393 1363.00
36.5045 1227.00
36.5697 1109.00
36.6349 1002.00
36.7001 949.00
36.7653 967.00
36.8305 963.00
36.8957 943.00
36.9609 1018.00
37.0261 952.00
37.0913 948.00
37.1565 1003.00
37.2217 989.00
37.2869 1013.00
37.3521 1037.00
37.4173 1228.00
37.4825 1636.00
37.5477 2204.00
37.6129 1874.00
37.6781 1492.00
37.7433 1079.00
37.8085 1085.00
37.8736 1034.00
37.9388 980.00
38.004 1046.00
38.0692 1251.00
38.1344 1526.00
38.1996 2023.00
38.2648 2199.00
38.33 1939.00
38.3952 1625.00
38.4604 1291.00
38.5256 1131.00
38.5908 1053.00
38.656 1001.00
38.7212 947.00
38.7864 1008.00
38.8516 1023.00
38.9168 1032.00
38.982 1224.00
39.0472 1354.00
39.1124 1586.00
39.1776 1641.00
39.2428 1614.00
39.308 1462.00
39.3732 1285.00
39.4384 1132.00
39.5036 996.00
39.5688 1022.00
39.634 973.00
39.6992 984.00
39.7644 1139.00
39.8296 1225.00
39.8948 1383.00
39.96 1461.00
40.0252 1566.00
40.0904 1615.00
40.1556 1603.00
40.2208 1579.00
40.286 1458.00
40.3512 1292.00
40.4164 1120.00
40.4816 1031.00
40.5468 947.00
40.612 891.00
40.6772 971.00
40.7424 915.00
40.8076 943.00
40.8728 910.00
40.938 931.00
41.0032 988.00
41.0684 1040.00
41.1336 1218.00
41.1988 1529.00
41.264 1801.00
41.3292 1663.00
41.3944 1575.00
41.4596 1416.00
41.5248 1369.00
41.59 1354.00
41.6552 1316.00
41.7204 1448.00
41.7856 1455.00
41.8508 1545.00
41.916 1676.00
41.9812 1711.00
42.0464 1540.00
42.1116 1386.00
42.1768 1229.00
42.242 1222.00
42.3072 1139.00
42.3724 1215.00
42.4376 1250.00
42.5028 1373.00
42.568 1379.00
42.6332 1585.00
42.6983 1592.00
42.7635 1584.00
42.8287 1464.00
42.8939 1364.00
42.9591 1240.00
43.0243 1128.00
43.0895 982.00
43.1547 915.00
43.2199 881.00
43.2851 897.00
43.3503 845.00
43.4155 834.00
43.4807 858.00
43.5459 836.00
43.6111 824.00
43.6763 828.00
43.7415 836.00
43.8067 831.00
43.8719 760.00
43.9371 854.00
44.0023 822.00
44.0675 810.00
44.1327 822.00
44.1979 831.00
44.2631 805.00
44.3283 894.00
44.3935 844.00
44.4587 902.00
44.5239 958.00
44.5891 1032.00
44.6543 1236.00
44.7195 1443.00
44.7847 1758.00
44.8499 2109.00
44.9151 2425.00
44.9803 2777.00
45.0455 2894.00
45.1107 2864.00
45.1759 2570.00
45.2411 2168.00
45.3063 1844.00
45.3715 1496.00
45.4367 1291.00
45.5019 1090.00
45.5671 1017.00
45.6323 931.00
45.6975 953.00
45.7627 1003.00
45.8279 1176.00
45.8931 1165.00
45.9583 1217.00
46.0235 1265.00
46.0887 1263.00
46.1539 1183.00
46.2191 1125.00
46.2843 974.00
46.3495 898.00
46.4147 971.00
46.4799 960.00
46.5451 880.00
46.6103 920.00
46.6755 1012.00
46.7407 1034.00
46.8059 1070.00
46.8711 1209.00
46.9363 1315.00
47.0015 1511.00
47.0667 1820.00
47.1319 2211.00
47.1971 2615.00
47.2623 2973.00
47.3275 3305.00
47.3927 3277.00
47.4579 3021.00
47.523 2542.00
47.5882 2112.00
47.6534 1607.00
47.7186 1305.00
47.7838 1027.00
47.849 960.00
47.9142 870.00
47.9794 859.00
48.0446 830.00
48.1098 845.00
48.175 807.00
48.2402 889.00
48.3054 1040.00
48.3706 1306.00
48.4358 1420.00
48.501 1218.00
48.5662 1110.00
48.6314 907.00
48.6966 869.00
48.7618 856.00
48.827 816.00
48.8922 809.00
48.9574 808.00
49.0226 847.00
49.0878 848.00
49.153 855.00
49.2182 975.00
49.2834 975.00
49.3486 1036.00
49.4138 1111.00
49.479 1236.00
49.5442 1265.00
49.6094 1353.00
49.6746 1546.00
49.7398 1972.00
49.805 2311.00
49.8702 2414.00
49.9354 2033.00
50.0006 1776.00
50.0658 1420.00
50.131 1218.00
50.1962 1085.00
50.2614 989.00
50.3266 930.00
50.3918 918.00
50.457 957.00
50.5222 1162.00
50.5874 1389.00
50.6526 1802.00
50.7178 2313.00
50.783 2367.00
50.8482 2189.00
50.9134 1922.00
50.9786 1686.00
51.0438 1689.00
51.109 1794.00
51.1742 1920.00
51.2394 1881.00
51.3046 1679.00
51.3698 1526.00
51.435 1509.00
51.5002 1575.00
51.5654 1599.00
51.6306 1796.00
51.6958 1970.00
51.761 2400.00
51.8262 2806.00
51.8914 3320.00
51.9566 3919.00
52.0218 4921.00
52.087 4752.00
52.1522 3925.00
52.2174 3233.00
52.2826 2612.00
52.3477 2387.00
52.4129 1918.00
52.4781 1567.00
52.5433 1286.00
52.6085 1009.00
52.6737 894.00
52.7389 906.00
52.8041 876.00
52.8693 915.00
52.9345 892.00
52.9997 866.00
53.0649 866.00
53.1301 921.00
53.1953 1083.00
53.2605 1126.00
53.3257 1317.00
53.3909 1577.00
53.4561 1892.00
53.5213 2093.00
53.5865 2318.00
53.6517 2602.00
53.7169 2739.00
53.7821 2601.00
53.8473 2460.00
53.9125 2047.00
53.9777 1765.00
54.0429 1510.00
54.1081 1164.00
54.1733 1082.00
54.2385 978.00
54.3037 1005.00
54.3689 1010.00
54.4341 1074.00
54.4993 1171.00
54.5645 1380.00
54.6297 1465.00
54.6949 1467.00
54.7601 1447.00
54.8253 1394.00
54.8905 1340.00
54.9557 1549.00
55.0209 1679.00
55.0861 1656.00
55.1513 1552.00
55.2165 1341.00
55.2817 1231.00
55.3469 1104.00
55.4121 1011.00
55.4773 995.00
55.5425 972.00
55.6077 1024.00
55.6729 988.00
55.7381 1124.00
55.8033 1327.00
55.8685 1560.00
55.9337 1769.00
55.9989 1753.00
56.0641 1698.00
56.1293 1528.00
56.1945 1401.00
56.2597 1284.00
56.3249 1073.00
56.3901 1102.00
56.4553 1174.00
56.5205 1246.00
56.5857 1319.00
56.6509 1251.00
56.7161 1206.00
56.7813 1118.00
56.8465 1006.00
56.9117 916.00
56.9769 876.00
57.042 825.00
57.1073 856.00
57.1724 836.00
57.2376 845.00
57.3028 918.00
57.368 834.00
57.4332 823.00
57.4984 922.00
57.5636 962.00
57.6288 1063.00
57.694 1240.00
57.7592 1297.00
57.8244 1390.00
57.8896 1377.00
57.9548 1402.00
58.02 1439.00
58.0852 1345.00
58.1504 1309.00
58.2156 1148.00
58.2808 1142.00
58.346 1093.00
58.4112 1085.00
58.4764 1065.00
58.5416 1086.00
58.6068 1223.00
58.672 1188.00
58.7372 1168.00
58.8024 1204.00
58.8676 1143.00
58.9328 1216.00
58.998 1108.00
59.0632 1113.00
59.1284 1131.00
59.1936 1159.00
59.2588 1201.00
59.324 1346.00
59.3892 1423.00
59.4544 1726.00
59.5196 1820.00
59.5848 2135.00
59.65 2424.00
59.7152 2482.00
59.7804 2562.00
59.8456 2572.00
59.9108 2400.00
59.976 2205.00
60.0412 1839.00
60.1064 1770.00
60.1716 1523.00
60.2368 1356.00
60.302 1319.00
60.3672 1441.00
60.4324 1508.00
60.4976 1648.00
60.5628 1621.00
60.628 1540.00
60.6932 1458.00
60.7584 1357.00
60.8236 1225.00
60.8888 1146.00
60.954 1060.00
61.0192 1072.00
61.0844 1059.00
61.1496 1107.00
61.2148 1128.00
61.28 1219.00
61.3452 1431.00
61.4104 1463.00
61.4756 1537.00
61.5408 1602.00
61.606 1635.00
61.6712 1649.00
61.7364 1643.00
61.8016 1638.00
61.8667 1638.00
61.932 1631.00
61.9971 1724.00
62.0623 1690.00
62.1275 1768.00
62.1927 1741.00
62.2579 1465.00
62.3231 1428.00
62.3883 1379.00
62.4535 1309.00
62.5187 1326.00
62.5839 1234.00
62.6491 1197.00
62.7143 1254.00
62.7795 1044.00
62.8447 984.00
62.9099 992.00
62.9751 945.00
63.0403 957.00
63.1055 963.00
63.1707 1050.00
63.2359 1130.00
63.3011 1255.00
63.3663 1361.00
63.4315 1453.00
63.4967 1643.00
63.5619 1607.00
63.6271 1648.00
63.6923 1502.00
63.7575 1401.00
63.8227 1296.00
63.8879 1248.00
63.9531 1172.00
64.0183 1033.00
64.0835 978.00
64.1487 943.00
64.2139 919.00
64.2791 808.00
64.3443 853.00
64.4095 1028.00
64.4747 1126.00
64.5399 993.00
64.6051 970.00
64.6703 1002.00
64.7355 1066.00
64.8007 1088.00
64.8659 1332.00
64.9311 1552.00
64.9963 1602.00
65.0615 1657.00
65.1267 1519.00
65.1919 1434.00
65.2571 1381.00
65.3223 1156.00
65.3875 1137.00
65.4527 1072.00
65.5179 972.00
65.5831 896.00
65.6483 869.00
65.7135 959.00
65.7787 989.00
65.8439 1195.00
65.9091 1401.00
65.9743 1642.00
66.0395 1880.00
66.1047 1867.00
66.1699 2030.00
66.2351 2179.00
66.3003 2028.00
66.3655 1895.00
66.4307 1795.00
66.4959 1673.00
66.561 1443.00
66.6263 1333.00
66.6915 1285.00
66.7566 1291.00
66.8218 1170.00
66.887 1151.00
66.9522 1184.00
67.0174 1212.00
67.0826 1214.00
67.1478 1299.00
67.213 1334.00
67.2782 1413.00
67.3434 1290.00
67.4086 1379.00
67.4738 1342.00
67.539 1258.00
67.6042 1179.00
67.6694 1064.00
67.7346 997.00
67.7998 887.00
67.865 795.00
67.9302 773.00
67.9954 725.00
68.0606 772.00
68.1258 721.00
68.191 654.00
68.2562 691.00
68.3214 689.00
68.3866 839.00
68.4518 813.00
68.517 816.00
68.5822 893.00
68.6474 952.00
68.7126 988.00
68.7778 985.00
68.843 1006.00
68.9082 1051.00
68.9734 1051.00
69.0386 955.00
69.1038 909.00
69.169 895.00
69.2342 831.00
69.2994 758.00
69.3646 832.00
69.4298 816.00
69.495 785.00
69.5602 845.00
69.6254 847.00
69.6906 842.00
69.7558 849.00
69.821 826.00
69.8862 804.00
69.9514 845.00
70.0166 716.00
70.0818 740.00
70.147 762.00
70.2122 738.00
70.2774 783.00
70.3426 763.00
70.4078 799.00
70.473 721.00
70.5382 776.00
70.6034 662.00
70.6686 678.00
70.7338 668.00
70.799 690.00
70.8642 685.00
70.9294 722.00
70.9946 684.00
71.0598 673.00
71.125 697.00
71.1902 669.00
71.2554 778.00
71.3205 774.00
71.3858 859.00
71.451 947.00
71.5162 1075.00
71.5813 1109.00
71.6465 1140.00
71.7117 1158.00
71.7769 1274.00
71.8421 1196.00
71.9073 1219.00
71.9725 1204.00
72.0377 1220.00
72.1029 1204.00
72.1681 1110.00
72.2333 1196.00
72.2985 1100.00
72.3637 1146.00
72.4289 1105.00
72.4941 1054.00
72.5593 1119.00
72.6245 974.00
72.6897 979.00
72.7549 879.00
72.8201 928.00
72.8853 885.00
72.9505 873.00
73.0157 872.00
73.0809 861.00
73.1461 786.00
73.2113 780.00
73.2765 761.00
73.3417 855.00
73.4069 759.00
73.4721 790.00
73.5373 790.00
73.6025 762.00
73.6677 819.00
73.7329 814.00
73.7981 833.00
73.8633 862.00
73.9285 813.00
73.9937 870.00
74.0589 861.00
74.1241 923.00
74.1893 844.00
74.2545 897.00
74.3197 933.00
74.3849 905.00
74.4501 953.00
74.5153 928.00
74.5805 905.00
74.6457 857.00
74.7109 823.00
74.7761 775.00
74.8413 765.00
74.9065 807.00
74.9717 738.00
75.0369 753.00
75.1021 768.00
75.1673 789.00
75.2325 785.00
75.2977 840.00
75.3629 867.00
75.4281 913.00
75.4933 923.00
75.5585 1010.00
75.6237 1048.00
75.6889 1077.00
75.7541 1075.00
75.8193 1133.00
75.8845 1170.00
75.9497 1112.00
76.0149 1111.00
76.0801 1068.00
76.1452 1009.00
76.2104 990.00
76.2756 934.00
76.3409 902.00
76.406 864.00
76.4712 789.00
76.5364 758.00
76.6016 749.00
76.6668 718.00
76.732 734.00
76.7972 708.00
76.8624 719.00
76.9276 746.00
76.9928 753.00
77.058 790.00
77.1232 827.00
77.1884 861.00
77.2536 822.00
77.3188 947.00
77.384 926.00
77.4492 932.00
77.5144 921.00
77.5796 919.00
77.6448 862.00
77.71 990.00
77.7752 941.00
77.8404 994.00
77.9056 932.00
77.9708 849.00
78.036 860.00
78.1012 901.00
78.1664 944.00
78.2316 844.00
78.2968 836.00
78.362 839.00
78.4272 845.00
78.4924 787.00
78.5576 797.00
78.6228 825.00
78.688 842.00
78.7532 875.00
78.8184 922.00
78.8836 1036.00
78.9488 1196.00
79.014 1103.00
79.0792 1015.00
79.1444 975.00
79.2096 922.00
79.2748 850.00
79.34 786.00
79.4052 801.00
79.4704 787.00
79.5356 807.00
79.6008 833.00
79.666 864.00
79.7312 861.00
79.7964 811.00
79.8616 825.00
79.9268 774.00
79.992 826.00
80.0572 694.00
80.1224 729.00
80.1876 760.00
80.2528 759.00
80.318 761.00
80.3832 776.00
80.4484 817.00
80.5136 868.00
80.5788 866.00
80.644 936.00
80.7092 941.00
80.7744 1030.00
80.8396 976.00
80.9048 1055.00
80.9699 1209.00
81.0351 1116.00
81.1003 1085.00
81.1655 1090.00
81.2307 1189.00
81.2959 1172.00
81.3611 1137.00
81.4263 1028.00
81.4915 991.00
81.5567 988.00
81.6219 928.00
81.6871 825.00
81.7523 818.00
81.8175 837.00
81.8827 740.00
81.9479 794.00
82.0131 844.00
82.0783 821.00
82.1435 830.00
82.2087 930.00
82.2739 906.00
82.3391 940.00
82.4043 991.00
82.4695 947.00
82.5347 943.00
82.5999 908.00
82.6651 867.00
82.7303 873.00
82.7955 879.00
82.8607 824.00
82.9259 884.00
82.9911 847.00
83.0563 784.00
83.1215 821.00
83.1867 757.00
83.2519 755.00
83.3171 818.00
83.3823 813.00
83.4475 755.00
83.5127 785.00
83.5779 803.00
83.6431 850.00
83.7083 886.00
83.7735 942.00
83.8387 968.00
83.9039 1119.00
83.9691 1119.00
84.0343 1036.00
84.0995 1045.00
84.1647 1082.00
84.2299 960.00
84.2951 884.00
84.3603 878.00
84.4255 884.00
84.4907 842.00
84.5559 778.00
84.6211 788.00
84.6863 861.00
84.7515 844.00
84.8167 780.00
84.8819 819.00
84.9471 826.00
85.0123 815.00
85.0775 790.00
85.1427 743.00
85.2079 782.00
85.2731 748.00
85.3383 738.00
85.4035 685.00
85.4687 728.00
85.5339 706.00
85.5991 776.00
85.6643 710.00
85.7295 780.00
85.7946 722.00
85.8598 773.00
85.925 746.00
85.9903 740.00
86.0554 695.00
86.1206 748.00
86.1858 659.00
86.251 669.00
86.3162 639.00
86.3814 707.00
86.4466 686.00
86.5118 714.00
86.577 640.00
86.6422 715.00
86.7074 714.00
86.7726 741.00
86.8378 750.00
86.903 764.00
86.9682 833.00
87.0334 782.00
87.0986 887.00
87.1638 923.00
87.229 940.00
87.2942 1042.00
87.3594 1153.00
87.4246 1165.00
87.4898 1109.00
87.555 1095.00
87.6202 1112.00
87.6854 1125.00
87.7506 1085.00
87.8158 1014.00
87.881 950.00
87.9462 969.00
88.0114 938.00
88.0766 866.00
88.1418 849.00
88.207 928.00
88.2722 933.00
88.3374 907.00
88.4026 893.00
88.4678 916.00
88.533 881.00
88.5982 909.00
88.6634 897.00
88.7286 934.00
88.7938 912.00
88.859 926.00
88.9242 941.00
88.9894 925.00
89.0546 966.00
89.1198 935.00
89.185 908.00
89.2502 910.00
89.3154 908.00
89.3806 933.00
89.4458 904.00
89.511 967.00
89.5762 933.00
89.6414 883.00
89.7066 918.00
89.7718 984.00
89.837 1001.00
89.9022 1070.00
89.9674 1136.00
90.0326 1134.00
90.0978 1068.00
90.163 1048.00
90.2282 1093.00
90.2934 1064.00
90.3586 983.00
90.4238 987.00
90.489 945.00
90.5542 979.00
90.6193 977.00
90.6845 996.00
90.7497 1045.00
90.8149 963.00
90.8801 1037.00
90.9453 1115.00
91.0105 1162.00
91.0757 1262.00
91.1409 1300.00
91.2061 1164.00
91.2713 1101.00
91.3365 1014.00
91.4017 1021.00
91.4669 976.00
91.5321 919.00
91.5973 841.00
91.6625 810.00
91.7277 770.00
91.7929 757.00
91.8581 758.00
91.9233 779.00
91.9885 830.00
92.0537 783.00
92.1189 807.00
92.1841 759.00
92.2493 794.00
92.3145 819.00
92.3797 835.00
92.4449 713.00
92.5101 819.00
92.5753 774.00
92.6405 768.00
92.7057 716.00
92.7709 754.00
92.8361 770.00
92.9013 690.00
92.9665 726.00
93.0317 704.00
93.0969 671.00
93.1621 717.00
93.2273 740.00
93.2925 757.00
93.3577 795.00
93.4229 795.00
93.4881 823.00
93.5533 832.00
93.6185 784.00
93.6837 832.00
93.7489 814.00
93.8141 840.00
93.8793 776.00
93.9445 808.00
94.0097 833.00
94.0749 853.00
94.1401 802.00
94.2053 871.00
94.2705 857.00
94.3357 798.00
94.4009 873.00
94.4661 929.00
94.5313 895.00
94.5965 885.00
94.6617 848.00
94.7269 833.00
94.7921 867.00
94.8573 790.00
94.9225 811.00
94.9877 759.00
95.0529 803.00
95.1181 752.00
95.1833 799.00
95.2485 817.00
95.3137 682.00
95.3789 800.00
95.444 794.00
95.5092 812.00
95.5744 787.00
95.6396 856.00
95.7048 861.00
95.77 936.00
95.8352 864.00
95.9004 868.00
95.9656 922.00
96.0308 1023.00
96.096 1055.00
96.1612 1110.00
96.2264 1109.00
96.2916 982.00
96.3568 1004.00
96.422 949.00
96.4872 964.00
96.5524 946.00
96.6176 886.00
96.6828 880.00
96.748 821.00
96.8132 828.00
96.8784 849.00
96.9436 819.00
97.0088 772.00
97.074 832.00
97.1392 825.00
97.2044 849.00
97.2696 837.00
97.3348 857.00
97.4 852.00
97.4652 875.00
97.5304 860.00
97.5956 901.00
97.6608 860.00
97.726 812.00
97.7912 851.00
97.8564 832.00
97.9216 824.00
97.9868 808.00
98.052 762.00
98.1172 754.00
98.1824 717.00
98.2476 733.00
98.3128 703.00
98.378 666.00
98.4432 738.00
98.5084 712.00
98.5736 681.00
98.6388 683.00
98.704 698.00
98.7692 736.00
98.8344 684.00
98.8996 722.00
98.9648 730.00
99.03 714.00
99.0952 823.00
99.1604 811.00
99.2256 747.00
99.2908 847.00
99.356 821.00
99.4212 817.00
99.4864 871.00
99.5516 804.00
99.6168 859.00
99.682 862.00
99.7472 852.00
99.8124 799.00
99.8776 872.00
99.9428 911.00
100.008 838.00
100.073 921.00
100.095 945.00