File: data/xrd_creation/results/NSC_117.xy
9.903433 2792.00
9.968632 2816.00
10.0338 2761.00
10.099 2711.00
10.1642 2665.00
10.2294 2614.00
10.2946 2652.00
10.3598 2560.00
10.425 2577.00
10.4902 2623.00
10.5554 2658.00
10.6206 2501.00
10.6858 2565.00
10.751 2485.00
10.8162 2467.00
10.8814 2490.00
10.9466 2463.00
11.0118 2532.00
11.077 2431.00
11.1422 2593.00
11.2074 2640.00
11.2726 2869.00
11.3378 3067.00
11.403 3248.00
11.4682 3628.00
11.5334 4271.00
11.5986 5219.00
11.6638 7103.00
11.729 8375.00
11.7942 6115.00
11.8594 4758.00
11.9246 2708.00
11.9898 2458.00
12.055 2349.00
12.1202 2254.00
12.1854 2231.00
12.2506 2200.00
12.3158 2077.00
12.381 2051.00
12.4462 2148.00
12.5114 2052.00
12.5766 2122.00
12.6418 2141.00
12.707 2023.00
12.7722 2035.00
12.8374 2052.00
12.9026 1955.00
12.9678 2008.00
13.033 2032.00
13.0982 2003.00
13.1634 1894.00
13.2286 1833.00
13.2938 1922.00
13.359 1948.00
13.4242 1853.00
13.4894 1896.00
13.5546 1901.00
13.6198 1860.00
13.685 1944.00
13.7502 1858.00
13.8154 1854.00
13.8805 1866.00
13.9457 1844.00
14.0109 1900.00
14.0761 1831.00
14.1413 1779.00
14.2065 1874.00
14.2717 1803.00
14.3369 1872.00
14.4021 1876.00
14.4673 1842.00
14.5325 2010.00
14.5977 2078.00
14.6629 2171.00
14.7281 2469.00
14.7933 2748.00
14.8585 3260.00
14.9237 2973.00
14.9889 2333.00
15.0541 1983.00
15.1193 2125.00
15.1845 2164.00
15.2497 2244.00
15.3149 2503.00
15.3801 2812.00
15.4453 3455.00
15.5105 4767.00
15.5757 4341.00
15.6409 2245.00
15.7061 1861.00
15.7713 1749.00
15.8365 1836.00
15.9017 1743.00
15.9669 1819.00
16.0321 1797.00
16.0973 1896.00
16.1625 2062.00
16.2277 2234.00
16.2929 2351.00
16.3581 2714.00
16.4233 3653.00
16.4885 4836.00
16.5537 5020.00
16.6189 2505.00
16.6841 1763.00
16.7493 1635.00
16.8145 1623.00
16.8797 1655.00
16.9449 1563.00
17.0101 1631.00
17.0753 1552.00
17.1405 1628.00
17.2057 1604.00
17.2709 1555.00
17.3361 1644.00
17.4013 1594.00
17.4665 1592.00
17.5317 1569.00
17.5969 1609.00
17.6621 1615.00
17.7273 1659.00
17.7925 1592.00
17.8577 1620.00
17.9229 1649.00
17.9881 1712.00
18.0533 1907.00
18.1185 2035.00
18.1837 2165.00
18.2489 1903.00
18.3141 1707.00
18.3793 1552.00
18.4445 1552.00
18.5097 1575.00
18.5749 1464.00
18.6401 1500.00
18.7052 1509.00
18.7704 1418.00
18.8356 1473.00
18.9008 1431.00
18.966 1426.00
19.0312 1501.00
19.0964 1528.00
19.1616 1474.00
19.2268 1585.00
19.292 1497.00
19.3572 1429.00
19.4224 1380.00
19.4876 1355.00
19.5528 1396.00
19.618 1427.00
19.6832 1399.00
19.7484 1329.00
19.8136 1468.00
19.8788 1393.00
19.944 1444.00
20.0092 1507.00
20.0744 1548.00
20.1396 1639.00
20.2048 1806.00
20.27 2000.00
20.3352 2589.00
20.4004 2844.00
20.4656 2118.00
20.5308 1442.00
20.596 1456.00
20.6612 1467.00
20.7264 1453.00
20.7916 1457.00
20.8568 1569.00
20.922 1727.00
20.9872 2088.00
21.0524 2248.00
21.1176 2112.00
21.1828 1896.00
21.248 1540.00
21.3132 1392.00
21.3784 1267.00
21.4436 1342.00
21.5088 1355.00
21.574 1410.00
21.6392 1375.00
21.7044 1425.00
21.7696 1420.00
21.8348 1519.00
21.9 1521.00
21.9652 1586.00
22.0304 1911.00
22.0956 2512.00
22.1608 2282.00
22.226 1480.00
22.2912 1274.00
22.3564 1306.00
22.4216 1342.00
22.4868 1285.00
22.552 1277.00
22.6172 1305.00
22.6824 1312.00
22.7476 1341.00
22.8128 1478.00
22.878 1553.00
22.9432 1412.00
23.0084 1433.00
23.0736 1259.00
23.1388 1266.00
23.204 1312.00
23.2692 1292.00
23.3344 1286.00
23.3996 1386.00
23.4647 1455.00
23.5299 1535.00
23.5951 1576.00
23.6603 1423.00
23.7255 1241.00
23.7907 1195.00
23.8559 1139.00
23.9211 1172.00
23.9863 1184.00
24.0515 1202.00
24.1167 1226.00
24.1819 1201.00
24.2471 1245.00
24.3123 1328.00
24.3775 1418.00
24.4427 1668.00
24.5079 1660.00
24.5731 1508.00
24.6383 1632.00
24.7035 1837.00
24.7687 1556.00
24.8339 1281.00
24.8991 1164.00
24.9643 1159.00
25.0295 1233.00
25.0947 1147.00
25.1599 1173.00
25.2251 1167.00
25.2903 1198.00
25.3555 1288.00
25.4207 1297.00
25.4859 1433.00
25.5511 1318.00
25.6163 1370.00
25.6815 1423.00
25.7467 1501.00
25.8119 1832.00
25.8771 2587.00
25.9423 3977.00
26.0075 5195.00
26.0727 5053.00
26.1379 5663.00
26.2031 4465.00
26.2683 2314.00
26.3335 1420.00
26.3987 1335.00
26.4639 1311.00
26.5291 1344.00
26.5943 1521.00
26.6595 1882.00
26.7247 2059.00
26.7899 2126.00
26.8551 2374.00
26.9203 2604.00
26.9855 1864.00
27.0507 1479.00
27.1159 1228.00
27.1811 1249.00
27.2463 1323.00
27.3115 1420.00
27.3767 1272.00
27.4419 1195.00
27.5071 1220.00
27.5723 1281.00
27.6375 1553.00
27.7027 1774.00
27.7679 2473.00
27.8331 3486.00
27.8983 4329.00
27.9635 4339.00
28.0287 3387.00
28.0939 3555.00
28.1591 4643.00
28.2243 5272.00
28.2894 4674.00
28.3546 2609.00
28.4198 1495.00
28.485 1200.00
28.5502 1118.00
28.6154 1036.00
28.6806 1000.00
28.7458 973.00
28.811 1050.00
28.8762 950.00
28.9414 1038.00
29.0066 959.00
29.0718 999.00
29.137 974.00
29.2022 941.00
29.2674 1016.00
29.3326 1018.00
29.3978 1010.00
29.463 1045.00
29.5282 1044.00
29.5934 1223.00
29.6586 1212.00
29.7238 1121.00
29.789 1178.00
29.8542 1133.00
29.9194 1134.00
29.9846 1274.00
30.0498 1618.00
30.115 2258.00
30.1802 3216.00
30.2454 3208.00
30.3106 3129.00
30.3758 2568.00
30.441 2225.00
30.5062 1631.00
30.5714 1235.00
30.6366 973.00
30.7018 949.00
30.767 955.00
30.8322 1020.00
30.8974 1049.00
30.9626 979.00
31.0278 1007.00
31.093 1052.00
31.1582 1005.00
31.2234 1010.00
31.2886 1118.00
31.3538 1278.00
31.419 1757.00
31.4842 2253.00
31.5494 2078.00
31.6146 1534.00
31.6798 1392.00
31.745 1646.00
31.8102 1997.00
31.8754 2781.00
31.9406 3344.00
32.0058 2926.00
32.071 2225.00
32.1362 1751.00
32.2014 1396.00
32.2666 1319.00
32.3318 1422.00
32.397 1902.00
32.4622 2235.00
32.5274 1750.00
32.5926 1340.00
32.6578 1093.00
32.723 1234.00
32.7882 1413.00
32.8534 1896.00
32.9186 2830.00
32.9838 4857.00
33.0489 6976.00
33.1141 5402.00
33.1793 3082.00
33.2445 1533.00
33.3097 1426.00
33.3749 1724.00
33.4401 2244.00
33.5053 2086.00
33.5705 1531.00
33.6357 1047.00
33.7009 1036.00
33.7661 1040.00
33.8313 1051.00
33.8965 1230.00
33.9617 1319.00
34.0269 1567.00
34.0921 2121.00
34.1573 2504.00
34.2225 2467.00
34.2877 2283.00
34.3529 2761.00
34.4181 4065.00
34.4833 5577.00
34.5485 4991.00
34.6137 3307.00
34.6789 2100.00
34.7441 2061.00
34.8093 2125.00
34.8745 2641.00
34.9397 2749.00
35.0049 1996.00
35.0701 1390.00
35.1353 1022.00
35.2005 988.00
35.2657 1093.00
35.3309 1010.00
35.3961 973.00
35.4613 929.00
35.5265 938.00
35.5917 871.00
35.6569 791.00
35.7221 810.00
35.7873 776.00
35.8525 700.00
35.9177 774.00
35.9829 781.00
36.0481 819.00
36.1133 895.00
36.1785 954.00
36.2437 1038.00
36.3089 1107.00
36.3741 1269.00
36.4393 1136.00
36.5045 1036.00
36.5697 997.00
36.6349 1042.00
36.7001 955.00
36.7653 979.00
36.8305 1128.00
36.8957 1334.00
36.9609 1151.00
37.0261 1174.00
37.0913 1396.00
37.1565 1486.00
37.2217 1631.00
37.2869 1345.00
37.3521 1055.00
37.4173 895.00
37.4825 807.00
37.5477 829.00
37.6129 798.00
37.6781 808.00
37.7433 825.00
37.8085 836.00
37.8736 936.00
37.9388 899.00
38.004 829.00
38.0692 817.00
38.1344 889.00
38.1996 965.00
38.2648 1004.00
38.33 893.00
38.3952 845.00
38.4604 785.00
38.5256 784.00
38.5908 738.00
38.656 830.00
38.7212 1078.00
38.7864 1144.00
38.8516 1132.00
38.9168 1046.00
38.982 904.00
39.0472 919.00
39.1124 1013.00
39.1776 1064.00
39.2428 1041.00
39.308 901.00
39.3732 806.00
39.4384 774.00
39.5036 719.00
39.5688 803.00
39.634 746.00
39.6992 739.00
39.7644 746.00
39.8296 704.00
39.8948 716.00
39.96 785.00
40.0252 831.00
40.0904 803.00
40.1556 790.00
40.2208 766.00
40.286 852.00
40.3512 947.00
40.4164 1030.00
40.4816 1219.00
40.5468 1283.00
40.612 1204.00
40.6772 1113.00
40.7424 1025.00
40.8076 857.00
40.8728 759.00
40.938 725.00
41.0032 764.00
41.0684 775.00
41.1336 701.00
41.1988 667.00
41.264 705.00
41.3292 737.00
41.3944 733.00
41.4596 739.00
41.5248 705.00
41.59 740.00
41.6552 753.00
41.7204 951.00
41.7856 1191.00
41.8508 1083.00
41.916 969.00
41.9812 871.00
42.0464 885.00
42.1116 1081.00
42.1768 1341.00
42.242 1371.00
42.3072 1461.00
42.3724 1457.00
42.4376 1433.00
42.5028 1571.00
42.568 1310.00
42.6332 991.00
42.6983 909.00
42.7635 837.00
42.8287 892.00
42.8939 897.00
42.9591 903.00
43.0243 782.00
43.0895 764.00
43.1547 781.00
43.2199 772.00
43.2851 828.00
43.3503 963.00
43.4155 1235.00
43.4807 1700.00
43.5459 1796.00
43.6111 1429.00
43.6763 1054.00
43.7415 975.00
43.8067 1027.00
43.8719 1053.00
43.9371 971.00
44.0023 865.00
44.0675 874.00
44.1327 886.00
44.1979 853.00
44.2631 833.00
44.3283 693.00
44.3935 715.00
44.4587 679.00
44.5239 662.00
44.5891 693.00
44.6543 734.00
44.7195 879.00
44.7847 1119.00
44.8499 998.00
44.9151 1132.00
44.9803 1050.00
45.0455 1126.00
45.1107 1231.00
45.1759 1220.00
45.2411 1120.00
45.3063 976.00
45.3715 901.00
45.4367 883.00
45.5019 871.00
45.5671 880.00
45.6323 892.00
45.6975 859.00
45.7627 757.00
45.8279 683.00
45.8931 646.00
45.9583 616.00
46.0235 648.00
46.0887 754.00
46.1539 863.00
46.2191 901.00
46.2843 939.00
46.3495 929.00
46.4147 802.00
46.4799 828.00
46.5451 728.00
46.6103 677.00
46.6755 715.00
46.7407 754.00
46.8059 754.00
46.8711 683.00
46.9363 742.00
47.0015 945.00
47.0667 1052.00
47.1319 976.00
47.1971 1136.00
47.2623 1232.00
47.3275 1426.00
47.3927 1564.00
47.4579 1826.00
47.523 2498.00
47.5882 2400.00
47.6534 1806.00
47.7186 1377.00
47.7838 882.00
47.849 818.00
47.9142 718.00
47.9794 690.00
48.0446 677.00
48.1098 655.00
48.175 640.00
48.2402 579.00
48.3054 617.00
48.3706 619.00
48.4358 663.00
48.501 693.00
48.5662 723.00
48.6314 785.00
48.6966 747.00
48.7618 683.00
48.827 683.00
48.8922 745.00
48.9574 812.00
49.0226 978.00
49.0878 1107.00
49.153 935.00
49.2182 966.00
49.2834 898.00
49.3486 794.00
49.4138 779.00
49.479 757.00
49.5442 755.00
49.6094 863.00
49.6746 1203.00
49.7398 1393.00
49.805 1272.00
49.8702 1053.00
49.9354 1031.00
50.0006 1115.00
50.0658 1355.00
50.131 1193.00
50.1962 1177.00
50.2614 1300.00
50.3266 1338.00
50.3918 1103.00
50.457 960.00
50.5222 805.00
50.5874 687.00
50.6526 632.00
50.7178 572.00
50.783 618.00
50.8482 570.00
50.9134 600.00
50.9786 588.00
51.0438 546.00
51.109 583.00
51.1742 583.00
51.2394 620.00
51.3046 646.00
51.3698 752.00
51.435 752.00
51.5002 756.00
51.5654 744.00
51.6306 792.00
51.6958 1128.00
51.761 1582.00
51.8262 1645.00
51.8914 1571.00
51.9566 1681.00
52.0218 1739.00
52.087 1618.00
52.1522 1376.00
52.2174 1124.00
52.2826 1035.00
52.3477 930.00
52.4129 1044.00
52.4781 1222.00
52.5433 1265.00
52.6085 1156.00
52.6737 931.00
52.7389 732.00
52.8041 710.00
52.8693 774.00
52.9345 840.00
52.9997 1124.00
53.0649 1312.00
53.1301 1253.00
53.1953 1331.00
53.2605 1099.00
53.3257 979.00
53.3909 864.00
53.4561 730.00
53.5213 692.00
53.5865 787.00
53.6517 761.00
53.7169 768.00
53.7821 771.00
53.8473 815.00
53.9125 755.00
53.9777 686.00
54.0429 665.00
54.1081 668.00
54.1733 636.00
54.2385 692.00
54.3037 700.00
54.3689 686.00
54.4341 764.00
54.4993 747.00
54.5645 809.00
54.6297 804.00
54.6949 828.00
54.7601 851.00
54.8253 880.00
54.8905 853.00
54.9557 921.00
55.0209 820.00
55.0861 809.00
55.1513 724.00
55.2165 737.00
55.2817 721.00
55.3469 785.00
55.4121 870.00
55.4773 948.00
55.5425 1095.00
55.6077 1047.00
55.6729 891.00
55.7381 892.00
55.8033 713.00
55.8685 616.00
55.9337 630.00
55.9989 586.00
56.0641 723.00
56.1293 747.00
56.1945 874.00
56.2597 868.00
56.3249 782.00
56.3901 747.00
56.4553 725.00
56.5205 664.00
56.5857 689.00
56.6509 695.00
56.7161 805.00
56.7813 930.00
56.8465 1020.00
56.9117 1022.00
56.9769 893.00
57.042 888.00
57.1073 896.00
57.1724 790.00
57.2376 820.00
57.3028 980.00
57.368 824.00
57.4332 829.00
57.4984 725.00
57.5636 662.00
57.6288 640.00
57.694 630.00
57.7592 690.00
57.8244 642.00
57.8896 764.00
57.9548 851.00
58.02 910.00
58.0852 1059.00
58.1504 1003.00
58.2156 1113.00
58.2808 1197.00
58.346 1253.00
58.4112 1489.00
58.4764 1609.00
58.5416 1405.00
58.6068 1367.00
58.672 1257.00
58.7372 977.00
58.8024 983.00
58.8676 1014.00
58.9328 833.00
58.998 886.00
59.0632 945.00
59.1284 970.00
59.1936 1059.00
59.2588 1263.00
59.324 1441.00
59.3892 1605.00
59.4544 1798.00
59.5196 1709.00
59.5848 1944.00
59.65 1775.00
59.7152 1615.00
59.7804 1587.00
59.8456 1334.00
59.9108 1208.00
59.976 1203.00
60.0412 1078.00
60.1064 1126.00
60.1716 1396.00
60.2368 1452.00
60.302 1050.00
60.3672 1016.00
60.4324 946.00
60.4976 812.00
60.5628 834.00
60.628 845.00
60.6932 800.00
60.7584 837.00
60.8236 800.00
60.8888 791.00
60.954 749.00
61.0192 781.00
61.0844 697.00
61.1496 632.00
61.2148 586.00
61.28 617.00
61.3452 629.00
61.4104 682.00
61.4756 675.00
61.5408 748.00
61.606 752.00
61.6712 704.00
61.7364 803.00
61.8016 713.00
61.8667 789.00
61.932 716.00
61.9971 687.00
62.0623 733.00
62.1275 789.00
62.1927 710.00
62.2579 797.00
62.3231 896.00
62.3883 864.00
62.4535 710.00
62.5187 701.00
62.5839 681.00
62.6491 624.00
62.7143 603.00
62.7795 568.00
62.8447 693.00
62.9099 820.00
62.9751 991.00
63.0403 875.00
63.1055 952.00
63.1707 800.00
63.2359 741.00
63.3011 678.00
63.3663 646.00
63.4315 626.00
63.4967 717.00
63.5619 704.00
63.6271 784.00
63.6923 745.00
63.7575 746.00
63.8227 826.00
63.8879 755.00
63.9531 722.00
64.0183 738.00
64.0835 659.00
64.1487 735.00
64.2139 686.00
64.2791 736.00
64.3443 636.00
64.4095 625.00
64.4747 664.00
64.5399 685.00
64.6051 572.00
64.6703 554.00
64.7355 639.00
64.8007 642.00
64.8659 724.00
64.9311 783.00
64.9963 782.00
65.0615 756.00
65.1267 715.00
65.1919 721.00
65.2571 763.00
65.3223 755.00
65.3875 798.00
65.4527 852.00
65.5179 906.00
65.5831 836.00
65.6483 815.00
65.7135 865.00
65.7787 948.00
65.8439 930.00
65.9091 1002.00
65.9743 990.00
66.0395 907.00
66.1047 898.00
66.1699 882.00
66.2351 894.00
66.3003 819.00
66.3655 783.00
66.4307 730.00
66.4959 731.00
66.561 680.00
66.6263 641.00
66.6915 672.00
66.7566 746.00
66.8218 637.00
66.887 677.00
66.9522 624.00
67.0174 659.00
67.0826 622.00
67.1478 542.00
67.213 598.00
67.2782 623.00
67.3434 649.00
67.4086 694.00
67.4738 680.00
67.539 658.00
67.6042 676.00
67.6694 573.00
67.7346 556.00
67.7998 537.00
67.865 552.00
67.9302 553.00
67.9954 652.00
68.0606 604.00
68.1258 582.00
68.191 573.00
68.2562 554.00
68.3214 524.00
68.3866 540.00
68.4518 501.00
68.517 551.00
68.5822 564.00
68.6474 583.00
68.7126 593.00
68.7778 560.00
68.843 622.00
68.9082 621.00
68.9734 607.00
69.0386 506.00
69.1038 489.00
69.169 564.00
69.2342 500.00
69.2994 530.00
69.3646 511.00
69.4298 508.00
69.495 518.00
69.5602 486.00
69.6254 512.00
69.6906 501.00
69.7558 536.00
69.821 549.00
69.8862 542.00
69.9514 500.00
70.0166 503.00
70.0818 496.00
70.147 437.00
70.2122 483.00
70.2774 462.00
70.3426 509.00
70.4078 482.00
70.473 459.00
70.5382 487.00
70.6034 504.00
70.6686 517.00
70.7338 450.00
70.799 535.00
70.8642 527.00
70.9294 494.00
70.9946 533.00
71.0598 516.00
71.125 523.00
71.1902 536.00
71.2554 534.00
71.3205 538.00
71.3858 515.00
71.451 531.00
71.5162 589.00
71.5813 554.00
71.6465 575.00
71.7117 550.00
71.7769 518.00
71.8421 464.00
71.9073 528.00
71.9725 484.00
72.0377 493.00
72.1029 564.00
72.1681 657.00
72.2333 616.00
72.2985 581.00
72.3637 665.00
72.4289 566.00
72.4941 520.00
72.5593 457.00
72.6245 486.00
72.6897 413.00
72.7549 404.00
72.8201 402.00
72.8853 499.00
72.9505 488.00
73.0157 437.00
73.0809 502.00
73.1461 542.00
73.2113 568.00
73.2765 596.00
73.3417 666.00
73.4069 648.00
73.4721 612.00
73.5373 589.00
73.6025 543.00
73.6677 539.00
73.7329 497.00
73.7981 460.00
73.8633 476.00
73.9285 440.00
73.9937 426.00
74.0589 420.00
74.1241 469.00
74.1893 467.00
74.2545 488.00
74.3197 510.00
74.3849 582.00
74.4501 510.00
74.5153 572.00
74.5805 569.00
74.6457 613.00
74.7109 565.00
74.7761 568.00
74.8413 645.00
74.9065 564.00
74.9717 657.00
75.0369 601.00
75.1021 532.00
75.1673 519.00
75.2325 600.00
75.2977 671.00
75.3629 602.00
75.4281 592.00
75.4933 536.00
75.5585 530.00
75.6237 489.00
75.6889 479.00
75.7541 496.00
75.8193 489.00
75.8845 502.00
75.9497 528.00
76.0149 460.00
76.0801 518.00
76.1452 486.00
76.2104 549.00
76.2756 474.00
76.3409 552.00
76.406 507.00
76.4712 535.00
76.5364 530.00
76.6016 590.00
76.6668 511.00
76.732 525.00
76.7972 577.00
76.8624 531.00
76.9276 550.00
76.9928 506.00
77.058 548.00
77.1232 533.00
77.1884 573.00
77.2536 592.00
77.3188 549.00
77.384 568.00
77.4492 577.00
77.5144 540.00
77.5796 527.00
77.6448 528.00
77.71 525.00
77.7752 492.00
77.8404 494.00
77.9056 496.00
77.9708 504.00
78.036 483.00
78.1012 542.00
78.1664 524.00
78.2316 522.00
78.2968 592.00
78.362 513.00
78.4272 519.00
78.4924 507.00
78.5576 568.00
78.6228 615.00
78.688 547.00
78.7532 630.00
78.8184 705.00
78.8836 772.00
78.9488 728.00
79.014 673.00
79.0792 675.00
79.1444 640.00
79.2096 631.00
79.2748 618.00
79.34 645.00
79.4052 576.00
79.4704 495.00
79.5356 515.00
79.6008 489.00
79.666 500.00
79.7312 442.00
79.7964 433.00
79.8616 417.00
79.9268 461.00
79.992 429.00
80.0572 454.00
80.1224 491.00
80.1876 509.00
80.2528 485.00
80.318 462.00
80.3832 483.00
80.4484 494.00
80.5136 520.00
80.5788 445.00
80.644 431.00
80.7092 468.00
80.7744 479.00
80.8396 457.00
80.9048 500.00
80.9699 471.00
81.0351 461.00
81.1003 467.00
81.1655 478.00
81.2307 477.00
81.2959 510.00
81.3611 485.00
81.4263 479.00
81.4915 494.00
81.5567 561.00
81.6219 530.00
81.6871 484.00
81.7523 518.00
81.8175 530.00
81.8827 547.00
81.9479 469.00
82.0131 506.00
82.0783 478.00
82.1435 448.00
82.2087 460.00
82.2739 390.00
82.3391 386.00
82.4043 394.00
82.4695 412.00
82.5347 399.00
82.5999 498.00
82.6651 463.00
82.7303 476.00
82.7955 539.00
82.8607 501.00
82.9259 438.00
82.9911 471.00
83.0563 472.00
83.1215 458.00
83.1867 478.00
83.2519 492.00
83.3171 513.00
83.3823 500.00
83.4475 516.00
83.5127 469.00
83.5779 495.00
83.6431 481.00
83.7083 548.00
83.7735 483.00
83.8387 559.00
83.9039 594.00
83.9691 589.00
84.0343 517.00
84.0995 464.00
84.1647 462.00
84.2299 439.00
84.2951 499.00
84.3603 457.00
84.4255 467.00
84.4907 515.00
84.5559 493.00
84.6211 519.00
84.6863 526.00
84.7515 533.00
84.8167 534.00
84.8819 527.00
84.9471 548.00
85.0123 511.00
85.0775 548.00
85.1427 530.00
85.2079 530.00
85.2731 487.00
85.3383 445.00
85.4035 488.00
85.4687 458.00
85.5339 462.00
85.5991 477.00
85.6643 379.00
85.7295 492.00
85.7946 402.00
85.8598 432.00
85.925 412.00
85.9903 416.00
86.0554 492.00
86.1206 506.00
86.1858 454.00
86.251 441.00
86.3162 483.00
86.3814 440.00
86.4466 470.00
86.5118 440.00
86.577 479.00
86.6422 482.00
86.7074 455.00
86.7726 473.00
86.8378 524.00
86.903 507.00
86.9682 503.00
87.0334 495.00
87.0986 517.00
87.1638 496.00
87.229 549.00
87.2942 442.00
87.3594 476.00
87.4246 447.00
87.4898 467.00
87.555 467.00
87.6202 420.00
87.6854 459.00
87.7506 484.00
87.8158 371.00
87.881 434.00
87.9462 468.00
88.0114 450.00
88.0766 436.00
88.1418 402.00
88.207 433.00
88.2722 439.00
88.3374 515.00
88.4026 560.00
88.4678 519.00
88.533 533.00
88.5982 579.00
88.6634 544.00
88.7286 528.00
88.7938 538.00
88.859 521.00
88.9242 507.00
88.9894 478.00
89.0546 484.00
89.1198 440.00
89.185 488.00
89.2502 524.00
89.3154 474.00
89.3806 497.00
89.4458 479.00
89.511 485.00
89.5762 491.00
89.6414 504.00
89.7066 482.00
89.7718 493.00
89.837 495.00
89.9022 529.00
89.9674 520.00
90.0326 496.00
90.0978 475.00
90.163 489.00
90.2282 466.00
90.2934 536.00
90.3586 521.00
90.4238 562.00
90.489 571.00
90.5542 500.00
90.6193 463.00
90.6845 456.00
90.7497 493.00
90.8149 483.00
90.8801 510.00
90.9453 542.00
91.0105 531.00
91.0757 508.00
91.1409 562.00
91.2061 496.00
91.2713 521.00
91.3365 511.00
91.4017 534.00
91.4669 513.00
91.5321 556.00
91.5973 506.00
91.6625 503.00
91.7277 490.00
91.7929 488.00
91.8581 422.00
91.9233 534.00
91.9885 507.00
92.0537 526.00
92.1189 527.00
92.1841 455.00
92.2493 516.00
92.3145 480.00
92.3797 495.00
92.4449 473.00
92.5101 429.00
92.5753 477.00
92.6405 479.00
92.7057 500.00
92.7709 512.00
92.8361 536.00
92.9013 486.00
92.9665 455.00
93.0317 453.00
93.0969 485.00
93.1621 488.00
93.2273 453.00
93.2925 497.00
93.3577 452.00
93.4229 447.00
93.4881 463.00
93.5533 423.00
93.6185 469.00
93.6837 442.00
93.7489 473.00
93.8141 427.00
93.8793 432.00
93.9445 433.00
94.0097 426.00
94.0749 463.00
94.1401 443.00
94.2053 442.00
94.2705 456.00
94.3357 446.00
94.4009 495.00
94.4661 487.00
94.5313 480.00
94.5965 450.00
94.6617 447.00
94.7269 493.00
94.7921 479.00
94.8573 483.00
94.9225 492.00
94.9877 519.00
95.0529 485.00
95.1181 507.00
95.1833 504.00
95.2485 508.00
95.3137 493.00
95.3789 523.00
95.444 507.00
95.5092 509.00
95.5744 429.00
95.6396 457.00
95.7048 466.00
95.77 493.00
95.8352 525.00
95.9004 469.00
95.9656 513.00
96.0308 516.00
96.096 460.00
96.1612 449.00
96.2264 513.00
96.2916 474.00
96.3568 456.00
96.422 427.00
96.4872 494.00
96.5524 455.00
96.6176 442.00
96.6828 473.00
96.748 515.00
96.8132 481.00
96.8784 495.00
96.9436 488.00
97.0088 527.00
97.074 560.00
97.1392 590.00
97.2044 592.00
97.2696 555.00
97.3348 569.00
97.4 531.00
97.4652 569.00
97.5304 535.00
97.5956 518.00
97.6608 501.00
97.726 474.00
97.7912 461.00
97.8564 493.00
97.9216 464.00
97.9868 514.00
98.052 493.00
98.1172 489.00
98.1824 489.00
98.2476 515.00
98.3128 526.00
98.378 501.00
98.4432 541.00
98.5084 539.00
98.5736 570.00
98.6388 509.00
98.704 529.00
98.7692 504.00
98.8344 509.00
98.8996 493.00
98.9648 484.00
99.03 479.00
99.0952 504.00
99.1604 481.00
99.2256 477.00
99.2908 501.00
99.356 468.00
99.4212 477.00
99.4864 510.00
99.5516 493.00
99.6168 517.00
99.682 542.00
99.7472 551.00
99.8124 561.00
99.8776 513.00
99.9428 493.00
100.008 487.00
100.073 520.00
100.095 472.00