File: data/xrd_creation/results/NSC_166.xy
9.903433 2540.00
9.968632 2526.00
10.0338 2425.00
10.099 2460.00
10.1642 2429.00
10.2294 2462.00
10.2946 2379.00
10.3598 2419.00
10.425 2444.00
10.4902 2289.00
10.5554 2292.00
10.6206 2273.00
10.6858 2286.00
10.751 2286.00
10.8162 2254.00
10.8814 2168.00
10.9466 2146.00
11.0118 2159.00
11.077 2111.00
11.1422 2049.00
11.2074 2090.00
11.2726 2089.00
11.3378 1980.00
11.403 1987.00
11.4682 2005.00
11.5334 1928.00
11.5986 2017.00
11.6638 2027.00
11.729 1932.00
11.7942 1919.00
11.8594 1854.00
11.9246 1862.00
11.9898 1878.00
12.055 1921.00
12.1202 1815.00
12.1854 1822.00
12.2506 1793.00
12.3158 1758.00
12.381 1723.00
12.4462 1728.00
12.5114 1713.00
12.5766 1696.00
12.6418 1658.00
12.707 1667.00
12.7722 1650.00
12.8374 1655.00
12.9026 1631.00
12.9678 1648.00
13.033 1593.00
13.0982 1532.00
13.1634 1579.00
13.2286 1530.00
13.2938 1584.00
13.359 1546.00
13.4242 1598.00
13.4894 1509.00
13.5546 1529.00
13.6198 1570.00
13.685 1587.00
13.7502 1490.00
13.8154 1500.00
13.8805 1487.00
13.9457 1483.00
14.0109 1462.00
14.0761 1443.00
14.1413 1446.00
14.2065 1409.00
14.2717 1403.00
14.3369 1394.00
14.4021 1372.00
14.4673 1403.00
14.5325 1324.00
14.5977 1380.00
14.6629 1323.00
14.7281 1366.00
14.7933 1405.00
14.8585 1385.00
14.9237 1336.00
14.9889 1373.00
15.0541 1268.00
15.1193 1273.00
15.1845 1273.00
15.2497 1358.00
15.3149 1305.00
15.3801 1349.00
15.4453 1343.00
15.5105 1309.00
15.5757 1343.00
15.6409 1322.00
15.7061 1254.00
15.7713 1253.00
15.8365 1240.00
15.9017 1235.00
15.9669 1220.00
16.0321 1227.00
16.0973 1265.00
16.1625 1215.00
16.2277 1243.00
16.2929 1170.00
16.3581 1219.00
16.4233 1230.00
16.4885 1133.00
16.5537 1241.00
16.6189 1171.00
16.6841 1256.00
16.7493 1182.00
16.8145 1141.00
16.8797 1212.00
16.9449 1171.00
17.0101 1199.00
17.0753 1110.00
17.1405 1146.00
17.2057 1137.00
17.2709 1157.00
17.3361 1105.00
17.4013 1109.00
17.4665 1099.00
17.5317 1147.00
17.5969 1112.00
17.6621 1057.00
17.7273 1119.00
17.7925 1113.00
17.8577 1036.00
17.9229 1113.00
17.9881 995.00
18.0533 1024.00
18.1185 1052.00
18.1837 996.00
18.2489 1012.00
18.3141 1018.00
18.3793 1056.00
18.4445 1079.00
18.5097 990.00
18.5749 993.00
18.6401 987.00
18.7052 1026.00
18.7704 953.00
18.8356 953.00
18.9008 1020.00
18.966 995.00
19.0312 972.00
19.0964 1007.00
19.1616 1046.00
19.2268 1151.00
19.292 1308.00
19.3572 1511.00
19.4224 1512.00
19.4876 1600.00
19.5528 1351.00
19.618 1080.00
19.6832 965.00
19.7484 962.00
19.8136 915.00
19.8788 968.00
19.944 921.00
20.0092 948.00
20.0744 870.00
20.1396 912.00
20.2048 840.00
20.27 893.00
20.3352 825.00
20.4004 940.00
20.4656 880.00
20.5308 936.00
20.596 872.00
20.6612 918.00
20.7264 867.00
20.7916 845.00
20.8568 907.00
20.922 869.00
20.9872 865.00
21.0524 859.00
21.1176 849.00
21.1828 840.00
21.248 846.00
21.3132 846.00
21.3784 893.00
21.4436 852.00
21.5088 801.00
21.574 856.00
21.6392 875.00
21.7044 827.00
21.7696 826.00
21.8348 888.00
21.9 843.00
21.9652 837.00
22.0304 781.00
22.0956 796.00
22.1608 749.00
22.226 832.00
22.2912 796.00
22.3564 806.00
22.4216 771.00
22.4868 793.00
22.552 791.00
22.6172 774.00
22.6824 829.00
22.7476 831.00
22.8128 853.00
22.878 873.00
22.9432 814.00
23.0084 764.00
23.0736 731.00
23.1388 779.00
23.204 733.00
23.2692 730.00
23.3344 767.00
23.3996 756.00
23.4647 721.00
23.5299 712.00
23.5951 769.00
23.6603 736.00
23.7255 664.00
23.7907 742.00
23.8559 708.00
23.9211 731.00
23.9863 753.00
24.0515 724.00
24.1167 742.00
24.1819 716.00
24.2471 725.00
24.3123 723.00
24.3775 697.00
24.4427 680.00
24.5079 683.00
24.5731 687.00
24.6383 701.00
24.7035 733.00
24.7687 698.00
24.8339 669.00
24.8991 613.00
24.9643 640.00
25.0295 658.00
25.0947 683.00
25.1599 684.00
25.2251 664.00
25.2903 675.00
25.3555 606.00
25.4207 615.00
25.4859 681.00
25.5511 684.00
25.6163 615.00
25.6815 671.00
25.7467 612.00
25.8119 607.00
25.8771 618.00
25.9423 611.00
26.0075 671.00
26.0727 664.00
26.1379 644.00
26.2031 584.00
26.2683 659.00
26.3335 628.00
26.3987 664.00
26.4639 655.00
26.5291 648.00
26.5943 604.00
26.6595 604.00
26.7247 596.00
26.7899 660.00
26.8551 581.00
26.9203 614.00
26.9855 587.00
27.0507 607.00
27.1159 625.00
27.1811 582.00
27.2463 578.00
27.3115 583.00
27.3767 610.00
27.4419 626.00
27.5071 648.00
27.5723 790.00
27.6375 903.00
27.7027 849.00
27.7679 657.00
27.8331 597.00
27.8983 616.00
27.9635 584.00
28.0287 583.00
28.0939 572.00
28.1591 598.00
28.2243 595.00
28.2894 580.00
28.3546 593.00
28.4198 611.00
28.485 527.00
28.5502 563.00
28.6154 605.00
28.6806 536.00
28.7458 563.00
28.811 536.00
28.8762 551.00
28.9414 571.00
29.0066 540.00
29.0718 524.00
29.137 588.00
29.2022 531.00
29.2674 558.00
29.3326 543.00
29.3978 533.00
29.463 552.00
29.5282 516.00
29.5934 521.00
29.6586 568.00
29.7238 548.00
29.789 556.00
29.8542 529.00
29.9194 539.00
29.9846 532.00
30.0498 543.00
30.115 613.00
30.1802 582.00
30.2454 571.00
30.3106 579.00
30.3758 538.00
30.441 505.00
30.5062 500.00
30.5714 550.00
30.6366 533.00
30.7018 536.00
30.767 537.00
30.8322 563.00
30.8974 612.00
30.9626 650.00
31.0278 852.00
31.093 988.00
31.1582 933.00
31.2234 712.00
31.2886 575.00
31.3538 507.00
31.419 475.00
31.4842 497.00
31.5494 508.00
31.6146 500.00
31.6798 483.00
31.745 479.00
31.8102 482.00
31.8754 454.00
31.9406 512.00
32.0058 509.00
32.071 479.00
32.1362 467.00
32.2014 482.00
32.2666 478.00
32.3318 424.00
32.397 507.00
32.4622 450.00
32.5274 471.00
32.5926 429.00
32.6578 480.00
32.723 454.00
32.7882 493.00
32.8534 488.00
32.9186 444.00
32.9838 461.00
33.0489 438.00
33.1141 455.00
33.1793 433.00
33.2445 466.00
33.3097 472.00
33.3749 468.00
33.4401 417.00
33.5053 456.00
33.5705 466.00
33.6357 459.00
33.7009 427.00
33.7661 514.00
33.8313 574.00
33.8965 781.00
33.9617 878.00
34.0269 815.00
34.0921 652.00
34.1573 536.00
34.2225 438.00
34.2877 457.00
34.3529 481.00
34.4181 462.00
34.4833 432.00
34.5485 404.00
34.6137 451.00
34.6789 428.00
34.7441 392.00
34.8093 397.00
34.8745 426.00
34.9397 398.00
35.0049 435.00
35.0701 421.00
35.1353 428.00
35.2005 427.00
35.2657 398.00
35.3309 374.00
35.3961 413.00
35.4613 413.00
35.5265 406.00
35.5917 400.00
35.6569 387.00
35.7221 388.00
35.7873 396.00
35.8525 414.00
35.9177 385.00
35.9829 402.00
36.0481 393.00
36.1133 389.00
36.1785 388.00
36.2437 396.00
36.3089 384.00
36.3741 395.00
36.4393 376.00
36.5045 386.00
36.5697 355.00
36.6349 411.00
36.7001 362.00
36.7653 374.00
36.8305 379.00
36.8957 413.00
36.9609 373.00
37.0261 359.00
37.0913 363.00
37.1565 373.00
37.2217 421.00
37.2869 382.00
37.3521 357.00
37.4173 395.00
37.4825 422.00
37.5477 350.00
37.6129 371.00
37.6781 355.00
37.7433 362.00
37.8085 362.00
37.8736 369.00
37.9388 378.00
38.004 382.00
38.0692 370.00
38.1344 383.00
38.1996 398.00
38.2648 376.00
38.33 388.00
38.3952 362.00
38.4604 356.00
38.5256 336.00
38.5908 352.00
38.656 340.00
38.7212 348.00
38.7864 354.00
38.8516 321.00
38.9168 346.00
38.982 324.00
39.0472 378.00
39.1124 334.00
39.1776 340.00
39.2428 343.00
39.308 348.00
39.3732 362.00
39.4384 369.00
39.5036 368.00
39.5688 353.00
39.634 328.00
39.6992 358.00
39.7644 404.00
39.8296 336.00
39.8948 307.00
39.96 328.00
40.0252 351.00
40.0904 312.00
40.1556 330.00
40.2208 338.00
40.286 306.00
40.3512 313.00
40.4164 329.00
40.4816 314.00
40.5468 353.00
40.612 315.00
40.6772 332.00
40.7424 322.00
40.8076 352.00
40.8728 348.00
40.938 310.00
41.0032 337.00
41.0684 321.00
41.1336 306.00
41.1988 340.00
41.264 340.00
41.3292 361.00
41.3944 352.00
41.4596 365.00
41.5248 318.00
41.59 330.00
41.6552 353.00
41.7204 295.00
41.7856 300.00
41.8508 298.00
41.916 350.00
41.9812 332.00
42.0464 311.00
42.1116 336.00
42.1768 306.00
42.242 355.00
42.3072 347.00
42.3724 309.00
42.4376 313.00
42.5028 328.00
42.568 332.00
42.6332 306.00
42.6983 295.00
42.7635 316.00
42.8287 249.00
42.8939 294.00
42.9591 287.00
43.0243 325.00
43.0895 326.00
43.1547 304.00
43.2199 321.00
43.2851 295.00
43.3503 312.00
43.4155 320.00
43.4807 294.00
43.5459 307.00
43.6111 287.00
43.6763 276.00
43.7415 288.00
43.8067 301.00
43.8719 300.00
43.9371 318.00
44.0023 311.00
44.0675 327.00
44.1327 278.00
44.1979 292.00
44.2631 305.00
44.3283 375.00
44.3935 373.00
44.4587 384.00
44.5239 393.00
44.5891 397.00
44.6543 365.00
44.7195 323.00
44.7847 310.00
44.8499 321.00
44.9151 256.00
44.9803 294.00
45.0455 256.00
45.1107 277.00
45.1759 284.00
45.2411 284.00
45.3063 288.00
45.3715 278.00
45.4367 258.00
45.5019 307.00
45.5671 300.00
45.6323 263.00
45.6975 298.00
45.7627 273.00
45.8279 284.00
45.8931 277.00
45.9583 262.00
46.0235 270.00
46.0887 272.00
46.1539 306.00
46.2191 293.00
46.2843 282.00
46.3495 304.00
46.4147 304.00
46.4799 269.00
46.5451 314.00
46.6103 273.00
46.6755 426.00
46.7407 472.00
46.8059 404.00
46.8711 382.00
46.9363 359.00
47.0015 331.00
47.0667 308.00
47.1319 301.00
47.1971 275.00
47.2623 276.00
47.3275 318.00
47.3927 258.00
47.4579 283.00
47.523 260.00
47.5882 287.00
47.6534 264.00
47.7186 248.00
47.7838 244.00
47.849 259.00
47.9142 234.00
47.9794 243.00
48.0446 277.00
48.1098 223.00
48.175 291.00
48.2402 288.00
48.3054 256.00
48.3706 243.00
48.4358 287.00
48.501 245.00
48.5662 262.00
48.6314 243.00
48.6966 283.00
48.7618 265.00
48.827 291.00
48.8922 268.00
48.9574 266.00
49.0226 234.00
49.0878 240.00
49.153 241.00
49.2182 233.00
49.2834 301.00
49.3486 280.00
49.4138 284.00
49.479 249.00
49.5442 271.00
49.6094 263.00
49.6746 263.00
49.7398 280.00
49.805 217.00
49.8702 262.00
49.9354 259.00
50.0006 228.00
50.0658 285.00
50.131 244.00
50.1962 278.00
50.2614 266.00
50.3266 235.00
50.3918 247.00
50.457 270.00
50.5222 244.00
50.5874 271.00
50.6526 279.00
50.7178 273.00
50.783 256.00
50.8482 270.00
50.9134 219.00
50.9786 307.00
51.0438 248.00
51.109 266.00
51.1742 278.00
51.2394 317.00
51.3046 321.00
51.3698 324.00
51.435 281.00
51.5002 269.00
51.5654 237.00
51.6306 247.00
51.6958 261.00
51.761 249.00
51.8262 246.00
51.8914 280.00
51.9566 235.00
52.0218 245.00
52.087 241.00
52.1522 241.00
52.2174 292.00
52.2826 249.00
52.3477 232.00
52.4129 245.00
52.4781 239.00
52.5433 225.00
52.6085 233.00
52.6737 229.00
52.7389 282.00
52.8041 285.00
52.8693 235.00
52.9345 277.00
52.9997 350.00
53.0649 351.00
53.1301 365.00
53.1953 367.00
53.2605 294.00
53.3257 277.00
53.3909 286.00
53.4561 247.00
53.5213 264.00
53.5865 239.00
53.6517 244.00
53.7169 195.00
53.7821 214.00
53.8473 249.00
53.9125 208.00
53.9777 248.00
54.0429 220.00
54.1081 228.00
54.1733 261.00
54.2385 240.00
54.3037 231.00
54.3689 212.00
54.4341 226.00
54.4993 203.00
54.5645 231.00
54.6297 240.00
54.6949 228.00
54.7601 224.00
54.8253 230.00
54.8905 263.00
54.9557 216.00
55.0209 217.00
55.0861 234.00
55.1513 201.00
55.2165 231.00
55.2817 214.00
55.3469 208.00
55.4121 192.00
55.4773 230.00
55.5425 224.00
55.6077 199.00
55.6729 207.00
55.7381 191.00
55.8033 203.00
55.8685 233.00
55.9337 211.00
55.9989 202.00
56.0641 200.00
56.1293 214.00
56.1945 218.00
56.2597 213.00
56.3249 223.00
56.3901 229.00
56.4553 220.00
56.5205 200.00
56.5857 215.00
56.6509 239.00
56.7161 218.00
56.7813 207.00
56.8465 235.00
56.9117 208.00
56.9769 219.00
57.042 199.00
57.1073 185.00
57.1724 176.00
57.2376 200.00
57.3028 197.00
57.368 220.00
57.4332 227.00
57.4984 201.00
57.5636 212.00
57.6288 233.00
57.694 237.00
57.7592 219.00
57.8244 212.00
57.8896 198.00
57.9548 182.00
58.02 223.00
58.0852 194.00
58.1504 198.00
58.2156 199.00
58.2808 189.00
58.346 208.00
58.4112 177.00
58.4764 214.00
58.5416 219.00
58.6068 232.00
58.672 205.00
58.7372 209.00
58.8024 201.00
58.8676 229.00
58.9328 238.00
58.998 274.00
59.0632 305.00
59.1284 287.00
59.1936 298.00
59.2588 258.00
59.324 241.00
59.3892 246.00
59.4544 267.00
59.5196 214.00
59.5848 242.00
59.65 227.00
59.7152 220.00
59.7804 219.00
59.8456 211.00
59.9108 192.00
59.976 181.00
60.0412 203.00
60.1064 172.00
60.1716 202.00
60.2368 219.00
60.302 195.00
60.3672 189.00
60.4324 191.00
60.4976 179.00
60.5628 206.00
60.628 201.00
60.6932 186.00
60.7584 220.00
60.8236 201.00
60.8888 237.00
60.954 216.00
61.0192 220.00
61.0844 209.00
61.1496 257.00
61.2148 199.00
61.28 195.00
61.3452 215.00
61.4104 183.00
61.4756 218.00
61.5408 211.00
61.606 192.00
61.6712 181.00
61.7364 198.00
61.8016 191.00
61.8667 210.00
61.932 191.00
61.9971 204.00
62.0623 195.00
62.1275 187.00
62.1927 191.00
62.2579 238.00
62.3231 189.00
62.3883 186.00
62.4535 197.00
62.5187 184.00
62.5839 181.00
62.6491 209.00
62.7143 224.00
62.7795 201.00
62.8447 184.00
62.9099 207.00
62.9751 216.00
63.0403 192.00
63.1055 195.00
63.1707 226.00
63.2359 179.00
63.3011 205.00
63.3663 208.00
63.4315 198.00
63.4967 200.00
63.5619 175.00
63.6271 174.00
63.6923 183.00
63.7575 221.00
63.8227 190.00
63.8879 178.00
63.9531 188.00
64.0183 168.00
64.0835 203.00
64.1487 171.00
64.2139 193.00
64.2791 176.00
64.3443 187.00
64.4095 202.00
64.4747 177.00
64.5399 198.00
64.6051 205.00
64.6703 196.00
64.7355 189.00
64.8007 201.00
64.8659 164.00
64.9311 168.00
64.9963 215.00
65.0615 186.00
65.1267 203.00
65.1919 166.00
65.2571 186.00
65.3223 185.00
65.3875 147.00
65.4527 186.00
65.5179 204.00
65.5831 159.00
65.6483 195.00
65.7135 186.00
65.7787 174.00
65.8439 179.00
65.9091 185.00
65.9743 150.00
66.0395 191.00
66.1047 187.00
66.1699 220.00
66.2351 181.00
66.3003 177.00
66.3655 197.00
66.4307 186.00
66.4959 185.00
66.561 184.00
66.6263 205.00
66.6915 200.00
66.7566 209.00
66.8218 214.00
66.887 228.00
66.9522 219.00
67.0174 195.00
67.0826 198.00
67.1478 183.00
67.213 200.00
67.2782 193.00
67.3434 154.00
67.4086 173.00
67.4738 204.00
67.539 171.00
67.6042 194.00
67.6694 183.00
67.7346 182.00
67.7998 171.00
67.865 180.00
67.9302 176.00
67.9954 198.00
68.0606 196.00
68.1258 199.00
68.191 231.00
68.2562 195.00
68.3214 196.00
68.3866 179.00
68.4518 197.00
68.517 200.00
68.5822 195.00
68.6474 163.00
68.7126 170.00
68.7778 182.00
68.843 186.00
68.9082 158.00
68.9734 170.00
69.0386 176.00
69.1038 204.00
69.169 196.00
69.2342 175.00
69.2994 163.00
69.3646 180.00
69.4298 189.00
69.495 175.00
69.5602 185.00
69.6254 187.00
69.6906 166.00
69.7558 184.00
69.821 185.00
69.8862 184.00
69.9514 176.00
70.0166 178.00
70.0818 186.00
70.147 178.00
70.2122 192.00
70.2774 223.00
70.3426 166.00
70.4078 170.00
70.473 199.00
70.5382 207.00
70.6034 164.00
70.6686 209.00
70.7338 210.00
70.799 174.00
70.8642 187.00
70.9294 194.00
70.9946 203.00
71.0598 203.00
71.125 178.00
71.1902 199.00
71.2554 186.00
71.3205 151.00
71.3858 186.00
71.451 191.00
71.5162 191.00
71.5813 226.00
71.6465 208.00
71.7117 199.00
71.7769 204.00
71.8421 186.00
71.9073 177.00
71.9725 197.00
72.0377 201.00
72.1029 181.00
72.1681 182.00
72.2333 185.00
72.2985 162.00
72.3637 204.00
72.4289 182.00
72.4941 203.00
72.5593 161.00
72.6245 190.00
72.6897 189.00
72.7549 175.00
72.8201 191.00
72.8853 179.00
72.9505 198.00
73.0157 172.00
73.0809 193.00
73.1461 147.00
73.2113 197.00
73.2765 181.00
73.3417 205.00
73.4069 179.00
73.4721 164.00
73.5373 195.00
73.6025 209.00
73.6677 186.00
73.7329 188.00
73.7981 206.00
73.8633 184.00
73.9285 196.00
73.9937 189.00
74.0589 182.00
74.1241 183.00
74.1893 213.00
74.2545 186.00
74.3197 196.00
74.3849 206.00
74.4501 186.00
74.5153 216.00
74.5805 173.00
74.6457 189.00
74.7109 202.00
74.7761 171.00
74.8413 211.00
74.9065 194.00
74.9717 213.00
75.0369 225.00
75.1021 222.00
75.1673 178.00
75.2325 193.00
75.2977 180.00
75.3629 194.00
75.4281 179.00
75.4933 183.00
75.5585 221.00
75.6237 194.00
75.6889 211.00
75.7541 203.00
75.8193 195.00
75.8845 195.00
75.9497 179.00
76.0149 173.00
76.0801 214.00
76.1452 199.00
76.2104 195.00
76.2756 182.00
76.3409 185.00
76.406 201.00
76.4712 177.00
76.5364 183.00
76.6016 186.00
76.6668 187.00
76.732 173.00
76.7972 179.00
76.8624 197.00
76.9276 191.00
76.9928 230.00
77.058 170.00
77.1232 217.00
77.1884 201.00
77.2536 234.00
77.3188 201.00
77.384 208.00
77.4492 188.00
77.5144 199.00
77.5796 198.00
77.6448 209.00
77.71 219.00
77.7752 222.00
77.8404 199.00
77.9056 202.00
77.9708 182.00
78.036 227.00
78.1012 203.00
78.1664 216.00
78.2316 195.00
78.2968 232.00
78.362 172.00
78.4272 191.00
78.4924 203.00
78.5576 181.00
78.6228 211.00
78.688 204.00
78.7532 207.00
78.8184 191.00
78.8836 207.00
78.9488 191.00
79.014 206.00
79.0792 226.00
79.1444 208.00
79.2096 212.00
79.2748 211.00
79.34 196.00
79.4052 220.00
79.4704 213.00
79.5356 214.00
79.6008 202.00
79.666 210.00
79.7312 218.00
79.7964 216.00
79.8616 221.00
79.9268 221.00
79.992 225.00
80.0572 214.00
80.1224 246.00
80.1876 194.00
80.2528 208.00
80.318 230.00
80.3832 246.00
80.4484 238.00
80.5136 269.00
80.5788 230.00
80.644 237.00
80.7092 224.00
80.7744 234.00
80.8396 244.00
80.9048 243.00
80.9699 211.00
81.0351 216.00
81.1003 198.00
81.1655 202.00
81.2307 219.00
81.2959 233.00
81.3611 183.00
81.4263 210.00
81.4915 210.00
81.5567 216.00
81.6219 231.00
81.6871 240.00
81.7523 202.00
81.8175 226.00
81.8827 208.00
81.9479 225.00
82.0131 240.00
82.0783 230.00
82.1435 223.00
82.2087 212.00
82.2739 216.00
82.3391 222.00
82.4043 205.00
82.4695 218.00
82.5347 227.00
82.5999 209.00
82.6651 214.00
82.7303 193.00
82.7955 200.00
82.8607 227.00
82.9259 237.00
82.9911 221.00
83.0563 246.00
83.1215 216.00
83.1867 186.00
83.2519 218.00
83.3171 221.00
83.3823 188.00
83.4475 218.00
83.5127 208.00
83.5779 197.00
83.6431 216.00
83.7083 227.00
83.7735 202.00
83.8387 217.00
83.9039 212.00
83.9691 246.00
84.0343 213.00
84.0995 196.00
84.1647 208.00
84.2299 189.00
84.2951 207.00
84.3603 217.00
84.4255 217.00
84.4907 211.00
84.5559 207.00
84.6211 195.00
84.6863 211.00
84.7515 194.00
84.8167 180.00
84.8819 222.00
84.9471 220.00
85.0123 175.00
85.0775 197.00
85.1427 230.00
85.2079 225.00
85.2731 195.00
85.3383 189.00
85.4035 193.00
85.4687 202.00
85.5339 192.00
85.5991 209.00
85.6643 211.00
85.7295 213.00
85.7946 168.00
85.8598 184.00
85.925 190.00
85.9903 209.00
86.0554 170.00
86.1206 183.00
86.1858 182.00
86.251 177.00
86.3162 210.00
86.3814 204.00
86.4466 202.00
86.5118 197.00
86.577 185.00
86.6422 187.00
86.7074 203.00
86.7726 181.00
86.8378 191.00
86.903 222.00
86.9682 180.00
87.0334 177.00
87.0986 210.00
87.1638 196.00
87.229 205.00
87.2942 190.00
87.3594 222.00
87.4246 189.00
87.4898 172.00
87.555 172.00
87.6202 200.00
87.6854 191.00
87.7506 193.00
87.8158 184.00
87.881 185.00
87.9462 196.00
88.0114 161.00
88.0766 192.00
88.1418 174.00
88.207 188.00
88.2722 159.00
88.3374 185.00
88.4026 197.00
88.4678 186.00
88.533 194.00
88.5982 194.00
88.6634 211.00
88.7286 169.00
88.7938 188.00
88.859 169.00
88.9242 186.00
88.9894 173.00
89.0546 188.00
89.1198 173.00
89.185 168.00
89.2502 177.00
89.3154 189.00
89.3806 174.00
89.4458 187.00
89.511 179.00
89.5762 190.00
89.6414 189.00
89.7066 184.00
89.7718 184.00
89.837 199.00
89.9022 190.00
89.9674 196.00
90.0326 178.00
90.0978 168.00
90.163 212.00
90.2282 197.00
90.2934 158.00
90.3586 173.00
90.4238 190.00
90.489 166.00
90.5542 163.00
90.6193 187.00
90.6845 158.00
90.7497 179.00
90.8149 162.00
90.8801 195.00
90.9453 158.00
91.0105 185.00
91.0757 194.00
91.1409 160.00
91.2061 188.00
91.2713 171.00
91.3365 212.00
91.4017 181.00
91.4669 186.00
91.5321 169.00
91.5973 159.00
91.6625 183.00
91.7277 159.00
91.7929 179.00
91.8581 197.00
91.9233 185.00
91.9885 180.00
92.0537 164.00
92.1189 185.00
92.1841 170.00
92.2493 153.00
92.3145 165.00
92.3797 154.00
92.4449 181.00
92.5101 178.00
92.5753 187.00
92.6405 179.00
92.7057 188.00
92.7709 215.00
92.8361 170.00
92.9013 164.00
92.9665 172.00
93.0317 174.00
93.0969 191.00
93.1621 152.00
93.2273 189.00
93.2925 170.00
93.3577 170.00
93.4229 178.00
93.4881 164.00
93.5533 176.00
93.6185 181.00
93.6837 200.00
93.7489 172.00
93.8141 188.00
93.8793 169.00
93.9445 186.00
94.0097 165.00
94.0749 192.00
94.1401 177.00
94.2053 156.00
94.2705 173.00
94.3357 204.00
94.4009 174.00
94.4661 176.00
94.5313 164.00
94.5965 181.00
94.6617 169.00
94.7269 171.00
94.7921 184.00
94.8573 189.00
94.9225 191.00
94.9877 190.00
95.0529 173.00
95.1181 151.00
95.1833 178.00
95.2485 203.00
95.3137 162.00
95.3789 177.00
95.444 191.00
95.5092 171.00
95.5744 186.00
95.6396 165.00
95.7048 170.00
95.77 188.00
95.8352 160.00
95.9004 161.00
95.9656 185.00
96.0308 178.00
96.096 156.00
96.1612 177.00
96.2264 171.00
96.2916 170.00
96.3568 163.00
96.422 163.00
96.4872 195.00
96.5524 198.00
96.6176 159.00
96.6828 179.00
96.748 168.00
96.8132 164.00
96.8784 178.00
96.9436 162.00
97.0088 172.00
97.074 201.00
97.1392 155.00
97.2044 195.00
97.2696 177.00
97.3348 157.00
97.4 167.00
97.4652 136.00
97.5304 175.00
97.5956 188.00
97.6608 164.00
97.726 141.00
97.7912 161.00
97.8564 163.00
97.9216 187.00
97.9868 164.00
98.052 176.00
98.1172 200.00
98.1824 187.00
98.2476 180.00
98.3128 184.00
98.378 158.00
98.4432 169.00
98.5084 169.00
98.5736 168.00
98.6388 152.00
98.704 170.00
98.7692 155.00
98.8344 193.00
98.8996 171.00
98.9648 180.00
99.03 190.00
99.0952 173.00
99.1604 156.00
99.2256 180.00
99.2908 163.00
99.356 175.00
99.4212 184.00
99.4864 189.00
99.5516 160.00
99.6168 146.00
99.682 168.00
99.7472 182.00
99.8124 183.00
99.8776 207.00
99.9428 171.00
100.008 214.00
100.073 185.00
100.095 189.00