File: data/xrd_creation/results/NSC_50.xy
9.903433 3036.00
9.968632 2999.00
10.0338 3006.00
10.099 3063.00
10.1642 3142.00
10.2294 3144.00
10.2946 3179.00
10.3598 3191.00
10.425 3235.00
10.4902 3133.00
10.5554 3045.00
10.6206 3058.00
10.6858 2761.00
10.751 2811.00
10.8162 2853.00
10.8814 2771.00
10.9466 2753.00
11.0118 2746.00
11.077 2770.00
11.1422 2691.00
11.2074 2662.00
11.2726 2571.00
11.3378 2616.00
11.403 2484.00
11.4682 2612.00
11.5334 2533.00
11.5986 2488.00
11.6638 2538.00
11.729 2424.00
11.7942 2448.00
11.8594 2495.00
11.9246 2545.00
11.9898 2397.00
12.055 2429.00
12.1202 2396.00
12.1854 2365.00
12.2506 2363.00
12.3158 2354.00
12.381 2345.00
12.4462 2401.00
12.5114 2371.00
12.5766 2347.00
12.6418 2253.00
12.707 2296.00
12.7722 2195.00
12.8374 2319.00
12.9026 2302.00
12.9678 2262.00
13.033 2259.00
13.0982 2211.00
13.1634 2252.00
13.2286 2290.00
13.2938 2164.00
13.359 2168.00
13.4242 2289.00
13.4894 2287.00
13.5546 2339.00
13.6198 2322.00
13.685 2298.00
13.7502 2346.00
13.8154 2233.00
13.8805 2367.00
13.9457 2177.00
14.0109 2212.00
14.0761 2125.00
14.1413 2143.00
14.2065 2179.00
14.2717 2207.00
14.3369 2193.00
14.4021 2255.00
14.4673 2335.00
14.5325 2476.00
14.5977 2686.00
14.6629 2728.00
14.7281 2713.00
14.7933 2560.00
14.8585 2399.00
14.9237 2171.00
14.9889 2095.00
15.0541 2030.00
15.1193 2108.00
15.1845 2090.00
15.2497 2119.00
15.3149 2037.00
15.3801 2019.00
15.4453 1983.00
15.5105 1995.00
15.5757 2066.00
15.6409 2037.00
15.7061 2014.00
15.7713 2032.00
15.8365 1948.00
15.9017 1980.00
15.9669 2079.00
16.0321 1992.00
16.0973 2004.00
16.1625 2096.00
16.2277 2057.00
16.2929 1966.00
16.3581 1990.00
16.4233 1996.00
16.4885 1991.00
16.5537 2023.00
16.6189 2029.00
16.6841 2020.00
16.7493 1921.00
16.8145 1985.00
16.8797 2000.00
16.9449 1947.00
17.0101 1898.00
17.0753 1896.00
17.1405 2047.00
17.2057 2009.00
17.2709 1961.00
17.3361 1911.00
17.4013 2037.00
17.4665 2023.00
17.5317 1937.00
17.5969 1980.00
17.6621 1948.00
17.7273 1883.00
17.7925 1899.00
17.8577 1951.00
17.9229 1830.00
17.9881 1869.00
18.0533 1824.00
18.1185 1841.00
18.1837 1842.00
18.2489 1901.00
18.3141 1843.00
18.3793 1840.00
18.4445 1810.00
18.5097 1917.00
18.5749 1841.00
18.6401 1794.00
18.7052 1792.00
18.7704 1806.00
18.8356 1915.00
18.9008 1904.00
18.966 1970.00
19.0312 2157.00
19.0964 2239.00
19.1616 2331.00
19.2268 2383.00
19.292 2478.00
19.3572 2415.00
19.4224 2320.00
19.4876 2409.00
19.5528 2437.00
19.618 2486.00
19.6832 2407.00
19.7484 2347.00
19.8136 2202.00
19.8788 2109.00
19.944 1934.00
20.0092 1910.00
20.0744 1856.00
20.1396 1918.00
20.2048 1869.00
20.27 1868.00
20.3352 1956.00
20.4004 2016.00
20.4656 2215.00
20.5308 2403.00
20.596 2514.00
20.6612 2687.00
20.7264 2753.00
20.7916 2773.00
20.8568 2963.00
20.922 3193.00
20.9872 3355.00
21.0524 3625.00
21.1176 3874.00
21.1828 3942.00
21.248 3743.00
21.3132 3641.00
21.3784 3192.00
21.4436 2846.00
21.5088 2498.00
21.574 2176.00
21.6392 1983.00
21.7044 1922.00
21.7696 1930.00
21.8348 1977.00
21.9 2003.00
21.9652 2230.00
22.0304 2373.00
22.0956 2862.00
22.1608 3439.00
22.226 3866.00
22.2912 3927.00
22.3564 3757.00
22.4216 3145.00
22.4868 2687.00
22.552 2238.00
22.6172 2116.00
22.6824 2005.00
22.7476 2064.00
22.8128 2060.00
22.878 2036.00
22.9432 1835.00
23.0084 1895.00
23.0736 1821.00
23.1388 1760.00
23.204 1734.00
23.2692 1737.00
23.3344 1720.00
23.3996 1691.00
23.4647 1730.00
23.5299 1757.00
23.5951 1803.00
23.6603 1954.00
23.7255 2098.00
23.7907 2308.00
23.8559 2589.00
23.9211 2717.00
23.9863 2755.00
24.0515 2554.00
24.1167 2435.00
24.1819 2190.00
24.2471 2035.00
24.3123 2027.00
24.3775 1926.00
24.4427 2002.00
24.5079 2029.00
24.5731 1899.00
24.6383 1918.00
24.7035 1709.00
24.7687 1637.00
24.8339 1667.00
24.8991 1686.00
24.9643 1654.00
25.0295 1654.00
25.0947 1598.00
25.1599 1572.00
25.2251 1675.00
25.2903 1686.00
25.3555 1651.00
25.4207 1719.00
25.4859 1820.00
25.5511 1900.00
25.6163 1846.00
25.6815 1951.00
25.7467 1922.00
25.8119 1861.00
25.8771 1826.00
25.9423 1689.00
26.0075 1733.00
26.0727 1591.00
26.1379 1655.00
26.2031 1575.00
26.2683 1654.00
26.3335 1627.00
26.3987 1605.00
26.4639 1618.00
26.5291 1643.00
26.5943 1670.00
26.6595 1604.00
26.7247 1653.00
26.7899 1610.00
26.8551 1698.00
26.9203 1671.00
26.9855 1767.00
27.0507 1703.00
27.1159 1720.00
27.1811 1689.00
27.2463 1659.00
27.3115 1776.00
27.3767 1846.00
27.4419 1819.00
27.5071 1892.00
27.5723 1980.00
27.6375 1894.00
27.7027 2015.00
27.7679 1880.00
27.8331 1916.00
27.8983 1963.00
27.9635 2235.00
28.0287 2673.00
28.0939 3343.00
28.1591 4002.00
28.2243 4329.00
28.2894 4389.00
28.3546 3763.00
28.4198 3058.00
28.485 2331.00
28.5502 1989.00
28.6154 1738.00
28.6806 1694.00
28.7458 1604.00
28.811 1520.00
28.8762 1554.00
28.9414 1526.00
29.0066 1612.00
29.0718 1661.00
29.137 1628.00
29.2022 1645.00
29.2674 1659.00
29.3326 1575.00
29.3978 1640.00
29.463 1511.00
29.5282 1575.00
29.5934 1591.00
29.6586 1586.00
29.7238 1565.00
29.789 1544.00
29.8542 1514.00
29.9194 1531.00
29.9846 1602.00
30.0498 1607.00
30.115 1621.00
30.1802 1725.00
30.2454 1932.00
30.3106 2060.00
30.3758 2447.00
30.441 3096.00
30.5062 3680.00
30.5714 4195.00
30.6366 4543.00
30.7018 4338.00
30.767 3771.00
30.8322 3080.00
30.8974 2496.00
30.9626 2113.00
31.0278 1883.00
31.093 1791.00
31.1582 1846.00
31.2234 2063.00
31.2886 2366.00
31.3538 2800.00
31.419 3471.00
31.4842 3505.00
31.5494 3414.00
31.6146 3173.00
31.6798 2536.00
31.745 2189.00
31.8102 1909.00
31.8754 1755.00
31.9406 1809.00
32.0058 1948.00
32.071 1860.00
32.1362 1809.00
32.2014 1860.00
32.2666 1717.00
32.3318 1738.00
32.397 1615.00
32.4622 1683.00
32.5274 1772.00
32.5926 1939.00
32.6578 1887.00
32.723 2216.00
32.7882 2440.00
32.8534 2606.00
32.9186 2919.00
32.9838 3085.00
33.0489 3144.00
33.1141 2849.00
33.1793 2741.00
33.2445 2614.00
33.3097 2547.00
33.3749 2443.00
33.4401 2462.00
33.5053 2346.00
33.5705 2334.00
33.6357 2268.00
33.7009 2614.00
33.7661 2911.00
33.8313 3488.00
33.8965 4011.00
33.9617 4375.00
34.0269 4590.00
34.0921 4705.00
34.1573 4456.00
34.2225 4255.00
34.2877 3495.00
34.3529 3046.00
34.4181 2458.00
34.4833 2085.00
34.5485 1872.00
34.6137 1756.00
34.6789 1654.00
34.7441 1445.00
34.8093 1430.00
34.8745 1437.00
34.9397 1362.00
35.0049 1412.00
35.0701 1486.00
35.1353 1548.00
35.2005 1648.00
35.2657 1741.00
35.3309 1821.00
35.3961 1864.00
35.4613 1816.00
35.5265 1646.00
35.5917 1587.00
35.6569 1584.00
35.7221 1631.00
35.7873 1518.00
35.8525 1575.00
35.9177 1575.00
35.9829 1504.00
36.0481 1478.00
36.1133 1444.00
36.1785 1407.00
36.2437 1326.00
36.3089 1385.00
36.3741 1391.00
36.4393 1375.00
36.5045 1389.00
36.5697 1377.00
36.6349 1367.00
36.7001 1360.00
36.7653 1401.00
36.8305 1394.00
36.8957 1344.00
36.9609 1453.00
37.0261 1257.00
37.0913 1232.00
37.1565 1255.00
37.2217 1241.00
37.2869 1229.00
37.3521 1228.00
37.4173 1284.00
37.4825 1202.00
37.5477 1269.00
37.6129 1206.00
37.6781 1239.00
37.7433 1178.00
37.8085 1259.00
37.8736 1217.00
37.9388 1217.00
38.004 1160.00
38.0692 1230.00
38.1344 1259.00
38.1996 1316.00
38.2648 1261.00
38.33 1282.00
38.3952 1288.00
38.4604 1385.00
38.5256 1379.00
38.5908 1348.00
38.656 1404.00
38.7212 1334.00
38.7864 1425.00
38.8516 1283.00
38.9168 1338.00
38.982 1252.00
39.0472 1212.00
39.1124 1240.00
39.1776 1294.00
39.2428 1267.00
39.308 1338.00
39.3732 1360.00
39.4384 1325.00
39.5036 1492.00
39.5688 1494.00
39.634 1506.00
39.6992 1483.00
39.7644 1398.00
39.8296 1373.00
39.8948 1326.00
39.96 1354.00
40.0252 1311.00
40.0904 1277.00
40.1556 1277.00
40.2208 1266.00
40.286 1329.00
40.3512 1383.00
40.4164 1295.00
40.4816 1426.00
40.5468 1484.00
40.612 1643.00
40.6772 1752.00
40.7424 2003.00
40.8076 2119.00
40.8728 2302.00
40.938 2166.00
41.0032 2091.00
41.0684 1919.00
41.1336 1817.00
41.1988 1633.00
41.264 1573.00
41.3292 1494.00
41.3944 1629.00
41.4596 1641.00
41.5248 1522.00
41.59 1505.00
41.6552 1497.00
41.7204 1481.00
41.7856 1367.00
41.8508 1306.00
41.916 1232.00
41.9812 1269.00
42.0464 1271.00
42.1116 1205.00
42.1768 1204.00
42.242 1165.00
42.3072 1177.00
42.3724 1191.00
42.4376 1166.00
42.5028 1190.00
42.568 1159.00
42.6332 1226.00
42.6983 1335.00
42.7635 1239.00
42.8287 1329.00
42.8939 1221.00
42.9591 1388.00
43.0243 1412.00
43.0895 1483.00
43.1547 1552.00
43.2199 1687.00
43.2851 1572.00
43.3503 1642.00
43.4155 1475.00
43.4807 1422.00
43.5459 1332.00
43.6111 1233.00
43.6763 1272.00
43.7415 1258.00
43.8067 1213.00
43.8719 1285.00
43.9371 1253.00
44.0023 1282.00
44.0675 1305.00
44.1327 1233.00
44.1979 1295.00
44.2631 1343.00
44.3283 1426.00
44.3935 1480.00
44.4587 1357.00
44.5239 1459.00
44.5891 1511.00
44.6543 1489.00
44.7195 1533.00
44.7847 1581.00
44.8499 1579.00
44.9151 1642.00
44.9803 1560.00
45.0455 1527.00
45.1107 1511.00
45.1759 1532.00
45.2411 1469.00
45.3063 1541.00
45.3715 1595.00
45.4367 1737.00
45.5019 1788.00
45.5671 1746.00
45.6323 1732.00
45.6975 1569.00
45.7627 1598.00
45.8279 1398.00
45.8931 1374.00
45.9583 1341.00
46.0235 1412.00
46.0887 1409.00
46.1539 1447.00
46.2191 1452.00
46.2843 1379.00
46.3495 1475.00
46.4147 1488.00
46.4799 1516.00
46.5451 1474.00
46.6103 1520.00
46.6755 1648.00
46.7407 1702.00
46.8059 1668.00
46.8711 1694.00
46.9363 1662.00
47.0015 1707.00
47.0667 1589.00
47.1319 1680.00
47.1971 1445.00
47.2623 1407.00
47.3275 1357.00
47.3927 1271.00
47.4579 1256.00
47.523 1215.00
47.5882 1218.00
47.6534 1230.00
47.7186 1257.00
47.7838 1346.00
47.849 1366.00
47.9142 1251.00
47.9794 1294.00
48.0446 1422.00
48.1098 1291.00
48.175 1422.00
48.2402 1262.00
48.3054 1246.00
48.3706 1240.00
48.4358 1202.00
48.501 1215.00
48.5662 1227.00
48.6314 1303.00
48.6966 1407.00
48.7618 1413.00
48.827 1654.00
48.8922 1769.00
48.9574 1837.00
49.0226 1755.00
49.0878 1748.00
49.153 1728.00
49.2182 1832.00
49.2834 1772.00
49.3486 1756.00
49.4138 1624.00
49.479 1568.00
49.5442 1465.00
49.6094 1269.00
49.6746 1239.00
49.7398 1211.00
49.805 1226.00
49.8702 1145.00
49.9354 1237.00
50.0006 1392.00
50.0658 1575.00
50.131 1837.00
50.1962 1942.00
50.2614 1997.00
50.3266 1922.00
50.3918 1801.00
50.457 1700.00
50.5222 1614.00
50.5874 1746.00
50.6526 1693.00
50.7178 1643.00
50.783 1517.00
50.8482 1405.00
50.9134 1405.00
50.9786 1332.00
51.0438 1274.00
51.109 1302.00
51.1742 1382.00
51.2394 1364.00
51.3046 1346.00
51.3698 1357.00
51.435 1343.00
51.5002 1282.00
51.5654 1338.00
51.6306 1323.00
51.6958 1427.00
51.761 1419.00
51.8262 1417.00
51.8914 1468.00
51.9566 1462.00
52.0218 1322.00
52.087 1353.00
52.1522 1342.00
52.2174 1293.00
52.2826 1313.00
52.3477 1366.00
52.4129 1314.00
52.4781 1369.00
52.5433 1326.00
52.6085 1295.00
52.6737 1257.00
52.7389 1350.00
52.8041 1362.00
52.8693 1331.00
52.9345 1384.00
52.9997 1439.00
53.0649 1403.00
53.1301 1552.00
53.1953 1534.00
53.2605 1537.00
53.3257 1553.00
53.3909 1556.00
53.4561 1658.00
53.5213 1711.00
53.5865 1696.00
53.6517 1684.00
53.7169 1693.00
53.7821 1626.00
53.8473 1530.00
53.9125 1533.00
53.9777 1487.00
54.0429 1623.00
54.1081 1560.00
54.1733 1651.00
54.2385 1474.00
54.3037 1438.00
54.3689 1398.00
54.4341 1339.00
54.4993 1307.00
54.5645 1325.00
54.6297 1333.00
54.6949 1233.00
54.7601 1268.00
54.8253 1395.00
54.8905 1302.00
54.9557 1294.00
55.0209 1320.00
55.0861 1353.00
55.1513 1298.00
55.2165 1385.00
55.2817 1467.00
55.3469 1597.00
55.4121 1555.00
55.4773 1658.00
55.5425 1501.00
55.6077 1501.00
55.6729 1453.00
55.7381 1451.00
55.8033 1374.00
55.8685 1334.00
55.9337 1420.00
55.9989 1408.00
56.0641 1416.00
56.1293 1509.00
56.1945 1440.00
56.2597 1329.00
56.3249 1364.00
56.3901 1309.00
56.4553 1197.00
56.5205 1282.00
56.5857 1164.00
56.6509 1217.00
56.7161 1151.00
56.7813 1222.00
56.8465 1277.00
56.9117 1261.00
56.9769 1334.00
57.042 1429.00
57.1073 1534.00
57.1724 1643.00
57.2376 1715.00
57.3028 1749.00
57.368 1784.00
57.4332 1613.00
57.4984 1618.00
57.5636 1533.00
57.6288 1503.00
57.694 1486.00
57.7592 1416.00
57.8244 1384.00
57.8896 1454.00
57.9548 1558.00
58.02 1429.00
58.0852 1452.00
58.1504 1435.00
58.2156 1308.00
58.2808 1358.00
58.346 1336.00
58.4112 1307.00
58.4764 1378.00
58.5416 1339.00
58.6068 1326.00
58.672 1314.00
58.7372 1356.00
58.8024 1315.00
58.8676 1338.00
58.9328 1303.00
58.998 1386.00
59.0632 1392.00
59.1284 1360.00
59.1936 1288.00
59.2588 1235.00
59.324 1199.00
59.3892 1214.00
59.4544 1234.00
59.5196 1280.00
59.5848 1265.00
59.65 1314.00
59.7152 1494.00
59.7804 1600.00
59.8456 1630.00
59.9108 1785.00
59.976 1855.00
60.0412 1825.00
60.1064 1825.00
60.1716 1749.00
60.2368 1646.00
60.302 1563.00
60.3672 1559.00
60.4324 1485.00
60.4976 1541.00
60.5628 1432.00
60.628 1426.00
60.6932 1497.00
60.7584 1441.00
60.8236 1459.00
60.8888 1381.00
60.954 1505.00
61.0192 1458.00
61.0844 1491.00
61.1496 1435.00
61.2148 1447.00
61.28 1497.00
61.3452 1451.00
61.4104 1485.00
61.4756 1444.00
61.5408 1325.00
61.606 1283.00
61.6712 1295.00
61.7364 1270.00
61.8016 1279.00
61.8667 1274.00
61.932 1302.00
61.9971 1348.00
62.0623 1340.00
62.1275 1331.00
62.1927 1249.00
62.2579 1233.00
62.3231 1236.00
62.3883 1160.00
62.4535 1269.00
62.5187 1234.00
62.5839 1136.00
62.6491 1278.00
62.7143 1287.00
62.7795 1365.00
62.8447 1416.00
62.9099 1366.00
62.9751 1310.00
63.0403 1280.00
63.1055 1346.00
63.1707 1112.00
63.2359 1073.00
63.3011 1101.00
63.3663 1094.00
63.4315 1061.00
63.4967 1052.00
63.5619 1018.00
63.6271 1123.00
63.6923 1068.00
63.7575 1101.00
63.8227 1115.00
63.8879 1057.00
63.9531 1090.00
64.0183 1100.00
64.0835 1086.00
64.1487 1222.00
64.2139 1242.00
64.2791 1273.00
64.3443 1292.00
64.4095 1200.00
64.4747 1256.00
64.5399 1250.00
64.6051 1150.00
64.6703 1128.00
64.7355 1163.00
64.8007 1170.00
64.8659 1251.00
64.9311 1224.00
64.9963 1259.00
65.0615 1215.00
65.1267 1272.00
65.1919 1210.00
65.2571 1268.00
65.3223 1274.00
65.3875 1330.00
65.4527 1362.00
65.5179 1343.00
65.5831 1303.00
65.6483 1422.00
65.7135 1287.00
65.7787 1325.00
65.8439 1310.00
65.9091 1293.00
65.9743 1220.00
66.0395 1145.00
66.1047 1116.00
66.1699 1108.00
66.2351 1037.00
66.3003 1130.00
66.3655 1090.00
66.4307 1070.00
66.4959 1047.00
66.561 1083.00
66.6263 1136.00
66.6915 1075.00
66.7566 1036.00
66.8218 1133.00
66.887 1126.00
66.9522 1097.00
67.0174 1057.00
67.0826 1005.00
67.1478 1021.00
67.213 1064.00
67.2782 1086.00
67.3434 1042.00
67.4086 1049.00
67.4738 1032.00
67.539 1050.00
67.6042 1030.00
67.6694 983.00
67.7346 960.00
67.7998 1063.00
67.865 989.00
67.9302 1027.00
67.9954 957.00
68.0606 979.00
68.1258 992.00
68.191 985.00
68.2562 999.00
68.3214 961.00
68.3866 999.00
68.4518 1018.00
68.517 989.00
68.5822 964.00
68.6474 1023.00
68.7126 990.00
68.7778 1037.00
68.843 1009.00
68.9082 987.00
68.9734 1003.00
69.0386 1049.00
69.1038 1036.00
69.169 1071.00
69.2342 994.00
69.2994 1080.00
69.3646 1051.00
69.4298 998.00
69.495 1019.00
69.5602 960.00
69.6254 1013.00
69.6906 917.00
69.7558 1051.00
69.821 1128.00
69.8862 1095.00
69.9514 1137.00
70.0166 1115.00
70.0818 1091.00
70.147 1044.00
70.2122 1135.00
70.2774 1101.00
70.3426 1065.00
70.4078 1018.00
70.473 1022.00
70.5382 1005.00
70.6034 1012.00
70.6686 1015.00
70.7338 923.00
70.799 961.00
70.8642 987.00
70.9294 1068.00
70.9946 1069.00
71.0598 1093.00
71.125 1160.00
71.1902 1123.00
71.2554 1203.00
71.3205 1161.00
71.3858 1195.00
71.451 1101.00
71.5162 1191.00
71.5813 1226.00
71.6465 1152.00
71.7117 1143.00
71.7769 1166.00
71.8421 1188.00
71.9073 1187.00
71.9725 1147.00
72.0377 1236.00
72.1029 1193.00
72.1681 1125.00
72.2333 1095.00
72.2985 1100.00
72.3637 1065.00
72.4289 1064.00
72.4941 1010.00
72.5593 1071.00
72.6245 993.00
72.6897 1037.00
72.7549 950.00
72.8201 1042.00
72.8853 1041.00
72.9505 966.00
73.0157 983.00
73.0809 985.00
73.1461 995.00
73.2113 1006.00
73.2765 971.00
73.3417 940.00
73.4069 1044.00
73.4721 981.00
73.5373 999.00
73.6025 1043.00
73.6677 1112.00
73.7329 1072.00
73.7981 1043.00
73.8633 1061.00
73.9285 1032.00
73.9937 1088.00
74.0589 973.00
74.1241 933.00
74.1893 957.00
74.2545 970.00
74.3197 984.00
74.3849 1004.00
74.4501 1032.00
74.5153 1012.00
74.5805 939.00
74.6457 920.00
74.7109 1007.00
74.7761 1099.00
74.8413 964.00
74.9065 1034.00
74.9717 968.00
75.0369 1011.00
75.1021 980.00
75.1673 1080.00
75.2325 1127.00
75.2977 1085.00
75.3629 1076.00
75.4281 1048.00
75.4933 1176.00
75.5585 1080.00
75.6237 1040.00
75.6889 997.00
75.7541 974.00
75.8193 1043.00
75.8845 1061.00
75.9497 1058.00
76.0149 957.00
76.0801 1040.00
76.1452 1053.00
76.2104 991.00
76.2756 1007.00
76.3409 1052.00
76.406 1063.00
76.4712 1053.00
76.5364 1026.00
76.6016 1052.00
76.6668 1101.00
76.732 914.00
76.7972 968.00
76.8624 942.00
76.9276 976.00
76.9928 927.00
77.058 924.00
77.1232 996.00
77.1884 952.00
77.2536 934.00
77.3188 946.00
77.384 911.00
77.4492 955.00
77.5144 1020.00
77.5796 930.00
77.6448 1009.00
77.71 989.00
77.7752 1018.00
77.8404 1025.00
77.9056 993.00
77.9708 1022.00
78.036 989.00
78.1012 972.00
78.1664 949.00
78.2316 978.00
78.2968 924.00
78.362 952.00
78.4272 955.00
78.4924 943.00
78.5576 949.00
78.6228 1019.00
78.688 992.00
78.7532 984.00
78.8184 979.00
78.8836 1031.00
78.9488 1005.00
79.014 1033.00
79.0792 1029.00
79.1444 1009.00
79.2096 1029.00
79.2748 934.00
79.34 970.00
79.4052 986.00
79.4704 929.00
79.5356 964.00
79.6008 951.00
79.666 921.00
79.7312 913.00
79.7964 955.00
79.8616 951.00
79.9268 930.00
79.992 924.00
80.0572 912.00
80.1224 1072.00
80.1876 923.00
80.2528 932.00
80.318 896.00
80.3832 967.00
80.4484 923.00
80.5136 929.00
80.5788 971.00
80.644 952.00
80.7092 900.00
80.7744 885.00
80.8396 856.00
80.9048 956.00
80.9699 853.00
81.0351 892.00
81.1003 906.00
81.1655 866.00
81.2307 925.00
81.2959 878.00
81.3611 906.00
81.4263 964.00
81.4915 1011.00
81.5567 998.00
81.6219 1038.00
81.6871 1082.00
81.7523 1019.00
81.8175 1102.00
81.8827 1025.00
81.9479 1061.00
82.0131 992.00
82.0783 986.00
82.1435 1043.00
82.2087 1082.00
82.2739 963.00
82.3391 1026.00
82.4043 1041.00
82.4695 1043.00
82.5347 1000.00
82.5999 1061.00
82.6651 931.00
82.7303 1009.00
82.7955 984.00
82.8607 992.00
82.9259 1001.00
82.9911 1026.00
83.0563 1097.00
83.1215 1061.00
83.1867 1033.00
83.2519 1057.00
83.3171 1075.00
83.3823 1087.00
83.4475 955.00
83.5127 949.00
83.5779 1027.00
83.6431 958.00
83.7083 1025.00
83.7735 975.00
83.8387 917.00
83.9039 957.00
83.9691 948.00
84.0343 968.00
84.0995 1000.00
84.1647 963.00
84.2299 913.00
84.2951 920.00
84.3603 964.00
84.4255 903.00
84.4907 965.00
84.5559 936.00
84.6211 918.00
84.6863 893.00
84.7515 913.00
84.8167 966.00
84.8819 909.00
84.9471 869.00
85.0123 956.00
85.0775 1003.00
85.1427 901.00
85.2079 934.00
85.2731 958.00
85.3383 938.00
85.4035 930.00
85.4687 907.00
85.5339 900.00
85.5991 897.00
85.6643 995.00
85.7295 931.00
85.7946 918.00
85.8598 919.00
85.925 918.00
85.9903 934.00
86.0554 956.00
86.1206 925.00
86.1858 950.00
86.251 963.00
86.3162 931.00
86.3814 954.00
86.4466 970.00
86.5118 929.00
86.577 927.00
86.6422 992.00
86.7074 943.00
86.7726 930.00
86.8378 983.00
86.903 941.00
86.9682 890.00
87.0334 941.00
87.0986 972.00
87.1638 937.00
87.229 963.00
87.2942 962.00
87.3594 945.00
87.4246 930.00
87.4898 930.00
87.555 987.00
87.6202 1010.00
87.6854 951.00
87.7506 987.00
87.8158 989.00
87.881 962.00
87.9462 999.00
88.0114 998.00
88.0766 1049.00
88.1418 1022.00
88.207 964.00
88.2722 1016.00
88.3374 1010.00
88.4026 989.00
88.4678 1006.00
88.533 1032.00
88.5982 1012.00
88.6634 1053.00
88.7286 1073.00
88.7938 985.00
88.859 965.00
88.9242 935.00
88.9894 1040.00
89.0546 977.00
89.1198 974.00
89.185 960.00
89.2502 981.00
89.3154 964.00
89.3806 981.00
89.4458 1000.00
89.511 964.00
89.5762 1034.00
89.6414 1075.00
89.7066 1020.00
89.7718 1072.00
89.837 996.00
89.9022 1032.00
89.9674 989.00
90.0326 987.00
90.0978 963.00
90.163 1113.00
90.2282 1076.00
90.2934 1048.00
90.3586 988.00
90.4238 983.00
90.489 992.00
90.5542 957.00
90.6193 1003.00
90.6845 925.00
90.7497 927.00
90.8149 961.00
90.8801 972.00
90.9453 929.00
91.0105 953.00
91.0757 959.00
91.1409 970.00
91.2061 944.00
91.2713 990.00
91.3365 926.00
91.4017 1035.00
91.4669 940.00
91.5321 952.00
91.5973 945.00
91.6625 1004.00
91.7277 932.00
91.7929 928.00
91.8581 886.00
91.9233 885.00
91.9885 916.00
92.0537 895.00
92.1189 913.00
92.1841 923.00
92.2493 911.00
92.3145 923.00
92.3797 898.00
92.4449 869.00
92.5101 906.00
92.5753 932.00
92.6405 853.00
92.7057 879.00
92.7709 906.00
92.8361 948.00
92.9013 851.00
92.9665 931.00
93.0317 887.00
93.0969 903.00
93.1621 938.00
93.2273 875.00
93.2925 911.00
93.3577 977.00
93.4229 920.00
93.4881 963.00
93.5533 931.00
93.6185 948.00
93.6837 980.00
93.7489 932.00
93.8141 968.00
93.8793 988.00
93.9445 917.00
94.0097 975.00
94.0749 922.00
94.1401 984.00
94.2053 962.00
94.2705 859.00
94.3357 952.00
94.4009 882.00
94.4661 939.00
94.5313 882.00
94.5965 897.00
94.6617 989.00
94.7269 878.00
94.7921 922.00
94.8573 932.00
94.9225 981.00
94.9877 967.00
95.0529 1001.00
95.1181 1013.00
95.1833 1014.00
95.2485 971.00
95.3137 925.00
95.3789 956.00
95.444 941.00
95.5092 911.00
95.5744 930.00
95.6396 865.00
95.7048 933.00
95.77 913.00
95.8352 924.00
95.9004 918.00
95.9656 926.00
96.0308 976.00
96.096 948.00
96.1612 941.00
96.2264 949.00
96.2916 997.00
96.3568 950.00
96.422 966.00
96.4872 975.00
96.5524 1020.00
96.6176 1162.00
96.6828 1027.00
96.748 1054.00
96.8132 1041.00
96.8784 1040.00
96.9436 1003.00
97.0088 1065.00
97.074 1032.00
97.1392 1034.00
97.2044 966.00
97.2696 943.00
97.3348 938.00
97.4 916.00
97.4652 958.00
97.5304 869.00
97.5956 971.00
97.6608 930.00
97.726 935.00
97.7912 893.00
97.8564 924.00
97.9216 945.00
97.9868 903.00
98.052 879.00
98.1172 917.00
98.1824 954.00
98.2476 941.00
98.3128 857.00
98.378 933.00
98.4432 932.00
98.5084 882.00
98.5736 930.00
98.6388 963.00
98.704 959.00
98.7692 936.00
98.8344 898.00
98.8996 949.00
98.9648 975.00
99.03 976.00
99.0952 903.00
99.1604 965.00
99.2256 985.00
99.2908 1009.00
99.356 1021.00
99.4212 1045.00
99.4864 1010.00
99.5516 977.00
99.6168 1039.00
99.682 1048.00
99.7472 983.00
99.8124 920.00
99.8776 975.00
99.9428 988.00
100.008 940.00
100.073 934.00
100.095 972.00