File: data/xrd_creation/results/NSC_31.xy
9.903433 3028.00
9.968632 2965.00
10.0338 3090.00
10.099 3081.00
10.1642 2989.00
10.2294 2923.00
10.2946 2936.00
10.3598 2958.00
10.425 2930.00
10.4902 2933.00
10.5554 3005.00
10.6206 2991.00
10.6858 2866.00
10.751 2893.00
10.8162 2705.00
10.8814 2774.00
10.9466 2759.00
11.0118 2741.00
11.077 2703.00
11.1422 2627.00
11.2074 2587.00
11.2726 2635.00
11.3378 2605.00
11.403 2600.00
11.4682 2594.00
11.5334 2596.00
11.5986 2501.00
11.6638 2459.00
11.729 2600.00
11.7942 2496.00
11.8594 2458.00
11.9246 2508.00
11.9898 2472.00
12.055 2479.00
12.1202 2394.00
12.1854 2475.00
12.2506 2460.00
12.3158 2418.00
12.381 2344.00
12.4462 2416.00
12.5114 2373.00
12.5766 2284.00
12.6418 2405.00
12.707 2354.00
12.7722 2305.00
12.8374 2326.00
12.9026 2332.00
12.9678 2266.00
13.033 2381.00
13.0982 2246.00
13.1634 2244.00
13.2286 2278.00
13.2938 2290.00
13.359 2317.00
13.4242 2297.00
13.4894 2336.00
13.5546 2346.00
13.6198 2245.00
13.685 2321.00
13.7502 2343.00
13.8154 2274.00
13.8805 2302.00
13.9457 2168.00
14.0109 2283.00
14.0761 2296.00
14.1413 2282.00
14.2065 2322.00
14.2717 2334.00
14.3369 2383.00
14.4021 2380.00
14.4673 2453.00
14.5325 2700.00
14.5977 2850.00
14.6629 3041.00
14.7281 3161.00
14.7933 3118.00
14.8585 2788.00
14.9237 2386.00
14.9889 2145.00
15.0541 2274.00
15.1193 2226.00
15.1845 2242.00
15.2497 2127.00
15.3149 2158.00
15.3801 2165.00
15.4453 2216.00
15.5105 2212.00
15.5757 2067.00
15.6409 2216.00
15.7061 2151.00
15.7713 2181.00
15.8365 2130.00
15.9017 2124.00
15.9669 2091.00
16.0321 2085.00
16.0973 2074.00
16.1625 2122.00
16.2277 2034.00
16.2929 2109.00
16.3581 2108.00
16.4233 2072.00
16.4885 2161.00
16.5537 2075.00
16.6189 2085.00
16.6841 2041.00
16.7493 2031.00
16.8145 2090.00
16.8797 2054.00
16.9449 2075.00
17.0101 2085.00
17.0753 2030.00
17.1405 2003.00
17.2057 2113.00
17.2709 2125.00
17.3361 2182.00
17.4013 2088.00
17.4665 2124.00
17.5317 2115.00
17.5969 1983.00
17.6621 2095.00
17.7273 2006.00
17.7925 2040.00
17.8577 2003.00
17.9229 1984.00
17.9881 2016.00
18.0533 1904.00
18.1185 1997.00
18.1837 1886.00
18.2489 2021.00
18.3141 1865.00
18.3793 1941.00
18.4445 1850.00
18.5097 1969.00
18.5749 1921.00
18.6401 1991.00
18.7052 1999.00
18.7704 1876.00
18.8356 1910.00
18.9008 1902.00
18.966 1982.00
19.0312 1921.00
19.0964 2158.00
19.1616 2199.00
19.2268 2391.00
19.292 2488.00
19.3572 2657.00
19.4224 2443.00
19.4876 2308.00
19.5528 2155.00
19.618 2086.00
19.6832 2095.00
19.7484 2028.00
19.8136 1994.00
19.8788 2022.00
19.944 2031.00
20.0092 2158.00
20.0744 2038.00
20.1396 2135.00
20.2048 2025.00
20.27 2068.00
20.3352 2027.00
20.4004 2031.00
20.4656 2023.00
20.5308 1998.00
20.596 2181.00
20.6612 2408.00
20.7264 2685.00
20.7916 2870.00
20.8568 3173.00
20.922 3381.00
20.9872 3749.00
21.0524 4020.00
21.1176 4264.00
21.1828 4328.00
21.248 4515.00
21.3132 4504.00
21.3784 3919.00
21.4436 3418.00
21.5088 3038.00
21.574 2543.00
21.6392 2334.00
21.7044 2060.00
21.7696 1915.00
21.8348 2019.00
21.9 2078.00
21.9652 2142.00
22.0304 2225.00
22.0956 2598.00
22.1608 3133.00
22.226 3948.00
22.2912 4651.00
22.3564 4824.00
22.4216 4531.00
22.4868 3617.00
22.552 2693.00
22.6172 2188.00
22.6824 1982.00
22.7476 1919.00
22.8128 1754.00
22.878 1757.00
22.9432 1790.00
23.0084 1702.00
23.0736 1732.00
23.1388 1683.00
23.204 1671.00
23.2692 1749.00
23.3344 1655.00
23.3996 1735.00
23.4647 1695.00
23.5299 1707.00
23.5951 1731.00
23.6603 1739.00
23.7255 1800.00
23.7907 1822.00
23.8559 1944.00
23.9211 2162.00
23.9863 2152.00
24.0515 2366.00
24.1167 2265.00
24.1819 2165.00
24.2471 2040.00
24.3123 1919.00
24.3775 1938.00
24.4427 1951.00
24.5079 2025.00
24.5731 1919.00
24.6383 1825.00
24.7035 1746.00
24.7687 1707.00
24.8339 1662.00
24.8991 1656.00
24.9643 1667.00
25.0295 1685.00
25.0947 1654.00
25.1599 1613.00
25.2251 1679.00
25.2903 1700.00
25.3555 1680.00
25.4207 1697.00
25.4859 1739.00
25.5511 1838.00
25.6163 1998.00
25.6815 2018.00
25.7467 2241.00
25.8119 2078.00
25.8771 1918.00
25.9423 1728.00
26.0075 1619.00
26.0727 1639.00
26.1379 1592.00
26.2031 1636.00
26.2683 1714.00
26.3335 1574.00
26.3987 1679.00
26.4639 1541.00
26.5291 1619.00
26.5943 1562.00
26.6595 1636.00
26.7247 1686.00
26.7899 1582.00
26.8551 1584.00
26.9203 1697.00
26.9855 1668.00
27.0507 1678.00
27.1159 1806.00
27.1811 1686.00
27.2463 1703.00
27.3115 1743.00
27.3767 1664.00
27.4419 1624.00
27.5071 1720.00
27.5723 1693.00
27.6375 1822.00
27.7027 1882.00
27.7679 1857.00
27.8331 1980.00
27.8983 2392.00
27.9635 2704.00
28.0287 3404.00
28.0939 4345.00
28.1591 5110.00
28.2243 5161.00
28.2894 4748.00
28.3546 3898.00
28.4198 2938.00
28.485 2362.00
28.5502 2086.00
28.6154 1869.00
28.6806 1729.00
28.7458 1582.00
28.811 1560.00
28.8762 1581.00
28.9414 1527.00
29.0066 1575.00
29.0718 1723.00
29.137 1762.00
29.2022 1739.00
29.2674 1673.00
29.3326 1645.00
29.3978 1573.00
29.463 1614.00
29.5282 1460.00
29.5934 1523.00
29.6586 1568.00
29.7238 1512.00
29.789 1542.00
29.8542 1461.00
29.9194 1581.00
29.9846 1494.00
30.0498 1593.00
30.115 1597.00
30.1802 1659.00
30.2454 1644.00
30.3106 1751.00
30.3758 2174.00
30.441 2563.00
30.5062 3204.00
30.5714 4154.00
30.6366 4794.00
30.7018 4990.00
30.767 4740.00
30.8322 4097.00
30.8974 3073.00
30.9626 2538.00
31.0278 2219.00
31.093 2041.00
31.1582 2052.00
31.2234 2216.00
31.2886 2550.00
31.3538 3095.00
31.419 3690.00
31.4842 3890.00
31.5494 3521.00
31.6146 2997.00
31.6798 2489.00
31.745 2059.00
31.8102 1887.00
31.8754 1861.00
31.9406 1981.00
32.0058 2254.00
32.071 2411.00
32.1362 2317.00
32.2014 2161.00
32.2666 1884.00
32.3318 1644.00
32.397 1570.00
32.4622 1697.00
32.5274 1720.00
32.5926 1834.00
32.6578 1863.00
32.723 2138.00
32.7882 2398.00
32.8534 2702.00
32.9186 3161.00
32.9838 3547.00
33.0489 3749.00
33.1141 3561.00
33.1793 3440.00
33.2445 3085.00
33.3097 2764.00
33.3749 2723.00
33.4401 2794.00
33.5053 2852.00
33.5705 2749.00
33.6357 2623.00
33.7009 2582.00
33.7661 2794.00
33.8313 3058.00
33.8965 3253.00
33.9617 2967.00
34.0269 3025.00
34.0921 3050.00
34.1573 3136.00
34.2225 2935.00
34.2877 2597.00
34.3529 2362.00
34.4181 2042.00
34.4833 1981.00
34.5485 1962.00
34.6137 1801.00
34.6789 1705.00
34.7441 1583.00
34.8093 1490.00
34.8745 1498.00
34.9397 1537.00
35.0049 1594.00
35.0701 1645.00
35.1353 1850.00
35.2005 1962.00
35.2657 1962.00
35.3309 2047.00
35.3961 1889.00
35.4613 1724.00
35.5265 1595.00
35.5917 1522.00
35.6569 1627.00
35.7221 1597.00
35.7873 1763.00
35.8525 1682.00
35.9177 1700.00
35.9829 1681.00
36.0481 1552.00
36.1133 1484.00
36.1785 1344.00
36.2437 1358.00
36.3089 1284.00
36.3741 1416.00
36.4393 1320.00
36.5045 1428.00
36.5697 1421.00
36.6349 1558.00
36.7001 1611.00
36.7653 1588.00
36.8305 1603.00
36.8957 1455.00
36.9609 1499.00
37.0261 1363.00
37.0913 1435.00
37.1565 1261.00
37.2217 1280.00
37.2869 1310.00
37.3521 1260.00
37.4173 1275.00
37.4825 1206.00
37.5477 1239.00
37.6129 1202.00
37.6781 1241.00
37.7433 1232.00
37.8085 1301.00
37.8736 1270.00
37.9388 1222.00
38.004 1228.00
38.0692 1204.00
38.1344 1199.00
38.1996 1229.00
38.2648 1222.00
38.33 1301.00
38.3952 1351.00
38.4604 1365.00
38.5256 1494.00
38.5908 1398.00
38.656 1462.00
38.7212 1434.00
38.7864 1487.00
38.8516 1318.00
38.9168 1320.00
38.982 1276.00
39.0472 1294.00
39.1124 1278.00
39.1776 1247.00
39.2428 1308.00
39.308 1340.00
39.3732 1394.00
39.4384 1361.00
39.5036 1495.00
39.5688 1665.00
39.634 1754.00
39.6992 1742.00
39.7644 1715.00
39.8296 1498.00
39.8948 1392.00
39.96 1342.00
40.0252 1299.00
40.0904 1263.00
40.1556 1201.00
40.2208 1276.00
40.286 1314.00
40.3512 1316.00
40.4164 1327.00
40.4816 1509.00
40.5468 1579.00
40.612 1630.00
40.6772 1880.00
40.7424 2005.00
40.8076 2173.00
40.8728 2248.00
40.938 2325.00
41.0032 2403.00
41.0684 2399.00
41.1336 2273.00
41.1988 1917.00
41.264 1812.00
41.3292 1661.00
41.3944 1695.00
41.4596 1673.00
41.5248 1820.00
41.59 1655.00
41.6552 1566.00
41.7204 1507.00
41.7856 1294.00
41.8508 1287.00
41.916 1247.00
41.9812 1177.00
42.0464 1191.00
42.1116 1142.00
42.1768 1181.00
42.242 1172.00
42.3072 1225.00
42.3724 1150.00
42.4376 1212.00
42.5028 1167.00
42.568 1161.00
42.6332 1316.00
42.6983 1323.00
42.7635 1389.00
42.8287 1343.00
42.8939 1374.00
42.9591 1391.00
43.0243 1386.00
43.0895 1358.00
43.1547 1532.00
43.2199 1638.00
43.2851 1802.00
43.3503 1762.00
43.4155 1670.00
43.4807 1537.00
43.5459 1315.00
43.6111 1291.00
43.6763 1278.00
43.7415 1345.00
43.8067 1213.00
43.8719 1227.00
43.9371 1176.00
44.0023 1200.00
44.0675 1184.00
44.1327 1270.00
44.1979 1269.00
44.2631 1308.00
44.3283 1368.00
44.3935 1397.00
44.4587 1399.00
44.5239 1371.00
44.5891 1387.00
44.6543 1436.00
44.7195 1480.00
44.7847 1589.00
44.8499 1609.00
44.9151 1655.00
44.9803 1786.00
45.0455 1613.00
45.1107 1641.00
45.1759 1604.00
45.2411 1584.00
45.3063 1667.00
45.3715 1752.00
45.4367 1763.00
45.5019 1923.00
45.5671 1989.00
45.6323 2080.00
45.6975 2024.00
45.7627 1949.00
45.8279 1642.00
45.8931 1549.00
45.9583 1492.00
46.0235 1367.00
46.0887 1552.00
46.1539 1463.00
46.2191 1624.00
46.2843 1495.00
46.3495 1460.00
46.4147 1506.00
46.4799 1366.00
46.5451 1436.00
46.6103 1462.00
46.6755 1479.00
46.7407 1471.00
46.8059 1538.00
46.8711 1575.00
46.9363 1631.00
47.0015 1762.00
47.0667 1865.00
47.1319 1934.00
47.1971 1895.00
47.2623 1753.00
47.3275 1568.00
47.3927 1512.00
47.4579 1440.00
47.523 1355.00
47.5882 1338.00
47.6534 1289.00
47.7186 1325.00
47.7838 1318.00
47.849 1335.00
47.9142 1344.00
47.9794 1356.00
48.0446 1491.00
48.1098 1519.00
48.175 1488.00
48.2402 1474.00
48.3054 1365.00
48.3706 1335.00
48.4358 1275.00
48.501 1187.00
48.5662 1160.00
48.6314 1100.00
48.6966 1155.00
48.7618 1261.00
48.827 1124.00
48.8922 1295.00
48.9574 1296.00
49.0226 1456.00
49.0878 1602.00
49.153 1691.00
49.2182 1788.00
49.2834 1935.00
49.3486 1774.00
49.4138 1716.00
49.479 1511.00
49.5442 1405.00
49.6094 1241.00
49.6746 1200.00
49.7398 1208.00
49.805 1182.00
49.8702 1233.00
49.9354 1291.00
50.0006 1468.00
50.0658 1581.00
50.131 1801.00
50.1962 1972.00
50.2614 1928.00
50.3266 1888.00
50.3918 1757.00
50.457 1694.00
50.5222 1610.00
50.5874 1671.00
50.6526 1618.00
50.7178 1600.00
50.783 1476.00
50.8482 1404.00
50.9134 1353.00
50.9786 1315.00
51.0438 1315.00
51.109 1390.00
51.1742 1490.00
51.2394 1474.00
51.3046 1398.00
51.3698 1404.00
51.435 1302.00
51.5002 1339.00
51.5654 1301.00
51.6306 1269.00
51.6958 1377.00
51.761 1396.00
51.8262 1393.00
51.8914 1436.00
51.9566 1480.00
52.0218 1493.00
52.087 1520.00
52.1522 1560.00
52.2174 1483.00
52.2826 1446.00
52.3477 1512.00
52.4129 1434.00
52.4781 1439.00
52.5433 1249.00
52.6085 1354.00
52.6737 1290.00
52.7389 1333.00
52.8041 1353.00
52.8693 1294.00
52.9345 1354.00
52.9997 1353.00
53.0649 1430.00
53.1301 1407.00
53.1953 1493.00
53.2605 1413.00
53.3257 1439.00
53.3909 1467.00
53.4561 1494.00
53.5213 1524.00
53.5865 1559.00
53.6517 1666.00
53.7169 1748.00
53.7821 1748.00
53.8473 1684.00
53.9125 1676.00
53.9777 1804.00
54.0429 1732.00
54.1081 1738.00
54.1733 1618.00
54.2385 1512.00
54.3037 1420.00
54.3689 1384.00
54.4341 1391.00
54.4993 1302.00
54.5645 1383.00
54.6297 1343.00
54.6949 1383.00
54.7601 1292.00
54.8253 1331.00
54.8905 1439.00
54.9557 1462.00
55.0209 1424.00
55.0861 1399.00
55.1513 1441.00
55.2165 1566.00
55.2817 1608.00
55.3469 1717.00
55.4121 1689.00
55.4773 1705.00
55.5425 1530.00
55.6077 1591.00
55.6729 1483.00
55.7381 1429.00
55.8033 1520.00
55.8685 1480.00
55.9337 1478.00
55.9989 1475.00
56.0641 1445.00
56.1293 1465.00
56.1945 1454.00
56.2597 1531.00
56.3249 1391.00
56.3901 1398.00
56.4553 1280.00
56.5205 1261.00
56.5857 1156.00
56.6509 1109.00
56.7161 1178.00
56.7813 1154.00
56.8465 1154.00
56.9117 1171.00
56.9769 1374.00
57.042 1500.00
57.1073 1559.00
57.1724 1751.00
57.2376 1867.00
57.3028 1824.00
57.368 1895.00
57.4332 1895.00
57.4984 1818.00
57.5636 1694.00
57.6288 1677.00
57.694 1595.00
57.7592 1553.00
57.8244 1519.00
57.8896 1457.00
57.9548 1533.00
58.02 1551.00
58.0852 1499.00
58.1504 1573.00
58.2156 1516.00
58.2808 1580.00
58.346 1605.00
58.4112 1449.00
58.4764 1338.00
58.5416 1321.00
58.6068 1312.00
58.672 1295.00
58.7372 1285.00
58.8024 1329.00
58.8676 1320.00
58.9328 1269.00
58.998 1230.00
59.0632 1196.00
59.1284 1197.00
59.1936 1332.00
59.2588 1218.00
59.324 1220.00
59.3892 1250.00
59.4544 1311.00
59.5196 1328.00
59.5848 1356.00
59.65 1389.00
59.7152 1563.00
59.7804 1688.00
59.8456 1808.00
59.9108 1840.00
59.976 1955.00
60.0412 1904.00
60.1064 1984.00
60.1716 1832.00
60.2368 1840.00
60.302 1807.00
60.3672 1675.00
60.4324 1591.00
60.4976 1565.00
60.5628 1490.00
60.628 1405.00
60.6932 1354.00
60.7584 1372.00
60.8236 1378.00
60.8888 1337.00
60.954 1254.00
61.0192 1314.00
61.0844 1291.00
61.1496 1447.00
61.2148 1461.00
61.28 1477.00
61.3452 1446.00
61.4104 1406.00
61.4756 1346.00
61.5408 1288.00
61.606 1276.00
61.6712 1245.00
61.7364 1249.00
61.8016 1251.00
61.8667 1286.00
61.932 1296.00
61.9971 1325.00
62.0623 1284.00
62.1275 1295.00
62.1927 1337.00
62.2579 1234.00
62.3231 1310.00
62.3883 1147.00
62.4535 1215.00
62.5187 1239.00
62.5839 1295.00
62.6491 1313.00
62.7143 1436.00
62.7795 1455.00
62.8447 1472.00
62.9099 1505.00
62.9751 1435.00
63.0403 1378.00
63.1055 1271.00
63.1707 1185.00
63.2359 1196.00
63.3011 1070.00
63.3663 1041.00
63.4315 1057.00
63.4967 1060.00
63.5619 1031.00
63.6271 1067.00
63.6923 1052.00
63.7575 1061.00
63.8227 1119.00
63.8879 1091.00
63.9531 1094.00
64.0183 1185.00
64.0835 1136.00
64.1487 1219.00
64.2139 1240.00
64.2791 1249.00
64.3443 1358.00
64.4095 1341.00
64.4747 1324.00
64.5399 1300.00
64.6051 1298.00
64.6703 1230.00
64.7355 1213.00
64.8007 1214.00
64.8659 1309.00
64.9311 1208.00
64.9963 1108.00
65.0615 1196.00
65.1267 1189.00
65.1919 1206.00
65.2571 1229.00
65.3223 1205.00
65.3875 1253.00
65.4527 1339.00
65.5179 1392.00
65.5831 1417.00
65.6483 1436.00
65.7135 1420.00
65.7787 1387.00
65.8439 1307.00
65.9091 1312.00
65.9743 1324.00
66.0395 1239.00
66.1047 1189.00
66.1699 1160.00
66.2351 1188.00
66.3003 1074.00
66.3655 1053.00
66.4307 1040.00
66.4959 1086.00
66.561 1166.00
66.6263 1078.00
66.6915 1073.00
66.7566 1157.00
66.8218 1064.00
66.887 1050.00
66.9522 1105.00
67.0174 1112.00
67.0826 1052.00
67.1478 1030.00
67.213 977.00
67.2782 1027.00
67.3434 1097.00
67.4086 974.00
67.4738 1103.00
67.539 1067.00
67.6042 1022.00
67.6694 1050.00
67.7346 1111.00
67.7998 1025.00
67.865 1112.00
67.9302 1096.00
67.9954 962.00
68.0606 993.00
68.1258 1012.00
68.191 962.00
68.2562 1008.00
68.3214 949.00
68.3866 971.00
68.4518 941.00
68.517 955.00
68.5822 897.00
68.6474 952.00
68.7126 942.00
68.7778 946.00
68.843 1010.00
68.9082 992.00
68.9734 997.00
69.0386 1016.00
69.1038 1028.00
69.169 1016.00
69.2342 1048.00
69.2994 1068.00
69.3646 1114.00
69.4298 977.00
69.495 1035.00
69.5602 1004.00
69.6254 992.00
69.6906 959.00
69.7558 975.00
69.821 906.00
69.8862 987.00
69.9514 1017.00
70.0166 1015.00
70.0818 1060.00
70.147 1112.00
70.2122 1115.00
70.2774 1139.00
70.3426 1155.00
70.4078 1137.00
70.473 1179.00
70.5382 1185.00
70.6034 1095.00
70.6686 1117.00
70.7338 1041.00
70.799 1054.00
70.8642 1126.00
70.9294 1201.00
70.9946 1192.00
71.0598 1156.00
71.125 1192.00
71.1902 1164.00
71.2554 1232.00
71.3205 1186.00
71.3858 1169.00
71.451 1119.00
71.5162 1159.00
71.5813 1125.00
71.6465 1072.00
71.7117 1155.00
71.7769 1134.00
71.8421 1156.00
71.9073 1208.00
71.9725 1170.00
72.0377 1221.00
72.1029 1242.00
72.1681 1223.00
72.2333 1143.00
72.2985 1184.00
72.3637 1123.00
72.4289 1078.00
72.4941 1082.00
72.5593 1103.00
72.6245 995.00
72.6897 1059.00
72.7549 923.00
72.8201 1008.00
72.8853 919.00
72.9505 974.00
73.0157 989.00
73.0809 970.00
73.1461 970.00
73.2113 914.00
73.2765 913.00
73.3417 1045.00
73.4069 996.00
73.4721 1023.00
73.5373 1038.00
73.6025 1008.00
73.6677 1071.00
73.7329 1103.00
73.7981 1073.00
73.8633 1049.00
73.9285 957.00
73.9937 1067.00
74.0589 1016.00
74.1241 981.00
74.1893 1007.00
74.2545 1059.00
74.3197 1003.00
74.3849 1067.00
74.4501 1079.00
74.5153 1104.00
74.5805 1081.00
74.6457 1125.00
74.7109 1106.00
74.7761 1106.00
74.8413 1036.00
74.9065 1123.00
74.9717 1077.00
75.0369 1073.00
75.1021 1029.00
75.1673 1000.00
75.2325 1129.00
75.2977 1058.00
75.3629 1042.00
75.4281 1008.00
75.4933 1036.00
75.5585 1143.00
75.6237 1019.00
75.6889 1073.00
75.7541 1025.00
75.8193 972.00
75.8845 1047.00
75.9497 1039.00
76.0149 1052.00
76.0801 1120.00
76.1452 983.00
76.2104 1064.00
76.2756 1107.00
76.3409 1088.00
76.406 1064.00
76.4712 1091.00
76.5364 1041.00
76.6016 1131.00
76.6668 1065.00
76.732 1074.00
76.7972 1049.00
76.8624 997.00
76.9276 944.00
76.9928 1000.00
77.058 1026.00
77.1232 954.00
77.1884 939.00
77.2536 937.00
77.3188 989.00
77.384 1059.00
77.4492 948.00
77.5144 1056.00
77.5796 1055.00
77.6448 991.00
77.71 1000.00
77.7752 1039.00
77.8404 1065.00
77.9056 1051.00
77.9708 1002.00
78.036 987.00
78.1012 950.00
78.1664 992.00
78.2316 985.00
78.2968 992.00
78.362 938.00
78.4272 956.00
78.4924 931.00
78.5576 914.00
78.6228 933.00
78.688 1046.00
78.7532 1024.00
78.8184 981.00
78.8836 1003.00
78.9488 1044.00
79.014 1071.00
79.0792 1122.00
79.1444 1001.00
79.2096 932.00
79.2748 980.00
79.34 979.00
79.4052 938.00
79.4704 979.00
79.5356 934.00
79.6008 1010.00
79.666 1009.00
79.7312 988.00
79.7964 998.00
79.8616 1039.00
79.9268 940.00
79.992 997.00
80.0572 984.00
80.1224 974.00
80.1876 976.00
80.2528 899.00
80.318 966.00
80.3832 868.00
80.4484 931.00
80.5136 958.00
80.5788 941.00
80.644 957.00
80.7092 850.00
80.7744 934.00
80.8396 927.00
80.9048 836.00
80.9699 836.00
81.0351 949.00
81.1003 883.00
81.1655 889.00
81.2307 908.00
81.2959 934.00
81.3611 946.00
81.4263 945.00
81.4915 953.00
81.5567 974.00
81.6219 967.00
81.6871 963.00
81.7523 948.00
81.8175 965.00
81.8827 964.00
81.9479 972.00
82.0131 1028.00
82.0783 1001.00
82.1435 979.00
82.2087 977.00
82.2739 1073.00
82.3391 1014.00
82.4043 1015.00
82.4695 1088.00
82.5347 1018.00
82.5999 1046.00
82.6651 997.00
82.7303 1053.00
82.7955 968.00
82.8607 1053.00
82.9259 1069.00
82.9911 1098.00
83.0563 1121.00
83.1215 1025.00
83.1867 1082.00
83.2519 1111.00
83.3171 1101.00
83.3823 1138.00
83.4475 1116.00
83.5127 1088.00
83.5779 1015.00
83.6431 1001.00
83.7083 1023.00
83.7735 1022.00
83.8387 1075.00
83.9039 1057.00
83.9691 966.00
84.0343 966.00
84.0995 1016.00
84.1647 1027.00
84.2299 1001.00
84.2951 1000.00
84.3603 997.00
84.4255 943.00
84.4907 988.00
84.5559 967.00
84.6211 994.00
84.6863 917.00
84.7515 975.00
84.8167 930.00
84.8819 957.00
84.9471 1008.00
85.0123 954.00
85.0775 939.00
85.1427 861.00
85.2079 973.00
85.2731 899.00
85.3383 926.00
85.4035 939.00
85.4687 948.00
85.5339 904.00
85.5991 891.00
85.6643 896.00
85.7295 913.00
85.7946 903.00
85.8598 906.00
85.925 944.00
85.9903 914.00
86.0554 904.00
86.1206 982.00
86.1858 959.00
86.251 879.00
86.3162 892.00
86.3814 868.00
86.4466 900.00
86.5118 886.00
86.577 949.00
86.6422 872.00
86.7074 865.00
86.7726 893.00
86.8378 823.00
86.903 895.00
86.9682 942.00
87.0334 874.00
87.0986 930.00
87.1638 866.00
87.229 974.00
87.2942 952.00
87.3594 973.00
87.4246 978.00
87.4898 1005.00
87.555 995.00
87.6202 1007.00
87.6854 1043.00
87.7506 1046.00
87.8158 983.00
87.881 997.00
87.9462 993.00
88.0114 1046.00
88.0766 1042.00
88.1418 1059.00
88.207 1042.00
88.2722 1091.00
88.3374 1042.00
88.4026 1036.00
88.4678 1005.00
88.533 1044.00
88.5982 992.00
88.6634 965.00
88.7286 1007.00
88.7938 996.00
88.859 1028.00
88.9242 1054.00
88.9894 1066.00
89.0546 1069.00
89.1198 1033.00
89.185 1043.00
89.2502 1050.00
89.3154 1093.00
89.3806 1084.00
89.4458 1096.00
89.511 1036.00
89.5762 1041.00
89.6414 985.00
89.7066 1044.00
89.7718 1054.00
89.837 1045.00
89.9022 1054.00
89.9674 1042.00
90.0326 1025.00
90.0978 1053.00
90.163 989.00
90.2282 988.00
90.2934 1004.00
90.3586 1011.00
90.4238 1007.00
90.489 973.00
90.5542 973.00
90.6193 1008.00
90.6845 1043.00
90.7497 959.00
90.8149 999.00
90.8801 1006.00
90.9453 1014.00
91.0105 990.00
91.0757 986.00
91.1409 1065.00
91.2061 1025.00
91.2713 1011.00
91.3365 1050.00
91.4017 1059.00
91.4669 1024.00
91.5321 1012.00
91.5973 951.00
91.6625 989.00
91.7277 992.00
91.7929 934.00
91.8581 952.00
91.9233 991.00
91.9885 893.00
92.0537 874.00
92.1189 904.00
92.1841 909.00
92.2493 883.00
92.3145 864.00
92.3797 902.00
92.4449 923.00
92.5101 898.00
92.5753 915.00
92.6405 889.00
92.7057 914.00
92.7709 894.00
92.8361 901.00
92.9013 895.00
92.9665 924.00
93.0317 862.00
93.0969 959.00
93.1621 956.00
93.2273 854.00
93.2925 960.00
93.3577 924.00
93.4229 902.00
93.4881 925.00
93.5533 976.00
93.6185 940.00
93.6837 897.00
93.7489 989.00
93.8141 1030.00
93.8793 966.00
93.9445 992.00
94.0097 965.00
94.0749 979.00
94.1401 957.00
94.2053 961.00
94.2705 954.00
94.3357 928.00
94.4009 872.00
94.4661 915.00
94.5313 934.00
94.5965 910.00
94.6617 892.00
94.7269 971.00
94.7921 953.00
94.8573 975.00
94.9225 986.00
94.9877 966.00
95.0529 1035.00
95.1181 963.00
95.1833 973.00
95.2485 1050.00
95.3137 975.00
95.3789 983.00
95.444 999.00
95.5092 998.00
95.5744 1036.00
95.6396 962.00
95.7048 976.00
95.77 989.00
95.8352 933.00
95.9004 917.00
95.9656 943.00
96.0308 954.00
96.096 990.00
96.1612 990.00
96.2264 963.00
96.2916 967.00
96.3568 996.00
96.422 1036.00
96.4872 946.00
96.5524 985.00
96.6176 1083.00
96.6828 1049.00
96.748 1051.00
96.8132 1038.00
96.8784 1081.00
96.9436 1063.00
97.0088 1028.00
97.074 1006.00
97.1392 1059.00
97.2044 965.00
97.2696 1011.00
97.3348 998.00
97.4 947.00
97.4652 973.00
97.5304 996.00
97.5956 934.00
97.6608 902.00
97.726 976.00
97.7912 932.00
97.8564 949.00
97.9216 955.00
97.9868 939.00
98.052 1010.00
98.1172 971.00
98.1824 978.00
98.2476 1011.00
98.3128 933.00
98.378 957.00
98.4432 888.00
98.5084 970.00
98.5736 952.00
98.6388 919.00
98.704 953.00
98.7692 933.00
98.8344 942.00
98.8996 937.00
98.9648 1008.00
99.03 1016.00
99.0952 1018.00
99.1604 1049.00
99.2256 971.00
99.2908 1031.00
99.356 961.00
99.4212 993.00
99.4864 985.00
99.5516 948.00
99.6168 940.00
99.682 973.00
99.7472 950.00
99.8124 913.00
99.8776 1000.00
99.9428 947.00
100.008 971.00
100.073 926.00
100.095 922.00