File: data/xrd_creation/results/NSC_88.xy
9.903433 2811.00
9.968632 2824.00
10.0338 2699.00
10.099 2698.00
10.1642 2688.00
10.2294 2727.00
10.2946 2684.00
10.3598 2614.00
10.425 2629.00
10.4902 2614.00
10.5554 2546.00
10.6206 2528.00
10.6858 2586.00
10.751 2553.00
10.8162 2562.00
10.8814 2497.00
10.9466 2464.00
11.0118 2428.00
11.077 2407.00
11.1422 2452.00
11.2074 2425.00
11.2726 2360.00
11.3378 2401.00
11.403 2228.00
11.4682 2253.00
11.5334 2409.00
11.5986 2320.00
11.6638 2288.00
11.729 2188.00
11.7942 2155.00
11.8594 2141.00
11.9246 2132.00
11.9898 2186.00
12.055 2147.00
12.1202 2142.00
12.1854 2042.00
12.2506 2086.00
12.3158 2109.00
12.381 2097.00
12.4462 2121.00
12.5114 2050.00
12.5766 2030.00
12.6418 2033.00
12.707 2087.00
12.7722 2007.00
12.8374 1974.00
12.9026 1964.00
12.9678 1997.00
13.033 2003.00
13.0982 1991.00
13.1634 1962.00
13.2286 1968.00
13.2938 1785.00
13.359 1891.00
13.4242 1909.00
13.4894 1886.00
13.5546 1888.00
13.6198 1870.00
13.685 1823.00
13.7502 1807.00
13.8154 1827.00
13.8805 1761.00
13.9457 1920.00
14.0109 1869.00
14.0761 1953.00
14.1413 2043.00
14.2065 2290.00
14.2717 2537.00
14.3369 2839.00
14.4021 2848.00
14.4673 2744.00
14.5325 2400.00
14.5977 1904.00
14.6629 1809.00
14.7281 1734.00
14.7933 1709.00
14.8585 1791.00
14.9237 1732.00
14.9889 1735.00
15.0541 1774.00
15.1193 1683.00
15.1845 1661.00
15.2497 1639.00
15.3149 1614.00
15.3801 1601.00
15.4453 1601.00
15.5105 1623.00
15.5757 1646.00
15.6409 1603.00
15.7061 1614.00
15.7713 1615.00
15.8365 1585.00
15.9017 1615.00
15.9669 1578.00
16.0321 1679.00
16.0973 1656.00
16.1625 1591.00
16.2277 1555.00
16.2929 1629.00
16.3581 1557.00
16.4233 1615.00
16.4885 1546.00
16.5537 1628.00
16.6189 1586.00
16.6841 1506.00
16.7493 1529.00
16.8145 1467.00
16.8797 1548.00
16.9449 1522.00
17.0101 1571.00
17.0753 1546.00
17.1405 1471.00
17.2057 1499.00
17.2709 1570.00
17.3361 1511.00
17.4013 1494.00
17.4665 1499.00
17.5317 1508.00
17.5969 1510.00
17.6621 1476.00
17.7273 1498.00
17.7925 1445.00
17.8577 1432.00
17.9229 1482.00
17.9881 1464.00
18.0533 1483.00
18.1185 1382.00
18.1837 1437.00
18.2489 1414.00
18.3141 1433.00
18.3793 1412.00
18.4445 1387.00
18.5097 1319.00
18.5749 1371.00
18.6401 1390.00
18.7052 1429.00
18.7704 1378.00
18.8356 1361.00
18.9008 1334.00
18.966 1370.00
19.0312 1406.00
19.0964 1396.00
19.1616 1352.00
19.2268 1380.00
19.292 1384.00
19.3572 1505.00
19.4224 1485.00
19.4876 1477.00
19.5528 1767.00
19.618 2185.00
19.6832 2877.00
19.7484 3870.00
19.8136 5041.00
19.8788 5765.00
19.944 5419.00
20.0092 3766.00
20.0744 2324.00
20.1396 1660.00
20.2048 1510.00
20.27 1433.00
20.3352 1491.00
20.4004 1411.00
20.4656 1578.00
20.5308 1718.00
20.596 1858.00
20.6612 2395.00
20.7264 3338.00
20.7916 4731.00
20.8568 6150.00
20.922 6650.00
20.9872 5639.00
21.0524 3768.00
21.1176 2256.00
21.1828 1648.00
21.248 1446.00
21.3132 1377.00
21.3784 1348.00
21.4436 1310.00
21.5088 1311.00
21.574 1286.00
21.6392 1266.00
21.7044 1170.00
21.7696 1177.00
21.8348 1155.00
21.9 1228.00
21.9652 1230.00
22.0304 1200.00
22.0956 1139.00
22.1608 1147.00
22.226 1176.00
22.2912 1146.00
22.3564 1094.00
22.4216 1115.00
22.4868 1187.00
22.552 1108.00
22.6172 1152.00
22.6824 1155.00
22.7476 1186.00
22.8128 1110.00
22.878 1119.00
22.9432 1170.00
23.0084 1126.00
23.0736 1162.00
23.1388 1132.00
23.204 1109.00
23.2692 1175.00
23.3344 1134.00
23.3996 1093.00
23.4647 1186.00
23.5299 1147.00
23.5951 1176.00
23.6603 1231.00
23.7255 1317.00
23.7907 1544.00
23.8559 2000.00
23.9211 2420.00
23.9863 3400.00
24.0515 4077.00
24.1167 4224.00
24.1819 3193.00
24.2471 2076.00
24.3123 1362.00
24.3775 1149.00
24.4427 1137.00
24.5079 1065.00
24.5731 1096.00
24.6383 1041.00
24.7035 1039.00
24.7687 1014.00
24.8339 1033.00
24.8991 1004.00
24.9643 1007.00
25.0295 960.00
25.0947 1058.00
25.1599 948.00
25.2251 1004.00
25.2903 1045.00
25.3555 968.00
25.4207 997.00
25.4859 1033.00
25.5511 968.00
25.6163 984.00
25.6815 994.00
25.7467 948.00
25.8119 971.00
25.8771 909.00
25.9423 924.00
26.0075 1022.00
26.0727 939.00
26.1379 966.00
26.2031 1037.00
26.2683 984.00
26.3335 1054.00
26.3987 1164.00
26.4639 1343.00
26.5291 1693.00
26.5943 2039.00
26.6595 2208.00
26.7247 1914.00
26.7899 1500.00
26.8551 1115.00
26.9203 981.00
26.9855 908.00
27.0507 896.00
27.1159 917.00
27.1811 944.00
27.2463 851.00
27.3115 897.00
27.3767 862.00
27.4419 865.00
27.5071 867.00
27.5723 838.00
27.6375 927.00
27.7027 875.00
27.7679 885.00
27.8331 837.00
27.8983 803.00
27.9635 854.00
28.0287 888.00
28.0939 841.00
28.1591 841.00
28.2243 919.00
28.2894 901.00
28.3546 860.00
28.4198 893.00
28.485 937.00
28.5502 928.00
28.6154 1009.00
28.6806 1066.00
28.7458 1290.00
28.811 1744.00
28.8762 2564.00
28.9414 3596.00
29.0066 4448.00
29.0718 3861.00
29.137 2409.00
29.2022 1481.00
29.2674 1071.00
29.3326 914.00
29.3978 844.00
29.463 840.00
29.5282 839.00
29.5934 775.00
29.6586 814.00
29.7238 768.00
29.789 812.00
29.8542 797.00
29.9194 815.00
29.9846 789.00
30.0498 788.00
30.115 773.00
30.1802 785.00
30.2454 724.00
30.3106 712.00
30.3758 733.00
30.441 762.00
30.5062 779.00
30.5714 729.00
30.6366 777.00
30.7018 756.00
30.767 748.00
30.8322 804.00
30.8974 797.00
30.9626 775.00
31.0278 799.00
31.093 783.00
31.1582 786.00
31.2234 815.00
31.2886 805.00
31.3538 854.00
31.419 910.00
31.4842 954.00
31.5494 1170.00
31.6146 1689.00
31.6798 2622.00
31.745 4225.00
31.8102 6035.00
31.8754 6330.00
31.9406 4594.00
32.0058 2658.00
32.071 1539.00
32.1362 1031.00
32.2014 943.00
32.2666 1016.00
32.3318 1090.00
32.397 1186.00
32.4622 1224.00
32.5274 1052.00
32.5926 859.00
32.6578 820.00
32.723 732.00
32.7882 744.00
32.8534 684.00
32.9186 739.00
32.9838 693.00
33.0489 704.00
33.1141 691.00
33.1793 746.00
33.2445 757.00
33.3097 687.00
33.3749 711.00
33.4401 718.00
33.5053 703.00
33.5705 738.00
33.6357 785.00
33.7009 789.00
33.7661 971.00
33.8313 1331.00
33.8965 1677.00
33.9617 1960.00
34.0269 1697.00
34.0921 1389.00
34.1573 1117.00
34.2225 1027.00
34.2877 862.00
34.3529 743.00
34.4181 686.00
34.4833 657.00
34.5485 587.00
34.6137 647.00
34.6789 632.00
34.7441 674.00
34.8093 616.00
34.8745 638.00
34.9397 620.00
35.0049 621.00
35.0701 623.00
35.1353 628.00
35.2005 632.00
35.2657 659.00
35.3309 687.00
35.3961 640.00
35.4613 657.00
35.5265 649.00
35.5917 651.00
35.6569 706.00
35.7221 747.00
35.7873 866.00
35.8525 1206.00
35.9177 1786.00
35.9829 2328.00
36.0481 2551.00
36.1133 1936.00
36.1785 1427.00
36.2437 1039.00
36.3089 881.00
36.3741 1056.00
36.4393 1428.00
36.5045 2039.00
36.5697 2822.00
36.6349 3185.00
36.7001 2728.00
36.7653 1708.00
36.8305 1169.00
36.8957 804.00
36.9609 707.00
37.0261 672.00
37.0913 746.00
37.1565 663.00
37.2217 640.00
37.2869 600.00
37.3521 616.00
37.4173 585.00
37.4825 558.00
37.5477 556.00
37.6129 592.00
37.6781 575.00
37.7433 625.00
37.8085 657.00
37.8736 712.00
37.9388 726.00
38.004 870.00
38.0692 886.00
38.1344 777.00
38.1996 662.00
38.2648 565.00
38.33 559.00
38.3952 590.00
38.4604 585.00
38.5256 733.00
38.5908 725.00
38.656 691.00
38.7212 640.00
38.7864 613.00
38.8516 580.00
38.9168 525.00
38.982 583.00
39.0472 551.00
39.1124 568.00
39.1776 555.00
39.2428 549.00
39.308 532.00
39.3732 498.00
39.4384 512.00
39.5036 524.00
39.5688 552.00
39.634 542.00
39.6992 512.00
39.7644 552.00
39.8296 497.00
39.8948 466.00
39.96 522.00
40.0252 512.00
40.0904 546.00
40.1556 588.00
40.2208 668.00
40.286 785.00
40.3512 919.00
40.4164 920.00
40.4816 830.00
40.5468 633.00
40.612 563.00
40.6772 552.00
40.7424 531.00
40.8076 476.00
40.8728 516.00
40.938 490.00
41.0032 515.00
41.0684 492.00
41.1336 528.00
41.1988 502.00
41.264 523.00
41.3292 490.00
41.3944 489.00
41.4596 510.00
41.5248 500.00
41.59 485.00
41.6552 490.00
41.7204 551.00
41.7856 628.00
41.8508 749.00
41.916 1006.00
41.9812 1124.00
42.0464 1103.00
42.1116 959.00
42.1768 684.00
42.242 662.00
42.3072 677.00
42.3724 721.00
42.4376 909.00
42.5028 1022.00
42.568 1068.00
42.6332 870.00
42.6983 802.00
42.7635 637.00
42.8287 605.00
42.8939 567.00
42.9591 579.00
43.0243 572.00
43.0895 541.00
43.1547 509.00
43.2199 496.00
43.2851 467.00
43.3503 483.00
43.4155 483.00
43.4807 473.00
43.5459 475.00
43.6111 472.00
43.6763 505.00
43.7415 555.00
43.8067 555.00
43.8719 546.00
43.9371 771.00
44.0023 1070.00
44.0675 1408.00
44.1327 1481.00
44.1979 1244.00
44.2631 950.00
44.3283 694.00
44.3935 551.00
44.4587 544.00
44.5239 521.00
44.5891 440.00
44.6543 460.00
44.7195 511.00
44.7847 482.00
44.8499 469.00
44.9151 491.00
44.9803 539.00
45.0455 619.00
45.1107 641.00
45.1759 599.00
45.2411 570.00
45.3063 531.00
45.3715 513.00
45.4367 482.00
45.5019 497.00
45.5671 572.00
45.6323 567.00
45.6975 703.00
45.7627 1006.00
45.8279 1389.00
45.8931 1547.00
45.9583 1405.00
46.0235 1063.00
46.0887 723.00
46.1539 589.00
46.2191 541.00
46.2843 517.00
46.3495 465.00
46.4147 450.00
46.4799 461.00
46.5451 384.00
46.6103 463.00
46.6755 456.00
46.7407 437.00
46.8059 445.00
46.8711 495.00
46.9363 507.00
47.0015 555.00
47.0667 606.00
47.1319 769.00
47.1971 1112.00
47.2623 1603.00
47.3275 2149.00
47.3927 2175.00
47.4579 1810.00
47.523 1242.00
47.5882 867.00
47.6534 660.00
47.7186 600.00
47.7838 523.00
47.849 467.00
47.9142 461.00
47.9794 458.00
48.0446 457.00
48.1098 423.00
48.175 465.00
48.2402 416.00
48.3054 462.00
48.3706 475.00
48.4358 513.00
48.501 567.00
48.5662 589.00
48.6314 538.00
48.6966 533.00
48.7618 514.00
48.827 528.00
48.8922 568.00
48.9574 549.00
49.0226 665.00
49.0878 936.00
49.153 1473.00
49.2182 2139.00
49.2834 2464.00
49.3486 2018.00
49.4138 1546.00
49.479 968.00
49.5442 716.00
49.6094 544.00
49.6746 514.00
49.7398 457.00
49.805 466.00
49.8702 396.00
49.9354 432.00
50.0006 461.00
50.0658 528.00
50.131 552.00
50.1962 624.00
50.2614 619.00
50.3266 562.00
50.3918 502.00
50.457 432.00
50.5222 433.00
50.5874 415.00
50.6526 428.00
50.7178 384.00
50.783 374.00
50.8482 413.00
50.9134 397.00
50.9786 428.00
51.0438 392.00
51.109 421.00
51.1742 428.00
51.2394 420.00
51.3046 393.00
51.3698 471.00
51.435 454.00
51.5002 467.00
51.5654 509.00
51.6306 617.00
51.6958 753.00
51.761 1104.00
51.8262 1498.00
51.8914 1415.00
51.9566 1179.00
52.0218 1103.00
52.087 1014.00
52.1522 1373.00
52.2174 2052.00
52.2826 2332.00
52.3477 2074.00
52.4129 1705.00
52.4781 1139.00
52.5433 730.00
52.6085 529.00
52.6737 482.00
52.7389 427.00
52.8041 469.00
52.8693 443.00
52.9345 463.00
52.9997 491.00
53.0649 527.00
53.1301 542.00
53.1953 537.00
53.2605 490.00
53.3257 394.00
53.3909 399.00
53.4561 385.00
53.5213 367.00
53.5865 358.00
53.6517 365.00
53.7169 386.00
53.7821 394.00
53.8473 344.00
53.9125 406.00
53.9777 358.00
54.0429 342.00
54.1081 386.00
54.1733 335.00
54.2385 371.00
54.3037 386.00
54.3689 440.00
54.4341 411.00
54.4993 430.00
54.5645 435.00
54.6297 424.00
54.6949 471.00
54.7601 565.00
54.8253 631.00
54.8905 627.00
54.9557 544.00
55.0209 545.00
55.0861 447.00
55.1513 408.00
55.2165 412.00
55.2817 421.00
55.3469 428.00
55.4121 549.00
55.4773 665.00
55.5425 946.00
55.6077 931.00
55.6729 904.00
55.7381 743.00
55.8033 600.00
55.8685 466.00
55.9337 394.00
55.9989 396.00
56.0641 408.00
56.1293 428.00
56.1945 397.00
56.2597 358.00
56.3249 386.00
56.3901 464.00
56.4553 449.00
56.5205 448.00
56.5857 483.00
56.6509 588.00
56.7161 694.00
56.7813 1042.00
56.8465 1374.00
56.9117 1375.00
56.9769 1300.00
57.042 1189.00
57.1073 1093.00
57.1724 1222.00
57.2376 1604.00
57.3028 1949.00
57.368 1791.00
57.4332 1472.00
57.4984 1107.00
57.5636 776.00
57.6288 584.00
57.694 527.00
57.7592 483.00
57.8244 539.00
57.8896 520.00
57.9548 509.00
58.02 459.00
58.0852 430.00
58.1504 454.00
58.2156 419.00
58.2808 496.00
58.346 463.00
58.4112 427.00
58.4764 446.00
58.5416 447.00
58.6068 521.00
58.672 625.00
58.7372 825.00
58.8024 845.00
58.8676 788.00
58.9328 690.00
58.998 569.00
59.0632 489.00
59.1284 451.00
59.1936 353.00
59.2588 376.00
59.324 364.00
59.3892 362.00
59.4544 362.00
59.5196 347.00
59.5848 361.00
59.65 348.00
59.7152 370.00
59.7804 362.00
59.8456 391.00
59.9108 435.00
59.976 602.00
60.0412 604.00
60.1064 566.00
60.1716 538.00
60.2368 479.00
60.302 397.00
60.3672 338.00
60.4324 339.00
60.4976 346.00
60.5628 373.00
60.628 381.00
60.6932 383.00
60.7584 388.00
60.8236 366.00
60.8888 403.00
60.954 445.00
61.0192 484.00
61.0844 666.00
61.1496 845.00
61.2148 1258.00
61.28 1422.00
61.3452 1165.00
61.4104 1071.00
61.4756 874.00
61.5408 620.00
61.606 475.00
61.6712 424.00
61.7364 390.00
61.8016 451.00
61.8667 517.00
61.932 641.00
61.9971 595.00
62.0623 574.00
62.1275 531.00
62.1927 559.00
62.2579 557.00
62.3231 504.00
62.3883 567.00
62.4535 526.00
62.5187 471.00
62.5839 497.00
62.6491 575.00
62.7143 765.00
62.7795 1120.00
62.8447 1558.00
62.9099 1640.00
62.9751 1589.00
63.0403 1559.00
63.1055 1418.00
63.1707 1154.00
63.2359 944.00
63.3011 729.00
63.3663 593.00
63.4315 485.00
63.4967 447.00
63.5619 398.00
63.6271 347.00
63.6923 382.00
63.7575 369.00
63.8227 374.00
63.8879 344.00
63.9531 346.00
64.0183 374.00
64.0835 352.00
64.1487 417.00
64.2139 431.00
64.2791 497.00
64.3443 489.00
64.4095 460.00
64.4747 439.00
64.5399 425.00
64.6051 458.00
64.6703 523.00
64.7355 579.00
64.8007 570.00
64.8659 562.00
64.9311 515.00
64.9963 470.00
65.0615 459.00
65.1267 451.00
65.1919 441.00
65.2571 494.00
65.3223 641.00
65.3875 844.00
65.4527 1014.00
65.5179 1096.00
65.5831 915.00
65.6483 922.00
65.7135 871.00
65.7787 881.00
65.8439 913.00
65.9091 989.00
65.9743 1046.00
66.0395 1021.00
66.1047 902.00
66.1699 697.00
66.2351 599.00
66.3003 494.00
66.3655 415.00
66.4307 330.00
66.4959 383.00
66.561 367.00
66.6263 361.00
66.6915 350.00
66.7566 339.00
66.8218 356.00
66.887 366.00
66.9522 380.00
67.0174 429.00
67.0826 505.00
67.1478 775.00
67.213 920.00
67.2782 944.00
67.3434 831.00
67.4086 765.00
67.4738 613.00
67.539 512.00
67.6042 429.00
67.6694 391.00
67.7346 398.00
67.7998 423.00
67.865 391.00
67.9302 368.00
67.9954 364.00
68.0606 355.00
68.1258 312.00
68.191 328.00
68.2562 324.00
68.3214 314.00
68.3866 307.00
68.4518 322.00
68.517 324.00
68.5822 328.00
68.6474 294.00
68.7126 303.00
68.7778 321.00
68.843 366.00
68.9082 329.00
68.9734 319.00
69.0386 354.00
69.1038 333.00
69.169 362.00
69.2342 416.00
69.2994 455.00
69.3646 545.00
69.4298 795.00
69.495 1046.00
69.5602 1038.00
69.6254 865.00
69.6906 819.00
69.7558 716.00
69.821 583.00
69.8862 410.00
69.9514 303.00
70.0166 314.00
70.0818 319.00
70.147 341.00
70.2122 327.00
70.2774 320.00
70.3426 285.00
70.4078 324.00
70.473 295.00
70.5382 305.00
70.6034 296.00
70.6686 296.00
70.7338 344.00
70.799 369.00
70.8642 372.00
70.9294 436.00
70.9946 450.00
71.0598 486.00
71.125 455.00
71.1902 501.00
71.2554 498.00
71.3205 577.00
71.3858 495.00
71.451 442.00
71.5162 426.00
71.5813 378.00
71.6465 393.00
71.7117 385.00
71.7769 377.00
71.8421 371.00
71.9073 329.00
71.9725 346.00
72.0377 339.00
72.1029 303.00
72.1681 306.00
72.2333 337.00
72.2985 312.00
72.3637 308.00
72.4289 332.00
72.4941 312.00
72.5593 321.00
72.6245 308.00
72.6897 282.00
72.7549 309.00
72.8201 265.00
72.8853 314.00
72.9505 271.00
73.0157 320.00
73.0809 308.00
73.1461 331.00
73.2113 322.00
73.2765 444.00
73.3417 513.00
73.4069 664.00
73.4721 771.00
73.5373 756.00
73.6025 670.00
73.6677 575.00
73.7329 552.00
73.7981 420.00
73.8633 399.00
73.9285 358.00
73.9937 340.00
74.0589 345.00
74.1241 325.00
74.1893 356.00
74.2545 350.00
74.3197 344.00
74.3849 323.00
74.4501 298.00
74.5153 296.00
74.5805 307.00
74.6457 297.00
74.7109 326.00
74.7761 307.00
74.8413 338.00
74.9065 367.00
74.9717 408.00
75.0369 473.00
75.1021 573.00
75.1673 692.00
75.2325 655.00
75.2977 558.00
75.3629 580.00
75.4281 521.00
75.4933 448.00
75.5585 382.00
75.6237 435.00
75.6889 434.00
75.7541 425.00
75.8193 430.00
75.8845 431.00
75.9497 427.00
76.0149 494.00
76.0801 458.00
76.1452 455.00
76.2104 501.00
76.2756 429.00
76.3409 389.00
76.406 356.00
76.4712 413.00
76.5364 318.00
76.6016 338.00
76.6668 298.00
76.732 302.00
76.7972 269.00
76.8624 283.00
76.9276 280.00
76.9928 288.00
77.058 278.00
77.1232 273.00
77.1884 264.00
77.2536 339.00
77.3188 374.00
77.384 349.00
77.4492 355.00
77.5144 392.00
77.5796 455.00
77.6448 545.00
77.71 600.00
77.7752 638.00
77.8404 642.00
77.9056 533.00
77.9708 556.00
78.036 503.00
78.1012 434.00
78.1664 401.00
78.2316 362.00
78.2968 347.00
78.362 344.00
78.4272 331.00
78.4924 304.00
78.5576 326.00
78.6228 350.00
78.688 389.00
78.7532 476.00
78.8184 452.00
78.8836 414.00
78.9488 438.00
79.014 498.00
79.0792 451.00
79.1444 403.00
79.2096 393.00
79.2748 376.00
79.34 364.00
79.4052 343.00
79.4704 374.00
79.5356 359.00
79.6008 357.00
79.666 327.00
79.7312 343.00
79.7964 339.00
79.8616 328.00
79.9268 343.00
79.992 369.00
80.0572 341.00
80.1224 352.00
80.1876 351.00
80.2528 342.00
80.318 347.00
80.3832 268.00
80.4484 306.00
80.5136 290.00
80.5788 292.00
80.644 308.00
80.7092 296.00
80.7744 287.00
80.8396 331.00
80.9048 331.00
80.9699 361.00
81.0351 403.00
81.1003 505.00
81.1655 615.00
81.2307 647.00
81.2959 598.00
81.3611 590.00
81.4263 679.00
81.4915 624.00
81.5567 680.00
81.6219 557.00
81.6871 533.00
81.7523 475.00
81.8175 413.00
81.8827 383.00
81.9479 323.00
82.0131 329.00
82.0783 327.00
82.1435 311.00
82.2087 302.00
82.2739 302.00
82.3391 289.00
82.4043 317.00
82.4695 319.00
82.5347 375.00
82.5999 418.00
82.6651 522.00
82.7303 596.00
82.7955 760.00
82.8607 737.00
82.9259 659.00
82.9911 587.00
83.0563 511.00
83.1215 500.00
83.1867 423.00
83.2519 391.00
83.3171 368.00
83.3823 317.00
83.4475 337.00
83.5127 315.00
83.5779 326.00
83.6431 351.00
83.7083 367.00
83.7735 416.00
83.8387 377.00
83.9039 338.00
83.9691 356.00
84.0343 338.00
84.0995 342.00
84.1647 297.00
84.2299 289.00
84.2951 269.00
84.3603 242.00
84.4255 271.00
84.4907 265.00
84.5559 249.00
84.6211 280.00
84.6863 250.00
84.7515 280.00
84.8167 308.00
84.8819 352.00
84.9471 343.00
85.0123 353.00
85.0775 348.00
85.1427 321.00
85.2079 320.00
85.2731 330.00
85.3383 288.00
85.4035 315.00
85.4687 264.00
85.5339 295.00
85.5991 290.00
85.6643 278.00
85.7295 288.00
85.7946 309.00
85.8598 322.00
85.925 339.00
85.9903 280.00
86.0554 276.00
86.1206 354.00
86.1858 397.00
86.251 450.00
86.3162 541.00
86.3814 612.00
86.4466 633.00
86.5118 560.00
86.577 500.00
86.6422 467.00
86.7074 501.00
86.7726 439.00
86.8378 364.00
86.903 311.00
86.9682 305.00
87.0334 317.00
87.0986 355.00
87.1638 365.00
87.229 398.00
87.2942 406.00
87.3594 443.00
87.4246 525.00
87.4898 587.00
87.555 679.00
87.6202 720.00
87.6854 721.00
87.7506 658.00
87.8158 629.00
87.881 595.00
87.9462 483.00
88.0114 477.00
88.0766 418.00
88.1418 345.00
88.207 341.00
88.2722 287.00
88.3374 295.00
88.4026 290.00
88.4678 342.00
88.533 330.00
88.5982 345.00
88.6634 374.00
88.7286 394.00
88.7938 402.00
88.859 363.00
88.9242 346.00
88.9894 376.00
89.0546 355.00
89.1198 292.00
89.185 321.00
89.2502 356.00
89.3154 323.00
89.3806 297.00
89.4458 304.00
89.511 297.00
89.5762 297.00
89.6414 333.00
89.7066 346.00
89.7718 350.00
89.837 451.00
89.9022 391.00
89.9674 363.00
90.0326 371.00
90.0978 357.00
90.163 372.00
90.2282 361.00
90.2934 433.00
90.3586 410.00
90.4238 401.00
90.489 425.00
90.5542 394.00
90.6193 420.00
90.6845 390.00
90.7497 396.00
90.8149 419.00
90.8801 544.00
90.9453 493.00
91.0105 442.00
91.0757 413.00
91.1409 432.00
91.2061 420.00
91.2713 424.00
91.3365 415.00
91.4017 380.00
91.4669 358.00
91.5321 318.00
91.5973 326.00
91.6625 310.00
91.7277 322.00
91.7929 294.00
91.8581 299.00
91.9233 308.00
91.9885 341.00
92.0537 247.00
92.1189 306.00
92.1841 347.00
92.2493 380.00
92.3145 422.00
92.3797 493.00
92.4449 607.00
92.5101 668.00
92.5753 617.00
92.6405 531.00
92.7057 560.00
92.7709 546.00
92.8361 566.00
92.9013 481.00
92.9665 463.00
93.0317 376.00
93.0969 350.00
93.1621 316.00
93.2273 316.00
93.2925 385.00
93.3577 344.00
93.4229 325.00
93.4881 312.00
93.5533 308.00
93.6185 319.00
93.6837 285.00
93.7489 280.00
93.8141 289.00
93.8793 318.00
93.9445 344.00
94.0097 434.00
94.0749 429.00
94.1401 511.00
94.2053 460.00
94.2705 421.00
94.3357 404.00
94.4009 450.00
94.4661 393.00
94.5313 354.00
94.5965 348.00
94.6617 298.00
94.7269 309.00
94.7921 301.00
94.8573 323.00
94.9225 336.00
94.9877 382.00
95.0529 380.00
95.1181 427.00
95.1833 492.00
95.2485 483.00
95.3137 429.00
95.3789 447.00
95.444 414.00
95.5092 410.00
95.5744 362.00
95.6396 358.00
95.7048 348.00
95.77 369.00
95.8352 346.00
95.9004 331.00
95.9656 371.00
96.0308 415.00
96.096 355.00
96.1612 442.00
96.2264 421.00
96.2916 420.00
96.3568 416.00
96.422 391.00
96.4872 343.00
96.5524 360.00
96.6176 319.00
96.6828 296.00
96.748 314.00
96.8132 300.00
96.8784 283.00
96.9436 282.00
97.0088 278.00
97.074 286.00
97.1392 285.00
97.2044 296.00
97.2696 295.00
97.3348 312.00
97.4 312.00
97.4652 336.00
97.5304 330.00
97.5956 413.00
97.6608 429.00
97.726 458.00
97.7912 555.00
97.8564 652.00
97.9216 657.00
97.9868 560.00
98.052 493.00
98.1172 458.00
98.1824 466.00
98.2476 484.00
98.3128 461.00
98.378 390.00
98.4432 331.00
98.5084 329.00
98.5736 309.00
98.6388 311.00
98.704 313.00
98.7692 283.00
98.8344 301.00
98.8996 265.00
98.9648 276.00
99.03 290.00
99.0952 251.00
99.1604 279.00
99.2256 265.00
99.2908 288.00
99.356 266.00
99.4212 302.00
99.4864 298.00
99.5516 271.00
99.6168 263.00
99.682 282.00
99.7472 329.00
99.8124 355.00
99.8776 403.00
99.9428 503.00
100.008 558.00
100.073 608.00
100.095 638.00