File: data/xrd_creation/results/NSC_123.xy
9.903433 2662.00
9.968632 2630.00
10.0338 2695.00
10.099 2663.00
10.1642 2677.00
10.2294 2498.00
10.2946 2583.00
10.3598 2501.00
10.425 2448.00
10.4902 2486.00
10.5554 2466.00
10.6206 2534.00
10.6858 2471.00
10.751 2432.00
10.8162 2395.00
10.8814 2318.00
10.9466 2351.00
11.0118 2303.00
11.077 2278.00
11.1422 2268.00
11.2074 2236.00
11.2726 2192.00
11.3378 2301.00
11.403 2118.00
11.4682 2163.00
11.5334 2111.00
11.5986 2169.00
11.6638 2125.00
11.729 2094.00
11.7942 2123.00
11.8594 2089.00
11.9246 2012.00
11.9898 2026.00
12.055 2039.00
12.1202 2053.00
12.1854 2024.00
12.2506 2060.00
12.3158 2051.00
12.381 1938.00
12.4462 2028.00
12.5114 1892.00
12.5766 1978.00
12.6418 1899.00
12.707 1803.00
12.7722 1934.00
12.8374 1863.00
12.9026 1928.00
12.9678 1819.00
13.033 1812.00
13.0982 1802.00
13.1634 1833.00
13.2286 1830.00
13.2938 1848.00
13.359 1861.00
13.4242 1764.00
13.4894 1797.00
13.5546 1713.00
13.6198 1824.00
13.685 1737.00
13.7502 1745.00
13.8154 1723.00
13.8805 1787.00
13.9457 1771.00
14.0109 1779.00
14.0761 1748.00
14.1413 1887.00
14.2065 1989.00
14.2717 2115.00
14.3369 2165.00
14.4021 2290.00
14.4673 2394.00
14.5325 2652.00
14.5977 3095.00
14.6629 4114.00
14.7281 2975.00
14.7933 1862.00
14.8585 1654.00
14.9237 1642.00
14.9889 1598.00
15.0541 1657.00
15.1193 1566.00
15.1845 1621.00
15.2497 1587.00
15.3149 1531.00
15.3801 1633.00
15.4453 1586.00
15.5105 1552.00
15.5757 1640.00
15.6409 1611.00
15.7061 1608.00
15.7713 1542.00
15.8365 1544.00
15.9017 1597.00
15.9669 1569.00
16.0321 1655.00
16.0973 1572.00
16.1625 1573.00
16.2277 1490.00
16.2929 1562.00
16.3581 1561.00
16.4233 1541.00
16.4885 1481.00
16.5537 1443.00
16.6189 1531.00
16.6841 1536.00
16.7493 1497.00
16.8145 1489.00
16.8797 1458.00
16.9449 1527.00
17.0101 1514.00
17.0753 1454.00
17.1405 1432.00
17.2057 1515.00
17.2709 1462.00
17.3361 1447.00
17.4013 1465.00
17.4665 1509.00
17.5317 1488.00
17.5969 1512.00
17.6621 1371.00
17.7273 1408.00
17.7925 1420.00
17.8577 1424.00
17.9229 1402.00
17.9881 1409.00
18.0533 1329.00
18.1185 1481.00
18.1837 1393.00
18.2489 1369.00
18.3141 1409.00
18.3793 1315.00
18.4445 1394.00
18.5097 1347.00
18.5749 1403.00
18.6401 1366.00
18.7052 1390.00
18.7704 1399.00
18.8356 1359.00
18.9008 1349.00
18.966 1341.00
19.0312 1389.00
19.0964 1371.00
19.1616 1329.00
19.2268 1345.00
19.292 1339.00
19.3572 1399.00
19.4224 1394.00
19.4876 1488.00
19.5528 1541.00
19.618 1660.00
19.6832 2007.00
19.7484 2191.00
19.8136 2515.00
19.8788 2889.00
19.944 3743.00
20.0092 4745.00
20.0744 7246.00
20.1396 11288.00
20.2048 8250.00
20.27 2827.00
20.3352 1789.00
20.4004 1655.00
20.4656 1584.00
20.5308 1582.00
20.596 1784.00
20.6612 1764.00
20.7264 2114.00
20.7916 2397.00
20.8568 2845.00
20.922 3348.00
20.9872 4344.00
21.0524 6330.00
21.1176 10012.00
21.1828 13837.00
21.248 7287.00
21.3132 2605.00
21.3784 1752.00
21.4436 1576.00
21.5088 1537.00
21.574 1460.00
21.6392 1390.00
21.7044 1383.00
21.7696 1365.00
21.8348 1400.00
21.9 1426.00
21.9652 1407.00
22.0304 1403.00
22.0956 1440.00
22.1608 1330.00
22.226 1263.00
22.2912 1209.00
22.3564 1259.00
22.4216 1188.00
22.4868 1259.00
22.552 1233.00
22.6172 1275.00
22.6824 1371.00
22.7476 1258.00
22.8128 1196.00
22.878 1158.00
22.9432 1136.00
23.0084 1139.00
23.0736 1173.00
23.1388 1109.00
23.204 1175.00
23.2692 1153.00
23.3344 1094.00
23.3996 1149.00
23.4647 1135.00
23.5299 1254.00
23.5951 1155.00
23.6603 1165.00
23.7255 1254.00
23.7907 1296.00
23.8559 1441.00
23.9211 1608.00
23.9863 1764.00
24.0515 2018.00
24.1167 2332.00
24.1819 3065.00
24.2471 4608.00
24.3123 7713.00
24.3775 7304.00
24.4427 3028.00
24.5079 1524.00
24.5731 1299.00
24.6383 1227.00
24.7035 1125.00
24.7687 1108.00
24.8339 1086.00
24.8991 1049.00
24.9643 1045.00
25.0295 1071.00
25.0947 1050.00
25.1599 999.00
25.2251 1001.00
25.2903 1013.00
25.3555 1081.00
25.4207 1060.00
25.4859 1001.00
25.5511 1012.00
25.6163 1005.00
25.6815 1031.00
25.7467 959.00
25.8119 1027.00
25.8771 962.00
25.9423 1036.00
26.0075 986.00
26.0727 970.00
26.1379 986.00
26.2031 1040.00
26.2683 931.00
26.3335 1000.00
26.3987 1024.00
26.4639 972.00
26.5291 978.00
26.5943 1018.00
26.6595 965.00
26.7247 1009.00
26.7899 978.00
26.8551 925.00
26.9203 994.00
26.9855 962.00
27.0507 932.00
27.1159 977.00
27.1811 959.00
27.2463 934.00
27.3115 924.00
27.3767 876.00
27.4419 923.00
27.5071 925.00
27.5723 951.00
27.6375 910.00
27.7027 951.00
27.7679 940.00
27.8331 866.00
27.8983 890.00
27.9635 873.00
28.0287 879.00
28.0939 909.00
28.1591 860.00
28.2243 837.00
28.2894 895.00
28.3546 903.00
28.4198 942.00
28.485 906.00
28.5502 932.00
28.6154 873.00
28.6806 950.00
28.7458 998.00
28.811 1078.00
28.8762 1240.00
28.9414 1461.00
29.0066 1783.00
29.0718 2362.00
29.137 3655.00
29.2022 6718.00
29.2674 8976.00
29.3326 5190.00
29.3978 1941.00
29.463 1140.00
29.5282 1028.00
29.5934 987.00
29.6586 935.00
29.7238 854.00
29.789 920.00
29.8542 883.00
29.9194 818.00
29.9846 909.00
30.0498 805.00
30.115 792.00
30.1802 808.00
30.2454 817.00
30.3106 773.00
30.3758 803.00
30.441 771.00
30.5062 806.00
30.5714 799.00
30.6366 745.00
30.7018 835.00
30.767 798.00
30.8322 794.00
30.8974 810.00
30.9626 824.00
31.0278 862.00
31.093 878.00
31.1582 854.00
31.2234 890.00
31.2886 903.00
31.3538 857.00
31.419 885.00
31.4842 926.00
31.5494 972.00
31.6146 1140.00
31.6798 1150.00
31.745 1417.00
31.8102 1754.00
31.8754 2446.00
31.9406 3889.00
32.0058 7480.00
32.071 13386.00
32.1362 10691.00
32.2014 5426.00
32.2666 1885.00
32.3318 1321.00
32.397 1120.00
32.4622 1182.00
32.5274 1160.00
32.5926 1535.00
32.6578 1858.00
32.723 1598.00
32.7882 1200.00
32.8534 931.00
32.9186 809.00
32.9838 809.00
33.0489 862.00
33.1141 735.00
33.1793 738.00
33.2445 751.00
33.3097 769.00
33.3749 823.00
33.4401 821.00
33.5053 743.00
33.5705 729.00
33.6357 725.00
33.7009 755.00
33.7661 739.00
33.8313 728.00
33.8965 751.00
33.9617 722.00
34.0269 718.00
34.0921 764.00
34.1573 795.00
34.2225 855.00
34.2877 988.00
34.3529 1261.00
34.4181 1258.00
34.4833 1070.00
34.5485 853.00
34.6137 772.00
34.6789 693.00
34.7441 683.00
34.8093 679.00
34.8745 713.00
34.9397 702.00
35.0049 734.00
35.0701 714.00
35.1353 685.00
35.2005 700.00
35.2657 696.00
35.3309 676.00
35.3961 649.00
35.4613 737.00
35.5265 769.00
35.5917 719.00
35.6569 739.00
35.7221 752.00
35.7873 708.00
35.8525 865.00
35.9177 882.00
35.9829 1017.00
36.0481 1216.00
36.1133 1687.00
36.1785 3098.00
36.2437 4789.00
36.3089 3757.00
36.3741 2390.00
36.4393 1324.00
36.5045 1129.00
36.5697 1138.00
36.6349 1413.00
36.7001 2092.00
36.7653 3569.00
36.8305 5783.00
36.8957 5234.00
36.9609 3475.00
37.0261 1734.00
37.0913 1016.00
37.1565 851.00
37.2217 815.00
37.2869 770.00
37.3521 762.00
37.4173 752.00
37.4825 711.00
37.5477 686.00
37.6129 691.00
37.6781 667.00
37.7433 656.00
37.8085 696.00
37.8736 645.00
37.9388 697.00
38.004 664.00
38.0692 583.00
38.1344 616.00
38.1996 618.00
38.2648 583.00
38.33 642.00
38.3952 662.00
38.4604 646.00
38.5256 655.00
38.5908 731.00
38.656 680.00
38.7212 680.00
38.7864 866.00
38.8516 978.00
38.9168 881.00
38.982 716.00
39.0472 678.00
39.1124 597.00
39.1776 613.00
39.2428 580.00
39.308 580.00
39.3732 553.00
39.4384 590.00
39.5036 584.00
39.5688 611.00
39.634 573.00
39.6992 586.00
39.7644 601.00
39.8296 559.00
39.8948 585.00
39.96 579.00
40.0252 590.00
40.0904 628.00
40.1556 563.00
40.2208 602.00
40.286 591.00
40.3512 621.00
40.4164 679.00
40.4816 850.00
40.5468 1187.00
40.612 1528.00
40.6772 1209.00
40.7424 987.00
40.8076 662.00
40.8728 618.00
40.938 613.00
41.0032 594.00
41.0684 567.00
41.1336 610.00
41.1988 614.00
41.264 570.00
41.3292 584.00
41.3944 566.00
41.4596 600.00
41.5248 557.00
41.59 533.00
41.6552 517.00
41.7204 582.00
41.7856 599.00
41.8508 622.00
41.916 672.00
41.9812 718.00
42.0464 839.00
42.1116 1199.00
42.1768 1663.00
42.242 1743.00
42.3072 1484.00
42.3724 1029.00
42.4376 808.00
42.5028 738.00
42.568 820.00
42.6332 1006.00
42.6983 1394.00
42.7635 1639.00
42.8287 1455.00
42.8939 1109.00
42.9591 836.00
43.0243 662.00
43.0895 620.00
43.1547 694.00
43.2199 835.00
43.2851 690.00
43.3503 648.00
43.4155 610.00
43.4807 582.00
43.5459 540.00
43.6111 564.00
43.6763 589.00
43.7415 601.00
43.8067 613.00
43.8719 545.00
43.9371 613.00
44.0023 670.00
44.0675 627.00
44.1327 847.00
44.1979 1034.00
44.2631 1945.00
44.3283 2727.00
44.3935 2049.00
44.4587 1709.00
44.5239 941.00
44.5891 751.00
44.6543 685.00
44.7195 628.00
44.7847 559.00
44.8499 577.00
44.9151 544.00
44.9803 598.00
45.0455 569.00
45.1107 525.00
45.1759 625.00
45.2411 665.00
45.3063 909.00
45.3715 860.00
45.4367 780.00
45.5019 714.00
45.5671 594.00
45.6323 569.00
45.6975 647.00
45.7627 581.00
45.8279 676.00
45.8931 792.00
45.9583 949.00
46.0235 1679.00
46.0887 2946.00
46.1539 2349.00
46.2191 1933.00
46.2843 1103.00
46.3495 687.00
46.4147 676.00
46.4799 560.00
46.5451 517.00
46.6103 546.00
46.6755 544.00
46.7407 572.00
46.8059 566.00
46.8711 514.00
46.9363 525.00
47.0015 532.00
47.0667 579.00
47.1319 643.00
47.1971 639.00
47.2623 665.00
47.3275 784.00
47.3927 1059.00
47.4579 1817.00
47.523 3269.00
47.5882 4100.00
47.6534 3188.00
47.7186 2378.00
47.7838 1292.00
47.849 733.00
47.9142 616.00
47.9794 588.00
48.0446 590.00
48.1098 539.00
48.175 561.00
48.2402 539.00
48.3054 503.00
48.3706 530.00
48.4358 534.00
48.501 560.00
48.5662 534.00
48.6314 566.00
48.6966 646.00
48.7618 762.00
48.827 728.00
48.8922 692.00
48.9574 651.00
49.0226 647.00
49.0878 662.00
49.153 758.00
49.2182 860.00
49.2834 1059.00
49.3486 1440.00
49.4138 2596.00
49.479 4663.00
49.5442 3605.00
49.6094 2810.00
49.6746 1766.00
49.7398 850.00
49.805 651.00
49.8702 619.00
49.9354 545.00
50.0006 534.00
50.0658 497.00
50.131 513.00
50.1962 580.00
50.2614 594.00
50.3266 700.00
50.3918 850.00
50.457 985.00
50.5222 843.00
50.5874 677.00
50.6526 558.00
50.7178 526.00
50.783 504.00
50.8482 480.00
50.9134 496.00
50.9786 464.00
51.0438 482.00
51.109 445.00
51.1742 466.00
51.2394 482.00
51.3046 495.00
51.3698 482.00
51.435 491.00
51.5002 496.00
51.5654 486.00
51.6306 510.00
51.6958 504.00
51.761 488.00
51.8262 492.00
51.8914 529.00
51.9566 502.00
52.0218 539.00
52.087 594.00
52.1522 621.00
52.2174 725.00
52.2826 851.00
52.3477 1256.00
52.4129 2286.00
52.4781 4122.00
52.5433 3716.00
52.6085 2762.00
52.6737 2085.00
52.7389 1013.00
52.8041 680.00
52.8693 571.00
52.9345 570.00
52.9997 569.00
53.0649 512.00
53.1301 512.00
53.1953 535.00
53.2605 662.00
53.3257 771.00
53.3909 727.00
53.4561 640.00
53.5213 587.00
53.5865 469.00
53.6517 488.00
53.7169 466.00
53.7821 516.00
53.8473 429.00
53.9125 481.00
53.9777 452.00
54.0429 445.00
54.1081 432.00
54.1733 466.00
54.2385 459.00
54.3037 397.00
54.3689 434.00
54.4341 413.00
54.4993 462.00
54.5645 476.00
54.6297 514.00
54.6949 508.00
54.7601 516.00
54.8253 473.00
54.8905 515.00
54.9557 430.00
55.0209 441.00
55.0861 456.00
55.1513 485.00
55.2165 436.00
55.2817 480.00
55.3469 497.00
55.4121 489.00
55.4773 470.00
55.5425 504.00
55.6077 620.00
55.6729 663.00
55.7381 1009.00
55.8033 1554.00
55.8685 1294.00
55.9337 1106.00
55.9989 957.00
56.0641 663.00
56.1293 589.00
56.1945 495.00
56.2597 476.00
56.3249 441.00
56.3901 467.00
56.4553 465.00
56.5205 484.00
56.5857 550.00
56.6509 502.00
56.7161 609.00
56.7813 604.00
56.8465 691.00
56.9117 812.00
56.9769 1148.00
57.042 1921.00
57.1073 2317.00
57.1724 2045.00
57.2376 1657.00
57.3028 1585.00
57.368 1511.00
57.4332 2196.00
57.4984 3025.00
57.5636 2917.00
57.6288 2478.00
57.694 1891.00
57.7592 1305.00
57.8244 786.00
57.8896 606.00
57.9548 533.00
58.02 543.00
58.0852 520.00
58.1504 452.00
58.2156 470.00
58.2808 484.00
58.346 478.00
58.4112 458.00
58.4764 542.00
58.5416 575.00
58.6068 539.00
58.672 523.00
58.7372 578.00
58.8024 598.00
58.8676 895.00
58.9328 1116.00
58.998 1217.00
59.0632 1308.00
59.1284 1031.00
59.1936 872.00
59.2588 736.00
59.324 594.00
59.3892 482.00
59.4544 499.00
59.5196 432.00
59.5848 462.00
59.65 488.00
59.7152 465.00
59.7804 442.00
59.8456 458.00
59.9108 451.00
59.976 438.00
60.0412 439.00
60.1064 513.00
60.1716 673.00
60.2368 953.00
60.302 718.00
60.3672 702.00
60.4324 672.00
60.4976 515.00
60.5628 469.00
60.628 450.00
60.6932 445.00
60.7584 484.00
60.8236 455.00
60.8888 442.00
60.954 508.00
61.0192 451.00
61.0844 457.00
61.1496 509.00
61.2148 544.00
61.28 669.00
61.3452 916.00
61.4104 1564.00
61.4756 2641.00
61.5408 1873.00
61.606 1623.00
61.6712 1555.00
61.7364 853.00
61.8016 611.00
61.8667 514.00
61.932 478.00
61.9971 441.00
62.0623 497.00
62.1275 483.00
62.1927 524.00
62.2579 534.00
62.3231 549.00
62.3883 547.00
62.4535 690.00
62.5187 693.00
62.5839 641.00
62.6491 665.00
62.7143 644.00
62.7795 561.00
62.8447 691.00
62.9099 791.00
62.9751 1257.00
63.0403 2259.00
63.1055 2770.00
63.1707 2380.00
63.2359 2463.00
63.3011 2329.00
63.3663 1824.00
63.4315 1404.00
63.4967 1076.00
63.5619 874.00
63.6271 669.00
63.6923 563.00
63.7575 499.00
63.8227 470.00
63.8879 446.00
63.9531 422.00
64.0183 433.00
64.0835 409.00
64.1487 424.00
64.2139 444.00
64.2791 458.00
64.3443 442.00
64.4095 536.00
64.4747 732.00
64.5399 693.00
64.6051 624.00
64.6703 624.00
64.7355 547.00
64.8007 433.00
64.8659 467.00
64.9311 391.00
64.9963 434.00
65.0615 460.00
65.1267 404.00
65.1919 450.00
65.2571 404.00
65.3223 474.00
65.3875 538.00
65.4527 580.00
65.5179 709.00
65.5831 1065.00
65.6483 1556.00
65.7135 1650.00
65.7787 1272.00
65.8439 1288.00
65.9091 1262.00
65.9743 1123.00
66.0395 1218.00
66.1047 1298.00
66.1699 1233.00
66.2351 993.00
66.3003 989.00
66.3655 802.00
66.4307 577.00
66.4959 551.00
66.561 438.00
66.6263 457.00
66.6915 439.00
66.7566 424.00
66.8218 400.00
66.887 428.00
66.9522 418.00
67.0174 462.00
67.0826 453.00
67.1478 481.00
67.213 519.00
67.2782 662.00
67.3434 960.00
67.4086 1291.00
67.4738 1421.00
67.539 1242.00
67.6042 1135.00
67.6694 926.00
67.7346 713.00
67.7998 564.00
67.865 500.00
67.9302 506.00
67.9954 455.00
68.0606 490.00
68.1258 458.00
68.191 428.00
68.2562 425.00
68.3214 428.00
68.3866 367.00
68.4518 392.00
68.517 404.00
68.5822 376.00
68.6474 375.00
68.7126 400.00
68.7778 404.00
68.843 372.00
68.9082 382.00
68.9734 371.00
69.0386 371.00
69.1038 405.00
69.169 348.00
69.2342 417.00
69.2994 477.00
69.3646 427.00
69.4298 431.00
69.495 506.00
69.5602 633.00
69.6254 947.00
69.6906 1455.00
69.7558 1699.00
69.821 1306.00
69.8862 1177.00
69.9514 1099.00
70.0166 787.00
70.0818 553.00
70.147 463.00
70.2122 418.00
70.2774 399.00
70.3426 404.00
70.4078 403.00
70.473 387.00
70.5382 382.00
70.6034 412.00
70.6686 338.00
70.7338 370.00
70.799 393.00
70.8642 381.00
70.9294 415.00
70.9946 481.00
71.0598 470.00
71.125 498.00
71.1902 640.00
71.2554 669.00
71.3205 636.00
71.3858 644.00
71.451 605.00
71.5162 611.00
71.5813 533.00
71.6465 529.00
71.7117 484.00
71.7769 450.00
71.8421 463.00
71.9073 448.00
71.9725 475.00
72.0377 470.00
72.1029 457.00
72.1681 433.00
72.2333 399.00
72.2985 412.00
72.3637 388.00
72.4289 366.00
72.4941 349.00
72.5593 388.00
72.6245 411.00
72.6897 438.00
72.7549 396.00
72.8201 352.00
72.8853 406.00
72.9505 406.00
73.0157 369.00
73.0809 365.00
73.1461 349.00
73.2113 380.00
73.2765 381.00
73.3417 409.00
73.4069 413.00
73.4721 500.00
73.5373 646.00
73.6025 920.00
73.6677 1053.00
73.7329 1138.00
73.7981 1025.00
73.8633 875.00
73.9285 713.00
73.9937 681.00
74.0589 519.00
74.1241 463.00
74.1893 397.00
74.2545 401.00
74.3197 402.00
74.3849 399.00
74.4501 436.00
74.5153 424.00
74.5805 336.00
74.6457 362.00
74.7109 427.00
74.7761 356.00
74.8413 395.00
74.9065 434.00
74.9717 454.00
75.0369 401.00
75.1021 414.00
75.1673 455.00
75.2325 554.00
75.2977 778.00
75.3629 1010.00
75.4281 984.00
75.4933 828.00
75.5585 748.00
75.6237 821.00
75.6889 585.00
75.7541 544.00
75.8193 507.00
75.8845 530.00
75.9497 579.00
76.0149 560.00
76.0801 535.00
76.1452 573.00
76.2104 575.00
76.2756 539.00
76.3409 604.00
76.406 629.00
76.4712 615.00
76.5364 594.00
76.6016 529.00
76.6668 502.00
76.732 436.00
76.7972 400.00
76.8624 374.00
76.9276 346.00
76.9928 350.00
77.058 367.00
77.1232 316.00
77.1884 351.00
77.2536 362.00
77.3188 356.00
77.384 385.00
77.4492 430.00
77.5144 413.00
77.5796 493.00
77.6448 505.00
77.71 507.00
77.7752 605.00
77.8404 773.00
77.9056 824.00
77.9708 861.00
78.036 776.00
78.1012 741.00
78.1664 675.00
78.2316 636.00
78.2968 575.00
78.362 501.00
78.4272 434.00
78.4924 450.00
78.5576 429.00
78.6228 372.00
78.688 351.00
78.7532 408.00
78.8184 337.00
78.8836 354.00
78.9488 404.00
79.014 411.00
79.0792 375.00
79.1444 439.00
79.2096 483.00
79.2748 502.00
79.34 486.00
79.4052 462.00
79.4704 477.00
79.5356 447.00
79.6008 402.00
79.666 440.00
79.7312 436.00
79.7964 452.00
79.8616 421.00
79.9268 443.00
79.992 462.00
80.0572 458.00
80.1224 440.00
80.1876 438.00
80.2528 456.00
80.318 443.00
80.3832 426.00
80.4484 444.00
80.5136 402.00
80.5788 416.00
80.644 436.00
80.7092 373.00
80.7744 382.00
80.8396 357.00
80.9048 404.00
80.9699 407.00
81.0351 385.00
81.1003 408.00
81.1655 487.00
81.2307 498.00
81.2959 604.00
81.3611 849.00
81.4263 884.00
81.4915 831.00
81.5567 734.00
81.6219 840.00
81.6871 845.00
81.7523 847.00
81.8175 757.00
81.8827 680.00
81.9479 619.00
82.0131 559.00
82.0783 545.00
82.1435 444.00
82.2087 415.00
82.2739 374.00
82.3391 362.00
82.4043 362.00
82.4695 379.00
82.5347 372.00
82.5999 399.00
82.6651 445.00
82.7303 467.00
82.7955 608.00
82.8607 672.00
82.9259 870.00
82.9911 1088.00
83.0563 1174.00
83.1215 898.00
83.1867 734.00
83.2519 728.00
83.3171 703.00
83.3823 564.00
83.4475 513.00
83.5127 415.00
83.5779 403.00
83.6431 386.00
83.7083 381.00
83.7735 373.00
83.8387 372.00
83.9039 344.00
83.9691 347.00
84.0343 327.00
84.0995 330.00
84.1647 364.00
84.2299 384.00
84.2951 370.00
84.3603 357.00
84.4255 320.00
84.4907 319.00
84.5559 317.00
84.6211 332.00
84.6863 329.00
84.7515 339.00
84.8167 335.00
84.8819 362.00
84.9471 381.00
85.0123 378.00
85.0775 401.00
85.1427 479.00
85.2079 456.00
85.2731 419.00
85.3383 417.00
85.4035 434.00
85.4687 409.00
85.5339 390.00
85.5991 370.00
85.6643 300.00
85.7295 339.00
85.7946 353.00
85.8598 379.00
85.925 377.00
85.9903 374.00
86.0554 425.00
86.1206 413.00
86.1858 407.00
86.251 400.00
86.3162 449.00
86.3814 483.00
86.4466 567.00
86.5118 786.00
86.577 896.00
86.6422 803.00
86.7074 839.00
86.7726 774.00
86.8378 683.00
86.903 619.00
86.9682 577.00
87.0334 478.00
87.0986 399.00
87.1638 390.00
87.229 409.00
87.2942 393.00
87.3594 468.00
87.4246 429.00
87.4898 481.00
87.555 579.00
87.6202 616.00
87.6854 710.00
87.7506 893.00
87.8158 944.00
87.881 993.00
87.9462 986.00
88.0114 876.00
88.0766 801.00
88.1418 748.00
88.207 618.00
88.2722 568.00
88.3374 468.00
88.4026 397.00
88.4678 370.00
88.533 388.00
88.5982 359.00
88.6634 398.00
88.7286 414.00
88.7938 474.00
88.859 463.00
88.9242 486.00
88.9894 491.00
89.0546 465.00
89.1198 457.00
89.185 437.00
89.2502 429.00
89.3154 421.00
89.3806 412.00
89.4458 444.00
89.511 365.00
89.5762 339.00
89.6414 380.00
89.7066 400.00
89.7718 341.00
89.837 310.00
89.9022 342.00
89.9674 337.00
90.0326 329.00
90.0978 330.00
90.163 341.00
90.2282 359.00
90.2934 368.00
90.3586 397.00
90.4238 407.00
90.489 497.00
90.5542 562.00
90.6193 503.00
90.6845 511.00
90.7497 504.00
90.8149 504.00
90.8801 520.00
90.9453 489.00
91.0105 482.00
91.0757 511.00
91.1409 503.00
91.2061 472.00
91.2713 451.00
91.3365 464.00
91.4017 510.00
91.4669 483.00
91.5321 507.00
91.5973 434.00
91.6625 439.00
91.7277 455.00
91.7929 442.00
91.8581 422.00
91.9233 413.00
91.9885 388.00
92.0537 383.00
92.1189 379.00
92.1841 375.00
92.2493 332.00
92.3145 356.00
92.3797 379.00
92.4449 436.00
92.5101 498.00
92.5753 671.00
92.6405 890.00
92.7057 889.00
92.7709 807.00
92.8361 722.00
92.9013 722.00
92.9665 773.00
93.0317 727.00
93.0969 652.00
93.1621 549.00
93.2273 507.00
93.2925 441.00
93.3577 431.00
93.4229 393.00
93.4881 399.00
93.5533 370.00
93.6185 368.00
93.6837 325.00
93.7489 337.00
93.8141 319.00
93.8793 351.00
93.9445 371.00
94.0097 359.00
94.0749 375.00
94.1401 401.00
94.2053 590.00
94.2705 668.00
94.3357 682.00
94.4009 539.00
94.4661 534.00
94.5313 511.00
94.5965 556.00
94.6617 551.00
94.7269 469.00
94.7921 431.00
94.8573 390.00
94.9225 400.00
94.9877 443.00
95.0529 404.00
95.1181 392.00
95.1833 457.00
95.2485 562.00
95.3137 573.00
95.3789 593.00
95.444 636.00
95.5092 571.00
95.5744 591.00
95.6396 537.00
95.7048 540.00
95.77 498.00
95.8352 444.00
95.9004 435.00
95.9656 477.00
96.0308 424.00
96.096 411.00
96.1612 395.00
96.2264 447.00
96.2916 479.00
96.3568 496.00
96.422 493.00
96.4872 513.00
96.5524 538.00
96.6176 494.00
96.6828 450.00
96.748 437.00
96.8132 420.00
96.8784 447.00
96.9436 419.00
97.0088 362.00
97.074 338.00
97.1392 373.00
97.2044 395.00
97.2696 359.00
97.3348 349.00
97.4 399.00
97.4652 419.00
97.5304 361.00
97.5956 402.00
97.6608 409.00
97.726 470.00
97.7912 497.00
97.8564 601.00
97.9216 628.00
97.9868 789.00
98.052 951.00
98.1172 878.00
98.1824 733.00
98.2476 600.00
98.3128 612.00
98.378 698.00
98.4432 596.00
98.5084 561.00
98.5736 451.00
98.6388 447.00
98.704 413.00
98.7692 397.00
98.8344 389.00
98.8996 379.00
98.9648 367.00
99.03 368.00
99.0952 332.00
99.1604 367.00
99.2256 343.00
99.2908 358.00
99.356 356.00
99.4212 326.00
99.4864 380.00
99.5516 334.00
99.6168 326.00
99.682 355.00
99.7472 354.00
99.8124 332.00
99.8776 425.00
99.9428 380.00
100.008 441.00
100.073 622.00
100.095 619.00