File: data/xrd_creation/results/NSC_194.xy
9.903433 2816.00
9.968632 2796.00
10.0338 2902.00
10.099 2798.00
10.1642 2784.00
10.2294 2848.00
10.2946 2729.00
10.3598 2712.00
10.425 2726.00
10.4902 2678.00
10.5554 2590.00
10.6206 2673.00
10.6858 2712.00
10.751 2632.00
10.8162 2603.00
10.8814 2592.00
10.9466 2616.00
11.0118 2583.00
11.077 2482.00
11.1422 2512.00
11.2074 2477.00
11.2726 2487.00
11.3378 2442.00
11.403 2326.00
11.4682 2481.00
11.5334 2543.00
11.5986 2466.00
11.6638 2368.00
11.729 2436.00
11.7942 2408.00
11.8594 2402.00
11.9246 2383.00
11.9898 2345.00
12.055 2366.00
12.1202 2518.00
12.1854 2543.00
12.2506 2708.00
12.3158 2749.00
12.381 2697.00
12.4462 2462.00
12.5114 2339.00
12.5766 2204.00
12.6418 2266.00
12.707 2271.00
12.7722 2160.00
12.8374 2228.00
12.9026 2178.00
12.9678 2189.00
13.033 2187.00
13.0982 2183.00
13.1634 2135.00
13.2286 2165.00
13.2938 2113.00
13.359 2187.00
13.4242 2187.00
13.4894 2153.00
13.5546 2196.00
13.6198 2190.00
13.685 2355.00
13.7502 2391.00
13.8154 2498.00
13.8805 2652.00
13.9457 3104.00
14.0109 3412.00
14.0761 2972.00
14.1413 2364.00
14.2065 2153.00
14.2717 2108.00
14.3369 2094.00
14.4021 2108.00
14.4673 2133.00
14.5325 2156.00
14.5977 2183.00
14.6629 2209.00
14.7281 2323.00
14.7933 2724.00
14.8585 2798.00
14.9237 2878.00
14.9889 2849.00
15.0541 2726.00
15.1193 2514.00
15.1845 2165.00
15.2497 2126.00
15.3149 2031.00
15.3801 2133.00
15.4453 2088.00
15.5105 1995.00
15.5757 1964.00
15.6409 2059.00
15.7061 1987.00
15.7713 1983.00
15.8365 2008.00
15.9017 2016.00
15.9669 1937.00
16.0321 2038.00
16.0973 2028.00
16.1625 1881.00
16.2277 1966.00
16.2929 2063.00
16.3581 1920.00
16.4233 1916.00
16.4885 1917.00
16.5537 2048.00
16.6189 1954.00
16.6841 1954.00
16.7493 1935.00
16.8145 2029.00
16.8797 2074.00
16.9449 2229.00
17.0101 2407.00
17.0753 2718.00
17.1405 2831.00
17.2057 2561.00
17.2709 2119.00
17.3361 1894.00
17.4013 1982.00
17.4665 1877.00
17.5317 2032.00
17.5969 2103.00
17.6621 2148.00
17.7273 2309.00
17.7925 2515.00
17.8577 2491.00
17.9229 2296.00
17.9881 1957.00
18.0533 1834.00
18.1185 1935.00
18.1837 1861.00
18.2489 1864.00
18.3141 1805.00
18.3793 1792.00
18.4445 1845.00
18.5097 1821.00
18.5749 1869.00
18.6401 1822.00
18.7052 1824.00
18.7704 1852.00
18.8356 1784.00
18.9008 1801.00
18.966 1884.00
19.0312 1833.00
19.0964 2006.00
19.1616 2043.00
19.2268 2066.00
19.292 2243.00
19.3572 2543.00
19.4224 3096.00
19.4876 4470.00
19.5528 6981.00
19.618 10976.00
19.6832 14844.00
19.7484 14389.00
19.8136 10746.00
19.8788 6417.00
19.944 3550.00
20.0092 2748.00
20.0744 2364.00
20.1396 2161.00
20.2048 2105.00
20.27 2017.00
20.3352 1936.00
20.4004 1921.00
20.4656 2004.00
20.5308 1896.00
20.596 1784.00
20.6612 1795.00
20.7264 1838.00
20.7916 1865.00
20.8568 1940.00
20.922 1919.00
20.9872 2098.00
21.0524 2155.00
21.1176 2006.00
21.1828 2095.00
21.248 2126.00
21.3132 2337.00
21.3784 2378.00
21.4436 2414.00
21.5088 2366.00
21.574 2526.00
21.6392 2668.00
21.7044 2412.00
21.7696 2123.00
21.8348 1989.00
21.9 1952.00
21.9652 1716.00
22.0304 1721.00
22.0956 1794.00
22.1608 1803.00
22.226 1952.00
22.2912 1936.00
22.3564 1973.00
22.4216 2096.00
22.4868 2334.00
22.552 2727.00
22.6172 2719.00
22.6824 2773.00
22.7476 2393.00
22.8128 2378.00
22.878 2534.00
22.9432 2670.00
23.0084 3008.00
23.0736 3090.00
23.1388 2929.00
23.204 2269.00
23.2692 1843.00
23.3344 1756.00
23.3996 1626.00
23.4647 1649.00
23.5299 1628.00
23.5951 1569.00
23.6603 1622.00
23.7255 1531.00
23.7907 1550.00
23.8559 1608.00
23.9211 1692.00
23.9863 1687.00
24.0515 1735.00
24.1167 1881.00
24.1819 1893.00
24.2471 2149.00
24.3123 2497.00
24.3775 3065.00
24.4427 3298.00
24.5079 3388.00
24.5731 2914.00
24.6383 2435.00
24.7035 2395.00
24.7687 2449.00
24.8339 2754.00
24.8991 2802.00
24.9643 2779.00
25.0295 2318.00
25.0947 1933.00
25.1599 1849.00
25.2251 1999.00
25.2903 2293.00
25.3555 2340.00
25.4207 1798.00
25.4859 1624.00
25.5511 1503.00
25.6163 1590.00
25.6815 1588.00
25.7467 1642.00
25.8119 1664.00
25.8771 1611.00
25.9423 1722.00
26.0075 1657.00
26.0727 1676.00
26.1379 1636.00
26.2031 1534.00
26.2683 1608.00
26.3335 1512.00
26.3987 1495.00
26.4639 1499.00
26.5291 1507.00
26.5943 1589.00
26.6595 1529.00
26.7247 1483.00
26.7899 1496.00
26.8551 1645.00
26.9203 1982.00
26.9855 2129.00
27.0507 2425.00
27.1159 2355.00
27.1811 2150.00
27.2463 1877.00
27.3115 1674.00
27.3767 1654.00
27.4419 1699.00
27.5071 1767.00
27.5723 1902.00
27.6375 2151.00
27.7027 2528.00
27.7679 3145.00
27.8331 4482.00
27.8983 5873.00
27.9635 4955.00
28.0287 3352.00
28.0939 2506.00
28.1591 2279.00
28.2243 2629.00
28.2894 3106.00
28.3546 4141.00
28.4198 6087.00
28.485 8479.00
28.5502 10543.00
28.6154 11687.00
28.6806 11521.00
28.7458 8966.00
28.811 5776.00
28.8762 3828.00
28.9414 2856.00
29.0066 2355.00
29.0718 2023.00
29.137 1909.00
29.2022 1720.00
29.2674 1728.00
29.3326 1732.00
29.3978 1751.00
29.463 1814.00
29.5282 2182.00
29.5934 3298.00
29.6586 4491.00
29.7238 3850.00
29.789 2618.00
29.8542 1912.00
29.9194 1712.00
29.9846 1709.00
30.0498 1669.00
30.115 1691.00
30.1802 1842.00
30.2454 2167.00
30.3106 2552.00
30.3758 2567.00
30.441 2160.00
30.5062 1817.00
30.5714 1721.00
30.6366 1689.00
30.7018 1821.00
30.767 1990.00
30.8322 2128.00
30.8974 2409.00
30.9626 2770.00
31.0278 3155.00
31.093 4029.00
31.1582 5452.00
31.2234 7314.00
31.2886 9118.00
31.3538 8903.00
31.419 6196.00
31.4842 4130.00
31.5494 3394.00
31.6146 3626.00
31.6798 4587.00
31.745 6009.00
31.8102 7237.00
31.8754 8433.00
31.9406 8954.00
32.0058 7950.00
32.071 5896.00
32.1362 3957.00
32.2014 2865.00
32.2666 2319.00
32.3318 2044.00
32.397 1897.00
32.4622 1776.00
32.5274 1706.00
32.5926 1596.00
32.6578 1636.00
32.723 1692.00
32.7882 1671.00
32.8534 1663.00
32.9186 1717.00
32.9838 1795.00
33.0489 1774.00
33.1141 1788.00
33.1793 1864.00
33.2445 2026.00
33.3097 2138.00
33.3749 2330.00
33.4401 2269.00
33.5053 2132.00
33.5705 2002.00
33.6357 1850.00
33.7009 1909.00
33.7661 2097.00
33.8313 2074.00
33.8965 2209.00
33.9617 2724.00
34.0269 3780.00
34.0921 6326.00
34.1573 9175.00
34.2225 9930.00
34.2877 8488.00
34.3529 6852.00
34.4181 5972.00
34.4833 5691.00
34.5485 5611.00
34.6137 5430.00
34.6789 4428.00
34.7441 3882.00
34.8093 3342.00
34.8745 3408.00
34.9397 3689.00
35.0049 3753.00
35.0701 3783.00
35.1353 4064.00
35.2005 3532.00
35.2657 2838.00
35.3309 2036.00
35.3961 1860.00
35.4613 1923.00
35.5265 2125.00
35.5917 2516.00
35.6569 2678.00
35.7221 3142.00
35.7873 3616.00
35.8525 3482.00
35.9177 2888.00
35.9829 2404.00
36.0481 1929.00
36.1133 1817.00
36.1785 1838.00
36.2437 1871.00
36.3089 1936.00
36.3741 1958.00
36.4393 1837.00
36.5045 1675.00
36.5697 1478.00
36.6349 1474.00
36.7001 1346.00
36.7653 1367.00
36.8305 1344.00
36.8957 1427.00
36.9609 1345.00
37.0261 1432.00
37.0913 1386.00
37.1565 1411.00
37.2217 1374.00
37.2869 1379.00
37.3521 1531.00
37.4173 1730.00
37.4825 2094.00
37.5477 2622.00
37.6129 2144.00
37.6781 1746.00
37.7433 1352.00
37.8085 1243.00
37.8736 1248.00
37.9388 1275.00
38.004 1206.00
38.0692 1245.00
38.1344 1251.00
38.1996 1200.00
38.2648 1178.00
38.33 1204.00
38.3952 1259.00
38.4604 1243.00
38.5256 1357.00
38.5908 1280.00
38.656 1308.00
38.7212 1425.00
38.7864 1398.00
38.8516 1503.00
38.9168 1619.00
38.982 1741.00
39.0472 2013.00
39.1124 2030.00
39.1776 2003.00
39.2428 1884.00
39.308 1661.00
39.3732 1493.00
39.4384 1412.00
39.5036 1511.00
39.5688 1892.00
39.634 1852.00
39.6992 1872.00
39.7644 1829.00
39.8296 1894.00
39.8948 1820.00
39.96 1713.00
40.0252 1568.00
40.0904 1442.00
40.1556 1276.00
40.2208 1273.00
40.286 1305.00
40.3512 1288.00
40.4164 1258.00
40.4816 1358.00
40.5468 1371.00
40.612 1348.00
40.6772 1290.00
40.7424 1300.00
40.8076 1358.00
40.8728 1537.00
40.938 1676.00
41.0032 1898.00
41.0684 2057.00
41.1336 2277.00
41.1988 2438.00
41.264 2673.00
41.3292 2854.00
41.3944 2821.00
41.4596 2830.00
41.5248 2547.00
41.59 2513.00
41.6552 2241.00
41.7204 2107.00
41.7856 1915.00
41.8508 1817.00
41.916 1731.00
41.9812 1798.00
42.0464 1866.00
42.1116 1943.00
42.1768 1967.00
42.242 1938.00
42.3072 1892.00
42.3724 1695.00
42.4376 1625.00
42.5028 1536.00
42.568 1399.00
42.6332 1465.00
42.6983 1293.00
42.7635 1308.00
42.8287 1239.00
42.8939 1251.00
42.9591 1279.00
43.0243 1294.00
43.0895 1360.00
43.1547 1264.00
43.2199 1265.00
43.2851 1276.00
43.3503 1282.00
43.4155 1278.00
43.4807 1279.00
43.5459 1268.00
43.6111 1284.00
43.6763 1201.00
43.7415 1286.00
43.8067 1198.00
43.8719 1236.00
43.9371 1255.00
44.0023 1297.00
44.0675 1239.00
44.1327 1277.00
44.1979 1238.00
44.2631 1323.00
44.3283 1571.00
44.3935 1927.00
44.4587 2564.00
44.5239 3043.00
44.5891 3198.00
44.6543 3205.00
44.7195 2806.00
44.7847 2413.00
44.8499 2017.00
44.9151 1729.00
44.9803 1635.00
45.0455 1663.00
45.1107 1655.00
45.1759 1722.00
45.2411 1687.00
45.3063 1642.00
45.3715 1707.00
45.4367 1624.00
45.5019 1540.00
45.5671 1580.00
45.6323 1588.00
45.6975 1624.00
45.7627 1771.00
45.8279 1957.00
45.8931 1891.00
45.9583 1985.00
46.0235 1903.00
46.0887 1833.00
46.1539 1748.00
46.2191 1670.00
46.2843 1652.00
46.3495 1525.00
46.4147 1480.00
46.4799 1449.00
46.5451 1550.00
46.6103 1789.00
46.6755 2155.00
46.7407 2763.00
46.8059 3718.00
46.8711 4199.00
46.9363 3786.00
47.0015 3299.00
47.0667 2741.00
47.1319 2311.00
47.1971 1962.00
47.2623 1747.00
47.3275 1539.00
47.3927 1462.00
47.4579 1328.00
47.523 1271.00
47.5882 1190.00
47.6534 1165.00
47.7186 1205.00
47.7838 1235.00
47.849 1165.00
47.9142 1197.00
47.9794 1149.00
48.0446 1205.00
48.1098 1221.00
48.175 1255.00
48.2402 1435.00
48.3054 1661.00
48.3706 1958.00
48.4358 1971.00
48.501 1739.00
48.5662 1639.00
48.6314 1378.00
48.6966 1296.00
48.7618 1322.00
48.827 1372.00
48.8922 1502.00
48.9574 1495.00
49.0226 1624.00
49.0878 1660.00
49.153 1721.00
49.2182 1609.00
49.2834 1635.00
49.3486 1700.00
49.4138 1791.00
49.479 2058.00
49.5442 2321.00
49.6094 2489.00
49.6746 2722.00
49.7398 2913.00
49.805 3211.00
49.8702 3088.00
49.9354 2737.00
50.0006 2372.00
50.0658 1924.00
50.131 1745.00
50.1962 1576.00
50.2614 1593.00
50.3266 1835.00
50.3918 2058.00
50.457 2348.00
50.5222 2500.00
50.5874 2664.00
50.6526 3146.00
50.7178 3662.00
50.783 3746.00
50.8482 3584.00
50.9134 3181.00
50.9786 2698.00
51.0438 2658.00
51.109 2775.00
51.1742 2918.00
51.2394 2972.00
51.3046 3104.00
51.3698 2931.00
51.435 2744.00
51.5002 2451.00
51.5654 2214.00
51.6306 2056.00
51.6958 1892.00
51.761 1780.00
51.8262 1753.00
51.8914 1685.00
51.9566 1621.00
52.0218 1563.00
52.087 1472.00
52.1522 1522.00
52.2174 1525.00
52.2826 1850.00
52.3477 2155.00
52.4129 1912.00
52.4781 1875.00
52.5433 1627.00
52.6085 1433.00
52.6737 1352.00
52.7389 1396.00
52.8041 1389.00
52.8693 1475.00
52.9345 1649.00
52.9997 2250.00
53.0649 2944.00
53.1301 3316.00
53.1953 3259.00
53.2605 3091.00
53.3257 2797.00
53.3909 2278.00
53.4561 1892.00
53.5213 1625.00
53.5865 1470.00
53.6517 1405.00
53.7169 1357.00
53.7821 1368.00
53.8473 1311.00
53.9125 1368.00
53.9777 1317.00
54.0429 1357.00
54.1081 1479.00
54.1733 1548.00
54.2385 1629.00
54.3037 1692.00
54.3689 1676.00
54.4341 1755.00
54.4993 1854.00
54.5645 2061.00
54.6297 2071.00
54.6949 2111.00
54.7601 1938.00
54.8253 1826.00
54.8905 1803.00
54.9557 1469.00
55.0209 1401.00
55.0861 1376.00
55.1513 1319.00
55.2165 1399.00
55.2817 1345.00
55.3469 1442.00
55.4121 1525.00
55.4773 1562.00
55.5425 1672.00
55.6077 1872.00
55.6729 1932.00
55.7381 2094.00
55.8033 2380.00
55.8685 2436.00
55.9337 2530.00
55.9989 2549.00
56.0641 2527.00
56.1293 2340.00
56.1945 2139.00
56.2597 1914.00
56.3249 1790.00
56.3901 1759.00
56.4553 1746.00
56.5205 1784.00
56.5857 1832.00
56.6509 1897.00
56.7161 1853.00
56.7813 1776.00
56.8465 1544.00
56.9117 1442.00
56.9769 1437.00
57.042 1516.00
57.1073 1441.00
57.1724 1510.00
57.2376 1517.00
57.3028 1581.00
57.368 1605.00
57.4332 1605.00
57.4984 1734.00
57.5636 1790.00
57.6288 1662.00
57.694 1766.00
57.7592 1885.00
57.8244 1898.00
57.8896 1862.00
57.9548 1769.00
58.02 1728.00
58.0852 1736.00
58.1504 1598.00
58.2156 1522.00
58.2808 1537.00
58.346 1572.00
58.4112 1619.00
58.4764 1749.00
58.5416 1884.00
58.6068 1952.00
58.672 1972.00
58.7372 1982.00
58.8024 2031.00
58.8676 2206.00
58.9328 2416.00
58.998 2936.00
59.0632 3276.00
59.1284 3253.00
59.1936 3392.00
59.2588 3096.00
59.324 2712.00
59.3892 2287.00
59.4544 2133.00
59.5196 1927.00
59.5848 1666.00
59.65 1571.00
59.7152 1482.00
59.7804 1417.00
59.8456 1401.00
59.9108 1382.00
59.976 1425.00
60.0412 1558.00
60.1064 1589.00
60.1716 1776.00
60.2368 1790.00
60.302 1885.00
60.3672 2010.00
60.4324 2199.00
60.4976 2270.00
60.5628 2374.00
60.628 2307.00
60.6932 2308.00
60.7584 2443.00
60.8236 2577.00
60.8888 2557.00
60.954 2504.00
61.0192 2424.00
61.0844 2203.00
61.1496 2111.00
61.2148 1898.00
61.28 1760.00
61.3452 1743.00
61.4104 1624.00
61.4756 1576.00
61.5408 1574.00
61.606 1493.00
61.6712 1490.00
61.7364 1583.00
61.8016 1632.00
61.8667 1698.00
61.932 1735.00
61.9971 1642.00
62.0623 1692.00
62.1275 1708.00
62.1927 1741.00
62.2579 1706.00
62.3231 1709.00
62.3883 1771.00
62.4535 1839.00
62.5187 1831.00
62.5839 1819.00
62.6491 1935.00
62.7143 1762.00
62.7795 1867.00
62.8447 1793.00
62.9099 1854.00
62.9751 1876.00
63.0403 1887.00
63.1055 2002.00
63.1707 1862.00
63.2359 1889.00
63.3011 1874.00
63.3663 1903.00
63.4315 1981.00
63.4967 1972.00
63.5619 1875.00
63.6271 1745.00
63.6923 1627.00
63.7575 1453.00
63.8227 1308.00
63.8879 1290.00
63.9531 1220.00
64.0183 1251.00
64.0835 1214.00
64.1487 1207.00
64.2139 1233.00
64.2791 1262.00
64.3443 1400.00
64.4095 1542.00
64.4747 1789.00
64.5399 1719.00
64.6051 1758.00
64.6703 1743.00
64.7355 1599.00
64.8007 1559.00
64.8659 1545.00
64.9311 1433.00
64.9963 1354.00
65.0615 1315.00
65.1267 1335.00
65.1919 1291.00
65.2571 1174.00
65.3223 1198.00
65.3875 1212.00
65.4527 1262.00
65.5179 1232.00
65.5831 1318.00
65.6483 1399.00
65.7135 1584.00
65.7787 1658.00
65.8439 1891.00
65.9091 2154.00
65.9743 2386.00
66.0395 2425.00
66.1047 2225.00
66.1699 2232.00
66.2351 2231.00
66.3003 2148.00
66.3655 2241.00
66.4307 2209.00
66.4959 2145.00
66.561 2197.00
66.6263 2034.00
66.6915 1981.00
66.7566 1901.00
66.8218 1794.00
66.887 1620.00
66.9522 1455.00
67.0174 1400.00
67.0826 1362.00
67.1478 1289.00
67.213 1189.00
67.2782 1089.00
67.3434 1191.00
67.4086 1104.00
67.4738 1040.00
67.539 1106.00
67.6042 1051.00
67.6694 1078.00
67.7346 1028.00
67.7998 1146.00
67.865 1199.00
67.9302 1250.00
67.9954 1337.00
68.0606 1434.00
68.1258 1388.00
68.191 1442.00
68.2562 1352.00
68.3214 1305.00
68.3866 1240.00
68.4518 1275.00
68.517 1199.00
68.5822 1176.00
68.6474 1128.00
68.7126 1127.00
68.7778 1070.00
68.843 1107.00
68.9082 1058.00
68.9734 1073.00
69.0386 1048.00
69.1038 1162.00
69.169 1141.00
69.2342 1119.00
69.2994 1217.00
69.3646 1170.00
69.4298 1215.00
69.495 1287.00
69.5602 1213.00
69.6254 1289.00
69.6906 1256.00
69.7558 1202.00
69.821 1189.00
69.8862 1138.00
69.9514 1167.00
70.0166 1127.00
70.0818 1129.00
70.147 1073.00
70.2122 1085.00
70.2774 1103.00
70.3426 1102.00
70.4078 1093.00
70.473 1074.00
70.5382 1068.00
70.6034 1139.00
70.6686 993.00
70.7338 1121.00
70.799 1032.00
70.8642 1126.00
70.9294 1113.00
70.9946 1162.00
71.0598 1145.00
71.125 1117.00
71.1902 1198.00
71.2554 1284.00
71.3205 1426.00
71.3858 1604.00
71.451 1636.00
71.5162 1752.00
71.5813 1824.00
71.6465 1814.00
71.7117 1852.00
71.7769 1912.00
71.8421 1834.00
71.9073 1764.00
71.9725 1712.00
72.0377 1568.00
72.1029 1501.00
72.1681 1404.00
72.2333 1436.00
72.2985 1340.00
72.3637 1340.00
72.4289 1276.00
72.4941 1298.00
72.5593 1324.00
72.6245 1231.00
72.6897 1208.00
72.7549 1208.00
72.8201 1226.00
72.8853 1246.00
72.9505 1222.00
73.0157 1216.00
73.0809 1279.00
73.1461 1275.00
73.2113 1284.00
73.2765 1212.00
73.3417 1404.00
73.4069 1314.00
73.4721 1326.00
73.5373 1292.00
73.6025 1295.00
73.6677 1340.00
73.7329 1357.00
73.7981 1348.00
73.8633 1337.00
73.9285 1272.00
73.9937 1225.00
74.0589 1135.00
74.1241 1162.00
74.1893 1163.00
74.2545 1180.00
74.3197 1101.00
74.3849 1109.00
74.4501 1107.00
74.5153 1049.00
74.5805 1067.00
74.6457 1191.00
74.7109 1174.00
74.7761 1277.00
74.8413 1294.00
74.9065 1347.00
74.9717 1427.00
75.0369 1411.00
75.1021 1365.00
75.1673 1350.00
75.2325 1333.00
75.2977 1365.00
75.3629 1356.00
75.4281 1343.00
75.4933 1410.00
75.5585 1338.00
75.6237 1264.00
75.6889 1236.00
75.7541 1265.00
75.8193 1335.00
75.8845 1333.00
75.9497 1287.00
76.0149 1298.00
76.0801 1336.00
76.1452 1334.00
76.2104 1271.00
76.2756 1311.00
76.3409 1249.00
76.406 1242.00
76.4712 1219.00
76.5364 1184.00
76.6016 1291.00
76.6668 1307.00
76.732 1266.00
76.7972 1365.00
76.8624 1352.00
76.9276 1292.00
76.9928 1324.00
77.058 1338.00
77.1232 1315.00
77.1884 1371.00
77.2536 1300.00
77.3188 1231.00
77.384 1217.00
77.4492 1175.00
77.5144 1213.00
77.5796 1202.00
77.6448 1143.00
77.71 1156.00
77.7752 1127.00
77.8404 1182.00
77.9056 1100.00
77.9708 1153.00
78.036 1189.00
78.1012 1201.00
78.1664 1203.00
78.2316 1171.00
78.2968 1210.00
78.362 1203.00
78.4272 1146.00
78.4924 1136.00
78.5576 1158.00
78.6228 1063.00
78.688 1173.00
78.7532 1057.00
78.8184 1127.00
78.8836 1128.00
78.9488 1101.00
79.014 1144.00
79.0792 1118.00
79.1444 1141.00
79.2096 1120.00
79.2748 1110.00
79.34 1134.00
79.4052 1197.00
79.4704 1235.00
79.5356 1264.00
79.6008 1285.00
79.666 1294.00
79.7312 1434.00
79.7964 1441.00
79.8616 1657.00
79.9268 1649.00
79.992 1648.00
80.0572 1637.00
80.1224 1584.00
80.1876 1543.00
80.2528 1500.00
80.318 1499.00
80.3832 1444.00
80.4484 1243.00
80.5136 1255.00
80.5788 1223.00
80.644 1200.00
80.7092 1149.00
80.7744 1063.00
80.8396 1063.00
80.9048 1014.00
80.9699 1027.00
81.0351 1044.00
81.1003 1090.00
81.1655 1073.00
81.2307 1091.00
81.2959 1157.00
81.3611 1178.00
81.4263 1248.00
81.4915 1219.00
81.5567 1279.00
81.6219 1296.00
81.6871 1299.00
81.7523 1347.00
81.8175 1319.00
81.8827 1358.00
81.9479 1274.00
82.0131 1315.00
82.0783 1360.00
82.1435 1290.00
82.2087 1304.00
82.2739 1282.00
82.3391 1297.00
82.4043 1342.00
82.4695 1218.00
82.5347 1220.00
82.5999 1242.00
82.6651 1204.00
82.7303 1143.00
82.7955 1194.00
82.8607 1245.00
82.9259 1211.00
82.9911 1179.00
83.0563 1152.00
83.1215 1216.00
83.1867 1208.00
83.2519 1267.00
83.3171 1267.00
83.3823 1345.00
83.4475 1326.00
83.5127 1221.00
83.5779 1211.00
83.6431 1247.00
83.7083 1301.00
83.7735 1313.00
83.8387 1248.00
83.9039 1335.00
83.9691 1301.00
84.0343 1311.00
84.0995 1166.00
84.1647 1284.00
84.2299 1217.00
84.2951 1264.00
84.3603 1266.00
84.4255 1286.00
84.4907 1273.00
84.5559 1246.00
84.6211 1313.00
84.6863 1308.00
84.7515 1326.00
84.8167 1340.00
84.8819 1316.00
84.9471 1257.00
85.0123 1342.00
85.0775 1289.00
85.1427 1215.00
85.2079 1260.00
85.2731 1170.00
85.3383 1160.00
85.4035 1115.00
85.4687 1110.00
85.5339 1118.00
85.5991 1133.00
85.6643 1112.00
85.7295 1152.00
85.7946 1114.00
85.8598 1164.00
85.925 1119.00
85.9903 1142.00
86.0554 1054.00
86.1206 1120.00
86.1858 1130.00
86.251 1110.00
86.3162 1182.00
86.3814 1172.00
86.4466 1248.00
86.5118 1286.00
86.577 1341.00
86.6422 1488.00
86.7074 1300.00
86.7726 1408.00
86.8378 1403.00
86.903 1279.00
86.9682 1304.00
87.0334 1267.00
87.0986 1301.00
87.1638 1377.00
87.229 1313.00
87.2942 1373.00
87.3594 1380.00
87.4246 1384.00
87.4898 1318.00
87.555 1249.00
87.6202 1251.00
87.6854 1258.00
87.7506 1235.00
87.8158 1215.00
87.881 1255.00
87.9462 1246.00
88.0114 1293.00
88.0766 1229.00
88.1418 1241.00
88.207 1321.00
88.2722 1333.00
88.3374 1377.00
88.4026 1425.00
88.4678 1362.00
88.533 1439.00
88.5982 1435.00
88.6634 1404.00
88.7286 1473.00
88.7938 1401.00
88.859 1372.00
88.9242 1418.00
88.9894 1325.00
89.0546 1304.00
89.1198 1359.00
89.185 1312.00
89.2502 1337.00
89.3154 1354.00
89.3806 1345.00
89.4458 1306.00
89.511 1396.00
89.5762 1383.00
89.6414 1326.00
89.7066 1300.00
89.7718 1336.00
89.837 1325.00
89.9022 1371.00
89.9674 1406.00
90.0326 1376.00
90.0978 1431.00
90.163 1379.00
90.2282 1322.00
90.2934 1323.00
90.3586 1265.00
90.4238 1233.00
90.489 1242.00
90.5542 1239.00
90.6193 1236.00
90.6845 1201.00
90.7497 1164.00
90.8149 1188.00
90.8801 1250.00
90.9453 1222.00
91.0105 1247.00
91.0757 1287.00
91.1409 1254.00
91.2061 1231.00
91.2713 1241.00
91.3365 1231.00
91.4017 1328.00
91.4669 1259.00
91.5321 1265.00
91.5973 1226.00
91.6625 1177.00
91.7277 1169.00
91.7929 1175.00
91.8581 1128.00
91.9233 1087.00
91.9885 1096.00
92.0537 1134.00
92.1189 1088.00
92.1841 1059.00
92.2493 1107.00
92.3145 1080.00
92.3797 1048.00
92.4449 1016.00
92.5101 1078.00
92.5753 1079.00
92.6405 1042.00
92.7057 1021.00
92.7709 1091.00
92.8361 1010.00
92.9013 1098.00
92.9665 1110.00
93.0317 1173.00
93.0969 1156.00
93.1621 1193.00
93.2273 1114.00
93.2925 1242.00
93.3577 1182.00
93.4229 1204.00
93.4881 1202.00
93.5533 1143.00
93.6185 1067.00
93.6837 1152.00
93.7489 1185.00
93.8141 1129.00
93.8793 1108.00
93.9445 1103.00
94.0097 1097.00
94.0749 1095.00
94.1401 1045.00
94.2053 1101.00
94.2705 1146.00
94.3357 1180.00
94.4009 1192.00
94.4661 1299.00
94.5313 1277.00
94.5965 1256.00
94.6617 1255.00
94.7269 1244.00
94.7921 1298.00
94.8573 1161.00
94.9225 1230.00
94.9877 1249.00
95.0529 1219.00
95.1181 1174.00
95.1833 1149.00
95.2485 1199.00
95.3137 1250.00
95.3789 1176.00
95.444 1149.00
95.5092 1201.00
95.5744 1206.00
95.6396 1131.00
95.7048 1183.00
95.77 1188.00
95.8352 1232.00
95.9004 1298.00
95.9656 1239.00
96.0308 1253.00
96.096 1274.00
96.1612 1254.00
96.2264 1273.00
96.2916 1222.00
96.3568 1207.00
96.422 1223.00
96.4872 1274.00
96.5524 1157.00
96.6176 1147.00
96.6828 1199.00
96.748 1218.00
96.8132 1238.00
96.8784 1211.00
96.9436 1256.00
97.0088 1271.00
97.074 1274.00
97.1392 1313.00
97.2044 1341.00
97.2696 1324.00
97.3348 1268.00
97.4 1309.00
97.4652 1288.00
97.5304 1317.00
97.5956 1366.00
97.6608 1301.00
97.726 1346.00
97.7912 1317.00
97.8564 1366.00
97.9216 1295.00
97.9868 1276.00
98.052 1263.00
98.1172 1286.00
98.1824 1207.00
98.2476 1215.00
98.3128 1147.00
98.378 1179.00
98.4432 1139.00
98.5084 1128.00
98.5736 1128.00
98.6388 1201.00
98.704 1156.00
98.7692 1173.00
98.8344 1219.00
98.8996 1163.00
98.9648 1223.00
99.03 1240.00
99.0952 1312.00
99.1604 1360.00
99.2256 1404.00
99.2908 1423.00
99.356 1464.00
99.4212 1577.00
99.4864 1598.00
99.5516 1551.00
99.6168 1665.00
99.682 1577.00
99.7472 1619.00
99.8124 1573.00
99.8776 1645.00
99.9428 1556.00
100.008 1422.00
100.073 1482.00
100.095 1555.00