File: data/xrd_creation/results/NSC_211.xy
9.903433 3029.00
9.968632 2979.00
10.0338 2997.00
10.099 2897.00
10.1642 2831.00
10.2294 2848.00
10.2946 2896.00
10.3598 2798.00
10.425 2897.00
10.4902 2860.00
10.5554 2749.00
10.6206 2775.00
10.6858 2721.00
10.751 2750.00
10.8162 2717.00
10.8814 2685.00
10.9466 2685.00
11.0118 2676.00
11.077 2701.00
11.1422 2602.00
11.2074 2632.00
11.2726 2629.00
11.3378 2636.00
11.403 2630.00
11.4682 2572.00
11.5334 2603.00
11.5986 2529.00
11.6638 2535.00
11.729 2562.00
11.7942 2576.00
11.8594 2466.00
11.9246 2501.00
11.9898 2444.00
12.055 2477.00
12.1202 2391.00
12.1854 2535.00
12.2506 2462.00
12.3158 2467.00
12.381 2388.00
12.4462 2405.00
12.5114 2418.00
12.5766 2402.00
12.6418 2384.00
12.707 2417.00
12.7722 2425.00
12.8374 2273.00
12.9026 2384.00
12.9678 2397.00
13.033 2335.00
13.0982 2300.00
13.1634 2255.00
13.2286 2284.00
13.2938 2150.00
13.359 2161.00
13.4242 2256.00
13.4894 2303.00
13.5546 2252.00
13.6198 2270.00
13.685 2236.00
13.7502 2202.00
13.8154 2235.00
13.8805 2224.00
13.9457 2271.00
14.0109 2165.00
14.0761 2281.00
14.1413 2250.00
14.2065 2149.00
14.2717 2192.00
14.3369 2220.00
14.4021 2171.00
14.4673 2193.00
14.5325 2123.00
14.5977 2191.00
14.6629 2208.00
14.7281 2138.00
14.7933 2143.00
14.8585 2180.00
14.9237 2070.00
14.9889 2185.00
15.0541 2108.00
15.1193 2035.00
15.1845 2063.00
15.2497 2068.00
15.3149 2170.00
15.3801 2152.00
15.4453 2081.00
15.5105 2121.00
15.5757 2115.00
15.6409 2135.00
15.7061 2087.00
15.7713 2020.00
15.8365 2106.00
15.9017 2063.00
15.9669 1961.00
16.0321 2122.00
16.0973 2031.00
16.1625 2027.00
16.2277 1936.00
16.2929 2171.00
16.3581 1956.00
16.4233 2091.00
16.4885 2016.00
16.5537 2014.00
16.6189 1992.00
16.6841 2114.00
16.7493 2051.00
16.8145 1981.00
16.8797 2043.00
16.9449 1953.00
17.0101 1958.00
17.0753 1992.00
17.1405 1966.00
17.2057 1976.00
17.2709 1997.00
17.3361 1926.00
17.4013 2053.00
17.4665 1999.00
17.5317 2130.00
17.5969 2188.00
17.6621 2391.00
17.7273 2557.00
17.7925 2795.00
17.8577 2814.00
17.9229 2458.00
17.9881 2127.00
18.0533 2023.00
18.1185 2026.00
18.1837 1960.00
18.2489 1919.00
18.3141 1842.00
18.3793 1844.00
18.4445 1881.00
18.5097 1845.00
18.5749 1879.00
18.6401 1890.00
18.7052 1914.00
18.7704 1884.00
18.8356 1908.00
18.9008 1945.00
18.966 1836.00
19.0312 1952.00
19.0964 1881.00
19.1616 1917.00
19.2268 2075.00
19.292 2087.00
19.3572 2034.00
19.4224 1876.00
19.4876 1844.00
19.5528 1862.00
19.618 1815.00
19.6832 1807.00
19.7484 1889.00
19.8136 1923.00
19.8788 1986.00
19.944 1955.00
20.0092 2011.00
20.0744 2113.00
20.1396 2221.00
20.2048 2613.00
20.27 3069.00
20.3352 3897.00
20.4004 4221.00
20.4656 3589.00
20.5308 2682.00
20.596 2213.00
20.6612 2077.00
20.7264 2084.00
20.7916 2036.00
20.8568 1952.00
20.922 1984.00
20.9872 2109.00
21.0524 2027.00
21.1176 2082.00
21.1828 2017.00
21.248 2003.00
21.3132 1891.00
21.3784 1813.00
21.4436 1825.00
21.5088 1896.00
21.574 1866.00
21.6392 2013.00
21.7044 2194.00
21.7696 2303.00
21.8348 2349.00
21.9 2137.00
21.9652 1951.00
22.0304 1789.00
22.0956 1783.00
22.1608 1822.00
22.226 1864.00
22.2912 1795.00
22.3564 1754.00
22.4216 1789.00
22.4868 1817.00
22.552 1747.00
22.6172 1833.00
22.6824 1796.00
22.7476 1740.00
22.8128 1775.00
22.878 1706.00
22.9432 1774.00
23.0084 1689.00
23.0736 1727.00
23.1388 1785.00
23.204 1762.00
23.2692 1771.00
23.3344 1722.00
23.3996 1717.00
23.4647 1719.00
23.5299 1682.00
23.5951 1788.00
23.6603 1718.00
23.7255 1692.00
23.7907 1769.00
23.8559 1685.00
23.9211 1754.00
23.9863 1851.00
24.0515 1934.00
24.1167 1966.00
24.1819 2199.00
24.2471 2468.00
24.3123 2964.00
24.3775 3522.00
24.4427 3998.00
24.5079 4174.00
24.5731 3487.00
24.6383 2912.00
24.7035 2834.00
24.7687 3165.00
24.8339 3200.00
24.8991 3720.00
24.9643 3093.00
25.0295 2324.00
25.0947 1945.00
25.1599 1786.00
25.2251 1820.00
25.2903 1657.00
25.3555 1756.00
25.4207 1849.00
25.4859 2172.00
25.5511 2684.00
25.6163 3213.00
25.6815 2484.00
25.7467 1885.00
25.8119 1694.00
25.8771 1677.00
25.9423 1677.00
26.0075 1613.00
26.0727 1598.00
26.1379 1617.00
26.2031 1633.00
26.2683 1640.00
26.3335 1553.00
26.3987 1624.00
26.4639 1527.00
26.5291 1726.00
26.5943 1952.00
26.6595 2126.00
26.7247 2208.00
26.7899 2063.00
26.8551 1796.00
26.9203 1707.00
26.9855 1710.00
27.0507 1601.00
27.1159 1561.00
27.1811 1519.00
27.2463 1575.00
27.3115 1493.00
27.3767 1585.00
27.4419 1572.00
27.5071 1652.00
27.5723 1627.00
27.6375 1716.00
27.7027 1725.00
27.7679 1780.00
27.8331 1844.00
27.8983 1892.00
27.9635 1992.00
28.0287 2048.00
28.0939 2207.00
28.1591 2425.00
28.2243 2837.00
28.2894 3601.00
28.3546 5114.00
28.4198 7818.00
28.485 10950.00
28.5502 13500.00
28.6154 15599.00
28.6806 14106.00
28.7458 9556.00
28.811 5796.00
28.8762 3894.00
28.9414 2984.00
29.0066 2476.00
29.0718 2267.00
29.137 2009.00
29.2022 1881.00
29.2674 1832.00
29.3326 1730.00
29.3978 1728.00
29.463 1679.00
29.5282 1684.00
29.5934 1686.00
29.6586 1622.00
29.7238 1653.00
29.789 1570.00
29.8542 1631.00
29.9194 1491.00
29.9846 1614.00
30.0498 1555.00
30.115 1612.00
30.1802 1631.00
30.2454 1623.00
30.3106 1583.00
30.3758 1688.00
30.441 1745.00
30.5062 1806.00
30.5714 1799.00
30.6366 1999.00
30.7018 2399.00
30.767 3692.00
30.8322 5913.00
30.8974 7046.00
30.9626 4847.00
31.0278 2732.00
31.093 2100.00
31.1582 2083.00
31.2234 2060.00
31.2886 2094.00
31.3538 2172.00
31.419 2328.00
31.4842 2595.00
31.5494 3054.00
31.6146 3819.00
31.6798 5273.00
31.745 7153.00
31.8102 8619.00
31.8754 10273.00
31.9406 12000.00
32.0058 10547.00
32.071 7158.00
32.1362 4528.00
32.2014 3187.00
32.2666 2582.00
32.3318 2280.00
32.397 2054.00
32.4622 1894.00
32.5274 1754.00
32.5926 1706.00
32.6578 1713.00
32.723 1728.00
32.7882 1841.00
32.8534 1967.00
32.9186 2427.00
32.9838 2618.00
33.0489 2764.00
33.1141 2407.00
33.1793 2177.00
33.2445 2050.00
33.3097 2352.00
33.3749 2715.00
33.4401 3358.00
33.5053 3084.00
33.5705 2701.00
33.6357 2187.00
33.7009 1819.00
33.7661 1672.00
33.8313 1664.00
33.8965 1661.00
33.9617 1674.00
34.0269 1759.00
34.0921 1993.00
34.1573 2031.00
34.2225 2084.00
34.2877 2343.00
34.3529 2723.00
34.4181 3392.00
34.4833 4218.00
34.5485 4909.00
34.6137 5679.00
34.6789 5694.00
34.7441 4770.00
34.8093 4351.00
34.8745 4807.00
34.9397 4601.00
35.0049 3675.00
35.0701 2611.00
35.1353 2010.00
35.2005 1817.00
35.2657 1745.00
35.3309 1829.00
35.3961 1913.00
35.4613 2141.00
35.5265 2391.00
35.5917 2975.00
35.6569 3746.00
35.7221 5112.00
35.7873 5929.00
35.8525 5352.00
35.9177 3612.00
35.9829 2424.00
36.0481 1936.00
36.1133 1884.00
36.1785 1928.00
36.2437 1908.00
36.3089 1989.00
36.3741 2143.00
36.4393 2092.00
36.5045 1735.00
36.5697 1523.00
36.6349 1374.00
36.7001 1420.00
36.7653 1253.00
36.8305 1322.00
36.8957 1260.00
36.9609 1373.00
37.0261 1392.00
37.0913 1345.00
37.1565 1395.00
37.2217 1322.00
37.2869 1314.00
37.3521 1334.00
37.4173 1375.00
37.4825 1313.00
37.5477 1319.00
37.6129 1202.00
37.6781 1290.00
37.7433 1224.00
37.8085 1260.00
37.8736 1359.00
37.9388 1523.00
38.004 1654.00
38.0692 1563.00
38.1344 1466.00
38.1996 1406.00
38.2648 1314.00
38.33 1260.00
38.3952 1257.00
38.4604 1291.00
38.5256 1278.00
38.5908 1373.00
38.656 1510.00
38.7212 1708.00
38.7864 1952.00
38.8516 1925.00
38.9168 2011.00
38.982 2154.00
39.0472 2479.00
39.1124 2282.00
39.1776 2063.00
39.2428 1732.00
39.308 1506.00
39.3732 1358.00
39.4384 1267.00
39.5036 1268.00
39.5688 1195.00
39.634 1257.00
39.6992 1220.00
39.7644 1209.00
39.8296 1162.00
39.8948 1273.00
39.96 1244.00
40.0252 1233.00
40.0904 1224.00
40.1556 1278.00
40.2208 1337.00
40.286 1243.00
40.3512 1278.00
40.4164 1304.00
40.4816 1373.00
40.5468 1294.00
40.612 1345.00
40.6772 1281.00
40.7424 1308.00
40.8076 1303.00
40.8728 1488.00
40.938 1696.00
41.0032 1961.00
41.0684 2174.00
41.1336 2363.00
41.1988 2578.00
41.264 2920.00
41.3292 2767.00
41.3944 2442.00
41.4596 2050.00
41.5248 1919.00
41.59 1977.00
41.6552 2129.00
41.7204 1989.00
41.7856 1956.00
41.8508 1841.00
41.916 1789.00
41.9812 1708.00
42.0464 1606.00
42.1116 1569.00
42.1768 1373.00
42.242 1317.00
42.3072 1197.00
42.3724 1162.00
42.4376 1179.00
42.5028 1073.00
42.568 1174.00
42.6332 1087.00
42.6983 1164.00
42.7635 1097.00
42.8287 1171.00
42.8939 1078.00
42.9591 1114.00
43.0243 1247.00
43.0895 1247.00
43.1547 1469.00
43.2199 1467.00
43.2851 1393.00
43.3503 1297.00
43.4155 1188.00
43.4807 1073.00
43.5459 1062.00
43.6111 1106.00
43.6763 1142.00
43.7415 1115.00
43.8067 1216.00
43.8719 1224.00
43.9371 1315.00
44.0023 1272.00
44.0675 1189.00
44.1327 1152.00
44.1979 1090.00
44.2631 1202.00
44.3283 1097.00
44.3935 1090.00
44.4587 1131.00
44.5239 1103.00
44.5891 1128.00
44.6543 1095.00
44.7195 1087.00
44.7847 1158.00
44.8499 1223.00
44.9151 1226.00
44.9803 1270.00
45.0455 1416.00
45.1107 1546.00
45.1759 1638.00
45.2411 1569.00
45.3063 1724.00
45.3715 1676.00
45.4367 1575.00
45.5019 1528.00
45.5671 1411.00
45.6323 1352.00
45.6975 1383.00
45.7627 1551.00
45.8279 1691.00
45.8931 1804.00
45.9583 2120.00
46.0235 2127.00
46.0887 2072.00
46.1539 1688.00
46.2191 1418.00
46.2843 1340.00
46.3495 1205.00
46.4147 1074.00
46.4799 1122.00
46.5451 1018.00
46.6103 1006.00
46.6755 1034.00
46.7407 1071.00
46.8059 1101.00
46.8711 1047.00
46.9363 1050.00
47.0015 1021.00
47.0667 1030.00
47.1319 1128.00
47.1971 1010.00
47.2623 1128.00
47.3275 1189.00
47.3927 1144.00
47.4579 1281.00
47.523 1369.00
47.5882 1317.00
47.6534 1308.00
47.7186 1275.00
47.7838 1135.00
47.849 1138.00
47.9142 1111.00
47.9794 1114.00
48.0446 1090.00
48.1098 1080.00
48.175 1136.00
48.2402 1298.00
48.3054 1405.00
48.3706 1384.00
48.4358 1269.00
48.501 1167.00
48.5662 1120.00
48.6314 1056.00
48.6966 1051.00
48.7618 1051.00
48.827 1047.00
48.8922 1087.00
48.9574 1110.00
49.0226 1172.00
49.0878 1201.00
49.153 1312.00
49.2182 1292.00
49.2834 1415.00
49.3486 1591.00
49.4138 1723.00
49.479 2145.00
49.5442 2405.00
49.6094 2439.00
49.6746 2511.00
49.7398 2775.00
49.805 3325.00
49.8702 3419.00
49.9354 2746.00
50.0006 2213.00
50.0658 1789.00
50.131 1625.00
50.1962 1618.00
50.2614 1650.00
50.3266 2057.00
50.3918 2505.00
50.457 2341.00
50.5222 2461.00
50.5874 2888.00
50.6526 3615.00
50.7178 4334.00
50.783 4008.00
50.8482 3740.00
50.9134 2808.00
50.9786 2449.00
51.0438 2587.00
51.109 3043.00
51.1742 3230.00
51.2394 3510.00
51.3046 3536.00
51.3698 2834.00
51.435 2430.00
51.5002 1818.00
51.5654 1524.00
51.6306 1548.00
51.6958 1558.00
51.761 1664.00
51.8262 1685.00
51.8914 1542.00
51.9566 1491.00
52.0218 1309.00
52.087 1142.00
52.1522 1123.00
52.2174 1059.00
52.2826 1105.00
52.3477 1142.00
52.4129 1177.00
52.4781 1134.00
52.5433 1131.00
52.6085 1103.00
52.6737 1160.00
52.7389 1154.00
52.8041 1136.00
52.8693 1261.00
52.9345 1231.00
52.9997 1198.00
53.0649 1124.00
53.1301 1118.00
53.1953 1106.00
53.2605 1042.00
53.3257 1024.00
53.3909 988.00
53.4561 992.00
53.5213 973.00
53.5865 988.00
53.6517 1019.00
53.7169 1019.00
53.7821 1029.00
53.8473 1093.00
53.9125 1102.00
53.9777 1158.00
54.0429 1230.00
54.1081 1298.00
54.1733 1447.00
54.2385 1597.00
54.3037 1612.00
54.3689 1784.00
54.4341 1668.00
54.4993 1801.00
54.5645 1991.00
54.6297 2225.00
54.6949 2410.00
54.7601 2462.00
54.8253 2173.00
54.8905 1810.00
54.9557 1528.00
55.0209 1344.00
55.0861 1269.00
55.1513 1268.00
55.2165 1355.00
55.2817 1539.00
55.3469 1501.00
55.4121 1537.00
55.4773 1625.00
55.5425 1695.00
55.6077 1804.00
55.6729 1891.00
55.7381 1951.00
55.8033 2255.00
55.8685 2642.00
55.9337 2998.00
55.9989 3186.00
56.0641 3000.00
56.1293 3158.00
56.1945 2834.00
56.2597 2397.00
56.3249 2276.00
56.3901 2061.00
56.4553 2048.00
56.5205 2346.00
56.5857 2044.00
56.6509 1891.00
56.7161 1679.00
56.7813 1366.00
56.8465 1304.00
56.9117 1201.00
56.9769 1109.00
57.042 1094.00
57.1073 1131.00
57.1724 1162.00
57.2376 1176.00
57.3028 1213.00
57.368 1332.00
57.4332 1457.00
57.4984 1513.00
57.5636 1534.00
57.6288 1546.00
57.694 1697.00
57.7592 1980.00
57.8244 1939.00
57.8896 1930.00
57.9548 1778.00
58.02 1559.00
58.0852 1429.00
58.1504 1420.00
58.2156 1355.00
58.2808 1348.00
58.346 1453.00
58.4112 1594.00
58.4764 1777.00
58.5416 1916.00
58.6068 1774.00
58.672 1612.00
58.7372 1589.00
58.8024 1597.00
58.8676 1663.00
58.9328 1569.00
58.998 1446.00
59.0632 1437.00
59.1284 1383.00
59.1936 1269.00
59.2588 1351.00
59.324 1360.00
59.3892 1443.00
59.4544 1384.00
59.5196 1370.00
59.5848 1345.00
59.65 1256.00
59.7152 1249.00
59.7804 1267.00
59.8456 1230.00
59.9108 1303.00
59.976 1510.00
60.0412 1518.00
60.1064 1528.00
60.1716 1608.00
60.2368 1737.00
60.302 1937.00
60.3672 2141.00
60.4324 2352.00
60.4976 2403.00
60.5628 2269.00
60.628 2254.00
60.6932 2064.00
60.7584 1957.00
60.8236 2149.00
60.8888 2393.00
60.954 2288.00
61.0192 1741.00
61.0844 1776.00
61.1496 1479.00
61.2148 1149.00
61.28 1193.00
61.3452 1157.00
61.4104 1214.00
61.4756 1200.00
61.5408 1262.00
61.606 1398.00
61.6712 1348.00
61.7364 1329.00
61.8016 1399.00
61.8667 1512.00
61.932 1743.00
61.9971 1880.00
62.0623 1882.00
62.1275 1751.00
62.1927 1830.00
62.2579 1757.00
62.3231 1697.00
62.3883 1953.00
62.4535 1966.00
62.5187 2211.00
62.5839 2272.00
62.6491 1948.00
62.7143 1887.00
62.7795 1755.00
62.8447 1551.00
62.9099 1556.00
62.9751 1626.00
63.0403 1641.00
63.1055 1765.00
63.1707 1613.00
63.2359 1587.00
63.3011 1648.00
63.3663 1647.00
63.4315 1821.00
63.4967 2031.00
63.5619 1985.00
63.6271 1728.00
63.6923 1657.00
63.7575 1446.00
63.8227 1309.00
63.8879 1263.00
63.9531 1251.00
64.0183 1051.00
64.0835 1100.00
64.1487 1082.00
64.2139 1028.00
64.2791 1034.00
64.3443 1124.00
64.4095 998.00
64.4747 1028.00
64.5399 1021.00
64.6051 1124.00
64.6703 1237.00
64.7355 1274.00
64.8007 1277.00
64.8659 1224.00
64.9311 1377.00
64.9963 1253.00
65.0615 1263.00
65.1267 1249.00
65.1919 1089.00
65.2571 1170.00
65.3223 1157.00
65.3875 1195.00
65.4527 1193.00
65.5179 1241.00
65.5831 1298.00
65.6483 1361.00
65.7135 1291.00
65.7787 1272.00
65.8439 1413.00
65.9091 1463.00
65.9743 1567.00
66.0395 1569.00
66.1047 1535.00
66.1699 1599.00
66.2351 1712.00
66.3003 1784.00
66.3655 1926.00
66.4307 1855.00
66.4959 1659.00
66.561 1572.00
66.6263 1455.00
66.6915 1282.00
66.7566 1101.00
66.8218 1168.00
66.887 984.00
66.9522 1027.00
67.0174 984.00
67.0826 904.00
67.1478 909.00
67.213 945.00
67.2782 865.00
67.3434 920.00
67.4086 885.00
67.4738 916.00
67.539 904.00
67.6042 901.00
67.6694 926.00
67.7346 861.00
67.7998 918.00
67.865 800.00
67.9302 832.00
67.9954 886.00
68.0606 914.00
68.1258 880.00
68.191 961.00
68.2562 984.00
68.3214 929.00
68.3866 921.00
68.4518 861.00
68.517 917.00
68.5822 825.00
68.6474 896.00
68.7126 889.00
68.7778 907.00
68.843 880.00
68.9082 923.00
68.9734 922.00
69.0386 934.00
69.1038 1010.00
69.169 982.00
69.2342 926.00
69.2994 1009.00
69.3646 987.00
69.4298 983.00
69.495 1060.00
69.5602 1098.00
69.6254 1245.00
69.6906 1308.00
69.7558 1183.00
69.821 1168.00
69.8862 1128.00
69.9514 1027.00
70.0166 974.00
70.0818 988.00
70.147 988.00
70.2122 994.00
70.2774 1010.00
70.3426 1043.00
70.4078 1015.00
70.473 1032.00
70.5382 1007.00
70.6034 954.00
70.6686 942.00
70.7338 965.00
70.799 956.00
70.8642 907.00
70.9294 935.00
70.9946 959.00
71.0598 918.00
71.125 955.00
71.1902 935.00
71.2554 1018.00
71.3205 1063.00
71.3858 1034.00
71.451 1118.00
71.5162 1159.00
71.5813 1215.00
71.6465 1222.00
71.7117 1277.00
71.7769 1453.00
71.8421 1467.00
71.9073 1493.00
71.9725 1458.00
72.0377 1364.00
72.1029 1302.00
72.1681 1209.00
72.2333 1118.00
72.2985 1023.00
72.3637 923.00
72.4289 1018.00
72.4941 981.00
72.5593 1022.00
72.6245 1057.00
72.6897 1012.00
72.7549 1104.00
72.8201 1220.00
72.8853 1131.00
72.9505 1093.00
73.0157 1101.00
73.0809 1047.00
73.1461 1085.00
73.2113 1040.00
73.2765 1168.00
73.3417 1072.00
73.4069 1098.00
73.4721 1102.00
73.5373 993.00
73.6025 926.00
73.6677 920.00
73.7329 906.00
73.7981 946.00
73.8633 947.00
73.9285 937.00
73.9937 991.00
74.0589 914.00
74.1241 888.00
74.1893 873.00
74.2545 901.00
74.3197 904.00
74.3849 915.00
74.4501 848.00
74.5153 892.00
74.5805 899.00
74.6457 852.00
74.7109 851.00
74.7761 876.00
74.8413 872.00
74.9065 910.00
74.9717 976.00
75.0369 1025.00
75.1021 1033.00
75.1673 1131.00
75.2325 1209.00
75.2977 1399.00
75.3629 1396.00
75.4281 1304.00
75.4933 1376.00
75.5585 1241.00
75.6237 1223.00
75.6889 1192.00
75.7541 1322.00
75.8193 1373.00
75.8845 1331.00
75.9497 1314.00
76.0149 1248.00
76.0801 1290.00
76.1452 1054.00
76.2104 1013.00
76.2756 982.00
76.3409 1000.00
76.406 977.00
76.4712 947.00
76.5364 980.00
76.6016 1056.00
76.6668 1104.00
76.732 966.00
76.7972 996.00
76.8624 1013.00
76.9276 1001.00
76.9928 990.00
77.058 1027.00
77.1232 1008.00
77.1884 1097.00
77.2536 1093.00
77.3188 1047.00
77.384 1033.00
77.4492 1025.00
77.5144 986.00
77.5796 896.00
77.6448 988.00
77.71 921.00
77.7752 967.00
77.8404 965.00
77.9056 1061.00
77.9708 1025.00
78.036 1052.00
78.1012 1074.00
78.1664 1124.00
78.2316 1138.00
78.2968 1047.00
78.362 1095.00
78.4272 995.00
78.4924 972.00
78.5576 1018.00
78.6228 964.00
78.688 1010.00
78.7532 1040.00
78.8184 1074.00
78.8836 1050.00
78.9488 1050.00
79.014 1066.00
79.0792 1072.00
79.1444 1037.00
79.2096 1018.00
79.2748 1011.00
79.34 1105.00
79.4052 1058.00
79.4704 1064.00
79.5356 1083.00
79.6008 1220.00
79.666 1170.00
79.7312 1150.00
79.7964 1029.00
79.8616 1045.00
79.9268 1053.00
79.992 994.00
80.0572 920.00
80.1224 853.00
80.1876 910.00
80.2528 848.00
80.318 865.00
80.3832 794.00
80.4484 844.00
80.5136 804.00
80.5788 868.00
80.644 856.00
80.7092 893.00
80.7744 863.00
80.8396 926.00
80.9048 867.00
80.9699 844.00
81.0351 879.00
81.1003 849.00
81.1655 942.00
81.2307 893.00
81.2959 884.00
81.3611 863.00
81.4263 928.00
81.4915 939.00
81.5567 883.00
81.6219 905.00
81.6871 859.00
81.7523 921.00
81.8175 934.00
81.8827 985.00
81.9479 1064.00
82.0131 1079.00
82.0783 1091.00
82.1435 1110.00
82.2087 1106.00
82.2739 1144.00
82.3391 1209.00
82.4043 1097.00
82.4695 1102.00
82.5347 1033.00
82.5999 1044.00
82.6651 1054.00
82.7303 1053.00
82.7955 1024.00
82.8607 1080.00
82.9259 1050.00
82.9911 1081.00
83.0563 1005.00
83.1215 1161.00
83.1867 1165.00
83.2519 1266.00
83.3171 1357.00
83.3823 1449.00
83.4475 1365.00
83.5127 1292.00
83.5779 1357.00
83.6431 1232.00
83.7083 1177.00
83.7735 1165.00
83.8387 1221.00
83.9039 1157.00
83.9691 1200.00
84.0343 1154.00
84.0995 1238.00
84.1647 1186.00
84.2299 1154.00
84.2951 1144.00
84.3603 1077.00
84.4255 1175.00
84.4907 1041.00
84.5559 1071.00
84.6211 1114.00
84.6863 1168.00
84.7515 1188.00
84.8167 1220.00
84.8819 1184.00
84.9471 1243.00
85.0123 1175.00
85.0775 1207.00
85.1427 1162.00
85.2079 1057.00
85.2731 1044.00
85.3383 1042.00
85.4035 993.00
85.4687 944.00
85.5339 902.00
85.5991 983.00
85.6643 1016.00
85.7295 1082.00
85.7946 1004.00
85.8598 922.00
85.925 1046.00
85.9903 1097.00
86.0554 1084.00
86.1206 938.00
86.1858 936.00
86.251 900.00
86.3162 1005.00
86.3814 887.00
86.4466 895.00
86.5118 867.00
86.577 895.00
86.6422 911.00
86.7074 947.00
86.7726 900.00
86.8378 973.00
86.903 1032.00
86.9682 1022.00
87.0334 917.00
87.0986 968.00
87.1638 895.00
87.229 885.00
87.2942 932.00
87.3594 921.00
87.4246 911.00
87.4898 905.00
87.555 942.00
87.6202 923.00
87.6854 880.00
87.7506 951.00
87.8158 950.00
87.881 912.00
87.9462 885.00
88.0114 920.00
88.0766 901.00
88.1418 962.00
88.207 1062.00
88.2722 1178.00
88.3374 1182.00
88.4026 1121.00
88.4678 1131.00
88.533 1047.00
88.5982 1161.00
88.6634 1114.00
88.7286 1156.00
88.7938 1072.00
88.859 1156.00
88.9242 1133.00
88.9894 1176.00
89.0546 1149.00
89.1198 1104.00
89.185 1073.00
89.2502 1204.00
89.3154 1117.00
89.3806 1203.00
89.4458 1118.00
89.511 1153.00
89.5762 1124.00
89.6414 1012.00
89.7066 1056.00
89.7718 1026.00
89.837 1015.00
89.9022 1020.00
89.9674 1129.00
90.0326 1082.00
90.0978 1098.00
90.163 998.00
90.2282 1115.00
90.2934 1145.00
90.3586 1087.00
90.4238 1024.00
90.489 1084.00
90.5542 1138.00
90.6193 1113.00
90.6845 1097.00
90.7497 1128.00
90.8149 1108.00
90.8801 1016.00
90.9453 966.00
91.0105 954.00
91.0757 996.00
91.1409 844.00
91.2061 900.00
91.2713 902.00
91.3365 856.00
91.4017 836.00
91.4669 909.00
91.5321 856.00
91.5973 848.00
91.6625 878.00
91.7277 865.00
91.7929 895.00
91.8581 892.00
91.9233 906.00
91.9885 861.00
92.0537 877.00
92.1189 846.00
92.1841 987.00
92.2493 927.00
92.3145 954.00
92.3797 966.00
92.4449 875.00
92.5101 896.00
92.5753 852.00
92.6405 853.00
92.7057 898.00
92.7709 840.00
92.8361 799.00
92.9013 858.00
92.9665 857.00
93.0317 830.00
93.0969 778.00
93.1621 764.00
93.2273 821.00
93.2925 713.00
93.3577 773.00
93.4229 769.00
93.4881 798.00
93.5533 759.00
93.6185 767.00
93.6837 866.00
93.7489 876.00
93.8141 886.00
93.8793 847.00
93.9445 863.00
94.0097 875.00
94.0749 852.00
94.1401 855.00
94.2053 888.00
94.2705 910.00
94.3357 868.00
94.4009 857.00
94.4661 860.00
94.5313 931.00
94.5965 974.00
94.6617 966.00
94.7269 986.00
94.7921 950.00
94.8573 938.00
94.9225 906.00
94.9877 931.00
95.0529 967.00
95.1181 885.00
95.1833 949.00
95.2485 920.00
95.3137 1024.00
95.3789 1030.00
95.444 1024.00
95.5092 960.00
95.5744 981.00
95.6396 1007.00
95.7048 1022.00
95.77 953.00
95.8352 1027.00
95.9004 1000.00
95.9656 1054.00
96.0308 1134.00
96.096 1088.00
96.1612 1036.00
96.2264 1050.00
96.2916 1071.00
96.3568 1031.00
96.422 985.00
96.4872 997.00
96.5524 1045.00
96.6176 1035.00
96.6828 1148.00
96.748 1082.00
96.8132 1059.00
96.8784 1123.00
96.9436 1153.00
97.0088 1223.00
97.074 1172.00
97.1392 1241.00
97.2044 1199.00
97.2696 1241.00
97.3348 1220.00
97.4 1232.00
97.4652 1288.00
97.5304 1221.00
97.5956 1225.00
97.6608 1208.00
97.726 1194.00
97.7912 1254.00
97.8564 1350.00
97.9216 1346.00
97.9868 1210.00
98.052 1226.00
98.1172 1133.00
98.1824 1103.00
98.2476 1091.00
98.3128 1089.00
98.378 1032.00
98.4432 990.00
98.5084 983.00
98.5736 1032.00
98.6388 989.00
98.704 998.00
98.7692 1014.00
98.8344 1058.00
98.8996 1137.00
98.9648 1152.00
99.03 1097.00
99.0952 1079.00
99.1604 1035.00
99.2256 1056.00
99.2908 1161.00
99.356 1050.00
99.4212 1119.00
99.4864 1107.00
99.5516 1056.00
99.6168 1246.00
99.682 1193.00
99.7472 1159.00
99.8124 1055.00
99.8776 1056.00
99.9428 1080.00
100.008 1155.00
100.073 1068.00
100.095 1128.00