File: data/xrd_creation/results/NSC_89.xy
9.903433 2906.00
9.968632 2699.00
10.0338 2713.00
10.099 2725.00
10.1642 2610.00
10.2294 2761.00
10.2946 2741.00
10.3598 2626.00
10.425 2604.00
10.4902 2601.00
10.5554 2576.00
10.6206 2497.00
10.6858 2459.00
10.751 2434.00
10.8162 2446.00
10.8814 2490.00
10.9466 2510.00
11.0118 2457.00
11.077 2377.00
11.1422 2418.00
11.2074 2334.00
11.2726 2351.00
11.3378 2279.00
11.403 2347.00
11.4682 2371.00
11.5334 2140.00
11.5986 2184.00
11.6638 2227.00
11.729 2259.00
11.7942 2194.00
11.8594 2156.00
11.9246 2216.00
11.9898 2213.00
12.055 2126.00
12.1202 2073.00
12.1854 2032.00
12.2506 2096.00
12.3158 2114.00
12.381 1980.00
12.4462 1909.00
12.5114 2027.00
12.5766 1996.00
12.6418 1976.00
12.707 1864.00
12.7722 2013.00
12.8374 1903.00
12.9026 1975.00
12.9678 1944.00
13.033 1906.00
13.0982 1847.00
13.1634 1911.00
13.2286 1952.00
13.2938 1855.00
13.359 1818.00
13.4242 1804.00
13.4894 1849.00
13.5546 1789.00
13.6198 1802.00
13.685 1779.00
13.7502 1784.00
13.8154 1802.00
13.8805 1827.00
13.9457 1854.00
14.0109 1781.00
14.0761 1961.00
14.1413 2111.00
14.2065 2213.00
14.2717 2560.00
14.3369 2634.00
14.4021 2772.00
14.4673 2486.00
14.5325 2224.00
14.5977 1875.00
14.6629 1694.00
14.7281 1671.00
14.7933 1628.00
14.8585 1704.00
14.9237 1639.00
14.9889 1691.00
15.0541 1680.00
15.1193 1594.00
15.1845 1640.00
15.2497 1596.00
15.3149 1672.00
15.3801 1639.00
15.4453 1635.00
15.5105 1604.00
15.5757 1586.00
15.6409 1572.00
15.7061 1565.00
15.7713 1597.00
15.8365 1579.00
15.9017 1539.00
15.9669 1577.00
16.0321 1579.00
16.0973 1499.00
16.1625 1549.00
16.2277 1601.00
16.2929 1575.00
16.3581 1566.00
16.4233 1569.00
16.4885 1497.00
16.5537 1510.00
16.6189 1498.00
16.6841 1561.00
16.7493 1487.00
16.8145 1526.00
16.8797 1452.00
16.9449 1496.00
17.0101 1441.00
17.0753 1465.00
17.1405 1437.00
17.2057 1507.00
17.2709 1428.00
17.3361 1447.00
17.4013 1526.00
17.4665 1441.00
17.5317 1499.00
17.5969 1438.00
17.6621 1410.00
17.7273 1393.00
17.7925 1361.00
17.8577 1511.00
17.9229 1402.00
17.9881 1367.00
18.0533 1433.00
18.1185 1338.00
18.1837 1320.00
18.2489 1432.00
18.3141 1369.00
18.3793 1360.00
18.4445 1384.00
18.5097 1432.00
18.5749 1335.00
18.6401 1336.00
18.7052 1309.00
18.7704 1297.00
18.8356 1374.00
18.9008 1391.00
18.966 1419.00
19.0312 1336.00
19.0964 1332.00
19.1616 1328.00
19.2268 1439.00
19.292 1347.00
19.3572 1535.00
19.4224 1420.00
19.4876 1503.00
19.5528 1827.00
19.618 2282.00
19.6832 2961.00
19.7484 4112.00
19.8136 5294.00
19.8788 5540.00
19.944 4832.00
20.0092 3529.00
20.0744 2230.00
20.1396 1613.00
20.2048 1526.00
20.27 1486.00
20.3352 1428.00
20.4004 1533.00
20.4656 1520.00
20.5308 1650.00
20.596 2008.00
20.6612 2639.00
20.7264 3821.00
20.7916 5235.00
20.8568 6274.00
20.922 6260.00
20.9872 5466.00
21.0524 3662.00
21.1176 2107.00
21.1828 1577.00
21.248 1447.00
21.3132 1385.00
21.3784 1340.00
21.4436 1262.00
21.5088 1307.00
21.574 1201.00
21.6392 1247.00
21.7044 1256.00
21.7696 1244.00
21.8348 1275.00
21.9 1138.00
21.9652 1232.00
22.0304 1198.00
22.0956 1150.00
22.1608 1186.00
22.226 1178.00
22.2912 1184.00
22.3564 1116.00
22.4216 1126.00
22.4868 1144.00
22.552 1107.00
22.6172 1108.00
22.6824 1097.00
22.7476 1137.00
22.8128 1085.00
22.878 1086.00
22.9432 1137.00
23.0084 1046.00
23.0736 1098.00
23.1388 1086.00
23.204 1112.00
23.2692 1130.00
23.3344 1123.00
23.3996 1126.00
23.4647 1170.00
23.5299 1159.00
23.5951 1261.00
23.6603 1252.00
23.7255 1321.00
23.7907 1634.00
23.8559 2063.00
23.9211 2767.00
23.9863 3668.00
24.0515 4166.00
24.1167 3945.00
24.1819 3077.00
24.2471 2026.00
24.3123 1389.00
24.3775 1233.00
24.4427 1094.00
24.5079 1102.00
24.5731 1136.00
24.6383 1023.00
24.7035 1002.00
24.7687 970.00
24.8339 1038.00
24.8991 930.00
24.9643 1030.00
25.0295 967.00
25.0947 993.00
25.1599 979.00
25.2251 935.00
25.2903 970.00
25.3555 981.00
25.4207 931.00
25.4859 904.00
25.5511 921.00
25.6163 970.00
25.6815 955.00
25.7467 991.00
25.8119 1012.00
25.8771 980.00
25.9423 925.00
26.0075 889.00
26.0727 941.00
26.1379 935.00
26.2031 906.00
26.2683 906.00
26.3335 924.00
26.3987 969.00
26.4639 1122.00
26.5291 1200.00
26.5943 1268.00
26.6595 1373.00
26.7247 1196.00
26.7899 1058.00
26.8551 944.00
26.9203 899.00
26.9855 884.00
27.0507 903.00
27.1159 859.00
27.1811 885.00
27.2463 863.00
27.3115 870.00
27.3767 798.00
27.4419 883.00
27.5071 819.00
27.5723 816.00
27.6375 861.00
27.7027 819.00
27.7679 807.00
27.8331 844.00
27.8983 871.00
27.9635 839.00
28.0287 828.00
28.0939 829.00
28.1591 828.00
28.2243 858.00
28.2894 880.00
28.3546 840.00
28.4198 877.00
28.485 861.00
28.5502 989.00
28.6154 1023.00
28.6806 1113.00
28.7458 1477.00
28.811 1979.00
28.8762 3015.00
28.9414 4014.00
29.0066 4193.00
29.0718 3599.00
29.137 2451.00
29.2022 1470.00
29.2674 990.00
29.3326 933.00
29.3978 896.00
29.463 804.00
29.5282 793.00
29.5934 814.00
29.6586 825.00
29.7238 728.00
29.789 780.00
29.8542 768.00
29.9194 769.00
29.9846 800.00
30.0498 738.00
30.115 750.00
30.1802 761.00
30.2454 722.00
30.3106 744.00
30.3758 773.00
30.441 767.00
30.5062 714.00
30.5714 747.00
30.6366 775.00
30.7018 763.00
30.767 731.00
30.8322 764.00
30.8974 801.00
30.9626 809.00
31.0278 787.00
31.093 752.00
31.1582 863.00
31.2234 799.00
31.2886 836.00
31.3538 928.00
31.419 1031.00
31.4842 1016.00
31.5494 1357.00
31.6146 2108.00
31.6798 3243.00
31.745 4933.00
31.8102 6234.00
31.8754 6075.00
31.9406 4571.00
32.0058 2705.00
32.071 1564.00
32.1362 1149.00
32.2014 1000.00
32.2666 1044.00
32.3318 1111.00
32.397 1218.00
32.4622 1239.00
32.5274 1089.00
32.5926 930.00
32.6578 747.00
32.723 733.00
32.7882 710.00
32.8534 664.00
32.9186 740.00
32.9838 745.00
33.0489 657.00
33.1141 670.00
33.1793 639.00
33.2445 630.00
33.3097 681.00
33.3749 656.00
33.4401 666.00
33.5053 712.00
33.5705 631.00
33.6357 687.00
33.7009 699.00
33.7661 818.00
33.8313 912.00
33.8965 1075.00
33.9617 1155.00
34.0269 1100.00
34.0921 1106.00
34.1573 1017.00
34.2225 941.00
34.2877 819.00
34.3529 676.00
34.4181 681.00
34.4833 691.00
34.5485 653.00
34.6137 653.00
34.6789 668.00
34.7441 646.00
34.8093 639.00
34.8745 632.00
34.9397 639.00
35.0049 606.00
35.0701 635.00
35.1353 602.00
35.2005 625.00
35.2657 648.00
35.3309 650.00
35.3961 651.00
35.4613 676.00
35.5265 660.00
35.5917 726.00
35.6569 709.00
35.7221 801.00
35.7873 1002.00
35.8525 1407.00
35.9177 1985.00
35.9829 2251.00
36.0481 2382.00
36.1133 2054.00
36.1785 1389.00
36.2437 1044.00
36.3089 977.00
36.3741 1171.00
36.4393 1549.00
36.5045 2116.00
36.5697 2727.00
36.6349 3047.00
36.7001 2700.00
36.7653 1980.00
36.8305 1227.00
36.8957 882.00
36.9609 760.00
37.0261 732.00
37.0913 691.00
37.1565 608.00
37.2217 609.00
37.2869 622.00
37.3521 530.00
37.4173 606.00
37.4825 593.00
37.5477 568.00
37.6129 568.00
37.6781 592.00
37.7433 546.00
37.8085 563.00
37.8736 600.00
37.9388 593.00
38.004 682.00
38.0692 665.00
38.1344 624.00
38.1996 585.00
38.2648 561.00
38.33 614.00
38.3952 611.00
38.4604 646.00
38.5256 653.00
38.5908 769.00
38.656 743.00
38.7212 641.00
38.7864 622.00
38.8516 567.00
38.9168 593.00
38.982 539.00
39.0472 543.00
39.1124 500.00
39.1776 518.00
39.2428 548.00
39.308 539.00
39.3732 521.00
39.4384 509.00
39.5036 490.00
39.5688 519.00
39.634 536.00
39.6992 515.00
39.7644 499.00
39.8296 508.00
39.8948 510.00
39.96 464.00
40.0252 490.00
40.0904 544.00
40.1556 550.00
40.2208 709.00
40.286 838.00
40.3512 900.00
40.4164 914.00
40.4816 828.00
40.5468 648.00
40.612 591.00
40.6772 489.00
40.7424 538.00
40.8076 507.00
40.8728 484.00
40.938 497.00
41.0032 484.00
41.0684 472.00
41.1336 505.00
41.1988 493.00
41.264 513.00
41.3292 473.00
41.3944 507.00
41.4596 566.00
41.5248 523.00
41.59 552.00
41.6552 559.00
41.7204 594.00
41.7856 683.00
41.8508 809.00
41.916 1024.00
41.9812 1183.00
42.0464 1087.00
42.1116 899.00
42.1768 718.00
42.242 695.00
42.3072 694.00
42.3724 772.00
42.4376 981.00
42.5028 1045.00
42.568 1152.00
42.6332 933.00
42.6983 799.00
42.7635 617.00
42.8287 589.00
42.8939 581.00
42.9591 592.00
43.0243 623.00
43.0895 562.00
43.1547 531.00
43.2199 518.00
43.2851 502.00
43.3503 444.00
43.4155 457.00
43.4807 441.00
43.5459 487.00
43.6111 479.00
43.6763 482.00
43.7415 506.00
43.8067 555.00
43.8719 657.00
43.9371 787.00
44.0023 1130.00
44.0675 1441.00
44.1327 1519.00
44.1979 1359.00
44.2631 962.00
44.3283 761.00
44.3935 609.00
44.4587 564.00
44.5239 530.00
44.5891 470.00
44.6543 499.00
44.7195 477.00
44.7847 476.00
44.8499 476.00
44.9151 502.00
44.9803 545.00
45.0455 588.00
45.1107 645.00
45.1759 611.00
45.2411 553.00
45.3063 529.00
45.3715 556.00
45.4367 526.00
45.5019 539.00
45.5671 494.00
45.6323 620.00
45.6975 788.00
45.7627 1107.00
45.8279 1500.00
45.8931 1642.00
45.9583 1436.00
46.0235 1092.00
46.0887 775.00
46.1539 605.00
46.2191 511.00
46.2843 478.00
46.3495 458.00
46.4147 474.00
46.4799 486.00
46.5451 460.00
46.6103 477.00
46.6755 465.00
46.7407 465.00
46.8059 499.00
46.8711 482.00
46.9363 532.00
47.0015 513.00
47.0667 630.00
47.1319 781.00
47.1971 1197.00
47.2623 1711.00
47.3275 2273.00
47.3927 2264.00
47.4579 1845.00
47.523 1350.00
47.5882 931.00
47.6534 617.00
47.7186 543.00
47.7838 497.00
47.849 480.00
47.9142 449.00
47.9794 470.00
48.0446 436.00
48.1098 441.00
48.175 425.00
48.2402 477.00
48.3054 465.00
48.3706 502.00
48.4358 447.00
48.501 520.00
48.5662 648.00
48.6314 548.00
48.6966 529.00
48.7618 518.00
48.827 595.00
48.8922 604.00
48.9574 599.00
49.0226 732.00
49.0878 1008.00
49.153 1595.00
49.2182 2135.00
49.2834 2397.00
49.3486 2197.00
49.4138 1626.00
49.479 1110.00
49.5442 775.00
49.6094 588.00
49.6746 481.00
49.7398 513.00
49.805 483.00
49.8702 453.00
49.9354 419.00
50.0006 450.00
50.0658 501.00
50.131 617.00
50.1962 685.00
50.2614 625.00
50.3266 587.00
50.3918 525.00
50.457 472.00
50.5222 430.00
50.5874 407.00
50.6526 449.00
50.7178 409.00
50.783 406.00
50.8482 404.00
50.9134 466.00
50.9786 399.00
51.0438 406.00
51.109 401.00
51.1742 381.00
51.2394 373.00
51.3046 441.00
51.3698 417.00
51.435 396.00
51.5002 419.00
51.5654 441.00
51.6306 480.00
51.6958 541.00
51.761 728.00
51.8262 761.00
51.8914 805.00
51.9566 816.00
52.0218 853.00
52.087 1076.00
52.1522 1542.00
52.2174 2061.00
52.2826 2324.00
52.3477 2152.00
52.4129 1705.00
52.4781 1215.00
52.5433 782.00
52.6085 550.00
52.6737 489.00
52.7389 478.00
52.8041 453.00
52.8693 440.00
52.9345 450.00
52.9997 473.00
53.0649 553.00
53.1301 624.00
53.1953 519.00
53.2605 480.00
53.3257 449.00
53.3909 409.00
53.4561 402.00
53.5213 396.00
53.5865 411.00
53.6517 404.00
53.7169 397.00
53.7821 369.00
53.8473 350.00
53.9125 354.00
53.9777 375.00
54.0429 398.00
54.1081 366.00
54.1733 369.00
54.2385 356.00
54.3037 374.00
54.3689 392.00
54.4341 391.00
54.4993 439.00
54.5645 404.00
54.6297 415.00
54.6949 396.00
54.7601 436.00
54.8253 476.00
54.8905 454.00
54.9557 440.00
55.0209 400.00
55.0861 368.00
55.1513 381.00
55.2165 401.00
55.2817 411.00
55.3469 465.00
55.4121 515.00
55.4773 680.00
55.5425 880.00
55.6077 939.00
55.6729 850.00
55.7381 812.00
55.8033 665.00
55.8685 527.00
55.9337 448.00
55.9989 398.00
56.0641 381.00
56.1293 380.00
56.1945 402.00
56.2597 399.00
56.3249 408.00
56.3901 388.00
56.4553 416.00
56.5205 511.00
56.5857 518.00
56.6509 623.00
56.7161 734.00
56.7813 1037.00
56.8465 1363.00
56.9117 1519.00
56.9769 1408.00
57.042 1185.00
57.1073 1213.00
57.1724 1351.00
57.2376 1651.00
57.3028 1864.00
57.368 1943.00
57.4332 1615.00
57.4984 1296.00
57.5636 958.00
57.6288 650.00
57.694 537.00
57.7592 488.00
57.8244 479.00
57.8896 477.00
57.9548 458.00
58.02 429.00
58.0852 459.00
58.1504 433.00
58.2156 427.00
58.2808 445.00
58.346 477.00
58.4112 451.00
58.4764 461.00
58.5416 498.00
58.6068 551.00
58.672 689.00
58.7372 777.00
58.8024 873.00
58.8676 799.00
58.9328 698.00
58.998 578.00
59.0632 492.00
59.1284 421.00
59.1936 392.00
59.2588 398.00
59.324 377.00
59.3892 360.00
59.4544 359.00
59.5196 375.00
59.5848 351.00
59.65 346.00
59.7152 340.00
59.7804 351.00
59.8456 446.00
59.9108 491.00
59.976 539.00
60.0412 621.00
60.1064 559.00
60.1716 562.00
60.2368 475.00
60.302 387.00
60.3672 418.00
60.4324 338.00
60.4976 354.00
60.5628 372.00
60.628 346.00
60.6932 366.00
60.7584 371.00
60.8236 434.00
60.8888 409.00
60.954 456.00
61.0192 483.00
61.0844 695.00
61.1496 921.00
61.2148 1297.00
61.28 1478.00
61.3452 1370.00
61.4104 1140.00
61.4756 931.00
61.5408 696.00
61.606 502.00
61.6712 430.00
61.7364 434.00
61.8016 441.00
61.8667 430.00
61.932 462.00
61.9971 501.00
62.0623 492.00
62.1275 512.00
62.1927 510.00
62.2579 596.00
62.3231 539.00
62.3883 489.00
62.4535 496.00
62.5187 503.00
62.5839 527.00
62.6491 573.00
62.7143 780.00
62.7795 1140.00
62.8447 1487.00
62.9099 1745.00
62.9751 1816.00
63.0403 1571.00
63.1055 1531.00
63.1707 1219.00
63.2359 903.00
63.3011 769.00
63.3663 592.00
63.4315 508.00
63.4967 433.00
63.5619 421.00
63.6271 455.00
63.6923 371.00
63.7575 364.00
63.8227 395.00
63.8879 367.00
63.9531 375.00
64.0183 350.00
64.0835 413.00
64.1487 393.00
64.2139 428.00
64.2791 480.00
64.3443 521.00
64.4095 505.00
64.4747 458.00
64.5399 434.00
64.6051 418.00
64.6703 434.00
64.7355 409.00
64.8007 429.00
64.8659 437.00
64.9311 387.00
64.9963 418.00
65.0615 387.00
65.1267 385.00
65.1919 470.00
65.2571 511.00
65.3223 653.00
65.3875 894.00
65.4527 1049.00
65.5179 1065.00
65.5831 971.00
65.6483 925.00
65.7135 850.00
65.7787 892.00
65.8439 947.00
65.9091 997.00
65.9743 950.00
66.0395 873.00
66.1047 751.00
66.1699 658.00
66.2351 577.00
66.3003 431.00
66.3655 402.00
66.4307 386.00
66.4959 365.00
66.561 367.00
66.6263 388.00
66.6915 341.00
66.7566 323.00
66.8218 375.00
66.887 375.00
66.9522 406.00
67.0174 484.00
67.0826 646.00
67.1478 819.00
67.213 940.00
67.2782 894.00
67.3434 884.00
67.4086 729.00
67.4738 658.00
67.539 489.00
67.6042 415.00
67.6694 419.00
67.7346 410.00
67.7998 382.00
67.865 395.00
67.9302 416.00
67.9954 376.00
68.0606 369.00
68.1258 381.00
68.191 305.00
68.2562 332.00
68.3214 332.00
68.3866 313.00
68.4518 312.00
68.517 309.00
68.5822 337.00
68.6474 324.00
68.7126 301.00
68.7778 283.00
68.843 318.00
68.9082 311.00
68.9734 327.00
69.0386 367.00
69.1038 328.00
69.169 363.00
69.2342 343.00
69.2994 426.00
69.3646 575.00
69.4298 742.00
69.495 982.00
69.5602 1011.00
69.6254 924.00
69.6906 849.00
69.7558 704.00
69.821 609.00
69.8862 449.00
69.9514 354.00
70.0166 320.00
70.0818 356.00
70.147 307.00
70.2122 303.00
70.2774 323.00
70.3426 292.00
70.4078 327.00
70.473 280.00
70.5382 357.00
70.6034 339.00
70.6686 331.00
70.7338 348.00
70.799 374.00
70.8642 407.00
70.9294 433.00
70.9946 460.00
71.0598 517.00
71.125 497.00
71.1902 439.00
71.2554 454.00
71.3205 465.00
71.3858 438.00
71.451 392.00
71.5162 419.00
71.5813 376.00
71.6465 352.00
71.7117 337.00
71.7769 369.00
71.8421 374.00
71.9073 348.00
71.9725 362.00
72.0377 312.00
72.1029 299.00
72.1681 339.00
72.2333 304.00
72.2985 300.00
72.3637 318.00
72.4289 332.00
72.4941 314.00
72.5593 286.00
72.6245 324.00
72.6897 305.00
72.7549 303.00
72.8201 318.00
72.8853 296.00
72.9505 290.00
73.0157 303.00
73.0809 327.00
73.1461 336.00
73.2113 385.00
73.2765 408.00
73.3417 501.00
73.4069 670.00
73.4721 750.00
73.5373 817.00
73.6025 724.00
73.6677 659.00
73.7329 517.00
73.7981 467.00
73.8633 479.00
73.9285 398.00
73.9937 362.00
74.0589 354.00
74.1241 322.00
74.1893 333.00
74.2545 369.00
74.3197 312.00
74.3849 323.00
74.4501 294.00
74.5153 285.00
74.5805 328.00
74.6457 309.00
74.7109 360.00
74.7761 404.00
74.8413 384.00
74.9065 358.00
74.9717 425.00
75.0369 499.00
75.1021 658.00
75.1673 701.00
75.2325 737.00
75.2977 644.00
75.3629 577.00
75.4281 530.00
75.4933 475.00
75.5585 416.00
75.6237 488.00
75.6889 440.00
75.7541 464.00
75.8193 418.00
75.8845 430.00
75.9497 404.00
76.0149 454.00
76.0801 438.00
76.1452 470.00
76.2104 445.00
76.2756 469.00
76.3409 440.00
76.406 400.00
76.4712 362.00
76.5364 327.00
76.6016 292.00
76.6668 322.00
76.732 294.00
76.7972 270.00
76.8624 263.00
76.9276 319.00
76.9928 269.00
77.058 316.00
77.1232 278.00
77.1884 325.00
77.2536 340.00
77.3188 339.00
77.384 383.00
77.4492 372.00
77.5144 424.00
77.5796 421.00
77.6448 542.00
77.71 607.00
77.7752 610.00
77.8404 606.00
77.9056 568.00
77.9708 537.00
78.036 506.00
78.1012 462.00
78.1664 431.00
78.2316 383.00
78.2968 375.00
78.362 337.00
78.4272 323.00
78.4924 296.00
78.5576 286.00
78.6228 307.00
78.688 359.00
78.7532 340.00
78.8184 331.00
78.8836 361.00
78.9488 391.00
79.014 396.00
79.0792 375.00
79.1444 403.00
79.2096 395.00
79.2748 355.00
79.34 397.00
79.4052 348.00
79.4704 341.00
79.5356 366.00
79.6008 341.00
79.666 339.00
79.7312 347.00
79.7964 335.00
79.8616 332.00
79.9268 390.00
79.992 363.00
80.0572 347.00
80.1224 324.00
80.1876 347.00
80.2528 365.00
80.318 326.00
80.3832 341.00
80.4484 289.00
80.5136 303.00
80.5788 315.00
80.644 299.00
80.7092 287.00
80.7744 330.00
80.8396 295.00
80.9048 320.00
80.9699 375.00
81.0351 394.00
81.1003 500.00
81.1655 581.00
81.2307 656.00
81.2959 628.00
81.3611 575.00
81.4263 613.00
81.4915 673.00
81.5567 642.00
81.6219 564.00
81.6871 539.00
81.7523 481.00
81.8175 417.00
81.8827 420.00
81.9479 398.00
82.0131 318.00
82.0783 316.00
82.1435 309.00
82.2087 301.00
82.2739 306.00
82.3391 358.00
82.4043 297.00
82.4695 352.00
82.5347 380.00
82.5999 430.00
82.6651 522.00
82.7303 649.00
82.7955 757.00
82.8607 788.00
82.9259 683.00
82.9911 625.00
83.0563 586.00
83.1215 554.00
83.1867 426.00
83.2519 371.00
83.3171 358.00
83.3823 296.00
83.4475 329.00
83.5127 308.00
83.5779 282.00
83.6431 319.00
83.7083 302.00
83.7735 323.00
83.8387 286.00
83.9039 277.00
83.9691 302.00
84.0343 306.00
84.0995 262.00
84.1647 277.00
84.2299 283.00
84.2951 294.00
84.3603 249.00
84.4255 264.00
84.4907 287.00
84.5559 248.00
84.6211 274.00
84.6863 288.00
84.7515 273.00
84.8167 297.00
84.8819 307.00
84.9471 348.00
85.0123 343.00
85.0775 369.00
85.1427 337.00
85.2079 349.00
85.2731 356.00
85.3383 337.00
85.4035 293.00
85.4687 290.00
85.5339 237.00
85.5991 282.00
85.6643 267.00
85.7295 310.00
85.7946 287.00
85.8598 293.00
85.925 384.00
85.9903 319.00
86.0554 334.00
86.1206 371.00
86.1858 384.00
86.251 450.00
86.3162 547.00
86.3814 611.00
86.4466 687.00
86.5118 605.00
86.577 529.00
86.6422 527.00
86.7074 507.00
86.7726 461.00
86.8378 408.00
86.903 384.00
86.9682 332.00
87.0334 322.00
87.0986 331.00
87.1638 354.00
87.229 371.00
87.2942 391.00
87.3594 461.00
87.4246 499.00
87.4898 570.00
87.555 685.00
87.6202 755.00
87.6854 740.00
87.7506 725.00
87.8158 696.00
87.881 623.00
87.9462 543.00
88.0114 478.00
88.0766 436.00
88.1418 424.00
88.207 371.00
88.2722 302.00
88.3374 303.00
88.4026 292.00
88.4678 294.00
88.533 339.00
88.5982 302.00
88.6634 395.00
88.7286 419.00
88.7938 377.00
88.859 358.00
88.9242 359.00
88.9894 372.00
89.0546 333.00
89.1198 344.00
89.185 302.00
89.2502 299.00
89.3154 331.00
89.3806 280.00
89.4458 287.00
89.511 321.00
89.5762 322.00
89.6414 284.00
89.7066 293.00
89.7718 307.00
89.837 318.00
89.9022 320.00
89.9674 312.00
90.0326 308.00
90.0978 318.00
90.163 355.00
90.2282 359.00
90.2934 413.00
90.3586 427.00
90.4238 411.00
90.489 402.00
90.5542 393.00
90.6193 360.00
90.6845 398.00
90.7497 392.00
90.8149 410.00
90.8801 435.00
90.9453 425.00
91.0105 374.00
91.0757 351.00
91.1409 394.00
91.2061 394.00
91.2713 424.00
91.3365 418.00
91.4017 353.00
91.4669 337.00
91.5321 312.00
91.5973 331.00
91.6625 327.00
91.7277 357.00
91.7929 294.00
91.8581 277.00
91.9233 288.00
91.9885 310.00
92.0537 294.00
92.1189 340.00
92.1841 308.00
92.2493 347.00
92.3145 394.00
92.3797 465.00
92.4449 610.00
92.5101 656.00
92.5753 611.00
92.6405 590.00
92.7057 540.00
92.7709 585.00
92.8361 602.00
92.9013 499.00
92.9665 458.00
93.0317 412.00
93.0969 332.00
93.1621 353.00
93.2273 348.00
93.2925 312.00
93.3577 310.00
93.4229 305.00
93.4881 315.00
93.5533 313.00
93.6185 316.00
93.6837 281.00
93.7489 304.00
93.8141 310.00
93.8793 316.00
93.9445 347.00
94.0097 409.00
94.0749 478.00
94.1401 496.00
94.2053 504.00
94.2705 425.00
94.3357 454.00
94.4009 427.00
94.4661 396.00
94.5313 358.00
94.5965 365.00
94.6617 351.00
94.7269 301.00
94.7921 321.00
94.8573 317.00
94.9225 350.00
94.9877 333.00
95.0529 440.00
95.1181 467.00
95.1833 505.00
95.2485 456.00
95.3137 460.00
95.3789 463.00
95.444 418.00
95.5092 438.00
95.5744 425.00
95.6396 385.00
95.7048 339.00
95.77 356.00
95.8352 298.00
95.9004 297.00
95.9656 328.00
96.0308 331.00
96.096 376.00
96.1612 384.00
96.2264 412.00
96.2916 434.00
96.3568 380.00
96.422 385.00
96.4872 376.00
96.5524 365.00
96.6176 336.00
96.6828 353.00
96.748 305.00
96.8132 327.00
96.8784 303.00
96.9436 286.00
97.0088 315.00
97.074 267.00
97.1392 329.00
97.2044 286.00
97.2696 299.00
97.3348 311.00
97.4 328.00
97.4652 335.00
97.5304 339.00
97.5956 411.00
97.6608 436.00
97.726 454.00
97.7912 538.00
97.8564 657.00
97.9216 656.00
97.9868 659.00
98.052 502.00
98.1172 512.00
98.1824 516.00
98.2476 505.00
98.3128 452.00
98.378 427.00
98.4432 352.00
98.5084 311.00
98.5736 340.00
98.6388 301.00
98.704 304.00
98.7692 333.00
98.8344 264.00
98.8996 294.00
98.9648 268.00
99.03 259.00
99.0952 272.00
99.1604 259.00
99.2256 278.00
99.2908 259.00
99.356 278.00
99.4212 300.00
99.4864 288.00
99.5516 290.00
99.6168 294.00
99.682 328.00
99.7472 350.00
99.8124 337.00
99.8776 429.00
99.9428 514.00
100.008 563.00
100.073 647.00
100.095 623.00