File: data/xrd_creation/results/NSC_28.xy
9.903433 3001.00
9.968632 3024.00
10.0338 3027.00
10.099 2913.00
10.1642 2860.00
10.2294 2829.00
10.2946 2766.00
10.3598 2732.00
10.425 2796.00
10.4902 2834.00
10.5554 2802.00
10.6206 2885.00
10.6858 2720.00
10.751 2797.00
10.8162 2833.00
10.8814 2718.00
10.9466 2639.00
11.0118 2788.00
11.077 2657.00
11.1422 2604.00
11.2074 2513.00
11.2726 2651.00
11.3378 2566.00
11.403 2624.00
11.4682 2511.00
11.5334 2557.00
11.5986 2563.00
11.6638 2586.00
11.729 2511.00
11.7942 2397.00
11.8594 2512.00
11.9246 2402.00
11.9898 2274.00
12.055 2394.00
12.1202 2522.00
12.1854 2471.00
12.2506 2430.00
12.3158 2393.00
12.381 2333.00
12.4462 2347.00
12.5114 2287.00
12.5766 2398.00
12.6418 2381.00
12.707 2260.00
12.7722 2316.00
12.8374 2328.00
12.9026 2287.00
12.9678 2320.00
13.033 2231.00
13.0982 2312.00
13.1634 2203.00
13.2286 2203.00
13.2938 2265.00
13.359 2190.00
13.4242 2141.00
13.4894 2315.00
13.5546 2217.00
13.6198 2161.00
13.685 2223.00
13.7502 2298.00
13.8154 2324.00
13.8805 2340.00
13.9457 2422.00
14.0109 2580.00
14.0761 2864.00
14.1413 3189.00
14.2065 3898.00
14.2717 4618.00
14.3369 4792.00
14.4021 3363.00
14.4673 2564.00
14.5325 2202.00
14.5977 2207.00
14.6629 2212.00
14.7281 2198.00
14.7933 2223.00
14.8585 2123.00
14.9237 2133.00
14.9889 2122.00
15.0541 2098.00
15.1193 2118.00
15.1845 2219.00
15.2497 2283.00
15.3149 2207.00
15.3801 2148.00
15.4453 2172.00
15.5105 2084.00
15.5757 2084.00
15.6409 2121.00
15.7061 2026.00
15.7713 2071.00
15.8365 2080.00
15.9017 2152.00
15.9669 2139.00
16.0321 2042.00
16.0973 2102.00
16.1625 2013.00
16.2277 2070.00
16.2929 2030.00
16.3581 1963.00
16.4233 2048.00
16.4885 2066.00
16.5537 1981.00
16.6189 2015.00
16.6841 2032.00
16.7493 2037.00
16.8145 2005.00
16.8797 2013.00
16.9449 2064.00
17.0101 2034.00
17.0753 1932.00
17.1405 1961.00
17.2057 1986.00
17.2709 1932.00
17.3361 1975.00
17.4013 1989.00
17.4665 1997.00
17.5317 1891.00
17.5969 1912.00
17.6621 1991.00
17.7273 2046.00
17.7925 1901.00
17.8577 1948.00
17.9229 2001.00
17.9881 1948.00
18.0533 1905.00
18.1185 1929.00
18.1837 1850.00
18.2489 1897.00
18.3141 1860.00
18.3793 1823.00
18.4445 1844.00
18.5097 1952.00
18.5749 1882.00
18.6401 2005.00
18.7052 1888.00
18.7704 1942.00
18.8356 1874.00
18.9008 1870.00
18.966 1900.00
19.0312 1911.00
19.0964 2002.00
19.1616 1903.00
19.2268 1973.00
19.292 2050.00
19.3572 2293.00
19.4224 2319.00
19.4876 2602.00
19.5528 3279.00
19.618 4886.00
19.6832 7340.00
19.7484 10694.00
19.8136 11348.00
19.8788 7071.00
19.944 3761.00
20.0092 2535.00
20.0744 2337.00
20.1396 2418.00
20.2048 2809.00
20.27 3623.00
20.3352 5100.00
20.4004 8161.00
20.4656 12415.00
20.5308 14093.00
20.596 9560.00
20.6612 5042.00
20.7264 3114.00
20.7916 2428.00
20.8568 2361.00
20.922 2263.00
20.9872 2389.00
21.0524 2237.00
21.1176 1985.00
21.1828 1944.00
21.248 1871.00
21.3132 1869.00
21.3784 1899.00
21.4436 1846.00
21.5088 1861.00
21.574 1787.00
21.6392 1839.00
21.7044 1873.00
21.7696 1896.00
21.8348 1886.00
21.9 2026.00
21.9652 2163.00
22.0304 2112.00
22.0956 2149.00
22.1608 2086.00
22.226 1795.00
22.2912 1792.00
22.3564 1782.00
22.4216 1751.00
22.4868 1689.00
22.552 1773.00
22.6172 1736.00
22.6824 1686.00
22.7476 1742.00
22.8128 1719.00
22.878 1894.00
22.9432 1773.00
23.0084 1816.00
23.0736 1829.00
23.1388 1822.00
23.204 1842.00
23.2692 2008.00
23.3344 2027.00
23.3996 2477.00
23.4647 3233.00
23.5299 5117.00
23.5951 8896.00
23.6603 13745.00
23.7255 14487.00
23.7907 9551.00
23.8559 4840.00
23.9211 3024.00
23.9863 2244.00
24.0515 1964.00
24.1167 1940.00
24.1819 1823.00
24.2471 1705.00
24.3123 1702.00
24.3775 1756.00
24.4427 1739.00
24.5079 1775.00
24.5731 1771.00
24.6383 1756.00
24.7035 1705.00
24.7687 1756.00
24.8339 1683.00
24.8991 1713.00
24.9643 1790.00
25.0295 1824.00
25.0947 1817.00
25.1599 1827.00
25.2251 2001.00
25.2903 2089.00
25.3555 2204.00
25.4207 2128.00
25.4859 1977.00
25.5511 1821.00
25.6163 1680.00
25.6815 1661.00
25.7467 1742.00
25.8119 1740.00
25.8771 1714.00
25.9423 1617.00
26.0075 1699.00
26.0727 1616.00
26.1379 1716.00
26.2031 1844.00
26.2683 1780.00
26.3335 1815.00
26.3987 1671.00
26.4639 1600.00
26.5291 1632.00
26.5943 1628.00
26.6595 1669.00
26.7247 1599.00
26.7899 1632.00
26.8551 1570.00
26.9203 1497.00
26.9855 1601.00
27.0507 1654.00
27.1159 1557.00
27.1811 1548.00
27.2463 1604.00
27.3115 1554.00
27.3767 1458.00
27.4419 1526.00
27.5071 1612.00
27.5723 1575.00
27.6375 1579.00
27.7027 1637.00
27.7679 1602.00
27.8331 1581.00
27.8983 1620.00
27.9635 1579.00
28.0287 1671.00
28.0939 1686.00
28.1591 1848.00
28.2243 2024.00
28.2894 2547.00
28.3546 3703.00
28.4198 6087.00
28.485 8928.00
28.5502 8818.00
28.6154 6019.00
28.6806 3527.00
28.7458 2492.00
28.811 1936.00
28.8762 1788.00
28.9414 1662.00
29.0066 1676.00
29.0718 1592.00
29.137 1485.00
29.2022 1545.00
29.2674 1497.00
29.3326 1531.00
29.3978 1451.00
29.463 1514.00
29.5282 1533.00
29.5934 1518.00
29.6586 1526.00
29.7238 1545.00
29.789 1455.00
29.8542 1478.00
29.9194 1455.00
29.9846 1554.00
30.0498 1469.00
30.115 1504.00
30.1802 1557.00
30.2454 1617.00
30.3106 1650.00
30.3758 1663.00
30.441 1865.00
30.5062 1791.00
30.5714 1744.00
30.6366 1755.00
30.7018 1617.00
30.767 1523.00
30.8322 1615.00
30.8974 1602.00
30.9626 1712.00
31.0278 1744.00
31.093 1863.00
31.1582 2059.00
31.2234 2860.00
31.2886 4927.00
31.3538 8373.00
31.419 12645.00
31.4842 13465.00
31.5494 10258.00
31.6146 6867.00
31.6798 4883.00
31.745 3543.00
31.8102 2583.00
31.8754 2142.00
31.9406 1833.00
32.0058 1590.00
32.071 1600.00
32.1362 1537.00
32.2014 1463.00
32.2666 1529.00
32.3318 1480.00
32.397 1467.00
32.4622 1447.00
32.5274 1490.00
32.5926 1423.00
32.6578 1492.00
32.723 1441.00
32.7882 1350.00
32.8534 1484.00
32.9186 1474.00
32.9838 1479.00
33.0489 1432.00
33.1141 1432.00
33.1793 1446.00
33.2445 1481.00
33.3097 1659.00
33.3749 1754.00
33.4401 1910.00
33.5053 1843.00
33.5705 1851.00
33.6357 1533.00
33.7009 1529.00
33.7661 1505.00
33.8313 1696.00
33.8965 1837.00
33.9617 1969.00
34.0269 1737.00
34.0921 1660.00
34.1573 1546.00
34.2225 1522.00
34.2877 1452.00
34.3529 1437.00
34.4181 1455.00
34.4833 1426.00
34.5485 1493.00
34.6137 1375.00
34.6789 1460.00
34.7441 1450.00
34.8093 1443.00
34.8745 1502.00
34.9397 1572.00
35.0049 1610.00
35.0701 2117.00
35.1353 2872.00
35.2005 3955.00
35.2657 4180.00
35.3309 3878.00
35.3961 3040.00
35.4613 2936.00
35.5265 3586.00
35.5917 5061.00
35.6569 6383.00
35.7221 6020.00
35.7873 4725.00
35.8525 3334.00
35.9177 2504.00
35.9829 1981.00
36.0481 1674.00
36.1133 1653.00
36.1785 1513.00
36.2437 1401.00
36.3089 1387.00
36.3741 1436.00
36.4393 1313.00
36.5045 1355.00
36.5697 1336.00
36.6349 1301.00
36.7001 1295.00
36.7653 1392.00
36.8305 1405.00
36.8957 1289.00
36.9609 1334.00
37.0261 1255.00
37.0913 1336.00
37.1565 1260.00
37.2217 1282.00
37.2869 1342.00
37.3521 1296.00
37.4173 1316.00
37.4825 1334.00
37.5477 1250.00
37.6129 1286.00
37.6781 1220.00
37.7433 1310.00
37.8085 1299.00
37.8736 1393.00
37.9388 1346.00
38.004 1342.00
38.0692 1313.00
38.1344 1299.00
38.1996 1323.00
38.2648 1383.00
38.33 1325.00
38.3952 1357.00
38.4604 1414.00
38.5256 1394.00
38.5908 1399.00
38.656 1353.00
38.7212 1274.00
38.7864 1327.00
38.8516 1279.00
38.9168 1373.00
38.982 1257.00
39.0472 1347.00
39.1124 1286.00
39.1776 1258.00
39.2428 1285.00
39.308 1334.00
39.3732 1237.00
39.4384 1345.00
39.5036 1356.00
39.5688 1314.00
39.634 1422.00
39.6992 1560.00
39.7644 1847.00
39.8296 2102.00
39.8948 2075.00
39.96 1822.00
40.0252 1519.00
40.0904 1471.00
40.1556 1387.00
40.2208 1296.00
40.286 1307.00
40.3512 1290.00
40.4164 1271.00
40.4816 1218.00
40.5468 1290.00
40.612 1244.00
40.6772 1321.00
40.7424 1373.00
40.8076 1250.00
40.8728 1391.00
40.938 1282.00
41.0032 1292.00
41.0684 1318.00
41.1336 1327.00
41.1988 1430.00
41.264 1662.00
41.3292 1866.00
41.3944 2092.00
41.4596 2289.00
41.5248 2242.00
41.59 2118.00
41.6552 1948.00
41.7204 1825.00
41.7856 1646.00
41.8508 1574.00
41.916 1494.00
41.9812 1448.00
42.0464 1410.00
42.1116 1441.00
42.1768 1570.00
42.242 1631.00
42.3072 1464.00
42.3724 1461.00
42.4376 1459.00
42.5028 1276.00
42.568 1264.00
42.6332 1245.00
42.6983 1307.00
42.7635 1333.00
42.8287 1333.00
42.8939 1341.00
42.9591 1464.00
43.0243 1793.00
43.0895 2312.00
43.1547 2665.00
43.2199 2719.00
43.2851 2328.00
43.3503 2057.00
43.4155 1720.00
43.4807 1439.00
43.5459 1361.00
43.6111 1428.00
43.6763 1283.00
43.7415 1427.00
43.8067 1397.00
43.8719 1554.00
43.9371 1550.00
44.0023 1456.00
44.0675 1347.00
44.1327 1364.00
44.1979 1341.00
44.2631 1266.00
44.3283 1228.00
44.3935 1264.00
44.4587 1274.00
44.5239 1302.00
44.5891 1386.00
44.6543 1322.00
44.7195 1304.00
44.7847 1367.00
44.8499 1625.00
44.9151 1908.00
44.9803 2561.00
45.0455 3494.00
45.1107 3882.00
45.1759 3542.00
45.2411 2885.00
45.3063 2175.00
45.3715 1775.00
45.4367 1547.00
45.5019 1402.00
45.5671 1371.00
45.6323 1360.00
45.6975 1362.00
45.7627 1286.00
45.8279 1319.00
45.8931 1376.00
45.9583 1542.00
46.0235 2003.00
46.0887 2510.00
46.1539 2705.00
46.2191 2561.00
46.2843 2221.00
46.3495 1836.00
46.4147 1695.00
46.4799 1564.00
46.5451 1629.00
46.6103 1636.00
46.6755 1763.00
46.7407 2145.00
46.8059 2215.00
46.8711 2069.00
46.9363 1925.00
47.0015 1600.00
47.0667 1393.00
47.1319 1409.00
47.1971 1347.00
47.2623 1271.00
47.3275 1249.00
47.3927 1217.00
47.4579 1305.00
47.523 1349.00
47.5882 1331.00
47.6534 1467.00
47.7186 1470.00
47.7838 1503.00
47.849 1708.00
47.9142 1969.00
47.9794 2588.00
48.0446 3755.00
48.1098 4720.00
48.175 4726.00
48.2402 4303.00
48.3054 3377.00
48.3706 2648.00
48.4358 2205.00
48.501 1677.00
48.5662 1537.00
48.6314 1526.00
48.6966 1765.00
48.7618 1813.00
48.827 1681.00
48.8922 1671.00
48.9574 1595.00
49.0226 1472.00
49.0878 1406.00
49.153 1272.00
49.2182 1312.00
49.2834 1241.00
49.3486 1289.00
49.4138 1313.00
49.479 1233.00
49.5442 1220.00
49.6094 1309.00
49.6746 1317.00
49.7398 1237.00
49.805 1253.00
49.8702 1308.00
49.9354 1246.00
50.0006 1191.00
50.0658 1182.00
50.131 1335.00
50.1962 1210.00
50.2614 1248.00
50.3266 1287.00
50.3918 1308.00
50.457 1316.00
50.5222 1276.00
50.5874 1312.00
50.6526 1345.00
50.7178 1291.00
50.783 1486.00
50.8482 1353.00
50.9134 1429.00
50.9786 1392.00
51.0438 1378.00
51.109 1417.00
51.1742 1584.00
51.2394 1820.00
51.3046 2264.00
51.3698 2942.00
51.435 3740.00
51.5002 3822.00
51.5654 3502.00
51.6306 3034.00
51.6958 2496.00
51.761 2095.00
51.8262 2096.00
51.8914 2019.00
51.9566 1881.00
52.0218 1774.00
52.087 1509.00
52.1522 1433.00
52.2174 1262.00
52.2826 1256.00
52.3477 1298.00
52.4129 1201.00
52.4781 1237.00
52.5433 1211.00
52.6085 1181.00
52.6737 1208.00
52.7389 1299.00
52.8041 1334.00
52.8693 1324.00
52.9345 1188.00
52.9997 1279.00
53.0649 1226.00
53.1301 1213.00
53.1953 1240.00
53.2605 1198.00
53.3257 1185.00
53.3909 1258.00
53.4561 1211.00
53.5213 1233.00
53.5865 1226.00
53.6517 1237.00
53.7169 1192.00
53.7821 1181.00
53.8473 1173.00
53.9125 1241.00
53.9777 1282.00
54.0429 1194.00
54.1081 1378.00
54.1733 1450.00
54.2385 1688.00
54.3037 2045.00
54.3689 2232.00
54.4341 2206.00
54.4993 2045.00
54.5645 1857.00
54.6297 1700.00
54.6949 1502.00
54.7601 1440.00
54.8253 1384.00
54.8905 1455.00
54.9557 1439.00
55.0209 1506.00
55.0861 1663.00
55.1513 1988.00
55.2165 2353.00
55.2817 2685.00
55.3469 3011.00
55.4121 3217.00
55.4773 3783.00
55.5425 4197.00
55.6077 4139.00
55.6729 3968.00
55.7381 3377.00
55.8033 2813.00
55.8685 2269.00
55.9337 1962.00
55.9989 1707.00
56.0641 1534.00
56.1293 1404.00
56.1945 1354.00
56.2597 1288.00
56.3249 1296.00
56.3901 1233.00
56.4553 1267.00
56.5205 1281.00
56.5857 1200.00
56.6509 1307.00
56.7161 1370.00
56.7813 1401.00
56.8465 1417.00
56.9117 1518.00
56.9769 1448.00
57.042 1437.00
57.1073 1434.00
57.1724 1390.00
57.2376 1411.00
57.3028 1313.00
57.368 1327.00
57.4332 1266.00
57.4984 1206.00
57.5636 1173.00
57.6288 1256.00
57.694 1271.00
57.7592 1259.00
57.8244 1244.00
57.8896 1300.00
57.9548 1287.00
58.02 1265.00
58.0852 1343.00
58.1504 1488.00
58.2156 1711.00
58.2808 1823.00
58.346 1873.00
58.4112 1794.00
58.4764 1971.00
58.5416 1903.00
58.6068 1844.00
58.672 1744.00
58.7372 1651.00
58.8024 1476.00
58.8676 1367.00
58.9328 1265.00
58.998 1246.00
59.0632 1252.00
59.1284 1272.00
59.1936 1240.00
59.2588 1178.00
59.324 1169.00
59.3892 1223.00
59.4544 1233.00
59.5196 1180.00
59.5848 1243.00
59.65 1314.00
59.7152 1414.00
59.7804 1482.00
59.8456 1657.00
59.9108 2108.00
59.976 2498.00
60.0412 2583.00
60.1064 2482.00
60.1716 2342.00
60.2368 2020.00
60.302 1885.00
60.3672 1655.00
60.4324 1566.00
60.4976 1440.00
60.5628 1371.00
60.628 1364.00
60.6932 1347.00
60.7584 1341.00
60.8236 1337.00
60.8888 1371.00
60.954 1628.00
61.0192 2029.00
61.0844 2463.00
61.1496 2672.00
61.2148 2805.00
61.28 2630.00
61.3452 2328.00
61.4104 2108.00
61.4756 1890.00
61.5408 1620.00
61.606 1572.00
61.6712 1439.00
61.7364 1387.00
61.8016 1325.00
61.8667 1322.00
61.932 1322.00
61.9971 1324.00
62.0623 1393.00
62.1275 1535.00
62.1927 1509.00
62.2579 1670.00
62.3231 1925.00
62.3883 1952.00
62.4535 1987.00
62.5187 1948.00
62.5839 1952.00
62.6491 1823.00
62.7143 1668.00
62.7795 1587.00
62.8447 1429.00
62.9099 1470.00
62.9751 1232.00
63.0403 1359.00
63.1055 1441.00
63.1707 1454.00
63.2359 1400.00
63.3011 1431.00
63.3663 1646.00
63.4315 1757.00
63.4967 1682.00
63.5619 1738.00
63.6271 1927.00
63.6923 1983.00
63.7575 1955.00
63.8227 1974.00
63.8879 1940.00
63.9531 2007.00
64.0183 1944.00
64.0835 1788.00
64.1487 1805.00
64.2139 1676.00
64.2791 1588.00
64.3443 1413.00
64.4095 1340.00
64.4747 1324.00
64.5399 1249.00
64.6051 1207.00
64.6703 1219.00
64.7355 1210.00
64.8007 1283.00
64.8659 1284.00
64.9311 1196.00
64.9963 1292.00
65.0615 1276.00
65.1267 1315.00
65.1919 1392.00
65.2571 1443.00
65.3223 1416.00
65.3875 1447.00
65.4527 1507.00
65.5179 1385.00
65.5831 1336.00
65.6483 1352.00
65.7135 1283.00
65.7787 1356.00
65.8439 1234.00
65.9091 1350.00
65.9743 1407.00
66.0395 1462.00
66.1047 1525.00
66.1699 1731.00
66.2351 1930.00
66.3003 2012.00
66.3655 1999.00
66.4307 1885.00
66.4959 1782.00
66.561 1550.00
66.6263 1487.00
66.6915 1324.00
66.7566 1282.00
66.8218 1295.00
66.887 1186.00
66.9522 1186.00
67.0174 1270.00
67.0826 1259.00
67.1478 1233.00
67.213 1395.00
67.2782 1412.00
67.3434 1502.00
67.4086 1582.00
67.4738 1653.00
67.539 1536.00
67.6042 1475.00
67.6694 1499.00
67.7346 1629.00
67.7998 1626.00
67.865 1724.00
67.9302 1694.00
67.9954 1515.00
68.0606 1521.00
68.1258 1407.00
68.191 1320.00
68.2562 1296.00
68.3214 1241.00
68.3866 1233.00
68.4518 1185.00
68.517 1253.00
68.5822 1149.00
68.6474 1199.00
68.7126 1345.00
68.7778 1345.00
68.843 1411.00
68.9082 1396.00
68.9734 1564.00
69.0386 1448.00
69.1038 1398.00
69.169 1485.00
69.2342 1397.00
69.2994 1376.00
69.3646 1284.00
69.4298 1235.00
69.495 1152.00
69.5602 1133.00
69.6254 1116.00
69.6906 1118.00
69.7558 1201.00
69.821 1215.00
69.8862 1118.00
69.9514 1153.00
70.0166 1137.00
70.0818 1167.00
70.147 1090.00
70.2122 1111.00
70.2774 1172.00
70.3426 1181.00
70.4078 1161.00
70.473 1237.00
70.5382 1277.00
70.6034 1231.00
70.6686 1144.00
70.7338 1211.00
70.799 1209.00
70.8642 1287.00
70.9294 1444.00
70.9946 1572.00
71.0598 1771.00
71.125 1768.00
71.1902 1780.00
71.2554 1808.00
71.3205 1680.00
71.3858 1590.00
71.451 1577.00
71.5162 1338.00
71.5813 1308.00
71.6465 1359.00
71.7117 1218.00
71.7769 1194.00
71.8421 1106.00
71.9073 1194.00
71.9725 1183.00
72.0377 1111.00
72.1029 1086.00
72.1681 1175.00
72.2333 1140.00
72.2985 1187.00
72.3637 1202.00
72.4289 1207.00
72.4941 1185.00
72.5593 1219.00
72.6245 1188.00
72.6897 1111.00
72.7549 1145.00
72.8201 1100.00
72.8853 1111.00
72.9505 1113.00
73.0157 1202.00
73.0809 1084.00
73.1461 1169.00
73.2113 1118.00
73.2765 1119.00
73.3417 1241.00
73.4069 1203.00
73.4721 1244.00
73.5373 1244.00
73.6025 1303.00
73.6677 1392.00
73.7329 1503.00
73.7981 1509.00
73.8633 1599.00
73.9285 1545.00
73.9937 1590.00
74.0589 1470.00
74.1241 1500.00
74.1893 1367.00
74.2545 1275.00
74.3197 1343.00
74.3849 1226.00
74.4501 1250.00
74.5153 1191.00
74.5805 1200.00
74.6457 1303.00
74.7109 1258.00
74.7761 1318.00
74.8413 1427.00
74.9065 1533.00
74.9717 1657.00
75.0369 1800.00
75.1021 1737.00
75.1673 1706.00
75.2325 1733.00
75.2977 1728.00
75.3629 1695.00
75.4281 1669.00
75.4933 1528.00
75.5585 1632.00
75.6237 1534.00
75.6889 1479.00
75.7541 1412.00
75.8193 1479.00
75.8845 1259.00
75.9497 1273.00
76.0149 1209.00
76.0801 1207.00
76.1452 1205.00
76.2104 1148.00
76.2756 1104.00
76.3409 1154.00
76.406 1103.00
76.4712 1156.00
76.5364 1102.00
76.6016 1096.00
76.6668 1183.00
76.732 1158.00
76.7972 1185.00
76.8624 1172.00
76.9276 1167.00
76.9928 1211.00
77.058 1158.00
77.1232 1242.00
77.1884 1215.00
77.2536 1210.00
77.3188 1229.00
77.384 1209.00
77.4492 1204.00
77.5144 1205.00
77.5796 1191.00
77.6448 1231.00
77.71 1238.00
77.7752 1177.00
77.8404 1145.00
77.9056 1173.00
77.9708 1148.00
78.036 1088.00
78.1012 1122.00
78.1664 1044.00
78.2316 1134.00
78.2968 1160.00
78.362 1167.00
78.4272 1280.00
78.4924 1366.00
78.5576 1421.00
78.6228 1527.00
78.688 1517.00
78.7532 1522.00
78.8184 1569.00
78.8836 1684.00
78.9488 1630.00
79.014 1623.00
79.0792 1589.00
79.1444 1604.00
79.2096 1429.00
79.2748 1378.00
79.34 1319.00
79.4052 1299.00
79.4704 1164.00
79.5356 1200.00
79.6008 1203.00
79.666 1156.00
79.7312 1150.00
79.7964 1173.00
79.8616 1134.00
79.9268 1193.00
79.992 1213.00
80.0572 1183.00
80.1224 1131.00
80.1876 1138.00
80.2528 1112.00
80.318 1129.00
80.3832 1162.00
80.4484 1138.00
80.5136 1093.00
80.5788 1214.00
80.644 1107.00
80.7092 1181.00
80.7744 1294.00
80.8396 1272.00
80.9048 1518.00
80.9699 1475.00
81.0351 1634.00
81.1003 1491.00
81.1655 1489.00
81.2307 1522.00
81.2959 1426.00
81.3611 1413.00
81.4263 1264.00
81.4915 1285.00
81.5567 1148.00
81.6219 1119.00
81.6871 1167.00
81.7523 1080.00
81.8175 1178.00
81.8827 1162.00
81.9479 1095.00
82.0131 1134.00
82.0783 1103.00
82.1435 1070.00
82.2087 1082.00
82.2739 1133.00
82.3391 1112.00
82.4043 1124.00
82.4695 1117.00
82.5347 1158.00
82.5999 1132.00
82.6651 1125.00
82.7303 1033.00
82.7955 1093.00
82.8607 1200.00
82.9259 1098.00
82.9911 1069.00
83.0563 1196.00
83.1215 1116.00
83.1867 1177.00
83.2519 1244.00
83.3171 1319.00
83.3823 1424.00
83.4475 1477.00
83.5127 1561.00
83.5779 1483.00
83.6431 1473.00
83.7083 1479.00
83.7735 1429.00
83.8387 1432.00
83.9039 1286.00
83.9691 1261.00
84.0343 1260.00
84.0995 1225.00
84.1647 1151.00
84.2299 1196.00
84.2951 1124.00
84.3603 1193.00
84.4255 1140.00
84.4907 1090.00
84.5559 1207.00
84.6211 1267.00
84.6863 1299.00
84.7515 1409.00
84.8167 1367.00
84.8819 1327.00
84.9471 1377.00
85.0123 1372.00
85.0775 1362.00
85.1427 1346.00
85.2079 1301.00
85.2731 1373.00
85.3383 1374.00
85.4035 1258.00
85.4687 1320.00
85.5339 1326.00
85.5991 1325.00
85.6643 1269.00
85.7295 1370.00
85.7946 1321.00
85.8598 1310.00
85.925 1324.00
85.9903 1246.00
86.0554 1355.00
86.1206 1304.00
86.1858 1258.00
86.251 1307.00
86.3162 1250.00
86.3814 1304.00
86.4466 1299.00
86.5118 1296.00
86.577 1254.00
86.6422 1288.00
86.7074 1317.00
86.7726 1307.00
86.8378 1277.00
86.903 1215.00
86.9682 1213.00
87.0334 1237.00
87.0986 1185.00
87.1638 1244.00
87.229 1107.00
87.2942 1194.00
87.3594 1203.00
87.4246 1222.00
87.4898 1165.00
87.555 1148.00
87.6202 1128.00
87.6854 1088.00
87.7506 1086.00
87.8158 1154.00
87.881 1186.00
87.9462 1168.00
88.0114 1302.00
88.0766 1272.00
88.1418 1247.00
88.207 1328.00
88.2722 1225.00
88.3374 1293.00
88.4026 1301.00
88.4678 1164.00
88.533 1216.00
88.5982 1189.00
88.6634 1170.00
88.7286 1200.00
88.7938 1084.00
88.859 1195.00
88.9242 1207.00
88.9894 1265.00
89.0546 1184.00
89.1198 1258.00
89.185 1294.00
89.2502 1345.00
89.3154 1376.00
89.3806 1481.00
89.4458 1578.00
89.511 1556.00
89.5762 1676.00
89.6414 1642.00
89.7066 1514.00
89.7718 1484.00
89.837 1544.00
89.9022 1420.00
89.9674 1430.00
90.0326 1325.00
90.0978 1310.00
90.163 1309.00
90.2282 1227.00
90.2934 1286.00
90.3586 1240.00
90.4238 1205.00
90.489 1116.00
90.5542 1176.00
90.6193 1163.00
90.6845 1171.00
90.7497 1166.00
90.8149 1125.00
90.8801 1137.00
90.9453 1115.00
91.0105 1092.00
91.0757 1137.00
91.1409 1085.00
91.2061 1163.00
91.2713 1215.00
91.3365 1168.00
91.4017 1312.00
91.4669 1293.00
91.5321 1379.00
91.5973 1385.00
91.6625 1384.00
91.7277 1392.00
91.7929 1496.00
91.8581 1354.00
91.9233 1374.00
91.9885 1361.00
92.0537 1272.00
92.1189 1267.00
92.1841 1256.00
92.2493 1281.00
92.3145 1200.00
92.3797 1189.00
92.4449 1246.00
92.5101 1191.00
92.5753 1251.00
92.6405 1144.00
92.7057 1167.00
92.7709 1188.00
92.8361 1154.00
92.9013 1185.00
92.9665 1149.00
93.0317 1183.00
93.0969 1227.00
93.1621 1120.00
93.2273 1135.00
93.2925 1097.00
93.3577 1207.00
93.4229 1145.00
93.4881 1149.00
93.5533 1231.00
93.6185 1259.00
93.6837 1184.00
93.7489 1227.00
93.8141 1284.00
93.8793 1353.00
93.9445 1288.00
94.0097 1210.00
94.0749 1323.00
94.1401 1343.00
94.2053 1281.00
94.2705 1327.00
94.3357 1281.00
94.4009 1303.00
94.4661 1251.00
94.5313 1271.00
94.5965 1254.00
94.6617 1243.00
94.7269 1214.00
94.7921 1211.00
94.8573 1261.00
94.9225 1255.00
94.9877 1299.00
95.0529 1443.00
95.1181 1413.00
95.1833 1475.00
95.2485 1366.00
95.3137 1406.00
95.3789 1329.00
95.444 1456.00
95.5092 1304.00
95.5744 1272.00
95.6396 1279.00
95.7048 1235.00
95.77 1279.00
95.8352 1295.00
95.9004 1248.00
95.9656 1363.00
96.0308 1424.00
96.096 1336.00
96.1612 1384.00
96.2264 1335.00
96.2916 1345.00
96.3568 1326.00
96.422 1427.00
96.4872 1352.00
96.5524 1478.00
96.6176 1405.00
96.6828 1308.00
96.748 1383.00
96.8132 1295.00
96.8784 1273.00
96.9436 1333.00
97.0088 1185.00
97.074 1221.00
97.1392 1142.00
97.2044 1138.00
97.2696 1170.00
97.3348 1137.00
97.4 1184.00
97.4652 1153.00
97.5304 1126.00
97.5956 1134.00
97.6608 1140.00
97.726 1142.00
97.7912 1178.00
97.8564 1112.00
97.9216 1142.00
97.9868 1016.00
98.052 1122.00
98.1172 1060.00
98.1824 1107.00
98.2476 1104.00
98.3128 1080.00
98.378 1092.00
98.4432 1042.00
98.5084 1135.00
98.5736 1103.00
98.6388 1047.00
98.704 1178.00
98.7692 1223.00
98.8344 1167.00
98.8996 1183.00
98.9648 1240.00
99.03 1186.00
99.0952 1254.00
99.1604 1257.00
99.2256 1217.00
99.2908 1257.00
99.356 1185.00
99.4212 1254.00
99.4864 1244.00
99.5516 1198.00
99.6168 1168.00
99.682 1297.00
99.7472 1284.00
99.8124 1278.00
99.8776 1349.00
99.9428 1410.00
100.008 1366.00
100.073 1355.00
100.095 1428.00