File: data/xrd_creation/results/NSC_188.xy
9.903433 2815.00
9.968632 2739.00
10.0338 2697.00
10.099 2739.00
10.1642 2690.00
10.2294 2731.00
10.2946 2610.00
10.3598 2718.00
10.425 2668.00
10.4902 2650.00
10.5554 2637.00
10.6206 2555.00
10.6858 2598.00
10.751 2522.00
10.8162 2500.00
10.8814 2639.00
10.9466 2537.00
11.0118 2452.00
11.077 2477.00
11.1422 2485.00
11.2074 2427.00
11.2726 2429.00
11.3378 2360.00
11.403 2419.00
11.4682 2327.00
11.5334 2424.00
11.5986 2412.00
11.6638 2464.00
11.729 2399.00
11.7942 2312.00
11.8594 2330.00
11.9246 2270.00
11.9898 2230.00
12.055 2336.00
12.1202 2356.00
12.1854 2227.00
12.2506 2264.00
12.3158 2264.00
12.381 2302.00
12.4462 2211.00
12.5114 2258.00
12.5766 2227.00
12.6418 2292.00
12.707 2195.00
12.7722 2175.00
12.8374 2253.00
12.9026 2275.00
12.9678 2262.00
13.033 2183.00
13.0982 2296.00
13.1634 2225.00
13.2286 2141.00
13.2938 2220.00
13.359 2122.00
13.4242 2232.00
13.4894 2195.00
13.5546 2206.00
13.6198 2148.00
13.685 2075.00
13.7502 2219.00
13.8154 2106.00
13.8805 2083.00
13.9457 2197.00
14.0109 2200.00
14.0761 2183.00
14.1413 2181.00
14.2065 2117.00
14.2717 2156.00
14.3369 2213.00
14.4021 2146.00
14.4673 2183.00
14.5325 2199.00
14.5977 2240.00
14.6629 2166.00
14.7281 2232.00
14.7933 2102.00
14.8585 2252.00
14.9237 2263.00
14.9889 2174.00
15.0541 2257.00
15.1193 2128.00
15.1845 2223.00
15.2497 2190.00
15.3149 2299.00
15.3801 2277.00
15.4453 2229.00
15.5105 2125.00
15.5757 2160.00
15.6409 2215.00
15.7061 2320.00
15.7713 2298.00
15.8365 2248.00
15.9017 2166.00
15.9669 2235.00
16.0321 2196.00
16.0973 2214.00
16.1625 2285.00
16.2277 2349.00
16.2929 2339.00
16.3581 2264.00
16.4233 2179.00
16.4885 2346.00
16.5537 2184.00
16.6189 2300.00
16.6841 2239.00
16.7493 2273.00
16.8145 2299.00
16.8797 2255.00
16.9449 2183.00
17.0101 2275.00
17.0753 2325.00
17.1405 2194.00
17.2057 2279.00
17.2709 2312.00
17.3361 2230.00
17.4013 2213.00
17.4665 2274.00
17.5317 2282.00
17.5969 2259.00
17.6621 2233.00
17.7273 2256.00
17.7925 2255.00
17.8577 2320.00
17.9229 2331.00
17.9881 2296.00
18.0533 2288.00
18.1185 2275.00
18.1837 2341.00
18.2489 2270.00
18.3141 2318.00
18.3793 2248.00
18.4445 2256.00
18.5097 2312.00
18.5749 2162.00
18.6401 2330.00
18.7052 2245.00
18.7704 2271.00
18.8356 2293.00
18.9008 2283.00
18.966 2264.00
19.0312 2211.00
19.0964 2260.00
19.1616 2271.00
19.2268 2358.00
19.292 2321.00
19.3572 2385.00
19.4224 2343.00
19.4876 2248.00
19.5528 2335.00
19.618 2352.00
19.6832 2256.00
19.7484 2253.00
19.8136 2301.00
19.8788 2315.00
19.944 2294.00
20.0092 2349.00
20.0744 2331.00
20.1396 2327.00
20.2048 2357.00
20.27 2323.00
20.3352 2276.00
20.4004 2221.00
20.4656 2330.00
20.5308 2245.00
20.596 2492.00
20.6612 2354.00
20.7264 2313.00
20.7916 2323.00
20.8568 2320.00
20.922 2321.00
20.9872 2325.00
21.0524 2346.00
21.1176 2235.00
21.1828 2380.00
21.248 2305.00
21.3132 2371.00
21.3784 2279.00
21.4436 2373.00
21.5088 2261.00
21.574 2395.00
21.6392 2329.00
21.7044 2352.00
21.7696 2443.00
21.8348 2301.00
21.9 2244.00
21.9652 2294.00
22.0304 2398.00
22.0956 2396.00
22.1608 2397.00
22.226 2310.00
22.2912 2445.00
22.3564 2344.00
22.4216 2289.00
22.4868 2369.00
22.552 2338.00
22.6172 2320.00
22.6824 2356.00
22.7476 2349.00
22.8128 2364.00
22.878 2327.00
22.9432 2355.00
23.0084 2389.00
23.0736 2433.00
23.1388 2339.00
23.204 2361.00
23.2692 2378.00
23.3344 2357.00
23.3996 2366.00
23.4647 2386.00
23.5299 2303.00
23.5951 2427.00
23.6603 2409.00
23.7255 2371.00
23.7907 2306.00
23.8559 2346.00
23.9211 2403.00
23.9863 2357.00
24.0515 2271.00
24.1167 2411.00
24.1819 2274.00
24.2471 2359.00
24.3123 2284.00
24.3775 2306.00
24.4427 2344.00
24.5079 2291.00
24.5731 2250.00
24.6383 2361.00
24.7035 2387.00
24.7687 2344.00
24.8339 2313.00
24.8991 2366.00
24.9643 2335.00
25.0295 2289.00
25.0947 2300.00
25.1599 2404.00
25.2251 2363.00
25.2903 2319.00
25.3555 2322.00
25.4207 2291.00
25.4859 2272.00
25.5511 2383.00
25.6163 2307.00
25.6815 2301.00
25.7467 2341.00
25.8119 2259.00
25.8771 2387.00
25.9423 2423.00
26.0075 2217.00
26.0727 2276.00
26.1379 2272.00
26.2031 2256.00
26.2683 2381.00
26.3335 2261.00
26.3987 2293.00
26.4639 2351.00
26.5291 2337.00
26.5943 2296.00
26.6595 2382.00
26.7247 2342.00
26.7899 2331.00
26.8551 2278.00
26.9203 2326.00
26.9855 2297.00
27.0507 2335.00
27.1159 2352.00
27.1811 2322.00
27.2463 2395.00
27.3115 2429.00
27.3767 2316.00
27.4419 2385.00
27.5071 2326.00
27.5723 2355.00
27.6375 2379.00
27.7027 2338.00
27.7679 2280.00
27.8331 2356.00
27.8983 2368.00
27.9635 2350.00
28.0287 2383.00
28.0939 2328.00
28.1591 2354.00
28.2243 2273.00
28.2894 2317.00
28.3546 2393.00
28.4198 2362.00
28.485 2311.00
28.5502 2428.00
28.6154 2397.00
28.6806 2392.00
28.7458 2395.00
28.811 2405.00
28.8762 2415.00
28.9414 2417.00
29.0066 2347.00
29.0718 2297.00
29.137 2453.00
29.2022 2439.00
29.2674 2478.00
29.3326 2436.00
29.3978 2365.00
29.463 2422.00
29.5282 2415.00
29.5934 2458.00
29.6586 2501.00
29.7238 2433.00
29.789 2383.00
29.8542 2388.00
29.9194 2512.00
29.9846 2532.00
30.0498 2384.00
30.115 2475.00
30.1802 2487.00
30.2454 2435.00
30.3106 2454.00
30.3758 2504.00
30.441 2530.00
30.5062 2525.00
30.5714 2523.00
30.6366 2576.00
30.7018 2525.00
30.767 2572.00
30.8322 2498.00
30.8974 2529.00
30.9626 2606.00
31.0278 2502.00
31.093 2525.00
31.1582 2554.00
31.2234 2568.00
31.2886 2576.00
31.3538 2644.00
31.419 2586.00
31.4842 2632.00
31.5494 2765.00
31.6146 2548.00
31.6798 2622.00
31.745 2569.00
31.8102 2574.00
31.8754 2511.00
31.9406 2569.00
32.0058 2549.00
32.071 2607.00
32.1362 2580.00
32.2014 2575.00
32.2666 2577.00
32.3318 2582.00
32.397 2496.00
32.4622 2568.00
32.5274 2576.00
32.5926 2605.00
32.6578 2536.00
32.723 2573.00
32.7882 2634.00
32.8534 2554.00
32.9186 2633.00
32.9838 2523.00
33.0489 2549.00
33.1141 2440.00
33.1793 2577.00
33.2445 2506.00
33.3097 2537.00
33.3749 2516.00
33.4401 2497.00
33.5053 2495.00
33.5705 2462.00
33.6357 2533.00
33.7009 2442.00
33.7661 2389.00
33.8313 2507.00
33.8965 2325.00
33.9617 2471.00
34.0269 2410.00
34.0921 2352.00
34.1573 2387.00
34.2225 2429.00
34.2877 2430.00
34.3529 2303.00
34.4181 2327.00
34.4833 2475.00
34.5485 2370.00
34.6137 2366.00
34.6789 2295.00
34.7441 2368.00
34.8093 2350.00
34.8745 2357.00
34.9397 2253.00
35.0049 2292.00
35.0701 2180.00
35.1353 2358.00
35.2005 2240.00
35.2657 2303.00
35.3309 2216.00
35.3961 2198.00
35.4613 2158.00
35.5265 2193.00
35.5917 2125.00
35.6569 2177.00
35.7221 2121.00
35.7873 2055.00
35.8525 2110.00
35.9177 2039.00
35.9829 2043.00
36.0481 2098.00
36.1133 2025.00
36.1785 2037.00
36.2437 1959.00
36.3089 2073.00
36.3741 2061.00
36.4393 2017.00
36.5045 1979.00
36.5697 1955.00
36.6349 1956.00
36.7001 2001.00
36.7653 1972.00
36.8305 1862.00
36.8957 1915.00
36.9609 1907.00
37.0261 1940.00
37.0913 1919.00
37.1565 1931.00
37.2217 1887.00
37.2869 1969.00
37.3521 1785.00
37.4173 1823.00
37.4825 1747.00
37.5477 1875.00
37.6129 1762.00
37.6781 1781.00
37.7433 1816.00
37.8085 1820.00
37.8736 1791.00
37.9388 1695.00
38.004 1733.00
38.0692 1776.00
38.1344 1719.00
38.1996 1726.00
38.2648 1654.00
38.33 1728.00
38.3952 1798.00
38.4604 1754.00
38.5256 1626.00
38.5908 1684.00
38.656 1679.00
38.7212 1640.00
38.7864 1642.00
38.8516 1638.00
38.9168 1646.00
38.982 1688.00
39.0472 1644.00
39.1124 1668.00
39.1776 1606.00
39.2428 1618.00
39.308 1578.00
39.3732 1630.00
39.4384 1641.00
39.5036 1608.00
39.5688 1598.00
39.634 1546.00
39.6992 1564.00
39.7644 1533.00
39.8296 1553.00
39.8948 1542.00
39.96 1603.00
40.0252 1497.00
40.0904 1630.00
40.1556 1514.00
40.2208 1602.00
40.286 1615.00
40.3512 1549.00
40.4164 1547.00
40.4816 1612.00
40.5468 1521.00
40.612 1511.00
40.6772 1417.00
40.7424 1519.00
40.8076 1577.00
40.8728 1561.00
40.938 1507.00
41.0032 1487.00
41.0684 1507.00
41.1336 1513.00
41.1988 1506.00
41.264 1511.00
41.3292 1461.00
41.3944 1551.00
41.4596 1454.00
41.5248 1404.00
41.59 1459.00
41.6552 1474.00
41.7204 1438.00
41.7856 1433.00
41.8508 1458.00
41.916 1530.00
41.9812 1438.00
42.0464 1443.00
42.1116 1443.00
42.1768 1449.00
42.242 1460.00
42.3072 1399.00
42.3724 1443.00
42.4376 1431.00
42.5028 1439.00
42.568 1388.00
42.6332 1469.00
42.6983 1349.00
42.7635 1386.00
42.8287 1431.00
42.8939 1442.00
42.9591 1428.00
43.0243 1413.00
43.0895 1351.00
43.1547 1341.00
43.2199 1372.00
43.2851 1449.00
43.3503 1397.00
43.4155 1414.00
43.4807 1444.00
43.5459 1424.00
43.6111 1350.00
43.6763 1381.00
43.7415 1372.00
43.8067 1406.00
43.8719 1473.00
43.9371 1382.00
44.0023 1375.00
44.0675 1348.00
44.1327 1390.00
44.1979 1408.00
44.2631 1364.00
44.3283 1436.00
44.3935 1347.00
44.4587 1347.00
44.5239 1301.00
44.5891 1408.00
44.6543 1366.00
44.7195 1411.00
44.7847 1369.00
44.8499 1421.00
44.9151 1407.00
44.9803 1398.00
45.0455 1323.00
45.1107 1325.00
45.1759 1408.00
45.2411 1333.00
45.3063 1361.00
45.3715 1331.00
45.4367 1316.00
45.5019 1366.00
45.5671 1248.00
45.6323 1296.00
45.6975 1277.00
45.7627 1302.00
45.8279 1289.00
45.8931 1302.00
45.9583 1322.00
46.0235 1267.00
46.0887 1276.00
46.1539 1318.00
46.2191 1374.00
46.2843 1312.00
46.3495 1335.00
46.4147 1234.00
46.4799 1305.00
46.5451 1289.00
46.6103 1345.00
46.6755 1327.00
46.7407 1316.00
46.8059 1250.00
46.8711 1284.00
46.9363 1230.00
47.0015 1289.00
47.0667 1296.00
47.1319 1319.00
47.1971 1328.00
47.2623 1336.00
47.3275 1384.00
47.3927 1330.00
47.4579 1259.00
47.523 1211.00
47.5882 1261.00
47.6534 1187.00
47.7186 1211.00
47.7838 1306.00
47.849 1260.00
47.9142 1172.00
47.9794 1319.00
48.0446 1305.00
48.1098 1217.00
48.175 1254.00
48.2402 1297.00
48.3054 1297.00
48.3706 1278.00
48.4358 1279.00
48.501 1265.00
48.5662 1225.00
48.6314 1278.00
48.6966 1329.00
48.7618 1222.00
48.827 1266.00
48.8922 1242.00
48.9574 1245.00
49.0226 1315.00
49.0878 1243.00
49.153 1246.00
49.2182 1341.00
49.2834 1208.00
49.3486 1300.00
49.4138 1215.00
49.479 1281.00
49.5442 1239.00
49.6094 1277.00
49.6746 1201.00
49.7398 1257.00
49.805 1260.00
49.8702 1218.00
49.9354 1255.00
50.0006 1200.00
50.0658 1239.00
50.131 1204.00
50.1962 1297.00
50.2614 1228.00
50.3266 1270.00
50.3918 1261.00
50.457 1297.00
50.5222 1281.00
50.5874 1274.00
50.6526 1279.00
50.7178 1281.00
50.783 1266.00
50.8482 1232.00
50.9134 1297.00
50.9786 1261.00
51.0438 1308.00
51.109 1288.00
51.1742 1301.00
51.2394 1217.00
51.3046 1257.00
51.3698 1234.00
51.435 1292.00
51.5002 1213.00
51.5654 1312.00
51.6306 1263.00
51.6958 1275.00
51.761 1263.00
51.8262 1306.00
51.8914 1277.00
51.9566 1219.00
52.0218 1173.00
52.087 1295.00
52.1522 1228.00
52.2174 1309.00
52.2826 1309.00
52.3477 1201.00
52.4129 1309.00
52.4781 1259.00
52.5433 1265.00
52.6085 1250.00
52.6737 1321.00
52.7389 1291.00
52.8041 1207.00
52.8693 1284.00
52.9345 1282.00
52.9997 1257.00
53.0649 1286.00
53.1301 1312.00
53.1953 1333.00
53.2605 1217.00
53.3257 1205.00
53.3909 1255.00
53.4561 1315.00
53.5213 1244.00
53.5865 1281.00
53.6517 1283.00
53.7169 1328.00
53.7821 1313.00
53.8473 1236.00
53.9125 1231.00
53.9777 1264.00
54.0429 1257.00
54.1081 1240.00
54.1733 1271.00
54.2385 1412.00
54.3037 1348.00
54.3689 1319.00
54.4341 1301.00
54.4993 1307.00
54.5645 1299.00
54.6297 1272.00
54.6949 1293.00
54.7601 1361.00
54.8253 1277.00
54.8905 1233.00
54.9557 1327.00
55.0209 1295.00
55.0861 1251.00
55.1513 1248.00
55.2165 1346.00
55.2817 1286.00
55.3469 1345.00
55.4121 1337.00
55.4773 1317.00
55.5425 1314.00
55.6077 1324.00
55.6729 1343.00
55.7381 1311.00
55.8033 1328.00
55.8685 1255.00
55.9337 1295.00
55.9989 1319.00
56.0641 1296.00
56.1293 1331.00
56.1945 1387.00
56.2597 1352.00
56.3249 1348.00
56.3901 1376.00
56.4553 1406.00
56.5205 1336.00
56.5857 1279.00
56.6509 1367.00
56.7161 1317.00
56.7813 1299.00
56.8465 1288.00
56.9117 1393.00
56.9769 1275.00
57.042 1334.00
57.1073 1354.00
57.1724 1346.00
57.2376 1327.00
57.3028 1272.00
57.368 1372.00
57.4332 1299.00
57.4984 1244.00
57.5636 1299.00
57.6288 1295.00
57.694 1317.00
57.7592 1328.00
57.8244 1377.00
57.8896 1253.00
57.9548 1317.00
58.02 1324.00
58.0852 1345.00
58.1504 1378.00
58.2156 1400.00
58.2808 1346.00
58.346 1323.00
58.4112 1382.00
58.4764 1234.00
58.5416 1336.00
58.6068 1326.00
58.672 1314.00
58.7372 1327.00
58.8024 1350.00
58.8676 1331.00
58.9328 1294.00
58.998 1368.00
59.0632 1360.00
59.1284 1267.00
59.1936 1262.00
59.2588 1342.00
59.324 1342.00
59.3892 1294.00
59.4544 1344.00
59.5196 1290.00
59.5848 1358.00
59.65 1293.00
59.7152 1323.00
59.7804 1386.00
59.8456 1319.00
59.9108 1370.00
59.976 1351.00
60.0412 1326.00
60.1064 1341.00
60.1716 1330.00
60.2368 1332.00
60.302 1409.00
60.3672 1361.00
60.4324 1365.00
60.4976 1345.00
60.5628 1351.00
60.628 1334.00
60.6932 1311.00
60.7584 1402.00
60.8236 1303.00
60.8888 1299.00
60.954 1386.00
61.0192 1383.00
61.0844 1282.00
61.1496 1382.00
61.2148 1340.00
61.28 1284.00
61.3452 1327.00
61.4104 1355.00
61.4756 1422.00
61.5408 1352.00
61.606 1349.00
61.6712 1315.00
61.7364 1392.00
61.8016 1214.00
61.8667 1337.00
61.932 1317.00
61.9971 1326.00
62.0623 1339.00
62.1275 1355.00
62.1927 1312.00
62.2579 1317.00
62.3231 1254.00
62.3883 1239.00
62.4535 1296.00
62.5187 1282.00
62.5839 1318.00
62.6491 1367.00
62.7143 1331.00
62.7795 1304.00
62.8447 1304.00
62.9099 1301.00
62.9751 1284.00
63.0403 1284.00
63.1055 1330.00
63.1707 1339.00
63.2359 1279.00
63.3011 1271.00
63.3663 1292.00
63.4315 1315.00
63.4967 1323.00
63.5619 1264.00
63.6271 1350.00
63.6923 1400.00
63.7575 1329.00
63.8227 1352.00
63.8879 1314.00
63.9531 1319.00
64.0183 1351.00
64.0835 1306.00
64.1487 1248.00
64.2139 1313.00
64.2791 1291.00
64.3443 1318.00
64.4095 1310.00
64.4747 1271.00
64.5399 1271.00
64.6051 1295.00
64.6703 1319.00
64.7355 1296.00
64.8007 1236.00
64.8659 1263.00
64.9311 1291.00
64.9963 1340.00
65.0615 1290.00
65.1267 1236.00
65.1919 1311.00
65.2571 1277.00
65.3223 1300.00
65.3875 1296.00
65.4527 1308.00
65.5179 1358.00
65.5831 1237.00
65.6483 1311.00
65.7135 1253.00
65.7787 1242.00
65.8439 1258.00
65.9091 1248.00
65.9743 1198.00
66.0395 1237.00
66.1047 1230.00
66.1699 1233.00
66.2351 1246.00
66.3003 1187.00
66.3655 1258.00
66.4307 1269.00
66.4959 1246.00
66.561 1277.00
66.6263 1218.00
66.6915 1276.00
66.7566 1166.00
66.8218 1189.00
66.887 1224.00
66.9522 1188.00
67.0174 1216.00
67.0826 1322.00
67.1478 1212.00
67.213 1297.00
67.2782 1175.00
67.3434 1256.00
67.4086 1258.00
67.4738 1262.00
67.539 1201.00
67.6042 1217.00
67.6694 1249.00
67.7346 1206.00
67.7998 1189.00
67.865 1185.00
67.9302 1247.00
67.9954 1204.00
68.0606 1196.00
68.1258 1230.00
68.191 1155.00
68.2562 1192.00
68.3214 1177.00
68.3866 1164.00
68.4518 1212.00
68.517 1157.00
68.5822 1201.00
68.6474 1207.00
68.7126 1189.00
68.7778 1170.00
68.843 1201.00
68.9082 1175.00
68.9734 1196.00
69.0386 1156.00
69.1038 1124.00
69.169 1181.00
69.2342 1132.00
69.2994 1117.00
69.3646 1106.00
69.4298 1159.00
69.495 1221.00
69.5602 1141.00
69.6254 1097.00
69.6906 1104.00
69.7558 1174.00
69.821 1175.00
69.8862 1131.00
69.9514 1130.00
70.0166 1150.00
70.0818 1091.00
70.147 1176.00
70.2122 1163.00
70.2774 1105.00
70.3426 1161.00
70.4078 1132.00
70.473 1125.00
70.5382 1071.00
70.6034 1095.00
70.6686 1079.00
70.7338 1104.00
70.799 1108.00
70.8642 1141.00
70.9294 1061.00
70.9946 1152.00
71.0598 1061.00
71.125 1035.00
71.1902 1113.00
71.2554 1074.00
71.3205 1113.00
71.3858 1073.00
71.451 1065.00
71.5162 1105.00
71.5813 1130.00
71.6465 1055.00
71.7117 1137.00
71.7769 1091.00
71.8421 1021.00
71.9073 1035.00
71.9725 1070.00
72.0377 1131.00
72.1029 1014.00
72.1681 1055.00
72.2333 1050.00
72.2985 1029.00
72.3637 1048.00
72.4289 1051.00
72.4941 1047.00
72.5593 1084.00
72.6245 1060.00
72.6897 1025.00
72.7549 1042.00
72.8201 1056.00
72.8853 1057.00
72.9505 1024.00
73.0157 997.00
73.0809 1087.00
73.1461 991.00
73.2113 1084.00
73.2765 1004.00
73.3417 1030.00
73.4069 1086.00
73.4721 1072.00
73.5373 999.00
73.6025 999.00
73.6677 1021.00
73.7329 1005.00
73.7981 1033.00
73.8633 1031.00
73.9285 1031.00
73.9937 985.00
74.0589 973.00
74.1241 977.00
74.1893 1016.00
74.2545 1074.00
74.3197 1032.00
74.3849 1037.00
74.4501 970.00
74.5153 1012.00
74.5805 977.00
74.6457 1055.00
74.7109 991.00
74.7761 1014.00
74.8413 1001.00
74.9065 970.00
74.9717 963.00
75.0369 993.00
75.1021 993.00
75.1673 960.00
75.2325 1019.00
75.2977 975.00
75.3629 1002.00
75.4281 977.00
75.4933 970.00
75.5585 970.00
75.6237 977.00
75.6889 1023.00
75.7541 938.00
75.8193 987.00
75.8845 1016.00
75.9497 967.00
76.0149 965.00
76.0801 940.00
76.1452 993.00
76.2104 892.00
76.2756 964.00
76.3409 868.00
76.406 931.00
76.4712 978.00
76.5364 914.00
76.6016 927.00
76.6668 931.00
76.732 992.00
76.7972 950.00
76.8624 926.00
76.9276 985.00
76.9928 987.00
77.058 966.00
77.1232 922.00
77.1884 974.00
77.2536 894.00
77.3188 941.00
77.384 939.00
77.4492 928.00
77.5144 944.00
77.5796 961.00
77.6448 906.00
77.71 965.00
77.7752 916.00
77.8404 874.00
77.9056 940.00
77.9708 874.00
78.036 861.00
78.1012 967.00
78.1664 881.00
78.2316 924.00
78.2968 860.00
78.362 892.00
78.4272 907.00
78.4924 899.00
78.5576 934.00
78.6228 903.00
78.688 916.00
78.7532 916.00
78.8184 925.00
78.8836 925.00
78.9488 888.00
79.014 934.00
79.0792 898.00
79.1444 929.00
79.2096 864.00
79.2748 950.00
79.34 932.00
79.4052 921.00
79.4704 892.00
79.5356 922.00
79.6008 876.00
79.666 888.00
79.7312 906.00
79.7964 888.00
79.8616 886.00
79.9268 929.00
79.992 920.00
80.0572 899.00
80.1224 877.00
80.1876 847.00
80.2528 916.00
80.318 834.00
80.3832 903.00
80.4484 863.00
80.5136 891.00
80.5788 844.00
80.644 968.00
80.7092 871.00
80.7744 877.00
80.8396 851.00
80.9048 849.00
80.9699 874.00
81.0351 854.00
81.1003 819.00
81.1655 909.00
81.2307 910.00
81.2959 857.00
81.3611 869.00
81.4263 827.00
81.4915 857.00
81.5567 913.00
81.6219 833.00
81.6871 848.00
81.7523 861.00
81.8175 837.00
81.8827 879.00
81.9479 898.00
82.0131 872.00
82.0783 860.00
82.1435 813.00
82.2087 855.00
82.2739 866.00
82.3391 814.00
82.4043 853.00
82.4695 819.00
82.5347 877.00
82.5999 826.00
82.6651 814.00
82.7303 879.00
82.7955 795.00
82.8607 791.00
82.9259 843.00
82.9911 856.00
83.0563 840.00
83.1215 785.00
83.1867 843.00
83.2519 823.00
83.3171 800.00
83.3823 857.00
83.4475 838.00
83.5127 836.00
83.5779 802.00
83.6431 784.00
83.7083 796.00
83.7735 872.00
83.8387 795.00
83.9039 796.00
83.9691 792.00
84.0343 771.00
84.0995 829.00
84.1647 840.00
84.2299 832.00
84.2951 847.00
84.3603 826.00
84.4255 837.00
84.4907 797.00
84.5559 839.00
84.6211 858.00
84.6863 820.00
84.7515 866.00
84.8167 800.00
84.8819 825.00
84.9471 833.00
85.0123 770.00
85.0775 828.00
85.1427 803.00
85.2079 758.00
85.2731 794.00
85.3383 842.00
85.4035 775.00
85.4687 806.00
85.5339 794.00
85.5991 841.00
85.6643 823.00
85.7295 866.00
85.7946 792.00
85.8598 826.00
85.925 815.00
85.9903 795.00
86.0554 806.00
86.1206 820.00
86.1858 846.00
86.251 748.00
86.3162 798.00
86.3814 819.00
86.4466 824.00
86.5118 794.00
86.577 828.00
86.6422 786.00
86.7074 825.00
86.7726 783.00
86.8378 815.00
86.903 820.00
86.9682 795.00
87.0334 816.00
87.0986 806.00
87.1638 815.00
87.229 759.00
87.2942 825.00
87.3594 760.00
87.4246 800.00
87.4898 813.00
87.555 836.00
87.6202 792.00
87.6854 820.00
87.7506 776.00
87.8158 822.00
87.881 824.00
87.9462 845.00
88.0114 837.00
88.0766 809.00
88.1418 805.00
88.207 837.00
88.2722 823.00
88.3374 788.00
88.4026 762.00
88.4678 806.00
88.533 761.00
88.5982 845.00
88.6634 819.00
88.7286 823.00
88.7938 824.00
88.859 798.00
88.9242 814.00
88.9894 793.00
89.0546 797.00
89.1198 753.00
89.185 766.00
89.2502 823.00
89.3154 766.00
89.3806 758.00
89.4458 796.00
89.511 776.00
89.5762 742.00
89.6414 770.00
89.7066 783.00
89.7718 778.00
89.837 772.00
89.9022 824.00
89.9674 806.00
90.0326 828.00
90.0978 844.00
90.163 794.00
90.2282 806.00
90.2934 792.00
90.3586 794.00
90.4238 812.00
90.489 756.00
90.5542 785.00
90.6193 805.00
90.6845 771.00
90.7497 768.00
90.8149 821.00
90.8801 790.00
90.9453 775.00
91.0105 855.00
91.0757 840.00
91.1409 800.00
91.2061 762.00
91.2713 766.00
91.3365 816.00
91.4017 787.00
91.4669 736.00
91.5321 793.00
91.5973 753.00
91.6625 751.00
91.7277 808.00
91.7929 789.00
91.8581 809.00
91.9233 736.00
91.9885 852.00
92.0537 815.00
92.1189 748.00
92.1841 804.00
92.2493 796.00
92.3145 764.00
92.3797 780.00
92.4449 796.00
92.5101 770.00
92.5753 791.00
92.6405 770.00
92.7057 765.00
92.7709 804.00
92.8361 806.00
92.9013 818.00
92.9665 797.00
93.0317 804.00
93.0969 792.00
93.1621 776.00
93.2273 797.00
93.2925 832.00
93.3577 736.00
93.4229 803.00
93.4881 762.00
93.5533 788.00
93.6185 802.00
93.6837 768.00
93.7489 762.00
93.8141 731.00
93.8793 782.00
93.9445 815.00
94.0097 757.00
94.0749 737.00
94.1401 789.00
94.2053 773.00
94.2705 805.00
94.3357 808.00
94.4009 792.00
94.4661 780.00
94.5313 761.00
94.5965 742.00
94.6617 767.00
94.7269 771.00
94.7921 770.00
94.8573 772.00
94.9225 732.00
94.9877 812.00
95.0529 777.00
95.1181 782.00
95.1833 806.00
95.2485 766.00
95.3137 760.00
95.3789 767.00
95.444 771.00
95.5092 729.00
95.5744 781.00
95.6396 768.00
95.7048 782.00
95.77 727.00
95.8352 806.00
95.9004 789.00
95.9656 770.00
96.0308 757.00
96.096 776.00
96.1612 748.00
96.2264 777.00
96.2916 804.00
96.3568 755.00
96.422 786.00
96.4872 772.00
96.5524 742.00
96.6176 787.00
96.6828 808.00
96.748 787.00
96.8132 775.00
96.8784 749.00
96.9436 789.00
97.0088 761.00
97.074 753.00
97.1392 821.00
97.2044 740.00
97.2696 780.00
97.3348 776.00
97.4 779.00
97.4652 790.00
97.5304 750.00
97.5956 781.00
97.6608 757.00
97.726 783.00
97.7912 784.00
97.8564 795.00
97.9216 786.00
97.9868 745.00
98.052 765.00
98.1172 797.00
98.1824 722.00
98.2476 775.00
98.3128 796.00
98.378 795.00
98.4432 784.00
98.5084 815.00
98.5736 753.00
98.6388 782.00
98.704 796.00
98.7692 825.00
98.8344 827.00
98.8996 824.00
98.9648 830.00
99.03 750.00
99.0952 785.00
99.1604 788.00
99.2256 799.00
99.2908 747.00
99.356 746.00
99.4212 762.00
99.4864 764.00
99.5516 767.00
99.6168 734.00
99.682 751.00
99.7472 791.00
99.8124 807.00
99.8776 763.00
99.9428 745.00
100.008 785.00
100.073 806.00
100.095 742.00