File: data/xrd_creation/results/NSC_38.xy
9.903433 2953.00
9.968632 2943.00
10.0338 2910.00
10.099 2902.00
10.1642 2856.00
10.2294 2878.00
10.2946 2857.00
10.3598 2810.00
10.425 2865.00
10.4902 2957.00
10.5554 2861.00
10.6206 2930.00
10.6858 2857.00
10.751 2762.00
10.8162 2814.00
10.8814 2780.00
10.9466 2663.00
11.0118 2756.00
11.077 2681.00
11.1422 2593.00
11.2074 2577.00
11.2726 2464.00
11.3378 2487.00
11.403 2661.00
11.4682 2611.00
11.5334 2499.00
11.5986 2511.00
11.6638 2464.00
11.729 2446.00
11.7942 2459.00
11.8594 2419.00
11.9246 2447.00
11.9898 2437.00
12.055 2484.00
12.1202 2473.00
12.1854 2396.00
12.2506 2344.00
12.3158 2488.00
12.381 2391.00
12.4462 2395.00
12.5114 2405.00
12.5766 2422.00
12.6418 2399.00
12.707 2439.00
12.7722 2380.00
12.8374 2392.00
12.9026 2391.00
12.9678 2381.00
13.033 2372.00
13.0982 2453.00
13.1634 2344.00
13.2286 2408.00
13.2938 2344.00
13.359 2249.00
13.4242 2325.00
13.4894 2333.00
13.5546 2297.00
13.6198 2365.00
13.685 2397.00
13.7502 2346.00
13.8154 2421.00
13.8805 2458.00
13.9457 2733.00
14.0109 2783.00
14.0761 2653.00
14.1413 2396.00
14.2065 2344.00
14.2717 2330.00
14.3369 2358.00
14.4021 2458.00
14.4673 2297.00
14.5325 2268.00
14.5977 2363.00
14.6629 2383.00
14.7281 2464.00
14.7933 2344.00
14.8585 2665.00
14.9237 2797.00
14.9889 2665.00
15.0541 2481.00
15.1193 2386.00
15.1845 2233.00
15.2497 2232.00
15.3149 2229.00
15.3801 2287.00
15.4453 2276.00
15.5105 2216.00
15.5757 2290.00
15.6409 2175.00
15.7061 2252.00
15.7713 2249.00
15.8365 2176.00
15.9017 2188.00
15.9669 2211.00
16.0321 2136.00
16.0973 2221.00
16.1625 2171.00
16.2277 2233.00
16.2929 2148.00
16.3581 2115.00
16.4233 2194.00
16.4885 2142.00
16.5537 2199.00
16.6189 2218.00
16.6841 2286.00
16.7493 2122.00
16.8145 2201.00
16.8797 2221.00
16.9449 2238.00
17.0101 2241.00
17.0753 2263.00
17.1405 2325.00
17.2057 2175.00
17.2709 2167.00
17.3361 2184.00
17.4013 2107.00
17.4665 2199.00
17.5317 2236.00
17.5969 2225.00
17.6621 2283.00
17.7273 2375.00
17.7925 2348.00
17.8577 2219.00
17.9229 2036.00
17.9881 2057.00
18.0533 2048.00
18.1185 2111.00
18.1837 2015.00
18.2489 2080.00
18.3141 2051.00
18.3793 2089.00
18.4445 1936.00
18.5097 2085.00
18.5749 2025.00
18.6401 2110.00
18.7052 2039.00
18.7704 2048.00
18.8356 2091.00
18.9008 2031.00
18.966 2094.00
19.0312 2110.00
19.0964 2048.00
19.1616 2079.00
19.2268 2091.00
19.292 2153.00
19.3572 2393.00
19.4224 2502.00
19.4876 2847.00
19.5528 3501.00
19.618 3949.00
19.6832 4295.00
19.7484 3921.00
19.8136 3915.00
19.8788 3775.00
19.944 2957.00
20.0092 2361.00
20.0744 2261.00
20.1396 2274.00
20.2048 2162.00
20.27 2094.00
20.3352 2051.00
20.4004 2044.00
20.4656 1966.00
20.5308 2066.00
20.596 2013.00
20.6612 2156.00
20.7264 2090.00
20.7916 2181.00
20.8568 2182.00
20.922 2277.00
20.9872 2592.00
21.0524 2607.00
21.1176 2232.00
21.1828 2118.00
21.248 2113.00
21.3132 2220.00
21.3784 2244.00
21.4436 2130.00
21.5088 2195.00
21.574 2420.00
21.6392 2418.00
21.7044 2484.00
21.7696 2644.00
21.8348 2669.00
21.9 2356.00
21.9652 2147.00
22.0304 2049.00
22.0956 2087.00
22.1608 2051.00
22.226 2005.00
22.2912 2109.00
22.3564 2014.00
22.4216 2092.00
22.4868 2225.00
22.552 2458.00
22.6172 2921.00
22.6824 3282.00
22.7476 3071.00
22.8128 2441.00
22.878 2080.00
22.9432 2162.00
23.0084 2248.00
23.0736 2655.00
23.1388 2897.00
23.204 2860.00
23.2692 2513.00
23.3344 2007.00
23.3996 1929.00
23.4647 1895.00
23.5299 1879.00
23.5951 1868.00
23.6603 1871.00
23.7255 1894.00
23.7907 1919.00
23.8559 1893.00
23.9211 1929.00
23.9863 1908.00
24.0515 1933.00
24.1167 2127.00
24.1819 2411.00
24.2471 2690.00
24.3123 3048.00
24.3775 3038.00
24.4427 2446.00
24.5079 2087.00
24.5731 2177.00
24.6383 2209.00
24.7035 2436.00
24.7687 2495.00
24.8339 2424.00
24.8991 2038.00
24.9643 1882.00
25.0295 1864.00
25.0947 1865.00
25.1599 1781.00
25.2251 1845.00
25.2903 1894.00
25.3555 1785.00
25.4207 1874.00
25.4859 1825.00
25.5511 1770.00
25.6163 1815.00
25.6815 1858.00
25.7467 1761.00
25.8119 1847.00
25.8771 1751.00
25.9423 1878.00
26.0075 1862.00
26.0727 1827.00
26.1379 1823.00
26.2031 1783.00
26.2683 1813.00
26.3335 1730.00
26.3987 1870.00
26.4639 1823.00
26.5291 1842.00
26.5943 1795.00
26.6595 1740.00
26.7247 1751.00
26.7899 1826.00
26.8551 1652.00
26.9203 1760.00
26.9855 1747.00
27.0507 1863.00
27.1159 1723.00
27.1811 1877.00
27.2463 1764.00
27.3115 1826.00
27.3767 1798.00
27.4419 1866.00
27.5071 1886.00
27.5723 1879.00
27.6375 1899.00
27.7027 1984.00
27.7679 2282.00
27.8331 2647.00
27.8983 3058.00
27.9635 2949.00
28.0287 2549.00
28.0939 2260.00
28.1591 2279.00
28.2243 2466.00
28.2894 2980.00
28.3546 4075.00
28.4198 6356.00
28.485 8099.00
28.5502 6943.00
28.6154 4286.00
28.6806 2806.00
28.7458 2312.00
28.811 2045.00
28.8762 2032.00
28.9414 1909.00
29.0066 1879.00
29.0718 1821.00
29.137 1753.00
29.2022 1862.00
29.2674 1809.00
29.3326 1774.00
29.3978 1870.00
29.463 1892.00
29.5282 1846.00
29.5934 1797.00
29.6586 1796.00
29.7238 1780.00
29.789 1882.00
29.8542 1883.00
29.9194 1800.00
29.9846 1837.00
30.0498 1798.00
30.115 1862.00
30.1802 1853.00
30.2454 1855.00
30.3106 2026.00
30.3758 1915.00
30.441 2025.00
30.5062 2193.00
30.5714 2289.00
30.6366 2581.00
30.7018 2983.00
30.767 4526.00
30.8322 7476.00
30.8974 8765.00
30.9626 6613.00
31.0278 4922.00
31.093 4877.00
31.1582 4819.00
31.2234 4107.00
31.2886 3274.00
31.3538 2712.00
31.419 2504.00
31.4842 2489.00
31.5494 2633.00
31.6146 3325.00
31.6798 4748.00
31.745 5929.00
31.8102 5431.00
31.8754 3687.00
31.9406 2584.00
32.0058 2048.00
32.071 1929.00
32.1362 1804.00
32.2014 1754.00
32.2666 1808.00
32.3318 1865.00
32.397 1804.00
32.4622 1675.00
32.5274 1666.00
32.5926 1741.00
32.6578 1747.00
32.723 1718.00
32.7882 1720.00
32.8534 1738.00
32.9186 1700.00
32.9838 1755.00
33.0489 1835.00
33.1141 1856.00
33.1793 1955.00
33.2445 1982.00
33.3097 2181.00
33.3749 2204.00
33.4401 2214.00
33.5053 1968.00
33.5705 1858.00
33.6357 1768.00
33.7009 1843.00
33.7661 1872.00
33.8313 1861.00
33.8965 1824.00
33.9617 1870.00
34.0269 2000.00
34.0921 2219.00
34.1573 2343.00
34.2225 2990.00
34.2877 3920.00
34.3529 5527.00
34.4181 6988.00
34.4833 6789.00
34.5485 5565.00
34.6137 4045.00
34.6789 3239.00
34.7441 2829.00
34.8093 2475.00
34.8745 2164.00
34.9397 2006.00
35.0049 1756.00
35.0701 1697.00
35.1353 1677.00
35.2005 1630.00
35.2657 1729.00
35.3309 1720.00
35.3961 1825.00
35.4613 2056.00
35.5265 2267.00
35.5917 2984.00
35.6569 3119.00
35.7221 3691.00
35.7873 3314.00
35.8525 2594.00
35.9177 1925.00
35.9829 1731.00
36.0481 1674.00
36.1133 1701.00
36.1785 1836.00
36.2437 1619.00
36.3089 1706.00
36.3741 1586.00
36.4393 1532.00
36.5045 1522.00
36.5697 1495.00
36.6349 1459.00
36.7001 1520.00
36.7653 1503.00
36.8305 1416.00
36.8957 1418.00
36.9609 1453.00
37.0261 1411.00
37.0913 1461.00
37.1565 1429.00
37.2217 1388.00
37.2869 1459.00
37.3521 1419.00
37.4173 1487.00
37.4825 1478.00
37.5477 1479.00
37.6129 1555.00
37.6781 1509.00
37.7433 1477.00
37.8085 1536.00
37.8736 1562.00
37.9388 1722.00
38.004 1674.00
38.0692 1567.00
38.1344 1458.00
38.1996 1417.00
38.2648 1398.00
38.33 1461.00
38.3952 1420.00
38.4604 1373.00
38.5256 1377.00
38.5908 1370.00
38.656 1429.00
38.7212 1504.00
38.7864 1573.00
38.8516 1667.00
38.9168 1770.00
38.982 1570.00
39.0472 1512.00
39.1124 1483.00
39.1776 1432.00
39.2428 1485.00
39.308 1481.00
39.3732 1390.00
39.4384 1418.00
39.5036 1410.00
39.5688 1453.00
39.634 1579.00
39.6992 1599.00
39.7644 1519.00
39.8296 1455.00
39.8948 1555.00
39.96 1496.00
40.0252 1515.00
40.0904 1527.00
40.1556 1496.00
40.2208 1405.00
40.286 1324.00
40.3512 1355.00
40.4164 1403.00
40.4816 1381.00
40.5468 1353.00
40.612 1330.00
40.6772 1384.00
40.7424 1431.00
40.8076 1453.00
40.8728 1590.00
40.938 1895.00
41.0032 2207.00
41.0684 2166.00
41.1336 2018.00
41.1988 1787.00
41.264 1790.00
41.3292 1755.00
41.3944 1848.00
41.4596 1874.00
41.5248 1738.00
41.59 1695.00
41.6552 1858.00
41.7204 1950.00
41.7856 1927.00
41.8508 1817.00
41.916 1660.00
41.9812 1609.00
42.0464 1669.00
42.1116 1753.00
42.1768 1728.00
42.242 1600.00
42.3072 1495.00
42.3724 1517.00
42.4376 1584.00
42.5028 1490.00
42.568 1497.00
42.6332 1486.00
42.6983 1387.00
42.7635 1311.00
42.8287 1287.00
42.8939 1372.00
42.9591 1325.00
43.0243 1473.00
43.0895 1417.00
43.1547 1310.00
43.2199 1307.00
43.2851 1373.00
43.3503 1362.00
43.4155 1379.00
43.4807 1426.00
43.5459 1361.00
43.6111 1402.00
43.6763 1447.00
43.7415 1322.00
43.8067 1336.00
43.8719 1393.00
43.9371 1394.00
44.0023 1412.00
44.0675 1378.00
44.1327 1389.00
44.1979 1366.00
44.2631 1450.00
44.3283 1428.00
44.3935 1514.00
44.4587 1529.00
44.5239 1667.00
44.5891 1633.00
44.6543 1664.00
44.7195 1645.00
44.7847 1685.00
44.8499 1731.00
44.9151 1734.00
44.9803 1833.00
45.0455 1908.00
45.1107 1810.00
45.1759 1744.00
45.2411 1569.00
45.3063 1529.00
45.3715 1433.00
45.4367 1425.00
45.5019 1352.00
45.5671 1527.00
45.6323 1560.00
45.6975 1690.00
45.7627 1843.00
45.8279 1954.00
45.8931 2031.00
45.9583 2024.00
46.0235 1842.00
46.0887 1679.00
46.1539 1459.00
46.2191 1405.00
46.2843 1433.00
46.3495 1438.00
46.4147 1458.00
46.4799 1480.00
46.5451 1527.00
46.6103 1641.00
46.6755 1616.00
46.7407 1647.00
46.8059 1822.00
46.8711 1935.00
46.9363 2087.00
47.0015 2324.00
47.0667 2175.00
47.1319 1935.00
47.1971 1808.00
47.2623 1699.00
47.3275 1513.00
47.3927 1512.00
47.4579 1462.00
47.523 1439.00
47.5882 1376.00
47.6534 1307.00
47.7186 1233.00
47.7838 1341.00
47.849 1391.00
47.9142 1329.00
47.9794 1303.00
48.0446 1265.00
48.1098 1344.00
48.175 1307.00
48.2402 1431.00
48.3054 1402.00
48.3706 1474.00
48.4358 1373.00
48.501 1506.00
48.5662 1455.00
48.6314 1486.00
48.6966 1432.00
48.7618 1431.00
48.827 1425.00
48.8922 1398.00
48.9574 1406.00
49.0226 1484.00
49.0878 1475.00
49.153 1501.00
49.2182 1663.00
49.2834 1764.00
49.3486 1992.00
49.4138 2104.00
49.479 2568.00
49.5442 2764.00
49.6094 2502.00
49.6746 2184.00
49.7398 1773.00
49.805 1506.00
49.8702 1441.00
49.9354 1389.00
50.0006 1431.00
50.0658 1434.00
50.131 1509.00
50.1962 1529.00
50.2614 1644.00
50.3266 2116.00
50.3918 2622.00
50.457 2595.00
50.5222 2528.00
50.5874 2136.00
50.6526 1960.00
50.7178 1963.00
50.783 2183.00
50.8482 2333.00
50.9134 2377.00
50.9786 2187.00
51.0438 2085.00
51.109 2062.00
51.1742 2334.00
51.2394 3174.00
51.3046 3363.00
51.3698 2799.00
51.435 2732.00
51.5002 2053.00
51.5654 1717.00
51.6306 1653.00
51.6958 1583.00
51.761 1557.00
51.8262 1412.00
51.8914 1414.00
51.9566 1389.00
52.0218 1392.00
52.087 1257.00
52.1522 1287.00
52.2174 1313.00
52.2826 1227.00
52.3477 1320.00
52.4129 1352.00
52.4781 1291.00
52.5433 1393.00
52.6085 1306.00
52.6737 1284.00
52.7389 1388.00
52.8041 1373.00
52.8693 1331.00
52.9345 1424.00
52.9997 1442.00
53.0649 1466.00
53.1301 1405.00
53.1953 1411.00
53.2605 1540.00
53.3257 1448.00
53.3909 1585.00
53.4561 1536.00
53.5213 1699.00
53.5865 1748.00
53.6517 1810.00
53.7169 1814.00
53.7821 1716.00
53.8473 1629.00
53.9125 1586.00
53.9777 1493.00
54.0429 1450.00
54.1081 1592.00
54.1733 1576.00
54.2385 1749.00
54.3037 1913.00
54.3689 1959.00
54.4341 1798.00
54.4993 1609.00
54.5645 1501.00
54.6297 1473.00
54.6949 1399.00
54.7601 1355.00
54.8253 1391.00
54.8905 1380.00
54.9557 1328.00
55.0209 1411.00
55.0861 1277.00
55.1513 1381.00
55.2165 1350.00
55.2817 1478.00
55.3469 1422.00
55.4121 1492.00
55.4773 1725.00
55.5425 1909.00
55.6077 1980.00
55.6729 2050.00
55.7381 2041.00
55.8033 1946.00
55.8685 1727.00
55.9337 1546.00
55.9989 1598.00
56.0641 1628.00
56.1293 1598.00
56.1945 1866.00
56.2597 1958.00
56.3249 1815.00
56.3901 1781.00
56.4553 1614.00
56.5205 1397.00
56.5857 1371.00
56.6509 1339.00
56.7161 1301.00
56.7813 1314.00
56.8465 1283.00
56.9117 1251.00
56.9769 1314.00
57.042 1287.00
57.1073 1275.00
57.1724 1297.00
57.2376 1405.00
57.3028 1401.00
57.368 1613.00
57.4332 1644.00
57.4984 1735.00
57.5636 1655.00
57.6288 1631.00
57.694 1496.00
57.7592 1483.00
57.8244 1443.00
57.8896 1571.00
57.9548 1484.00
58.02 1390.00
58.0852 1445.00
58.1504 1507.00
58.2156 1508.00
58.2808 1531.00
58.346 1522.00
58.4112 1437.00
58.4764 1549.00
58.5416 1550.00
58.6068 1534.00
58.672 1465.00
58.7372 1533.00
58.8024 1420.00
58.8676 1454.00
58.9328 1439.00
58.998 1498.00
59.0632 1597.00
59.1284 1561.00
59.1936 1641.00
59.2588 1732.00
59.324 1885.00
59.3892 1862.00
59.4544 1863.00
59.5196 1878.00
59.5848 1675.00
59.65 1584.00
59.7152 1510.00
59.7804 1454.00
59.8456 1412.00
59.9108 1394.00
59.976 1515.00
60.0412 1750.00
60.1064 1855.00
60.1716 1886.00
60.2368 1919.00
60.302 1785.00
60.3672 1775.00
60.4324 1750.00
60.4976 1611.00
60.5628 1612.00
60.628 1519.00
60.6932 1596.00
60.7584 1735.00
60.8236 2040.00
60.8888 2754.00
60.954 2583.00
61.0192 2294.00
61.0844 2112.00
61.1496 1813.00
61.2148 1695.00
61.28 1696.00
61.3452 1771.00
61.4104 1847.00
61.4756 1944.00
61.5408 2012.00
61.606 1820.00
61.6712 1761.00
61.7364 1602.00
61.8016 1470.00
61.8667 1395.00
61.932 1367.00
61.9971 1441.00
62.0623 1456.00
62.1275 1557.00
62.1927 1623.00
62.2579 1752.00
62.3231 1662.00
62.3883 1674.00
62.4535 1668.00
62.5187 1525.00
62.5839 1513.00
62.6491 1452.00
62.7143 1436.00
62.7795 1295.00
62.8447 1409.00
62.9099 1424.00
62.9751 1650.00
63.0403 1737.00
63.1055 1722.00
63.1707 1591.00
63.2359 1577.00
63.3011 1430.00
63.3663 1371.00
63.4315 1282.00
63.4967 1304.00
63.5619 1286.00
63.6271 1228.00
63.6923 1225.00
63.7575 1235.00
63.8227 1324.00
63.8879 1403.00
63.9531 1455.00
64.0183 1292.00
64.0835 1336.00
64.1487 1375.00
64.2139 1230.00
64.2791 1254.00
64.3443 1265.00
64.4095 1354.00
64.4747 1371.00
64.5399 1349.00
64.6051 1351.00
64.6703 1282.00
64.7355 1337.00
64.8007 1361.00
64.8659 1245.00
64.9311 1268.00
64.9963 1238.00
65.0615 1392.00
65.1267 1230.00
65.1919 1360.00
65.2571 1328.00
65.3223 1390.00
65.3875 1480.00
65.4527 1314.00
65.5179 1388.00
65.5831 1395.00
65.6483 1448.00
65.7135 1378.00
65.7787 1529.00
65.8439 1481.00
65.9091 1677.00
65.9743 1607.00
66.0395 1544.00
66.1047 1577.00
66.1699 1565.00
66.2351 1476.00
66.3003 1402.00
66.3655 1337.00
66.4307 1398.00
66.4959 1363.00
66.561 1374.00
66.6263 1312.00
66.6915 1242.00
66.7566 1261.00
66.8218 1303.00
66.887 1266.00
66.9522 1299.00
67.0174 1287.00
67.0826 1219.00
67.1478 1275.00
67.213 1171.00
67.2782 1103.00
67.3434 1111.00
67.4086 1125.00
67.4738 1191.00
67.539 1087.00
67.6042 1137.00
67.6694 1128.00
67.7346 1135.00
67.7998 1166.00
67.865 1133.00
67.9302 1108.00
67.9954 1148.00
68.0606 1213.00
68.1258 1131.00
68.191 1164.00
68.2562 1253.00
68.3214 1279.00
68.3866 1211.00
68.4518 1270.00
68.517 1218.00
68.5822 1161.00
68.6474 1225.00
68.7126 1234.00
68.7778 1256.00
68.843 1191.00
68.9082 1281.00
68.9734 1254.00
69.0386 1293.00
69.1038 1213.00
69.169 1249.00
69.2342 1225.00
69.2994 1287.00
69.3646 1224.00
69.4298 1273.00
69.495 1213.00
69.5602 1129.00
69.6254 1199.00
69.6906 1197.00
69.7558 1120.00
69.821 1219.00
69.8862 1176.00
69.9514 1163.00
70.0166 1196.00
70.0818 1100.00
70.147 1066.00
70.2122 1096.00
70.2774 1063.00
70.3426 1115.00
70.4078 1173.00
70.473 1105.00
70.5382 1168.00
70.6034 1124.00
70.6686 1126.00
70.7338 1126.00
70.799 1127.00
70.8642 1089.00
70.9294 1171.00
70.9946 1097.00
71.0598 1175.00
71.125 1226.00
71.1902 1271.00
71.2554 1345.00
71.3205 1359.00
71.3858 1428.00
71.451 1350.00
71.5162 1329.00
71.5813 1284.00
71.6465 1263.00
71.7117 1290.00
71.7769 1164.00
71.8421 1224.00
71.9073 1240.00
71.9725 1258.00
72.0377 1262.00
72.1029 1277.00
72.1681 1298.00
72.2333 1255.00
72.2985 1334.00
72.3637 1378.00
72.4289 1461.00
72.4941 1231.00
72.5593 1249.00
72.6245 1253.00
72.6897 1212.00
72.7549 1217.00
72.8201 1214.00
72.8853 1161.00
72.9505 1217.00
73.0157 1124.00
73.0809 1168.00
73.1461 1179.00
73.2113 1091.00
73.2765 1160.00
73.3417 1181.00
73.4069 1147.00
73.4721 1111.00
73.5373 1146.00
73.6025 1152.00
73.6677 1123.00
73.7329 1079.00
73.7981 1139.00
73.8633 1165.00
73.9285 1241.00
73.9937 1123.00
74.0589 1182.00
74.1241 1190.00
74.1893 1192.00
74.2545 1115.00
74.3197 1175.00
74.3849 1111.00
74.4501 1061.00
74.5153 1102.00
74.5805 1121.00
74.6457 1154.00
74.7109 1162.00
74.7761 1152.00
74.8413 1146.00
74.9065 1208.00
74.9717 1118.00
75.0369 1135.00
75.1021 1186.00
75.1673 1266.00
75.2325 1376.00
75.2977 1354.00
75.3629 1387.00
75.4281 1354.00
75.4933 1369.00
75.5585 1390.00
75.6237 1289.00
75.6889 1220.00
75.7541 1225.00
75.8193 1192.00
75.8845 1109.00
75.9497 1164.00
76.0149 1128.00
76.0801 1164.00
76.1452 1144.00
76.2104 1068.00
76.2756 1186.00
76.3409 1099.00
76.406 1115.00
76.4712 1184.00
76.5364 1256.00
76.6016 1322.00
76.6668 1289.00
76.732 1278.00
76.7972 1314.00
76.8624 1251.00
76.9276 1202.00
76.9928 1223.00
77.058 1201.00
77.1232 1092.00
77.1884 1164.00
77.2536 1139.00
77.3188 1106.00
77.384 1204.00
77.4492 1085.00
77.5144 1134.00
77.5796 1220.00
77.6448 1185.00
77.71 1093.00
77.7752 1129.00
77.8404 1167.00
77.9056 1145.00
77.9708 1158.00
78.036 1181.00
78.1012 1174.00
78.1664 1095.00
78.2316 1197.00
78.2968 1111.00
78.362 1156.00
78.4272 1062.00
78.4924 1080.00
78.5576 1103.00
78.6228 1026.00
78.688 1094.00
78.7532 1094.00
78.8184 1163.00
78.8836 1072.00
78.9488 1107.00
79.014 1078.00
79.0792 1192.00
79.1444 1150.00
79.2096 1194.00
79.2748 1224.00
79.34 1240.00
79.4052 1157.00
79.4704 1180.00
79.5356 1122.00
79.6008 1149.00
79.666 1120.00
79.7312 1135.00
79.7964 1150.00
79.8616 1053.00
79.9268 1097.00
79.992 1106.00
80.0572 1144.00
80.1224 1073.00
80.1876 1100.00
80.2528 1114.00
80.318 1155.00
80.3832 1132.00
80.4484 1195.00
80.5136 1180.00
80.5788 1134.00
80.644 1195.00
80.7092 1202.00
80.7744 1194.00
80.8396 1141.00
80.9048 1263.00
80.9699 1047.00
81.0351 1111.00
81.1003 1166.00
81.1655 1054.00
81.2307 1107.00
81.2959 1007.00
81.3611 1071.00
81.4263 1084.00
81.4915 1175.00
81.5567 1084.00
81.6219 1119.00
81.6871 1185.00
81.7523 1212.00
81.8175 1234.00
81.8827 1155.00
81.9479 1199.00
82.0131 1278.00
82.0783 1300.00
82.1435 1215.00
82.2087 1188.00
82.2739 1362.00
82.3391 1301.00
82.4043 1149.00
82.4695 1132.00
82.5347 1171.00
82.5999 1107.00
82.6651 1204.00
82.7303 1192.00
82.7955 1207.00
82.8607 1202.00
82.9259 1173.00
82.9911 1190.00
83.0563 1139.00
83.1215 1097.00
83.1867 1177.00
83.2519 1311.00
83.3171 1447.00
83.3823 1394.00
83.4475 1323.00
83.5127 1271.00
83.5779 1253.00
83.6431 1305.00
83.7083 1214.00
83.7735 1152.00
83.8387 1132.00
83.9039 1090.00
83.9691 1153.00
84.0343 1197.00
84.0995 1183.00
84.1647 1103.00
84.2299 1131.00
84.2951 1133.00
84.3603 1149.00
84.4255 1162.00
84.4907 1169.00
84.5559 1102.00
84.6211 1047.00
84.6863 1142.00
84.7515 1070.00
84.8167 1170.00
84.8819 1094.00
84.9471 1131.00
85.0123 1176.00
85.0775 1139.00
85.1427 1136.00
85.2079 1101.00
85.2731 1134.00
85.3383 1039.00
85.4035 1110.00
85.4687 1139.00
85.5339 1110.00
85.5991 1086.00
85.6643 1039.00
85.7295 1085.00
85.7946 1044.00
85.8598 1104.00
85.925 1178.00
85.9903 1142.00
86.0554 1309.00
86.1206 1281.00
86.1858 1241.00
86.251 1200.00
86.3162 1185.00
86.3814 1244.00
86.4466 1157.00
86.5118 1204.00
86.577 1173.00
86.6422 1193.00
86.7074 1164.00
86.7726 1035.00
86.8378 1206.00
86.903 1207.00
86.9682 1051.00
87.0334 1157.00
87.0986 1099.00
87.1638 1138.00
87.229 1179.00
87.2942 1169.00
87.3594 1120.00
87.4246 1208.00
87.4898 1138.00
87.555 1133.00
87.6202 1083.00
87.6854 1169.00
87.7506 1204.00
87.8158 1178.00
87.881 1147.00
87.9462 1120.00
88.0114 1151.00
88.0766 1123.00
88.1418 1186.00
88.207 1124.00
88.2722 1192.00
88.3374 1273.00
88.4026 1226.00
88.4678 1229.00
88.533 1170.00
88.5982 1197.00
88.6634 1253.00
88.7286 1236.00
88.7938 1213.00
88.859 1162.00
88.9242 1140.00
88.9894 1135.00
89.0546 1116.00
89.1198 1126.00
89.185 1096.00
89.2502 1139.00
89.3154 1144.00
89.3806 1136.00
89.4458 1105.00
89.511 1119.00
89.5762 1147.00
89.6414 1109.00
89.7066 1090.00
89.7718 1173.00
89.837 1208.00
89.9022 1165.00
89.9674 1215.00
90.0326 1270.00
90.0978 1320.00
90.163 1309.00
90.2282 1195.00
90.2934 1247.00
90.3586 1213.00
90.4238 1198.00
90.489 1146.00
90.5542 1114.00
90.6193 1120.00
90.6845 1132.00
90.7497 1053.00
90.8149 1021.00
90.8801 1088.00
90.9453 1164.00
91.0105 1093.00
91.0757 1105.00
91.1409 1094.00
91.2061 1071.00
91.2713 1063.00
91.3365 1134.00
91.4017 1091.00
91.4669 1143.00
91.5321 1115.00
91.5973 1068.00
91.6625 1067.00
91.7277 1082.00
91.7929 1096.00
91.8581 1033.00
91.9233 1111.00
91.9885 964.00
92.0537 1105.00
92.1189 1053.00
92.1841 1076.00
92.2493 1099.00
92.3145 1062.00
92.3797 1047.00
92.4449 1102.00
92.5101 1048.00
92.5753 1108.00
92.6405 1113.00
92.7057 1158.00
92.7709 1135.00
92.8361 1113.00
92.9013 1124.00
92.9665 1075.00
93.0317 1146.00
93.0969 1136.00
93.1621 1156.00
93.2273 1075.00
93.2925 1157.00
93.3577 1131.00
93.4229 1096.00
93.4881 1097.00
93.5533 1120.00
93.6185 1055.00
93.6837 1134.00
93.7489 1096.00
93.8141 1101.00
93.8793 1125.00
93.9445 1106.00
94.0097 1078.00
94.0749 1164.00
94.1401 1103.00
94.2053 1082.00
94.2705 1144.00
94.3357 1076.00
94.4009 1122.00
94.4661 1094.00
94.5313 1072.00
94.5965 1069.00
94.6617 1031.00
94.7269 1098.00
94.7921 1062.00
94.8573 1027.00
94.9225 1146.00
94.9877 1101.00
95.0529 1143.00
95.1181 1183.00
95.1833 1104.00
95.2485 1246.00
95.3137 1223.00
95.3789 1183.00
95.444 1170.00
95.5092 1170.00
95.5744 1208.00
95.6396 1181.00
95.7048 1131.00
95.77 1178.00
95.8352 1126.00
95.9004 1089.00
95.9656 1096.00
96.0308 1105.00
96.096 1121.00
96.1612 1106.00
96.2264 1086.00
96.2916 1190.00
96.3568 1190.00
96.422 1253.00
96.4872 1202.00
96.5524 1253.00
96.6176 1346.00
96.6828 1366.00
96.748 1267.00
96.8132 1279.00
96.8784 1350.00
96.9436 1322.00
97.0088 1248.00
97.074 1270.00
97.1392 1236.00
97.2044 1181.00
97.2696 1143.00
97.3348 1143.00
97.4 1136.00
97.4652 1042.00
97.5304 1052.00
97.5956 1062.00
97.6608 1052.00
97.726 1075.00
97.7912 1083.00
97.8564 1081.00
97.9216 1180.00
97.9868 1128.00
98.052 1227.00
98.1172 1140.00
98.1824 1137.00
98.2476 1094.00
98.3128 1100.00
98.378 1163.00
98.4432 982.00
98.5084 1162.00
98.5736 1078.00
98.6388 1104.00
98.704 1126.00
98.7692 1114.00
98.8344 1167.00
98.8996 1206.00
98.9648 1064.00
99.03 1115.00
99.0952 1076.00
99.1604 1183.00
99.2256 1161.00
99.2908 1199.00
99.356 1197.00
99.4212 1283.00
99.4864 1150.00
99.5516 1119.00
99.6168 1184.00
99.682 1231.00
99.7472 1181.00
99.8124 1168.00
99.8776 1168.00
99.9428 1156.00
100.008 1128.00
100.073 1135.00
100.095 1157.00