File: data/xrd_creation/results/NSC_59.xy
9.903433 2990.00
9.968632 2953.00
10.0338 2818.00
10.099 2853.00
10.1642 2868.00
10.2294 2756.00
10.2946 2803.00
10.3598 2726.00
10.425 2766.00
10.4902 2804.00
10.5554 2722.00
10.6206 2703.00
10.6858 2788.00
10.751 2703.00
10.8162 2660.00
10.8814 2642.00
10.9466 2614.00
11.0118 2597.00
11.077 2555.00
11.1422 2590.00
11.2074 2528.00
11.2726 2544.00
11.3378 2460.00
11.403 2556.00
11.4682 2436.00
11.5334 2449.00
11.5986 2446.00
11.6638 2494.00
11.729 2458.00
11.7942 2485.00
11.8594 2401.00
11.9246 2343.00
11.9898 2295.00
12.055 2276.00
12.1202 2369.00
12.1854 2352.00
12.2506 2254.00
12.3158 2301.00
12.381 2366.00
12.4462 2251.00
12.5114 2320.00
12.5766 2318.00
12.6418 2335.00
12.707 2319.00
12.7722 2231.00
12.8374 2176.00
12.9026 2130.00
12.9678 2166.00
13.033 2158.00
13.0982 2110.00
13.1634 2214.00
13.2286 2108.00
13.2938 2113.00
13.359 2240.00
13.4242 2062.00
13.4894 2090.00
13.5546 2246.00
13.6198 2387.00
13.685 2463.00
13.7502 2746.00
13.8154 3167.00
13.8805 3722.00
13.9457 4095.00
14.0109 3614.00
14.0761 2904.00
14.1413 2317.00
14.2065 2307.00
14.2717 2004.00
14.3369 2104.00
14.4021 2107.00
14.4673 2073.00
14.5325 1990.00
14.5977 2007.00
14.6629 1933.00
14.7281 1983.00
14.7933 2193.00
14.8585 1949.00
14.9237 1945.00
14.9889 2002.00
15.0541 1938.00
15.1193 1981.00
15.1845 1959.00
15.2497 1906.00
15.3149 1976.00
15.3801 1945.00
15.4453 2005.00
15.5105 1948.00
15.5757 1953.00
15.6409 1891.00
15.7061 1941.00
15.7713 1918.00
15.8365 1962.00
15.9017 1849.00
15.9669 1951.00
16.0321 1992.00
16.0973 1957.00
16.1625 1922.00
16.2277 1840.00
16.2929 1895.00
16.3581 1874.00
16.4233 1866.00
16.4885 1829.00
16.5537 1834.00
16.6189 1864.00
16.6841 1826.00
16.7493 1807.00
16.8145 1879.00
16.8797 1823.00
16.9449 1777.00
17.0101 1815.00
17.0753 1801.00
17.1405 1884.00
17.2057 1818.00
17.2709 1793.00
17.3361 1880.00
17.4013 1828.00
17.4665 1772.00
17.5317 1823.00
17.5969 1815.00
17.6621 1798.00
17.7273 1834.00
17.7925 1733.00
17.8577 1755.00
17.9229 1737.00
17.9881 1761.00
18.0533 1800.00
18.1185 1794.00
18.1837 1718.00
18.2489 1830.00
18.3141 1722.00
18.3793 1703.00
18.4445 1752.00
18.5097 1738.00
18.5749 1736.00
18.6401 1726.00
18.7052 1750.00
18.7704 1841.00
18.8356 1809.00
18.9008 1864.00
18.966 1833.00
19.0312 2020.00
19.0964 2438.00
19.1616 3027.00
19.2268 4126.00
19.292 6055.00
19.3572 7972.00
19.4224 8392.00
19.4876 6945.00
19.5528 4484.00
19.618 2932.00
19.6832 2405.00
19.7484 2175.00
19.8136 2282.00
19.8788 2692.00
19.944 3558.00
20.0092 5096.00
20.0744 7757.00
20.1396 10269.00
20.2048 10158.00
20.27 7757.00
20.3352 4855.00
20.4004 3023.00
20.4656 2291.00
20.5308 2062.00
20.596 1944.00
20.6612 1863.00
20.7264 1688.00
20.7916 1743.00
20.8568 1724.00
20.922 1594.00
20.9872 1669.00
21.0524 1721.00
21.1176 1631.00
21.1828 1679.00
21.248 1645.00
21.3132 1650.00
21.3784 1606.00
21.4436 1694.00
21.5088 1596.00
21.574 1696.00
21.6392 1588.00
21.7044 1612.00
21.7696 1708.00
21.8348 1632.00
21.9 1585.00
21.9652 1559.00
22.0304 1616.00
22.0956 1601.00
22.1608 1528.00
22.226 1616.00
22.2912 1503.00
22.3564 1606.00
22.4216 1577.00
22.4868 1690.00
22.552 1612.00
22.6172 1666.00
22.6824 1678.00
22.7476 1634.00
22.8128 1796.00
22.878 1778.00
22.9432 1857.00
23.0084 2143.00
23.0736 2697.00
23.1388 3884.00
23.204 6075.00
23.2692 8935.00
23.3344 11057.00
23.3996 10081.00
23.4647 7130.00
23.5299 4351.00
23.5951 2691.00
23.6603 2010.00
23.7255 1846.00
23.7907 1721.00
23.8559 1659.00
23.9211 1602.00
23.9863 1687.00
24.0515 1510.00
24.1167 1626.00
24.1819 1567.00
24.2471 1616.00
24.3123 1488.00
24.3775 1552.00
24.4427 1526.00
24.5079 1580.00
24.5731 1560.00
24.6383 1602.00
24.7035 1540.00
24.7687 1581.00
24.8339 1471.00
24.8991 1513.00
24.9643 1611.00
25.0295 1555.00
25.0947 1568.00
25.1599 1534.00
25.2251 1482.00
25.2903 1464.00
25.3555 1440.00
25.4207 1357.00
25.4859 1436.00
25.5511 1431.00
25.6163 1407.00
25.6815 1509.00
25.7467 1543.00
25.8119 1572.00
25.8771 1615.00
25.9423 1625.00
26.0075 1576.00
26.0727 1377.00
26.1379 1366.00
26.2031 1370.00
26.2683 1397.00
26.3335 1472.00
26.3987 1352.00
26.4639 1431.00
26.5291 1398.00
26.5943 1403.00
26.6595 1331.00
26.7247 1303.00
26.7899 1354.00
26.8551 1340.00
26.9203 1406.00
26.9855 1331.00
27.0507 1251.00
27.1159 1426.00
27.1811 1354.00
27.2463 1396.00
27.3115 1407.00
27.3767 1440.00
27.4419 1471.00
27.5071 1352.00
27.5723 1363.00
27.6375 1411.00
27.7027 1590.00
27.7679 1599.00
27.8331 1788.00
27.8983 2230.00
27.9635 3116.00
28.0287 4636.00
28.0939 6509.00
28.1591 7357.00
28.2243 6744.00
28.2894 4879.00
28.3546 3256.00
28.4198 2258.00
28.485 1761.00
28.5502 1564.00
28.6154 1502.00
28.6806 1410.00
28.7458 1404.00
28.811 1366.00
28.8762 1345.00
28.9414 1386.00
29.0066 1356.00
29.0718 1356.00
29.137 1366.00
29.2022 1409.00
29.2674 1370.00
29.3326 1322.00
29.3978 1313.00
29.463 1313.00
29.5282 1244.00
29.5934 1372.00
29.6586 1271.00
29.7238 1285.00
29.789 1319.00
29.8542 1373.00
29.9194 1310.00
29.9846 1430.00
30.0498 1401.00
30.115 1425.00
30.1802 1415.00
30.2454 1371.00
30.3106 1459.00
30.3758 1491.00
30.441 1503.00
30.5062 1463.00
30.5714 1521.00
30.6366 1581.00
30.7018 1750.00
30.767 2088.00
30.8322 3001.00
30.8974 4715.00
30.9626 6863.00
31.0278 9052.00
31.093 10011.00
31.1582 9040.00
31.2234 7080.00
31.2886 5541.00
31.3538 4197.00
31.419 3432.00
31.4842 2615.00
31.5494 2112.00
31.6146 1695.00
31.6798 1498.00
31.745 1451.00
31.8102 1278.00
31.8754 1347.00
31.9406 1339.00
32.0058 1298.00
32.071 1257.00
32.1362 1240.00
32.2014 1222.00
32.2666 1207.00
32.3318 1211.00
32.397 1216.00
32.4622 1244.00
32.5274 1195.00
32.5926 1177.00
32.6578 1130.00
32.723 1278.00
32.7882 1196.00
32.8534 1214.00
32.9186 1197.00
32.9838 1283.00
33.0489 1369.00
33.1141 1276.00
33.1793 1288.00
33.2445 1254.00
33.3097 1311.00
33.3749 1419.00
33.4401 1351.00
33.5053 1481.00
33.5705 1493.00
33.6357 1441.00
33.7009 1330.00
33.7661 1386.00
33.8313 1346.00
33.8965 1296.00
33.9617 1409.00
34.0269 1319.00
34.0921 1303.00
34.1573 1261.00
34.2225 1273.00
34.2877 1208.00
34.3529 1263.00
34.4181 1308.00
34.4833 1249.00
34.5485 1393.00
34.6137 1429.00
34.6789 1589.00
34.7441 1975.00
34.8093 2661.00
34.8745 3194.00
34.9397 3227.00
35.0049 3213.00
35.0701 2890.00
35.1353 2829.00
35.2005 3247.00
35.2657 3913.00
35.3309 4807.00
35.3961 4859.00
35.4613 4400.00
35.5265 3548.00
35.5917 2694.00
35.6569 2055.00
35.7221 1739.00
35.7873 1395.00
35.8525 1306.00
35.9177 1236.00
35.9829 1136.00
36.0481 1218.00
36.1133 1171.00
36.1785 1129.00
36.2437 1158.00
36.3089 1126.00
36.3741 1114.00
36.4393 1160.00
36.5045 1105.00
36.5697 1114.00
36.6349 1047.00
36.7001 1061.00
36.7653 1123.00
36.8305 1107.00
36.8957 1080.00
36.9609 1091.00
37.0261 1070.00
37.0913 1118.00
37.1565 1075.00
37.2217 1013.00
37.2869 1149.00
37.3521 1127.00
37.4173 1080.00
37.4825 1102.00
37.5477 1139.00
37.6129 1049.00
37.6781 1043.00
37.7433 1080.00
37.8085 1073.00
37.8736 1127.00
37.9388 1180.00
38.004 1086.00
38.0692 1117.00
38.1344 1090.00
38.1996 1008.00
38.2648 1071.00
38.33 1077.00
38.3952 1052.00
38.4604 1138.00
38.5256 1081.00
38.5908 1038.00
38.656 1121.00
38.7212 1105.00
38.7864 1120.00
38.8516 1050.00
38.9168 1047.00
38.982 1034.00
39.0472 1058.00
39.1124 1143.00
39.1776 1071.00
39.2428 1193.00
39.308 1333.00
39.3732 1451.00
39.4384 1584.00
39.5036 1581.00
39.5688 1520.00
39.634 1358.00
39.6992 1361.00
39.7644 1167.00
39.8296 1119.00
39.8948 1046.00
39.96 1002.00
40.0252 1064.00
40.0904 1113.00
40.1556 1048.00
40.2208 1054.00
40.286 1073.00
40.3512 973.00
40.4164 1054.00
40.4816 1066.00
40.5468 1133.00
40.612 1133.00
40.6772 1138.00
40.7424 1202.00
40.8076 1247.00
40.8728 1387.00
40.938 1562.00
41.0032 1684.00
41.0684 1937.00
41.1336 1933.00
41.1988 1977.00
41.264 1785.00
41.3292 1591.00
41.3944 1500.00
41.4596 1365.00
41.5248 1197.00
41.59 1200.00
41.6552 1203.00
41.7204 1199.00
41.7856 1220.00
41.8508 1194.00
41.916 1194.00
41.9812 1191.00
42.0464 1155.00
42.1116 1102.00
42.1768 1092.00
42.242 1058.00
42.3072 1075.00
42.3724 1030.00
42.4376 1023.00
42.5028 1096.00
42.568 1111.00
42.6332 1386.00
42.6983 1645.00
42.7635 1945.00
42.8287 2124.00
42.8939 2094.00
42.9591 2027.00
43.0243 1754.00
43.0895 1550.00
43.1547 1335.00
43.2199 1196.00
43.2851 1126.00
43.3503 1128.00
43.4155 1143.00
43.4807 1119.00
43.5459 1137.00
43.6111 1206.00
43.6763 1176.00
43.7415 1161.00
43.8067 1147.00
43.8719 1118.00
43.9371 1032.00
44.0023 1086.00
44.0675 999.00
44.1327 1072.00
44.1979 1100.00
44.2631 1005.00
44.3283 1067.00
44.3935 1157.00
44.4587 1383.00
44.5239 1576.00
44.5891 1958.00
44.6543 2527.00
44.7195 2783.00
44.7847 2894.00
44.8499 2680.00
44.9151 2269.00
44.9803 1855.00
45.0455 1570.00
45.1107 1421.00
45.1759 1346.00
45.2411 1083.00
45.3063 1133.00
45.3715 1148.00
45.4367 1089.00
45.5019 1098.00
45.5671 1170.00
45.6323 1433.00
45.6975 1684.00
45.7627 1894.00
45.8279 2053.00
45.8931 2117.00
45.9583 2010.00
46.0235 1821.00
46.0887 1701.00
46.1539 1588.00
46.2191 1566.00
46.2843 1626.00
46.3495 1672.00
46.4147 1690.00
46.4799 1684.00
46.5451 1468.00
46.6103 1364.00
46.6755 1290.00
46.7407 1104.00
46.8059 1130.00
46.8711 1018.00
46.9363 1014.00
47.0015 1003.00
47.0667 1097.00
47.1319 1031.00
47.1971 1028.00
47.2623 1034.00
47.3275 1113.00
47.3927 1245.00
47.4579 1353.00
47.523 1598.00
47.5882 1861.00
47.6534 2499.00
47.7186 3150.00
47.7838 3555.00
47.849 3633.00
47.9142 3484.00
47.9794 3035.00
48.0446 2494.00
48.1098 2044.00
48.175 1723.00
48.2402 1487.00
48.3054 1346.00
48.3706 1406.00
48.4358 1332.00
48.501 1400.00
48.5662 1342.00
48.6314 1409.00
48.6966 1333.00
48.7618 1208.00
48.827 1158.00
48.8922 1055.00
48.9574 1021.00
49.0226 1071.00
49.0878 1083.00
49.153 1090.00
49.2182 1123.00
49.2834 1051.00
49.3486 1107.00
49.4138 1023.00
49.479 949.00
49.5442 1024.00
49.6094 1017.00
49.6746 1007.00
49.7398 937.00
49.805 986.00
49.8702 1032.00
49.9354 1050.00
50.0006 1076.00
50.0658 1148.00
50.131 1115.00
50.1962 993.00
50.2614 1048.00
50.3266 1099.00
50.3918 1084.00
50.457 1170.00
50.5222 1177.00
50.5874 1185.00
50.6526 1254.00
50.7178 1392.00
50.783 1473.00
50.8482 1652.00
50.9134 1937.00
50.9786 2249.00
51.0438 2634.00
51.109 2807.00
51.1742 2930.00
51.2394 2663.00
51.3046 2367.00
51.3698 1931.00
51.435 1707.00
51.5002 1655.00
51.5654 1561.00
51.6306 1524.00
51.6958 1437.00
51.761 1267.00
51.8262 1248.00
51.8914 1082.00
51.9566 1067.00
52.0218 997.00
52.087 931.00
52.1522 984.00
52.2174 974.00
52.2826 1008.00
52.3477 923.00
52.4129 1016.00
52.4781 960.00
52.5433 964.00
52.6085 1002.00
52.6737 936.00
52.7389 976.00
52.8041 1007.00
52.8693 926.00
52.9345 985.00
52.9997 958.00
53.0649 1021.00
53.1301 922.00
53.1953 975.00
53.2605 845.00
53.3257 920.00
53.3909 883.00
53.4561 954.00
53.5213 981.00
53.5865 976.00
53.6517 973.00
53.7169 977.00
53.7821 1097.00
53.8473 1240.00
53.9125 1467.00
53.9777 1646.00
54.0429 1675.00
54.1081 1662.00
54.1733 1696.00
54.2385 1539.00
54.3037 1450.00
54.3689 1309.00
54.4341 1249.00
54.4993 1176.00
54.5645 1140.00
54.6297 1124.00
54.6949 1192.00
54.7601 1296.00
54.8253 1544.00
54.8905 1710.00
54.9557 1987.00
55.0209 2305.00
55.0861 2585.00
55.1513 2913.00
55.2165 3181.00
55.2817 3186.00
55.3469 3272.00
55.4121 3128.00
55.4773 2829.00
55.5425 2404.00
55.6077 2170.00
55.6729 1894.00
55.7381 1587.00
55.8033 1415.00
55.8685 1191.00
55.9337 1189.00
55.9989 1137.00
56.0641 1063.00
56.1293 1017.00
56.1945 1001.00
56.2597 1067.00
56.3249 1023.00
56.3901 1021.00
56.4553 1021.00
56.5205 1051.00
56.5857 1067.00
56.6509 1114.00
56.7161 1213.00
56.7813 1134.00
56.8465 1142.00
56.9117 1137.00
56.9769 1098.00
57.042 1113.00
57.1073 998.00
57.1724 1021.00
57.2376 998.00
57.3028 984.00
57.368 918.00
57.4332 1029.00
57.4984 1021.00
57.5636 1087.00
57.6288 1170.00
57.694 1166.00
57.7592 1233.00
57.8244 1264.00
57.8896 1397.00
57.9548 1319.00
58.02 1348.00
58.0852 1369.00
58.1504 1410.00
58.2156 1432.00
58.2808 1325.00
58.346 1298.00
58.4112 1370.00
58.4764 1128.00
58.5416 1191.00
58.6068 1108.00
58.672 1004.00
58.7372 1046.00
58.8024 991.00
58.8676 988.00
58.9328 971.00
58.998 957.00
59.0632 942.00
59.1284 887.00
59.1936 956.00
59.2588 954.00
59.324 1055.00
59.3892 1236.00
59.4544 1306.00
59.5196 1466.00
59.5848 1681.00
59.65 1908.00
59.7152 1953.00
59.7804 1929.00
59.8456 1882.00
59.9108 1754.00
59.976 1500.00
60.0412 1426.00
60.1064 1278.00
60.1716 1158.00
60.2368 1129.00
60.302 1076.00
60.3672 1055.00
60.4324 1035.00
60.4976 1116.00
60.5628 1244.00
60.628 1377.00
60.6932 1581.00
60.7584 1762.00
60.8236 1922.00
60.8888 2095.00
60.954 2042.00
61.0192 2025.00
61.0844 1924.00
61.1496 1780.00
61.2148 1493.00
61.28 1321.00
61.3452 1299.00
61.4104 1173.00
61.4756 1142.00
61.5408 1136.00
61.606 1221.00
61.6712 1179.00
61.7364 1347.00
61.8016 1321.00
61.8667 1373.00
61.932 1458.00
61.9971 1478.00
62.0623 1424.00
62.1275 1474.00
62.1927 1423.00
62.2579 1392.00
62.3231 1412.00
62.3883 1242.00
62.4535 1246.00
62.5187 1245.00
62.5839 1183.00
62.6491 1155.00
62.7143 1086.00
62.7795 1180.00
62.8447 1114.00
62.9099 1146.00
62.9751 1039.00
63.0403 1140.00
63.1055 1229.00
63.1707 1304.00
63.2359 1419.00
63.3011 1446.00
63.3663 1493.00
63.4315 1571.00
63.4967 1618.00
63.5619 1613.00
63.6271 1647.00
63.6923 1645.00
63.7575 1510.00
63.8227 1447.00
63.8879 1307.00
63.9531 1228.00
64.0183 1150.00
64.0835 1139.00
64.1487 1073.00
64.2139 1003.00
64.2791 945.00
64.3443 935.00
64.4095 938.00
64.4747 910.00
64.5399 965.00
64.6051 952.00
64.6703 968.00
64.7355 1082.00
64.8007 1037.00
64.8659 1042.00
64.9311 1083.00
64.9963 1097.00
65.0615 1015.00
65.1267 1004.00
65.1919 1056.00
65.2571 1042.00
65.3223 965.00
65.3875 1056.00
65.4527 1012.00
65.5179 1119.00
65.5831 1114.00
65.6483 1232.00
65.7135 1327.00
65.7787 1366.00
65.8439 1373.00
65.9091 1419.00
65.9743 1427.00
66.0395 1362.00
66.1047 1333.00
66.1699 1280.00
66.2351 1150.00
66.3003 1093.00
66.3655 1094.00
66.4307 1000.00
66.4959 933.00
66.561 944.00
66.6263 858.00
66.6915 909.00
66.7566 950.00
66.8218 932.00
66.887 1036.00
66.9522 1132.00
67.0174 1052.00
67.0826 1179.00
67.1478 1172.00
67.213 1188.00
67.2782 1217.00
67.3434 1259.00
67.4086 1271.00
67.4738 1375.00
67.539 1291.00
67.6042 1335.00
67.6694 1248.00
67.7346 1226.00
67.7998 1135.00
67.865 1125.00
67.9302 979.00
67.9954 973.00
68.0606 953.00
68.1258 873.00
68.191 900.00
68.2562 877.00
68.3214 918.00
68.3866 912.00
68.4518 948.00
68.517 966.00
68.5822 1032.00
68.6474 1037.00
68.7126 991.00
68.7778 1109.00
68.843 1065.00
68.9082 994.00
68.9734 1026.00
69.0386 985.00
69.1038 979.00
69.169 944.00
69.2342 898.00
69.2994 907.00
69.3646 862.00
69.4298 815.00
69.495 877.00
69.5602 831.00
69.6254 885.00
69.6906 809.00
69.7558 836.00
69.821 863.00
69.8862 854.00
69.9514 867.00
70.0166 870.00
70.0818 840.00
70.147 872.00
70.2122 915.00
70.2774 917.00
70.3426 1013.00
70.4078 929.00
70.473 929.00
70.5382 1024.00
70.6034 901.00
70.6686 1078.00
70.7338 1150.00
70.799 1235.00
70.8642 1280.00
70.9294 1359.00
70.9946 1394.00
71.0598 1352.00
71.125 1302.00
71.1902 1258.00
71.2554 1166.00
71.3205 1029.00
71.3858 1027.00
71.451 1047.00
71.5162 970.00
71.5813 915.00
71.6465 871.00
71.7117 944.00
71.7769 888.00
71.8421 914.00
71.9073 839.00
71.9725 870.00
72.0377 875.00
72.1029 873.00
72.1681 900.00
72.2333 864.00
72.2985 857.00
72.3637 850.00
72.4289 866.00
72.4941 851.00
72.5593 821.00
72.6245 788.00
72.6897 837.00
72.7549 837.00
72.8201 839.00
72.8853 810.00
72.9505 872.00
73.0157 871.00
73.0809 904.00
73.1461 939.00
73.2113 965.00
73.2765 1052.00
73.3417 992.00
73.4069 1068.00
73.4721 1101.00
73.5373 1122.00
73.6025 1119.00
73.6677 1092.00
73.7329 1142.00
73.7981 1142.00
73.8633 1065.00
73.9285 1027.00
73.9937 1036.00
74.0589 973.00
74.1241 965.00
74.1893 875.00
74.2545 914.00
74.3197 955.00
74.3849 980.00
74.4501 964.00
74.5153 990.00
74.5805 1097.00
74.6457 1101.00
74.7109 1195.00
74.7761 1263.00
74.8413 1285.00
74.9065 1257.00
74.9717 1340.00
75.0369 1235.00
75.1021 1287.00
75.1673 1333.00
75.2325 1196.00
75.2977 1166.00
75.3629 1173.00
75.4281 1047.00
75.4933 1007.00
75.5585 1024.00
75.6237 926.00
75.6889 910.00
75.7541 949.00
75.8193 879.00
75.8845 796.00
75.9497 809.00
76.0149 808.00
76.0801 827.00
76.1452 786.00
76.2104 807.00
76.2756 763.00
76.3409 822.00
76.406 790.00
76.4712 839.00
76.5364 817.00
76.6016 852.00
76.6668 861.00
76.732 872.00
76.7972 852.00
76.8624 890.00
76.9276 861.00
76.9928 905.00
77.058 925.00
77.1232 904.00
77.1884 855.00
77.2536 874.00
77.3188 826.00
77.384 913.00
77.4492 878.00
77.5144 821.00
77.5796 839.00
77.6448 785.00
77.71 782.00
77.7752 836.00
77.8404 835.00
77.9056 814.00
77.9708 869.00
78.036 876.00
78.1012 842.00
78.1664 1002.00
78.2316 967.00
78.2968 1090.00
78.362 1077.00
78.4272 1062.00
78.4924 1197.00
78.5576 1177.00
78.6228 1190.00
78.688 1255.00
78.7532 1159.00
78.8184 1146.00
78.8836 1159.00
78.9488 1078.00
79.014 1108.00
79.0792 988.00
79.1444 961.00
79.2096 944.00
79.2748 952.00
79.34 882.00
79.4052 864.00
79.4704 829.00
79.5356 922.00
79.6008 894.00
79.666 873.00
79.7312 845.00
79.7964 850.00
79.8616 788.00
79.9268 893.00
79.992 815.00
80.0572 819.00
80.1224 858.00
80.1876 855.00
80.2528 822.00
80.318 887.00
80.3832 931.00
80.4484 957.00
80.5136 994.00
80.5788 1069.00
80.644 1008.00
80.7092 1096.00
80.7744 1054.00
80.8396 1051.00
80.9048 1068.00
80.9699 1050.00
81.0351 1002.00
81.1003 988.00
81.1655 938.00
81.2307 834.00
81.2959 844.00
81.3611 819.00
81.4263 782.00
81.4915 774.00
81.5567 820.00
81.6219 818.00
81.6871 891.00
81.7523 738.00
81.8175 750.00
81.8827 709.00
81.9479 755.00
82.0131 812.00
82.0783 731.00
82.1435 793.00
82.2087 855.00
82.2739 799.00
82.3391 839.00
82.4043 792.00
82.4695 833.00
82.5347 846.00
82.5999 879.00
82.6651 806.00
82.7303 903.00
82.7955 809.00
82.8607 812.00
82.9259 980.00
82.9911 874.00
83.0563 946.00
83.1215 978.00
83.1867 1031.00
83.2519 1107.00
83.3171 1110.00
83.3823 1086.00
83.4475 1060.00
83.5127 1111.00
83.5779 1001.00
83.6431 1050.00
83.7083 1001.00
83.7735 936.00
83.8387 908.00
83.9039 903.00
83.9691 866.00
84.0343 865.00
84.0995 871.00
84.1647 790.00
84.2299 813.00
84.2951 820.00
84.3603 901.00
84.4255 901.00
84.4907 929.00
84.5559 937.00
84.6211 995.00
84.6863 958.00
84.7515 943.00
84.8167 944.00
84.8819 994.00
84.9471 991.00
85.0123 1016.00
85.0775 946.00
85.1427 989.00
85.2079 980.00
85.2731 1004.00
85.3383 1035.00
85.4035 1010.00
85.4687 952.00
85.5339 1019.00
85.5991 974.00
85.6643 980.00
85.7295 964.00
85.7946 1018.00
85.8598 978.00
85.925 992.00
85.9903 985.00
86.0554 948.00
86.1206 929.00
86.1858 922.00
86.251 901.00
86.3162 900.00
86.3814 918.00
86.4466 889.00
86.5118 838.00
86.577 861.00
86.6422 836.00
86.7074 809.00
86.7726 862.00
86.8378 776.00
86.903 837.00
86.9682 781.00
87.0334 795.00
87.0986 792.00
87.1638 735.00
87.229 819.00
87.2942 776.00
87.3594 780.00
87.4246 805.00
87.4898 833.00
87.555 812.00
87.6202 875.00
87.6854 928.00
87.7506 875.00
87.8158 928.00
87.881 885.00
87.9462 914.00
88.0114 908.00
88.0766 854.00
88.1418 934.00
88.207 850.00
88.2722 874.00
88.3374 817.00
88.4026 862.00
88.4678 858.00
88.533 878.00
88.5982 851.00
88.6634 870.00
88.7286 898.00
88.7938 897.00
88.859 879.00
88.9242 831.00
88.9894 1000.00
89.0546 1039.00
89.1198 1030.00
89.185 1155.00
89.2502 1116.00
89.3154 1194.00
89.3806 1152.00
89.4458 1122.00
89.511 1095.00
89.5762 1076.00
89.6414 1035.00
89.7066 1034.00
89.7718 1028.00
89.837 998.00
89.9022 958.00
89.9674 934.00
90.0326 872.00
90.0978 903.00
90.163 804.00
90.2282 857.00
90.2934 851.00
90.3586 833.00
90.4238 800.00
90.489 783.00
90.5542 826.00
90.6193 735.00
90.6845 760.00
90.7497 790.00
90.8149 820.00
90.8801 797.00
90.9453 845.00
91.0105 903.00
91.0757 862.00
91.1409 934.00
91.2061 941.00
91.2713 902.00
91.3365 980.00
91.4017 910.00
91.4669 963.00
91.5321 1001.00
91.5973 982.00
91.6625 991.00
91.7277 929.00
91.7929 1030.00
91.8581 879.00
91.9233 884.00
91.9885 870.00
92.0537 835.00
92.1189 839.00
92.1841 830.00
92.2493 854.00
92.3145 851.00
92.3797 858.00
92.4449 861.00
92.5101 796.00
92.5753 816.00
92.6405 837.00
92.7057 863.00
92.7709 751.00
92.8361 861.00
92.9013 861.00
92.9665 846.00
93.0317 836.00
93.0969 795.00
93.1621 817.00
93.2273 823.00
93.2925 851.00
93.3577 818.00
93.4229 792.00
93.4881 872.00
93.5533 889.00
93.6185 931.00
93.6837 869.00
93.7489 895.00
93.8141 941.00
93.8793 926.00
93.9445 908.00
94.0097 901.00
94.0749 917.00
94.1401 940.00
94.2053 928.00
94.2705 853.00
94.3357 867.00
94.4009 879.00
94.4661 888.00
94.5313 883.00
94.5965 972.00
94.6617 940.00
94.7269 1004.00
94.7921 1014.00
94.8573 989.00
94.9225 939.00
94.9877 985.00
95.0529 998.00
95.1181 971.00
95.1833 969.00
95.2485 935.00
95.3137 960.00
95.3789 906.00
95.444 924.00
95.5092 919.00
95.5744 919.00
95.6396 940.00
95.7048 862.00
95.77 895.00
95.8352 923.00
95.9004 949.00
95.9656 924.00
96.0308 931.00
96.096 928.00
96.1612 979.00
96.2264 951.00
96.2916 986.00
96.3568 917.00
96.422 996.00
96.4872 952.00
96.5524 931.00
96.6176 975.00
96.6828 994.00
96.748 897.00
96.8132 826.00
96.8784 858.00
96.9436 862.00
97.0088 850.00
97.074 868.00
97.1392 928.00
97.2044 818.00
97.2696 853.00
97.3348 718.00
97.4 747.00
97.4652 812.00
97.5304 734.00
97.5956 772.00
97.6608 752.00
97.726 734.00
97.7912 736.00
97.8564 783.00
97.9216 759.00
97.9868 752.00
98.052 689.00
98.1172 754.00
98.1824 717.00
98.2476 759.00
98.3128 732.00
98.378 812.00
98.4432 762.00
98.5084 740.00
98.5736 786.00
98.6388 768.00
98.704 826.00
98.7692 872.00
98.8344 777.00
98.8996 904.00
98.9648 881.00
99.03 817.00
99.0952 911.00
99.1604 884.00
99.2256 843.00
99.2908 901.00
99.356 856.00
99.4212 948.00
99.4864 889.00
99.5516 944.00
99.6168 980.00
99.682 954.00
99.7472 985.00
99.8124 932.00
99.8776 991.00
99.9428 987.00
100.008 966.00
100.073 980.00
100.095 1034.00