File: data/xrd_creation/results/NSC_192.xy
9.903433 2656.00
9.968632 2542.00
10.0338 2674.00
10.099 2575.00
10.1642 2701.00
10.2294 2571.00
10.2946 2573.00
10.3598 2514.00
10.425 2460.00
10.4902 2523.00
10.5554 2393.00
10.6206 2469.00
10.6858 2446.00
10.751 2427.00
10.8162 2419.00
10.8814 2319.00
10.9466 2384.00
11.0118 2350.00
11.077 2318.00
11.1422 2335.00
11.2074 2310.00
11.2726 2261.00
11.3378 2394.00
11.403 2323.00
11.4682 2308.00
11.5334 2292.00
11.5986 2310.00
11.6638 2393.00
11.729 2294.00
11.7942 2202.00
11.8594 2153.00
11.9246 2087.00
11.9898 2099.00
12.055 2076.00
12.1202 2067.00
12.1854 2052.00
12.2506 2096.00
12.3158 2062.00
12.381 1942.00
12.4462 2002.00
12.5114 2021.00
12.5766 1958.00
12.6418 1981.00
12.707 2009.00
12.7722 1995.00
12.8374 2005.00
12.9026 1997.00
12.9678 1906.00
13.033 1810.00
13.0982 1861.00
13.1634 1887.00
13.2286 1850.00
13.2938 1908.00
13.359 1778.00
13.4242 1971.00
13.4894 1982.00
13.5546 2054.00
13.6198 2177.00
13.685 2414.00
13.7502 2195.00
13.8154 2056.00
13.8805 1932.00
13.9457 1794.00
14.0109 1832.00
14.0761 1779.00
14.1413 1716.00
14.2065 1782.00
14.2717 1708.00
14.3369 1759.00
14.4021 1684.00
14.4673 1754.00
14.5325 1704.00
14.5977 1712.00
14.6629 1824.00
14.7281 1800.00
14.7933 1666.00
14.8585 1681.00
14.9237 1645.00
14.9889 1621.00
15.0541 1678.00
15.1193 1631.00
15.1845 1650.00
15.2497 1716.00
15.3149 1680.00
15.3801 1699.00
15.4453 1652.00
15.5105 1663.00
15.5757 1664.00
15.6409 1690.00
15.7061 1616.00
15.7713 1701.00
15.8365 1677.00
15.9017 1686.00
15.9669 1663.00
16.0321 1665.00
16.0973 1600.00
16.1625 1630.00
16.2277 1588.00
16.2929 1736.00
16.3581 1672.00
16.4233 1708.00
16.4885 1647.00
16.5537 1637.00
16.6189 1648.00
16.6841 1654.00
16.7493 1606.00
16.8145 1588.00
16.8797 1549.00
16.9449 1541.00
17.0101 1613.00
17.0753 1607.00
17.1405 1584.00
17.2057 1534.00
17.2709 1550.00
17.3361 1577.00
17.4013 1542.00
17.4665 1551.00
17.5317 1511.00
17.5969 1545.00
17.6621 1628.00
17.7273 1628.00
17.7925 1511.00
17.8577 1675.00
17.9229 1590.00
17.9881 1636.00
18.0533 1611.00
18.1185 1597.00
18.1837 1556.00
18.2489 1459.00
18.3141 1519.00
18.3793 1455.00
18.4445 1437.00
18.5097 1457.00
18.5749 1523.00
18.6401 1483.00
18.7052 1483.00
18.7704 1493.00
18.8356 1527.00
18.9008 1685.00
18.966 1831.00
19.0312 2160.00
19.0964 2839.00
19.1616 3497.00
19.2268 3646.00
19.292 3156.00
19.3572 2552.00
19.4224 2242.00
19.4876 2496.00
19.5528 3017.00
19.618 3349.00
19.6832 3207.00
19.7484 2433.00
19.8136 1726.00
19.8788 1534.00
19.944 1516.00
20.0092 1444.00
20.0744 1386.00
20.1396 1412.00
20.2048 1389.00
20.27 1403.00
20.3352 1469.00
20.4004 1382.00
20.4656 1402.00
20.5308 1477.00
20.596 1378.00
20.6612 1431.00
20.7264 1507.00
20.7916 1457.00
20.8568 1383.00
20.922 1493.00
20.9872 1428.00
21.0524 1464.00
21.1176 1445.00
21.1828 1462.00
21.248 1579.00
21.3132 1467.00
21.3784 1449.00
21.4436 1376.00
21.5088 1423.00
21.574 1315.00
21.6392 1317.00
21.7044 1322.00
21.7696 1348.00
21.8348 1350.00
21.9 1346.00
21.9652 1326.00
22.0304 1366.00
22.0956 1356.00
22.1608 1374.00
22.226 1440.00
22.2912 1446.00
22.3564 1431.00
22.4216 1357.00
22.4868 1341.00
22.552 1377.00
22.6172 1430.00
22.6824 1661.00
22.7476 1845.00
22.8128 2291.00
22.878 2267.00
22.9432 1970.00
23.0084 1660.00
23.0736 1375.00
23.1388 1403.00
23.204 1351.00
23.2692 1320.00
23.3344 1315.00
23.3996 1295.00
23.4647 1296.00
23.5299 1288.00
23.5951 1316.00
23.6603 1269.00
23.7255 1299.00
23.7907 1397.00
23.8559 1398.00
23.9211 1345.00
23.9863 1413.00
24.0515 1400.00
24.1167 1436.00
24.1819 1416.00
24.2471 1356.00
24.3123 1364.00
24.3775 1395.00
24.4427 1275.00
24.5079 1416.00
24.5731 1445.00
24.6383 1406.00
24.7035 1325.00
24.7687 1299.00
24.8339 1352.00
24.8991 1299.00
24.9643 1268.00
25.0295 1217.00
25.0947 1322.00
25.1599 1278.00
25.2251 1181.00
25.2903 1301.00
25.3555 1246.00
25.4207 1337.00
25.4859 1258.00
25.5511 1255.00
25.6163 1291.00
25.6815 1366.00
25.7467 1318.00
25.8119 1313.00
25.8771 1309.00
25.9423 1330.00
26.0075 1311.00
26.0727 1301.00
26.1379 1314.00
26.2031 1313.00
26.2683 1263.00
26.3335 1250.00
26.3987 1285.00
26.4639 1262.00
26.5291 1238.00
26.5943 1235.00
26.6595 1137.00
26.7247 1173.00
26.7899 1160.00
26.8551 1183.00
26.9203 1175.00
26.9855 1197.00
27.0507 1189.00
27.1159 1201.00
27.1811 1256.00
27.2463 1306.00
27.3115 1364.00
27.3767 1478.00
27.4419 1845.00
27.5071 2565.00
27.5723 3044.00
27.6375 3058.00
27.7027 2472.00
27.7679 1916.00
27.8331 1601.00
27.8983 1449.00
27.9635 1403.00
28.0287 1497.00
28.0939 1517.00
28.1591 1525.00
28.2243 1731.00
28.2894 1741.00
28.3546 1743.00
28.4198 1658.00
28.485 1480.00
28.5502 1348.00
28.6154 1260.00
28.6806 1195.00
28.7458 1208.00
28.811 1233.00
28.8762 1111.00
28.9414 1203.00
29.0066 1215.00
29.0718 1167.00
29.137 1217.00
29.2022 1111.00
29.2674 1217.00
29.3326 1155.00
29.3978 1201.00
29.463 1210.00
29.5282 1142.00
29.5934 1114.00
29.6586 1172.00
29.7238 1180.00
29.789 1149.00
29.8542 1237.00
29.9194 1194.00
29.9846 1166.00
30.0498 1249.00
30.115 1250.00
30.1802 1281.00
30.2454 1354.00
30.3106 1565.00
30.3758 1710.00
30.441 2244.00
30.5062 2770.00
30.5714 3603.00
30.6366 4309.00
30.7018 4142.00
30.767 3402.00
30.8322 2427.00
30.8974 1668.00
30.9626 1383.00
31.0278 1255.00
31.093 1280.00
31.1582 1228.00
31.2234 1257.00
31.2886 1241.00
31.3538 1364.00
31.419 1388.00
31.4842 1482.00
31.5494 1586.00
31.6146 1547.00
31.6798 1636.00
31.745 1419.00
31.8102 1318.00
31.8754 1277.00
31.9406 1197.00
32.0058 1169.00
32.071 1195.00
32.1362 1157.00
32.2014 1113.00
32.2666 1126.00
32.3318 1116.00
32.397 1048.00
32.4622 1110.00
32.5274 1119.00
32.5926 1113.00
32.6578 1130.00
32.723 1189.00
32.7882 1208.00
32.8534 1311.00
32.9186 1425.00
32.9838 1542.00
33.0489 1548.00
33.1141 1559.00
33.1793 1456.00
33.2445 1266.00
33.3097 1293.00
33.3749 1294.00
33.4401 1245.00
33.5053 1356.00
33.5705 1243.00
33.6357 1244.00
33.7009 1277.00
33.7661 1230.00
33.8313 1285.00
33.8965 1387.00
33.9617 1747.00
34.0269 2017.00
34.0921 2398.00
34.1573 2599.00
34.2225 2839.00
34.2877 3145.00
34.3529 3323.00
34.4181 2860.00
34.4833 2147.00
34.5485 1746.00
34.6137 1559.00
34.6789 1523.00
34.7441 1404.00
34.8093 1326.00
34.8745 1153.00
34.9397 1123.00
35.0049 1015.00
35.0701 1068.00
35.1353 1006.00
35.2005 1028.00
35.2657 1041.00
35.3309 1015.00
35.3961 1110.00
35.4613 1104.00
35.5265 1166.00
35.5917 1064.00
35.6569 1068.00
35.7221 1008.00
35.7873 1022.00
35.8525 1008.00
35.9177 975.00
35.9829 958.00
36.0481 975.00
36.1133 955.00
36.1785 1023.00
36.2437 990.00
36.3089 936.00
36.3741 896.00
36.4393 1010.00
36.5045 923.00
36.5697 959.00
36.6349 912.00
36.7001 888.00
36.7653 865.00
36.8305 945.00
36.8957 912.00
36.9609 873.00
37.0261 878.00
37.0913 857.00
37.1565 868.00
37.2217 866.00
37.2869 861.00
37.3521 834.00
37.4173 865.00
37.4825 896.00
37.5477 869.00
37.6129 841.00
37.6781 840.00
37.7433 857.00
37.8085 777.00
37.8736 866.00
37.9388 877.00
38.004 819.00
38.0692 794.00
38.1344 895.00
38.1996 852.00
38.2648 866.00
38.33 878.00
38.3952 875.00
38.4604 910.00
38.5256 887.00
38.5908 867.00
38.656 838.00
38.7212 909.00
38.7864 860.00
38.8516 906.00
38.9168 931.00
38.982 996.00
39.0472 957.00
39.1124 907.00
39.1776 915.00
39.2428 852.00
39.308 876.00
39.3732 846.00
39.4384 808.00
39.5036 813.00
39.5688 829.00
39.634 853.00
39.6992 800.00
39.7644 900.00
39.8296 1018.00
39.8948 946.00
39.96 843.00
40.0252 877.00
40.0904 848.00
40.1556 858.00
40.2208 840.00
40.286 827.00
40.3512 839.00
40.4164 786.00
40.4816 856.00
40.5468 821.00
40.612 847.00
40.6772 951.00
40.7424 916.00
40.8076 974.00
40.8728 993.00
40.938 1020.00
41.0032 1082.00
41.0684 1126.00
41.1336 1122.00
41.1988 1059.00
41.264 962.00
41.3292 953.00
41.3944 952.00
41.4596 944.00
41.5248 957.00
41.59 969.00
41.6552 1022.00
41.7204 1064.00
41.7856 1077.00
41.8508 1010.00
41.916 1058.00
41.9812 1057.00
42.0464 946.00
42.1116 936.00
42.1768 946.00
42.242 938.00
42.3072 958.00
42.3724 932.00
42.4376 924.00
42.5028 917.00
42.568 881.00
42.6332 872.00
42.6983 845.00
42.7635 789.00
42.8287 866.00
42.8939 848.00
42.9591 810.00
43.0243 791.00
43.0895 808.00
43.1547 797.00
43.2199 858.00
43.2851 904.00
43.3503 851.00
43.4155 783.00
43.4807 831.00
43.5459 846.00
43.6111 805.00
43.6763 827.00
43.7415 842.00
43.8067 914.00
43.8719 899.00
43.9371 1069.00
44.0023 1092.00
44.0675 1151.00
44.1327 1151.00
44.1979 1044.00
44.2631 918.00
44.3283 883.00
44.3935 914.00
44.4587 1038.00
44.5239 1334.00
44.5891 1458.00
44.6543 1482.00
44.7195 1399.00
44.7847 1218.00
44.8499 1000.00
44.9151 934.00
44.9803 886.00
45.0455 851.00
45.1107 894.00
45.1759 876.00
45.2411 920.00
45.3063 879.00
45.3715 837.00
45.4367 837.00
45.5019 864.00
45.5671 904.00
45.6323 889.00
45.6975 939.00
45.7627 1021.00
45.8279 1071.00
45.8931 1109.00
45.9583 1149.00
46.0235 1156.00
46.0887 1069.00
46.1539 982.00
46.2191 952.00
46.2843 985.00
46.3495 964.00
46.4147 1032.00
46.4799 1072.00
46.5451 1291.00
46.6103 1606.00
46.6755 1906.00
46.7407 1943.00
46.8059 1808.00
46.8711 1452.00
46.9363 1185.00
47.0015 1068.00
47.0667 961.00
47.1319 957.00
47.1971 917.00
47.2623 823.00
47.3275 909.00
47.3927 837.00
47.4579 883.00
47.523 874.00
47.5882 996.00
47.6534 838.00
47.7186 887.00
47.7838 866.00
47.849 889.00
47.9142 847.00
47.9794 856.00
48.0446 828.00
48.1098 776.00
48.175 815.00
48.2402 827.00
48.3054 752.00
48.3706 847.00
48.4358 780.00
48.501 802.00
48.5662 788.00
48.6314 777.00
48.6966 791.00
48.7618 835.00
48.827 789.00
48.8922 808.00
48.9574 856.00
49.0226 920.00
49.0878 923.00
49.153 947.00
49.2182 955.00
49.2834 934.00
49.3486 879.00
49.4138 933.00
49.479 921.00
49.5442 942.00
49.6094 938.00
49.6746 907.00
49.7398 853.00
49.805 894.00
49.8702 845.00
49.9354 795.00
50.0006 853.00
50.0658 899.00
50.131 1063.00
50.1962 1170.00
50.2614 1338.00
50.3266 1591.00
50.3918 1824.00
50.457 1890.00
50.5222 1759.00
50.5874 1604.00
50.6526 1267.00
50.7178 1118.00
50.783 993.00
50.8482 959.00
50.9134 930.00
50.9786 878.00
51.0438 889.00
51.109 897.00
51.1742 868.00
51.2394 880.00
51.3046 885.00
51.3698 910.00
51.435 869.00
51.5002 917.00
51.5654 843.00
51.6306 876.00
51.6958 890.00
51.761 926.00
51.8262 852.00
51.8914 819.00
51.9566 786.00
52.0218 810.00
52.087 777.00
52.1522 796.00
52.2174 778.00
52.2826 768.00
52.3477 821.00
52.4129 828.00
52.4781 842.00
52.5433 764.00
52.6085 827.00
52.6737 852.00
52.7389 892.00
52.8041 865.00
52.8693 896.00
52.9345 944.00
52.9997 962.00
53.0649 877.00
53.1301 928.00
53.1953 906.00
53.2605 1021.00
53.3257 1093.00
53.3909 1184.00
53.4561 1521.00
53.5213 1631.00
53.5865 1736.00
53.6517 1687.00
53.7169 1499.00
53.7821 1308.00
53.8473 1160.00
53.9125 1021.00
53.9777 866.00
54.0429 878.00
54.1081 807.00
54.1733 885.00
54.2385 892.00
54.3037 873.00
54.3689 897.00
54.4341 852.00
54.4993 846.00
54.5645 832.00
54.6297 818.00
54.6949 862.00
54.7601 787.00
54.8253 826.00
54.8905 833.00
54.9557 794.00
55.0209 879.00
55.0861 883.00
55.1513 857.00
55.2165 885.00
55.2817 866.00
55.3469 842.00
55.4121 846.00
55.4773 830.00
55.5425 873.00
55.6077 902.00
55.6729 911.00
55.7381 892.00
55.8033 892.00
55.8685 919.00
55.9337 873.00
55.9989 872.00
56.0641 812.00
56.1293 796.00
56.1945 847.00
56.2597 820.00
56.3249 826.00
56.3901 907.00
56.4553 838.00
56.5205 855.00
56.5857 809.00
56.6509 850.00
56.7161 858.00
56.7813 812.00
56.8465 839.00
56.9117 795.00
56.9769 917.00
57.042 923.00
57.1073 888.00
57.1724 901.00
57.2376 902.00
57.3028 874.00
57.368 883.00
57.4332 929.00
57.4984 910.00
57.5636 897.00
57.6288 1045.00
57.694 947.00
57.7592 906.00
57.8244 871.00
57.8896 946.00
57.9548 911.00
58.02 886.00
58.0852 853.00
58.1504 888.00
58.2156 909.00
58.2808 920.00
58.346 990.00
58.4112 1083.00
58.4764 1161.00
58.5416 1228.00
58.6068 1452.00
58.672 1369.00
58.7372 1277.00
58.8024 1229.00
58.8676 1069.00
58.9328 1030.00
58.998 971.00
59.0632 1104.00
59.1284 1233.00
59.1936 1376.00
59.2588 1428.00
59.324 1308.00
59.3892 1304.00
59.4544 1191.00
59.5196 1026.00
59.5848 963.00
59.65 921.00
59.7152 893.00
59.7804 887.00
59.8456 916.00
59.9108 958.00
59.976 939.00
60.0412 980.00
60.1064 995.00
60.1716 1030.00
60.2368 1022.00
60.302 951.00
60.3672 978.00
60.4324 919.00
60.4976 898.00
60.5628 870.00
60.628 922.00
60.6932 841.00
60.7584 916.00
60.8236 848.00
60.8888 835.00
60.954 771.00
61.0192 823.00
61.0844 844.00
61.1496 878.00
61.2148 893.00
61.28 1002.00
61.3452 1170.00
61.4104 1219.00
61.4756 1286.00
61.5408 1313.00
61.606 1248.00
61.6712 1162.00
61.7364 1060.00
61.8016 972.00
61.8667 998.00
61.932 886.00
61.9971 864.00
62.0623 919.00
62.1275 839.00
62.1927 821.00
62.2579 913.00
62.3231 918.00
62.3883 980.00
62.4535 926.00
62.5187 1033.00
62.5839 926.00
62.6491 902.00
62.7143 874.00
62.7795 829.00
62.8447 826.00
62.9099 828.00
62.9751 746.00
63.0403 795.00
63.1055 785.00
63.1707 832.00
63.2359 875.00
63.3011 789.00
63.3663 814.00
63.4315 818.00
63.4967 762.00
63.5619 776.00
63.6271 767.00
63.6923 803.00
63.7575 759.00
63.8227 762.00
63.8879 725.00
63.9531 752.00
64.0183 750.00
64.0835 777.00
64.1487 726.00
64.2139 781.00
64.2791 737.00
64.3443 810.00
64.4095 776.00
64.4747 807.00
64.5399 819.00
64.6051 844.00
64.6703 839.00
64.7355 792.00
64.8007 817.00
64.8659 869.00
64.9311 909.00
64.9963 947.00
65.0615 989.00
65.1267 995.00
65.1919 1080.00
65.2571 1042.00
65.3223 1043.00
65.3875 906.00
65.4527 925.00
65.5179 899.00
65.5831 913.00
65.6483 790.00
65.7135 790.00
65.7787 813.00
65.8439 909.00
65.9091 842.00
65.9743 929.00
66.0395 947.00
66.1047 947.00
66.1699 978.00
66.2351 981.00
66.3003 942.00
66.3655 931.00
66.4307 912.00
66.4959 883.00
66.561 863.00
66.6263 928.00
66.6915 862.00
66.7566 870.00
66.8218 861.00
66.887 789.00
66.9522 805.00
67.0174 710.00
67.0826 740.00
67.1478 717.00
67.213 727.00
67.2782 740.00
67.3434 736.00
67.4086 723.00
67.4738 710.00
67.539 719.00
67.6042 684.00
67.6694 727.00
67.7346 767.00
67.7998 706.00
67.865 694.00
67.9302 688.00
67.9954 724.00
68.0606 738.00
68.1258 707.00
68.191 653.00
68.2562 714.00
68.3214 766.00
68.3866 712.00
68.4518 738.00
68.517 787.00
68.5822 874.00
68.6474 903.00
68.7126 975.00
68.7778 977.00
68.843 928.00
68.9082 916.00
68.9734 856.00
69.0386 821.00
69.1038 818.00
69.169 743.00
69.2342 748.00
69.2994 673.00
69.3646 698.00
69.4298 708.00
69.495 731.00
69.5602 729.00
69.6254 680.00
69.6906 750.00
69.7558 749.00
69.821 711.00
69.8862 768.00
69.9514 766.00
70.0166 731.00
70.0818 789.00
70.147 760.00
70.2122 756.00
70.2774 740.00
70.3426 722.00
70.4078 683.00
70.473 690.00
70.5382 678.00
70.6034 741.00
70.6686 727.00
70.7338 699.00
70.799 624.00
70.8642 667.00
70.9294 648.00
70.9946 629.00
71.0598 672.00
71.125 639.00
71.1902 646.00
71.2554 669.00
71.3205 657.00
71.3858 727.00
71.451 688.00
71.5162 682.00
71.5813 701.00
71.6465 748.00
71.7117 719.00
71.7769 714.00
71.8421 715.00
71.9073 691.00
71.9725 733.00
72.0377 752.00
72.1029 782.00
72.1681 790.00
72.2333 859.00
72.2985 942.00
72.3637 981.00
72.4289 1009.00
72.4941 1032.00
72.5593 949.00
72.6245 919.00
72.6897 847.00
72.7549 778.00
72.8201 738.00
72.8853 696.00
72.9505 677.00
73.0157 726.00
73.0809 749.00
73.1461 695.00
73.2113 781.00
73.2765 769.00
73.3417 746.00
73.4069 737.00
73.4721 755.00
73.5373 766.00
73.6025 683.00
73.6677 688.00
73.7329 738.00
73.7981 744.00
73.8633 750.00
73.9285 701.00
73.9937 746.00
74.0589 729.00
74.1241 719.00
74.1893 694.00
74.2545 680.00
74.3197 644.00
74.3849 684.00
74.4501 686.00
74.5153 648.00
74.5805 658.00
74.6457 693.00
74.7109 660.00
74.7761 692.00
74.8413 698.00
74.9065 694.00
74.9717 668.00
75.0369 702.00
75.1021 696.00
75.1673 670.00
75.2325 716.00
75.2977 724.00
75.3629 714.00
75.4281 703.00
75.4933 711.00
75.5585 789.00
75.6237 782.00
75.6889 788.00
75.7541 827.00
75.8193 780.00
75.8845 872.00
75.9497 857.00
76.0149 803.00
76.0801 828.00
76.1452 723.00
76.2104 722.00
76.2756 719.00
76.3409 691.00
76.406 710.00
76.4712 697.00
76.5364 707.00
76.6016 741.00
76.6668 712.00
76.732 735.00
76.7972 750.00
76.8624 733.00
76.9276 727.00
76.9928 752.00
77.058 739.00
77.1232 732.00
77.1884 702.00
77.2536 653.00
77.3188 738.00
77.384 648.00
77.4492 717.00
77.5144 671.00
77.5796 697.00
77.6448 631.00
77.71 683.00
77.7752 641.00
77.8404 637.00
77.9056 680.00
77.9708 652.00
78.036 673.00
78.1012 683.00
78.1664 677.00
78.2316 665.00
78.2968 685.00
78.362 693.00
78.4272 654.00
78.4924 645.00
78.5576 643.00
78.6228 672.00
78.688 666.00
78.7532 645.00
78.8184 654.00
78.8836 649.00
78.9488 685.00
79.014 728.00
79.0792 747.00
79.1444 747.00
79.2096 709.00
79.2748 750.00
79.34 754.00
79.4052 782.00
79.4704 773.00
79.5356 744.00
79.6008 693.00
79.666 669.00
79.7312 661.00
79.7964 684.00
79.8616 677.00
79.9268 717.00
79.992 727.00
80.0572 727.00
80.1224 727.00
80.1876 651.00
80.2528 696.00
80.318 749.00
80.3832 761.00
80.4484 764.00
80.5136 780.00
80.5788 861.00
80.644 838.00
80.7092 851.00
80.7744 834.00
80.8396 845.00
80.9048 778.00
80.9699 752.00
81.0351 688.00
81.1003 660.00
81.1655 678.00
81.2307 673.00
81.2959 666.00
81.3611 716.00
81.4263 648.00
81.4915 665.00
81.5567 639.00
81.6219 712.00
81.6871 641.00
81.7523 652.00
81.8175 660.00
81.8827 715.00
81.9479 664.00
82.0131 729.00
82.0783 681.00
82.1435 746.00
82.2087 727.00
82.2739 737.00
82.3391 748.00
82.4043 676.00
82.4695 666.00
82.5347 720.00
82.5999 725.00
82.6651 726.00
82.7303 738.00
82.7955 708.00
82.8607 686.00
82.9259 738.00
82.9911 666.00
83.0563 673.00
83.1215 662.00
83.1867 683.00
83.2519 680.00
83.3171 687.00
83.3823 632.00
83.4475 668.00
83.5127 669.00
83.5779 706.00
83.6431 671.00
83.7083 624.00
83.7735 681.00
83.8387 679.00
83.9039 647.00
83.9691 643.00
84.0343 699.00
84.0995 651.00
84.1647 622.00
84.2299 687.00
84.2951 693.00
84.3603 630.00
84.4255 639.00
84.4907 648.00
84.5559 689.00
84.6211 655.00
84.6863 679.00
84.7515 735.00
84.8167 679.00
84.8819 739.00
84.9471 666.00
85.0123 657.00
85.0775 685.00
85.1427 691.00
85.2079 633.00
85.2731 698.00
85.3383 711.00
85.4035 679.00
85.4687 659.00
85.5339 668.00
85.5991 674.00
85.6643 682.00
85.7295 728.00
85.7946 760.00
85.8598 749.00
85.925 744.00
85.9903 767.00
86.0554 768.00
86.1206 753.00
86.1858 728.00
86.251 692.00
86.3162 686.00
86.3814 741.00
86.4466 750.00
86.5118 767.00
86.577 696.00
86.6422 793.00
86.7074 812.00
86.7726 804.00
86.8378 790.00
86.903 771.00
86.9682 773.00
87.0334 788.00
87.0986 756.00
87.1638 803.00
87.229 775.00
87.2942 782.00
87.3594 707.00
87.4246 706.00
87.4898 710.00
87.555 665.00
87.6202 692.00
87.6854 691.00
87.7506 635.00
87.8158 682.00
87.881 649.00
87.9462 664.00
88.0114 659.00
88.0766 661.00
88.1418 655.00
88.207 630.00
88.2722 654.00
88.3374 694.00
88.4026 649.00
88.4678 667.00
88.533 665.00
88.5982 695.00
88.6634 681.00
88.7286 697.00
88.7938 698.00
88.859 689.00
88.9242 742.00
88.9894 751.00
89.0546 744.00
89.1198 728.00
89.185 767.00
89.2502 825.00
89.3154 773.00
89.3806 735.00
89.4458 777.00
89.511 748.00
89.5762 717.00
89.6414 705.00
89.7066 696.00
89.7718 668.00
89.837 677.00
89.9022 691.00
89.9674 644.00
90.0326 723.00
90.0978 689.00
90.163 709.00
90.2282 649.00
90.2934 646.00
90.3586 701.00
90.4238 730.00
90.489 722.00
90.5542 677.00
90.6193 740.00
90.6845 726.00
90.7497 652.00
90.8149 777.00
90.8801 708.00
90.9453 685.00
91.0105 673.00
91.0757 721.00
91.1409 687.00
91.2061 688.00
91.2713 667.00
91.3365 643.00
91.4017 666.00
91.4669 728.00
91.5321 658.00
91.5973 666.00
91.6625 694.00
91.7277 679.00
91.7929 624.00
91.8581 645.00
91.9233 663.00
91.9885 618.00
92.0537 684.00
92.1189 676.00
92.1841 697.00
92.2493 740.00
92.3145 762.00
92.3797 768.00
92.4449 762.00
92.5101 823.00
92.5753 787.00
92.6405 781.00
92.7057 846.00
92.7709 774.00
92.8361 768.00
92.9013 808.00
92.9665 748.00
93.0317 734.00
93.0969 700.00
93.1621 708.00
93.2273 702.00
93.2925 726.00
93.3577 721.00
93.4229 733.00
93.4881 724.00
93.5533 727.00
93.6185 712.00
93.6837 730.00
93.7489 688.00
93.8141 701.00
93.8793 709.00
93.9445 676.00
94.0097 677.00
94.0749 686.00
94.1401 658.00
94.2053 659.00
94.2705 677.00
94.3357 660.00
94.4009 640.00
94.4661 652.00
94.5313 638.00
94.5965 622.00
94.6617 637.00
94.7269 697.00
94.7921 629.00
94.8573 682.00
94.9225 633.00
94.9877 639.00
95.0529 660.00
95.1181 640.00
95.1833 629.00
95.2485 643.00
95.3137 674.00
95.3789 690.00
95.444 665.00
95.5092 677.00
95.5744 665.00
95.6396 660.00
95.7048 659.00
95.77 671.00
95.8352 698.00
95.9004 694.00
95.9656 731.00
96.0308 692.00
96.096 706.00
96.1612 682.00
96.2264 664.00
96.2916 710.00
96.3568 688.00
96.422 704.00
96.4872 664.00
96.5524 687.00
96.6176 711.00
96.6828 644.00
96.748 648.00
96.8132 623.00
96.8784 687.00
96.9436 656.00
97.0088 717.00
97.074 694.00
97.1392 677.00
97.2044 756.00
97.2696 674.00
97.3348 675.00
97.4 709.00
97.4652 694.00
97.5304 661.00
97.5956 724.00
97.6608 684.00
97.726 660.00
97.7912 700.00
97.8564 727.00
97.9216 608.00
97.9868 672.00
98.052 666.00
98.1172 645.00
98.1824 676.00
98.2476 660.00
98.3128 688.00
98.378 657.00
98.4432 633.00
98.5084 692.00
98.5736 675.00
98.6388 687.00
98.704 708.00
98.7692 664.00
98.8344 663.00
98.8996 691.00
98.9648 679.00
99.03 685.00
99.0952 676.00
99.1604 657.00
99.2256 710.00
99.2908 699.00
99.356 728.00
99.4212 735.00
99.4864 756.00
99.5516 636.00
99.6168 749.00
99.682 747.00
99.7472 731.00
99.8124 720.00
99.8776 775.00
99.9428 704.00
100.008 731.00
100.073 769.00
100.095 768.00