File: data/xrd_creation/results/NSC_218.xy
9.903433 2538.00
9.968632 2660.00
10.0338 2680.00
10.099 2695.00
10.1642 2565.00
10.2294 2547.00
10.2946 2539.00
10.3598 2521.00
10.425 2411.00
10.4902 2474.00
10.5554 2454.00
10.6206 2452.00
10.6858 2406.00
10.751 2369.00
10.8162 2322.00
10.8814 2328.00
10.9466 2365.00
11.0118 2395.00
11.077 2320.00
11.1422 2181.00
11.2074 2189.00
11.2726 2197.00
11.3378 2079.00
11.403 2203.00
11.4682 2135.00
11.5334 2223.00
11.5986 2189.00
11.6638 2147.00
11.729 2070.00
11.7942 2063.00
11.8594 2108.00
11.9246 2045.00
11.9898 2041.00
12.055 2095.00
12.1202 2054.00
12.1854 1969.00
12.2506 2014.00
12.3158 1957.00
12.381 1991.00
12.4462 1915.00
12.5114 1905.00
12.5766 1928.00
12.6418 1990.00
12.707 1992.00
12.7722 1835.00
12.8374 1919.00
12.9026 1927.00
12.9678 1901.00
13.033 1892.00
13.0982 1857.00
13.1634 1856.00
13.2286 1834.00
13.2938 1869.00
13.359 1811.00
13.4242 1948.00
13.4894 1938.00
13.5546 2014.00
13.6198 2068.00
13.685 2093.00
13.7502 2205.00
13.8154 2202.00
13.8805 2102.00
13.9457 2026.00
14.0109 1930.00
14.0761 1813.00
14.1413 1786.00
14.2065 1753.00
14.2717 1679.00
14.3369 1710.00
14.4021 1833.00
14.4673 1700.00
14.5325 1721.00
14.5977 1781.00
14.6629 1706.00
14.7281 1647.00
14.7933 1653.00
14.8585 1738.00
14.9237 1661.00
14.9889 1710.00
15.0541 1689.00
15.1193 1757.00
15.1845 1719.00
15.2497 1674.00
15.3149 1614.00
15.3801 1719.00
15.4453 1685.00
15.5105 1631.00
15.5757 1581.00
15.6409 1649.00
15.7061 1691.00
15.7713 1656.00
15.8365 1671.00
15.9017 1697.00
15.9669 1644.00
16.0321 1641.00
16.0973 1641.00
16.1625 1599.00
16.2277 1614.00
16.2929 1633.00
16.3581 1547.00
16.4233 1562.00
16.4885 1638.00
16.5537 1656.00
16.6189 1606.00
16.6841 1530.00
16.7493 1601.00
16.8145 1541.00
16.8797 1555.00
16.9449 1492.00
17.0101 1571.00
17.0753 1541.00
17.1405 1626.00
17.2057 1562.00
17.2709 1517.00
17.3361 1620.00
17.4013 1550.00
17.4665 1536.00
17.5317 1607.00
17.5969 1596.00
17.6621 1552.00
17.7273 1565.00
17.7925 1646.00
17.8577 1566.00
17.9229 1502.00
17.9881 1498.00
18.0533 1446.00
18.1185 1465.00
18.1837 1585.00
18.2489 1546.00
18.3141 1488.00
18.3793 1467.00
18.4445 1449.00
18.5097 1466.00
18.5749 1521.00
18.6401 1474.00
18.7052 1455.00
18.7704 1511.00
18.8356 1537.00
18.9008 1560.00
18.966 1583.00
19.0312 1612.00
19.0964 1773.00
19.1616 1992.00
19.2268 2596.00
19.292 3208.00
19.3572 4052.00
19.4224 4673.00
19.4876 4852.00
19.5528 4820.00
19.618 4441.00
19.6832 3772.00
19.7484 2938.00
19.8136 2359.00
19.8788 1817.00
19.944 1568.00
20.0092 1527.00
20.0744 1392.00
20.1396 1438.00
20.2048 1433.00
20.27 1574.00
20.3352 1438.00
20.4004 1451.00
20.4656 1584.00
20.5308 1561.00
20.596 1606.00
20.6612 1648.00
20.7264 1830.00
20.7916 1828.00
20.8568 1843.00
20.922 1786.00
20.9872 1787.00
21.0524 1630.00
21.1176 1550.00
21.1828 1522.00
21.248 1598.00
21.3132 1563.00
21.3784 1521.00
21.4436 1498.00
21.5088 1419.00
21.574 1463.00
21.6392 1399.00
21.7044 1416.00
21.7696 1371.00
21.8348 1393.00
21.9 1223.00
21.9652 1352.00
22.0304 1365.00
22.0956 1354.00
22.1608 1407.00
22.226 1308.00
22.2912 1322.00
22.3564 1355.00
22.4216 1298.00
22.4868 1340.00
22.552 1374.00
22.6172 1358.00
22.6824 1581.00
22.7476 1654.00
22.8128 1959.00
22.878 2128.00
22.9432 2174.00
23.0084 2010.00
23.0736 1943.00
23.1388 1929.00
23.204 1684.00
23.2692 1655.00
23.3344 1544.00
23.3996 1565.00
23.4647 1527.00
23.5299 1437.00
23.5951 1369.00
23.6603 1354.00
23.7255 1323.00
23.7907 1287.00
23.8559 1333.00
23.9211 1430.00
23.9863 1424.00
24.0515 1440.00
24.1167 1439.00
24.1819 1503.00
24.2471 1449.00
24.3123 1555.00
24.3775 1444.00
24.4427 1437.00
24.5079 1373.00
24.5731 1351.00
24.6383 1325.00
24.7035 1347.00
24.7687 1286.00
24.8339 1353.00
24.8991 1315.00
24.9643 1246.00
25.0295 1244.00
25.0947 1267.00
25.1599 1275.00
25.2251 1213.00
25.2903 1218.00
25.3555 1254.00
25.4207 1296.00
25.4859 1211.00
25.5511 1193.00
25.6163 1207.00
25.6815 1172.00
25.7467 1225.00
25.8119 1218.00
25.8771 1236.00
25.9423 1178.00
26.0075 1153.00
26.0727 1205.00
26.1379 1235.00
26.2031 1199.00
26.2683 1173.00
26.3335 1142.00
26.3987 1201.00
26.4639 1146.00
26.5291 1144.00
26.5943 1154.00
26.6595 1177.00
26.7247 1156.00
26.7899 1167.00
26.8551 1148.00
26.9203 1122.00
26.9855 1212.00
27.0507 1205.00
27.1159 1211.00
27.1811 1287.00
27.2463 1365.00
27.3115 1390.00
27.3767 1614.00
27.4419 1771.00
27.5071 2128.00
27.5723 2486.00
27.6375 2881.00
27.7027 2842.00
27.7679 2730.00
27.8331 2475.00
27.8983 2147.00
27.9635 1758.00
28.0287 1553.00
28.0939 1537.00
28.1591 1696.00
28.2243 1824.00
28.2894 2080.00
28.3546 2257.00
28.4198 2269.00
28.485 2192.00
28.5502 2055.00
28.6154 1712.00
28.6806 1437.00
28.7458 1327.00
28.811 1175.00
28.8762 1204.00
28.9414 1219.00
29.0066 1157.00
29.0718 1135.00
29.137 1188.00
29.2022 1129.00
29.2674 1162.00
29.3326 1197.00
29.3978 1260.00
29.463 1284.00
29.5282 1266.00
29.5934 1261.00
29.6586 1355.00
29.7238 1437.00
29.789 1463.00
29.8542 1639.00
29.9194 1510.00
29.9846 1483.00
30.0498 1470.00
30.115 1503.00
30.1802 1504.00
30.2454 1687.00
30.3106 1792.00
30.3758 1788.00
30.441 1849.00
30.5062 1808.00
30.5714 1749.00
30.6366 2025.00
30.7018 2362.00
30.767 3132.00
30.8322 3955.00
30.8974 4655.00
30.9626 5082.00
31.0278 4812.00
31.093 4269.00
31.1582 3536.00
31.2234 2577.00
31.2886 1917.00
31.3538 1632.00
31.419 1582.00
31.4842 1689.00
31.5494 1843.00
31.6146 1976.00
31.6798 2056.00
31.745 2059.00
31.8102 1798.00
31.8754 1702.00
31.9406 1419.00
32.0058 1371.00
32.071 1193.00
32.1362 1139.00
32.2014 1137.00
32.2666 1097.00
32.3318 1075.00
32.397 1077.00
32.4622 1129.00
32.5274 1085.00
32.5926 987.00
32.6578 1124.00
32.723 1071.00
32.7882 1051.00
32.8534 1088.00
32.9186 1075.00
32.9838 1041.00
33.0489 1035.00
33.1141 1053.00
33.1793 1082.00
33.2445 1103.00
33.3097 1134.00
33.3749 991.00
33.4401 1122.00
33.5053 1128.00
33.5705 1133.00
33.6357 1166.00
33.7009 1185.00
33.7661 1227.00
33.8313 1384.00
33.8965 1729.00
33.9617 2173.00
34.0269 2982.00
34.0921 3800.00
34.1573 4570.00
34.2225 4850.00
34.2877 4913.00
34.3529 4615.00
34.4181 3694.00
34.4833 2903.00
34.5485 2243.00
34.6137 1772.00
34.6789 1513.00
34.7441 1339.00
34.8093 1268.00
34.8745 1225.00
34.9397 1177.00
35.0049 1134.00
35.0701 1137.00
35.1353 1105.00
35.2005 1161.00
35.2657 1130.00
35.3309 1187.00
35.3961 1254.00
35.4613 1209.00
35.5265 1242.00
35.5917 1330.00
35.6569 1170.00
35.7221 1241.00
35.7873 1164.00
35.8525 1183.00
35.9177 1204.00
35.9829 1247.00
36.0481 1309.00
36.1133 1270.00
36.1785 1251.00
36.2437 1209.00
36.3089 1155.00
36.3741 1099.00
36.4393 1063.00
36.5045 1082.00
36.5697 1015.00
36.6349 1017.00
36.7001 1033.00
36.7653 953.00
36.8305 943.00
36.8957 972.00
36.9609 1040.00
37.0261 925.00
37.0913 1000.00
37.1565 971.00
37.2217 925.00
37.2869 983.00
37.3521 996.00
37.4173 1045.00
37.4825 976.00
37.5477 982.00
37.6129 1032.00
37.6781 978.00
37.7433 1042.00
37.8085 988.00
37.8736 954.00
37.9388 964.00
38.004 930.00
38.0692 900.00
38.1344 983.00
38.1996 948.00
38.2648 971.00
38.33 966.00
38.3952 1014.00
38.4604 1134.00
38.5256 1176.00
38.5908 1216.00
38.656 1238.00
38.7212 1270.00
38.7864 1160.00
38.8516 1204.00
38.9168 1126.00
38.982 1087.00
39.0472 1133.00
39.1124 1091.00
39.1776 1180.00
39.2428 1232.00
39.308 1182.00
39.3732 1193.00
39.4384 1246.00
39.5036 1209.00
39.5688 1180.00
39.634 1107.00
39.6992 1063.00
39.7644 1054.00
39.8296 993.00
39.8948 1016.00
39.96 1026.00
40.0252 1001.00
40.0904 952.00
40.1556 945.00
40.2208 924.00
40.286 957.00
40.3512 923.00
40.4164 988.00
40.4816 968.00
40.5468 934.00
40.612 963.00
40.6772 989.00
40.7424 984.00
40.8076 1003.00
40.8728 1057.00
40.938 1088.00
41.0032 1092.00
41.0684 1141.00
41.1336 1208.00
41.1988 1233.00
41.264 1232.00
41.3292 1327.00
41.3944 1286.00
41.4596 1443.00
41.5248 1491.00
41.59 1458.00
41.6552 1449.00
41.7204 1430.00
41.7856 1391.00
41.8508 1325.00
41.916 1309.00
41.9812 1256.00
42.0464 1207.00
42.1116 1263.00
42.1768 1153.00
42.242 1226.00
42.3072 991.00
42.3724 1048.00
42.4376 1013.00
42.5028 965.00
42.568 896.00
42.6332 923.00
42.6983 902.00
42.7635 1030.00
42.8287 930.00
42.8939 948.00
42.9591 915.00
43.0243 932.00
43.0895 959.00
43.1547 966.00
43.2199 889.00
43.2851 904.00
43.3503 881.00
43.4155 931.00
43.4807 969.00
43.5459 1027.00
43.6111 1002.00
43.6763 993.00
43.7415 944.00
43.8067 974.00
43.8719 954.00
43.9371 991.00
44.0023 977.00
44.0675 1025.00
44.1327 1155.00
44.1979 1292.00
44.2631 1431.00
44.3283 1632.00
44.3935 1755.00
44.4587 1946.00
44.5239 2020.00
44.5891 1829.00
44.6543 1649.00
44.7195 1445.00
44.7847 1248.00
44.8499 1162.00
44.9151 1050.00
44.9803 1038.00
45.0455 1013.00
45.1107 948.00
45.1759 936.00
45.2411 851.00
45.3063 891.00
45.3715 890.00
45.4367 956.00
45.5019 904.00
45.5671 979.00
45.6323 995.00
45.6975 1010.00
45.7627 1062.00
45.8279 1030.00
45.8931 963.00
45.9583 980.00
46.0235 961.00
46.0887 1009.00
46.1539 1035.00
46.2191 1115.00
46.2843 1116.00
46.3495 1339.00
46.4147 1382.00
46.4799 1523.00
46.5451 1701.00
46.6103 2029.00
46.6755 2411.00
46.7407 2492.00
46.8059 2510.00
46.8711 2446.00
46.9363 2160.00
47.0015 1634.00
47.0667 1401.00
47.1319 1161.00
47.1971 1018.00
47.2623 995.00
47.3275 926.00
47.3927 936.00
47.4579 892.00
47.523 828.00
47.5882 887.00
47.6534 900.00
47.7186 875.00
47.7838 911.00
47.849 926.00
47.9142 888.00
47.9794 926.00
48.0446 861.00
48.1098 953.00
48.175 897.00
48.2402 900.00
48.3054 939.00
48.3706 991.00
48.4358 1066.00
48.501 1002.00
48.5662 961.00
48.6314 1035.00
48.6966 1054.00
48.7618 1017.00
48.827 954.00
48.8922 1043.00
48.9574 1048.00
49.0226 1025.00
49.0878 1052.00
49.153 1111.00
49.2182 1148.00
49.2834 1159.00
49.3486 1181.00
49.4138 1262.00
49.479 1225.00
49.5442 1191.00
49.6094 1212.00
49.6746 1188.00
49.7398 1149.00
49.805 1072.00
49.8702 943.00
49.9354 975.00
50.0006 919.00
50.0658 913.00
50.131 921.00
50.1962 954.00
50.2614 1098.00
50.3266 1166.00
50.3918 1355.00
50.457 1444.00
50.5222 1561.00
50.5874 1733.00
50.6526 1770.00
50.7178 1865.00
50.783 2004.00
50.8482 2063.00
50.9134 2066.00
50.9786 1975.00
51.0438 1860.00
51.109 1709.00
51.1742 1429.00
51.2394 1358.00
51.3046 1202.00
51.3698 1074.00
51.435 1036.00
51.5002 1028.00
51.5654 1106.00
51.6306 1038.00
51.6958 1044.00
51.761 1082.00
51.8262 1074.00
51.8914 1024.00
51.9566 1063.00
52.0218 952.00
52.087 965.00
52.1522 940.00
52.2174 933.00
52.2826 849.00
52.3477 872.00
52.4129 862.00
52.4781 879.00
52.5433 902.00
52.6085 884.00
52.6737 902.00
52.7389 874.00
52.8041 933.00
52.8693 955.00
52.9345 1046.00
52.9997 1185.00
53.0649 1281.00
53.1301 1686.00
53.1953 1924.00
53.2605 2155.00
53.3257 2266.00
53.3909 2250.00
53.4561 1950.00
53.5213 1751.00
53.5865 1393.00
53.6517 1336.00
53.7169 1123.00
53.7821 1050.00
53.8473 918.00
53.9125 925.00
53.9777 959.00
54.0429 956.00
54.1081 1034.00
54.1733 1093.00
54.2385 1130.00
54.3037 1173.00
54.3689 1144.00
54.4341 1105.00
54.4993 1084.00
54.5645 1073.00
54.6297 1112.00
54.6949 987.00
54.7601 985.00
54.8253 1014.00
54.8905 1009.00
54.9557 940.00
55.0209 865.00
55.0861 875.00
55.1513 958.00
55.2165 935.00
55.2817 860.00
55.3469 970.00
55.4121 964.00
55.4773 1055.00
55.5425 1036.00
55.6077 1070.00
55.6729 1049.00
55.7381 1064.00
55.8033 1026.00
55.8685 1162.00
55.9337 1040.00
55.9989 982.00
56.0641 971.00
56.1293 984.00
56.1945 960.00
56.2597 941.00
56.3249 974.00
56.3901 997.00
56.4553 936.00
56.5205 919.00
56.5857 944.00
56.6509 952.00
56.7161 948.00
56.7813 954.00
56.8465 944.00
56.9117 875.00
56.9769 890.00
57.042 904.00
57.1073 996.00
57.1724 990.00
57.2376 1030.00
57.3028 976.00
57.368 895.00
57.4332 1055.00
57.4984 977.00
57.5636 966.00
57.6288 987.00
57.694 911.00
57.7592 922.00
57.8244 941.00
57.8896 920.00
57.9548 931.00
58.02 917.00
58.0852 925.00
58.1504 955.00
58.2156 954.00
58.2808 890.00
58.346 1028.00
58.4112 1056.00
58.4764 1082.00
58.5416 1115.00
58.6068 1235.00
58.672 1206.00
58.7372 1382.00
58.8024 1497.00
58.8676 1664.00
58.9328 1870.00
58.998 1965.00
59.0632 2237.00
59.1284 2191.00
59.1936 2126.00
59.2588 1968.00
59.324 1742.00
59.3892 1534.00
59.4544 1360.00
59.5196 1178.00
59.5848 1101.00
59.65 970.00
59.7152 941.00
59.7804 968.00
59.8456 954.00
59.9108 969.00
59.976 991.00
60.0412 949.00
60.1064 1010.00
60.1716 1053.00
60.2368 1071.00
60.302 1125.00
60.3672 1128.00
60.4324 1163.00
60.4976 1074.00
60.5628 1109.00
60.628 1206.00
60.6932 1186.00
60.7584 1126.00
60.8236 1227.00
60.8888 1233.00
60.954 1324.00
61.0192 1435.00
61.0844 1469.00
61.1496 1538.00
61.2148 1533.00
61.28 1596.00
61.3452 1589.00
61.4104 1527.00
61.4756 1433.00
61.5408 1339.00
61.606 1255.00
61.6712 1167.00
61.7364 1147.00
61.8016 1096.00
61.8667 1088.00
61.932 1015.00
61.9971 1050.00
62.0623 1012.00
62.1275 1107.00
62.1927 1120.00
62.2579 1154.00
62.3231 1202.00
62.3883 1235.00
62.4535 1190.00
62.5187 1286.00
62.5839 1281.00
62.6491 1266.00
62.7143 1234.00
62.7795 1220.00
62.8447 1151.00
62.9099 1132.00
62.9751 1028.00
63.0403 1026.00
63.1055 1057.00
63.1707 1041.00
63.2359 1014.00
63.3011 972.00
63.3663 902.00
63.4315 951.00
63.4967 958.00
63.5619 917.00
63.6271 869.00
63.6923 884.00
63.7575 861.00
63.8227 868.00
63.8879 818.00
63.9531 768.00
64.0183 884.00
64.0835 873.00
64.1487 827.00
64.2139 861.00
64.2791 882.00
64.3443 876.00
64.4095 953.00
64.4747 949.00
64.5399 886.00
64.6051 1003.00
64.6703 1068.00
64.7355 1027.00
64.8007 1133.00
64.8659 1010.00
64.9311 1033.00
64.9963 1025.00
65.0615 1001.00
65.1267 976.00
65.1919 891.00
65.2571 947.00
65.3223 926.00
65.3875 963.00
65.4527 1022.00
65.5179 944.00
65.5831 919.00
65.6483 1042.00
65.7135 984.00
65.7787 1077.00
65.8439 1074.00
65.9091 1191.00
65.9743 1256.00
66.0395 1317.00
66.1047 1433.00
66.1699 1433.00
66.2351 1485.00
66.3003 1400.00
66.3655 1407.00
66.4307 1226.00
66.4959 1230.00
66.561 1179.00
66.6263 1047.00
66.6915 1002.00
66.7566 936.00
66.8218 917.00
66.887 837.00
66.9522 810.00
67.0174 824.00
67.0826 818.00
67.1478 802.00
67.213 789.00
67.2782 788.00
67.3434 834.00
67.4086 826.00
67.4738 783.00
67.539 853.00
67.6042 892.00
67.6694 879.00
67.7346 898.00
67.7998 835.00
67.865 865.00
67.9302 851.00
67.9954 866.00
68.0606 845.00
68.1258 920.00
68.191 988.00
68.2562 1026.00
68.3214 1089.00
68.3866 1085.00
68.4518 1107.00
68.517 1154.00
68.5822 1066.00
68.6474 1011.00
68.7126 927.00
68.7778 900.00
68.843 841.00
68.9082 861.00
68.9734 913.00
69.0386 859.00
69.1038 829.00
69.169 902.00
69.2342 851.00
69.2994 896.00
69.3646 860.00
69.4298 876.00
69.495 854.00
69.5602 894.00
69.6254 905.00
69.6906 919.00
69.7558 871.00
69.821 937.00
69.8862 880.00
69.9514 906.00
70.0166 751.00
70.0818 795.00
70.147 818.00
70.2122 838.00
70.2774 791.00
70.3426 740.00
70.4078 765.00
70.473 829.00
70.5382 753.00
70.6034 779.00
70.6686 827.00
70.7338 818.00
70.799 754.00
70.8642 807.00
70.9294 835.00
70.9946 790.00
71.0598 800.00
71.125 801.00
71.1902 812.00
71.2554 893.00
71.3205 840.00
71.3858 895.00
71.451 905.00
71.5162 941.00
71.5813 944.00
71.6465 949.00
71.7117 1040.00
71.7769 1109.00
71.8421 1123.00
71.9073 1228.00
71.9725 1175.00
72.0377 1149.00
72.1029 1156.00
72.1681 1115.00
72.2333 1138.00
72.2985 1017.00
72.3637 956.00
72.4289 924.00
72.4941 918.00
72.5593 871.00
72.6245 859.00
72.6897 869.00
72.7549 841.00
72.8201 914.00
72.8853 931.00
72.9505 976.00
73.0157 982.00
73.0809 990.00
73.1461 1070.00
73.2113 1009.00
73.2765 966.00
73.3417 1037.00
73.4069 875.00
73.4721 870.00
73.5373 866.00
73.6025 847.00
73.6677 823.00
73.7329 832.00
73.7981 836.00
73.8633 770.00
73.9285 874.00
73.9937 786.00
74.0589 753.00
74.1241 777.00
74.1893 797.00
74.2545 749.00
74.3197 839.00
74.3849 830.00
74.4501 809.00
74.5153 812.00
74.5805 830.00
74.6457 825.00
74.7109 892.00
74.7761 832.00
74.8413 848.00
74.9065 833.00
74.9717 908.00
75.0369 877.00
75.1021 863.00
75.1673 1018.00
75.2325 1003.00
75.2977 1068.00
75.3629 1020.00
75.4281 1033.00
75.4933 1001.00
75.5585 999.00
75.6237 908.00
75.6889 964.00
75.7541 969.00
75.8193 881.00
75.8845 857.00
75.9497 863.00
76.0149 880.00
76.0801 920.00
76.1452 889.00
76.2104 878.00
76.2756 844.00
76.3409 901.00
76.406 852.00
76.4712 888.00
76.5364 944.00
76.6016 919.00
76.6668 956.00
76.732 977.00
76.7972 954.00
76.8624 974.00
76.9276 886.00
76.9928 960.00
77.058 922.00
77.1232 873.00
77.1884 847.00
77.2536 823.00
77.3188 802.00
77.384 743.00
77.4492 776.00
77.5144 796.00
77.5796 777.00
77.6448 811.00
77.71 812.00
77.7752 819.00
77.8404 811.00
77.9056 763.00
77.9708 801.00
78.036 798.00
78.1012 766.00
78.1664 806.00
78.2316 804.00
78.2968 807.00
78.362 858.00
78.4272 771.00
78.4924 766.00
78.5576 769.00
78.6228 763.00
78.688 753.00
78.7532 737.00
78.8184 752.00
78.8836 771.00
78.9488 718.00
79.014 816.00
79.0792 775.00
79.1444 823.00
79.2096 822.00
79.2748 845.00
79.34 803.00
79.4052 798.00
79.4704 857.00
79.5356 920.00
79.6008 925.00
79.666 955.00
79.7312 947.00
79.7964 992.00
79.8616 1001.00
79.9268 997.00
79.992 1042.00
80.0572 1068.00
80.1224 1107.00
80.1876 1133.00
80.2528 1161.00
80.318 1135.00
80.3832 1130.00
80.4484 1096.00
80.5136 954.00
80.5788 965.00
80.644 893.00
80.7092 855.00
80.7744 793.00
80.8396 817.00
80.9048 850.00
80.9699 783.00
81.0351 778.00
81.1003 824.00
81.1655 817.00
81.2307 742.00
81.2959 835.00
81.3611 743.00
81.4263 825.00
81.4915 848.00
81.5567 834.00
81.6219 833.00
81.6871 864.00
81.7523 890.00
81.8175 945.00
81.8827 926.00
81.9479 974.00
82.0131 1008.00
82.0783 901.00
82.1435 991.00
82.2087 857.00
82.2739 925.00
82.3391 924.00
82.4043 867.00
82.4695 839.00
82.5347 861.00
82.5999 847.00
82.6651 831.00
82.7303 790.00
82.7955 804.00
82.8607 824.00
82.9259 883.00
82.9911 878.00
83.0563 851.00
83.1215 842.00
83.1867 842.00
83.2519 834.00
83.3171 836.00
83.3823 856.00
83.4475 880.00
83.5127 792.00
83.5779 797.00
83.6431 857.00
83.7083 817.00
83.7735 856.00
83.8387 820.00
83.9039 826.00
83.9691 831.00
84.0343 798.00
84.0995 813.00
84.1647 812.00
84.2299 893.00
84.2951 889.00
84.3603 854.00
84.4255 816.00
84.4907 808.00
84.5559 813.00
84.6211 779.00
84.6863 801.00
84.7515 847.00
84.8167 808.00
84.8819 820.00
84.9471 868.00
85.0123 788.00
85.0775 805.00
85.1427 776.00
85.2079 843.00
85.2731 873.00
85.3383 811.00
85.4035 879.00
85.4687 859.00
85.5339 857.00
85.5991 895.00
85.6643 792.00
85.7295 796.00
85.7946 850.00
85.8598 832.00
85.925 813.00
85.9903 880.00
86.0554 866.00
86.1206 819.00
86.1858 871.00
86.251 862.00
86.3162 961.00
86.3814 977.00
86.4466 1002.00
86.5118 972.00
86.577 1061.00
86.6422 1087.00
86.7074 1132.00
86.7726 1144.00
86.8378 1016.00
86.903 1043.00
86.9682 972.00
87.0334 1032.00
87.0986 921.00
87.1638 889.00
87.229 922.00
87.2942 925.00
87.3594 846.00
87.4246 911.00
87.4898 900.00
87.555 840.00
87.6202 855.00
87.6854 758.00
87.7506 872.00
87.8158 819.00
87.881 862.00
87.9462 851.00
88.0114 861.00
88.0766 863.00
88.1418 905.00
88.207 914.00
88.2722 831.00
88.3374 906.00
88.4026 862.00
88.4678 891.00
88.533 851.00
88.5982 935.00
88.6634 886.00
88.7286 882.00
88.7938 885.00
88.859 914.00
88.9242 812.00
88.9894 844.00
89.0546 805.00
89.1198 808.00
89.185 827.00
89.2502 849.00
89.3154 865.00
89.3806 804.00
89.4458 859.00
89.511 837.00
89.5762 870.00
89.6414 926.00
89.7066 862.00
89.7718 886.00
89.837 1006.00
89.9022 888.00
89.9674 971.00
90.0326 908.00
90.0978 950.00
90.163 955.00
90.2282 935.00
90.2934 903.00
90.3586 899.00
90.4238 882.00
90.489 935.00
90.5542 857.00
90.6193 846.00
90.6845 815.00
90.7497 832.00
90.8149 809.00
90.8801 814.00
90.9453 824.00
91.0105 821.00
91.0757 798.00
91.1409 780.00
91.2061 844.00
91.2713 794.00
91.3365 801.00
91.4017 830.00
91.4669 776.00
91.5321 858.00
91.5973 840.00
91.6625 854.00
91.7277 878.00
91.7929 926.00
91.8581 911.00
91.9233 848.00
91.9885 913.00
92.0537 823.00
92.1189 923.00
92.1841 835.00
92.2493 796.00
92.3145 824.00
92.3797 818.00
92.4449 785.00
92.5101 856.00
92.5753 875.00
92.6405 815.00
92.7057 848.00
92.7709 854.00
92.8361 864.00
92.9013 851.00
92.9665 953.00
93.0317 890.00
93.0969 909.00
93.1621 983.00
93.2273 997.00
93.2925 958.00
93.3577 972.00
93.4229 924.00
93.4881 975.00
93.5533 890.00
93.6185 905.00
93.6837 884.00
93.7489 865.00
93.8141 795.00
93.8793 826.00
93.9445 839.00
94.0097 836.00
94.0749 826.00
94.1401 870.00
94.2053 814.00
94.2705 837.00
94.3357 884.00
94.4009 857.00
94.4661 797.00
94.5313 808.00
94.5965 871.00
94.6617 791.00
94.7269 815.00
94.7921 783.00
94.8573 922.00
94.9225 818.00
94.9877 858.00
95.0529 900.00
95.1181 971.00
95.1833 892.00
95.2485 949.00
95.3137 902.00
95.3789 909.00
95.444 929.00
95.5092 920.00
95.5744 886.00
95.6396 852.00
95.7048 906.00
95.77 842.00
95.8352 815.00
95.9004 789.00
95.9656 838.00
96.0308 815.00
96.096 812.00
96.1612 820.00
96.2264 809.00
96.2916 828.00
96.3568 774.00
96.422 808.00
96.4872 845.00
96.5524 864.00
96.6176 843.00
96.6828 814.00
96.748 862.00
96.8132 764.00
96.8784 881.00
96.9436 823.00
97.0088 845.00
97.074 846.00
97.1392 797.00
97.2044 812.00
97.2696 889.00
97.3348 850.00
97.4 875.00
97.4652 821.00
97.5304 841.00
97.5956 848.00
97.6608 842.00
97.726 851.00
97.7912 796.00
97.8564 823.00
97.9216 829.00
97.9868 830.00
98.052 854.00
98.1172 787.00
98.1824 809.00
98.2476 800.00
98.3128 778.00
98.378 802.00
98.4432 857.00
98.5084 817.00
98.5736 792.00
98.6388 813.00
98.704 794.00
98.7692 802.00
98.8344 830.00
98.8996 810.00
98.9648 868.00
99.03 873.00
99.0952 815.00
99.1604 885.00
99.2256 862.00
99.2908 894.00
99.356 926.00
99.4212 953.00
99.4864 1033.00
99.5516 983.00
99.6168 1057.00
99.682 1063.00
99.7472 1068.00
99.8124 1037.00
99.8776 1103.00
99.9428 1114.00
100.008 1135.00
100.073 1158.00
100.095 1154.00