File: data/xrd_creation/results/NSC_153.xy
9.903433 2612.00
9.968632 2592.00
10.0338 2485.00
10.099 2413.00
10.1642 2449.00
10.2294 2394.00
10.2946 2449.00
10.3598 2418.00
10.425 2273.00
10.4902 2331.00
10.5554 2192.00
10.6206 2197.00
10.6858 2232.00
10.751 2296.00
10.8162 2199.00
10.8814 2162.00
10.9466 2214.00
11.0118 2223.00
11.077 2185.00
11.1422 2022.00
11.2074 2126.00
11.2726 2004.00
11.3378 2028.00
11.403 1961.00
11.4682 1935.00
11.5334 1995.00
11.5986 1979.00
11.6638 1890.00
11.729 1964.00
11.7942 1938.00
11.8594 1859.00
11.9246 1872.00
11.9898 1831.00
12.055 1865.00
12.1202 1847.00
12.1854 1773.00
12.2506 1872.00
12.3158 1847.00
12.381 1829.00
12.4462 1825.00
12.5114 1734.00
12.5766 1633.00
12.6418 1702.00
12.707 1636.00
12.7722 1609.00
12.8374 1685.00
12.9026 1656.00
12.9678 1635.00
13.033 1598.00
13.0982 1540.00
13.1634 1523.00
13.2286 1594.00
13.2938 1573.00
13.359 1564.00
13.4242 1550.00
13.4894 1507.00
13.5546 1555.00
13.6198 1448.00
13.685 1428.00
13.7502 1456.00
13.8154 1421.00
13.8805 1472.00
13.9457 1456.00
14.0109 1473.00
14.0761 1443.00
14.1413 1468.00
14.2065 1411.00
14.2717 1391.00
14.3369 1341.00
14.4021 1314.00
14.4673 1403.00
14.5325 1415.00
14.5977 1347.00
14.6629 1374.00
14.7281 1388.00
14.7933 1275.00
14.8585 1289.00
14.9237 1418.00
14.9889 1307.00
15.0541 1359.00
15.1193 1307.00
15.1845 1283.00
15.2497 1301.00
15.3149 1293.00
15.3801 1333.00
15.4453 1345.00
15.5105 1316.00
15.5757 1291.00
15.6409 1274.00
15.7061 1333.00
15.7713 1253.00
15.8365 1320.00
15.9017 1225.00
15.9669 1268.00
16.0321 1207.00
16.0973 1249.00
16.1625 1249.00
16.2277 1142.00
16.2929 1249.00
16.3581 1226.00
16.4233 1174.00
16.4885 1202.00
16.5537 1179.00
16.6189 1161.00
16.6841 1148.00
16.7493 1166.00
16.8145 1152.00
16.8797 1114.00
16.9449 1093.00
17.0101 1173.00
17.0753 1126.00
17.1405 1073.00
17.2057 1173.00
17.2709 1123.00
17.3361 1051.00
17.4013 1165.00
17.4665 1139.00
17.5317 1131.00
17.5969 1092.00
17.6621 1074.00
17.7273 1066.00
17.7925 1059.00
17.8577 1061.00
17.9229 1079.00
17.9881 1075.00
18.0533 1065.00
18.1185 1031.00
18.1837 1021.00
18.2489 1058.00
18.3141 1110.00
18.3793 1035.00
18.4445 973.00
18.5097 1058.00
18.5749 997.00
18.6401 1034.00
18.7052 1075.00
18.7704 977.00
18.8356 1017.00
18.9008 999.00
18.966 958.00
19.0312 964.00
19.0964 942.00
19.1616 968.00
19.2268 950.00
19.292 974.00
19.3572 978.00
19.4224 937.00
19.4876 982.00
19.5528 922.00
19.618 909.00
19.6832 907.00
19.7484 940.00
19.8136 878.00
19.8788 964.00
19.944 916.00
20.0092 900.00
20.0744 880.00
20.1396 858.00
20.2048 867.00
20.27 902.00
20.3352 894.00
20.4004 922.00
20.4656 881.00
20.5308 887.00
20.596 909.00
20.6612 869.00
20.7264 845.00
20.7916 839.00
20.8568 877.00
20.922 877.00
20.9872 858.00
21.0524 852.00
21.1176 850.00
21.1828 834.00
21.248 857.00
21.3132 800.00
21.3784 849.00
21.4436 854.00
21.5088 842.00
21.574 795.00
21.6392 821.00
21.7044 863.00
21.7696 788.00
21.8348 807.00
21.9 876.00
21.9652 826.00
22.0304 816.00
22.0956 811.00
22.1608 827.00
22.226 814.00
22.2912 849.00
22.3564 780.00
22.4216 763.00
22.4868 751.00
22.552 785.00
22.6172 832.00
22.6824 775.00
22.7476 790.00
22.8128 758.00
22.878 722.00
22.9432 743.00
23.0084 712.00
23.0736 761.00
23.1388 774.00
23.204 691.00
23.2692 742.00
23.3344 729.00
23.3996 753.00
23.4647 738.00
23.5299 706.00
23.5951 779.00
23.6603 763.00
23.7255 757.00
23.7907 691.00
23.8559 705.00
23.9211 696.00
23.9863 717.00
24.0515 750.00
24.1167 724.00
24.1819 686.00
24.2471 725.00
24.3123 701.00
24.3775 667.00
24.4427 685.00
24.5079 677.00
24.5731 699.00
24.6383 673.00
24.7035 652.00
24.7687 675.00
24.8339 673.00
24.8991 672.00
24.9643 690.00
25.0295 671.00
25.0947 672.00
25.1599 680.00
25.2251 632.00
25.2903 696.00
25.3555 647.00
25.4207 674.00
25.4859 672.00
25.5511 652.00
25.6163 668.00
25.6815 648.00
25.7467 626.00
25.8119 628.00
25.8771 630.00
25.9423 691.00
26.0075 664.00
26.0727 681.00
26.1379 667.00
26.2031 618.00
26.2683 653.00
26.3335 651.00
26.3987 681.00
26.4639 603.00
26.5291 651.00
26.5943 615.00
26.6595 644.00
26.7247 655.00
26.7899 639.00
26.8551 567.00
26.9203 647.00
26.9855 639.00
27.0507 588.00
27.1159 609.00
27.1811 613.00
27.2463 639.00
27.3115 623.00
27.3767 654.00
27.4419 616.00
27.5071 608.00
27.5723 586.00
27.6375 602.00
27.7027 587.00
27.7679 587.00
27.8331 576.00
27.8983 573.00
27.9635 612.00
28.0287 624.00
28.0939 626.00
28.1591 582.00
28.2243 608.00
28.2894 626.00
28.3546 546.00
28.4198 588.00
28.485 564.00
28.5502 572.00
28.6154 589.00
28.6806 591.00
28.7458 531.00
28.811 602.00
28.8762 605.00
28.9414 574.00
29.0066 583.00
29.0718 535.00
29.137 578.00
29.2022 546.00
29.2674 573.00
29.3326 552.00
29.3978 572.00
29.463 546.00
29.5282 556.00
29.5934 527.00
29.6586 556.00
29.7238 526.00
29.789 547.00
29.8542 565.00
29.9194 530.00
29.9846 548.00
30.0498 541.00
30.115 553.00
30.1802 579.00
30.2454 524.00
30.3106 531.00
30.3758 509.00
30.441 543.00
30.5062 529.00
30.5714 534.00
30.6366 518.00
30.7018 529.00
30.767 508.00
30.8322 526.00
30.8974 516.00
30.9626 509.00
31.0278 534.00
31.093 495.00
31.1582 519.00
31.2234 481.00
31.2886 497.00
31.3538 490.00
31.419 483.00
31.4842 514.00
31.5494 524.00
31.6146 515.00
31.6798 542.00
31.745 490.00
31.8102 504.00
31.8754 496.00
31.9406 503.00
32.0058 517.00
32.071 522.00
32.1362 479.00
32.2014 455.00
32.2666 477.00
32.3318 463.00
32.397 496.00
32.4622 467.00
32.5274 418.00
32.5926 427.00
32.6578 454.00
32.723 460.00
32.7882 468.00
32.8534 482.00
32.9186 511.00
32.9838 479.00
33.0489 450.00
33.1141 487.00
33.1793 450.00
33.2445 488.00
33.3097 465.00
33.3749 415.00
33.4401 424.00
33.5053 502.00
33.5705 445.00
33.6357 452.00
33.7009 432.00
33.7661 412.00
33.8313 447.00
33.8965 413.00
33.9617 441.00
34.0269 420.00
34.0921 432.00
34.1573 439.00
34.2225 429.00
34.2877 440.00
34.3529 436.00
34.4181 420.00
34.4833 442.00
34.5485 422.00
34.6137 407.00
34.6789 430.00
34.7441 427.00
34.8093 445.00
34.8745 419.00
34.9397 427.00
35.0049 432.00
35.0701 393.00
35.1353 436.00
35.2005 450.00
35.2657 427.00
35.3309 423.00
35.3961 453.00
35.4613 456.00
35.5265 432.00
35.5917 370.00
35.6569 389.00
35.7221 407.00
35.7873 385.00
35.8525 422.00
35.9177 430.00
35.9829 418.00
36.0481 388.00
36.1133 409.00
36.1785 392.00
36.2437 377.00
36.3089 421.00
36.3741 412.00
36.4393 431.00
36.5045 367.00
36.5697 385.00
36.6349 392.00
36.7001 393.00
36.7653 369.00
36.8305 392.00
36.8957 367.00
36.9609 421.00
37.0261 377.00
37.0913 384.00
37.1565 408.00
37.2217 421.00
37.2869 339.00
37.3521 336.00
37.4173 353.00
37.4825 381.00
37.5477 419.00
37.6129 389.00
37.6781 382.00
37.7433 369.00
37.8085 345.00
37.8736 408.00
37.9388 339.00
38.004 360.00
38.0692 398.00
38.1344 330.00
38.1996 340.00
38.2648 337.00
38.33 360.00
38.3952 356.00
38.4604 369.00
38.5256 353.00
38.5908 373.00
38.656 360.00
38.7212 352.00
38.7864 347.00
38.8516 331.00
38.9168 373.00
38.982 326.00
39.0472 361.00
39.1124 418.00
39.1776 348.00
39.2428 327.00
39.308 359.00
39.3732 333.00
39.4384 374.00
39.5036 343.00
39.5688 357.00
39.634 337.00
39.6992 365.00
39.7644 365.00
39.8296 343.00
39.8948 325.00
39.96 319.00
40.0252 315.00
40.0904 327.00
40.1556 346.00
40.2208 318.00
40.286 339.00
40.3512 340.00
40.4164 362.00
40.4816 327.00
40.5468 342.00
40.612 320.00
40.6772 318.00
40.7424 308.00
40.8076 327.00
40.8728 316.00
40.938 359.00
41.0032 334.00
41.0684 354.00
41.1336 338.00
41.1988 333.00
41.264 331.00
41.3292 307.00
41.3944 285.00
41.4596 320.00
41.5248 320.00
41.59 343.00
41.6552 321.00
41.7204 328.00
41.7856 293.00
41.8508 331.00
41.916 270.00
41.9812 320.00
42.0464 329.00
42.1116 320.00
42.1768 334.00
42.242 307.00
42.3072 287.00
42.3724 286.00
42.4376 320.00
42.5028 284.00
42.568 289.00
42.6332 328.00
42.6983 300.00
42.7635 291.00
42.8287 277.00
42.8939 279.00
42.9591 284.00
43.0243 325.00
43.0895 343.00
43.1547 324.00
43.2199 315.00
43.2851 327.00
43.3503 324.00
43.4155 312.00
43.4807 323.00
43.5459 315.00
43.6111 297.00
43.6763 314.00
43.7415 286.00
43.8067 292.00
43.8719 304.00
43.9371 319.00
44.0023 312.00
44.0675 269.00
44.1327 322.00
44.1979 257.00
44.2631 288.00
44.3283 290.00
44.3935 280.00
44.4587 270.00
44.5239 294.00
44.5891 289.00
44.6543 311.00
44.7195 286.00
44.7847 284.00
44.8499 334.00
44.9151 289.00
44.9803 275.00
45.0455 304.00
45.1107 264.00
45.1759 296.00
45.2411 266.00
45.3063 278.00
45.3715 305.00
45.4367 311.00
45.5019 357.00
45.5671 308.00
45.6323 318.00
45.6975 278.00
45.7627 318.00
45.8279 315.00
45.8931 271.00
45.9583 290.00
46.0235 269.00
46.0887 284.00
46.1539 286.00
46.2191 302.00
46.2843 278.00
46.3495 260.00
46.4147 274.00
46.4799 282.00
46.5451 277.00
46.6103 289.00
46.6755 307.00
46.7407 278.00
46.8059 266.00
46.8711 266.00
46.9363 331.00
47.0015 300.00
47.0667 283.00
47.1319 265.00
47.1971 285.00
47.2623 256.00
47.3275 276.00
47.3927 267.00
47.4579 286.00
47.523 289.00
47.5882 272.00
47.6534 244.00
47.7186 274.00
47.7838 256.00
47.849 289.00
47.9142 237.00
47.9794 263.00
48.0446 287.00
48.1098 264.00
48.175 282.00
48.2402 282.00
48.3054 268.00
48.3706 266.00
48.4358 268.00
48.501 298.00
48.5662 292.00
48.6314 316.00
48.6966 283.00
48.7618 281.00
48.827 232.00
48.8922 233.00
48.9574 262.00
49.0226 296.00
49.0878 273.00
49.153 295.00
49.2182 283.00
49.2834 267.00
49.3486 265.00
49.4138 268.00
49.479 269.00
49.5442 287.00
49.6094 297.00
49.6746 260.00
49.7398 259.00
49.805 281.00
49.8702 297.00
49.9354 230.00
50.0006 272.00
50.0658 269.00
50.131 248.00
50.1962 263.00
50.2614 230.00
50.3266 241.00
50.3918 264.00
50.457 236.00
50.5222 241.00
50.5874 258.00
50.6526 275.00
50.7178 246.00
50.783 238.00
50.8482 258.00
50.9134 237.00
50.9786 236.00
51.0438 261.00
51.109 234.00
51.1742 278.00
51.2394 247.00
51.3046 243.00
51.3698 234.00
51.435 249.00
51.5002 249.00
51.5654 256.00
51.6306 273.00
51.6958 221.00
51.761 235.00
51.8262 247.00
51.8914 272.00
51.9566 245.00
52.0218 240.00
52.087 273.00
52.1522 244.00
52.2174 271.00
52.2826 220.00
52.3477 239.00
52.4129 231.00
52.4781 262.00
52.5433 264.00
52.6085 239.00
52.6737 242.00
52.7389 242.00
52.8041 257.00
52.8693 248.00
52.9345 248.00
52.9997 222.00
53.0649 262.00
53.1301 239.00
53.1953 222.00
53.2605 232.00
53.3257 239.00
53.3909 247.00
53.4561 233.00
53.5213 247.00
53.5865 219.00
53.6517 264.00
53.7169 233.00
53.7821 262.00
53.8473 198.00
53.9125 244.00
53.9777 241.00
54.0429 228.00
54.1081 266.00
54.1733 272.00
54.2385 218.00
54.3037 201.00
54.3689 215.00
54.4341 228.00
54.4993 226.00
54.5645 219.00
54.6297 214.00
54.6949 205.00
54.7601 221.00
54.8253 219.00
54.8905 235.00
54.9557 230.00
55.0209 208.00
55.0861 230.00
55.1513 227.00
55.2165 242.00
55.2817 217.00
55.3469 237.00
55.4121 212.00
55.4773 223.00
55.5425 234.00
55.6077 211.00
55.6729 221.00
55.7381 206.00
55.8033 216.00
55.8685 216.00
55.9337 239.00
55.9989 205.00
56.0641 236.00
56.1293 235.00
56.1945 217.00
56.2597 226.00
56.3249 202.00
56.3901 200.00
56.4553 226.00
56.5205 205.00
56.5857 245.00
56.6509 212.00
56.7161 235.00
56.7813 210.00
56.8465 239.00
56.9117 237.00
56.9769 222.00
57.042 190.00
57.1073 218.00
57.1724 240.00
57.2376 204.00
57.3028 217.00
57.368 217.00
57.4332 238.00
57.4984 188.00
57.5636 187.00
57.6288 208.00
57.694 202.00
57.7592 226.00
57.8244 213.00
57.8896 202.00
57.9548 202.00
58.02 177.00
58.0852 210.00
58.1504 215.00
58.2156 211.00
58.2808 206.00
58.346 201.00
58.4112 225.00
58.4764 208.00
58.5416 199.00
58.6068 226.00
58.672 230.00
58.7372 212.00
58.8024 207.00
58.8676 193.00
58.9328 201.00
58.998 200.00
59.0632 188.00
59.1284 189.00
59.1936 194.00
59.2588 198.00
59.324 178.00
59.3892 205.00
59.4544 209.00
59.5196 201.00
59.5848 197.00
59.65 197.00
59.7152 196.00
59.7804 171.00
59.8456 192.00
59.9108 213.00
59.976 195.00
60.0412 180.00
60.1064 217.00
60.1716 203.00
60.2368 223.00
60.302 188.00
60.3672 190.00
60.4324 192.00
60.4976 203.00
60.5628 209.00
60.628 213.00
60.6932 201.00
60.7584 198.00
60.8236 208.00
60.8888 227.00
60.954 175.00
61.0192 206.00
61.0844 205.00
61.1496 169.00
61.2148 207.00
61.28 213.00
61.3452 183.00
61.4104 187.00
61.4756 177.00
61.5408 200.00
61.606 209.00
61.6712 217.00
61.7364 203.00
61.8016 215.00
61.8667 203.00
61.932 206.00
61.9971 183.00
62.0623 213.00
62.1275 185.00
62.1927 157.00
62.2579 200.00
62.3231 197.00
62.3883 189.00
62.4535 192.00
62.5187 180.00
62.5839 195.00
62.6491 212.00
62.7143 204.00
62.7795 211.00
62.8447 188.00
62.9099 191.00
62.9751 171.00
63.0403 178.00
63.1055 198.00
63.1707 184.00
63.2359 197.00
63.3011 164.00
63.3663 185.00
63.4315 163.00
63.4967 170.00
63.5619 166.00
63.6271 168.00
63.6923 197.00
63.7575 211.00
63.8227 203.00
63.8879 179.00
63.9531 188.00
64.0183 192.00
64.0835 187.00
64.1487 195.00
64.2139 182.00
64.2791 173.00
64.3443 183.00
64.4095 187.00
64.4747 184.00
64.5399 201.00
64.6051 201.00
64.6703 170.00
64.7355 186.00
64.8007 204.00
64.8659 174.00
64.9311 202.00
64.9963 185.00
65.0615 197.00
65.1267 168.00
65.1919 188.00
65.2571 187.00
65.3223 178.00
65.3875 181.00
65.4527 186.00
65.5179 191.00
65.5831 184.00
65.6483 193.00
65.7135 182.00
65.7787 155.00
65.8439 165.00
65.9091 181.00
65.9743 189.00
66.0395 193.00
66.1047 174.00
66.1699 170.00
66.2351 191.00
66.3003 199.00
66.3655 184.00
66.4307 227.00
66.4959 168.00
66.561 191.00
66.6263 180.00
66.6915 185.00
66.7566 193.00
66.8218 193.00
66.887 180.00
66.9522 197.00
67.0174 185.00
67.0826 197.00
67.1478 176.00
67.213 174.00
67.2782 189.00
67.3434 215.00
67.4086 193.00
67.4738 199.00
67.539 191.00
67.6042 167.00
67.6694 162.00
67.7346 209.00
67.7998 202.00
67.865 181.00
67.9302 186.00
67.9954 187.00
68.0606 186.00
68.1258 193.00
68.191 199.00
68.2562 180.00
68.3214 164.00
68.3866 193.00
68.4518 180.00
68.517 157.00
68.5822 192.00
68.6474 183.00
68.7126 166.00
68.7778 179.00
68.843 185.00
68.9082 205.00
68.9734 218.00
69.0386 202.00
69.1038 173.00
69.169 181.00
69.2342 194.00
69.2994 158.00
69.3646 168.00
69.4298 191.00
69.495 195.00
69.5602 180.00
69.6254 157.00
69.6906 188.00
69.7558 186.00
69.821 159.00
69.8862 184.00
69.9514 173.00
70.0166 167.00
70.0818 194.00
70.147 178.00
70.2122 175.00
70.2774 218.00
70.3426 181.00
70.4078 189.00
70.473 202.00
70.5382 159.00
70.6034 157.00
70.6686 194.00
70.7338 198.00
70.799 196.00
70.8642 163.00
70.9294 174.00
70.9946 202.00
71.0598 193.00
71.125 152.00
71.1902 185.00
71.2554 176.00
71.3205 171.00
71.3858 228.00
71.451 193.00
71.5162 187.00
71.5813 200.00
71.6465 180.00
71.7117 165.00
71.7769 178.00
71.8421 212.00
71.9073 219.00
71.9725 188.00
72.0377 187.00
72.1029 160.00
72.1681 170.00
72.2333 193.00
72.2985 202.00
72.3637 172.00
72.4289 185.00
72.4941 212.00
72.5593 175.00
72.6245 201.00
72.6897 180.00
72.7549 176.00
72.8201 195.00
72.8853 205.00
72.9505 205.00
73.0157 200.00
73.0809 185.00
73.1461 205.00
73.2113 185.00
73.2765 215.00
73.3417 186.00
73.4069 179.00
73.4721 212.00
73.5373 192.00
73.6025 191.00
73.6677 209.00
73.7329 216.00
73.7981 193.00
73.8633 199.00
73.9285 190.00
73.9937 215.00
74.0589 201.00
74.1241 182.00
74.1893 192.00
74.2545 190.00
74.3197 178.00
74.3849 197.00
74.4501 200.00
74.5153 194.00
74.5805 174.00
74.6457 215.00
74.7109 186.00
74.7761 193.00
74.8413 188.00
74.9065 203.00
74.9717 186.00
75.0369 185.00
75.1021 167.00
75.1673 203.00
75.2325 177.00
75.2977 194.00
75.3629 201.00
75.4281 211.00
75.4933 197.00
75.5585 194.00
75.6237 190.00
75.6889 201.00
75.7541 210.00
75.8193 220.00
75.8845 191.00
75.9497 214.00
76.0149 173.00
76.0801 193.00
76.1452 181.00
76.2104 206.00
76.2756 217.00
76.3409 199.00
76.406 218.00
76.4712 195.00
76.5364 170.00
76.6016 193.00
76.6668 212.00
76.732 214.00
76.7972 177.00
76.8624 194.00
76.9276 222.00
76.9928 189.00
77.058 212.00
77.1232 211.00
77.1884 201.00
77.2536 190.00
77.3188 197.00
77.384 196.00
77.4492 196.00
77.5144 204.00
77.5796 198.00
77.6448 210.00
77.71 227.00
77.7752 203.00
77.8404 199.00
77.9056 205.00
77.9708 202.00
78.036 221.00
78.1012 212.00
78.1664 239.00
78.2316 186.00
78.2968 237.00
78.362 203.00
78.4272 199.00
78.4924 196.00
78.5576 256.00
78.6228 233.00
78.688 217.00
78.7532 225.00
78.8184 239.00
78.8836 199.00
78.9488 211.00
79.014 202.00
79.0792 193.00
79.1444 221.00
79.2096 200.00
79.2748 221.00
79.34 186.00
79.4052 208.00
79.4704 200.00
79.5356 208.00
79.6008 224.00
79.666 210.00
79.7312 210.00
79.7964 203.00
79.8616 227.00
79.9268 217.00
79.992 221.00
80.0572 201.00
80.1224 199.00
80.1876 203.00
80.2528 214.00
80.318 187.00
80.3832 203.00
80.4484 201.00
80.5136 218.00
80.5788 240.00
80.644 226.00
80.7092 227.00
80.7744 213.00
80.8396 256.00
80.9048 204.00
80.9699 217.00
81.0351 216.00
81.1003 244.00
81.1655 218.00
81.2307 227.00
81.2959 220.00
81.3611 241.00
81.4263 204.00
81.4915 216.00
81.5567 229.00
81.6219 209.00
81.6871 205.00
81.7523 188.00
81.8175 213.00
81.8827 226.00
81.9479 196.00
82.0131 232.00
82.0783 215.00
82.1435 228.00
82.2087 240.00
82.2739 257.00
82.3391 235.00
82.4043 199.00
82.4695 209.00
82.5347 216.00
82.5999 257.00
82.6651 213.00
82.7303 216.00
82.7955 227.00
82.8607 188.00
82.9259 208.00
82.9911 208.00
83.0563 214.00
83.1215 223.00
83.1867 230.00
83.2519 213.00
83.3171 218.00
83.3823 256.00
83.4475 206.00
83.5127 223.00
83.5779 202.00
83.6431 217.00
83.7083 198.00
83.7735 202.00
83.8387 186.00
83.9039 216.00
83.9691 222.00
84.0343 188.00
84.0995 198.00
84.1647 218.00
84.2299 208.00
84.2951 218.00
84.3603 221.00
84.4255 194.00
84.4907 197.00
84.5559 214.00
84.6211 231.00
84.6863 199.00
84.7515 207.00
84.8167 217.00
84.8819 205.00
84.9471 223.00
85.0123 211.00
85.0775 198.00
85.1427 226.00
85.2079 210.00
85.2731 189.00
85.3383 219.00
85.4035 188.00
85.4687 187.00
85.5339 213.00
85.5991 216.00
85.6643 202.00
85.7295 205.00
85.7946 192.00
85.8598 195.00
85.925 209.00
85.9903 206.00
86.0554 170.00
86.1206 226.00
86.1858 189.00
86.251 182.00
86.3162 179.00
86.3814 203.00
86.4466 196.00
86.5118 212.00
86.577 204.00
86.6422 201.00
86.7074 191.00
86.7726 201.00
86.8378 201.00
86.903 183.00
86.9682 187.00
87.0334 195.00
87.0986 198.00
87.1638 175.00
87.229 205.00
87.2942 165.00
87.3594 203.00
87.4246 189.00
87.4898 202.00
87.555 190.00
87.6202 195.00
87.6854 211.00
87.7506 209.00
87.8158 212.00
87.881 194.00
87.9462 194.00
88.0114 189.00
88.0766 197.00
88.1418 203.00
88.207 202.00
88.2722 176.00
88.3374 192.00
88.4026 189.00
88.4678 214.00
88.533 179.00
88.5982 177.00
88.6634 204.00
88.7286 193.00
88.7938 205.00
88.859 207.00
88.9242 189.00
88.9894 181.00
89.0546 166.00
89.1198 173.00
89.185 164.00
89.2502 178.00
89.3154 197.00
89.3806 170.00
89.4458 172.00
89.511 180.00
89.5762 183.00
89.6414 184.00
89.7066 186.00
89.7718 181.00
89.837 146.00
89.9022 192.00
89.9674 186.00
90.0326 194.00
90.0978 188.00
90.163 172.00
90.2282 174.00
90.2934 177.00
90.3586 176.00
90.4238 175.00
90.489 204.00
90.5542 184.00
90.6193 194.00
90.6845 228.00
90.7497 160.00
90.8149 168.00
90.8801 210.00
90.9453 174.00
91.0105 167.00
91.0757 160.00
91.1409 153.00
91.2061 194.00
91.2713 190.00
91.3365 191.00
91.4017 215.00
91.4669 194.00
91.5321 165.00
91.5973 227.00
91.6625 178.00
91.7277 177.00
91.7929 190.00
91.8581 166.00
91.9233 157.00
91.9885 177.00
92.0537 193.00
92.1189 201.00
92.1841 168.00
92.2493 188.00
92.3145 192.00
92.3797 174.00
92.4449 144.00
92.5101 175.00
92.5753 169.00
92.6405 177.00
92.7057 169.00
92.7709 168.00
92.8361 202.00
92.9013 174.00
92.9665 174.00
93.0317 188.00
93.0969 170.00
93.1621 181.00
93.2273 178.00
93.2925 193.00
93.3577 170.00
93.4229 176.00
93.4881 208.00
93.5533 166.00
93.6185 175.00
93.6837 185.00
93.7489 177.00
93.8141 176.00
93.8793 158.00
93.9445 182.00
94.0097 180.00
94.0749 184.00
94.1401 177.00
94.2053 183.00
94.2705 173.00
94.3357 183.00
94.4009 177.00
94.4661 167.00
94.5313 164.00
94.5965 169.00
94.6617 200.00
94.7269 187.00
94.7921 177.00
94.8573 162.00
94.9225 172.00
94.9877 175.00
95.0529 156.00
95.1181 187.00
95.1833 169.00
95.2485 159.00
95.3137 171.00
95.3789 157.00
95.444 209.00
95.5092 183.00
95.5744 185.00
95.6396 157.00
95.7048 186.00
95.77 200.00
95.8352 170.00
95.9004 190.00
95.9656 180.00
96.0308 196.00
96.096 181.00
96.1612 172.00
96.2264 193.00
96.2916 192.00
96.3568 186.00
96.422 160.00
96.4872 141.00
96.5524 166.00
96.6176 183.00
96.6828 173.00
96.748 182.00
96.8132 162.00
96.8784 178.00
96.9436 181.00
97.0088 174.00
97.074 179.00
97.1392 191.00
97.2044 169.00
97.2696 183.00
97.3348 180.00
97.4 158.00
97.4652 183.00
97.5304 206.00
97.5956 171.00
97.6608 186.00
97.726 183.00
97.7912 177.00
97.8564 171.00
97.9216 184.00
97.9868 181.00
98.052 191.00
98.1172 181.00
98.1824 190.00
98.2476 186.00
98.3128 162.00
98.378 175.00
98.4432 151.00
98.5084 182.00
98.5736 175.00
98.6388 167.00
98.704 160.00
98.7692 183.00
98.8344 188.00
98.8996 153.00
98.9648 165.00
99.03 185.00
99.0952 194.00
99.1604 172.00
99.2256 175.00
99.2908 181.00
99.356 175.00
99.4212 181.00
99.4864 186.00
99.5516 189.00
99.6168 166.00
99.682 181.00
99.7472 175.00
99.8124 171.00
99.8776 192.00
99.9428 170.00
100.008 163.00
100.073 181.00
100.095 187.00