File: data/xrd_creation/results/NSC_201.xy
9.903433 2821.00
9.968632 2774.00
10.0338 2825.00
10.099 2795.00
10.1642 2796.00
10.2294 2740.00
10.2946 2785.00
10.3598 2624.00
10.425 2742.00
10.4902 2707.00
10.5554 2852.00
10.6206 2791.00
10.6858 2745.00
10.751 2826.00
10.8162 2659.00
10.8814 2719.00
10.9466 2624.00
11.0118 2671.00
11.077 2508.00
11.1422 2508.00
11.2074 2466.00
11.2726 2427.00
11.3378 2401.00
11.403 2493.00
11.4682 2443.00
11.5334 2433.00
11.5986 2508.00
11.6638 2365.00
11.729 2370.00
11.7942 2299.00
11.8594 2444.00
11.9246 2280.00
11.9898 2317.00
12.055 2275.00
12.1202 2283.00
12.1854 2246.00
12.2506 2247.00
12.3158 2278.00
12.381 2213.00
12.4462 2202.00
12.5114 2247.00
12.5766 2177.00
12.6418 2153.00
12.707 2210.00
12.7722 2196.00
12.8374 2244.00
12.9026 2171.00
12.9678 2216.00
13.033 2096.00
13.0982 2181.00
13.1634 2153.00
13.2286 2130.00
13.2938 2130.00
13.359 2182.00
13.4242 2108.00
13.4894 2163.00
13.5546 2121.00
13.6198 2082.00
13.685 2096.00
13.7502 2214.00
13.8154 2165.00
13.8805 2183.00
13.9457 2401.00
14.0109 2655.00
14.0761 2756.00
14.1413 2458.00
14.2065 2183.00
14.2717 2141.00
14.3369 2048.00
14.4021 2086.00
14.4673 2060.00
14.5325 2063.00
14.5977 2037.00
14.6629 2050.00
14.7281 2002.00
14.7933 2175.00
14.8585 2176.00
14.9237 2351.00
14.9889 2534.00
15.0541 2473.00
15.1193 2363.00
15.1845 2131.00
15.2497 2084.00
15.3149 2038.00
15.3801 2042.00
15.4453 1995.00
15.5105 1999.00
15.5757 1878.00
15.6409 1938.00
15.7061 1901.00
15.7713 1914.00
15.8365 1818.00
15.9017 1854.00
15.9669 1901.00
16.0321 1879.00
16.0973 1879.00
16.1625 1889.00
16.2277 1913.00
16.2929 1952.00
16.3581 1939.00
16.4233 1880.00
16.4885 1854.00
16.5537 1954.00
16.6189 1859.00
16.6841 1842.00
16.7493 1943.00
16.8145 1852.00
16.8797 1841.00
16.9449 1793.00
17.0101 1901.00
17.0753 1858.00
17.1405 1822.00
17.2057 1753.00
17.2709 1838.00
17.3361 1867.00
17.4013 1813.00
17.4665 1860.00
17.5317 1841.00
17.5969 1900.00
17.6621 2009.00
17.7273 2044.00
17.7925 2052.00
17.8577 2219.00
17.9229 2261.00
17.9881 2102.00
18.0533 1880.00
18.1185 1840.00
18.1837 1778.00
18.2489 1760.00
18.3141 1870.00
18.3793 1691.00
18.4445 1776.00
18.5097 1721.00
18.5749 1744.00
18.6401 1791.00
18.7052 1776.00
18.7704 1696.00
18.8356 1688.00
18.9008 1772.00
18.966 1778.00
19.0312 1797.00
19.0964 1840.00
19.1616 1831.00
19.2268 1810.00
19.292 1958.00
19.3572 2098.00
19.4224 2368.00
19.4876 2812.00
19.5528 3589.00
19.618 4181.00
19.6832 4542.00
19.7484 4300.00
19.8136 4039.00
19.8788 4019.00
19.944 3825.00
20.0092 3052.00
20.0744 2509.00
20.1396 2219.00
20.2048 1927.00
20.27 1815.00
20.3352 1852.00
20.4004 1847.00
20.4656 1793.00
20.5308 1784.00
20.596 1867.00
20.6612 1780.00
20.7264 1930.00
20.7916 1839.00
20.8568 1929.00
20.922 2176.00
20.9872 2362.00
21.0524 2555.00
21.1176 2176.00
21.1828 1966.00
21.248 2065.00
21.3132 2295.00
21.3784 2562.00
21.4436 2594.00
21.5088 2624.00
21.574 2636.00
21.6392 2912.00
21.7044 2736.00
21.7696 2459.00
21.8348 2174.00
21.9 2035.00
21.9652 1827.00
22.0304 1666.00
22.0956 1690.00
22.1608 1661.00
22.226 1715.00
22.2912 1723.00
22.3564 1861.00
22.4216 1953.00
22.4868 2222.00
22.552 2433.00
22.6172 2623.00
22.6824 2730.00
22.7476 2407.00
22.8128 2015.00
22.878 1866.00
22.9432 1856.00
23.0084 1836.00
23.0736 2029.00
23.1388 2247.00
23.204 2318.00
23.2692 2265.00
23.3344 1970.00
23.3996 1811.00
23.4647 1751.00
23.5299 1698.00
23.5951 1683.00
23.6603 1730.00
23.7255 1579.00
23.7907 1577.00
23.8559 1583.00
23.9211 1659.00
23.9863 1686.00
24.0515 1815.00
24.1167 1855.00
24.1819 2125.00
24.2471 2419.00
24.3123 2504.00
24.3775 2681.00
24.4427 2788.00
24.5079 2947.00
24.5731 3006.00
24.6383 2534.00
24.7035 2268.00
24.7687 2218.00
24.8339 2359.00
24.8991 2599.00
24.9643 2660.00
25.0295 2543.00
25.0947 1975.00
25.1599 1614.00
25.2251 1570.00
25.2903 1571.00
25.3555 1524.00
25.4207 1440.00
25.4859 1515.00
25.5511 1502.00
25.6163 1447.00
25.6815 1457.00
25.7467 1457.00
25.8119 1555.00
25.8771 1524.00
25.9423 1515.00
26.0075 1620.00
26.0727 1577.00
26.1379 1648.00
26.2031 1586.00
26.2683 1579.00
26.3335 1548.00
26.3987 1493.00
26.4639 1542.00
26.5291 1514.00
26.5943 1500.00
26.6595 1498.00
26.7247 1548.00
26.7899 1492.00
26.8551 1481.00
26.9203 1470.00
26.9855 1528.00
27.0507 1559.00
27.1159 1496.00
27.1811 1503.00
27.2463 1534.00
27.3115 1427.00
27.3767 1485.00
27.4419 1496.00
27.5071 1518.00
27.5723 1529.00
27.6375 1570.00
27.7027 1692.00
27.7679 1906.00
27.8331 2442.00
27.8983 2845.00
27.9635 3052.00
28.0287 2990.00
28.0939 2477.00
28.1591 2133.00
28.2243 2163.00
28.2894 2312.00
28.3546 2893.00
28.4198 3732.00
28.485 5454.00
28.5502 7683.00
28.6154 9192.00
28.6806 10506.00
28.7458 10077.00
28.811 7205.00
28.8762 4535.00
28.9414 3002.00
29.0066 2341.00
29.0718 2070.00
29.137 1829.00
29.2022 1657.00
29.2674 1588.00
29.3326 1557.00
29.3978 1605.00
29.463 1554.00
29.5282 1529.00
29.5934 1515.00
29.6586 1529.00
29.7238 1507.00
29.789 1539.00
29.8542 1474.00
29.9194 1438.00
29.9846 1576.00
30.0498 1565.00
30.115 1420.00
30.1802 1405.00
30.2454 1456.00
30.3106 1462.00
30.3758 1521.00
30.441 1588.00
30.5062 1653.00
30.5714 1777.00
30.6366 1868.00
30.7018 2085.00
30.767 2277.00
30.8322 2517.00
30.8974 2857.00
30.9626 3515.00
31.0278 4272.00
31.093 4520.00
31.1582 4449.00
31.2234 3764.00
31.2886 3095.00
31.3538 2597.00
31.419 2359.00
31.4842 2273.00
31.5494 2330.00
31.6146 2644.00
31.6798 3097.00
31.745 3873.00
31.8102 5148.00
31.8754 6210.00
31.9406 7193.00
32.0058 8046.00
32.071 6884.00
32.1362 4992.00
32.2014 3210.00
32.2666 2375.00
32.3318 2041.00
32.397 1975.00
32.4622 1814.00
32.5274 1753.00
32.5926 1725.00
32.6578 1572.00
32.723 1635.00
32.7882 1506.00
32.8534 1543.00
32.9186 1566.00
32.9838 1578.00
33.0489 1590.00
33.1141 1634.00
33.1793 1673.00
33.2445 1815.00
33.3097 1841.00
33.3749 2060.00
33.4401 2058.00
33.5053 2074.00
33.5705 1931.00
33.6357 1805.00
33.7009 1812.00
33.7661 1854.00
33.8313 1937.00
33.8965 2041.00
33.9617 2028.00
34.0269 2092.00
34.0921 2098.00
34.1573 2332.00
34.2225 3023.00
34.2877 3782.00
34.3529 4633.00
34.4181 5681.00
34.4833 5866.00
34.5485 5623.00
34.6137 5469.00
34.6789 5047.00
34.7441 4212.00
34.8093 3497.00
34.8745 3271.00
34.9397 3227.00
35.0049 3429.00
35.0701 2971.00
35.1353 2327.00
35.2005 1774.00
35.2657 1644.00
35.3309 1479.00
35.3961 1523.00
35.4613 1523.00
35.5265 1666.00
35.5917 1783.00
35.6569 2044.00
35.7221 2449.00
35.7873 2871.00
35.8525 3412.00
35.9177 3284.00
35.9829 2587.00
36.0481 1977.00
36.1133 1635.00
36.1785 1582.00
36.2437 1544.00
36.3089 1741.00
36.3741 1774.00
36.4393 1768.00
36.5045 1672.00
36.5697 1507.00
36.6349 1404.00
36.7001 1233.00
36.7653 1313.00
36.8305 1271.00
36.8957 1281.00
36.9609 1239.00
37.0261 1310.00
37.0913 1330.00
37.1565 1293.00
37.2217 1205.00
37.2869 1243.00
37.3521 1229.00
37.4173 1196.00
37.4825 1181.00
37.5477 1131.00
37.6129 1160.00
37.6781 1160.00
37.7433 1164.00
37.8085 1150.00
37.8736 1152.00
37.9388 1128.00
38.004 1113.00
38.0692 1149.00
38.1344 1101.00
38.1996 1127.00
38.2648 1120.00
38.33 1120.00
38.3952 1181.00
38.4604 1104.00
38.5256 1163.00
38.5908 1094.00
38.656 1215.00
38.7212 1157.00
38.7864 1201.00
38.8516 1277.00
38.9168 1389.00
38.982 1424.00
39.0472 1587.00
39.1124 1722.00
39.1776 1831.00
39.2428 1722.00
39.308 1586.00
39.3732 1346.00
39.4384 1312.00
39.5036 1270.00
39.5688 1239.00
39.634 1268.00
39.6992 1267.00
39.7644 1271.00
39.8296 1292.00
39.8948 1380.00
39.96 1388.00
40.0252 1309.00
40.0904 1341.00
40.1556 1300.00
40.2208 1231.00
40.286 1184.00
40.3512 1188.00
40.4164 1220.00
40.4816 1243.00
40.5468 1246.00
40.612 1288.00
40.6772 1213.00
40.7424 1220.00
40.8076 1311.00
40.8728 1265.00
40.938 1399.00
41.0032 1572.00
41.0684 1786.00
41.1336 1985.00
41.1988 2153.00
41.264 2281.00
41.3292 2492.00
41.3944 2383.00
41.4596 2275.00
41.5248 2026.00
41.59 1890.00
41.6552 1870.00
41.7204 1934.00
41.7856 1961.00
41.8508 1787.00
41.916 1798.00
41.9812 1810.00
42.0464 1750.00
42.1116 1616.00
42.1768 1491.00
42.242 1422.00
42.3072 1317.00
42.3724 1325.00
42.4376 1378.00
42.5028 1221.00
42.568 1203.00
42.6332 1110.00
42.6983 1114.00
42.7635 1118.00
42.8287 1061.00
42.8939 1006.00
42.9591 1054.00
43.0243 1105.00
43.0895 1104.00
43.1547 1134.00
43.2199 1090.00
43.2851 1239.00
43.3503 1138.00
43.4155 1197.00
43.4807 1136.00
43.5459 1151.00
43.6111 1260.00
43.6763 1305.00
43.7415 1247.00
43.8067 1257.00
43.8719 1150.00
43.9371 1138.00
44.0023 1080.00
44.0675 1105.00
44.1327 1085.00
44.1979 1125.00
44.2631 1092.00
44.3283 1208.00
44.3935 1273.00
44.4587 1335.00
44.5239 1367.00
44.5891 1499.00
44.6543 1460.00
44.7195 1453.00
44.7847 1553.00
44.8499 1515.00
44.9151 1519.00
44.9803 1562.00
45.0455 1486.00
45.1107 1556.00
45.1759 1510.00
45.2411 1461.00
45.3063 1435.00
45.3715 1599.00
45.4367 1456.00
45.5019 1498.00
45.5671 1388.00
45.6323 1408.00
45.6975 1438.00
45.7627 1411.00
45.8279 1520.00
45.8931 1504.00
45.9583 1568.00
46.0235 1592.00
46.0887 1585.00
46.1539 1703.00
46.2191 1596.00
46.2843 1534.00
46.3495 1471.00
46.4147 1391.00
46.4799 1385.00
46.5451 1414.00
46.6103 1386.00
46.6755 1487.00
46.7407 1522.00
46.8059 1615.00
46.8711 1707.00
46.9363 1922.00
47.0015 1855.00
47.0667 1880.00
47.1319 1756.00
47.1971 1674.00
47.2623 1499.00
47.3275 1458.00
47.3927 1373.00
47.4579 1350.00
47.523 1269.00
47.5882 1254.00
47.6534 1234.00
47.7186 1192.00
47.7838 1137.00
47.849 1133.00
47.9142 1069.00
47.9794 1137.00
48.0446 1060.00
48.1098 1145.00
48.175 1144.00
48.2402 1133.00
48.3054 1146.00
48.3706 1124.00
48.4358 1152.00
48.501 1185.00
48.5662 1225.00
48.6314 1046.00
48.6966 1134.00
48.7618 1135.00
48.827 1142.00
48.8922 1108.00
48.9574 1160.00
49.0226 1159.00
49.0878 1297.00
49.153 1304.00
49.2182 1334.00
49.2834 1490.00
49.3486 1574.00
49.4138 1625.00
49.479 1714.00
49.5442 1799.00
49.6094 1902.00
49.6746 1957.00
49.7398 1933.00
49.805 2150.00
49.8702 2481.00
49.9354 2440.00
50.0006 2208.00
50.0658 1991.00
50.131 1610.00
50.1962 1381.00
50.2614 1257.00
50.3266 1411.00
50.3918 1650.00
50.457 1978.00
50.5222 2008.00
50.5874 2077.00
50.6526 2344.00
50.7178 2875.00
50.783 3270.00
50.8482 3369.00
50.9134 3076.00
50.9786 2747.00
51.0438 2367.00
51.109 2350.00
51.1742 2216.00
51.2394 2231.00
51.3046 1955.00
51.3698 1770.00
51.435 1593.00
51.5002 1484.00
51.5654 1451.00
51.6306 1304.00
51.6958 1316.00
51.761 1291.00
51.8262 1413.00
51.8914 1497.00
51.9566 1348.00
52.0218 1307.00
52.087 1269.00
52.1522 1249.00
52.2174 1264.00
52.2826 1195.00
52.3477 1221.00
52.4129 1174.00
52.4781 1159.00
52.5433 1141.00
52.6085 1179.00
52.6737 1047.00
52.7389 1072.00
52.8041 1135.00
52.8693 1160.00
52.9345 1102.00
52.9997 1133.00
53.0649 1134.00
53.1301 1175.00
53.1953 1205.00
53.2605 1230.00
53.3257 1327.00
53.3909 1412.00
53.4561 1439.00
53.5213 1583.00
53.5865 1592.00
53.6517 1618.00
53.7169 1647.00
53.7821 1606.00
53.8473 1553.00
53.9125 1537.00
53.9777 1413.00
54.0429 1520.00
54.1081 1378.00
54.1733 1338.00
54.2385 1338.00
54.3037 1487.00
54.3689 1467.00
54.4341 1606.00
54.4993 1593.00
54.5645 1601.00
54.6297 1758.00
54.6949 1857.00
54.7601 1818.00
54.8253 1830.00
54.8905 1622.00
54.9557 1490.00
55.0209 1359.00
55.0861 1284.00
55.1513 1233.00
55.2165 1273.00
55.2817 1343.00
55.3469 1318.00
55.4121 1313.00
55.4773 1332.00
55.5425 1433.00
55.6077 1535.00
55.6729 1516.00
55.7381 1669.00
55.8033 1776.00
55.8685 1994.00
55.9337 2235.00
55.9989 2316.00
56.0641 2278.00
56.1293 2093.00
56.1945 2154.00
56.2597 1959.00
56.3249 1741.00
56.3901 1653.00
56.4553 1634.00
56.5205 1663.00
56.5857 1696.00
56.6509 1756.00
56.7161 1598.00
56.7813 1559.00
56.8465 1441.00
56.9117 1229.00
56.9769 1199.00
57.042 1129.00
57.1073 1165.00
57.1724 1172.00
57.2376 1180.00
57.3028 1168.00
57.368 1286.00
57.4332 1271.00
57.4984 1332.00
57.5636 1279.00
57.6288 1414.00
57.694 1517.00
57.7592 1548.00
57.8244 1733.00
57.8896 1671.00
57.9548 1657.00
58.02 1601.00
58.0852 1535.00
58.1504 1386.00
58.2156 1386.00
58.2808 1377.00
58.346 1337.00
58.4112 1424.00
58.4764 1449.00
58.5416 1587.00
58.6068 1676.00
58.672 1725.00
58.7372 1656.00
58.8024 1620.00
58.8676 1640.00
58.9328 1623.00
58.998 1621.00
59.0632 1664.00
59.1284 1576.00
59.1936 1627.00
59.2588 1567.00
59.324 1589.00
59.3892 1522.00
59.4544 1441.00
59.5196 1486.00
59.5848 1334.00
59.65 1409.00
59.7152 1233.00
59.7804 1263.00
59.8456 1201.00
59.9108 1182.00
59.976 1226.00
60.0412 1325.00
60.1064 1375.00
60.1716 1552.00
60.2368 1577.00
60.302 1580.00
60.3672 1706.00
60.4324 1847.00
60.4976 1919.00
60.5628 1992.00
60.628 1986.00
60.6932 1935.00
60.7584 1805.00
60.8236 1675.00
60.8888 1558.00
60.954 1494.00
61.0192 1409.00
61.0844 1381.00
61.1496 1456.00
61.2148 1371.00
61.28 1429.00
61.3452 1438.00
61.4104 1453.00
61.4756 1441.00
61.5408 1461.00
61.606 1435.00
61.6712 1419.00
61.7364 1403.00
61.8016 1332.00
61.8667 1473.00
61.932 1468.00
61.9971 1654.00
62.0623 1576.00
62.1275 1534.00
62.1927 1533.00
62.2579 1541.00
62.3231 1504.00
62.3883 1504.00
62.4535 1504.00
62.5187 1606.00
62.5839 1490.00
62.6491 1735.00
62.7143 1622.00
62.7795 1564.00
62.8447 1434.00
62.9099 1371.00
62.9751 1362.00
63.0403 1333.00
63.1055 1418.00
63.1707 1380.00
63.2359 1362.00
63.3011 1252.00
63.3663 1353.00
63.4315 1397.00
63.4967 1575.00
63.5619 1603.00
63.6271 1632.00
63.6923 1470.00
63.7575 1388.00
63.8227 1176.00
63.8879 1138.00
63.9531 1026.00
64.0183 1085.00
64.0835 1045.00
64.1487 1007.00
64.2139 1019.00
64.2791 1035.00
64.3443 1068.00
64.4095 1035.00
64.4747 1063.00
64.5399 1077.00
64.6051 1138.00
64.6703 1149.00
64.7355 1219.00
64.8007 1253.00
64.8659 1234.00
64.9311 1279.00
64.9963 1271.00
65.0615 1332.00
65.1267 1283.00
65.1919 1205.00
65.2571 1184.00
65.3223 1110.00
65.3875 1130.00
65.4527 1109.00
65.5179 1137.00
65.5831 1142.00
65.6483 1151.00
65.7135 1261.00
65.7787 1212.00
65.8439 1235.00
65.9091 1268.00
65.9743 1340.00
66.0395 1462.00
66.1047 1449.00
66.1699 1490.00
66.2351 1528.00
66.3003 1617.00
66.3655 1678.00
66.4307 1725.00
66.4959 1697.00
66.561 1613.00
66.6263 1506.00
66.6915 1486.00
66.7566 1335.00
66.8218 1280.00
66.887 1185.00
66.9522 1092.00
67.0174 1047.00
67.0826 1066.00
67.1478 961.00
67.213 919.00
67.2782 1017.00
67.3434 962.00
67.4086 1006.00
67.4738 1008.00
67.539 992.00
67.6042 967.00
67.6694 944.00
67.7346 936.00
67.7998 909.00
67.865 919.00
67.9302 926.00
67.9954 875.00
68.0606 907.00
68.1258 848.00
68.191 959.00
68.2562 906.00
68.3214 917.00
68.3866 926.00
68.4518 911.00
68.517 994.00
68.5822 913.00
68.6474 997.00
68.7126 997.00
68.7778 935.00
68.843 991.00
68.9082 966.00
68.9734 937.00
69.0386 949.00
69.1038 984.00
69.169 943.00
69.2342 1020.00
69.2994 977.00
69.3646 931.00
69.4298 961.00
69.495 944.00
69.5602 1082.00
69.6254 1047.00
69.6906 1028.00
69.7558 1139.00
69.821 1086.00
69.8862 1081.00
69.9514 993.00
70.0166 985.00
70.0818 980.00
70.147 945.00
70.2122 914.00
70.2774 1014.00
70.3426 951.00
70.4078 961.00
70.473 992.00
70.5382 914.00
70.6034 959.00
70.6686 994.00
70.7338 959.00
70.799 964.00
70.8642 966.00
70.9294 949.00
70.9946 945.00
71.0598 919.00
71.125 954.00
71.1902 975.00
71.2554 984.00
71.3205 1071.00
71.3858 1073.00
71.451 1025.00
71.5162 1084.00
71.5813 1088.00
71.6465 1082.00
71.7117 1171.00
71.7769 1206.00
71.8421 1348.00
71.9073 1390.00
71.9725 1410.00
72.0377 1381.00
72.1029 1302.00
72.1681 1304.00
72.2333 1221.00
72.2985 1143.00
72.3637 1148.00
72.4289 1119.00
72.4941 1109.00
72.5593 1072.00
72.6245 1137.00
72.6897 1081.00
72.7549 1094.00
72.8201 1071.00
72.8853 1161.00
72.9505 1083.00
73.0157 1083.00
73.0809 1093.00
73.1461 1066.00
73.2113 1088.00
73.2765 1053.00
73.3417 1066.00
73.4069 1051.00
73.4721 1002.00
73.5373 993.00
73.6025 1043.00
73.6677 944.00
73.7329 922.00
73.7981 846.00
73.8633 980.00
73.9285 975.00
73.9937 880.00
74.0589 885.00
74.1241 894.00
74.1893 972.00
74.2545 896.00
74.3197 943.00
74.3849 907.00
74.4501 913.00
74.5153 883.00
74.5805 931.00
74.6457 893.00
74.7109 901.00
74.7761 891.00
74.8413 930.00
74.9065 974.00
74.9717 989.00
75.0369 949.00
75.1021 935.00
75.1673 992.00
75.2325 1021.00
75.2977 985.00
75.3629 1025.00
75.4281 1127.00
75.4933 1069.00
75.5585 1113.00
75.6237 1119.00
75.6889 1104.00
75.7541 1133.00
75.8193 1166.00
75.8845 1152.00
75.9497 1278.00
76.0149 1253.00
76.0801 1232.00
76.1452 1120.00
76.2104 1021.00
76.2756 1040.00
76.3409 1030.00
76.406 1024.00
76.4712 923.00
76.5364 970.00
76.6016 1007.00
76.6668 954.00
76.732 939.00
76.7972 953.00
76.8624 1005.00
76.9276 953.00
76.9928 966.00
77.058 1039.00
77.1232 1041.00
77.1884 1008.00
77.2536 1022.00
77.3188 983.00
77.384 1036.00
77.4492 991.00
77.5144 973.00
77.5796 947.00
77.6448 889.00
77.71 938.00
77.7752 919.00
77.8404 927.00
77.9056 926.00
77.9708 918.00
78.036 933.00
78.1012 989.00
78.1664 910.00
78.2316 1000.00
78.2968 966.00
78.362 1028.00
78.4272 1000.00
78.4924 1015.00
78.5576 978.00
78.6228 987.00
78.688 905.00
78.7532 934.00
78.8184 931.00
78.8836 930.00
78.9488 957.00
79.014 877.00
79.0792 911.00
79.1444 973.00
79.2096 1034.00
79.2748 965.00
79.34 939.00
79.4052 897.00
79.4704 980.00
79.5356 997.00
79.6008 996.00
79.666 1041.00
79.7312 1044.00
79.7964 1133.00
79.8616 1037.00
79.9268 1082.00
79.992 995.00
80.0572 986.00
80.1224 962.00
80.1876 1012.00
80.2528 1017.00
80.318 938.00
80.3832 935.00
80.4484 946.00
80.5136 921.00
80.5788 967.00
80.644 937.00
80.7092 878.00
80.7744 947.00
80.8396 974.00
80.9048 943.00
80.9699 895.00
81.0351 880.00
81.1003 923.00
81.1655 921.00
81.2307 933.00
81.2959 919.00
81.3611 864.00
81.4263 942.00
81.4915 852.00
81.5567 864.00
81.6219 836.00
81.6871 926.00
81.7523 922.00
81.8175 887.00
81.8827 929.00
81.9479 979.00
82.0131 980.00
82.0783 1000.00
82.1435 1018.00
82.2087 1031.00
82.2739 1064.00
82.3391 1050.00
82.4043 1086.00
82.4695 1039.00
82.5347 1099.00
82.5999 1087.00
82.6651 1019.00
82.7303 1008.00
82.7955 1014.00
82.8607 956.00
82.9259 969.00
82.9911 977.00
83.0563 973.00
83.1215 987.00
83.1867 1000.00
83.2519 996.00
83.3171 1065.00
83.3823 1085.00
83.4475 1057.00
83.5127 1078.00
83.5779 1104.00
83.6431 1100.00
83.7083 1099.00
83.7735 1097.00
83.8387 1046.00
83.9039 1106.00
83.9691 1079.00
84.0343 1082.00
84.0995 1079.00
84.1647 1059.00
84.2299 1025.00
84.2951 1040.00
84.3603 1026.00
84.4255 1030.00
84.4907 1009.00
84.5559 963.00
84.6211 1010.00
84.6863 981.00
84.7515 1015.00
84.8167 1033.00
84.8819 1067.00
84.9471 1081.00
85.0123 1090.00
85.0775 1054.00
85.1427 1023.00
85.2079 955.00
85.2731 1013.00
85.3383 963.00
85.4035 1057.00
85.4687 934.00
85.5339 969.00
85.5991 1015.00
85.6643 963.00
85.7295 960.00
85.7946 952.00
85.8598 998.00
85.925 961.00
85.9903 999.00
86.0554 946.00
86.1206 907.00
86.1858 958.00
86.251 897.00
86.3162 825.00
86.3814 916.00
86.4466 936.00
86.5118 946.00
86.577 923.00
86.6422 953.00
86.7074 909.00
86.7726 999.00
86.8378 984.00
86.903 1060.00
86.9682 1054.00
87.0334 1016.00
87.0986 994.00
87.1638 920.00
87.229 952.00
87.2942 961.00
87.3594 949.00
87.4246 902.00
87.4898 928.00
87.555 933.00
87.6202 906.00
87.6854 931.00
87.7506 873.00
87.8158 970.00
87.881 919.00
87.9462 926.00
88.0114 934.00
88.0766 971.00
88.1418 971.00
88.207 973.00
88.2722 1025.00
88.3374 1013.00
88.4026 1134.00
88.4678 1032.00
88.533 1050.00
88.5982 1030.00
88.6634 1052.00
88.7286 1083.00
88.7938 1079.00
88.859 1032.00
88.9242 1067.00
88.9894 1098.00
89.0546 1007.00
89.1198 1052.00
89.185 1057.00
89.2502 1146.00
89.3154 1160.00
89.3806 1119.00
89.4458 1065.00
89.511 1187.00
89.5762 1035.00
89.6414 955.00
89.7066 989.00
89.7718 1024.00
89.837 983.00
89.9022 1031.00
89.9674 1071.00
90.0326 1029.00
90.0978 1051.00
90.163 1039.00
90.2282 1030.00
90.2934 948.00
90.3586 1058.00
90.4238 1016.00
90.489 1037.00
90.5542 1094.00
90.6193 1016.00
90.6845 1072.00
90.7497 1047.00
90.8149 1022.00
90.8801 1073.00
90.9453 947.00
91.0105 1011.00
91.0757 992.00
91.1409 940.00
91.2061 922.00
91.2713 933.00
91.3365 954.00
91.4017 930.00
91.4669 925.00
91.5321 925.00
91.5973 932.00
91.6625 926.00
91.7277 853.00
91.7929 939.00
91.8581 908.00
91.9233 895.00
91.9885 911.00
92.0537 868.00
92.1189 890.00
92.1841 989.00
92.2493 958.00
92.3145 933.00
92.3797 944.00
92.4449 861.00
92.5101 885.00
92.5753 893.00
92.6405 879.00
92.7057 859.00
92.7709 871.00
92.8361 890.00
92.9013 882.00
92.9665 834.00
93.0317 865.00
93.0969 932.00
93.1621 853.00
93.2273 894.00
93.2925 916.00
93.3577 839.00
93.4229 917.00
93.4881 897.00
93.5533 862.00
93.6185 893.00
93.6837 893.00
93.7489 846.00
93.8141 880.00
93.8793 939.00
93.9445 919.00
94.0097 936.00
94.0749 913.00
94.1401 904.00
94.2053 833.00
94.2705 844.00
94.3357 913.00
94.4009 905.00
94.4661 959.00
94.5313 847.00
94.5965 908.00
94.6617 945.00
94.7269 985.00
94.7921 933.00
94.8573 946.00
94.9225 919.00
94.9877 990.00
95.0529 972.00
95.1181 891.00
95.1833 986.00
95.2485 941.00
95.3137 952.00
95.3789 909.00
95.444 958.00
95.5092 969.00
95.5744 948.00
95.6396 965.00
95.7048 980.00
95.77 975.00
95.8352 989.00
95.9004 995.00
95.9656 999.00
96.0308 1028.00
96.096 1029.00
96.1612 1026.00
96.2264 1034.00
96.2916 1114.00
96.3568 989.00
96.422 1003.00
96.4872 1059.00
96.5524 924.00
96.6176 910.00
96.6828 963.00
96.748 1003.00
96.8132 987.00
96.8784 1033.00
96.9436 1038.00
97.0088 1092.00
97.074 1056.00
97.1392 1055.00
97.2044 1042.00
97.2696 1074.00
97.3348 1100.00
97.4 1127.00
97.4652 1082.00
97.5304 1114.00
97.5956 1110.00
97.6608 1157.00
97.726 1099.00
97.7912 1159.00
97.8564 1130.00
97.9216 1183.00
97.9868 1095.00
98.052 1062.00
98.1172 1042.00
98.1824 998.00
98.2476 992.00
98.3128 918.00
98.378 1011.00
98.4432 923.00
98.5084 973.00
98.5736 914.00
98.6388 901.00
98.704 995.00
98.7692 936.00
98.8344 981.00
98.8996 978.00
98.9648 1012.00
99.03 1098.00
99.0952 1057.00
99.1604 992.00
99.2256 1083.00
99.2908 1052.00
99.356 1046.00
99.4212 1024.00
99.4864 1089.00
99.5516 1102.00
99.6168 1076.00
99.682 1058.00
99.7472 1126.00
99.8124 1120.00
99.8776 1100.00
99.9428 1114.00
100.008 1096.00
100.073 1144.00
100.095 1164.00