File: data/xrd_creation/results/NSC_105.xy
9.903433 2702.00
9.968632 2752.00
10.0338 2597.00
10.099 2559.00
10.1642 2582.00
10.2294 2454.00
10.2946 2375.00
10.3598 2423.00
10.425 2480.00
10.4902 2414.00
10.5554 2325.00
10.6206 2348.00
10.6858 2335.00
10.751 2472.00
10.8162 2334.00
10.8814 2239.00
10.9466 2184.00
11.0118 2242.00
11.077 2276.00
11.1422 2247.00
11.2074 2165.00
11.2726 2184.00
11.3378 2017.00
11.403 2129.00
11.4682 2052.00
11.5334 2160.00
11.5986 2037.00
11.6638 2012.00
11.729 1995.00
11.7942 1976.00
11.8594 1977.00
11.9246 1858.00
11.9898 1919.00
12.055 1842.00
12.1202 1893.00
12.1854 1878.00
12.2506 1779.00
12.3158 1870.00
12.381 1728.00
12.4462 1822.00
12.5114 1791.00
12.5766 1773.00
12.6418 1782.00
12.707 1806.00
12.7722 1742.00
12.8374 1760.00
12.9026 1685.00
12.9678 1674.00
13.033 1679.00
13.0982 1747.00
13.1634 1687.00
13.2286 1637.00
13.2938 1630.00
13.359 1586.00
13.4242 1573.00
13.4894 1525.00
13.5546 1578.00
13.6198 1557.00
13.685 1500.00
13.7502 1519.00
13.8154 1558.00
13.8805 1498.00
13.9457 1539.00
14.0109 1461.00
14.0761 1539.00
14.1413 1467.00
14.2065 1527.00
14.2717 1416.00
14.3369 1459.00
14.4021 1475.00
14.4673 1380.00
14.5325 1397.00
14.5977 1465.00
14.6629 1434.00
14.7281 1437.00
14.7933 1413.00
14.8585 1450.00
14.9237 1424.00
14.9889 1420.00
15.0541 1430.00
15.1193 1346.00
15.1845 1308.00
15.2497 1351.00
15.3149 1373.00
15.3801 1377.00
15.4453 1358.00
15.5105 1297.00
15.5757 1280.00
15.6409 1383.00
15.7061 1356.00
15.7713 1283.00
15.8365 1260.00
15.9017 1318.00
15.9669 1308.00
16.0321 1285.00
16.0973 1328.00
16.1625 1200.00
16.2277 1296.00
16.2929 1336.00
16.3581 1239.00
16.4233 1265.00
16.4885 1251.00
16.5537 1229.00
16.6189 1216.00
16.6841 1237.00
16.7493 1199.00
16.8145 1259.00
16.8797 1205.00
16.9449 1178.00
17.0101 1206.00
17.0753 1193.00
17.1405 1203.00
17.2057 1176.00
17.2709 1157.00
17.3361 1134.00
17.4013 1187.00
17.4665 1180.00
17.5317 1211.00
17.5969 1142.00
17.6621 1193.00
17.7273 1159.00
17.7925 1206.00
17.8577 1103.00
17.9229 1068.00
17.9881 1069.00
18.0533 1092.00
18.1185 1110.00
18.1837 1131.00
18.2489 1142.00
18.3141 1075.00
18.3793 1046.00
18.4445 1091.00
18.5097 1077.00
18.5749 1072.00
18.6401 1000.00
18.7052 1051.00
18.7704 1073.00
18.8356 1023.00
18.9008 1067.00
18.966 1012.00
19.0312 1047.00
19.0964 1019.00
19.1616 1012.00
19.2268 1052.00
19.292 976.00
19.3572 1033.00
19.4224 1028.00
19.4876 979.00
19.5528 1024.00
19.618 1002.00
19.6832 906.00
19.7484 921.00
19.8136 978.00
19.8788 1032.00
19.944 955.00
20.0092 958.00
20.0744 943.00
20.1396 948.00
20.2048 902.00
20.27 937.00
20.3352 1017.00
20.4004 1016.00
20.4656 982.00
20.5308 963.00
20.596 929.00
20.6612 980.00
20.7264 902.00
20.7916 853.00
20.8568 902.00
20.922 887.00
20.9872 866.00
21.0524 887.00
21.1176 877.00
21.1828 926.00
21.248 869.00
21.3132 917.00
21.3784 856.00
21.4436 873.00
21.5088 847.00
21.574 882.00
21.6392 800.00
21.7044 821.00
21.7696 861.00
21.8348 863.00
21.9 844.00
21.9652 851.00
22.0304 805.00
22.0956 846.00
22.1608 833.00
22.226 841.00
22.2912 876.00
22.3564 837.00
22.4216 746.00
22.4868 827.00
22.552 777.00
22.6172 779.00
22.6824 823.00
22.7476 831.00
22.8128 777.00
22.878 812.00
22.9432 786.00
23.0084 778.00
23.0736 771.00
23.1388 778.00
23.204 782.00
23.2692 770.00
23.3344 752.00
23.3996 735.00
23.4647 822.00
23.5299 800.00
23.5951 798.00
23.6603 744.00
23.7255 772.00
23.7907 745.00
23.8559 796.00
23.9211 748.00
23.9863 769.00
24.0515 759.00
24.1167 756.00
24.1819 718.00
24.2471 696.00
24.3123 783.00
24.3775 726.00
24.4427 756.00
24.5079 677.00
24.5731 765.00
24.6383 743.00
24.7035 710.00
24.7687 706.00
24.8339 772.00
24.8991 726.00
24.9643 648.00
25.0295 712.00
25.0947 683.00
25.1599 685.00
25.2251 755.00
25.2903 716.00
25.3555 731.00
25.4207 726.00
25.4859 658.00
25.5511 675.00
25.6163 685.00
25.6815 695.00
25.7467 716.00
25.8119 648.00
25.8771 732.00
25.9423 643.00
26.0075 669.00
26.0727 701.00
26.1379 662.00
26.2031 677.00
26.2683 649.00
26.3335 645.00
26.3987 671.00
26.4639 649.00
26.5291 672.00
26.5943 654.00
26.6595 654.00
26.7247 669.00
26.7899 665.00
26.8551 625.00
26.9203 650.00
26.9855 650.00
27.0507 645.00
27.1159 647.00
27.1811 659.00
27.2463 659.00
27.3115 706.00
27.3767 646.00
27.4419 618.00
27.5071 621.00
27.5723 649.00
27.6375 664.00
27.7027 594.00
27.7679 578.00
27.8331 652.00
27.8983 641.00
27.9635 617.00
28.0287 588.00
28.0939 618.00
28.1591 597.00
28.2243 677.00
28.2894 650.00
28.3546 590.00
28.4198 578.00
28.485 621.00
28.5502 654.00
28.6154 604.00
28.6806 648.00
28.7458 604.00
28.811 570.00
28.8762 578.00
28.9414 567.00
29.0066 527.00
29.0718 600.00
29.137 585.00
29.2022 581.00
29.2674 585.00
29.3326 593.00
29.3978 586.00
29.463 611.00
29.5282 542.00
29.5934 545.00
29.6586 562.00
29.7238 628.00
29.789 536.00
29.8542 536.00
29.9194 557.00
29.9846 547.00
30.0498 638.00
30.115 515.00
30.1802 545.00
30.2454 605.00
30.3106 579.00
30.3758 516.00
30.441 559.00
30.5062 583.00
30.5714 606.00
30.6366 526.00
30.7018 521.00
30.767 556.00
30.8322 528.00
30.8974 535.00
30.9626 555.00
31.0278 535.00
31.093 524.00
31.1582 504.00
31.2234 517.00
31.2886 560.00
31.3538 501.00
31.419 497.00
31.4842 522.00
31.5494 530.00
31.6146 497.00
31.6798 519.00
31.745 529.00
31.8102 481.00
31.8754 507.00
31.9406 469.00
32.0058 510.00
32.071 561.00
32.1362 508.00
32.2014 525.00
32.2666 497.00
32.3318 472.00
32.397 513.00
32.4622 497.00
32.5274 503.00
32.5926 513.00
32.6578 508.00
32.723 518.00
32.7882 508.00
32.8534 511.00
32.9186 454.00
32.9838 478.00
33.0489 472.00
33.1141 497.00
33.1793 543.00
33.2445 495.00
33.3097 481.00
33.3749 465.00
33.4401 454.00
33.5053 468.00
33.5705 468.00
33.6357 481.00
33.7009 445.00
33.7661 483.00
33.8313 498.00
33.8965 466.00
33.9617 459.00
34.0269 433.00
34.0921 461.00
34.1573 439.00
34.2225 427.00
34.2877 454.00
34.3529 422.00
34.4181 442.00
34.4833 455.00
34.5485 388.00
34.6137 438.00
34.6789 477.00
34.7441 452.00
34.8093 426.00
34.8745 468.00
34.9397 426.00
35.0049 414.00
35.0701 452.00
35.1353 436.00
35.2005 438.00
35.2657 437.00
35.3309 462.00
35.3961 411.00
35.4613 418.00
35.5265 417.00
35.5917 461.00
35.6569 432.00
35.7221 438.00
35.7873 418.00
35.8525 439.00
35.9177 452.00
35.9829 409.00
36.0481 440.00
36.1133 437.00
36.1785 407.00
36.2437 418.00
36.3089 409.00
36.3741 403.00
36.4393 394.00
36.5045 426.00
36.5697 397.00
36.6349 384.00
36.7001 387.00
36.7653 407.00
36.8305 370.00
36.8957 410.00
36.9609 367.00
37.0261 383.00
37.0913 405.00
37.1565 425.00
37.2217 387.00
37.2869 400.00
37.3521 381.00
37.4173 411.00
37.4825 386.00
37.5477 404.00
37.6129 408.00
37.6781 376.00
37.7433 409.00
37.8085 380.00
37.8736 378.00
37.9388 415.00
38.004 423.00
38.0692 403.00
38.1344 388.00
38.1996 347.00
38.2648 408.00
38.33 361.00
38.3952 355.00
38.4604 368.00
38.5256 361.00
38.5908 369.00
38.656 357.00
38.7212 354.00
38.7864 339.00
38.8516 402.00
38.9168 344.00
38.982 376.00
39.0472 358.00
39.1124 350.00
39.1776 359.00
39.2428 352.00
39.308 366.00
39.3732 351.00
39.4384 389.00
39.5036 344.00
39.5688 347.00
39.634 364.00
39.6992 359.00
39.7644 352.00
39.8296 334.00
39.8948 361.00
39.96 325.00
40.0252 333.00
40.0904 344.00
40.1556 347.00
40.2208 321.00
40.286 349.00
40.3512 304.00
40.4164 341.00
40.4816 322.00
40.5468 353.00
40.612 357.00
40.6772 350.00
40.7424 305.00
40.8076 368.00
40.8728 361.00
40.938 319.00
41.0032 329.00
41.0684 321.00
41.1336 347.00
41.1988 314.00
41.264 352.00
41.3292 332.00
41.3944 316.00
41.4596 340.00
41.5248 341.00
41.59 365.00
41.6552 352.00
41.7204 322.00
41.7856 340.00
41.8508 345.00
41.916 333.00
41.9812 345.00
42.0464 350.00
42.1116 332.00
42.1768 349.00
42.242 325.00
42.3072 329.00
42.3724 326.00
42.4376 303.00
42.5028 355.00
42.568 353.00
42.6332 342.00
42.6983 332.00
42.7635 339.00
42.8287 339.00
42.8939 323.00
42.9591 321.00
43.0243 318.00
43.0895 393.00
43.1547 319.00
43.2199 379.00
43.2851 341.00
43.3503 338.00
43.4155 354.00
43.4807 368.00
43.5459 313.00
43.6111 361.00
43.6763 314.00
43.7415 347.00
43.8067 332.00
43.8719 365.00
43.9371 311.00
44.0023 299.00
44.0675 308.00
44.1327 287.00
44.1979 284.00
44.2631 312.00
44.3283 314.00
44.3935 313.00
44.4587 295.00
44.5239 312.00
44.5891 264.00
44.6543 306.00
44.7195 289.00
44.7847 329.00
44.8499 351.00
44.9151 325.00
44.9803 307.00
45.0455 320.00
45.1107 296.00
45.1759 267.00
45.2411 286.00
45.3063 313.00
45.3715 284.00
45.4367 334.00
45.5019 306.00
45.5671 309.00
45.6323 268.00
45.6975 296.00
45.7627 298.00
45.8279 303.00
45.8931 279.00
45.9583 290.00
46.0235 277.00
46.0887 273.00
46.1539 326.00
46.2191 305.00
46.2843 275.00
46.3495 301.00
46.4147 303.00
46.4799 324.00
46.5451 275.00
46.6103 229.00
46.6755 288.00
46.7407 297.00
46.8059 277.00
46.8711 276.00
46.9363 226.00
47.0015 293.00
47.0667 314.00
47.1319 283.00
47.1971 284.00
47.2623 301.00
47.3275 274.00
47.3927 292.00
47.4579 293.00
47.523 297.00
47.5882 296.00
47.6534 304.00
47.7186 297.00
47.7838 271.00
47.849 276.00
47.9142 300.00
47.9794 268.00
48.0446 300.00
48.1098 308.00
48.175 278.00
48.2402 260.00
48.3054 288.00
48.3706 281.00
48.4358 277.00
48.501 281.00
48.5662 264.00
48.6314 315.00
48.6966 270.00
48.7618 272.00
48.827 295.00
48.8922 264.00
48.9574 276.00
49.0226 277.00
49.0878 278.00
49.153 264.00
49.2182 318.00
49.2834 277.00
49.3486 248.00
49.4138 273.00
49.479 296.00
49.5442 273.00
49.6094 298.00
49.6746 281.00
49.7398 257.00
49.805 273.00
49.8702 247.00
49.9354 300.00
50.0006 281.00
50.0658 238.00
50.131 281.00
50.1962 267.00
50.2614 278.00
50.3266 276.00
50.3918 211.00
50.457 273.00
50.5222 257.00
50.5874 270.00
50.6526 262.00
50.7178 286.00
50.783 279.00
50.8482 259.00
50.9134 265.00
50.9786 275.00
51.0438 280.00
51.109 249.00
51.1742 272.00
51.2394 236.00
51.3046 268.00
51.3698 247.00
51.435 266.00
51.5002 259.00
51.5654 261.00
51.6306 258.00
51.6958 213.00
51.761 280.00
51.8262 266.00
51.8914 245.00
51.9566 265.00
52.0218 260.00
52.087 284.00
52.1522 279.00
52.2174 281.00
52.2826 235.00
52.3477 264.00
52.4129 214.00
52.4781 260.00
52.5433 269.00
52.6085 250.00
52.6737 227.00
52.7389 237.00
52.8041 271.00
52.8693 276.00
52.9345 230.00
52.9997 247.00
53.0649 264.00
53.1301 242.00
53.1953 271.00
53.2605 274.00
53.3257 250.00
53.3909 246.00
53.4561 233.00
53.5213 213.00
53.5865 215.00
53.6517 241.00
53.7169 249.00
53.7821 244.00
53.8473 250.00
53.9125 233.00
53.9777 280.00
54.0429 247.00
54.1081 227.00
54.1733 250.00
54.2385 259.00
54.3037 246.00
54.3689 248.00
54.4341 205.00
54.4993 199.00
54.5645 247.00
54.6297 223.00
54.6949 266.00
54.7601 220.00
54.8253 221.00
54.8905 211.00
54.9557 226.00
55.0209 228.00
55.0861 210.00
55.1513 221.00
55.2165 211.00
55.2817 234.00
55.3469 246.00
55.4121 233.00
55.4773 245.00
55.5425 213.00
55.6077 225.00
55.6729 233.00
55.7381 264.00
55.8033 224.00
55.8685 237.00
55.9337 267.00
55.9989 217.00
56.0641 231.00
56.1293 261.00
56.1945 238.00
56.2597 223.00
56.3249 225.00
56.3901 206.00
56.4553 227.00
56.5205 212.00
56.5857 247.00
56.6509 232.00
56.7161 213.00
56.7813 222.00
56.8465 228.00
56.9117 224.00
56.9769 221.00
57.042 178.00
57.1073 208.00
57.1724 201.00
57.2376 249.00
57.3028 198.00
57.368 205.00
57.4332 210.00
57.4984 200.00
57.5636 225.00
57.6288 239.00
57.694 221.00
57.7592 216.00
57.8244 256.00
57.8896 226.00
57.9548 226.00
58.02 233.00
58.0852 192.00
58.1504 236.00
58.2156 216.00
58.2808 235.00
58.346 227.00
58.4112 211.00
58.4764 206.00
58.5416 186.00
58.6068 190.00
58.672 219.00
58.7372 216.00
58.8024 216.00
58.8676 240.00
58.9328 208.00
58.998 221.00
59.0632 210.00
59.1284 212.00
59.1936 216.00
59.2588 201.00
59.324 222.00
59.3892 191.00
59.4544 184.00
59.5196 222.00
59.5848 185.00
59.65 204.00
59.7152 200.00
59.7804 202.00
59.8456 214.00
59.9108 220.00
59.976 213.00
60.0412 214.00
60.1064 224.00
60.1716 204.00
60.2368 196.00
60.302 218.00
60.3672 207.00
60.4324 194.00
60.4976 228.00
60.5628 223.00
60.628 222.00
60.6932 184.00
60.7584 223.00
60.8236 216.00
60.8888 203.00
60.954 211.00
61.0192 201.00
61.0844 209.00
61.1496 200.00
61.2148 217.00
61.28 206.00
61.3452 207.00
61.4104 204.00
61.4756 208.00
61.5408 248.00
61.606 219.00
61.6712 219.00
61.7364 203.00
61.8016 192.00
61.8667 228.00
61.932 197.00
61.9971 189.00
62.0623 213.00
62.1275 202.00
62.1927 209.00
62.2579 221.00
62.3231 206.00
62.3883 245.00
62.4535 195.00
62.5187 213.00
62.5839 215.00
62.6491 194.00
62.7143 222.00
62.7795 208.00
62.8447 220.00
62.9099 200.00
62.9751 197.00
63.0403 193.00
63.1055 209.00
63.1707 211.00
63.2359 187.00
63.3011 196.00
63.3663 230.00
63.4315 205.00
63.4967 232.00
63.5619 213.00
63.6271 180.00
63.6923 221.00
63.7575 197.00
63.8227 195.00
63.8879 209.00
63.9531 205.00
64.0183 168.00
64.0835 194.00
64.1487 184.00
64.2139 198.00
64.2791 170.00
64.3443 209.00
64.4095 174.00
64.4747 214.00
64.5399 194.00
64.6051 191.00
64.6703 177.00
64.7355 187.00
64.8007 191.00
64.8659 205.00
64.9311 203.00
64.9963 189.00
65.0615 169.00
65.1267 213.00
65.1919 211.00
65.2571 182.00
65.3223 188.00
65.3875 180.00
65.4527 229.00
65.5179 218.00
65.5831 185.00
65.6483 162.00
65.7135 211.00
65.7787 197.00
65.8439 175.00
65.9091 189.00
65.9743 187.00
66.0395 203.00
66.1047 203.00
66.1699 205.00
66.2351 171.00
66.3003 218.00
66.3655 191.00
66.4307 188.00
66.4959 192.00
66.561 205.00
66.6263 174.00
66.6915 217.00
66.7566 191.00
66.8218 195.00
66.887 189.00
66.9522 197.00
67.0174 208.00
67.0826 211.00
67.1478 185.00
67.213 187.00
67.2782 178.00
67.3434 206.00
67.4086 202.00
67.4738 189.00
67.539 187.00
67.6042 187.00
67.6694 176.00
67.7346 204.00
67.7998 186.00
67.865 177.00
67.9302 192.00
67.9954 180.00
68.0606 173.00
68.1258 191.00
68.191 207.00
68.2562 194.00
68.3214 208.00
68.3866 186.00
68.4518 172.00
68.517 179.00
68.5822 195.00
68.6474 193.00
68.7126 181.00
68.7778 187.00
68.843 207.00
68.9082 198.00
68.9734 189.00
69.0386 190.00
69.1038 199.00
69.169 184.00
69.2342 198.00
69.2994 205.00
69.3646 180.00
69.4298 188.00
69.495 195.00
69.5602 211.00
69.6254 174.00
69.6906 203.00
69.7558 201.00
69.821 199.00
69.8862 206.00
69.9514 207.00
70.0166 194.00
70.0818 173.00
70.147 194.00
70.2122 188.00
70.2774 175.00
70.3426 195.00
70.4078 181.00
70.473 178.00
70.5382 179.00
70.6034 188.00
70.6686 197.00
70.7338 184.00
70.799 183.00
70.8642 198.00
70.9294 232.00
70.9946 184.00
71.0598 164.00
71.125 181.00
71.1902 203.00
71.2554 194.00
71.3205 169.00
71.3858 172.00
71.451 202.00
71.5162 184.00
71.5813 193.00
71.6465 183.00
71.7117 166.00
71.7769 206.00
71.8421 192.00
71.9073 177.00
71.9725 205.00
72.0377 182.00
72.1029 190.00
72.1681 189.00
72.2333 175.00
72.2985 184.00
72.3637 199.00
72.4289 197.00
72.4941 157.00
72.5593 191.00
72.6245 172.00
72.6897 200.00
72.7549 213.00
72.8201 233.00
72.8853 181.00
72.9505 179.00
73.0157 206.00
73.0809 197.00
73.1461 163.00
73.2113 186.00
73.2765 209.00
73.3417 214.00
73.4069 208.00
73.4721 175.00
73.5373 213.00
73.6025 175.00
73.6677 221.00
73.7329 216.00
73.7981 195.00
73.8633 172.00
73.9285 188.00
73.9937 177.00
74.0589 216.00
74.1241 179.00
74.1893 228.00
74.2545 205.00
74.3197 190.00
74.3849 206.00
74.4501 214.00
74.5153 219.00
74.5805 193.00
74.6457 183.00
74.7109 205.00
74.7761 212.00
74.8413 191.00
74.9065 188.00
74.9717 191.00
75.0369 226.00
75.1021 208.00
75.1673 231.00
75.2325 206.00
75.2977 211.00
75.3629 217.00
75.4281 194.00
75.4933 205.00
75.5585 212.00
75.6237 217.00
75.6889 222.00
75.7541 223.00
75.8193 199.00
75.8845 212.00
75.9497 190.00
76.0149 202.00
76.0801 228.00
76.1452 200.00
76.2104 189.00
76.2756 212.00
76.3409 218.00
76.406 201.00
76.4712 234.00
76.5364 188.00
76.6016 209.00
76.6668 189.00
76.732 210.00
76.7972 209.00
76.8624 177.00
76.9276 198.00
76.9928 243.00
77.058 195.00
77.1232 215.00
77.1884 173.00
77.2536 201.00
77.3188 213.00
77.384 216.00
77.4492 185.00
77.5144 185.00
77.5796 219.00
77.6448 195.00
77.71 211.00
77.7752 225.00
77.8404 217.00
77.9056 194.00
77.9708 190.00
78.036 211.00
78.1012 218.00
78.1664 223.00
78.2316 204.00
78.2968 211.00
78.362 178.00
78.4272 209.00
78.4924 219.00
78.5576 241.00
78.6228 210.00
78.688 234.00
78.7532 226.00
78.8184 233.00
78.8836 204.00
78.9488 211.00
79.014 237.00
79.0792 220.00
79.1444 207.00
79.2096 220.00
79.2748 221.00
79.34 241.00
79.4052 212.00
79.4704 225.00
79.5356 208.00
79.6008 211.00
79.666 223.00
79.7312 231.00
79.7964 225.00
79.8616 231.00
79.9268 211.00
79.992 243.00
80.0572 223.00
80.1224 210.00
80.1876 200.00
80.2528 211.00
80.318 216.00
80.3832 260.00
80.4484 238.00
80.5136 235.00
80.5788 236.00
80.644 228.00
80.7092 227.00
80.7744 221.00
80.8396 231.00
80.9048 234.00
80.9699 226.00
81.0351 248.00
81.1003 198.00
81.1655 239.00
81.2307 232.00
81.2959 221.00
81.3611 235.00
81.4263 220.00
81.4915 216.00
81.5567 256.00
81.6219 237.00
81.6871 217.00
81.7523 212.00
81.8175 222.00
81.8827 240.00
81.9479 198.00
82.0131 207.00
82.0783 218.00
82.1435 250.00
82.2087 236.00
82.2739 242.00
82.3391 229.00
82.4043 234.00
82.4695 257.00
82.5347 230.00
82.5999 206.00
82.6651 198.00
82.7303 216.00
82.7955 236.00
82.8607 206.00
82.9259 211.00
82.9911 219.00
83.0563 241.00
83.1215 213.00
83.1867 245.00
83.2519 226.00
83.3171 216.00
83.3823 237.00
83.4475 209.00
83.5127 184.00
83.5779 225.00
83.6431 233.00
83.7083 248.00
83.7735 213.00
83.8387 198.00
83.9039 222.00
83.9691 237.00
84.0343 231.00
84.0995 205.00
84.1647 213.00
84.2299 227.00
84.2951 215.00
84.3603 223.00
84.4255 217.00
84.4907 188.00
84.5559 182.00
84.6211 228.00
84.6863 235.00
84.7515 227.00
84.8167 234.00
84.8819 197.00
84.9471 214.00
85.0123 203.00
85.0775 218.00
85.1427 209.00
85.2079 220.00
85.2731 212.00
85.3383 240.00
85.4035 213.00
85.4687 187.00
85.5339 192.00
85.5991 225.00
85.6643 209.00
85.7295 207.00
85.7946 197.00
85.8598 202.00
85.925 232.00
85.9903 170.00
86.0554 209.00
86.1206 194.00
86.1858 214.00
86.251 184.00
86.3162 206.00
86.3814 198.00
86.4466 196.00
86.5118 220.00
86.577 208.00
86.6422 190.00
86.7074 218.00
86.7726 210.00
86.8378 221.00
86.903 182.00
86.9682 215.00
87.0334 211.00
87.0986 217.00
87.1638 220.00
87.229 172.00
87.2942 184.00
87.3594 195.00
87.4246 205.00
87.4898 201.00
87.555 174.00
87.6202 200.00
87.6854 197.00
87.7506 199.00
87.8158 219.00
87.881 207.00
87.9462 202.00
88.0114 217.00
88.0766 208.00
88.1418 181.00
88.207 182.00
88.2722 197.00
88.3374 168.00
88.4026 188.00
88.4678 178.00
88.533 187.00
88.5982 208.00
88.6634 216.00
88.7286 183.00
88.7938 204.00
88.859 215.00
88.9242 203.00
88.9894 187.00
89.0546 181.00
89.1198 201.00
89.185 179.00
89.2502 200.00
89.3154 199.00
89.3806 213.00
89.4458 165.00
89.511 201.00
89.5762 197.00
89.6414 193.00
89.7066 156.00
89.7718 201.00
89.837 204.00
89.9022 192.00
89.9674 182.00
90.0326 224.00
90.0978 184.00
90.163 185.00
90.2282 169.00
90.2934 195.00
90.3586 201.00
90.4238 174.00
90.489 161.00
90.5542 181.00
90.6193 183.00
90.6845 194.00
90.7497 168.00
90.8149 187.00
90.8801 174.00
90.9453 203.00
91.0105 174.00
91.0757 197.00
91.1409 172.00
91.2061 170.00
91.2713 185.00
91.3365 179.00
91.4017 206.00
91.4669 158.00
91.5321 171.00
91.5973 196.00
91.6625 182.00
91.7277 183.00
91.7929 184.00
91.8581 187.00
91.9233 192.00
91.9885 155.00
92.0537 197.00
92.1189 178.00
92.1841 183.00
92.2493 195.00
92.3145 202.00
92.3797 182.00
92.4449 182.00
92.5101 181.00
92.5753 183.00
92.6405 163.00
92.7057 193.00
92.7709 201.00
92.8361 183.00
92.9013 191.00
92.9665 180.00
93.0317 168.00
93.0969 181.00
93.1621 173.00
93.2273 176.00
93.2925 188.00
93.3577 162.00
93.4229 176.00
93.4881 176.00
93.5533 175.00
93.6185 185.00
93.6837 179.00
93.7489 188.00
93.8141 199.00
93.8793 194.00
93.9445 155.00
94.0097 187.00
94.0749 181.00
94.1401 194.00
94.2053 189.00
94.2705 188.00
94.3357 179.00
94.4009 197.00
94.4661 187.00
94.5313 196.00
94.5965 167.00
94.6617 168.00
94.7269 193.00
94.7921 167.00
94.8573 183.00
94.9225 182.00
94.9877 210.00
95.0529 178.00
95.1181 206.00
95.1833 149.00
95.2485 199.00
95.3137 173.00
95.3789 188.00
95.444 159.00
95.5092 183.00
95.5744 184.00
95.6396 166.00
95.7048 190.00
95.77 147.00
95.8352 193.00
95.9004 182.00
95.9656 183.00
96.0308 189.00
96.096 180.00
96.1612 190.00
96.2264 192.00
96.2916 170.00
96.3568 187.00
96.422 168.00
96.4872 183.00
96.5524 183.00
96.6176 193.00
96.6828 162.00
96.748 201.00
96.8132 184.00
96.8784 149.00
96.9436 180.00
97.0088 187.00
97.074 201.00
97.1392 181.00
97.2044 182.00
97.2696 168.00
97.3348 173.00
97.4 196.00
97.4652 184.00
97.5304 182.00
97.5956 161.00
97.6608 186.00
97.726 179.00
97.7912 164.00
97.8564 167.00
97.9216 169.00
97.9868 187.00
98.052 179.00
98.1172 173.00
98.1824 180.00
98.2476 188.00
98.3128 180.00
98.378 208.00
98.4432 210.00
98.5084 154.00
98.5736 176.00
98.6388 205.00
98.704 163.00
98.7692 184.00
98.8344 161.00
98.8996 173.00
98.9648 185.00
99.03 163.00
99.0952 191.00
99.1604 181.00
99.2256 187.00
99.2908 170.00
99.356 179.00
99.4212 139.00
99.4864 169.00
99.5516 175.00
99.6168 172.00
99.682 196.00
99.7472 207.00
99.8124 178.00
99.8776 212.00
99.9428 194.00
100.008 169.00
100.073 177.00
100.095 173.00