File: data/xrd_creation/results/NSC_37.xy
9.903433 3118.00
9.968632 3073.00
10.0338 3039.00
10.099 2886.00
10.1642 2889.00
10.2294 2992.00
10.2946 2867.00
10.3598 2900.00
10.425 2882.00
10.4902 2859.00
10.5554 2904.00
10.6206 2930.00
10.6858 2947.00
10.751 2767.00
10.8162 2889.00
10.8814 2763.00
10.9466 2778.00
11.0118 2785.00
11.077 2720.00
11.1422 2694.00
11.2074 2567.00
11.2726 2696.00
11.3378 2723.00
11.403 2655.00
11.4682 2718.00
11.5334 2804.00
11.5986 2703.00
11.6638 2587.00
11.729 2705.00
11.7942 2535.00
11.8594 2580.00
11.9246 2497.00
11.9898 2527.00
12.055 2500.00
12.1202 2596.00
12.1854 2524.00
12.2506 2511.00
12.3158 2565.00
12.381 2501.00
12.4462 2555.00
12.5114 2539.00
12.5766 2480.00
12.6418 2601.00
12.707 2636.00
12.7722 2584.00
12.8374 2719.00
12.9026 2783.00
12.9678 2705.00
13.033 2833.00
13.0982 2706.00
13.1634 2656.00
13.2286 2570.00
13.2938 2572.00
13.359 2489.00
13.4242 2365.00
13.4894 2475.00
13.5546 2400.00
13.6198 2506.00
13.685 2521.00
13.7502 2633.00
13.8154 2652.00
13.8805 2838.00
13.9457 3006.00
14.0109 3196.00
14.0761 3328.00
14.1413 3151.00
14.2065 2830.00
14.2717 2670.00
14.3369 2494.00
14.4021 2402.00
14.4673 2414.00
14.5325 2384.00
14.5977 2333.00
14.6629 2416.00
14.7281 2331.00
14.7933 2364.00
14.8585 2361.00
14.9237 2415.00
14.9889 2379.00
15.0541 2308.00
15.1193 2366.00
15.1845 2326.00
15.2497 2340.00
15.3149 2342.00
15.3801 2401.00
15.4453 2246.00
15.5105 2373.00
15.5757 2326.00
15.6409 2370.00
15.7061 2337.00
15.7713 2252.00
15.8365 2267.00
15.9017 2270.00
15.9669 2334.00
16.0321 2292.00
16.0973 2337.00
16.1625 2311.00
16.2277 2285.00
16.2929 2276.00
16.3581 2314.00
16.4233 2340.00
16.4885 2313.00
16.5537 2317.00
16.6189 2309.00
16.6841 2287.00
16.7493 2342.00
16.8145 2240.00
16.8797 2289.00
16.9449 2249.00
17.0101 2243.00
17.0753 2246.00
17.1405 2262.00
17.2057 2211.00
17.2709 2262.00
17.3361 2169.00
17.4013 2243.00
17.4665 2222.00
17.5317 2266.00
17.5969 2312.00
17.6621 2317.00
17.7273 2491.00
17.7925 2461.00
17.8577 2387.00
17.9229 2278.00
17.9881 2188.00
18.0533 2060.00
18.1185 2149.00
18.1837 2114.00
18.2489 2124.00
18.3141 2127.00
18.3793 2170.00
18.4445 2156.00
18.5097 2138.00
18.5749 2030.00
18.6401 2148.00
18.7052 2206.00
18.7704 2054.00
18.8356 2205.00
18.9008 2020.00
18.966 2073.00
19.0312 2229.00
19.0964 2162.00
19.1616 2182.00
19.2268 2258.00
19.292 2389.00
19.3572 2611.00
19.4224 2977.00
19.4876 3419.00
19.5528 4108.00
19.618 4520.00
19.6832 4805.00
19.7484 4751.00
19.8136 4664.00
19.8788 5043.00
19.944 5268.00
20.0092 4938.00
20.0744 4070.00
20.1396 3019.00
20.2048 2615.00
20.27 2474.00
20.3352 2349.00
20.4004 2293.00
20.4656 2122.00
20.5308 2113.00
20.596 2102.00
20.6612 2144.00
20.7264 2062.00
20.7916 2182.00
20.8568 2269.00
20.922 2185.00
20.9872 2167.00
21.0524 2211.00
21.1176 2281.00
21.1828 2194.00
21.248 2342.00
21.3132 2243.00
21.3784 2297.00
21.4436 2315.00
21.5088 2254.00
21.574 2219.00
21.6392 2353.00
21.7044 2584.00
21.7696 2976.00
21.8348 3256.00
21.9 2701.00
21.9652 2333.00
22.0304 2476.00
22.0956 2497.00
22.1608 2409.00
22.226 2371.00
22.2912 2168.00
22.3564 2077.00
22.4216 1952.00
22.4868 1911.00
22.552 2038.00
22.6172 2052.00
22.6824 2054.00
22.7476 2026.00
22.8128 2005.00
22.878 2071.00
22.9432 2058.00
23.0084 2225.00
23.0736 2509.00
23.1388 2979.00
23.204 3475.00
23.2692 3677.00
23.3344 3288.00
23.3996 2839.00
23.4647 2385.00
23.5299 2167.00
23.5951 2038.00
23.6603 2044.00
23.7255 2087.00
23.7907 1930.00
23.8559 1924.00
23.9211 1972.00
23.9863 1953.00
24.0515 1889.00
24.1167 2102.00
24.1819 2108.00
24.2471 2332.00
24.3123 2652.00
24.3775 2836.00
24.4427 2515.00
24.5079 2168.00
24.5731 2042.00
24.6383 2178.00
24.7035 2211.00
24.7687 2466.00
24.8339 2373.00
24.8991 2105.00
24.9643 1863.00
25.0295 1776.00
25.0947 1886.00
25.1599 1845.00
25.2251 1786.00
25.2903 1766.00
25.3555 1798.00
25.4207 1834.00
25.4859 1843.00
25.5511 1674.00
25.6163 1833.00
25.6815 1737.00
25.7467 1731.00
25.8119 1795.00
25.8771 1720.00
25.9423 1788.00
26.0075 1761.00
26.0727 1784.00
26.1379 1658.00
26.2031 1739.00
26.2683 1703.00
26.3335 1805.00
26.3987 1761.00
26.4639 1731.00
26.5291 1882.00
26.5943 1750.00
26.6595 1755.00
26.7247 1766.00
26.7899 1745.00
26.8551 1766.00
26.9203 1749.00
26.9855 1693.00
27.0507 1716.00
27.1159 1702.00
27.1811 1681.00
27.2463 1797.00
27.3115 1680.00
27.3767 1818.00
27.4419 1598.00
27.5071 1746.00
27.5723 1799.00
27.6375 1876.00
27.7027 1948.00
27.7679 2217.00
27.8331 2351.00
27.8983 2805.00
27.9635 3012.00
28.0287 3038.00
28.0939 3257.00
28.1591 3097.00
28.2243 2797.00
28.2894 2910.00
28.3546 3564.00
28.4198 5109.00
28.485 7258.00
28.5502 6975.00
28.6154 4690.00
28.6806 2910.00
28.7458 2318.00
28.811 2132.00
28.8762 1967.00
28.9414 2018.00
29.0066 1964.00
29.0718 1887.00
29.137 1885.00
29.2022 1931.00
29.2674 1915.00
29.3326 1962.00
29.3978 1806.00
29.463 1826.00
29.5282 1769.00
29.5934 1740.00
29.6586 1745.00
29.7238 1689.00
29.789 1754.00
29.8542 1720.00
29.9194 1759.00
29.9846 1761.00
30.0498 1729.00
30.115 1775.00
30.1802 1758.00
30.2454 1769.00
30.3106 1884.00
30.3758 1957.00
30.441 1987.00
30.5062 2103.00
30.5714 2190.00
30.6366 2588.00
30.7018 3345.00
30.767 5439.00
30.8322 10036.00
30.8974 14552.00
30.9626 11548.00
31.0278 7037.00
31.093 5588.00
31.1582 5701.00
31.2234 5694.00
31.2886 5499.00
31.3538 4766.00
31.419 3932.00
31.4842 3018.00
31.5494 2769.00
31.6146 3102.00
31.6798 3950.00
31.745 5239.00
31.8102 5354.00
31.8754 3813.00
31.9406 2533.00
32.0058 2141.00
32.071 1849.00
32.1362 1785.00
32.2014 1745.00
32.2666 1638.00
32.3318 1739.00
32.397 1705.00
32.4622 1674.00
32.5274 1600.00
32.5926 1621.00
32.6578 1617.00
32.723 1643.00
32.7882 1558.00
32.8534 1563.00
32.9186 1567.00
32.9838 1583.00
33.0489 1506.00
33.1141 1533.00
33.1793 1568.00
33.2445 1537.00
33.3097 1545.00
33.3749 1675.00
33.4401 1659.00
33.5053 1727.00
33.5705 1595.00
33.6357 1585.00
33.7009 1541.00
33.7661 1600.00
33.8313 1530.00
33.8965 1594.00
33.9617 1621.00
34.0269 1608.00
34.0921 1655.00
34.1573 1790.00
34.2225 1978.00
34.2877 2293.00
34.3529 3125.00
34.4181 3764.00
34.4833 4265.00
34.5485 4507.00
34.6137 4551.00
34.6789 4745.00
34.7441 4426.00
34.8093 3884.00
34.8745 3020.00
34.9397 2576.00
35.0049 2094.00
35.0701 1812.00
35.1353 1794.00
35.2005 1635.00
35.2657 1676.00
35.3309 1798.00
35.3961 1753.00
35.4613 2019.00
35.5265 2173.00
35.5917 2786.00
35.6569 3220.00
35.7221 4441.00
35.7873 4882.00
35.8525 3566.00
35.9177 2200.00
35.9829 1710.00
36.0481 1644.00
36.1133 1747.00
36.1785 1611.00
36.2437 1561.00
36.3089 1490.00
36.3741 1477.00
36.4393 1530.00
36.5045 1441.00
36.5697 1357.00
36.6349 1361.00
36.7001 1390.00
36.7653 1366.00
36.8305 1352.00
36.8957 1435.00
36.9609 1342.00
37.0261 1278.00
37.0913 1289.00
37.1565 1353.00
37.2217 1355.00
37.2869 1403.00
37.3521 1346.00
37.4173 1374.00
37.4825 1379.00
37.5477 1275.00
37.6129 1332.00
37.6781 1355.00
37.7433 1321.00
37.8085 1376.00
37.8736 1506.00
37.9388 1811.00
38.004 1869.00
38.0692 1769.00
38.1344 1497.00
38.1996 1307.00
38.2648 1307.00
38.33 1307.00
38.3952 1345.00
38.4604 1347.00
38.5256 1318.00
38.5908 1327.00
38.656 1358.00
38.7212 1425.00
38.7864 1499.00
38.8516 1527.00
38.9168 1550.00
38.982 1539.00
39.0472 1461.00
39.1124 1364.00
39.1776 1378.00
39.2428 1364.00
39.308 1309.00
39.3732 1279.00
39.4384 1324.00
39.5036 1374.00
39.5688 1410.00
39.634 1313.00
39.6992 1367.00
39.7644 1403.00
39.8296 1309.00
39.8948 1268.00
39.96 1372.00
40.0252 1352.00
40.0904 1498.00
40.1556 1420.00
40.2208 1461.00
40.286 1303.00
40.3512 1417.00
40.4164 1315.00
40.4816 1313.00
40.5468 1288.00
40.612 1314.00
40.6772 1352.00
40.7424 1321.00
40.8076 1320.00
40.8728 1488.00
40.938 1558.00
41.0032 1883.00
41.0684 1936.00
41.1336 1803.00
41.1988 1626.00
41.264 1534.00
41.3292 1621.00
41.3944 1747.00
41.4596 1637.00
41.5248 1578.00
41.59 1595.00
41.6552 1568.00
41.7204 1708.00
41.7856 1734.00
41.8508 1675.00
41.916 1699.00
41.9812 1745.00
42.0464 1844.00
42.1116 2094.00
42.1768 2077.00
42.242 1846.00
42.3072 1726.00
42.3724 1603.00
42.4376 1504.00
42.5028 1507.00
42.568 1523.00
42.6332 1540.00
42.6983 1428.00
42.7635 1388.00
42.8287 1370.00
42.8939 1324.00
42.9591 1335.00
43.0243 1339.00
43.0895 1285.00
43.1547 1190.00
43.2199 1291.00
43.2851 1328.00
43.3503 1263.00
43.4155 1240.00
43.4807 1232.00
43.5459 1194.00
43.6111 1233.00
43.6763 1271.00
43.7415 1220.00
43.8067 1313.00
43.8719 1153.00
43.9371 1327.00
44.0023 1353.00
44.0675 1349.00
44.1327 1336.00
44.1979 1334.00
44.2631 1405.00
44.3283 1333.00
44.3935 1360.00
44.4587 1396.00
44.5239 1489.00
44.5891 1512.00
44.6543 1442.00
44.7195 1521.00
44.7847 1576.00
44.8499 1598.00
44.9151 1690.00
44.9803 1898.00
45.0455 1983.00
45.1107 2054.00
45.1759 1809.00
45.2411 1708.00
45.3063 1548.00
45.3715 1488.00
45.4367 1348.00
45.5019 1450.00
45.5671 1443.00
45.6323 1561.00
45.6975 1550.00
45.7627 1746.00
45.8279 1794.00
45.8931 2007.00
45.9583 2311.00
46.0235 2062.00
46.0887 1962.00
46.1539 1568.00
46.2191 1453.00
46.2843 1448.00
46.3495 1387.00
46.4147 1440.00
46.4799 1385.00
46.5451 1479.00
46.6103 1462.00
46.6755 1455.00
46.7407 1582.00
46.8059 1586.00
46.8711 1748.00
46.9363 1906.00
47.0015 2021.00
47.0667 2255.00
47.1319 2268.00
47.1971 2474.00
47.2623 2384.00
47.3275 2098.00
47.3927 1968.00
47.4579 1867.00
47.523 1652.00
47.5882 1596.00
47.6534 1362.00
47.7186 1424.00
47.7838 1412.00
47.849 1299.00
47.9142 1306.00
47.9794 1308.00
48.0446 1339.00
48.1098 1236.00
48.175 1343.00
48.2402 1301.00
48.3054 1257.00
48.3706 1292.00
48.4358 1251.00
48.501 1260.00
48.5662 1339.00
48.6314 1374.00
48.6966 1272.00
48.7618 1264.00
48.827 1297.00
48.8922 1286.00
48.9574 1280.00
49.0226 1331.00
49.0878 1316.00
49.153 1363.00
49.2182 1456.00
49.2834 1452.00
49.3486 1426.00
49.4138 1643.00
49.479 1998.00
49.5442 2406.00
49.6094 2342.00
49.6746 2010.00
49.7398 1808.00
49.805 1485.00
49.8702 1424.00
49.9354 1319.00
50.0006 1311.00
50.0658 1330.00
50.131 1395.00
50.1962 1417.00
50.2614 1535.00
50.3266 1727.00
50.3918 2247.00
50.457 2453.00
50.5222 2346.00
50.5874 2164.00
50.6526 1948.00
50.7178 1805.00
50.783 1954.00
50.8482 2193.00
50.9134 2297.00
50.9786 2152.00
51.0438 2108.00
51.109 2137.00
51.1742 2535.00
51.2394 3906.00
51.3046 5218.00
51.3698 4172.00
51.435 3538.00
51.5002 2733.00
51.5654 1974.00
51.6306 1752.00
51.6958 1492.00
51.761 1380.00
51.8262 1288.00
51.8914 1383.00
51.9566 1249.00
52.0218 1270.00
52.087 1298.00
52.1522 1289.00
52.2174 1287.00
52.2826 1149.00
52.3477 1232.00
52.4129 1224.00
52.4781 1209.00
52.5433 1171.00
52.6085 1148.00
52.6737 1163.00
52.7389 1193.00
52.8041 1275.00
52.8693 1234.00
52.9345 1328.00
52.9997 1513.00
53.0649 1392.00
53.1301 1330.00
53.1953 1339.00
53.2605 1327.00
53.3257 1274.00
53.3909 1355.00
53.4561 1271.00
53.5213 1389.00
53.5865 1462.00
53.6517 1628.00
53.7169 1622.00
53.7821 1715.00
53.8473 1874.00
53.9125 1946.00
53.9777 1939.00
54.0429 1868.00
54.1081 1984.00
54.1733 1823.00
54.2385 2065.00
54.3037 2159.00
54.3689 1989.00
54.4341 1795.00
54.4993 1656.00
54.5645 1430.00
54.6297 1355.00
54.6949 1260.00
54.7601 1312.00
54.8253 1285.00
54.8905 1330.00
54.9557 1216.00
55.0209 1246.00
55.0861 1223.00
55.1513 1220.00
55.2165 1231.00
55.2817 1253.00
55.3469 1292.00
55.4121 1461.00
55.4773 1512.00
55.5425 1750.00
55.6077 1888.00
55.6729 1782.00
55.7381 1830.00
55.8033 1773.00
55.8685 1650.00
55.9337 1509.00
55.9989 1443.00
56.0641 1397.00
56.1293 1568.00
56.1945 1860.00
56.2597 1930.00
56.3249 1792.00
56.3901 1693.00
56.4553 1537.00
56.5205 1379.00
56.5857 1351.00
56.6509 1223.00
56.7161 1279.00
56.7813 1190.00
56.8465 1163.00
56.9117 1195.00
56.9769 1182.00
57.042 1139.00
57.1073 1193.00
57.1724 1184.00
57.2376 1343.00
57.3028 1211.00
57.368 1435.00
57.4332 1557.00
57.4984 1533.00
57.5636 1449.00
57.6288 1404.00
57.694 1303.00
57.7592 1304.00
57.8244 1340.00
57.8896 1303.00
57.9548 1278.00
58.02 1268.00
58.0852 1296.00
58.1504 1451.00
58.2156 1417.00
58.2808 1458.00
58.346 1413.00
58.4112 1466.00
58.4764 1346.00
58.5416 1391.00
58.6068 1410.00
58.672 1385.00
58.7372 1439.00
58.8024 1363.00
58.8676 1301.00
58.9328 1383.00
58.998 1351.00
59.0632 1371.00
59.1284 1410.00
59.1936 1474.00
59.2588 1531.00
59.324 1749.00
59.3892 2045.00
59.4544 1916.00
59.5196 1975.00
59.5848 1952.00
59.65 1848.00
59.7152 1856.00
59.7804 1899.00
59.8456 1792.00
59.9108 1684.00
59.976 1783.00
60.0412 1809.00
60.1064 1824.00
60.1716 1895.00
60.2368 1875.00
60.302 1843.00
60.3672 1746.00
60.4324 1628.00
60.4976 1596.00
60.5628 1490.00
60.628 1543.00
60.6932 1473.00
60.7584 1616.00
60.8236 2232.00
60.8888 3221.00
60.954 3495.00
61.0192 2722.00
61.0844 2619.00
61.1496 2182.00
61.2148 1592.00
61.28 1458.00
61.3452 1507.00
61.4104 1487.00
61.4756 1555.00
61.5408 1704.00
61.606 1690.00
61.6712 1591.00
61.7364 1695.00
61.8016 1650.00
61.8667 1535.00
61.932 1400.00
61.9971 1508.00
62.0623 1463.00
62.1275 1667.00
62.1927 1654.00
62.2579 1676.00
62.3231 1672.00
62.3883 1832.00
62.4535 1811.00
62.5187 1646.00
62.5839 1504.00
62.6491 1468.00
62.7143 1342.00
62.7795 1385.00
62.8447 1395.00
62.9099 1368.00
62.9751 1528.00
63.0403 1592.00
63.1055 1664.00
63.1707 1532.00
63.2359 1544.00
63.3011 1386.00
63.3663 1344.00
63.4315 1296.00
63.4967 1248.00
63.5619 1119.00
63.6271 1195.00
63.6923 1150.00
63.7575 1207.00
63.8227 1318.00
63.8879 1522.00
63.9531 1575.00
64.0183 1345.00
64.0835 1437.00
64.1487 1275.00
64.2139 1213.00
64.2791 1222.00
64.3443 1272.00
64.4095 1169.00
64.4747 1225.00
64.5399 1251.00
64.6051 1154.00
64.6703 1205.00
64.7355 1163.00
64.8007 1291.00
64.8659 1166.00
64.9311 1131.00
64.9963 1139.00
65.0615 1220.00
65.1267 1149.00
65.1919 1168.00
65.2571 1270.00
65.3223 1346.00
65.3875 1420.00
65.4527 1444.00
65.5179 1366.00
65.5831 1365.00
65.6483 1417.00
65.7135 1451.00
65.7787 1459.00
65.8439 1525.00
65.9091 1521.00
65.9743 1611.00
66.0395 1361.00
66.1047 1478.00
66.1699 1444.00
66.2351 1295.00
66.3003 1296.00
66.3655 1281.00
66.4307 1272.00
66.4959 1209.00
66.561 1255.00
66.6263 1233.00
66.6915 1359.00
66.7566 1270.00
66.8218 1389.00
66.887 1301.00
66.9522 1232.00
67.0174 1366.00
67.0826 1233.00
67.1478 1170.00
67.213 1215.00
67.2782 1263.00
67.3434 1136.00
67.4086 1117.00
67.4738 1115.00
67.539 1180.00
67.6042 1041.00
67.6694 1075.00
67.7346 1052.00
67.7998 1092.00
67.865 1103.00
67.9302 1101.00
67.9954 1160.00
68.0606 1033.00
68.1258 1108.00
68.191 1231.00
68.2562 1320.00
68.3214 1286.00
68.3866 1201.00
68.4518 1296.00
68.517 1203.00
68.5822 1119.00
68.6474 1113.00
68.7126 1069.00
68.7778 1111.00
68.843 1095.00
68.9082 1181.00
68.9734 1175.00
69.0386 1228.00
69.1038 1255.00
69.169 1219.00
69.2342 1309.00
69.2994 1301.00
69.3646 1266.00
69.4298 1289.00
69.495 1209.00
69.5602 1242.00
69.6254 1194.00
69.6906 1195.00
69.7558 1230.00
69.821 1192.00
69.8862 1227.00
69.9514 1118.00
70.0166 1112.00
70.0818 1098.00
70.147 1158.00
70.2122 1118.00
70.2774 1078.00
70.3426 1118.00
70.4078 1062.00
70.473 1059.00
70.5382 1102.00
70.6034 1132.00
70.6686 1061.00
70.7338 998.00
70.799 1074.00
70.8642 964.00
70.9294 1100.00
70.9946 1058.00
71.0598 1089.00
71.125 1091.00
71.1902 1113.00
71.2554 1201.00
71.3205 1247.00
71.3858 1242.00
71.451 1230.00
71.5162 1290.00
71.5813 1233.00
71.6465 1148.00
71.7117 1109.00
71.7769 1062.00
71.8421 1096.00
71.9073 1093.00
71.9725 1068.00
72.0377 1061.00
72.1029 1106.00
72.1681 1169.00
72.2333 1076.00
72.2985 1166.00
72.3637 1209.00
72.4289 1169.00
72.4941 1245.00
72.5593 1276.00
72.6245 1225.00
72.6897 1228.00
72.7549 1212.00
72.8201 1238.00
72.8853 1202.00
72.9505 1217.00
73.0157 1211.00
73.0809 1191.00
73.1461 1128.00
73.2113 1123.00
73.2765 1087.00
73.3417 1063.00
73.4069 1134.00
73.4721 1061.00
73.5373 1075.00
73.6025 1114.00
73.6677 1102.00
73.7329 1138.00
73.7981 1140.00
73.8633 1169.00
73.9285 1214.00
73.9937 1175.00
74.0589 1155.00
74.1241 1179.00
74.1893 1067.00
74.2545 1036.00
74.3197 1055.00
74.3849 1048.00
74.4501 1086.00
74.5153 1024.00
74.5805 1055.00
74.6457 1099.00
74.7109 1080.00
74.7761 1125.00
74.8413 1098.00
74.9065 1092.00
74.9717 1185.00
75.0369 1124.00
75.1021 1128.00
75.1673 1202.00
75.2325 1340.00
75.2977 1387.00
75.3629 1310.00
75.4281 1345.00
75.4933 1333.00
75.5585 1283.00
75.6237 1243.00
75.6889 1136.00
75.7541 1138.00
75.8193 1098.00
75.8845 1075.00
75.9497 1083.00
76.0149 1088.00
76.0801 1092.00
76.1452 1109.00
76.2104 1074.00
76.2756 1083.00
76.3409 1072.00
76.406 1179.00
76.4712 1183.00
76.5364 1215.00
76.6016 1309.00
76.6668 1425.00
76.732 1278.00
76.7972 1261.00
76.8624 1257.00
76.9276 1207.00
76.9928 1095.00
77.058 1071.00
77.1232 1066.00
77.1884 1080.00
77.2536 1072.00
77.3188 1085.00
77.384 973.00
77.4492 1102.00
77.5144 1067.00
77.5796 1093.00
77.6448 1115.00
77.71 1096.00
77.7752 1127.00
77.8404 1107.00
77.9056 1170.00
77.9708 1108.00
78.036 1214.00
78.1012 1065.00
78.1664 1060.00
78.2316 1096.00
78.2968 1037.00
78.362 1084.00
78.4272 1034.00
78.4924 1020.00
78.5576 996.00
78.6228 954.00
78.688 1005.00
78.7532 1016.00
78.8184 946.00
78.8836 1053.00
78.9488 1028.00
79.014 1061.00
79.0792 1108.00
79.1444 1100.00
79.2096 1108.00
79.2748 1156.00
79.34 1203.00
79.4052 1133.00
79.4704 1166.00
79.5356 1076.00
79.6008 1079.00
79.666 1065.00
79.7312 1018.00
79.7964 1024.00
79.8616 997.00
79.9268 1021.00
79.992 1027.00
80.0572 1053.00
80.1224 1021.00
80.1876 1035.00
80.2528 1077.00
80.318 1089.00
80.3832 1076.00
80.4484 1030.00
80.5136 1062.00
80.5788 1069.00
80.644 1236.00
80.7092 1255.00
80.7744 1087.00
80.8396 1262.00
80.9048 1179.00
80.9699 1185.00
81.0351 1162.00
81.1003 1113.00
81.1655 1169.00
81.2307 1147.00
81.2959 1045.00
81.3611 1111.00
81.4263 1175.00
81.4915 1142.00
81.5567 1135.00
81.6219 1078.00
81.6871 1107.00
81.7523 1152.00
81.8175 1149.00
81.8827 1116.00
81.9479 1155.00
82.0131 1210.00
82.0783 1337.00
82.1435 1126.00
82.2087 1199.00
82.2739 1165.00
82.3391 1222.00
82.4043 1161.00
82.4695 1089.00
82.5347 1067.00
82.5999 1130.00
82.6651 1120.00
82.7303 1092.00
82.7955 1112.00
82.8607 1042.00
82.9259 1102.00
82.9911 1064.00
83.0563 1140.00
83.1215 1133.00
83.1867 1135.00
83.2519 1200.00
83.3171 1356.00
83.3823 1532.00
83.4475 1439.00
83.5127 1378.00
83.5779 1399.00
83.6431 1307.00
83.7083 1226.00
83.7735 1178.00
83.8387 1105.00
83.9039 1048.00
83.9691 1099.00
84.0343 1106.00
84.0995 1078.00
84.1647 1080.00
84.2299 1086.00
84.2951 1070.00
84.3603 1091.00
84.4255 1048.00
84.4907 1070.00
84.5559 1052.00
84.6211 1048.00
84.6863 1062.00
84.7515 1057.00
84.8167 963.00
84.8819 1013.00
84.9471 1004.00
85.0123 1014.00
85.0775 962.00
85.1427 1077.00
85.2079 1021.00
85.2731 1061.00
85.3383 1039.00
85.4035 1015.00
85.4687 1027.00
85.5339 1096.00
85.5991 1027.00
85.6643 978.00
85.7295 952.00
85.7946 1020.00
85.8598 1055.00
85.925 1160.00
85.9903 1195.00
86.0554 1403.00
86.1206 1259.00
86.1858 1232.00
86.251 1280.00
86.3162 1266.00
86.3814 1158.00
86.4466 1093.00
86.5118 1066.00
86.577 1029.00
86.6422 1091.00
86.7074 1065.00
86.7726 1013.00
86.8378 1076.00
86.903 1054.00
86.9682 994.00
87.0334 1009.00
87.0986 1081.00
87.1638 1059.00
87.229 1125.00
87.2942 1119.00
87.3594 1094.00
87.4246 1181.00
87.4898 1219.00
87.555 1138.00
87.6202 1130.00
87.6854 1221.00
87.7506 1173.00
87.8158 1082.00
87.881 1181.00
87.9462 1145.00
88.0114 1106.00
88.0766 1136.00
88.1418 1086.00
88.207 1125.00
88.2722 1094.00
88.3374 1153.00
88.4026 1158.00
88.4678 1193.00
88.533 1246.00
88.5982 1185.00
88.6634 1276.00
88.7286 1250.00
88.7938 1109.00
88.859 1152.00
88.9242 1091.00
88.9894 1077.00
89.0546 1115.00
89.1198 1091.00
89.185 1060.00
89.2502 1085.00
89.3154 1061.00
89.3806 1072.00
89.4458 1072.00
89.511 1086.00
89.5762 1125.00
89.6414 1129.00
89.7066 1031.00
89.7718 1080.00
89.837 1092.00
89.9022 1197.00
89.9674 1191.00
90.0326 1320.00
90.0978 1177.00
90.163 1204.00
90.2282 1200.00
90.2934 1161.00
90.3586 1149.00
90.4238 1093.00
90.489 1120.00
90.5542 1087.00
90.6193 1022.00
90.6845 1053.00
90.7497 1005.00
90.8149 1037.00
90.8801 1061.00
90.9453 1060.00
91.0105 1027.00
91.0757 1072.00
91.1409 1057.00
91.2061 1010.00
91.2713 1071.00
91.3365 1023.00
91.4017 1113.00
91.4669 1090.00
91.5321 1049.00
91.5973 1078.00
91.6625 1005.00
91.7277 1044.00
91.7929 965.00
91.8581 1024.00
91.9233 951.00
91.9885 967.00
92.0537 951.00
92.1189 1050.00
92.1841 1043.00
92.2493 973.00
92.3145 1003.00
92.3797 994.00
92.4449 1019.00
92.5101 1002.00
92.5753 1144.00
92.6405 1150.00
92.7057 1207.00
92.7709 1148.00
92.8361 1083.00
92.9013 1078.00
92.9665 1094.00
93.0317 1087.00
93.0969 1079.00
93.1621 1014.00
93.2273 1094.00
93.2925 1017.00
93.3577 1063.00
93.4229 1061.00
93.4881 1055.00
93.5533 1066.00
93.6185 1047.00
93.6837 1097.00
93.7489 1054.00
93.8141 1083.00
93.8793 1112.00
93.9445 1109.00
94.0097 1107.00
94.0749 1124.00
94.1401 1072.00
94.2053 1096.00
94.2705 1037.00
94.3357 1040.00
94.4009 988.00
94.4661 1093.00
94.5313 995.00
94.5965 1051.00
94.6617 1106.00
94.7269 1043.00
94.7921 1025.00
94.8573 1060.00
94.9225 1054.00
94.9877 1048.00
95.0529 1089.00
95.1181 1088.00
95.1833 1094.00
95.2485 1155.00
95.3137 1238.00
95.3789 1160.00
95.444 1167.00
95.5092 1058.00
95.5744 1087.00
95.6396 1107.00
95.7048 1068.00
95.77 1059.00
95.8352 987.00
95.9004 1009.00
95.9656 1077.00
96.0308 1012.00
96.096 997.00
96.1612 1043.00
96.2264 1068.00
96.2916 1069.00
96.3568 1115.00
96.422 1144.00
96.4872 1211.00
96.5524 1123.00
96.6176 1279.00
96.6828 1325.00
96.748 1306.00
96.8132 1304.00
96.8784 1269.00
96.9436 1394.00
97.0088 1299.00
97.074 1242.00
97.1392 1203.00
97.2044 1109.00
97.2696 1054.00
97.3348 1105.00
97.4 1039.00
97.4652 1058.00
97.5304 1020.00
97.5956 1025.00
97.6608 998.00
97.726 1021.00
97.7912 995.00
97.8564 1042.00
97.9216 1054.00
97.9868 1166.00
98.052 1105.00
98.1172 1080.00
98.1824 1110.00
98.2476 1083.00
98.3128 1098.00
98.378 987.00
98.4432 1072.00
98.5084 1116.00
98.5736 1017.00
98.6388 1047.00
98.704 1106.00
98.7692 1045.00
98.8344 1038.00
98.8996 1057.00
98.9648 1035.00
99.03 1045.00
99.0952 1031.00
99.1604 1119.00
99.2256 1099.00
99.2908 1083.00
99.356 1193.00
99.4212 1191.00
99.4864 1083.00
99.5516 1152.00
99.6168 1064.00
99.682 1134.00
99.7472 1056.00
99.8124 1034.00
99.8776 1066.00
99.9428 1108.00
100.008 1032.00
100.073 1043.00
100.095 1064.00