File: data/xrd_creation/results/NSC_41.xy
9.903433 2661.00
9.968632 2654.00
10.0338 2552.00
10.099 2549.00
10.1642 2619.00
10.2294 2585.00
10.2946 2504.00
10.3598 2424.00
10.425 2516.00
10.4902 2355.00
10.5554 2378.00
10.6206 2322.00
10.6858 2354.00
10.751 2308.00
10.8162 2359.00
10.8814 2277.00
10.9466 2244.00
11.0118 2295.00
11.077 2221.00
11.1422 2227.00
11.2074 2135.00
11.2726 2171.00
11.3378 2112.00
11.403 2061.00
11.4682 2047.00
11.5334 2127.00
11.5986 2042.00
11.6638 2082.00
11.729 1986.00
11.7942 2017.00
11.8594 2003.00
11.9246 1921.00
11.9898 1907.00
12.055 1924.00
12.1202 1835.00
12.1854 1972.00
12.2506 1869.00
12.3158 1781.00
12.381 1912.00
12.4462 1804.00
12.5114 1855.00
12.5766 1778.00
12.6418 1746.00
12.707 1774.00
12.7722 1824.00
12.8374 1724.00
12.9026 1723.00
12.9678 1641.00
13.033 1687.00
13.0982 1658.00
13.1634 1675.00
13.2286 1670.00
13.2938 1556.00
13.359 1654.00
13.4242 1654.00
13.4894 1717.00
13.5546 1627.00
13.6198 1626.00
13.685 1627.00
13.7502 1641.00
13.8154 1601.00
13.8805 1595.00
13.9457 1563.00
14.0109 1511.00
14.0761 1480.00
14.1413 1520.00
14.2065 1434.00
14.2717 1500.00
14.3369 1440.00
14.4021 1503.00
14.4673 1532.00
14.5325 1460.00
14.5977 1459.00
14.6629 1343.00
14.7281 1442.00
14.7933 1440.00
14.8585 1473.00
14.9237 1403.00
14.9889 1358.00
15.0541 1384.00
15.1193 1411.00
15.1845 1464.00
15.2497 1366.00
15.3149 1378.00
15.3801 1310.00
15.4453 1432.00
15.5105 1412.00
15.5757 1398.00
15.6409 1363.00
15.7061 1338.00
15.7713 1291.00
15.8365 1294.00
15.9017 1339.00
15.9669 1294.00
16.0321 1252.00
16.0973 1354.00
16.1625 1269.00
16.2277 1295.00
16.2929 1353.00
16.3581 1282.00
16.4233 1291.00
16.4885 1315.00
16.5537 1274.00
16.6189 1218.00
16.6841 1289.00
16.7493 1239.00
16.8145 1215.00
16.8797 1326.00
16.9449 1254.00
17.0101 1246.00
17.0753 1219.00
17.1405 1302.00
17.2057 1185.00
17.2709 1248.00
17.3361 1271.00
17.4013 1205.00
17.4665 1206.00
17.5317 1231.00
17.5969 1161.00
17.6621 1154.00
17.7273 1181.00
17.7925 1175.00
17.8577 1162.00
17.9229 1232.00
17.9881 1091.00
18.0533 1181.00
18.1185 1225.00
18.1837 1090.00
18.2489 1157.00
18.3141 1160.00
18.3793 1136.00
18.4445 1098.00
18.5097 1079.00
18.5749 1086.00
18.6401 1181.00
18.7052 1133.00
18.7704 1127.00
18.8356 1110.00
18.9008 1098.00
18.966 1098.00
19.0312 1095.00
19.0964 1113.00
19.1616 1080.00
19.2268 1073.00
19.292 1161.00
19.3572 1205.00
19.4224 1291.00
19.4876 1399.00
19.5528 1298.00
19.618 1300.00
19.6832 1340.00
19.7484 1157.00
19.8136 1081.00
19.8788 1054.00
19.944 1075.00
20.0092 1036.00
20.0744 1024.00
20.1396 1021.00
20.2048 1033.00
20.27 1071.00
20.3352 1072.00
20.4004 1174.00
20.4656 1235.00
20.5308 1448.00
20.596 1951.00
20.6612 2117.00
20.7264 1415.00
20.7916 1143.00
20.8568 1044.00
20.922 1068.00
20.9872 1025.00
21.0524 1106.00
21.1176 1111.00
21.1828 1147.00
21.248 1044.00
21.3132 1000.00
21.3784 984.00
21.4436 1002.00
21.5088 967.00
21.574 993.00
21.6392 933.00
21.7044 918.00
21.7696 966.00
21.8348 891.00
21.9 961.00
21.9652 991.00
22.0304 922.00
22.0956 958.00
22.1608 895.00
22.226 982.00
22.2912 927.00
22.3564 915.00
22.4216 917.00
22.4868 924.00
22.552 921.00
22.6172 872.00
22.6824 938.00
22.7476 925.00
22.8128 970.00
22.878 989.00
22.9432 969.00
23.0084 1108.00
23.0736 1152.00
23.1388 964.00
23.204 921.00
23.2692 798.00
23.3344 896.00
23.3996 903.00
23.4647 931.00
23.5299 832.00
23.5951 858.00
23.6603 936.00
23.7255 862.00
23.7907 882.00
23.8559 833.00
23.9211 849.00
23.9863 827.00
24.0515 846.00
24.1167 822.00
24.1819 830.00
24.2471 887.00
24.3123 787.00
24.3775 822.00
24.4427 817.00
24.5079 836.00
24.5731 824.00
24.6383 859.00
24.7035 805.00
24.7687 862.00
24.8339 798.00
24.8991 859.00
24.9643 877.00
25.0295 809.00
25.0947 777.00
25.1599 808.00
25.2251 752.00
25.2903 801.00
25.3555 783.00
25.4207 832.00
25.4859 860.00
25.5511 801.00
25.6163 797.00
25.6815 793.00
25.7467 790.00
25.8119 794.00
25.8771 767.00
25.9423 746.00
26.0075 760.00
26.0727 754.00
26.1379 834.00
26.2031 757.00
26.2683 788.00
26.3335 872.00
26.3987 812.00
26.4639 811.00
26.5291 809.00
26.5943 767.00
26.6595 777.00
26.7247 792.00
26.7899 729.00
26.8551 779.00
26.9203 733.00
26.9855 801.00
27.0507 822.00
27.1159 866.00
27.1811 873.00
27.2463 837.00
27.3115 745.00
27.3767 718.00
27.4419 707.00
27.5071 702.00
27.5723 718.00
27.6375 709.00
27.7027 764.00
27.7679 805.00
27.8331 823.00
27.8983 908.00
27.9635 871.00
28.0287 913.00
28.0939 792.00
28.1591 751.00
28.2243 745.00
28.2894 796.00
28.3546 712.00
28.4198 696.00
28.485 704.00
28.5502 699.00
28.6154 681.00
28.6806 711.00
28.7458 658.00
28.811 691.00
28.8762 728.00
28.9414 652.00
29.0066 676.00
29.0718 656.00
29.137 698.00
29.2022 727.00
29.2674 710.00
29.3326 660.00
29.3978 709.00
29.463 695.00
29.5282 720.00
29.5934 839.00
29.6586 798.00
29.7238 758.00
29.789 648.00
29.8542 645.00
29.9194 658.00
29.9846 613.00
30.0498 607.00
30.115 660.00
30.1802 675.00
30.2454 667.00
30.3106 649.00
30.3758 672.00
30.441 676.00
30.5062 726.00
30.5714 706.00
30.6366 693.00
30.7018 683.00
30.767 626.00
30.8322 683.00
30.8974 785.00
30.9626 739.00
31.0278 747.00
31.093 896.00
31.1582 927.00
31.2234 854.00
31.2886 741.00
31.3538 736.00
31.419 677.00
31.4842 649.00
31.5494 645.00
31.6146 661.00
31.6798 683.00
31.745 662.00
31.8102 619.00
31.8754 639.00
31.9406 634.00
32.0058 555.00
32.071 573.00
32.1362 550.00
32.2014 527.00
32.2666 553.00
32.3318 557.00
32.397 540.00
32.4622 576.00
32.5274 516.00
32.5926 531.00
32.6578 592.00
32.723 567.00
32.7882 528.00
32.8534 553.00
32.9186 543.00
32.9838 524.00
33.0489 528.00
33.1141 528.00
33.1793 507.00
33.2445 611.00
33.3097 525.00
33.3749 550.00
33.4401 517.00
33.5053 540.00
33.5705 537.00
33.6357 562.00
33.7009 499.00
33.7661 538.00
33.8313 527.00
33.8965 576.00
33.9617 635.00
34.0269 695.00
34.0921 837.00
34.1573 946.00
34.2225 777.00
34.2877 646.00
34.3529 634.00
34.4181 684.00
34.4833 694.00
34.5485 678.00
34.6137 660.00
34.6789 563.00
34.7441 600.00
34.8093 562.00
34.8745 523.00
34.9397 554.00
35.0049 522.00
35.0701 521.00
35.1353 541.00
35.2005 503.00
35.2657 492.00
35.3309 446.00
35.3961 485.00
35.4613 504.00
35.5265 518.00
35.5917 456.00
35.6569 494.00
35.7221 446.00
35.7873 482.00
35.8525 519.00
35.9177 502.00
35.9829 489.00
36.0481 528.00
36.1133 519.00
36.1785 540.00
36.2437 477.00
36.3089 461.00
36.3741 473.00
36.4393 453.00
36.5045 437.00
36.5697 462.00
36.6349 410.00
36.7001 435.00
36.7653 447.00
36.8305 452.00
36.8957 438.00
36.9609 456.00
37.0261 433.00
37.0913 404.00
37.1565 432.00
37.2217 390.00
37.2869 447.00
37.3521 438.00
37.4173 446.00
37.4825 421.00
37.5477 455.00
37.6129 408.00
37.6781 410.00
37.7433 444.00
37.8085 462.00
37.8736 441.00
37.9388 430.00
38.004 421.00
38.0692 432.00
38.1344 438.00
38.1996 430.00
38.2648 471.00
38.33 506.00
38.3952 534.00
38.4604 460.00
38.5256 413.00
38.5908 439.00
38.656 422.00
38.7212 429.00
38.7864 423.00
38.8516 444.00
38.9168 493.00
38.982 411.00
39.0472 464.00
39.1124 444.00
39.1776 390.00
39.2428 428.00
39.308 388.00
39.3732 400.00
39.4384 421.00
39.5036 406.00
39.5688 392.00
39.634 391.00
39.6992 388.00
39.7644 411.00
39.8296 389.00
39.8948 417.00
39.96 391.00
40.0252 405.00
40.0904 408.00
40.1556 375.00
40.2208 449.00
40.286 405.00
40.3512 386.00
40.4164 440.00
40.4816 423.00
40.5468 414.00
40.612 407.00
40.6772 409.00
40.7424 333.00
40.8076 374.00
40.8728 377.00
40.938 373.00
41.0032 389.00
41.0684 375.00
41.1336 370.00
41.1988 409.00
41.264 400.00
41.3292 388.00
41.3944 377.00
41.4596 347.00
41.5248 353.00
41.59 360.00
41.6552 413.00
41.7204 391.00
41.7856 407.00
41.8508 424.00
41.916 433.00
41.9812 397.00
42.0464 422.00
42.1116 370.00
42.1768 368.00
42.242 379.00
42.3072 354.00
42.3724 371.00
42.4376 394.00
42.5028 398.00
42.568 409.00
42.6332 403.00
42.6983 362.00
42.7635 356.00
42.8287 384.00
42.8939 360.00
42.9591 365.00
43.0243 370.00
43.0895 386.00
43.1547 387.00
43.2199 351.00
43.2851 373.00
43.3503 389.00
43.4155 358.00
43.4807 367.00
43.5459 376.00
43.6111 391.00
43.6763 334.00
43.7415 345.00
43.8067 342.00
43.8719 326.00
43.9371 357.00
44.0023 328.00
44.0675 323.00
44.1327 365.00
44.1979 348.00
44.2631 314.00
44.3283 338.00
44.3935 377.00
44.4587 330.00
44.5239 368.00
44.5891 356.00
44.6543 315.00
44.7195 363.00
44.7847 367.00
44.8499 334.00
44.9151 377.00
44.9803 355.00
45.0455 370.00
45.1107 333.00
45.1759 317.00
45.2411 375.00
45.3063 345.00
45.3715 337.00
45.4367 342.00
45.5019 333.00
45.5671 362.00
45.6323 318.00
45.6975 335.00
45.7627 356.00
45.8279 316.00
45.8931 342.00
45.9583 312.00
46.0235 311.00
46.0887 331.00
46.1539 324.00
46.2191 343.00
46.2843 329.00
46.3495 298.00
46.4147 331.00
46.4799 335.00
46.5451 325.00
46.6103 342.00
46.6755 338.00
46.7407 324.00
46.8059 330.00
46.8711 358.00
46.9363 344.00
47.0015 351.00
47.0667 330.00
47.1319 363.00
47.1971 376.00
47.2623 396.00
47.3275 387.00
47.3927 327.00
47.4579 381.00
47.523 345.00
47.5882 307.00
47.6534 339.00
47.7186 366.00
47.7838 355.00
47.849 341.00
47.9142 305.00
47.9794 315.00
48.0446 331.00
48.1098 316.00
48.175 304.00
48.2402 353.00
48.3054 287.00
48.3706 317.00
48.4358 300.00
48.501 297.00
48.5662 275.00
48.6314 322.00
48.6966 293.00
48.7618 293.00
48.827 293.00
48.8922 318.00
48.9574 350.00
49.0226 359.00
49.0878 345.00
49.153 368.00
49.2182 330.00
49.2834 326.00
49.3486 302.00
49.4138 297.00
49.479 337.00
49.5442 296.00
49.6094 297.00
49.6746 306.00
49.7398 328.00
49.805 286.00
49.8702 318.00
49.9354 311.00
50.0006 279.00
50.0658 285.00
50.131 300.00
50.1962 312.00
50.2614 285.00
50.3266 324.00
50.3918 307.00
50.457 317.00
50.5222 291.00
50.5874 300.00
50.6526 301.00
50.7178 295.00
50.783 261.00
50.8482 285.00
50.9134 327.00
50.9786 336.00
51.0438 328.00
51.109 327.00
51.1742 318.00
51.2394 325.00
51.3046 349.00
51.3698 334.00
51.435 349.00
51.5002 302.00
51.5654 288.00
51.6306 313.00
51.6958 289.00
51.761 295.00
51.8262 276.00
51.8914 273.00
51.9566 304.00
52.0218 282.00
52.087 307.00
52.1522 280.00
52.2174 268.00
52.2826 276.00
52.3477 280.00
52.4129 302.00
52.4781 279.00
52.5433 280.00
52.6085 260.00
52.6737 285.00
52.7389 306.00
52.8041 310.00
52.8693 257.00
52.9345 278.00
52.9997 290.00
53.0649 289.00
53.1301 268.00
53.1953 282.00
53.2605 318.00
53.3257 289.00
53.3909 299.00
53.4561 283.00
53.5213 296.00
53.5865 304.00
53.6517 310.00
53.7169 273.00
53.7821 298.00
53.8473 350.00
53.9125 348.00
53.9777 314.00
54.0429 349.00
54.1081 317.00
54.1733 281.00
54.2385 283.00
54.3037 318.00
54.3689 289.00
54.4341 276.00
54.4993 290.00
54.5645 283.00
54.6297 298.00
54.6949 272.00
54.7601 281.00
54.8253 256.00
54.8905 277.00
54.9557 298.00
55.0209 267.00
55.0861 258.00
55.1513 304.00
55.2165 278.00
55.2817 292.00
55.3469 242.00
55.4121 277.00
55.4773 261.00
55.5425 242.00
55.6077 271.00
55.6729 268.00
55.7381 295.00
55.8033 269.00
55.8685 235.00
55.9337 246.00
55.9989 261.00
56.0641 258.00
56.1293 273.00
56.1945 221.00
56.2597 256.00
56.3249 246.00
56.3901 269.00
56.4553 257.00
56.5205 265.00
56.5857 300.00
56.6509 246.00
56.7161 261.00
56.7813 258.00
56.8465 298.00
56.9117 282.00
56.9769 272.00
57.042 267.00
57.1073 250.00
57.1724 244.00
57.2376 261.00
57.3028 193.00
57.368 306.00
57.4332 260.00
57.4984 232.00
57.5636 271.00
57.6288 283.00
57.694 208.00
57.7592 279.00
57.8244 219.00
57.8896 221.00
57.9548 204.00
58.02 225.00
58.0852 243.00
58.1504 263.00
58.2156 226.00
58.2808 264.00
58.346 231.00
58.4112 256.00
58.4764 268.00
58.5416 212.00
58.6068 237.00
58.672 234.00
58.7372 257.00
58.8024 272.00
58.8676 259.00
58.9328 244.00
58.998 261.00
59.0632 262.00
59.1284 298.00
59.1936 276.00
59.2588 256.00
59.324 291.00
59.3892 246.00
59.4544 250.00
59.5196 271.00
59.5848 275.00
59.65 265.00
59.7152 245.00
59.7804 281.00
59.8456 288.00
59.9108 262.00
59.976 275.00
60.0412 276.00
60.1064 260.00
60.1716 244.00
60.2368 236.00
60.302 236.00
60.3672 241.00
60.4324 265.00
60.4976 223.00
60.5628 273.00
60.628 237.00
60.6932 232.00
60.7584 233.00
60.8236 247.00
60.8888 243.00
60.954 243.00
61.0192 227.00
61.0844 260.00
61.1496 264.00
61.2148 310.00
61.28 297.00
61.3452 263.00
61.4104 264.00
61.4756 229.00
61.5408 258.00
61.606 226.00
61.6712 248.00
61.7364 221.00
61.8016 238.00
61.8667 293.00
61.932 242.00
61.9971 247.00
62.0623 244.00
62.1275 269.00
62.1927 246.00
62.2579 231.00
62.3231 226.00
62.3883 215.00
62.4535 223.00
62.5187 209.00
62.5839 223.00
62.6491 264.00
62.7143 243.00
62.7795 257.00
62.8447 233.00
62.9099 233.00
62.9751 222.00
63.0403 222.00
63.1055 225.00
63.1707 242.00
63.2359 238.00
63.3011 217.00
63.3663 227.00
63.4315 233.00
63.4967 239.00
63.5619 226.00
63.6271 236.00
63.6923 232.00
63.7575 191.00
63.8227 233.00
63.8879 243.00
63.9531 215.00
64.0183 194.00
64.0835 225.00
64.1487 208.00
64.2139 207.00
64.2791 186.00
64.3443 195.00
64.4095 239.00
64.4747 227.00
64.5399 212.00
64.6051 217.00
64.6703 197.00
64.7355 200.00
64.8007 223.00
64.8659 198.00
64.9311 190.00
64.9963 215.00
65.0615 217.00
65.1267 222.00
65.1919 216.00
65.2571 239.00
65.3223 209.00
65.3875 208.00
65.4527 227.00
65.5179 201.00
65.5831 203.00
65.6483 198.00
65.7135 207.00
65.7787 246.00
65.8439 184.00
65.9091 205.00
65.9743 231.00
66.0395 234.00
66.1047 184.00
66.1699 211.00
66.2351 221.00
66.3003 184.00
66.3655 197.00
66.4307 208.00
66.4959 191.00
66.561 219.00
66.6263 204.00
66.6915 203.00
66.7566 226.00
66.8218 207.00
66.887 245.00
66.9522 210.00
67.0174 194.00
67.0826 226.00
67.1478 213.00
67.213 219.00
67.2782 211.00
67.3434 215.00
67.4086 211.00
67.4738 231.00
67.539 220.00
67.6042 194.00
67.6694 183.00
67.7346 204.00
67.7998 217.00
67.865 226.00
67.9302 180.00
67.9954 196.00
68.0606 203.00
68.1258 214.00
68.191 212.00
68.2562 202.00
68.3214 222.00
68.3866 204.00
68.4518 223.00
68.517 220.00
68.5822 187.00
68.6474 195.00
68.7126 206.00
68.7778 191.00
68.843 198.00
68.9082 196.00
68.9734 207.00
69.0386 184.00
69.1038 222.00
69.169 210.00
69.2342 216.00
69.2994 214.00
69.3646 216.00
69.4298 213.00
69.495 228.00
69.5602 215.00
69.6254 205.00
69.6906 217.00
69.7558 211.00
69.821 220.00
69.8862 201.00
69.9514 206.00
70.0166 216.00
70.0818 222.00
70.147 185.00
70.2122 194.00
70.2774 219.00
70.3426 182.00
70.4078 195.00
70.473 211.00
70.5382 219.00
70.6034 182.00
70.6686 246.00
70.7338 197.00
70.799 214.00
70.8642 209.00
70.9294 208.00
70.9946 193.00
71.0598 215.00
71.125 205.00
71.1902 211.00
71.2554 203.00
71.3205 214.00
71.3858 216.00
71.451 182.00
71.5162 199.00
71.5813 225.00
71.6465 205.00
71.7117 205.00
71.7769 216.00
71.8421 203.00
71.9073 210.00
71.9725 193.00
72.0377 227.00
72.1029 211.00
72.1681 192.00
72.2333 206.00
72.2985 200.00
72.3637 187.00
72.4289 204.00
72.4941 238.00
72.5593 216.00
72.6245 204.00
72.6897 204.00
72.7549 225.00
72.8201 201.00
72.8853 214.00
72.9505 201.00
73.0157 219.00
73.0809 187.00
73.1461 233.00
73.2113 206.00
73.2765 199.00
73.3417 235.00
73.4069 218.00
73.4721 212.00
73.5373 230.00
73.6025 184.00
73.6677 222.00
73.7329 195.00
73.7981 216.00
73.8633 227.00
73.9285 226.00
73.9937 235.00
74.0589 211.00
74.1241 239.00
74.1893 212.00
74.2545 217.00
74.3197 208.00
74.3849 203.00
74.4501 242.00
74.5153 226.00
74.5805 214.00
74.6457 220.00
74.7109 200.00
74.7761 218.00
74.8413 207.00
74.9065 233.00
74.9717 215.00
75.0369 231.00
75.1021 207.00
75.1673 218.00
75.2325 215.00
75.2977 224.00
75.3629 212.00
75.4281 219.00
75.4933 181.00
75.5585 221.00
75.6237 213.00
75.6889 204.00
75.7541 211.00
75.8193 219.00
75.8845 204.00
75.9497 233.00
76.0149 214.00
76.0801 189.00
76.1452 246.00
76.2104 222.00
76.2756 227.00
76.3409 205.00
76.406 223.00
76.4712 210.00
76.5364 194.00
76.6016 225.00
76.6668 214.00
76.732 227.00
76.7972 233.00
76.8624 207.00
76.9276 228.00
76.9928 241.00
77.058 212.00
77.1232 195.00
77.1884 219.00
77.2536 241.00
77.3188 204.00
77.384 193.00
77.4492 214.00
77.5144 184.00
77.5796 241.00
77.6448 230.00
77.71 226.00
77.7752 211.00
77.8404 203.00
77.9056 244.00
77.9708 207.00
78.036 221.00
78.1012 234.00
78.1664 219.00
78.2316 220.00
78.2968 203.00
78.362 206.00
78.4272 242.00
78.4924 210.00
78.5576 226.00
78.6228 220.00
78.688 227.00
78.7532 193.00
78.8184 238.00
78.8836 202.00
78.9488 203.00
79.014 219.00
79.0792 198.00
79.1444 184.00
79.2096 220.00
79.2748 238.00
79.34 201.00
79.4052 230.00
79.4704 217.00
79.5356 205.00
79.6008 209.00
79.666 233.00
79.7312 229.00
79.7964 214.00
79.8616 205.00
79.9268 247.00
79.992 226.00
80.0572 189.00
80.1224 261.00
80.1876 217.00
80.2528 226.00
80.318 232.00
80.3832 266.00
80.4484 231.00
80.5136 227.00
80.5788 227.00
80.644 222.00
80.7092 227.00
80.7744 233.00
80.8396 243.00
80.9048 238.00
80.9699 223.00
81.0351 231.00
81.1003 272.00
81.1655 228.00
81.2307 244.00
81.2959 213.00
81.3611 227.00
81.4263 259.00
81.4915 271.00
81.5567 219.00
81.6219 229.00
81.6871 246.00
81.7523 247.00
81.8175 208.00
81.8827 251.00
81.9479 233.00
82.0131 246.00
82.0783 263.00
82.1435 249.00
82.2087 244.00
82.2739 265.00
82.3391 218.00
82.4043 259.00
82.4695 235.00
82.5347 232.00
82.5999 222.00
82.6651 233.00
82.7303 265.00
82.7955 233.00
82.8607 242.00
82.9259 240.00
82.9911 251.00
83.0563 209.00
83.1215 225.00
83.1867 264.00
83.2519 242.00
83.3171 229.00
83.3823 249.00
83.4475 235.00
83.5127 259.00
83.5779 257.00
83.6431 243.00
83.7083 232.00
83.7735 229.00
83.8387 263.00
83.9039 215.00
83.9691 237.00
84.0343 260.00
84.0995 243.00
84.1647 244.00
84.2299 236.00
84.2951 264.00
84.3603 235.00
84.4255 228.00
84.4907 259.00
84.5559 263.00
84.6211 227.00
84.6863 229.00
84.7515 250.00
84.8167 243.00
84.8819 241.00
84.9471 233.00
85.0123 216.00
85.0775 249.00
85.1427 262.00
85.2079 209.00
85.2731 248.00
85.3383 263.00
85.4035 256.00
85.4687 241.00
85.5339 233.00
85.5991 223.00
85.6643 249.00
85.7295 247.00
85.7946 227.00
85.8598 258.00
85.925 228.00
85.9903 237.00
86.0554 209.00
86.1206 217.00
86.1858 218.00
86.251 240.00
86.3162 233.00
86.3814 203.00
86.4466 224.00
86.5118 229.00
86.577 215.00
86.6422 196.00
86.7074 205.00
86.7726 210.00
86.8378 211.00
86.903 227.00
86.9682 236.00
87.0334 214.00
87.0986 207.00
87.1638 225.00
87.229 207.00
87.2942 243.00
87.3594 232.00
87.4246 238.00
87.4898 238.00
87.555 222.00
87.6202 219.00
87.6854 241.00
87.7506 221.00
87.8158 240.00
87.881 227.00
87.9462 237.00
88.0114 213.00
88.0766 244.00
88.1418 271.00
88.207 217.00
88.2722 234.00
88.3374 218.00
88.4026 208.00
88.4678 236.00
88.533 208.00
88.5982 236.00
88.6634 227.00
88.7286 215.00
88.7938 236.00
88.859 199.00
88.9242 202.00
88.9894 221.00
89.0546 233.00
89.1198 223.00
89.185 217.00
89.2502 232.00
89.3154 213.00
89.3806 222.00
89.4458 216.00
89.511 207.00
89.5762 199.00
89.6414 217.00
89.7066 239.00
89.7718 249.00
89.837 228.00
89.9022 223.00
89.9674 206.00
90.0326 212.00
90.0978 203.00
90.163 216.00
90.2282 214.00
90.2934 218.00
90.3586 227.00
90.4238 215.00
90.489 216.00
90.5542 205.00
90.6193 195.00
90.6845 251.00
90.7497 202.00
90.8149 187.00
90.8801 237.00
90.9453 217.00
91.0105 217.00
91.0757 185.00
91.1409 206.00
91.2061 210.00
91.2713 182.00
91.3365 212.00
91.4017 217.00
91.4669 205.00
91.5321 208.00
91.5973 208.00
91.6625 213.00
91.7277 218.00
91.7929 213.00
91.8581 227.00
91.9233 190.00
91.9885 181.00
92.0537 231.00
92.1189 203.00
92.1841 233.00
92.2493 229.00
92.3145 208.00
92.3797 216.00
92.4449 188.00
92.5101 212.00
92.5753 211.00
92.6405 196.00
92.7057 243.00
92.7709 213.00
92.8361 226.00
92.9013 217.00
92.9665 199.00
93.0317 210.00
93.0969 201.00
93.1621 226.00
93.2273 183.00
93.2925 201.00
93.3577 195.00
93.4229 174.00
93.4881 214.00
93.5533 224.00
93.6185 190.00
93.6837 244.00
93.7489 229.00
93.8141 221.00
93.8793 217.00
93.9445 200.00
94.0097 205.00
94.0749 198.00
94.1401 206.00
94.2053 228.00
94.2705 209.00
94.3357 196.00
94.4009 196.00
94.4661 210.00
94.5313 201.00
94.5965 220.00
94.6617 216.00
94.7269 234.00
94.7921 245.00
94.8573 214.00
94.9225 221.00
94.9877 223.00
95.0529 248.00
95.1181 186.00
95.1833 207.00
95.2485 217.00
95.3137 188.00
95.3789 203.00
95.444 217.00
95.5092 182.00
95.5744 184.00
95.6396 206.00
95.7048 200.00
95.77 206.00
95.8352 183.00
95.9004 229.00
95.9656 187.00
96.0308 192.00
96.096 184.00
96.1612 189.00
96.2264 206.00
96.2916 197.00
96.3568 202.00
96.422 218.00
96.4872 195.00
96.5524 189.00
96.6176 195.00
96.6828 189.00
96.748 199.00
96.8132 228.00
96.8784 168.00
96.9436 232.00
97.0088 213.00
97.074 207.00
97.1392 219.00
97.2044 223.00
97.2696 196.00
97.3348 186.00
97.4 205.00
97.4652 199.00
97.5304 211.00
97.5956 172.00
97.6608 180.00
97.726 205.00
97.7912 185.00
97.8564 198.00
97.9216 186.00
97.9868 216.00
98.052 193.00
98.1172 158.00
98.1824 199.00
98.2476 192.00
98.3128 195.00
98.378 200.00
98.4432 214.00
98.5084 219.00
98.5736 169.00
98.6388 182.00
98.704 178.00
98.7692 197.00
98.8344 193.00
98.8996 189.00
98.9648 209.00
99.03 192.00
99.0952 190.00
99.1604 185.00
99.2256 188.00
99.2908 172.00
99.356 193.00
99.4212 185.00
99.4864 174.00
99.5516 187.00
99.6168 196.00
99.682 184.00
99.7472 210.00
99.8124 180.00
99.8776 175.00
99.9428 168.00
100.008 177.00
100.073 158.00
100.095 177.00