File: data/xrd_creation/results/NSC_142.xy
9.903433 2663.00
9.968632 2841.00
10.0338 2610.00
10.099 2558.00
10.1642 2541.00
10.2294 2586.00
10.2946 2644.00
10.3598 2621.00
10.425 2483.00
10.4902 2564.00
10.5554 2559.00
10.6206 2551.00
10.6858 2585.00
10.751 2410.00
10.8162 2478.00
10.8814 2439.00
10.9466 2341.00
11.0118 2421.00
11.077 2397.00
11.1422 2305.00
11.2074 2261.00
11.2726 2399.00
11.3378 2257.00
11.403 2294.00
11.4682 2174.00
11.5334 2173.00
11.5986 2213.00
11.6638 2300.00
11.729 2220.00
11.7942 2172.00
11.8594 2068.00
11.9246 2154.00
11.9898 2112.00
12.055 2163.00
12.1202 2161.00
12.1854 2027.00
12.2506 2130.00
12.3158 2049.00
12.381 2100.00
12.4462 2049.00
12.5114 1986.00
12.5766 1953.00
12.6418 1972.00
12.707 1984.00
12.7722 2028.00
12.8374 1993.00
12.9026 1996.00
12.9678 1940.00
13.033 1988.00
13.0982 2016.00
13.1634 1912.00
13.2286 1927.00
13.2938 1799.00
13.359 1917.00
13.4242 1927.00
13.4894 1926.00
13.5546 1926.00
13.6198 1932.00
13.685 1970.00
13.7502 1970.00
13.8154 2042.00
13.8805 2255.00
13.9457 2434.00
14.0109 2570.00
14.0761 2935.00
14.1413 2906.00
14.2065 2173.00
14.2717 1906.00
14.3369 1820.00
14.4021 1796.00
14.4673 1816.00
14.5325 1767.00
14.5977 1747.00
14.6629 1724.00
14.7281 1754.00
14.7933 1724.00
14.8585 1801.00
14.9237 1747.00
14.9889 1821.00
15.0541 1856.00
15.1193 1836.00
15.1845 1973.00
15.2497 1936.00
15.3149 2100.00
15.3801 2359.00
15.4453 2553.00
15.5105 2534.00
15.5757 2232.00
15.6409 2715.00
15.7061 2987.00
15.7713 3521.00
15.8365 3852.00
15.9017 2773.00
15.9669 1933.00
16.0321 1812.00
16.0973 1660.00
16.1625 1780.00
16.2277 1594.00
16.2929 1628.00
16.3581 1548.00
16.4233 1651.00
16.4885 1625.00
16.5537 1567.00
16.6189 1519.00
16.6841 1602.00
16.7493 1591.00
16.8145 1660.00
16.8797 1682.00
16.9449 1632.00
17.0101 1664.00
17.0753 1497.00
17.1405 1666.00
17.2057 1557.00
17.2709 1582.00
17.3361 1580.00
17.4013 1530.00
17.4665 1525.00
17.5317 1515.00
17.5969 1506.00
17.6621 1517.00
17.7273 1496.00
17.7925 1496.00
17.8577 1446.00
17.9229 1597.00
17.9881 1471.00
18.0533 1530.00
18.1185 1463.00
18.1837 1454.00
18.2489 1455.00
18.3141 1479.00
18.3793 1445.00
18.4445 1432.00
18.5097 1429.00
18.5749 1451.00
18.6401 1473.00
18.7052 1442.00
18.7704 1458.00
18.8356 1415.00
18.9008 1435.00
18.966 1432.00
19.0312 1437.00
19.0964 1466.00
19.1616 1471.00
19.2268 1439.00
19.292 1502.00
19.3572 1608.00
19.4224 1702.00
19.4876 1867.00
19.5528 2153.00
19.618 2742.00
19.6832 3453.00
19.7484 4214.00
19.8136 5400.00
19.8788 6169.00
19.944 5534.00
20.0092 5221.00
20.0744 3657.00
20.1396 2127.00
20.2048 1832.00
20.27 1916.00
20.3352 2065.00
20.4004 2134.00
20.4656 2311.00
20.5308 2326.00
20.596 1878.00
20.6612 1739.00
20.7264 1736.00
20.7916 1785.00
20.8568 1595.00
20.922 1547.00
20.9872 1697.00
21.0524 1511.00
21.1176 1423.00
21.1828 1419.00
21.248 1400.00
21.3132 1427.00
21.3784 1404.00
21.4436 1391.00
21.5088 1497.00
21.574 1652.00
21.6392 1801.00
21.7044 1955.00
21.7696 2141.00
21.8348 2318.00
21.9 1798.00
21.9652 1480.00
22.0304 1270.00
22.0956 1334.00
22.1608 1327.00
22.226 1312.00
22.2912 1189.00
22.3564 1326.00
22.4216 1236.00
22.4868 1347.00
22.552 1256.00
22.6172 1334.00
22.6824 1305.00
22.7476 1282.00
22.8128 1332.00
22.878 1334.00
22.9432 1346.00
23.0084 1465.00
23.0736 1492.00
23.1388 1678.00
23.204 1939.00
23.2692 2257.00
23.3344 2496.00
23.3996 2914.00
23.4647 2144.00
23.5299 1499.00
23.5951 1298.00
23.6603 1246.00
23.7255 1187.00
23.7907 1220.00
23.8559 1270.00
23.9211 1248.00
23.9863 1172.00
24.0515 1191.00
24.1167 1240.00
24.1819 1181.00
24.2471 1240.00
24.3123 1264.00
24.3775 1246.00
24.4427 1332.00
24.5079 1363.00
24.5731 1356.00
24.6383 1438.00
24.7035 1485.00
24.7687 1462.00
24.8339 1421.00
24.8991 1275.00
24.9643 1164.00
25.0295 1215.00
25.0947 1286.00
25.1599 1312.00
25.2251 1313.00
25.2903 1138.00
25.3555 1117.00
25.4207 1125.00
25.4859 1054.00
25.5511 1170.00
25.6163 1143.00
25.6815 1065.00
25.7467 1111.00
25.8119 1111.00
25.8771 1024.00
25.9423 1024.00
26.0075 1067.00
26.0727 1063.00
26.1379 1126.00
26.2031 989.00
26.2683 1060.00
26.3335 1057.00
26.3987 1073.00
26.4639 1082.00
26.5291 1084.00
26.5943 1032.00
26.6595 1017.00
26.7247 1042.00
26.7899 1072.00
26.8551 1078.00
26.9203 1035.00
26.9855 1032.00
27.0507 1059.00
27.1159 1106.00
27.1811 1023.00
27.2463 1130.00
27.3115 1143.00
27.3767 1144.00
27.4419 1210.00
27.5071 1232.00
27.5723 1150.00
27.6375 1149.00
27.7027 1091.00
27.7679 1089.00
27.8331 1156.00
27.8983 1337.00
27.9635 1580.00
28.0287 2072.00
28.0939 2738.00
28.1591 3141.00
28.2243 3653.00
28.2894 3229.00
28.3546 2403.00
28.4198 2071.00
28.485 2286.00
28.5502 2058.00
28.6154 1400.00
28.6806 1130.00
28.7458 1110.00
28.811 1031.00
28.8762 995.00
28.9414 940.00
29.0066 1005.00
29.0718 1040.00
29.137 980.00
29.2022 994.00
29.2674 1033.00
29.3326 1068.00
29.3978 1026.00
29.463 1051.00
29.5282 1017.00
29.5934 1011.00
29.6586 1109.00
29.7238 1184.00
29.789 1281.00
29.8542 1384.00
29.9194 1509.00
29.9846 1342.00
30.0498 1175.00
30.115 1121.00
30.1802 1225.00
30.2454 1399.00
30.3106 1506.00
30.3758 1671.00
30.441 1877.00
30.5062 1911.00
30.5714 1737.00
30.6366 1733.00
30.7018 1904.00
30.767 2249.00
30.8322 2243.00
30.8974 2028.00
30.9626 1626.00
31.0278 1344.00
31.093 1319.00
31.1582 1420.00
31.2234 1812.00
31.2886 2543.00
31.3538 3562.00
31.419 4730.00
31.4842 6381.00
31.5494 6315.00
31.6146 5075.00
31.6798 3905.00
31.745 3212.00
31.8102 2666.00
31.8754 2429.00
31.9406 2187.00
32.0058 1849.00
32.071 1707.00
32.1362 2032.00
32.2014 2292.00
32.2666 2668.00
32.3318 3116.00
32.397 2646.00
32.4622 1944.00
32.5274 1413.00
32.5926 1213.00
32.6578 1289.00
32.723 1321.00
32.7882 1391.00
32.8534 1288.00
32.9186 1144.00
32.9838 1043.00
33.0489 976.00
33.1141 1039.00
33.1793 1011.00
33.2445 1025.00
33.3097 1036.00
33.3749 1169.00
33.4401 1429.00
33.5053 1677.00
33.5705 1869.00
33.6357 1785.00
33.7009 1669.00
33.7661 1293.00
33.8313 1046.00
33.8965 908.00
33.9617 964.00
34.0269 918.00
34.0921 946.00
34.1573 949.00
34.2225 1063.00
34.2877 1028.00
34.3529 1135.00
34.4181 1296.00
34.4833 1691.00
34.5485 2424.00
34.6137 3442.00
34.6789 4725.00
34.7441 6105.00
34.8093 6455.00
34.8745 5721.00
34.9397 3483.00
35.0049 2077.00
35.0701 1337.00
35.1353 1003.00
35.2005 887.00
35.2657 907.00
35.3309 864.00
35.3961 862.00
35.4613 905.00
35.5265 975.00
35.5917 1008.00
35.6569 1085.00
35.7221 968.00
35.7873 949.00
35.8525 823.00
35.9177 777.00
35.9829 775.00
36.0481 798.00
36.1133 787.00
36.1785 780.00
36.2437 844.00
36.3089 853.00
36.3741 897.00
36.4393 976.00
36.5045 1080.00
36.5697 967.00
36.6349 852.00
36.7001 818.00
36.7653 775.00
36.8305 756.00
36.8957 743.00
36.9609 764.00
37.0261 700.00
37.0913 734.00
37.1565 671.00
37.2217 722.00
37.2869 712.00
37.3521 702.00
37.4173 682.00
37.4825 715.00
37.5477 704.00
37.6129 689.00
37.6781 747.00
37.7433 775.00
37.8085 815.00
37.8736 888.00
37.9388 858.00
38.004 879.00
38.0692 798.00
38.1344 795.00
38.1996 743.00
38.2648 803.00
38.33 811.00
38.3952 842.00
38.4604 882.00
38.5256 765.00
38.5908 729.00
38.656 737.00
38.7212 664.00
38.7864 672.00
38.8516 654.00
38.9168 668.00
38.982 659.00
39.0472 650.00
39.1124 649.00
39.1776 663.00
39.2428 705.00
39.308 726.00
39.3732 734.00
39.4384 767.00
39.5036 711.00
39.5688 726.00
39.634 745.00
39.6992 791.00
39.7644 722.00
39.8296 689.00
39.8948 781.00
39.96 758.00
40.0252 843.00
40.0904 878.00
40.1556 868.00
40.2208 901.00
40.286 941.00
40.3512 1032.00
40.4164 1192.00
40.4816 1287.00
40.5468 1241.00
40.612 1076.00
40.6772 887.00
40.7424 800.00
40.8076 699.00
40.8728 710.00
40.938 635.00
41.0032 655.00
41.0684 662.00
41.1336 632.00
41.1988 639.00
41.264 640.00
41.3292 672.00
41.3944 682.00
41.4596 723.00
41.5248 627.00
41.59 705.00
41.6552 637.00
41.7204 652.00
41.7856 706.00
41.8508 769.00
41.916 824.00
41.9812 947.00
42.0464 1182.00
42.1116 1328.00
42.1768 1643.00
42.242 1860.00
42.3072 1808.00
42.3724 1549.00
42.4376 1441.00
42.5028 1371.00
42.568 1448.00
42.6332 1492.00
42.6983 1536.00
42.7635 1565.00
42.8287 1331.00
42.8939 1170.00
42.9591 1207.00
43.0243 966.00
43.0895 976.00
43.1547 951.00
43.2199 1039.00
43.2851 1005.00
43.3503 825.00
43.4155 797.00
43.4807 636.00
43.5459 652.00
43.6111 624.00
43.6763 614.00
43.7415 617.00
43.8067 609.00
43.8719 636.00
43.9371 590.00
44.0023 586.00
44.0675 623.00
44.1327 623.00
44.1979 656.00
44.2631 644.00
44.3283 714.00
44.3935 762.00
44.4587 888.00
44.5239 821.00
44.5891 882.00
44.6543 752.00
44.7195 793.00
44.7847 693.00
44.8499 778.00
44.9151 936.00
44.9803 1096.00
45.0455 1287.00
45.1107 1561.00
45.1759 1687.00
45.2411 1790.00
45.3063 1931.00
45.3715 1730.00
45.4367 1464.00
45.5019 1143.00
45.5671 1040.00
45.6323 1052.00
45.6975 1024.00
45.7627 893.00
45.8279 842.00
45.8931 816.00
45.9583 794.00
46.0235 732.00
46.0887 663.00
46.1539 697.00
46.2191 735.00
46.2843 869.00
46.3495 852.00
46.4147 830.00
46.4799 816.00
46.5451 728.00
46.6103 702.00
46.6755 614.00
46.7407 643.00
46.8059 592.00
46.8711 679.00
46.9363 686.00
47.0015 791.00
47.0667 959.00
47.1319 1085.00
47.1971 1260.00
47.2623 1496.00
47.3275 1660.00
47.3927 1913.00
47.4579 2266.00
47.523 2480.00
47.5882 2723.00
47.6534 2039.00
47.7186 1635.00
47.7838 1076.00
47.849 805.00
47.9142 629.00
47.9794 671.00
48.0446 619.00
48.1098 610.00
48.175 589.00
48.2402 585.00
48.3054 634.00
48.3706 589.00
48.4358 592.00
48.501 609.00
48.5662 656.00
48.6314 636.00
48.6966 747.00
48.7618 770.00
48.827 917.00
48.8922 1061.00
48.9574 1090.00
49.0226 1156.00
49.0878 986.00
49.153 810.00
49.2182 801.00
49.2834 768.00
49.3486 763.00
49.4138 774.00
49.479 739.00
49.5442 696.00
49.6094 696.00
49.6746 736.00
49.7398 697.00
49.805 765.00
49.8702 797.00
49.9354 906.00
50.0006 856.00
50.0658 773.00
50.131 701.00
50.1962 686.00
50.2614 601.00
50.3266 637.00
50.3918 683.00
50.457 659.00
50.5222 745.00
50.5874 878.00
50.6526 975.00
50.7178 1197.00
50.783 1193.00
50.8482 1036.00
50.9134 936.00
50.9786 809.00
51.0438 856.00
51.109 923.00
51.1742 1099.00
51.2394 1164.00
51.3046 1048.00
51.3698 1108.00
51.435 1120.00
51.5002 1109.00
51.5654 1299.00
51.6306 1391.00
51.6958 1648.00
51.761 1559.00
51.8262 1355.00
51.8914 1316.00
51.9566 945.00
52.0218 862.00
52.087 737.00
52.1522 688.00
52.2174 714.00
52.2826 615.00
52.3477 613.00
52.4129 627.00
52.4781 586.00
52.5433 619.00
52.6085 606.00
52.6737 636.00
52.7389 621.00
52.8041 604.00
52.8693 705.00
52.9345 739.00
52.9997 743.00
53.0649 690.00
53.1301 665.00
53.1953 712.00
53.2605 724.00
53.3257 684.00
53.3909 684.00
53.4561 586.00
53.5213 646.00
53.5865 616.00
53.6517 641.00
53.7169 772.00
53.7821 874.00
53.8473 972.00
53.9125 1140.00
53.9777 1303.00
54.0429 1532.00
54.1081 1728.00
54.1733 1942.00
54.2385 2150.00
54.3037 1934.00
54.3689 1594.00
54.4341 1163.00
54.4993 812.00
54.5645 696.00
54.6297 666.00
54.6949 610.00
54.7601 551.00
54.8253 523.00
54.8905 586.00
54.9557 549.00
55.0209 580.00
55.0861 597.00
55.1513 577.00
55.2165 586.00
55.2817 616.00
55.3469 645.00
55.4121 713.00
55.4773 839.00
55.5425 876.00
55.6077 904.00
55.6729 851.00
55.7381 769.00
55.8033 701.00
55.8685 611.00
55.9337 618.00
55.9989 637.00
56.0641 672.00
56.1293 632.00
56.1945 726.00
56.2597 875.00
56.3249 884.00
56.3901 1080.00
56.4553 1072.00
56.5205 1078.00
56.5857 1060.00
56.6509 1062.00
56.7161 1095.00
56.7813 919.00
56.8465 875.00
56.9117 694.00
56.9769 603.00
57.042 599.00
57.1073 558.00
57.1724 571.00
57.2376 570.00
57.3028 577.00
57.368 551.00
57.4332 568.00
57.4984 534.00
57.5636 522.00
57.6288 471.00
57.694 499.00
57.7592 520.00
57.8244 509.00
57.8896 535.00
57.9548 506.00
58.02 555.00
58.0852 536.00
58.1504 521.00
58.2156 508.00
58.2808 517.00
58.346 545.00
58.4112 460.00
58.4764 517.00
58.5416 491.00
58.6068 529.00
58.672 565.00
58.7372 579.00
58.8024 567.00
58.8676 602.00
58.9328 630.00
58.998 593.00
59.0632 659.00
59.1284 772.00
59.1936 860.00
59.2588 852.00
59.324 850.00
59.3892 806.00
59.4544 824.00
59.5196 897.00
59.5848 883.00
59.65 966.00
59.7152 1131.00
59.7804 1330.00
59.8456 1460.00
59.9108 1669.00
59.976 1784.00
60.0412 1946.00
60.1064 2092.00
60.1716 2065.00
60.2368 1875.00
60.302 1456.00
60.3672 1288.00
60.4324 908.00
60.4976 816.00
60.5628 838.00
60.628 801.00
60.6932 920.00
60.7584 910.00
60.8236 986.00
60.8888 946.00
60.954 947.00
61.0192 978.00
61.0844 965.00
61.1496 981.00
61.2148 1017.00
61.28 946.00
61.3452 905.00
61.4104 859.00
61.4756 865.00
61.5408 764.00
61.606 846.00
61.6712 954.00
61.7364 980.00
61.8016 971.00
61.8667 1043.00
61.932 1007.00
61.9971 1021.00
62.0623 1269.00
62.1275 1282.00
62.1927 1205.00
62.2579 1181.00
62.3231 1150.00
62.3883 985.00
62.4535 887.00
62.5187 778.00
62.5839 714.00
62.6491 730.00
62.7143 640.00
62.7795 607.00
62.8447 609.00
62.9099 620.00
62.9751 620.00
63.0403 625.00
63.1055 628.00
63.1707 656.00
63.2359 663.00
63.3011 709.00
63.3663 714.00
63.4315 661.00
63.4967 727.00
63.5619 834.00
63.6271 812.00
63.6923 882.00
63.7575 906.00
63.8227 823.00
63.8879 790.00
63.9531 736.00
64.0183 683.00
64.0835 634.00
64.1487 697.00
64.2139 633.00
64.2791 632.00
64.3443 639.00
64.4095 547.00
64.4747 573.00
64.5399 580.00
64.6051 641.00
64.6703 581.00
64.7355 591.00
64.8007 563.00
64.8659 541.00
64.9311 565.00
64.9963 523.00
65.0615 504.00
65.1267 493.00
65.1919 488.00
65.2571 501.00
65.3223 483.00
65.3875 490.00
65.4527 487.00
65.5179 539.00
65.5831 519.00
65.6483 611.00
65.7135 712.00
65.7787 742.00
65.8439 893.00
65.9091 891.00
65.9743 883.00
66.0395 774.00
66.1047 712.00
66.1699 636.00
66.2351 593.00
66.3003 519.00
66.3655 446.00
66.4307 547.00
66.4959 554.00
66.561 494.00
66.6263 506.00
66.6915 551.00
66.7566 582.00
66.8218 565.00
66.887 635.00
66.9522 663.00
67.0174 787.00
67.0826 794.00
67.1478 817.00
67.213 844.00
67.2782 877.00
67.3434 947.00
67.4086 913.00
67.4738 917.00
67.539 935.00
67.6042 909.00
67.6694 901.00
67.7346 741.00
67.7998 672.00
67.865 613.00
67.9302 611.00
67.9954 519.00
68.0606 545.00
68.1258 588.00
68.191 571.00
68.2562 555.00
68.3214 533.00
68.3866 545.00
68.4518 550.00
68.517 551.00
68.5822 570.00
68.6474 549.00
68.7126 483.00
68.7778 536.00
68.843 492.00
68.9082 547.00
68.9734 526.00
69.0386 554.00
69.1038 528.00
69.169 613.00
69.2342 650.00
69.2994 664.00
69.3646 669.00
69.4298 651.00
69.495 651.00
69.5602 732.00
69.6254 807.00
69.6906 688.00
69.7558 608.00
69.821 632.00
69.8862 524.00
69.9514 494.00
70.0166 523.00
70.0818 516.00
70.147 486.00
70.2122 516.00
70.2774 487.00
70.3426 527.00
70.4078 473.00
70.473 515.00
70.5382 488.00
70.6034 470.00
70.6686 457.00
70.7338 543.00
70.799 553.00
70.8642 539.00
70.9294 520.00
70.9946 513.00
71.0598 537.00
71.125 531.00
71.1902 600.00
71.2554 578.00
71.3205 558.00
71.3858 520.00
71.451 510.00
71.5162 467.00
71.5813 463.00
71.6465 444.00
71.7117 460.00
71.7769 474.00
71.8421 453.00
71.9073 427.00
71.9725 526.00
72.0377 508.00
72.1029 521.00
72.1681 541.00
72.2333 502.00
72.2985 528.00
72.3637 511.00
72.4289 485.00
72.4941 496.00
72.5593 505.00
72.6245 525.00
72.6897 528.00
72.7549 485.00
72.8201 544.00
72.8853 550.00
72.9505 635.00
73.0157 597.00
73.0809 699.00
73.1461 744.00
73.2113 764.00
73.2765 744.00
73.3417 624.00
73.4069 625.00
73.4721 591.00
73.5373 464.00
73.6025 453.00
73.6677 493.00
73.7329 412.00
73.7981 432.00
73.8633 436.00
73.9285 456.00
73.9937 445.00
74.0589 463.00
74.1241 441.00
74.1893 506.00
74.2545 572.00
74.3197 626.00
74.3849 560.00
74.4501 562.00
74.5153 651.00
74.5805 533.00
74.6457 542.00
74.7109 514.00
74.7761 505.00
74.8413 483.00
74.9065 509.00
74.9717 489.00
75.0369 478.00
75.1021 486.00
75.1673 487.00
75.2325 555.00
75.2977 533.00
75.3629 571.00
75.4281 559.00
75.4933 521.00
75.5585 515.00
75.6237 491.00
75.6889 489.00
75.7541 517.00
75.8193 523.00
75.8845 513.00
75.9497 466.00
76.0149 534.00
76.0801 554.00
76.1452 555.00
76.2104 533.00
76.2756 529.00
76.3409 573.00
76.406 571.00
76.4712 619.00
76.5364 722.00
76.6016 732.00
76.6668 742.00
76.732 735.00
76.7972 692.00
76.8624 615.00
76.9276 546.00
76.9928 543.00
77.058 451.00
77.1232 447.00
77.1884 449.00
77.2536 436.00
77.3188 460.00
77.384 461.00
77.4492 431.00
77.5144 448.00
77.5796 476.00
77.6448 479.00
77.71 477.00
77.7752 497.00
77.8404 514.00
77.9056 523.00
77.9708 552.00
78.036 659.00
78.1012 708.00
78.1664 702.00
78.2316 642.00
78.2968 617.00
78.362 630.00
78.4272 593.00
78.4924 495.00
78.5576 485.00
78.6228 408.00
78.688 447.00
78.7532 448.00
78.8184 459.00
78.8836 420.00
78.9488 405.00
79.014 465.00
79.0792 420.00
79.1444 425.00
79.2096 494.00
79.2748 445.00
79.34 450.00
79.4052 405.00
79.4704 427.00
79.5356 452.00
79.6008 437.00
79.666 459.00
79.7312 457.00
79.7964 461.00
79.8616 471.00
79.9268 482.00
79.992 508.00
80.0572 519.00
80.1224 453.00
80.1876 474.00
80.2528 449.00
80.318 461.00
80.3832 436.00
80.4484 439.00
80.5136 445.00
80.5788 459.00
80.644 458.00
80.7092 486.00
80.7744 466.00
80.8396 512.00
80.9048 454.00
80.9699 511.00
81.0351 543.00
81.1003 538.00
81.1655 607.00
81.2307 648.00
81.2959 610.00
81.3611 664.00
81.4263 654.00
81.4915 721.00
81.5567 752.00
81.6219 747.00
81.6871 862.00
81.7523 819.00
81.8175 814.00
81.8827 731.00
81.9479 647.00
82.0131 592.00
82.0783 603.00
82.1435 556.00
82.2087 502.00
82.2739 452.00
82.3391 445.00
82.4043 429.00
82.4695 444.00
82.5347 425.00
82.5999 418.00
82.6651 447.00
82.7303 425.00
82.7955 474.00
82.8607 462.00
82.9259 469.00
82.9911 533.00
83.0563 477.00
83.1215 545.00
83.1867 543.00
83.2519 588.00
83.3171 616.00
83.3823 613.00
83.4475 614.00
83.5127 600.00
83.5779 605.00
83.6431 559.00
83.7083 518.00
83.7735 467.00
83.8387 421.00
83.9039 406.00
83.9691 388.00
84.0343 368.00
84.0995 355.00
84.1647 392.00
84.2299 353.00
84.2951 377.00
84.3603 424.00
84.4255 421.00
84.4907 418.00
84.5559 424.00
84.6211 420.00
84.6863 383.00
84.7515 434.00
84.8167 422.00
84.8819 420.00
84.9471 396.00
85.0123 356.00
85.0775 404.00
85.1427 410.00
85.2079 420.00
85.2731 412.00
85.3383 375.00
85.4035 404.00
85.4687 406.00
85.5339 409.00
85.5991 397.00
85.6643 381.00
85.7295 419.00
85.7946 415.00
85.8598 441.00
85.925 435.00
85.9903 457.00
86.0554 466.00
86.1206 441.00
86.1858 424.00
86.251 409.00
86.3162 481.00
86.3814 552.00
86.4466 524.00
86.5118 544.00
86.577 504.00
86.6422 506.00
86.7074 502.00
86.7726 491.00
86.8378 520.00
86.903 464.00
86.9682 403.00
87.0334 411.00
87.0986 403.00
87.1638 433.00
87.229 420.00
87.2942 406.00
87.3594 448.00
87.4246 402.00
87.4898 435.00
87.555 431.00
87.6202 411.00
87.6854 438.00
87.7506 429.00
87.8158 494.00
87.881 459.00
87.9462 533.00
88.0114 510.00
88.0766 510.00
88.1418 485.00
88.207 578.00
88.2722 562.00
88.3374 670.00
88.4026 628.00
88.4678 600.00
88.533 525.00
88.5982 540.00
88.6634 604.00
88.7286 553.00
88.7938 526.00
88.859 489.00
88.9242 470.00
88.9894 430.00
89.0546 480.00
89.1198 428.00
89.185 396.00
89.2502 415.00
89.3154 474.00
89.3806 473.00
89.4458 494.00
89.511 477.00
89.5762 469.00
89.6414 483.00
89.7066 495.00
89.7718 491.00
89.837 488.00
89.9022 479.00
89.9674 484.00
90.0326 526.00
90.0978 557.00
90.163 542.00
90.2282 544.00
90.2934 533.00
90.3586 475.00
90.4238 537.00
90.489 423.00
90.5542 457.00
90.6193 471.00
90.6845 438.00
90.7497 426.00
90.8149 392.00
90.8801 435.00
90.9453 473.00
91.0105 472.00
91.0757 492.00
91.1409 485.00
91.2061 513.00
91.2713 500.00
91.3365 519.00
91.4017 478.00
91.4669 548.00
91.5321 518.00
91.5973 531.00
91.6625 553.00
91.7277 526.00
91.7929 548.00
91.8581 606.00
91.9233 529.00
91.9885 646.00
92.0537 542.00
92.1189 549.00
92.1841 503.00
92.2493 525.00
92.3145 536.00
92.3797 469.00
92.4449 460.00
92.5101 519.00
92.5753 468.00
92.6405 456.00
92.7057 490.00
92.7709 440.00
92.8361 457.00
92.9013 445.00
92.9665 461.00
93.0317 420.00
93.0969 453.00
93.1621 478.00
93.2273 468.00
93.2925 457.00
93.3577 443.00
93.4229 462.00
93.4881 429.00
93.5533 401.00
93.6185 490.00
93.6837 473.00
93.7489 519.00
93.8141 477.00
93.8793 415.00
93.9445 400.00
94.0097 438.00
94.0749 391.00
94.1401 398.00
94.2053 416.00
94.2705 414.00
94.3357 395.00
94.4009 391.00
94.4661 438.00
94.5313 453.00
94.5965 460.00
94.6617 529.00
94.7269 547.00
94.7921 616.00
94.8573 594.00
94.9225 622.00
94.9877 616.00
95.0529 673.00
95.1181 689.00
95.1833 623.00
95.2485 585.00
95.3137 557.00
95.3789 523.00
95.444 515.00
95.5092 541.00
95.5744 503.00
95.6396 472.00
95.7048 469.00
95.77 452.00
95.8352 459.00
95.9004 494.00
95.9656 489.00
96.0308 506.00
96.096 511.00
96.1612 549.00
96.2264 503.00
96.2916 546.00
96.3568 499.00
96.422 524.00
96.4872 534.00
96.5524 514.00
96.6176 585.00
96.6828 525.00
96.748 547.00
96.8132 498.00
96.8784 510.00
96.9436 521.00
97.0088 535.00
97.074 507.00
97.1392 510.00
97.2044 480.00
97.2696 550.00
97.3348 474.00
97.4 411.00
97.4652 454.00
97.5304 508.00
97.5956 442.00
97.6608 434.00
97.726 446.00
97.7912 419.00
97.8564 431.00
97.9216 419.00
97.9868 441.00
98.052 454.00
98.1172 455.00
98.1824 539.00
98.2476 495.00
98.3128 539.00
98.378 454.00
98.4432 516.00
98.5084 464.00
98.5736 454.00
98.6388 466.00
98.704 412.00
98.7692 395.00
98.8344 413.00
98.8996 397.00
98.9648 414.00
99.03 366.00
99.0952 405.00
99.1604 412.00
99.2256 400.00
99.2908 413.00
99.356 400.00
99.4212 421.00
99.4864 482.00
99.5516 413.00
99.6168 522.00
99.682 467.00
99.7472 513.00
99.8124 486.00
99.8776 502.00
99.9428 501.00
100.008 496.00
100.073 497.00
100.095 465.00