File: data/xrd_creation/results/NSC_150.xy
9.903433 2471.00
9.968632 2439.00
10.0338 2526.00
10.099 2498.00
10.1642 2454.00
10.2294 2447.00
10.2946 2450.00
10.3598 2390.00
10.425 2468.00
10.4902 2419.00
10.5554 2348.00
10.6206 2346.00
10.6858 2358.00
10.751 2320.00
10.8162 2244.00
10.8814 2224.00
10.9466 2274.00
11.0118 2187.00
11.077 2248.00
11.1422 2168.00
11.2074 2167.00
11.2726 2174.00
11.3378 2037.00
11.403 2084.00
11.4682 2108.00
11.5334 2083.00
11.5986 2051.00
11.6638 2092.00
11.729 2036.00
11.7942 1957.00
11.8594 1932.00
11.9246 1907.00
11.9898 1938.00
12.055 1939.00
12.1202 1903.00
12.1854 1999.00
12.2506 1868.00
12.3158 1855.00
12.381 1903.00
12.4462 1819.00
12.5114 1823.00
12.5766 1834.00
12.6418 1809.00
12.707 1846.00
12.7722 1806.00
12.8374 1813.00
12.9026 1687.00
12.9678 1713.00
13.033 1793.00
13.0982 1663.00
13.1634 1716.00
13.2286 1724.00
13.2938 1733.00
13.359 1630.00
13.4242 1675.00
13.4894 1651.00
13.5546 1636.00
13.6198 1737.00
13.685 1647.00
13.7502 1645.00
13.8154 1601.00
13.8805 1600.00
13.9457 1577.00
14.0109 1569.00
14.0761 1571.00
14.1413 1624.00
14.2065 1614.00
14.2717 1617.00
14.3369 1507.00
14.4021 1581.00
14.4673 1582.00
14.5325 1603.00
14.5977 1554.00
14.6629 1582.00
14.7281 1539.00
14.7933 1519.00
14.8585 1527.00
14.9237 1506.00
14.9889 1543.00
15.0541 1434.00
15.1193 1457.00
15.1845 1463.00
15.2497 1469.00
15.3149 1470.00
15.3801 1488.00
15.4453 1427.00
15.5105 1476.00
15.5757 1583.00
15.6409 1377.00
15.7061 1416.00
15.7713 1432.00
15.8365 1518.00
15.9017 1425.00
15.9669 1427.00
16.0321 1443.00
16.0973 1414.00
16.1625 1474.00
16.2277 1457.00
16.2929 1402.00
16.3581 1372.00
16.4233 1338.00
16.4885 1471.00
16.5537 1430.00
16.6189 1374.00
16.6841 1335.00
16.7493 1337.00
16.8145 1371.00
16.8797 1383.00
16.9449 1397.00
17.0101 1349.00
17.0753 1418.00
17.1405 1420.00
17.2057 1335.00
17.2709 1328.00
17.3361 1346.00
17.4013 1264.00
17.4665 1398.00
17.5317 1373.00
17.5969 1400.00
17.6621 1350.00
17.7273 1394.00
17.7925 1367.00
17.8577 1366.00
17.9229 1252.00
17.9881 1250.00
18.0533 1301.00
18.1185 1296.00
18.1837 1293.00
18.2489 1356.00
18.3141 1248.00
18.3793 1285.00
18.4445 1319.00
18.5097 1343.00
18.5749 1320.00
18.6401 1271.00
18.7052 1242.00
18.7704 1210.00
18.8356 1272.00
18.9008 1266.00
18.966 1221.00
19.0312 1267.00
19.0964 1208.00
19.1616 1286.00
19.2268 1218.00
19.292 1219.00
19.3572 1204.00
19.4224 1229.00
19.4876 1221.00
19.5528 1247.00
19.618 1305.00
19.6832 1169.00
19.7484 1164.00
19.8136 1179.00
19.8788 1223.00
19.944 1182.00
20.0092 1209.00
20.0744 1199.00
20.1396 1134.00
20.2048 1163.00
20.27 1186.00
20.3352 1170.00
20.4004 1229.00
20.4656 1197.00
20.5308 1213.00
20.596 1177.00
20.6612 1232.00
20.7264 1194.00
20.7916 1152.00
20.8568 1245.00
20.922 1177.00
20.9872 1191.00
21.0524 1124.00
21.1176 1151.00
21.1828 1152.00
21.248 1184.00
21.3132 1165.00
21.3784 1129.00
21.4436 1182.00
21.5088 1193.00
21.574 1178.00
21.6392 1141.00
21.7044 1167.00
21.7696 1076.00
21.8348 1092.00
21.9 1076.00
21.9652 1097.00
22.0304 1214.00
22.0956 1160.00
22.1608 1227.00
22.226 1254.00
22.2912 1317.00
22.3564 1394.00
22.4216 1493.00
22.4868 1685.00
22.552 2233.00
22.6172 3569.00
22.6824 6208.00
22.7476 8829.00
22.8128 8681.00
22.878 7311.00
22.9432 6525.00
23.0084 7089.00
23.0736 8920.00
23.1388 9857.00
23.204 7161.00
23.2692 3282.00
23.3344 1713.00
23.3996 1458.00
23.4647 1359.00
23.5299 1312.00
23.5951 1172.00
23.6603 1190.00
23.7255 1234.00
23.7907 1125.00
23.8559 1082.00
23.9211 1173.00
23.9863 1085.00
24.0515 1139.00
24.1167 1192.00
24.1819 1121.00
24.2471 1117.00
24.3123 1110.00
24.3775 1041.00
24.4427 1070.00
24.5079 1123.00
24.5731 1029.00
24.6383 1087.00
24.7035 1101.00
24.7687 1086.00
24.8339 1033.00
24.8991 1030.00
24.9643 1013.00
25.0295 1117.00
25.0947 1023.00
25.1599 1114.00
25.2251 1027.00
25.2903 1061.00
25.3555 1051.00
25.4207 1030.00
25.4859 1011.00
25.5511 1037.00
25.6163 1032.00
25.6815 1032.00
25.7467 958.00
25.8119 1040.00
25.8771 1044.00
25.9423 946.00
26.0075 996.00
26.0727 1028.00
26.1379 1018.00
26.2031 970.00
26.2683 1030.00
26.3335 1037.00
26.3987 955.00
26.4639 1004.00
26.5291 952.00
26.5943 1004.00
26.6595 976.00
26.7247 975.00
26.7899 1007.00
26.8551 996.00
26.9203 931.00
26.9855 993.00
27.0507 914.00
27.1159 1003.00
27.1811 971.00
27.2463 988.00
27.3115 999.00
27.3767 947.00
27.4419 967.00
27.5071 919.00
27.5723 926.00
27.6375 936.00
27.7027 885.00
27.7679 972.00
27.8331 934.00
27.8983 940.00
27.9635 944.00
28.0287 964.00
28.0939 936.00
28.1591 962.00
28.2243 911.00
28.2894 870.00
28.3546 894.00
28.4198 908.00
28.485 891.00
28.5502 961.00
28.6154 907.00
28.6806 947.00
28.7458 876.00
28.811 871.00
28.8762 895.00
28.9414 982.00
29.0066 870.00
29.0718 924.00
29.137 865.00
29.2022 903.00
29.2674 918.00
29.3326 927.00
29.3978 922.00
29.463 973.00
29.5282 960.00
29.5934 914.00
29.6586 917.00
29.7238 869.00
29.789 901.00
29.8542 947.00
29.9194 895.00
29.9846 890.00
30.0498 847.00
30.115 848.00
30.1802 902.00
30.2454 893.00
30.3106 877.00
30.3758 890.00
30.441 871.00
30.5062 878.00
30.5714 887.00
30.6366 842.00
30.7018 889.00
30.767 827.00
30.8322 838.00
30.8974 905.00
30.9626 872.00
31.0278 888.00
31.093 810.00
31.1582 856.00
31.2234 910.00
31.2886 847.00
31.3538 871.00
31.419 882.00
31.4842 906.00
31.5494 919.00
31.6146 910.00
31.6798 964.00
31.745 1004.00
31.8102 1029.00
31.8754 1008.00
31.9406 1038.00
32.0058 1139.00
32.071 1233.00
32.1362 1415.00
32.2014 1842.00
32.2666 3007.00
32.3318 5101.00
32.397 8254.00
32.4622 9702.00
32.5274 9196.00
32.5926 8548.00
32.6578 8806.00
32.723 10672.00
32.7882 11906.00
32.8534 9237.00
32.9186 5598.00
32.9838 3103.00
33.0489 1958.00
33.1141 1377.00
33.1793 1126.00
33.2445 1115.00
33.3097 1012.00
33.3749 930.00
33.4401 966.00
33.5053 927.00
33.5705 862.00
33.6357 822.00
33.7009 886.00
33.7661 864.00
33.8313 917.00
33.8965 878.00
33.9617 825.00
34.0269 882.00
34.0921 853.00
34.1573 861.00
34.2225 884.00
34.2877 827.00
34.3529 812.00
34.4181 901.00
34.4833 831.00
34.5485 801.00
34.6137 855.00
34.6789 801.00
34.7441 773.00
34.8093 860.00
34.8745 851.00
34.9397 819.00
35.0049 852.00
35.0701 856.00
35.1353 779.00
35.2005 805.00
35.2657 780.00
35.3309 803.00
35.3961 741.00
35.4613 801.00
35.5265 812.00
35.5917 706.00
35.6569 779.00
35.7221 783.00
35.7873 819.00
35.8525 768.00
35.9177 779.00
35.9829 723.00
36.0481 763.00
36.1133 806.00
36.1785 753.00
36.2437 752.00
36.3089 770.00
36.3741 743.00
36.4393 789.00
36.5045 783.00
36.5697 785.00
36.6349 803.00
36.7001 796.00
36.7653 784.00
36.8305 809.00
36.8957 776.00
36.9609 709.00
37.0261 760.00
37.0913 787.00
37.1565 748.00
37.2217 765.00
37.2869 781.00
37.3521 739.00
37.4173 705.00
37.4825 665.00
37.5477 709.00
37.6129 692.00
37.6781 701.00
37.7433 675.00
37.8085 671.00
37.8736 748.00
37.9388 767.00
38.004 726.00
38.0692 751.00
38.1344 733.00
38.1996 696.00
38.2648 719.00
38.33 829.00
38.3952 817.00
38.4604 754.00
38.5256 712.00
38.5908 837.00
38.656 721.00
38.7212 762.00
38.7864 761.00
38.8516 769.00
38.9168 647.00
38.982 712.00
39.0472 744.00
39.1124 670.00
39.1776 663.00
39.2428 684.00
39.308 740.00
39.3732 749.00
39.4384 722.00
39.5036 727.00
39.5688 741.00
39.634 715.00
39.6992 755.00
39.7644 830.00
39.8296 909.00
39.8948 1172.00
39.96 1401.00
40.0252 1678.00
40.0904 1823.00
40.1556 1838.00
40.2208 1969.00
40.286 2121.00
40.3512 2138.00
40.4164 1928.00
40.4816 1571.00
40.5468 1272.00
40.612 1007.00
40.6772 842.00
40.7424 789.00
40.8076 704.00
40.8728 688.00
40.938 686.00
41.0032 709.00
41.0684 685.00
41.1336 679.00
41.1988 660.00
41.264 682.00
41.3292 679.00
41.3944 658.00
41.4596 664.00
41.5248 664.00
41.59 707.00
41.6552 641.00
41.7204 677.00
41.7856 721.00
41.8508 662.00
41.916 743.00
41.9812 634.00
42.0464 671.00
42.1116 722.00
42.1768 642.00
42.242 689.00
42.3072 672.00
42.3724 657.00
42.4376 641.00
42.5028 643.00
42.568 677.00
42.6332 689.00
42.6983 607.00
42.7635 640.00
42.8287 675.00
42.8939 697.00
42.9591 688.00
43.0243 668.00
43.0895 653.00
43.1547 650.00
43.2199 672.00
43.2851 584.00
43.3503 680.00
43.4155 688.00
43.4807 707.00
43.5459 694.00
43.6111 701.00
43.6763 690.00
43.7415 704.00
43.8067 675.00
43.8719 702.00
43.9371 691.00
44.0023 660.00
44.0675 675.00
44.1327 649.00
44.1979 612.00
44.2631 672.00
44.3283 639.00
44.3935 680.00
44.4587 643.00
44.5239 635.00
44.5891 640.00
44.6543 657.00
44.7195 627.00
44.7847 643.00
44.8499 646.00
44.9151 665.00
44.9803 686.00
45.0455 624.00
45.1107 656.00
45.1759 685.00
45.2411 679.00
45.3063 684.00
45.3715 699.00
45.4367 654.00
45.5019 688.00
45.5671 649.00
45.6323 656.00
45.6975 620.00
45.7627 681.00
45.8279 739.00
45.8931 714.00
45.9583 688.00
46.0235 703.00
46.0887 727.00
46.1539 760.00
46.2191 783.00
46.2843 838.00
46.3495 926.00
46.4147 1323.00
46.4799 2194.00
46.5451 3282.00
46.6103 3861.00
46.6755 3941.00
46.7407 4092.00
46.8059 4418.00
46.8711 4865.00
46.9363 4680.00
47.0015 3448.00
47.0667 2350.00
47.1319 1322.00
47.1971 995.00
47.2623 813.00
47.3275 736.00
47.3927 779.00
47.4579 692.00
47.523 702.00
47.5882 697.00
47.6534 713.00
47.7186 697.00
47.7838 676.00
47.849 688.00
47.9142 638.00
47.9794 646.00
48.0446 659.00
48.1098 684.00
48.175 656.00
48.2402 680.00
48.3054 649.00
48.3706 687.00
48.4358 671.00
48.501 687.00
48.5662 643.00
48.6314 627.00
48.6966 632.00
48.7618 688.00
48.827 639.00
48.8922 648.00
48.9574 651.00
49.0226 678.00
49.0878 617.00
49.153 682.00
49.2182 640.00
49.2834 694.00
49.3486 644.00
49.4138 656.00
49.479 687.00
49.5442 648.00
49.6094 664.00
49.6746 652.00
49.7398 653.00
49.805 643.00
49.8702 621.00
49.9354 645.00
50.0006 676.00
50.0658 691.00
50.131 654.00
50.1962 629.00
50.2614 627.00
50.3266 647.00
50.3918 624.00
50.457 616.00
50.5222 657.00
50.5874 699.00
50.6526 673.00
50.7178 688.00
50.783 704.00
50.8482 712.00
50.9134 677.00
50.9786 698.00
51.0438 700.00
51.109 651.00
51.1742 686.00
51.2394 696.00
51.3046 709.00
51.3698 694.00
51.435 712.00
51.5002 713.00
51.5654 706.00
51.6306 753.00
51.6958 742.00
51.761 705.00
51.8262 724.00
51.8914 744.00
51.9566 848.00
52.0218 834.00
52.087 881.00
52.1522 980.00
52.2174 1105.00
52.2826 1585.00
52.3477 2461.00
52.4129 3690.00
52.4781 4587.00
52.5433 5149.00
52.6085 5591.00
52.6737 6055.00
52.7389 6395.00
52.8041 6017.00
52.8693 4687.00
52.9345 3499.00
52.9997 2400.00
53.0649 1587.00
53.1301 1128.00
53.1953 937.00
53.2605 879.00
53.3257 776.00
53.3909 711.00
53.4561 785.00
53.5213 679.00
53.5865 688.00
53.6517 711.00
53.7169 702.00
53.7821 660.00
53.8473 686.00
53.9125 669.00
53.9777 671.00
54.0429 713.00
54.1081 655.00
54.1733 732.00
54.2385 654.00
54.3037 674.00
54.3689 652.00
54.4341 644.00
54.4993 692.00
54.5645 678.00
54.6297 636.00
54.6949 692.00
54.7601 701.00
54.8253 637.00
54.8905 693.00
54.9557 645.00
55.0209 671.00
55.0861 644.00
55.1513 672.00
55.2165 656.00
55.2817 635.00
55.3469 657.00
55.4121 641.00
55.4773 648.00
55.5425 639.00
55.6077 638.00
55.6729 663.00
55.7381 681.00
55.8033 698.00
55.8685 642.00
55.9337 722.00
55.9989 665.00
56.0641 681.00
56.1293 681.00
56.1945 668.00
56.2597 697.00
56.3249 752.00
56.3901 664.00
56.4553 641.00
56.5205 687.00
56.5857 691.00
56.6509 678.00
56.7161 727.00
56.7813 691.00
56.8465 712.00
56.9117 690.00
56.9769 714.00
57.042 775.00
57.1073 671.00
57.1724 729.00
57.2376 666.00
57.3028 704.00
57.368 799.00
57.4332 779.00
57.4984 888.00
57.5636 850.00
57.6288 1075.00
57.694 1395.00
57.7592 2028.00
57.8244 2813.00
57.8896 3537.00
57.9548 4588.00
58.02 5239.00
58.0852 5892.00
58.1504 6007.00
58.2156 5864.00
58.2808 5150.00
58.346 4422.00
58.4112 3497.00
58.4764 2653.00
58.5416 1868.00
58.6068 1446.00
58.672 1074.00
58.7372 897.00
58.8024 771.00
58.8676 737.00
58.9328 737.00
58.998 692.00
59.0632 702.00
59.1284 683.00
59.1936 655.00
59.2588 670.00
59.324 657.00
59.3892 675.00
59.4544 652.00
59.5196 666.00
59.5848 706.00
59.65 687.00
59.7152 699.00
59.7804 697.00
59.8456 678.00
59.9108 660.00
59.976 653.00
60.0412 638.00
60.1064 658.00
60.1716 706.00
60.2368 669.00
60.302 621.00
60.3672 634.00
60.4324 602.00
60.4976 677.00
60.5628 655.00
60.628 656.00
60.6932 670.00
60.7584 650.00
60.8236 656.00
60.8888 660.00
60.954 648.00
61.0192 683.00
61.0844 650.00
61.1496 640.00
61.2148 652.00
61.28 648.00
61.3452 616.00
61.4104 617.00
61.4756 645.00
61.5408 680.00
61.606 650.00
61.6712 627.00
61.7364 643.00
61.8016 663.00
61.8667 639.00
61.932 609.00
61.9971 647.00
62.0623 707.00
62.1275 620.00
62.1927 663.00
62.2579 650.00
62.3231 653.00
62.3883 648.00
62.4535 632.00
62.5187 666.00
62.5839 629.00
62.6491 626.00
62.7143 676.00
62.7795 667.00
62.8447 652.00
62.9099 643.00
62.9751 640.00
63.0403 597.00
63.1055 639.00
63.1707 644.00
63.2359 628.00
63.3011 676.00
63.3663 622.00
63.4315 652.00
63.4967 621.00
63.5619 621.00
63.6271 605.00
63.6923 656.00
63.7575 672.00
63.8227 580.00
63.8879 683.00
63.9531 626.00
64.0183 661.00
64.0835 622.00
64.1487 671.00
64.2139 633.00
64.2791 592.00
64.3443 647.00
64.4095 686.00
64.4747 614.00
64.5399 639.00
64.6051 665.00
64.6703 633.00
64.7355 660.00
64.8007 617.00
64.8659 637.00
64.9311 662.00
64.9963 679.00
65.0615 658.00
65.1267 669.00
65.1919 636.00
65.2571 630.00
65.3223 663.00
65.3875 676.00
65.4527 645.00
65.5179 623.00
65.5831 615.00
65.6483 646.00
65.7135 657.00
65.7787 652.00
65.8439 602.00
65.9091 677.00
65.9743 649.00
66.0395 611.00
66.1047 611.00
66.1699 681.00
66.2351 581.00
66.3003 648.00
66.3655 633.00
66.4307 602.00
66.4959 655.00
66.561 633.00
66.6263 633.00
66.6915 673.00
66.7566 594.00
66.8218 628.00
66.887 688.00
66.9522 632.00
67.0174 619.00
67.0826 670.00
67.1478 605.00
67.213 585.00
67.2782 639.00
67.3434 652.00
67.4086 638.00
67.4738 724.00
67.539 764.00
67.6042 729.00
67.6694 801.00
67.7346 931.00
67.7998 1013.00
67.865 1161.00
67.9302 1617.00
67.9954 2170.00
68.0606 2425.00
68.1258 2487.00
68.191 2863.00
68.2562 3067.00
68.3214 2771.00
68.3866 2105.00
68.4518 1865.00
68.517 1683.00
68.5822 1330.00
68.6474 1005.00
68.7126 962.00
68.7778 898.00
68.843 819.00
68.9082 739.00
68.9734 677.00
69.0386 694.00
69.1038 676.00
69.169 687.00
69.2342 649.00
69.2994 665.00
69.3646 642.00
69.4298 628.00
69.495 621.00
69.5602 700.00
69.6254 634.00
69.6906 676.00
69.7558 636.00
69.821 634.00
69.8862 608.00
69.9514 666.00
70.0166 635.00
70.0818 618.00
70.147 675.00
70.2122 616.00
70.2774 581.00
70.3426 648.00
70.4078 638.00
70.473 593.00
70.5382 647.00
70.6034 633.00
70.6686 622.00
70.7338 626.00
70.799 619.00
70.8642 623.00
70.9294 583.00
70.9946 653.00
71.0598 666.00
71.125 650.00
71.1902 612.00
71.2554 670.00
71.3205 603.00
71.3858 690.00
71.451 656.00
71.5162 645.00
71.5813 636.00
71.6465 706.00
71.7117 696.00
71.7769 697.00
71.8421 727.00
71.9073 646.00
71.9725 667.00
72.0377 719.00
72.1029 682.00
72.1681 652.00
72.2333 673.00
72.2985 681.00
72.3637 762.00
72.4289 830.00
72.4941 989.00
72.5593 1267.00
72.6245 1502.00
72.6897 1728.00
72.7549 2298.00
72.8201 2605.00
72.8853 2878.00
72.9505 2946.00
73.0157 2935.00
73.0809 2820.00
73.1461 2585.00
73.2113 2193.00
73.2765 1853.00
73.3417 1630.00
73.4069 1324.00
73.4721 1049.00
73.5373 911.00
73.6025 831.00
73.6677 774.00
73.7329 689.00
73.7981 671.00
73.8633 696.00
73.9285 696.00
73.9937 670.00
74.0589 609.00
74.1241 607.00
74.1893 616.00
74.2545 650.00
74.3197 640.00
74.3849 666.00
74.4501 653.00
74.5153 632.00
74.5805 667.00
74.6457 666.00
74.7109 643.00
74.7761 664.00
74.8413 658.00
74.9065 670.00
74.9717 605.00
75.0369 655.00
75.1021 670.00
75.1673 615.00
75.2325 655.00
75.2977 645.00
75.3629 672.00
75.4281 641.00
75.4933 658.00
75.5585 664.00
75.6237 677.00
75.6889 704.00
75.7541 647.00
75.8193 657.00
75.8845 629.00
75.9497 632.00
76.0149 655.00
76.0801 591.00
76.1452 633.00
76.2104 634.00
76.2756 637.00
76.3409 641.00
76.406 652.00
76.4712 621.00
76.5364 623.00
76.6016 653.00
76.6668 616.00
76.732 647.00
76.7972 691.00
76.8624 682.00
76.9276 729.00
76.9928 733.00
77.058 805.00
77.1232 815.00
77.1884 819.00
77.2536 1175.00
77.3188 1559.00
77.384 1906.00
77.4492 2303.00
77.5144 2655.00
77.5796 3021.00
77.6448 3027.00
77.71 2813.00
77.7752 2443.00
77.8404 2093.00
77.9056 1852.00
77.9708 1528.00
78.036 1210.00
78.1012 929.00
78.1664 818.00
78.2316 770.00
78.2968 730.00
78.362 678.00
78.4272 658.00
78.4924 674.00
78.5576 663.00
78.6228 640.00
78.688 626.00
78.7532 621.00
78.8184 651.00
78.8836 638.00
78.9488 635.00
79.014 625.00
79.0792 638.00
79.1444 664.00
79.2096 597.00
79.2748 643.00
79.34 671.00
79.4052 631.00
79.4704 672.00
79.5356 642.00
79.6008 628.00
79.666 684.00
79.7312 638.00
79.7964 629.00
79.8616 628.00
79.9268 682.00
79.992 681.00
80.0572 688.00
80.1224 628.00
80.1876 599.00
80.2528 615.00
80.318 651.00
80.3832 613.00
80.4484 632.00
80.5136 612.00
80.5788 666.00
80.644 644.00
80.7092 630.00
80.7744 620.00
80.8396 602.00
80.9048 640.00
80.9699 660.00
81.0351 706.00
81.1003 655.00
81.1655 648.00
81.2307 608.00
81.2959 631.00
81.3611 631.00
81.4263 652.00
81.4915 701.00
81.5567 703.00
81.6219 709.00
81.6871 739.00
81.7523 913.00
81.8175 1002.00
81.8827 1157.00
81.9479 1311.00
82.0131 1460.00
82.0783 1639.00
82.1435 1727.00
82.2087 1698.00
82.2739 1594.00
82.3391 1525.00
82.4043 1427.00
82.4695 1271.00
82.5347 1121.00
82.5999 983.00
82.6651 895.00
82.7303 834.00
82.7955 742.00
82.8607 703.00
82.9259 737.00
82.9911 676.00
83.0563 637.00
83.1215 604.00
83.1867 658.00
83.2519 687.00
83.3171 648.00
83.3823 647.00
83.4475 619.00
83.5127 635.00
83.5779 679.00
83.6431 645.00
83.7083 652.00
83.7735 663.00
83.8387 655.00
83.9039 638.00
83.9691 674.00
84.0343 679.00
84.0995 668.00
84.1647 656.00
84.2299 659.00
84.2951 603.00
84.3603 677.00
84.4255 635.00
84.4907 611.00
84.5559 690.00
84.6211 644.00
84.6863 641.00
84.7515 648.00
84.8167 654.00
84.8819 623.00
84.9471 610.00
85.0123 635.00
85.0775 641.00
85.1427 625.00
85.2079 682.00
85.2731 616.00
85.3383 636.00
85.4035 615.00
85.4687 675.00
85.5339 668.00
85.5991 604.00
85.6643 627.00
85.7295 628.00
85.7946 635.00
85.8598 640.00
85.925 685.00
85.9903 660.00
86.0554 683.00
86.1206 719.00
86.1858 785.00
86.251 868.00
86.3162 942.00
86.3814 1007.00
86.4466 1110.00
86.5118 1094.00
86.577 1071.00
86.6422 1068.00
86.7074 1089.00
86.7726 1162.00
86.8378 1094.00
86.903 1115.00
86.9682 1062.00
87.0334 1018.00
87.0986 954.00
87.1638 899.00
87.229 811.00
87.2942 775.00
87.3594 745.00
87.4246 695.00
87.4898 673.00
87.555 627.00
87.6202 648.00
87.6854 647.00
87.7506 616.00
87.8158 663.00
87.881 599.00
87.9462 589.00
88.0114 641.00
88.0766 651.00
88.1418 664.00
88.207 677.00
88.2722 658.00
88.3374 630.00
88.4026 622.00
88.4678 635.00
88.533 638.00
88.5982 638.00
88.6634 662.00
88.7286 655.00
88.7938 628.00
88.859 660.00
88.9242 655.00
88.9894 662.00
89.0546 681.00
89.1198 634.00
89.185 616.00
89.2502 650.00
89.3154 639.00
89.3806 669.00
89.4458 610.00
89.511 648.00
89.5762 662.00
89.6414 649.00
89.7066 635.00
89.7718 669.00
89.837 597.00
89.9022 640.00
89.9674 699.00
90.0326 649.00
90.0978 681.00
90.163 645.00
90.2282 635.00
90.2934 658.00
90.3586 745.00
90.4238 711.00
90.489 673.00
90.5542 768.00
90.6193 815.00
90.6845 835.00
90.7497 864.00
90.8149 982.00
90.8801 1155.00
90.9453 1392.00
91.0105 1525.00
91.0757 1654.00
91.1409 1753.00
91.2061 1642.00
91.2713 1541.00
91.3365 1306.00
91.4017 1225.00
91.4669 1313.00
91.5321 1154.00
91.5973 1001.00
91.6625 863.00
91.7277 864.00
91.7929 828.00
91.8581 792.00
91.9233 761.00
91.9885 732.00
92.0537 665.00
92.1189 688.00
92.1841 689.00
92.2493 663.00
92.3145 654.00
92.3797 671.00
92.4449 636.00
92.5101 677.00
92.5753 700.00
92.6405 688.00
92.7057 616.00
92.7709 658.00
92.8361 653.00
92.9013 653.00
92.9665 614.00
93.0317 694.00
93.0969 660.00
93.1621 672.00
93.2273 667.00
93.2925 664.00
93.3577 671.00
93.4229 690.00
93.4881 639.00
93.5533 675.00
93.6185 680.00
93.6837 629.00
93.7489 656.00
93.8141 623.00
93.8793 663.00
93.9445 672.00
94.0097 675.00
94.0749 634.00
94.1401 653.00
94.2053 638.00
94.2705 629.00
94.3357 731.00
94.4009 671.00
94.4661 710.00
94.5313 655.00
94.5965 669.00
94.6617 685.00
94.7269 728.00
94.7921 794.00
94.8573 747.00
94.9225 725.00
94.9877 838.00
95.0529 959.00
95.1181 1086.00
95.1833 1352.00
95.2485 1553.00
95.3137 1840.00
95.3789 2274.00
95.444 2533.00
95.5092 2727.00
95.5744 2760.00
95.6396 2714.00
95.7048 2750.00
95.77 2797.00
95.8352 2515.00
95.9004 2400.00
95.9656 2153.00
96.0308 2029.00
96.096 1837.00
96.1612 1658.00
96.2264 1409.00
96.2916 1123.00
96.3568 1116.00
96.422 983.00
96.4872 929.00
96.5524 874.00
96.6176 822.00
96.6828 765.00
96.748 766.00
96.8132 755.00
96.8784 671.00
96.9436 683.00
97.0088 677.00
97.074 651.00
97.1392 700.00
97.2044 678.00
97.2696 669.00
97.3348 666.00
97.4 667.00
97.4652 662.00
97.5304 654.00
97.5956 664.00
97.6608 649.00
97.726 630.00
97.7912 642.00
97.8564 678.00
97.9216 632.00
97.9868 645.00
98.052 664.00
98.1172 685.00
98.1824 680.00
98.2476 671.00
98.3128 677.00
98.378 691.00
98.4432 634.00
98.5084 694.00
98.5736 624.00
98.6388 685.00
98.704 667.00
98.7692 704.00
98.8344 643.00
98.8996 682.00
98.9648 706.00
99.03 699.00
99.0952 684.00
99.1604 664.00
99.2256 636.00
99.2908 643.00
99.356 642.00
99.4212 661.00
99.4864 716.00
99.5516 709.00
99.6168 656.00
99.682 657.00
99.7472 657.00
99.8124 685.00
99.8776 654.00
99.9428 654.00
100.008 640.00
100.073 665.00
100.095 665.00