File: data/xrd_creation/results/PG_0917-1.xy
10.0094 3162.00
10.0746 3117.00
10.1398 3171.00
10.205 3251.00
10.2702 3104.00
10.3354 3185.00
10.4006 3106.00
10.4658 3020.00
10.531 3136.00
10.5962 3167.00
10.6614 3132.00
10.7266 3158.00
10.7918 3053.00
10.857 3049.00
10.9222 3024.00
10.9874 3011.00
11.0526 3079.00
11.1178 3025.00
11.183 3082.00
11.2482 3059.00
11.3134 2946.00
11.3786 3024.00
11.4438 2964.00
11.509 2959.00
11.5742 2774.00
11.6394 2898.00
11.7046 2880.00
11.7698 2967.00
11.835 2846.00
11.9002 2968.00
11.9654 2855.00
12.0306 2943.00
12.0958 2997.00
12.161 2811.00
12.2262 2967.00
12.2914 2813.00
12.3566 2941.00
12.4218 2942.00
12.487 2910.00
12.5522 2930.00
12.6174 2854.00
12.6826 2829.00
12.7478 2937.00
12.813 2893.00
12.8782 2909.00
12.9434 2818.00
13.0086 2804.00
13.0738 2882.00
13.139 2885.00
13.2042 2862.00
13.2694 2858.00
13.3346 2834.00
13.3998 2740.00
13.465 2820.00
13.5302 2854.00
13.5954 2817.00
13.6606 3000.00
13.7258 2882.00
13.791 2788.00
13.8562 2831.00
13.9214 2859.00
13.9865 2846.00
14.0517 2730.00
14.1169 2787.00
14.1821 2822.00
14.2473 2786.00
14.3125 2921.00
14.3777 2894.00
14.4429 2792.00
14.5081 2859.00
14.5733 2846.00
14.6385 2788.00
14.7037 2808.00
14.7689 2801.00
14.8341 2870.00
14.8993 2821.00
14.9645 2910.00
15.0297 2879.00
15.0949 2808.00
15.1601 2817.00
15.2253 2852.00
15.2905 2759.00
15.3557 2836.00
15.4209 2836.00
15.4861 2826.00
15.5513 2958.00
15.6165 2804.00
15.6817 2953.00
15.7469 2791.00
15.8121 2928.00
15.8773 2786.00
15.9425 2815.00
16.0077 2782.00
16.0729 2902.00
16.1381 2882.00
16.2033 2784.00
16.2685 2953.00
16.3337 2727.00
16.3989 2793.00
16.4641 2835.00
16.5293 2850.00
16.5945 2852.00
16.6597 2866.00
16.7249 2871.00
16.7901 2858.00
16.8553 2807.00
16.9205 2765.00
16.9857 2804.00
17.0509 2867.00
17.1161 2894.00
17.1813 2905.00
17.2465 2944.00
17.3117 2908.00
17.3769 2929.00
17.4421 2944.00
17.5073 2917.00
17.5725 2992.00
17.6377 3020.00
17.7029 3173.00
17.7681 3272.00
17.8333 3521.00
17.8985 3330.00
17.9637 3075.00
18.0289 2915.00
18.0941 2823.00
18.1593 2889.00
18.2245 2881.00
18.2897 2864.00
18.3549 2888.00
18.4201 2817.00
18.4853 2905.00
18.5505 2911.00
18.6157 2879.00
18.6809 2932.00
18.7461 2763.00
18.8112 2828.00
18.8764 2813.00
18.9416 2976.00
19.0068 2825.00
19.072 2941.00
19.1372 2958.00
19.2024 3018.00
19.2676 3423.00
19.3328 3282.00
19.398 2992.00
19.4632 2953.00
19.5284 2906.00
19.5936 2971.00
19.6588 2827.00
19.724 2859.00
19.7892 2932.00
19.8544 2749.00
19.9196 2847.00
19.9848 2869.00
20.05 2839.00
20.1152 2770.00
20.1804 2861.00
20.2456 3057.00
20.3108 2812.00
20.376 2865.00
20.4412 2878.00
20.5064 2853.00
20.5716 2877.00
20.6368 2891.00
20.702 2824.00
20.7672 2991.00
20.8324 2830.00
20.8976 2837.00
20.9628 2867.00
21.028 2811.00
21.0932 2767.00
21.1584 2904.00
21.2236 2843.00
21.2888 2824.00
21.354 2867.00
21.4192 2938.00
21.4844 2884.00
21.5496 2861.00
21.6148 2862.00
21.68 2863.00
21.7452 2800.00
21.8104 2851.00
21.8756 2868.00
21.9408 2781.00
22.006 2906.00
22.0712 2827.00
22.1364 2885.00
22.2016 2872.00
22.2668 2824.00
22.332 2816.00
22.3972 2851.00
22.4624 2766.00
22.5276 2925.00
22.5928 2835.00
22.658 2923.00
22.7232 2842.00
22.7884 2919.00
22.8536 2813.00
22.9188 2886.00
22.984 2871.00
23.0492 2836.00
23.1144 2823.00
23.1796 2830.00
23.2448 2742.00
23.31 2848.00
23.3752 2809.00
23.4404 2793.00
23.5056 2925.00
23.5708 2830.00
23.6359 2874.00
23.7011 2903.00
23.7663 2924.00
23.8315 3055.00
23.8967 2820.00
23.9619 2820.00
24.0271 2926.00
24.0923 3009.00
24.1575 3012.00
24.2227 3135.00
24.2879 3436.00
24.3531 3640.00
24.4183 4471.00
24.4835 5211.00
24.5487 4680.00
24.6139 3703.00
24.6791 3405.00
24.7443 3516.00
24.8095 4030.00
24.8747 4696.00
24.9399 4532.00
25.0051 3700.00
25.0703 3199.00
25.1355 3060.00
25.2007 3006.00
25.2659 2917.00
25.3311 2959.00
25.3963 2869.00
25.4615 2872.00
25.5267 2918.00
25.5919 2938.00
25.6571 2958.00
25.7223 2964.00
25.7875 2785.00
25.8527 2852.00
25.9179 2856.00
25.9831 2896.00
26.0483 2922.00
26.1135 2968.00
26.1787 2877.00
26.2439 2911.00
26.3091 2848.00
26.3743 2944.00
26.4395 2955.00
26.5047 2990.00
26.5699 2884.00
26.6351 2918.00
26.7003 2929.00
26.7655 2990.00
26.8307 2989.00
26.8959 2847.00
26.9611 2877.00
27.0263 2900.00
27.0915 2896.00
27.1567 2967.00
27.2219 3013.00
27.2871 2894.00
27.3523 2965.00
27.4175 2967.00
27.4827 2936.00
27.5479 3051.00
27.6131 2969.00
27.6783 2998.00
27.7435 3144.00
27.8087 3156.00
27.8739 3157.00
27.9391 3230.00
28.0043 3264.00
28.0695 3433.00
28.1347 3453.00
28.1999 3500.00
28.2651 3889.00
28.3303 4335.00
28.3955 5085.00
28.4606 6755.00
28.5258 9902.00
28.591 15021.00
28.6562 16756.00
28.7214 12319.00
28.7866 7529.00
28.8518 5239.00
28.917 4423.00
28.9822 3929.00
29.0474 3573.00
29.1126 3415.00
29.1778 3417.00
29.243 3285.00
29.3082 3165.00
29.3734 3173.00
29.4386 3087.00
29.5038 3145.00
29.569 3092.00
29.6342 3117.00
29.6994 3038.00
29.7646 3187.00
29.8298 3006.00
29.895 3057.00
29.9602 3009.00
30.0254 3144.00
30.0906 3117.00
30.1558 2999.00
30.221 3032.00
30.2862 2958.00
30.3514 3074.00
30.4166 3112.00
30.4818 3007.00
30.547 3144.00
30.6122 3101.00
30.6774 3033.00
30.7426 3075.00
30.8078 3197.00
30.873 3203.00
30.9382 3194.00
31.0034 3137.00
31.0686 3293.00
31.1338 3286.00
31.199 3226.00
31.2642 3315.00
31.3294 3417.00
31.3946 3635.00
31.4598 4026.00
31.525 4818.00
31.5902 5118.00
31.6554 4974.00
31.7206 5163.00
31.7858 6583.00
31.851 9447.00
31.9162 13078.00
31.9814 13700.00
32.0466 10208.00
32.1118 6475.00
32.177 4767.00
32.2422 4122.00
32.3074 3804.00
32.3726 3582.00
32.4378 3355.00
32.503 3257.00
32.5682 3289.00
32.6334 3212.00
32.6986 3189.00
32.7638 3197.00
32.829 3174.00
32.8942 3100.00
32.9594 3061.00
33.0246 3176.00
33.0898 3128.00
33.1549 3235.00
33.2201 3119.00
33.2853 3113.00
33.3505 3125.00
33.4157 3114.00
33.4809 3237.00
33.5461 3104.00
33.6113 3231.00
33.6765 3106.00
33.7417 3228.00
33.8069 3150.00
33.8721 3205.00
33.9373 3129.00
34.0025 3171.00
34.0677 3167.00
34.1329 3158.00
34.1981 3233.00
34.2633 3353.00
34.3285 3266.00
34.3937 3656.00
34.4589 4215.00
34.5241 5402.00
34.5893 6495.00
34.6545 7133.00
34.7197 6057.00
34.7849 5670.00
34.8501 6025.00
34.9153 6686.00
34.9805 5871.00
35.0457 4492.00
35.1109 3747.00
35.1761 3484.00
35.2413 3393.00
35.3065 3328.00
35.3717 3366.00
35.4369 3340.00
35.5021 3393.00
35.5673 3505.00
35.6325 3881.00
35.6977 4610.00
35.7629 6333.00
35.8281 6962.00
35.8933 5590.00
35.9585 4390.00
36.0237 3729.00
36.0889 3574.00
36.1541 3512.00
36.2193 3645.00
36.2845 3775.00
36.3497 4209.00
36.4149 4157.00
36.4801 3714.00
36.5453 3425.00
36.6105 3435.00
36.6757 3384.00
36.7409 3253.00
36.8061 3221.00
36.8713 3368.00
36.9365 3543.00
37.0017 4241.00
37.0669 5698.00
37.1321 7362.00
37.1973 6154.00
37.2625 4836.00
37.3277 3597.00
37.3929 3462.00
37.4581 3325.00
37.5233 3126.00
37.5885 3106.00
37.6537 3192.00
37.7189 3124.00
37.7841 3119.00
37.8493 2980.00
37.9145 3164.00
37.9796 3103.00
38.0448 3093.00
38.11 3102.00
38.1752 3083.00
38.2404 3177.00
38.3056 3045.00
38.3708 3118.00
38.436 3043.00
38.5012 3231.00
38.5664 3037.00
38.6316 3184.00
38.6968 3215.00
38.762 3365.00
38.8272 3668.00
38.8924 3544.00
38.9576 3834.00
39.0228 4202.00
39.088 4541.00
39.1532 4157.00
39.2184 3754.00
39.2836 3182.00
39.3488 3303.00
39.414 3179.00
39.4792 3237.00
39.5444 3075.00
39.6096 3246.00
39.6748 3245.00
39.74 3108.00
39.8052 3223.00
39.8704 3211.00
39.9356 3188.00
40.0008 3177.00
40.066 3184.00
40.1312 3208.00
40.1964 3148.00
40.2616 3105.00
40.3268 3107.00
40.392 3344.00
40.4572 3341.00
40.5224 3366.00
40.5876 3317.00
40.6528 3216.00
40.718 3177.00
40.7832 3214.00
40.8484 3337.00
40.9136 3385.00
40.9788 3384.00
41.044 3574.00
41.1092 3888.00
41.1744 4485.00
41.2396 5106.00
41.3048 4936.00
41.37 4569.00
41.4352 3875.00
41.5004 3831.00
41.5656 3800.00
41.6308 3980.00
41.696 4120.00
41.7612 3779.00
41.8264 3815.00
41.8916 3964.00
41.9568 3787.00
42.022 3481.00
42.0872 3500.00
42.1524 3335.00
42.2176 3143.00
42.2828 3271.00
42.348 3184.00
42.4132 3215.00
42.4784 3038.00
42.5436 3211.00
42.6088 3194.00
42.6739 3122.00
42.7392 3137.00
42.8043 3102.00
42.8695 3162.00
42.9347 3145.00
42.9999 3132.00
43.0651 3032.00
43.1303 3108.00
43.1955 3128.00
43.2607 3123.00
43.3259 3135.00
43.3911 3209.00
43.4563 3054.00
43.5215 3117.00
43.5867 3186.00
43.6519 3147.00
43.7171 3156.00
43.7823 3139.00
43.8475 3158.00
43.9127 3094.00
43.9779 3117.00
44.0431 3173.00
44.1083 3105.00
44.1735 3268.00
44.2387 3197.00
44.3039 3094.00
44.3691 3080.00
44.4343 3098.00
44.4995 3162.00
44.5647 3058.00
44.6299 3219.00
44.6951 3153.00
44.7603 3143.00
44.8255 3306.00
44.8907 3359.00
44.9559 3392.00
45.0211 3720.00
45.0863 4063.00
45.1515 3795.00
45.2167 3856.00
45.2819 3868.00
45.3471 3863.00
45.4123 3934.00
45.4775 3703.00
45.5427 3495.00
45.6079 3470.00
45.6731 3244.00
45.7383 3315.00
45.8035 3371.00
45.8687 3421.00
45.9339 3674.00
45.9991 3945.00
46.0643 4184.00
46.1295 3926.00
46.1947 3748.00
46.2599 3598.00
46.3251 3331.00
46.3903 3332.00
46.4555 3198.00
46.5207 3102.00
46.5859 3118.00
46.6511 3081.00
46.7163 3114.00
46.7815 3151.00
46.8467 3144.00
46.9119 3107.00
46.9771 3171.00
47.0423 3102.00
47.1075 3061.00
47.1727 3172.00
47.2379 3176.00
47.3031 3092.00
47.3683 3150.00
47.4335 3143.00
47.4986 3117.00
47.5639 3053.00
47.629 3162.00
47.6942 3215.00
47.7594 3128.00
47.8246 3173.00
47.8898 3233.00
47.955 3090.00
48.0202 3153.00
48.0854 3163.00
48.1506 3200.00
48.2158 3193.00
48.281 3126.00
48.3462 3247.00
48.4114 3186.00
48.4766 3297.00
48.5418 3143.00
48.607 3165.00
48.6722 3135.00
48.7374 3228.00
48.8026 3137.00
48.8678 3103.00
48.933 3160.00
48.9982 3213.00
49.0634 3221.00
49.1286 3184.00
49.1938 3273.00
49.259 3259.00
49.3242 3361.00
49.3894 3431.00
49.4546 3603.00
49.5198 3603.00
49.585 3694.00
49.6502 3830.00
49.7154 4491.00
49.7806 5641.00
49.8458 6184.00
49.911 5500.00
49.9762 4948.00
50.0414 4107.00
50.1066 3722.00
50.1718 3411.00
50.237 3519.00
50.3022 3474.00
50.3674 3553.00
50.4326 3560.00
50.4978 3773.00
50.563 4236.00
50.6282 5338.00
50.6934 7137.00
50.7586 6653.00
50.8238 5913.00
50.889 5110.00
50.9542 4332.00
51.0194 4283.00
51.0846 4953.00
51.1498 5115.00
51.215 4744.00
51.2802 4331.00
51.3454 3856.00
51.4106 3612.00
51.4758 3450.00
51.541 3369.00
51.6062 3472.00
51.6714 3581.00
51.7366 3768.00
51.8018 3940.00
51.867 3664.00
51.9322 3624.00
51.9974 3454.00
52.0626 3317.00
52.1278 3315.00
52.193 3270.00
52.2582 3295.00
52.3233 3253.00
52.3886 3279.00
52.4537 3192.00
52.5189 3190.00
52.5841 3232.00
52.6493 3255.00
52.7145 3247.00
52.7797 3158.00
52.8449 3257.00
52.9101 3151.00
52.9753 3091.00
53.0405 3086.00
53.1057 3281.00
53.1709 3216.00
53.2361 3191.00
53.3013 3254.00
53.3665 3185.00
53.4317 3241.00
53.4969 3220.00
53.5621 3194.00
53.6273 3215.00
53.6925 3271.00
53.7577 3185.00
53.8229 3138.00
53.8881 3314.00
53.9533 3148.00
54.0185 3112.00
54.0837 3265.00
54.1489 3246.00
54.2141 3298.00
54.2793 3323.00
54.3445 3300.00
54.4097 3407.00
54.4749 3586.00
54.5401 3843.00
54.6053 4240.00
54.6705 4859.00
54.7357 4917.00
54.8009 4645.00
54.8661 4272.00
54.9313 3907.00
54.9965 3693.00
55.0617 3534.00
55.1269 3327.00
55.1921 3446.00
55.2573 3472.00
55.3225 3505.00
55.3877 3546.00
55.4529 3454.00
55.5181 3453.00
55.5833 3434.00
55.6485 3553.00
55.7137 3671.00
55.7789 4073.00
55.8441 4663.00
55.9093 5641.00
55.9745 5778.00
56.0397 5603.00
56.1049 5485.00
56.1701 5098.00
56.2353 4633.00
56.3005 4279.00
56.3657 4092.00
56.4309 4331.00
56.4961 4733.00
56.5613 4575.00
56.6265 4246.00
56.6917 4137.00
56.7569 3724.00
56.8221 3579.00
56.8873 3462.00
56.9525 3286.00
57.0177 3361.00
57.0829 3329.00
57.148 3397.00
57.2132 3293.00
57.2784 3317.00
57.3436 3386.00
57.4088 3395.00
57.474 3459.00
57.5392 3475.00
57.6044 3567.00
57.6696 3847.00
57.7348 4078.00
57.8 4559.00
57.8652 4270.00
57.9304 4094.00
57.9956 3941.00
58.0608 3569.00
58.126 3553.00
58.1912 3435.00
58.2564 3433.00
58.3216 3613.00
58.3868 3665.00
58.452 4126.00
58.5172 4313.00
58.5824 4219.00
58.6476 3983.00
58.7128 3904.00
58.778 3896.00
58.8432 4028.00
58.9084 3847.00
58.9736 3791.00
59.0388 3860.00
59.104 3579.00
59.1692 3409.00
59.2344 3481.00
59.2996 3470.00
59.3648 3450.00
59.43 3383.00
59.4952 3736.00
59.5604 4153.00
59.6256 4435.00
59.6908 4116.00
59.756 4010.00
59.8212 3745.00
59.8864 3521.00
59.9516 3410.00
60.0168 3580.00
60.082 3469.00
60.1472 3512.00
60.2124 3616.00
60.2776 3719.00
60.3428 4148.00
60.408 4683.00
60.4732 4717.00
60.5384 4707.00
60.6036 4826.00
60.6688 4722.00
60.734 4361.00
60.7992 4087.00
60.8644 3895.00
60.9296 3653.00
60.9948 3383.00
61.06 3366.00
61.1252 3386.00
61.1904 3327.00
61.2556 3294.00
61.3208 3226.00
61.386 3382.00
61.4512 3298.00
61.5164 3360.00
61.5816 3309.00
61.6468 3465.00
61.712 3448.00
61.7772 3468.00
61.8424 3667.00
61.9076 3996.00
61.9727 4342.00
62.0379 4226.00
62.1031 4001.00
62.1683 4001.00
62.2335 3794.00
62.2987 3769.00
62.3639 3791.00
62.4291 3873.00
62.4943 4134.00
62.5595 4429.00
62.6247 4375.00
62.6899 4051.00
62.7551 4091.00
62.8203 3841.00
62.8855 3559.00
62.9507 3539.00
63.0159 3490.00
63.0811 3473.00
63.1463 3493.00
63.2115 3541.00
63.2767 3628.00
63.3419 3867.00
63.4071 4118.00
63.4723 4560.00
63.5375 4553.00
63.6027 4387.00
63.6679 4244.00
63.7331 3947.00
63.7983 3733.00
63.8635 3549.00
63.9287 3474.00
63.9939 3422.00
64.0591 3348.00
64.1243 3412.00
64.1895 3280.00
64.2547 3240.00
64.3199 3317.00
64.3851 3354.00
64.4503 3301.00
64.5155 3324.00
64.5807 3391.00
64.6459 3191.00
64.7111 3502.00
64.7763 3615.00
64.8415 3779.00
64.9067 3914.00
64.9719 3875.00
65.0371 3602.00
65.1023 3639.00
65.1675 3613.00
65.2327 3614.00
65.2979 3467.00
65.3631 3813.00
65.4283 4274.00
65.4935 4839.00
65.5587 4237.00
65.6239 4158.00
65.6891 4299.00
65.7543 3847.00
65.8195 3573.00
65.8847 3706.00
65.9499 3690.00
66.0151 3839.00
66.0803 3912.00
66.1455 3807.00
66.2107 3809.00
66.2759 4006.00
66.3411 4409.00
66.4063 4588.00
66.4715 4338.00
66.5367 4226.00
66.6019 4059.00
66.6671 3876.00
66.7322 3647.00
66.7974 3510.00
66.8626 3532.00
66.9278 3359.00
66.993 3312.00
67.0582 3259.00
67.1234 3177.00
67.1886 3326.00
67.2538 3190.00
67.319 3346.00
67.3842 3154.00
67.4494 3254.00
67.5146 3259.00
67.5798 3284.00
67.645 3326.00
67.7102 3252.00
67.7754 3228.00
67.8406 3173.00
67.9058 3284.00
67.971 3245.00
68.0362 3211.00
68.1014 3179.00
68.1666 3282.00
68.2318 3185.00
68.297 3190.00
68.3622 3254.00
68.4274 3254.00
68.4926 3282.00
68.5578 3260.00
68.623 3178.00
68.6882 3261.00
68.7534 3178.00
68.8186 3332.00
68.8838 3301.00
68.949 3269.00
69.0142 3285.00
69.0794 3223.00
69.1446 3278.00
69.2098 3250.00
69.275 3295.00
69.3402 3276.00
69.4054 3304.00
69.4706 3480.00
69.5358 3466.00
69.601 3590.00
69.6662 3619.00
69.7314 3545.00
69.7966 3550.00
69.8618 3560.00
69.927 3382.00
69.9922 3281.00
70.0574 3445.00
70.1226 3346.00
70.1878 3290.00
70.253 3264.00
70.3182 3422.00
70.3834 3341.00
70.4486 3271.00
70.5138 3312.00
70.579 3331.00
70.6442 3337.00
70.7094 3349.00
70.7746 3251.00
70.8398 3271.00
70.905 3313.00
70.9702 3313.00
71.0354 3295.00
71.1006 3290.00
71.1658 3333.00
71.231 3173.00
71.2962 3244.00
71.3614 3331.00
71.4266 3240.00
71.4918 3293.00
71.5569 3384.00
71.6221 3433.00
71.6873 3735.00
71.7525 3892.00
71.8177 4166.00
71.8829 4075.00
71.9481 4208.00
72.0133 3927.00
72.0785 3768.00
72.1437 3664.00
72.2089 3508.00
72.2741 3458.00
72.3393 3341.00
72.4045 3461.00
72.4697 3327.00
72.5349 3386.00
72.6001 3417.00
72.6653 3462.00
72.7305 3426.00
72.7957 3606.00
72.8609 3652.00
72.9261 3518.00
72.9913 3473.00
73.0565 3464.00
73.1217 3406.00
73.1869 3535.00
73.2521 3467.00
73.3173 3565.00
73.3825 3474.00
73.4477 3538.00
73.5129 3464.00
73.5781 3455.00
73.6433 3313.00
73.7085 3316.00
73.7737 3246.00
73.8389 3271.00
73.9041 3350.00
73.9693 3273.00
74.0345 3259.00
74.0997 3293.00
74.1649 3352.00
74.2301 3374.00
74.2953 3457.00
74.3605 3346.00
74.4257 3351.00
74.4909 3254.00
74.5561 3186.00
74.6213 3214.00
74.6865 3257.00
74.7517 3297.00
74.8169 3279.00
74.8821 3297.00
74.9473 3282.00
75.0125 3311.00
75.0777 3407.00
75.1429 3223.00
75.2081 3382.00
75.2733 3380.00
75.3385 3484.00
75.4037 3586.00
75.4689 3574.00
75.5341 3552.00
75.5993 3545.00
75.6645 3590.00
75.7297 3741.00
75.7949 3904.00
75.8601 3879.00
75.9253 3839.00
75.9905 3830.00
76.0557 3728.00
76.1209 3651.00
76.186 3483.00
76.2513 3375.00
76.3165 3367.00
76.3816 3398.00
76.4468 3292.00
76.512 3304.00
76.5772 3369.00
76.6424 3336.00
76.7076 3304.00
76.7728 3386.00
76.838 3366.00
76.9032 3447.00
76.9684 3453.00
77.0336 3482.00
77.0988 3450.00
77.164 3686.00
77.2292 3679.00
77.2944 3497.00
77.3596 3635.00
77.4248 3653.00
77.49 3672.00
77.5552 3649.00
77.6204 3568.00
77.6856 3555.00
77.7508 3577.00
77.816 3552.00
77.8812 3499.00
77.9464 3444.00
78.0116 3519.00
78.0768 3473.00
78.142 3579.00
78.2072 3550.00
78.2724 3562.00
78.3376 3554.00
78.4028 3489.00
78.468 3500.00
78.5332 3421.00
78.5984 3521.00
78.6636 3449.00
78.7288 3549.00
78.794 3569.00
78.8592 3612.00
78.9244 3557.00
78.9896 3423.00
79.0548 3316.00
79.12 3438.00
79.1852 3312.00
79.2504 3434.00
79.3156 3379.00
79.3808 3328.00
79.446 3359.00
79.5112 3486.00
79.5764 3462.00
79.6416 3755.00
79.7068 3754.00
79.772 3597.00
79.8372 3510.00
79.9024 3421.00
79.9676 3438.00
80.0328 3229.00
80.098 3443.00
80.1632 3281.00
80.2284 3334.00
80.2936 3197.00
80.3588 3243.00
80.424 3241.00
80.4892 3288.00
80.5544 3310.00
80.6196 3320.00
80.6848 3201.00
80.75 3384.00
80.8152 3390.00
80.8804 3277.00
80.9456 3308.00
81.0108 3398.00
81.076 3276.00
81.1412 3377.00
81.2063 3373.00
81.2715 3459.00
81.3367 3378.00
81.4019 3363.00
81.4671 3247.00
81.5323 3341.00
81.5975 3265.00
81.6627 3393.00
81.7279 3332.00
81.7931 3401.00
81.8583 3352.00
81.9235 3354.00
81.9887 3417.00
82.0539 3317.00
82.1191 3473.00
82.1843 3513.00
82.2495 3527.00
82.3147 3760.00
82.3799 3606.00
82.4451 3670.00
82.5103 3450.00
82.5755 3636.00
82.6407 3408.00
82.7059 3363.00
82.7711 3382.00
82.8363 3401.00
82.9015 3401.00
82.9667 3409.00
83.0319 3453.00
83.0971 3564.00
83.1623 3454.00
83.2275 3526.00
83.2927 3473.00
83.3579 3602.00
83.4231 3648.00
83.4883 3585.00
83.5535 3560.00
83.6187 3600.00
83.6839 3502.00
83.7491 3669.00
83.8143 3591.00
83.8795 3732.00
83.9447 3703.00
84.0099 3558.00
84.0751 3736.00
84.1403 3725.00
84.2055 3639.00
84.2707 3468.00
84.3359 3469.00
84.4011 3583.00
84.4663 3548.00
84.5315 3528.00
84.5967 3565.00
84.6619 3702.00
84.7271 3842.00
84.7923 3763.00
84.8575 3668.00
84.9227 3746.00
84.9879 3729.00
85.0531 3726.00
85.1183 3611.00
85.1835 3584.00
85.2487 3590.00
85.3139 3414.00
85.3791 3401.00
85.4443 3389.00
85.5095 3381.00
85.5747 3513.00
85.6399 3581.00
85.7051 3519.00
85.7703 3592.00
85.8354 3458.00
85.9006 3455.00
85.9659 3376.00
86.031 3397.00
86.0962 3343.00
86.1614 3315.00
86.2266 3292.00
86.2918 3346.00
86.357 3313.00
86.4222 3480.00
86.4874 3292.00
86.5526 3388.00
86.6178 3403.00
86.683 3387.00
86.7482 3533.00
86.8134 3482.00
86.8786 3493.00
86.9438 3455.00
87.009 3404.00
87.0742 3414.00
87.1394 3361.00
87.2046 3309.00
87.2698 3448.00
87.335 3373.00
87.4002 3302.00
87.4654 3351.00
87.5306 3339.00
87.5958 3071.00
87.661 3404.00
87.7262 3463.00
87.7914 3476.00
87.8566 3344.00
87.9218 3263.00
87.987 3282.00
88.0522 3395.00
88.1174 3484.00
88.1826 3532.00
88.2478 3663.00
88.313 3665.00
88.3782 3448.00
88.4434 3559.00
88.5086 3636.00
88.5738 3537.00
88.639 3589.00
88.7042 3406.00
88.7694 3478.00
88.8346 3402.00
88.8998 3598.00
88.965 3660.00
89.0302 3858.00
89.0954 3742.00
89.1606 3624.00
89.2258 3721.00
89.291 3740.00
89.3562 3803.00
89.4214 3824.00
89.4866 3694.00
89.5518 3675.00
89.617 3599.00
89.6822 3622.00
89.7474 3449.00
89.8126 3533.00
89.8778 3487.00
89.943 3505.00
90.0082 3474.00
90.0734 3460.00
90.1386 3577.00
90.2038 3567.00
90.269 3639.00
90.3342 3565.00
90.3994 3543.00
90.4646 3580.00
90.5298 3724.00
90.595 3767.00
90.6601 3832.00
90.7253 3629.00
90.7905 3663.00
90.8557 3676.00
90.9209 3665.00
90.9861 3528.00
91.0513 3548.00
91.1165 3553.00
91.1817 3578.00
91.2469 3296.00
91.3121 3410.00
91.3773 3512.00
91.4425 3436.00
91.5077 3480.00
91.5729 3500.00
91.6381 3375.00
91.7033 3441.00
91.7685 3418.00
91.8337 3420.00
91.8989 3395.00
91.9641 3441.00
92.0293 3427.00
92.0945 3466.00
92.1597 3475.00
92.2249 3412.00
92.2901 3435.00
92.3553 3564.00
92.4205 3400.00
92.4857 3415.00
92.5509 3475.00
92.6161 3332.00
92.6813 3394.00
92.7465 3404.00
92.8117 3324.00
92.8769 3240.00
92.9421 3342.00
93.0073 3348.00
93.0725 3349.00
93.1377 3284.00
93.2029 3330.00
93.2681 3313.00
93.3333 3321.00
93.3985 3369.00
93.4637 3318.00
93.5289 3279.00
93.5941 3349.00
93.6593 3242.00
93.7245 3344.00
93.7897 3331.00
93.8549 3396.00
93.9201 3304.00
93.9853 3361.00
94.0505 3562.00
94.1157 3457.00
94.1809 3611.00
94.2461 3757.00
94.3113 3772.00
94.3765 3621.00
94.4417 3678.00
94.5069 3649.00
94.5721 3805.00
94.6373 3645.00
94.7025 3664.00
94.7677 3531.00
94.8329 3574.00
94.8981 3548.00
94.9633 3418.00
95.0285 3505.00
95.0937 3518.00
95.1589 3374.00
95.2241 3378.00
95.2893 3362.00
95.3545 3507.00
95.4197 3416.00
95.4848 3367.00
95.55 3400.00
95.6153 3547.00
95.6804 3546.00
95.7456 3540.00
95.8108 3500.00
95.876 3680.00
95.9412 3705.00
96.0064 3757.00
96.0716 3758.00
96.1368 3618.00
96.202 3599.00
96.2672 3674.00
96.3324 3547.00
96.3976 3631.00
96.4628 3533.00
96.528 3391.00
96.5932 3402.00
96.6584 3364.00
96.7236 3451.00
96.7888 3486.00
96.854 3610.00
96.9192 3614.00
96.9844 3720.00
97.0496 3744.00
97.1148 3671.00
97.18 3615.00
97.2452 3717.00
97.3104 3791.00
97.3756 3841.00
97.4408 3934.00
97.506 3870.00
97.5712 3887.00
97.6364 3713.00
97.7016 3822.00
97.7668 3885.00
97.832 3824.00
97.8972 3902.00
97.9624 3689.00
98.0276 3736.00
98.0928 3450.00
98.158 3764.00
98.2232 3512.00
98.2884 3542.00
98.3536 3540.00
98.4188 3521.00
98.484 3366.00
98.5492 3490.00
98.6144 3400.00
98.6796 3519.00
98.7448 3564.00
98.81 3645.00
98.8752 3530.00
98.9404 3694.00
99.0056 3706.00
99.0708 3559.00
99.136 3604.00
99.2012 3708.00
99.2664 3562.00
99.3316 3591.00
99.3968 3615.00
99.462 3692.00
99.5272 3648.00
99.5924 3669.00
99.6576 3704.00
99.7228 3743.00
99.788 3702.00
99.8532 3675.00
99.9184 3609.00
99.9836 3611.00
99.9944 3631.00