File: data/xrd_creation/results/PG_0918-1.xy
10.0094 2742.00
10.0746 2811.00
10.1398 2744.00
10.205 2709.00
10.2702 2641.00
10.3354 2689.00
10.4006 2690.00
10.4658 2662.00
10.531 2666.00
10.5962 2629.00
10.6614 2600.00
10.7266 2626.00
10.7918 2704.00
10.857 2572.00
10.9222 2630.00
10.9874 2581.00
11.0526 2648.00
11.1178 2487.00
11.183 2548.00
11.2482 2551.00
11.3134 2498.00
11.3786 2451.00
11.4438 2425.00
11.509 2441.00
11.5742 2460.00
11.6394 2396.00
11.7046 2446.00
11.7698 2462.00
11.835 2464.00
11.9002 2376.00
11.9654 2472.00
12.0306 2380.00
12.0958 2366.00
12.161 2309.00
12.2262 2415.00
12.2914 2403.00
12.3566 2328.00
12.4218 2309.00
12.487 2311.00
12.5522 2323.00
12.6174 2234.00
12.6826 2363.00
12.7478 2259.00
12.813 2367.00
12.8782 2348.00
12.9434 2323.00
13.0086 2243.00
13.0738 2335.00
13.139 2217.00
13.2042 2196.00
13.2694 2288.00
13.3346 2289.00
13.3998 2241.00
13.465 2242.00
13.5302 2307.00
13.5954 2232.00
13.6606 2240.00
13.7258 2202.00
13.791 2276.00
13.8562 2178.00
13.9214 2174.00
13.9865 2180.00
14.0517 2255.00
14.1169 2179.00
14.1821 2197.00
14.2473 2245.00
14.3125 2113.00
14.3777 2213.00
14.4429 2227.00
14.5081 2162.00
14.5733 2265.00
14.6385 2211.00
14.7037 2213.00
14.7689 2238.00
14.8341 2269.00
14.8993 2147.00
14.9645 2165.00
15.0297 2195.00
15.0949 2163.00
15.1601 2144.00
15.2253 2120.00
15.2905 2129.00
15.3557 2162.00
15.4209 2159.00
15.4861 2149.00
15.5513 2209.00
15.6165 2135.00
15.6817 2129.00
15.7469 2128.00
15.8121 2099.00
15.8773 2214.00
15.9425 2220.00
16.0077 2168.00
16.0729 2109.00
16.1381 2136.00
16.2033 2119.00
16.2685 2203.00
16.3337 2146.00
16.3989 2126.00
16.4641 2109.00
16.5293 2081.00
16.5945 2210.00
16.6597 2034.00
16.7249 2072.00
16.7901 2208.00
16.8553 2184.00
16.9205 2087.00
16.9857 2099.00
17.0509 2243.00
17.1161 2110.00
17.1813 2189.00
17.2465 2117.00
17.3117 2090.00
17.3769 2062.00
17.4421 2126.00
17.5073 2145.00
17.5725 2164.00
17.6377 2157.00
17.7029 2055.00
17.7681 2109.00
17.8333 2134.00
17.8985 2180.00
17.9637 2164.00
18.0289 2149.00
18.0941 2093.00
18.1593 2178.00
18.2245 2136.00
18.2897 2068.00
18.3549 2096.00
18.4201 2149.00
18.4853 2068.00
18.5505 2133.00
18.6157 2037.00
18.6809 2053.00
18.7461 2066.00
18.8112 2068.00
18.8764 2035.00
18.9416 2135.00
19.0068 2251.00
19.072 2149.00
19.1372 2127.00
19.2024 2163.00
19.2676 2191.00
19.3328 2236.00
19.398 2107.00
19.4632 2000.00
19.5284 1998.00
19.5936 2068.00
19.6588 2078.00
19.724 2014.00
19.7892 2007.00
19.8544 2115.00
19.9196 2007.00
19.9848 2040.00
20.05 2023.00
20.1152 2005.00
20.1804 1993.00
20.2456 2018.00
20.3108 2029.00
20.376 2037.00
20.4412 1980.00
20.5064 2096.00
20.5716 2043.00
20.6368 2053.00
20.702 2053.00
20.7672 2060.00
20.8324 1998.00
20.8976 2039.00
20.9628 1998.00
21.028 2067.00
21.0932 2027.00
21.1584 1999.00
21.2236 2025.00
21.2888 2019.00
21.354 2096.00
21.4192 2107.00
21.4844 2262.00
21.5496 2330.00
21.6148 2359.00
21.68 2415.00
21.7452 2686.00
21.8104 2774.00
21.8756 2256.00
21.9408 2125.00
22.006 1999.00
22.0712 2023.00
22.1364 2111.00
22.2016 1997.00
22.2668 1947.00
22.332 1910.00
22.3972 2044.00
22.4624 2003.00
22.5276 2043.00
22.5928 1917.00
22.658 2014.00
22.7232 2044.00
22.7884 1920.00
22.8536 1953.00
22.9188 2037.00
22.984 2033.00
23.0492 2026.00
23.1144 1974.00
23.1796 1954.00
23.2448 1979.00
23.31 2038.00
23.3752 2060.00
23.4404 1996.00
23.5056 2029.00
23.5708 2021.00
23.6359 1961.00
23.7011 2023.00
23.7663 1928.00
23.8315 2076.00
23.8967 1936.00
23.9619 1937.00
24.0271 1971.00
24.0923 1964.00
24.1575 1975.00
24.2227 1913.00
24.2879 1988.00
24.3531 2019.00
24.4183 2075.00
24.4835 1958.00
24.5487 1920.00
24.6139 1983.00
24.6791 2053.00
24.7443 2037.00
24.8095 1926.00
24.8747 1977.00
24.9399 1861.00
25.0051 1901.00
25.0703 1958.00
25.1355 2020.00
25.2007 1986.00
25.2659 1930.00
25.3311 1975.00
25.3963 1994.00
25.4615 1965.00
25.5267 2002.00
25.5919 1949.00
25.6571 2052.00
25.7223 1968.00
25.7875 1955.00
25.8527 1980.00
25.9179 1961.00
25.9831 2016.00
26.0483 1953.00
26.1135 1982.00
26.1787 1863.00
26.2439 1935.00
26.3091 1937.00
26.3743 2021.00
26.4395 1991.00
26.5047 1997.00
26.5699 1965.00
26.6351 2000.00
26.7003 1920.00
26.7655 1912.00
26.8307 1976.00
26.8959 1924.00
26.9611 1977.00
27.0263 1882.00
27.0915 1960.00
27.1567 1918.00
27.2219 1989.00
27.2871 1972.00
27.3523 1956.00
27.4175 2006.00
27.4827 1878.00
27.5479 1931.00
27.6131 2008.00
27.6783 1969.00
27.7435 2011.00
27.8087 1922.00
27.8739 2051.00
27.9391 1944.00
28.0043 1923.00
28.0695 1997.00
28.1347 1902.00
28.1999 1842.00
28.2651 1910.00
28.3303 2069.00
28.3955 1988.00
28.4606 1973.00
28.5258 1991.00
28.591 1915.00
28.6562 1898.00
28.7214 1943.00
28.7866 1931.00
28.8518 1885.00
28.917 2007.00
28.9822 1903.00
29.0474 1952.00
29.1126 1873.00
29.1778 1933.00
29.243 2069.00
29.3082 1900.00
29.3734 1935.00
29.4386 1915.00
29.5038 1939.00
29.569 2049.00
29.6342 1981.00
29.6994 2002.00
29.7646 2046.00
29.8298 2043.00
29.895 1970.00
29.9602 1996.00
30.0254 1976.00
30.0906 2030.00
30.1558 2115.00
30.221 2134.00
30.2862 2177.00
30.3514 2192.00
30.4166 2369.00
30.4818 2665.00
30.547 3401.00
30.6122 4308.00
30.6774 5298.00
30.7426 6414.00
30.8078 8605.00
30.873 11106.00
30.9382 7524.00
31.0034 4126.00
31.0686 2896.00
31.1338 2361.00
31.199 2328.00
31.2642 2242.00
31.3294 2280.00
31.3946 2290.00
31.4598 2388.00
31.525 2585.00
31.5902 2666.00
31.6554 2259.00
31.7206 2107.00
31.7858 2056.00
31.851 1973.00
31.9162 1997.00
31.9814 1989.00
32.0466 2016.00
32.1118 1952.00
32.177 2021.00
32.2422 1972.00
32.3074 2014.00
32.3726 1945.00
32.4378 1925.00
32.503 1956.00
32.5682 2022.00
32.6334 1965.00
32.6986 1980.00
32.7638 1889.00
32.829 2036.00
32.8942 2084.00
32.9594 1987.00
33.0246 2042.00
33.0898 2002.00
33.1549 1983.00
33.2201 1999.00
33.2853 1925.00
33.3505 2067.00
33.4157 2112.00
33.4809 1990.00
33.5461 1998.00
33.6113 1989.00
33.6765 2032.00
33.7417 1935.00
33.8069 1898.00
33.8721 1921.00
33.9373 1992.00
34.0025 1924.00
34.0677 2022.00
34.1329 2004.00
34.1981 1935.00
34.2633 2039.00
34.3285 1941.00
34.3937 1955.00
34.4589 1911.00
34.5241 1874.00
34.5893 2030.00
34.6545 1922.00
34.7197 2008.00
34.7849 2039.00
34.8501 1981.00
34.9153 1947.00
34.9805 1956.00
35.0457 2032.00
35.1109 2024.00
35.1761 1924.00
35.2413 1925.00
35.3065 2197.00
35.3717 2262.00
35.4369 2433.00
35.5021 2724.00
35.5673 3014.00
35.6325 3418.00
35.6977 4203.00
35.7629 4538.00
35.8281 3503.00
35.8933 2594.00
35.9585 2280.00
36.0237 2085.00
36.0889 2090.00
36.1541 2055.00
36.2193 2056.00
36.2845 1936.00
36.3497 1917.00
36.4149 1983.00
36.4801 1985.00
36.5453 1997.00
36.6105 1955.00
36.6757 2160.00
36.7409 2116.00
36.8061 2240.00
36.8713 2365.00
36.9365 2644.00
37.0017 2941.00
37.0669 3401.00
37.1321 3872.00
37.1973 3307.00
37.2625 2674.00
37.3277 2201.00
37.3929 2118.00
37.4581 2029.00
37.5233 1979.00
37.5885 2038.00
37.6537 2037.00
37.7189 1984.00
37.7841 2093.00
37.8493 2187.00
37.9145 2386.00
37.9796 2360.00
38.0448 2366.00
38.11 2143.00
38.1752 2007.00
38.2404 1955.00
38.3056 1945.00
38.3708 1948.00
38.436 2057.00
38.5012 2001.00
38.5664 1975.00
38.6316 2016.00
38.6968 2055.00
38.762 2004.00
38.8272 2175.00
38.8924 2138.00
38.9576 2046.00
39.0228 2042.00
39.088 1894.00
39.1532 1919.00
39.2184 1951.00
39.2836 1959.00
39.3488 1939.00
39.414 1955.00
39.4792 1900.00
39.5444 2058.00
39.6096 1949.00
39.6748 2002.00
39.74 1957.00
39.8052 1932.00
39.8704 1883.00
39.9356 2004.00
40.0008 2025.00
40.066 2056.00
40.1312 2032.00
40.1964 2050.00
40.2616 1952.00
40.3268 1937.00
40.392 1969.00
40.4572 1956.00
40.5224 1966.00
40.5876 1944.00
40.6528 1929.00
40.718 1908.00
40.7832 2016.00
40.8484 1839.00
40.9136 1952.00
40.9788 1964.00
41.044 1930.00
41.1092 1918.00
41.1744 1936.00
41.2396 1943.00
41.3048 1943.00
41.37 1926.00
41.4352 2007.00
41.5004 2006.00
41.5656 1957.00
41.6308 1995.00
41.696 1981.00
41.7612 1969.00
41.8264 2014.00
41.8916 1994.00
41.9568 2173.00
42.022 2196.00
42.0872 2324.00
42.1524 2304.00
42.2176 2274.00
42.2828 2164.00
42.348 1952.00
42.4132 1995.00
42.4784 1911.00
42.5436 1927.00
42.6088 2000.00
42.6739 1965.00
42.7392 1954.00
42.8043 1956.00
42.8695 1947.00
42.9347 1852.00
42.9999 1997.00
43.0651 1927.00
43.1303 1922.00
43.1955 1985.00
43.2607 1936.00
43.3259 1993.00
43.3911 1970.00
43.4563 1956.00
43.5215 1897.00
43.5867 1987.00
43.6519 1998.00
43.7171 1906.00
43.7823 1926.00
43.8475 2009.00
43.9127 1865.00
43.9779 2011.00
44.0431 2102.00
44.1083 2096.00
44.1735 2054.00
44.2387 1972.00
44.3039 2036.00
44.3691 1887.00
44.4343 1955.00
44.4995 1958.00
44.5647 1996.00
44.6299 1913.00
44.6951 1978.00
44.7603 1993.00
44.8255 1973.00
44.8907 2038.00
44.9559 2175.00
45.0211 2227.00
45.0863 2377.00
45.1515 2210.00
45.2167 2105.00
45.2819 2077.00
45.3471 1932.00
45.4123 1949.00
45.4775 1962.00
45.5427 2039.00
45.6079 2065.00
45.6731 2160.00
45.7383 2162.00
45.8035 2198.00
45.8687 2485.00
45.9339 2668.00
45.9991 2581.00
46.0643 2439.00
46.1295 2183.00
46.1947 2064.00
46.2599 2032.00
46.3251 1911.00
46.3903 2002.00
46.4555 1936.00
46.5207 1922.00
46.5859 2001.00
46.6511 1956.00
46.7163 1925.00
46.7815 1918.00
46.8467 1919.00
46.9119 1938.00
46.9771 2004.00
47.0423 1943.00
47.1075 2005.00
47.1727 2030.00
47.2379 1949.00
47.3031 1969.00
47.3683 1952.00
47.4335 1898.00
47.4986 1971.00
47.5639 1927.00
47.629 2006.00
47.6942 1968.00
47.7594 1940.00
47.8246 1909.00
47.8898 1886.00
47.955 1930.00
48.0202 1916.00
48.0854 1961.00
48.1506 1946.00
48.2158 2028.00
48.281 1967.00
48.3462 2021.00
48.4114 1939.00
48.4766 1908.00
48.5418 1993.00
48.607 1934.00
48.6722 1944.00
48.7374 1911.00
48.8026 1903.00
48.8678 2024.00
48.933 1995.00
48.9982 1929.00
49.0634 1988.00
49.1286 1992.00
49.1938 2073.00
49.259 2085.00
49.3242 2110.00
49.3894 2095.00
49.4546 2210.00
49.5198 2219.00
49.585 2184.00
49.6502 2113.00
49.7154 2076.00
49.7806 2015.00
49.8458 2070.00
49.911 1957.00
49.9762 1967.00
50.0414 2010.00
50.1066 1884.00
50.1718 2034.00
50.237 2067.00
50.3022 2042.00
50.3674 1985.00
50.4326 1960.00
50.4978 2021.00
50.563 2035.00
50.6282 2130.00
50.6934 2008.00
50.7586 2182.00
50.8238 2105.00
50.889 2322.00
50.9542 2411.00
51.0194 2755.00
51.0846 3177.00
51.1498 3803.00
51.215 4531.00
51.2802 5702.00
51.3454 4211.00
51.4106 4001.00
51.4758 2842.00
51.541 2382.00
51.6062 2213.00
51.6714 2204.00
51.7366 2109.00
51.8018 2000.00
51.867 2074.00
51.9322 2073.00
51.9974 1943.00
52.0626 2029.00
52.1278 2042.00
52.193 2020.00
52.2582 2044.00
52.3233 2059.00
52.3886 2078.00
52.4537 1916.00
52.5189 2015.00
52.5841 1996.00
52.6493 1942.00
52.7145 2042.00
52.7797 2028.00
52.8449 2128.00
52.9101 2144.00
52.9753 2253.00
53.0405 2112.00
53.1057 2054.00
53.1709 2065.00
53.2361 2072.00
53.3013 2046.00
53.3665 1980.00
53.4317 2061.00
53.4969 1940.00
53.5621 1923.00
53.6273 1993.00
53.6925 1963.00
53.7577 2079.00
53.8229 2070.00
53.8881 1913.00
53.9533 1981.00
54.0185 1973.00
54.0837 1993.00
54.1489 2032.00
54.2141 2039.00
54.2793 2019.00
54.3445 1956.00
54.4097 2094.00
54.4749 2047.00
54.5401 2022.00
54.6053 2077.00
54.6705 2021.00
54.7357 2043.00
54.8009 2014.00
54.8661 1989.00
54.9313 1966.00
54.9965 1910.00
55.0617 2042.00
55.1269 2011.00
55.1921 2036.00
55.2573 2076.00
55.3225 2049.00
55.3877 2048.00
55.4529 2073.00
55.5181 2039.00
55.5833 1969.00
55.6485 1992.00
55.7137 2086.00
55.7789 2077.00
55.8441 2174.00
55.9093 2321.00
55.9745 2284.00
56.0397 2355.00
56.1049 2321.00
56.1701 2385.00
56.2353 2587.00
56.3005 2250.00
56.3657 2322.00
56.4309 2140.00
56.4961 2037.00
56.5613 2044.00
56.6265 2083.00
56.6917 2074.00
56.7569 1998.00
56.8221 1986.00
56.8873 2040.00
56.9525 2097.00
57.0177 2068.00
57.0829 2017.00
57.148 1973.00
57.2132 1990.00
57.2784 2039.00
57.3436 1989.00
57.4088 1979.00
57.474 2027.00
57.5392 2012.00
57.6044 2047.00
57.6696 2098.00
57.7348 2184.00
57.8 2053.00
57.8652 1995.00
57.9304 2125.00
57.9956 2079.00
58.0608 2018.00
58.126 2062.00
58.1912 1988.00
58.2564 2010.00
58.3216 2117.00
58.3868 1957.00
58.452 2048.00
58.5172 2055.00
58.5824 2085.00
58.6476 2158.00
58.7128 2024.00
58.778 2048.00
58.8432 2052.00
58.9084 2016.00
58.9736 2052.00
59.0388 2067.00
59.104 2084.00
59.1692 2257.00
59.2344 2269.00
59.2996 2439.00
59.3648 2668.00
59.43 2469.00
59.4952 2618.00
59.5604 2742.00
59.6256 2695.00
59.6908 2522.00
59.756 2492.00
59.8212 2331.00
59.8864 2189.00
59.9516 2145.00
60.0168 2048.00
60.082 2144.00
60.1472 2102.00
60.2124 2080.00
60.2776 2093.00
60.3428 2066.00
60.408 2133.00
60.4732 2258.00
60.5384 2312.00
60.6036 2495.00
60.6688 2642.00
60.734 2997.00
60.7992 3500.00
60.8644 4209.00
60.9296 4692.00
60.9948 3443.00
61.06 3394.00
61.1252 2969.00
61.1904 2394.00
61.2556 2284.00
61.3208 2188.00
61.386 2120.00
61.4512 2144.00
61.5164 2115.00
61.5816 2110.00
61.6468 2062.00
61.712 2136.00
61.7772 2069.00
61.8424 2096.00
61.9076 2074.00
61.9727 2148.00
62.0379 2139.00
62.1031 2095.00
62.1683 2171.00
62.2335 2231.00
62.2987 2323.00
62.3639 2467.00
62.4291 2618.00
62.4943 2359.00
62.5595 2304.00
62.6247 2352.00
62.6899 2179.00
62.7551 2103.00
62.8203 2118.00
62.8855 2187.00
62.9507 2136.00
63.0159 2056.00
63.0811 2064.00
63.1463 2073.00
63.2115 2049.00
63.2767 2174.00
63.3419 2077.00
63.4071 2022.00
63.4723 2080.00
63.5375 2035.00
63.6027 2137.00
63.6679 2176.00
63.7331 2221.00
63.7983 2308.00
63.8635 2507.00
63.9287 2544.00
63.9939 2378.00
64.0591 2315.00
64.1243 2234.00
64.1895 2186.00
64.2547 2172.00
64.3199 2091.00
64.3851 2050.00
64.4503 2176.00
64.5155 2089.00
64.5807 2067.00
64.6459 2113.00
64.7111 2027.00
64.7763 2094.00
64.8415 2115.00
64.9067 2148.00
64.9719 2071.00
65.0371 2107.00
65.1023 2200.00
65.1675 2253.00
65.2327 2408.00
65.2979 2516.00
65.3631 2657.00
65.4283 2955.00
65.4935 2906.00
65.5587 2635.00
65.6239 2509.00
65.6891 2466.00
65.7543 2294.00
65.8195 2199.00
65.8847 2052.00
65.9499 2057.00
66.0151 2085.00
66.0803 2057.00
66.1455 2154.00
66.2107 2058.00
66.2759 2116.00
66.3411 2085.00
66.4063 2097.00
66.4715 2091.00
66.5367 2171.00
66.6019 2069.00
66.6671 2103.00
66.7322 2073.00
66.7974 2160.00
66.8626 2248.00
66.9278 2188.00
66.993 2188.00
67.0582 2192.00
67.1234 2054.00
67.1886 2118.00
67.2538 2066.00
67.319 2091.00
67.3842 2069.00
67.4494 2053.00
67.5146 2131.00
67.5798 2089.00
67.645 2060.00
67.7102 2081.00
67.7754 2082.00
67.8406 2072.00
67.9058 2096.00
67.971 2195.00
68.0362 2241.00
68.1014 2121.00
68.1666 2152.00
68.2318 2439.00
68.297 2379.00
68.3622 2217.00
68.4274 2131.00
68.4926 2162.00
68.5578 2133.00
68.623 2128.00
68.6882 2132.00
68.7534 2122.00
68.8186 2196.00
68.8838 2056.00
68.949 2152.00
69.0142 2111.00
69.0794 2153.00
69.1446 2158.00
69.2098 2168.00
69.275 2151.00
69.3402 2132.00
69.4054 2093.00
69.4706 2131.00
69.5358 2207.00
69.601 2184.00
69.6662 2185.00
69.7314 2194.00
69.7966 2095.00
69.8618 2156.00
69.927 2226.00
69.9922 2206.00
70.0574 2239.00
70.1226 2137.00
70.1878 2097.00
70.253 2067.00
70.3182 2075.00
70.3834 2234.00
70.4486 2063.00
70.5138 2149.00
70.579 2026.00
70.6442 2089.00
70.7094 2099.00
70.7746 2079.00
70.8398 2043.00
70.905 2106.00
70.9702 2030.00
71.0354 2168.00
71.1006 2103.00
71.1658 2047.00
71.231 2095.00
71.2962 2096.00
71.3614 2145.00
71.4266 2162.00
71.4918 2075.00
71.5569 2146.00
71.6221 2093.00
71.6873 2127.00
71.7525 2129.00
71.8177 2128.00
71.8829 2073.00
71.9481 2186.00
72.0133 2093.00
72.0785 2202.00
72.1437 2132.00
72.2089 2161.00
72.2741 2167.00
72.3393 2127.00
72.4045 2115.00
72.4697 2159.00
72.5349 2023.00
72.6001 2164.00
72.6653 2116.00
72.7305 2113.00
72.7957 2186.00
72.8609 2099.00
72.9261 2124.00
72.9913 2099.00
73.0565 2223.00
73.1217 2180.00
73.1869 2102.00
73.2521 2141.00
73.3173 2098.00
73.3825 2134.00
73.4477 2134.00
73.5129 2187.00
73.5781 2192.00
73.6433 2209.00
73.7085 2204.00
73.7737 2351.00
73.8389 2248.00
73.9041 2355.00
73.9693 2166.00
74.0345 2204.00
74.0997 2161.00
74.1649 2185.00
74.2301 2197.00
74.2953 2241.00
74.3605 2204.00
74.4257 2108.00
74.4909 2266.00
74.5561 2191.00
74.6213 2174.00
74.6865 2105.00
74.7517 2185.00
74.8169 2215.00
74.8821 2110.00
74.9473 2204.00
75.0125 2206.00
75.0777 2206.00
75.1429 2276.00
75.2081 2405.00
75.2733 2412.00
75.3385 2390.00
75.4037 2321.00
75.4689 2353.00
75.5341 2293.00
75.5993 2169.00
75.6645 2163.00
75.7297 2150.00
75.7949 2125.00
75.8601 2125.00
75.9253 2157.00
75.9905 2234.00
76.0557 2137.00
76.1209 2155.00
76.186 2139.00
76.2513 2248.00
76.3165 2086.00
76.3816 2309.00
76.4468 2315.00
76.512 2389.00
76.5772 2525.00
76.6424 2474.00
76.7076 2345.00
76.7728 2305.00
76.838 2327.00
76.9032 2294.00
76.9684 2180.00
77.0336 2253.00
77.0988 2171.00
77.164 2149.00
77.2292 2070.00
77.2944 2119.00
77.3596 2194.00
77.4248 2254.00
77.49 2266.00
77.5552 2299.00
77.6204 2349.00
77.6856 2296.00
77.7508 2374.00
77.816 2378.00
77.8812 2381.00
77.9464 2304.00
78.0116 2441.00
78.0768 2267.00
78.142 2204.00
78.2072 2306.00
78.2724 2227.00
78.3376 2212.00
78.4028 2215.00
78.468 2174.00
78.5332 2165.00
78.5984 2240.00
78.6636 2288.00
78.7288 2223.00
78.794 2237.00
78.8592 2231.00
78.9244 2218.00
78.9896 2198.00
79.0548 2301.00
79.12 2211.00
79.1852 2341.00
79.2504 2352.00
79.3156 2364.00
79.3808 2320.00
79.446 2221.00
79.5112 2297.00
79.5764 2283.00
79.6416 2255.00
79.7068 2179.00
79.772 2161.00
79.8372 2205.00
79.9024 2161.00
79.9676 2135.00
80.0328 2199.00
80.098 2152.00
80.1632 2244.00
80.2284 2126.00
80.2936 2236.00
80.3588 2100.00
80.424 2241.00
80.4892 2237.00
80.5544 2231.00
80.6196 2334.00
80.6848 2302.00
80.75 2330.00
80.8152 2191.00
80.8804 2295.00
80.9456 2256.00
81.0108 2257.00
81.076 2151.00
81.1412 2225.00
81.2063 2148.00
81.2715 2179.00
81.3367 2269.00
81.4019 2157.00
81.4671 2226.00
81.5323 2185.00
81.5975 2271.00
81.6627 2188.00
81.7279 2212.00
81.7931 2192.00
81.8583 2345.00
81.9235 2333.00
81.9887 2445.00
82.0539 2599.00
82.1191 2526.00
82.1843 2351.00
82.2495 2283.00
82.3147 2345.00
82.3799 2328.00
82.4451 2250.00
82.5103 2185.00
82.5755 2234.00
82.6407 2320.00
82.7059 2244.00
82.7711 2276.00
82.8363 2274.00
82.9015 2278.00
82.9667 2318.00
83.0319 2254.00
83.0971 2394.00
83.1623 2467.00
83.2275 2601.00
83.2927 2686.00
83.3579 2877.00
83.4231 2676.00
83.4883 2579.00
83.5535 2504.00
83.6187 2532.00
83.6839 2374.00
83.7491 2220.00
83.8143 2295.00
83.8795 2242.00
83.9447 2220.00
84.0099 2298.00
84.0751 2294.00
84.1403 2241.00
84.2055 2242.00
84.2707 2221.00
84.3359 2168.00
84.4011 2146.00
84.4663 2275.00
84.5315 2275.00
84.5967 2243.00
84.6619 2246.00
84.7271 2258.00
84.7923 2272.00
84.8575 2204.00
84.9227 2207.00
84.9879 2180.00
85.0531 2331.00
85.1183 2220.00
85.1835 2216.00
85.2487 2172.00
85.3139 2328.00
85.3791 2278.00
85.4443 2208.00
85.5095 2212.00
85.5747 2180.00
85.6399 2201.00
85.7051 2297.00
85.7703 2316.00
85.8354 2398.00
85.9006 2550.00
85.9659 2624.00
86.031 2673.00
86.0962 2577.00
86.1614 2444.00
86.2266 2424.00
86.2918 2516.00
86.357 2463.00
86.4222 2437.00
86.4874 2284.00
86.5526 2266.00
86.6178 2202.00
86.683 2297.00
86.7482 2274.00
86.8134 2255.00
86.8786 2179.00
86.9438 2222.00
87.009 2242.00
87.0742 2205.00
87.1394 2228.00
87.2046 2217.00
87.2698 2269.00
87.335 2253.00
87.4002 2302.00
87.4654 2289.00
87.5306 2271.00
87.5958 2324.00
87.661 2239.00
87.7262 2213.00
87.7914 2283.00
87.8566 2189.00
87.9218 2275.00
87.987 2264.00
88.0522 2195.00
88.1174 2243.00
88.1826 2269.00
88.2478 2172.00
88.313 2269.00
88.3782 2287.00
88.4434 2324.00
88.5086 2387.00
88.5738 2260.00
88.639 2349.00
88.7042 2291.00
88.7694 2283.00
88.8346 2279.00
88.8998 2237.00
88.965 2350.00
89.0302 2224.00
89.0954 2233.00
89.1606 2234.00
89.2258 2232.00
89.291 2284.00
89.3562 2231.00
89.4214 2272.00
89.4866 2345.00
89.5518 2326.00
89.617 2211.00
89.6822 2200.00
89.7474 2290.00
89.8126 2314.00
89.8778 2234.00
89.943 2379.00
90.0082 2489.00
90.0734 2408.00
90.1386 2447.00
90.2038 2305.00
90.269 2391.00
90.3342 2374.00
90.3994 2264.00
90.4646 2289.00
90.5298 2207.00
90.595 2314.00
90.6601 2263.00
90.7253 2248.00
90.7905 2270.00
90.8557 2260.00
90.9209 2306.00
90.9861 2209.00
91.0513 2325.00
91.1165 2310.00
91.1817 2318.00
91.2469 2375.00
91.3121 2316.00
91.3773 2343.00
91.4425 2340.00
91.5077 2315.00
91.5729 2325.00
91.6381 2299.00
91.7033 2349.00
91.7685 2272.00
91.8337 2258.00
91.8989 2243.00
91.9641 2253.00
92.0293 2318.00
92.0945 2229.00
92.1597 2321.00
92.2249 2329.00
92.2901 2326.00
92.3553 2301.00
92.4205 2342.00
92.4857 2423.00
92.5509 2402.00
92.6161 2445.00
92.6813 2542.00
92.7465 2442.00
92.8117 2417.00
92.8769 2341.00
92.9421 2434.00
93.0073 2400.00
93.0725 2274.00
93.1377 2362.00
93.2029 2249.00
93.2681 2312.00
93.3333 2347.00
93.3985 2188.00
93.4637 2231.00
93.5289 2355.00
93.5941 2331.00
93.6593 2356.00
93.7245 2316.00
93.7897 2430.00
93.8549 2341.00
93.9201 2366.00
93.9853 2299.00
94.0505 2406.00
94.1157 2462.00
94.1809 2516.00
94.2461 2506.00
94.3113 2518.00
94.3765 2460.00
94.4417 2428.00
94.5069 2412.00
94.5721 2353.00
94.6373 2431.00
94.7025 2296.00
94.7677 2344.00
94.8329 2254.00
94.8981 2321.00
94.9633 2303.00
95.0285 2392.00
95.0937 2360.00
95.1589 2451.00
95.2241 2529.00
95.2893 2542.00
95.3545 2334.00
95.4197 2384.00
95.4848 2445.00
95.55 2439.00
95.6153 2389.00
95.6804 2344.00
95.7456 2359.00
95.8108 2322.00
95.876 2199.00
95.9412 2377.00
96.0064 2360.00
96.0716 2316.00
96.1368 2397.00
96.202 2295.00
96.2672 2381.00
96.3324 2450.00
96.3976 2397.00
96.4628 2558.00
96.528 2596.00
96.5932 2664.00
96.6584 2778.00
96.7236 2576.00
96.7888 2423.00
96.854 2508.00
96.9192 2603.00
96.9844 2504.00
97.0496 2465.00
97.1148 2346.00
97.18 2386.00
97.2452 2429.00
97.3104 2316.00
97.3756 2361.00
97.4408 2365.00
97.506 2355.00
97.5712 2331.00
97.6364 2359.00
97.7016 2406.00
97.7668 2486.00
97.832 2391.00
97.8972 2390.00
97.9624 2530.00
98.0276 2561.00
98.0928 2348.00
98.158 2429.00
98.2232 2455.00
98.2884 2359.00
98.3536 2448.00
98.4188 2357.00
98.484 2367.00
98.5492 2418.00
98.6144 2440.00
98.6796 2444.00
98.7448 2374.00
98.81 2413.00
98.8752 2459.00
98.9404 2374.00
99.0056 2352.00
99.0708 2337.00
99.136 2420.00
99.2012 2352.00
99.2664 2576.00
99.3316 2482.00
99.3968 2455.00
99.462 2432.00
99.5272 2541.00
99.5924 2473.00
99.6576 2504.00
99.7228 2466.00
99.788 2493.00
99.8532 2390.00
99.9184 2426.00
99.9836 2384.00
99.9944 2390.00