File: data/xrd_creation/results/PG_0921-1.xy
9.903433 3289.00
9.968632 3221.00
10.0338 3256.00
10.099 3102.00
10.1642 3121.00
10.2294 3138.00
10.2946 3159.00
10.3598 3144.00
10.425 3120.00
10.4902 3203.00
10.5554 3215.00
10.6206 3152.00
10.6858 3195.00
10.751 3138.00
10.8162 3042.00
10.8814 3035.00
10.9466 3118.00
11.0118 2985.00
11.077 3080.00
11.1422 2995.00
11.2074 2966.00
11.2726 2991.00
11.3378 2993.00
11.403 3015.00
11.4682 3000.00
11.5334 2945.00
11.5986 2893.00
11.6638 2912.00
11.729 2811.00
11.7942 2862.00
11.8594 2972.00
11.9246 2903.00
11.9898 2887.00
12.055 2825.00
12.1202 2762.00
12.1854 2897.00
12.2506 2925.00
12.3158 2873.00
12.381 2848.00
12.4462 2794.00
12.5114 2860.00
12.5766 2825.00
12.6418 2738.00
12.707 2804.00
12.7722 2780.00
12.8374 2789.00
12.9026 2750.00
12.9678 2688.00
13.033 2819.00
13.0982 2745.00
13.1634 2700.00
13.2286 2752.00
13.2938 2651.00
13.359 2740.00
13.4242 2732.00
13.4894 2765.00
13.5546 2703.00
13.6198 2708.00
13.685 2715.00
13.7502 2761.00
13.8154 2716.00
13.8805 2728.00
13.9457 2774.00
14.0109 2683.00
14.0761 2551.00
14.1413 2763.00
14.2065 2695.00
14.2717 2708.00
14.3369 2661.00
14.4021 2639.00
14.4673 2644.00
14.5325 2654.00
14.5977 2669.00
14.6629 2743.00
14.7281 2801.00
14.7933 2619.00
14.8585 2683.00
14.9237 2627.00
14.9889 2727.00
15.0541 2704.00
15.1193 2729.00
15.1845 2774.00
15.2497 2642.00
15.3149 2792.00
15.3801 2823.00
15.4453 2841.00
15.5105 2982.00
15.5757 2989.00
15.6409 3122.00
15.7061 3444.00
15.7713 3857.00
15.8365 4671.00
15.9017 5713.00
15.9669 7293.00
16.0321 8464.00
16.0973 7809.00
16.1625 5384.00
16.2277 4051.00
16.2929 3382.00
16.3581 3046.00
16.4233 3007.00
16.4885 2882.00
16.5537 2802.00
16.6189 2840.00
16.6841 2732.00
16.7493 2684.00
16.8145 2690.00
16.8797 2780.00
16.9449 2740.00
17.0101 2802.00
17.0753 2707.00
17.1405 2692.00
17.2057 2738.00
17.2709 2713.00
17.3361 2680.00
17.4013 2691.00
17.4665 2573.00
17.5317 2654.00
17.5969 2676.00
17.6621 2697.00
17.7273 2612.00
17.7925 2533.00
17.8577 2637.00
17.9229 2535.00
17.9881 2676.00
18.0533 2563.00
18.1185 2504.00
18.1837 2696.00
18.2489 2479.00
18.3141 2515.00
18.3793 2639.00
18.4445 2601.00
18.5097 2520.00
18.5749 2628.00
18.6401 2665.00
18.7052 2641.00
18.7704 2541.00
18.8356 2577.00
18.9008 2644.00
18.966 2633.00
19.0312 2536.00
19.0964 2613.00
19.1616 2626.00
19.2268 2662.00
19.292 2786.00
19.3572 2801.00
19.4224 3038.00
19.4876 2804.00
19.5528 2594.00
19.618 2574.00
19.6832 2539.00
19.7484 2536.00
19.8136 2555.00
19.8788 2595.00
19.944 2565.00
20.0092 2549.00
20.0744 2528.00
20.1396 2524.00
20.2048 2594.00
20.27 2432.00
20.3352 2485.00
20.4004 2434.00
20.4656 2478.00
20.5308 2454.00
20.596 2517.00
20.6612 2481.00
20.7264 2479.00
20.7916 2501.00
20.8568 2538.00
20.922 2605.00
20.9872 2514.00
21.0524 2515.00
21.1176 2478.00
21.1828 2457.00
21.248 2450.00
21.3132 2480.00
21.3784 2489.00
21.4436 2493.00
21.5088 2435.00
21.574 2514.00
21.6392 2519.00
21.7044 2563.00
21.7696 2477.00
21.8348 2477.00
21.9 2466.00
21.9652 2508.00
22.0304 2509.00
22.0956 2442.00
22.1608 2556.00
22.226 2496.00
22.2912 2455.00
22.3564 2471.00
22.4216 2513.00
22.4868 2584.00
22.552 2564.00
22.6172 2483.00
22.6824 2450.00
22.7476 2408.00
22.8128 2438.00
22.878 2504.00
22.9432 2501.00
23.0084 2400.00
23.0736 2488.00
23.1388 2521.00
23.204 2490.00
23.2692 2476.00
23.3344 2435.00
23.3996 2537.00
23.4647 2414.00
23.5299 2488.00
23.5951 2393.00
23.6603 2402.00
23.7255 2500.00
23.7907 2454.00
23.8559 2503.00
23.9211 2513.00
23.9863 2385.00
24.0515 2480.00
24.1167 2434.00
24.1819 2454.00
24.2471 2528.00
24.3123 2495.00
24.3775 2570.00
24.4427 2403.00
24.5079 2366.00
24.5731 2433.00
24.6383 2619.00
24.7035 2420.00
24.7687 2485.00
24.8339 2458.00
24.8991 2491.00
24.9643 2462.00
25.0295 2460.00
25.0947 2557.00
25.1599 2487.00
25.2251 2526.00
25.2903 2420.00
25.3555 2440.00
25.4207 2539.00
25.4859 2495.00
25.5511 2527.00
25.6163 2373.00
25.6815 2453.00
25.7467 2487.00
25.8119 2456.00
25.8771 2451.00
25.9423 2457.00
26.0075 2441.00
26.0727 2532.00
26.1379 2471.00
26.2031 2460.00
26.2683 2503.00
26.3335 2474.00
26.3987 2438.00
26.4639 2531.00
26.5291 2537.00
26.5943 2435.00
26.6595 2519.00
26.7247 2575.00
26.7899 2509.00
26.8551 2565.00
26.9203 2606.00
26.9855 2677.00
27.0507 2675.00
27.1159 2720.00
27.1811 2801.00
27.2463 2943.00
27.3115 3064.00
27.3767 3319.00
27.4419 3956.00
27.5071 4824.00
27.5723 6320.00
27.6375 7736.00
27.7027 7973.00
27.7679 6527.00
27.8331 4967.00
27.8983 4047.00
27.9635 3731.00
28.0287 3669.00
28.0939 3962.00
28.1591 4785.00
28.2243 6277.00
28.2894 8363.00
28.3546 10084.00
28.4198 9260.00
28.485 6975.00
28.5502 4804.00
28.6154 3895.00
28.6806 3296.00
28.7458 3001.00
28.811 2903.00
28.8762 2729.00
28.9414 2649.00
29.0066 2670.00
29.0718 2654.00
29.137 2691.00
29.2022 2564.00
29.2674 2590.00
29.3326 2585.00
29.3978 2506.00
29.463 2485.00
29.5282 2495.00
29.5934 2496.00
29.6586 2402.00
29.7238 2476.00
29.789 2595.00
29.8542 2400.00
29.9194 2354.00
29.9846 2425.00
30.0498 2486.00
30.115 2461.00
30.1802 2545.00
30.2454 2560.00
30.3106 2426.00
30.3758 2495.00
30.441 2407.00
30.5062 2498.00
30.5714 2557.00
30.6366 2496.00
30.7018 2443.00
30.767 2488.00
30.8322 2404.00
30.8974 2393.00
30.9626 2576.00
31.0278 2540.00
31.093 2473.00
31.1582 2471.00
31.2234 2385.00
31.2886 2530.00
31.3538 2539.00
31.419 2616.00
31.4842 2736.00
31.5494 2846.00
31.6146 3433.00
31.6798 3818.00
31.745 3404.00
31.8102 3216.00
31.8754 3335.00
31.9406 3780.00
32.0058 3909.00
32.071 3445.00
32.1362 3205.00
32.2014 2794.00
32.2666 2639.00
32.3318 2609.00
32.397 2531.00
32.4622 2523.00
32.5274 2441.00
32.5926 2511.00
32.6578 2439.00
32.723 2487.00
32.7882 2426.00
32.8534 2436.00
32.9186 2428.00
32.9838 2467.00
33.0489 2383.00
33.1141 2487.00
33.1793 2386.00
33.2445 2376.00
33.3097 2413.00
33.3749 2362.00
33.4401 2493.00
33.5053 2424.00
33.5705 2428.00
33.6357 2367.00
33.7009 2413.00
33.7661 2446.00
33.8313 2482.00
33.8965 2424.00
33.9617 2413.00
34.0269 2375.00
34.0921 2422.00
34.1573 2454.00
34.2225 2470.00
34.2877 2390.00
34.3529 2427.00
34.4181 2384.00
34.4833 2412.00
34.5485 2404.00
34.6137 2454.00
34.6789 2310.00
34.7441 2312.00
34.8093 2459.00
34.8745 2481.00
34.9397 2452.00
35.0049 2355.00
35.0701 2400.00
35.1353 2429.00
35.2005 2383.00
35.2657 2493.00
35.3309 2298.00
35.3961 2338.00
35.4613 2465.00
35.5265 2372.00
35.5917 2313.00
35.6569 2369.00
35.7221 2436.00
35.7873 2285.00
35.8525 2439.00
35.9177 2461.00
35.9829 2482.00
36.0481 2465.00
36.1133 2489.00
36.1785 2515.00
36.2437 2757.00
36.3089 2760.00
36.3741 2872.00
36.4393 2869.00
36.5045 2741.00
36.5697 2664.00
36.6349 2564.00
36.7001 2400.00
36.7653 2462.00
36.8305 2401.00
36.8957 2429.00
36.9609 2570.00
37.0261 2715.00
37.0913 3203.00
37.1565 4257.00
37.2217 5965.00
37.2869 5260.00
37.3521 4261.00
37.4173 3007.00
37.4825 2711.00
37.5477 2579.00
37.6129 2484.00
37.6781 2434.00
37.7433 2369.00
37.8085 2328.00
37.8736 2433.00
37.9388 2354.00
38.004 2434.00
38.0692 2432.00
38.1344 2332.00
38.1996 2482.00
38.2648 2437.00
38.33 2369.00
38.3952 2431.00
38.4604 2367.00
38.5256 2509.00
38.5908 2331.00
38.656 2464.00
38.7212 2354.00
38.7864 2539.00
38.8516 2644.00
38.9168 2755.00
38.982 2679.00
39.0472 2695.00
39.1124 2624.00
39.1776 2553.00
39.2428 2494.00
39.308 2613.00
39.3732 2683.00
39.4384 2772.00
39.5036 3041.00
39.5688 3348.00
39.634 3819.00
39.6992 4926.00
39.7644 6346.00
39.8296 7511.00
39.8948 7429.00
39.96 6453.00
40.0252 5142.00
40.0904 4053.00
40.1556 3490.00
40.2208 3072.00
40.286 2729.00
40.3512 2732.00
40.4164 2610.00
40.4816 2515.00
40.5468 2553.00
40.612 2493.00
40.6772 2469.00
40.7424 2460.00
40.8076 2430.00
40.8728 2394.00
40.938 2453.00
41.0032 2396.00
41.0684 2461.00
41.1336 2437.00
41.1988 2385.00
41.264 2414.00
41.3292 2442.00
41.3944 2536.00
41.4596 2354.00
41.5248 2307.00
41.59 2372.00
41.6552 2427.00
41.7204 2322.00
41.7856 2346.00
41.8508 2364.00
41.916 2359.00
41.9812 2347.00
42.0464 2382.00
42.1116 2422.00
42.1768 2410.00
42.242 2520.00
42.3072 2544.00
42.3724 2603.00
42.4376 2709.00
42.5028 3056.00
42.568 3242.00
42.6332 3269.00
42.6983 3190.00
42.7635 2957.00
42.8287 2748.00
42.8939 2728.00
42.9591 2506.00
43.0243 2420.00
43.0895 2394.00
43.1547 2381.00
43.2199 2389.00
43.2851 2427.00
43.3503 2354.00
43.4155 2410.00
43.4807 2373.00
43.5459 2403.00
43.6111 2346.00
43.6763 2370.00
43.7415 2288.00
43.8067 2381.00
43.8719 2386.00
43.9371 2300.00
44.0023 2337.00
44.0675 2305.00
44.1327 2364.00
44.1979 2299.00
44.2631 2436.00
44.3283 2359.00
44.3935 2383.00
44.4587 2396.00
44.5239 2333.00
44.5891 2356.00
44.6543 2327.00
44.7195 2321.00
44.7847 2306.00
44.8499 2343.00
44.9151 2301.00
44.9803 2337.00
45.0455 2384.00
45.1107 2655.00
45.1759 2988.00
45.2411 2910.00
45.3063 2799.00
45.3715 2399.00
45.4367 2388.00
45.5019 2380.00
45.5671 2380.00
45.6323 2359.00
45.6975 2341.00
45.7627 2376.00
45.8279 2367.00
45.8931 2375.00
45.9583 2299.00
46.0235 2274.00
46.0887 2353.00
46.1539 2353.00
46.2191 2283.00
46.2843 2431.00
46.3495 2343.00
46.4147 2244.00
46.4799 2264.00
46.5451 2374.00
46.6103 2369.00
46.6755 2224.00
46.7407 2451.00
46.8059 2432.00
46.8711 2392.00
46.9363 2384.00
47.0015 2338.00
47.0667 2418.00
47.1319 2499.00
47.1971 2538.00
47.2623 2649.00
47.3275 2647.00
47.3927 3097.00
47.4579 3219.00
47.523 3175.00
47.5882 3033.00
47.6534 2892.00
47.7186 2625.00
47.7838 2611.00
47.849 2495.00
47.9142 2495.00
47.9794 2472.00
48.0446 2456.00
48.1098 2602.00
48.175 2725.00
48.2402 2811.00
48.3054 2974.00
48.3706 3211.00
48.4358 3599.00
48.501 4077.00
48.5662 4347.00
48.6314 4580.00
48.6966 4519.00
48.7618 4508.00
48.827 4698.00
48.8922 5516.00
48.9574 6260.00
49.0226 6583.00
49.0878 6194.00
49.153 5450.00
49.2182 4519.00
49.2834 3790.00
49.3486 3376.00
49.4138 3118.00
49.479 2809.00
49.5442 2681.00
49.6094 2585.00
49.6746 2586.00
49.7398 2407.00
49.805 2469.00
49.8702 2501.00
49.9354 2514.00
50.0006 2456.00
50.0658 2536.00
50.131 2656.00
50.1962 2781.00
50.2614 2852.00
50.3266 2995.00
50.3918 2822.00
50.457 2657.00
50.5222 2567.00
50.5874 2541.00
50.6526 2469.00
50.7178 2469.00
50.783 2400.00
50.8482 2353.00
50.9134 2408.00
50.9786 2444.00
51.0438 2421.00
51.109 2337.00
51.1742 2408.00
51.2394 2274.00
51.3046 2313.00
51.3698 2343.00
51.435 2306.00
51.5002 2253.00
51.5654 2305.00
51.6306 2186.00
51.6958 2370.00
51.761 2243.00
51.8262 2384.00
51.8914 2310.00
51.9566 2294.00
52.0218 2230.00
52.087 2338.00
52.1522 2233.00
52.2174 2348.00
52.2826 2306.00
52.3477 2284.00
52.4129 2283.00
52.4781 2293.00
52.5433 2274.00
52.6085 2293.00
52.6737 2304.00
52.7389 2227.00
52.8041 2353.00
52.8693 2281.00
52.9345 2284.00
52.9997 2282.00
53.0649 2199.00
53.1301 2344.00
53.1953 2283.00
53.2605 2257.00
53.3257 2228.00
53.3909 2189.00
53.4561 2270.00
53.5213 2319.00
53.5865 2257.00
53.6517 2322.00
53.7169 2292.00
53.7821 2280.00
53.8473 2244.00
53.9125 2280.00
53.9777 2359.00
54.0429 2293.00
54.1081 2289.00
54.1733 2336.00
54.2385 2217.00
54.3037 2361.00
54.3689 2225.00
54.4341 2255.00
54.4993 2260.00
54.5645 2300.00
54.6297 2377.00
54.6949 2344.00
54.7601 2311.00
54.8253 2324.00
54.8905 2337.00
54.9557 2411.00
55.0209 2413.00
55.0861 2331.00
55.1513 2417.00
55.2165 2510.00
55.2817 2488.00
55.3469 2516.00
55.4121 2684.00
55.4773 2861.00
55.5425 3173.00
55.6077 3390.00
55.6729 3328.00
55.7381 3247.00
55.8033 3077.00
55.8685 2848.00
55.9337 2782.00
55.9989 2688.00
56.0641 2663.00
56.1293 2608.00
56.1945 2600.00
56.2597 2479.00
56.3249 2581.00
56.3901 2480.00
56.4553 2660.00
56.5205 2730.00
56.5857 2849.00
56.6509 2885.00
56.7161 2830.00
56.7813 2680.00
56.8465 2715.00
56.9117 2594.00
56.9769 2437.00
57.042 2445.00
57.1073 2315.00
57.1724 2365.00
57.2376 2332.00
57.3028 2306.00
57.368 2153.00
57.4332 2268.00
57.4984 2339.00
57.5636 2314.00
57.6288 2376.00
57.694 2372.00
57.7592 2308.00
57.8244 2221.00
57.8896 2442.00
57.9548 2387.00
58.02 2506.00
58.0852 2501.00
58.1504 2589.00
58.2156 2607.00
58.2808 2565.00
58.346 2418.00
58.4112 2372.00
58.4764 2378.00
58.5416 2317.00
58.6068 2278.00
58.672 2421.00
58.7372 2282.00
58.8024 2390.00
58.8676 2382.00
58.9328 2529.00
58.998 2425.00
59.0632 2519.00
59.1284 2548.00
59.1936 2587.00
59.2588 2687.00
59.324 2496.00
59.3892 2587.00
59.4544 2586.00
59.5196 2502.00
59.5848 2598.00
59.65 2988.00
59.7152 3349.00
59.7804 2847.00
59.8456 2981.00
59.9108 2719.00
59.976 2564.00
60.0412 2381.00
60.1064 2355.00
60.1716 2249.00
60.2368 2274.00
60.302 2318.00
60.3672 2325.00
60.4324 2237.00
60.4976 2310.00
60.5628 2272.00
60.628 2340.00
60.6932 2290.00
60.7584 2245.00
60.8236 2272.00
60.8888 2175.00
60.954 2294.00
61.0192 2220.00
61.0844 2342.00
61.1496 2268.00
61.2148 2216.00
61.28 2222.00
61.3452 2220.00
61.4104 2172.00
61.4756 2245.00
61.5408 2270.00
61.606 2276.00
61.6712 2281.00
61.7364 2202.00
61.8016 2333.00
61.8667 2237.00
61.932 2367.00
61.9971 2286.00
62.0623 2273.00
62.1275 2253.00
62.1927 2248.00
62.2579 2319.00
62.3231 2248.00
62.3883 2288.00
62.4535 2258.00
62.5187 2212.00
62.5839 2188.00
62.6491 2216.00
62.7143 2281.00
62.7795 2278.00
62.8447 2210.00
62.9099 2386.00
62.9751 2325.00
63.0403 2170.00
63.1055 2270.00
63.1707 2216.00
63.2359 2316.00
63.3011 2320.00
63.3663 2266.00
63.4315 2284.00
63.4967 2379.00
63.5619 2338.00
63.6271 2295.00
63.6923 2359.00
63.7575 2365.00
63.8227 2309.00
63.8879 2384.00
63.9531 2493.00
64.0183 2516.00
64.0835 2654.00
64.1487 2689.00
64.2139 2902.00
64.2791 3142.00
64.3443 3134.00
64.4095 3091.00
64.4747 3115.00
64.5399 2868.00
64.6051 2863.00
64.6703 2631.00
64.7355 2504.00
64.8007 2592.00
64.8659 2481.00
64.9311 2415.00
64.9963 2435.00
65.0615 2377.00
65.1267 2390.00
65.1919 2496.00
65.2571 2495.00
65.3223 2616.00
65.3875 2740.00
65.4527 2918.00
65.5179 3238.00
65.5831 3658.00
65.6483 3320.00
65.7135 2969.00
65.7787 2987.00
65.8439 2681.00
65.9091 2615.00
65.9743 2474.00
66.0395 2414.00
66.1047 2324.00
66.1699 2405.00
66.2351 2237.00
66.3003 2373.00
66.3655 2412.00
66.4307 2417.00
66.4959 2394.00
66.561 2402.00
66.6263 2364.00
66.6915 2325.00
66.7566 2339.00
66.8218 2202.00
66.887 2316.00
66.9522 2279.00
67.0174 2281.00
67.0826 2311.00
67.1478 2194.00
67.213 2304.00
67.2782 2305.00
67.3434 2256.00
67.4086 2273.00
67.4738 2206.00
67.539 2281.00
67.6042 2234.00
67.6694 2221.00
67.7346 2179.00
67.7998 2351.00
67.865 2243.00
67.9302 2183.00
67.9954 2240.00
68.0606 2282.00
68.1258 2182.00
68.191 2201.00
68.2562 2138.00
68.3214 2151.00
68.3866 2312.00
68.4518 2146.00
68.517 2273.00
68.5822 2203.00
68.6474 2225.00
68.7126 2253.00
68.7778 2302.00
68.843 2394.00
68.9082 2297.00
68.9734 2318.00
69.0386 2195.00
69.1038 2311.00
69.169 2367.00
69.2342 2308.00
69.2994 2290.00
69.3646 2368.00
69.4298 2329.00
69.495 2331.00
69.5602 2355.00
69.6254 2352.00
69.6906 2437.00
69.7558 2500.00
69.821 2630.00
69.8862 2669.00
69.9514 2884.00
70.0166 2961.00
70.0818 2903.00
70.147 2751.00
70.2122 2703.00
70.2774 2641.00
70.3426 2585.00
70.4078 2465.00
70.473 2272.00
70.5382 2329.00
70.6034 2365.00
70.6686 2329.00
70.7338 2264.00
70.799 2344.00
70.8642 2286.00
70.9294 2410.00
70.9946 2389.00
71.0598 2478.00
71.125 2429.00
71.1902 2538.00
71.2554 2473.00
71.3205 2497.00
71.3858 2497.00
71.451 2498.00
71.5162 2490.00
71.5813 2410.00
71.6465 2324.00
71.7117 2333.00
71.7769 2294.00
71.8421 2278.00
71.9073 2335.00
71.9725 2262.00
72.0377 2254.00
72.1029 2305.00
72.1681 2176.00
72.2333 2293.00
72.2985 2268.00
72.3637 2226.00
72.4289 2294.00
72.4941 2290.00
72.5593 2204.00
72.6245 2255.00
72.6897 2266.00
72.7549 2344.00
72.8201 2206.00
72.8853 2269.00
72.9505 2318.00
73.0157 2266.00
73.0809 2351.00
73.1461 2351.00
73.2113 2390.00
73.2765 2386.00
73.3417 2295.00
73.4069 2257.00
73.4721 2240.00
73.5373 2357.00
73.6025 2304.00
73.6677 2284.00
73.7329 2326.00
73.7981 2269.00
73.8633 2235.00
73.9285 2209.00
73.9937 2197.00
74.0589 2286.00
74.1241 2231.00
74.1893 2280.00
74.2545 2316.00
74.3197 2297.00
74.3849 2324.00
74.4501 2322.00
74.5153 2338.00
74.5805 2329.00
74.6457 2252.00
74.7109 2250.00
74.7761 2287.00
74.8413 2181.00
74.9065 2274.00
74.9717 2299.00
75.0369 2354.00
75.1021 2303.00
75.1673 2256.00
75.2325 2260.00
75.2977 2259.00
75.3629 2221.00
75.4281 2249.00
75.4933 2238.00
75.5585 2349.00
75.6237 2285.00
75.6889 2281.00
75.7541 2363.00
75.8193 2322.00
75.8845 2298.00
75.9497 2475.00
76.0149 2521.00
76.0801 2551.00
76.1452 2651.00
76.2104 2537.00
76.2756 2543.00
76.3409 2587.00
76.406 2577.00
76.4712 2606.00
76.5364 2616.00
76.6016 2639.00
76.6668 2624.00
76.732 2699.00
76.7972 2653.00
76.8624 2580.00
76.9276 2652.00
76.9928 2509.00
77.058 2490.00
77.1232 2500.00
77.1884 2498.00
77.2536 2539.00
77.3188 2737.00
77.384 2718.00
77.4492 2922.00
77.5144 3040.00
77.5796 3083.00
77.6448 3234.00
77.71 3258.00
77.7752 3293.00
77.8404 3362.00
77.9056 3191.00
77.9708 3020.00
78.036 3095.00
78.1012 2887.00
78.1664 2759.00
78.2316 2747.00
78.2968 2630.00
78.362 2507.00
78.4272 2564.00
78.4924 2450.00
78.5576 2477.00
78.6228 2490.00
78.688 2555.00
78.7532 2586.00
78.8184 2540.00
78.8836 2497.00
78.9488 2412.00
79.014 2487.00
79.0792 2416.00
79.1444 2288.00
79.2096 2317.00
79.2748 2400.00
79.34 2344.00
79.4052 2391.00
79.4704 2307.00
79.5356 2295.00
79.6008 2299.00
79.666 2267.00
79.7312 2332.00
79.7964 2293.00
79.8616 2214.00
79.9268 2269.00
79.992 2232.00
80.0572 2332.00
80.1224 2242.00
80.1876 2323.00
80.2528 2277.00
80.318 2168.00
80.3832 2231.00
80.4484 2307.00
80.5136 2248.00
80.5788 2224.00
80.644 2261.00
80.7092 2289.00
80.7744 2194.00
80.8396 2185.00
80.9048 2219.00
80.9699 2196.00
81.0351 2211.00
81.1003 2246.00
81.1655 2224.00
81.2307 2267.00
81.2959 2289.00
81.3611 2246.00
81.4263 2165.00
81.4915 2336.00
81.5567 2207.00
81.6219 2149.00
81.6871 2230.00
81.7523 2170.00
81.8175 2317.00
81.8827 2245.00
81.9479 2147.00
82.0131 2266.00
82.0783 2259.00
82.1435 2218.00
82.2087 2223.00
82.2739 2376.00
82.3391 2416.00
82.4043 2374.00
82.4695 2389.00
82.5347 2414.00
82.5999 2511.00
82.6651 2543.00
82.7303 2509.00
82.7955 2492.00
82.8607 2515.00
82.9259 2431.00
82.9911 2377.00
83.0563 2308.00
83.1215 2344.00
83.1867 2275.00
83.2519 2290.00
83.3171 2243.00
83.3823 2226.00
83.4475 2314.00
83.5127 2213.00
83.5779 2187.00
83.6431 2176.00
83.7083 2206.00
83.7735 2259.00
83.8387 2208.00
83.9039 2192.00
83.9691 2181.00
84.0343 2246.00
84.0995 2216.00
84.1647 2208.00
84.2299 2167.00
84.2951 2327.00
84.3603 2249.00
84.4255 2198.00
84.4907 2234.00
84.5559 2245.00
84.6211 2266.00
84.6863 2289.00
84.7515 2272.00
84.8167 2212.00
84.8819 2257.00
84.9471 2315.00
85.0123 2299.00
85.0775 2256.00
85.1427 2275.00
85.2079 2340.00
85.2731 2416.00
85.3383 2341.00
85.4035 2401.00
85.4687 2324.00
85.5339 2342.00
85.5991 2276.00
85.6643 2328.00
85.7295 2320.00
85.7946 2213.00
85.8598 2295.00
85.925 2304.00
85.9903 2257.00
86.0554 2284.00
86.1206 2258.00
86.1858 2299.00
86.251 2169.00
86.3162 2306.00
86.3814 2236.00
86.4466 2226.00
86.5118 2162.00
86.577 2224.00
86.6422 2208.00
86.7074 2282.00
86.7726 2258.00
86.8378 2250.00
86.903 2290.00
86.9682 2190.00
87.0334 2245.00
87.0986 2189.00
87.1638 2152.00
87.229 2154.00
87.2942 2275.00
87.3594 2221.00
87.4246 2220.00
87.4898 2289.00
87.555 2237.00
87.6202 2231.00
87.6854 2230.00
87.7506 2225.00
87.8158 2265.00
87.881 2251.00
87.9462 2267.00
88.0114 2253.00
88.0766 2295.00
88.1418 2208.00
88.207 2247.00
88.2722 2222.00
88.3374 2285.00
88.4026 2262.00
88.4678 2242.00
88.533 2275.00
88.5982 2267.00
88.6634 2286.00
88.7286 2424.00
88.7938 2438.00
88.859 2437.00
88.9242 2582.00
88.9894 2671.00
89.0546 2555.00
89.1198 2583.00
89.185 2469.00
89.2502 2577.00
89.3154 2407.00
89.3806 2531.00
89.4458 2359.00
89.511 2362.00
89.5762 2401.00
89.6414 2344.00
89.7066 2296.00
89.7718 2280.00
89.837 2301.00
89.9022 2361.00
89.9674 2393.00
90.0326 2323.00
90.0978 2334.00
90.163 2363.00
90.2282 2263.00
90.2934 2394.00
90.3586 2459.00
90.4238 2503.00
90.489 2484.00
90.5542 2467.00
90.6193 2483.00
90.6845 2456.00
90.7497 2363.00
90.8149 2428.00
90.8801 2421.00
90.9453 2420.00
91.0105 2385.00
91.0757 2449.00
91.1409 2293.00
91.2061 2358.00
91.2713 2577.00
91.3365 2360.00
91.4017 2405.00
91.4669 2354.00
91.5321 2474.00
91.5973 2472.00
91.6625 2315.00
91.7277 2408.00
91.7929 2381.00
91.8581 2402.00
91.9233 2265.00
91.9885 2320.00
92.0537 2321.00
92.1189 2200.00
92.1841 2272.00
92.2493 2237.00
92.3145 2215.00
92.3797 2249.00
92.4449 2354.00
92.5101 2290.00
92.5753 2313.00
92.6405 2223.00
92.7057 2303.00
92.7709 2166.00
92.8361 2307.00
92.9013 2237.00
92.9665 2291.00
93.0317 2215.00
93.0969 2234.00
93.1621 2240.00
93.2273 2233.00
93.2925 2235.00
93.3577 2257.00
93.4229 2199.00
93.4881 2249.00
93.5533 2226.00
93.6185 2260.00
93.6837 2298.00
93.7489 2188.00
93.8141 2188.00
93.8793 2296.00
93.9445 2263.00
94.0097 2231.00
94.0749 2330.00
94.1401 2300.00
94.2053 2335.00
94.2705 2318.00
94.3357 2396.00
94.4009 2458.00
94.4661 2424.00
94.5313 2402.00
94.5965 2417.00
94.6617 2420.00
94.7269 2326.00
94.7921 2451.00
94.8573 2317.00
94.9225 2354.00
94.9877 2174.00
95.0529 2304.00
95.1181 2289.00
95.1833 2417.00
95.2485 2356.00
95.3137 2280.00
95.3789 2187.00
95.444 2304.00
95.5092 2431.00
95.5744 2431.00
95.6396 2444.00
95.7048 2515.00
95.77 2603.00
95.8352 2613.00
95.9004 2634.00
95.9656 2622.00
96.0308 2563.00
96.096 2555.00
96.1612 2542.00
96.2264 2602.00
96.2916 2418.00
96.3568 2384.00
96.422 2466.00
96.4872 2375.00
96.5524 2427.00
96.6176 2385.00
96.6828 2404.00
96.748 2412.00
96.8132 2487.00
96.8784 2594.00
96.9436 2575.00
97.0088 2521.00
97.074 2457.00
97.1392 2529.00
97.2044 2479.00
97.2696 2485.00
97.3348 2400.00
97.4 2443.00
97.4652 2366.00
97.5304 2406.00
97.5956 2263.00
97.6608 2344.00
97.726 2254.00
97.7912 2307.00
97.8564 2291.00
97.9216 2263.00
97.9868 2326.00
98.052 2226.00
98.1172 2264.00
98.1824 2224.00
98.2476 2244.00
98.3128 2254.00
98.378 2311.00
98.4432 2294.00
98.5084 2230.00
98.5736 2266.00
98.6388 2386.00
98.704 2261.00
98.7692 2226.00
98.8344 2231.00
98.8996 2292.00
98.9648 2274.00
99.03 2219.00
99.0952 2321.00
99.1604 2251.00
99.2256 2273.00
99.2908 2234.00
99.356 2230.00
99.4212 2316.00
99.4864 2323.00
99.5516 2340.00
99.6168 2448.00
99.682 2345.00
99.7472 2335.00
99.8124 2327.00
99.8776 2245.00
99.9428 2310.00
100.008 2220.00
100.073 2253.00
100.095 2260.00