File: data/xrd_creation/results/PG_0920-1.xy
10.0094 4984.00
10.0746 5078.00
10.1398 4920.00
10.205 4990.00
10.2702 5012.00
10.3354 4966.00
10.4006 4893.00
10.4658 5095.00
10.531 5059.00
10.5962 4862.00
10.6614 5110.00
10.7266 4880.00
10.7918 5000.00
10.857 5008.00
10.9222 4742.00
10.9874 4959.00
11.0526 5033.00
11.1178 4990.00
11.183 5044.00
11.2482 4936.00
11.3134 5000.00
11.3786 4984.00
11.4438 4959.00
11.509 5101.00
11.5742 4994.00
11.6394 4940.00
11.7046 5078.00
11.7698 4983.00
11.835 4956.00
11.9002 4940.00
11.9654 5057.00
12.0306 4867.00
12.0958 5166.00
12.161 5025.00
12.2262 5149.00
12.2914 5091.00
12.3566 5043.00
12.4218 5114.00
12.487 4910.00
12.5522 5002.00
12.6174 5034.00
12.6826 4895.00
12.7478 5098.00
12.813 5070.00
12.8782 5075.00
12.9434 5020.00
13.0086 4993.00
13.0738 4992.00
13.139 5045.00
13.2042 5037.00
13.2694 5141.00
13.3346 5063.00
13.3998 5051.00
13.465 5167.00
13.5302 5173.00
13.5954 5190.00
13.6606 5069.00
13.7258 5060.00
13.791 5166.00
13.8562 5133.00
13.9214 5179.00
13.9865 5209.00
14.0517 5109.00
14.1169 5149.00
14.1821 5232.00
14.2473 5104.00
14.3125 5291.00
14.3777 5164.00
14.4429 5212.00
14.5081 5261.00
14.5733 5205.00
14.6385 5231.00
14.7037 5318.00
14.7689 5259.00
14.8341 5287.00
14.8993 5167.00
14.9645 5258.00
15.0297 5135.00
15.0949 5259.00
15.1601 5378.00
15.2253 5352.00
15.2905 5319.00
15.3557 5386.00
15.4209 5293.00
15.4861 5239.00
15.5513 5238.00
15.6165 5099.00
15.6817 5255.00
15.7469 5359.00
15.8121 5271.00
15.8773 5422.00
15.9425 5401.00
16.0077 5269.00
16.0729 5479.00
16.1381 5256.00
16.2033 5325.00
16.2685 5274.00
16.3337 5312.00
16.3989 5384.00
16.4641 5303.00
16.5293 5303.00
16.5945 5501.00
16.6597 5401.00
16.7249 5323.00
16.7901 5452.00
16.8553 5332.00
16.9205 5422.00
16.9857 5317.00
17.0509 5381.00
17.1161 5461.00
17.1813 5447.00
17.2465 5363.00
17.3117 5425.00
17.3769 5399.00
17.4421 5468.00
17.5073 5789.00
17.5725 5943.00
17.6377 6192.00
17.7029 6698.00
17.7681 6127.00
17.8333 5509.00
17.8985 5563.00
17.9637 5552.00
18.0289 5401.00
18.0941 5366.00
18.1593 5469.00
18.2245 5564.00
18.2897 5460.00
18.3549 5450.00
18.4201 5418.00
18.4853 5369.00
18.5505 5474.00
18.6157 5338.00
18.6809 5421.00
18.7461 5752.00
18.8112 5488.00
18.8764 5531.00
18.9416 5615.00
19.0068 5575.00
19.072 5610.00
19.1372 5646.00
19.2024 5935.00
19.2676 6439.00
19.3328 6336.00
19.398 5538.00
19.4632 5536.00
19.5284 5511.00
19.5936 5410.00
19.6588 5389.00
19.724 5352.00
19.7892 5473.00
19.8544 5517.00
19.9196 5489.00
19.9848 5377.00
20.05 5330.00
20.1152 5606.00
20.1804 5417.00
20.2456 5453.00
20.3108 5513.00
20.376 5408.00
20.4412 5475.00
20.5064 5419.00
20.5716 5561.00
20.6368 5338.00
20.702 5425.00
20.7672 5498.00
20.8324 5412.00
20.8976 5468.00
20.9628 5383.00
21.028 5521.00
21.0932 5494.00
21.1584 5581.00
21.2236 5555.00
21.2888 5455.00
21.354 5512.00
21.4192 5515.00
21.4844 5489.00
21.5496 5404.00
21.6148 5401.00
21.68 5505.00
21.7452 5515.00
21.8104 5470.00
21.8756 5459.00
21.9408 5479.00
22.006 5479.00
22.0712 5427.00
22.1364 5538.00
22.2016 5465.00
22.2668 5428.00
22.332 5501.00
22.3972 5415.00
22.4624 5463.00
22.5276 5359.00
22.5928 5544.00
22.658 5554.00
22.7232 5352.00
22.7884 5432.00
22.8536 5521.00
22.9188 5526.00
22.984 5473.00
23.0492 5544.00
23.1144 5546.00
23.1796 5546.00
23.2448 5544.00
23.31 5442.00
23.3752 5603.00
23.4404 5555.00
23.5056 5621.00
23.5708 5490.00
23.6359 5613.00
23.7011 5647.00
23.7663 5666.00
23.8315 5751.00
23.8967 5884.00
23.9619 6504.00
24.0271 7865.00
24.0923 11053.00
24.1575 16021.00
24.2227 11112.00
24.2879 6527.00
24.3531 5723.00
24.4183 5539.00
24.4835 5565.00
24.5487 5549.00
24.6139 5510.00
24.6791 5528.00
24.7443 5433.00
24.8095 5440.00
24.8747 5381.00
24.9399 5534.00
25.0051 5457.00
25.0703 5553.00
25.1355 5494.00
25.2007 5606.00
25.2659 5438.00
25.3311 5621.00
25.3963 5529.00
25.4615 5465.00
25.5267 5531.00
25.5919 5441.00
25.6571 5546.00
25.7223 5598.00
25.7875 5524.00
25.8527 5491.00
25.9179 5431.00
25.9831 5492.00
26.0483 5619.00
26.1135 5470.00
26.1787 5560.00
26.2439 5513.00
26.3091 5576.00
26.3743 5589.00
26.4395 5537.00
26.5047 5542.00
26.5699 5663.00
26.6351 5529.00
26.7003 5177.00
26.7655 5517.00
26.8307 5399.00
26.8959 5559.00
26.9611 5502.00
27.0263 5438.00
27.0915 5527.00
27.1567 5463.00
27.2219 5563.00
27.2871 5471.00
27.3523 5575.00
27.4175 5576.00
27.4827 5587.00
27.5479 5506.00
27.6131 5434.00
27.6783 5435.00
27.7435 5545.00
27.8087 5658.00
27.8739 5395.00
27.9391 5462.00
28.0043 5494.00
28.0695 5493.00
28.1347 5632.00
28.1999 5461.00
28.2651 5561.00
28.3303 5461.00
28.3955 5536.00
28.4606 5540.00
28.5258 5492.00
28.591 5591.00
28.6562 5419.00
28.7214 5468.00
28.7866 5699.00
28.8518 5461.00
28.917 5496.00
28.9822 5465.00
29.0474 5548.00
29.1126 5468.00
29.1778 5491.00
29.243 5466.00
29.3082 5476.00
29.3734 5565.00
29.4386 5377.00
29.5038 5579.00
29.569 5354.00
29.6342 5493.00
29.6994 5494.00
29.7646 5555.00
29.8298 5564.00
29.895 6036.00
29.9602 6565.00
30.0254 6373.00
30.0906 5742.00
30.1558 5494.00
30.221 5552.00
30.2862 5605.00
30.3514 5450.00
30.4166 5512.00
30.4818 5661.00
30.547 5719.00
30.6122 5535.00
30.6774 5540.00
30.7426 5676.00
30.8078 6041.00
30.873 7145.00
30.9382 9483.00
31.0034 13994.00
31.0686 10693.00
31.1338 7549.00
31.199 5797.00
31.2642 5753.00
31.3294 5721.00
31.3946 6020.00
31.4598 6501.00
31.525 7498.00
31.5902 7782.00
31.6554 6781.00
31.7206 5906.00
31.7858 5651.00
31.851 5710.00
31.9162 5541.00
31.9814 5563.00
32.0466 5535.00
32.1118 5396.00
32.177 5548.00
32.2422 5533.00
32.3074 5480.00
32.3726 5348.00
32.4378 5496.00
32.503 5440.00
32.5682 5446.00
32.6334 5519.00
32.6986 5455.00
32.7638 5508.00
32.829 5486.00
32.8942 5525.00
32.9594 5503.00
33.0246 5494.00
33.0898 5513.00
33.1549 5517.00
33.2201 5615.00
33.2853 5477.00
33.3505 5480.00
33.4157 5495.00
33.4809 5516.00
33.5461 5522.00
33.6113 5478.00
33.6765 5427.00
33.7417 5559.00
33.8069 5460.00
33.8721 5632.00
33.9373 5551.00
34.0025 5469.00
34.0677 5520.00
34.1329 5831.00
34.1981 6379.00
34.2633 7569.00
34.3285 7183.00
34.3937 6309.00
34.4589 5737.00
34.5241 5502.00
34.5893 5488.00
34.6545 5600.00
34.7197 5565.00
34.7849 5536.00
34.8501 5556.00
34.9153 5336.00
34.9805 5534.00
35.0457 5537.00
35.1109 5476.00
35.1761 5408.00
35.2413 5558.00
35.3065 5479.00
35.3717 5677.00
35.4369 5657.00
35.5021 6305.00
35.5673 5986.00
35.6325 5691.00
35.6977 5677.00
35.7629 5631.00
35.8281 5534.00
35.8933 5536.00
35.9585 5443.00
36.0237 5507.00
36.0889 5676.00
36.1541 5699.00
36.2193 5518.00
36.2845 5585.00
36.3497 5508.00
36.4149 5554.00
36.4801 5470.00
36.5453 5479.00
36.6105 5713.00
36.6757 5750.00
36.7409 5714.00
36.8061 5739.00
36.8713 5983.00
36.9365 6358.00
37.0017 7394.00
37.0669 9806.00
37.1321 12927.00
37.1973 10673.00
37.2625 8424.00
37.3277 6578.00
37.3929 5892.00
37.4581 5729.00
37.5233 5832.00
37.5885 5590.00
37.6537 5642.00
37.7189 5605.00
37.7841 5578.00
37.8493 5598.00
37.9145 5508.00
37.9796 5481.00
38.0448 5636.00
38.11 5552.00
38.1752 5518.00
38.2404 5434.00
38.3056 5761.00
38.3708 5557.00
38.436 5925.00
38.5012 5668.00
38.5664 5820.00
38.6316 6162.00
38.6968 6944.00
38.762 6781.00
38.8272 6818.00
38.8924 6014.00
38.9576 5809.00
39.0228 5692.00
39.088 5626.00
39.1532 5575.00
39.2184 5430.00
39.2836 5436.00
39.3488 5437.00
39.414 5383.00
39.4792 5610.00
39.5444 5533.00
39.6096 5527.00
39.6748 5463.00
39.74 5539.00
39.8052 5350.00
39.8704 5440.00
39.9356 5435.00
40.0008 5397.00
40.066 5563.00
40.1312 5456.00
40.1964 5360.00
40.2616 5475.00
40.3268 5520.00
40.392 5495.00
40.4572 5603.00
40.5224 5530.00
40.5876 5530.00
40.6528 5379.00
40.718 5494.00
40.7832 5529.00
40.8484 5857.00
40.9136 6003.00
40.9788 5748.00
41.044 5561.00
41.1092 5535.00
41.1744 5400.00
41.2396 5447.00
41.3048 5422.00
41.37 5534.00
41.4352 5529.00
41.5004 5437.00
41.5656 5581.00
41.6308 5424.00
41.696 5562.00
41.7612 5436.00
41.8264 5390.00
41.8916 5364.00
41.9568 5443.00
42.022 5554.00
42.0872 5561.00
42.1524 5525.00
42.2176 5405.00
42.2828 5444.00
42.348 5448.00
42.4132 5395.00
42.4784 5470.00
42.5436 5610.00
42.6088 5444.00
42.6739 5547.00
42.7392 5536.00
42.8043 5524.00
42.8695 5434.00
42.9347 5525.00
42.9999 5435.00
43.0651 5492.00
43.1303 5478.00
43.1955 5426.00
43.2607 5505.00
43.3259 5471.00
43.3911 5428.00
43.4563 5491.00
43.5215 5362.00
43.5867 5448.00
43.6519 5541.00
43.7171 5454.00
43.7823 5469.00
43.8475 5583.00
43.9127 5392.00
43.9779 5512.00
44.0431 5355.00
44.1083 5351.00
44.1735 5451.00
44.2387 5545.00
44.3039 5332.00
44.3691 5540.00
44.4343 5334.00
44.4995 5410.00
44.5647 5528.00
44.6299 5424.00
44.6951 5373.00
44.7603 5538.00
44.8255 5475.00
44.8907 5691.00
44.9559 5876.00
45.0211 6518.00
45.0863 6909.00
45.1515 6471.00
45.2167 6213.00
45.2819 5754.00
45.3471 5632.00
45.4123 5501.00
45.4775 5594.00
45.5427 5469.00
45.6079 5356.00
45.6731 5488.00
45.7383 5517.00
45.8035 5628.00
45.8687 5548.00
45.9339 5833.00
45.9991 6615.00
46.0643 6126.00
46.1295 5990.00
46.1947 5856.00
46.2599 5500.00
46.3251 5442.00
46.3903 5495.00
46.4555 5462.00
46.5207 5668.00
46.5859 5819.00
46.6511 6599.00
46.7163 9511.00
46.7815 8650.00
46.8467 8047.00
46.9119 6630.00
46.9771 5699.00
47.0423 5527.00
47.1075 5446.00
47.1727 5523.00
47.2379 5490.00
47.3031 5425.00
47.3683 5470.00
47.4335 5591.00
47.4986 5366.00
47.5639 5528.00
47.629 5495.00
47.6942 5527.00
47.7594 5458.00
47.8246 5479.00
47.8898 5778.00
47.955 5906.00
48.0202 5594.00
48.0854 5781.00
48.1506 5377.00
48.2158 5442.00
48.281 5400.00
48.3462 5465.00
48.4114 5465.00
48.4766 5425.00
48.5418 5408.00
48.607 5518.00
48.6722 5646.00
48.7374 5503.00
48.8026 5429.00
48.8678 5540.00
48.933 5377.00
48.9982 5454.00
49.0634 5616.00
49.1286 5603.00
49.1938 5505.00
49.259 5595.00
49.3242 5424.00
49.3894 5470.00
49.4546 5482.00
49.5198 5479.00
49.585 5441.00
49.6502 5540.00
49.7154 5352.00
49.7806 5459.00
49.8458 5420.00
49.911 5399.00
49.9762 5514.00
50.0414 5441.00
50.1066 5492.00
50.1718 5415.00
50.237 5479.00
50.3022 5494.00
50.3674 5440.00
50.4326 5578.00
50.4978 5440.00
50.563 5441.00
50.6282 5336.00
50.6934 5445.00
50.7586 5340.00
50.8238 5436.00
50.889 5570.00
50.9542 5420.00
51.0194 5272.00
51.0846 5539.00
51.1498 5470.00
51.215 5551.00
51.2802 5528.00
51.3454 5502.00
51.4106 5494.00
51.4758 5492.00
51.541 5445.00
51.6062 5536.00
51.6714 5433.00
51.7366 5363.00
51.8018 5449.00
51.867 5366.00
51.9322 5406.00
51.9974 5502.00
52.0626 5354.00
52.1278 5454.00
52.193 5509.00
52.2582 5493.00
52.3233 5640.00
52.3886 5413.00
52.4537 5572.00
52.5189 5628.00
52.5841 5503.00
52.6493 5463.00
52.7145 5446.00
52.7797 5521.00
52.8449 5410.00
52.9101 5385.00
52.9753 5471.00
53.0405 5337.00
53.1057 5458.00
53.1709 5464.00
53.2361 5341.00
53.3013 5477.00
53.3665 5446.00
53.4317 5602.00
53.4969 5326.00
53.5621 5515.00
53.6273 5370.00
53.6925 5561.00
53.7577 5549.00
53.8229 5348.00
53.8881 5524.00
53.9533 5476.00
54.0185 5452.00
54.0837 5479.00
54.1489 5523.00
54.2141 5382.00
54.2793 5480.00
54.3445 5498.00
54.4097 5445.00
54.4749 5370.00
54.5401 5537.00
54.6053 5492.00
54.6705 5341.00
54.7357 5258.00
54.8009 5545.00
54.8661 5286.00
54.9313 5517.00
54.9965 5472.00
55.0617 5415.00
55.1269 5572.00
55.1921 5663.00
55.2573 5698.00
55.3225 6184.00
55.3877 5802.00
55.4529 6015.00
55.5181 5768.00
55.5833 5506.00
55.6485 5507.00
55.7137 5544.00
55.7789 5478.00
55.8441 5806.00
55.9093 6007.00
55.9745 5775.00
56.0397 5713.00
56.1049 5590.00
56.1701 5546.00
56.2353 5477.00
56.3005 5551.00
56.3657 5465.00
56.4309 5362.00
56.4961 5257.00
56.5613 5479.00
56.6265 5462.00
56.6917 5485.00
56.7569 5465.00
56.8221 5296.00
56.8873 5344.00
56.9525 5481.00
57.0177 5479.00
57.0829 5436.00
57.148 5507.00
57.2132 5450.00
57.2784 5383.00
57.3436 5423.00
57.4088 5436.00
57.474 5454.00
57.5392 5453.00
57.6044 5420.00
57.6696 5657.00
57.7348 5538.00
57.8 5501.00
57.8652 5394.00
57.9304 5350.00
57.9956 5447.00
58.0608 5465.00
58.126 5440.00
58.1912 5459.00
58.2564 5500.00
58.3216 5428.00
58.3868 5433.00
58.452 5587.00
58.5172 5414.00
58.5824 5734.00
58.6476 6243.00
58.7128 5657.00
58.778 5850.00
58.8432 5808.00
58.9084 5522.00
58.9736 5663.00
59.0388 6117.00
59.104 6244.00
59.1692 5830.00
59.2344 5950.00
59.2996 5634.00
59.3648 5691.00
59.43 5762.00
59.4952 6229.00
59.5604 6875.00
59.6256 7339.00
59.6908 6725.00
59.756 6534.00
59.8212 6235.00
59.8864 5891.00
59.9516 5849.00
60.0168 5685.00
60.082 5825.00
60.1472 5614.00
60.2124 5645.00
60.2776 5591.00
60.3428 5455.00
60.408 5494.00
60.4732 5281.00
60.5384 5644.00
60.6036 5450.00
60.6688 5467.00
60.734 5352.00
60.7992 5411.00
60.8644 5496.00
60.9296 5454.00
60.9948 5390.00
61.06 5435.00
61.1252 5475.00
61.1904 5492.00
61.2556 5393.00
61.3208 5510.00
61.386 5566.00
61.4512 5357.00
61.5164 5397.00
61.5816 5369.00
61.6468 5556.00
61.712 5459.00
61.7772 5506.00
61.8424 5470.00
61.9076 5470.00
61.9727 5532.00
62.0379 5498.00
62.1031 5627.00
62.1683 5331.00
62.2335 5294.00
62.2987 5503.00
62.3639 5317.00
62.4291 5353.00
62.4943 5392.00
62.5595 5431.00
62.6247 5352.00
62.6899 5447.00
62.7551 5419.00
62.8203 5412.00
62.8855 5368.00
62.9507 5452.00
63.0159 5421.00
63.0811 5235.00
63.1463 5370.00
63.2115 5405.00
63.2767 5405.00
63.3419 5431.00
63.4071 5534.00
63.4723 5446.00
63.5375 5487.00
63.6027 5454.00
63.6679 5414.00
63.7331 5390.00
63.7983 5505.00
63.8635 5436.00
63.9287 5465.00
63.9939 5543.00
64.0591 5630.00
64.1243 5630.00
64.1895 5911.00
64.2547 6108.00
64.3199 5576.00
64.3851 5999.00
64.4503 5668.00
64.5155 5547.00
64.5807 5438.00
64.6459 5442.00
64.7111 5447.00
64.7763 5407.00
64.8415 5500.00
64.9067 5465.00
64.9719 5613.00
65.0371 5612.00
65.1023 5438.00
65.1675 5615.00
65.2327 5747.00
65.2979 5873.00
65.3631 6331.00
65.4283 6992.00
65.4935 7744.00
65.5587 6866.00
65.6239 6822.00
65.6891 6633.00
65.7543 6052.00
65.8195 5721.00
65.8847 5521.00
65.9499 5639.00
66.0151 5447.00
66.0803 5509.00
66.1455 5303.00
66.2107 5536.00
66.2759 5592.00
66.3411 5496.00
66.4063 5333.00
66.4715 5418.00
66.5367 5522.00
66.6019 5366.00
66.6671 5576.00
66.7322 5418.00
66.7974 5328.00
66.8626 5482.00
66.9278 5495.00
66.993 5413.00
67.0582 5364.00
67.1234 5521.00
67.1886 5412.00
67.2538 5385.00
67.319 5412.00
67.3842 5500.00
67.4494 5488.00
67.5146 5596.00
67.5798 5465.00
67.645 5436.00
67.7102 5484.00
67.7754 5548.00
67.8406 5600.00
67.9058 5288.00
67.971 5401.00
68.0362 5328.00
68.1014 5445.00
68.1666 5488.00
68.2318 5485.00
68.297 5513.00
68.3622 5432.00
68.4274 5367.00
68.4926 5249.00
68.5578 5573.00
68.623 5554.00
68.6882 5572.00
68.7534 5566.00
68.8186 5601.00
68.8838 5637.00
68.949 5517.00
69.0142 5379.00
69.0794 5228.00
69.1446 5530.00
69.2098 5441.00
69.275 5431.00
69.3402 5523.00
69.4054 5472.00
69.4706 5514.00
69.5358 5515.00
69.601 5403.00
69.6662 5456.00
69.7314 5415.00
69.7966 5587.00
69.8618 5794.00
69.927 6257.00
69.9922 5915.00
70.0574 5607.00
70.1226 5874.00
70.1878 5479.00
70.253 5445.00
70.3182 5624.00
70.3834 5519.00
70.4486 5443.00
70.5138 5443.00
70.579 5463.00
70.6442 5392.00
70.7094 5510.00
70.7746 5466.00
70.8398 5448.00
70.905 5417.00
70.9702 5379.00
71.0354 5336.00
71.1006 5550.00
71.1658 5540.00
71.231 5534.00
71.2962 5507.00
71.3614 5408.00
71.4266 5572.00
71.4918 5362.00
71.5569 5566.00
71.6221 5525.00
71.6873 5541.00
71.7525 5595.00
71.8177 5765.00
71.8829 5451.00
71.9481 5470.00
72.0133 5567.00
72.0785 5511.00
72.1437 5486.00
72.2089 5442.00
72.2741 5369.00
72.3393 5445.00
72.4045 5456.00
72.4697 5333.00
72.5349 5469.00
72.6001 5494.00
72.6653 5561.00
72.7305 5382.00
72.7957 5489.00
72.8609 5374.00
72.9261 5359.00
72.9913 5471.00
73.0565 5491.00
73.1217 5455.00
73.1869 5488.00
73.2521 5414.00
73.3173 5382.00
73.3825 5418.00
73.4477 5314.00
73.5129 5328.00
73.5781 5320.00
73.6433 5516.00
73.7085 5370.00
73.7737 5548.00
73.8389 5496.00
73.9041 5549.00
73.9693 5382.00
74.0345 5470.00
74.0997 5478.00
74.1649 5570.00
74.2301 5623.00
74.2953 5525.00
74.3605 5692.00
74.4257 5542.00
74.4909 5571.00
74.5561 5731.00
74.6213 5572.00
74.6865 6128.00
74.7517 5699.00
74.8169 5639.00
74.8821 5642.00
74.9473 5763.00
75.0125 5599.00
75.0777 5335.00
75.1429 5526.00
75.2081 5565.00
75.2733 5514.00
75.3385 5541.00
75.4037 5530.00
75.4689 5466.00
75.5341 5551.00
75.5993 5381.00
75.6645 5483.00
75.7297 5428.00
75.7949 5364.00
75.8601 5492.00
75.9253 5412.00
75.9905 5487.00
76.0557 5467.00
76.1209 5571.00
76.186 5476.00
76.2513 5526.00
76.3165 5457.00
76.3816 5504.00
76.4468 5514.00
76.512 5429.00
76.5772 5435.00
76.6424 5539.00
76.7076 5406.00
76.7728 5576.00
76.838 5470.00
76.9032 5697.00
76.9684 5499.00
77.0336 5470.00
77.0988 5619.00
77.164 5487.00
77.2292 5609.00
77.2944 5506.00
77.3596 5612.00
77.4248 5486.00
77.49 5620.00
77.5552 5789.00
77.6204 5841.00
77.6856 5619.00
77.7508 5573.00
77.816 5591.00
77.8812 5511.00
77.9464 5621.00
78.0116 5513.00
78.0768 5453.00
78.142 5520.00
78.2072 5456.00
78.2724 5481.00
78.3376 5437.00
78.4028 5447.00
78.468 5467.00
78.5332 5565.00
78.5984 5746.00
78.6636 5714.00
78.7288 5556.00
78.794 5560.00
78.8592 5527.00
78.9244 5476.00
78.9896 5444.00
79.0548 5612.00
79.12 5442.00
79.1852 5378.00
79.2504 5486.00
79.3156 5453.00
79.3808 5487.00
79.446 5529.00
79.5112 5553.00
79.5764 5524.00
79.6416 5625.00
79.7068 6095.00
79.772 5657.00
79.8372 5651.00
79.9024 5703.00
79.9676 5896.00
80.0328 5837.00
80.098 6032.00
80.1632 5557.00
80.2284 5590.00
80.2936 5600.00
80.3588 5587.00
80.424 5618.00
80.4892 5443.00
80.5544 5359.00
80.6196 5448.00
80.6848 5380.00
80.75 5479.00
80.8152 5479.00
80.8804 5542.00
80.9456 5579.00
81.0108 5357.00
81.076 5498.00
81.1412 5479.00
81.2063 5461.00
81.2715 5381.00
81.3367 5317.00
81.4019 5411.00
81.4671 5382.00
81.5323 5425.00
81.5975 5292.00
81.6627 5361.00
81.7279 5452.00
81.7931 5633.00
81.8583 5842.00
81.9235 5511.00
81.9887 5442.00
82.0539 5570.00
82.1191 5711.00
82.1843 5493.00
82.2495 5570.00
82.3147 5563.00
82.3799 5342.00
82.4451 5507.00
82.5103 5476.00
82.5755 5571.00
82.6407 5459.00
82.7059 5455.00
82.7711 5435.00
82.8363 5739.00
82.9015 5499.00
82.9667 5580.00
83.0319 5487.00
83.0971 5407.00
83.1623 5381.00
83.2275 5490.00
83.2927 5396.00
83.3579 5491.00
83.4231 5538.00
83.4883 5490.00
83.5535 5511.00
83.6187 5422.00
83.6839 5427.00
83.7491 5443.00
83.8143 5450.00
83.8795 5552.00
83.9447 5514.00
84.0099 5407.00
84.0751 5475.00
84.1403 5581.00
84.2055 5435.00
84.2707 5283.00
84.3359 5304.00
84.4011 5381.00
84.4663 5451.00
84.5315 5518.00
84.5967 5421.00
84.6619 5407.00
84.7271 5395.00
84.7923 5421.00
84.8575 5484.00
84.9227 5348.00
84.9879 5500.00
85.0531 5333.00
85.1183 5410.00
85.1835 5456.00
85.2487 5541.00
85.3139 5481.00
85.3791 5534.00
85.4443 5484.00
85.5095 5421.00
85.5747 5336.00
85.6399 5502.00
85.7051 5803.00
85.7703 5611.00
85.8354 5424.00
85.9006 5703.00
85.9659 5539.00
86.031 5594.00
86.0962 5459.00
86.1614 5300.00
86.2266 5410.00
86.2918 5537.00
86.357 5453.00
86.4222 5406.00
86.4874 5460.00
86.5526 5404.00
86.6178 5438.00
86.683 5405.00
86.7482 5343.00
86.8134 5488.00
86.8786 5326.00
86.9438 5436.00
87.009 5458.00
87.0742 5498.00
87.1394 5476.00
87.2046 5443.00
87.2698 5415.00
87.335 5501.00
87.4002 5391.00
87.4654 5360.00
87.5306 5579.00
87.5958 5507.00
87.661 5489.00
87.7262 5357.00
87.7914 5487.00
87.8566 5539.00
87.9218 5572.00
87.987 5495.00
88.0522 5381.00
88.1174 5501.00
88.1826 5438.00
88.2478 5476.00
88.313 5287.00
88.3782 5312.00
88.4434 5434.00
88.5086 5421.00
88.5738 5530.00
88.639 5451.00
88.7042 5462.00
88.7694 5495.00
88.8346 5543.00
88.8998 5391.00
88.965 5617.00
89.0302 5547.00
89.0954 5355.00
89.1606 5405.00
89.2258 5532.00
89.291 5520.00
89.3562 5504.00
89.4214 5618.00
89.4866 5424.00
89.5518 5416.00
89.617 5414.00
89.6822 5481.00
89.7474 5567.00
89.8126 5518.00
89.8778 5326.00
89.943 5568.00
90.0082 5507.00
90.0734 5462.00
90.1386 5383.00
90.2038 5432.00
90.269 5415.00
90.3342 5359.00
90.3994 5385.00
90.4646 5304.00
90.5298 5563.00
90.595 5392.00
90.6601 5513.00
90.7253 5332.00
90.7905 5589.00
90.8557 5558.00
90.9209 5539.00
90.9861 5370.00
91.0513 5532.00
91.1165 5622.00
91.1817 5602.00
91.2469 5472.00
91.3121 5605.00
91.3773 5525.00
91.4425 5583.00
91.5077 5484.00
91.5729 5506.00
91.6381 5581.00
91.7033 5393.00
91.7685 5551.00
91.8337 5411.00
91.8989 5505.00
91.9641 5471.00
92.0293 5320.00
92.0945 5479.00
92.1597 5534.00
92.2249 5383.00
92.2901 5483.00
92.3553 5580.00
92.4205 5324.00
92.4857 5436.00
92.5509 5479.00
92.6161 5575.00
92.6813 5550.00
92.7465 5570.00
92.8117 5542.00
92.8769 5505.00
92.9421 5467.00
93.0073 5429.00
93.0725 5635.00
93.1377 5517.00
93.2029 5489.00
93.2681 5513.00
93.3333 5352.00
93.3985 5497.00
93.4637 5491.00
93.5289 5399.00
93.5941 5452.00
93.6593 5526.00
93.7245 5501.00
93.7897 5571.00
93.8549 5484.00
93.9201 5483.00
93.9853 5534.00
94.0505 5492.00
94.1157 5741.00
94.1809 5639.00
94.2461 5964.00
94.3113 5973.00
94.3765 5826.00
94.4417 5838.00
94.5069 5643.00
94.5721 5802.00
94.6373 5640.00
94.7025 5699.00
94.7677 5622.00
94.8329 5583.00
94.8981 5589.00
94.9633 5572.00
95.0285 5486.00
95.0937 5588.00
95.1589 5400.00
95.2241 5662.00
95.2893 5542.00
95.3545 5568.00
95.4197 5609.00
95.4848 5734.00
95.55 5442.00
95.6153 5481.00
95.6804 5472.00
95.7456 5564.00
95.8108 5736.00
95.876 5433.00
95.9412 5554.00
96.0064 5350.00
96.0716 5475.00
96.1368 5449.00
96.202 5482.00
96.2672 5519.00
96.3324 5417.00
96.3976 5526.00
96.4628 5453.00
96.528 5630.00
96.5932 5458.00
96.6584 5537.00
96.7236 5674.00
96.7888 5537.00
96.854 5637.00
96.9192 5503.00
96.9844 5622.00
97.0496 5363.00
97.1148 5404.00
97.18 5485.00
97.2452 5534.00
97.3104 5457.00
97.3756 5533.00
97.4408 5586.00
97.506 5513.00
97.5712 5616.00
97.6364 5461.00
97.7016 5560.00
97.7668 5453.00
97.832 5543.00
97.8972 5481.00
97.9624 5551.00
98.0276 5492.00
98.0928 5513.00
98.158 5442.00
98.2232 5437.00
98.2884 5453.00
98.3536 5378.00
98.4188 5484.00
98.484 5548.00
98.5492 5558.00
98.6144 5421.00
98.6796 5429.00
98.7448 5486.00
98.81 5471.00
98.8752 5462.00
98.9404 5504.00
99.0056 5520.00
99.0708 5510.00
99.136 5571.00
99.2012 5564.00
99.2664 5560.00
99.3316 5663.00
99.3968 5651.00
99.462 5718.00
99.5272 5742.00
99.5924 5610.00
99.6576 5816.00
99.7228 5862.00
99.788 5708.00
99.8532 5712.00
99.9184 5480.00
99.9836 5679.00
99.9944 5568.00