File: data/xrd_creation/results/PG_0922-1.xy
10.0094 7425.00
10.0746 7315.00
10.1398 7526.00
10.205 7323.00
10.2702 7592.00
10.3354 7568.00
10.4006 7666.00
10.4658 7583.00
10.531 7417.00
10.5962 7511.00
10.6614 7631.00
10.7266 7588.00
10.7918 7623.00
10.857 7606.00
10.9222 7678.00
10.9874 7606.00
11.0526 7604.00
11.1178 7690.00
11.183 7902.00
11.2482 7706.00
11.3134 7652.00
11.3786 7731.00
11.4438 7878.00
11.509 7901.00
11.5742 7904.00
11.6394 7763.00
11.7046 7805.00
11.7698 8093.00
11.835 7916.00
11.9002 7954.00
11.9654 8048.00
12.0306 8060.00
12.0958 7922.00
12.161 8001.00
12.2262 8019.00
12.2914 8107.00
12.3566 8185.00
12.4218 8057.00
12.487 8162.00
12.5522 8223.00
12.6174 8135.00
12.6826 8368.00
12.7478 8121.00
12.813 8292.00
12.8782 8095.00
12.9434 8160.00
13.0086 8210.00
13.0738 8265.00
13.139 8360.00
13.2042 8366.00
13.2694 8328.00
13.3346 8523.00
13.3998 8512.00
13.465 8441.00
13.5302 8603.00
13.5954 8528.00
13.6606 8670.00
13.7258 8609.00
13.791 8442.00
13.8562 8601.00
13.9214 8804.00
13.9865 8616.00
14.0517 8790.00
14.1169 8837.00
14.1821 8755.00
14.2473 8702.00
14.3125 8591.00
14.3777 8821.00
14.4429 9016.00
14.5081 8848.00
14.5733 8799.00
14.6385 9097.00
14.7037 8721.00
14.7689 9026.00
14.8341 8838.00
14.8993 9119.00
14.9645 9023.00
15.0297 8814.00
15.0949 8947.00
15.1601 9109.00
15.2253 9040.00
15.2905 9186.00
15.3557 9278.00
15.4209 9153.00
15.4861 9221.00
15.5513 8997.00
15.6165 9049.00
15.6817 9310.00
15.7469 9153.00
15.8121 9436.00
15.8773 9223.00
15.9425 9454.00
16.0077 9367.00
16.0729 9335.00
16.1381 9351.00
16.2033 9393.00
16.2685 9283.00
16.3337 9513.00
16.3989 9326.00
16.4641 9295.00
16.5293 9366.00
16.5945 9670.00
16.6597 9518.00
16.7249 9581.00
16.7901 9605.00
16.8553 9467.00
16.9205 9517.00
16.9857 9444.00
17.0509 9527.00
17.1161 9390.00
17.1813 9625.00
17.2465 9600.00
17.3117 9685.00
17.3769 9609.00
17.4421 9702.00
17.5073 9620.00
17.5725 9841.00
17.6377 9751.00
17.7029 9635.00
17.7681 9644.00
17.8333 9717.00
17.8985 9797.00
17.9637 9772.00
18.0289 9826.00
18.0941 9628.00
18.1593 9803.00
18.2245 9898.00
18.2897 9976.00
18.3549 9763.00
18.4201 9954.00
18.4853 9911.00
18.5505 9853.00
18.6157 9977.00
18.6809 9968.00
18.7461 9893.00
18.8112 9942.00
18.8764 9927.00
18.9416 10014.00
19.0068 10105.00
19.072 10213.00
19.1372 10453.00
19.2024 10747.00
19.2676 11496.00
19.3328 11813.00
19.398 10643.00
19.4632 10569.00
19.5284 10218.00
19.5936 10084.00
19.6588 10163.00
19.724 10130.00
19.7892 9998.00
19.8544 10342.00
19.9196 10137.00
19.9848 10065.00
20.05 10411.00
20.1152 10369.00
20.1804 10335.00
20.2456 10299.00
20.3108 10242.00
20.376 10492.00
20.4412 10212.00
20.5064 10265.00
20.5716 10510.00
20.6368 10315.00
20.702 10296.00
20.7672 10507.00
20.8324 10257.00
20.8976 10352.00
20.9628 10414.00
21.028 10281.00
21.0932 10404.00
21.1584 10466.00
21.2236 10464.00
21.2888 10373.00
21.354 10454.00
21.4192 10526.00
21.4844 10671.00
21.5496 10818.00
21.6148 11432.00
21.68 11172.00
21.7452 10569.00
21.8104 10309.00
21.8756 10437.00
21.9408 10529.00
22.006 10440.00
22.0712 10360.00
22.1364 10446.00
22.2016 10476.00
22.2668 10512.00
22.332 10448.00
22.3972 10798.00
22.4624 10608.00
22.5276 10552.00
22.5928 10503.00
22.658 10499.00
22.7232 10582.00
22.7884 10366.00
22.8536 10387.00
22.9188 10604.00
22.984 10698.00
23.0492 10593.00
23.1144 10628.00
23.1796 10842.00
23.2448 10591.00
23.31 10517.00
23.3752 10745.00
23.4404 10728.00
23.5056 10545.00
23.5708 10739.00
23.6359 10818.00
23.7011 10756.00
23.7663 10598.00
23.8315 10561.00
23.8967 10746.00
23.9619 10797.00
24.0271 10557.00
24.0923 10592.00
24.1575 10721.00
24.2227 10766.00
24.2879 10962.00
24.3531 10917.00
24.4183 10647.00
24.4835 10628.00
24.5487 10879.00
24.6139 10784.00
24.6791 10674.00
24.7443 10648.00
24.8095 10810.00
24.8747 10735.00
24.9399 10755.00
25.0051 10500.00
25.0703 10644.00
25.1355 10677.00
25.2007 10598.00
25.2659 10739.00
25.3311 10780.00
25.3963 10565.00
25.4615 10757.00
25.5267 10757.00
25.5919 10663.00
25.6571 10647.00
25.7223 10687.00
25.7875 10773.00
25.8527 10694.00
25.9179 11020.00
25.9831 10945.00
26.0483 10616.00
26.1135 10893.00
26.1787 10747.00
26.2439 10912.00
26.3091 10558.00
26.3743 10911.00
26.4395 10926.00
26.5047 10885.00
26.5699 11002.00
26.6351 10699.00
26.7003 11004.00
26.7655 10827.00
26.8307 10676.00
26.8959 10955.00
26.9611 10982.00
27.0263 10839.00
27.0915 10976.00
27.1567 10762.00
27.2219 10818.00
27.2871 10915.00
27.3523 10801.00
27.4175 10972.00
27.4827 10829.00
27.5479 11054.00
27.6131 10869.00
27.6783 11140.00
27.7435 10920.00
27.8087 11137.00
27.8739 10981.00
27.9391 10933.00
28.0043 10914.00
28.0695 10798.00
28.1347 10959.00
28.1999 10855.00
28.2651 10824.00
28.3303 10763.00
28.3955 11052.00
28.4606 10843.00
28.5258 10896.00
28.591 11202.00
28.6562 10909.00
28.7214 10976.00
28.7866 10952.00
28.8518 10842.00
28.917 11042.00
28.9822 10898.00
29.0474 10781.00
29.1126 11016.00
29.1778 10982.00
29.243 10921.00
29.3082 10872.00
29.3734 11082.00
29.4386 10987.00
29.5038 10932.00
29.569 10935.00
29.6342 11019.00
29.6994 11274.00
29.7646 11312.00
29.8298 11112.00
29.895 11229.00
29.9602 10955.00
30.0254 10975.00
30.0906 11084.00
30.1558 10678.00
30.221 10912.00
30.2862 11143.00
30.3514 10850.00
30.4166 11134.00
30.4818 11153.00
30.547 11109.00
30.6122 11150.00
30.6774 11223.00
30.7426 11235.00
30.8078 11553.00
30.873 11947.00
30.9382 11635.00
31.0034 11517.00
31.0686 11287.00
31.1338 11045.00
31.199 11096.00
31.2642 11151.00
31.3294 11269.00
31.3946 11553.00
31.4598 12146.00
31.525 13684.00
31.5902 14748.00
31.6554 13325.00
31.7206 11921.00
31.7858 11279.00
31.851 11263.00
31.9162 11400.00
31.9814 11635.00
32.0466 12305.00
32.1118 12272.00
32.177 11514.00
32.2422 11180.00
32.3074 11208.00
32.3726 11103.00
32.4378 10921.00
32.503 11177.00
32.5682 11119.00
32.6334 11219.00
32.6986 10855.00
32.7638 11126.00
32.829 11084.00
32.8942 11178.00
32.9594 11063.00
33.0246 11132.00
33.0898 10869.00
33.1549 11160.00
33.2201 11449.00
33.2853 10980.00
33.3505 11062.00
33.4157 11077.00
33.4809 10972.00
33.5461 11330.00
33.6113 10974.00
33.6765 11192.00
33.7417 11368.00
33.8069 11149.00
33.8721 11246.00
33.9373 11232.00
34.0025 11065.00
34.0677 11038.00
34.1329 11359.00
34.1981 11170.00
34.2633 11231.00
34.3285 11479.00
34.3937 11687.00
34.4589 11454.00
34.5241 11261.00
34.5893 11260.00
34.6545 11034.00
34.7197 11070.00
34.7849 11264.00
34.8501 11170.00
34.9153 11025.00
34.9805 11317.00
35.0457 11273.00
35.1109 11071.00
35.1761 11240.00
35.2413 11064.00
35.3065 11009.00
35.3717 11050.00
35.4369 11264.00
35.5021 11207.00
35.5673 11093.00
35.6325 11150.00
35.6977 11092.00
35.7629 11368.00
35.8281 11064.00
35.8933 11162.00
35.9585 11108.00
36.0237 11229.00
36.0889 11116.00
36.1541 11197.00
36.2193 11412.00
36.2845 11367.00
36.3497 11730.00
36.4149 11427.00
36.4801 11624.00
36.5453 11201.00
36.6105 11369.00
36.6757 11221.00
36.7409 11440.00
36.8061 11515.00
36.8713 11592.00
36.9365 12164.00
37.0017 13532.00
37.0669 17187.00
37.1321 22428.00
37.1973 20173.00
37.2625 16969.00
37.3277 13486.00
37.3929 12020.00
37.4581 11815.00
37.5233 11483.00
37.5885 11238.00
37.6537 11368.00
37.7189 11455.00
37.7841 11227.00
37.8493 11310.00
37.9145 11261.00
37.9796 11206.00
38.0448 11148.00
38.11 11021.00
38.1752 11333.00
38.2404 11170.00
38.3056 11107.00
38.3708 11208.00
38.436 11278.00
38.5012 11219.00
38.5664 11168.00
38.6316 11167.00
38.6968 11325.00
38.762 11720.00
38.8272 12216.00
38.8924 12240.00
38.9576 11853.00
39.0228 11225.00
39.088 11189.00
39.1532 11378.00
39.2184 11297.00
39.2836 11279.00
39.3488 11271.00
39.414 11384.00
39.4792 11329.00
39.5444 11153.00
39.6096 11381.00
39.6748 11324.00
39.74 11317.00
39.8052 11411.00
39.8704 11461.00
39.9356 11491.00
40.0008 11662.00
40.066 11337.00
40.1312 11456.00
40.1964 11300.00
40.2616 11273.00
40.3268 11219.00
40.392 11292.00
40.4572 11247.00
40.5224 11230.00
40.5876 11215.00
40.6528 11324.00
40.718 11175.00
40.7832 11185.00
40.8484 11204.00
40.9136 10999.00
40.9788 11158.00
41.044 11173.00
41.1092 11336.00
41.1744 11323.00
41.2396 11084.00
41.3048 11060.00
41.37 11206.00
41.4352 11111.00
41.5004 11273.00
41.5656 11214.00
41.6308 11376.00
41.696 11126.00
41.7612 11257.00
41.8264 11278.00
41.8916 11218.00
41.9568 11054.00
42.022 11356.00
42.0872 11283.00
42.1524 11030.00
42.2176 11200.00
42.2828 11383.00
42.348 11349.00
42.4132 11132.00
42.4784 11276.00
42.5436 11364.00
42.6088 11244.00
42.6739 11406.00
42.7392 11110.00
42.8043 11425.00
42.8695 11312.00
42.9347 11344.00
42.9999 11357.00
43.0651 11076.00
43.1303 11195.00
43.1955 11181.00
43.2607 11276.00
43.3259 11302.00
43.3911 11287.00
43.4563 11338.00
43.5215 11343.00
43.5867 11280.00
43.6519 11415.00
43.7171 11542.00
43.7823 11278.00
43.8475 11388.00
43.9127 11286.00
43.9779 11271.00
44.0431 11180.00
44.1083 11334.00
44.1735 11270.00
44.2387 11435.00
44.3039 11044.00
44.3691 11187.00
44.4343 11235.00
44.4995 11319.00
44.5647 11159.00
44.6299 11191.00
44.6951 11325.00
44.7603 11335.00
44.8255 11327.00
44.8907 11526.00
44.9559 11715.00
45.0211 12409.00
45.0863 13462.00
45.1515 12960.00
45.2167 12520.00
45.2819 11905.00
45.3471 11605.00
45.4123 11490.00
45.4775 11358.00
45.5427 11255.00
45.6079 11326.00
45.6731 11392.00
45.7383 11302.00
45.8035 11247.00
45.8687 11222.00
45.9339 11186.00
45.9991 11327.00
46.0643 11205.00
46.1295 11216.00
46.1947 11214.00
46.2599 11253.00
46.3251 11184.00
46.3903 11130.00
46.4555 11096.00
46.5207 11049.00
46.5859 11144.00
46.6511 11203.00
46.7163 11285.00
46.7815 11161.00
46.8467 11279.00
46.9119 11241.00
46.9771 11327.00
47.0423 11186.00
47.1075 11054.00
47.1727 11296.00
47.2379 11152.00
47.3031 11320.00
47.3683 11347.00
47.4335 11211.00
47.4986 11221.00
47.5639 11144.00
47.629 11197.00
47.6942 11292.00
47.7594 11191.00
47.8246 11220.00
47.8898 11264.00
47.955 11101.00
48.0202 11094.00
48.0854 11223.00
48.1506 11125.00
48.2158 11264.00
48.281 11367.00
48.3462 11287.00
48.4114 11106.00
48.4766 11119.00
48.5418 11382.00
48.607 11201.00
48.6722 11105.00
48.7374 11232.00
48.8026 11275.00
48.8678 11397.00
48.933 11135.00
48.9982 11543.00
49.0634 11607.00
49.1286 11185.00
49.1938 11284.00
49.259 11247.00
49.3242 11225.00
49.3894 11214.00
49.4546 11305.00
49.5198 11224.00
49.585 11304.00
49.6502 11191.00
49.7154 11179.00
49.7806 11062.00
49.8458 11165.00
49.911 11339.00
49.9762 10900.00
50.0414 11186.00
50.1066 11085.00
50.1718 11175.00
50.237 11191.00
50.3022 11067.00
50.3674 11126.00
50.4326 11067.00
50.4978 11072.00
50.563 11218.00
50.6282 11159.00
50.6934 10910.00
50.7586 11042.00
50.8238 11276.00
50.889 11170.00
50.9542 11226.00
51.0194 11044.00
51.0846 11264.00
51.1498 11266.00
51.215 11281.00
51.2802 11258.00
51.3454 11061.00
51.4106 11190.00
51.4758 11326.00
51.541 11047.00
51.6062 11103.00
51.6714 11121.00
51.7366 11023.00
51.8018 10948.00
51.867 11298.00
51.9322 11119.00
51.9974 11089.00
52.0626 11217.00
52.1278 11131.00
52.193 11264.00
52.2582 11307.00
52.3233 11168.00
52.3886 11355.00
52.4537 11222.00
52.5189 11063.00
52.5841 11227.00
52.6493 11156.00
52.7145 11236.00
52.7797 11190.00
52.8449 11166.00
52.9101 11200.00
52.9753 11130.00
53.0405 11030.00
53.1057 11148.00
53.1709 11082.00
53.2361 11233.00
53.3013 11353.00
53.3665 11260.00
53.4317 11132.00
53.4969 10979.00
53.5621 11166.00
53.6273 11266.00
53.6925 11156.00
53.7577 11115.00
53.8229 11203.00
53.8881 11192.00
53.9533 11218.00
54.0185 11029.00
54.0837 11153.00
54.1489 11215.00
54.2141 11212.00
54.2793 11206.00
54.3445 10971.00
54.4097 11124.00
54.4749 11214.00
54.5401 11338.00
54.6053 11262.00
54.6705 11275.00
54.7357 11344.00
54.8009 11187.00
54.8661 11129.00
54.9313 11226.00
54.9965 11136.00
55.0617 11232.00
55.1269 11167.00
55.1921 11285.00
55.2573 11136.00
55.3225 11228.00
55.3877 11222.00
55.4529 11074.00
55.5181 11170.00
55.5833 11322.00
55.6485 11331.00
55.7137 11352.00
55.7789 11442.00
55.8441 11664.00
55.9093 11864.00
55.9745 11838.00
56.0397 11671.00
56.1049 11739.00
56.1701 11447.00
56.2353 11218.00
56.3005 11087.00
56.3657 11327.00
56.4309 11283.00
56.4961 11138.00
56.5613 11189.00
56.6265 11101.00
56.6917 11262.00
56.7569 11259.00
56.8221 11175.00
56.8873 11225.00
56.9525 10830.00
57.0177 11284.00
57.0829 11236.00
57.148 11194.00
57.2132 11099.00
57.2784 11322.00
57.3436 11000.00
57.4088 11312.00
57.474 11014.00
57.5392 10951.00
57.6044 11077.00
57.6696 11288.00
57.7348 11155.00
57.8 10966.00
57.8652 11199.00
57.9304 11154.00
57.9956 11108.00
58.0608 11141.00
58.126 11403.00
58.1912 11018.00
58.2564 11209.00
58.3216 11229.00
58.3868 11297.00
58.452 11357.00
58.5172 11268.00
58.5824 11393.00
58.6476 11223.00
58.7128 11334.00
58.778 11054.00
58.8432 11204.00
58.9084 11237.00
58.9736 11336.00
59.0388 11168.00
59.104 11517.00
59.1692 11230.00
59.2344 11367.00
59.2996 11260.00
59.3648 11441.00
59.43 11704.00
59.4952 12134.00
59.5604 13132.00
59.6256 14277.00
59.6908 13442.00
59.756 13017.00
59.8212 12729.00
59.8864 11997.00
59.9516 11717.00
60.0168 11571.00
60.082 11316.00
60.1472 11489.00
60.2124 11390.00
60.2776 11286.00
60.3428 11348.00
60.408 11289.00
60.4732 11187.00
60.5384 11151.00
60.6036 11252.00
60.6688 11209.00
60.734 11263.00
60.7992 11014.00
60.8644 11209.00
60.9296 11218.00
60.9948 11073.00
61.06 11239.00
61.1252 11369.00
61.1904 11148.00
61.2556 11180.00
61.3208 11149.00
61.386 11375.00
61.4512 11087.00
61.5164 11268.00
61.5816 11160.00
61.6468 11176.00
61.712 11334.00
61.7772 11381.00
61.8424 11341.00
61.9076 10945.00
61.9727 10946.00
62.0379 11042.00
62.1031 11251.00
62.1683 11184.00
62.2335 11336.00
62.2987 11261.00
62.3639 10970.00
62.4291 11322.00
62.4943 10947.00
62.5595 11230.00
62.6247 11319.00
62.6899 11313.00
62.7551 11159.00
62.8203 11408.00
62.8855 11184.00
62.9507 11325.00
63.0159 11296.00
63.0811 11218.00
63.1463 11364.00
63.2115 11331.00
63.2767 11278.00
63.3419 11229.00
63.4071 11187.00
63.4723 11259.00
63.5375 11234.00
63.6027 11286.00
63.6679 11148.00
63.7331 11267.00
63.7983 10917.00
63.8635 11300.00
63.9287 11053.00
63.9939 11282.00
64.0591 11086.00
64.1243 11107.00
64.1895 11173.00
64.2547 11326.00
64.3199 11156.00
64.3851 11365.00
64.4503 11375.00
64.5155 11218.00
64.5807 10964.00
64.6459 11299.00
64.7111 10995.00
64.7763 11245.00
64.8415 11361.00
64.9067 11311.00
64.9719 11281.00
65.0371 11249.00
65.1023 11355.00
65.1675 11280.00
65.2327 11575.00
65.2979 11413.00
65.3631 12195.00
65.4283 13212.00
65.4935 14849.00
65.5587 13728.00
65.6239 13350.00
65.6891 13576.00
65.7543 12374.00
65.8195 11963.00
65.8847 11492.00
65.9499 11552.00
66.0151 11354.00
66.0803 11146.00
66.1455 11399.00
66.2107 11278.00
66.2759 11254.00
66.3411 11042.00
66.4063 11306.00
66.4715 11252.00
66.5367 11261.00
66.6019 11391.00
66.6671 11293.00
66.7322 11274.00
66.7974 11387.00
66.8626 11099.00
66.9278 11205.00
66.993 11140.00
67.0582 11328.00
67.1234 11331.00
67.1886 11243.00
67.2538 11313.00
67.319 11393.00
67.3842 11175.00
67.4494 11267.00
67.5146 11293.00
67.5798 11277.00
67.645 11471.00
67.7102 11049.00
67.7754 11126.00
67.8406 11091.00
67.9058 11410.00
67.971 11035.00
68.0362 11216.00
68.1014 11264.00
68.1666 11313.00
68.2318 11047.00
68.297 11291.00
68.3622 11277.00
68.4274 11109.00
68.4926 11303.00
68.5578 11285.00
68.623 11250.00
68.6882 11119.00
68.7534 11186.00
68.8186 11181.00
68.8838 11372.00
68.949 11226.00
69.0142 11085.00
69.0794 11348.00
69.1446 11276.00
69.2098 11113.00
69.275 11124.00
69.3402 11328.00
69.4054 11366.00
69.4706 11298.00
69.5358 11224.00
69.601 11012.00
69.6662 11294.00
69.7314 11116.00
69.7966 11275.00
69.8618 11222.00
69.927 11335.00
69.9922 11316.00
70.0574 10991.00
70.1226 11225.00
70.1878 11321.00
70.253 11299.00
70.3182 11272.00
70.3834 11264.00
70.4486 11345.00
70.5138 11093.00
70.579 11141.00
70.6442 11392.00
70.7094 11336.00
70.7746 11210.00
70.8398 11464.00
70.905 11310.00
70.9702 11220.00
71.0354 11294.00
71.1006 11290.00
71.1658 11194.00
71.231 11057.00
71.2962 11215.00
71.3614 11044.00
71.4266 11235.00
71.4918 11133.00
71.5569 11293.00
71.6221 11054.00
71.6873 11167.00
71.7525 11229.00
71.8177 11186.00
71.8829 11053.00
71.9481 11179.00
72.0133 11125.00
72.0785 11237.00
72.1437 11281.00
72.2089 11407.00
72.2741 11366.00
72.3393 11217.00
72.4045 11305.00
72.4697 11173.00
72.5349 11239.00
72.6001 11184.00
72.6653 11174.00
72.7305 11277.00
72.7957 11015.00
72.8609 11142.00
72.9261 11074.00
72.9913 11247.00
73.0565 11156.00
73.1217 11398.00
73.1869 11345.00
73.2521 11273.00
73.3173 11117.00
73.3825 11309.00
73.4477 11175.00
73.5129 11365.00
73.5781 11210.00
73.6433 11340.00
73.7085 11306.00
73.7737 11043.00
73.8389 11366.00
73.9041 11203.00
73.9693 11296.00
74.0345 11256.00
74.0997 11120.00
74.1649 11276.00
74.2301 11552.00
74.2953 11429.00
74.3605 11478.00
74.4257 11323.00
74.4909 11251.00
74.5561 11308.00
74.6213 11242.00
74.6865 11512.00
74.7517 11346.00
74.8169 11304.00
74.8821 11187.00
74.9473 11043.00
75.0125 11089.00
75.0777 11036.00
75.1429 11223.00
75.2081 11289.00
75.2733 11296.00
75.3385 11418.00
75.4037 11227.00
75.4689 11212.00
75.5341 11215.00
75.5993 11333.00
75.6645 11389.00
75.7297 11046.00
75.7949 11267.00
75.8601 11230.00
75.9253 11319.00
75.9905 11267.00
76.0557 11195.00
76.1209 11259.00
76.186 11200.00
76.2513 11240.00
76.3165 11371.00
76.3816 11247.00
76.4468 11061.00
76.512 11106.00
76.5772 11242.00
76.6424 11349.00
76.7076 11050.00
76.7728 11397.00
76.838 11273.00
76.9032 11383.00
76.9684 11208.00
77.0336 11306.00
77.0988 11024.00
77.164 11337.00
77.2292 11012.00
77.2944 11305.00
77.3596 11396.00
77.4248 11299.00
77.49 11460.00
77.5552 11846.00
77.6204 11936.00
77.6856 11399.00
77.7508 11680.00
77.816 11664.00
77.8812 11402.00
77.9464 11452.00
78.0116 11468.00
78.0768 11131.00
78.142 11204.00
78.2072 11173.00
78.2724 11320.00
78.3376 11271.00
78.4028 11226.00
78.468 11461.00
78.5332 11284.00
78.5984 11577.00
78.6636 11360.00
78.7288 11255.00
78.794 11478.00
78.8592 11283.00
78.9244 11315.00
78.9896 11352.00
79.0548 11313.00
79.12 11481.00
79.1852 11096.00
79.2504 11107.00
79.3156 11406.00
79.3808 11225.00
79.446 11157.00
79.5112 11241.00
79.5764 11245.00
79.6416 11373.00
79.7068 11036.00
79.772 11305.00
79.8372 11414.00
79.9024 11078.00
79.9676 11072.00
80.0328 11211.00
80.098 11190.00
80.1632 11265.00
80.2284 11169.00
80.2936 11174.00
80.3588 11038.00
80.424 11487.00
80.4892 11365.00
80.5544 11261.00
80.6196 11161.00
80.6848 11173.00
80.75 11300.00
80.8152 11084.00
80.8804 11261.00
80.9456 11110.00
81.0108 11285.00
81.076 11130.00
81.1412 11311.00
81.2063 11249.00
81.2715 11242.00
81.3367 11262.00
81.4019 11042.00
81.4671 11225.00
81.5323 11171.00
81.5975 11053.00
81.6627 11006.00
81.7279 11014.00
81.7931 11247.00
81.8583 11156.00
81.9235 11122.00
81.9887 11089.00
82.0539 11216.00
82.1191 11339.00
82.1843 11135.00
82.2495 11026.00
82.3147 11133.00
82.3799 11326.00
82.4451 11114.00
82.5103 11220.00
82.5755 11287.00
82.6407 11148.00
82.7059 11199.00
82.7711 11345.00
82.8363 11256.00
82.9015 11509.00
82.9667 11379.00
83.0319 11254.00
83.0971 11403.00
83.1623 11499.00
83.2275 11020.00
83.2927 11226.00
83.3579 11213.00
83.4231 11401.00
83.4883 11146.00
83.5535 11372.00
83.6187 11132.00
83.6839 11208.00
83.7491 11217.00
83.8143 11340.00
83.8795 11286.00
83.9447 11288.00
84.0099 11285.00
84.0751 11118.00
84.1403 11159.00
84.2055 10988.00
84.2707 11276.00
84.3359 11080.00
84.4011 11166.00
84.4663 11285.00
84.5315 11283.00
84.5967 11236.00
84.6619 11184.00
84.7271 11234.00
84.7923 11232.00
84.8575 11192.00
84.9227 11058.00
84.9879 11088.00
85.0531 11167.00
85.1183 11345.00
85.1835 11111.00
85.2487 11089.00
85.3139 11109.00
85.3791 11153.00
85.4443 11112.00
85.5095 11382.00
85.5747 11137.00
85.6399 11396.00
85.7051 11196.00
85.7703 11325.00
85.8354 11307.00
85.9006 11378.00
85.9659 11320.00
86.031 11277.00
86.0962 11314.00
86.1614 11369.00
86.2266 11067.00
86.2918 11312.00
86.357 11155.00
86.4222 11237.00
86.4874 11303.00
86.5526 11250.00
86.6178 11224.00
86.683 11112.00
86.7482 11195.00
86.8134 11364.00
86.8786 11243.00
86.9438 11180.00
87.009 11330.00
87.0742 11346.00
87.1394 11296.00
87.2046 11075.00
87.2698 11193.00
87.335 11381.00
87.4002 11146.00
87.4654 11165.00
87.5306 11117.00
87.5958 11085.00
87.661 11133.00
87.7262 11265.00
87.7914 11037.00
87.8566 11342.00
87.9218 11265.00
87.987 11194.00
88.0522 11114.00
88.1174 11139.00
88.1826 11288.00
88.2478 11116.00
88.313 11216.00
88.3782 11439.00
88.4434 11291.00
88.5086 11339.00
88.5738 11476.00
88.639 11152.00
88.7042 11003.00
88.7694 11288.00
88.8346 11217.00
88.8998 11154.00
88.965 11252.00
89.0302 11326.00
89.0954 11084.00
89.1606 11265.00
89.2258 11146.00
89.291 11148.00
89.3562 11273.00
89.4214 11312.00
89.4866 11243.00
89.5518 11162.00
89.617 11313.00
89.6822 11220.00
89.7474 11385.00
89.8126 11260.00
89.8778 11052.00
89.943 11131.00
90.0082 11247.00
90.0734 11203.00
90.1386 11143.00
90.2038 11223.00
90.269 11378.00
90.3342 11174.00
90.3994 11270.00
90.4646 11284.00
90.5298 11192.00
90.595 11210.00
90.6601 11179.00
90.7253 11417.00
90.7905 11155.00
90.8557 11188.00
90.9209 11210.00
90.9861 11278.00
91.0513 11245.00
91.1165 11328.00
91.1817 11277.00
91.2469 11529.00
91.3121 11383.00
91.3773 11224.00
91.4425 11484.00
91.5077 11445.00
91.5729 11524.00
91.6381 11197.00
91.7033 11360.00
91.7685 11245.00
91.8337 11451.00
91.8989 11214.00
91.9641 11373.00
92.0293 11095.00
92.0945 11159.00
92.1597 11372.00
92.2249 11238.00
92.2901 11210.00
92.3553 11489.00
92.4205 11255.00
92.4857 11162.00
92.5509 11198.00
92.6161 11218.00
92.6813 11269.00
92.7465 11152.00
92.8117 11114.00
92.8769 11484.00
92.9421 11140.00
93.0073 11416.00
93.0725 11228.00
93.1377 11433.00
93.2029 11171.00
93.2681 11344.00
93.3333 11299.00
93.3985 11296.00
93.4637 11199.00
93.5289 11156.00
93.5941 11268.00
93.6593 11407.00
93.7245 11176.00
93.7897 11177.00
93.8549 11128.00
93.9201 11366.00
93.9853 11254.00
94.0505 11493.00
94.1157 11446.00
94.1809 11789.00
94.2461 11834.00
94.3113 11951.00
94.3765 11900.00
94.4417 11484.00
94.5069 11601.00
94.5721 11535.00
94.6373 11734.00
94.7025 11433.00
94.7677 11295.00
94.8329 11521.00
94.8981 11436.00
94.9633 10983.00
95.0285 11211.00
95.0937 11350.00
95.1589 11348.00
95.2241 11182.00
95.2893 11321.00
95.3545 11311.00
95.4197 11171.00
95.4848 11218.00
95.55 11150.00
95.6153 11246.00
95.6804 11245.00
95.7456 11365.00
95.8108 11209.00
95.876 11136.00
95.9412 11041.00
96.0064 11289.00
96.0716 11182.00
96.1368 11120.00
96.202 11272.00
96.2672 11293.00
96.3324 11150.00
96.3976 11026.00
96.4628 11265.00
96.528 11152.00
96.5932 11327.00
96.6584 11089.00
96.7236 11139.00
96.7888 11342.00
96.854 11302.00
96.9192 11011.00
96.9844 11282.00
97.0496 11401.00
97.1148 11249.00
97.18 11283.00
97.2452 11321.00
97.3104 11261.00
97.3756 11054.00
97.4408 11307.00
97.506 11192.00
97.5712 11333.00
97.6364 11287.00
97.7016 11152.00
97.7668 11400.00
97.832 11051.00
97.8972 11318.00
97.9624 11151.00
98.0276 11338.00
98.0928 11187.00
98.158 11342.00
98.2232 11274.00
98.2884 11148.00
98.3536 11192.00
98.4188 11306.00
98.484 11110.00
98.5492 11171.00
98.6144 11250.00
98.6796 11297.00
98.7448 11231.00
98.81 11216.00
98.8752 11405.00
98.9404 11219.00
99.0056 11311.00
99.0708 11298.00
99.136 11152.00
99.2012 11226.00
99.2664 11424.00
99.3316 11360.00
99.3968 11429.00
99.462 11473.00
99.5272 11530.00
99.5924 11707.00
99.6576 11446.00
99.7228 11355.00
99.788 11447.00
99.8532 11316.00
99.9184 11365.00
99.9836 11275.00
99.9944 11351.00