File: data/xrd_creation/results/PG_1752-1.xy
9.903433 2551.00
9.968632 2423.00
10.0338 2558.00
10.099 2423.00
10.1642 2436.00
10.2294 2433.00
10.2946 2431.00
10.3598 2262.00
10.425 2365.00
10.4902 2326.00
10.5554 2321.00
10.6206 2309.00
10.6858 2237.00
10.751 2142.00
10.8162 2245.00
10.8814 2137.00
10.9466 2090.00
11.0118 2082.00
11.077 2131.00
11.1422 2148.00
11.2074 2051.00
11.2726 2132.00
11.3378 2053.00
11.403 2011.00
11.4682 2017.00
11.5334 1989.00
11.5986 1886.00
11.6638 1942.00
11.729 1923.00
11.7942 1904.00
11.8594 1897.00
11.9246 1972.00
11.9898 1878.00
12.055 1883.00
12.1202 1910.00
12.1854 1812.00
12.2506 1772.00
12.3158 1835.00
12.381 1785.00
12.4462 1810.00
12.5114 1739.00
12.5766 1783.00
12.6418 1732.00
12.707 1711.00
12.7722 1762.00
12.8374 1761.00
12.9026 1703.00
12.9678 1688.00
13.033 1691.00
13.0982 1718.00
13.1634 1691.00
13.2286 1663.00
13.2938 1642.00
13.359 1624.00
13.4242 1628.00
13.4894 1693.00
13.5546 1640.00
13.6198 1577.00
13.685 1606.00
13.7502 1585.00
13.8154 1573.00
13.8805 1601.00
13.9457 1590.00
14.0109 1531.00
14.0761 1507.00
14.1413 1527.00
14.2065 1505.00
14.2717 1587.00
14.3369 1484.00
14.4021 1469.00
14.4673 1534.00
14.5325 1542.00
14.5977 1532.00
14.6629 1477.00
14.7281 1476.00
14.7933 1541.00
14.8585 1475.00
14.9237 1459.00
14.9889 1487.00
15.0541 1458.00
15.1193 1390.00
15.1845 1464.00
15.2497 1391.00
15.3149 1477.00
15.3801 1449.00
15.4453 1371.00
15.5105 1409.00
15.5757 1462.00
15.6409 1418.00
15.7061 1352.00
15.7713 1471.00
15.8365 1362.00
15.9017 1386.00
15.9669 1385.00
16.0321 1377.00
16.0973 1380.00
16.1625 1352.00
16.2277 1351.00
16.2929 1357.00
16.3581 1321.00
16.4233 1339.00
16.4885 1382.00
16.5537 1358.00
16.6189 1351.00
16.6841 1409.00
16.7493 1293.00
16.8145 1231.00
16.8797 1303.00
16.9449 1321.00
17.0101 1299.00
17.0753 1299.00
17.1405 1316.00
17.2057 1269.00
17.2709 1368.00
17.3361 1381.00
17.4013 1387.00
17.4665 1396.00
17.5317 1477.00
17.5969 1555.00
17.6621 1416.00
17.7273 1535.00
17.7925 1493.00
17.8577 1433.00
17.9229 1279.00
17.9881 1302.00
18.0533 1257.00
18.1185 1194.00
18.1837 1219.00
18.2489 1212.00
18.3141 1202.00
18.3793 1205.00
18.4445 1243.00
18.5097 1161.00
18.5749 1208.00
18.6401 1212.00
18.7052 1113.00
18.7704 1179.00
18.8356 1165.00
18.9008 1185.00
18.966 1130.00
19.0312 1141.00
19.0964 1156.00
19.1616 1208.00
19.2268 1142.00
19.292 1153.00
19.3572 1094.00
19.4224 1159.00
19.4876 1145.00
19.5528 1118.00
19.618 1098.00
19.6832 1146.00
19.7484 1140.00
19.8136 1064.00
19.8788 1074.00
19.944 1072.00
20.0092 1161.00
20.0744 1102.00
20.1396 1074.00
20.2048 1032.00
20.27 1142.00
20.3352 1069.00
20.4004 1024.00
20.4656 1096.00
20.5308 1122.00
20.596 1065.00
20.6612 1060.00
20.7264 1065.00
20.7916 1062.00
20.8568 1018.00
20.922 1066.00
20.9872 1012.00
21.0524 1027.00
21.1176 1030.00
21.1828 1096.00
21.248 994.00
21.3132 1005.00
21.3784 1066.00
21.4436 993.00
21.5088 1030.00
21.574 1057.00
21.6392 1024.00
21.7044 1080.00
21.7696 1005.00
21.8348 1013.00
21.9 999.00
21.9652 976.00
22.0304 953.00
22.0956 982.00
22.1608 1045.00
22.226 1083.00
22.2912 1027.00
22.3564 983.00
22.4216 988.00
22.4868 1005.00
22.552 1021.00
22.6172 1008.00
22.6824 972.00
22.7476 981.00
22.8128 951.00
22.878 986.00
22.9432 931.00
23.0084 966.00
23.0736 952.00
23.1388 992.00
23.204 964.00
23.2692 991.00
23.3344 977.00
23.3996 982.00
23.4647 963.00
23.5299 965.00
23.5951 970.00
23.6603 953.00
23.7255 998.00
23.7907 992.00
23.8559 1024.00
23.9211 1062.00
23.9863 1161.00
24.0515 1191.00
24.1167 1343.00
24.1819 1597.00
24.2471 1716.00
24.3123 1913.00
24.3775 2005.00
24.4427 1955.00
24.5079 1791.00
24.5731 1595.00
24.6383 1589.00
24.7035 1688.00
24.7687 1804.00
24.8339 1612.00
24.8991 1492.00
24.9643 1215.00
25.0295 1056.00
25.0947 921.00
25.1599 922.00
25.2251 920.00
25.2903 832.00
25.3555 892.00
25.4207 931.00
25.4859 911.00
25.5511 891.00
25.6163 953.00
25.6815 930.00
25.7467 908.00
25.8119 923.00
25.8771 916.00
25.9423 809.00
26.0075 820.00
26.0727 870.00
26.1379 837.00
26.2031 856.00
26.2683 840.00
26.3335 832.00
26.3987 866.00
26.4639 855.00
26.5291 827.00
26.5943 852.00
26.6595 789.00
26.7247 795.00
26.7899 856.00
26.8551 862.00
26.9203 853.00
26.9855 928.00
27.0507 857.00
27.1159 866.00
27.1811 792.00
27.2463 909.00
27.3115 796.00
27.3767 840.00
27.4419 883.00
27.5071 839.00
27.5723 912.00
27.6375 973.00
27.7027 977.00
27.7679 1042.00
27.8331 987.00
27.8983 1057.00
27.9635 1169.00
28.0287 1270.00
28.0939 1556.00
28.1591 2196.00
28.2243 2994.00
28.2894 4146.00
28.3546 5566.00
28.4198 6990.00
28.485 7544.00
28.5502 7324.00
28.6154 6295.00
28.6806 4415.00
28.7458 2674.00
28.811 1801.00
28.8762 1470.00
28.9414 1223.00
29.0066 1097.00
29.0718 1048.00
29.137 917.00
29.2022 921.00
29.2674 905.00
29.3326 907.00
29.3978 896.00
29.463 909.00
29.5282 932.00
29.5934 802.00
29.6586 859.00
29.7238 838.00
29.789 853.00
29.8542 769.00
29.9194 806.00
29.9846 792.00
30.0498 815.00
30.115 853.00
30.1802 843.00
30.2454 810.00
30.3106 801.00
30.3758 770.00
30.441 804.00
30.5062 846.00
30.5714 882.00
30.6366 835.00
30.7018 849.00
30.767 854.00
30.8322 851.00
30.8974 901.00
30.9626 825.00
31.0278 899.00
31.093 933.00
31.1582 957.00
31.2234 1014.00
31.2886 1132.00
31.3538 1286.00
31.419 1587.00
31.4842 1938.00
31.5494 2779.00
31.6146 3705.00
31.6798 4745.00
31.745 5678.00
31.8102 6010.00
31.8754 5974.00
31.9406 4781.00
32.0058 3348.00
32.071 2187.00
32.1362 1485.00
32.2014 1215.00
32.2666 975.00
32.3318 955.00
32.397 834.00
32.4622 848.00
32.5274 786.00
32.5926 828.00
32.6578 798.00
32.723 763.00
32.7882 755.00
32.8534 770.00
32.9186 775.00
32.9838 744.00
33.0489 754.00
33.1141 730.00
33.1793 707.00
33.2445 732.00
33.3097 734.00
33.3749 725.00
33.4401 702.00
33.5053 713.00
33.5705 669.00
33.6357 701.00
33.7009 748.00
33.7661 759.00
33.8313 738.00
33.8965 750.00
33.9617 838.00
34.0269 860.00
34.0921 1032.00
34.1573 1151.00
34.2225 1305.00
34.2877 1701.00
34.3529 2049.00
34.4181 2508.00
34.4833 2734.00
34.5485 2964.00
34.6137 2797.00
34.6789 2635.00
34.7441 2446.00
34.8093 2382.00
34.8745 2123.00
34.9397 1853.00
35.0049 1362.00
35.0701 1071.00
35.1353 925.00
35.2005 878.00
35.2657 849.00
35.3309 1033.00
35.3961 1176.00
35.4613 1397.00
35.5265 1783.00
35.5917 2016.00
35.6569 2319.00
35.7221 2423.00
35.7873 2137.00
35.8525 1626.00
35.9177 1247.00
35.9829 1045.00
36.0481 986.00
36.1133 1046.00
36.1785 1114.00
36.2437 1128.00
36.3089 1156.00
36.3741 1091.00
36.4393 906.00
36.5045 845.00
36.5697 777.00
36.6349 701.00
36.7001 689.00
36.7653 668.00
36.8305 678.00
36.8957 681.00
36.9609 634.00
37.0261 631.00
37.0913 626.00
37.1565 652.00
37.2217 647.00
37.2869 602.00
37.3521 641.00
37.4173 681.00
37.4825 695.00
37.5477 645.00
37.6129 644.00
37.6781 625.00
37.7433 634.00
37.8085 684.00
37.8736 636.00
37.9388 603.00
38.004 651.00
38.0692 655.00
38.1344 611.00
38.1996 653.00
38.2648 618.00
38.33 673.00
38.3952 644.00
38.4604 649.00
38.5256 665.00
38.5908 705.00
38.656 788.00
38.7212 888.00
38.7864 1115.00
38.8516 1086.00
38.9168 1210.00
38.982 1280.00
39.0472 1311.00
39.1124 1093.00
39.1776 934.00
39.2428 804.00
39.308 771.00
39.3732 717.00
39.4384 710.00
39.5036 623.00
39.5688 658.00
39.634 651.00
39.6992 746.00
39.7644 668.00
39.8296 659.00
39.8948 709.00
39.96 618.00
40.0252 671.00
40.0904 666.00
40.1556 676.00
40.2208 641.00
40.286 671.00
40.3512 761.00
40.4164 819.00
40.4816 736.00
40.5468 726.00
40.612 698.00
40.6772 739.00
40.7424 860.00
40.8076 902.00
40.8728 1193.00
40.938 1331.00
41.0032 1482.00
41.0684 1523.00
41.1336 1776.00
41.1988 1780.00
41.264 1587.00
41.3292 1396.00
41.3944 1235.00
41.4596 1151.00
41.5248 1185.00
41.59 1241.00
41.6552 1239.00
41.7204 1086.00
41.7856 1033.00
41.8508 1072.00
41.916 925.00
41.9812 849.00
42.0464 750.00
42.1116 709.00
42.1768 639.00
42.242 620.00
42.3072 621.00
42.3724 589.00
42.4376 640.00
42.5028 613.00
42.568 600.00
42.6332 600.00
42.6983 644.00
42.7635 577.00
42.8287 591.00
42.8939 555.00
42.9591 612.00
43.0243 559.00
43.0895 675.00
43.1547 575.00
43.2199 580.00
43.2851 611.00
43.3503 595.00
43.4155 594.00
43.4807 583.00
43.5459 586.00
43.6111 616.00
43.6763 613.00
43.7415 642.00
43.8067 594.00
43.8719 567.00
43.9371 589.00
44.0023 610.00
44.0675 633.00
44.1327 570.00
44.1979 587.00
44.2631 620.00
44.3283 600.00
44.3935 578.00
44.4587 623.00
44.5239 623.00
44.5891 656.00
44.6543 616.00
44.7195 607.00
44.7847 626.00
44.8499 708.00
44.9151 780.00
44.9803 852.00
45.0455 896.00
45.1107 932.00
45.1759 972.00
45.2411 982.00
45.3063 1069.00
45.3715 977.00
45.4367 875.00
45.5019 822.00
45.5671 863.00
45.6323 917.00
45.6975 925.00
45.7627 984.00
45.8279 1110.00
45.8931 1118.00
45.9583 1202.00
46.0235 1132.00
46.0887 1038.00
46.1539 838.00
46.2191 757.00
46.2843 693.00
46.3495 662.00
46.4147 619.00
46.4799 586.00
46.5451 628.00
46.6103 585.00
46.6755 592.00
46.7407 549.00
46.8059 585.00
46.8711 639.00
46.9363 537.00
47.0015 562.00
47.0667 581.00
47.1319 577.00
47.1971 545.00
47.2623 577.00
47.3275 549.00
47.3927 606.00
47.4579 635.00
47.523 584.00
47.5882 558.00
47.6534 540.00
47.7186 568.00
47.7838 580.00
47.849 592.00
47.9142 596.00
47.9794 599.00
48.0446 586.00
48.1098 595.00
48.175 621.00
48.2402 563.00
48.3054 628.00
48.3706 606.00
48.4358 561.00
48.501 591.00
48.5662 561.00
48.6314 662.00
48.6966 589.00
48.7618 642.00
48.827 642.00
48.8922 674.00
48.9574 674.00
49.0226 734.00
49.0878 799.00
49.153 827.00
49.2182 866.00
49.2834 920.00
49.3486 1132.00
49.4138 1506.00
49.479 1579.00
49.5442 1675.00
49.6094 1910.00
49.6746 2095.00
49.7398 2365.00
49.805 2220.00
49.8702 1856.00
49.9354 1465.00
50.0006 1193.00
50.0658 1009.00
50.131 986.00
50.1962 1161.00
50.2614 1424.00
50.3266 1719.00
50.3918 1846.00
50.457 1975.00
50.5222 2287.00
50.5874 2783.00
50.6526 3166.00
50.7178 3010.00
50.783 2557.00
50.8482 2076.00
50.9134 1738.00
50.9786 1784.00
51.0438 1803.00
51.109 1731.00
51.1742 1480.00
51.2394 1275.00
51.3046 1112.00
51.3698 947.00
51.435 982.00
51.5002 939.00
51.5654 953.00
51.6306 974.00
51.6958 1036.00
51.761 978.00
51.8262 969.00
51.8914 870.00
51.9566 755.00
52.0218 725.00
52.087 670.00
52.1522 655.00
52.2174 609.00
52.2826 642.00
52.3477 618.00
52.4129 628.00
52.4781 595.00
52.5433 611.00
52.6085 609.00
52.6737 662.00
52.7389 614.00
52.8041 623.00
52.8693 665.00
52.9345 565.00
52.9997 585.00
53.0649 613.00
53.1301 584.00
53.1953 583.00
53.2605 601.00
53.3257 605.00
53.3909 619.00
53.4561 600.00
53.5213 640.00
53.5865 626.00
53.6517 619.00
53.7169 642.00
53.7821 662.00
53.8473 653.00
53.9125 678.00
53.9777 724.00
54.0429 760.00
54.1081 871.00
54.1733 1058.00
54.2385 1107.00
54.3037 1240.00
54.3689 1333.00
54.4341 1379.00
54.4993 1536.00
54.5645 1591.00
54.6297 1687.00
54.6949 1537.00
54.7601 1399.00
54.8253 1143.00
54.8905 986.00
54.9557 852.00
55.0209 823.00
55.0861 828.00
55.1513 806.00
55.2165 842.00
55.2817 853.00
55.3469 951.00
55.4121 1040.00
55.4773 1229.00
55.5425 1330.00
55.6077 1473.00
55.6729 1636.00
55.7381 1863.00
55.8033 2064.00
55.8685 2410.00
55.9337 2339.00
55.9989 2227.00
56.0641 2148.00
56.1293 2013.00
56.1945 1668.00
56.2597 1518.00
56.3249 1522.00
56.3901 1547.00
56.4553 1602.00
56.5205 1485.00
56.5857 1338.00
56.6509 1137.00
56.7161 1015.00
56.7813 831.00
56.8465 751.00
56.9117 742.00
56.9769 712.00
57.042 704.00
57.1073 735.00
57.1724 762.00
57.2376 871.00
57.3028 1028.00
57.368 1056.00
57.4332 1020.00
57.4984 1068.00
57.5636 1217.00
57.6288 1290.00
57.694 1458.00
57.7592 1438.00
57.8244 1320.00
57.8896 1200.00
57.9548 1083.00
58.02 1019.00
58.0852 981.00
58.1504 1002.00
58.2156 1019.00
58.2808 1049.00
58.346 1179.00
58.4112 1337.00
58.4764 1395.00
58.5416 1375.00
58.6068 1315.00
58.672 1178.00
58.7372 1170.00
58.8024 1081.00
58.8676 1083.00
58.9328 989.00
58.998 880.00
59.0632 776.00
59.1284 747.00
59.1936 722.00
59.2588 700.00
59.324 672.00
59.3892 668.00
59.4544 618.00
59.5196 663.00
59.5848 698.00
59.65 733.00
59.7152 732.00
59.7804 754.00
59.8456 832.00
59.9108 944.00
59.976 1063.00
60.0412 1135.00
60.1064 1253.00
60.1716 1335.00
60.2368 1465.00
60.302 1693.00
60.3672 1775.00
60.4324 1850.00
60.4976 1719.00
60.5628 1683.00
60.628 1550.00
60.6932 1309.00
60.7584 1085.00
60.8236 924.00
60.8888 793.00
60.954 762.00
61.0192 661.00
61.0844 731.00
61.1496 682.00
61.2148 730.00
61.28 696.00
61.3452 749.00
61.4104 770.00
61.4756 885.00
61.5408 946.00
61.606 985.00
61.6712 1049.00
61.7364 1094.00
61.8016 1171.00
61.8667 1319.00
61.932 1356.00
61.9971 1341.00
62.0623 1254.00
62.1275 1381.00
62.1927 1263.00
62.2579 1232.00
62.3231 1292.00
62.3883 1346.00
62.4535 1488.00
62.5187 1446.00
62.5839 1363.00
62.6491 1274.00
62.7143 1141.00
62.7795 1092.00
62.8447 947.00
62.9099 1085.00
62.9751 1135.00
63.0403 1193.00
63.1055 1174.00
63.1707 1138.00
63.2359 1196.00
63.3011 1341.00
63.3663 1474.00
63.4315 1594.00
63.4967 1539.00
63.5619 1350.00
63.6271 1136.00
63.6923 994.00
63.7575 894.00
63.8227 791.00
63.8879 725.00
63.9531 672.00
64.0183 722.00
64.0835 670.00
64.1487 790.00
64.2139 681.00
64.2791 738.00
64.3443 775.00
64.4095 820.00
64.4747 807.00
64.5399 845.00
64.6051 863.00
64.6703 916.00
64.7355 951.00
64.8007 1053.00
64.8659 976.00
64.9311 1002.00
64.9963 950.00
65.0615 818.00
65.1267 741.00
65.1919 737.00
65.2571 657.00
65.3223 676.00
65.3875 748.00
65.4527 743.00
65.5179 814.00
65.5831 849.00
65.6483 906.00
65.7135 909.00
65.7787 1021.00
65.8439 1154.00
65.9091 1238.00
65.9743 1376.00
66.0395 1229.00
66.1047 1299.00
66.1699 1401.00
66.2351 1494.00
66.3003 1593.00
66.3655 1533.00
66.4307 1462.00
66.4959 1274.00
66.561 1153.00
66.6263 1006.00
66.6915 856.00
66.7566 765.00
66.8218 712.00
66.887 683.00
66.9522 633.00
67.0174 618.00
67.0826 626.00
67.1478 643.00
67.213 611.00
67.2782 631.00
67.3434 636.00
67.4086 610.00
67.4738 627.00
67.539 615.00
67.6042 631.00
67.6694 601.00
67.7346 582.00
67.7998 589.00
67.865 628.00
67.9302 637.00
67.9954 605.00
68.0606 619.00
68.1258 597.00
68.191 578.00
68.2562 600.00
68.3214 593.00
68.3866 571.00
68.4518 638.00
68.517 652.00
68.5822 579.00
68.6474 619.00
68.7126 611.00
68.7778 620.00
68.843 650.00
68.9082 634.00
68.9734 643.00
69.0386 666.00
69.1038 718.00
69.169 707.00
69.2342 722.00
69.2994 694.00
69.3646 782.00
69.4298 852.00
69.495 900.00
69.5602 947.00
69.6254 926.00
69.6906 877.00
69.7558 858.00
69.821 780.00
69.8862 752.00
69.9514 650.00
70.0166 688.00
70.0818 673.00
70.147 691.00
70.2122 708.00
70.2774 773.00
70.3426 715.00
70.4078 728.00
70.473 680.00
70.5382 639.00
70.6034 680.00
70.6686 713.00
70.7338 732.00
70.799 703.00
70.8642 701.00
70.9294 689.00
70.9946 734.00
71.0598 744.00
71.125 699.00
71.1902 774.00
71.2554 827.00
71.3205 809.00
71.3858 918.00
71.451 935.00
71.5162 1025.00
71.5813 1065.00
71.6465 1156.00
71.7117 1256.00
71.7769 1260.00
71.8421 1179.00
71.9073 1216.00
71.9725 1111.00
72.0377 1013.00
72.1029 937.00
72.1681 825.00
72.2333 834.00
72.2985 833.00
72.3637 824.00
72.4289 777.00
72.4941 801.00
72.5593 860.00
72.6245 814.00
72.6897 895.00
72.7549 922.00
72.8201 851.00
72.8853 832.00
72.9505 859.00
73.0157 857.00
73.0809 855.00
73.1461 861.00
73.2113 825.00
73.2765 855.00
73.3417 843.00
73.4069 808.00
73.4721 741.00
73.5373 744.00
73.6025 675.00
73.6677 670.00
73.7329 690.00
73.7981 640.00
73.8633 672.00
73.9285 628.00
73.9937 626.00
74.0589 635.00
74.1241 633.00
74.1893 715.00
74.2545 693.00
74.3197 691.00
74.3849 715.00
74.4501 680.00
74.5153 651.00
74.5805 685.00
74.6457 670.00
74.7109 649.00
74.7761 714.00
74.8413 732.00
74.9065 759.00
74.9717 695.00
75.0369 733.00
75.1021 828.00
75.1673 894.00
75.2325 920.00
75.2977 1023.00
75.3629 1019.00
75.4281 933.00
75.4933 1024.00
75.5585 953.00
75.6237 1007.00
75.6889 1073.00
75.7541 1227.00
75.8193 1103.00
75.8845 1066.00
75.9497 1053.00
76.0149 963.00
76.0801 878.00
76.1452 793.00
76.2104 746.00
76.2756 694.00
76.3409 677.00
76.406 694.00
76.4712 701.00
76.5364 759.00
76.6016 769.00
76.6668 763.00
76.732 802.00
76.7972 764.00
76.8624 799.00
76.9276 793.00
76.9928 854.00
77.058 928.00
77.1232 870.00
77.1884 936.00
77.2536 867.00
77.3188 871.00
77.384 851.00
77.4492 861.00
77.5144 769.00
77.5796 749.00
77.6448 811.00
77.71 761.00
77.7752 763.00
77.8404 803.00
77.9056 863.00
77.9708 810.00
78.036 860.00
78.1012 844.00
78.1664 841.00
78.2316 893.00
78.2968 862.00
78.362 873.00
78.4272 800.00
78.4924 777.00
78.5576 811.00
78.6228 880.00
78.688 805.00
78.7532 824.00
78.8184 778.00
78.8836 828.00
78.9488 819.00
79.014 913.00
79.0792 857.00
79.1444 829.00
79.2096 783.00
79.2748 800.00
79.34 829.00
79.4052 835.00
79.4704 917.00
79.5356 928.00
79.6008 931.00
79.666 925.00
79.7312 894.00
79.7964 887.00
79.8616 777.00
79.9268 890.00
79.992 736.00
80.0572 694.00
80.1224 678.00
80.1876 696.00
80.2528 611.00
80.318 607.00
80.3832 676.00
80.4484 699.00
80.5136 672.00
80.5788 643.00
80.644 651.00
80.7092 640.00
80.7744 629.00
80.8396 684.00
80.9048 702.00
80.9699 723.00
81.0351 685.00
81.1003 723.00
81.1655 767.00
81.2307 742.00
81.2959 711.00
81.3611 759.00
81.4263 726.00
81.4915 777.00
81.5567 745.00
81.6219 741.00
81.6871 767.00
81.7523 825.00
81.8175 823.00
81.8827 852.00
81.9479 841.00
82.0131 853.00
82.0783 888.00
82.1435 959.00
82.2087 1020.00
82.2739 969.00
82.3391 923.00
82.4043 942.00
82.4695 923.00
82.5347 913.00
82.5999 845.00
82.6651 859.00
82.7303 841.00
82.7955 843.00
82.8607 804.00
82.9259 839.00
82.9911 837.00
83.0563 910.00
83.1215 906.00
83.1867 978.00
83.2519 1078.00
83.3171 1070.00
83.3823 992.00
83.4475 1024.00
83.5127 1007.00
83.5779 981.00
83.6431 1006.00
83.7083 1029.00
83.7735 1123.00
83.8387 1066.00
83.9039 1021.00
83.9691 1032.00
84.0343 1061.00
84.0995 1048.00
84.1647 1031.00
84.2299 995.00
84.2951 1023.00
84.3603 922.00
84.4255 942.00
84.4907 910.00
84.5559 1016.00
84.6211 1025.00
84.6863 1040.00
84.7515 1044.00
84.8167 1060.00
84.8819 1033.00
84.9471 1070.00
85.0123 1007.00
85.0775 1022.00
85.1427 916.00
85.2079 831.00
85.2731 846.00
85.3383 841.00
85.4035 819.00
85.4687 823.00
85.5339 830.00
85.5991 894.00
85.6643 915.00
85.7295 891.00
85.7946 815.00
85.8598 819.00
85.925 774.00
85.9903 761.00
86.0554 733.00
86.1206 747.00
86.1858 678.00
86.251 719.00
86.3162 714.00
86.3814 762.00
86.4466 762.00
86.5118 793.00
86.577 738.00
86.6422 775.00
86.7074 821.00
86.7726 837.00
86.8378 862.00
86.903 864.00
86.9682 791.00
87.0334 822.00
87.0986 795.00
87.1638 821.00
87.229 780.00
87.2942 691.00
87.3594 720.00
87.4246 754.00
87.4898 794.00
87.555 806.00
87.6202 805.00
87.6854 759.00
87.7506 770.00
87.8158 830.00
87.881 782.00
87.9462 855.00
88.0114 843.00
88.0766 886.00
88.1418 988.00
88.207 1067.00
88.2722 1038.00
88.3374 1041.00
88.4026 1021.00
88.4678 1015.00
88.533 1030.00
88.5982 992.00
88.6634 1083.00
88.7286 1063.00
88.7938 1013.00
88.859 1158.00
88.9242 1122.00
88.9894 1156.00
89.0546 1041.00
89.1198 1021.00
89.185 1129.00
89.2502 1129.00
89.3154 1123.00
89.3806 1013.00
89.4458 1043.00
89.511 1077.00
89.5762 959.00
89.6414 963.00
89.7066 918.00
89.7718 947.00
89.837 922.00
89.9022 991.00
89.9674 978.00
90.0326 978.00
90.0978 940.00
90.163 924.00
90.2282 933.00
90.2934 1012.00
90.3586 897.00
90.4238 1034.00
90.489 1058.00
90.5542 1014.00
90.6193 1031.00
90.6845 1046.00
90.7497 1021.00
90.8149 980.00
90.8801 925.00
90.9453 924.00
91.0105 849.00
91.0757 790.00
91.1409 734.00
91.2061 834.00
91.2713 740.00
91.3365 761.00
91.4017 804.00
91.4669 804.00
91.5321 847.00
91.5973 868.00
91.6625 800.00
91.7277 784.00
91.7929 744.00
91.8581 760.00
91.9233 752.00
91.9885 832.00
92.0537 858.00
92.1189 854.00
92.1841 824.00
92.2493 818.00
92.3145 823.00
92.3797 797.00
92.4449 758.00
92.5101 778.00
92.5753 679.00
92.6405 726.00
92.7057 708.00
92.7709 671.00
92.8361 747.00
92.9013 667.00
92.9665 736.00
93.0317 726.00
93.0969 715.00
93.1621 740.00
93.2273 656.00
93.2925 670.00
93.3577 672.00
93.4229 739.00
93.4881 741.00
93.5533 762.00
93.6185 726.00
93.6837 763.00
93.7489 779.00
93.8141 796.00
93.8793 879.00
93.9445 846.00
94.0097 823.00
94.0749 811.00
94.1401 767.00
94.2053 773.00
94.2705 722.00
94.3357 815.00
94.4009 832.00
94.4661 787.00
94.5313 898.00
94.5965 877.00
94.6617 893.00
94.7269 861.00
94.7921 872.00
94.8573 903.00
94.9225 939.00
94.9877 893.00
95.0529 847.00
95.1181 793.00
95.1833 851.00
95.2485 806.00
95.3137 885.00
95.3789 904.00
95.444 901.00
95.5092 940.00
95.5744 909.00
95.6396 933.00
95.7048 915.00
95.77 920.00
95.8352 916.00
95.9004 1060.00
95.9656 1024.00
96.0308 1035.00
96.096 1044.00
96.1612 997.00
96.2264 1009.00
96.2916 1036.00
96.3568 973.00
96.422 939.00
96.4872 984.00
96.5524 982.00
96.6176 1049.00
96.6828 1044.00
96.748 1025.00
96.8132 1096.00
96.8784 1116.00
96.9436 1128.00
97.0088 1164.00
97.074 1134.00
97.1392 1059.00
97.2044 1088.00
97.2696 1184.00
97.3348 1316.00
97.4 1256.00
97.4652 1284.00
97.5304 1263.00
97.5956 1275.00
97.6608 1200.00
97.726 1291.00
97.7912 1158.00
97.8564 1188.00
97.9216 1087.00
97.9868 1074.00
98.052 1055.00
98.1172 994.00
98.1824 919.00
98.2476 991.00
98.3128 859.00
98.378 906.00
98.4432 864.00
98.5084 857.00
98.5736 873.00
98.6388 933.00
98.704 943.00
98.7692 1017.00
98.8344 1090.00
98.8996 1087.00
98.9648 1023.00
99.03 1050.00
99.0952 1022.00
99.1604 1017.00
99.2256 1062.00
99.2908 1034.00
99.356 1040.00
99.4212 1102.00
99.4864 1122.00
99.5516 1129.00
99.6168 1178.00
99.682 1129.00
99.7472 1080.00
99.8124 1141.00
99.8776 1084.00
99.9428 1040.00
100.008 1138.00
100.073 1120.00
100.095 1129.00