File: data/xrd_creation/results/PG_1741-1.xy
9.903433 2535.00
9.968632 2420.00
10.0338 2448.00
10.099 2474.00
10.1642 2456.00
10.2294 2323.00
10.2946 2397.00
10.3598 2399.00
10.425 2309.00
10.4902 2323.00
10.5554 2331.00
10.6206 2303.00
10.6858 2309.00
10.751 2259.00
10.8162 2267.00
10.8814 2301.00
10.9466 2269.00
11.0118 2180.00
11.077 2200.00
11.1422 2220.00
11.2074 2158.00
11.2726 2091.00
11.3378 2182.00
11.403 2070.00
11.4682 2099.00
11.5334 2077.00
11.5986 2089.00
11.6638 2044.00
11.729 2107.00
11.7942 2007.00
11.8594 2034.00
11.9246 2014.00
11.9898 2117.00
12.055 2000.00
12.1202 1949.00
12.1854 1984.00
12.2506 1959.00
12.3158 1968.00
12.381 1937.00
12.4462 1942.00
12.5114 1848.00
12.5766 1920.00
12.6418 1862.00
12.707 1942.00
12.7722 1774.00
12.8374 1859.00
12.9026 1784.00
12.9678 1746.00
13.033 1872.00
13.0982 1914.00
13.1634 1728.00
13.2286 1742.00
13.2938 1763.00
13.359 1780.00
13.4242 1792.00
13.4894 1743.00
13.5546 1796.00
13.6198 1756.00
13.685 1812.00
13.7502 1802.00
13.8154 1888.00
13.8805 2093.00
13.9457 2265.00
14.0109 2758.00
14.0761 3448.00
14.1413 3093.00
14.2065 1912.00
14.2717 1733.00
14.3369 1692.00
14.4021 1679.00
14.4673 1601.00
14.5325 1679.00
14.5977 1605.00
14.6629 1648.00
14.7281 1539.00
14.7933 1522.00
14.8585 1619.00
14.9237 1589.00
14.9889 1539.00
15.0541 1527.00
15.1193 1671.00
15.1845 1609.00
15.2497 1547.00
15.3149 1590.00
15.3801 1500.00
15.4453 1513.00
15.5105 1512.00
15.5757 1560.00
15.6409 1568.00
15.7061 1533.00
15.7713 1584.00
15.8365 1524.00
15.9017 1453.00
15.9669 1504.00
16.0321 1436.00
16.0973 1526.00
16.1625 1546.00
16.2277 1445.00
16.2929 1479.00
16.3581 1425.00
16.4233 1500.00
16.4885 1520.00
16.5537 1468.00
16.6189 1483.00
16.6841 1388.00
16.7493 1504.00
16.8145 1471.00
16.8797 1426.00
16.9449 1407.00
17.0101 1522.00
17.0753 1431.00
17.1405 1401.00
17.2057 1461.00
17.2709 1407.00
17.3361 1502.00
17.4013 1415.00
17.4665 1446.00
17.5317 1479.00
17.5969 1501.00
17.6621 1443.00
17.7273 1554.00
17.7925 1706.00
17.8577 1861.00
17.9229 1843.00
17.9881 1589.00
18.0533 1437.00
18.1185 1423.00
18.1837 1356.00
18.2489 1348.00
18.3141 1275.00
18.3793 1348.00
18.4445 1268.00
18.5097 1348.00
18.5749 1346.00
18.6401 1363.00
18.7052 1308.00
18.7704 1266.00
18.8356 1247.00
18.9008 1299.00
18.966 1322.00
19.0312 1340.00
19.0964 1271.00
19.1616 1260.00
19.2268 1263.00
19.292 1349.00
19.3572 1229.00
19.4224 1275.00
19.4876 1291.00
19.5528 1237.00
19.618 1303.00
19.6832 1328.00
19.7484 1348.00
19.8136 1289.00
19.8788 1261.00
19.944 1242.00
20.0092 1237.00
20.0744 1234.00
20.1396 1212.00
20.2048 1273.00
20.27 1214.00
20.3352 1176.00
20.4004 1213.00
20.4656 1198.00
20.5308 1143.00
20.596 1198.00
20.6612 1161.00
20.7264 1226.00
20.7916 1137.00
20.8568 1217.00
20.922 1209.00
20.9872 1121.00
21.0524 1173.00
21.1176 1169.00
21.1828 1139.00
21.248 1142.00
21.3132 1193.00
21.3784 1169.00
21.4436 1157.00
21.5088 1215.00
21.574 1075.00
21.6392 1099.00
21.7044 1119.00
21.7696 1091.00
21.8348 1118.00
21.9 1139.00
21.9652 1143.00
22.0304 1099.00
22.0956 1137.00
22.1608 1117.00
22.226 1127.00
22.2912 1131.00
22.3564 1102.00
22.4216 1118.00
22.4868 1079.00
22.552 1066.00
22.6172 1090.00
22.6824 1109.00
22.7476 1127.00
22.8128 1082.00
22.878 1124.00
22.9432 1087.00
23.0084 1090.00
23.0736 1132.00
23.1388 1032.00
23.204 1072.00
23.2692 1076.00
23.3344 995.00
23.3996 1118.00
23.4647 1069.00
23.5299 1082.00
23.5951 1030.00
23.6603 1058.00
23.7255 1065.00
23.7907 1096.00
23.8559 1005.00
23.9211 1007.00
23.9863 1053.00
24.0515 1149.00
24.1167 1101.00
24.1819 1154.00
24.2471 1244.00
24.3123 1354.00
24.3775 1626.00
24.4427 2062.00
24.5079 2678.00
24.5731 2741.00
24.6383 1920.00
24.7035 1555.00
24.7687 1521.00
24.8339 1827.00
24.8991 2292.00
24.9643 2443.00
25.0295 1995.00
25.0947 1359.00
25.1599 1166.00
25.2251 1180.00
25.2903 1163.00
25.3555 1059.00
25.4207 1076.00
25.4859 1121.00
25.5511 1071.00
25.6163 1093.00
25.6815 1018.00
25.7467 1122.00
25.8119 1193.00
25.8771 1162.00
25.9423 1130.00
26.0075 1038.00
26.0727 1000.00
26.1379 1008.00
26.2031 945.00
26.2683 1033.00
26.3335 1014.00
26.3987 1023.00
26.4639 1007.00
26.5291 986.00
26.5943 1006.00
26.6595 1006.00
26.7247 1009.00
26.7899 995.00
26.8551 1016.00
26.9203 1011.00
26.9855 1062.00
27.0507 1038.00
27.1159 1125.00
27.1811 1140.00
27.2463 1159.00
27.3115 1109.00
27.3767 1161.00
27.4419 1158.00
27.5071 1316.00
27.5723 1363.00
27.6375 1522.00
27.7027 1836.00
27.7679 2264.00
27.8331 3458.00
27.8983 6539.00
27.9635 13573.00
28.0287 23884.00
28.0939 15843.00
28.1591 5961.00
28.2243 2880.00
28.2894 2514.00
28.3546 2549.00
28.4198 2926.00
28.485 3923.00
28.5502 5820.00
28.6154 9549.00
28.6806 13062.00
28.7458 11214.00
28.811 6395.00
28.8762 3715.00
28.9414 2636.00
29.0066 2040.00
29.0718 1754.00
29.137 1530.00
29.2022 1370.00
29.2674 1294.00
29.3326 1212.00
29.3978 1277.00
29.463 1182.00
29.5282 1149.00
29.5934 1138.00
29.6586 1045.00
29.7238 1078.00
29.789 1091.00
29.8542 948.00
29.9194 1090.00
29.9846 1057.00
30.0498 962.00
30.115 976.00
30.1802 1006.00
30.2454 1005.00
30.3106 1043.00
30.3758 1036.00
30.441 1051.00
30.5062 1047.00
30.5714 1062.00
30.6366 991.00
30.7018 1028.00
30.767 1075.00
30.8322 996.00
30.8974 1046.00
30.9626 1069.00
31.0278 1057.00
31.093 1113.00
31.1582 1153.00
31.2234 1143.00
31.2886 1270.00
31.3538 1232.00
31.419 1223.00
31.4842 1350.00
31.5494 1508.00
31.6146 1583.00
31.6798 1822.00
31.745 2401.00
31.8102 3261.00
31.8754 5216.00
31.9406 8259.00
32.0058 9954.00
32.071 7985.00
32.1362 4938.00
32.2014 3319.00
32.2666 3255.00
32.3318 4814.00
32.397 8118.00
32.4622 6936.00
32.5274 4295.00
32.5926 1950.00
32.6578 1446.00
32.723 1252.00
32.7882 1140.00
32.8534 1082.00
32.9186 1026.00
32.9838 1030.00
33.0489 1035.00
33.1141 984.00
33.1793 982.00
33.2445 943.00
33.3097 960.00
33.3749 948.00
33.4401 940.00
33.5053 923.00
33.5705 1000.00
33.6357 957.00
33.7009 877.00
33.7661 956.00
33.8313 871.00
33.8965 920.00
33.9617 901.00
34.0269 910.00
34.0921 986.00
34.1573 975.00
34.2225 1011.00
34.2877 1149.00
34.3529 1206.00
34.4181 1334.00
34.4833 1607.00
34.5485 2309.00
34.6137 3311.00
34.6789 4226.00
34.7441 3740.00
34.8093 3026.00
34.8745 3122.00
34.9397 3912.00
35.0049 3338.00
35.0701 2462.00
35.1353 1660.00
35.2005 1516.00
35.2657 1604.00
35.3309 2277.00
35.3961 2878.00
35.4613 2226.00
35.5265 1571.00
35.5917 1234.00
35.6569 1509.00
35.7221 1972.00
35.7873 3051.00
35.8525 4177.00
35.9177 3486.00
35.9829 2437.00
36.0481 1461.00
36.1133 1151.00
36.1785 1082.00
36.2437 1172.00
36.3089 1268.00
36.3741 1503.00
36.4393 1713.00
36.5045 1463.00
36.5697 1013.00
36.6349 965.00
36.7001 868.00
36.7653 839.00
36.8305 897.00
36.8957 930.00
36.9609 839.00
37.0261 824.00
37.0913 816.00
37.1565 796.00
37.2217 776.00
37.2869 807.00
37.3521 767.00
37.4173 811.00
37.4825 765.00
37.5477 751.00
37.6129 764.00
37.6781 760.00
37.7433 773.00
37.8085 745.00
37.8736 756.00
37.9388 710.00
38.004 744.00
38.0692 753.00
38.1344 721.00
38.1996 797.00
38.2648 724.00
38.33 768.00
38.3952 735.00
38.4604 807.00
38.5256 730.00
38.5908 749.00
38.656 843.00
38.7212 762.00
38.7864 770.00
38.8516 871.00
38.9168 948.00
38.982 1152.00
39.0472 1406.00
39.1124 1887.00
39.1776 1728.00
39.2428 1402.00
39.308 1035.00
39.3732 905.00
39.4384 821.00
39.5036 821.00
39.5688 846.00
39.634 770.00
39.6992 708.00
39.7644 806.00
39.8296 951.00
39.8948 1083.00
39.96 942.00
40.0252 857.00
40.0904 780.00
40.1556 775.00
40.2208 734.00
40.286 728.00
40.3512 766.00
40.4164 723.00
40.4816 813.00
40.5468 828.00
40.612 847.00
40.6772 774.00
40.7424 822.00
40.8076 817.00
40.8728 789.00
40.938 829.00
41.0032 946.00
41.0684 1033.00
41.1336 1160.00
41.1988 1593.00
41.264 2202.00
41.3292 2295.00
41.3944 2047.00
41.4596 1651.00
41.5248 1220.00
41.59 1203.00
41.6552 1314.00
41.7204 1370.00
41.7856 1276.00
41.8508 1231.00
41.916 1359.00
41.9812 1304.00
42.0464 1127.00
42.1116 993.00
42.1768 926.00
42.242 854.00
42.3072 936.00
42.3724 1231.00
42.4376 1088.00
42.5028 1064.00
42.568 826.00
42.6332 728.00
42.6983 747.00
42.7635 719.00
42.8287 676.00
42.8939 640.00
42.9591 647.00
43.0243 718.00
43.0895 666.00
43.1547 700.00
43.2199 706.00
43.2851 713.00
43.3503 710.00
43.4155 670.00
43.4807 666.00
43.5459 637.00
43.6111 704.00
43.6763 657.00
43.7415 650.00
43.8067 648.00
43.8719 666.00
43.9371 623.00
44.0023 649.00
44.0675 706.00
44.1327 658.00
44.1979 659.00
44.2631 705.00
44.3283 660.00
44.3935 679.00
44.4587 650.00
44.5239 684.00
44.5891 753.00
44.6543 735.00
44.7195 770.00
44.7847 726.00
44.8499 672.00
44.9151 746.00
44.9803 680.00
45.0455 739.00
45.1107 686.00
45.1759 810.00
45.2411 844.00
45.3063 991.00
45.3715 1135.00
45.4367 1308.00
45.5019 1211.00
45.5671 1014.00
45.6323 922.00
45.6975 913.00
45.7627 855.00
45.8279 886.00
45.8931 1036.00
45.9583 1232.00
46.0235 1546.00
46.0887 2030.00
46.1539 2293.00
46.2191 3414.00
46.2843 7027.00
46.3495 7995.00
46.4147 5225.00
46.4799 3839.00
46.5451 1701.00
46.6103 1131.00
46.6755 1009.00
46.7407 792.00
46.8059 766.00
46.8711 742.00
46.9363 792.00
47.0015 752.00
47.0667 784.00
47.1319 701.00
47.1971 689.00
47.2623 732.00
47.3275 779.00
47.3927 767.00
47.4579 726.00
47.523 779.00
47.5882 711.00
47.6534 650.00
47.7186 651.00
47.7838 667.00
47.849 640.00
47.9142 665.00
47.9794 686.00
48.0446 672.00
48.1098 670.00
48.175 711.00
48.2402 718.00
48.3054 660.00
48.3706 685.00
48.4358 714.00
48.501 914.00
48.5662 964.00
48.6314 857.00
48.6966 816.00
48.7618 680.00
48.827 680.00
48.8922 705.00
48.9574 732.00
49.0226 734.00
49.0878 754.00
49.153 721.00
49.2182 772.00
49.2834 836.00
49.3486 775.00
49.4138 814.00
49.479 946.00
49.5442 1003.00
49.6094 1072.00
49.6746 1202.00
49.7398 1495.00
49.805 2402.00
49.8702 3172.00
49.9354 2708.00
50.0006 2269.00
50.0658 1738.00
50.131 1178.00
50.1962 1027.00
50.2614 938.00
50.3266 953.00
50.3918 949.00
50.457 981.00
50.5222 1042.00
50.5874 1331.00
50.6526 1973.00
50.7178 3612.00
50.783 3907.00
50.8482 3142.00
50.9134 2645.00
50.9786 1827.00
51.0438 1522.00
51.109 1837.00
51.1742 2279.00
51.2394 2028.00
51.3046 1804.00
51.3698 1341.00
51.435 1019.00
51.5002 890.00
51.5654 854.00
51.6306 910.00
51.6958 901.00
51.761 1057.00
51.8262 1208.00
51.8914 1209.00
51.9566 1109.00
52.0218 945.00
52.087 800.00
52.1522 777.00
52.2174 714.00
52.2826 713.00
52.3477 683.00
52.4129 627.00
52.4781 695.00
52.5433 681.00
52.6085 671.00
52.6737 673.00
52.7389 679.00
52.8041 648.00
52.8693 721.00
52.9345 696.00
52.9997 716.00
53.0649 688.00
53.1301 685.00
53.1953 660.00
53.2605 679.00
53.3257 687.00
53.3909 656.00
53.4561 672.00
53.5213 712.00
53.5865 691.00
53.6517 645.00
53.7169 697.00
53.7821 767.00
53.8473 730.00
53.9125 699.00
53.9777 739.00
54.0429 724.00
54.1081 789.00
54.1733 792.00
54.2385 784.00
54.3037 903.00
54.3689 904.00
54.4341 1043.00
54.4993 1205.00
54.5645 1553.00
54.6297 1941.00
54.6949 2784.00
54.7601 4640.00
54.8253 8498.00
54.8905 6730.00
54.9557 5077.00
55.0209 4576.00
55.0861 2068.00
55.1513 1382.00
55.2165 1220.00
55.2817 1143.00
55.3469 1144.00
55.4121 1022.00
55.4773 1009.00
55.5425 964.00
55.6077 901.00
55.6729 954.00
55.7381 1012.00
55.8033 1240.00
55.8685 1580.00
55.9337 2128.00
55.9989 2524.00
56.0641 2527.00
56.1293 2358.00
56.1945 2282.00
56.2597 1877.00
56.3249 1590.00
56.3901 1581.00
56.4553 1419.00
56.5205 1710.00
56.5857 1936.00
56.6509 1727.00
56.7161 1574.00
56.7813 1297.00
56.8465 1018.00
56.9117 951.00
56.9769 875.00
57.042 836.00
57.1073 817.00
57.1724 863.00
57.2376 894.00
57.3028 940.00
57.368 1229.00
57.4332 2096.00
57.4984 3132.00
57.5636 1922.00
57.6288 2193.00
57.694 1694.00
57.7592 1643.00
57.8244 1807.00
57.8896 1679.00
57.9548 1531.00
58.02 1415.00
58.0852 1137.00
58.1504 992.00
58.2156 891.00
58.2808 854.00
58.346 839.00
58.4112 1002.00
58.4764 1218.00
58.5416 1467.00
58.6068 1454.00
58.672 1356.00
58.7372 1292.00
58.8024 1131.00
58.8676 1196.00
58.9328 1336.00
58.998 1263.00
59.0632 1152.00
59.1284 1079.00
59.1936 1019.00
59.2588 1040.00
59.324 1118.00
59.3892 1900.00
59.4544 1698.00
59.5196 1252.00
59.5848 1420.00
59.65 986.00
59.7152 897.00
59.7804 851.00
59.8456 764.00
59.9108 756.00
59.976 695.00
60.0412 728.00
60.1064 729.00
60.1716 847.00
60.2368 877.00
60.302 1026.00
60.3672 1250.00
60.4324 1632.00
60.4976 1848.00
60.5628 1808.00
60.628 1780.00
60.6932 1799.00
60.7584 1555.00
60.8236 1382.00
60.8888 1152.00
60.954 1045.00
61.0192 860.00
61.0844 839.00
61.1496 815.00
61.2148 738.00
61.28 726.00
61.3452 804.00
61.4104 663.00
61.4756 696.00
61.5408 734.00
61.606 701.00
61.6712 737.00
61.7364 769.00
61.8016 845.00
61.8667 873.00
61.932 1138.00
61.9971 1371.00
62.0623 1437.00
62.1275 1338.00
62.1927 1269.00
62.2579 1109.00
62.3231 1014.00
62.3883 1028.00
62.4535 1084.00
62.5187 1242.00
62.5839 1507.00
62.6491 1594.00
62.7143 1428.00
62.7795 1328.00
62.8447 1132.00
62.9099 1003.00
62.9751 837.00
63.0403 794.00
63.1055 818.00
63.1707 783.00
63.2359 819.00
63.3011 919.00
63.3663 1030.00
63.4315 1270.00
63.4967 1634.00
63.5619 1784.00
63.6271 1647.00
63.6923 1450.00
63.7575 1293.00
63.8227 1049.00
63.8879 892.00
63.9531 828.00
64.0183 793.00
64.0835 804.00
64.1487 779.00
64.2139 807.00
64.2791 883.00
64.3443 1242.00
64.4095 1282.00
64.4747 886.00
64.5399 1044.00
64.6051 884.00
64.6703 845.00
64.7355 867.00
64.8007 943.00
64.8659 868.00
64.9311 1061.00
64.9963 1127.00
65.0615 935.00
65.1267 849.00
65.1919 889.00
65.2571 758.00
65.3223 700.00
65.3875 681.00
65.4527 665.00
65.5179 674.00
65.5831 651.00
65.6483 678.00
65.7135 733.00
65.7787 714.00
65.8439 788.00
65.9091 759.00
65.9743 891.00
66.0395 974.00
66.1047 1052.00
66.1699 1127.00
66.2351 1105.00
66.3003 1220.00
66.3655 1421.00
66.4307 1724.00
66.4959 1539.00
66.561 1393.00
66.6263 1310.00
66.6915 1182.00
66.7566 918.00
66.8218 849.00
66.887 788.00
66.9522 804.00
67.0174 733.00
67.0826 714.00
67.1478 745.00
67.213 725.00
67.2782 874.00
67.3434 1266.00
67.4086 1322.00
67.4738 981.00
67.539 1075.00
67.6042 965.00
67.6694 707.00
67.7346 605.00
67.7998 614.00
67.865 594.00
67.9302 595.00
67.9954 616.00
68.0606 583.00
68.1258 606.00
68.191 659.00
68.2562 593.00
68.3214 575.00
68.3866 567.00
68.4518 569.00
68.517 619.00
68.5822 564.00
68.6474 584.00
68.7126 598.00
68.7778 649.00
68.843 603.00
68.9082 620.00
68.9734 683.00
69.0386 814.00
69.1038 1156.00
69.169 1299.00
69.2342 897.00
69.2994 960.00
69.3646 1009.00
69.4298 842.00
69.495 742.00
69.5602 804.00
69.6254 928.00
69.6906 964.00
69.7558 898.00
69.821 841.00
69.8862 815.00
69.9514 715.00
70.0166 704.00
70.0818 659.00
70.147 600.00
70.2122 665.00
70.2774 639.00
70.3426 702.00
70.4078 661.00
70.473 635.00
70.5382 684.00
70.6034 636.00
70.6686 591.00
70.7338 626.00
70.799 657.00
70.8642 661.00
70.9294 674.00
70.9946 655.00
71.0598 629.00
71.125 638.00
71.1902 649.00
71.2554 650.00
71.3205 615.00
71.3858 682.00
71.451 666.00
71.5162 660.00
71.5813 665.00
71.6465 804.00
71.7117 887.00
71.7769 1118.00
71.8421 1167.00
71.9073 1140.00
71.9725 1383.00
72.0377 1366.00
72.1029 1095.00
72.1681 997.00
72.2333 926.00
72.2985 864.00
72.3637 751.00
72.4289 646.00
72.4941 697.00
72.5593 724.00
72.6245 755.00
72.6897 818.00
72.7549 807.00
72.8201 843.00
72.8853 910.00
72.9505 763.00
73.0157 781.00
73.0809 731.00
73.1461 728.00
73.2113 788.00
73.2765 880.00
73.3417 853.00
73.4069 890.00
73.4721 838.00
73.5373 742.00
73.6025 777.00
73.6677 794.00
73.7329 842.00
73.7981 719.00
73.8633 745.00
73.9285 776.00
73.9937 800.00
74.0589 782.00
74.1241 844.00
74.1893 1068.00
74.2545 1558.00
74.3197 2777.00
74.3849 1722.00
74.4501 1326.00
74.5153 1763.00
74.5805 1422.00
74.6457 925.00
74.7109 746.00
74.7761 688.00
74.8413 666.00
74.9065 676.00
74.9717 631.00
75.0369 622.00
75.1021 631.00
75.1673 662.00
75.2325 659.00
75.2977 766.00
75.3629 769.00
75.4281 866.00
75.4933 879.00
75.5585 818.00
75.6237 781.00
75.6889 905.00
75.7541 951.00
75.8193 1112.00
75.8845 1189.00
75.9497 1042.00
76.0149 1010.00
76.0801 1026.00
76.1452 1012.00
76.2104 876.00
76.2756 870.00
76.3409 826.00
76.406 931.00
76.4712 1123.00
76.5364 1774.00
76.6016 2188.00
76.6668 1360.00
76.732 1272.00
76.7972 1579.00
76.8624 1147.00
76.9276 849.00
76.9928 790.00
77.058 813.00
77.1232 856.00
77.1884 897.00
77.2536 893.00
77.3188 900.00
77.384 855.00
77.4492 815.00
77.5144 763.00
77.5796 720.00
77.6448 696.00
77.71 724.00
77.7752 722.00
77.8404 778.00
77.9056 710.00
77.9708 703.00
78.036 769.00
78.1012 819.00
78.1664 906.00
78.2316 1109.00
78.2968 1133.00
78.362 923.00
78.4272 895.00
78.4924 947.00
78.5576 828.00
78.6228 761.00
78.688 735.00
78.7532 787.00
78.8184 881.00
78.8836 763.00
78.9488 760.00
79.014 818.00
79.0792 775.00
79.1444 617.00
79.2096 649.00
79.2748 652.00
79.34 686.00
79.4052 709.00
79.4704 671.00
79.5356 707.00
79.6008 796.00
79.666 880.00
79.7312 946.00
79.7964 869.00
79.8616 783.00
79.9268 811.00
79.992 778.00
80.0572 760.00
80.1224 627.00
80.1876 625.00
80.2528 570.00
80.318 606.00
80.3832 584.00
80.4484 641.00
80.5136 556.00
80.5788 559.00
80.644 595.00
80.7092 604.00
80.7744 623.00
80.8396 567.00
80.9048 578.00
80.9699 608.00
81.0351 633.00
81.1003 596.00
81.1655 663.00
81.2307 614.00
81.2959 680.00
81.3611 642.00
81.4263 657.00
81.4915 640.00
81.5567 638.00
81.6219 647.00
81.6871 612.00
81.7523 644.00
81.8175 630.00
81.8827 629.00
81.9479 678.00
82.0131 719.00
82.0783 746.00
82.1435 739.00
82.2087 829.00
82.2739 849.00
82.3391 953.00
82.4043 915.00
82.4695 824.00
82.5347 791.00
82.5999 921.00
82.6651 912.00
82.7303 905.00
82.7955 750.00
82.8607 778.00
82.9259 785.00
82.9911 788.00
83.0563 704.00
83.1215 736.00
83.1867 722.00
83.2519 779.00
83.3171 817.00
83.3823 835.00
83.4475 848.00
83.5127 871.00
83.5779 797.00
83.6431 815.00
83.7083 863.00
83.7735 810.00
83.8387 852.00
83.9039 948.00
83.9691 920.00
84.0343 834.00
84.0995 858.00
84.1647 888.00
84.2299 858.00
84.2951 787.00
84.3603 762.00
84.4255 740.00
84.4907 829.00
84.5559 805.00
84.6211 851.00
84.6863 938.00
84.7515 942.00
84.8167 921.00
84.8819 969.00
84.9471 1028.00
85.0123 1047.00
85.0775 969.00
85.1427 902.00
85.2079 909.00
85.2731 919.00
85.3383 1156.00
85.4035 1566.00
85.4687 1486.00
85.5339 1057.00
85.5991 1008.00
85.6643 1204.00
85.7295 1271.00
85.7946 1031.00
85.8598 906.00
85.925 780.00
85.9903 770.00
86.0554 740.00
86.1206 677.00
86.1858 643.00
86.251 704.00
86.3162 611.00
86.3814 628.00
86.4466 577.00
86.5118 600.00
86.577 670.00
86.6422 623.00
86.7074 669.00
86.7726 686.00
86.8378 765.00
86.903 747.00
86.9682 877.00
87.0334 944.00
87.0986 919.00
87.1638 839.00
87.229 762.00
87.2942 837.00
87.3594 804.00
87.4246 682.00
87.4898 640.00
87.555 678.00
87.6202 545.00
87.6854 621.00
87.7506 615.00
87.8158 579.00
87.881 635.00
87.9462 616.00
88.0114 623.00
88.0766 618.00
88.1418 681.00
88.207 792.00
88.2722 841.00
88.3374 848.00
88.4026 845.00
88.4678 822.00
88.533 770.00
88.5982 779.00
88.6634 761.00
88.7286 729.00
88.7938 716.00
88.859 777.00
88.9242 830.00
88.9894 866.00
89.0546 917.00
89.1198 895.00
89.185 872.00
89.2502 900.00
89.3154 969.00
89.3806 990.00
89.4458 1018.00
89.511 944.00
89.5762 856.00
89.6414 819.00
89.7066 783.00
89.7718 831.00
89.837 748.00
89.9022 751.00
89.9674 733.00
90.0326 734.00
90.0978 771.00
90.163 794.00
90.2282 787.00
90.2934 773.00
90.3586 772.00
90.4238 776.00
90.489 819.00
90.5542 883.00
90.6193 965.00
90.6845 970.00
90.7497 982.00
90.8149 907.00
90.8801 849.00
90.9453 881.00
91.0105 758.00
91.0757 823.00
91.1409 756.00
91.2061 786.00
91.2713 804.00
91.3365 922.00
91.4017 1248.00
91.4669 1397.00
91.5321 1020.00
91.5973 960.00
91.6625 999.00
91.7277 1119.00
91.7929 1047.00
91.8581 1022.00
91.9233 1284.00
91.9885 1779.00
92.0537 1421.00
92.1189 1043.00
92.1841 1027.00
92.2493 1267.00
92.3145 1200.00
92.3797 952.00
92.4449 779.00
92.5101 717.00
92.5753 692.00
92.6405 681.00
92.7057 664.00
92.7709 671.00
92.8361 611.00
92.9013 617.00
92.9665 589.00
93.0317 651.00
93.0969 611.00
93.1621 627.00
93.2273 499.00
93.2925 583.00
93.3577 583.00
93.4229 560.00
93.4881 580.00
93.5533 569.00
93.6185 634.00
93.6837 576.00
93.7489 629.00
93.8141 620.00
93.8793 619.00
93.9445 603.00
94.0097 588.00
94.0749 653.00
94.1401 616.00
94.2053 635.00
94.2705 685.00
94.3357 600.00
94.4009 633.00
94.4661 618.00
94.5313 698.00
94.5965 707.00
94.6617 760.00
94.7269 790.00
94.7921 766.00
94.8573 743.00
94.9225 684.00
94.9877 777.00
95.0529 668.00
95.1181 699.00
95.1833 650.00
95.2485 661.00
95.3137 666.00
95.3789 629.00
95.444 676.00
95.5092 651.00
95.5744 752.00
95.6396 756.00
95.7048 800.00
95.77 846.00
95.8352 974.00
95.9004 917.00
95.9656 886.00
96.0308 936.00
96.096 911.00
96.1612 970.00
96.2264 909.00
96.2916 797.00
96.3568 829.00
96.422 809.00
96.4872 775.00
96.5524 659.00
96.6176 632.00
96.6828 707.00
96.748 689.00
96.8132 682.00
96.8784 776.00
96.9436 769.00
97.0088 817.00
97.074 905.00
97.1392 918.00
97.2044 842.00
97.2696 892.00
97.3348 856.00
97.4 1001.00
97.4652 1054.00
97.5304 973.00
97.5956 1046.00
97.6608 974.00
97.726 1002.00
97.7912 1030.00
97.8564 1049.00
97.9216 1039.00
97.9868 972.00
98.052 879.00
98.1172 867.00
98.1824 790.00
98.2476 830.00
98.3128 773.00
98.378 724.00
98.4432 745.00
98.5084 660.00
98.5736 743.00
98.6388 694.00
98.704 667.00
98.7692 681.00
98.8344 778.00
98.8996 867.00
98.9648 850.00
99.03 853.00
99.0952 812.00
99.1604 765.00
99.2256 811.00
99.2908 784.00
99.356 779.00
99.4212 763.00
99.4864 783.00
99.5516 821.00
99.6168 889.00
99.682 860.00
99.7472 846.00
99.8124 836.00
99.8776 824.00
99.9428 817.00
100.008 872.00
100.073 899.00
100.095 915.00