File: data/xrd_creation/results/PG_1118-1.xy
10.0094 2520.00
10.0746 2363.00
10.1398 2401.00
10.205 2409.00
10.2702 2465.00
10.3354 2300.00
10.4006 2295.00
10.4658 2341.00
10.531 2326.00
10.5962 2368.00
10.6614 2254.00
10.7266 2340.00
10.7918 2234.00
10.857 2295.00
10.9222 2191.00
10.9874 2267.00
11.0526 2200.00
11.1178 2114.00
11.183 2150.00
11.2482 2146.00
11.3134 2101.00
11.3786 2193.00
11.4438 2096.00
11.509 2141.00
11.5742 2083.00
11.6394 2210.00
11.7046 2089.00
11.7698 2155.00
11.835 2092.00
11.9002 2046.00
11.9654 2053.00
12.0306 2101.00
12.0958 2009.00
12.161 1889.00
12.2262 1898.00
12.2914 2027.00
12.3566 1951.00
12.4218 1831.00
12.487 1936.00
12.5522 1935.00
12.6174 1944.00
12.6826 1867.00
12.7478 1833.00
12.813 1862.00
12.8782 1874.00
12.9434 1816.00
13.0086 1796.00
13.0738 1818.00
13.139 1751.00
13.2042 1852.00
13.2694 1852.00
13.3346 1711.00
13.3998 1699.00
13.465 1786.00
13.5302 1786.00
13.5954 1727.00
13.6606 1818.00
13.7258 1776.00
13.791 1790.00
13.8562 1797.00
13.9214 1703.00
13.9865 1799.00
14.0517 1668.00
14.1169 1714.00
14.1821 1734.00
14.2473 1683.00
14.3125 1725.00
14.3777 1709.00
14.4429 1725.00
14.5081 1628.00
14.5733 1697.00
14.6385 1641.00
14.7037 1618.00
14.7689 1636.00
14.8341 1650.00
14.8993 1724.00
14.9645 1628.00
15.0297 1768.00
15.0949 1632.00
15.1601 1577.00
15.2253 1622.00
15.2905 1687.00
15.3557 1711.00
15.4209 1682.00
15.4861 1563.00
15.5513 1590.00
15.6165 1642.00
15.6817 1616.00
15.7469 1618.00
15.8121 1576.00
15.8773 1541.00
15.9425 1533.00
16.0077 1647.00
16.0729 1569.00
16.1381 1635.00
16.2033 1558.00
16.2685 1542.00
16.3337 1646.00
16.3989 1557.00
16.4641 1585.00
16.5293 1602.00
16.5945 1492.00
16.6597 1624.00
16.7249 1514.00
16.7901 1526.00
16.8553 1546.00
16.9205 1501.00
16.9857 1538.00
17.0509 1522.00
17.1161 1581.00
17.1813 1502.00
17.2465 1500.00
17.3117 1482.00
17.3769 1516.00
17.4421 1452.00
17.5073 1499.00
17.5725 1586.00
17.6377 1566.00
17.7029 1485.00
17.7681 1511.00
17.8333 1498.00
17.8985 1425.00
17.9637 1488.00
18.0289 1484.00
18.0941 1516.00
18.1593 1536.00
18.2245 1413.00
18.2897 1486.00
18.3549 1536.00
18.4201 1427.00
18.4853 1550.00
18.5505 1461.00
18.6157 1420.00
18.6809 1469.00
18.7461 1383.00
18.8112 1415.00
18.8764 1421.00
18.9416 1421.00
19.0068 1446.00
19.072 1468.00
19.1372 1438.00
19.2024 1442.00
19.2676 1404.00
19.3328 1426.00
19.398 1391.00
19.4632 1352.00
19.5284 1418.00
19.5936 1352.00
19.6588 1339.00
19.724 1385.00
19.7892 1350.00
19.8544 1369.00
19.9196 1391.00
19.9848 1364.00
20.05 1316.00
20.1152 1395.00
20.1804 1355.00
20.2456 1335.00
20.3108 1319.00
20.376 1335.00
20.4412 1306.00
20.5064 1298.00
20.5716 1388.00
20.6368 1261.00
20.702 1388.00
20.7672 1288.00
20.8324 1348.00
20.8976 1312.00
20.9628 1321.00
21.028 1296.00
21.0932 1330.00
21.1584 1310.00
21.2236 1323.00
21.2888 1353.00
21.354 1321.00
21.4192 1395.00
21.4844 1512.00
21.5496 1568.00
21.6148 1804.00
21.68 2296.00
21.7452 2967.00
21.8104 3165.00
21.8756 1985.00
21.9408 1388.00
22.006 1352.00
22.0712 1345.00
22.1364 1322.00
22.2016 1256.00
22.2668 1242.00
22.332 1268.00
22.3972 1228.00
22.4624 1320.00
22.5276 1249.00
22.5928 1237.00
22.658 1221.00
22.7232 1304.00
22.7884 1272.00
22.8536 1228.00
22.9188 1255.00
22.984 1175.00
23.0492 1293.00
23.1144 1212.00
23.1796 1233.00
23.2448 1234.00
23.31 1220.00
23.3752 1188.00
23.4404 1178.00
23.5056 1162.00
23.5708 1238.00
23.6359 1216.00
23.7011 1175.00
23.7663 1175.00
23.8315 1177.00
23.8967 1205.00
23.9619 1197.00
24.0271 1162.00
24.0923 1182.00
24.1575 1153.00
24.2227 1097.00
24.2879 1100.00
24.3531 1107.00
24.4183 1123.00
24.4835 1144.00
24.5487 1113.00
24.6139 1146.00
24.6791 1196.00
24.7443 1125.00
24.8095 1099.00
24.8747 1118.00
24.9399 1157.00
25.0051 1243.00
25.0703 1159.00
25.1355 1202.00
25.2007 1104.00
25.2659 1138.00
25.3311 1142.00
25.3963 1164.00
25.4615 1094.00
25.5267 1110.00
25.5919 1071.00
25.6571 1135.00
25.7223 1144.00
25.7875 1153.00
25.8527 1144.00
25.9179 1070.00
25.9831 1154.00
26.0483 1197.00
26.1135 1055.00
26.1787 1065.00
26.2439 1123.00
26.3091 1102.00
26.3743 1052.00
26.4395 1045.00
26.5047 1063.00
26.5699 1070.00
26.6351 1091.00
26.7003 1100.00
26.7655 1083.00
26.8307 1106.00
26.8959 1075.00
26.9611 1058.00
27.0263 1096.00
27.0915 1086.00
27.1567 1035.00
27.2219 1082.00
27.2871 1097.00
27.3523 1081.00
27.4175 1135.00
27.4827 1029.00
27.5479 1112.00
27.6131 1059.00
27.6783 1049.00
27.7435 1034.00
27.8087 1153.00
27.8739 1140.00
27.9391 1067.00
28.0043 1012.00
28.0695 1069.00
28.1347 1098.00
28.1999 1131.00
28.2651 1056.00
28.3303 1060.00
28.3955 1047.00
28.4606 1018.00
28.5258 1080.00
28.591 1048.00
28.6562 973.00
28.7214 1086.00
28.7866 1054.00
28.8518 1078.00
28.917 967.00
28.9822 1007.00
29.0474 1072.00
29.1126 1006.00
29.1778 1036.00
29.243 960.00
29.3082 1025.00
29.3734 1005.00
29.4386 999.00
29.5038 1026.00
29.569 1043.00
29.6342 994.00
29.6994 1049.00
29.7646 1079.00
29.8298 1045.00
29.895 1159.00
29.9602 1090.00
30.0254 1173.00
30.0906 1151.00
30.1558 1168.00
30.221 1205.00
30.2862 1227.00
30.3514 1308.00
30.4166 1451.00
30.4818 1596.00
30.547 1970.00
30.6122 2758.00
30.6774 4407.00
30.7426 7828.00
30.8078 15292.00
30.873 23456.00
30.9382 14228.00
31.0034 5586.00
31.0686 2301.00
31.1338 1800.00
31.199 1482.00
31.2642 1382.00
31.3294 1246.00
31.3946 1172.00
31.4598 1168.00
31.525 1107.00
31.5902 1116.00
31.6554 1060.00
31.7206 1078.00
31.7858 1103.00
31.851 1029.00
31.9162 1023.00
31.9814 1099.00
32.0466 1067.00
32.1118 1053.00
32.177 1053.00
32.2422 1054.00
32.3074 992.00
32.3726 1074.00
32.4378 998.00
32.503 1024.00
32.5682 1100.00
32.6334 1088.00
32.6986 1089.00
32.7638 1228.00
32.829 1326.00
32.8942 1114.00
32.9594 1064.00
33.0246 1007.00
33.0898 1044.00
33.1549 1031.00
33.2201 1073.00
33.2853 1107.00
33.3505 1229.00
33.4157 1225.00
33.4809 1126.00
33.5461 1059.00
33.6113 1028.00
33.6765 1021.00
33.7417 1025.00
33.8069 996.00
33.8721 947.00
33.9373 914.00
34.0025 977.00
34.0677 947.00
34.1329 968.00
34.1981 1001.00
34.2633 924.00
34.3285 997.00
34.3937 1007.00
34.4589 979.00
34.5241 972.00
34.5893 1017.00
34.6545 968.00
34.7197 1003.00
34.7849 1004.00
34.8501 1022.00
34.9153 949.00
34.9805 998.00
35.0457 1005.00
35.1109 986.00
35.1761 1094.00
35.2413 1082.00
35.3065 1209.00
35.3717 1282.00
35.4369 1426.00
35.5021 1765.00
35.5673 2620.00
35.6325 4623.00
35.6977 8398.00
35.7629 9893.00
35.8281 7844.00
35.8933 4428.00
35.9585 2613.00
36.0237 1683.00
36.0889 1386.00
36.1541 1161.00
36.2193 1057.00
36.2845 1104.00
36.3497 1001.00
36.4149 998.00
36.4801 991.00
36.5453 980.00
36.6105 955.00
36.6757 993.00
36.7409 1019.00
36.8061 1022.00
36.8713 913.00
36.9365 928.00
37.0017 911.00
37.0669 939.00
37.1321 944.00
37.1973 921.00
37.2625 887.00
37.3277 980.00
37.3929 997.00
37.4581 880.00
37.5233 978.00
37.5885 969.00
37.6537 923.00
37.7189 1073.00
37.7841 1085.00
37.8493 1293.00
37.9145 1752.00
37.9796 2227.00
38.0448 1693.00
38.11 1252.00
38.1752 1073.00
38.2404 995.00
38.3056 990.00
38.3708 993.00
38.436 991.00
38.5012 991.00
38.5664 1053.00
38.6316 1150.00
38.6968 1272.00
38.762 1509.00
38.8272 1931.00
38.8924 2751.00
38.9576 3904.00
39.0228 3963.00
39.088 3294.00
39.1532 2483.00
39.2184 2075.00
39.2836 1686.00
39.3488 1312.00
39.414 1184.00
39.4792 1030.00
39.5444 1023.00
39.6096 947.00
39.6748 939.00
39.74 996.00
39.8052 911.00
39.8704 937.00
39.9356 927.00
40.0008 1061.00
40.066 1192.00
40.1312 1191.00
40.1964 1014.00
40.2616 859.00
40.3268 897.00
40.392 825.00
40.4572 872.00
40.5224 904.00
40.5876 880.00
40.6528 909.00
40.718 894.00
40.7832 845.00
40.8484 870.00
40.9136 837.00
40.9788 860.00
41.044 888.00
41.1092 796.00
41.1744 846.00
41.2396 909.00
41.3048 908.00
41.37 883.00
41.4352 862.00
41.5004 890.00
41.5656 866.00
41.6308 934.00
41.696 875.00
41.7612 884.00
41.8264 890.00
41.8916 976.00
41.9568 1056.00
42.022 1268.00
42.0872 1850.00
42.1524 1820.00
42.2176 1540.00
42.2828 1119.00
42.348 948.00
42.4132 906.00
42.4784 909.00
42.5436 855.00
42.6088 876.00
42.6739 868.00
42.7392 865.00
42.8043 805.00
42.8695 880.00
42.9347 842.00
42.9999 878.00
43.0651 848.00
43.1303 838.00
43.1955 880.00
43.2607 872.00
43.3259 824.00
43.3911 861.00
43.4563 821.00
43.5215 866.00
43.5867 873.00
43.6519 828.00
43.7171 861.00
43.7823 877.00
43.8475 886.00
43.9127 856.00
43.9779 924.00
44.0431 1004.00
44.1083 1046.00
44.1735 1005.00
44.2387 874.00
44.3039 849.00
44.3691 891.00
44.4343 834.00
44.4995 875.00
44.5647 856.00
44.6299 856.00
44.6951 828.00
44.7603 878.00
44.8255 802.00
44.8907 826.00
44.9559 799.00
45.0211 865.00
45.0863 909.00
45.1515 830.00
45.2167 923.00
45.2819 847.00
45.3471 814.00
45.4123 801.00
45.4775 884.00
45.5427 931.00
45.6079 918.00
45.6731 989.00
45.7383 1076.00
45.8035 1212.00
45.8687 1712.00
45.9339 2828.00
45.9991 2336.00
46.0643 2053.00
46.1295 1338.00
46.1947 1002.00
46.2599 954.00
46.3251 902.00
46.3903 854.00
46.4555 882.00
46.5207 837.00
46.5859 943.00
46.6511 874.00
46.7163 826.00
46.7815 839.00
46.8467 832.00
46.9119 863.00
46.9771 865.00
47.0423 849.00
47.1075 809.00
47.1727 783.00
47.2379 824.00
47.3031 909.00
47.3683 847.00
47.4335 801.00
47.4986 867.00
47.5639 837.00
47.629 820.00
47.6942 797.00
47.7594 803.00
47.8246 865.00
47.8898 837.00
47.955 848.00
48.0202 830.00
48.0854 894.00
48.1506 895.00
48.2158 786.00
48.281 881.00
48.3462 815.00
48.4114 839.00
48.4766 847.00
48.5418 788.00
48.607 837.00
48.6722 869.00
48.7374 929.00
48.8026 1056.00
48.8678 1133.00
48.933 1322.00
48.9982 1635.00
49.0634 1642.00
49.1286 1514.00
49.1938 1305.00
49.259 1097.00
49.3242 1031.00
49.3894 1037.00
49.4546 1093.00
49.5198 1411.00
49.585 1343.00
49.6502 1194.00
49.7154 1103.00
49.7806 942.00
49.8458 875.00
49.911 872.00
49.9762 881.00
50.0414 850.00
50.1066 845.00
50.1718 845.00
50.237 882.00
50.3022 863.00
50.3674 920.00
50.4326 841.00
50.4978 914.00
50.563 940.00
50.6282 922.00
50.6934 919.00
50.7586 980.00
50.8238 1010.00
50.889 1115.00
50.9542 1220.00
51.0194 1466.00
51.0846 1852.00
51.1498 2834.00
51.215 5686.00
51.2802 9497.00
51.3454 5715.00
51.4106 5470.00
51.4758 2818.00
51.541 1524.00
51.6062 1228.00
51.6714 1121.00
51.7366 983.00
51.8018 953.00
51.867 936.00
51.9322 874.00
51.9974 936.00
52.0626 891.00
52.1278 836.00
52.193 894.00
52.2582 826.00
52.3233 882.00
52.3886 889.00
52.4537 868.00
52.5189 875.00
52.5841 834.00
52.6493 901.00
52.7145 881.00
52.7797 879.00
52.8449 1013.00
52.9101 1102.00
52.9753 1284.00
53.0405 1125.00
53.1057 1190.00
53.1709 959.00
53.2361 849.00
53.3013 881.00
53.3665 888.00
53.4317 878.00
53.4969 915.00
53.5621 964.00
53.6273 951.00
53.6925 1015.00
53.7577 1089.00
53.8229 1051.00
53.8881 1027.00
53.9533 973.00
54.0185 911.00
54.0837 831.00
54.1489 847.00
54.2141 891.00
54.2793 838.00
54.3445 876.00
54.4097 889.00
54.4749 843.00
54.5401 877.00
54.6053 941.00
54.6705 917.00
54.7357 974.00
54.8009 847.00
54.8661 892.00
54.9313 862.00
54.9965 886.00
55.0617 842.00
55.1269 836.00
55.1921 818.00
55.2573 839.00
55.3225 853.00
55.3877 800.00
55.4529 850.00
55.5181 839.00
55.5833 789.00
55.6485 835.00
55.7137 907.00
55.7789 816.00
55.8441 852.00
55.9093 938.00
55.9745 938.00
56.0397 941.00
56.1049 1152.00
56.1701 1581.00
56.2353 1970.00
56.3005 1465.00
56.3657 1538.00
56.4309 1196.00
56.4961 948.00
56.5613 928.00
56.6265 894.00
56.6917 907.00
56.7569 858.00
56.8221 864.00
56.8873 828.00
56.9525 855.00
57.0177 904.00
57.0829 927.00
57.148 823.00
57.2132 862.00
57.2784 824.00
57.3436 846.00
57.4088 869.00
57.474 836.00
57.5392 820.00
57.6044 909.00
57.6696 830.00
57.7348 970.00
57.8 1089.00
57.8652 1069.00
57.9304 896.00
57.9956 961.00
58.0608 909.00
58.126 919.00
58.1912 891.00
58.2564 966.00
58.3216 982.00
58.3868 1007.00
58.452 1131.00
58.5172 1220.00
58.5824 1178.00
58.6476 1079.00
58.7128 1076.00
58.778 956.00
58.8432 974.00
58.9084 887.00
58.9736 903.00
59.0388 871.00
59.104 923.00
59.1692 915.00
59.2344 1131.00
59.2996 1266.00
59.3648 1812.00
59.43 1488.00
59.4952 1333.00
59.5604 1284.00
59.6256 945.00
59.6908 950.00
59.756 850.00
59.8212 857.00
59.8864 909.00
59.9516 898.00
60.0168 907.00
60.082 892.00
60.1472 822.00
60.2124 864.00
60.2776 869.00
60.3428 890.00
60.408 986.00
60.4732 999.00
60.5384 1051.00
60.6036 1118.00
60.6688 1416.00
60.734 1777.00
60.7992 2798.00
60.8644 5478.00
60.9296 6482.00
60.9948 3635.00
61.06 4231.00
61.1252 2667.00
61.1904 1488.00
61.2556 1241.00
61.3208 1069.00
61.386 1027.00
61.4512 980.00
61.5164 943.00
61.5816 982.00
61.6468 1103.00
61.712 1237.00
61.7772 1448.00
61.8424 1426.00
61.9076 1300.00
61.9727 1210.00
62.0379 1147.00
62.1031 1063.00
62.1683 1010.00
62.2335 1059.00
62.2987 1258.00
62.3639 1698.00
62.4291 2130.00
62.4943 1454.00
62.5595 1455.00
62.6247 1401.00
62.6899 1025.00
62.7551 940.00
62.8203 837.00
62.8855 825.00
62.9507 858.00
63.0159 877.00
63.0811 825.00
63.1463 852.00
63.2115 830.00
63.2767 844.00
63.3419 848.00
63.4071 909.00
63.4723 853.00
63.5375 857.00
63.6027 893.00
63.6679 919.00
63.7331 1024.00
63.7983 1154.00
63.8635 1740.00
63.9287 1921.00
63.9939 1340.00
64.0591 1400.00
64.1243 1273.00
64.1895 1018.00
64.2547 897.00
64.3199 835.00
64.3851 869.00
64.4503 812.00
64.5155 865.00
64.5807 817.00
64.6459 871.00
64.7111 862.00
64.7763 809.00
64.8415 863.00
64.9067 862.00
64.9719 870.00
65.0371 849.00
65.1023 885.00
65.1675 819.00
65.2327 925.00
65.2979 1093.00
65.3631 1284.00
65.4283 1125.00
65.4935 1046.00
65.5587 1107.00
65.6239 971.00
65.6891 907.00
65.7543 938.00
65.8195 943.00
65.8847 1028.00
65.9499 1147.00
66.0151 1164.00
66.0803 1179.00
66.1455 1061.00
66.2107 1118.00
66.2759 1142.00
66.3411 1166.00
66.4063 1215.00
66.4715 1362.00
66.5367 1332.00
66.6019 1239.00
66.6671 1172.00
66.7322 1161.00
66.7974 1245.00
66.8626 1133.00
66.9278 985.00
66.993 963.00
67.0582 983.00
67.1234 917.00
67.1886 863.00
67.2538 841.00
67.319 850.00
67.3842 878.00
67.4494 846.00
67.5146 838.00
67.5798 857.00
67.645 852.00
67.7102 871.00
67.7754 917.00
67.8406 891.00
67.9058 932.00
67.971 1051.00
68.0362 1086.00
68.1014 1238.00
68.1666 1399.00
68.2318 1770.00
68.297 1877.00
68.3622 1592.00
68.4274 1488.00
68.4926 1452.00
68.5578 1080.00
68.623 1007.00
68.6882 956.00
68.7534 855.00
68.8186 852.00
68.8838 845.00
68.949 859.00
69.0142 863.00
69.0794 847.00
69.1446 825.00
69.2098 805.00
69.275 795.00
69.3402 861.00
69.4054 860.00
69.4706 819.00
69.5358 911.00
69.601 957.00
69.6662 1125.00
69.7314 1060.00
69.7966 928.00
69.8618 1055.00
69.927 909.00
69.9922 934.00
70.0574 855.00
70.1226 801.00
70.1878 873.00
70.253 784.00
70.3182 769.00
70.3834 831.00
70.4486 772.00
70.5138 789.00
70.579 777.00
70.6442 778.00
70.7094 800.00
70.7746 808.00
70.8398 860.00
70.905 819.00
70.9702 822.00
71.0354 750.00
71.1006 793.00
71.1658 763.00
71.231 783.00
71.2962 805.00
71.3614 829.00
71.4266 753.00
71.4918 828.00
71.5569 804.00
71.6221 780.00
71.6873 786.00
71.7525 760.00
71.8177 864.00
71.8829 828.00
71.9481 815.00
72.0133 780.00
72.0785 842.00
72.1437 830.00
72.2089 845.00
72.2741 852.00
72.3393 965.00
72.4045 883.00
72.4697 862.00
72.5349 1087.00
72.6001 1016.00
72.6653 957.00
72.7305 956.00
72.7957 913.00
72.8609 866.00
72.9261 895.00
72.9913 778.00
73.0565 851.00
73.1217 829.00
73.1869 813.00
73.2521 783.00
73.3173 824.00
73.3825 850.00
73.4477 870.00
73.5129 813.00
73.5781 859.00
73.6433 869.00
73.7085 880.00
73.7737 999.00
73.8389 1133.00
73.9041 1262.00
73.9693 1020.00
74.0345 1047.00
74.0997 1068.00
74.1649 963.00
74.2301 819.00
74.2953 840.00
74.3605 826.00
74.4257 817.00
74.4909 764.00
74.5561 859.00
74.6213 884.00
74.6865 851.00
74.7517 852.00
74.8169 871.00
74.8821 885.00
74.9473 878.00
75.0125 924.00
75.0777 1095.00
75.1429 1263.00
75.2081 1660.00
75.2733 1750.00
75.3385 1354.00
75.4037 1349.00
75.4689 1456.00
75.5341 1204.00
75.5993 991.00
75.6645 998.00
75.7297 944.00
75.7949 944.00
75.8601 822.00
75.9253 893.00
75.9905 861.00
76.0557 891.00
76.1209 824.00
76.186 858.00
76.2513 878.00
76.3165 832.00
76.3816 928.00
76.4468 987.00
76.512 1123.00
76.5772 1290.00
76.6424 1527.00
76.7076 1215.00
76.7728 1083.00
76.838 1180.00
76.9032 1067.00
76.9684 951.00
77.0336 869.00
77.0988 821.00
77.164 808.00
77.2292 823.00
77.2944 871.00
77.3596 805.00
77.4248 836.00
77.49 859.00
77.5552 784.00
77.6204 863.00
77.6856 852.00
77.7508 879.00
77.816 885.00
77.8812 940.00
77.9464 1190.00
78.0116 1179.00
78.0768 978.00
78.142 974.00
78.2072 1066.00
78.2724 1007.00
78.3376 909.00
78.4028 841.00
78.468 842.00
78.5332 868.00
78.5984 787.00
78.6636 851.00
78.7288 869.00
78.794 801.00
78.8592 823.00
78.9244 860.00
78.9896 879.00
79.0548 868.00
79.12 891.00
79.1852 891.00
79.2504 1022.00
79.3156 1216.00
79.3808 1197.00
79.446 971.00
79.5112 1069.00
79.5764 1033.00
79.6416 916.00
79.7068 922.00
79.772 877.00
79.8372 866.00
79.9024 798.00
79.9676 856.00
80.0328 835.00
80.098 852.00
80.1632 826.00
80.2284 854.00
80.2936 834.00
80.3588 889.00
80.424 888.00
80.4892 901.00
80.5544 1010.00
80.6196 1019.00
80.6848 1166.00
80.75 1011.00
80.8152 974.00
80.8804 932.00
80.9456 1053.00
81.0108 914.00
81.076 876.00
81.1412 806.00
81.2063 851.00
81.2715 835.00
81.3367 818.00
81.4019 802.00
81.4671 823.00
81.5323 851.00
81.5975 880.00
81.6627 850.00
81.7279 823.00
81.7931 846.00
81.8583 1036.00
81.9235 1056.00
81.9887 1368.00
82.0539 1437.00
82.1191 1078.00
82.1843 1050.00
82.2495 1145.00
82.3147 1149.00
82.3799 976.00
82.4451 973.00
82.5103 911.00
82.5755 973.00
82.6407 958.00
82.7059 928.00
82.7711 926.00
82.8363 940.00
82.9015 1000.00
82.9667 985.00
83.0319 999.00
83.0971 1036.00
83.1623 1160.00
83.2275 1331.00
83.2927 1631.00
83.3579 2277.00
83.4231 1800.00
83.4883 1422.00
83.5535 1436.00
83.6187 1628.00
83.6839 1322.00
83.7491 1064.00
83.8143 1018.00
83.8795 950.00
83.9447 998.00
84.0099 878.00
84.0751 927.00
84.1403 866.00
84.2055 829.00
84.2707 833.00
84.3359 881.00
84.4011 773.00
84.4663 795.00
84.5315 884.00
84.5967 878.00
84.6619 904.00
84.7271 870.00
84.7923 823.00
84.8575 816.00
84.9227 896.00
84.9879 854.00
85.0531 833.00
85.1183 902.00
85.1835 825.00
85.2487 788.00
85.3139 806.00
85.3791 815.00
85.4443 825.00
85.5095 839.00
85.5747 805.00
85.6399 885.00
85.7051 927.00
85.7703 945.00
85.8354 1022.00
85.9006 1144.00
85.9659 1484.00
86.031 1791.00
86.0962 1388.00
86.1614 1224.00
86.2266 1220.00
86.2918 1337.00
86.357 1178.00
86.4222 940.00
86.4874 873.00
86.5526 895.00
86.6178 842.00
86.683 914.00
86.7482 866.00
86.8134 865.00
86.8786 844.00
86.9438 873.00
87.009 943.00
87.0742 836.00
87.1394 934.00
87.2046 894.00
87.2698 961.00
87.335 1006.00
87.4002 999.00
87.4654 922.00
87.5306 933.00
87.5958 909.00
87.661 920.00
87.7262 930.00
87.7914 791.00
87.8566 837.00
87.9218 819.00
87.987 829.00
88.0522 822.00
88.1174 778.00
88.1826 854.00
88.2478 849.00
88.313 837.00
88.3782 856.00
88.4434 855.00
88.5086 878.00
88.5738 924.00
88.639 946.00
88.7042 1022.00
88.7694 999.00
88.8346 900.00
88.8998 920.00
88.965 964.00
89.0302 893.00
89.0954 862.00
89.1606 852.00
89.2258 832.00
89.291 918.00
89.3562 873.00
89.4214 839.00
89.4866 848.00
89.5518 820.00
89.617 856.00
89.6822 886.00
89.7474 971.00
89.8126 934.00
89.8778 1076.00
89.943 1205.00
90.0082 1436.00
90.0734 1261.00
90.1386 1123.00
90.2038 1035.00
90.269 1180.00
90.3342 1078.00
90.3994 950.00
90.4646 916.00
90.5298 873.00
90.595 900.00
90.6601 882.00
90.7253 860.00
90.7905 834.00
90.8557 806.00
90.9209 822.00
90.9861 881.00
91.0513 826.00
91.1165 805.00
91.1817 831.00
91.2469 834.00
91.3121 839.00
91.3773 827.00
91.4425 867.00
91.5077 817.00
91.5729 857.00
91.6381 877.00
91.7033 892.00
91.7685 858.00
91.8337 877.00
91.8989 869.00
91.9641 871.00
92.0293 879.00
92.0945 889.00
92.1597 905.00
92.2249 855.00
92.2901 856.00
92.3553 877.00
92.4205 858.00
92.4857 971.00
92.5509 1006.00
92.6161 1250.00
92.6813 1305.00
92.7465 1093.00
92.8117 966.00
92.8769 976.00
92.9421 1069.00
93.0073 1024.00
93.0725 948.00
93.1377 892.00
93.2029 875.00
93.2681 909.00
93.3333 814.00
93.3985 835.00
93.4637 839.00
93.5289 821.00
93.5941 893.00
93.6593 798.00
93.7245 825.00
93.7897 829.00
93.8549 821.00
93.9201 832.00
93.9853 841.00
94.0505 849.00
94.1157 786.00
94.1809 819.00
94.2461 824.00
94.3113 810.00
94.3765 869.00
94.4417 849.00
94.5069 861.00
94.5721 782.00
94.6373 870.00
94.7025 831.00
94.7677 867.00
94.8329 890.00
94.8981 818.00
94.9633 914.00
95.0285 888.00
95.0937 898.00
95.1589 994.00
95.2241 1083.00
95.2893 1192.00
95.3545 1217.00
95.4197 981.00
95.4848 986.00
95.55 1045.00
95.6153 1126.00
95.6804 1011.00
95.7456 951.00
95.8108 907.00
95.876 902.00
95.9412 891.00
96.0064 848.00
96.0716 857.00
96.1368 868.00
96.202 890.00
96.2672 881.00
96.3324 889.00
96.3976 943.00
96.4628 996.00
96.528 1132.00
96.5932 1477.00
96.6584 1724.00
96.7236 1378.00
96.7888 1125.00
96.854 1077.00
96.9192 1210.00
96.9844 1192.00
97.0496 1105.00
97.1148 957.00
97.18 912.00
97.2452 795.00
97.3104 889.00
97.3756 845.00
97.4408 895.00
97.506 869.00
97.5712 935.00
97.6364 887.00
97.7016 904.00
97.7668 924.00
97.832 1021.00
97.8972 1017.00
97.9624 1262.00
98.0276 1245.00
98.0928 1034.00
98.158 1053.00
98.2232 1022.00
98.2884 1121.00
98.3536 1088.00
98.4188 986.00
98.484 1000.00
98.5492 921.00
98.6144 989.00
98.6796 916.00
98.7448 868.00
98.81 924.00
98.8752 869.00
98.9404 935.00
99.0056 860.00
99.0708 967.00
99.136 1029.00
99.2012 1015.00
99.2664 1125.00
99.3316 1220.00
99.3968 1112.00
99.462 969.00
99.5272 972.00
99.5924 937.00
99.6576 1015.00
99.7228 1026.00
99.788 1015.00
99.8532 959.00
99.9184 878.00
99.9836 925.00
99.9944 889.00