File: data/xrd_creation/results/PG_1941-1.xy
9.903433 2850.00
9.968632 2753.00
10.0338 2743.00
10.099 2692.00
10.1642 2745.00
10.2294 2768.00
10.2946 2693.00
10.3598 2584.00
10.425 2574.00
10.4902 2597.00
10.5554 2608.00
10.6206 2600.00
10.6858 2562.00
10.751 2540.00
10.8162 2648.00
10.8814 2523.00
10.9466 2503.00
11.0118 2571.00
11.077 2468.00
11.1422 2580.00
11.2074 2411.00
11.2726 2430.00
11.3378 2451.00
11.403 2480.00
11.4682 2301.00
11.5334 2349.00
11.5986 2339.00
11.6638 2266.00
11.729 2229.00
11.7942 2280.00
11.8594 2432.00
11.9246 2348.00
11.9898 2213.00
12.055 2242.00
12.1202 2287.00
12.1854 2199.00
12.2506 2247.00
12.3158 2234.00
12.381 2166.00
12.4462 2168.00
12.5114 2148.00
12.5766 2235.00
12.6418 2235.00
12.707 2213.00
12.7722 2320.00
12.8374 2267.00
12.9026 2297.00
12.9678 2467.00
13.033 2537.00
13.0982 2593.00
13.1634 2679.00
13.2286 2314.00
13.2938 2114.00
13.359 2061.00
13.4242 2083.00
13.4894 2061.00
13.5546 2080.00
13.6198 2170.00
13.685 2315.00
13.7502 2468.00
13.8154 2779.00
13.8805 3311.00
13.9457 4169.00
14.0109 4997.00
14.0761 5989.00
14.1413 4835.00
14.2065 2684.00
14.2717 2179.00
14.3369 2033.00
14.4021 1986.00
14.4673 1975.00
14.5325 1955.00
14.5977 1968.00
14.6629 1887.00
14.7281 1892.00
14.7933 1959.00
14.8585 1879.00
14.9237 1827.00
14.9889 1862.00
15.0541 1787.00
15.1193 1828.00
15.1845 1806.00
15.2497 1818.00
15.3149 1823.00
15.3801 1883.00
15.4453 1740.00
15.5105 1723.00
15.5757 1861.00
15.6409 1785.00
15.7061 1795.00
15.7713 1742.00
15.8365 1705.00
15.9017 1643.00
15.9669 1694.00
16.0321 1772.00
16.0973 1709.00
16.1625 1745.00
16.2277 1674.00
16.2929 1650.00
16.3581 1732.00
16.4233 1665.00
16.4885 1723.00
16.5537 1638.00
16.6189 1603.00
16.6841 1639.00
16.7493 1672.00
16.8145 1636.00
16.8797 1585.00
16.9449 1605.00
17.0101 1643.00
17.0753 1656.00
17.1405 1605.00
17.2057 1566.00
17.2709 1590.00
17.3361 1570.00
17.4013 1470.00
17.4665 1575.00
17.5317 1540.00
17.5969 1525.00
17.6621 1571.00
17.7273 1518.00
17.7925 1477.00
17.8577 1506.00
17.9229 1485.00
17.9881 1474.00
18.0533 1550.00
18.1185 1397.00
18.1837 1424.00
18.2489 1385.00
18.3141 1427.00
18.3793 1414.00
18.4445 1415.00
18.5097 1405.00
18.5749 1452.00
18.6401 1388.00
18.7052 1497.00
18.7704 1484.00
18.8356 1400.00
18.9008 1335.00
18.966 1400.00
19.0312 1390.00
19.0964 1455.00
19.1616 1345.00
19.2268 1386.00
19.292 1409.00
19.3572 1410.00
19.4224 1363.00
19.4876 1362.00
19.5528 1354.00
19.618 1438.00
19.6832 1531.00
19.7484 1608.00
19.8136 1449.00
19.8788 1306.00
19.944 1285.00
20.0092 1297.00
20.0744 1278.00
20.1396 1236.00
20.2048 1274.00
20.27 1321.00
20.3352 1369.00
20.4004 1236.00
20.4656 1279.00
20.5308 1251.00
20.596 1209.00
20.6612 1273.00
20.7264 1189.00
20.7916 1253.00
20.8568 1240.00
20.922 1234.00
20.9872 1195.00
21.0524 1243.00
21.1176 1222.00
21.1828 1164.00
21.248 1224.00
21.3132 1222.00
21.3784 1226.00
21.4436 1143.00
21.5088 1198.00
21.574 1252.00
21.6392 1166.00
21.7044 1191.00
21.7696 1216.00
21.8348 1213.00
21.9 1156.00
21.9652 1191.00
22.0304 1219.00
22.0956 1116.00
22.1608 1198.00
22.226 1183.00
22.2912 1133.00
22.3564 1133.00
22.4216 1169.00
22.4868 1147.00
22.552 1155.00
22.6172 1136.00
22.6824 1090.00
22.7476 1143.00
22.8128 1100.00
22.878 1145.00
22.9432 1149.00
23.0084 1099.00
23.0736 1178.00
23.1388 1158.00
23.204 1186.00
23.2692 1182.00
23.3344 1197.00
23.3996 1181.00
23.4647 1055.00
23.5299 1088.00
23.5951 1059.00
23.6603 1107.00
23.7255 1092.00
23.7907 1031.00
23.8559 1114.00
23.9211 1047.00
23.9863 1034.00
24.0515 1085.00
24.1167 1044.00
24.1819 1011.00
24.2471 990.00
24.3123 1026.00
24.3775 1037.00
24.4427 1091.00
24.5079 1104.00
24.5731 1051.00
24.6383 971.00
24.7035 1022.00
24.7687 1035.00
24.8339 983.00
24.8991 988.00
24.9643 1021.00
25.0295 1001.00
25.0947 1025.00
25.1599 982.00
25.2251 1071.00
25.2903 1133.00
25.3555 1085.00
25.4207 1041.00
25.4859 1019.00
25.5511 1033.00
25.6163 1102.00
25.6815 1057.00
25.7467 1093.00
25.8119 1256.00
25.8771 1275.00
25.9423 1209.00
26.0075 1245.00
26.0727 1314.00
26.1379 1248.00
26.2031 1147.00
26.2683 950.00
26.3335 979.00
26.3987 987.00
26.4639 977.00
26.5291 1065.00
26.5943 991.00
26.6595 982.00
26.7247 1035.00
26.7899 1069.00
26.8551 1168.00
26.9203 1133.00
26.9855 1106.00
27.0507 1114.00
27.1159 1242.00
27.1811 1299.00
27.2463 1339.00
27.3115 1308.00
27.3767 1352.00
27.4419 1423.00
27.5071 1504.00
27.5723 1672.00
27.6375 1868.00
27.7027 2233.00
27.7679 3239.00
27.8331 5579.00
27.8983 11894.00
27.9635 25138.00
28.0287 39147.00
28.0939 24365.00
28.1591 8518.00
28.2243 3409.00
28.2894 2434.00
28.3546 2004.00
28.4198 1684.00
28.485 1534.00
28.5502 1491.00
28.6154 1723.00
28.6806 2329.00
28.7458 2122.00
28.811 1727.00
28.8762 1373.00
28.9414 1503.00
29.0066 1331.00
29.0718 1014.00
29.137 1047.00
29.2022 1029.00
29.2674 1015.00
29.3326 989.00
29.3978 1024.00
29.463 983.00
29.5282 1011.00
29.5934 978.00
29.6586 949.00
29.7238 996.00
29.789 1015.00
29.8542 1107.00
29.9194 1453.00
29.9846 1674.00
30.0498 1693.00
30.115 1288.00
30.1802 1095.00
30.2454 993.00
30.3106 1016.00
30.3758 936.00
30.441 980.00
30.5062 971.00
30.5714 966.00
30.6366 921.00
30.7018 903.00
30.767 944.00
30.8322 850.00
30.8974 912.00
30.9626 1051.00
31.0278 1102.00
31.093 1156.00
31.1582 992.00
31.2234 964.00
31.2886 948.00
31.3538 893.00
31.419 980.00
31.4842 950.00
31.5494 999.00
31.6146 973.00
31.6798 994.00
31.745 930.00
31.8102 1026.00
31.8754 1127.00
31.9406 1200.00
32.0058 1230.00
32.071 1307.00
32.1362 1456.00
32.2014 2178.00
32.2666 3780.00
32.3318 7760.00
32.397 14091.00
32.4622 12191.00
32.5274 7321.00
32.5926 3627.00
32.6578 3120.00
32.723 2390.00
32.7882 1913.00
32.8534 1877.00
32.9186 2487.00
32.9838 2580.00
33.0489 1924.00
33.1141 1226.00
33.1793 1051.00
33.2445 941.00
33.3097 967.00
33.3749 916.00
33.4401 899.00
33.5053 852.00
33.5705 861.00
33.6357 788.00
33.7009 812.00
33.7661 751.00
33.8313 798.00
33.8965 821.00
33.9617 816.00
34.0269 840.00
34.0921 850.00
34.1573 921.00
34.2225 896.00
34.2877 853.00
34.3529 753.00
34.4181 778.00
34.4833 687.00
34.5485 781.00
34.6137 737.00
34.6789 700.00
34.7441 696.00
34.8093 791.00
34.8745 753.00
34.9397 790.00
35.0049 741.00
35.0701 821.00
35.1353 895.00
35.2005 1135.00
35.2657 1761.00
35.3309 3126.00
35.3961 3855.00
35.4613 2581.00
35.5265 1559.00
35.5917 1041.00
35.6569 767.00
35.7221 817.00
35.7873 692.00
35.8525 728.00
35.9177 666.00
35.9829 703.00
36.0481 685.00
36.1133 676.00
36.1785 629.00
36.2437 644.00
36.3089 659.00
36.3741 684.00
36.4393 732.00
36.5045 658.00
36.5697 671.00
36.6349 635.00
36.7001 628.00
36.7653 651.00
36.8305 690.00
36.8957 702.00
36.9609 654.00
37.0261 658.00
37.0913 617.00
37.1565 606.00
37.2217 642.00
37.2869 592.00
37.3521 632.00
37.4173 634.00
37.4825 563.00
37.5477 587.00
37.6129 606.00
37.6781 592.00
37.7433 607.00
37.8085 626.00
37.8736 613.00
37.9388 581.00
38.004 658.00
38.0692 591.00
38.1344 637.00
38.1996 595.00
38.2648 610.00
38.33 603.00
38.3952 599.00
38.4604 637.00
38.5256 621.00
38.5908 604.00
38.656 664.00
38.7212 669.00
38.7864 816.00
38.8516 993.00
38.9168 1005.00
38.982 913.00
39.0472 839.00
39.1124 713.00
39.1776 669.00
39.2428 668.00
39.308 817.00
39.3732 932.00
39.4384 868.00
39.5036 897.00
39.5688 769.00
39.634 678.00
39.6992 735.00
39.7644 740.00
39.8296 957.00
39.8948 1188.00
39.96 1019.00
40.0252 1089.00
40.0904 981.00
40.1556 932.00
40.2208 811.00
40.286 679.00
40.3512 673.00
40.4164 642.00
40.4816 661.00
40.5468 618.00
40.612 623.00
40.6772 634.00
40.7424 837.00
40.8076 710.00
40.8728 596.00
40.938 615.00
41.0032 567.00
41.0684 572.00
41.1336 544.00
41.1988 533.00
41.264 579.00
41.3292 603.00
41.3944 579.00
41.4596 605.00
41.5248 738.00
41.59 999.00
41.6552 1138.00
41.7204 959.00
41.7856 805.00
41.8508 703.00
41.916 837.00
41.9812 769.00
42.0464 740.00
42.1116 707.00
42.1768 716.00
42.242 784.00
42.3072 1026.00
42.3724 1446.00
42.4376 1194.00
42.5028 1027.00
42.568 770.00
42.6332 613.00
42.6983 594.00
42.7635 621.00
42.8287 577.00
42.8939 509.00
42.9591 535.00
43.0243 528.00
43.0895 506.00
43.1547 556.00
43.2199 572.00
43.2851 590.00
43.3503 592.00
43.4155 514.00
43.4807 575.00
43.5459 541.00
43.6111 561.00
43.6763 521.00
43.7415 565.00
43.8067 532.00
43.8719 572.00
43.9371 521.00
44.0023 534.00
44.0675 465.00
44.1327 491.00
44.1979 519.00
44.2631 555.00
44.3283 528.00
44.3935 518.00
44.4587 514.00
44.5239 536.00
44.5891 640.00
44.6543 612.00
44.7195 583.00
44.7847 573.00
44.8499 518.00
44.9151 546.00
44.9803 578.00
45.0455 545.00
45.1107 567.00
45.1759 535.00
45.2411 606.00
45.3063 608.00
45.3715 634.00
45.4367 642.00
45.5019 641.00
45.5671 629.00
45.6323 586.00
45.6975 674.00
45.7627 652.00
45.8279 727.00
45.8931 735.00
45.9583 939.00
46.0235 1125.00
46.0887 1428.00
46.1539 2165.00
46.2191 4583.00
46.2843 10652.00
46.3495 11301.00
46.4147 7767.00
46.4799 5067.00
46.5451 2025.00
46.6103 1382.00
46.6755 1081.00
46.7407 852.00
46.8059 736.00
46.8711 635.00
46.9363 606.00
47.0015 614.00
47.0667 544.00
47.1319 583.00
47.1971 542.00
47.2623 628.00
47.3275 684.00
47.3927 669.00
47.4579 640.00
47.523 556.00
47.5882 534.00
47.6534 496.00
47.7186 513.00
47.7838 524.00
47.849 493.00
47.9142 487.00
47.9794 507.00
48.0446 564.00
48.1098 568.00
48.175 577.00
48.2402 569.00
48.3054 551.00
48.3706 580.00
48.4358 681.00
48.501 861.00
48.5662 1008.00
48.6314 773.00
48.6966 798.00
48.7618 599.00
48.827 597.00
48.8922 598.00
48.9574 615.00
49.0226 616.00
49.0878 622.00
49.153 552.00
49.2182 606.00
49.2834 648.00
49.3486 477.00
49.4138 535.00
49.479 487.00
49.5442 526.00
49.6094 613.00
49.6746 603.00
49.7398 560.00
49.805 517.00
49.8702 563.00
49.9354 540.00
50.0006 542.00
50.0658 467.00
50.131 528.00
50.1962 503.00
50.2614 457.00
50.3266 480.00
50.3918 566.00
50.457 508.00
50.5222 508.00
50.5874 468.00
50.6526 513.00
50.7178 551.00
50.783 630.00
50.8482 706.00
50.9134 703.00
50.9786 742.00
51.0438 638.00
51.109 658.00
51.1742 574.00
51.2394 573.00
51.3046 521.00
51.3698 526.00
51.435 516.00
51.5002 551.00
51.5654 490.00
51.6306 526.00
51.6958 588.00
51.761 639.00
51.8262 584.00
51.8914 535.00
51.9566 506.00
52.0218 506.00
52.087 501.00
52.1522 513.00
52.2174 463.00
52.2826 507.00
52.3477 501.00
52.4129 465.00
52.4781 436.00
52.5433 445.00
52.6085 433.00
52.6737 463.00
52.7389 489.00
52.8041 487.00
52.8693 488.00
52.9345 527.00
52.9997 473.00
53.0649 531.00
53.1301 489.00
53.1953 563.00
53.2605 477.00
53.3257 529.00
53.3909 527.00
53.4561 525.00
53.5213 577.00
53.5865 557.00
53.6517 541.00
53.7169 546.00
53.7821 561.00
53.8473 526.00
53.9125 585.00
53.9777 649.00
54.0429 635.00
54.1081 680.00
54.1733 637.00
54.2385 631.00
54.3037 669.00
54.3689 745.00
54.4341 872.00
54.4993 965.00
54.5645 1168.00
54.6297 1579.00
54.6949 2327.00
54.7601 5107.00
54.8253 10819.00
54.8905 8320.00
54.9557 6590.00
55.0209 5423.00
55.0861 2308.00
55.1513 1415.00
55.2165 1078.00
55.2817 841.00
55.3469 781.00
55.4121 702.00
55.4773 650.00
55.5425 609.00
55.6077 610.00
55.6729 589.00
55.7381 542.00
55.8033 583.00
55.8685 562.00
55.9337 538.00
55.9989 548.00
56.0641 532.00
56.1293 508.00
56.1945 554.00
56.2597 538.00
56.3249 493.00
56.3901 535.00
56.4553 473.00
56.5205 554.00
56.5857 513.00
56.6509 477.00
56.7161 468.00
56.7813 514.00
56.8465 512.00
56.9117 486.00
56.9769 523.00
57.042 541.00
57.1073 601.00
57.1724 605.00
57.2376 669.00
57.3028 813.00
57.368 1277.00
57.4332 2659.00
57.4984 3611.00
57.5636 2053.00
57.6288 2237.00
57.694 1465.00
57.7592 808.00
57.8244 681.00
57.8896 616.00
57.9548 538.00
58.02 543.00
58.0852 585.00
58.1504 520.00
58.2156 505.00
58.2808 493.00
58.346 424.00
58.4112 468.00
58.4764 476.00
58.5416 485.00
58.6068 457.00
58.672 467.00
58.7372 464.00
58.8024 484.00
58.8676 486.00
58.9328 498.00
58.998 582.00
59.0632 634.00
59.1284 682.00
59.1936 665.00
59.2588 878.00
59.324 1233.00
59.3892 2290.00
59.4544 1852.00
59.5196 1446.00
59.5848 1485.00
59.65 840.00
59.7152 658.00
59.7804 523.00
59.8456 541.00
59.9108 458.00
59.976 460.00
60.0412 495.00
60.1064 447.00
60.1716 437.00
60.2368 424.00
60.302 378.00
60.3672 390.00
60.4324 458.00
60.4976 424.00
60.5628 433.00
60.628 373.00
60.6932 420.00
60.7584 476.00
60.8236 466.00
60.8888 435.00
60.954 446.00
61.0192 461.00
61.0844 439.00
61.1496 528.00
61.2148 462.00
61.28 501.00
61.3452 458.00
61.4104 413.00
61.4756 409.00
61.5408 366.00
61.606 387.00
61.6712 349.00
61.7364 386.00
61.8016 420.00
61.8667 418.00
61.932 379.00
61.9971 391.00
62.0623 417.00
62.1275 372.00
62.1927 420.00
62.2579 364.00
62.3231 402.00
62.3883 387.00
62.4535 393.00
62.5187 467.00
62.5839 414.00
62.6491 429.00
62.7143 388.00
62.7795 387.00
62.8447 389.00
62.9099 382.00
62.9751 366.00
63.0403 398.00
63.1055 387.00
63.1707 404.00
63.2359 424.00
63.3011 399.00
63.3663 388.00
63.4315 399.00
63.4967 381.00
63.5619 388.00
63.6271 418.00
63.6923 354.00
63.7575 352.00
63.8227 367.00
63.8879 392.00
63.9531 433.00
64.0183 428.00
64.0835 434.00
64.1487 448.00
64.2139 489.00
64.2791 749.00
64.3443 1249.00
64.4095 1147.00
64.4747 843.00
64.5399 941.00
64.6051 767.00
64.6703 553.00
64.7355 467.00
64.8007 397.00
64.8659 423.00
64.9311 374.00
64.9963 385.00
65.0615 362.00
65.1267 335.00
65.1919 365.00
65.2571 356.00
65.3223 402.00
65.3875 374.00
65.4527 343.00
65.5179 355.00
65.5831 389.00
65.6483 376.00
65.7135 367.00
65.7787 332.00
65.8439 356.00
65.9091 378.00
65.9743 370.00
66.0395 342.00
66.1047 400.00
66.1699 362.00
66.2351 392.00
66.3003 368.00
66.3655 389.00
66.4307 319.00
66.4959 342.00
66.561 341.00
66.6263 356.00
66.6915 399.00
66.7566 380.00
66.8218 386.00
66.887 369.00
66.9522 506.00
67.0174 446.00
67.0826 500.00
67.1478 574.00
67.213 642.00
67.2782 812.00
67.3434 1492.00
67.4086 1447.00
67.4738 997.00
67.539 1115.00
67.6042 830.00
67.6694 608.00
67.7346 502.00
67.7998 429.00
67.865 406.00
67.9302 387.00
67.9954 362.00
68.0606 362.00
68.1258 413.00
68.191 377.00
68.2562 374.00
68.3214 371.00
68.3866 343.00
68.4518 336.00
68.517 345.00
68.5822 363.00
68.6474 364.00
68.7126 430.00
68.7778 419.00
68.843 435.00
68.9082 460.00
68.9734 569.00
69.0386 853.00
69.1038 1330.00
69.169 1386.00
69.2342 866.00
69.2994 968.00
69.3646 902.00
69.4298 535.00
69.495 519.00
69.5602 426.00
69.6254 408.00
69.6906 469.00
69.7558 432.00
69.821 404.00
69.8862 387.00
69.9514 429.00
70.0166 383.00
70.0818 403.00
70.147 371.00
70.2122 373.00
70.2774 395.00
70.3426 391.00
70.4078 358.00
70.473 349.00
70.5382 353.00
70.6034 334.00
70.6686 348.00
70.7338 346.00
70.799 347.00
70.8642 336.00
70.9294 355.00
70.9946 353.00
71.0598 344.00
71.125 334.00
71.1902 327.00
71.2554 338.00
71.3205 352.00
71.3858 323.00
71.451 351.00
71.5162 337.00
71.5813 357.00
71.6465 372.00
71.7117 378.00
71.7769 382.00
71.8421 371.00
71.9073 467.00
71.9725 512.00
72.0377 533.00
72.1029 505.00
72.1681 445.00
72.2333 474.00
72.2985 397.00
72.3637 369.00
72.4289 350.00
72.4941 374.00
72.5593 362.00
72.6245 376.00
72.6897 342.00
72.7549 346.00
72.8201 336.00
72.8853 323.00
72.9505 391.00
73.0157 343.00
73.0809 342.00
73.1461 346.00
73.2113 387.00
73.2765 362.00
73.3417 372.00
73.4069 402.00
73.4721 396.00
73.5373 430.00
73.6025 447.00
73.6677 584.00
73.7329 690.00
73.7981 610.00
73.8633 562.00
73.9285 654.00
73.9937 663.00
74.0589 666.00
74.1241 763.00
74.1893 1079.00
74.2545 2050.00
74.3197 3360.00
74.3849 2035.00
74.4501 1494.00
74.5153 1945.00
74.5805 1481.00
74.6457 835.00
74.7109 644.00
74.7761 556.00
74.8413 477.00
74.9065 450.00
74.9717 426.00
75.0369 428.00
75.1021 411.00
75.1673 402.00
75.2325 375.00
75.2977 363.00
75.3629 411.00
75.4281 406.00
75.4933 378.00
75.5585 383.00
75.6237 398.00
75.6889 389.00
75.7541 416.00
75.8193 448.00
75.8845 406.00
75.9497 394.00
76.0149 389.00
76.0801 438.00
76.1452 533.00
76.2104 523.00
76.2756 582.00
76.3409 634.00
76.406 806.00
76.4712 1221.00
76.5364 2333.00
76.6016 2688.00
76.6668 1433.00
76.732 1398.00
76.7972 1699.00
76.8624 1182.00
76.9276 784.00
76.9928 583.00
77.058 511.00
77.1232 454.00
77.1884 432.00
77.2536 435.00
77.3188 410.00
77.384 374.00
77.4492 369.00
77.5144 369.00
77.5796 370.00
77.6448 416.00
77.71 346.00
77.7752 408.00
77.8404 372.00
77.9056 363.00
77.9708 431.00
78.036 393.00
78.1012 469.00
78.1664 595.00
78.2316 837.00
78.2968 753.00
78.362 533.00
78.4272 584.00
78.4924 632.00
78.5576 495.00
78.6228 420.00
78.688 420.00
78.7532 439.00
78.8184 437.00
78.8836 394.00
78.9488 352.00
79.014 395.00
79.0792 381.00
79.1444 354.00
79.2096 368.00
79.2748 304.00
79.34 337.00
79.4052 349.00
79.4704 333.00
79.5356 343.00
79.6008 379.00
79.666 382.00
79.7312 331.00
79.7964 333.00
79.8616 343.00
79.9268 301.00
79.992 325.00
80.0572 338.00
80.1224 337.00
80.1876 340.00
80.2528 334.00
80.318 358.00
80.3832 322.00
80.4484 321.00
80.5136 334.00
80.5788 360.00
80.644 335.00
80.7092 339.00
80.7744 339.00
80.8396 358.00
80.9048 345.00
80.9699 348.00
81.0351 366.00
81.1003 332.00
81.1655 368.00
81.2307 382.00
81.2959 348.00
81.3611 352.00
81.4263 365.00
81.4915 359.00
81.5567 317.00
81.6219 330.00
81.6871 401.00
81.7523 376.00
81.8175 408.00
81.8827 359.00
81.9479 381.00
82.0131 367.00
82.0783 385.00
82.1435 339.00
82.2087 390.00
82.2739 345.00
82.3391 373.00
82.4043 357.00
82.4695 375.00
82.5347 390.00
82.5999 479.00
82.6651 596.00
82.7303 584.00
82.7955 444.00
82.8607 398.00
82.9259 506.00
82.9911 426.00
83.0563 365.00
83.1215 324.00
83.1867 362.00
83.2519 323.00
83.3171 317.00
83.3823 294.00
83.4475 326.00
83.5127 317.00
83.5779 300.00
83.6431 299.00
83.7083 281.00
83.7735 299.00
83.8387 299.00
83.9039 298.00
83.9691 342.00
84.0343 300.00
84.0995 334.00
84.1647 354.00
84.2299 355.00
84.2951 342.00
84.3603 315.00
84.4255 335.00
84.4907 332.00
84.5559 357.00
84.6211 376.00
84.6863 326.00
84.7515 357.00
84.8167 363.00
84.8819 362.00
84.9471 367.00
85.0123 420.00
85.0775 417.00
85.1427 444.00
85.2079 532.00
85.2731 669.00
85.3383 1000.00
85.4035 1564.00
85.4687 1374.00
85.5339 884.00
85.5991 792.00
85.6643 1098.00
85.7295 937.00
85.7946 665.00
85.8598 490.00
85.925 413.00
85.9903 392.00
86.0554 353.00
86.1206 369.00
86.1858 355.00
86.251 339.00
86.3162 346.00
86.3814 296.00
86.4466 317.00
86.5118 358.00
86.577 333.00
86.6422 345.00
86.7074 356.00
86.7726 398.00
86.8378 412.00
86.903 374.00
86.9682 460.00
87.0334 607.00
87.0986 638.00
87.1638 465.00
87.229 417.00
87.2942 456.00
87.3594 455.00
87.4246 377.00
87.4898 392.00
87.555 369.00
87.6202 348.00
87.6854 327.00
87.7506 328.00
87.8158 296.00
87.881 337.00
87.9462 327.00
88.0114 314.00
88.0766 296.00
88.1418 295.00
88.207 332.00
88.2722 322.00
88.3374 271.00
88.4026 311.00
88.4678 351.00
88.533 326.00
88.5982 321.00
88.6634 304.00
88.7286 318.00
88.7938 316.00
88.859 335.00
88.9242 298.00
88.9894 347.00
89.0546 313.00
89.1198 328.00
89.185 361.00
89.2502 319.00
89.3154 283.00
89.3806 308.00
89.4458 308.00
89.511 332.00
89.5762 302.00
89.6414 321.00
89.7066 333.00
89.7718 338.00
89.837 360.00
89.9022 322.00
89.9674 327.00
90.0326 339.00
90.0978 339.00
90.163 332.00
90.2282 340.00
90.2934 324.00
90.3586 312.00
90.4238 320.00
90.489 344.00
90.5542 313.00
90.6193 336.00
90.6845 315.00
90.7497 337.00
90.8149 362.00
90.8801 369.00
90.9453 371.00
91.0105 386.00
91.0757 434.00
91.1409 478.00
91.2061 508.00
91.2713 603.00
91.3365 806.00
91.4017 1146.00
91.4669 1287.00
91.5321 872.00
91.5973 787.00
91.6625 837.00
91.7277 1080.00
91.7929 988.00
91.8581 972.00
91.9233 1356.00
91.9885 1919.00
92.0537 1139.00
92.1189 855.00
92.1841 905.00
92.2493 1145.00
92.3145 1014.00
92.3797 671.00
92.4449 551.00
92.5101 465.00
92.5753 428.00
92.6405 372.00
92.7057 387.00
92.7709 384.00
92.8361 353.00
92.9013 313.00
92.9665 316.00
93.0317 336.00
93.0969 296.00
93.1621 318.00
93.2273 305.00
93.2925 307.00
93.3577 324.00
93.4229 324.00
93.4881 308.00
93.5533 329.00
93.6185 287.00
93.6837 302.00
93.7489 310.00
93.8141 311.00
93.8793 298.00
93.9445 322.00
94.0097 339.00
94.0749 366.00
94.1401 330.00
94.2053 343.00
94.2705 341.00
94.3357 356.00
94.4009 336.00
94.4661 340.00
94.5313 339.00
94.5965 323.00
94.6617 273.00
94.7269 317.00
94.7921 289.00
94.8573 297.00
94.9225 324.00
94.9877 329.00
95.0529 295.00
95.1181 322.00
95.1833 300.00
95.2485 302.00
95.3137 338.00
95.3789 339.00
95.444 342.00
95.5092 338.00
95.5744 398.00
95.6396 384.00
95.7048 433.00
95.77 490.00
95.8352 549.00
95.9004 431.00
95.9656 383.00
96.0308 428.00
96.096 452.00
96.1612 444.00
96.2264 369.00
96.2916 388.00
96.3568 366.00
96.422 331.00
96.4872 345.00
96.5524 280.00
96.6176 299.00
96.6828 312.00
96.748 286.00
96.8132 296.00
96.8784 263.00
96.9436 290.00
97.0088 271.00
97.074 293.00
97.1392 275.00
97.2044 274.00
97.2696 240.00
97.3348 272.00
97.4 280.00
97.4652 265.00
97.5304 279.00
97.5956 341.00
97.6608 300.00
97.726 307.00
97.7912 296.00
97.8564 312.00
97.9216 304.00
97.9868 299.00
98.052 271.00
98.1172 305.00
98.1824 286.00
98.2476 263.00
98.3128 297.00
98.378 278.00
98.4432 312.00
98.5084 289.00
98.5736 310.00
98.6388 313.00
98.704 304.00
98.7692 294.00
98.8344 272.00
98.8996 310.00
98.9648 302.00
99.03 325.00
99.0952 244.00
99.1604 283.00
99.2256 298.00
99.2908 294.00
99.356 318.00
99.4212 292.00
99.4864 322.00
99.5516 332.00
99.6168 309.00
99.682 305.00
99.7472 304.00
99.8124 309.00
99.8776 296.00
99.9428 309.00
100.008 323.00
100.073 346.00
100.095 363.00