File: data/xrd_creation/results/PG_1846-1.xy
9.903433 2659.00
9.968632 2512.00
10.0338 2532.00
10.099 2398.00
10.1642 2462.00
10.2294 2362.00
10.2946 2376.00
10.3598 2428.00
10.425 2428.00
10.4902 2394.00
10.5554 2243.00
10.6206 2343.00
10.6858 2294.00
10.751 2323.00
10.8162 2243.00
10.8814 2283.00
10.9466 2274.00
11.0118 2277.00
11.077 2213.00
11.1422 2217.00
11.2074 2227.00
11.2726 2222.00
11.3378 2268.00
11.403 2152.00
11.4682 2088.00
11.5334 2166.00
11.5986 2053.00
11.6638 2121.00
11.729 2074.00
11.7942 2051.00
11.8594 2075.00
11.9246 1977.00
11.9898 2058.00
12.055 2069.00
12.1202 2031.00
12.1854 2139.00
12.2506 2043.00
12.3158 1986.00
12.381 1909.00
12.4462 1935.00
12.5114 1897.00
12.5766 1869.00
12.6418 1869.00
12.707 2033.00
12.7722 1951.00
12.8374 1894.00
12.9026 1867.00
12.9678 1825.00
13.033 1764.00
13.0982 1799.00
13.1634 1796.00
13.2286 1772.00
13.2938 1817.00
13.359 1867.00
13.4242 1810.00
13.4894 1818.00
13.5546 1760.00
13.6198 1760.00
13.685 1801.00
13.7502 1924.00
13.8154 1933.00
13.8805 2076.00
13.9457 2011.00
14.0109 1770.00
14.0761 1752.00
14.1413 1630.00
14.2065 1641.00
14.2717 1676.00
14.3369 1632.00
14.4021 1604.00
14.4673 1606.00
14.5325 1634.00
14.5977 1610.00
14.6629 1629.00
14.7281 1669.00
14.7933 1670.00
14.8585 1633.00
14.9237 1629.00
14.9889 1685.00
15.0541 1610.00
15.1193 1582.00
15.1845 1575.00
15.2497 1641.00
15.3149 1583.00
15.3801 1565.00
15.4453 1497.00
15.5105 1566.00
15.5757 1510.00
15.6409 1510.00
15.7061 1524.00
15.7713 1577.00
15.8365 1466.00
15.9017 1500.00
15.9669 1477.00
16.0321 1487.00
16.0973 1460.00
16.1625 1575.00
16.2277 1522.00
16.2929 1487.00
16.3581 1449.00
16.4233 1492.00
16.4885 1551.00
16.5537 1489.00
16.6189 1427.00
16.6841 1481.00
16.7493 1441.00
16.8145 1457.00
16.8797 1483.00
16.9449 1477.00
17.0101 1450.00
17.0753 1476.00
17.1405 1533.00
17.2057 1578.00
17.2709 1690.00
17.3361 1887.00
17.4013 1878.00
17.4665 1570.00
17.5317 1482.00
17.5969 1414.00
17.6621 1336.00
17.7273 1439.00
17.7925 1390.00
17.8577 1399.00
17.9229 1401.00
17.9881 1366.00
18.0533 1420.00
18.1185 1378.00
18.1837 1335.00
18.2489 1413.00
18.3141 1401.00
18.3793 1327.00
18.4445 1343.00
18.5097 1279.00
18.5749 1300.00
18.6401 1319.00
18.7052 1358.00
18.7704 1320.00
18.8356 1384.00
18.9008 1305.00
18.966 1306.00
19.0312 1278.00
19.0964 1241.00
19.1616 1252.00
19.2268 1323.00
19.292 1314.00
19.3572 1245.00
19.4224 1264.00
19.4876 1288.00
19.5528 1270.00
19.618 1251.00
19.6832 1221.00
19.7484 1249.00
19.8136 1202.00
19.8788 1248.00
19.944 1179.00
20.0092 1244.00
20.0744 1208.00
20.1396 1151.00
20.2048 1185.00
20.27 1219.00
20.3352 1178.00
20.4004 1128.00
20.4656 1139.00
20.5308 1167.00
20.596 1193.00
20.6612 1134.00
20.7264 1143.00
20.7916 1162.00
20.8568 1141.00
20.922 1239.00
20.9872 1149.00
21.0524 1142.00
21.1176 1074.00
21.1828 1133.00
21.248 1104.00
21.3132 1114.00
21.3784 1101.00
21.4436 1165.00
21.5088 1088.00
21.574 1138.00
21.6392 1158.00
21.7044 1108.00
21.7696 1169.00
21.8348 1161.00
21.9 1120.00
21.9652 1116.00
22.0304 1053.00
22.0956 1039.00
22.1608 1094.00
22.226 1079.00
22.2912 1070.00
22.3564 1071.00
22.4216 1060.00
22.4868 1047.00
22.552 1028.00
22.6172 1071.00
22.6824 1098.00
22.7476 1029.00
22.8128 1060.00
22.878 1037.00
22.9432 1009.00
23.0084 1019.00
23.0736 1064.00
23.1388 1026.00
23.204 1045.00
23.2692 1011.00
23.3344 1023.00
23.3996 1015.00
23.4647 1076.00
23.5299 987.00
23.5951 1004.00
23.6603 964.00
23.7255 1037.00
23.7907 1052.00
23.8559 1018.00
23.9211 972.00
23.9863 1016.00
24.0515 937.00
24.1167 1027.00
24.1819 1028.00
24.2471 965.00
24.3123 1019.00
24.3775 961.00
24.4427 919.00
24.5079 992.00
24.5731 936.00
24.6383 978.00
24.7035 951.00
24.7687 930.00
24.8339 958.00
24.8991 959.00
24.9643 944.00
25.0295 934.00
25.0947 917.00
25.1599 905.00
25.2251 918.00
25.2903 963.00
25.3555 941.00
25.4207 975.00
25.4859 1040.00
25.5511 1131.00
25.6163 1260.00
25.6815 1112.00
25.7467 989.00
25.8119 922.00
25.8771 913.00
25.9423 824.00
26.0075 854.00
26.0727 860.00
26.1379 836.00
26.2031 942.00
26.2683 919.00
26.3335 885.00
26.3987 892.00
26.4639 880.00
26.5291 867.00
26.5943 867.00
26.6595 790.00
26.7247 840.00
26.7899 882.00
26.8551 836.00
26.9203 855.00
26.9855 888.00
27.0507 862.00
27.1159 850.00
27.1811 841.00
27.2463 888.00
27.3115 836.00
27.3767 956.00
27.4419 991.00
27.5071 1206.00
27.5723 1631.00
27.6375 2458.00
27.7027 2829.00
27.7679 2182.00
27.8331 1315.00
27.8983 883.00
27.9635 858.00
28.0287 852.00
28.0939 877.00
28.1591 829.00
28.2243 793.00
28.2894 774.00
28.3546 805.00
28.4198 799.00
28.485 784.00
28.5502 788.00
28.6154 772.00
28.6806 760.00
28.7458 743.00
28.811 769.00
28.8762 800.00
28.9414 782.00
29.0066 777.00
29.0718 802.00
29.137 788.00
29.2022 812.00
29.2674 852.00
29.3326 793.00
29.3978 750.00
29.463 719.00
29.5282 754.00
29.5934 728.00
29.6586 765.00
29.7238 797.00
29.789 786.00
29.8542 825.00
29.9194 771.00
29.9846 798.00
30.0498 768.00
30.115 802.00
30.1802 722.00
30.2454 833.00
30.3106 812.00
30.3758 806.00
30.441 895.00
30.5062 1016.00
30.5714 1216.00
30.6366 1731.00
30.7018 3014.00
30.767 5306.00
30.8322 7903.00
30.8974 5973.00
30.9626 2866.00
31.0278 1665.00
31.093 1381.00
31.1582 1158.00
31.2234 1191.00
31.2886 1391.00
31.3538 2086.00
31.419 3728.00
31.4842 6266.00
31.5494 6126.00
31.6146 3641.00
31.6798 1401.00
31.745 922.00
31.8102 894.00
31.8754 768.00
31.9406 717.00
32.0058 737.00
32.071 749.00
32.1362 718.00
32.2014 714.00
32.2666 745.00
32.3318 721.00
32.397 767.00
32.4622 766.00
32.5274 741.00
32.5926 754.00
32.6578 797.00
32.723 909.00
32.7882 905.00
32.8534 796.00
32.9186 728.00
32.9838 636.00
33.0489 671.00
33.1141 720.00
33.1793 640.00
33.2445 640.00
33.3097 645.00
33.3749 642.00
33.4401 671.00
33.5053 686.00
33.5705 651.00
33.6357 690.00
33.7009 679.00
33.7661 631.00
33.8313 654.00
33.8965 744.00
33.9617 662.00
34.0269 656.00
34.0921 647.00
34.1573 618.00
34.2225 668.00
34.2877 676.00
34.3529 634.00
34.4181 677.00
34.4833 650.00
34.5485 658.00
34.6137 655.00
34.6789 775.00
34.7441 911.00
34.8093 1101.00
34.8745 929.00
34.9397 793.00
35.0049 728.00
35.0701 629.00
35.1353 676.00
35.2005 625.00
35.2657 679.00
35.3309 615.00
35.3961 604.00
35.4613 673.00
35.5265 715.00
35.5917 803.00
35.6569 965.00
35.7221 1393.00
35.7873 1706.00
35.8525 2380.00
35.9177 3196.00
35.9829 2234.00
36.0481 1373.00
36.1133 845.00
36.1785 845.00
36.2437 1041.00
36.3089 1489.00
36.3741 2285.00
36.4393 2677.00
36.5045 2048.00
36.5697 1362.00
36.6349 751.00
36.7001 692.00
36.7653 649.00
36.8305 668.00
36.8957 599.00
36.9609 568.00
37.0261 573.00
37.0913 548.00
37.1565 585.00
37.2217 614.00
37.2869 615.00
37.3521 599.00
37.4173 608.00
37.4825 658.00
37.5477 843.00
37.6129 1113.00
37.6781 969.00
37.7433 813.00
37.8085 649.00
37.8736 690.00
37.9388 769.00
38.004 736.00
38.0692 726.00
38.1344 623.00
38.1996 589.00
38.2648 526.00
38.33 569.00
38.3952 562.00
38.4604 566.00
38.5256 549.00
38.5908 539.00
38.656 526.00
38.7212 556.00
38.7864 574.00
38.8516 584.00
38.9168 558.00
38.982 561.00
39.0472 541.00
39.1124 515.00
39.1776 541.00
39.2428 532.00
39.308 590.00
39.3732 687.00
39.4384 833.00
39.5036 882.00
39.5688 777.00
39.634 690.00
39.6992 547.00
39.7644 557.00
39.8296 520.00
39.8948 649.00
39.96 634.00
40.0252 620.00
40.0904 558.00
40.1556 559.00
40.2208 460.00
40.286 491.00
40.3512 529.00
40.4164 507.00
40.4816 519.00
40.5468 534.00
40.612 532.00
40.6772 505.00
40.7424 510.00
40.8076 516.00
40.8728 454.00
40.938 557.00
41.0032 514.00
41.0684 543.00
41.1336 473.00
41.1988 530.00
41.264 546.00
41.3292 538.00
41.3944 594.00
41.4596 714.00
41.5248 797.00
41.59 657.00
41.6552 642.00
41.7204 605.00
41.7856 739.00
41.8508 998.00
41.916 1260.00
41.9812 1392.00
42.0464 1066.00
42.1116 789.00
42.1768 566.00
42.242 496.00
42.3072 485.00
42.3724 504.00
42.4376 489.00
42.5028 489.00
42.568 472.00
42.6332 502.00
42.6983 548.00
42.7635 472.00
42.8287 490.00
42.8939 469.00
42.9591 449.00
43.0243 420.00
43.0895 437.00
43.1547 456.00
43.2199 489.00
43.2851 459.00
43.3503 436.00
43.4155 428.00
43.4807 456.00
43.5459 452.00
43.6111 427.00
43.6763 488.00
43.7415 463.00
43.8067 441.00
43.8719 446.00
43.9371 433.00
44.0023 474.00
44.0675 486.00
44.1327 476.00
44.1979 503.00
44.2631 578.00
44.3283 597.00
44.3935 521.00
44.4587 534.00
44.5239 479.00
44.5891 466.00
44.6543 467.00
44.7195 454.00
44.7847 448.00
44.8499 434.00
44.9151 442.00
44.9803 438.00
45.0455 458.00
45.1107 444.00
45.1759 449.00
45.2411 438.00
45.3063 489.00
45.3715 420.00
45.4367 420.00
45.5019 410.00
45.5671 400.00
45.6323 475.00
45.6975 447.00
45.7627 450.00
45.8279 478.00
45.8931 517.00
45.9583 608.00
46.0235 618.00
46.0887 570.00
46.1539 522.00
46.2191 603.00
46.2843 767.00
46.3495 745.00
46.4147 658.00
46.4799 552.00
46.5451 445.00
46.6103 438.00
46.6755 454.00
46.7407 491.00
46.8059 514.00
46.8711 496.00
46.9363 502.00
47.0015 435.00
47.0667 481.00
47.1319 443.00
47.1971 424.00
47.2623 453.00
47.3275 513.00
47.3927 645.00
47.4579 864.00
47.523 949.00
47.5882 745.00
47.6534 633.00
47.7186 513.00
47.7838 433.00
47.849 440.00
47.9142 412.00
47.9794 387.00
48.0446 424.00
48.1098 463.00
48.175 479.00
48.2402 471.00
48.3054 518.00
48.3706 462.00
48.4358 474.00
48.501 439.00
48.5662 439.00
48.6314 431.00
48.6966 405.00
48.7618 452.00
48.827 430.00
48.8922 439.00
48.9574 369.00
49.0226 400.00
49.0878 396.00
49.153 421.00
49.2182 459.00
49.2834 377.00
49.3486 435.00
49.4138 475.00
49.479 442.00
49.5442 451.00
49.6094 454.00
49.6746 479.00
49.7398 435.00
49.805 403.00
49.8702 467.00
49.9354 396.00
50.0006 427.00
50.0658 398.00
50.131 426.00
50.1962 414.00
50.2614 437.00
50.3266 498.00
50.3918 496.00
50.457 518.00
50.5222 607.00
50.5874 808.00
50.6526 888.00
50.7178 777.00
50.783 760.00
50.8482 791.00
50.9134 873.00
50.9786 1056.00
51.0438 1224.00
51.109 898.00
51.1742 1033.00
51.2394 1137.00
51.3046 1148.00
51.3698 838.00
51.435 789.00
51.5002 579.00
51.5654 489.00
51.6306 598.00
51.6958 601.00
51.761 859.00
51.8262 1465.00
51.8914 2841.00
51.9566 3839.00
52.0218 2348.00
52.087 2240.00
52.1522 1177.00
52.2174 763.00
52.2826 764.00
52.3477 1067.00
52.4129 1635.00
52.4781 1585.00
52.5433 1185.00
52.6085 996.00
52.6737 549.00
52.7389 495.00
52.8041 483.00
52.8693 426.00
52.9345 450.00
52.9997 445.00
53.0649 457.00
53.1301 437.00
53.1953 382.00
53.2605 414.00
53.3257 406.00
53.3909 383.00
53.4561 421.00
53.5213 413.00
53.5865 397.00
53.6517 416.00
53.7169 410.00
53.7821 417.00
53.8473 384.00
53.9125 410.00
53.9777 407.00
54.0429 468.00
54.1081 483.00
54.1733 480.00
54.2385 465.00
54.3037 460.00
54.3689 518.00
54.4341 648.00
54.4993 878.00
54.5645 1452.00
54.6297 994.00
54.6949 857.00
54.7601 751.00
54.8253 502.00
54.8905 428.00
54.9557 445.00
55.0209 395.00
55.0861 414.00
55.1513 423.00
55.2165 424.00
55.2817 476.00
55.3469 475.00
55.4121 487.00
55.4773 494.00
55.5425 516.00
55.6077 493.00
55.6729 622.00
55.7381 646.00
55.8033 671.00
55.8685 557.00
55.9337 531.00
55.9989 504.00
56.0641 420.00
56.1293 472.00
56.1945 493.00
56.2597 469.00
56.3249 438.00
56.3901 454.00
56.4553 437.00
56.5205 423.00
56.5857 405.00
56.6509 434.00
56.7161 514.00
56.7813 709.00
56.8465 1084.00
56.9117 994.00
56.9769 682.00
57.042 717.00
57.1073 523.00
57.1724 406.00
57.2376 389.00
57.3028 423.00
57.368 431.00
57.4332 433.00
57.4984 425.00
57.5636 451.00
57.6288 524.00
57.694 679.00
57.7592 596.00
57.8244 564.00
57.8896 533.00
57.9548 477.00
58.02 452.00
58.0852 442.00
58.1504 423.00
58.2156 392.00
58.2808 412.00
58.346 416.00
58.4112 392.00
58.4764 421.00
58.5416 398.00
58.6068 413.00
58.672 430.00
58.7372 450.00
58.8024 548.00
58.8676 815.00
58.9328 1125.00
58.998 800.00
59.0632 810.00
59.1284 703.00
59.1936 494.00
59.2588 483.00
59.324 454.00
59.3892 474.00
59.4544 428.00
59.5196 471.00
59.5848 429.00
59.65 369.00
59.7152 425.00
59.7804 509.00
59.8456 540.00
59.9108 649.00
59.976 763.00
60.0412 640.00
60.1064 768.00
60.1716 840.00
60.2368 602.00
60.302 570.00
60.3672 517.00
60.4324 477.00
60.4976 476.00
60.5628 573.00
60.628 902.00
60.6932 1207.00
60.7584 1068.00
60.8236 1110.00
60.8888 1291.00
60.954 914.00
61.0192 689.00
61.0844 674.00
61.1496 499.00
61.2148 468.00
61.28 445.00
61.3452 446.00
61.4104 404.00
61.4756 441.00
61.5408 472.00
61.606 468.00
61.6712 625.00
61.7364 858.00
61.8016 1530.00
61.8667 2159.00
61.932 2342.00
61.9971 1689.00
62.0623 1578.00
62.1275 1403.00
62.1927 1288.00
62.2579 1222.00
62.3231 868.00
62.3883 1005.00
62.4535 783.00
62.5187 547.00
62.5839 509.00
62.6491 466.00
62.7143 422.00
62.7795 464.00
62.8447 488.00
62.9099 538.00
62.9751 658.00
63.0403 794.00
63.1055 922.00
63.1707 993.00
63.2359 734.00
63.3011 690.00
63.3663 608.00
63.4315 438.00
63.4967 451.00
63.5619 442.00
63.6271 461.00
63.6923 560.00
63.7575 607.00
63.8227 708.00
63.8879 633.00
63.9531 630.00
64.0183 564.00
64.0835 481.00
64.1487 467.00
64.2139 514.00
64.2791 739.00
64.3443 759.00
64.4095 537.00
64.4747 590.00
64.5399 488.00
64.6051 449.00
64.6703 381.00
64.7355 381.00
64.8007 415.00
64.8659 390.00
64.9311 405.00
64.9963 421.00
65.0615 418.00
65.1267 437.00
65.1919 443.00
65.2571 511.00
65.3223 754.00
65.3875 986.00
65.4527 648.00
65.5179 612.00
65.5831 615.00
65.6483 471.00
65.7135 389.00
65.7787 389.00
65.8439 356.00
65.9091 379.00
65.9743 368.00
66.0395 356.00
66.1047 391.00
66.1699 360.00
66.2351 359.00
66.3003 362.00
66.3655 343.00
66.4307 351.00
66.4959 351.00
66.561 330.00
66.6263 354.00
66.6915 330.00
66.7566 360.00
66.8218 378.00
66.887 349.00
66.9522 317.00
67.0174 386.00
67.0826 352.00
67.1478 341.00
67.213 337.00
67.2782 374.00
67.3434 446.00
67.4086 491.00
67.4738 425.00
67.539 410.00
67.6042 414.00
67.6694 390.00
67.7346 363.00
67.7998 359.00
67.865 330.00
67.9302 375.00
67.9954 373.00
68.0606 377.00
68.1258 472.00
68.191 521.00
68.2562 463.00
68.3214 458.00
68.3866 489.00
68.4518 397.00
68.517 380.00
68.5822 335.00
68.6474 371.00
68.7126 346.00
68.7778 290.00
68.843 373.00
68.9082 368.00
68.9734 452.00
69.0386 447.00
69.1038 464.00
69.169 590.00
69.2342 824.00
69.2994 614.00
69.3646 598.00
69.4298 585.00
69.495 486.00
69.5602 396.00
69.6254 373.00
69.6906 377.00
69.7558 341.00
69.821 368.00
69.8862 402.00
69.9514 438.00
70.0166 564.00
70.0818 388.00
70.147 369.00
70.2122 349.00
70.2774 395.00
70.3426 346.00
70.4078 359.00
70.473 371.00
70.5382 321.00
70.6034 376.00
70.6686 336.00
70.7338 322.00
70.799 390.00
70.8642 411.00
70.9294 411.00
70.9946 505.00
71.0598 412.00
71.125 402.00
71.1902 393.00
71.2554 384.00
71.3205 351.00
71.3858 356.00
71.451 349.00
71.5162 334.00
71.5813 327.00
71.6465 337.00
71.7117 345.00
71.7769 371.00
71.8421 360.00
71.9073 355.00
71.9725 365.00
72.0377 345.00
72.1029 342.00
72.1681 336.00
72.2333 311.00
72.2985 357.00
72.3637 349.00
72.4289 317.00
72.4941 311.00
72.5593 364.00
72.6245 332.00
72.6897 328.00
72.7549 373.00
72.8201 308.00
72.8853 357.00
72.9505 333.00
73.0157 314.00
73.0809 307.00
73.1461 310.00
73.2113 347.00
73.2765 319.00
73.3417 354.00
73.4069 344.00
73.4721 323.00
73.5373 321.00
73.6025 325.00
73.6677 348.00
73.7329 326.00
73.7981 339.00
73.8633 342.00
73.9285 349.00
73.9937 342.00
74.0589 371.00
74.1241 374.00
74.1893 337.00
74.2545 381.00
74.3197 298.00
74.3849 371.00
74.4501 352.00
74.5153 334.00
74.5805 355.00
74.6457 314.00
74.7109 323.00
74.7761 365.00
74.8413 332.00
74.9065 348.00
74.9717 317.00
75.0369 362.00
75.1021 406.00
75.1673 386.00
75.2325 471.00
75.2977 477.00
75.3629 466.00
75.4281 398.00
75.4933 464.00
75.5585 459.00
75.6237 619.00
75.6889 664.00
75.7541 605.00
75.8193 590.00
75.8845 706.00
75.9497 813.00
76.0149 766.00
76.0801 597.00
76.1452 517.00
76.2104 511.00
76.2756 533.00
76.3409 427.00
76.406 378.00
76.4712 413.00
76.5364 390.00
76.6016 417.00
76.6668 427.00
76.732 476.00
76.7972 513.00
76.8624 492.00
76.9276 528.00
76.9928 625.00
77.058 461.00
77.1232 387.00
77.1884 456.00
77.2536 424.00
77.3188 354.00
77.384 344.00
77.4492 327.00
77.5144 276.00
77.5796 354.00
77.6448 326.00
77.71 336.00
77.7752 352.00
77.8404 305.00
77.9056 346.00
77.9708 373.00
78.036 358.00
78.1012 355.00
78.1664 350.00
78.2316 352.00
78.2968 364.00
78.362 359.00
78.4272 358.00
78.4924 343.00
78.5576 391.00
78.6228 366.00
78.688 390.00
78.7532 447.00
78.8184 461.00
78.8836 380.00
78.9488 439.00
79.014 408.00
79.0792 373.00
79.1444 345.00
79.2096 307.00
79.2748 360.00
79.34 379.00
79.4052 320.00
79.4704 317.00
79.5356 337.00
79.6008 361.00
79.666 361.00
79.7312 341.00
79.7964 395.00
79.8616 409.00
79.9268 381.00
79.992 375.00
80.0572 383.00
80.1224 338.00
80.1876 362.00
80.2528 394.00
80.318 367.00
80.3832 412.00
80.4484 340.00
80.5136 380.00
80.5788 398.00
80.644 436.00
80.7092 531.00
80.7744 574.00
80.8396 464.00
80.9048 406.00
80.9699 442.00
81.0351 403.00
81.1003 368.00
81.1655 348.00
81.2307 327.00
81.2959 312.00
81.3611 322.00
81.4263 331.00
81.4915 318.00
81.5567 344.00
81.6219 369.00
81.6871 403.00
81.7523 379.00
81.8175 354.00
81.8827 393.00
81.9479 419.00
82.0131 400.00
82.0783 363.00
82.1435 356.00
82.2087 348.00
82.2739 354.00
82.3391 381.00
82.4043 371.00
82.4695 391.00
82.5347 412.00
82.5999 398.00
82.6651 366.00
82.7303 346.00
82.7955 347.00
82.8607 379.00
82.9259 382.00
82.9911 343.00
83.0563 351.00
83.1215 368.00
83.1867 386.00
83.2519 394.00
83.3171 448.00
83.3823 539.00
83.4475 590.00
83.5127 553.00
83.5779 478.00
83.6431 476.00
83.7083 457.00
83.7735 437.00
83.8387 381.00
83.9039 393.00
83.9691 504.00
84.0343 549.00
84.0995 463.00
84.1647 404.00
84.2299 441.00
84.2951 484.00
84.3603 484.00
84.4255 487.00
84.4907 490.00
84.5559 442.00
84.6211 428.00
84.6863 477.00
84.7515 450.00
84.8167 414.00
84.8819 400.00
84.9471 467.00
85.0123 618.00
85.0775 909.00
85.1427 888.00
85.2079 564.00
85.2731 661.00
85.3383 858.00
85.4035 939.00
85.4687 881.00
85.5339 879.00
85.5991 649.00
85.6643 594.00
85.7295 616.00
85.7946 569.00
85.8598 570.00
85.925 480.00
85.9903 439.00
86.0554 399.00
86.1206 396.00
86.1858 419.00
86.251 371.00
86.3162 452.00
86.3814 434.00
86.4466 400.00
86.5118 374.00
86.577 324.00
86.6422 388.00
86.7074 412.00
86.7726 490.00
86.8378 542.00
86.903 527.00
86.9682 424.00
87.0334 440.00
87.0986 468.00
87.1638 462.00
87.229 440.00
87.2942 389.00
87.3594 436.00
87.4246 382.00
87.4898 389.00
87.555 432.00
87.6202 426.00
87.6854 523.00
87.7506 633.00
87.8158 723.00
87.881 665.00
87.9462 638.00
88.0114 623.00
88.0766 552.00
88.1418 502.00
88.207 548.00
88.2722 451.00
88.3374 392.00
88.4026 349.00
88.4678 370.00
88.533 375.00
88.5982 347.00
88.6634 363.00
88.7286 358.00
88.7938 335.00
88.859 325.00
88.9242 321.00
88.9894 362.00
89.0546 324.00
89.1198 346.00
89.185 339.00
89.2502 312.00
89.3154 319.00
89.3806 324.00
89.4458 340.00
89.511 308.00
89.5762 369.00
89.6414 396.00
89.7066 510.00
89.7718 531.00
89.837 500.00
89.9022 552.00
89.9674 529.00
90.0326 491.00
90.0978 453.00
90.163 456.00
90.2282 407.00
90.2934 393.00
90.3586 374.00
90.4238 369.00
90.489 360.00
90.5542 382.00
90.6193 403.00
90.6845 399.00
90.7497 501.00
90.8149 499.00
90.8801 544.00
90.9453 460.00
91.0105 410.00
91.0757 426.00
91.1409 413.00
91.2061 413.00
91.2713 353.00
91.3365 379.00
91.4017 338.00
91.4669 339.00
91.5321 358.00
91.5973 373.00
91.6625 371.00
91.7277 385.00
91.7929 350.00
91.8581 339.00
91.9233 364.00
91.9885 367.00
92.0537 373.00
92.1189 331.00
92.1841 352.00
92.2493 304.00
92.3145 314.00
92.3797 332.00
92.4449 315.00
92.5101 375.00
92.5753 355.00
92.6405 403.00
92.7057 466.00
92.7709 521.00
92.8361 462.00
92.9013 427.00
92.9665 396.00
93.0317 421.00
93.0969 406.00
93.1621 394.00
93.2273 326.00
93.2925 317.00
93.3577 373.00
93.4229 381.00
93.4881 453.00
93.5533 395.00
93.6185 395.00
93.6837 336.00
93.7489 396.00
93.8141 372.00
93.8793 326.00
93.9445 298.00
94.0097 328.00
94.0749 314.00
94.1401 379.00
94.2053 355.00
94.2705 402.00
94.3357 424.00
94.4009 382.00
94.4661 368.00
94.5313 390.00
94.5965 411.00
94.6617 409.00
94.7269 360.00
94.7921 367.00
94.8573 324.00
94.9225 346.00
94.9877 342.00
95.0529 299.00
95.1181 329.00
95.1833 329.00
95.2485 404.00
95.3137 378.00
95.3789 497.00
95.444 529.00
95.5092 404.00
95.5744 414.00
95.6396 447.00
95.7048 467.00
95.77 397.00
95.8352 384.00
95.9004 354.00
95.9656 395.00
96.0308 407.00
96.096 403.00
96.1612 501.00
96.2264 412.00
96.2916 406.00
96.3568 395.00
96.422 374.00
96.4872 391.00
96.5524 407.00
96.6176 376.00
96.6828 408.00
96.748 382.00
96.8132 353.00
96.8784 358.00
96.9436 359.00
97.0088 336.00
97.074 313.00
97.1392 335.00
97.2044 324.00
97.2696 360.00
97.3348 396.00
97.4 372.00
97.4652 377.00
97.5304 364.00
97.5956 393.00
97.6608 393.00
97.726 371.00
97.7912 440.00
97.8564 409.00
97.9216 401.00
97.9868 407.00
98.052 370.00
98.1172 360.00
98.1824 351.00
98.2476 359.00
98.3128 390.00
98.378 334.00
98.4432 368.00
98.5084 379.00
98.5736 385.00
98.6388 332.00
98.704 351.00
98.7692 387.00
98.8344 398.00
98.8996 523.00
98.9648 736.00
99.03 820.00
99.0952 634.00
99.1604 688.00
99.2256 798.00
99.2908 859.00
99.356 759.00
99.4212 524.00
99.4864 550.00
99.5516 533.00
99.6168 505.00
99.682 454.00
99.7472 447.00
99.8124 389.00
99.8776 450.00
99.9428 411.00
100.008 392.00
100.073 449.00
100.095 459.00