File: data/xrd_creation/results/PG_1740-1.xy
9.903433 2586.00
9.968632 2511.00
10.0338 2469.00
10.099 2440.00
10.1642 2459.00
10.2294 2373.00
10.2946 2350.00
10.3598 2287.00
10.425 2283.00
10.4902 2384.00
10.5554 2414.00
10.6206 2291.00
10.6858 2250.00
10.751 2322.00
10.8162 2263.00
10.8814 2220.00
10.9466 2183.00
11.0118 2271.00
11.077 2252.00
11.1422 2157.00
11.2074 2198.00
11.2726 2117.00
11.3378 2094.00
11.403 2083.00
11.4682 2061.00
11.5334 2060.00
11.5986 2028.00
11.6638 2094.00
11.729 1966.00
11.7942 1943.00
11.8594 1996.00
11.9246 1928.00
11.9898 2021.00
12.055 1844.00
12.1202 1912.00
12.1854 1896.00
12.2506 1887.00
12.3158 1914.00
12.381 1854.00
12.4462 1875.00
12.5114 1885.00
12.5766 1888.00
12.6418 1837.00
12.707 1847.00
12.7722 1807.00
12.8374 1784.00
12.9026 1829.00
12.9678 1821.00
13.033 1702.00
13.0982 1715.00
13.1634 1677.00
13.2286 1778.00
13.2938 1691.00
13.359 1692.00
13.4242 1635.00
13.4894 1552.00
13.5546 1750.00
13.6198 1679.00
13.685 1671.00
13.7502 1637.00
13.8154 1586.00
13.8805 1600.00
13.9457 1652.00
14.0109 1686.00
14.0761 1668.00
14.1413 1739.00
14.2065 1745.00
14.2717 1751.00
14.3369 1961.00
14.4021 2238.00
14.4673 2906.00
14.5325 3442.00
14.5977 2156.00
14.6629 1689.00
14.7281 1687.00
14.7933 1676.00
14.8585 1622.00
14.9237 1564.00
14.9889 1560.00
15.0541 1636.00
15.1193 1502.00
15.1845 1600.00
15.2497 1527.00
15.3149 1652.00
15.3801 1622.00
15.4453 1543.00
15.5105 1523.00
15.5757 1488.00
15.6409 1536.00
15.7061 1506.00
15.7713 1539.00
15.8365 1560.00
15.9017 1533.00
15.9669 1488.00
16.0321 1531.00
16.0973 1458.00
16.1625 1470.00
16.2277 1520.00
16.2929 1459.00
16.3581 1335.00
16.4233 1487.00
16.4885 1525.00
16.5537 1468.00
16.6189 1411.00
16.6841 1462.00
16.7493 1475.00
16.8145 1457.00
16.8797 1419.00
16.9449 1468.00
17.0101 1331.00
17.0753 1460.00
17.1405 1418.00
17.2057 1430.00
17.2709 1382.00
17.3361 1410.00
17.4013 1486.00
17.4665 1432.00
17.5317 1406.00
17.5969 1469.00
17.6621 1491.00
17.7273 1543.00
17.7925 1724.00
17.8577 1842.00
17.9229 1757.00
17.9881 1552.00
18.0533 1321.00
18.1185 1429.00
18.1837 1342.00
18.2489 1361.00
18.3141 1265.00
18.3793 1287.00
18.4445 1331.00
18.5097 1297.00
18.5749 1288.00
18.6401 1260.00
18.7052 1287.00
18.7704 1255.00
18.8356 1293.00
18.9008 1229.00
18.966 1218.00
19.0312 1293.00
19.0964 1291.00
19.1616 1249.00
19.2268 1289.00
19.292 1260.00
19.3572 1296.00
19.4224 1251.00
19.4876 1233.00
19.5528 1343.00
19.618 1257.00
19.6832 1154.00
19.7484 1222.00
19.8136 1181.00
19.8788 1219.00
19.944 1201.00
20.0092 1214.00
20.0744 1302.00
20.1396 1308.00
20.2048 1282.00
20.27 1338.00
20.3352 1292.00
20.4004 1437.00
20.4656 1358.00
20.5308 1285.00
20.596 1276.00
20.6612 1214.00
20.7264 1151.00
20.7916 1134.00
20.8568 1227.00
20.922 1233.00
20.9872 1166.00
21.0524 1199.00
21.1176 1225.00
21.1828 1154.00
21.248 1245.00
21.3132 1179.00
21.3784 1135.00
21.4436 1105.00
21.5088 1174.00
21.574 1109.00
21.6392 1196.00
21.7044 1126.00
21.7696 1136.00
21.8348 1170.00
21.9 1100.00
21.9652 1198.00
22.0304 1087.00
22.0956 1041.00
22.1608 1093.00
22.226 1102.00
22.2912 1170.00
22.3564 1141.00
22.4216 1150.00
22.4868 1220.00
22.552 1134.00
22.6172 1133.00
22.6824 1142.00
22.7476 1169.00
22.8128 1231.00
22.878 1121.00
22.9432 1170.00
23.0084 1096.00
23.0736 1094.00
23.1388 1063.00
23.204 1121.00
23.2692 1011.00
23.3344 1119.00
23.3996 1066.00
23.4647 1059.00
23.5299 1129.00
23.5951 1120.00
23.6603 1071.00
23.7255 1108.00
23.7907 1054.00
23.8559 1090.00
23.9211 1133.00
23.9863 1202.00
24.0515 1144.00
24.1167 1206.00
24.1819 1160.00
24.2471 1305.00
24.3123 1501.00
24.3775 1762.00
24.4427 2387.00
24.5079 2931.00
24.5731 2650.00
24.6383 2032.00
24.7035 1620.00
24.7687 1653.00
24.8339 2036.00
24.8991 2544.00
24.9643 2348.00
25.0295 1674.00
25.0947 1347.00
25.1599 1206.00
25.2251 1090.00
25.2903 1105.00
25.3555 1092.00
25.4207 1035.00
25.4859 1008.00
25.5511 1140.00
25.6163 1056.00
25.6815 1122.00
25.7467 1099.00
25.8119 1135.00
25.8771 1233.00
25.9423 1179.00
26.0075 1170.00
26.0727 1244.00
26.1379 1238.00
26.2031 1451.00
26.2683 1620.00
26.3335 1837.00
26.3987 2466.00
26.4639 3932.00
26.5291 6752.00
26.5943 12313.00
26.6595 18478.00
26.7247 13598.00
26.7899 6353.00
26.8551 3218.00
26.9203 2312.00
26.9855 1866.00
27.0507 1526.00
27.1159 1397.00
27.1811 1348.00
27.2463 1294.00
27.3115 1394.00
27.3767 1696.00
27.4419 2266.00
27.5071 1983.00
27.5723 1477.00
27.6375 1250.00
27.7027 1220.00
27.7679 1158.00
27.8331 1144.00
27.8983 1270.00
27.9635 1256.00
28.0287 1312.00
28.0939 1372.00
28.1591 1411.00
28.2243 1637.00
28.2894 1815.00
28.3546 2116.00
28.4198 2747.00
28.485 4187.00
28.5502 6774.00
28.6154 10737.00
28.6806 11806.00
28.7458 8523.00
28.811 5525.00
28.8762 5157.00
28.9414 6445.00
29.0066 4165.00
29.0718 2415.00
29.137 1834.00
29.2022 1663.00
29.2674 1775.00
29.3326 2083.00
29.3978 2471.00
29.463 2079.00
29.5282 1526.00
29.5934 1243.00
29.6586 1159.00
29.7238 1140.00
29.789 1158.00
29.8542 1081.00
29.9194 1108.00
29.9846 1083.00
30.0498 1141.00
30.115 1068.00
30.1802 1068.00
30.2454 1112.00
30.3106 1125.00
30.3758 1176.00
30.441 1203.00
30.5062 1356.00
30.5714 1679.00
30.6366 2391.00
30.7018 1936.00
30.767 1554.00
30.8322 1552.00
30.8974 2054.00
30.9626 3638.00
31.0278 7389.00
31.093 9428.00
31.1582 5562.00
31.2234 2204.00
31.2886 1624.00
31.3538 1568.00
31.419 1570.00
31.4842 1586.00
31.5494 1666.00
31.6146 1868.00
31.6798 2087.00
31.745 2756.00
31.8102 4063.00
31.8754 6376.00
31.9406 9163.00
32.0058 9723.00
32.071 7165.00
32.1362 5026.00
32.2014 4404.00
32.2666 5246.00
32.3318 6999.00
32.397 8563.00
32.4622 6788.00
32.5274 4416.00
32.5926 2892.00
32.6578 2156.00
32.723 1876.00
32.7882 1605.00
32.8534 1516.00
32.9186 1506.00
32.9838 1420.00
33.0489 1204.00
33.1141 1117.00
33.1793 1147.00
33.2445 1124.00
33.3097 1049.00
33.3749 1016.00
33.4401 1076.00
33.5053 1037.00
33.5705 1029.00
33.6357 1129.00
33.7009 1045.00
33.7661 1072.00
33.8313 1099.00
33.8965 1113.00
33.9617 1196.00
34.0269 1333.00
34.0921 1527.00
34.1573 2021.00
34.2225 3061.00
34.2877 5099.00
34.3529 6141.00
34.4181 4636.00
34.4833 3252.00
34.5485 3214.00
34.6137 4072.00
34.6789 4139.00
34.7441 3435.00
34.8093 2828.00
34.8745 3426.00
34.9397 3676.00
35.0049 3013.00
35.0701 1969.00
35.1353 1415.00
35.2005 1297.00
35.2657 1177.00
35.3309 1200.00
35.3961 1077.00
35.4613 1107.00
35.5265 1186.00
35.5917 1277.00
35.6569 1559.00
35.7221 2263.00
35.7873 3394.00
35.8525 4021.00
35.9177 2970.00
35.9829 1931.00
36.0481 1423.00
36.1133 1194.00
36.1785 1163.00
36.2437 1238.00
36.3089 1369.00
36.3741 1619.00
36.4393 1605.00
36.5045 1324.00
36.5697 1111.00
36.6349 997.00
36.7001 925.00
36.7653 936.00
36.8305 870.00
36.8957 915.00
36.9609 1062.00
37.0261 1243.00
37.0913 1079.00
37.1565 1073.00
37.2217 863.00
37.2869 859.00
37.3521 819.00
37.4173 795.00
37.4825 834.00
37.5477 763.00
37.6129 826.00
37.6781 819.00
37.7433 784.00
37.8085 806.00
37.8736 815.00
37.9388 785.00
38.004 813.00
38.0692 892.00
38.1344 1012.00
38.1996 902.00
38.2648 860.00
38.33 846.00
38.3952 784.00
38.4604 857.00
38.5256 802.00
38.5908 813.00
38.656 756.00
38.7212 847.00
38.7864 826.00
38.8516 941.00
38.9168 985.00
38.982 1223.00
39.0472 1634.00
39.1124 1909.00
39.1776 1554.00
39.2428 1271.00
39.308 1087.00
39.3732 987.00
39.4384 943.00
39.5036 1121.00
39.5688 1510.00
39.634 1389.00
39.6992 1302.00
39.7644 1051.00
39.8296 955.00
39.8948 986.00
39.96 915.00
40.0252 1052.00
40.0904 1510.00
40.1556 2250.00
40.2208 1596.00
40.286 1424.00
40.3512 990.00
40.4164 946.00
40.4816 958.00
40.5468 965.00
40.612 918.00
40.6772 865.00
40.7424 891.00
40.8076 906.00
40.8728 939.00
40.938 1009.00
41.0032 1044.00
41.0684 1177.00
41.1336 1421.00
41.1988 1973.00
41.264 2441.00
41.3292 2327.00
41.3944 1875.00
41.4596 1441.00
41.5248 1207.00
41.59 1233.00
41.6552 1403.00
41.7204 1396.00
41.7856 1379.00
41.8508 1244.00
41.916 1358.00
41.9812 1225.00
42.0464 1121.00
42.1116 988.00
42.1768 863.00
42.242 845.00
42.3072 807.00
42.3724 772.00
42.4376 745.00
42.5028 811.00
42.568 817.00
42.6332 826.00
42.6983 770.00
42.7635 789.00
42.8287 765.00
42.8939 797.00
42.9591 852.00
43.0243 780.00
43.0895 754.00
43.1547 760.00
43.2199 745.00
43.2851 823.00
43.3503 699.00
43.4155 706.00
43.4807 769.00
43.5459 812.00
43.6111 775.00
43.6763 809.00
43.7415 890.00
43.8067 1026.00
43.8719 952.00
43.9371 917.00
44.0023 875.00
44.0675 854.00
44.1327 831.00
44.1979 846.00
44.2631 831.00
44.3283 900.00
44.3935 878.00
44.4587 960.00
44.5239 1079.00
44.5891 1104.00
44.6543 1400.00
44.7195 1581.00
44.7847 2005.00
44.8499 2118.00
44.9151 1913.00
44.9803 1610.00
45.0455 1314.00
45.1107 1110.00
45.1759 1112.00
45.2411 1122.00
45.3063 1258.00
45.3715 1532.00
45.4367 1472.00
45.5019 1387.00
45.5671 1157.00
45.6323 1057.00
45.6975 1029.00
45.7627 1001.00
45.8279 1027.00
45.8931 1135.00
45.9583 1331.00
46.0235 1633.00
46.0887 1949.00
46.1539 1945.00
46.2191 2204.00
46.2843 2738.00
46.3495 2462.00
46.4147 2122.00
46.4799 1780.00
46.5451 1610.00
46.6103 1412.00
46.6755 1230.00
46.7407 1003.00
46.8059 918.00
46.8711 883.00
46.9363 876.00
47.0015 837.00
47.0667 774.00
47.1319 792.00
47.1971 752.00
47.2623 815.00
47.3275 818.00
47.3927 840.00
47.4579 883.00
47.523 931.00
47.5882 1126.00
47.6534 1700.00
47.7186 3306.00
47.7838 4810.00
47.849 3017.00
47.9142 2709.00
47.9794 1446.00
48.0446 1100.00
48.1098 895.00
48.175 883.00
48.2402 852.00
48.3054 860.00
48.3706 871.00
48.4358 902.00
48.501 871.00
48.5662 851.00
48.6314 879.00
48.6966 853.00
48.7618 865.00
48.827 941.00
48.8922 969.00
48.9574 1024.00
49.0226 918.00
49.0878 865.00
49.153 865.00
49.2182 907.00
49.2834 886.00
49.3486 978.00
49.4138 1192.00
49.479 1276.00
49.5442 1393.00
49.6094 1510.00
49.6746 1784.00
49.7398 2171.00
49.805 3360.00
49.8702 3675.00
49.9354 3586.00
50.0006 3817.00
50.0658 4205.00
50.131 3720.00
50.1962 3173.00
50.2614 2472.00
50.3266 1970.00
50.3918 1582.00
50.457 1550.00
50.5222 1511.00
50.5874 1769.00
50.6526 2624.00
50.7178 4052.00
50.783 3522.00
50.8482 2927.00
50.9134 2292.00
50.9786 1749.00
51.0438 1796.00
51.109 2297.00
51.1742 2441.00
51.2394 2130.00
51.3046 1842.00
51.3698 1412.00
51.435 1133.00
51.5002 1014.00
51.5654 986.00
51.6306 1024.00
51.6958 1138.00
51.761 1292.00
51.8262 1359.00
51.8914 1402.00
51.9566 1194.00
52.0218 1163.00
52.087 1208.00
52.1522 1281.00
52.2174 1935.00
52.2826 4373.00
52.3477 7471.00
52.4129 3695.00
52.4781 4409.00
52.5433 2074.00
52.6085 1277.00
52.6737 1098.00
52.7389 949.00
52.8041 914.00
52.8693 917.00
52.9345 897.00
52.9997 903.00
53.0649 952.00
53.1301 899.00
53.1953 982.00
53.2605 1087.00
53.3257 1126.00
53.3909 1195.00
53.4561 1116.00
53.5213 1071.00
53.5865 953.00
53.6517 931.00
53.7169 836.00
53.7821 887.00
53.8473 831.00
53.9125 892.00
53.9777 912.00
54.0429 1034.00
54.1081 1051.00
54.1733 999.00
54.2385 1014.00
54.3037 983.00
54.3689 995.00
54.4341 1065.00
54.4993 1316.00
54.5645 1447.00
54.6297 1605.00
54.6949 2144.00
54.7601 2273.00
54.8253 1868.00
54.8905 1638.00
54.9557 1431.00
55.0209 1121.00
55.0861 1062.00
55.1513 1101.00
55.2165 1017.00
55.2817 1121.00
55.3469 1080.00
55.4121 1041.00
55.4773 980.00
55.5425 978.00
55.6077 986.00
55.6729 1009.00
55.7381 1086.00
55.8033 1266.00
55.8685 1794.00
55.9337 2368.00
55.9989 2595.00
56.0641 2498.00
56.1293 2488.00
56.1945 3043.00
56.2597 3635.00
56.3249 2394.00
56.3901 2393.00
56.4553 2116.00
56.5205 2142.00
56.5857 1945.00
56.6509 1969.00
56.7161 1678.00
56.7813 1319.00
56.8465 1098.00
56.9117 964.00
56.9769 890.00
57.042 848.00
57.1073 914.00
57.1724 854.00
57.2376 850.00
57.3028 827.00
57.368 857.00
57.4332 929.00
57.4984 948.00
57.5636 1054.00
57.6288 1054.00
57.694 1253.00
57.7592 1576.00
57.8244 1832.00
57.8896 1763.00
57.9548 1722.00
58.02 1570.00
58.0852 1459.00
58.1504 1646.00
58.2156 1914.00
58.2808 2418.00
58.346 2404.00
58.4112 2236.00
58.4764 2434.00
58.5416 2179.00
58.6068 1831.00
58.672 1631.00
58.7372 1520.00
58.8024 1379.00
58.8676 1376.00
58.9328 1432.00
58.998 1258.00
59.0632 1204.00
59.1284 1126.00
59.1936 1035.00
59.2588 970.00
59.324 972.00
59.3892 966.00
59.4544 1283.00
59.5196 2226.00
59.5848 1445.00
59.65 1461.00
59.7152 1545.00
59.7804 1096.00
59.8456 1014.00
59.9108 982.00
59.976 1041.00
60.0412 951.00
60.1064 1013.00
60.1716 1073.00
60.2368 1112.00
60.302 1270.00
60.3672 1643.00
60.4324 2150.00
60.4976 2292.00
60.5628 2398.00
60.628 2511.00
60.6932 2857.00
60.7584 2804.00
60.8236 2330.00
60.8888 2134.00
60.954 1772.00
61.0192 1354.00
61.0844 1237.00
61.1496 1061.00
61.2148 1002.00
61.28 980.00
61.3452 970.00
61.4104 1018.00
61.4756 1160.00
61.5408 1186.00
61.606 1113.00
61.6712 1104.00
61.7364 1022.00
61.8016 1055.00
61.8667 1117.00
61.932 1319.00
61.9971 1470.00
62.0623 1485.00
62.1275 1392.00
62.1927 1350.00
62.2579 1192.00
62.3231 1091.00
62.3883 1101.00
62.4535 1250.00
62.5187 1368.00
62.5839 1703.00
62.6491 1680.00
62.7143 1461.00
62.7795 1355.00
62.8447 1206.00
62.9099 1040.00
62.9751 967.00
63.0403 1022.00
63.1055 1033.00
63.1707 1116.00
63.2359 1230.00
63.3011 1439.00
63.3663 1600.00
63.4315 1905.00
63.4967 2402.00
63.5619 2383.00
63.6271 2087.00
63.6923 1846.00
63.7575 1663.00
63.8227 1258.00
63.8879 1049.00
63.9531 1006.00
64.0183 944.00
64.0835 880.00
64.1487 872.00
64.2139 895.00
64.2791 1141.00
64.3443 1385.00
64.4095 1050.00
64.4747 1069.00
64.5399 1067.00
64.6051 926.00
64.6703 882.00
64.7355 997.00
64.8007 1045.00
64.8659 1080.00
64.9311 1214.00
64.9963 1164.00
65.0615 1001.00
65.1267 966.00
65.1919 960.00
65.2571 887.00
65.3223 765.00
65.3875 737.00
65.4527 784.00
65.5179 755.00
65.5831 795.00
65.6483 873.00
65.7135 871.00
65.7787 892.00
65.8439 953.00
65.9091 1014.00
65.9743 1201.00
66.0395 1403.00
66.1047 1589.00
66.1699 2010.00
66.2351 3229.00
66.3003 3066.00
66.3655 2677.00
66.4307 2870.00
66.4959 2300.00
66.561 1849.00
66.6263 1613.00
66.6915 1327.00
66.7566 1173.00
66.8218 979.00
66.887 936.00
66.9522 791.00
67.0174 816.00
67.0826 780.00
67.1478 776.00
67.213 814.00
67.2782 745.00
67.3434 734.00
67.4086 796.00
67.4738 767.00
67.539 730.00
67.6042 680.00
67.6694 744.00
67.7346 657.00
67.7998 676.00
67.865 711.00
67.9302 694.00
67.9954 667.00
68.0606 725.00
68.1258 714.00
68.191 709.00
68.2562 723.00
68.3214 780.00
68.3866 801.00
68.4518 853.00
68.517 968.00
68.5822 871.00
68.6474 837.00
68.7126 824.00
68.7778 756.00
68.843 685.00
68.9082 809.00
68.9734 774.00
69.0386 806.00
69.1038 836.00
69.169 734.00
69.2342 805.00
69.2994 722.00
69.3646 811.00
69.4298 779.00
69.495 748.00
69.5602 903.00
69.6254 1087.00
69.6906 1045.00
69.7558 1013.00
69.821 1035.00
69.8862 1067.00
69.9514 1241.00
70.0166 1378.00
70.0818 1070.00
70.147 1087.00
70.2122 1063.00
70.2774 915.00
70.3426 894.00
70.4078 826.00
70.473 847.00
70.5382 870.00
70.6034 774.00
70.6686 731.00
70.7338 699.00
70.799 754.00
70.8642 733.00
70.9294 735.00
70.9946 712.00
71.0598 730.00
71.125 699.00
71.1902 784.00
71.2554 766.00
71.3205 812.00
71.3858 802.00
71.451 845.00
71.5162 843.00
71.5813 906.00
71.6465 958.00
71.7117 1073.00
71.7769 1235.00
71.8421 1410.00
71.9073 1423.00
71.9725 1535.00
72.0377 1382.00
72.1029 1413.00
72.1681 1513.00
72.2333 1623.00
72.2985 1440.00
72.3637 1252.00
72.4289 1284.00
72.4941 1186.00
72.5593 968.00
72.6245 986.00
72.6897 984.00
72.7549 948.00
72.8201 1027.00
72.8853 951.00
72.9505 954.00
73.0157 863.00
73.0809 909.00
73.1461 908.00
73.2113 880.00
73.2765 967.00
73.3417 929.00
73.4069 978.00
73.4721 1005.00
73.5373 974.00
73.6025 936.00
73.6677 940.00
73.7329 925.00
73.7981 869.00
73.8633 974.00
73.9285 961.00
73.9937 1001.00
74.0589 1076.00
74.1241 1041.00
74.1893 996.00
74.2545 986.00
74.3197 946.00
74.3849 891.00
74.4501 802.00
74.5153 781.00
74.5805 749.00
74.6457 794.00
74.7109 707.00
74.7761 742.00
74.8413 736.00
74.9065 766.00
74.9717 779.00
75.0369 740.00
75.1021 752.00
75.1673 807.00
75.2325 847.00
75.2977 923.00
75.3629 1072.00
75.4281 1256.00
75.4933 1526.00
75.5585 1545.00
75.6237 1265.00
75.6889 1312.00
75.7541 1468.00
75.8193 1427.00
75.8845 1337.00
75.9497 1133.00
76.0149 1176.00
76.0801 1105.00
76.1452 935.00
76.2104 921.00
76.2756 900.00
76.3409 809.00
76.406 869.00
76.4712 857.00
76.5364 1047.00
76.6016 1569.00
76.6668 1430.00
76.732 1084.00
76.7972 1173.00
76.8624 1214.00
76.9276 909.00
76.9928 1016.00
77.058 908.00
77.1232 928.00
77.1884 991.00
77.2536 921.00
77.3188 918.00
77.384 879.00
77.4492 841.00
77.5144 807.00
77.5796 787.00
77.6448 764.00
77.71 745.00
77.7752 743.00
77.8404 772.00
77.9056 814.00
77.9708 865.00
78.036 819.00
78.1012 902.00
78.1664 920.00
78.2316 925.00
78.2968 850.00
78.362 903.00
78.4272 838.00
78.4924 855.00
78.5576 754.00
78.6228 740.00
78.688 785.00
78.7532 838.00
78.8184 831.00
78.8836 885.00
78.9488 835.00
79.014 796.00
79.0792 839.00
79.1444 808.00
79.2096 799.00
79.2748 807.00
79.34 857.00
79.4052 858.00
79.4704 930.00
79.5356 990.00
79.6008 965.00
79.666 1127.00
79.7312 1134.00
79.7964 1093.00
79.8616 1050.00
79.9268 1007.00
79.992 978.00
80.0572 882.00
80.1224 835.00
80.1876 798.00
80.2528 792.00
80.318 725.00
80.3832 767.00
80.4484 714.00
80.5136 737.00
80.5788 722.00
80.644 731.00
80.7092 774.00
80.7744 837.00
80.8396 851.00
80.9048 889.00
80.9699 835.00
81.0351 821.00
81.1003 894.00
81.1655 917.00
81.2307 833.00
81.2959 831.00
81.3611 791.00
81.4263 764.00
81.4915 758.00
81.5567 711.00
81.6219 769.00
81.6871 719.00
81.7523 750.00
81.8175 805.00
81.8827 739.00
81.9479 826.00
82.0131 793.00
82.0783 899.00
82.1435 884.00
82.2087 912.00
82.2739 1002.00
82.3391 1073.00
82.4043 1094.00
82.4695 1010.00
82.5347 1053.00
82.5999 1018.00
82.6651 991.00
82.7303 1034.00
82.7955 1024.00
82.8607 1144.00
82.9259 1352.00
82.9911 1608.00
83.0563 1372.00
83.1215 1284.00
83.1867 1324.00
83.2519 1382.00
83.3171 1365.00
83.3823 1342.00
83.4475 1272.00
83.5127 1245.00
83.5779 1275.00
83.6431 1387.00
83.7083 1294.00
83.7735 1350.00
83.8387 1323.00
83.9039 1341.00
83.9691 1285.00
84.0343 1219.00
84.0995 1233.00
84.1647 1125.00
84.2299 1111.00
84.2951 1128.00
84.3603 1095.00
84.4255 1098.00
84.4907 1093.00
84.5559 1173.00
84.6211 1361.00
84.6863 1684.00
84.7515 1870.00
84.8167 1534.00
84.8819 1445.00
84.9471 1533.00
85.0123 1558.00
85.0775 1244.00
85.1427 1159.00
85.2079 1024.00
85.2731 1003.00
85.3383 951.00
85.4035 906.00
85.4687 913.00
85.5339 887.00
85.5991 956.00
85.6643 1016.00
85.7295 1064.00
85.7946 968.00
85.8598 916.00
85.925 880.00
85.9903 957.00
86.0554 996.00
86.1206 1166.00
86.1858 1367.00
86.251 1012.00
86.3162 935.00
86.3814 1018.00
86.4466 1032.00
86.5118 861.00
86.577 857.00
86.6422 868.00
86.7074 809.00
86.7726 849.00
86.8378 888.00
86.903 903.00
86.9682 958.00
87.0334 940.00
87.0986 894.00
87.1638 1000.00
87.229 1037.00
87.2942 955.00
87.3594 850.00
87.4246 872.00
87.4898 877.00
87.555 829.00
87.6202 848.00
87.6854 904.00
87.7506 907.00
87.8158 956.00
87.881 999.00
87.9462 1017.00
88.0114 902.00
88.0766 899.00
88.1418 1058.00
88.207 1040.00
88.2722 1072.00
88.3374 1058.00
88.4026 1043.00
88.4678 890.00
88.533 959.00
88.5982 927.00
88.6634 900.00
88.7286 840.00
88.7938 921.00
88.859 911.00
88.9242 1044.00
88.9894 1057.00
89.0546 1081.00
89.1198 1068.00
89.185 1004.00
89.2502 1069.00
89.3154 1126.00
89.3806 1199.00
89.4458 1179.00
89.511 1140.00
89.5762 1218.00
89.6414 1241.00
89.7066 1287.00
89.7718 1113.00
89.837 1088.00
89.9022 1099.00
89.9674 1101.00
90.0326 1026.00
90.0978 1083.00
90.163 951.00
90.2282 950.00
90.2934 944.00
90.3586 921.00
90.4238 955.00
90.489 1037.00
90.5542 1128.00
90.6193 1087.00
90.6845 1125.00
90.7497 1041.00
90.8149 1048.00
90.8801 1041.00
90.9453 1002.00
91.0105 936.00
91.0757 936.00
91.1409 890.00
91.2061 869.00
91.2713 892.00
91.3365 940.00
91.4017 1038.00
91.4669 1141.00
91.5321 1003.00
91.5973 910.00
91.6625 924.00
91.7277 997.00
91.7929 911.00
91.8581 857.00
91.9233 853.00
91.9885 836.00
92.0537 819.00
92.1189 849.00
92.1841 884.00
92.2493 909.00
92.3145 856.00
92.3797 898.00
92.4449 846.00
92.5101 838.00
92.5753 882.00
92.6405 939.00
92.7057 842.00
92.7709 789.00
92.8361 766.00
92.9013 767.00
92.9665 783.00
93.0317 801.00
93.0969 892.00
93.1621 906.00
93.2273 989.00
93.2925 870.00
93.3577 823.00
93.4229 838.00
93.4881 902.00
93.5533 862.00
93.6185 776.00
93.6837 753.00
93.7489 774.00
93.8141 794.00
93.8793 753.00
93.9445 798.00
94.0097 758.00
94.0749 722.00
94.1401 740.00
94.2053 777.00
94.2705 767.00
94.3357 666.00
94.4009 766.00
94.4661 741.00
94.5313 776.00
94.5965 801.00
94.6617 873.00
94.7269 873.00
94.7921 821.00
94.8573 814.00
94.9225 789.00
94.9877 838.00
95.0529 853.00
95.1181 811.00
95.1833 761.00
95.2485 764.00
95.3137 777.00
95.3789 740.00
95.444 781.00
95.5092 714.00
95.5744 791.00
95.6396 854.00
95.7048 841.00
95.77 884.00
95.8352 927.00
95.9004 1138.00
95.9656 1157.00
96.0308 1028.00
96.096 1002.00
96.1612 1063.00
96.2264 1014.00
96.2916 1019.00
96.3568 852.00
96.422 853.00
96.4872 846.00
96.5524 812.00
96.6176 799.00
96.6828 842.00
96.748 779.00
96.8132 788.00
96.8784 851.00
96.9436 899.00
97.0088 1030.00
97.074 961.00
97.1392 1003.00
97.2044 944.00
97.2696 953.00
97.3348 1046.00
97.4 1188.00
97.4652 1182.00
97.5304 1183.00
97.5956 1255.00
97.6608 1184.00
97.726 1331.00
97.7912 1368.00
97.8564 1305.00
97.9216 1258.00
97.9868 1238.00
98.052 1231.00
98.1172 1101.00
98.1824 988.00
98.2476 1013.00
98.3128 967.00
98.378 919.00
98.4432 805.00
98.5084 916.00
98.5736 834.00
98.6388 850.00
98.704 863.00
98.7692 920.00
98.8344 879.00
98.8996 1012.00
98.9648 933.00
99.03 1030.00
99.0952 940.00
99.1604 887.00
99.2256 921.00
99.2908 878.00
99.356 958.00
99.4212 897.00
99.4864 882.00
99.5516 928.00
99.6168 946.00
99.682 967.00
99.7472 1018.00
99.8124 902.00
99.8776 933.00
99.9428 893.00
100.008 935.00
100.073 917.00
100.095 927.00