File: data/xrd_creation/results/PG_1021-1.xy
10.0094 2394.00
10.0746 2401.00
10.1398 2329.00
10.205 2444.00
10.2702 2343.00
10.3354 2315.00
10.4006 2275.00
10.4658 2273.00
10.531 2215.00
10.5962 2230.00
10.6614 2187.00
10.7266 2242.00
10.7918 2193.00
10.857 2244.00
10.9222 2124.00
10.9874 2101.00
11.0526 2048.00
11.1178 2133.00
11.183 2067.00
11.2482 2153.00
11.3134 2054.00
11.3786 2025.00
11.4438 2079.00
11.509 1970.00
11.5742 1921.00
11.6394 1977.00
11.7046 2109.00
11.7698 2018.00
11.835 1945.00
11.9002 1849.00
11.9654 2013.00
12.0306 1886.00
12.0958 1991.00
12.161 1862.00
12.2262 1904.00
12.2914 1914.00
12.3566 1925.00
12.4218 1948.00
12.487 1785.00
12.5522 1826.00
12.6174 1824.00
12.6826 1842.00
12.7478 1788.00
12.813 1789.00
12.8782 1829.00
12.9434 1841.00
13.0086 1711.00
13.0738 1885.00
13.139 1802.00
13.2042 1750.00
13.2694 1727.00
13.3346 1778.00
13.3998 1693.00
13.465 1715.00
13.5302 1731.00
13.5954 1693.00
13.6606 1748.00
13.7258 1700.00
13.791 1725.00
13.8562 1686.00
13.9214 1720.00
13.9865 1590.00
14.0517 1649.00
14.1169 1562.00
14.1821 1661.00
14.2473 1655.00
14.3125 1602.00
14.3777 1626.00
14.4429 1626.00
14.5081 1675.00
14.5733 1660.00
14.6385 1608.00
14.7037 1614.00
14.7689 1627.00
14.8341 1507.00
14.8993 1652.00
14.9645 1603.00
15.0297 1645.00
15.0949 1660.00
15.1601 1672.00
15.2253 1697.00
15.2905 1688.00
15.3557 1817.00
15.4209 1898.00
15.4861 2006.00
15.5513 2128.00
15.6165 2596.00
15.6817 3040.00
15.7469 3960.00
15.8121 5212.00
15.8773 7040.00
15.9425 8345.00
16.0077 7473.00
16.0729 4805.00
16.1381 3194.00
16.2033 2480.00
16.2685 1984.00
16.3337 1917.00
16.3989 1840.00
16.4641 1674.00
16.5293 1599.00
16.5945 1628.00
16.6597 1517.00
16.7249 1582.00
16.7901 1565.00
16.8553 1585.00
16.9205 1586.00
16.9857 1436.00
17.0509 1538.00
17.1161 1515.00
17.1813 1549.00
17.2465 1445.00
17.3117 1489.00
17.3769 1377.00
17.4421 1445.00
17.5073 1427.00
17.5725 1409.00
17.6377 1419.00
17.7029 1393.00
17.7681 1461.00
17.8333 1357.00
17.8985 1414.00
17.9637 1370.00
18.0289 1354.00
18.0941 1381.00
18.1593 1400.00
18.2245 1348.00
18.2897 1342.00
18.3549 1369.00
18.4201 1332.00
18.4853 1356.00
18.5505 1427.00
18.6157 1367.00
18.6809 1295.00
18.7461 1329.00
18.8112 1284.00
18.8764 1333.00
18.9416 1363.00
19.0068 1298.00
19.072 1342.00
19.1372 1319.00
19.2024 1302.00
19.2676 1236.00
19.3328 1307.00
19.398 1309.00
19.4632 1284.00
19.5284 1260.00
19.5936 1287.00
19.6588 1272.00
19.724 1198.00
19.7892 1256.00
19.8544 1258.00
19.9196 1206.00
19.9848 1252.00
20.05 1280.00
20.1152 1206.00
20.1804 1285.00
20.2456 1275.00
20.3108 1187.00
20.376 1246.00
20.4412 1219.00
20.5064 1218.00
20.5716 1174.00
20.6368 1138.00
20.702 1182.00
20.7672 1170.00
20.8324 1214.00
20.8976 1182.00
20.9628 1191.00
21.028 1195.00
21.0932 1178.00
21.1584 1142.00
21.2236 1155.00
21.2888 1233.00
21.354 1118.00
21.4192 1149.00
21.4844 1119.00
21.5496 1154.00
21.6148 1125.00
21.68 1132.00
21.7452 1141.00
21.8104 1154.00
21.8756 1143.00
21.9408 1095.00
22.006 1130.00
22.0712 1143.00
22.1364 1146.00
22.2016 1156.00
22.2668 1111.00
22.332 1099.00
22.3972 1095.00
22.4624 1111.00
22.5276 1138.00
22.5928 1065.00
22.658 1103.00
22.7232 1107.00
22.7884 1118.00
22.8536 1077.00
22.9188 1100.00
22.984 1039.00
23.0492 1075.00
23.1144 1049.00
23.1796 1124.00
23.2448 1035.00
23.31 1103.00
23.3752 1086.00
23.4404 1114.00
23.5056 1058.00
23.5708 1029.00
23.6359 1097.00
23.7011 1034.00
23.7663 995.00
23.8315 1043.00
23.8967 1047.00
23.9619 1009.00
24.0271 1021.00
24.0923 1063.00
24.1575 1051.00
24.2227 1056.00
24.2879 1050.00
24.3531 1038.00
24.4183 1016.00
24.4835 1042.00
24.5487 1063.00
24.6139 1239.00
24.6791 1369.00
24.7443 1929.00
24.8095 2473.00
24.8747 2000.00
24.9399 1236.00
25.0051 1080.00
25.0703 1093.00
25.1355 1031.00
25.2007 979.00
25.2659 991.00
25.3311 1005.00
25.3963 1013.00
25.4615 969.00
25.5267 1070.00
25.5919 983.00
25.6571 979.00
25.7223 946.00
25.7875 947.00
25.8527 1003.00
25.9179 979.00
25.9831 1015.00
26.0483 1039.00
26.1135 986.00
26.1787 1000.00
26.2439 995.00
26.3091 985.00
26.3743 963.00
26.4395 957.00
26.5047 1017.00
26.5699 1006.00
26.6351 1013.00
26.7003 1092.00
26.7655 1024.00
26.8307 1060.00
26.8959 1054.00
26.9611 1118.00
27.0263 1177.00
27.0915 1304.00
27.1567 1370.00
27.2219 1510.00
27.2871 1910.00
27.3523 2450.00
27.4175 3451.00
27.4827 5108.00
27.5479 6709.00
27.6131 6856.00
27.6783 5126.00
27.7435 3484.00
27.8087 2627.00
27.8739 2244.00
27.9391 2232.00
28.0043 2526.00
28.0695 3400.00
28.1347 4874.00
28.1999 7084.00
28.2651 9225.00
28.3303 8431.00
28.3955 5774.00
28.4606 3594.00
28.5258 2412.00
28.591 1810.00
28.6562 1437.00
28.7214 1271.00
28.7866 1276.00
28.8518 1140.00
28.917 1084.00
28.9822 1056.00
29.0474 1019.00
29.1126 1017.00
29.1778 1017.00
29.243 980.00
29.3082 965.00
29.3734 992.00
29.4386 910.00
29.5038 897.00
29.569 944.00
29.6342 910.00
29.6994 903.00
29.7646 846.00
29.8298 889.00
29.895 909.00
29.9602 930.00
30.0254 937.00
30.0906 882.00
30.1558 851.00
30.221 909.00
30.2862 850.00
30.3514 862.00
30.4166 916.00
30.4818 817.00
30.547 860.00
30.6122 810.00
30.6774 857.00
30.7426 889.00
30.8078 855.00
30.873 892.00
30.9382 848.00
31.0034 857.00
31.0686 911.00
31.1338 881.00
31.199 822.00
31.2642 892.00
31.3294 859.00
31.3946 866.00
31.4598 952.00
31.525 986.00
31.5902 1030.00
31.6554 1137.00
31.7206 1318.00
31.7858 1731.00
31.851 2158.00
31.9162 2198.00
31.9814 1958.00
32.0466 1503.00
32.1118 1236.00
32.177 1008.00
32.2422 941.00
32.3074 881.00
32.3726 767.00
32.4378 859.00
32.503 815.00
32.5682 741.00
32.6334 763.00
32.6986 829.00
32.7638 786.00
32.829 797.00
32.8942 759.00
32.9594 725.00
33.0246 788.00
33.0898 767.00
33.1549 761.00
33.2201 763.00
33.2853 823.00
33.3505 775.00
33.4157 776.00
33.4809 765.00
33.5461 812.00
33.6113 756.00
33.6765 851.00
33.7417 990.00
33.8069 1499.00
33.8721 2460.00
33.9373 2624.00
34.0025 1838.00
34.0677 1181.00
34.1329 864.00
34.1981 781.00
34.2633 764.00
34.3285 774.00
34.3937 761.00
34.4589 742.00
34.5241 740.00
34.5893 694.00
34.6545 672.00
34.7197 710.00
34.7849 690.00
34.8501 733.00
34.9153 728.00
34.9805 720.00
35.0457 688.00
35.1109 712.00
35.1761 748.00
35.2413 692.00
35.3065 713.00
35.3717 725.00
35.4369 704.00
35.5021 721.00
35.5673 733.00
35.6325 655.00
35.6977 715.00
35.7629 741.00
35.8281 709.00
35.8933 737.00
35.9585 740.00
36.0237 836.00
36.0889 863.00
36.1541 968.00
36.2193 1194.00
36.2845 1349.00
36.3497 1488.00
36.4149 1817.00
36.4801 2500.00
36.5453 2332.00
36.6105 1781.00
36.6757 1066.00
36.7409 914.00
36.8061 750.00
36.8713 686.00
36.9365 727.00
37.0017 670.00
37.0669 686.00
37.1321 710.00
37.1973 604.00
37.2625 709.00
37.3277 691.00
37.3929 658.00
37.4581 637.00
37.5233 657.00
37.5885 655.00
37.6537 613.00
37.7189 651.00
37.7841 623.00
37.8493 661.00
37.9145 642.00
37.9796 622.00
38.0448 706.00
38.11 615.00
38.1752 654.00
38.2404 669.00
38.3056 678.00
38.3708 677.00
38.436 734.00
38.5012 699.00
38.5664 716.00
38.6316 701.00
38.6968 710.00
38.762 654.00
38.8272 728.00
38.8924 749.00
38.9576 790.00
39.0228 755.00
39.088 754.00
39.1532 871.00
39.2184 891.00
39.2836 959.00
39.3488 1163.00
39.414 1333.00
39.4792 1603.00
39.5444 2218.00
39.6096 3045.00
39.6748 4632.00
39.74 5760.00
39.8052 5880.00
39.8704 4957.00
39.9356 3625.00
40.0008 2495.00
40.066 1858.00
40.1312 1418.00
40.1964 1233.00
40.2616 968.00
40.3268 952.00
40.392 879.00
40.4572 784.00
40.5224 752.00
40.5876 777.00
40.6528 674.00
40.718 707.00
40.7832 707.00
40.8484 714.00
40.9136 683.00
40.9788 682.00
41.044 691.00
41.1092 718.00
41.1744 682.00
41.2396 693.00
41.3048 663.00
41.37 587.00
41.4352 663.00
41.5004 627.00
41.5656 680.00
41.6308 729.00
41.696 937.00
41.7612 1210.00
41.8264 1221.00
41.8916 1055.00
41.9568 823.00
42.022 738.00
42.0872 692.00
42.1524 730.00
42.2176 821.00
42.2828 908.00
42.348 1128.00
42.4132 1267.00
42.4784 1495.00
42.5436 1607.00
42.6088 1467.00
42.6739 1193.00
42.7392 1009.00
42.8043 813.00
42.8695 806.00
42.9347 714.00
42.9999 683.00
43.0651 633.00
43.1303 619.00
43.1955 662.00
43.2607 666.00
43.3259 608.00
43.3911 611.00
43.4563 616.00
43.5215 650.00
43.5867 615.00
43.6519 641.00
43.7171 606.00
43.7823 609.00
43.8475 588.00
43.9127 626.00
43.9779 637.00
44.0431 626.00
44.1083 596.00
44.1735 569.00
44.2387 574.00
44.3039 580.00
44.3691 583.00
44.4343 642.00
44.4995 705.00
44.5647 655.00
44.6299 607.00
44.6951 647.00
44.7603 633.00
44.8255 614.00
44.8907 622.00
44.9559 546.00
45.0211 596.00
45.0863 602.00
45.1515 554.00
45.2167 562.00
45.2819 610.00
45.3471 537.00
45.4123 565.00
45.4775 561.00
45.5427 586.00
45.6079 579.00
45.6731 574.00
45.7383 581.00
45.8035 566.00
45.8687 558.00
45.9339 579.00
45.9991 521.00
46.0643 563.00
46.1295 574.00
46.1947 599.00
46.2599 601.00
46.3251 581.00
46.3903 577.00
46.4555 579.00
46.5207 601.00
46.5859 581.00
46.6511 630.00
46.7163 576.00
46.7815 632.00
46.8467 655.00
46.9119 660.00
46.9771 666.00
47.0423 770.00
47.1075 762.00
47.1727 869.00
47.2379 964.00
47.3031 1227.00
47.3683 1431.00
47.4335 1451.00
47.4986 1335.00
47.5639 1106.00
47.629 887.00
47.6942 840.00
47.7594 776.00
47.8246 776.00
47.8898 793.00
47.955 828.00
48.0202 854.00
48.0854 897.00
48.1506 1050.00
48.2158 1103.00
48.281 1387.00
48.3462 1795.00
48.4114 2318.00
48.4766 2661.00
48.5418 2804.00
48.607 2759.00
48.6722 2782.00
48.7374 2951.00
48.8026 3723.00
48.8678 4518.00
48.933 4841.00
48.9982 4476.00
49.0634 3714.00
49.1286 2853.00
49.1938 2032.00
49.259 1615.00
49.3242 1309.00
49.3894 1140.00
49.4546 939.00
49.5198 870.00
49.585 786.00
49.6502 706.00
49.7154 762.00
49.7806 766.00
49.8458 734.00
49.911 715.00
49.9762 733.00
50.0414 846.00
50.1066 1048.00
50.1718 1128.00
50.237 1176.00
50.3022 1110.00
50.3674 1121.00
50.4326 1163.00
50.4978 1445.00
50.563 1238.00
50.6282 1093.00
50.6934 886.00
50.7586 667.00
50.8238 666.00
50.889 637.00
50.9542 628.00
51.0194 616.00
51.0846 637.00
51.1498 554.00
51.215 558.00
51.2802 521.00
51.3454 531.00
51.4106 568.00
51.4758 568.00
51.541 561.00
51.6062 521.00
51.6714 561.00
51.7366 515.00
51.8018 561.00
51.867 550.00
51.9322 538.00
51.9974 505.00
52.0626 538.00
52.1278 525.00
52.193 540.00
52.2582 508.00
52.3233 527.00
52.3886 526.00
52.4537 520.00
52.5189 500.00
52.5841 499.00
52.6493 513.00
52.7145 550.00
52.7797 570.00
52.8449 537.00
52.9101 558.00
52.9753 522.00
53.0405 534.00
53.1057 483.00
53.1709 519.00
53.2361 532.00
53.3013 528.00
53.3665 570.00
53.4317 517.00
53.4969 569.00
53.5621 515.00
53.6273 553.00
53.6925 570.00
53.7577 540.00
53.8229 557.00
53.8881 510.00
53.9533 538.00
54.0185 491.00
54.0837 536.00
54.1489 499.00
54.2141 571.00
54.2793 530.00
54.3445 569.00
54.4097 525.00
54.4749 560.00
54.5401 530.00
54.6053 572.00
54.6705 582.00
54.7357 593.00
54.8009 640.00
54.8661 650.00
54.9313 703.00
54.9965 946.00
55.0617 1522.00
55.1269 2304.00
55.1921 1751.00
55.2573 1750.00
55.3225 1459.00
55.3877 1315.00
55.4529 1472.00
55.5181 1749.00
55.5833 1693.00
55.6485 1598.00
55.7137 1396.00
55.7789 1117.00
55.8441 907.00
55.9093 819.00
55.9745 741.00
56.0397 656.00
56.1049 650.00
56.1701 710.00
56.2353 710.00
56.3005 794.00
56.3657 820.00
56.4309 903.00
56.4961 1018.00
56.5613 1115.00
56.6265 1069.00
56.6917 1010.00
56.7569 911.00
56.8221 759.00
56.8873 711.00
56.9525 660.00
57.0177 643.00
57.0829 601.00
57.148 595.00
57.2132 550.00
57.2784 543.00
57.3436 542.00
57.4088 550.00
57.474 552.00
57.5392 529.00
57.6044 555.00
57.6696 552.00
57.7348 570.00
57.8 554.00
57.8652 608.00
57.9304 650.00
57.9956 745.00
58.0608 761.00
58.126 821.00
58.1912 810.00
58.2564 755.00
58.3216 668.00
58.3868 637.00
58.452 604.00
58.5172 586.00
58.5824 657.00
58.6476 669.00
58.7128 672.00
58.778 691.00
58.8432 736.00
58.9084 739.00
58.9736 755.00
59.0388 812.00
59.104 850.00
59.1692 805.00
59.2344 721.00
59.2996 678.00
59.3648 638.00
59.43 555.00
59.4952 572.00
59.5604 540.00
59.6256 497.00
59.6908 559.00
59.756 509.00
59.8212 478.00
59.8864 518.00
59.9516 483.00
60.0168 466.00
60.082 459.00
60.1472 538.00
60.2124 512.00
60.2776 473.00
60.3428 422.00
60.408 453.00
60.4732 509.00
60.5384 485.00
60.6036 466.00
60.6688 457.00
60.734 476.00
60.7992 481.00
60.8644 481.00
60.9296 509.00
60.9948 449.00
61.06 526.00
61.1252 477.00
61.1904 468.00
61.2556 453.00
61.3208 494.00
61.386 474.00
61.4512 470.00
61.5164 473.00
61.5816 452.00
61.6468 434.00
61.712 459.00
61.7772 483.00
61.8424 463.00
61.9076 476.00
61.9727 450.00
62.0379 479.00
62.1031 475.00
62.1683 494.00
62.2335 426.00
62.2987 464.00
62.3639 475.00
62.4291 489.00
62.4943 472.00
62.5595 517.00
62.6247 469.00
62.6899 479.00
62.7551 485.00
62.8203 484.00
62.8855 497.00
62.9507 511.00
63.0159 484.00
63.0811 494.00
63.1463 510.00
63.2115 515.00
63.2767 493.00
63.3419 541.00
63.4071 523.00
63.4723 534.00
63.5375 586.00
63.6027 714.00
63.6679 843.00
63.7331 1056.00
63.7983 951.00
63.8635 909.00
63.9287 956.00
63.9939 887.00
64.0591 941.00
64.1243 1142.00
64.1895 1271.00
64.2547 1496.00
64.3199 1395.00
64.3851 1313.00
64.4503 1212.00
64.5155 1038.00
64.5807 933.00
64.6459 796.00
64.7111 725.00
64.7763 663.00
64.8415 654.00
64.9067 621.00
64.9719 670.00
65.0371 651.00
65.1023 655.00
65.1675 761.00
65.2327 885.00
65.2979 1063.00
65.3631 1347.00
65.4283 1293.00
65.4935 1110.00
65.5587 1083.00
65.6239 865.00
65.6891 690.00
65.7543 584.00
65.8195 608.00
65.8847 578.00
65.9499 551.00
66.0151 582.00
66.0803 583.00
66.1455 611.00
66.2107 581.00
66.2759 579.00
66.3411 598.00
66.4063 569.00
66.4715 532.00
66.5367 483.00
66.6019 542.00
66.6671 472.00
66.7322 524.00
66.7974 464.00
66.8626 455.00
66.9278 503.00
66.993 485.00
67.0582 456.00
67.1234 472.00
67.1886 516.00
67.2538 456.00
67.319 477.00
67.3842 479.00
67.4494 473.00
67.5146 510.00
67.5798 473.00
67.645 517.00
67.7102 460.00
67.7754 434.00
67.8406 484.00
67.9058 423.00
67.971 443.00
68.0362 454.00
68.1014 456.00
68.1666 452.00
68.2318 461.00
68.297 450.00
68.3622 485.00
68.4274 409.00
68.4926 447.00
68.5578 463.00
68.623 461.00
68.6882 480.00
68.7534 469.00
68.8186 520.00
68.8838 472.00
68.949 413.00
69.0142 458.00
69.0794 451.00
69.1446 521.00
69.2098 496.00
69.275 499.00
69.3402 515.00
69.4054 567.00
69.4706 545.00
69.5358 623.00
69.601 664.00
69.6662 747.00
69.7314 794.00
69.7966 920.00
69.8618 1105.00
69.927 1212.00
69.9922 1204.00
70.0574 1045.00
70.1226 968.00
70.1878 923.00
70.253 743.00
70.3182 727.00
70.3834 622.00
70.4486 607.00
70.5138 557.00
70.579 522.00
70.6442 526.00
70.7094 520.00
70.7746 544.00
70.8398 543.00
70.905 548.00
70.9702 634.00
71.0354 650.00
71.1006 686.00
71.1658 681.00
71.231 702.00
71.2962 676.00
71.3614 630.00
71.4266 577.00
71.4918 555.00
71.5569 533.00
71.6221 509.00
71.6873 496.00
71.7525 480.00
71.8177 495.00
71.8829 457.00
71.9481 496.00
72.0133 471.00
72.0785 490.00
72.1437 480.00
72.2089 487.00
72.2741 497.00
72.3393 467.00
72.4045 476.00
72.4697 450.00
72.5349 461.00
72.6001 487.00
72.6653 516.00
72.7305 520.00
72.7957 504.00
72.8609 507.00
72.9261 575.00
72.9913 614.00
73.0565 670.00
73.1217 714.00
73.1869 761.00
73.2521 701.00
73.3173 687.00
73.3825 675.00
73.4477 594.00
73.5129 592.00
73.5781 542.00
73.6433 550.00
73.7085 501.00
73.7737 481.00
73.8389 489.00
73.9041 448.00
73.9693 496.00
74.0345 456.00
74.0997 483.00
74.1649 420.00
74.2301 477.00
74.2953 470.00
74.3605 470.00
74.4257 513.00
74.4909 478.00
74.5561 521.00
74.6213 470.00
74.6865 449.00
74.7517 472.00
74.8169 410.00
74.8821 435.00
74.9473 421.00
75.0125 440.00
75.0777 443.00
75.1429 492.00
75.2081 464.00
75.2733 459.00
75.3385 507.00
75.4037 470.00
75.4689 535.00
75.5341 497.00
75.5993 521.00
75.6645 516.00
75.7297 527.00
75.7949 580.00
75.8601 616.00
75.9253 671.00
75.9905 797.00
76.0557 764.00
76.1209 813.00
76.186 789.00
76.2513 759.00
76.3165 806.00
76.3816 811.00
76.4468 833.00
76.512 817.00
76.5772 896.00
76.6424 836.00
76.7076 862.00
76.7728 847.00
76.838 819.00
76.9032 797.00
76.9684 853.00
77.0336 821.00
77.0988 941.00
77.164 902.00
77.2292 937.00
77.2944 1021.00
77.3596 1076.00
77.4248 1089.00
77.49 1187.00
77.5552 1289.00
77.6204 1227.00
77.6856 1378.00
77.7508 1361.00
77.816 1329.00
77.8812 1205.00
77.9464 1132.00
78.0116 1069.00
78.0768 885.00
78.142 872.00
78.2072 712.00
78.2724 696.00
78.3376 731.00
78.4028 703.00
78.468 697.00
78.5332 644.00
78.5984 688.00
78.6636 683.00
78.7288 685.00
78.794 688.00
78.8592 663.00
78.9244 680.00
78.9896 617.00
79.0548 622.00
79.12 618.00
79.1852 558.00
79.2504 566.00
79.3156 605.00
79.3808 510.00
79.446 521.00
79.5112 541.00
79.5764 512.00
79.6416 502.00
79.7068 503.00
79.772 483.00
79.8372 467.00
79.9024 446.00
79.9676 445.00
80.0328 450.00
80.098 468.00
80.1632 412.00
80.2284 471.00
80.2936 463.00
80.3588 451.00
80.424 487.00
80.4892 483.00
80.5544 462.00
80.6196 494.00
80.6848 473.00
80.75 463.00
80.8152 500.00
80.8804 460.00
80.9456 457.00
81.0108 405.00
81.076 473.00
81.1412 447.00
81.2063 444.00
81.2715 463.00
81.3367 441.00
81.4019 473.00
81.4671 486.00
81.5323 480.00
81.5975 483.00
81.6627 466.00
81.7279 437.00
81.7931 471.00
81.8583 451.00
81.9235 472.00
81.9887 465.00
82.0539 474.00
82.1191 505.00
82.1843 539.00
82.2495 592.00
82.3147 609.00
82.3799 635.00
82.4451 726.00
82.5103 717.00
82.5755 779.00
82.6407 737.00
82.7059 688.00
82.7711 646.00
82.8363 617.00
82.9015 595.00
82.9667 533.00
83.0319 511.00
83.0971 482.00
83.1623 555.00
83.2275 483.00
83.2927 472.00
83.3579 492.00
83.4231 447.00
83.4883 494.00
83.5535 457.00
83.6187 458.00
83.6839 459.00
83.7491 391.00
83.8143 459.00
83.8795 449.00
83.9447 463.00
84.0099 469.00
84.0751 439.00
84.1403 451.00
84.2055 442.00
84.2707 429.00
84.3359 485.00
84.4011 514.00
84.4663 570.00
84.5315 484.00
84.5967 497.00
84.6619 489.00
84.7271 512.00
84.7923 508.00
84.8575 511.00
84.9227 520.00
84.9879 498.00
85.0531 498.00
85.1183 490.00
85.1835 552.00
85.2487 528.00
85.3139 480.00
85.3791 577.00
85.4443 554.00
85.5095 489.00
85.5747 520.00
85.6399 474.00
85.7051 445.00
85.7703 533.00
85.8354 451.00
85.9006 540.00
85.9659 491.00
86.031 477.00
86.0962 485.00
86.1614 508.00
86.2266 471.00
86.2918 492.00
86.357 463.00
86.4222 484.00
86.4874 451.00
86.5526 445.00
86.6178 495.00
86.683 489.00
86.7482 574.00
86.8134 531.00
86.8786 501.00
86.9438 458.00
87.009 487.00
87.0742 486.00
87.1394 434.00
87.2046 454.00
87.2698 454.00
87.335 440.00
87.4002 476.00
87.4654 475.00
87.5306 445.00
87.5958 412.00
87.661 430.00
87.7262 435.00
87.7914 480.00
87.8566 450.00
87.9218 444.00
87.987 454.00
88.0522 470.00
88.1174 434.00
88.1826 441.00
88.2478 454.00
88.313 448.00
88.3782 502.00
88.4434 517.00
88.5086 482.00
88.5738 558.00
88.639 591.00
88.7042 650.00
88.7694 687.00
88.8346 765.00
88.8998 805.00
88.965 805.00
89.0302 810.00
89.0954 749.00
89.1606 734.00
89.2258 738.00
89.291 686.00
89.3562 644.00
89.4214 550.00
89.4866 604.00
89.5518 544.00
89.617 518.00
89.6822 479.00
89.7474 501.00
89.8126 513.00
89.8778 498.00
89.943 579.00
90.0082 554.00
90.0734 593.00
90.1386 614.00
90.2038 589.00
90.269 651.00
90.3342 722.00
90.3994 827.00
90.4646 780.00
90.5298 807.00
90.595 757.00
90.6601 766.00
90.7253 716.00
90.7905 697.00
90.8557 666.00
90.9209 662.00
90.9861 570.00
91.0513 548.00
91.1165 548.00
91.1817 550.00
91.2469 551.00
91.3121 544.00
91.3773 537.00
91.4425 549.00
91.5077 567.00
91.5729 570.00
91.6381 551.00
91.7033 569.00
91.7685 542.00
91.8337 556.00
91.8989 560.00
91.9641 479.00
92.0293 494.00
92.0945 507.00
92.1597 491.00
92.2249 503.00
92.2901 464.00
92.3553 457.00
92.4205 491.00
92.4857 485.00
92.5509 472.00
92.6161 468.00
92.6813 520.00
92.7465 455.00
92.8117 460.00
92.8769 444.00
92.9421 456.00
93.0073 462.00
93.0725 425.00
93.1377 492.00
93.2029 472.00
93.2681 472.00
93.3333 441.00
93.3985 440.00
93.4637 448.00
93.5289 427.00
93.5941 471.00
93.6593 422.00
93.7245 444.00
93.7897 477.00
93.8549 419.00
93.9201 430.00
93.9853 458.00
94.0505 414.00
94.1157 452.00
94.1809 436.00
94.2461 421.00
94.3113 462.00
94.3765 422.00
94.4417 446.00
94.5069 430.00
94.5721 406.00
94.6373 465.00
94.7025 429.00
94.7677 508.00
94.8329 448.00
94.8981 478.00
94.9633 453.00
95.0285 452.00
95.0937 489.00
95.1589 533.00
95.2241 534.00
95.2893 550.00
95.3545 616.00
95.4197 655.00
95.4848 762.00
95.55 796.00
95.6153 766.00
95.6804 756.00
95.7456 872.00
95.8108 920.00
95.876 873.00
95.9412 846.00
96.0064 779.00
96.0716 798.00
96.1368 756.00
96.202 715.00
96.2672 681.00
96.3324 604.00
96.3976 666.00
96.4628 631.00
96.528 644.00
96.5932 602.00
96.6584 647.00
96.7236 630.00
96.7888 705.00
96.854 720.00
96.9192 748.00
96.9844 741.00
97.0496 742.00
97.1148 715.00
97.18 677.00
97.2452 637.00
97.3104 685.00
97.3756 606.00
97.4408 551.00
97.506 558.00
97.5712 551.00
97.6364 587.00
97.7016 521.00
97.7668 508.00
97.832 525.00
97.8972 441.00
97.9624 473.00
98.0276 533.00
98.0928 470.00
98.158 446.00
98.2232 452.00
98.2884 459.00
98.3536 491.00
98.4188 464.00
98.484 479.00
98.5492 488.00
98.6144 456.00
98.6796 496.00
98.7448 473.00
98.81 498.00
98.8752 458.00
98.9404 458.00
99.0056 488.00
99.0708 487.00
99.136 457.00
99.2012 398.00
99.2664 421.00
99.3316 449.00
99.3968 431.00
99.462 426.00
99.5272 448.00
99.5924 442.00
99.6576 459.00
99.7228 456.00
99.788 462.00
99.8532 415.00
99.9184 461.00
99.9836 462.00
99.9944 443.00