File: data/xrd_creation/results/PG_1417-1.xy
10.0094 2538.00
10.0746 2531.00
10.1398 2562.00
10.205 2622.00
10.2702 2592.00
10.3354 2541.00
10.4006 2407.00
10.4658 2457.00
10.531 2407.00
10.5962 2411.00
10.6614 2419.00
10.7266 2361.00
10.7918 2341.00
10.857 2246.00
10.9222 2355.00
10.9874 2375.00
11.0526 2243.00
11.1178 2327.00
11.183 2358.00
11.2482 2222.00
11.3134 2215.00
11.3786 2154.00
11.4438 2269.00
11.509 2200.00
11.5742 2224.00
11.6394 2112.00
11.7046 2223.00
11.7698 2218.00
11.835 2083.00
11.9002 2163.00
11.9654 2124.00
12.0306 2118.00
12.0958 2174.00
12.161 2033.00
12.2262 2115.00
12.2914 2044.00
12.3566 2070.00
12.4218 2063.00
12.487 1998.00
12.5522 2040.00
12.6174 1977.00
12.6826 1980.00
12.7478 1957.00
12.813 2013.00
12.8782 1976.00
12.9434 1995.00
13.0086 1988.00
13.0738 1933.00
13.139 1937.00
13.2042 1940.00
13.2694 1934.00
13.3346 1980.00
13.3998 1925.00
13.465 1855.00
13.5302 1883.00
13.5954 1857.00
13.6606 1825.00
13.7258 1857.00
13.791 1841.00
13.8562 1853.00
13.9214 1838.00
13.9865 1885.00
14.0517 1794.00
14.1169 1881.00
14.1821 1837.00
14.2473 1865.00
14.3125 1801.00
14.3777 1745.00
14.4429 1748.00
14.5081 1762.00
14.5733 1774.00
14.6385 1866.00
14.7037 1764.00
14.7689 1824.00
14.8341 1847.00
14.8993 1849.00
14.9645 1748.00
15.0297 1750.00
15.0949 1775.00
15.1601 1707.00
15.2253 1731.00
15.2905 1743.00
15.3557 1760.00
15.4209 1807.00
15.4861 1759.00
15.5513 1683.00
15.6165 1767.00
15.6817 1713.00
15.7469 1807.00
15.8121 1748.00
15.8773 1716.00
15.9425 1812.00
16.0077 1714.00
16.0729 1677.00
16.1381 1750.00
16.2033 1662.00
16.2685 1676.00
16.3337 1756.00
16.3989 1746.00
16.4641 1700.00
16.5293 1707.00
16.5945 1727.00
16.6597 1734.00
16.7249 1743.00
16.7901 1688.00
16.8553 1703.00
16.9205 1691.00
16.9857 1715.00
17.0509 1772.00
17.1161 1664.00
17.1813 1698.00
17.2465 1704.00
17.3117 1669.00
17.3769 1677.00
17.4421 1711.00
17.5073 1758.00
17.5725 1717.00
17.6377 1693.00
17.7029 1862.00
17.7681 1848.00
17.8333 1968.00
17.8985 2055.00
17.9637 1956.00
18.0289 1825.00
18.0941 1769.00
18.1593 1720.00
18.2245 1742.00
18.2897 1756.00
18.3549 1785.00
18.4201 1870.00
18.4853 1975.00
18.5505 1858.00
18.6157 2019.00
18.6809 2292.00
18.7461 2497.00
18.8112 3004.00
18.8764 3252.00
18.9416 2614.00
19.0068 2314.00
19.072 2259.00
19.1372 2216.00
19.2024 2533.00
19.2676 2616.00
19.3328 2289.00
19.398 1850.00
19.4632 1724.00
19.5284 1721.00
19.5936 1706.00
19.6588 1609.00
19.724 1559.00
19.7892 1615.00
19.8544 1554.00
19.9196 1556.00
19.9848 1513.00
20.05 1482.00
20.1152 1520.00
20.1804 1527.00
20.2456 1549.00
20.3108 1454.00
20.376 1517.00
20.4412 1498.00
20.5064 1551.00
20.5716 1517.00
20.6368 1565.00
20.702 1566.00
20.7672 1503.00
20.8324 1456.00
20.8976 1448.00
20.9628 1473.00
21.028 1533.00
21.0932 1482.00
21.1584 1476.00
21.2236 1444.00
21.2888 1437.00
21.354 1450.00
21.4192 1530.00
21.4844 1542.00
21.5496 1440.00
21.6148 1413.00
21.68 1453.00
21.7452 1457.00
21.8104 1467.00
21.8756 1467.00
21.9408 1458.00
22.006 1436.00
22.0712 1501.00
22.1364 1533.00
22.2016 1462.00
22.2668 1450.00
22.332 1398.00
22.3972 1470.00
22.4624 1474.00
22.5276 1473.00
22.5928 1517.00
22.658 1421.00
22.7232 1472.00
22.7884 1471.00
22.8536 1405.00
22.9188 1458.00
22.984 1441.00
23.0492 1429.00
23.1144 1557.00
23.1796 1637.00
23.2448 1719.00
23.31 1697.00
23.3752 1615.00
23.4404 1505.00
23.5056 1421.00
23.5708 1471.00
23.6359 1480.00
23.7011 1507.00
23.7663 1448.00
23.8315 1519.00
23.8967 1492.00
23.9619 1557.00
24.0271 1460.00
24.0923 1610.00
24.1575 1627.00
24.2227 1580.00
24.2879 1677.00
24.3531 1724.00
24.4183 2037.00
24.4835 2323.00
24.5487 2682.00
24.6139 2542.00
24.6791 2121.00
24.7443 1892.00
24.8095 1917.00
24.8747 2152.00
24.9399 2426.00
25.0051 2399.00
25.0703 2162.00
25.1355 1882.00
25.2007 1715.00
25.2659 1583.00
25.3311 1513.00
25.3963 1426.00
25.4615 1472.00
25.5267 1428.00
25.5919 1395.00
25.6571 1376.00
25.7223 1334.00
25.7875 1374.00
25.8527 1313.00
25.9179 1394.00
25.9831 1321.00
26.0483 1293.00
26.1135 1293.00
26.1787 1339.00
26.2439 1397.00
26.3091 1302.00
26.3743 1342.00
26.4395 1295.00
26.5047 1317.00
26.5699 1375.00
26.6351 1312.00
26.7003 1378.00
26.7655 1337.00
26.8307 1326.00
26.8959 1372.00
26.9611 1318.00
27.0263 1339.00
27.0915 1337.00
27.1567 1414.00
27.2219 1240.00
27.2871 1253.00
27.3523 1354.00
27.4175 1359.00
27.4827 1272.00
27.5479 1346.00
27.6131 1386.00
27.6783 1401.00
27.7435 1401.00
27.8087 1367.00
27.8739 1409.00
27.9391 1475.00
28.0043 1534.00
28.0695 1623.00
28.1347 1822.00
28.1999 2084.00
28.2651 2190.00
28.3303 2258.00
28.3955 2485.00
28.4606 2710.00
28.5258 3641.00
28.591 5197.00
28.6562 7334.00
28.7214 8492.00
28.7866 6731.00
28.8518 4469.00
28.917 2966.00
28.9822 2268.00
29.0474 1941.00
29.1126 1740.00
29.1778 1636.00
29.243 1537.00
29.3082 1612.00
29.3734 1491.00
29.4386 1465.00
29.5038 1424.00
29.569 1482.00
29.6342 1415.00
29.6994 1450.00
29.7646 1466.00
29.8298 1496.00
29.895 1623.00
29.9602 1660.00
30.0254 1830.00
30.0906 1950.00
30.1558 1917.00
30.221 1764.00
30.2862 1570.00
30.3514 1443.00
30.4166 1431.00
30.4818 1354.00
30.547 1338.00
30.6122 1336.00
30.6774 1247.00
30.7426 1307.00
30.8078 1364.00
30.873 1332.00
30.9382 1327.00
31.0034 1331.00
31.0686 1340.00
31.1338 1368.00
31.199 1310.00
31.2642 1469.00
31.3294 1519.00
31.3946 1563.00
31.4598 1782.00
31.525 1907.00
31.5902 2029.00
31.6554 2126.00
31.7206 2202.00
31.7858 2423.00
31.851 3186.00
31.9162 4336.00
31.9814 6067.00
32.0466 6362.00
32.1118 5115.00
32.177 3371.00
32.2422 2408.00
32.3074 1877.00
32.3726 1663.00
32.4378 1491.00
32.503 1395.00
32.5682 1380.00
32.6334 1321.00
32.6986 1273.00
32.7638 1354.00
32.829 1277.00
32.8942 1293.00
32.9594 1293.00
33.0246 1199.00
33.0898 1257.00
33.1549 1199.00
33.2201 1235.00
33.2853 1228.00
33.3505 1230.00
33.4157 1220.00
33.4809 1194.00
33.5461 1236.00
33.6113 1140.00
33.6765 1228.00
33.7417 1251.00
33.8069 1327.00
33.8721 1261.00
33.9373 1257.00
34.0025 1405.00
34.0677 1431.00
34.1329 1554.00
34.1981 1544.00
34.2633 1634.00
34.3285 1618.00
34.3937 1669.00
34.4589 1739.00
34.5241 1968.00
34.5893 2431.00
34.6545 3095.00
34.7197 3220.00
34.7849 2949.00
34.8501 2585.00
34.9153 2748.00
34.9805 2830.00
35.0457 2436.00
35.1109 1946.00
35.1761 1624.00
35.2413 1479.00
35.3065 1385.00
35.3717 1418.00
35.4369 1449.00
35.5021 1545.00
35.5673 1485.00
35.6325 1427.00
35.6977 1660.00
35.7629 1965.00
35.8281 2665.00
35.8933 2920.00
35.9585 2560.00
36.0237 1908.00
36.0889 1430.00
36.1541 1394.00
36.2193 1298.00
36.2845 1426.00
36.3497 1467.00
36.4149 1576.00
36.4801 1642.00
36.5453 1504.00
36.6105 1256.00
36.6757 1219.00
36.7409 1189.00
36.8061 1180.00
36.8713 1123.00
36.9365 1112.00
37.0017 1100.00
37.0669 1102.00
37.1321 1100.00
37.1973 1142.00
37.2625 1167.00
37.3277 1141.00
37.3929 1181.00
37.4581 1105.00
37.5233 1170.00
37.5885 1108.00
37.6537 1164.00
37.7189 1077.00
37.7841 1127.00
37.8493 1139.00
37.9145 1127.00
37.9796 1176.00
38.0448 1122.00
38.11 1138.00
38.1752 1119.00
38.2404 1049.00
38.3056 1128.00
38.3708 1089.00
38.436 1120.00
38.5012 1102.00
38.5664 1109.00
38.6316 1183.00
38.6968 1189.00
38.762 1212.00
38.8272 1176.00
38.8924 1274.00
38.9576 1231.00
39.0228 1357.00
39.088 1612.00
39.1532 1688.00
39.2184 1619.00
39.2836 1366.00
39.3488 1270.00
39.414 1201.00
39.4792 1117.00
39.5444 1155.00
39.6096 1070.00
39.6748 1137.00
39.74 1080.00
39.8052 1088.00
39.8704 1123.00
39.9356 1108.00
40.0008 1090.00
40.066 1151.00
40.1312 1120.00
40.1964 1143.00
40.2616 1169.00
40.3268 1126.00
40.392 1198.00
40.4572 1144.00
40.5224 1107.00
40.5876 1075.00
40.6528 1152.00
40.718 1157.00
40.7832 1148.00
40.8484 1208.00
40.9136 1247.00
40.9788 1213.00
41.044 1282.00
41.1092 1292.00
41.1744 1420.00
41.2396 1693.00
41.3048 1927.00
41.37 1924.00
41.4352 1743.00
41.5004 1596.00
41.5656 1395.00
41.6308 1357.00
41.696 1437.00
41.7612 1469.00
41.8264 1345.00
41.8916 1297.00
41.9568 1333.00
42.022 1287.00
42.0872 1253.00
42.1524 1182.00
42.2176 1064.00
42.2828 1095.00
42.348 1101.00
42.4132 1108.00
42.4784 1041.00
42.5436 1020.00
42.6088 1093.00
42.6739 1065.00
42.7392 1052.00
42.8043 1031.00
42.8695 1072.00
42.9347 1052.00
42.9999 1045.00
43.0651 1018.00
43.1303 1085.00
43.1955 1110.00
43.2607 1082.00
43.3259 1048.00
43.3911 1073.00
43.4563 970.00
43.5215 1001.00
43.5867 1015.00
43.6519 978.00
43.7171 1001.00
43.7823 995.00
43.8475 970.00
43.9127 954.00
43.9779 1010.00
44.0431 1026.00
44.1083 1011.00
44.1735 1010.00
44.2387 991.00
44.3039 996.00
44.3691 953.00
44.4343 1007.00
44.4995 996.00
44.5647 1046.00
44.6299 1068.00
44.6951 1012.00
44.7603 1006.00
44.8255 1060.00
44.8907 1041.00
44.9559 1083.00
45.0211 1146.00
45.0863 1100.00
45.1515 1127.00
45.2167 1130.00
45.2819 1148.00
45.3471 1243.00
45.4123 1313.00
45.4775 1362.00
45.5427 1305.00
45.6079 1219.00
45.6731 1154.00
45.7383 1076.00
45.8035 1118.00
45.8687 1166.00
45.9339 1110.00
45.9991 1240.00
46.0643 1440.00
46.1295 1421.00
46.1947 1402.00
46.2599 1217.00
46.3251 1152.00
46.3903 1082.00
46.4555 1093.00
46.5207 1088.00
46.5859 1078.00
46.6511 1024.00
46.7163 1047.00
46.7815 1074.00
46.8467 1072.00
46.9119 1099.00
46.9771 1110.00
47.0423 1079.00
47.1075 1034.00
47.1727 1016.00
47.2379 1070.00
47.3031 1028.00
47.3683 1022.00
47.4335 1060.00
47.4986 1060.00
47.5639 1045.00
47.629 989.00
47.6942 988.00
47.7594 975.00
47.8246 1014.00
47.8898 1022.00
47.955 1047.00
48.0202 944.00
48.0854 994.00
48.1506 1000.00
48.2158 949.00
48.281 1006.00
48.3462 1004.00
48.4114 1121.00
48.4766 1041.00
48.5418 1038.00
48.607 1026.00
48.6722 950.00
48.7374 1020.00
48.8026 1007.00
48.8678 960.00
48.933 970.00
48.9982 1003.00
49.0634 1023.00
49.1286 958.00
49.1938 1059.00
49.259 1062.00
49.3242 1136.00
49.3894 1188.00
49.4546 1161.00
49.5198 1255.00
49.585 1284.00
49.6502 1275.00
49.7154 1436.00
49.7806 1648.00
49.8458 1995.00
49.911 2153.00
49.9762 1909.00
50.0414 1768.00
50.1066 1407.00
50.1718 1272.00
50.237 1244.00
50.3022 1235.00
50.3674 1331.00
50.4326 1302.00
50.4978 1421.00
50.563 1498.00
50.6282 1632.00
50.6934 2109.00
50.7586 2812.00
50.8238 2431.00
50.889 2223.00
50.9542 1866.00
51.0194 1577.00
51.0846 1539.00
51.1498 1706.00
51.215 1819.00
51.2802 1578.00
51.3454 1476.00
51.4106 1281.00
51.4758 1199.00
51.541 1106.00
51.6062 1112.00
51.6714 1127.00
51.7366 1193.00
51.8018 1246.00
51.867 1228.00
51.9322 1176.00
51.9974 1164.00
52.0626 1054.00
52.1278 1042.00
52.193 991.00
52.2582 966.00
52.3233 955.00
52.3886 1000.00
52.4537 960.00
52.5189 936.00
52.5841 952.00
52.6493 944.00
52.7145 936.00
52.7797 985.00
52.8449 937.00
52.9101 933.00
52.9753 995.00
53.0405 990.00
53.1057 961.00
53.1709 954.00
53.2361 973.00
53.3013 881.00
53.3665 972.00
53.4317 924.00
53.4969 988.00
53.5621 985.00
53.6273 946.00
53.6925 963.00
53.7577 945.00
53.8229 931.00
53.8881 941.00
53.9533 933.00
54.0185 900.00
54.0837 963.00
54.1489 959.00
54.2141 975.00
54.2793 975.00
54.3445 986.00
54.4097 1049.00
54.4749 1171.00
54.5401 1158.00
54.6053 1161.00
54.6705 1385.00
54.7357 1572.00
54.8009 1607.00
54.8661 1553.00
54.9313 1376.00
54.9965 1326.00
55.0617 1146.00
55.1269 1087.00
55.1921 1084.00
55.2573 1015.00
55.3225 1142.00
55.3877 1090.00
55.4529 1114.00
55.5181 1037.00
55.5833 1138.00
55.6485 1176.00
55.7137 1145.00
55.7789 1232.00
55.8441 1323.00
55.9093 1508.00
55.9745 1719.00
56.0397 1914.00
56.1049 1838.00
56.1701 1834.00
56.2353 1785.00
56.3005 1537.00
56.3657 1412.00
56.4309 1330.00
56.4961 1480.00
56.5613 1563.00
56.6265 1444.00
56.6917 1486.00
56.7569 1333.00
56.8221 1146.00
56.8873 1058.00
56.9525 1010.00
57.0177 1062.00
57.0829 978.00
57.148 1052.00
57.2132 1012.00
57.2784 962.00
57.3436 1052.00
57.4088 1046.00
57.474 1068.00
57.5392 1075.00
57.6044 1076.00
57.6696 1116.00
57.7348 1216.00
57.8 1395.00
57.8652 1405.00
57.9304 1285.00
57.9956 1309.00
58.0608 1229.00
58.126 1110.00
58.1912 1125.00
58.2564 1042.00
58.3216 1089.00
58.3868 1185.00
58.452 1146.00
58.5172 1297.00
58.5824 1423.00
58.6476 1268.00
58.7128 1320.00
58.778 1174.00
58.8432 1195.00
58.9084 1166.00
58.9736 1204.00
59.0388 1134.00
59.104 1071.00
59.1692 1060.00
59.2344 988.00
59.2996 1025.00
59.3648 946.00
59.43 977.00
59.4952 972.00
59.5604 982.00
59.6256 978.00
59.6908 989.00
59.756 938.00
59.8212 927.00
59.8864 1009.00
59.9516 986.00
60.0168 1026.00
60.082 1043.00
60.1472 1058.00
60.2124 1069.00
60.2776 1121.00
60.3428 1204.00
60.408 1277.00
60.4732 1524.00
60.5384 1499.00
60.6036 1440.00
60.6688 1527.00
60.734 1539.00
60.7992 1321.00
60.8644 1238.00
60.9296 1195.00
60.9948 1110.00
61.06 977.00
61.1252 993.00
61.1904 988.00
61.2556 996.00
61.3208 1003.00
61.386 961.00
61.4512 954.00
61.5164 981.00
61.5816 1011.00
61.6468 1019.00
61.712 1115.00
61.7772 1028.00
61.8424 1076.00
61.9076 1145.00
61.9727 1165.00
62.0379 1340.00
62.1031 1279.00
62.1683 1327.00
62.2335 1239.00
62.2987 1191.00
62.3639 1236.00
62.4291 1182.00
62.4943 1162.00
62.5595 1325.00
62.6247 1387.00
62.6899 1401.00
62.7551 1308.00
62.8203 1219.00
62.8855 1130.00
62.9507 1085.00
63.0159 1067.00
63.0811 1052.00
63.1463 1066.00
63.2115 1083.00
63.2767 1101.00
63.3419 1126.00
63.4071 1099.00
63.4723 1319.00
63.5375 1452.00
63.6027 1376.00
63.6679 1379.00
63.7331 1258.00
63.7983 1181.00
63.8635 1174.00
63.9287 1036.00
63.9939 1003.00
64.0591 975.00
64.1243 981.00
64.1895 1022.00
64.2547 924.00
64.3199 934.00
64.3851 977.00
64.4503 888.00
64.5155 998.00
64.5807 970.00
64.6459 1005.00
64.7111 956.00
64.7763 1000.00
64.8415 1021.00
64.9067 1111.00
64.9719 1086.00
65.0371 1133.00
65.1023 1066.00
65.1675 999.00
65.2327 923.00
65.2979 949.00
65.3631 933.00
65.4283 913.00
65.4935 919.00
65.5587 930.00
65.6239 933.00
65.6891 977.00
65.7543 972.00
65.8195 1010.00
65.8847 1024.00
65.9499 1033.00
66.0151 1133.00
66.0803 1195.00
66.1455 1215.00
66.2107 1179.00
66.2759 1158.00
66.3411 1275.00
66.4063 1348.00
66.4715 1353.00
66.5367 1345.00
66.6019 1249.00
66.6671 1283.00
66.7322 1087.00
66.7974 1033.00
66.8626 975.00
66.9278 955.00
66.993 924.00
67.0582 902.00
67.1234 851.00
67.1886 916.00
67.2538 932.00
67.319 915.00
67.3842 892.00
67.4494 936.00
67.5146 911.00
67.5798 899.00
67.645 867.00
67.7102 883.00
67.7754 874.00
67.8406 924.00
67.9058 857.00
67.971 930.00
68.0362 897.00
68.1014 922.00
68.1666 861.00
68.2318 853.00
68.297 854.00
68.3622 845.00
68.4274 904.00
68.4926 900.00
68.5578 923.00
68.623 856.00
68.6882 925.00
68.7534 878.00
68.8186 900.00
68.8838 915.00
68.949 854.00
69.0142 949.00
69.0794 894.00
69.1446 936.00
69.2098 945.00
69.275 923.00
69.3402 909.00
69.4054 874.00
69.4706 928.00
69.5358 969.00
69.601 1049.00
69.6662 1054.00
69.7314 1025.00
69.7966 1019.00
69.8618 968.00
69.927 919.00
69.9922 950.00
70.0574 960.00
70.1226 929.00
70.1878 937.00
70.253 917.00
70.3182 921.00
70.3834 931.00
70.4486 942.00
70.5138 943.00
70.579 857.00
70.6442 889.00
70.7094 898.00
70.7746 931.00
70.8398 929.00
70.905 878.00
70.9702 927.00
71.0354 929.00
71.1006 909.00
71.1658 893.00
71.231 854.00
71.2962 863.00
71.3614 993.00
71.4266 954.00
71.4918 957.00
71.5569 980.00
71.6221 964.00
71.6873 1064.00
71.7525 1176.00
71.8177 1229.00
71.8829 1196.00
71.9481 1166.00
72.0133 1214.00
72.0785 1207.00
72.1437 1056.00
72.2089 1035.00
72.2741 1002.00
72.3393 971.00
72.4045 962.00
72.4697 910.00
72.5349 980.00
72.6001 923.00
72.6653 1014.00
72.7305 1019.00
72.7957 949.00
72.8609 984.00
72.9261 1010.00
72.9913 1046.00
73.0565 1014.00
73.1217 989.00
73.1869 979.00
73.2521 1027.00
73.3173 981.00
73.3825 973.00
73.4477 1054.00
73.5129 1013.00
73.5781 971.00
73.6433 962.00
73.7085 913.00
73.7737 928.00
73.8389 908.00
73.9041 939.00
73.9693 899.00
74.0345 903.00
74.0997 859.00
74.1649 915.00
74.2301 869.00
74.2953 933.00
74.3605 900.00
74.4257 875.00
74.4909 872.00
74.5561 901.00
74.6213 868.00
74.6865 838.00
74.7517 874.00
74.8169 836.00
74.8821 931.00
74.9473 891.00
75.0125 948.00
75.0777 931.00
75.1429 890.00
75.2081 976.00
75.2733 925.00
75.3385 920.00
75.4037 975.00
75.4689 1048.00
75.5341 1060.00
75.5993 1014.00
75.6645 999.00
75.7297 1070.00
75.7949 1078.00
75.8601 1184.00
75.9253 1152.00
75.9905 1124.00
76.0557 1098.00
76.1209 1011.00
76.186 967.00
76.2513 949.00
76.3165 921.00
76.3816 928.00
76.4468 943.00
76.512 883.00
76.5772 882.00
76.6424 872.00
76.7076 905.00
76.7728 953.00
76.838 933.00
76.9032 961.00
76.9684 935.00
77.0336 1016.00
77.0988 990.00
77.164 1038.00
77.2292 1037.00
77.2944 1014.00
77.3596 1024.00
77.4248 966.00
77.49 1020.00
77.5552 904.00
77.6204 896.00
77.6856 946.00
77.7508 942.00
77.816 957.00
77.8812 911.00
77.9464 904.00
78.0116 1034.00
78.0768 924.00
78.142 1037.00
78.2072 1016.00
78.2724 996.00
78.3376 1000.00
78.4028 996.00
78.468 966.00
78.5332 930.00
78.5984 984.00
78.6636 971.00
78.7288 925.00
78.794 1001.00
78.8592 952.00
78.9244 1011.00
78.9896 924.00
79.0548 1017.00
79.12 979.00
79.1852 908.00
79.2504 936.00
79.3156 932.00
79.3808 968.00
79.446 997.00
79.5112 976.00
79.5764 1015.00
79.6416 976.00
79.7068 1141.00
79.772 1068.00
79.8372 1028.00
79.9024 1036.00
79.9676 988.00
80.0328 955.00
80.098 897.00
80.1632 885.00
80.2284 908.00
80.2936 880.00
80.3588 916.00
80.424 926.00
80.4892 879.00
80.5544 862.00
80.6196 933.00
80.6848 891.00
80.75 898.00
80.8152 900.00
80.8804 876.00
80.9456 872.00
81.0108 982.00
81.076 951.00
81.1412 912.00
81.2063 956.00
81.2715 873.00
81.3367 948.00
81.4019 917.00
81.4671 950.00
81.5323 878.00
81.5975 934.00
81.6627 908.00
81.7279 961.00
81.7931 984.00
81.8583 938.00
81.9235 974.00
81.9887 937.00
82.0539 924.00
82.1191 977.00
82.1843 1002.00
82.2495 964.00
82.3147 1005.00
82.3799 1067.00
82.4451 1086.00
82.5103 1032.00
82.5755 1001.00
82.6407 1040.00
82.7059 954.00
82.7711 962.00
82.8363 923.00
82.9015 943.00
82.9667 956.00
83.0319 953.00
83.0971 950.00
83.1623 955.00
83.2275 951.00
83.2927 991.00
83.3579 994.00
83.4231 1055.00
83.4883 1034.00
83.5535 1001.00
83.6187 1049.00
83.6839 1065.00
83.7491 1020.00
83.8143 1050.00
83.8795 1013.00
83.9447 1125.00
84.0099 1084.00
84.0751 1115.00
84.1403 1068.00
84.2055 1118.00
84.2707 996.00
84.3359 1014.00
84.4011 1071.00
84.4663 1005.00
84.5315 1004.00
84.5967 1042.00
84.6619 1037.00
84.7271 1074.00
84.7923 1022.00
84.8575 1047.00
84.9227 1113.00
84.9879 1091.00
85.0531 1127.00
85.1183 1079.00
85.1835 992.00
85.2487 1002.00
85.3139 998.00
85.3791 980.00
85.4443 1004.00
85.5095 938.00
85.5747 988.00
85.6399 941.00
85.7051 1015.00
85.7703 1013.00
85.8354 1033.00
85.9006 991.00
85.9659 998.00
86.031 927.00
86.0962 925.00
86.1614 931.00
86.2266 919.00
86.2918 927.00
86.357 908.00
86.4222 1005.00
86.4874 888.00
86.5526 942.00
86.6178 978.00
86.683 938.00
86.7482 958.00
86.8134 965.00
86.8786 1020.00
86.9438 993.00
87.009 1034.00
87.0742 1007.00
87.1394 961.00
87.2046 1012.00
87.2698 981.00
87.335 935.00
87.4002 906.00
87.4654 926.00
87.5306 971.00
87.5958 939.00
87.661 908.00
87.7262 927.00
87.7914 878.00
87.8566 899.00
87.9218 984.00
87.987 999.00
88.0522 992.00
88.1174 944.00
88.1826 1012.00
88.2478 1025.00
88.313 1011.00
88.3782 1062.00
88.4434 997.00
88.5086 961.00
88.5738 1020.00
88.639 1066.00
88.7042 967.00
88.7694 981.00
88.8346 1000.00
88.8998 985.00
88.965 1076.00
89.0302 1108.00
89.0954 1058.00
89.1606 1073.00
89.2258 1087.00
89.291 1094.00
89.3562 1166.00
89.4214 1098.00
89.4866 1129.00
89.5518 1089.00
89.617 1068.00
89.6822 1041.00
89.7474 1013.00
89.8126 1015.00
89.8778 1050.00
89.943 988.00
90.0082 983.00
90.0734 999.00
90.1386 956.00
90.2038 1050.00
90.269 1016.00
90.3342 1070.00
90.3994 971.00
90.4646 1082.00
90.5298 1080.00
90.595 1087.00
90.6601 1108.00
90.7253 1058.00
90.7905 1101.00
90.8557 1016.00
90.9209 1053.00
90.9861 1118.00
91.0513 1025.00
91.1165 992.00
91.1817 1010.00
91.2469 999.00
91.3121 956.00
91.3773 956.00
91.4425 979.00
91.5077 911.00
91.5729 1010.00
91.6381 950.00
91.7033 951.00
91.7685 937.00
91.8337 977.00
91.8989 1009.00
91.9641 970.00
92.0293 1002.00
92.0945 978.00
92.1597 969.00
92.2249 1031.00
92.2901 1016.00
92.3553 970.00
92.4205 960.00
92.4857 1001.00
92.5509 1004.00
92.6161 951.00
92.6813 974.00
92.7465 946.00
92.8117 942.00
92.8769 918.00
92.9421 948.00
93.0073 913.00
93.0725 903.00
93.1377 978.00
93.2029 894.00
93.2681 912.00
93.3333 893.00
93.3985 966.00
93.4637 905.00
93.5289 897.00
93.5941 934.00
93.6593 895.00
93.7245 927.00
93.7897 963.00
93.8549 923.00
93.9201 952.00
93.9853 987.00
94.0505 921.00
94.1157 916.00
94.1809 964.00
94.2461 963.00
94.3113 979.00
94.3765 1006.00
94.4417 941.00
94.5069 997.00
94.5721 963.00
94.6373 977.00
94.7025 957.00
94.7677 1042.00
94.8329 1059.00
94.8981 1025.00
94.9633 1030.00
95.0285 1022.00
95.0937 1007.00
95.1589 1007.00
95.2241 965.00
95.2893 960.00
95.3545 1034.00
95.4197 954.00
95.4848 996.00
95.55 1002.00
95.6153 1031.00
95.6804 1049.00
95.7456 1088.00
95.8108 1032.00
95.876 1066.00
95.9412 1077.00
96.0064 1091.00
96.0716 1112.00
96.1368 1124.00
96.202 1066.00
96.2672 1044.00
96.3324 1088.00
96.3976 1008.00
96.4628 1045.00
96.528 1040.00
96.5932 982.00
96.6584 1073.00
96.7236 979.00
96.7888 996.00
96.854 1070.00
96.9192 1040.00
96.9844 1083.00
97.0496 1056.00
97.1148 1187.00
97.18 1151.00
97.2452 1104.00
97.3104 1116.00
97.3756 1220.00
97.4408 1186.00
97.506 1128.00
97.5712 1192.00
97.6364 1185.00
97.7016 1117.00
97.7668 1173.00
97.832 1268.00
97.8972 1193.00
97.9624 1308.00
98.0276 1146.00
98.0928 1076.00
98.158 1095.00
98.2232 1144.00
98.2884 1036.00
98.3536 1092.00
98.4188 1104.00
98.484 1014.00
98.5492 1005.00
98.6144 1055.00
98.6796 983.00
98.7448 1016.00
98.81 1026.00
98.8752 1064.00
98.9404 1100.00
99.0056 1101.00
99.0708 1078.00
99.136 1076.00
99.2012 1126.00
99.2664 1102.00
99.3316 1079.00
99.3968 1096.00
99.462 1121.00
99.5272 1116.00
99.5924 1079.00
99.6576 1113.00
99.7228 1079.00
99.788 1079.00
99.8532 1105.00
99.9184 1116.00
99.9836 1140.00
99.9944 1112.00