File: data/xrd_creation/results/PG_1934-1.xy
9.903433 2591.00
9.968632 2575.00
10.0338 2595.00
10.099 2531.00
10.1642 2491.00
10.2294 2391.00
10.2946 2426.00
10.3598 2336.00
10.425 2425.00
10.4902 2448.00
10.5554 2407.00
10.6206 2371.00
10.6858 2334.00
10.751 2322.00
10.8162 2170.00
10.8814 2195.00
10.9466 2098.00
11.0118 2286.00
11.077 2147.00
11.1422 2149.00
11.2074 2159.00
11.2726 2094.00
11.3378 2214.00
11.403 2002.00
11.4682 2077.00
11.5334 2063.00
11.5986 2049.00
11.6638 2000.00
11.729 1948.00
11.7942 1917.00
11.8594 1922.00
11.9246 1916.00
11.9898 1871.00
12.055 1841.00
12.1202 1897.00
12.1854 1918.00
12.2506 1878.00
12.3158 1833.00
12.381 1784.00
12.4462 1746.00
12.5114 1735.00
12.5766 1716.00
12.6418 1726.00
12.707 1731.00
12.7722 1697.00
12.8374 1717.00
12.9026 1684.00
12.9678 1624.00
13.033 1663.00
13.0982 1617.00
13.1634 1720.00
13.2286 1634.00
13.2938 1582.00
13.359 1575.00
13.4242 1657.00
13.4894 1609.00
13.5546 1600.00
13.6198 1533.00
13.685 1511.00
13.7502 1629.00
13.8154 1551.00
13.8805 1432.00
13.9457 1513.00
14.0109 1471.00
14.0761 1390.00
14.1413 1518.00
14.2065 1489.00
14.2717 1443.00
14.3369 1451.00
14.4021 1377.00
14.4673 1446.00
14.5325 1499.00
14.5977 1486.00
14.6629 1368.00
14.7281 1418.00
14.7933 1424.00
14.8585 1421.00
14.9237 1291.00
14.9889 1348.00
15.0541 1344.00
15.1193 1380.00
15.1845 1375.00
15.2497 1345.00
15.3149 1372.00
15.3801 1368.00
15.4453 1406.00
15.5105 1373.00
15.5757 1313.00
15.6409 1321.00
15.7061 1344.00
15.7713 1316.00
15.8365 1366.00
15.9017 1316.00
15.9669 1350.00
16.0321 1308.00
16.0973 1271.00
16.1625 1303.00
16.2277 1346.00
16.2929 1269.00
16.3581 1277.00
16.4233 1239.00
16.4885 1284.00
16.5537 1253.00
16.6189 1250.00
16.6841 1328.00
16.7493 1231.00
16.8145 1185.00
16.8797 1249.00
16.9449 1219.00
17.0101 1214.00
17.0753 1245.00
17.1405 1161.00
17.2057 1154.00
17.2709 1189.00
17.3361 1134.00
17.4013 1196.00
17.4665 1136.00
17.5317 1139.00
17.5969 1170.00
17.6621 1111.00
17.7273 1186.00
17.7925 1119.00
17.8577 1183.00
17.9229 1158.00
17.9881 1184.00
18.0533 1109.00
18.1185 1189.00
18.1837 1085.00
18.2489 1156.00
18.3141 1134.00
18.3793 1088.00
18.4445 1084.00
18.5097 1091.00
18.5749 1122.00
18.6401 1114.00
18.7052 1062.00
18.7704 1094.00
18.8356 1062.00
18.9008 1027.00
18.966 1037.00
19.0312 1009.00
19.0964 1065.00
19.1616 1024.00
19.2268 1075.00
19.292 999.00
19.3572 1022.00
19.4224 978.00
19.4876 1003.00
19.5528 993.00
19.618 1009.00
19.6832 1023.00
19.7484 922.00
19.8136 993.00
19.8788 997.00
19.944 977.00
20.0092 916.00
20.0744 946.00
20.1396 958.00
20.2048 973.00
20.27 1005.00
20.3352 999.00
20.4004 960.00
20.4656 976.00
20.5308 972.00
20.596 976.00
20.6612 973.00
20.7264 960.00
20.7916 936.00
20.8568 912.00
20.922 896.00
20.9872 945.00
21.0524 872.00
21.1176 991.00
21.1828 946.00
21.248 874.00
21.3132 846.00
21.3784 942.00
21.4436 899.00
21.5088 932.00
21.574 882.00
21.6392 947.00
21.7044 896.00
21.7696 892.00
21.8348 954.00
21.9 887.00
21.9652 919.00
22.0304 945.00
22.0956 839.00
22.1608 851.00
22.226 909.00
22.2912 865.00
22.3564 903.00
22.4216 849.00
22.4868 853.00
22.552 847.00
22.6172 860.00
22.6824 852.00
22.7476 837.00
22.8128 823.00
22.878 856.00
22.9432 860.00
23.0084 877.00
23.0736 840.00
23.1388 848.00
23.204 862.00
23.2692 859.00
23.3344 799.00
23.3996 843.00
23.4647 829.00
23.5299 810.00
23.5951 806.00
23.6603 779.00
23.7255 780.00
23.7907 764.00
23.8559 806.00
23.9211 804.00
23.9863 850.00
24.0515 799.00
24.1167 852.00
24.1819 816.00
24.2471 835.00
24.3123 795.00
24.3775 748.00
24.4427 795.00
24.5079 804.00
24.5731 846.00
24.6383 751.00
24.7035 760.00
24.7687 780.00
24.8339 789.00
24.8991 743.00
24.9643 782.00
25.0295 789.00
25.0947 801.00
25.1599 826.00
25.2251 819.00
25.2903 797.00
25.3555 781.00
25.4207 810.00
25.4859 808.00
25.5511 734.00
25.6163 738.00
25.6815 744.00
25.7467 721.00
25.8119 778.00
25.8771 759.00
25.9423 733.00
26.0075 751.00
26.0727 768.00
26.1379 751.00
26.2031 769.00
26.2683 814.00
26.3335 825.00
26.3987 980.00
26.4639 1036.00
26.5291 840.00
26.5943 781.00
26.6595 766.00
26.7247 683.00
26.7899 656.00
26.8551 679.00
26.9203 687.00
26.9855 702.00
27.0507 665.00
27.1159 737.00
27.1811 750.00
27.2463 627.00
27.3115 728.00
27.3767 694.00
27.4419 713.00
27.5071 742.00
27.5723 697.00
27.6375 735.00
27.7027 715.00
27.7679 735.00
27.8331 743.00
27.8983 724.00
27.9635 790.00
28.0287 738.00
28.0939 796.00
28.1591 771.00
28.2243 835.00
28.2894 907.00
28.3546 726.00
28.4198 689.00
28.485 728.00
28.5502 684.00
28.6154 654.00
28.6806 611.00
28.7458 708.00
28.811 639.00
28.8762 657.00
28.9414 663.00
29.0066 685.00
29.0718 726.00
29.137 644.00
29.2022 678.00
29.2674 686.00
29.3326 679.00
29.3978 627.00
29.463 592.00
29.5282 621.00
29.5934 658.00
29.6586 637.00
29.7238 617.00
29.789 626.00
29.8542 670.00
29.9194 661.00
29.9846 676.00
30.0498 678.00
30.115 677.00
30.1802 662.00
30.2454 667.00
30.3106 666.00
30.3758 652.00
30.441 638.00
30.5062 671.00
30.5714 618.00
30.6366 568.00
30.7018 575.00
30.767 600.00
30.8322 558.00
30.8974 593.00
30.9626 616.00
31.0278 598.00
31.093 582.00
31.1582 647.00
31.2234 591.00
31.2886 667.00
31.3538 644.00
31.419 562.00
31.4842 655.00
31.5494 607.00
31.6146 571.00
31.6798 587.00
31.745 582.00
31.8102 549.00
31.8754 562.00
31.9406 553.00
32.0058 570.00
32.071 529.00
32.1362 570.00
32.2014 550.00
32.2666 544.00
32.3318 602.00
32.397 544.00
32.4622 545.00
32.5274 497.00
32.5926 583.00
32.6578 539.00
32.723 565.00
32.7882 570.00
32.8534 547.00
32.9186 549.00
32.9838 549.00
33.0489 545.00
33.1141 514.00
33.1793 546.00
33.2445 612.00
33.3097 616.00
33.3749 627.00
33.4401 670.00
33.5053 696.00
33.5705 636.00
33.6357 621.00
33.7009 579.00
33.7661 543.00
33.8313 523.00
33.8965 583.00
33.9617 537.00
34.0269 563.00
34.0921 535.00
34.1573 489.00
34.2225 535.00
34.2877 468.00
34.3529 511.00
34.4181 465.00
34.4833 516.00
34.5485 485.00
34.6137 500.00
34.6789 480.00
34.7441 499.00
34.8093 470.00
34.8745 452.00
34.9397 464.00
35.0049 492.00
35.0701 482.00
35.1353 475.00
35.2005 507.00
35.2657 525.00
35.3309 503.00
35.3961 546.00
35.4613 514.00
35.5265 473.00
35.5917 496.00
35.6569 492.00
35.7221 476.00
35.7873 488.00
35.8525 462.00
35.9177 478.00
35.9829 463.00
36.0481 475.00
36.1133 425.00
36.1785 477.00
36.2437 435.00
36.3089 474.00
36.3741 457.00
36.4393 454.00
36.5045 493.00
36.5697 467.00
36.6349 426.00
36.7001 444.00
36.7653 462.00
36.8305 447.00
36.8957 417.00
36.9609 454.00
37.0261 466.00
37.0913 447.00
37.1565 430.00
37.2217 441.00
37.2869 449.00
37.3521 459.00
37.4173 420.00
37.4825 488.00
37.5477 401.00
37.6129 457.00
37.6781 410.00
37.7433 470.00
37.8085 462.00
37.8736 442.00
37.9388 428.00
38.004 411.00
38.0692 427.00
38.1344 461.00
38.1996 427.00
38.2648 427.00
38.33 429.00
38.3952 409.00
38.4604 440.00
38.5256 417.00
38.5908 467.00
38.656 390.00
38.7212 430.00
38.7864 436.00
38.8516 392.00
38.9168 403.00
38.982 413.00
39.0472 427.00
39.1124 402.00
39.1776 396.00
39.2428 408.00
39.308 397.00
39.3732 413.00
39.4384 401.00
39.5036 379.00
39.5688 388.00
39.634 396.00
39.6992 367.00
39.7644 417.00
39.8296 389.00
39.8948 426.00
39.96 397.00
40.0252 427.00
40.0904 387.00
40.1556 374.00
40.2208 383.00
40.286 363.00
40.3512 357.00
40.4164 349.00
40.4816 356.00
40.5468 384.00
40.612 388.00
40.6772 385.00
40.7424 394.00
40.8076 355.00
40.8728 372.00
40.938 369.00
41.0032 351.00
41.0684 360.00
41.1336 398.00
41.1988 376.00
41.264 359.00
41.3292 349.00
41.3944 365.00
41.4596 377.00
41.5248 369.00
41.59 353.00
41.6552 362.00
41.7204 371.00
41.7856 400.00
41.8508 394.00
41.916 392.00
41.9812 378.00
42.0464 345.00
42.1116 401.00
42.1768 393.00
42.242 385.00
42.3072 355.00
42.3724 342.00
42.4376 391.00
42.5028 398.00
42.568 386.00
42.6332 359.00
42.6983 407.00
42.7635 391.00
42.8287 393.00
42.8939 388.00
42.9591 426.00
43.0243 382.00
43.0895 362.00
43.1547 394.00
43.2199 373.00
43.2851 333.00
43.3503 351.00
43.4155 385.00
43.4807 410.00
43.5459 385.00
43.6111 382.00
43.6763 393.00
43.7415 396.00
43.8067 365.00
43.8719 365.00
43.9371 352.00
44.0023 365.00
44.0675 368.00
44.1327 347.00
44.1979 364.00
44.2631 342.00
44.3283 409.00
44.3935 391.00
44.4587 389.00
44.5239 356.00
44.5891 352.00
44.6543 362.00
44.7195 351.00
44.7847 338.00
44.8499 326.00
44.9151 356.00
44.9803 305.00
45.0455 340.00
45.1107 360.00
45.1759 359.00
45.2411 350.00
45.3063 346.00
45.3715 332.00
45.4367 326.00
45.5019 344.00
45.5671 319.00
45.6323 342.00
45.6975 333.00
45.7627 321.00
45.8279 346.00
45.8931 324.00
45.9583 353.00
46.0235 363.00
46.0887 316.00
46.1539 333.00
46.2191 342.00
46.2843 338.00
46.3495 334.00
46.4147 313.00
46.4799 335.00
46.5451 326.00
46.6103 306.00
46.6755 328.00
46.7407 362.00
46.8059 321.00
46.8711 315.00
46.9363 319.00
47.0015 301.00
47.0667 365.00
47.1319 358.00
47.1971 367.00
47.2623 306.00
47.3275 336.00
47.3927 308.00
47.4579 358.00
47.523 340.00
47.5882 336.00
47.6534 314.00
47.7186 351.00
47.7838 326.00
47.849 309.00
47.9142 324.00
47.9794 336.00
48.0446 355.00
48.1098 334.00
48.175 320.00
48.2402 277.00
48.3054 326.00
48.3706 306.00
48.4358 337.00
48.501 327.00
48.5662 315.00
48.6314 337.00
48.6966 341.00
48.7618 330.00
48.827 347.00
48.8922 341.00
48.9574 335.00
49.0226 324.00
49.0878 316.00
49.153 322.00
49.2182 318.00
49.2834 354.00
49.3486 347.00
49.4138 313.00
49.479 309.00
49.5442 317.00
49.6094 307.00
49.6746 312.00
49.7398 326.00
49.805 272.00
49.8702 329.00
49.9354 318.00
50.0006 316.00
50.0658 301.00
50.131 302.00
50.1962 340.00
50.2614 320.00
50.3266 327.00
50.3918 311.00
50.457 294.00
50.5222 329.00
50.5874 330.00
50.6526 323.00
50.7178 298.00
50.783 321.00
50.8482 323.00
50.9134 322.00
50.9786 299.00
51.0438 335.00
51.109 327.00
51.1742 338.00
51.2394 312.00
51.3046 347.00
51.3698 358.00
51.435 389.00
51.5002 364.00
51.5654 378.00
51.6306 347.00
51.6958 396.00
51.761 323.00
51.8262 344.00
51.8914 320.00
51.9566 290.00
52.0218 267.00
52.087 301.00
52.1522 278.00
52.2174 308.00
52.2826 330.00
52.3477 297.00
52.4129 270.00
52.4781 297.00
52.5433 296.00
52.6085 312.00
52.6737 293.00
52.7389 301.00
52.8041 272.00
52.8693 274.00
52.9345 282.00
52.9997 261.00
53.0649 269.00
53.1301 266.00
53.1953 286.00
53.2605 260.00
53.3257 305.00
53.3909 267.00
53.4561 277.00
53.5213 290.00
53.5865 328.00
53.6517 298.00
53.7169 315.00
53.7821 268.00
53.8473 326.00
53.9125 263.00
53.9777 272.00
54.0429 278.00
54.1081 308.00
54.1733 281.00
54.2385 275.00
54.3037 273.00
54.3689 277.00
54.4341 273.00
54.4993 289.00
54.5645 266.00
54.6297 304.00
54.6949 296.00
54.7601 284.00
54.8253 243.00
54.8905 244.00
54.9557 277.00
55.0209 271.00
55.0861 297.00
55.1513 286.00
55.2165 281.00
55.2817 283.00
55.3469 306.00
55.4121 292.00
55.4773 242.00
55.5425 274.00
55.6077 316.00
55.6729 232.00
55.7381 258.00
55.8033 272.00
55.8685 242.00
55.9337 282.00
55.9989 239.00
56.0641 274.00
56.1293 246.00
56.1945 273.00
56.2597 276.00
56.3249 263.00
56.3901 234.00
56.4553 235.00
56.5205 284.00
56.5857 258.00
56.6509 250.00
56.7161 265.00
56.7813 263.00
56.8465 273.00
56.9117 259.00
56.9769 259.00
57.042 270.00
57.1073 291.00
57.1724 282.00
57.2376 272.00
57.3028 256.00
57.368 294.00
57.4332 229.00
57.4984 261.00
57.5636 241.00
57.6288 261.00
57.694 258.00
57.7592 257.00
57.8244 256.00
57.8896 237.00
57.9548 241.00
58.02 245.00
58.0852 224.00
58.1504 240.00
58.2156 259.00
58.2808 259.00
58.346 232.00
58.4112 257.00
58.4764 244.00
58.5416 228.00
58.6068 225.00
58.672 231.00
58.7372 228.00
58.8024 268.00
58.8676 238.00
58.9328 210.00
58.998 238.00
59.0632 237.00
59.1284 233.00
59.1936 223.00
59.2588 230.00
59.324 243.00
59.3892 216.00
59.4544 282.00
59.5196 221.00
59.5848 229.00
59.65 243.00
59.7152 218.00
59.7804 242.00
59.8456 238.00
59.9108 234.00
59.976 220.00
60.0412 262.00
60.1064 224.00
60.1716 256.00
60.2368 223.00
60.302 220.00
60.3672 219.00
60.4324 228.00
60.4976 226.00
60.5628 246.00
60.628 225.00
60.6932 221.00
60.7584 234.00
60.8236 208.00
60.8888 222.00
60.954 230.00
61.0192 199.00
61.0844 201.00
61.1496 235.00
61.2148 237.00
61.28 268.00
61.3452 222.00
61.4104 223.00
61.4756 236.00
61.5408 231.00
61.606 209.00
61.6712 257.00
61.7364 227.00
61.8016 209.00
61.8667 232.00
61.932 235.00
61.9971 270.00
62.0623 226.00
62.1275 280.00
62.1927 286.00
62.2579 224.00
62.3231 233.00
62.3883 282.00
62.4535 261.00
62.5187 211.00
62.5839 227.00
62.6491 214.00
62.7143 232.00
62.7795 223.00
62.8447 200.00
62.9099 246.00
62.9751 271.00
63.0403 212.00
63.1055 218.00
63.1707 239.00
63.2359 227.00
63.3011 229.00
63.3663 228.00
63.4315 238.00
63.4967 221.00
63.5619 233.00
63.6271 212.00
63.6923 189.00
63.7575 202.00
63.8227 228.00
63.8879 211.00
63.9531 232.00
64.0183 229.00
64.0835 238.00
64.1487 225.00
64.2139 207.00
64.2791 212.00
64.3443 185.00
64.4095 231.00
64.4747 206.00
64.5399 224.00
64.6051 212.00
64.6703 193.00
64.7355 236.00
64.8007 208.00
64.8659 211.00
64.9311 225.00
64.9963 214.00
65.0615 231.00
65.1267 206.00
65.1919 226.00
65.2571 211.00
65.3223 227.00
65.3875 225.00
65.4527 228.00
65.5179 200.00
65.5831 241.00
65.6483 227.00
65.7135 218.00
65.7787 219.00
65.8439 230.00
65.9091 216.00
65.9743 207.00
66.0395 210.00
66.1047 190.00
66.1699 185.00
66.2351 199.00
66.3003 193.00
66.3655 215.00
66.4307 219.00
66.4959 201.00
66.561 222.00
66.6263 175.00
66.6915 208.00
66.7566 202.00
66.8218 185.00
66.887 214.00
66.9522 236.00
67.0174 199.00
67.0826 236.00
67.1478 216.00
67.213 228.00
67.2782 231.00
67.3434 207.00
67.4086 223.00
67.4738 202.00
67.539 189.00
67.6042 209.00
67.6694 176.00
67.7346 228.00
67.7998 210.00
67.865 200.00
67.9302 208.00
67.9954 211.00
68.0606 220.00
68.1258 224.00
68.191 202.00
68.2562 211.00
68.3214 206.00
68.3866 205.00
68.4518 192.00
68.517 204.00
68.5822 218.00
68.6474 232.00
68.7126 199.00
68.7778 200.00
68.843 211.00
68.9082 207.00
68.9734 212.00
69.0386 217.00
69.1038 186.00
69.169 206.00
69.2342 208.00
69.2994 216.00
69.3646 219.00
69.4298 190.00
69.495 192.00
69.5602 186.00
69.6254 191.00
69.6906 212.00
69.7558 209.00
69.821 186.00
69.8862 217.00
69.9514 205.00
70.0166 223.00
70.0818 234.00
70.147 203.00
70.2122 213.00
70.2774 203.00
70.3426 216.00
70.4078 196.00
70.473 228.00
70.5382 216.00
70.6034 242.00
70.6686 217.00
70.7338 203.00
70.799 238.00
70.8642 229.00
70.9294 220.00
70.9946 242.00
71.0598 214.00
71.125 202.00
71.1902 229.00
71.2554 219.00
71.3205 198.00
71.3858 218.00
71.451 216.00
71.5162 186.00
71.5813 200.00
71.6465 177.00
71.7117 203.00
71.7769 201.00
71.8421 208.00
71.9073 194.00
71.9725 195.00
72.0377 216.00
72.1029 204.00
72.1681 246.00
72.2333 221.00
72.2985 230.00
72.3637 237.00
72.4289 207.00
72.4941 246.00
72.5593 206.00
72.6245 210.00
72.6897 204.00
72.7549 241.00
72.8201 221.00
72.8853 223.00
72.9505 189.00
73.0157 203.00
73.0809 221.00
73.1461 211.00
73.2113 236.00
73.2765 229.00
73.3417 233.00
73.4069 205.00
73.4721 197.00
73.5373 222.00
73.6025 231.00
73.6677 221.00
73.7329 215.00
73.7981 233.00
73.8633 202.00
73.9285 183.00
73.9937 201.00
74.0589 213.00
74.1241 206.00
74.1893 206.00
74.2545 205.00
74.3197 223.00
74.3849 222.00
74.4501 223.00
74.5153 215.00
74.5805 196.00
74.6457 227.00
74.7109 206.00
74.7761 199.00
74.8413 205.00
74.9065 238.00
74.9717 221.00
75.0369 211.00
75.1021 198.00
75.1673 225.00
75.2325 198.00
75.2977 226.00
75.3629 193.00
75.4281 216.00
75.4933 242.00
75.5585 225.00
75.6237 240.00
75.6889 249.00
75.7541 231.00
75.8193 209.00
75.8845 222.00
75.9497 228.00
76.0149 230.00
76.0801 229.00
76.1452 250.00
76.2104 232.00
76.2756 234.00
76.3409 238.00
76.406 219.00
76.4712 217.00
76.5364 204.00
76.6016 247.00
76.6668 212.00
76.732 223.00
76.7972 234.00
76.8624 241.00
76.9276 238.00
76.9928 233.00
77.058 241.00
77.1232 239.00
77.1884 216.00
77.2536 222.00
77.3188 247.00
77.384 247.00
77.4492 240.00
77.5144 242.00
77.5796 256.00
77.6448 238.00
77.71 234.00
77.7752 238.00
77.8404 244.00
77.9056 244.00
77.9708 228.00
78.036 242.00
78.1012 221.00
78.1664 228.00
78.2316 222.00
78.2968 243.00
78.362 240.00
78.4272 245.00
78.4924 233.00
78.5576 203.00
78.6228 256.00
78.688 262.00
78.7532 269.00
78.8184 271.00
78.8836 259.00
78.9488 234.00
79.014 235.00
79.0792 243.00
79.1444 247.00
79.2096 269.00
79.2748 279.00
79.34 270.00
79.4052 249.00
79.4704 241.00
79.5356 227.00
79.6008 256.00
79.666 272.00
79.7312 244.00
79.7964 240.00
79.8616 274.00
79.9268 262.00
79.992 246.00
80.0572 248.00
80.1224 238.00
80.1876 273.00
80.2528 229.00
80.318 218.00
80.3832 230.00
80.4484 230.00
80.5136 241.00
80.5788 272.00
80.644 261.00
80.7092 216.00
80.7744 258.00
80.8396 264.00
80.9048 261.00
80.9699 266.00
81.0351 270.00
81.1003 284.00
81.1655 245.00
81.2307 235.00
81.2959 273.00
81.3611 250.00
81.4263 246.00
81.4915 265.00
81.5567 243.00
81.6219 267.00
81.6871 221.00
81.7523 270.00
81.8175 259.00
81.8827 238.00
81.9479 250.00
82.0131 279.00
82.0783 230.00
82.1435 245.00
82.2087 261.00
82.2739 210.00
82.3391 234.00
82.4043 256.00
82.4695 273.00
82.5347 272.00
82.5999 219.00
82.6651 220.00
82.7303 242.00
82.7955 241.00
82.8607 235.00
82.9259 250.00
82.9911 248.00
83.0563 233.00
83.1215 233.00
83.1867 256.00
83.2519 273.00
83.3171 237.00
83.3823 232.00
83.4475 238.00
83.5127 236.00
83.5779 244.00
83.6431 233.00
83.7083 229.00
83.7735 226.00
83.8387 233.00
83.9039 239.00
83.9691 233.00
84.0343 205.00
84.0995 222.00
84.1647 229.00
84.2299 217.00
84.2951 219.00
84.3603 222.00
84.4255 246.00
84.4907 196.00
84.5559 201.00
84.6211 199.00
84.6863 223.00
84.7515 232.00
84.8167 228.00
84.8819 264.00
84.9471 215.00
85.0123 234.00
85.0775 249.00
85.1427 227.00
85.2079 231.00
85.2731 212.00
85.3383 230.00
85.4035 225.00
85.4687 221.00
85.5339 207.00
85.5991 219.00
85.6643 198.00
85.7295 213.00
85.7946 190.00
85.8598 224.00
85.925 211.00
85.9903 201.00
86.0554 188.00
86.1206 216.00
86.1858 231.00
86.251 197.00
86.3162 221.00
86.3814 221.00
86.4466 218.00
86.5118 208.00
86.577 205.00
86.6422 194.00
86.7074 215.00
86.7726 192.00
86.8378 188.00
86.903 212.00
86.9682 224.00
87.0334 210.00
87.0986 207.00
87.1638 234.00
87.229 206.00
87.2942 185.00
87.3594 203.00
87.4246 192.00
87.4898 222.00
87.555 206.00
87.6202 206.00
87.6854 221.00
87.7506 180.00
87.8158 200.00
87.881 227.00
87.9462 191.00
88.0114 221.00
88.0766 209.00
88.1418 213.00
88.207 199.00
88.2722 197.00
88.3374 191.00
88.4026 178.00
88.4678 197.00
88.533 215.00
88.5982 196.00
88.6634 211.00
88.7286 207.00
88.7938 197.00
88.859 230.00
88.9242 222.00
88.9894 217.00
89.0546 176.00
89.1198 229.00
89.185 218.00
89.2502 214.00
89.3154 191.00
89.3806 184.00
89.4458 203.00
89.511 179.00
89.5762 201.00
89.6414 184.00
89.7066 181.00
89.7718 196.00
89.837 183.00
89.9022 195.00
89.9674 203.00
90.0326 190.00
90.0978 209.00
90.163 186.00
90.2282 207.00
90.2934 197.00
90.3586 194.00
90.4238 192.00
90.489 170.00
90.5542 188.00
90.6193 183.00
90.6845 220.00
90.7497 191.00
90.8149 193.00
90.8801 200.00
90.9453 174.00
91.0105 197.00
91.0757 189.00
91.1409 227.00
91.2061 219.00
91.2713 191.00
91.3365 191.00
91.4017 192.00
91.4669 158.00
91.5321 197.00
91.5973 218.00
91.6625 188.00
91.7277 199.00
91.7929 199.00
91.8581 183.00
91.9233 179.00
91.9885 180.00
92.0537 180.00
92.1189 175.00
92.1841 196.00
92.2493 228.00
92.3145 206.00
92.3797 195.00
92.4449 208.00
92.5101 183.00
92.5753 183.00
92.6405 193.00
92.7057 211.00
92.7709 168.00
92.8361 206.00
92.9013 178.00
92.9665 180.00
93.0317 211.00
93.0969 171.00
93.1621 187.00
93.2273 184.00
93.2925 190.00
93.3577 187.00
93.4229 206.00
93.4881 198.00
93.5533 167.00
93.6185 182.00
93.6837 166.00
93.7489 204.00
93.8141 208.00
93.8793 210.00
93.9445 174.00
94.0097 224.00
94.0749 192.00
94.1401 191.00
94.2053 189.00
94.2705 201.00
94.3357 191.00
94.4009 172.00
94.4661 179.00
94.5313 190.00
94.5965 201.00
94.6617 196.00
94.7269 200.00
94.7921 190.00
94.8573 188.00
94.9225 177.00
94.9877 219.00
95.0529 204.00
95.1181 206.00
95.1833 211.00
95.2485 197.00
95.3137 214.00
95.3789 210.00
95.444 201.00
95.5092 181.00
95.5744 197.00
95.6396 197.00
95.7048 168.00
95.77 174.00
95.8352 191.00
95.9004 201.00
95.9656 175.00
96.0308 210.00
96.096 175.00
96.1612 205.00
96.2264 181.00
96.2916 155.00
96.3568 196.00
96.422 191.00
96.4872 197.00
96.5524 195.00
96.6176 178.00
96.6828 175.00
96.748 165.00
96.8132 183.00
96.8784 196.00
96.9436 187.00
97.0088 217.00
97.074 177.00
97.1392 207.00
97.2044 209.00
97.2696 162.00
97.3348 198.00
97.4 152.00
97.4652 199.00
97.5304 199.00
97.5956 213.00
97.6608 201.00
97.726 202.00
97.7912 203.00
97.8564 171.00
97.9216 190.00
97.9868 193.00
98.052 176.00
98.1172 192.00
98.1824 170.00
98.2476 189.00
98.3128 217.00
98.378 188.00
98.4432 158.00
98.5084 186.00
98.5736 201.00
98.6388 172.00
98.704 196.00
98.7692 220.00
98.8344 184.00
98.8996 195.00
98.9648 176.00
99.03 202.00
99.0952 191.00
99.1604 170.00
99.2256 195.00
99.2908 208.00
99.356 191.00
99.4212 182.00
99.4864 200.00
99.5516 204.00
99.6168 183.00
99.682 188.00
99.7472 193.00
99.8124 195.00
99.8776 188.00
99.9428 200.00
100.008 163.00
100.073 193.00
100.095 202.00