File: data/xrd_creation/results/PG_1521-1.xy
10.0094 2326.00
10.0746 2356.00
10.1398 2362.00
10.205 2279.00
10.2702 2215.00
10.3354 2200.00
10.4006 2271.00
10.4658 2244.00
10.531 2200.00
10.5962 2158.00
10.6614 2174.00
10.7266 2227.00
10.7918 2064.00
10.857 2164.00
10.9222 2145.00
10.9874 2049.00
11.0526 2093.00
11.1178 2015.00
11.183 2049.00
11.2482 2011.00
11.3134 2074.00
11.3786 1977.00
11.4438 1951.00
11.509 1914.00
11.5742 1956.00
11.6394 1938.00
11.7046 1852.00
11.7698 1904.00
11.835 1866.00
11.9002 1882.00
11.9654 1854.00
12.0306 1891.00
12.0958 1799.00
12.161 1814.00
12.2262 1831.00
12.2914 1808.00
12.3566 1848.00
12.4218 1778.00
12.487 1791.00
12.5522 1765.00
12.6174 1691.00
12.6826 1722.00
12.7478 1671.00
12.813 1684.00
12.8782 1695.00
12.9434 1687.00
13.0086 1705.00
13.0738 1639.00
13.139 1664.00
13.2042 1621.00
13.2694 1608.00
13.3346 1552.00
13.3998 1609.00
13.465 1591.00
13.5302 1616.00
13.5954 1567.00
13.6606 1562.00
13.7258 1609.00
13.791 1589.00
13.8562 1528.00
13.9214 1548.00
13.9865 1518.00
14.0517 1524.00
14.1169 1473.00
14.1821 1469.00
14.2473 1460.00
14.3125 1534.00
14.3777 1548.00
14.4429 1523.00
14.5081 1535.00
14.5733 1547.00
14.6385 1462.00
14.7037 1495.00
14.7689 1563.00
14.8341 1461.00
14.8993 1538.00
14.9645 1419.00
15.0297 1476.00
15.0949 1551.00
15.1601 1514.00
15.2253 1592.00
15.2905 1582.00
15.3557 1666.00
15.4209 1724.00
15.4861 1917.00
15.5513 2132.00
15.6165 2472.00
15.6817 3008.00
15.7469 3949.00
15.8121 5385.00
15.8773 7531.00
15.9425 9523.00
16.0077 9192.00
16.0729 5824.00
16.1381 3645.00
16.2033 2600.00
16.2685 2195.00
16.3337 1882.00
16.3989 1772.00
16.4641 1621.00
16.5293 1534.00
16.5945 1566.00
16.6597 1498.00
16.7249 1452.00
16.7901 1415.00
16.8553 1418.00
16.9205 1403.00
16.9857 1437.00
17.0509 1355.00
17.1161 1376.00
17.1813 1338.00
17.2465 1254.00
17.3117 1280.00
17.3769 1315.00
17.4421 1332.00
17.5073 1326.00
17.5725 1277.00
17.6377 1329.00
17.7029 1257.00
17.7681 1258.00
17.8333 1231.00
17.8985 1264.00
17.9637 1266.00
18.0289 1222.00
18.0941 1245.00
18.1593 1192.00
18.2245 1148.00
18.2897 1256.00
18.3549 1146.00
18.4201 1183.00
18.4853 1208.00
18.5505 1192.00
18.6157 1116.00
18.6809 1207.00
18.7461 1163.00
18.8112 1209.00
18.8764 1153.00
18.9416 1230.00
19.0068 1187.00
19.072 1261.00
19.1372 1407.00
19.2024 1425.00
19.2676 1503.00
19.3328 1335.00
19.398 1219.00
19.4632 1167.00
19.5284 1201.00
19.5936 1143.00
19.6588 1136.00
19.724 1154.00
19.7892 1093.00
19.8544 1084.00
19.9196 1057.00
19.9848 1095.00
20.05 1110.00
20.1152 1112.00
20.1804 1068.00
20.2456 1117.00
20.3108 1052.00
20.376 1084.00
20.4412 1036.00
20.5064 1046.00
20.5716 1051.00
20.6368 1030.00
20.702 1000.00
20.7672 997.00
20.8324 1057.00
20.8976 974.00
20.9628 1029.00
21.028 1012.00
21.0932 974.00
21.1584 1022.00
21.2236 1022.00
21.2888 975.00
21.354 1044.00
21.4192 979.00
21.4844 988.00
21.5496 982.00
21.6148 962.00
21.68 920.00
21.7452 1034.00
21.8104 956.00
21.8756 1015.00
21.9408 964.00
22.006 898.00
22.0712 902.00
22.1364 992.00
22.2016 982.00
22.2668 952.00
22.332 935.00
22.3972 965.00
22.4624 959.00
22.5276 956.00
22.5928 901.00
22.658 944.00
22.7232 852.00
22.7884 924.00
22.8536 897.00
22.9188 911.00
22.984 946.00
23.0492 908.00
23.1144 897.00
23.1796 827.00
23.2448 909.00
23.31 930.00
23.3752 872.00
23.4404 866.00
23.5056 878.00
23.5708 863.00
23.6359 878.00
23.7011 899.00
23.7663 838.00
23.8315 893.00
23.8967 886.00
23.9619 909.00
24.0271 837.00
24.0923 909.00
24.1575 886.00
24.2227 909.00
24.2879 869.00
24.3531 864.00
24.4183 924.00
24.4835 895.00
24.5487 878.00
24.6139 840.00
24.6791 860.00
24.7443 855.00
24.8095 890.00
24.8747 907.00
24.9399 876.00
25.0051 820.00
25.0703 847.00
25.1355 854.00
25.2007 826.00
25.2659 798.00
25.3311 799.00
25.3963 795.00
25.4615 770.00
25.5267 786.00
25.5919 845.00
25.6571 842.00
25.7223 861.00
25.7875 832.00
25.8527 865.00
25.9179 815.00
25.9831 820.00
26.0483 826.00
26.1135 800.00
26.1787 827.00
26.2439 811.00
26.3091 857.00
26.3743 817.00
26.4395 814.00
26.5047 855.00
26.5699 853.00
26.6351 862.00
26.7003 889.00
26.7655 904.00
26.8307 852.00
26.8959 911.00
26.9611 974.00
27.0263 1046.00
27.0915 1112.00
27.1567 1287.00
27.2219 1464.00
27.2871 1819.00
27.3523 2309.00
27.4175 3478.00
27.4827 5337.00
27.5479 7249.00
27.6131 7775.00
27.6783 6301.00
27.7435 4283.00
27.8087 2930.00
27.8739 2382.00
27.9391 2225.00
28.0043 2458.00
28.0695 3291.00
28.1347 4991.00
28.1999 7690.00
28.2651 10121.00
28.3303 10060.00
28.3955 7137.00
28.4606 4367.00
28.5258 2718.00
28.591 1973.00
28.6562 1572.00
28.7214 1278.00
28.7866 1168.00
28.8518 1093.00
28.917 1028.00
28.9822 916.00
29.0474 920.00
29.1126 905.00
29.1778 836.00
29.243 879.00
29.3082 831.00
29.3734 834.00
29.4386 811.00
29.5038 880.00
29.569 814.00
29.6342 829.00
29.6994 779.00
29.7646 843.00
29.8298 835.00
29.895 869.00
29.9602 920.00
30.0254 918.00
30.0906 951.00
30.1558 1058.00
30.221 1184.00
30.2862 1346.00
30.3514 1457.00
30.4166 1549.00
30.4818 1591.00
30.547 1561.00
30.6122 1813.00
30.6774 2017.00
30.7426 2233.00
30.8078 2238.00
30.873 1922.00
30.9382 1466.00
31.0034 1169.00
31.0686 1117.00
31.1338 982.00
31.199 965.00
31.2642 921.00
31.3294 943.00
31.3946 966.00
31.4598 982.00
31.525 1079.00
31.5902 1130.00
31.6554 1328.00
31.7206 1622.00
31.7858 2221.00
31.851 2825.00
31.9162 3426.00
31.9814 3586.00
32.0466 2980.00
32.1118 2360.00
32.177 1850.00
32.2422 1518.00
32.3074 1166.00
32.3726 1026.00
32.4378 930.00
32.503 845.00
32.5682 849.00
32.6334 748.00
32.6986 766.00
32.7638 716.00
32.829 696.00
32.8942 699.00
32.9594 705.00
33.0246 654.00
33.0898 653.00
33.1549 692.00
33.2201 626.00
33.2853 656.00
33.3505 699.00
33.4157 678.00
33.4809 723.00
33.5461 654.00
33.6113 774.00
33.6765 796.00
33.7417 831.00
33.8069 792.00
33.8721 815.00
33.9373 796.00
34.0025 664.00
34.0677 688.00
34.1329 655.00
34.1981 616.00
34.2633 646.00
34.3285 625.00
34.3937 621.00
34.4589 611.00
34.5241 625.00
34.5893 638.00
34.6545 658.00
34.7197 624.00
34.7849 630.00
34.8501 633.00
34.9153 649.00
34.9805 678.00
35.0457 718.00
35.1109 709.00
35.1761 805.00
35.2413 864.00
35.3065 958.00
35.3717 1179.00
35.4369 1441.00
35.5021 1645.00
35.5673 1508.00
35.6325 1435.00
35.6977 1142.00
35.7629 910.00
35.8281 810.00
35.8933 776.00
35.9585 750.00
36.0237 750.00
36.0889 904.00
36.1541 875.00
36.2193 1085.00
36.2845 1236.00
36.3497 1184.00
36.4149 1024.00
36.4801 891.00
36.5453 770.00
36.6105 658.00
36.6757 640.00
36.7409 589.00
36.8061 569.00
36.8713 583.00
36.9365 603.00
37.0017 587.00
37.0669 570.00
37.1321 590.00
37.1973 586.00
37.2625 622.00
37.3277 677.00
37.3929 647.00
37.4581 719.00
37.5233 746.00
37.5885 836.00
37.6537 867.00
37.7189 863.00
37.7841 862.00
37.8493 808.00
37.9145 775.00
37.9796 692.00
38.0448 649.00
38.11 716.00
38.1752 619.00
38.2404 650.00
38.3056 732.00
38.3708 748.00
38.436 806.00
38.5012 898.00
38.5664 1033.00
38.6316 1133.00
38.6968 1217.00
38.762 1126.00
38.8272 1006.00
38.8924 869.00
38.9576 902.00
39.0228 852.00
39.088 790.00
39.1532 743.00
39.2184 869.00
39.2836 986.00
39.3488 1080.00
39.414 1284.00
39.4792 1555.00
39.5444 2105.00
39.6096 3093.00
39.6748 4747.00
39.74 6626.00
39.8052 6653.00
39.8704 5682.00
39.9356 4181.00
40.0008 2724.00
40.066 1838.00
40.1312 1385.00
40.1964 1167.00
40.2616 944.00
40.3268 833.00
40.392 707.00
40.4572 661.00
40.5224 627.00
40.5876 614.00
40.6528 626.00
40.718 567.00
40.7832 569.00
40.8484 550.00
40.9136 540.00
40.9788 564.00
41.044 489.00
41.1092 535.00
41.1744 485.00
41.2396 532.00
41.3048 500.00
41.37 528.00
41.4352 484.00
41.5004 480.00
41.5656 513.00
41.6308 498.00
41.696 494.00
41.7612 491.00
41.8264 533.00
41.8916 508.00
41.9568 555.00
42.022 540.00
42.0872 582.00
42.1524 650.00
42.2176 680.00
42.2828 792.00
42.348 1017.00
42.4132 1196.00
42.4784 1629.00
42.5436 1569.00
42.6088 1360.00
42.6739 1233.00
42.7392 1008.00
42.8043 812.00
42.8695 705.00
42.9347 690.00
42.9999 601.00
43.0651 602.00
43.1303 614.00
43.1955 610.00
43.2607 562.00
43.3259 600.00
43.3911 593.00
43.4563 576.00
43.5215 574.00
43.5867 536.00
43.6519 514.00
43.7171 493.00
43.7823 443.00
43.8475 468.00
43.9127 475.00
43.9779 456.00
44.0431 414.00
44.1083 464.00
44.1735 468.00
44.2387 450.00
44.3039 452.00
44.3691 427.00
44.4343 472.00
44.4995 462.00
44.5647 454.00
44.6299 437.00
44.6951 488.00
44.7603 462.00
44.8255 485.00
44.8907 500.00
44.9559 521.00
45.0211 548.00
45.0863 506.00
45.1515 516.00
45.2167 472.00
45.2819 452.00
45.3471 488.00
45.4123 478.00
45.4775 486.00
45.5427 427.00
45.6079 509.00
45.6731 444.00
45.7383 506.00
45.8035 497.00
45.8687 534.00
45.9339 580.00
45.9991 679.00
46.0643 683.00
46.1295 624.00
46.1947 619.00
46.2599 618.00
46.3251 564.00
46.3903 538.00
46.4555 535.00
46.5207 502.00
46.5859 479.00
46.6511 480.00
46.7163 442.00
46.7815 492.00
46.8467 518.00
46.9119 580.00
46.9771 561.00
47.0423 577.00
47.1075 592.00
47.1727 716.00
47.2379 954.00
47.3031 1196.00
47.3683 1465.00
47.4335 1449.00
47.4986 1275.00
47.5639 1078.00
47.629 852.00
47.6942 683.00
47.7594 714.00
47.8246 669.00
47.8898 660.00
47.955 704.00
48.0202 712.00
48.0854 763.00
48.1506 845.00
48.2158 1092.00
48.281 1379.00
48.3462 1632.00
48.4114 2313.00
48.4766 2848.00
48.5418 3089.00
48.607 3029.00
48.6722 2962.00
48.7374 3378.00
48.8026 4004.00
48.8678 4944.00
48.933 5523.00
48.9982 5352.00
49.0634 4353.00
49.1286 3368.00
49.1938 2399.00
49.259 1756.00
49.3242 1303.00
49.3894 1078.00
49.4546 964.00
49.5198 734.00
49.585 739.00
49.6502 677.00
49.7154 681.00
49.7806 680.00
49.8458 680.00
49.911 721.00
49.9762 699.00
50.0414 811.00
50.1066 916.00
50.1718 1092.00
50.237 1170.00
50.3022 1010.00
50.3674 943.00
50.4326 758.00
50.4978 641.00
50.563 584.00
50.6282 513.00
50.6934 506.00
50.7586 458.00
50.8238 493.00
50.889 424.00
50.9542 453.00
51.0194 480.00
51.0846 470.00
51.1498 481.00
51.215 456.00
51.2802 490.00
51.3454 442.00
51.4106 460.00
51.4758 410.00
51.541 438.00
51.6062 429.00
51.6714 391.00
51.7366 388.00
51.8018 407.00
51.867 374.00
51.9322 385.00
51.9974 393.00
52.0626 386.00
52.1278 375.00
52.193 365.00
52.2582 407.00
52.3233 383.00
52.3886 350.00
52.4537 400.00
52.5189 411.00
52.5841 370.00
52.6493 368.00
52.7145 388.00
52.7797 383.00
52.8449 380.00
52.9101 362.00
52.9753 342.00
53.0405 342.00
53.1057 379.00
53.1709 343.00
53.2361 358.00
53.3013 372.00
53.3665 415.00
53.4317 349.00
53.4969 355.00
53.5621 387.00
53.6273 363.00
53.6925 381.00
53.7577 410.00
53.8229 347.00
53.8881 374.00
53.9533 329.00
54.0185 368.00
54.0837 383.00
54.1489 412.00
54.2141 403.00
54.2793 375.00
54.3445 383.00
54.4097 385.00
54.4749 459.00
54.5401 411.00
54.6053 427.00
54.6705 421.00
54.7357 480.00
54.8009 480.00
54.8661 475.00
54.9313 453.00
54.9965 489.00
55.0617 512.00
55.1269 499.00
55.1921 575.00
55.2573 638.00
55.3225 782.00
55.3877 989.00
55.4529 1292.00
55.5181 1622.00
55.5833 1721.00
55.6485 1584.00
55.7137 1369.00
55.7789 1082.00
55.8441 835.00
55.9093 730.00
55.9745 624.00
56.0397 592.00
56.1049 554.00
56.1701 546.00
56.2353 582.00
56.3005 634.00
56.3657 709.00
56.4309 872.00
56.4961 969.00
56.5613 1098.00
56.6265 985.00
56.6917 881.00
56.7569 837.00
56.8221 736.00
56.8873 604.00
56.9525 508.00
57.0177 523.00
57.0829 490.00
57.148 433.00
57.2132 419.00
57.2784 407.00
57.3436 455.00
57.4088 462.00
57.474 433.00
57.5392 475.00
57.6044 503.00
57.6696 548.00
57.7348 612.00
57.8 674.00
57.8652 719.00
57.9304 807.00
57.9956 881.00
58.0608 938.00
58.126 934.00
58.1912 822.00
58.2564 773.00
58.3216 701.00
58.3868 578.00
58.452 543.00
58.5172 523.00
58.5824 455.00
58.6476 451.00
58.7128 476.00
58.778 515.00
58.8432 553.00
58.9084 593.00
58.9736 659.00
59.0388 785.00
59.104 772.00
59.1692 754.00
59.2344 769.00
59.2996 682.00
59.3648 691.00
59.43 634.00
59.4952 607.00
59.5604 588.00
59.6256 509.00
59.6908 461.00
59.756 435.00
59.8212 414.00
59.8864 433.00
59.9516 440.00
60.0168 475.00
60.082 476.00
60.1472 478.00
60.2124 498.00
60.2776 551.00
60.3428 515.00
60.408 504.00
60.4732 514.00
60.5384 514.00
60.6036 537.00
60.6688 469.00
60.734 533.00
60.7992 505.00
60.8644 488.00
60.9296 518.00
60.9948 486.00
61.06 516.00
61.1252 537.00
61.1904 551.00
61.2556 588.00
61.3208 588.00
61.386 559.00
61.4512 471.00
61.5164 467.00
61.5816 424.00
61.6468 381.00
61.712 381.00
61.7772 409.00
61.8424 391.00
61.9076 376.00
61.9727 326.00
62.0379 376.00
62.1031 332.00
62.1683 364.00
62.2335 360.00
62.2987 383.00
62.3639 353.00
62.4291 400.00
62.4943 335.00
62.5595 373.00
62.6247 381.00
62.6899 379.00
62.7551 381.00
62.8203 455.00
62.8855 456.00
62.9507 472.00
63.0159 503.00
63.0811 451.00
63.1463 456.00
63.2115 415.00
63.2767 413.00
63.3419 393.00
63.4071 395.00
63.4723 427.00
63.5375 457.00
63.6027 459.00
63.6679 452.00
63.7331 451.00
63.7983 506.00
63.8635 556.00
63.9287 680.00
63.9939 770.00
64.0591 906.00
64.1243 1109.00
64.1895 1372.00
64.2547 1633.00
64.3199 1606.00
64.3851 1604.00
64.4503 1469.00
64.5155 1315.00
64.5807 1239.00
64.6459 1015.00
64.7111 1053.00
64.7763 1009.00
64.8415 1129.00
64.9067 1142.00
64.9719 1228.00
65.0371 1082.00
65.1023 978.00
65.1675 965.00
65.2327 967.00
65.2979 874.00
65.3631 900.00
65.4283 880.00
65.4935 724.00
65.5587 667.00
65.6239 580.00
65.6891 559.00
65.7543 485.00
65.8195 457.00
65.8847 463.00
65.9499 414.00
66.0151 461.00
66.0803 461.00
66.1455 444.00
66.2107 532.00
66.2759 497.00
66.3411 484.00
66.4063 456.00
66.4715 439.00
66.5367 390.00
66.6019 419.00
66.6671 339.00
66.7322 343.00
66.7974 353.00
66.8626 362.00
66.9278 344.00
66.993 325.00
67.0582 326.00
67.1234 305.00
67.1886 313.00
67.2538 308.00
67.319 305.00
67.3842 339.00
67.4494 338.00
67.5146 312.00
67.5798 318.00
67.645 383.00
67.7102 299.00
67.7754 288.00
67.8406 322.00
67.9058 316.00
67.971 303.00
68.0362 352.00
68.1014 311.00
68.1666 314.00
68.2318 318.00
68.297 308.00
68.3622 354.00
68.4274 317.00
68.4926 342.00
68.5578 331.00
68.623 313.00
68.6882 313.00
68.7534 335.00
68.8186 325.00
68.8838 343.00
68.949 367.00
69.0142 350.00
69.0794 349.00
69.1446 400.00
69.2098 416.00
69.275 423.00
69.3402 436.00
69.4054 487.00
69.4706 503.00
69.5358 530.00
69.601 632.00
69.6662 698.00
69.7314 851.00
69.7966 991.00
69.8618 1017.00
69.927 1231.00
69.9922 1201.00
70.0574 1145.00
70.1226 1079.00
70.1878 962.00
70.253 760.00
70.3182 691.00
70.3834 596.00
70.4486 589.00
70.5138 544.00
70.579 557.00
70.6442 554.00
70.7094 542.00
70.7746 515.00
70.8398 494.00
70.905 531.00
70.9702 554.00
71.0354 609.00
71.1006 668.00
71.1658 675.00
71.231 636.00
71.2962 573.00
71.3614 545.00
71.4266 524.00
71.4918 459.00
71.5569 412.00
71.6221 402.00
71.6873 390.00
71.7525 351.00
71.8177 357.00
71.8829 326.00
71.9481 374.00
72.0133 337.00
72.0785 322.00
72.1437 340.00
72.2089 321.00
72.2741 326.00
72.3393 319.00
72.4045 336.00
72.4697 355.00
72.5349 329.00
72.6001 363.00
72.6653 432.00
72.7305 397.00
72.7957 457.00
72.8609 455.00
72.9261 444.00
72.9913 484.00
73.0565 516.00
73.1217 458.00
73.1869 453.00
73.2521 415.00
73.3173 401.00
73.3825 376.00
73.4477 352.00
73.5129 357.00
73.5781 349.00
73.6433 346.00
73.7085 343.00
73.7737 365.00
73.8389 329.00
73.9041 364.00
73.9693 380.00
74.0345 388.00
74.0997 335.00
74.1649 351.00
74.2301 356.00
74.2953 319.00
74.3605 357.00
74.4257 315.00
74.4909 309.00
74.5561 342.00
74.6213 331.00
74.6865 347.00
74.7517 280.00
74.8169 341.00
74.8821 319.00
74.9473 328.00
75.0125 315.00
75.0777 309.00
75.1429 328.00
75.2081 317.00
75.2733 317.00
75.3385 306.00
75.4037 344.00
75.4689 347.00
75.5341 364.00
75.5993 350.00
75.6645 363.00
75.7297 416.00
75.7949 461.00
75.8601 508.00
75.9253 539.00
75.9905 620.00
76.0557 653.00
76.1209 717.00
76.186 730.00
76.2513 702.00
76.3165 711.00
76.3816 708.00
76.4468 799.00
76.512 764.00
76.5772 806.00
76.6424 775.00
76.7076 771.00
76.7728 721.00
76.838 721.00
76.9032 653.00
76.9684 596.00
77.0336 677.00
77.0988 625.00
77.164 704.00
77.2292 770.00
77.2944 885.00
77.3596 954.00
77.4248 1015.00
77.49 1137.00
77.5552 1210.00
77.6204 1244.00
77.6856 1360.00
77.7508 1332.00
77.816 1259.00
77.8812 1277.00
77.9464 1147.00
78.0116 1025.00
78.0768 880.00
78.142 821.00
78.2072 725.00
78.2724 597.00
78.3376 574.00
78.4028 514.00
78.468 522.00
78.5332 580.00
78.5984 545.00
78.6636 615.00
78.7288 604.00
78.794 567.00
78.8592 574.00
78.9244 491.00
78.9896 513.00
79.0548 462.00
79.12 417.00
79.1852 397.00
79.2504 347.00
79.3156 354.00
79.3808 378.00
79.446 332.00
79.5112 327.00
79.5764 328.00
79.6416 328.00
79.7068 324.00
79.772 303.00
79.8372 365.00
79.9024 291.00
79.9676 317.00
80.0328 284.00
80.098 303.00
80.1632 268.00
80.2284 292.00
80.2936 281.00
80.3588 325.00
80.424 286.00
80.4892 295.00
80.5544 308.00
80.6196 272.00
80.6848 318.00
80.75 290.00
80.8152 286.00
80.8804 288.00
80.9456 283.00
81.0108 305.00
81.076 293.00
81.1412 257.00
81.2063 283.00
81.2715 277.00
81.3367 278.00
81.4019 290.00
81.4671 300.00
81.5323 306.00
81.5975 283.00
81.6627 310.00
81.7279 281.00
81.7931 300.00
81.8583 267.00
81.9235 314.00
81.9887 318.00
82.0539 309.00
82.1191 334.00
82.1843 372.00
82.2495 387.00
82.3147 420.00
82.3799 482.00
82.4451 543.00
82.5103 585.00
82.5755 608.00
82.6407 595.00
82.7059 566.00
82.7711 571.00
82.8363 495.00
82.9015 463.00
82.9667 431.00
83.0319 414.00
83.0971 359.00
83.1623 342.00
83.2275 336.00
83.2927 318.00
83.3579 308.00
83.4231 318.00
83.4883 303.00
83.5535 296.00
83.6187 313.00
83.6839 298.00
83.7491 290.00
83.8143 274.00
83.8795 322.00
83.9447 284.00
84.0099 294.00
84.0751 309.00
84.1403 282.00
84.2055 321.00
84.2707 284.00
84.3359 360.00
84.4011 363.00
84.4663 342.00
84.5315 360.00
84.5967 369.00
84.6619 331.00
84.7271 374.00
84.7923 350.00
84.8575 365.00
84.9227 371.00
84.9879 381.00
85.0531 370.00
85.1183 400.00
85.1835 441.00
85.2487 372.00
85.3139 409.00
85.3791 357.00
85.4443 378.00
85.5095 386.00
85.5747 371.00
85.6399 364.00
85.7051 396.00
85.7703 344.00
85.8354 362.00
85.9006 354.00
85.9659 351.00
86.031 362.00
86.0962 389.00
86.1614 370.00
86.2266 368.00
86.2918 316.00
86.357 353.00
86.4222 291.00
86.4874 285.00
86.5526 303.00
86.6178 305.00
86.683 272.00
86.7482 294.00
86.8134 312.00
86.8786 303.00
86.9438 325.00
87.009 286.00
87.0742 290.00
87.1394 267.00
87.2046 258.00
87.2698 292.00
87.335 278.00
87.4002 251.00
87.4654 294.00
87.5306 271.00
87.5958 260.00
87.661 304.00
87.7262 278.00
87.7914 281.00
87.8566 302.00
87.9218 310.00
87.987 287.00
88.0522 300.00
88.1174 282.00
88.1826 339.00
88.2478 325.00
88.313 370.00
88.3782 346.00
88.4434 363.00
88.5086 393.00
88.5738 432.00
88.639 450.00
88.7042 534.00
88.7694 538.00
88.8346 655.00
88.8998 710.00
88.965 749.00
89.0302 718.00
89.0954 664.00
89.1606 638.00
89.2258 631.00
89.291 563.00
89.3562 542.00
89.4214 519.00
89.4866 474.00
89.5518 473.00
89.617 451.00
89.6822 404.00
89.7474 404.00
89.8126 414.00
89.8778 406.00
89.943 427.00
90.0082 425.00
90.0734 436.00
90.1386 446.00
90.2038 511.00
90.269 497.00
90.3342 560.00
90.3994 526.00
90.4646 594.00
90.5298 582.00
90.595 566.00
90.6601 544.00
90.7253 545.00
90.7905 541.00
90.8557 529.00
90.9209 488.00
90.9861 466.00
91.0513 494.00
91.1165 458.00
91.1817 410.00
91.2469 436.00
91.3121 452.00
91.3773 482.00
91.4425 492.00
91.5077 544.00
91.5729 496.00
91.6381 498.00
91.7033 493.00
91.7685 431.00
91.8337 440.00
91.8989 415.00
91.9641 406.00
92.0293 408.00
92.0945 364.00
92.1597 398.00
92.2249 354.00
92.2901 362.00
92.3553 333.00
92.4205 336.00
92.4857 341.00
92.5509 340.00
92.6161 323.00
92.6813 323.00
92.7465 329.00
92.8117 344.00
92.8769 307.00
92.9421 330.00
93.0073 324.00
93.0725 278.00
93.1377 327.00
93.2029 305.00
93.2681 317.00
93.3333 323.00
93.3985 319.00
93.4637 324.00
93.5289 308.00
93.5941 313.00
93.6593 302.00
93.7245 295.00
93.7897 279.00
93.8549 312.00
93.9201 285.00
93.9853 289.00
94.0505 323.00
94.1157 310.00
94.1809 279.00
94.2461 300.00
94.3113 304.00
94.3765 351.00
94.4417 330.00
94.5069 362.00
94.5721 320.00
94.6373 376.00
94.7025 353.00
94.7677 346.00
94.8329 360.00
94.8981 394.00
94.9633 388.00
95.0285 401.00
95.0937 412.00
95.1589 445.00
95.2241 454.00
95.2893 449.00
95.3545 504.00
95.4197 486.00
95.4848 560.00
95.55 564.00
95.6153 628.00
95.6804 683.00
95.7456 779.00
95.8108 739.00
95.876 706.00
95.9412 699.00
96.0064 755.00
96.0716 728.00
96.1368 645.00
96.202 663.00
96.2672 619.00
96.3324 637.00
96.3976 568.00
96.4628 593.00
96.528 668.00
96.5932 573.00
96.6584 603.00
96.7236 591.00
96.7888 595.00
96.854 696.00
96.9192 714.00
96.9844 652.00
97.0496 623.00
97.1148 606.00
97.18 582.00
97.2452 557.00
97.3104 561.00
97.3756 509.00
97.4408 481.00
97.506 415.00
97.5712 394.00
97.6364 433.00
97.7016 363.00
97.7668 400.00
97.832 339.00
97.8972 313.00
97.9624 320.00
98.0276 351.00
98.0928 326.00
98.158 383.00
98.2232 347.00
98.2884 388.00
98.3536 339.00
98.4188 312.00
98.484 322.00
98.5492 315.00
98.6144 332.00
98.6796 331.00
98.7448 399.00
98.81 345.00
98.8752 356.00
98.9404 378.00
99.0056 305.00
99.0708 369.00
99.136 344.00
99.2012 338.00
99.2664 336.00
99.3316 344.00
99.3968 337.00
99.462 329.00
99.5272 317.00
99.5924 334.00
99.6576 325.00
99.7228 315.00
99.788 342.00
99.8532 270.00
99.9184 293.00
99.9836 302.00
99.9944 308.00