File: data/xrd_creation/results/PG_1121-1.xy
10.0094 2372.00
10.0746 2342.00
10.1398 2370.00
10.205 2418.00
10.2702 2295.00
10.3354 2279.00
10.4006 2280.00
10.4658 2230.00
10.531 2317.00
10.5962 2258.00
10.6614 2299.00
10.7266 2310.00
10.7918 2232.00
10.857 2176.00
10.9222 2201.00
10.9874 2213.00
11.0526 2162.00
11.1178 2172.00
11.183 2205.00
11.2482 2115.00
11.3134 2062.00
11.3786 2104.00
11.4438 2045.00
11.509 2006.00
11.5742 2118.00
11.6394 2027.00
11.7046 2088.00
11.7698 1999.00
11.835 1995.00
11.9002 1988.00
11.9654 2065.00
12.0306 1963.00
12.0958 1901.00
12.161 1902.00
12.2262 1872.00
12.2914 1922.00
12.3566 1865.00
12.4218 1868.00
12.487 1987.00
12.5522 1868.00
12.6174 1848.00
12.6826 1825.00
12.7478 1872.00
12.813 1761.00
12.8782 1846.00
12.9434 1769.00
13.0086 1820.00
13.0738 1778.00
13.139 1775.00
13.2042 1764.00
13.2694 1761.00
13.3346 1786.00
13.3998 1769.00
13.465 1687.00
13.5302 1739.00
13.5954 1624.00
13.6606 1665.00
13.7258 1689.00
13.791 1721.00
13.8562 1692.00
13.9214 1718.00
13.9865 1666.00
14.0517 1687.00
14.1169 1748.00
14.1821 1708.00
14.2473 1687.00
14.3125 1717.00
14.3777 1691.00
14.4429 1700.00
14.5081 1707.00
14.5733 1631.00
14.6385 1690.00
14.7037 1644.00
14.7689 1701.00
14.8341 1681.00
14.8993 1646.00
14.9645 1700.00
15.0297 1669.00
15.0949 1680.00
15.1601 1693.00
15.2253 1699.00
15.2905 1829.00
15.3557 1860.00
15.4209 1950.00
15.4861 2112.00
15.5513 2292.00
15.6165 2593.00
15.6817 3108.00
15.7469 3834.00
15.8121 5196.00
15.8773 6751.00
15.9425 7881.00
16.0077 6494.00
16.0729 4211.00
16.1381 2835.00
16.2033 2316.00
16.2685 1952.00
16.3337 1859.00
16.3989 1888.00
16.4641 1749.00
16.5293 1734.00
16.5945 1673.00
16.6597 1675.00
16.7249 1618.00
16.7901 1559.00
16.8553 1622.00
16.9205 1541.00
16.9857 1632.00
17.0509 1590.00
17.1161 1571.00
17.1813 1567.00
17.2465 1612.00
17.3117 1535.00
17.3769 1476.00
17.4421 1444.00
17.5073 1604.00
17.5725 1455.00
17.6377 1443.00
17.7029 1477.00
17.7681 1484.00
17.8333 1462.00
17.8985 1473.00
17.9637 1473.00
18.0289 1459.00
18.0941 1391.00
18.1593 1356.00
18.2245 1463.00
18.2897 1385.00
18.3549 1395.00
18.4201 1412.00
18.4853 1471.00
18.5505 1473.00
18.6157 1430.00
18.6809 1400.00
18.7461 1421.00
18.8112 1364.00
18.8764 1341.00
18.9416 1416.00
19.0068 1396.00
19.072 1403.00
19.1372 1409.00
19.2024 1308.00
19.2676 1325.00
19.3328 1370.00
19.398 1356.00
19.4632 1361.00
19.5284 1397.00
19.5936 1313.00
19.6588 1296.00
19.724 1318.00
19.7892 1279.00
19.8544 1358.00
19.9196 1269.00
19.9848 1320.00
20.05 1267.00
20.1152 1325.00
20.1804 1340.00
20.2456 1289.00
20.3108 1258.00
20.376 1274.00
20.4412 1269.00
20.5064 1285.00
20.5716 1228.00
20.6368 1306.00
20.702 1331.00
20.7672 1244.00
20.8324 1261.00
20.8976 1252.00
20.9628 1296.00
21.028 1270.00
21.0932 1206.00
21.1584 1228.00
21.2236 1293.00
21.2888 1246.00
21.354 1231.00
21.4192 1235.00
21.4844 1195.00
21.5496 1210.00
21.6148 1241.00
21.68 1237.00
21.7452 1213.00
21.8104 1178.00
21.8756 1199.00
21.9408 1166.00
22.006 1204.00
22.0712 1194.00
22.1364 1151.00
22.2016 1160.00
22.2668 1198.00
22.332 1209.00
22.3972 1213.00
22.4624 1224.00
22.5276 1161.00
22.5928 1144.00
22.658 1159.00
22.7232 1148.00
22.7884 1225.00
22.8536 1175.00
22.9188 1209.00
22.984 1210.00
23.0492 1156.00
23.1144 1143.00
23.1796 1184.00
23.2448 1146.00
23.31 1112.00
23.3752 1180.00
23.4404 1120.00
23.5056 1137.00
23.5708 1173.00
23.6359 1118.00
23.7011 1157.00
23.7663 1183.00
23.8315 1172.00
23.8967 1147.00
23.9619 1088.00
24.0271 1076.00
24.0923 1091.00
24.1575 1108.00
24.2227 1108.00
24.2879 1116.00
24.3531 1082.00
24.4183 1153.00
24.4835 1073.00
24.5487 1142.00
24.6139 1128.00
24.6791 1085.00
24.7443 1100.00
24.8095 1078.00
24.8747 1072.00
24.9399 1048.00
25.0051 1134.00
25.0703 1112.00
25.1355 1138.00
25.2007 1090.00
25.2659 1111.00
25.3311 1136.00
25.3963 1073.00
25.4615 1088.00
25.5267 1122.00
25.5919 1071.00
25.6571 1027.00
25.7223 1094.00
25.7875 1027.00
25.8527 1046.00
25.9179 1102.00
25.9831 1028.00
26.0483 1076.00
26.1135 1090.00
26.1787 1122.00
26.2439 1064.00
26.3091 1085.00
26.3743 1036.00
26.4395 1073.00
26.5047 1054.00
26.5699 1093.00
26.6351 1118.00
26.7003 1133.00
26.7655 1117.00
26.8307 1078.00
26.8959 1126.00
26.9611 1197.00
27.0263 1306.00
27.0915 1346.00
27.1567 1439.00
27.2219 1690.00
27.2871 1963.00
27.3523 2724.00
27.4175 3770.00
27.4827 5274.00
27.5479 6829.00
27.6131 6522.00
27.6783 4878.00
27.7435 3394.00
27.8087 2511.00
27.8739 2242.00
27.9391 2275.00
28.0043 2673.00
28.0695 3636.00
28.1347 5297.00
28.1999 7782.00
28.2651 9455.00
28.3303 8393.00
28.3955 5545.00
28.4606 3554.00
28.5258 2376.00
28.591 1833.00
28.6562 1572.00
28.7214 1438.00
28.7866 1302.00
28.8518 1248.00
28.917 1170.00
28.9822 1214.00
29.0474 1157.00
29.1126 1146.00
29.1778 1072.00
29.243 1000.00
29.3082 1034.00
29.3734 1080.00
29.4386 974.00
29.5038 1074.00
29.569 994.00
29.6342 984.00
29.6994 1040.00
29.7646 1037.00
29.8298 1040.00
29.895 1006.00
29.9602 999.00
30.0254 1012.00
30.0906 965.00
30.1558 998.00
30.221 947.00
30.2862 956.00
30.3514 1008.00
30.4166 985.00
30.4818 970.00
30.547 950.00
30.6122 1005.00
30.6774 991.00
30.7426 1000.00
30.8078 999.00
30.873 942.00
30.9382 1012.00
31.0034 980.00
31.0686 1020.00
31.1338 977.00
31.199 952.00
31.2642 964.00
31.3294 1011.00
31.3946 1059.00
31.4598 997.00
31.525 1050.00
31.5902 1188.00
31.6554 1291.00
31.7206 1449.00
31.7858 1888.00
31.851 2251.00
31.9162 2262.00
31.9814 2025.00
32.0466 1593.00
32.1118 1285.00
32.177 1221.00
32.2422 1075.00
32.3074 1031.00
32.3726 930.00
32.4378 929.00
32.503 972.00
32.5682 993.00
32.6334 985.00
32.6986 1007.00
32.7638 1042.00
32.829 1088.00
32.8942 991.00
32.9594 948.00
33.0246 928.00
33.0898 933.00
33.1549 934.00
33.2201 851.00
33.2853 843.00
33.3505 869.00
33.4157 888.00
33.4809 823.00
33.5461 874.00
33.6113 835.00
33.6765 853.00
33.7417 861.00
33.8069 845.00
33.8721 841.00
33.9373 875.00
34.0025 891.00
34.0677 920.00
34.1329 863.00
34.1981 842.00
34.2633 838.00
34.3285 858.00
34.3937 870.00
34.4589 925.00
34.5241 905.00
34.5893 817.00
34.6545 871.00
34.7197 860.00
34.7849 889.00
34.8501 848.00
34.9153 893.00
34.9805 876.00
35.0457 911.00
35.1109 918.00
35.1761 936.00
35.2413 929.00
35.3065 971.00
35.3717 1053.00
35.4369 1131.00
35.5021 1244.00
35.5673 1517.00
35.6325 1879.00
35.6977 2404.00
35.7629 2774.00
35.8281 2665.00
35.8933 2338.00
35.9585 1835.00
36.0237 1568.00
36.0889 1356.00
36.1541 1483.00
36.2193 1577.00
36.2845 1612.00
36.3497 1488.00
36.4149 1303.00
36.4801 1155.00
36.5453 1064.00
36.6105 967.00
36.6757 933.00
36.7409 925.00
36.8061 883.00
36.8713 897.00
36.9365 914.00
37.0017 881.00
37.0669 852.00
37.1321 827.00
37.1973 899.00
37.2625 877.00
37.3277 863.00
37.3929 888.00
37.4581 890.00
37.5233 850.00
37.5885 840.00
37.6537 864.00
37.7189 897.00
37.7841 856.00
37.8493 926.00
37.9145 864.00
37.9796 909.00
38.0448 915.00
38.11 946.00
38.1752 932.00
38.2404 976.00
38.3056 979.00
38.3708 1036.00
38.436 1104.00
38.5012 1127.00
38.5664 1177.00
38.6316 1267.00
38.6968 1358.00
38.762 1534.00
38.8272 1750.00
38.8924 2073.00
38.9576 2324.00
39.0228 2412.00
39.088 2426.00
39.1532 2257.00
39.2184 2100.00
39.2836 1906.00
39.3488 1856.00
39.414 1996.00
39.4792 2259.00
39.5444 2798.00
39.6096 3764.00
39.6748 5363.00
39.74 6671.00
39.8052 6449.00
39.8704 5172.00
39.9356 3724.00
40.0008 2642.00
40.066 1977.00
40.1312 1595.00
40.1964 1260.00
40.2616 1220.00
40.3268 1025.00
40.392 966.00
40.4572 963.00
40.5224 898.00
40.5876 948.00
40.6528 867.00
40.718 908.00
40.7832 923.00
40.8484 828.00
40.9136 887.00
40.9788 807.00
41.044 781.00
41.1092 933.00
41.1744 826.00
41.2396 828.00
41.3048 811.00
41.37 822.00
41.4352 830.00
41.5004 828.00
41.5656 820.00
41.6308 842.00
41.696 802.00
41.7612 789.00
41.8264 788.00
41.8916 890.00
41.9568 842.00
42.022 820.00
42.0872 965.00
42.1524 938.00
42.2176 1025.00
42.2828 1146.00
42.348 1293.00
42.4132 1498.00
42.4784 1731.00
42.5436 1863.00
42.6088 1535.00
42.6739 1367.00
42.7392 1147.00
42.8043 1053.00
42.8695 965.00
42.9347 916.00
42.9999 813.00
43.0651 805.00
43.1303 814.00
43.1955 828.00
43.2607 800.00
43.3259 821.00
43.3911 779.00
43.4563 783.00
43.5215 777.00
43.5867 766.00
43.6519 806.00
43.7171 831.00
43.7823 834.00
43.8475 805.00
43.9127 724.00
43.9779 772.00
44.0431 776.00
44.1083 734.00
44.1735 777.00
44.2387 792.00
44.3039 805.00
44.3691 763.00
44.4343 765.00
44.4995 726.00
44.5647 794.00
44.6299 799.00
44.6951 734.00
44.7603 726.00
44.8255 733.00
44.8907 720.00
44.9559 763.00
45.0211 734.00
45.0863 735.00
45.1515 768.00
45.2167 805.00
45.2819 775.00
45.3471 780.00
45.4123 752.00
45.4775 777.00
45.5427 738.00
45.6079 738.00
45.6731 720.00
45.7383 728.00
45.8035 754.00
45.8687 738.00
45.9339 738.00
45.9991 768.00
46.0643 751.00
46.1295 813.00
46.1947 826.00
46.2599 809.00
46.3251 754.00
46.3903 776.00
46.4555 793.00
46.5207 860.00
46.5859 784.00
46.6511 840.00
46.7163 785.00
46.7815 822.00
46.8467 769.00
46.9119 861.00
46.9771 805.00
47.0423 944.00
47.1075 986.00
47.1727 1107.00
47.2379 1351.00
47.3031 1576.00
47.3683 1870.00
47.4335 1731.00
47.4986 1520.00
47.5639 1300.00
47.629 1232.00
47.6942 1028.00
47.7594 971.00
47.8246 975.00
47.8898 977.00
47.955 975.00
48.0202 1087.00
48.0854 1117.00
48.1506 1237.00
48.2158 1398.00
48.281 1739.00
48.3462 2104.00
48.4114 2661.00
48.4766 3099.00
48.5418 3255.00
48.607 3162.00
48.6722 3293.00
48.7374 3558.00
48.8026 4225.00
48.8678 5298.00
48.933 5841.00
48.9982 5192.00
49.0634 4506.00
49.1286 3439.00
49.1938 2620.00
49.259 2113.00
49.3242 1715.00
49.3894 1419.00
49.4546 1277.00
49.5198 1123.00
49.585 1070.00
49.6502 1040.00
49.7154 1005.00
49.7806 1004.00
49.8458 937.00
49.911 1001.00
49.9762 985.00
50.0414 1100.00
50.1066 1295.00
50.1718 1470.00
50.237 1427.00
50.3022 1337.00
50.3674 1231.00
50.4326 1070.00
50.4978 926.00
50.563 874.00
50.6282 844.00
50.6934 866.00
50.7586 808.00
50.8238 810.00
50.889 740.00
50.9542 753.00
51.0194 789.00
51.0846 732.00
51.1498 718.00
51.215 744.00
51.2802 761.00
51.3454 735.00
51.4106 753.00
51.4758 802.00
51.541 717.00
51.6062 754.00
51.6714 690.00
51.7366 721.00
51.8018 742.00
51.867 722.00
51.9322 749.00
51.9974 656.00
52.0626 752.00
52.1278 741.00
52.193 722.00
52.2582 707.00
52.3233 703.00
52.3886 752.00
52.4537 711.00
52.5189 789.00
52.5841 749.00
52.6493 744.00
52.7145 729.00
52.7797 716.00
52.8449 734.00
52.9101 704.00
52.9753 700.00
53.0405 687.00
53.1057 752.00
53.1709 759.00
53.2361 749.00
53.3013 717.00
53.3665 818.00
53.4317 772.00
53.4969 745.00
53.5621 787.00
53.6273 791.00
53.6925 787.00
53.7577 784.00
53.8229 820.00
53.8881 752.00
53.9533 772.00
54.0185 752.00
54.0837 762.00
54.1489 708.00
54.2141 777.00
54.2793 733.00
54.3445 770.00
54.4097 760.00
54.4749 745.00
54.5401 766.00
54.6053 709.00
54.6705 755.00
54.7357 727.00
54.8009 763.00
54.8661 727.00
54.9313 804.00
54.9965 813.00
55.0617 822.00
55.1269 779.00
55.1921 880.00
55.2573 989.00
55.3225 1180.00
55.3877 1385.00
55.4529 1643.00
55.5181 1992.00
55.5833 2008.00
55.6485 1884.00
55.7137 1611.00
55.7789 1357.00
55.8441 1160.00
55.9093 1016.00
55.9745 937.00
56.0397 842.00
56.1049 898.00
56.1701 878.00
56.2353 940.00
56.3005 919.00
56.3657 1116.00
56.4309 1228.00
56.4961 1353.00
56.5613 1340.00
56.6265 1307.00
56.6917 1203.00
56.7569 1059.00
56.8221 941.00
56.8873 884.00
56.9525 850.00
57.0177 789.00
57.0829 703.00
57.148 782.00
57.2132 730.00
57.2784 778.00
57.3436 731.00
57.4088 784.00
57.474 774.00
57.5392 709.00
57.6044 740.00
57.6696 793.00
57.7348 751.00
57.8 794.00
57.8652 859.00
57.9304 890.00
57.9956 947.00
58.0608 1095.00
58.126 1085.00
58.1912 1079.00
58.2564 1070.00
58.3216 1014.00
58.3868 979.00
58.452 980.00
58.5172 1004.00
58.5824 953.00
58.6476 975.00
58.7128 877.00
58.778 967.00
58.8432 916.00
58.9084 996.00
58.9736 1057.00
59.0388 1085.00
59.104 1049.00
59.1692 997.00
59.2344 911.00
59.2996 856.00
59.3648 816.00
59.43 832.00
59.4952 740.00
59.5604 747.00
59.6256 685.00
59.6908 730.00
59.756 640.00
59.8212 665.00
59.8864 688.00
59.9516 727.00
60.0168 689.00
60.082 682.00
60.1472 674.00
60.2124 674.00
60.2776 648.00
60.3428 678.00
60.408 676.00
60.4732 668.00
60.5384 677.00
60.6036 653.00
60.6688 696.00
60.734 665.00
60.7992 698.00
60.8644 674.00
60.9296 662.00
60.9948 683.00
61.06 718.00
61.1252 645.00
61.1904 670.00
61.2556 687.00
61.3208 719.00
61.386 701.00
61.4512 733.00
61.5164 815.00
61.5816 798.00
61.6468 807.00
61.712 888.00
61.7772 1020.00
61.8424 989.00
61.9076 925.00
61.9727 905.00
62.0379 868.00
62.1031 831.00
62.1683 778.00
62.2335 767.00
62.2987 733.00
62.3639 746.00
62.4291 719.00
62.4943 695.00
62.5595 670.00
62.6247 695.00
62.6899 668.00
62.7551 684.00
62.8203 768.00
62.8855 708.00
62.9507 733.00
63.0159 697.00
63.0811 690.00
63.1463 688.00
63.2115 714.00
63.2767 711.00
63.3419 721.00
63.4071 723.00
63.4723 692.00
63.5375 741.00
63.6027 735.00
63.6679 777.00
63.7331 828.00
63.7983 883.00
63.8635 862.00
63.9287 935.00
63.9939 1029.00
64.0591 1199.00
64.1243 1397.00
64.1895 1584.00
64.2547 1663.00
64.3199 1700.00
64.3851 1544.00
64.4503 1505.00
64.5155 1272.00
64.5807 1143.00
64.6459 1021.00
64.7111 953.00
64.7763 891.00
64.8415 894.00
64.9067 820.00
64.9719 843.00
65.0371 905.00
65.1023 910.00
65.1675 918.00
65.2327 983.00
65.2979 1101.00
65.3631 1122.00
65.4283 1084.00
65.4935 1034.00
65.5587 956.00
65.6239 905.00
65.6891 907.00
65.7543 842.00
65.8195 841.00
65.8847 864.00
65.9499 942.00
66.0151 951.00
66.0803 932.00
66.1455 954.00
66.2107 1019.00
66.2759 989.00
66.3411 1001.00
66.4063 1065.00
66.4715 993.00
66.5367 992.00
66.6019 977.00
66.6671 888.00
66.7322 896.00
66.7974 829.00
66.8626 829.00
66.9278 764.00
66.993 714.00
67.0582 719.00
67.1234 753.00
67.1886 739.00
67.2538 734.00
67.319 748.00
67.3842 745.00
67.4494 752.00
67.5146 711.00
67.5798 689.00
67.645 736.00
67.7102 732.00
67.7754 709.00
67.8406 748.00
67.9058 823.00
67.971 768.00
68.0362 888.00
68.1014 831.00
68.1666 879.00
68.2318 886.00
68.297 960.00
68.3622 900.00
68.4274 889.00
68.4926 867.00
68.5578 766.00
68.623 824.00
68.6882 732.00
68.7534 758.00
68.8186 785.00
68.8838 694.00
68.949 686.00
69.0142 730.00
69.0794 726.00
69.1446 715.00
69.2098 753.00
69.275 753.00
69.3402 767.00
69.4054 750.00
69.4706 801.00
69.5358 836.00
69.601 885.00
69.6662 992.00
69.7314 1055.00
69.7966 1175.00
69.8618 1381.00
69.927 1531.00
69.9922 1418.00
70.0574 1389.00
70.1226 1310.00
70.1878 1126.00
70.253 1032.00
70.3182 920.00
70.3834 800.00
70.4486 800.00
70.5138 745.00
70.579 793.00
70.6442 757.00
70.7094 792.00
70.7746 779.00
70.8398 783.00
70.905 804.00
70.9702 812.00
71.0354 882.00
71.1006 884.00
71.1658 929.00
71.231 914.00
71.2962 888.00
71.3614 831.00
71.4266 800.00
71.4918 789.00
71.5569 790.00
71.6221 757.00
71.6873 694.00
71.7525 668.00
71.8177 709.00
71.8829 709.00
71.9481 657.00
72.0133 690.00
72.0785 676.00
72.1437 765.00
72.2089 740.00
72.2741 724.00
72.3393 689.00
72.4045 713.00
72.4697 747.00
72.5349 739.00
72.6001 747.00
72.6653 787.00
72.7305 801.00
72.7957 781.00
72.8609 787.00
72.9261 846.00
72.9913 853.00
73.0565 837.00
73.1217 760.00
73.1869 747.00
73.2521 790.00
73.3173 736.00
73.3825 682.00
73.4477 703.00
73.5129 672.00
73.5781 686.00
73.6433 636.00
73.7085 715.00
73.7737 655.00
73.8389 657.00
73.9041 646.00
73.9693 683.00
74.0345 666.00
74.0997 666.00
74.1649 626.00
74.2301 658.00
74.2953 669.00
74.3605 680.00
74.4257 681.00
74.4909 721.00
74.5561 671.00
74.6213 700.00
74.6865 664.00
74.7517 679.00
74.8169 710.00
74.8821 693.00
74.9473 709.00
75.0125 754.00
75.0777 815.00
75.1429 797.00
75.2081 803.00
75.2733 822.00
75.3385 824.00
75.4037 809.00
75.4689 760.00
75.5341 830.00
75.5993 790.00
75.6645 767.00
75.7297 799.00
75.7949 813.00
75.8601 902.00
75.9253 956.00
75.9905 1026.00
76.0557 1095.00
76.1209 1036.00
76.186 1050.00
76.2513 1069.00
76.3165 1022.00
76.3816 1001.00
76.4468 1121.00
76.512 1123.00
76.5772 1191.00
76.6424 1106.00
76.7076 1107.00
76.7728 1092.00
76.838 1072.00
76.9032 967.00
76.9684 1027.00
77.0336 1056.00
77.0988 1024.00
77.164 1062.00
77.2292 1161.00
77.2944 1149.00
77.3596 1283.00
77.4248 1407.00
77.49 1452.00
77.5552 1486.00
77.6204 1645.00
77.6856 1719.00
77.7508 1678.00
77.816 1589.00
77.8812 1448.00
77.9464 1365.00
78.0116 1325.00
78.0768 1154.00
78.142 1021.00
78.2072 1002.00
78.2724 931.00
78.3376 873.00
78.4028 881.00
78.468 912.00
78.5332 851.00
78.5984 872.00
78.6636 910.00
78.7288 959.00
78.794 957.00
78.8592 944.00
78.9244 858.00
78.9896 824.00
79.0548 790.00
79.12 745.00
79.1852 736.00
79.2504 787.00
79.3156 668.00
79.3808 658.00
79.446 727.00
79.5112 694.00
79.5764 647.00
79.6416 680.00
79.7068 680.00
79.772 631.00
79.8372 689.00
79.9024 681.00
79.9676 684.00
80.0328 663.00
80.098 648.00
80.1632 630.00
80.2284 668.00
80.2936 701.00
80.3588 747.00
80.424 677.00
80.4892 659.00
80.5544 682.00
80.6196 730.00
80.6848 731.00
80.75 667.00
80.8152 704.00
80.8804 641.00
80.9456 638.00
81.0108 681.00
81.076 681.00
81.1412 707.00
81.2063 653.00
81.2715 659.00
81.3367 635.00
81.4019 641.00
81.4671 662.00
81.5323 689.00
81.5975 610.00
81.6627 650.00
81.7279 677.00
81.7931 661.00
81.8583 676.00
81.9235 653.00
81.9887 666.00
82.0539 743.00
82.1191 724.00
82.1843 701.00
82.2495 794.00
82.3147 837.00
82.3799 855.00
82.4451 940.00
82.5103 1008.00
82.5755 1016.00
82.6407 1026.00
82.7059 1004.00
82.7711 990.00
82.8363 939.00
82.9015 849.00
82.9667 846.00
83.0319 790.00
83.0971 725.00
83.1623 781.00
83.2275 715.00
83.2927 703.00
83.3579 720.00
83.4231 670.00
83.4883 682.00
83.5535 747.00
83.6187 738.00
83.6839 689.00
83.7491 681.00
83.8143 697.00
83.8795 646.00
83.9447 727.00
84.0099 692.00
84.0751 635.00
84.1403 684.00
84.2055 669.00
84.2707 650.00
84.3359 635.00
84.4011 677.00
84.4663 652.00
84.5315 720.00
84.5967 636.00
84.6619 700.00
84.7271 681.00
84.7923 650.00
84.8575 722.00
84.9227 706.00
84.9879 709.00
85.0531 688.00
85.1183 708.00
85.1835 762.00
85.2487 752.00
85.3139 709.00
85.3791 750.00
85.4443 731.00
85.5095 687.00
85.5747 693.00
85.6399 742.00
85.7051 703.00
85.7703 705.00
85.8354 763.00
85.9006 653.00
85.9659 692.00
86.031 645.00
86.0962 680.00
86.1614 606.00
86.2266 649.00
86.2918 695.00
86.357 667.00
86.4222 636.00
86.4874 618.00
86.5526 669.00
86.6178 620.00
86.683 698.00
86.7482 621.00
86.8134 642.00
86.8786 653.00
86.9438 723.00
87.009 612.00
87.0742 653.00
87.1394 604.00
87.2046 700.00
87.2698 649.00
87.335 641.00
87.4002 682.00
87.4654 673.00
87.5306 671.00
87.5958 661.00
87.661 617.00
87.7262 655.00
87.7914 652.00
87.8566 673.00
87.9218 616.00
87.987 653.00
88.0522 666.00
88.1174 684.00
88.1826 650.00
88.2478 679.00
88.313 702.00
88.3782 745.00
88.4434 739.00
88.5086 757.00
88.5738 832.00
88.639 802.00
88.7042 896.00
88.7694 941.00
88.8346 1050.00
88.8998 1083.00
88.965 1053.00
89.0302 1053.00
89.0954 975.00
89.1606 1049.00
89.2258 875.00
89.291 909.00
89.3562 867.00
89.4214 847.00
89.4866 790.00
89.5518 788.00
89.617 766.00
89.6822 776.00
89.7474 752.00
89.8126 762.00
89.8778 784.00
89.943 750.00
90.0082 789.00
90.0734 799.00
90.1386 873.00
90.2038 844.00
90.269 913.00
90.3342 897.00
90.3994 910.00
90.4646 954.00
90.5298 969.00
90.595 931.00
90.6601 897.00
90.7253 935.00
90.7905 855.00
90.8557 851.00
90.9209 780.00
90.9861 749.00
91.0513 762.00
91.1165 789.00
91.1817 757.00
91.2469 778.00
91.3121 798.00
91.3773 768.00
91.4425 795.00
91.5077 758.00
91.5729 835.00
91.6381 797.00
91.7033 833.00
91.7685 799.00
91.8337 758.00
91.8989 715.00
91.9641 696.00
92.0293 730.00
92.0945 758.00
92.1597 738.00
92.2249 701.00
92.2901 684.00
92.3553 728.00
92.4205 754.00
92.4857 684.00
92.5509 716.00
92.6161 708.00
92.6813 712.00
92.7465 685.00
92.8117 655.00
92.8769 607.00
92.9421 646.00
93.0073 631.00
93.0725 684.00
93.1377 660.00
93.2029 669.00
93.2681 668.00
93.3333 667.00
93.3985 656.00
93.4637 685.00
93.5289 645.00
93.5941 623.00
93.6593 621.00
93.7245 607.00
93.7897 613.00
93.8549 649.00
93.9201 621.00
93.9853 638.00
94.0505 639.00
94.1157 625.00
94.1809 661.00
94.2461 648.00
94.3113 689.00
94.3765 652.00
94.4417 648.00
94.5069 612.00
94.5721 648.00
94.6373 627.00
94.7025 658.00
94.7677 662.00
94.8329 701.00
94.8981 689.00
94.9633 671.00
95.0285 698.00
95.0937 653.00
95.1589 778.00
95.2241 749.00
95.2893 750.00
95.3545 810.00
95.4197 817.00
95.4848 814.00
95.55 902.00
95.6153 918.00
95.6804 990.00
95.7456 1016.00
95.8108 1020.00
95.876 1033.00
95.9412 1060.00
96.0064 1023.00
96.0716 983.00
96.1368 938.00
96.202 899.00
96.2672 900.00
96.3324 901.00
96.3976 837.00
96.4628 848.00
96.528 828.00
96.5932 872.00
96.6584 863.00
96.7236 894.00
96.7888 905.00
96.854 885.00
96.9192 883.00
96.9844 936.00
97.0496 932.00
97.1148 965.00
97.18 949.00
97.2452 892.00
97.3104 864.00
97.3756 835.00
97.4408 789.00
97.506 806.00
97.5712 760.00
97.6364 712.00
97.7016 717.00
97.7668 741.00
97.832 676.00
97.8972 672.00
97.9624 656.00
98.0276 690.00
98.0928 688.00
98.158 721.00
98.2232 675.00
98.2884 726.00
98.3536 729.00
98.4188 669.00
98.484 681.00
98.5492 669.00
98.6144 702.00
98.6796 708.00
98.7448 762.00
98.81 663.00
98.8752 691.00
98.9404 651.00
99.0056 709.00
99.0708 683.00
99.136 681.00
99.2012 716.00
99.2664 718.00
99.3316 689.00
99.3968 725.00
99.462 675.00
99.5272 641.00
99.5924 683.00
99.6576 681.00
99.7228 644.00
99.788 718.00
99.8532 657.00
99.9184 641.00
99.9836 659.00
99.9944 670.00