File: data/xrd_creation/results/PG_1619-1.xy
10.0094 2352.00
10.0746 2358.00
10.1398 2424.00
10.205 2428.00
10.2702 2410.00
10.3354 2330.00
10.4006 2421.00
10.4658 2391.00
10.531 2321.00
10.5962 2411.00
10.6614 2371.00
10.7266 2291.00
10.7918 2284.00
10.857 2375.00
10.9222 2342.00
10.9874 2411.00
11.0526 2481.00
11.1178 2618.00
11.183 2735.00
11.2482 3037.00
11.3134 3562.00
11.3786 4176.00
11.4438 4843.00
11.509 5643.00
11.5742 5830.00
11.6394 5289.00
11.7046 4258.00
11.7698 3126.00
11.835 2493.00
11.9002 2233.00
11.9654 2143.00
12.0306 2214.00
12.0958 2166.00
12.161 1965.00
12.2262 2001.00
12.2914 2005.00
12.3566 2011.00
12.4218 1870.00
12.487 1866.00
12.5522 1845.00
12.6174 1681.00
12.6826 1756.00
12.7478 1806.00
12.813 1705.00
12.8782 1777.00
12.9434 1732.00
13.0086 1664.00
13.0738 1702.00
13.139 1667.00
13.2042 1624.00
13.2694 1636.00
13.3346 1603.00
13.3998 1645.00
13.465 1612.00
13.5302 1556.00
13.5954 1562.00
13.6606 1472.00
13.7258 1592.00
13.791 1487.00
13.8562 1470.00
13.9214 1549.00
13.9865 1483.00
14.0517 1490.00
14.1169 1459.00
14.1821 1448.00
14.2473 1383.00
14.3125 1458.00
14.3777 1476.00
14.4429 1406.00
14.5081 1447.00
14.5733 1457.00
14.6385 1453.00
14.7037 1519.00
14.7689 1436.00
14.8341 1554.00
14.8993 1633.00
14.9645 1834.00
15.0297 1838.00
15.0949 1810.00
15.1601 1693.00
15.2253 1583.00
15.2905 1392.00
15.3557 1414.00
15.4209 1315.00
15.4861 1392.00
15.5513 1340.00
15.6165 1310.00
15.6817 1326.00
15.7469 1337.00
15.8121 1357.00
15.8773 1378.00
15.9425 1335.00
16.0077 1391.00
16.0729 1379.00
16.1381 1468.00
16.2033 1455.00
16.2685 1517.00
16.3337 1483.00
16.3989 1446.00
16.4641 1354.00
16.5293 1323.00
16.5945 1290.00
16.6597 1275.00
16.7249 1282.00
16.7901 1252.00
16.8553 1271.00
16.9205 1226.00
16.9857 1317.00
17.0509 1260.00
17.1161 1305.00
17.1813 1223.00
17.2465 1288.00
17.3117 1340.00
17.3769 1426.00
17.4421 1499.00
17.5073 1662.00
17.5725 1665.00
17.6377 1631.00
17.7029 1499.00
17.7681 1416.00
17.8333 1297.00
17.8985 1241.00
17.9637 1256.00
18.0289 1319.00
18.0941 1298.00
18.1593 1374.00
18.2245 1420.00
18.2897 1389.00
18.3549 1275.00
18.4201 1184.00
18.4853 1194.00
18.5505 1148.00
18.6157 1150.00
18.6809 1193.00
18.7461 1168.00
18.8112 1192.00
18.8764 1147.00
18.9416 1135.00
19.0068 1194.00
19.072 1199.00
19.1372 1241.00
19.2024 1215.00
19.2676 1194.00
19.3328 1129.00
19.398 1168.00
19.4632 1168.00
19.5284 1198.00
19.5936 1246.00
19.6588 1266.00
19.724 1389.00
19.7892 1625.00
19.8544 1827.00
19.9196 2029.00
19.9848 2050.00
20.05 1994.00
20.1152 1629.00
20.1804 1466.00
20.2456 1264.00
20.3108 1191.00
20.376 1099.00
20.4412 1130.00
20.5064 1134.00
20.5716 1066.00
20.6368 1083.00
20.702 1114.00
20.7672 1162.00
20.8324 1134.00
20.8976 1084.00
20.9628 1048.00
21.028 1060.00
21.0932 1086.00
21.1584 1047.00
21.2236 1048.00
21.2888 967.00
21.354 1022.00
21.4192 986.00
21.4844 1013.00
21.5496 962.00
21.6148 1067.00
21.68 1017.00
21.7452 1017.00
21.8104 1064.00
21.8756 1060.00
21.9408 1066.00
22.006 1046.00
22.0712 1022.00
22.1364 976.00
22.2016 1017.00
22.2668 1093.00
22.332 1042.00
22.3972 1038.00
22.4624 1024.00
22.5276 991.00
22.5928 1102.00
22.658 1150.00
22.7232 1230.00
22.7884 1280.00
22.8536 1327.00
22.9188 1581.00
22.984 2036.00
23.0492 2303.00
23.1144 2250.00
23.1796 2154.00
23.2448 1854.00
23.31 1505.00
23.3752 1232.00
23.4404 1115.00
23.5056 1207.00
23.5708 1174.00
23.6359 1245.00
23.7011 1177.00
23.7663 1173.00
23.8315 1022.00
23.8967 1038.00
23.9619 1001.00
24.0271 969.00
24.0923 1015.00
24.1575 1135.00
24.2227 1126.00
24.2879 1130.00
24.3531 1122.00
24.4183 1021.00
24.4835 1062.00
24.5487 1049.00
24.6139 979.00
24.6791 1031.00
24.7443 1082.00
24.8095 1032.00
24.8747 1057.00
24.9399 1031.00
25.0051 1071.00
25.0703 1104.00
25.1355 1150.00
25.2007 1140.00
25.2659 1041.00
25.3311 1027.00
25.3963 966.00
25.4615 962.00
25.5267 987.00
25.5919 972.00
25.6571 1014.00
25.7223 1045.00
25.7875 1063.00
25.8527 1186.00
25.9179 1087.00
25.9831 1176.00
26.0483 1091.00
26.1135 1095.00
26.1787 1022.00
26.2439 1008.00
26.3091 1028.00
26.3743 937.00
26.4395 902.00
26.5047 883.00
26.5699 939.00
26.6351 869.00
26.7003 922.00
26.7655 913.00
26.8307 921.00
26.8959 899.00
26.9611 894.00
27.0263 890.00
27.0915 882.00
27.1567 871.00
27.2219 900.00
27.2871 956.00
27.3523 973.00
27.4175 946.00
27.4827 978.00
27.5479 1020.00
27.6131 1021.00
27.6783 1005.00
27.7435 1093.00
27.8087 1054.00
27.8739 1066.00
27.9391 1162.00
28.0043 1211.00
28.0695 1490.00
28.1347 1765.00
28.1999 2376.00
28.2651 3068.00
28.3303 3579.00
28.3955 3682.00
28.4606 3314.00
28.5258 2714.00
28.591 2159.00
28.6562 1664.00
28.7214 1384.00
28.7866 1269.00
28.8518 1175.00
28.917 1188.00
28.9822 1096.00
29.0474 1065.00
29.1126 1045.00
29.1778 1019.00
29.243 1046.00
29.3082 1173.00
29.3734 1161.00
29.4386 1180.00
29.5038 1190.00
29.569 1115.00
29.6342 1134.00
29.6994 1057.00
29.7646 989.00
29.8298 964.00
29.895 961.00
29.9602 1096.00
30.0254 1148.00
30.0906 1242.00
30.1558 1367.00
30.221 1314.00
30.2862 1247.00
30.3514 1175.00
30.4166 1080.00
30.4818 916.00
30.547 908.00
30.6122 962.00
30.6774 979.00
30.7426 893.00
30.8078 936.00
30.873 861.00
30.9382 962.00
31.0034 933.00
31.0686 1086.00
31.1338 1183.00
31.199 1501.00
31.2642 1886.00
31.3294 2201.00
31.3946 2537.00
31.4598 2626.00
31.525 2967.00
31.5902 3142.00
31.6554 3122.00
31.7206 2834.00
31.7858 2547.00
31.851 2387.00
31.9162 2448.00
31.9814 2530.00
32.0466 2422.00
32.1118 1999.00
32.177 1541.00
32.2422 1260.00
32.3074 1168.00
32.3726 1047.00
32.4378 1065.00
32.503 1143.00
32.5682 1384.00
32.6334 1666.00
32.6986 2148.00
32.7638 2508.00
32.829 2758.00
32.8942 2601.00
32.9594 2240.00
33.0246 1981.00
33.0898 1532.00
33.1549 1255.00
33.2201 1117.00
33.2853 1026.00
33.3505 940.00
33.4157 1009.00
33.4809 999.00
33.5461 945.00
33.6113 922.00
33.6765 982.00
33.7417 1025.00
33.8069 973.00
33.8721 911.00
33.9373 941.00
34.0025 954.00
34.0677 1036.00
34.1329 1096.00
34.1981 1083.00
34.2633 1168.00
34.3285 1179.00
34.3937 1125.00
34.4589 1227.00
34.5241 1109.00
34.5893 1121.00
34.6545 1140.00
34.7197 1351.00
34.7849 1651.00
34.8501 1809.00
34.9153 1840.00
34.9805 1831.00
35.0457 1517.00
35.1109 1247.00
35.1761 1040.00
35.2413 984.00
35.3065 1025.00
35.3717 1093.00
35.4369 1158.00
35.5021 1257.00
35.5673 1152.00
35.6325 1133.00
35.6977 1013.00
35.7629 943.00
35.8281 942.00
35.8933 995.00
35.9585 1078.00
36.0237 1063.00
36.0889 1120.00
36.1541 1071.00
36.2193 1033.00
36.2845 942.00
36.3497 906.00
36.4149 939.00
36.4801 973.00
36.5453 1133.00
36.6105 1376.00
36.6757 1860.00
36.7409 2372.00
36.8061 2806.00
36.8713 3037.00
36.9365 2723.00
37.0017 2230.00
37.0669 1687.00
37.1321 1271.00
37.1973 1088.00
37.2625 910.00
37.3277 922.00
37.3929 900.00
37.4581 833.00
37.5233 830.00
37.5885 850.00
37.6537 870.00
37.7189 937.00
37.7841 988.00
37.8493 991.00
37.9145 988.00
37.9796 1013.00
38.0448 977.00
38.11 934.00
38.1752 948.00
38.2404 930.00
38.3056 894.00
38.3708 921.00
38.436 1055.00
38.5012 1313.00
38.5664 1551.00
38.6316 1777.00
38.6968 1860.00
38.762 1894.00
38.8272 1651.00
38.8924 1302.00
38.9576 1072.00
39.0228 899.00
39.088 806.00
39.1532 832.00
39.2184 860.00
39.2836 906.00
39.3488 871.00
39.414 800.00
39.4792 836.00
39.5444 772.00
39.6096 793.00
39.6748 830.00
39.74 799.00
39.8052 855.00
39.8704 863.00
39.9356 787.00
40.0008 723.00
40.066 759.00
40.1312 710.00
40.1964 759.00
40.2616 922.00
40.3268 1073.00
40.392 1055.00
40.4572 1216.00
40.5224 1103.00
40.5876 1162.00
40.6528 983.00
40.718 922.00
40.7832 869.00
40.8484 795.00
40.9136 796.00
40.9788 804.00
41.044 712.00
41.1092 795.00
41.1744 815.00
41.2396 794.00
41.3048 814.00
41.37 697.00
41.4352 733.00
41.5004 643.00
41.5656 642.00
41.6308 616.00
41.696 630.00
41.7612 630.00
41.8264 644.00
41.8916 654.00
41.9568 604.00
42.022 721.00
42.0872 599.00
42.1524 603.00
42.2176 681.00
42.2828 709.00
42.348 625.00
42.4132 667.00
42.4784 657.00
42.5436 635.00
42.6088 696.00
42.6739 748.00
42.7392 694.00
42.8043 676.00
42.8695 669.00
42.9347 603.00
42.9999 574.00
43.0651 592.00
43.1303 574.00
43.1955 557.00
43.2607 578.00
43.3259 612.00
43.3911 556.00
43.4563 623.00
43.5215 610.00
43.5867 639.00
43.6519 711.00
43.7171 803.00
43.7823 818.00
43.8475 951.00
43.9127 910.00
43.9779 859.00
44.0431 842.00
44.1083 742.00
44.1735 722.00
44.2387 709.00
44.3039 667.00
44.3691 671.00
44.4343 692.00
44.4995 631.00
44.5647 676.00
44.6299 615.00
44.6951 664.00
44.7603 599.00
44.8255 638.00
44.8907 633.00
44.9559 659.00
45.0211 637.00
45.0863 656.00
45.1515 634.00
45.2167 610.00
45.2819 611.00
45.3471 569.00
45.4123 547.00
45.4775 543.00
45.5427 527.00
45.6079 562.00
45.6731 568.00
45.7383 543.00
45.8035 554.00
45.8687 585.00
45.9339 524.00
45.9991 534.00
46.0643 570.00
46.1295 593.00
46.1947 577.00
46.2599 541.00
46.3251 575.00
46.3903 580.00
46.4555 550.00
46.5207 531.00
46.5859 518.00
46.6511 519.00
46.7163 562.00
46.7815 509.00
46.8467 576.00
46.9119 669.00
46.9771 743.00
47.0423 760.00
47.1075 738.00
47.1727 749.00
47.2379 739.00
47.3031 620.00
47.3683 603.00
47.4335 533.00
47.4986 509.00
47.5639 592.00
47.629 639.00
47.6942 586.00
47.7594 609.00
47.8246 565.00
47.8898 595.00
47.955 598.00
48.0202 607.00
48.0854 659.00
48.1506 676.00
48.2158 674.00
48.281 707.00
48.3462 717.00
48.4114 798.00
48.4766 893.00
48.5418 1058.00
48.607 1120.00
48.6722 988.00
48.7374 1030.00
48.8026 850.00
48.8678 799.00
48.933 674.00
48.9982 637.00
49.0634 606.00
49.1286 602.00
49.1938 640.00
49.259 692.00
49.3242 744.00
49.3894 855.00
49.4546 741.00
49.5198 786.00
49.585 775.00
49.6502 772.00
49.7154 869.00
49.7806 1064.00
49.8458 1060.00
49.911 1246.00
49.9762 1221.00
50.0414 1330.00
50.1066 1352.00
50.1718 1307.00
50.237 1138.00
50.3022 1021.00
50.3674 916.00
50.4326 761.00
50.4978 697.00
50.563 639.00
50.6282 601.00
50.6934 586.00
50.7586 577.00
50.8238 598.00
50.889 590.00
50.9542 621.00
51.0194 618.00
51.0846 665.00
51.1498 655.00
51.215 627.00
51.2802 607.00
51.3454 618.00
51.4106 612.00
51.4758 652.00
51.541 669.00
51.6062 652.00
51.6714 652.00
51.7366 683.00
51.8018 666.00
51.867 623.00
51.9322 640.00
51.9974 586.00
52.0626 538.00
52.1278 610.00
52.193 628.00
52.2582 616.00
52.3233 654.00
52.3886 640.00
52.4537 668.00
52.5189 612.00
52.5841 610.00
52.6493 574.00
52.7145 588.00
52.7797 672.00
52.8449 810.00
52.9101 870.00
52.9753 971.00
53.0405 1096.00
53.1057 1056.00
53.1709 1054.00
53.2361 961.00
53.3013 851.00
53.3665 756.00
53.4317 703.00
53.4969 799.00
53.5621 978.00
53.6273 1011.00
53.6925 990.00
53.7577 964.00
53.8229 808.00
53.8881 686.00
53.9533 628.00
54.0185 620.00
54.0837 576.00
54.1489 597.00
54.2141 591.00
54.2793 655.00
54.3445 641.00
54.4097 630.00
54.4749 645.00
54.5401 629.00
54.6053 606.00
54.6705 565.00
54.7357 510.00
54.8009 519.00
54.8661 475.00
54.9313 545.00
54.9965 483.00
55.0617 485.00
55.1269 479.00
55.1921 499.00
55.2573 534.00
55.3225 532.00
55.3877 536.00
55.4529 532.00
55.5181 609.00
55.5833 721.00
55.6485 797.00
55.7137 840.00
55.7789 784.00
55.8441 775.00
55.9093 670.00
55.9745 594.00
56.0397 569.00
56.1049 564.00
56.1701 610.00
56.2353 647.00
56.3005 738.00
56.3657 731.00
56.4309 720.00
56.4961 663.00
56.5613 580.00
56.6265 579.00
56.6917 549.00
56.7569 599.00
56.8221 612.00
56.8873 582.00
56.9525 651.00
57.0177 642.00
57.0829 677.00
57.148 645.00
57.2132 636.00
57.2784 539.00
57.3436 543.00
57.4088 499.00
57.474 518.00
57.5392 465.00
57.6044 484.00
57.6696 495.00
57.7348 508.00
57.8 511.00
57.8652 514.00
57.9304 497.00
57.9956 477.00
58.0608 501.00
58.126 468.00
58.1912 491.00
58.2564 556.00
58.3216 613.00
58.3868 669.00
58.452 658.00
58.5172 703.00
58.5824 733.00
58.6476 750.00
58.7128 756.00
58.778 781.00
58.8432 716.00
58.9084 724.00
58.9736 673.00
59.0388 589.00
59.104 603.00
59.1692 563.00
59.2344 601.00
59.2996 577.00
59.3648 660.00
59.43 708.00
59.4952 741.00
59.5604 764.00
59.6256 781.00
59.6908 774.00
59.756 888.00
59.8212 896.00
59.8864 943.00
59.9516 1019.00
60.0168 980.00
60.082 942.00
60.1472 837.00
60.2124 771.00
60.2776 680.00
60.3428 592.00
60.408 558.00
60.4732 522.00
60.5384 517.00
60.6036 490.00
60.6688 470.00
60.734 563.00
60.7992 536.00
60.8644 520.00
60.9296 570.00
60.9948 681.00
61.06 664.00
61.1252 747.00
61.1904 702.00
61.2556 680.00
61.3208 677.00
61.386 635.00
61.4512 581.00
61.5164 633.00
61.5816 620.00
61.6468 615.00
61.712 628.00
61.7772 628.00
61.8424 589.00
61.9076 602.00
61.9727 573.00
62.0379 571.00
62.1031 608.00
62.1683 576.00
62.2335 615.00
62.2987 702.00
62.3639 814.00
62.4291 770.00
62.4943 830.00
62.5595 807.00
62.6247 763.00
62.6899 690.00
62.7551 596.00
62.8203 596.00
62.8855 556.00
62.9507 502.00
63.0159 567.00
63.0811 565.00
63.1463 643.00
63.2115 614.00
63.2767 698.00
63.3419 675.00
63.4071 676.00
63.4723 744.00
63.5375 737.00
63.6027 690.00
63.6679 633.00
63.7331 594.00
63.7983 483.00
63.8635 472.00
63.9287 444.00
63.9939 421.00
64.0591 420.00
64.1243 436.00
64.1895 427.00
64.2547 400.00
64.3199 450.00
64.3851 440.00
64.4503 471.00
64.5155 410.00
64.5807 429.00
64.6459 456.00
64.7111 444.00
64.7763 436.00
64.8415 451.00
64.9067 416.00
64.9719 453.00
65.0371 466.00
65.1023 453.00
65.1675 496.00
65.2327 506.00
65.2979 459.00
65.3631 496.00
65.4283 537.00
65.4935 508.00
65.5587 444.00
65.6239 469.00
65.6891 480.00
65.7543 497.00
65.8195 532.00
65.8847 576.00
65.9499 585.00
66.0151 698.00
66.0803 671.00
66.1455 716.00
66.2107 764.00
66.2759 696.00
66.3411 762.00
66.4063 760.00
66.4715 675.00
66.5367 652.00
66.6019 649.00
66.6671 651.00
66.7322 716.00
66.7974 666.00
66.8626 643.00
66.9278 598.00
66.993 524.00
67.0582 505.00
67.1234 513.00
67.1886 443.00
67.2538 457.00
67.319 497.00
67.3842 438.00
67.4494 501.00
67.5146 480.00
67.5798 447.00
67.645 453.00
67.7102 430.00
67.7754 463.00
67.8406 449.00
67.9058 444.00
67.971 456.00
68.0362 466.00
68.1014 481.00
68.1666 459.00
68.2318 493.00
68.297 481.00
68.3622 569.00
68.4274 653.00
68.4926 720.00
68.5578 710.00
68.623 826.00
68.6882 800.00
68.7534 813.00
68.8186 925.00
68.8838 917.00
68.949 892.00
69.0142 804.00
69.0794 781.00
69.1446 747.00
69.2098 665.00
69.275 624.00
69.3402 602.00
69.4054 647.00
69.4706 683.00
69.5358 693.00
69.601 766.00
69.6662 746.00
69.7314 869.00
69.7966 888.00
69.8618 865.00
69.927 922.00
69.9922 856.00
70.0574 892.00
70.1226 823.00
70.1878 712.00
70.253 749.00
70.3182 579.00
70.3834 610.00
70.4486 586.00
70.5138 532.00
70.579 519.00
70.6442 453.00
70.7094 508.00
70.7746 492.00
70.8398 471.00
70.905 532.00
70.9702 578.00
71.0354 545.00
71.1006 585.00
71.1658 560.00
71.231 543.00
71.2962 561.00
71.3614 527.00
71.4266 498.00
71.4918 535.00
71.5569 559.00
71.6221 567.00
71.6873 586.00
71.7525 614.00
71.8177 566.00
71.8829 557.00
71.9481 552.00
72.0133 543.00
72.0785 582.00
72.1437 579.00
72.2089 564.00
72.2741 595.00
72.3393 606.00
72.4045 534.00
72.4697 580.00
72.5349 532.00
72.6001 535.00
72.6653 544.00
72.7305 438.00
72.7957 442.00
72.8609 446.00
72.9261 441.00
72.9913 500.00
73.0565 422.00
73.1217 434.00
73.1869 442.00
73.2521 458.00
73.3173 458.00
73.3825 498.00
73.4477 498.00
73.5129 490.00
73.5781 523.00
73.6433 505.00
73.7085 504.00
73.7737 523.00
73.8389 508.00
73.9041 471.00
73.9693 507.00
74.0345 498.00
74.0997 484.00
74.1649 514.00
74.2301 474.00
74.2953 529.00
74.3605 456.00
74.4257 444.00
74.4909 475.00
74.5561 439.00
74.6213 493.00
74.6865 444.00
74.7517 485.00
74.8169 480.00
74.8821 421.00
74.9473 464.00
75.0125 418.00
75.0777 445.00
75.1429 448.00
75.2081 387.00
75.2733 439.00
75.3385 389.00
75.4037 424.00
75.4689 404.00
75.5341 434.00
75.5993 437.00
75.6645 537.00
75.7297 564.00
75.7949 653.00
75.8601 605.00
75.9253 691.00
75.9905 634.00
76.0557 645.00
76.1209 585.00
76.186 621.00
76.2513 551.00
76.3165 569.00
76.3816 547.00
76.4468 498.00
76.512 497.00
76.5772 486.00
76.6424 448.00
76.7076 468.00
76.7728 433.00
76.838 391.00
76.9032 399.00
76.9684 385.00
77.0336 379.00
77.0988 367.00
77.164 373.00
77.2292 398.00
77.2944 362.00
77.3596 387.00
77.4248 347.00
77.49 393.00
77.5552 365.00
77.6204 373.00
77.6856 356.00
77.7508 337.00
77.816 353.00
77.8812 374.00
77.9464 351.00
78.0116 380.00
78.0768 416.00
78.142 402.00
78.2072 407.00
78.2724 458.00
78.3376 410.00
78.4028 493.00
78.468 471.00
78.5332 420.00
78.5984 486.00
78.6636 458.00
78.7288 471.00
78.794 446.00
78.8592 450.00
78.9244 448.00
78.9896 427.00
79.0548 499.00
79.12 517.00
79.1852 489.00
79.2504 518.00
79.3156 532.00
79.3808 554.00
79.446 555.00
79.5112 531.00
79.5764 514.00
79.6416 484.00
79.7068 551.00
79.772 488.00
79.8372 447.00
79.9024 448.00
79.9676 397.00
80.0328 415.00
80.098 400.00
80.1632 402.00
80.2284 390.00
80.2936 413.00
80.3588 402.00
80.424 381.00
80.4892 395.00
80.5544 390.00
80.6196 382.00
80.6848 374.00
80.75 400.00
80.8152 413.00
80.8804 399.00
80.9456 385.00
81.0108 423.00
81.076 431.00
81.1412 443.00
81.2063 456.00
81.2715 472.00
81.3367 462.00
81.4019 496.00
81.4671 580.00
81.5323 524.00
81.5975 613.00
81.6627 481.00
81.7279 474.00
81.7931 416.00
81.8583 406.00
81.9235 393.00
81.9887 395.00
82.0539 417.00
82.1191 456.00
82.1843 403.00
82.2495 440.00
82.3147 436.00
82.3799 411.00
82.4451 412.00
82.5103 399.00
82.5755 410.00
82.6407 418.00
82.7059 400.00
82.7711 373.00
82.8363 389.00
82.9015 418.00
82.9667 340.00
83.0319 383.00
83.0971 373.00
83.1623 384.00
83.2275 418.00
83.2927 369.00
83.3579 377.00
83.4231 374.00
83.4883 377.00
83.5535 421.00
83.6187 401.00
83.6839 409.00
83.7491 409.00
83.8143 423.00
83.8795 386.00
83.9447 384.00
84.0099 386.00
84.0751 401.00
84.1403 391.00
84.2055 392.00
84.2707 357.00
84.3359 388.00
84.4011 356.00
84.4663 356.00
84.5315 392.00
84.5967 371.00
84.6619 368.00
84.7271 363.00
84.7923 351.00
84.8575 351.00
84.9227 384.00
84.9879 369.00
85.0531 369.00
85.1183 400.00
85.1835 405.00
85.2487 374.00
85.3139 388.00
85.3791 348.00
85.4443 378.00
85.5095 345.00
85.5747 346.00
85.6399 351.00
85.7051 340.00
85.7703 357.00
85.8354 354.00
85.9006 331.00
85.9659 360.00
86.031 344.00
86.0962 335.00
86.1614 346.00
86.2266 361.00
86.2918 335.00
86.357 319.00
86.4222 361.00
86.4874 364.00
86.5526 340.00
86.6178 358.00
86.683 359.00
86.7482 364.00
86.8134 364.00
86.8786 326.00
86.9438 330.00
87.009 359.00
87.0742 343.00
87.1394 382.00
87.2046 358.00
87.2698 358.00
87.335 382.00
87.4002 368.00
87.4654 358.00
87.5306 368.00
87.5958 367.00
87.661 409.00
87.7262 422.00
87.7914 395.00
87.8566 448.00
87.9218 421.00
87.987 412.00
88.0522 389.00
88.1174 414.00
88.1826 414.00
88.2478 394.00
88.313 383.00
88.3782 395.00
88.4434 394.00
88.5086 420.00
88.5738 419.00
88.639 440.00
88.7042 435.00
88.7694 392.00
88.8346 418.00
88.8998 382.00
88.965 375.00
89.0302 380.00
89.0954 371.00
89.1606 353.00
89.2258 360.00
89.291 335.00
89.3562 395.00
89.4214 381.00
89.4866 371.00
89.5518 399.00
89.617 403.00
89.6822 399.00
89.7474 412.00
89.8126 421.00
89.8778 447.00
89.943 422.00
90.0082 399.00
90.0734 421.00
90.1386 436.00
90.2038 443.00
90.269 444.00
90.3342 407.00
90.3994 413.00
90.4646 436.00
90.5298 446.00
90.595 403.00
90.6601 421.00
90.7253 427.00
90.7905 420.00
90.8557 394.00
90.9209 370.00
90.9861 402.00
91.0513 397.00
91.1165 376.00
91.1817 388.00
91.2469 380.00
91.3121 380.00
91.3773 385.00
91.4425 394.00
91.5077 370.00
91.5729 370.00
91.6381 353.00
91.7033 366.00
91.7685 371.00
91.8337 357.00
91.8989 355.00
91.9641 357.00
92.0293 345.00
92.0945 329.00
92.1597 315.00
92.2249 343.00
92.2901 336.00
92.3553 332.00
92.4205 371.00
92.4857 360.00
92.5509 377.00
92.6161 364.00
92.6813 351.00
92.7465 384.00
92.8117 387.00
92.8769 398.00
92.9421 369.00
93.0073 354.00
93.0725 366.00
93.1377 340.00
93.2029 364.00
93.2681 371.00
93.3333 349.00
93.3985 383.00
93.4637 351.00
93.5289 354.00
93.5941 395.00
93.6593 384.00
93.7245 380.00
93.7897 328.00
93.8549 378.00
93.9201 369.00
93.9853 329.00
94.0505 363.00
94.1157 394.00
94.1809 394.00
94.2461 433.00
94.3113 455.00
94.3765 416.00
94.4417 397.00
94.5069 382.00
94.5721 380.00
94.6373 429.00
94.7025 388.00
94.7677 384.00
94.8329 366.00
94.8981 356.00
94.9633 381.00
95.0285 366.00
95.0937 363.00
95.1589 345.00
95.2241 362.00
95.2893 305.00
95.3545 336.00
95.4197 355.00
95.4848 344.00
95.55 311.00
95.6153 300.00
95.6804 345.00
95.7456 346.00
95.8108 305.00
95.876 324.00
95.9412 331.00
96.0064 347.00
96.0716 393.00
96.1368 335.00
96.202 334.00
96.2672 348.00
96.3324 356.00
96.3976 342.00
96.4628 366.00
96.528 379.00
96.5932 384.00
96.6584 383.00
96.7236 392.00
96.7888 353.00
96.854 362.00
96.9192 388.00
96.9844 375.00
97.0496 400.00
97.1148 408.00
97.18 453.00
97.2452 430.00
97.3104 390.00
97.3756 389.00
97.4408 441.00
97.506 399.00
97.5712 394.00
97.6364 398.00
97.7016 425.00
97.7668 380.00
97.832 394.00
97.8972 360.00
97.9624 356.00
98.0276 389.00
98.0928 368.00
98.158 366.00
98.2232 395.00
98.2884 373.00
98.3536 329.00
98.4188 372.00
98.484 395.00
98.5492 418.00
98.6144 427.00
98.6796 384.00
98.7448 385.00
98.81 400.00
98.8752 441.00
98.9404 395.00
99.0056 373.00
99.0708 388.00
99.136 409.00
99.2012 414.00
99.2664 405.00
99.3316 402.00
99.3968 352.00
99.462 359.00
99.5272 358.00
99.5924 386.00
99.6576 426.00
99.7228 425.00
99.788 401.00
99.8532 422.00
99.9184 436.00
99.9836 410.00
99.9944 424.00