File: data/xrd_creation/results/PG_1746-1.xy
9.903433 2270.00
9.968632 2182.00
10.0338 2209.00
10.099 2161.00
10.1642 2250.00
10.2294 2125.00
10.2946 2173.00
10.3598 2150.00
10.425 2173.00
10.4902 2086.00
10.5554 2160.00
10.6206 2148.00
10.6858 2068.00
10.751 2061.00
10.8162 2081.00
10.8814 2023.00
10.9466 2078.00
11.0118 2041.00
11.077 1960.00
11.1422 1938.00
11.2074 1953.00
11.2726 1951.00
11.3378 1856.00
11.403 1895.00
11.4682 1864.00
11.5334 1837.00
11.5986 1892.00
11.6638 1885.00
11.729 1889.00
11.7942 1830.00
11.8594 1854.00
11.9246 1724.00
11.9898 1837.00
12.055 1725.00
12.1202 1744.00
12.1854 1673.00
12.2506 1692.00
12.3158 1703.00
12.381 1679.00
12.4462 1735.00
12.5114 1697.00
12.5766 1653.00
12.6418 1643.00
12.707 1630.00
12.7722 1651.00
12.8374 1563.00
12.9026 1582.00
12.9678 1553.00
13.033 1628.00
13.0982 1572.00
13.1634 1525.00
13.2286 1565.00
13.2938 1545.00
13.359 1562.00
13.4242 1525.00
13.4894 1577.00
13.5546 1511.00
13.6198 1478.00
13.685 1484.00
13.7502 1392.00
13.8154 1446.00
13.8805 1386.00
13.9457 1462.00
14.0109 1443.00
14.0761 1414.00
14.1413 1434.00
14.2065 1436.00
14.2717 1413.00
14.3369 1394.00
14.4021 1446.00
14.4673 1418.00
14.5325 1413.00
14.5977 1304.00
14.6629 1342.00
14.7281 1398.00
14.7933 1379.00
14.8585 1318.00
14.9237 1368.00
14.9889 1306.00
15.0541 1318.00
15.1193 1355.00
15.1845 1322.00
15.2497 1276.00
15.3149 1314.00
15.3801 1323.00
15.4453 1276.00
15.5105 1270.00
15.5757 1319.00
15.6409 1243.00
15.7061 1336.00
15.7713 1255.00
15.8365 1275.00
15.9017 1301.00
15.9669 1294.00
16.0321 1273.00
16.0973 1322.00
16.1625 1221.00
16.2277 1272.00
16.2929 1314.00
16.3581 1282.00
16.4233 1286.00
16.4885 1269.00
16.5537 1228.00
16.6189 1199.00
16.6841 1269.00
16.7493 1251.00
16.8145 1238.00
16.8797 1271.00
16.9449 1214.00
17.0101 1223.00
17.0753 1244.00
17.1405 1224.00
17.2057 1234.00
17.2709 1197.00
17.3361 1283.00
17.4013 1252.00
17.4665 1199.00
17.5317 1252.00
17.5969 1239.00
17.6621 1254.00
17.7273 1149.00
17.7925 1233.00
17.8577 1287.00
17.9229 1334.00
17.9881 1299.00
18.0533 1189.00
18.1185 1215.00
18.1837 1050.00
18.2489 1122.00
18.3141 1137.00
18.3793 1102.00
18.4445 1080.00
18.5097 1061.00
18.5749 1071.00
18.6401 1071.00
18.7052 1088.00
18.7704 1069.00
18.8356 1068.00
18.9008 1053.00
18.966 1092.00
19.0312 1039.00
19.0964 1103.00
19.1616 1085.00
19.2268 1099.00
19.292 1074.00
19.3572 1031.00
19.4224 1000.00
19.4876 960.00
19.5528 1039.00
19.618 1039.00
19.6832 1042.00
19.7484 992.00
19.8136 983.00
19.8788 1010.00
19.944 1012.00
20.0092 972.00
20.0744 1006.00
20.1396 1012.00
20.2048 1025.00
20.27 969.00
20.3352 970.00
20.4004 976.00
20.4656 999.00
20.5308 970.00
20.596 927.00
20.6612 937.00
20.7264 943.00
20.7916 973.00
20.8568 977.00
20.922 986.00
20.9872 985.00
21.0524 888.00
21.1176 917.00
21.1828 896.00
21.248 918.00
21.3132 928.00
21.3784 947.00
21.4436 987.00
21.5088 913.00
21.574 901.00
21.6392 883.00
21.7044 917.00
21.7696 841.00
21.8348 939.00
21.9 926.00
21.9652 920.00
22.0304 843.00
22.0956 888.00
22.1608 852.00
22.226 891.00
22.2912 847.00
22.3564 894.00
22.4216 811.00
22.4868 913.00
22.552 902.00
22.6172 833.00
22.6824 866.00
22.7476 904.00
22.8128 896.00
22.878 868.00
22.9432 861.00
23.0084 935.00
23.0736 859.00
23.1388 899.00
23.204 850.00
23.2692 872.00
23.3344 868.00
23.3996 832.00
23.4647 822.00
23.5299 925.00
23.5951 822.00
23.6603 846.00
23.7255 845.00
23.7907 840.00
23.8559 815.00
23.9211 835.00
23.9863 923.00
24.0515 916.00
24.1167 973.00
24.1819 978.00
24.2471 1032.00
24.3123 1129.00
24.3775 1182.00
24.4427 1335.00
24.5079 1579.00
24.5731 1759.00
24.6383 1738.00
24.7035 1425.00
24.7687 1282.00
24.8339 1236.00
24.8991 1356.00
24.9643 1451.00
25.0295 1506.00
25.0947 1349.00
25.1599 1023.00
25.2251 873.00
25.2903 910.00
25.3555 840.00
25.4207 837.00
25.4859 842.00
25.5511 867.00
25.6163 965.00
25.6815 871.00
25.7467 937.00
25.8119 790.00
25.8771 805.00
25.9423 766.00
26.0075 773.00
26.0727 721.00
26.1379 764.00
26.2031 769.00
26.2683 766.00
26.3335 803.00
26.3987 819.00
26.4639 755.00
26.5291 797.00
26.5943 770.00
26.6595 736.00
26.7247 761.00
26.7899 767.00
26.8551 765.00
26.9203 762.00
26.9855 804.00
27.0507 756.00
27.1159 755.00
27.1811 713.00
27.2463 810.00
27.3115 885.00
27.3767 893.00
27.4419 1021.00
27.5071 1093.00
27.5723 1387.00
27.6375 1613.00
27.7027 2053.00
27.7679 2361.00
27.8331 1925.00
27.8983 1357.00
27.9635 946.00
28.0287 985.00
28.0939 1021.00
28.1591 1042.00
28.2243 1192.00
28.2894 1420.00
28.3546 1814.00
28.4198 2342.00
28.485 2993.00
28.5502 3760.00
28.6154 4905.00
28.6806 6570.00
28.7458 7013.00
28.811 5691.00
28.8762 3540.00
28.9414 2115.00
29.0066 1543.00
29.0718 1191.00
29.137 1054.00
29.2022 916.00
29.2674 913.00
29.3326 827.00
29.3978 765.00
29.463 852.00
29.5282 778.00
29.5934 742.00
29.6586 776.00
29.7238 735.00
29.789 740.00
29.8542 708.00
29.9194 708.00
29.9846 757.00
30.0498 729.00
30.115 740.00
30.1802 683.00
30.2454 715.00
30.3106 685.00
30.3758 669.00
30.441 674.00
30.5062 749.00
30.5714 748.00
30.6366 676.00
30.7018 689.00
30.767 708.00
30.8322 702.00
30.8974 740.00
30.9626 720.00
31.0278 742.00
31.093 760.00
31.1582 772.00
31.2234 787.00
31.2886 796.00
31.3538 849.00
31.419 908.00
31.4842 980.00
31.5494 1084.00
31.6146 1340.00
31.6798 1711.00
31.745 2187.00
31.8102 2806.00
31.8754 3702.00
31.9406 4761.00
32.0058 5647.00
32.071 5569.00
32.1362 4105.00
32.2014 2559.00
32.2666 1653.00
32.3318 1254.00
32.397 1030.00
32.4622 892.00
32.5274 845.00
32.5926 766.00
32.6578 755.00
32.723 720.00
32.7882 674.00
32.8534 680.00
32.9186 677.00
32.9838 607.00
33.0489 666.00
33.1141 632.00
33.1793 654.00
33.2445 648.00
33.3097 665.00
33.3749 644.00
33.4401 561.00
33.5053 669.00
33.5705 647.00
33.6357 652.00
33.7009 642.00
33.7661 605.00
33.8313 664.00
33.8965 649.00
33.9617 635.00
34.0269 672.00
34.0921 702.00
34.1573 698.00
34.2225 730.00
34.2877 849.00
34.3529 1008.00
34.4181 1090.00
34.4833 1425.00
34.5485 1727.00
34.6137 2234.00
34.6789 2707.00
34.7441 2663.00
34.8093 2411.00
34.8745 2078.00
34.9397 2230.00
35.0049 2178.00
35.0701 1877.00
35.1353 1463.00
35.2005 1066.00
35.2657 895.00
35.3309 835.00
35.3961 751.00
35.4613 791.00
35.5265 872.00
35.5917 993.00
35.6569 1181.00
35.7221 1463.00
35.7873 1932.00
35.8525 2331.00
35.9177 2542.00
35.9829 2102.00
36.0481 1576.00
36.1133 1288.00
36.1785 1338.00
36.2437 1454.00
36.3089 1640.00
36.3741 1796.00
36.4393 1636.00
36.5045 1359.00
36.5697 1066.00
36.6349 783.00
36.7001 629.00
36.7653 630.00
36.8305 596.00
36.8957 595.00
36.9609 660.00
37.0261 592.00
37.0913 605.00
37.1565 602.00
37.2217 608.00
37.2869 573.00
37.3521 572.00
37.4173 545.00
37.4825 580.00
37.5477 569.00
37.6129 607.00
37.6781 529.00
37.7433 569.00
37.8085 569.00
37.8736 593.00
37.9388 559.00
38.004 580.00
38.0692 549.00
38.1344 545.00
38.1996 574.00
38.2648 543.00
38.33 585.00
38.3952 613.00
38.4604 589.00
38.5256 510.00
38.5908 556.00
38.656 591.00
38.7212 589.00
38.7864 618.00
38.8516 664.00
38.9168 739.00
38.982 877.00
39.0472 1056.00
39.1124 1207.00
39.1776 1243.00
39.2428 1179.00
39.308 985.00
39.3732 879.00
39.4384 732.00
39.5036 743.00
39.5688 662.00
39.634 653.00
39.6992 602.00
39.7644 584.00
39.8296 508.00
39.8948 563.00
39.96 521.00
40.0252 546.00
40.0904 587.00
40.1556 583.00
40.2208 544.00
40.286 564.00
40.3512 576.00
40.4164 578.00
40.4816 563.00
40.5468 629.00
40.612 646.00
40.6772 607.00
40.7424 638.00
40.8076 615.00
40.8728 575.00
40.938 658.00
41.0032 753.00
41.0684 835.00
41.1336 1012.00
41.1988 1249.00
41.264 1567.00
41.3292 1836.00
41.3944 1783.00
41.4596 1669.00
41.5248 1489.00
41.59 1284.00
41.6552 1087.00
41.7204 1062.00
41.7856 1066.00
41.8508 971.00
41.916 913.00
41.9812 944.00
42.0464 872.00
42.1116 772.00
42.1768 674.00
42.242 689.00
42.3072 568.00
42.3724 542.00
42.4376 544.00
42.5028 567.00
42.568 522.00
42.6332 467.00
42.6983 535.00
42.7635 494.00
42.8287 506.00
42.8939 499.00
42.9591 505.00
43.0243 499.00
43.0895 470.00
43.1547 480.00
43.2199 476.00
43.2851 507.00
43.3503 474.00
43.4155 509.00
43.4807 522.00
43.5459 501.00
43.6111 532.00
43.6763 477.00
43.7415 538.00
43.8067 494.00
43.8719 501.00
43.9371 496.00
44.0023 523.00
44.0675 519.00
44.1327 525.00
44.1979 551.00
44.2631 595.00
44.3283 590.00
44.3935 582.00
44.4587 557.00
44.5239 512.00
44.5891 518.00
44.6543 514.00
44.7195 516.00
44.7847 473.00
44.8499 499.00
44.9151 496.00
44.9803 542.00
45.0455 548.00
45.1107 589.00
45.1759 639.00
45.2411 701.00
45.3063 732.00
45.3715 876.00
45.4367 893.00
45.5019 886.00
45.5671 772.00
45.6323 756.00
45.6975 614.00
45.7627 635.00
45.8279 703.00
45.8931 708.00
45.9583 793.00
46.0235 951.00
46.0887 1074.00
46.1539 1139.00
46.2191 995.00
46.2843 843.00
46.3495 699.00
46.4147 631.00
46.4799 545.00
46.5451 508.00
46.6103 546.00
46.6755 526.00
46.7407 520.00
46.8059 521.00
46.8711 488.00
46.9363 449.00
47.0015 461.00
47.0667 452.00
47.1319 477.00
47.1971 467.00
47.2623 473.00
47.3275 485.00
47.3927 488.00
47.4579 508.00
47.523 467.00
47.5882 491.00
47.6534 495.00
47.7186 456.00
47.7838 480.00
47.849 486.00
47.9142 438.00
47.9794 488.00
48.0446 516.00
48.1098 508.00
48.175 539.00
48.2402 552.00
48.3054 506.00
48.3706 517.00
48.4358 510.00
48.501 568.00
48.5662 484.00
48.6314 513.00
48.6966 521.00
48.7618 516.00
48.827 469.00
48.8922 487.00
48.9574 512.00
49.0226 457.00
49.0878 545.00
49.153 526.00
49.2182 581.00
49.2834 580.00
49.3486 593.00
49.4138 631.00
49.479 738.00
49.5442 810.00
49.6094 899.00
49.6746 1059.00
49.7398 1294.00
49.805 1726.00
49.8702 2303.00
49.9354 2147.00
50.0006 1903.00
50.0658 1517.00
50.131 1160.00
50.1962 885.00
50.2614 745.00
50.3266 742.00
50.3918 691.00
50.457 794.00
50.5222 908.00
50.5874 1090.00
50.6526 1582.00
50.7178 2347.00
50.783 2745.00
50.8482 2747.00
50.9134 2326.00
50.9786 1832.00
51.0438 1509.00
51.109 1504.00
51.1742 1691.00
51.2394 1694.00
51.3046 1480.00
51.3698 1182.00
51.435 984.00
51.5002 754.00
51.5654 722.00
51.6306 693.00
51.6958 686.00
51.761 799.00
51.8262 955.00
51.8914 1004.00
51.9566 932.00
52.0218 840.00
52.087 737.00
52.1522 614.00
52.2174 609.00
52.2826 556.00
52.3477 519.00
52.4129 501.00
52.4781 528.00
52.5433 499.00
52.6085 544.00
52.6737 524.00
52.7389 440.00
52.8041 455.00
52.8693 562.00
52.9345 484.00
52.9997 489.00
53.0649 514.00
53.1301 494.00
53.1953 513.00
53.2605 492.00
53.3257 487.00
53.3909 468.00
53.4561 471.00
53.5213 501.00
53.5865 487.00
53.6517 568.00
53.7169 525.00
53.7821 524.00
53.8473 517.00
53.9125 542.00
53.9777 562.00
54.0429 597.00
54.1081 673.00
54.1733 757.00
54.2385 896.00
54.3037 1048.00
54.3689 1248.00
54.4341 1582.00
54.4993 1837.00
54.5645 2056.00
54.6297 2012.00
54.6949 2033.00
54.7601 2026.00
54.8253 1691.00
54.8905 1441.00
54.9557 1068.00
55.0209 891.00
55.0861 720.00
55.1513 732.00
55.2165 735.00
55.2817 735.00
55.3469 702.00
55.4121 686.00
55.4773 727.00
55.5425 692.00
55.6077 732.00
55.6729 860.00
55.7381 886.00
55.8033 1127.00
55.8685 1405.00
55.9337 1810.00
55.9989 2113.00
56.0641 2071.00
56.1293 1929.00
56.1945 1895.00
56.2597 1678.00
56.3249 1452.00
56.3901 1258.00
56.4553 1185.00
56.5205 1313.00
56.5857 1424.00
56.6509 1527.00
56.7161 1505.00
56.7813 1431.00
56.8465 1312.00
56.9117 1076.00
56.9769 883.00
57.042 800.00
57.1073 675.00
57.1724 602.00
57.2376 568.00
57.3028 552.00
57.368 602.00
57.4332 577.00
57.4984 560.00
57.5636 667.00
57.6288 798.00
57.694 875.00
57.7592 1061.00
57.8244 1238.00
57.8896 1282.00
57.9548 1253.00
58.02 1104.00
58.0852 956.00
58.1504 811.00
58.2156 768.00
58.2808 697.00
58.346 716.00
58.4112 798.00
58.4764 888.00
58.5416 1067.00
58.6068 1181.00
58.672 1102.00
58.7372 1049.00
58.8024 1087.00
58.8676 983.00
58.9328 1094.00
58.998 973.00
59.0632 903.00
59.1284 828.00
59.1936 731.00
59.2588 667.00
59.324 650.00
59.3892 588.00
59.4544 527.00
59.5196 535.00
59.5848 581.00
59.65 543.00
59.7152 572.00
59.7804 556.00
59.8456 538.00
59.9108 511.00
59.976 574.00
60.0412 579.00
60.1064 629.00
60.1716 690.00
60.2368 708.00
60.302 801.00
60.3672 1018.00
60.4324 1253.00
60.4976 1443.00
60.5628 1540.00
60.628 1576.00
60.6932 1617.00
60.7584 1416.00
60.8236 1338.00
60.8888 1133.00
60.954 943.00
61.0192 806.00
61.0844 648.00
61.1496 635.00
61.2148 641.00
61.28 584.00
61.3452 579.00
61.4104 573.00
61.4756 569.00
61.5408 536.00
61.606 579.00
61.6712 618.00
61.7364 649.00
61.8016 764.00
61.8667 835.00
61.932 984.00
61.9971 1153.00
62.0623 1162.00
62.1275 1138.00
62.1927 1080.00
62.2579 937.00
62.3231 962.00
62.3883 981.00
62.4535 958.00
62.5187 1192.00
62.5839 1296.00
62.6491 1446.00
62.7143 1406.00
62.7795 1248.00
62.8447 1105.00
62.9099 983.00
62.9751 852.00
63.0403 757.00
63.1055 694.00
63.1707 744.00
63.2359 701.00
63.3011 803.00
63.3663 885.00
63.4315 1081.00
63.4967 1326.00
63.5619 1548.00
63.6271 1483.00
63.6923 1267.00
63.7575 1129.00
63.8227 940.00
63.8879 819.00
63.9531 704.00
64.0183 696.00
64.0835 677.00
64.1487 699.00
64.2139 720.00
64.2791 699.00
64.3443 700.00
64.4095 620.00
64.4747 619.00
64.5399 596.00
64.6051 596.00
64.6703 597.00
64.7355 681.00
64.8007 783.00
64.8659 785.00
64.9311 884.00
64.9963 848.00
65.0615 853.00
65.1267 787.00
65.1919 733.00
65.2571 643.00
65.3223 596.00
65.3875 576.00
65.4527 514.00
65.5179 534.00
65.5831 550.00
65.6483 579.00
65.7135 597.00
65.7787 623.00
65.8439 689.00
65.9091 641.00
65.9743 713.00
66.0395 852.00
66.1047 857.00
66.1699 998.00
66.2351 1030.00
66.3003 1187.00
66.3655 1412.00
66.4307 1452.00
66.4959 1409.00
66.561 1267.00
66.6263 1116.00
66.6915 1052.00
66.7566 873.00
66.8218 751.00
66.887 688.00
66.9522 632.00
67.0174 551.00
67.0826 550.00
67.1478 499.00
67.213 559.00
67.2782 520.00
67.3434 524.00
67.4086 469.00
67.4738 549.00
67.539 480.00
67.6042 485.00
67.6694 495.00
67.7346 501.00
67.7998 467.00
67.865 500.00
67.9302 448.00
67.9954 486.00
68.0606 489.00
68.1258 476.00
68.191 460.00
68.2562 513.00
68.3214 475.00
68.3866 477.00
68.4518 465.00
68.517 475.00
68.5822 483.00
68.6474 501.00
68.7126 512.00
68.7778 546.00
68.843 564.00
68.9082 643.00
68.9734 689.00
69.0386 737.00
69.1038 742.00
69.169 846.00
69.2342 848.00
69.2994 815.00
69.3646 732.00
69.4298 721.00
69.495 649.00
69.5602 765.00
69.6254 850.00
69.6906 871.00
69.7558 884.00
69.821 813.00
69.8862 795.00
69.9514 786.00
70.0166 754.00
70.0818 645.00
70.147 608.00
70.2122 614.00
70.2774 570.00
70.3426 635.00
70.4078 591.00
70.473 573.00
70.5382 565.00
70.6034 553.00
70.6686 526.00
70.7338 542.00
70.799 543.00
70.8642 525.00
70.9294 525.00
70.9946 528.00
71.0598 477.00
71.125 508.00
71.1902 499.00
71.2554 535.00
71.3205 510.00
71.3858 546.00
71.451 566.00
71.5162 573.00
71.5813 666.00
71.6465 753.00
71.7117 846.00
71.7769 928.00
71.8421 1086.00
71.9073 1138.00
71.9725 1110.00
72.0377 1124.00
72.1029 991.00
72.1681 865.00
72.2333 807.00
72.2985 686.00
72.3637 621.00
72.4289 599.00
72.4941 618.00
72.5593 619.00
72.6245 660.00
72.6897 710.00
72.7549 649.00
72.8201 690.00
72.8853 711.00
72.9505 724.00
73.0157 667.00
73.0809 634.00
73.1461 658.00
73.2113 654.00
73.2765 697.00
73.3417 786.00
73.4069 725.00
73.4721 722.00
73.5373 654.00
73.6025 645.00
73.6677 555.00
73.7329 592.00
73.7981 514.00
73.8633 553.00
73.9285 480.00
73.9937 507.00
74.0589 494.00
74.1241 556.00
74.1893 534.00
74.2545 507.00
74.3197 546.00
74.3849 563.00
74.4501 574.00
74.5153 504.00
74.5805 530.00
74.6457 486.00
74.7109 500.00
74.7761 486.00
74.8413 485.00
74.9065 473.00
74.9717 507.00
75.0369 474.00
75.1021 525.00
75.1673 552.00
75.2325 600.00
75.2977 604.00
75.3629 720.00
75.4281 727.00
75.4933 705.00
75.5585 748.00
75.6237 751.00
75.6889 782.00
75.7541 844.00
75.8193 907.00
75.8845 982.00
75.9497 968.00
76.0149 1012.00
76.0801 942.00
76.1452 914.00
76.2104 807.00
76.2756 721.00
76.3409 628.00
76.406 584.00
76.4712 612.00
76.5364 571.00
76.6016 572.00
76.6668 608.00
76.732 545.00
76.7972 587.00
76.8624 559.00
76.9276 556.00
76.9928 587.00
77.058 607.00
77.1232 650.00
77.1884 696.00
77.2536 800.00
77.3188 753.00
77.384 734.00
77.4492 710.00
77.5144 727.00
77.5796 660.00
77.6448 605.00
77.71 575.00
77.7752 581.00
77.8404 591.00
77.9056 606.00
77.9708 623.00
78.036 591.00
78.1012 654.00
78.1664 655.00
78.2316 707.00
78.2968 708.00
78.362 664.00
78.4272 690.00
78.4924 683.00
78.5576 650.00
78.6228 676.00
78.688 593.00
78.7532 646.00
78.8184 612.00
78.8836 672.00
78.9488 670.00
79.014 621.00
79.0792 610.00
79.1444 592.00
79.2096 579.00
79.2748 610.00
79.34 580.00
79.4052 622.00
79.4704 606.00
79.5356 582.00
79.6008 706.00
79.666 771.00
79.7312 844.00
79.7964 872.00
79.8616 741.00
79.9268 730.00
79.992 754.00
80.0572 655.00
80.1224 564.00
80.1876 586.00
80.2528 541.00
80.318 501.00
80.3832 518.00
80.4484 484.00
80.5136 484.00
80.5788 495.00
80.644 477.00
80.7092 509.00
80.7744 516.00
80.8396 521.00
80.9048 483.00
80.9699 507.00
81.0351 536.00
81.1003 567.00
81.1655 577.00
81.2307 578.00
81.2959 549.00
81.3611 551.00
81.4263 626.00
81.4915 564.00
81.5567 581.00
81.6219 548.00
81.6871 569.00
81.7523 589.00
81.8175 542.00
81.8827 591.00
81.9479 560.00
82.0131 614.00
82.0783 702.00
82.1435 694.00
82.2087 784.00
82.2739 824.00
82.3391 914.00
82.4043 873.00
82.4695 821.00
82.5347 787.00
82.5999 786.00
82.6651 785.00
82.7303 685.00
82.7955 648.00
82.8607 630.00
82.9259 665.00
82.9911 660.00
83.0563 644.00
83.1215 639.00
83.1867 672.00
83.2519 705.00
83.3171 731.00
83.3823 810.00
83.4475 824.00
83.5127 766.00
83.5779 743.00
83.6431 785.00
83.7083 795.00
83.7735 775.00
83.8387 831.00
83.9039 848.00
83.9691 866.00
84.0343 835.00
84.0995 870.00
84.1647 809.00
84.2299 810.00
84.2951 828.00
84.3603 753.00
84.4255 798.00
84.4907 778.00
84.5559 800.00
84.6211 840.00
84.6863 810.00
84.7515 869.00
84.8167 876.00
84.8819 866.00
84.9471 873.00
85.0123 926.00
85.0775 903.00
85.1427 772.00
85.2079 791.00
85.2731 747.00
85.3383 686.00
85.4035 703.00
85.4687 595.00
85.5339 666.00
85.5991 658.00
85.6643 718.00
85.7295 755.00
85.7946 769.00
85.8598 693.00
85.925 652.00
85.9903 668.00
86.0554 605.00
86.1206 588.00
86.1858 575.00
86.251 583.00
86.3162 556.00
86.3814 548.00
86.4466 504.00
86.5118 557.00
86.577 520.00
86.6422 576.00
86.7074 609.00
86.7726 631.00
86.8378 587.00
86.903 673.00
86.9682 672.00
87.0334 704.00
87.0986 654.00
87.1638 674.00
87.229 620.00
87.2942 622.00
87.3594 568.00
87.4246 635.00
87.4898 560.00
87.555 572.00
87.6202 546.00
87.6854 583.00
87.7506 582.00
87.8158 561.00
87.881 580.00
87.9462 590.00
88.0114 573.00
88.0766 634.00
88.1418 638.00
88.207 623.00
88.2722 782.00
88.3374 699.00
88.4026 724.00
88.4678 751.00
88.533 741.00
88.5982 776.00
88.6634 788.00
88.7286 746.00
88.7938 740.00
88.859 767.00
88.9242 803.00
88.9894 819.00
89.0546 929.00
89.1198 971.00
89.185 962.00
89.2502 973.00
89.3154 955.00
89.3806 1024.00
89.4458 1026.00
89.511 986.00
89.5762 893.00
89.6414 886.00
89.7066 839.00
89.7718 858.00
89.837 749.00
89.9022 703.00
89.9674 708.00
90.0326 717.00
90.0978 716.00
90.163 692.00
90.2282 718.00
90.2934 732.00
90.3586 681.00
90.4238 757.00
90.489 785.00
90.5542 850.00
90.6193 897.00
90.6845 1017.00
90.7497 958.00
90.8149 928.00
90.8801 916.00
90.9453 856.00
91.0105 825.00
91.0757 706.00
91.1409 686.00
91.2061 673.00
91.2713 645.00
91.3365 626.00
91.4017 615.00
91.4669 619.00
91.5321 592.00
91.5973 655.00
91.6625 631.00
91.7277 578.00
91.7929 592.00
91.8581 609.00
91.9233 612.00
91.9885 633.00
92.0537 654.00
92.1189 645.00
92.1841 657.00
92.2493 634.00
92.3145 673.00
92.3797 628.00
92.4449 616.00
92.5101 635.00
92.5753 593.00
92.6405 535.00
92.7057 574.00
92.7709 555.00
92.8361 555.00
92.9013 523.00
92.9665 524.00
93.0317 534.00
93.0969 536.00
93.1621 536.00
93.2273 555.00
93.2925 505.00
93.3577 569.00
93.4229 565.00
93.4881 566.00
93.5533 567.00
93.6185 539.00
93.6837 555.00
93.7489 563.00
93.8141 581.00
93.8793 550.00
93.9445 552.00
94.0097 580.00
94.0749 542.00
94.1401 550.00
94.2053 609.00
94.2705 549.00
94.3357 549.00
94.4009 589.00
94.4661 596.00
94.5313 629.00
94.5965 649.00
94.6617 701.00
94.7269 754.00
94.7921 700.00
94.8573 796.00
94.9225 686.00
94.9877 736.00
95.0529 756.00
95.1181 688.00
95.1833 736.00
95.2485 717.00
95.3137 725.00
95.3789 731.00
95.444 732.00
95.5092 728.00
95.5744 762.00
95.6396 783.00
95.7048 824.00
95.77 813.00
95.8352 799.00
95.9004 832.00
95.9656 883.00
96.0308 907.00
96.096 867.00
96.1612 934.00
96.2264 851.00
96.2916 772.00
96.3568 826.00
96.422 784.00
96.4872 745.00
96.5524 659.00
96.6176 629.00
96.6828 684.00
96.748 704.00
96.8132 684.00
96.8784 744.00
96.9436 800.00
97.0088 782.00
97.074 860.00
97.1392 840.00
97.2044 839.00
97.2696 897.00
97.3348 955.00
97.4 982.00
97.4652 1086.00
97.5304 1169.00
97.5956 1056.00
97.6608 1075.00
97.726 1103.00
97.7912 1064.00
97.8564 1078.00
97.9216 1062.00
97.9868 982.00
98.052 887.00
98.1172 837.00
98.1824 822.00
98.2476 814.00
98.3128 761.00
98.378 689.00
98.4432 713.00
98.5084 656.00
98.5736 661.00
98.6388 639.00
98.704 646.00
98.7692 638.00
98.8344 747.00
98.8996 762.00
98.9648 785.00
99.03 867.00
99.0952 827.00
99.1604 762.00
99.2256 790.00
99.2908 741.00
99.356 811.00
99.4212 816.00
99.4864 808.00
99.5516 805.00
99.6168 843.00
99.682 866.00
99.7472 871.00
99.8124 854.00
99.8776 917.00
99.9428 849.00
100.008 884.00
100.073 911.00
100.095 873.00