File: data/xrd_creation/results/PG_1950-1.xy
9.903433 2515.00
9.968632 2463.00
10.0338 2410.00
10.099 2528.00
10.1642 2434.00
10.2294 2420.00
10.2946 2317.00
10.3598 2416.00
10.425 2235.00
10.4902 2291.00
10.5554 2286.00
10.6206 2348.00
10.6858 2262.00
10.751 2249.00
10.8162 2271.00
10.8814 2212.00
10.9466 2158.00
11.0118 2157.00
11.077 2076.00
11.1422 2190.00
11.2074 2121.00
11.2726 1987.00
11.3378 2011.00
11.403 2003.00
11.4682 2032.00
11.5334 2020.00
11.5986 2045.00
11.6638 1934.00
11.729 1982.00
11.7942 1977.00
11.8594 1978.00
11.9246 1912.00
11.9898 1837.00
12.055 1862.00
12.1202 1767.00
12.1854 1831.00
12.2506 1810.00
12.3158 1785.00
12.381 1761.00
12.4462 1823.00
12.5114 1748.00
12.5766 1830.00
12.6418 1849.00
12.707 1833.00
12.7722 1703.00
12.8374 1724.00
12.9026 1673.00
12.9678 1677.00
13.033 1568.00
13.0982 1650.00
13.1634 1564.00
13.2286 1598.00
13.2938 1574.00
13.359 1556.00
13.4242 1586.00
13.4894 1529.00
13.5546 1528.00
13.6198 1497.00
13.685 1576.00
13.7502 1480.00
13.8154 1508.00
13.8805 1565.00
13.9457 1475.00
14.0109 1471.00
14.0761 1488.00
14.1413 1436.00
14.2065 1433.00
14.2717 1458.00
14.3369 1493.00
14.4021 1530.00
14.4673 1478.00
14.5325 1356.00
14.5977 1384.00
14.6629 1442.00
14.7281 1386.00
14.7933 1355.00
14.8585 1389.00
14.9237 1421.00
14.9889 1367.00
15.0541 1293.00
15.1193 1360.00
15.1845 1357.00
15.2497 1378.00
15.3149 1360.00
15.3801 1298.00
15.4453 1369.00
15.5105 1329.00
15.5757 1287.00
15.6409 1270.00
15.7061 1338.00
15.7713 1344.00
15.8365 1279.00
15.9017 1284.00
15.9669 1289.00
16.0321 1273.00
16.0973 1309.00
16.1625 1211.00
16.2277 1169.00
16.2929 1275.00
16.3581 1247.00
16.4233 1281.00
16.4885 1234.00
16.5537 1245.00
16.6189 1268.00
16.6841 1263.00
16.7493 1215.00
16.8145 1171.00
16.8797 1258.00
16.9449 1108.00
17.0101 1187.00
17.0753 1204.00
17.1405 1161.00
17.2057 1209.00
17.2709 1151.00
17.3361 1101.00
17.4013 1179.00
17.4665 1146.00
17.5317 1171.00
17.5969 1119.00
17.6621 1189.00
17.7273 1108.00
17.7925 1084.00
17.8577 1109.00
17.9229 1069.00
17.9881 1034.00
18.0533 1045.00
18.1185 1102.00
18.1837 1051.00
18.2489 1029.00
18.3141 1049.00
18.3793 1134.00
18.4445 1067.00
18.5097 1074.00
18.5749 1078.00
18.6401 1091.00
18.7052 1089.00
18.7704 1016.00
18.8356 1006.00
18.9008 1079.00
18.966 1010.00
19.0312 998.00
19.0964 997.00
19.1616 1035.00
19.2268 1070.00
19.292 974.00
19.3572 1055.00
19.4224 1037.00
19.4876 1059.00
19.5528 975.00
19.618 967.00
19.6832 933.00
19.7484 1014.00
19.8136 974.00
19.8788 968.00
19.944 941.00
20.0092 1015.00
20.0744 995.00
20.1396 1014.00
20.2048 1046.00
20.27 1137.00
20.3352 1260.00
20.4004 1317.00
20.4656 1146.00
20.5308 1002.00
20.596 974.00
20.6612 931.00
20.7264 916.00
20.7916 950.00
20.8568 889.00
20.922 881.00
20.9872 967.00
21.0524 937.00
21.1176 919.00
21.1828 920.00
21.248 914.00
21.3132 891.00
21.3784 953.00
21.4436 940.00
21.5088 848.00
21.574 849.00
21.6392 933.00
21.7044 878.00
21.7696 848.00
21.8348 910.00
21.9 838.00
21.9652 829.00
22.0304 779.00
22.0956 815.00
22.1608 849.00
22.226 856.00
22.2912 822.00
22.3564 851.00
22.4216 852.00
22.4868 859.00
22.552 888.00
22.6172 849.00
22.6824 847.00
22.7476 787.00
22.8128 814.00
22.878 828.00
22.9432 852.00
23.0084 835.00
23.0736 800.00
23.1388 771.00
23.204 826.00
23.2692 794.00
23.3344 867.00
23.3996 772.00
23.4647 817.00
23.5299 855.00
23.5951 711.00
23.6603 789.00
23.7255 786.00
23.7907 763.00
23.8559 719.00
23.9211 739.00
23.9863 776.00
24.0515 795.00
24.1167 764.00
24.1819 692.00
24.2471 760.00
24.3123 779.00
24.3775 724.00
24.4427 759.00
24.5079 780.00
24.5731 701.00
24.6383 798.00
24.7035 789.00
24.7687 726.00
24.8339 706.00
24.8991 717.00
24.9643 800.00
25.0295 679.00
25.0947 757.00
25.1599 721.00
25.2251 726.00
25.2903 691.00
25.3555 756.00
25.4207 729.00
25.4859 733.00
25.5511 711.00
25.6163 732.00
25.6815 799.00
25.7467 746.00
25.8119 713.00
25.8771 720.00
25.9423 709.00
26.0075 665.00
26.0727 694.00
26.1379 748.00
26.2031 715.00
26.2683 687.00
26.3335 718.00
26.3987 710.00
26.4639 712.00
26.5291 689.00
26.5943 632.00
26.6595 703.00
26.7247 716.00
26.7899 699.00
26.8551 704.00
26.9203 637.00
26.9855 671.00
27.0507 663.00
27.1159 678.00
27.1811 664.00
27.2463 663.00
27.3115 632.00
27.3767 688.00
27.4419 667.00
27.5071 643.00
27.5723 685.00
27.6375 680.00
27.7027 611.00
27.7679 617.00
27.8331 706.00
27.8983 661.00
27.9635 697.00
28.0287 625.00
28.0939 682.00
28.1591 658.00
28.2243 657.00
28.2894 660.00
28.3546 672.00
28.4198 664.00
28.485 705.00
28.5502 724.00
28.6154 710.00
28.6806 782.00
28.7458 872.00
28.811 958.00
28.8762 1410.00
28.9414 2317.00
29.0066 3568.00
29.0718 3352.00
29.137 2235.00
29.2022 1298.00
29.2674 955.00
29.3326 728.00
29.3978 702.00
29.463 736.00
29.5282 692.00
29.5934 701.00
29.6586 689.00
29.7238 618.00
29.789 640.00
29.8542 630.00
29.9194 611.00
29.9846 595.00
30.0498 614.00
30.115 609.00
30.1802 568.00
30.2454 644.00
30.3106 566.00
30.3758 587.00
30.441 580.00
30.5062 599.00
30.5714 584.00
30.6366 610.00
30.7018 581.00
30.767 594.00
30.8322 589.00
30.8974 574.00
30.9626 562.00
31.0278 566.00
31.093 561.00
31.1582 581.00
31.2234 558.00
31.2886 554.00
31.3538 566.00
31.419 556.00
31.4842 598.00
31.5494 588.00
31.6146 586.00
31.6798 536.00
31.745 546.00
31.8102 559.00
31.8754 571.00
31.9406 622.00
32.0058 684.00
32.071 694.00
32.1362 730.00
32.2014 743.00
32.2666 657.00
32.3318 635.00
32.397 657.00
32.4622 743.00
32.5274 749.00
32.5926 692.00
32.6578 582.00
32.723 568.00
32.7882 504.00
32.8534 513.00
32.9186 550.00
32.9838 520.00
33.0489 502.00
33.1141 520.00
33.1793 533.00
33.2445 513.00
33.3097 543.00
33.3749 541.00
33.4401 547.00
33.5053 655.00
33.5705 800.00
33.6357 1057.00
33.7009 1057.00
33.7661 911.00
33.8313 651.00
33.8965 603.00
33.9617 579.00
34.0269 474.00
34.0921 508.00
34.1573 499.00
34.2225 471.00
34.2877 497.00
34.3529 480.00
34.4181 502.00
34.4833 487.00
34.5485 495.00
34.6137 481.00
34.6789 467.00
34.7441 472.00
34.8093 479.00
34.8745 462.00
34.9397 412.00
35.0049 465.00
35.0701 474.00
35.1353 438.00
35.2005 459.00
35.2657 474.00
35.3309 455.00
35.3961 459.00
35.4613 484.00
35.5265 474.00
35.5917 423.00
35.6569 461.00
35.7221 587.00
35.7873 545.00
35.8525 535.00
35.9177 511.00
35.9829 431.00
36.0481 461.00
36.1133 413.00
36.1785 419.00
36.2437 436.00
36.3089 442.00
36.3741 395.00
36.4393 402.00
36.5045 428.00
36.5697 407.00
36.6349 451.00
36.7001 447.00
36.7653 391.00
36.8305 417.00
36.8957 436.00
36.9609 424.00
37.0261 437.00
37.0913 430.00
37.1565 433.00
37.2217 445.00
37.2869 382.00
37.3521 385.00
37.4173 410.00
37.4825 400.00
37.5477 390.00
37.6129 395.00
37.6781 464.00
37.7433 416.00
37.8085 450.00
37.8736 466.00
37.9388 413.00
38.004 429.00
38.0692 415.00
38.1344 396.00
38.1996 436.00
38.2648 405.00
38.33 414.00
38.3952 434.00
38.4604 413.00
38.5256 478.00
38.5908 430.00
38.656 477.00
38.7212 389.00
38.7864 403.00
38.8516 400.00
38.9168 388.00
38.982 433.00
39.0472 390.00
39.1124 403.00
39.1776 417.00
39.2428 417.00
39.308 399.00
39.3732 374.00
39.4384 414.00
39.5036 382.00
39.5688 438.00
39.634 457.00
39.6992 513.00
39.7644 503.00
39.8296 485.00
39.8948 423.00
39.96 435.00
40.0252 375.00
40.0904 376.00
40.1556 394.00
40.2208 400.00
40.286 395.00
40.3512 392.00
40.4164 372.00
40.4816 336.00
40.5468 371.00
40.612 382.00
40.6772 382.00
40.7424 331.00
40.8076 346.00
40.8728 345.00
40.938 327.00
41.0032 332.00
41.0684 356.00
41.1336 383.00
41.1988 414.00
41.264 384.00
41.3292 376.00
41.3944 373.00
41.4596 409.00
41.5248 402.00
41.59 400.00
41.6552 357.00
41.7204 341.00
41.7856 362.00
41.8508 355.00
41.916 328.00
41.9812 349.00
42.0464 333.00
42.1116 343.00
42.1768 351.00
42.242 352.00
42.3072 338.00
42.3724 352.00
42.4376 315.00
42.5028 308.00
42.568 309.00
42.6332 326.00
42.6983 349.00
42.7635 316.00
42.8287 368.00
42.8939 316.00
42.9591 349.00
43.0243 380.00
43.0895 417.00
43.1547 397.00
43.2199 390.00
43.2851 450.00
43.3503 546.00
43.4155 508.00
43.4807 423.00
43.5459 376.00
43.6111 375.00
43.6763 331.00
43.7415 334.00
43.8067 326.00
43.8719 329.00
43.9371 332.00
44.0023 354.00
44.0675 315.00
44.1327 291.00
44.1979 351.00
44.2631 319.00
44.3283 340.00
44.3935 325.00
44.4587 358.00
44.5239 345.00
44.5891 339.00
44.6543 319.00
44.7195 302.00
44.7847 305.00
44.8499 324.00
44.9151 310.00
44.9803 371.00
45.0455 330.00
45.1107 317.00
45.1759 347.00
45.2411 294.00
45.3063 287.00
45.3715 304.00
45.4367 342.00
45.5019 314.00
45.5671 356.00
45.6323 307.00
45.6975 300.00
45.7627 308.00
45.8279 285.00
45.8931 328.00
45.9583 318.00
46.0235 281.00
46.0887 282.00
46.1539 334.00
46.2191 344.00
46.2843 327.00
46.3495 301.00
46.4147 340.00
46.4799 295.00
46.5451 313.00
46.6103 320.00
46.6755 342.00
46.7407 363.00
46.8059 364.00
46.8711 346.00
46.9363 313.00
47.0015 313.00
47.0667 314.00
47.1319 320.00
47.1971 320.00
47.2623 301.00
47.3275 291.00
47.3927 294.00
47.4579 297.00
47.523 327.00
47.5882 288.00
47.6534 316.00
47.7186 317.00
47.7838 277.00
47.849 324.00
47.9142 338.00
47.9794 347.00
48.0446 360.00
48.1098 330.00
48.175 353.00
48.2402 420.00
48.3054 569.00
48.3706 953.00
48.4358 1052.00
48.501 913.00
48.5662 741.00
48.6314 490.00
48.6966 382.00
48.7618 327.00
48.827 306.00
48.8922 279.00
48.9574 312.00
49.0226 294.00
49.0878 298.00
49.153 280.00
49.2182 305.00
49.2834 296.00
49.3486 308.00
49.4138 324.00
49.479 245.00
49.5442 274.00
49.6094 279.00
49.6746 283.00
49.7398 278.00
49.805 317.00
49.8702 312.00
49.9354 288.00
50.0006 307.00
50.0658 331.00
50.131 327.00
50.1962 294.00
50.2614 312.00
50.3266 302.00
50.3918 308.00
50.457 246.00
50.5222 292.00
50.5874 257.00
50.6526 294.00
50.7178 303.00
50.783 259.00
50.8482 278.00
50.9134 258.00
50.9786 249.00
51.0438 318.00
51.109 319.00
51.1742 302.00
51.2394 258.00
51.3046 298.00
51.3698 307.00
51.435 287.00
51.5002 291.00
51.5654 266.00
51.6306 286.00
51.6958 323.00
51.761 284.00
51.8262 275.00
51.8914 268.00
51.9566 288.00
52.0218 311.00
52.087 270.00
52.1522 261.00
52.2174 237.00
52.2826 246.00
52.3477 265.00
52.4129 326.00
52.4781 274.00
52.5433 263.00
52.6085 250.00
52.6737 272.00
52.7389 291.00
52.8041 301.00
52.8693 270.00
52.9345 265.00
52.9997 295.00
53.0649 346.00
53.1301 332.00
53.1953 343.00
53.2605 326.00
53.3257 291.00
53.3909 293.00
53.4561 285.00
53.5213 287.00
53.5865 287.00
53.6517 292.00
53.7169 280.00
53.7821 239.00
53.8473 258.00
53.9125 258.00
53.9777 270.00
54.0429 274.00
54.1081 280.00
54.1733 240.00
54.2385 245.00
54.3037 230.00
54.3689 267.00
54.4341 282.00
54.4993 242.00
54.5645 249.00
54.6297 294.00
54.6949 274.00
54.7601 224.00
54.8253 268.00
54.8905 244.00
54.9557 272.00
55.0209 262.00
55.0861 230.00
55.1513 256.00
55.2165 238.00
55.2817 236.00
55.3469 260.00
55.4121 272.00
55.4773 246.00
55.5425 250.00
55.6077 277.00
55.6729 245.00
55.7381 251.00
55.8033 277.00
55.8685 242.00
55.9337 283.00
55.9989 272.00
56.0641 303.00
56.1293 331.00
56.1945 268.00
56.2597 248.00
56.3249 266.00
56.3901 259.00
56.4553 258.00
56.5205 251.00
56.5857 234.00
56.6509 256.00
56.7161 259.00
56.7813 264.00
56.8465 228.00
56.9117 226.00
56.9769 260.00
57.042 241.00
57.1073 268.00
57.1724 280.00
57.2376 285.00
57.3028 286.00
57.368 334.00
57.4332 532.00
57.4984 690.00
57.5636 570.00
57.6288 530.00
57.694 419.00
57.7592 332.00
57.8244 284.00
57.8896 281.00
57.9548 243.00
58.02 230.00
58.0852 242.00
58.1504 242.00
58.2156 235.00
58.2808 224.00
58.346 241.00
58.4112 191.00
58.4764 241.00
58.5416 231.00
58.6068 242.00
58.672 217.00
58.7372 227.00
58.8024 242.00
58.8676 280.00
58.9328 303.00
58.998 273.00
59.0632 230.00
59.1284 285.00
59.1936 215.00
59.2588 194.00
59.324 217.00
59.3892 229.00
59.4544 236.00
59.5196 239.00
59.5848 190.00
59.65 238.00
59.7152 237.00
59.7804 238.00
59.8456 209.00
59.9108 210.00
59.976 240.00
60.0412 244.00
60.1064 208.00
60.1716 229.00
60.2368 271.00
60.302 289.00
60.3672 257.00
60.4324 309.00
60.4976 293.00
60.5628 279.00
60.628 237.00
60.6932 207.00
60.7584 213.00
60.8236 230.00
60.8888 214.00
60.954 209.00
61.0192 198.00
61.0844 199.00
61.1496 222.00
61.2148 217.00
61.28 258.00
61.3452 221.00
61.4104 260.00
61.4756 195.00
61.5408 218.00
61.606 238.00
61.6712 264.00
61.7364 233.00
61.8016 242.00
61.8667 203.00
61.932 194.00
61.9971 228.00
62.0623 223.00
62.1275 216.00
62.1927 223.00
62.2579 200.00
62.3231 225.00
62.3883 208.00
62.4535 172.00
62.5187 223.00
62.5839 180.00
62.6491 232.00
62.7143 197.00
62.7795 242.00
62.8447 259.00
62.9099 244.00
62.9751 232.00
63.0403 262.00
63.1055 204.00
63.1707 220.00
63.2359 216.00
63.3011 242.00
63.3663 217.00
63.4315 202.00
63.4967 221.00
63.5619 229.00
63.6271 219.00
63.6923 195.00
63.7575 189.00
63.8227 209.00
63.8879 225.00
63.9531 206.00
64.0183 197.00
64.0835 208.00
64.1487 210.00
64.2139 205.00
64.2791 221.00
64.3443 229.00
64.4095 266.00
64.4747 260.00
64.5399 271.00
64.6051 210.00
64.6703 222.00
64.7355 230.00
64.8007 200.00
64.8659 190.00
64.9311 184.00
64.9963 205.00
65.0615 218.00
65.1267 193.00
65.1919 214.00
65.2571 177.00
65.3223 210.00
65.3875 214.00
65.4527 230.00
65.5179 207.00
65.5831 183.00
65.6483 232.00
65.7135 223.00
65.7787 220.00
65.8439 212.00
65.9091 216.00
65.9743 196.00
66.0395 209.00
66.1047 201.00
66.1699 196.00
66.2351 195.00
66.3003 214.00
66.3655 167.00
66.4307 184.00
66.4959 199.00
66.561 195.00
66.6263 209.00
66.6915 211.00
66.7566 220.00
66.8218 218.00
66.887 217.00
66.9522 169.00
67.0174 198.00
67.0826 214.00
67.1478 206.00
67.213 178.00
67.2782 211.00
67.3434 207.00
67.4086 203.00
67.4738 206.00
67.539 208.00
67.6042 203.00
67.6694 199.00
67.7346 188.00
67.7998 207.00
67.865 195.00
67.9302 214.00
67.9954 177.00
68.0606 207.00
68.1258 193.00
68.191 183.00
68.2562 212.00
68.3214 203.00
68.3866 208.00
68.4518 185.00
68.517 198.00
68.5822 180.00
68.6474 194.00
68.7126 183.00
68.7778 197.00
68.843 204.00
68.9082 194.00
68.9734 183.00
69.0386 221.00
69.1038 201.00
69.169 214.00
69.2342 194.00
69.2994 209.00
69.3646 187.00
69.4298 196.00
69.495 210.00
69.5602 185.00
69.6254 246.00
69.6906 214.00
69.7558 209.00
69.821 217.00
69.8862 224.00
69.9514 193.00
70.0166 234.00
70.0818 207.00
70.147 218.00
70.2122 198.00
70.2774 193.00
70.3426 198.00
70.4078 199.00
70.473 222.00
70.5382 198.00
70.6034 198.00
70.6686 198.00
70.7338 181.00
70.799 215.00
70.8642 228.00
70.9294 224.00
70.9946 266.00
71.0598 256.00
71.125 241.00
71.1902 207.00
71.2554 215.00
71.3205 208.00
71.3858 209.00
71.451 225.00
71.5162 205.00
71.5813 211.00
71.6465 207.00
71.7117 206.00
71.7769 225.00
71.8421 188.00
71.9073 188.00
71.9725 205.00
72.0377 210.00
72.1029 238.00
72.1681 275.00
72.2333 229.00
72.2985 257.00
72.3637 188.00
72.4289 212.00
72.4941 204.00
72.5593 213.00
72.6245 231.00
72.6897 208.00
72.7549 209.00
72.8201 204.00
72.8853 222.00
72.9505 204.00
73.0157 210.00
73.0809 213.00
73.1461 218.00
73.2113 205.00
73.2765 201.00
73.3417 179.00
73.4069 192.00
73.4721 256.00
73.5373 222.00
73.6025 195.00
73.6677 228.00
73.7329 238.00
73.7981 219.00
73.8633 190.00
73.9285 217.00
73.9937 226.00
74.0589 218.00
74.1241 203.00
74.1893 185.00
74.2545 217.00
74.3197 237.00
74.3849 200.00
74.4501 191.00
74.5153 223.00
74.5805 220.00
74.6457 193.00
74.7109 242.00
74.7761 232.00
74.8413 230.00
74.9065 218.00
74.9717 210.00
75.0369 249.00
75.1021 226.00
75.1673 214.00
75.2325 232.00
75.2977 214.00
75.3629 220.00
75.4281 218.00
75.4933 259.00
75.5585 194.00
75.6237 191.00
75.6889 202.00
75.7541 219.00
75.8193 222.00
75.8845 261.00
75.9497 225.00
76.0149 216.00
76.0801 224.00
76.1452 204.00
76.2104 240.00
76.2756 211.00
76.3409 202.00
76.406 208.00
76.4712 221.00
76.5364 199.00
76.6016 198.00
76.6668 234.00
76.732 203.00
76.7972 225.00
76.8624 221.00
76.9276 209.00
76.9928 192.00
77.058 235.00
77.1232 231.00
77.1884 242.00
77.2536 285.00
77.3188 245.00
77.384 212.00
77.4492 261.00
77.5144 233.00
77.5796 215.00
77.6448 208.00
77.71 229.00
77.7752 203.00
77.8404 203.00
77.9056 204.00
77.9708 232.00
78.036 227.00
78.1012 217.00
78.1664 227.00
78.2316 225.00
78.2968 209.00
78.362 247.00
78.4272 320.00
78.4924 299.00
78.5576 313.00
78.6228 262.00
78.688 287.00
78.7532 233.00
78.8184 250.00
78.8836 250.00
78.9488 246.00
79.014 241.00
79.0792 213.00
79.1444 265.00
79.2096 242.00
79.2748 222.00
79.34 237.00
79.4052 189.00
79.4704 191.00
79.5356 239.00
79.6008 225.00
79.666 206.00
79.7312 223.00
79.7964 214.00
79.8616 224.00
79.9268 239.00
79.992 228.00
80.0572 205.00
80.1224 242.00
80.1876 249.00
80.2528 228.00
80.318 224.00
80.3832 230.00
80.4484 246.00
80.5136 230.00
80.5788 231.00
80.644 225.00
80.7092 216.00
80.7744 250.00
80.8396 237.00
80.9048 277.00
80.9699 279.00
81.0351 298.00
81.1003 239.00
81.1655 305.00
81.2307 235.00
81.2959 245.00
81.3611 245.00
81.4263 223.00
81.4915 211.00
81.5567 223.00
81.6219 235.00
81.6871 242.00
81.7523 248.00
81.8175 236.00
81.8827 259.00
81.9479 224.00
82.0131 228.00
82.0783 237.00
82.1435 227.00
82.2087 223.00
82.2739 248.00
82.3391 229.00
82.4043 269.00
82.4695 235.00
82.5347 200.00
82.5999 234.00
82.6651 230.00
82.7303 259.00
82.7955 242.00
82.8607 247.00
82.9259 212.00
82.9911 209.00
83.0563 196.00
83.1215 231.00
83.1867 246.00
83.2519 213.00
83.3171 236.00
83.3823 240.00
83.4475 224.00
83.5127 212.00
83.5779 231.00
83.6431 228.00
83.7083 229.00
83.7735 219.00
83.8387 262.00
83.9039 229.00
83.9691 226.00
84.0343 215.00
84.0995 241.00
84.1647 213.00
84.2299 218.00
84.2951 221.00
84.3603 209.00
84.4255 256.00
84.4907 223.00
84.5559 243.00
84.6211 280.00
84.6863 235.00
84.7515 241.00
84.8167 236.00
84.8819 225.00
84.9471 211.00
85.0123 233.00
85.0775 213.00
85.1427 258.00
85.2079 219.00
85.2731 210.00
85.3383 203.00
85.4035 236.00
85.4687 208.00
85.5339 209.00
85.5991 207.00
85.6643 212.00
85.7295 211.00
85.7946 244.00
85.8598 223.00
85.925 199.00
85.9903 207.00
86.0554 208.00
86.1206 219.00
86.1858 218.00
86.251 205.00
86.3162 208.00
86.3814 230.00
86.4466 203.00
86.5118 202.00
86.577 196.00
86.6422 219.00
86.7074 209.00
86.7726 215.00
86.8378 209.00
86.903 183.00
86.9682 241.00
87.0334 216.00
87.0986 215.00
87.1638 231.00
87.229 208.00
87.2942 212.00
87.3594 229.00
87.4246 190.00
87.4898 206.00
87.555 197.00
87.6202 212.00
87.6854 191.00
87.7506 200.00
87.8158 197.00
87.881 202.00
87.9462 193.00
88.0114 231.00
88.0766 189.00
88.1418 205.00
88.207 211.00
88.2722 180.00
88.3374 183.00
88.4026 191.00
88.4678 201.00
88.533 210.00
88.5982 195.00
88.6634 228.00
88.7286 182.00
88.7938 213.00
88.859 209.00
88.9242 196.00
88.9894 189.00
89.0546 208.00
89.1198 205.00
89.185 197.00
89.2502 195.00
89.3154 188.00
89.3806 207.00
89.4458 214.00
89.511 226.00
89.5762 229.00
89.6414 189.00
89.7066 209.00
89.7718 217.00
89.837 197.00
89.9022 186.00
89.9674 194.00
90.0326 207.00
90.0978 189.00
90.163 203.00
90.2282 185.00
90.2934 228.00
90.3586 200.00
90.4238 193.00
90.489 211.00
90.5542 174.00
90.6193 230.00
90.6845 217.00
90.7497 242.00
90.8149 197.00
90.8801 230.00
90.9453 213.00
91.0105 220.00
91.0757 164.00
91.1409 204.00
91.2061 211.00
91.2713 179.00
91.3365 209.00
91.4017 182.00
91.4669 208.00
91.5321 192.00
91.5973 186.00
91.6625 187.00
91.7277 181.00
91.7929 178.00
91.8581 184.00
91.9233 197.00
91.9885 220.00
92.0537 192.00
92.1189 198.00
92.1841 184.00
92.2493 204.00
92.3145 220.00
92.3797 207.00
92.4449 181.00
92.5101 176.00
92.5753 201.00
92.6405 197.00
92.7057 173.00
92.7709 180.00
92.8361 170.00
92.9013 197.00
92.9665 190.00
93.0317 204.00
93.0969 206.00
93.1621 190.00
93.2273 179.00
93.2925 191.00
93.3577 176.00
93.4229 192.00
93.4881 168.00
93.5533 213.00
93.6185 186.00
93.6837 202.00
93.7489 195.00
93.8141 177.00
93.8793 191.00
93.9445 186.00
94.0097 197.00
94.0749 186.00
94.1401 179.00
94.2053 207.00
94.2705 201.00
94.3357 196.00
94.4009 199.00
94.4661 211.00
94.5313 198.00
94.5965 203.00
94.6617 208.00
94.7269 203.00
94.7921 181.00
94.8573 175.00
94.9225 185.00
94.9877 184.00
95.0529 210.00
95.1181 177.00
95.1833 201.00
95.2485 222.00
95.3137 207.00
95.3789 196.00
95.444 218.00
95.5092 212.00
95.5744 219.00
95.6396 205.00
95.7048 213.00
95.77 202.00
95.8352 197.00
95.9004 209.00
95.9656 187.00
96.0308 179.00
96.096 197.00
96.1612 182.00
96.2264 211.00
96.2916 215.00
96.3568 202.00
96.422 181.00
96.4872 169.00
96.5524 206.00
96.6176 199.00
96.6828 183.00
96.748 184.00
96.8132 175.00
96.8784 201.00
96.9436 185.00
97.0088 169.00
97.074 205.00
97.1392 194.00
97.2044 181.00
97.2696 202.00
97.3348 163.00
97.4 187.00
97.4652 176.00
97.5304 181.00
97.5956 181.00
97.6608 219.00
97.726 181.00
97.7912 206.00
97.8564 191.00
97.9216 237.00
97.9868 221.00
98.052 211.00
98.1172 192.00
98.1824 191.00
98.2476 200.00
98.3128 217.00
98.378 174.00
98.4432 186.00
98.5084 218.00
98.5736 209.00
98.6388 219.00
98.704 182.00
98.7692 169.00
98.8344 205.00
98.8996 204.00
98.9648 193.00
99.03 178.00
99.0952 176.00
99.1604 202.00
99.2256 192.00
99.2908 201.00
99.356 181.00
99.4212 178.00
99.4864 196.00
99.5516 199.00
99.6168 209.00
99.682 186.00
99.7472 186.00
99.8124 193.00
99.8776 208.00
99.9428 209.00
100.008 187.00
100.073 200.00
100.095 194.00