File: data/xrd_creation/results/PG_1748-1.xy
9.903433 2484.00
9.968632 2462.00
10.0338 2507.00
10.099 2575.00
10.1642 2536.00
10.2294 2459.00
10.2946 2448.00
10.3598 2404.00
10.425 2476.00
10.4902 2515.00
10.5554 2301.00
10.6206 2471.00
10.6858 2376.00
10.751 2413.00
10.8162 2289.00
10.8814 2259.00
10.9466 2240.00
11.0118 2115.00
11.077 2193.00
11.1422 2301.00
11.2074 2199.00
11.2726 2154.00
11.3378 2113.00
11.403 2218.00
11.4682 2155.00
11.5334 2113.00
11.5986 2012.00
11.6638 2169.00
11.729 2015.00
11.7942 2037.00
11.8594 2064.00
11.9246 1980.00
11.9898 1982.00
12.055 1933.00
12.1202 2005.00
12.1854 2019.00
12.2506 1973.00
12.3158 2012.00
12.381 1976.00
12.4462 1898.00
12.5114 1884.00
12.5766 1859.00
12.6418 1814.00
12.707 1849.00
12.7722 1883.00
12.8374 1856.00
12.9026 1885.00
12.9678 1842.00
13.033 1879.00
13.0982 1832.00
13.1634 1836.00
13.2286 1866.00
13.2938 1807.00
13.359 1877.00
13.4242 1800.00
13.4894 1728.00
13.5546 1728.00
13.6198 1740.00
13.685 1823.00
13.7502 1721.00
13.8154 1809.00
13.8805 1792.00
13.9457 1736.00
14.0109 1738.00
14.0761 1706.00
14.1413 1720.00
14.2065 1678.00
14.2717 1670.00
14.3369 1673.00
14.4021 1666.00
14.4673 1672.00
14.5325 1650.00
14.5977 1583.00
14.6629 1656.00
14.7281 1672.00
14.7933 1646.00
14.8585 1581.00
14.9237 1613.00
14.9889 1590.00
15.0541 1529.00
15.1193 1653.00
15.1845 1686.00
15.2497 1613.00
15.3149 1679.00
15.3801 1668.00
15.4453 1705.00
15.5105 1812.00
15.5757 1901.00
15.6409 2037.00
15.7061 2158.00
15.7713 1844.00
15.8365 1727.00
15.9017 1527.00
15.9669 1627.00
16.0321 1563.00
16.0973 1534.00
16.1625 1578.00
16.2277 1546.00
16.2929 1551.00
16.3581 1494.00
16.4233 1562.00
16.4885 1545.00
16.5537 1522.00
16.6189 1522.00
16.6841 1494.00
16.7493 1557.00
16.8145 1543.00
16.8797 1504.00
16.9449 1488.00
17.0101 1444.00
17.0753 1458.00
17.1405 1484.00
17.2057 1433.00
17.2709 1454.00
17.3361 1475.00
17.4013 1494.00
17.4665 1544.00
17.5317 1612.00
17.5969 1538.00
17.6621 1670.00
17.7273 1843.00
17.7925 1880.00
17.8577 2207.00
17.9229 2002.00
17.9881 1621.00
18.0533 1422.00
18.1185 1413.00
18.1837 1461.00
18.2489 1430.00
18.3141 1373.00
18.3793 1393.00
18.4445 1373.00
18.5097 1417.00
18.5749 1385.00
18.6401 1362.00
18.7052 1367.00
18.7704 1293.00
18.8356 1372.00
18.9008 1422.00
18.966 1339.00
19.0312 1300.00
19.0964 1306.00
19.1616 1322.00
19.2268 1402.00
19.292 1361.00
19.3572 1300.00
19.4224 1354.00
19.4876 1334.00
19.5528 1302.00
19.618 1349.00
19.6832 1345.00
19.7484 1294.00
19.8136 1344.00
19.8788 1316.00
19.944 1350.00
20.0092 1404.00
20.0744 1346.00
20.1396 1361.00
20.2048 1450.00
20.27 1506.00
20.3352 1602.00
20.4004 1886.00
20.4656 2212.00
20.5308 2947.00
20.596 3581.00
20.6612 2998.00
20.7264 1913.00
20.7916 1486.00
20.8568 1391.00
20.922 1263.00
20.9872 1247.00
21.0524 1332.00
21.1176 1269.00
21.1828 1241.00
21.248 1245.00
21.3132 1265.00
21.3784 1184.00
21.4436 1191.00
21.5088 1205.00
21.574 1233.00
21.6392 1312.00
21.7044 1302.00
21.7696 1277.00
21.8348 1347.00
21.9 1532.00
21.9652 1719.00
22.0304 1953.00
22.0956 1720.00
22.1608 1437.00
22.226 1317.00
22.2912 1204.00
22.3564 1190.00
22.4216 1123.00
22.4868 1209.00
22.552 1186.00
22.6172 1210.00
22.6824 1229.00
22.7476 1134.00
22.8128 1140.00
22.878 1119.00
22.9432 1159.00
23.0084 1185.00
23.0736 1172.00
23.1388 1157.00
23.204 1138.00
23.2692 1133.00
23.3344 1042.00
23.3996 1086.00
23.4647 1094.00
23.5299 1117.00
23.5951 1102.00
23.6603 1170.00
23.7255 1187.00
23.7907 1165.00
23.8559 1200.00
23.9211 1142.00
23.9863 1183.00
24.0515 1326.00
24.1167 1375.00
24.1819 1369.00
24.2471 1578.00
24.3123 1856.00
24.3775 2380.00
24.4427 3147.00
24.5079 3633.00
24.5731 2939.00
24.6383 2287.00
24.7035 1922.00
24.7687 1986.00
24.8339 2606.00
24.8991 3099.00
24.9643 2788.00
25.0295 1827.00
25.0947 1416.00
25.1599 1194.00
25.2251 1182.00
25.2903 1230.00
25.3555 1134.00
25.4207 1130.00
25.4859 1148.00
25.5511 1183.00
25.6163 1137.00
25.6815 1116.00
25.7467 1180.00
25.8119 1148.00
25.8771 1287.00
25.9423 1226.00
26.0075 1121.00
26.0727 1133.00
26.1379 1224.00
26.2031 1293.00
26.2683 1414.00
26.3335 1785.00
26.3987 2310.00
26.4639 2908.00
26.5291 2061.00
26.5943 1401.00
26.6595 1156.00
26.7247 1141.00
26.7899 1091.00
26.8551 1065.00
26.9203 1092.00
26.9855 1065.00
27.0507 1092.00
27.1159 1034.00
27.1811 1055.00
27.2463 1004.00
27.3115 1033.00
27.3767 1120.00
27.4419 1147.00
27.5071 1112.00
27.5723 1085.00
27.6375 1113.00
27.7027 1172.00
27.7679 1206.00
27.8331 1301.00
27.8983 1318.00
27.9635 1428.00
28.0287 1459.00
28.0939 1667.00
28.1591 1790.00
28.2243 2040.00
28.2894 2519.00
28.3546 3286.00
28.4198 4663.00
28.485 7058.00
28.5502 10823.00
28.6154 15698.00
28.6806 16072.00
28.7458 10733.00
28.811 5749.00
28.8762 3454.00
28.9414 2584.00
29.0066 2125.00
29.0718 1794.00
29.137 1587.00
29.2022 1477.00
29.2674 1360.00
29.3326 1305.00
29.3978 1283.00
29.463 1221.00
29.5282 1242.00
29.5934 1267.00
29.6586 1146.00
29.7238 1079.00
29.789 1167.00
29.8542 1134.00
29.9194 1109.00
29.9846 1125.00
30.0498 1093.00
30.115 1106.00
30.1802 1041.00
30.2454 1030.00
30.3106 1092.00
30.3758 1130.00
30.441 1080.00
30.5062 1083.00
30.5714 1070.00
30.6366 1056.00
30.7018 1062.00
30.767 1160.00
30.8322 1220.00
30.8974 1174.00
30.9626 1269.00
31.0278 1356.00
31.093 1390.00
31.1582 1699.00
31.2234 2124.00
31.2886 2654.00
31.3538 2880.00
31.419 2392.00
31.4842 2074.00
31.5494 2119.00
31.6146 2448.00
31.6798 3088.00
31.745 4119.00
31.8102 6094.00
31.8754 9516.00
31.9406 12906.00
32.0058 12410.00
32.071 8026.00
32.1362 4591.00
32.2014 2914.00
32.2666 2240.00
32.3318 1924.00
32.397 1523.00
32.4622 1458.00
32.5274 1451.00
32.5926 1631.00
32.6578 1784.00
32.723 1667.00
32.7882 1413.00
32.8534 1171.00
32.9186 1062.00
32.9838 1006.00
33.0489 1054.00
33.1141 1018.00
33.1793 1005.00
33.2445 1019.00
33.3097 1004.00
33.3749 965.00
33.4401 1071.00
33.5053 1015.00
33.5705 1176.00
33.6357 1240.00
33.7009 1159.00
33.7661 1060.00
33.8313 1051.00
33.8965 1036.00
33.9617 1015.00
34.0269 1114.00
34.0921 1036.00
34.1573 1195.00
34.2225 1232.00
34.2877 1399.00
34.3529 1613.00
34.4181 2022.00
34.4833 2919.00
34.5485 4487.00
34.6137 6032.00
34.6789 5945.00
34.7441 4724.00
34.8093 4129.00
34.8745 4769.00
34.9397 4733.00
35.0049 3566.00
35.0701 2369.00
35.1353 1677.00
35.2005 1402.00
35.2657 1300.00
35.3309 1238.00
35.3961 1255.00
35.4613 1303.00
35.5265 1362.00
35.5917 1718.00
35.6569 2227.00
35.7221 3284.00
35.7873 4820.00
35.8525 5141.00
35.9177 3676.00
35.9829 2168.00
36.0481 1609.00
36.1133 1420.00
36.1785 1345.00
36.2437 1526.00
36.3089 1841.00
36.3741 2138.00
36.4393 1906.00
36.5045 1488.00
36.5697 1201.00
36.6349 995.00
36.7001 952.00
36.7653 922.00
36.8305 869.00
36.8957 901.00
36.9609 905.00
37.0261 886.00
37.0913 898.00
37.1565 850.00
37.2217 860.00
37.2869 815.00
37.3521 871.00
37.4173 838.00
37.4825 793.00
37.5477 834.00
37.6129 861.00
37.6781 899.00
37.7433 890.00
37.8085 866.00
37.8736 848.00
37.9388 813.00
38.004 799.00
38.0692 814.00
38.1344 818.00
38.1996 821.00
38.2648 874.00
38.33 863.00
38.3952 815.00
38.4604 905.00
38.5256 753.00
38.5908 856.00
38.656 897.00
38.7212 838.00
38.7864 961.00
38.8516 1072.00
38.9168 1304.00
38.982 1555.00
39.0472 2190.00
39.1124 2329.00
39.1776 1882.00
39.2428 1452.00
39.308 1169.00
39.3732 982.00
39.4384 917.00
39.5036 880.00
39.5688 846.00
39.634 791.00
39.6992 771.00
39.7644 826.00
39.8296 839.00
39.8948 843.00
39.96 824.00
40.0252 870.00
40.0904 818.00
40.1556 840.00
40.2208 823.00
40.286 851.00
40.3512 854.00
40.4164 939.00
40.4816 1025.00
40.5468 984.00
40.612 915.00
40.6772 937.00
40.7424 920.00
40.8076 948.00
40.8728 1046.00
40.938 1117.00
41.0032 1246.00
41.0684 1460.00
41.1336 1919.00
41.1988 2456.00
41.264 3049.00
41.3292 2946.00
41.3944 2386.00
41.4596 1992.00
41.5248 1764.00
41.59 1917.00
41.6552 1956.00
41.7204 1766.00
41.7856 1688.00
41.8508 1620.00
41.916 1627.00
41.9812 1479.00
42.0464 1359.00
42.1116 1132.00
42.1768 916.00
42.242 960.00
42.3072 984.00
42.3724 910.00
42.4376 941.00
42.5028 861.00
42.568 821.00
42.6332 775.00
42.6983 728.00
42.7635 734.00
42.8287 736.00
42.8939 773.00
42.9591 747.00
43.0243 764.00
43.0895 719.00
43.1547 765.00
43.2199 759.00
43.2851 766.00
43.3503 766.00
43.4155 769.00
43.4807 731.00
43.5459 707.00
43.6111 718.00
43.6763 716.00
43.7415 728.00
43.8067 743.00
43.8719 723.00
43.9371 762.00
44.0023 701.00
44.0675 767.00
44.1327 742.00
44.1979 747.00
44.2631 742.00
44.3283 748.00
44.3935 748.00
44.4587 735.00
44.5239 807.00
44.5891 739.00
44.6543 815.00
44.7195 821.00
44.7847 785.00
44.8499 773.00
44.9151 798.00
44.9803 849.00
45.0455 810.00
45.1107 887.00
45.1759 927.00
45.2411 1099.00
45.3063 1367.00
45.3715 1596.00
45.4367 1463.00
45.5019 1377.00
45.5671 1112.00
45.6323 1099.00
45.6975 1139.00
45.7627 1291.00
45.8279 1249.00
45.8931 1335.00
45.9583 1510.00
46.0235 1776.00
46.0887 1913.00
46.1539 1578.00
46.2191 1401.00
46.2843 1082.00
46.3495 938.00
46.4147 819.00
46.4799 811.00
46.5451 721.00
46.6103 762.00
46.6755 728.00
46.7407 766.00
46.8059 754.00
46.8711 756.00
46.9363 727.00
47.0015 711.00
47.0667 727.00
47.1319 743.00
47.1971 746.00
47.2623 695.00
47.3275 751.00
47.3927 764.00
47.4579 847.00
47.523 948.00
47.5882 1059.00
47.6534 1194.00
47.7186 1028.00
47.7838 983.00
47.849 825.00
47.9142 778.00
47.9794 788.00
48.0446 871.00
48.1098 918.00
48.175 996.00
48.2402 910.00
48.3054 878.00
48.3706 756.00
48.4358 757.00
48.501 732.00
48.5662 750.00
48.6314 760.00
48.6966 750.00
48.7618 750.00
48.827 802.00
48.8922 756.00
48.9574 889.00
49.0226 935.00
49.0878 1052.00
49.153 1068.00
49.2182 1038.00
49.2834 1001.00
49.3486 956.00
49.4138 1126.00
49.479 1265.00
49.5442 1298.00
49.6094 1514.00
49.6746 1866.00
49.7398 2756.00
49.805 3995.00
49.8702 4123.00
49.9354 3260.00
50.0006 2504.00
50.0658 1694.00
50.131 1242.00
50.1962 1119.00
50.2614 1116.00
50.3266 1094.00
50.3918 1125.00
50.457 1305.00
50.5222 1526.00
50.5874 2261.00
50.6526 3783.00
50.7178 5256.00
50.783 4421.00
50.8482 3729.00
50.9134 2781.00
50.9786 2112.00
51.0438 2260.00
51.109 2884.00
51.1742 2965.00
51.2394 2438.00
51.3046 1942.00
51.3698 1604.00
51.435 1467.00
51.5002 1614.00
51.5654 1330.00
51.6306 1475.00
51.6958 1489.00
51.761 1510.00
51.8262 1591.00
51.8914 1469.00
51.9566 1284.00
52.0218 1078.00
52.087 930.00
52.1522 862.00
52.2174 968.00
52.2826 1009.00
52.3477 938.00
52.4129 936.00
52.4781 838.00
52.5433 732.00
52.6085 782.00
52.6737 742.00
52.7389 793.00
52.8041 753.00
52.8693 758.00
52.9345 737.00
52.9997 735.00
53.0649 716.00
53.1301 717.00
53.1953 758.00
53.2605 711.00
53.3257 727.00
53.3909 708.00
53.4561 695.00
53.5213 763.00
53.5865 718.00
53.6517 749.00
53.7169 701.00
53.7821 772.00
53.8473 735.00
53.9125 787.00
53.9777 730.00
54.0429 827.00
54.1081 784.00
54.1733 889.00
54.2385 922.00
54.3037 916.00
54.3689 946.00
54.4341 1143.00
54.4993 1259.00
54.5645 1612.00
54.6297 2150.00
54.6949 2608.00
54.7601 2682.00
54.8253 2214.00
54.8905 1900.00
54.9557 1410.00
55.0209 1129.00
55.0861 1000.00
55.1513 987.00
55.2165 1039.00
55.2817 1049.00
55.3469 1073.00
55.4121 972.00
55.4773 981.00
55.5425 1054.00
55.6077 1027.00
55.6729 1191.00
55.7381 1402.00
55.8033 1780.00
55.8685 2551.00
55.9337 3418.00
55.9989 3638.00
56.0641 3241.00
56.1293 3189.00
56.1945 2840.00
56.2597 2255.00
56.3249 2044.00
56.3901 1980.00
56.4553 2059.00
56.5205 2520.00
56.5857 2332.00
56.6509 2019.00
56.7161 1737.00
56.7813 1328.00
56.8465 1095.00
56.9117 937.00
56.9769 882.00
57.042 900.00
57.1073 870.00
57.1724 792.00
57.2376 887.00
57.3028 779.00
57.368 918.00
57.4332 1008.00
57.4984 957.00
57.5636 982.00
57.6288 1253.00
57.694 1530.00
57.7592 2009.00
57.8244 2095.00
57.8896 1845.00
57.9548 1767.00
58.02 1406.00
58.0852 1152.00
58.1504 1041.00
58.2156 1071.00
58.2808 1121.00
58.346 1203.00
58.4112 1434.00
58.4764 1716.00
58.5416 1873.00
58.6068 1712.00
58.672 1665.00
58.7372 1515.00
58.8024 1481.00
58.8676 1617.00
58.9328 1623.00
58.998 1364.00
59.0632 1267.00
59.1284 1144.00
59.1936 1041.00
59.2588 988.00
59.324 993.00
59.3892 954.00
59.4544 907.00
59.5196 832.00
59.5848 805.00
59.65 741.00
59.7152 831.00
59.7804 847.00
59.8456 822.00
59.9108 794.00
59.976 855.00
60.0412 869.00
60.1064 910.00
60.1716 1012.00
60.2368 1182.00
60.302 1496.00
60.3672 1908.00
60.4324 2412.00
60.4976 2386.00
60.5628 2373.00
60.628 2424.00
60.6932 2214.00
60.7584 1874.00
60.8236 1587.00
60.8888 1413.00
60.954 1122.00
61.0192 1007.00
61.0844 928.00
61.1496 981.00
61.2148 938.00
61.28 924.00
61.3452 1103.00
61.4104 1102.00
61.4756 972.00
61.5408 1002.00
61.606 957.00
61.6712 939.00
61.7364 951.00
61.8016 1075.00
61.8667 1302.00
61.932 1504.00
61.9971 1854.00
62.0623 1876.00
62.1275 1658.00
62.1927 1681.00
62.2579 1544.00
62.3231 1557.00
62.3883 1643.00
62.4535 1622.00
62.5187 1967.00
62.5839 2289.00
62.6491 2034.00
62.7143 1716.00
62.7795 1591.00
62.8447 1325.00
62.9099 1062.00
62.9751 991.00
63.0403 991.00
63.1055 951.00
63.1707 964.00
63.2359 1099.00
63.3011 1191.00
63.3663 1458.00
63.4315 1894.00
63.4967 2244.00
63.5619 2248.00
63.6271 1987.00
63.6923 1782.00
63.7575 1517.00
63.8227 1217.00
63.8879 940.00
63.9531 944.00
64.0183 898.00
64.0835 807.00
64.1487 797.00
64.2139 763.00
64.2791 787.00
64.3443 748.00
64.4095 735.00
64.4747 797.00
64.5399 859.00
64.6051 932.00
64.6703 955.00
64.7355 1118.00
64.8007 1228.00
64.8659 1270.00
64.9311 1381.00
64.9963 1292.00
65.0615 1092.00
65.1267 1044.00
65.1919 903.00
65.2571 854.00
65.3223 832.00
65.3875 854.00
65.4527 773.00
65.5179 809.00
65.5831 829.00
65.6483 905.00
65.7135 930.00
65.7787 876.00
65.8439 922.00
65.9091 964.00
65.9743 1148.00
66.0395 1299.00
66.1047 1318.00
66.1699 1335.00
66.2351 1644.00
66.3003 1930.00
66.3655 2230.00
66.4307 2289.00
66.4959 2051.00
66.561 1792.00
66.6263 1675.00
66.6915 1290.00
66.7566 1094.00
66.8218 951.00
66.887 875.00
66.9522 796.00
67.0174 732.00
67.0826 728.00
67.1478 683.00
67.213 734.00
67.2782 759.00
67.3434 678.00
67.4086 699.00
67.4738 687.00
67.539 675.00
67.6042 697.00
67.6694 689.00
67.7346 679.00
67.7998 658.00
67.865 659.00
67.9302 693.00
67.9954 717.00
68.0606 732.00
68.1258 694.00
68.191 695.00
68.2562 737.00
68.3214 651.00
68.3866 681.00
68.4518 705.00
68.517 767.00
68.5822 709.00
68.6474 763.00
68.7126 714.00
68.7778 711.00
68.843 717.00
68.9082 712.00
68.9734 695.00
69.0386 750.00
69.1038 765.00
69.169 780.00
69.2342 765.00
69.2994 734.00
69.3646 832.00
69.4298 826.00
69.495 885.00
69.5602 1026.00
69.6254 1128.00
69.6906 1168.00
69.7558 1058.00
69.821 1041.00
69.8862 992.00
69.9514 859.00
70.0166 796.00
70.0818 777.00
70.147 791.00
70.2122 839.00
70.2774 800.00
70.3426 885.00
70.4078 830.00
70.473 903.00
70.5382 879.00
70.6034 847.00
70.6686 802.00
70.7338 764.00
70.799 826.00
70.8642 864.00
70.9294 770.00
70.9946 812.00
71.0598 780.00
71.125 761.00
71.1902 703.00
71.2554 719.00
71.3205 714.00
71.3858 750.00
71.451 803.00
71.5162 892.00
71.5813 959.00
71.6465 1051.00
71.7117 1207.00
71.7769 1392.00
71.8421 1538.00
71.9073 1675.00
71.9725 1659.00
72.0377 1561.00
72.1029 1293.00
72.1681 1215.00
72.2333 1051.00
72.2985 914.00
72.3637 802.00
72.4289 859.00
72.4941 974.00
72.5593 1023.00
72.6245 1013.00
72.6897 1043.00
72.7549 1185.00
72.8201 1186.00
72.8853 1133.00
72.9505 1074.00
73.0157 1052.00
73.0809 980.00
73.1461 1004.00
73.2113 1003.00
73.2765 1071.00
73.3417 1016.00
73.4069 1008.00
73.4721 865.00
73.5373 886.00
73.6025 887.00
73.6677 779.00
73.7329 765.00
73.7981 749.00
73.8633 678.00
73.9285 692.00
73.9937 708.00
74.0589 720.00
74.1241 707.00
74.1893 767.00
74.2545 734.00
74.3197 715.00
74.3849 774.00
74.4501 765.00
74.5153 752.00
74.5805 762.00
74.6457 737.00
74.7109 855.00
74.7761 820.00
74.8413 737.00
74.9065 747.00
74.9717 751.00
75.0369 757.00
75.1021 723.00
75.1673 775.00
75.2325 773.00
75.2977 883.00
75.3629 1015.00
75.4281 1067.00
75.4933 1054.00
75.5585 990.00
75.6237 1062.00
75.6889 1103.00
75.7541 1247.00
75.8193 1533.00
75.8845 1430.00
75.9497 1308.00
76.0149 1220.00
76.0801 1209.00
76.1452 1048.00
76.2104 1073.00
76.2756 912.00
76.3409 796.00
76.406 732.00
76.4712 809.00
76.5364 758.00
76.6016 729.00
76.6668 757.00
76.732 712.00
76.7972 666.00
76.8624 724.00
76.9276 737.00
76.9928 789.00
77.058 927.00
77.1232 1010.00
77.1884 1008.00
77.2536 1040.00
77.3188 1000.00
77.384 939.00
77.4492 951.00
77.5144 902.00
77.5796 906.00
77.6448 852.00
77.71 883.00
77.7752 859.00
77.8404 834.00
77.9056 796.00
77.9708 864.00
78.036 915.00
78.1012 984.00
78.1664 998.00
78.2316 950.00
78.2968 1041.00
78.362 965.00
78.4272 943.00
78.4924 943.00
78.5576 896.00
78.6228 845.00
78.688 853.00
78.7532 872.00
78.8184 953.00
78.8836 904.00
78.9488 790.00
79.014 836.00
79.0792 801.00
79.1444 831.00
79.2096 831.00
79.2748 798.00
79.34 817.00
79.4052 852.00
79.4704 888.00
79.5356 924.00
79.6008 1014.00
79.666 1193.00
79.7312 1173.00
79.7964 1073.00
79.8616 1038.00
79.9268 1020.00
79.992 909.00
80.0572 761.00
80.1224 758.00
80.1876 744.00
80.2528 714.00
80.318 706.00
80.3832 661.00
80.4484 683.00
80.5136 636.00
80.5788 628.00
80.644 709.00
80.7092 711.00
80.7744 679.00
80.8396 680.00
80.9048 701.00
80.9699 751.00
81.0351 726.00
81.1003 749.00
81.1655 749.00
81.2307 781.00
81.2959 758.00
81.3611 768.00
81.4263 775.00
81.4915 802.00
81.5567 733.00
81.6219 729.00
81.6871 692.00
81.7523 789.00
81.8175 743.00
81.8827 764.00
81.9479 813.00
82.0131 850.00
82.0783 888.00
82.1435 851.00
82.2087 1003.00
82.2739 997.00
82.3391 1173.00
82.4043 1121.00
82.4695 977.00
82.5347 966.00
82.5999 941.00
82.6651 867.00
82.7303 768.00
82.7955 814.00
82.8607 766.00
82.9259 833.00
82.9911 917.00
83.0563 917.00
83.1215 857.00
83.1867 908.00
83.2519 1025.00
83.3171 1091.00
83.3823 1090.00
83.4475 1121.00
83.5127 992.00
83.5779 1023.00
83.6431 1017.00
83.7083 1097.00
83.7735 1077.00
83.8387 1142.00
83.9039 1161.00
83.9691 1138.00
84.0343 1113.00
84.0995 1202.00
84.1647 1172.00
84.2299 1057.00
84.2951 987.00
84.3603 965.00
84.4255 973.00
84.4907 899.00
84.5559 1020.00
84.6211 1099.00
84.6863 1171.00
84.7515 1178.00
84.8167 1151.00
84.8819 1200.00
84.9471 1248.00
85.0123 1182.00
85.0775 1095.00
85.1427 1056.00
85.2079 936.00
85.2731 954.00
85.3383 897.00
85.4035 863.00
85.4687 825.00
85.5339 787.00
85.5991 929.00
85.6643 1046.00
85.7295 1073.00
85.7946 1032.00
85.8598 885.00
85.925 887.00
85.9903 936.00
86.0554 797.00
86.1206 786.00
86.1858 747.00
86.251 701.00
86.3162 712.00
86.3814 689.00
86.4466 711.00
86.5118 735.00
86.577 717.00
86.6422 779.00
86.7074 776.00
86.7726 830.00
86.8378 888.00
86.903 906.00
86.9682 955.00
87.0334 938.00
87.0986 873.00
87.1638 918.00
87.229 887.00
87.2942 800.00
87.3594 807.00
87.4246 774.00
87.4898 743.00
87.555 739.00
87.6202 713.00
87.6854 760.00
87.7506 768.00
87.8158 745.00
87.881 734.00
87.9462 766.00
88.0114 739.00
88.0766 781.00
88.1418 885.00
88.207 1000.00
88.2722 1062.00
88.3374 1134.00
88.4026 1047.00
88.4678 966.00
88.533 963.00
88.5982 981.00
88.6634 1002.00
88.7286 944.00
88.7938 943.00
88.859 1062.00
88.9242 1095.00
88.9894 1166.00
89.0546 1151.00
89.1198 1091.00
89.185 1123.00
89.2502 1213.00
89.3154 1285.00
89.3806 1308.00
89.4458 1255.00
89.511 1123.00
89.5762 992.00
89.6414 1043.00
89.7066 990.00
89.7718 958.00
89.837 900.00
89.9022 903.00
89.9674 836.00
90.0326 916.00
90.0978 942.00
90.163 1001.00
90.2282 997.00
90.2934 949.00
90.3586 967.00
90.4238 991.00
90.489 1159.00
90.5542 1096.00
90.6193 1232.00
90.6845 1254.00
90.7497 1146.00
90.8149 1091.00
90.8801 1109.00
90.9453 1076.00
91.0105 943.00
91.0757 901.00
91.1409 877.00
91.2061 830.00
91.2713 818.00
91.3365 819.00
91.4017 777.00
91.4669 774.00
91.5321 808.00
91.5973 809.00
91.6625 759.00
91.7277 730.00
91.7929 824.00
91.8581 816.00
91.9233 782.00
91.9885 801.00
92.0537 822.00
92.1189 832.00
92.1841 913.00
92.2493 814.00
92.3145 830.00
92.3797 835.00
92.4449 777.00
92.5101 818.00
92.5753 759.00
92.6405 741.00
92.7057 698.00
92.7709 739.00
92.8361 739.00
92.9013 680.00
92.9665 706.00
93.0317 785.00
93.0969 741.00
93.1621 765.00
93.2273 732.00
93.2925 673.00
93.3577 709.00
93.4229 699.00
93.4881 669.00
93.5533 790.00
93.6185 741.00
93.6837 729.00
93.7489 754.00
93.8141 711.00
93.8793 833.00
93.9445 721.00
94.0097 736.00
94.0749 740.00
94.1401 743.00
94.2053 794.00
94.2705 731.00
94.3357 798.00
94.4009 745.00
94.4661 832.00
94.5313 816.00
94.5965 859.00
94.6617 891.00
94.7269 944.00
94.7921 873.00
94.8573 893.00
94.9225 875.00
94.9877 891.00
95.0529 817.00
95.1181 852.00
95.1833 730.00
95.2485 778.00
95.3137 811.00
95.3789 808.00
95.444 818.00
95.5092 829.00
95.5744 881.00
95.6396 935.00
95.7048 905.00
95.77 932.00
95.8352 985.00
95.9004 1023.00
95.9656 1096.00
96.0308 1147.00
96.096 1141.00
96.1612 1053.00
96.2264 983.00
96.2916 1001.00
96.3568 889.00
96.422 900.00
96.4872 881.00
96.5524 868.00
96.6176 829.00
96.6828 761.00
96.748 844.00
96.8132 848.00
96.8784 993.00
96.9436 1023.00
97.0088 1125.00
97.074 1175.00
97.1392 1067.00
97.2044 1073.00
97.2696 1101.00
97.3348 1224.00
97.4 1284.00
97.4652 1335.00
97.5304 1288.00
97.5956 1288.00
97.6608 1269.00
97.726 1221.00
97.7912 1302.00
97.8564 1324.00
97.9216 1334.00
97.9868 1238.00
98.052 1128.00
98.1172 1100.00
98.1824 1044.00
98.2476 950.00
98.3128 993.00
98.378 893.00
98.4432 864.00
98.5084 834.00
98.5736 812.00
98.6388 835.00
98.704 846.00
98.7692 862.00
98.8344 971.00
98.8996 1017.00
98.9648 1103.00
99.03 982.00
99.0952 1008.00
99.1604 993.00
99.2256 1034.00
99.2908 987.00
99.356 976.00
99.4212 989.00
99.4864 1020.00
99.5516 1036.00
99.6168 1103.00
99.682 1158.00
99.7472 1115.00
99.8124 1116.00
99.8776 1084.00
99.9428 1020.00
100.008 1049.00
100.073 1145.00
100.095 1132.00