File: data/xrd_creation/results/PG_1851-1.xy
9.903433 2550.00
9.968632 2508.00
10.0338 2573.00
10.099 2542.00
10.1642 2439.00
10.2294 2391.00
10.2946 2431.00
10.3598 2399.00
10.425 2408.00
10.4902 2370.00
10.5554 2288.00
10.6206 2290.00
10.6858 2211.00
10.751 2290.00
10.8162 2306.00
10.8814 2197.00
10.9466 2205.00
11.0118 2205.00
11.077 2183.00
11.1422 2132.00
11.2074 2129.00
11.2726 2162.00
11.3378 2081.00
11.403 2028.00
11.4682 2049.00
11.5334 2000.00
11.5986 2036.00
11.6638 1904.00
11.729 2081.00
11.7942 1991.00
11.8594 1952.00
11.9246 1989.00
11.9898 1989.00
12.055 1929.00
12.1202 1897.00
12.1854 1890.00
12.2506 1828.00
12.3158 1856.00
12.381 1806.00
12.4462 1846.00
12.5114 1784.00
12.5766 1871.00
12.6418 1792.00
12.707 1692.00
12.7722 1784.00
12.8374 1676.00
12.9026 1699.00
12.9678 1749.00
13.033 1686.00
13.0982 1668.00
13.1634 1715.00
13.2286 1723.00
13.2938 1658.00
13.359 1754.00
13.4242 1653.00
13.4894 1532.00
13.5546 1620.00
13.6198 1548.00
13.685 1579.00
13.7502 1573.00
13.8154 1572.00
13.8805 1594.00
13.9457 1591.00
14.0109 1560.00
14.0761 1558.00
14.1413 1618.00
14.2065 1511.00
14.2717 1533.00
14.3369 1511.00
14.4021 1475.00
14.4673 1636.00
14.5325 1459.00
14.5977 1513.00
14.6629 1472.00
14.7281 1501.00
14.7933 1414.00
14.8585 1452.00
14.9237 1595.00
14.9889 1454.00
15.0541 1496.00
15.1193 1419.00
15.1845 1488.00
15.2497 1513.00
15.3149 1483.00
15.3801 1507.00
15.4453 1448.00
15.5105 1450.00
15.5757 1438.00
15.6409 1386.00
15.7061 1431.00
15.7713 1346.00
15.8365 1409.00
15.9017 1382.00
15.9669 1381.00
16.0321 1328.00
16.0973 1440.00
16.1625 1377.00
16.2277 1388.00
16.2929 1305.00
16.3581 1376.00
16.4233 1333.00
16.4885 1324.00
16.5537 1335.00
16.6189 1305.00
16.6841 1327.00
16.7493 1317.00
16.8145 1335.00
16.8797 1293.00
16.9449 1331.00
17.0101 1277.00
17.0753 1264.00
17.1405 1331.00
17.2057 1273.00
17.2709 1274.00
17.3361 1231.00
17.4013 1265.00
17.4665 1277.00
17.5317 1232.00
17.5969 1261.00
17.6621 1252.00
17.7273 1264.00
17.7925 1308.00
17.8577 1226.00
17.9229 1296.00
17.9881 1207.00
18.0533 1234.00
18.1185 1238.00
18.1837 1208.00
18.2489 1261.00
18.3141 1193.00
18.3793 1259.00
18.4445 1232.00
18.5097 1207.00
18.5749 1224.00
18.6401 1177.00
18.7052 1184.00
18.7704 1147.00
18.8356 1138.00
18.9008 1145.00
18.966 1171.00
19.0312 1057.00
19.0964 1080.00
19.1616 1190.00
19.2268 1135.00
19.292 1103.00
19.3572 1168.00
19.4224 1092.00
19.4876 1124.00
19.5528 1122.00
19.618 1102.00
19.6832 1077.00
19.7484 1131.00
19.8136 1004.00
19.8788 1098.00
19.944 1041.00
20.0092 1081.00
20.0744 1088.00
20.1396 1005.00
20.2048 1092.00
20.27 1088.00
20.3352 1031.00
20.4004 1079.00
20.4656 1026.00
20.5308 1064.00
20.596 1069.00
20.6612 1045.00
20.7264 997.00
20.7916 1034.00
20.8568 985.00
20.922 1091.00
20.9872 981.00
21.0524 997.00
21.1176 1069.00
21.1828 1029.00
21.248 1004.00
21.3132 1003.00
21.3784 1049.00
21.4436 1076.00
21.5088 1158.00
21.574 1242.00
21.6392 1353.00
21.7044 1714.00
21.7696 2031.00
21.8348 1725.00
21.9 1197.00
21.9652 1071.00
22.0304 1023.00
22.0956 936.00
22.1608 983.00
22.226 963.00
22.2912 966.00
22.3564 894.00
22.4216 996.00
22.4868 933.00
22.552 947.00
22.6172 917.00
22.6824 942.00
22.7476 891.00
22.8128 948.00
22.878 888.00
22.9432 916.00
23.0084 945.00
23.0736 925.00
23.1388 903.00
23.204 917.00
23.2692 989.00
23.3344 878.00
23.3996 924.00
23.4647 861.00
23.5299 921.00
23.5951 848.00
23.6603 898.00
23.7255 925.00
23.7907 895.00
23.8559 812.00
23.9211 856.00
23.9863 792.00
24.0515 807.00
24.1167 827.00
24.1819 892.00
24.2471 846.00
24.3123 828.00
24.3775 884.00
24.4427 849.00
24.5079 834.00
24.5731 776.00
24.6383 777.00
24.7035 868.00
24.7687 780.00
24.8339 808.00
24.8991 816.00
24.9643 807.00
25.0295 777.00
25.0947 801.00
25.1599 745.00
25.2251 790.00
25.2903 778.00
25.3555 777.00
25.4207 785.00
25.4859 789.00
25.5511 801.00
25.6163 760.00
25.6815 765.00
25.7467 722.00
25.8119 769.00
25.8771 779.00
25.9423 731.00
26.0075 726.00
26.0727 715.00
26.1379 803.00
26.2031 768.00
26.2683 739.00
26.3335 742.00
26.3987 756.00
26.4639 738.00
26.5291 743.00
26.5943 737.00
26.6595 737.00
26.7247 739.00
26.7899 741.00
26.8551 708.00
26.9203 739.00
26.9855 785.00
27.0507 733.00
27.1159 735.00
27.1811 695.00
27.2463 741.00
27.3115 725.00
27.3767 705.00
27.4419 734.00
27.5071 691.00
27.5723 754.00
27.6375 738.00
27.7027 750.00
27.7679 785.00
27.8331 826.00
27.8983 818.00
27.9635 746.00
28.0287 730.00
28.0939 674.00
28.1591 720.00
28.2243 716.00
28.2894 734.00
28.3546 723.00
28.4198 678.00
28.485 699.00
28.5502 701.00
28.6154 701.00
28.6806 644.00
28.7458 727.00
28.811 698.00
28.8762 640.00
28.9414 683.00
29.0066 635.00
29.0718 676.00
29.137 632.00
29.2022 687.00
29.2674 684.00
29.3326 668.00
29.3978 685.00
29.463 690.00
29.5282 676.00
29.5934 675.00
29.6586 632.00
29.7238 669.00
29.789 655.00
29.8542 689.00
29.9194 751.00
29.9846 692.00
30.0498 682.00
30.115 733.00
30.1802 718.00
30.2454 755.00
30.3106 766.00
30.3758 843.00
30.441 906.00
30.5062 994.00
30.5714 1249.00
30.6366 1942.00
30.7018 3361.00
30.767 6823.00
30.8322 11714.00
30.8974 11349.00
30.9626 5607.00
31.0278 1940.00
31.093 1254.00
31.1582 1309.00
31.2234 1627.00
31.2886 2219.00
31.3538 2412.00
31.419 2065.00
31.4842 1624.00
31.5494 1208.00
31.6146 1118.00
31.6798 1101.00
31.745 1257.00
31.8102 1401.00
31.8754 1547.00
31.9406 1671.00
32.0058 1567.00
32.071 1196.00
32.1362 998.00
32.2014 905.00
32.2666 910.00
32.3318 951.00
32.397 1027.00
32.4622 1053.00
32.5274 1256.00
32.5926 1298.00
32.6578 1304.00
32.723 1069.00
32.7882 874.00
32.8534 844.00
32.9186 806.00
32.9838 815.00
33.0489 843.00
33.1141 900.00
33.1793 889.00
33.2445 821.00
33.3097 783.00
33.3749 905.00
33.4401 777.00
33.5053 758.00
33.5705 654.00
33.6357 691.00
33.7009 702.00
33.7661 695.00
33.8313 712.00
33.8965 676.00
33.9617 777.00
34.0269 728.00
34.0921 698.00
34.1573 694.00
34.2225 733.00
34.2877 742.00
34.3529 720.00
34.4181 785.00
34.4833 805.00
34.5485 834.00
34.6137 884.00
34.6789 1002.00
34.7441 1036.00
34.8093 1025.00
34.8745 1264.00
34.9397 1516.00
35.0049 1817.00
35.0701 1706.00
35.1353 1574.00
35.2005 1429.00
35.2657 1371.00
35.3309 1311.00
35.3961 1325.00
35.4613 1441.00
35.5265 1650.00
35.5917 2260.00
35.6569 3962.00
35.7221 5889.00
35.7873 4674.00
35.8525 3032.00
35.9177 1637.00
35.9829 1303.00
36.0481 1185.00
36.1133 1203.00
36.1785 1244.00
36.2437 1325.00
36.3089 1416.00
36.3741 1512.00
36.4393 1662.00
36.5045 1514.00
36.5697 1184.00
36.6349 975.00
36.7001 773.00
36.7653 731.00
36.8305 710.00
36.8957 624.00
36.9609 628.00
37.0261 588.00
37.0913 607.00
37.1565 596.00
37.2217 594.00
37.2869 590.00
37.3521 683.00
37.4173 627.00
37.4825 596.00
37.5477 591.00
37.6129 555.00
37.6781 552.00
37.7433 627.00
37.8085 654.00
37.8736 869.00
37.9388 1263.00
38.004 1043.00
38.0692 812.00
38.1344 636.00
38.1996 569.00
38.2648 587.00
38.33 510.00
38.3952 494.00
38.4604 486.00
38.5256 511.00
38.5908 471.00
38.656 456.00
38.7212 487.00
38.7864 495.00
38.8516 481.00
38.9168 460.00
38.982 493.00
39.0472 477.00
39.1124 466.00
39.1776 474.00
39.2428 474.00
39.308 467.00
39.3732 510.00
39.4384 474.00
39.5036 457.00
39.5688 451.00
39.634 444.00
39.6992 405.00
39.7644 464.00
39.8296 459.00
39.8948 523.00
39.96 525.00
40.0252 597.00
40.0904 649.00
40.1556 546.00
40.2208 509.00
40.286 474.00
40.3512 458.00
40.4164 446.00
40.4816 452.00
40.5468 453.00
40.612 456.00
40.6772 449.00
40.7424 476.00
40.8076 443.00
40.8728 432.00
40.938 440.00
41.0032 422.00
41.0684 465.00
41.1336 465.00
41.1988 471.00
41.264 471.00
41.3292 470.00
41.3944 445.00
41.4596 479.00
41.5248 453.00
41.59 437.00
41.6552 456.00
41.7204 459.00
41.7856 415.00
41.8508 444.00
41.916 477.00
41.9812 645.00
42.0464 881.00
42.1116 1125.00
42.1768 847.00
42.242 705.00
42.3072 493.00
42.3724 457.00
42.4376 430.00
42.5028 454.00
42.568 426.00
42.6332 392.00
42.6983 450.00
42.7635 400.00
42.8287 441.00
42.8939 484.00
42.9591 404.00
43.0243 432.00
43.0895 436.00
43.1547 417.00
43.2199 435.00
43.2851 423.00
43.3503 476.00
43.4155 405.00
43.4807 421.00
43.5459 421.00
43.6111 413.00
43.6763 436.00
43.7415 389.00
43.8067 403.00
43.8719 380.00
43.9371 427.00
44.0023 495.00
44.0675 581.00
44.1327 535.00
44.1979 465.00
44.2631 456.00
44.3283 437.00
44.3935 479.00
44.4587 493.00
44.5239 491.00
44.5891 529.00
44.6543 475.00
44.7195 420.00
44.7847 398.00
44.8499 423.00
44.9151 422.00
44.9803 472.00
45.0455 448.00
45.1107 408.00
45.1759 449.00
45.2411 421.00
45.3063 421.00
45.3715 444.00
45.4367 454.00
45.5019 471.00
45.5671 433.00
45.6323 447.00
45.6975 482.00
45.7627 546.00
45.8279 823.00
45.8931 1363.00
45.9583 1602.00
46.0235 1173.00
46.0887 963.00
46.1539 615.00
46.2191 512.00
46.2843 425.00
46.3495 430.00
46.4147 420.00
46.4799 416.00
46.5451 463.00
46.6103 481.00
46.6755 474.00
46.7407 570.00
46.8059 690.00
46.8711 751.00
46.9363 705.00
47.0015 674.00
47.0667 625.00
47.1319 581.00
47.1971 597.00
47.2623 513.00
47.3275 515.00
47.3927 549.00
47.4579 616.00
47.523 558.00
47.5882 626.00
47.6534 623.00
47.7186 740.00
47.7838 780.00
47.849 761.00
47.9142 700.00
47.9794 583.00
48.0446 567.00
48.1098 488.00
48.175 423.00
48.2402 412.00
48.3054 398.00
48.3706 377.00
48.4358 411.00
48.501 347.00
48.5662 419.00
48.6314 401.00
48.6966 391.00
48.7618 378.00
48.827 372.00
48.8922 352.00
48.9574 364.00
49.0226 371.00
49.0878 394.00
49.153 372.00
49.2182 410.00
49.2834 415.00
49.3486 434.00
49.4138 462.00
49.479 633.00
49.5442 749.00
49.6094 625.00
49.6746 573.00
49.7398 463.00
49.805 455.00
49.8702 384.00
49.9354 402.00
50.0006 377.00
50.0658 423.00
50.131 350.00
50.1962 402.00
50.2614 378.00
50.3266 391.00
50.3918 414.00
50.457 351.00
50.5222 419.00
50.5874 433.00
50.6526 419.00
50.7178 457.00
50.783 498.00
50.8482 469.00
50.9134 540.00
50.9786 683.00
51.0438 733.00
51.109 1158.00
51.1742 2571.00
51.2394 5262.00
51.3046 5100.00
51.3698 3210.00
51.435 2577.00
51.5002 968.00
51.5654 639.00
51.6306 505.00
51.6958 515.00
51.761 421.00
51.8262 434.00
51.8914 370.00
51.9566 412.00
52.0218 406.00
52.087 379.00
52.1522 387.00
52.2174 398.00
52.2826 339.00
52.3477 374.00
52.4129 398.00
52.4781 404.00
52.5433 372.00
52.6085 368.00
52.6737 383.00
52.7389 403.00
52.8041 385.00
52.8693 560.00
52.9345 676.00
52.9997 647.00
53.0649 547.00
53.1301 505.00
53.1953 441.00
53.2605 383.00
53.3257 407.00
53.3909 343.00
53.4561 386.00
53.5213 390.00
53.5865 350.00
53.6517 381.00
53.7169 374.00
53.7821 349.00
53.8473 380.00
53.9125 390.00
53.9777 380.00
54.0429 369.00
54.1081 405.00
54.1733 410.00
54.2385 384.00
54.3037 404.00
54.3689 378.00
54.4341 386.00
54.4993 420.00
54.5645 454.00
54.6297 486.00
54.6949 474.00
54.7601 446.00
54.8253 432.00
54.8905 405.00
54.9557 420.00
55.0209 414.00
55.0861 503.00
55.1513 555.00
55.2165 659.00
55.2817 940.00
55.3469 1220.00
55.4121 1443.00
55.4773 1373.00
55.5425 1245.00
55.6077 1019.00
55.6729 833.00
55.7381 663.00
55.8033 643.00
55.8685 637.00
55.9337 586.00
55.9989 599.00
56.0641 704.00
56.1293 897.00
56.1945 1236.00
56.2597 1183.00
56.3249 950.00
56.3901 950.00
56.4553 734.00
56.5205 739.00
56.5857 744.00
56.6509 806.00
56.7161 763.00
56.7813 839.00
56.8465 748.00
56.9117 555.00
56.9769 501.00
57.042 456.00
57.1073 428.00
57.1724 422.00
57.2376 409.00
57.3028 411.00
57.368 458.00
57.4332 388.00
57.4984 406.00
57.5636 440.00
57.6288 378.00
57.694 445.00
57.7592 551.00
57.8244 567.00
57.8896 461.00
57.9548 439.00
58.02 404.00
58.0852 374.00
58.1504 380.00
58.2156 428.00
58.2808 350.00
58.346 394.00
58.4112 343.00
58.4764 407.00
58.5416 381.00
58.6068 403.00
58.672 392.00
58.7372 448.00
58.8024 467.00
58.8676 521.00
58.9328 550.00
58.998 575.00
59.0632 596.00
59.1284 567.00
59.1936 535.00
59.2588 716.00
59.324 1009.00
59.3892 1015.00
59.4544 757.00
59.5196 747.00
59.5848 587.00
59.65 453.00
59.7152 475.00
59.7804 432.00
59.8456 461.00
59.9108 455.00
59.976 459.00
60.0412 429.00
60.1064 455.00
60.1716 468.00
60.2368 529.00
60.302 598.00
60.3672 690.00
60.4324 740.00
60.4976 724.00
60.5628 713.00
60.628 783.00
60.6932 850.00
60.7584 1306.00
60.8236 2739.00
60.8888 4552.00
60.954 2967.00
61.0192 2382.00
61.0844 2294.00
61.1496 1044.00
61.2148 637.00
61.28 533.00
61.3452 465.00
61.4104 520.00
61.4756 461.00
61.5408 453.00
61.606 440.00
61.6712 448.00
61.7364 478.00
61.8016 461.00
61.8667 437.00
61.932 502.00
61.9971 448.00
62.0623 501.00
62.1275 450.00
62.1927 489.00
62.2579 605.00
62.3231 815.00
62.3883 1241.00
62.4535 1032.00
62.5187 869.00
62.5839 897.00
62.6491 609.00
62.7143 574.00
62.7795 503.00
62.8447 533.00
62.9099 540.00
62.9751 601.00
63.0403 610.00
63.1055 703.00
63.1707 668.00
63.2359 625.00
63.3011 611.00
63.3663 567.00
63.4315 540.00
63.4967 506.00
63.5619 525.00
63.6271 501.00
63.6923 475.00
63.7575 583.00
63.8227 850.00
63.8879 1132.00
63.9531 876.00
64.0183 721.00
64.0835 751.00
64.1487 551.00
64.2139 423.00
64.2791 420.00
64.3443 369.00
64.4095 427.00
64.4747 399.00
64.5399 410.00
64.6051 399.00
64.6703 379.00
64.7355 446.00
64.8007 483.00
64.8659 531.00
64.9311 545.00
64.9963 502.00
65.0615 561.00
65.1267 530.00
65.1919 505.00
65.2571 655.00
65.3223 772.00
65.3875 917.00
65.4527 773.00
65.5179 857.00
65.5831 993.00
65.6483 885.00
65.7135 794.00
65.7787 743.00
65.8439 759.00
65.9091 661.00
65.9743 535.00
66.0395 550.00
66.1047 533.00
66.1699 533.00
66.2351 502.00
66.3003 545.00
66.3655 499.00
66.4307 487.00
66.4959 479.00
66.561 483.00
66.6263 468.00
66.6915 471.00
66.7566 570.00
66.8218 639.00
66.887 553.00
66.9522 574.00
67.0174 641.00
67.0826 634.00
67.1478 577.00
67.213 598.00
67.2782 566.00
67.3434 555.00
67.4086 615.00
67.4738 639.00
67.539 655.00
67.6042 617.00
67.6694 594.00
67.7346 664.00
67.7998 591.00
67.865 627.00
67.9302 587.00
67.9954 620.00
68.0606 696.00
68.1258 713.00
68.191 896.00
68.2562 992.00
68.3214 808.00
68.3866 747.00
68.4518 778.00
68.517 613.00
68.5822 570.00
68.6474 518.00
68.7126 464.00
68.7778 496.00
68.843 461.00
68.9082 476.00
68.9734 488.00
69.0386 452.00
69.1038 442.00
69.169 492.00
69.2342 469.00
69.2994 482.00
69.3646 432.00
69.4298 419.00
69.495 401.00
69.5602 420.00
69.6254 557.00
69.6906 572.00
69.7558 464.00
69.821 435.00
69.8862 488.00
69.9514 411.00
70.0166 373.00
70.0818 313.00
70.147 343.00
70.2122 367.00
70.2774 306.00
70.3426 330.00
70.4078 339.00
70.473 315.00
70.5382 322.00
70.6034 306.00
70.6686 326.00
70.7338 323.00
70.799 319.00
70.8642 304.00
70.9294 328.00
70.9946 307.00
71.0598 324.00
71.125 303.00
71.1902 327.00
71.2554 292.00
71.3205 332.00
71.3858 351.00
71.451 327.00
71.5162 300.00
71.5813 317.00
71.6465 323.00
71.7117 312.00
71.7769 319.00
71.8421 338.00
71.9073 330.00
71.9725 354.00
72.0377 331.00
72.1029 346.00
72.1681 313.00
72.2333 316.00
72.2985 332.00
72.3637 312.00
72.4289 333.00
72.4941 288.00
72.5593 300.00
72.6245 351.00
72.6897 308.00
72.7549 366.00
72.8201 302.00
72.8853 350.00
72.9505 349.00
73.0157 361.00
73.0809 318.00
73.1461 337.00
73.2113 370.00
73.2765 316.00
73.3417 335.00
73.4069 363.00
73.4721 349.00
73.5373 378.00
73.6025 381.00
73.6677 349.00
73.7329 441.00
73.7981 520.00
73.8633 717.00
73.9285 555.00
73.9937 461.00
74.0589 491.00
74.1241 470.00
74.1893 347.00
74.2545 331.00
74.3197 316.00
74.3849 313.00
74.4501 319.00
74.5153 325.00
74.5805 324.00
74.6457 336.00
74.7109 332.00
74.7761 306.00
74.8413 326.00
74.9065 353.00
74.9717 359.00
75.0369 365.00
75.1021 480.00
75.1673 629.00
75.2325 920.00
75.2977 824.00
75.3629 638.00
75.4281 646.00
75.4933 657.00
75.5585 446.00
75.6237 415.00
75.6889 378.00
75.7541 371.00
75.8193 351.00
75.8845 362.00
75.9497 328.00
76.0149 357.00
76.0801 325.00
76.1452 355.00
76.2104 370.00
76.2756 396.00
76.3409 325.00
76.406 389.00
76.4712 448.00
76.5364 658.00
76.6016 794.00
76.6668 739.00
76.732 544.00
76.7972 608.00
76.8624 634.00
76.9276 461.00
76.9928 393.00
77.058 358.00
77.1232 385.00
77.1884 352.00
77.2536 321.00
77.3188 351.00
77.384 335.00
77.4492 319.00
77.5144 374.00
77.5796 335.00
77.6448 339.00
77.71 368.00
77.7752 352.00
77.8404 392.00
77.9056 500.00
77.9708 674.00
78.036 510.00
78.1012 443.00
78.1664 483.00
78.2316 542.00
78.2968 364.00
78.362 384.00
78.4272 349.00
78.4924 361.00
78.5576 323.00
78.6228 312.00
78.688 329.00
78.7532 316.00
78.8184 346.00
78.8836 298.00
78.9488 350.00
79.014 320.00
79.0792 340.00
79.1444 411.00
79.2096 472.00
79.2748 558.00
79.34 682.00
79.4052 503.00
79.4704 442.00
79.5356 490.00
79.6008 441.00
79.666 375.00
79.7312 373.00
79.7964 344.00
79.8616 312.00
79.9268 303.00
79.992 342.00
80.0572 314.00
80.1224 335.00
80.1876 334.00
80.2528 317.00
80.318 300.00
80.3832 298.00
80.4484 316.00
80.5136 366.00
80.5788 409.00
80.644 499.00
80.7092 540.00
80.7744 411.00
80.8396 362.00
80.9048 387.00
80.9699 366.00
81.0351 332.00
81.1003 369.00
81.1655 323.00
81.2307 342.00
81.2959 343.00
81.3611 330.00
81.4263 303.00
81.4915 338.00
81.5567 329.00
81.6219 318.00
81.6871 365.00
81.7523 398.00
81.8175 375.00
81.8827 419.00
81.9479 659.00
82.0131 799.00
82.0783 646.00
82.1435 435.00
82.2087 483.00
82.2739 542.00
82.3391 439.00
82.4043 369.00
82.4695 355.00
82.5347 332.00
82.5999 335.00
82.6651 310.00
82.7303 338.00
82.7955 383.00
82.8607 334.00
82.9259 331.00
82.9911 330.00
83.0563 377.00
83.1215 433.00
83.1867 470.00
83.2519 758.00
83.3171 1205.00
83.3823 1300.00
83.4475 769.00
83.5127 655.00
83.5779 827.00
83.6431 777.00
83.7083 509.00
83.7735 394.00
83.8387 314.00
83.9039 360.00
83.9691 357.00
84.0343 300.00
84.0995 332.00
84.1647 343.00
84.2299 285.00
84.2951 343.00
84.3603 309.00
84.4255 351.00
84.4907 296.00
84.5559 321.00
84.6211 323.00
84.6863 351.00
84.7515 309.00
84.8167 281.00
84.8819 351.00
84.9471 349.00
85.0123 383.00
85.0775 372.00
85.1427 335.00
85.2079 320.00
85.2731 375.00
85.3383 346.00
85.4035 357.00
85.4687 372.00
85.5339 364.00
85.5991 344.00
85.6643 382.00
85.7295 357.00
85.7946 363.00
85.8598 540.00
85.925 729.00
85.9903 1066.00
86.0554 1017.00
86.1206 640.00
86.1858 609.00
86.251 717.00
86.3162 755.00
86.3814 506.00
86.4466 436.00
86.5118 393.00
86.577 337.00
86.6422 364.00
86.7074 356.00
86.7726 354.00
86.8378 334.00
86.903 372.00
86.9682 369.00
87.0334 349.00
87.0986 355.00
87.1638 353.00
87.229 370.00
87.2942 439.00
87.3594 504.00
87.4246 439.00
87.4898 349.00
87.555 379.00
87.6202 415.00
87.6854 327.00
87.7506 347.00
87.8158 358.00
87.881 323.00
87.9462 346.00
88.0114 344.00
88.0766 335.00
88.1418 341.00
88.207 323.00
88.2722 363.00
88.3374 371.00
88.4026 354.00
88.4678 341.00
88.533 365.00
88.5982 473.00
88.6634 533.00
88.7286 460.00
88.7938 395.00
88.859 365.00
88.9242 452.00
88.9894 409.00
89.0546 392.00
89.1198 347.00
89.185 368.00
89.2502 363.00
89.3154 406.00
89.3806 365.00
89.4458 383.00
89.511 342.00
89.5762 386.00
89.6414 390.00
89.7066 393.00
89.7718 444.00
89.837 443.00
89.9022 549.00
89.9674 723.00
90.0326 759.00
90.0978 538.00
90.163 527.00
90.2282 573.00
90.2934 620.00
90.3586 471.00
90.4238 440.00
90.489 429.00
90.5542 430.00
90.6193 370.00
90.6845 385.00
90.7497 385.00
90.8149 358.00
90.8801 349.00
90.9453 346.00
91.0105 363.00
91.0757 331.00
91.1409 357.00
91.2061 345.00
91.2713 406.00
91.3365 386.00
91.4017 375.00
91.4669 355.00
91.5321 354.00
91.5973 376.00
91.6625 374.00
91.7277 385.00
91.7929 330.00
91.8581 385.00
91.9233 341.00
91.9885 379.00
92.0537 405.00
92.1189 422.00
92.1841 459.00
92.2493 508.00
92.3145 512.00
92.3797 503.00
92.4449 510.00
92.5101 598.00
92.5753 721.00
92.6405 898.00
92.7057 744.00
92.7709 645.00
92.8361 572.00
92.9013 638.00
92.9665 685.00
93.0317 538.00
93.0969 455.00
93.1621 451.00
93.2273 438.00
93.2925 385.00
93.3577 418.00
93.4229 375.00
93.4881 365.00
93.5533 335.00
93.6185 333.00
93.6837 356.00
93.7489 341.00
93.8141 340.00
93.8793 342.00
93.9445 325.00
94.0097 360.00
94.0749 373.00
94.1401 333.00
94.2053 415.00
94.2705 335.00
94.3357 360.00
94.4009 367.00
94.4661 358.00
94.5313 342.00
94.5965 352.00
94.6617 375.00
94.7269 355.00
94.7921 397.00
94.8573 362.00
94.9225 352.00
94.9877 378.00
95.0529 415.00
95.1181 462.00
95.1833 480.00
95.2485 655.00
95.3137 772.00
95.3789 590.00
95.444 533.00
95.5092 484.00
95.5744 532.00
95.6396 543.00
95.7048 449.00
95.77 407.00
95.8352 377.00
95.9004 372.00
95.9656 367.00
96.0308 343.00
96.096 400.00
96.1612 376.00
96.2264 341.00
96.2916 355.00
96.3568 394.00
96.422 439.00
96.4872 500.00
96.5524 676.00
96.6176 971.00
96.6828 947.00
96.748 593.00
96.8132 487.00
96.8784 519.00
96.9436 694.00
97.0088 610.00
97.074 404.00
97.1392 421.00
97.2044 365.00
97.2696 365.00
97.3348 327.00
97.4 346.00
97.4652 399.00
97.5304 368.00
97.5956 356.00
97.6608 372.00
97.726 386.00
97.7912 411.00
97.8564 468.00
97.9216 593.00
97.9868 777.00
98.052 577.00
98.1172 441.00
98.1824 453.00
98.2476 515.00
98.3128 550.00
98.378 451.00
98.4432 412.00
98.5084 398.00
98.5736 362.00
98.6388 404.00
98.704 351.00
98.7692 387.00
98.8344 367.00
98.8996 386.00
98.9648 392.00
99.03 403.00
99.0952 373.00
99.1604 399.00
99.2256 486.00
99.2908 608.00
99.356 563.00
99.4212 452.00
99.4864 423.00
99.5516 435.00
99.6168 495.00
99.682 506.00
99.7472 406.00
99.8124 393.00
99.8776 372.00
99.9428 376.00
100.008 405.00
100.073 404.00
100.095 401.00