File: data/xrd_creation/results/PG_1751-1.xy
9.903433 2477.00
9.968632 2432.00
10.0338 2455.00
10.099 2396.00
10.1642 2374.00
10.2294 2289.00
10.2946 2333.00
10.3598 2308.00
10.425 2282.00
10.4902 2212.00
10.5554 2221.00
10.6206 2267.00
10.6858 2176.00
10.751 2165.00
10.8162 2182.00
10.8814 2153.00
10.9466 2152.00
11.0118 2067.00
11.077 2030.00
11.1422 2053.00
11.2074 2045.00
11.2726 2006.00
11.3378 1974.00
11.403 2039.00
11.4682 1944.00
11.5334 1951.00
11.5986 2016.00
11.6638 1892.00
11.729 1958.00
11.7942 1897.00
11.8594 1913.00
11.9246 1820.00
11.9898 1937.00
12.055 1826.00
12.1202 1731.00
12.1854 1787.00
12.2506 1755.00
12.3158 1754.00
12.381 1800.00
12.4462 1750.00
12.5114 1718.00
12.5766 1712.00
12.6418 1677.00
12.707 1701.00
12.7722 1760.00
12.8374 1628.00
12.9026 1617.00
12.9678 1656.00
13.033 1598.00
13.0982 1588.00
13.1634 1656.00
13.2286 1568.00
13.2938 1572.00
13.359 1512.00
13.4242 1522.00
13.4894 1549.00
13.5546 1578.00
13.6198 1534.00
13.685 1533.00
13.7502 1548.00
13.8154 1557.00
13.8805 1453.00
13.9457 1530.00
14.0109 1482.00
14.0761 1452.00
14.1413 1432.00
14.2065 1442.00
14.2717 1473.00
14.3369 1488.00
14.4021 1374.00
14.4673 1418.00
14.5325 1462.00
14.5977 1496.00
14.6629 1439.00
14.7281 1389.00
14.7933 1404.00
14.8585 1465.00
14.9237 1365.00
14.9889 1420.00
15.0541 1445.00
15.1193 1363.00
15.1845 1329.00
15.2497 1346.00
15.3149 1352.00
15.3801 1341.00
15.4453 1366.00
15.5105 1319.00
15.5757 1292.00
15.6409 1387.00
15.7061 1358.00
15.7713 1358.00
15.8365 1279.00
15.9017 1349.00
15.9669 1360.00
16.0321 1350.00
16.0973 1297.00
16.1625 1272.00
16.2277 1232.00
16.2929 1251.00
16.3581 1344.00
16.4233 1256.00
16.4885 1220.00
16.5537 1299.00
16.6189 1256.00
16.6841 1205.00
16.7493 1230.00
16.8145 1286.00
16.8797 1192.00
16.9449 1220.00
17.0101 1220.00
17.0753 1261.00
17.1405 1178.00
17.2057 1280.00
17.2709 1245.00
17.3361 1256.00
17.4013 1266.00
17.4665 1187.00
17.5317 1308.00
17.5969 1283.00
17.6621 1432.00
17.7273 1511.00
17.7925 1513.00
17.8577 1495.00
17.9229 1433.00
17.9881 1191.00
18.0533 1176.00
18.1185 1185.00
18.1837 1146.00
18.2489 1148.00
18.3141 1111.00
18.3793 1078.00
18.4445 1108.00
18.5097 1131.00
18.5749 1072.00
18.6401 1102.00
18.7052 1088.00
18.7704 1100.00
18.8356 1056.00
18.9008 1092.00
18.966 1088.00
19.0312 1046.00
19.0964 1061.00
19.1616 973.00
19.2268 1045.00
19.292 1003.00
19.3572 1138.00
19.4224 1063.00
19.4876 996.00
19.5528 1020.00
19.618 1089.00
19.6832 1078.00
19.7484 1081.00
19.8136 1045.00
19.8788 1052.00
19.944 1001.00
20.0092 984.00
20.0744 1028.00
20.1396 965.00
20.2048 994.00
20.27 1068.00
20.3352 1009.00
20.4004 1029.00
20.4656 967.00
20.5308 966.00
20.596 979.00
20.6612 1052.00
20.7264 940.00
20.7916 979.00
20.8568 969.00
20.922 1001.00
20.9872 950.00
21.0524 985.00
21.1176 890.00
21.1828 988.00
21.248 925.00
21.3132 851.00
21.3784 919.00
21.4436 910.00
21.5088 939.00
21.574 879.00
21.6392 917.00
21.7044 873.00
21.7696 907.00
21.8348 901.00
21.9 897.00
21.9652 891.00
22.0304 918.00
22.0956 891.00
22.1608 912.00
22.226 877.00
22.2912 910.00
22.3564 871.00
22.4216 905.00
22.4868 960.00
22.552 854.00
22.6172 845.00
22.6824 860.00
22.7476 839.00
22.8128 907.00
22.878 883.00
22.9432 852.00
23.0084 844.00
23.0736 834.00
23.1388 854.00
23.204 847.00
23.2692 826.00
23.3344 836.00
23.3996 844.00
23.4647 803.00
23.5299 874.00
23.5951 841.00
23.6603 865.00
23.7255 845.00
23.7907 830.00
23.8559 826.00
23.9211 910.00
23.9863 848.00
24.0515 912.00
24.1167 918.00
24.1819 1047.00
24.2471 1165.00
24.3123 1429.00
24.3775 1791.00
24.4427 2080.00
24.5079 2043.00
24.5731 1729.00
24.6383 1367.00
24.7035 1302.00
24.7687 1522.00
24.8339 1814.00
24.8991 1749.00
24.9643 1471.00
25.0295 1121.00
25.0947 893.00
25.1599 832.00
25.2251 849.00
25.2903 827.00
25.3555 767.00
25.4207 758.00
25.4859 753.00
25.5511 737.00
25.6163 816.00
25.6815 718.00
25.7467 782.00
25.8119 723.00
25.8771 778.00
25.9423 723.00
26.0075 708.00
26.0727 754.00
26.1379 761.00
26.2031 755.00
26.2683 693.00
26.3335 737.00
26.3987 718.00
26.4639 736.00
26.5291 716.00
26.5943 752.00
26.6595 678.00
26.7247 684.00
26.7899 685.00
26.8551 722.00
26.9203 705.00
26.9855 734.00
27.0507 718.00
27.1159 673.00
27.1811 708.00
27.2463 695.00
27.3115 668.00
27.3767 735.00
27.4419 740.00
27.5071 755.00
27.5723 747.00
27.6375 760.00
27.7027 763.00
27.7679 840.00
27.8331 809.00
27.8983 772.00
27.9635 847.00
28.0287 921.00
28.0939 931.00
28.1591 1049.00
28.2243 1226.00
28.2894 1643.00
28.3546 2400.00
28.4198 3653.00
28.485 5893.00
28.5502 8308.00
28.6154 9470.00
28.6806 8363.00
28.7458 4955.00
28.811 2498.00
28.8762 1565.00
28.9414 1153.00
29.0066 1006.00
29.0718 891.00
29.137 889.00
29.2022 823.00
29.2674 811.00
29.3326 782.00
29.3978 717.00
29.463 705.00
29.5282 726.00
29.5934 728.00
29.6586 701.00
29.7238 705.00
29.789 671.00
29.8542 719.00
29.9194 670.00
29.9846 651.00
30.0498 644.00
30.115 635.00
30.1802 638.00
30.2454 711.00
30.3106 644.00
30.3758 662.00
30.441 676.00
30.5062 640.00
30.5714 625.00
30.6366 667.00
30.7018 727.00
30.767 696.00
30.8322 651.00
30.8974 687.00
30.9626 719.00
31.0278 663.00
31.093 753.00
31.1582 764.00
31.2234 748.00
31.2886 781.00
31.3538 845.00
31.419 901.00
31.4842 1005.00
31.5494 1234.00
31.6146 1608.00
31.6798 2354.00
31.745 3542.00
31.8102 5596.00
31.8754 7792.00
31.9406 8700.00
32.0058 7648.00
32.071 5259.00
32.1362 2814.00
32.2014 1656.00
32.2666 1105.00
32.3318 975.00
32.397 781.00
32.4622 770.00
32.5274 705.00
32.5926 664.00
32.6578 651.00
32.723 597.00
32.7882 623.00
32.8534 639.00
32.9186 631.00
32.9838 653.00
33.0489 587.00
33.1141 586.00
33.1793 593.00
33.2445 617.00
33.3097 578.00
33.3749 603.00
33.4401 637.00
33.5053 612.00
33.5705 612.00
33.6357 578.00
33.7009 638.00
33.7661 613.00
33.8313 631.00
33.8965 640.00
33.9617 661.00
34.0269 623.00
34.0921 677.00
34.1573 673.00
34.2225 820.00
34.2877 982.00
34.3529 1285.00
34.4181 1774.00
34.4833 2526.00
34.5485 3441.00
34.6137 4018.00
34.6789 3930.00
34.7441 3524.00
34.8093 3102.00
34.8745 2845.00
34.9397 2658.00
35.0049 1923.00
35.0701 1289.00
35.1353 955.00
35.2005 741.00
35.2657 745.00
35.3309 745.00
35.3961 792.00
35.4613 848.00
35.5265 1021.00
35.5917 1386.00
35.6569 1858.00
35.7221 2548.00
35.7873 2947.00
35.8525 2597.00
35.9177 1720.00
35.9829 1132.00
36.0481 925.00
36.1133 986.00
36.1785 1139.00
36.2437 1459.00
36.3089 1906.00
36.3741 2441.00
36.4393 3023.00
36.5045 3463.00
36.5697 3296.00
36.6349 2235.00
36.7001 1321.00
36.7653 850.00
36.8305 681.00
36.8957 613.00
36.9609 583.00
37.0261 554.00
37.0913 543.00
37.1565 530.00
37.2217 557.00
37.2869 550.00
37.3521 527.00
37.4173 541.00
37.4825 500.00
37.5477 530.00
37.6129 564.00
37.6781 543.00
37.7433 503.00
37.8085 522.00
37.8736 562.00
37.9388 521.00
38.004 505.00
38.0692 532.00
38.1344 536.00
38.1996 484.00
38.2648 498.00
38.33 558.00
38.3952 493.00
38.4604 503.00
38.5256 501.00
38.5908 510.00
38.656 543.00
38.7212 572.00
38.7864 626.00
38.8516 762.00
38.9168 914.00
38.982 1163.00
39.0472 1361.00
39.1124 1351.00
39.1776 1085.00
39.2428 813.00
39.308 635.00
39.3732 575.00
39.4384 516.00
39.5036 476.00
39.5688 512.00
39.634 472.00
39.6992 510.00
39.7644 501.00
39.8296 454.00
39.8948 524.00
39.96 516.00
40.0252 532.00
40.0904 481.00
40.1556 494.00
40.2208 523.00
40.286 499.00
40.3512 556.00
40.4164 587.00
40.4816 610.00
40.5468 606.00
40.612 561.00
40.6772 517.00
40.7424 538.00
40.8076 606.00
40.8728 590.00
40.938 702.00
41.0032 890.00
41.0684 1137.00
41.1336 1487.00
41.1988 1689.00
41.264 1816.00
41.3292 1642.00
41.3944 1277.00
41.4596 1025.00
41.5248 928.00
41.59 1006.00
41.6552 1047.00
41.7204 975.00
41.7856 935.00
41.8508 919.00
41.916 889.00
41.9812 765.00
42.0464 664.00
42.1116 582.00
42.1768 540.00
42.242 477.00
42.3072 469.00
42.3724 448.00
42.4376 481.00
42.5028 449.00
42.568 483.00
42.6332 487.00
42.6983 465.00
42.7635 434.00
42.8287 434.00
42.8939 437.00
42.9591 459.00
43.0243 453.00
43.0895 398.00
43.1547 493.00
43.2199 424.00
43.2851 450.00
43.3503 435.00
43.4155 435.00
43.4807 445.00
43.5459 444.00
43.6111 409.00
43.6763 472.00
43.7415 449.00
43.8067 434.00
43.8719 445.00
43.9371 461.00
44.0023 412.00
44.0675 433.00
44.1327 452.00
44.1979 423.00
44.2631 439.00
44.3283 451.00
44.3935 426.00
44.4587 435.00
44.5239 399.00
44.5891 474.00
44.6543 445.00
44.7195 491.00
44.7847 427.00
44.8499 463.00
44.9151 512.00
44.9803 518.00
45.0455 554.00
45.1107 555.00
45.1759 664.00
45.2411 831.00
45.3063 809.00
45.3715 913.00
45.4367 837.00
45.5019 661.00
45.5671 589.00
45.6323 529.00
45.6975 558.00
45.7627 708.00
45.8279 729.00
45.8931 894.00
45.9583 1066.00
46.0235 1178.00
46.0887 1071.00
46.1539 844.00
46.2191 717.00
46.2843 571.00
46.3495 486.00
46.4147 479.00
46.4799 438.00
46.5451 433.00
46.6103 427.00
46.6755 453.00
46.7407 450.00
46.8059 395.00
46.8711 444.00
46.9363 423.00
47.0015 386.00
47.0667 429.00
47.1319 458.00
47.1971 431.00
47.2623 441.00
47.3275 449.00
47.3927 485.00
47.4579 462.00
47.523 524.00
47.5882 632.00
47.6534 753.00
47.7186 912.00
47.7838 1083.00
47.849 1014.00
47.9142 963.00
47.9794 687.00
48.0446 555.00
48.1098 482.00
48.175 410.00
48.2402 440.00
48.3054 447.00
48.3706 392.00
48.4358 449.00
48.501 444.00
48.5662 430.00
48.6314 439.00
48.6966 457.00
48.7618 456.00
48.827 451.00
48.8922 427.00
48.9574 466.00
49.0226 483.00
49.0878 505.00
49.153 509.00
49.2182 571.00
49.2834 611.00
49.3486 635.00
49.4138 710.00
49.479 863.00
49.5442 1049.00
49.6094 1324.00
49.6746 1649.00
49.7398 2154.00
49.805 2448.00
49.8702 2139.00
49.9354 1683.00
50.0006 1180.00
50.0658 823.00
50.131 619.00
50.1962 594.00
50.2614 657.00
50.3266 676.00
50.3918 865.00
50.457 1122.00
50.5222 1508.00
50.5874 2103.00
50.6526 2777.00
50.7178 2994.00
50.783 2620.00
50.8482 2065.00
50.9134 1561.00
50.9786 1358.00
51.0438 1565.00
51.109 1791.00
51.1742 1591.00
51.2394 1272.00
51.3046 1041.00
51.3698 754.00
51.435 663.00
51.5002 623.00
51.5654 650.00
51.6306 780.00
51.6958 875.00
51.761 977.00
51.8262 985.00
51.8914 863.00
51.9566 676.00
52.0218 588.00
52.087 540.00
52.1522 486.00
52.2174 425.00
52.2826 453.00
52.3477 508.00
52.4129 419.00
52.4781 431.00
52.5433 393.00
52.6085 447.00
52.6737 428.00
52.7389 449.00
52.8041 406.00
52.8693 408.00
52.9345 427.00
52.9997 433.00
53.0649 497.00
53.1301 405.00
53.1953 428.00
53.2605 402.00
53.3257 453.00
53.3909 412.00
53.4561 411.00
53.5213 452.00
53.5865 437.00
53.6517 469.00
53.7169 410.00
53.7821 452.00
53.8473 460.00
53.9125 458.00
53.9777 473.00
54.0429 470.00
54.1081 464.00
54.1733 532.00
54.2385 562.00
54.3037 618.00
54.3689 781.00
54.4341 992.00
54.4993 1194.00
54.5645 1451.00
54.6297 1715.00
54.6949 1680.00
54.7601 1442.00
54.8253 1161.00
54.8905 847.00
54.9557 765.00
55.0209 635.00
55.0861 595.00
55.1513 632.00
55.2165 615.00
55.2817 649.00
55.3469 635.00
55.4121 613.00
55.4773 681.00
55.5425 688.00
55.6077 843.00
55.6729 1056.00
55.7381 1397.00
55.8033 1706.00
55.8685 2107.00
55.9337 2272.00
55.9989 2118.00
56.0641 1942.00
56.1293 1763.00
56.1945 1517.00
56.2597 1363.00
56.3249 1249.00
56.3901 1260.00
56.4553 1471.00
56.5205 1657.00
56.5857 1693.00
56.6509 1589.00
56.7161 1685.00
56.7813 1609.00
56.8465 1592.00
56.9117 1303.00
56.9769 1140.00
57.042 902.00
57.1073 658.00
57.1724 634.00
57.2376 580.00
57.3028 559.00
57.368 555.00
57.4332 655.00
57.4984 765.00
57.5636 834.00
57.6288 1081.00
57.694 1215.00
57.7592 1390.00
57.8244 1316.00
57.8896 1140.00
57.9548 916.00
58.02 774.00
58.0852 667.00
58.1504 617.00
58.2156 646.00
58.2808 768.00
58.346 864.00
58.4112 1038.00
58.4764 1183.00
58.5416 1220.00
58.6068 1091.00
58.672 1086.00
58.7372 976.00
58.8024 974.00
58.8676 1002.00
58.9328 898.00
58.998 810.00
59.0632 722.00
59.1284 607.00
59.1936 509.00
59.2588 546.00
59.324 530.00
59.3892 521.00
59.4544 458.00
59.5196 422.00
59.5848 446.00
59.65 485.00
59.7152 483.00
59.7804 508.00
59.8456 480.00
59.9108 524.00
59.976 529.00
60.0412 585.00
60.1064 682.00
60.1716 761.00
60.2368 935.00
60.302 1249.00
60.3672 1481.00
60.4324 1730.00
60.4976 1739.00
60.5628 1766.00
60.628 1566.00
60.6932 1383.00
60.7584 1121.00
60.8236 953.00
60.8888 718.00
60.954 614.00
61.0192 568.00
61.0844 571.00
61.1496 530.00
61.2148 468.00
61.28 531.00
61.3452 481.00
61.4104 485.00
61.4756 503.00
61.5408 519.00
61.606 627.00
61.6712 735.00
61.7364 839.00
61.8016 989.00
61.8667 1136.00
61.932 1192.00
61.9971 1198.00
62.0623 1126.00
62.1275 947.00
62.1927 883.00
62.2579 876.00
62.3231 948.00
62.3883 1124.00
62.4535 1195.00
62.5187 1430.00
62.5839 1428.00
62.6491 1238.00
62.7143 1091.00
62.7795 953.00
62.8447 964.00
62.9099 1021.00
62.9751 1198.00
63.0403 1457.00
63.1055 1572.00
63.1707 1589.00
63.2359 1502.00
63.3011 1506.00
63.3663 1607.00
63.4315 1686.00
63.4967 1693.00
63.5619 1441.00
63.6271 1209.00
63.6923 1012.00
63.7575 779.00
63.8227 626.00
63.8879 535.00
63.9531 564.00
64.0183 504.00
64.0835 545.00
64.1487 465.00
64.2139 514.00
64.2791 490.00
64.3443 488.00
64.4095 546.00
64.4747 539.00
64.5399 562.00
64.6051 650.00
64.6703 764.00
64.7355 795.00
64.8007 789.00
64.8659 919.00
64.9311 849.00
64.9963 798.00
65.0615 697.00
65.1267 634.00
65.1919 546.00
65.2571 509.00
65.3223 477.00
65.3875 512.00
65.4527 493.00
65.5179 531.00
65.5831 549.00
65.6483 530.00
65.7135 660.00
65.7787 668.00
65.8439 702.00
65.9091 735.00
65.9743 859.00
66.0395 1001.00
66.1047 1133.00
66.1699 1164.00
66.2351 1293.00
66.3003 1555.00
66.3655 1576.00
66.4307 1429.00
66.4959 1330.00
66.561 1256.00
66.6263 1082.00
66.6915 880.00
66.7566 726.00
66.8218 668.00
66.887 584.00
66.9522 535.00
67.0174 504.00
67.0826 461.00
67.1478 497.00
67.213 464.00
67.2782 487.00
67.3434 465.00
67.4086 497.00
67.4738 490.00
67.539 425.00
67.6042 455.00
67.6694 447.00
67.7346 483.00
67.7998 526.00
67.865 600.00
67.9302 744.00
67.9954 822.00
68.0606 975.00
68.1258 1210.00
68.191 1243.00
68.2562 1048.00
68.3214 881.00
68.3866 814.00
68.4518 676.00
68.517 521.00
68.5822 490.00
68.6474 471.00
68.7126 473.00
68.7778 479.00
68.843 466.00
68.9082 467.00
68.9734 528.00
69.0386 577.00
69.1038 596.00
69.169 700.00
69.2342 766.00
69.2994 926.00
69.3646 862.00
69.4298 849.00
69.495 853.00
69.5602 896.00
69.6254 833.00
69.6906 752.00
69.7558 696.00
69.821 681.00
69.8862 577.00
69.9514 519.00
70.0166 570.00
70.0818 509.00
70.147 542.00
70.2122 561.00
70.2774 498.00
70.3426 558.00
70.4078 480.00
70.473 505.00
70.5382 471.00
70.6034 478.00
70.6686 497.00
70.7338 501.00
70.799 551.00
70.8642 463.00
70.9294 516.00
70.9946 528.00
71.0598 465.00
71.125 496.00
71.1902 468.00
71.2554 512.00
71.3205 515.00
71.3858 545.00
71.451 594.00
71.5162 721.00
71.5813 900.00
71.6465 916.00
71.7117 1034.00
71.7769 1140.00
71.8421 1213.00
71.9073 1114.00
71.9725 1045.00
72.0377 834.00
72.1029 761.00
72.1681 691.00
72.2333 631.00
72.2985 493.00
72.3637 605.00
72.4289 580.00
72.4941 642.00
72.5593 667.00
72.6245 640.00
72.6897 710.00
72.7549 755.00
72.8201 736.00
72.8853 748.00
72.9505 683.00
73.0157 646.00
73.0809 680.00
73.1461 674.00
73.2113 727.00
73.2765 699.00
73.3417 703.00
73.4069 661.00
73.4721 642.00
73.5373 531.00
73.6025 515.00
73.6677 532.00
73.7329 446.00
73.7981 463.00
73.8633 426.00
73.9285 457.00
73.9937 477.00
74.0589 487.00
74.1241 478.00
74.1893 504.00
74.2545 512.00
74.3197 521.00
74.3849 432.00
74.4501 437.00
74.5153 486.00
74.5805 463.00
74.6457 464.00
74.7109 438.00
74.7761 462.00
74.8413 465.00
74.9065 479.00
74.9717 480.00
75.0369 508.00
75.1021 534.00
75.1673 574.00
75.2325 632.00
75.2977 647.00
75.3629 678.00
75.4281 710.00
75.4933 749.00
75.5585 729.00
75.6237 776.00
75.6889 849.00
75.7541 966.00
75.8193 972.00
75.8845 964.00
75.9497 936.00
76.0149 863.00
76.0801 775.00
76.1452 659.00
76.2104 630.00
76.2756 597.00
76.3409 454.00
76.406 471.00
76.4712 493.00
76.5364 454.00
76.6016 522.00
76.6668 488.00
76.732 509.00
76.7972 534.00
76.8624 553.00
76.9276 690.00
76.9928 702.00
77.058 823.00
77.1232 894.00
77.1884 917.00
77.2536 822.00
77.3188 742.00
77.384 693.00
77.4492 655.00
77.5144 608.00
77.5796 546.00
77.6448 585.00
77.71 556.00
77.7752 576.00
77.8404 604.00
77.9056 654.00
77.9708 642.00
78.036 746.00
78.1012 705.00
78.1664 705.00
78.2316 673.00
78.2968 702.00
78.362 657.00
78.4272 572.00
78.4924 626.00
78.5576 620.00
78.6228 622.00
78.688 683.00
78.7532 616.00
78.8184 618.00
78.8836 620.00
78.9488 573.00
79.014 556.00
79.0792 571.00
79.1444 552.00
79.2096 533.00
79.2748 537.00
79.34 555.00
79.4052 604.00
79.4704 727.00
79.5356 739.00
79.6008 866.00
79.666 820.00
79.7312 793.00
79.7964 719.00
79.8616 706.00
79.9268 643.00
79.992 585.00
80.0572 550.00
80.1224 488.00
80.1876 452.00
80.2528 476.00
80.318 481.00
80.3832 471.00
80.4484 474.00
80.5136 435.00
80.5788 468.00
80.644 443.00
80.7092 481.00
80.7744 498.00
80.8396 515.00
80.9048 477.00
80.9699 551.00
81.0351 524.00
81.1003 538.00
81.1655 541.00
81.2307 570.00
81.2959 510.00
81.3611 528.00
81.4263 530.00
81.4915 589.00
81.5567 564.00
81.6219 531.00
81.6871 590.00
81.7523 610.00
81.8175 585.00
81.8827 633.00
81.9479 656.00
82.0131 683.00
82.0783 744.00
82.1435 768.00
82.2087 774.00
82.2739 841.00
82.3391 776.00
82.4043 762.00
82.4695 707.00
82.5347 640.00
82.5999 594.00
82.6651 612.00
82.7303 563.00
82.7955 546.00
82.8607 557.00
82.9259 604.00
82.9911 602.00
83.0563 641.00
83.1215 636.00
83.1867 724.00
83.2519 786.00
83.3171 784.00
83.3823 769.00
83.4475 701.00
83.5127 720.00
83.5779 758.00
83.6431 764.00
83.7083 801.00
83.7735 909.00
83.8387 910.00
83.9039 863.00
83.9691 857.00
84.0343 777.00
84.0995 834.00
84.1647 756.00
84.2299 701.00
84.2951 661.00
84.3603 727.00
84.4255 692.00
84.4907 771.00
84.5559 846.00
84.6211 856.00
84.6863 912.00
84.7515 876.00
84.8167 919.00
84.8819 887.00
84.9471 871.00
85.0123 853.00
85.0775 773.00
85.1427 729.00
85.2079 665.00
85.2731 636.00
85.3383 617.00
85.4035 600.00
85.4687 641.00
85.5339 667.00
85.5991 722.00
85.6643 748.00
85.7295 673.00
85.7946 676.00
85.8598 642.00
85.925 594.00
85.9903 569.00
86.0554 560.00
86.1206 471.00
86.1858 467.00
86.251 431.00
86.3162 513.00
86.3814 512.00
86.4466 529.00
86.5118 542.00
86.577 581.00
86.6422 609.00
86.7074 669.00
86.7726 678.00
86.8378 707.00
86.903 692.00
86.9682 665.00
87.0334 671.00
87.0986 620.00
87.1638 580.00
87.229 594.00
87.2942 542.00
87.3594 508.00
87.4246 509.00
87.4898 525.00
87.555 517.00
87.6202 484.00
87.6854 530.00
87.7506 520.00
87.8158 530.00
87.881 550.00
87.9462 580.00
88.0114 610.00
88.0766 689.00
88.1418 690.00
88.207 784.00
88.2722 824.00
88.3374 838.00
88.4026 809.00
88.4678 728.00
88.533 754.00
88.5982 719.00
88.6634 736.00
88.7286 772.00
88.7938 812.00
88.859 886.00
88.9242 836.00
88.9894 938.00
89.0546 939.00
89.1198 958.00
89.185 874.00
89.2502 924.00
89.3154 967.00
89.3806 1008.00
89.4458 874.00
89.511 815.00
89.5762 871.00
89.6414 856.00
89.7066 930.00
89.7718 954.00
89.837 893.00
89.9022 839.00
89.9674 831.00
90.0326 807.00
90.0978 799.00
90.163 809.00
90.2282 743.00
90.2934 730.00
90.3586 789.00
90.4238 872.00
90.489 825.00
90.5542 941.00
90.6193 945.00
90.6845 845.00
90.7497 815.00
90.8149 758.00
90.8801 786.00
90.9453 731.00
91.0105 631.00
91.0757 592.00
91.1409 593.00
91.2061 570.00
91.2713 559.00
91.3365 568.00
91.4017 624.00
91.4669 646.00
91.5321 599.00
91.5973 628.00
91.6625 580.00
91.7277 584.00
91.7929 572.00
91.8581 625.00
91.9233 608.00
91.9885 634.00
92.0537 615.00
92.1189 643.00
92.1841 643.00
92.2493 593.00
92.3145 576.00
92.3797 585.00
92.4449 593.00
92.5101 572.00
92.5753 583.00
92.6405 557.00
92.7057 536.00
92.7709 563.00
92.8361 577.00
92.9013 617.00
92.9665 601.00
93.0317 574.00
93.0969 581.00
93.1621 533.00
93.2273 508.00
93.2925 564.00
93.3577 565.00
93.4229 574.00
93.4881 515.00
93.5533 495.00
93.6185 555.00
93.6837 559.00
93.7489 553.00
93.8141 590.00
93.8793 540.00
93.9445 516.00
94.0097 532.00
94.0749 551.00
94.1401 569.00
94.2053 533.00
94.2705 554.00
94.3357 597.00
94.4009 584.00
94.4661 658.00
94.5313 727.00
94.5965 749.00
94.6617 732.00
94.7269 723.00
94.7921 692.00
94.8573 696.00
94.9225 673.00
94.9877 684.00
95.0529 665.00
95.1181 657.00
95.1833 646.00
95.2485 676.00
95.3137 777.00
95.3789 834.00
95.444 903.00
95.5092 951.00
95.5744 942.00
95.6396 881.00
95.7048 873.00
95.77 944.00
95.8352 982.00
95.9004 886.00
95.9656 894.00
96.0308 933.00
96.096 877.00
96.1612 831.00
96.2264 789.00
96.2916 756.00
96.3568 698.00
96.422 696.00
96.4872 665.00
96.5524 588.00
96.6176 670.00
96.6828 639.00
96.748 692.00
96.8132 738.00
96.8784 841.00
96.9436 892.00
97.0088 871.00
97.074 962.00
97.1392 885.00
97.2044 880.00
97.2696 973.00
97.3348 1035.00
97.4 1132.00
97.4652 1136.00
97.5304 1155.00
97.5956 1164.00
97.6608 1157.00
97.726 1104.00
97.7912 1133.00
97.8564 1014.00
97.9216 916.00
97.9868 851.00
98.052 840.00
98.1172 800.00
98.1824 694.00
98.2476 689.00
98.3128 652.00
98.378 647.00
98.4432 622.00
98.5084 612.00
98.5736 645.00
98.6388 725.00
98.704 797.00
98.7692 861.00
98.8344 871.00
98.8996 848.00
98.9648 909.00
99.03 921.00
99.0952 922.00
99.1604 827.00
99.2256 875.00
99.2908 880.00
99.356 823.00
99.4212 861.00
99.4864 902.00
99.5516 835.00
99.6168 842.00
99.682 852.00
99.7472 859.00
99.8124 876.00
99.8776 929.00
99.9428 880.00
100.008 950.00
100.073 977.00
100.095 992.00