File: data/xrd_creation/results/PG_1843-1.xy
9.903433 2969.00
9.968632 2729.00
10.0338 2769.00
10.099 2705.00
10.1642 2748.00
10.2294 2740.00
10.2946 2712.00
10.3598 2721.00
10.425 2603.00
10.4902 2653.00
10.5554 2594.00
10.6206 2707.00
10.6858 2625.00
10.751 2621.00
10.8162 2695.00
10.8814 2606.00
10.9466 2626.00
11.0118 2596.00
11.077 2470.00
11.1422 2482.00
11.2074 2489.00
11.2726 2484.00
11.3378 2569.00
11.403 2399.00
11.4682 2444.00
11.5334 2446.00
11.5986 2380.00
11.6638 2493.00
11.729 2321.00
11.7942 2322.00
11.8594 2341.00
11.9246 2384.00
11.9898 2381.00
12.055 2311.00
12.1202 2305.00
12.1854 2296.00
12.2506 2252.00
12.3158 2296.00
12.381 2280.00
12.4462 2277.00
12.5114 2212.00
12.5766 2134.00
12.6418 2163.00
12.707 2135.00
12.7722 2221.00
12.8374 2250.00
12.9026 2080.00
12.9678 2114.00
13.033 2160.00
13.0982 2071.00
13.1634 2130.00
13.2286 2084.00
13.2938 2123.00
13.359 2102.00
13.4242 2042.00
13.4894 1991.00
13.5546 2082.00
13.6198 2000.00
13.685 2011.00
13.7502 2018.00
13.8154 2058.00
13.8805 2075.00
13.9457 1903.00
14.0109 1941.00
14.0761 1956.00
14.1413 1964.00
14.2065 1990.00
14.2717 1942.00
14.3369 1904.00
14.4021 1911.00
14.4673 2012.00
14.5325 2068.00
14.5977 1906.00
14.6629 2118.00
14.7281 1968.00
14.7933 1850.00
14.8585 1939.00
14.9237 1945.00
14.9889 1978.00
15.0541 1909.00
15.1193 1882.00
15.1845 1932.00
15.2497 1925.00
15.3149 1942.00
15.3801 1916.00
15.4453 1914.00
15.5105 1894.00
15.5757 1889.00
15.6409 1895.00
15.7061 1926.00
15.7713 1797.00
15.8365 1890.00
15.9017 1823.00
15.9669 1848.00
16.0321 1814.00
16.0973 1895.00
16.1625 1836.00
16.2277 1806.00
16.2929 1828.00
16.3581 1794.00
16.4233 1817.00
16.4885 1778.00
16.5537 1641.00
16.6189 1823.00
16.6841 1786.00
16.7493 1762.00
16.8145 1823.00
16.8797 1758.00
16.9449 1702.00
17.0101 1760.00
17.0753 1759.00
17.1405 1776.00
17.2057 1732.00
17.2709 1748.00
17.3361 1821.00
17.4013 1742.00
17.4665 1706.00
17.5317 1825.00
17.5969 1830.00
17.6621 1729.00
17.7273 1796.00
17.7925 1843.00
17.8577 1861.00
17.9229 1716.00
17.9881 1780.00
18.0533 1738.00
18.1185 1777.00
18.1837 1707.00
18.2489 1635.00
18.3141 1743.00
18.3793 1670.00
18.4445 1690.00
18.5097 1637.00
18.5749 1704.00
18.6401 1643.00
18.7052 1702.00
18.7704 1664.00
18.8356 1702.00
18.9008 1589.00
18.966 1604.00
19.0312 1638.00
19.0964 1702.00
19.1616 1665.00
19.2268 1651.00
19.292 1624.00
19.3572 1631.00
19.4224 1609.00
19.4876 1635.00
19.5528 1646.00
19.618 1712.00
19.6832 1736.00
19.7484 1647.00
19.8136 1684.00
19.8788 1596.00
19.944 1593.00
20.0092 1643.00
20.0744 1624.00
20.1396 1630.00
20.2048 1569.00
20.27 1511.00
20.3352 1612.00
20.4004 1578.00
20.4656 1541.00
20.5308 1598.00
20.596 1610.00
20.6612 1557.00
20.7264 1571.00
20.7916 1570.00
20.8568 1618.00
20.922 1594.00
20.9872 1621.00
21.0524 1613.00
21.1176 1729.00
21.1828 1599.00
21.248 1625.00
21.3132 1705.00
21.3784 1639.00
21.4436 1825.00
21.5088 1790.00
21.574 2094.00
21.6392 2594.00
21.7044 3747.00
21.7696 5578.00
21.8348 6076.00
21.9 3505.00
21.9652 1956.00
22.0304 1825.00
22.0956 1624.00
22.1608 1636.00
22.226 1602.00
22.2912 1635.00
22.3564 1558.00
22.4216 1567.00
22.4868 1508.00
22.552 1468.00
22.6172 1500.00
22.6824 1460.00
22.7476 1513.00
22.8128 1500.00
22.878 1531.00
22.9432 1437.00
23.0084 1445.00
23.0736 1493.00
23.1388 1467.00
23.204 1461.00
23.2692 1420.00
23.3344 1449.00
23.3996 1425.00
23.4647 1461.00
23.5299 1388.00
23.5951 1430.00
23.6603 1345.00
23.7255 1439.00
23.7907 1382.00
23.8559 1406.00
23.9211 1358.00
23.9863 1359.00
24.0515 1384.00
24.1167 1385.00
24.1819 1343.00
24.2471 1375.00
24.3123 1264.00
24.3775 1359.00
24.4427 1350.00
24.5079 1354.00
24.5731 1333.00
24.6383 1309.00
24.7035 1259.00
24.7687 1369.00
24.8339 1286.00
24.8991 1315.00
24.9643 1253.00
25.0295 1261.00
25.0947 1288.00
25.1599 1283.00
25.2251 1266.00
25.2903 1274.00
25.3555 1243.00
25.4207 1205.00
25.4859 1233.00
25.5511 1259.00
25.6163 1221.00
25.6815 1236.00
25.7467 1202.00
25.8119 1266.00
25.8771 1276.00
25.9423 1220.00
26.0075 1196.00
26.0727 1192.00
26.1379 1110.00
26.2031 1154.00
26.2683 1098.00
26.3335 1154.00
26.3987 1211.00
26.4639 1208.00
26.5291 1133.00
26.5943 1144.00
26.6595 1127.00
26.7247 1121.00
26.7899 1100.00
26.8551 1232.00
26.9203 1122.00
26.9855 1132.00
27.0507 1115.00
27.1159 1142.00
27.1811 1204.00
27.2463 1093.00
27.3115 1095.00
27.3767 1172.00
27.4419 1118.00
27.5071 1084.00
27.5723 1098.00
27.6375 1126.00
27.7027 1118.00
27.7679 1122.00
27.8331 1144.00
27.8983 1214.00
27.9635 1137.00
28.0287 1129.00
28.0939 1053.00
28.1591 1058.00
28.2243 1000.00
28.2894 1159.00
28.3546 1161.00
28.4198 1058.00
28.485 1055.00
28.5502 1092.00
28.6154 1116.00
28.6806 1026.00
28.7458 1005.00
28.811 1033.00
28.8762 1001.00
28.9414 1025.00
29.0066 1030.00
29.0718 996.00
29.137 1013.00
29.2022 1023.00
29.2674 977.00
29.3326 1040.00
29.3978 1047.00
29.463 999.00
29.5282 1001.00
29.5934 1085.00
29.6586 1081.00
29.7238 1094.00
29.789 1108.00
29.8542 1316.00
29.9194 1212.00
29.9846 1184.00
30.0498 1216.00
30.115 1249.00
30.1802 1269.00
30.2454 1368.00
30.3106 1504.00
30.3758 1693.00
30.441 1714.00
30.5062 2027.00
30.5714 2381.00
30.6366 3334.00
30.7018 6145.00
30.767 13642.00
30.8322 31694.00
30.8974 49388.00
30.9626 30085.00
31.0278 10892.00
31.093 4406.00
31.1582 3016.00
31.2234 2321.00
31.2886 1732.00
31.3538 1501.00
31.419 1368.00
31.4842 1297.00
31.5494 1166.00
31.6146 1178.00
31.6798 1073.00
31.745 1085.00
31.8102 1141.00
31.8754 1026.00
31.9406 1097.00
32.0058 1086.00
32.071 1024.00
32.1362 1032.00
32.2014 1079.00
32.2666 1096.00
32.3318 990.00
32.397 1070.00
32.4622 983.00
32.5274 997.00
32.5926 988.00
32.6578 954.00
32.723 1006.00
32.7882 983.00
32.8534 944.00
32.9186 929.00
32.9838 960.00
33.0489 948.00
33.1141 985.00
33.1793 981.00
33.2445 1005.00
33.3097 1102.00
33.3749 1452.00
33.4401 1398.00
33.5053 1148.00
33.5705 1005.00
33.6357 943.00
33.7009 942.00
33.7661 941.00
33.8313 917.00
33.8965 857.00
33.9617 957.00
34.0269 905.00
34.0921 870.00
34.1573 826.00
34.2225 892.00
34.2877 886.00
34.3529 929.00
34.4181 878.00
34.4833 914.00
34.5485 837.00
34.6137 950.00
34.6789 931.00
34.7441 837.00
34.8093 950.00
34.8745 859.00
34.9397 877.00
35.0049 927.00
35.0701 978.00
35.1353 950.00
35.2005 981.00
35.2657 1007.00
35.3309 1128.00
35.3961 1109.00
35.4613 1293.00
35.5265 1560.00
35.5917 2507.00
35.6569 5241.00
35.7221 11792.00
35.7873 13808.00
35.8525 8990.00
35.9177 3624.00
35.9829 1887.00
36.0481 1415.00
36.1133 1178.00
36.1785 1082.00
36.2437 939.00
36.3089 919.00
36.3741 895.00
36.4393 812.00
36.5045 878.00
36.5697 779.00
36.6349 832.00
36.7001 842.00
36.7653 824.00
36.8305 800.00
36.8957 795.00
36.9609 900.00
37.0261 839.00
37.0913 832.00
37.1565 779.00
37.2217 774.00
37.2869 809.00
37.3521 885.00
37.4173 835.00
37.4825 830.00
37.5477 831.00
37.6129 773.00
37.6781 849.00
37.7433 834.00
37.8085 1042.00
37.8736 1375.00
37.9388 2376.00
38.004 3162.00
38.0692 2247.00
38.1344 1482.00
38.1996 970.00
38.2648 855.00
38.33 819.00
38.3952 782.00
38.4604 765.00
38.5256 722.00
38.5908 739.00
38.656 718.00
38.7212 753.00
38.7864 718.00
38.8516 722.00
38.9168 661.00
38.982 742.00
39.0472 762.00
39.1124 703.00
39.1776 737.00
39.2428 755.00
39.308 670.00
39.3732 680.00
39.4384 722.00
39.5036 684.00
39.5688 697.00
39.634 703.00
39.6992 709.00
39.7644 711.00
39.8296 697.00
39.8948 750.00
39.96 771.00
40.0252 917.00
40.0904 1186.00
40.1556 1133.00
40.2208 1038.00
40.286 730.00
40.3512 720.00
40.4164 730.00
40.4816 671.00
40.5468 667.00
40.612 711.00
40.6772 673.00
40.7424 669.00
40.8076 656.00
40.8728 731.00
40.938 663.00
41.0032 693.00
41.0684 677.00
41.1336 644.00
41.1988 643.00
41.264 642.00
41.3292 657.00
41.3944 678.00
41.4596 705.00
41.5248 666.00
41.59 687.00
41.6552 719.00
41.7204 708.00
41.7856 648.00
41.8508 728.00
41.916 775.00
41.9812 945.00
42.0464 1455.00
42.1116 2573.00
42.1768 2337.00
42.242 1950.00
42.3072 1179.00
42.3724 763.00
42.4376 779.00
42.5028 724.00
42.568 693.00
42.6332 633.00
42.6983 662.00
42.7635 669.00
42.8287 616.00
42.8939 629.00
42.9591 597.00
43.0243 621.00
43.0895 619.00
43.1547 540.00
43.2199 621.00
43.2851 626.00
43.3503 560.00
43.4155 662.00
43.4807 598.00
43.5459 677.00
43.6111 600.00
43.6763 614.00
43.7415 607.00
43.8067 655.00
43.8719 683.00
43.9371 689.00
44.0023 792.00
44.0675 1060.00
44.1327 920.00
44.1979 847.00
44.2631 712.00
44.3283 613.00
44.3935 647.00
44.4587 625.00
44.5239 601.00
44.5891 603.00
44.6543 582.00
44.7195 615.00
44.7847 580.00
44.8499 602.00
44.9151 604.00
44.9803 636.00
45.0455 612.00
45.1107 583.00
45.1759 598.00
45.2411 603.00
45.3063 621.00
45.3715 643.00
45.4367 668.00
45.5019 687.00
45.5671 635.00
45.6323 704.00
45.6975 700.00
45.7627 845.00
45.8279 1192.00
45.8931 2269.00
45.9583 4517.00
46.0235 3268.00
46.0887 2942.00
46.1539 1544.00
46.2191 1002.00
46.2843 796.00
46.3495 774.00
46.4147 680.00
46.4799 579.00
46.5451 588.00
46.6103 638.00
46.6755 613.00
46.7407 587.00
46.8059 593.00
46.8711 571.00
46.9363 581.00
47.0015 511.00
47.0667 631.00
47.1319 574.00
47.1971 560.00
47.2623 594.00
47.3275 595.00
47.3927 557.00
47.4579 569.00
47.523 615.00
47.5882 526.00
47.6534 545.00
47.7186 572.00
47.7838 550.00
47.849 556.00
47.9142 534.00
47.9794 577.00
48.0446 631.00
48.1098 556.00
48.175 536.00
48.2402 579.00
48.3054 572.00
48.3706 499.00
48.4358 615.00
48.501 554.00
48.5662 525.00
48.6314 582.00
48.6966 609.00
48.7618 612.00
48.827 586.00
48.8922 577.00
48.9574 560.00
49.0226 567.00
49.0878 584.00
49.153 635.00
49.2182 580.00
49.2834 620.00
49.3486 627.00
49.4138 724.00
49.479 986.00
49.5442 1570.00
49.6094 1457.00
49.6746 1183.00
49.7398 1008.00
49.805 737.00
49.8702 632.00
49.9354 687.00
50.0006 573.00
50.0658 652.00
50.131 623.00
50.1962 636.00
50.2614 632.00
50.3266 597.00
50.3918 609.00
50.457 615.00
50.5222 686.00
50.5874 672.00
50.6526 730.00
50.7178 694.00
50.783 772.00
50.8482 854.00
50.9134 940.00
50.9786 1147.00
51.0438 1498.00
51.109 2014.00
51.1742 3492.00
51.2394 9355.00
51.3046 17037.00
51.3698 9192.00
51.435 9903.00
51.5002 4360.00
51.5654 1987.00
51.6306 1392.00
51.6958 1079.00
51.761 931.00
51.8262 762.00
51.8914 736.00
51.9566 650.00
52.0218 676.00
52.087 623.00
52.1522 610.00
52.2174 592.00
52.2826 620.00
52.3477 640.00
52.4129 577.00
52.4781 616.00
52.5433 559.00
52.6085 585.00
52.6737 596.00
52.7389 656.00
52.8041 640.00
52.8693 775.00
52.9345 1155.00
52.9997 1530.00
53.0649 1010.00
53.1301 1115.00
53.1953 741.00
53.2605 628.00
53.3257 562.00
53.3909 580.00
53.4561 558.00
53.5213 587.00
53.5865 515.00
53.6517 537.00
53.7169 527.00
53.7821 547.00
53.8473 556.00
53.9125 522.00
53.9777 512.00
54.0429 516.00
54.1081 540.00
54.1733 560.00
54.2385 523.00
54.3037 521.00
54.3689 561.00
54.4341 568.00
54.4993 604.00
54.5645 647.00
54.6297 750.00
54.6949 676.00
54.7601 662.00
54.8253 585.00
54.8905 580.00
54.9557 524.00
55.0209 525.00
55.0861 549.00
55.1513 533.00
55.2165 529.00
55.2817 530.00
55.3469 555.00
55.4121 524.00
55.4773 515.00
55.5425 506.00
55.6077 541.00
55.6729 506.00
55.7381 547.00
55.8033 564.00
55.8685 604.00
55.9337 612.00
55.9989 655.00
56.0641 735.00
56.1293 960.00
56.1945 1802.00
56.2597 2797.00
56.3249 1547.00
56.3901 1704.00
56.4553 1095.00
56.5205 724.00
56.5857 666.00
56.6509 579.00
56.7161 536.00
56.7813 538.00
56.8465 552.00
56.9117 523.00
56.9769 539.00
57.042 513.00
57.1073 538.00
57.1724 533.00
57.2376 499.00
57.3028 540.00
57.368 527.00
57.4332 550.00
57.4984 543.00
57.5636 573.00
57.6288 552.00
57.694 646.00
57.7592 797.00
57.8244 1066.00
57.8896 778.00
57.9548 768.00
58.02 794.00
58.0852 589.00
58.1504 580.00
58.2156 542.00
58.2808 502.00
58.346 525.00
58.4112 485.00
58.4764 494.00
58.5416 528.00
58.6068 574.00
58.672 537.00
58.7372 506.00
58.8024 555.00
58.8676 516.00
58.9328 588.00
58.998 598.00
59.0632 614.00
59.1284 651.00
59.1936 713.00
59.2588 770.00
59.324 1332.00
59.3892 2298.00
59.4544 1465.00
59.5196 1387.00
59.5848 1266.00
59.65 759.00
59.7152 682.00
59.7804 631.00
59.8456 594.00
59.9108 571.00
59.976 592.00
60.0412 579.00
60.1064 545.00
60.1716 578.00
60.2368 596.00
60.302 627.00
60.3672 655.00
60.4324 711.00
60.4976 785.00
60.5628 898.00
60.628 1076.00
60.6932 1349.00
60.7584 1825.00
60.8236 3484.00
60.8888 8792.00
60.954 10095.00
61.0192 5190.00
61.0844 6764.00
61.1496 3790.00
61.2148 1760.00
61.28 1220.00
61.3452 914.00
61.4104 739.00
61.4756 723.00
61.5408 636.00
61.606 607.00
61.6712 570.00
61.7364 594.00
61.8016 608.00
61.8667 588.00
61.932 606.00
61.9971 598.00
62.0623 633.00
62.1275 640.00
62.1927 665.00
62.2579 781.00
62.3231 1072.00
62.3883 2011.00
62.4535 2698.00
62.5187 1566.00
62.5839 1687.00
62.6491 1394.00
62.7143 831.00
62.7795 694.00
62.8447 628.00
62.9099 536.00
62.9751 502.00
63.0403 568.00
63.1055 511.00
63.1707 518.00
63.2359 486.00
63.3011 517.00
63.3663 553.00
63.4315 540.00
63.4967 534.00
63.5619 605.00
63.6271 618.00
63.6923 633.00
63.7575 694.00
63.8227 1068.00
63.8879 2005.00
63.9531 2383.00
64.0183 1379.00
64.0835 1629.00
64.1487 1220.00
64.2139 795.00
64.2791 610.00
64.3443 532.00
64.4095 561.00
64.4747 491.00
64.5399 529.00
64.6051 496.00
64.6703 474.00
64.7355 547.00
64.8007 498.00
64.8659 515.00
64.9311 513.00
64.9963 537.00
65.0615 527.00
65.1267 512.00
65.1919 528.00
65.2571 631.00
65.3223 740.00
65.3875 1303.00
65.4527 928.00
65.5179 848.00
65.5831 973.00
65.6483 685.00
65.7135 498.00
65.7787 544.00
65.8439 498.00
65.9091 493.00
65.9743 494.00
66.0395 466.00
66.1047 498.00
66.1699 481.00
66.2351 435.00
66.3003 518.00
66.3655 460.00
66.4307 473.00
66.4959 536.00
66.561 519.00
66.6263 519.00
66.6915 503.00
66.7566 606.00
66.8218 896.00
66.887 844.00
66.9522 660.00
67.0174 786.00
67.0826 667.00
67.1478 555.00
67.213 526.00
67.2782 509.00
67.3434 492.00
67.4086 456.00
67.4738 450.00
67.539 443.00
67.6042 478.00
67.6694 414.00
67.7346 474.00
67.7998 484.00
67.865 519.00
67.9302 491.00
67.9954 505.00
68.0606 563.00
68.1258 628.00
68.191 828.00
68.2562 1411.00
68.3214 1438.00
68.3866 910.00
68.4518 988.00
68.517 960.00
68.5822 669.00
68.6474 514.00
68.7126 506.00
68.7778 497.00
68.843 436.00
68.9082 453.00
68.9734 495.00
69.0386 477.00
69.1038 400.00
69.169 438.00
69.2342 471.00
69.2994 491.00
69.3646 485.00
69.4298 535.00
69.495 496.00
69.5602 549.00
69.6254 686.00
69.6906 1067.00
69.7558 893.00
69.821 630.00
69.8862 847.00
69.9514 637.00
70.0166 522.00
70.0818 468.00
70.147 431.00
70.2122 443.00
70.2774 469.00
70.3426 455.00
70.4078 475.00
70.473 466.00
70.5382 429.00
70.6034 469.00
70.6686 436.00
70.7338 402.00
70.799 431.00
70.8642 433.00
70.9294 436.00
70.9946 401.00
71.0598 436.00
71.125 449.00
71.1902 440.00
71.2554 416.00
71.3205 427.00
71.3858 442.00
71.451 455.00
71.5162 463.00
71.5813 417.00
71.6465 414.00
71.7117 441.00
71.7769 464.00
71.8421 391.00
71.9073 428.00
71.9725 412.00
72.0377 435.00
72.1029 400.00
72.1681 426.00
72.2333 492.00
72.2985 461.00
72.3637 417.00
72.4289 470.00
72.4941 414.00
72.5593 447.00
72.6245 441.00
72.6897 398.00
72.7549 400.00
72.8201 436.00
72.8853 420.00
72.9505 440.00
73.0157 395.00
73.0809 415.00
73.1461 439.00
73.2113 459.00
73.2765 435.00
73.3417 407.00
73.4069 451.00
73.4721 438.00
73.5373 470.00
73.6025 493.00
73.6677 497.00
73.7329 589.00
73.7981 624.00
73.8633 1014.00
73.9285 1198.00
73.9937 772.00
74.0589 720.00
74.1241 907.00
74.1893 665.00
74.2545 548.00
74.3197 498.00
74.3849 484.00
74.4501 452.00
74.5153 414.00
74.5805 467.00
74.6457 436.00
74.7109 492.00
74.7761 490.00
74.8413 434.00
74.9065 490.00
74.9717 480.00
75.0369 535.00
75.1021 585.00
75.1673 798.00
75.2325 1294.00
75.2977 1714.00
75.3629 1020.00
75.4281 919.00
75.4933 1177.00
75.5585 886.00
75.6237 670.00
75.6889 536.00
75.7541 496.00
75.8193 482.00
75.8845 477.00
75.9497 480.00
76.0149 459.00
76.0801 493.00
76.1452 509.00
76.2104 455.00
76.2756 531.00
76.3409 469.00
76.406 519.00
76.4712 621.00
76.5364 740.00
76.6016 1325.00
76.6668 1686.00
76.732 903.00
76.7972 878.00
76.8624 1148.00
76.9276 871.00
76.9928 590.00
77.058 483.00
77.1232 436.00
77.1884 435.00
77.2536 443.00
77.3188 464.00
77.384 451.00
77.4492 431.00
77.5144 485.00
77.5796 459.00
77.6448 455.00
77.71 462.00
77.7752 506.00
77.8404 561.00
77.9056 680.00
77.9708 962.00
78.036 1104.00
78.1012 698.00
78.1664 674.00
78.2316 814.00
78.2968 638.00
78.362 529.00
78.4272 482.00
78.4924 464.00
78.5576 422.00
78.6228 456.00
78.688 408.00
78.7532 422.00
78.8184 444.00
78.8836 458.00
78.9488 447.00
79.014 449.00
79.0792 463.00
79.1444 500.00
79.2096 535.00
79.2748 700.00
79.34 1138.00
79.4052 983.00
79.4704 645.00
79.5356 707.00
79.6008 799.00
79.666 569.00
79.7312 494.00
79.7964 418.00
79.8616 442.00
79.9268 430.00
79.992 445.00
80.0572 434.00
80.1224 466.00
80.1876 393.00
80.2528 480.00
80.318 422.00
80.3832 419.00
80.4484 443.00
80.5136 512.00
80.5788 537.00
80.644 678.00
80.7092 916.00
80.7744 696.00
80.8396 605.00
80.9048 633.00
80.9699 696.00
81.0351 489.00
81.1003 466.00
81.1655 437.00
81.2307 459.00
81.2959 442.00
81.3611 439.00
81.4263 430.00
81.4915 446.00
81.5567 445.00
81.6219 464.00
81.6871 467.00
81.7523 450.00
81.8175 539.00
81.8827 618.00
81.9479 743.00
82.0131 1267.00
82.0783 1450.00
82.1435 845.00
82.2087 753.00
82.2739 979.00
82.3391 927.00
82.4043 624.00
82.4695 529.00
82.5347 451.00
82.5999 455.00
82.6651 467.00
82.7303 469.00
82.7955 458.00
82.8607 471.00
82.9259 519.00
82.9911 495.00
83.0563 535.00
83.1215 599.00
83.1867 672.00
83.2519 908.00
83.3171 1607.00
83.3823 2785.00
83.4475 1842.00
83.5127 1131.00
83.5779 1363.00
83.6431 1659.00
83.7083 1068.00
83.7735 701.00
83.8387 589.00
83.9039 498.00
83.9691 492.00
84.0343 422.00
84.0995 450.00
84.1647 449.00
84.2299 400.00
84.2951 403.00
84.3603 395.00
84.4255 437.00
84.4907 411.00
84.5559 442.00
84.6211 419.00
84.6863 419.00
84.7515 450.00
84.8167 419.00
84.8819 413.00
84.9471 432.00
85.0123 415.00
85.0775 413.00
85.1427 410.00
85.2079 420.00
85.2731 454.00
85.3383 385.00
85.4035 436.00
85.4687 401.00
85.5339 477.00
85.5991 457.00
85.6643 465.00
85.7295 477.00
85.7946 530.00
85.8598 612.00
85.925 788.00
85.9903 1413.00
86.0554 2119.00
86.1206 1324.00
86.1858 944.00
86.251 982.00
86.3162 1267.00
86.3814 918.00
86.4466 656.00
86.5118 520.00
86.577 438.00
86.6422 478.00
86.7074 440.00
86.7726 401.00
86.8378 410.00
86.903 394.00
86.9682 371.00
87.0334 384.00
87.0986 400.00
87.1638 437.00
87.229 429.00
87.2942 540.00
87.3594 680.00
87.4246 637.00
87.4898 514.00
87.555 481.00
87.6202 562.00
87.6854 521.00
87.7506 416.00
87.8158 421.00
87.881 440.00
87.9462 358.00
88.0114 410.00
88.0766 407.00
88.1418 387.00
88.207 383.00
88.2722 421.00
88.3374 401.00
88.4026 419.00
88.4678 434.00
88.533 445.00
88.5982 476.00
88.6634 626.00
88.7286 762.00
88.7938 556.00
88.859 512.00
88.9242 542.00
88.9894 566.00
89.0546 480.00
89.1198 436.00
89.185 378.00
89.2502 393.00
89.3154 394.00
89.3806 396.00
89.4458 405.00
89.511 398.00
89.5762 368.00
89.6414 421.00
89.7066 471.00
89.7718 439.00
89.837 495.00
89.9022 570.00
89.9674 826.00
90.0326 1143.00
90.0978 814.00
90.163 621.00
90.2282 600.00
90.2934 806.00
90.3586 714.00
90.4238 552.00
90.489 424.00
90.5542 413.00
90.6193 457.00
90.6845 399.00
90.7497 369.00
90.8149 363.00
90.8801 395.00
90.9453 357.00
91.0105 348.00
91.0757 407.00
91.1409 366.00
91.2061 341.00
91.2713 415.00
91.3365 423.00
91.4017 412.00
91.4669 381.00
91.5321 340.00
91.5973 417.00
91.6625 445.00
91.7277 390.00
91.7929 361.00
91.8581 375.00
91.9233 379.00
91.9885 361.00
92.0537 384.00
92.1189 418.00
92.1841 417.00
92.2493 398.00
92.3145 406.00
92.3797 427.00
92.4449 469.00
92.5101 526.00
92.5753 631.00
92.6405 1009.00
92.7057 1114.00
92.7709 719.00
92.8361 635.00
92.9013 642.00
92.9665 763.00
93.0317 616.00
93.0969 507.00
93.1621 456.00
93.2273 424.00
93.2925 352.00
93.3577 394.00
93.4229 415.00
93.4881 383.00
93.5533 399.00
93.6185 352.00
93.6837 334.00
93.7489 422.00
93.8141 360.00
93.8793 376.00
93.9445 378.00
94.0097 398.00
94.0749 420.00
94.1401 382.00
94.2053 379.00
94.2705 358.00
94.3357 409.00
94.4009 407.00
94.4661 367.00
94.5313 349.00
94.5965 360.00
94.6617 366.00
94.7269 371.00
94.7921 385.00
94.8573 408.00
94.9225 396.00
94.9877 428.00
95.0529 455.00
95.1181 478.00
95.1833 517.00
95.2485 626.00
95.3137 1063.00
95.3789 934.00
95.444 685.00
95.5092 596.00
95.5744 657.00
95.6396 754.00
95.7048 704.00
95.77 529.00
95.8352 482.00
95.9004 436.00
95.9656 439.00
96.0308 471.00
96.096 418.00
96.1612 415.00
96.2264 450.00
96.2916 466.00
96.3568 527.00
96.422 518.00
96.4872 573.00
96.5524 800.00
96.6176 1331.00
96.6828 1717.00
96.748 1161.00
96.8132 821.00
96.8784 761.00
96.9436 934.00
97.0088 1082.00
97.074 749.00
97.1392 603.00
97.2044 496.00
97.2696 426.00
97.3348 443.00
97.4 441.00
97.4652 471.00
97.5304 383.00
97.5956 416.00
97.6608 456.00
97.726 464.00
97.7912 491.00
97.8564 599.00
97.9216 759.00
97.9868 1092.00
98.052 949.00
98.1172 684.00
98.1824 558.00
98.2476 636.00
98.3128 776.00
98.378 651.00
98.4432 545.00
98.5084 465.00
98.5736 421.00
98.6388 404.00
98.704 426.00
98.7692 426.00
98.8344 420.00
98.8996 443.00
98.9648 441.00
99.03 424.00
99.0952 484.00
99.1604 520.00
99.2256 545.00
99.2908 744.00
99.356 898.00
99.4212 680.00
99.4864 539.00
99.5516 544.00
99.6168 537.00
99.682 629.00
99.7472 544.00
99.8124 470.00
99.8776 420.00
99.9428 433.00
100.008 409.00
100.073 405.00
100.095 399.00