File: data/xrd_creation/results/PG_1747-1.xy
9.903433 2471.00
9.968632 2379.00
10.0338 2494.00
10.099 2492.00
10.1642 2422.00
10.2294 2465.00
10.2946 2368.00
10.3598 2302.00
10.425 2257.00
10.4902 2324.00
10.5554 2272.00
10.6206 2284.00
10.6858 2242.00
10.751 2261.00
10.8162 2245.00
10.8814 2210.00
10.9466 2170.00
11.0118 2139.00
11.077 2083.00
11.1422 2129.00
11.2074 2071.00
11.2726 2082.00
11.3378 2071.00
11.403 2122.00
11.4682 2039.00
11.5334 2029.00
11.5986 1903.00
11.6638 2003.00
11.729 2006.00
11.7942 1903.00
11.8594 1874.00
11.9246 1937.00
11.9898 1951.00
12.055 1917.00
12.1202 1862.00
12.1854 1819.00
12.2506 1851.00
12.3158 1796.00
12.381 1853.00
12.4462 1814.00
12.5114 1794.00
12.5766 1769.00
12.6418 1782.00
12.707 1763.00
12.7722 1695.00
12.8374 1738.00
12.9026 1762.00
12.9678 1763.00
13.033 1641.00
13.0982 1685.00
13.1634 1630.00
13.2286 1535.00
13.2938 1564.00
13.359 1588.00
13.4242 1581.00
13.4894 1554.00
13.5546 1638.00
13.6198 1665.00
13.685 1511.00
13.7502 1634.00
13.8154 1458.00
13.8805 1441.00
13.9457 1514.00
14.0109 1446.00
14.0761 1482.00
14.1413 1545.00
14.2065 1420.00
14.2717 1485.00
14.3369 1393.00
14.4021 1496.00
14.4673 1457.00
14.5325 1429.00
14.5977 1463.00
14.6629 1416.00
14.7281 1427.00
14.7933 1367.00
14.8585 1456.00
14.9237 1421.00
14.9889 1438.00
15.0541 1386.00
15.1193 1426.00
15.1845 1457.00
15.2497 1460.00
15.3149 1590.00
15.3801 1531.00
15.4453 1479.00
15.5105 1464.00
15.5757 1368.00
15.6409 1439.00
15.7061 1315.00
15.7713 1299.00
15.8365 1373.00
15.9017 1337.00
15.9669 1331.00
16.0321 1245.00
16.0973 1392.00
16.1625 1308.00
16.2277 1324.00
16.2929 1289.00
16.3581 1274.00
16.4233 1344.00
16.4885 1242.00
16.5537 1274.00
16.6189 1215.00
16.6841 1295.00
16.7493 1179.00
16.8145 1239.00
16.8797 1172.00
16.9449 1356.00
17.0101 1217.00
17.0753 1194.00
17.1405 1252.00
17.2057 1202.00
17.2709 1261.00
17.3361 1233.00
17.4013 1267.00
17.4665 1418.00
17.5317 1466.00
17.5969 1487.00
17.6621 1335.00
17.7273 1214.00
17.7925 1186.00
17.8577 1227.00
17.9229 1154.00
17.9881 1120.00
18.0533 1233.00
18.1185 1119.00
18.1837 1170.00
18.2489 1107.00
18.3141 1114.00
18.3793 1106.00
18.4445 1121.00
18.5097 1101.00
18.5749 1057.00
18.6401 1146.00
18.7052 1095.00
18.7704 1101.00
18.8356 1115.00
18.9008 1108.00
18.966 1038.00
19.0312 1075.00
19.0964 1099.00
19.1616 1087.00
19.2268 1052.00
19.292 1129.00
19.3572 1100.00
19.4224 1041.00
19.4876 1116.00
19.5528 1065.00
19.618 1054.00
19.6832 1014.00
19.7484 1007.00
19.8136 1071.00
19.8788 1051.00
19.944 1064.00
20.0092 1131.00
20.0744 1238.00
20.1396 1277.00
20.2048 1542.00
20.27 1743.00
20.3352 1954.00
20.4004 1946.00
20.4656 1632.00
20.5308 1345.00
20.596 1048.00
20.6612 957.00
20.7264 1024.00
20.7916 1004.00
20.8568 971.00
20.922 1001.00
20.9872 993.00
21.0524 943.00
21.1176 990.00
21.1828 960.00
21.248 981.00
21.3132 995.00
21.3784 976.00
21.4436 966.00
21.5088 982.00
21.574 1018.00
21.6392 1064.00
21.7044 1166.00
21.7696 1177.00
21.8348 1159.00
21.9 1107.00
21.9652 999.00
22.0304 941.00
22.0956 880.00
22.1608 910.00
22.226 978.00
22.2912 885.00
22.3564 937.00
22.4216 933.00
22.4868 861.00
22.552 842.00
22.6172 887.00
22.6824 891.00
22.7476 886.00
22.8128 914.00
22.878 960.00
22.9432 807.00
23.0084 845.00
23.0736 852.00
23.1388 872.00
23.204 855.00
23.2692 867.00
23.3344 877.00
23.3996 846.00
23.4647 867.00
23.5299 853.00
23.5951 864.00
23.6603 886.00
23.7255 874.00
23.7907 887.00
23.8559 891.00
23.9211 892.00
23.9863 1007.00
24.0515 1273.00
24.1167 1639.00
24.1819 1955.00
24.2471 1762.00
24.3123 1199.00
24.3775 1056.00
24.4427 1099.00
24.5079 1331.00
24.5731 1649.00
24.6383 1613.00
24.7035 1199.00
24.7687 884.00
24.8339 829.00
24.8991 799.00
24.9643 820.00
25.0295 815.00
25.0947 724.00
25.1599 798.00
25.2251 810.00
25.2903 772.00
25.3555 831.00
25.4207 816.00
25.4859 774.00
25.5511 844.00
25.6163 860.00
25.6815 790.00
25.7467 806.00
25.8119 743.00
25.8771 757.00
25.9423 728.00
26.0075 803.00
26.0727 923.00
26.1379 934.00
26.2031 917.00
26.2683 818.00
26.3335 771.00
26.3987 753.00
26.4639 772.00
26.5291 704.00
26.5943 679.00
26.6595 758.00
26.7247 759.00
26.7899 703.00
26.8551 667.00
26.9203 712.00
26.9855 738.00
27.0507 767.00
27.1159 717.00
27.1811 736.00
27.2463 689.00
27.3115 759.00
27.3767 735.00
27.4419 751.00
27.5071 706.00
27.5723 693.00
27.6375 718.00
27.7027 754.00
27.7679 732.00
27.8331 826.00
27.8983 822.00
27.9635 853.00
28.0287 1001.00
28.0939 1415.00
28.1591 2277.00
28.2243 4435.00
28.2894 7497.00
28.3546 8613.00
28.4198 6068.00
28.485 2897.00
28.5502 1291.00
28.6154 917.00
28.6806 817.00
28.7458 754.00
28.811 724.00
28.8762 649.00
28.9414 693.00
29.0066 748.00
29.0718 724.00
29.137 643.00
29.2022 657.00
29.2674 662.00
29.3326 680.00
29.3978 643.00
29.463 667.00
29.5282 670.00
29.5934 676.00
29.6586 676.00
29.7238 648.00
29.789 667.00
29.8542 649.00
29.9194 623.00
29.9846 677.00
30.0498 623.00
30.115 577.00
30.1802 671.00
30.2454 659.00
30.3106 616.00
30.3758 596.00
30.441 662.00
30.5062 679.00
30.5714 707.00
30.6366 734.00
30.7018 716.00
30.767 730.00
30.8322 883.00
30.8974 1097.00
30.9626 1308.00
31.0278 1364.00
31.093 1188.00
31.1582 870.00
31.2234 792.00
31.2886 801.00
31.3538 899.00
31.419 1193.00
31.4842 1940.00
31.5494 3748.00
31.6146 6464.00
31.6798 7569.00
31.745 5299.00
31.8102 2531.00
31.8754 1164.00
31.9406 880.00
32.0058 752.00
32.071 669.00
32.1362 677.00
32.2014 591.00
32.2666 681.00
32.3318 656.00
32.397 724.00
32.4622 724.00
32.5274 699.00
32.5926 645.00
32.6578 639.00
32.723 601.00
32.7882 594.00
32.8534 619.00
32.9186 597.00
32.9838 622.00
33.0489 548.00
33.1141 605.00
33.1793 594.00
33.2445 581.00
33.3097 614.00
33.3749 641.00
33.4401 617.00
33.5053 628.00
33.5705 615.00
33.6357 595.00
33.7009 576.00
33.7661 618.00
33.8313 656.00
33.8965 606.00
33.9617 560.00
34.0269 609.00
34.0921 730.00
34.1573 961.00
34.2225 1583.00
34.2877 2509.00
34.3529 2989.00
34.4181 2636.00
34.4833 2151.00
34.5485 2339.00
34.6137 2557.00
34.6789 1900.00
34.7441 1224.00
34.8093 775.00
34.8745 668.00
34.9397 636.00
35.0049 578.00
35.0701 662.00
35.1353 616.00
35.2005 659.00
35.2657 620.00
35.3309 831.00
35.3961 1197.00
35.4613 2121.00
35.5265 2986.00
35.5917 2691.00
35.6569 1699.00
35.7221 963.00
35.7873 711.00
35.8525 617.00
35.9177 682.00
35.9829 866.00
36.0481 1137.00
36.1133 1228.00
36.1785 921.00
36.2437 757.00
36.3089 621.00
36.3741 563.00
36.4393 547.00
36.5045 552.00
36.5697 561.00
36.6349 489.00
36.7001 527.00
36.7653 534.00
36.8305 492.00
36.8957 513.00
36.9609 512.00
37.0261 532.00
37.0913 536.00
37.1565 554.00
37.2217 539.00
37.2869 528.00
37.3521 582.00
37.4173 538.00
37.4825 517.00
37.5477 486.00
37.6129 538.00
37.6781 497.00
37.7433 528.00
37.8085 473.00
37.8736 472.00
37.9388 514.00
38.004 528.00
38.0692 462.00
38.1344 461.00
38.1996 519.00
38.2648 476.00
38.33 515.00
38.3952 475.00
38.4604 553.00
38.5256 531.00
38.5908 636.00
38.656 838.00
38.7212 1198.00
38.7864 1405.00
38.8516 1290.00
38.9168 925.00
38.982 608.00
39.0472 583.00
39.1124 508.00
39.1776 558.00
39.2428 500.00
39.308 514.00
39.3732 453.00
39.4384 463.00
39.5036 486.00
39.5688 461.00
39.634 499.00
39.6992 512.00
39.7644 497.00
39.8296 477.00
39.8948 509.00
39.96 464.00
40.0252 525.00
40.0904 521.00
40.1556 582.00
40.2208 583.00
40.286 559.00
40.3512 495.00
40.4164 548.00
40.4816 533.00
40.5468 501.00
40.612 503.00
40.6772 530.00
40.7424 612.00
40.8076 764.00
40.8728 1223.00
40.938 2039.00
41.0032 2188.00
41.0684 1630.00
41.1336 1120.00
41.1988 837.00
41.264 907.00
41.3292 1062.00
41.3944 1272.00
41.4596 1251.00
41.5248 1224.00
41.59 1125.00
41.6552 1026.00
41.7204 799.00
41.7856 662.00
41.8508 542.00
41.916 509.00
41.9812 514.00
42.0464 524.00
42.1116 580.00
42.1768 581.00
42.242 620.00
42.3072 513.00
42.3724 531.00
42.4376 497.00
42.5028 505.00
42.568 443.00
42.6332 452.00
42.6983 426.00
42.7635 457.00
42.8287 454.00
42.8939 470.00
42.9591 422.00
43.0243 459.00
43.0895 453.00
43.1547 464.00
43.2199 451.00
43.2851 449.00
43.3503 453.00
43.4155 479.00
43.4807 465.00
43.5459 451.00
43.6111 444.00
43.6763 472.00
43.7415 437.00
43.8067 456.00
43.8719 482.00
43.9371 470.00
44.0023 452.00
44.0675 428.00
44.1327 393.00
44.1979 457.00
44.2631 488.00
44.3283 469.00
44.3935 443.00
44.4587 478.00
44.5239 469.00
44.5891 496.00
44.6543 444.00
44.7195 420.00
44.7847 471.00
44.8499 481.00
44.9151 529.00
44.9803 650.00
45.0455 883.00
45.1107 989.00
45.1759 922.00
45.2411 738.00
45.3063 556.00
45.3715 510.00
45.4367 542.00
45.5019 580.00
45.5671 551.00
45.6323 646.00
45.6975 938.00
45.7627 1246.00
45.8279 1201.00
45.8931 940.00
45.9583 759.00
46.0235 533.00
46.0887 449.00
46.1539 483.00
46.2191 405.00
46.2843 448.00
46.3495 467.00
46.4147 429.00
46.4799 451.00
46.5451 447.00
46.6103 509.00
46.6755 461.00
46.7407 443.00
46.8059 446.00
46.8711 444.00
46.9363 458.00
47.0015 501.00
47.0667 470.00
47.1319 606.00
47.1971 688.00
47.2623 758.00
47.3275 796.00
47.3927 746.00
47.4579 595.00
47.523 537.00
47.5882 489.00
47.6534 506.00
47.7186 431.00
47.7838 542.00
47.849 585.00
47.9142 604.00
47.9794 592.00
48.0446 572.00
48.1098 561.00
48.175 518.00
48.2402 482.00
48.3054 433.00
48.3706 484.00
48.4358 451.00
48.501 432.00
48.5662 474.00
48.6314 475.00
48.6966 497.00
48.7618 441.00
48.827 481.00
48.8922 528.00
48.9574 566.00
49.0226 558.00
49.0878 577.00
49.153 695.00
49.2182 697.00
49.2834 706.00
49.3486 750.00
49.4138 1033.00
49.479 2026.00
49.5442 2608.00
49.6094 2260.00
49.6746 1882.00
49.7398 1111.00
49.805 741.00
49.8702 581.00
49.9354 541.00
50.0006 568.00
50.0658 559.00
50.131 533.00
50.1962 647.00
50.2614 783.00
50.3266 1424.00
50.3918 2882.00
50.457 3223.00
50.5222 2468.00
50.5874 1905.00
50.6526 1179.00
50.7178 892.00
50.783 1393.00
50.8482 1940.00
50.9134 1659.00
50.9786 1432.00
51.0438 1042.00
51.109 707.00
51.1742 581.00
51.2394 620.00
51.3046 599.00
51.3698 667.00
51.435 891.00
51.5002 1174.00
51.5654 1018.00
51.6306 902.00
51.6958 689.00
51.761 566.00
51.8262 496.00
51.8914 543.00
51.9566 563.00
52.0218 525.00
52.087 521.00
52.1522 479.00
52.2174 528.00
52.2826 455.00
52.3477 460.00
52.4129 466.00
52.4781 430.00
52.5433 457.00
52.6085 460.00
52.6737 413.00
52.7389 472.00
52.8041 435.00
52.8693 423.00
52.9345 451.00
52.9997 433.00
53.0649 446.00
53.1301 443.00
53.1953 432.00
53.2605 444.00
53.3257 430.00
53.3909 423.00
53.4561 492.00
53.5213 460.00
53.5865 441.00
53.6517 425.00
53.7169 464.00
53.7821 464.00
53.8473 490.00
53.9125 472.00
53.9777 477.00
54.0429 539.00
54.1081 515.00
54.1733 518.00
54.2385 603.00
54.3037 805.00
54.3689 1468.00
54.4341 2082.00
54.4993 1888.00
54.5645 1590.00
54.6297 1161.00
54.6949 750.00
54.7601 564.00
54.8253 515.00
54.8905 542.00
54.9557 681.00
55.0209 612.00
55.0861 614.00
55.1513 516.00
55.2165 524.00
55.2817 537.00
55.3469 533.00
55.4121 550.00
55.4773 686.00
55.5425 938.00
55.6077 1697.00
55.6729 2291.00
55.7381 2192.00
55.8033 1930.00
55.8685 1972.00
55.9337 1647.00
55.9989 1353.00
56.0641 1119.00
56.1293 1138.00
56.1945 1530.00
56.2597 1647.00
56.3249 1348.00
56.3901 1225.00
56.4553 885.00
56.5205 598.00
56.5857 554.00
56.6509 489.00
56.7161 512.00
56.7813 471.00
56.8465 472.00
56.9117 459.00
56.9769 470.00
57.042 456.00
57.1073 503.00
57.1724 477.00
57.2376 504.00
57.3028 522.00
57.368 609.00
57.4332 976.00
57.4984 1707.00
57.5636 1750.00
57.6288 1408.00
57.694 1166.00
57.7592 911.00
57.8244 560.00
57.8896 523.00
57.9548 527.00
58.02 531.00
58.0852 594.00
58.1504 943.00
58.2156 1432.00
58.2808 1224.00
58.346 1063.00
58.4112 1008.00
58.4764 792.00
58.5416 845.00
58.6068 1148.00
58.672 976.00
58.7372 823.00
58.8024 834.00
58.8676 644.00
58.9328 521.00
58.998 518.00
59.0632 544.00
59.1284 563.00
59.1936 552.00
59.2588 527.00
59.324 496.00
59.3892 467.00
59.4544 435.00
59.5196 458.00
59.5848 468.00
59.65 492.00
59.7152 486.00
59.7804 506.00
59.8456 559.00
59.9108 555.00
59.976 659.00
60.0412 840.00
60.1064 1462.00
60.1716 1714.00
60.2368 1454.00
60.302 1599.00
60.3672 1733.00
60.4324 1550.00
60.4976 1232.00
60.5628 1041.00
60.628 795.00
60.6932 662.00
60.7584 521.00
60.8236 529.00
60.8888 476.00
60.954 470.00
61.0192 490.00
61.0844 487.00
61.1496 519.00
61.2148 519.00
61.28 448.00
61.3452 486.00
61.4104 522.00
61.4756 552.00
61.5408 590.00
61.606 745.00
61.6712 1078.00
61.7364 1461.00
61.8016 1300.00
61.8667 1088.00
61.932 1036.00
61.9971 771.00
62.0623 727.00
62.1275 715.00
62.1927 913.00
62.2579 1232.00
62.3231 1550.00
62.3883 1438.00
62.4535 1194.00
62.5187 1102.00
62.5839 809.00
62.6491 544.00
62.7143 535.00
62.7795 550.00
62.8447 480.00
62.9099 508.00
62.9751 507.00
63.0403 538.00
63.1055 665.00
63.1707 1218.00
63.2359 2126.00
63.3011 2051.00
63.3663 1464.00
63.4315 1450.00
63.4967 1107.00
63.5619 677.00
63.6271 577.00
63.6923 484.00
63.7575 487.00
63.8227 483.00
63.8879 472.00
63.9531 490.00
64.0183 486.00
64.0835 489.00
64.1487 426.00
64.2139 471.00
64.2791 502.00
64.3443 574.00
64.4095 667.00
64.4747 781.00
64.5399 777.00
64.6051 925.00
64.6703 1098.00
64.7355 875.00
64.8007 777.00
64.8659 759.00
64.9311 643.00
64.9963 510.00
65.0615 484.00
65.1267 467.00
65.1919 531.00
65.2571 480.00
65.3223 476.00
65.3875 543.00
65.4527 608.00
65.5179 573.00
65.5831 576.00
65.6483 650.00
65.7135 749.00
65.7787 931.00
65.8439 860.00
65.9091 820.00
65.9743 929.00
66.0395 1182.00
66.1047 1758.00
66.1699 1863.00
66.2351 1358.00
66.3003 1449.00
66.3655 1181.00
66.4307 780.00
66.4959 715.00
66.561 564.00
66.6263 571.00
66.6915 494.00
66.7566 469.00
66.8218 475.00
66.887 462.00
66.9522 499.00
67.0174 438.00
67.0826 469.00
67.1478 433.00
67.213 468.00
67.2782 517.00
67.3434 443.00
67.4086 434.00
67.4738 479.00
67.539 465.00
67.6042 461.00
67.6694 454.00
67.7346 455.00
67.7998 449.00
67.865 501.00
67.9302 470.00
67.9954 482.00
68.0606 470.00
68.1258 442.00
68.191 470.00
68.2562 451.00
68.3214 439.00
68.3866 471.00
68.4518 495.00
68.517 479.00
68.5822 480.00
68.6474 502.00
68.7126 444.00
68.7778 530.00
68.843 512.00
68.9082 505.00
68.9734 449.00
69.0386 501.00
69.1038 520.00
69.169 532.00
69.2342 570.00
69.2994 786.00
69.3646 931.00
69.4298 829.00
69.495 670.00
69.5602 702.00
69.6254 667.00
69.6906 550.00
69.7558 523.00
69.821 507.00
69.8862 523.00
69.9514 552.00
70.0166 600.00
70.0818 639.00
70.147 586.00
70.2122 573.00
70.2774 559.00
70.3426 563.00
70.4078 495.00
70.473 534.00
70.5382 558.00
70.6034 569.00
70.6686 546.00
70.7338 460.00
70.799 523.00
70.8642 508.00
70.9294 465.00
70.9946 454.00
71.0598 512.00
71.125 469.00
71.1902 510.00
71.2554 512.00
71.3205 568.00
71.3858 598.00
71.451 844.00
71.5162 1095.00
71.5813 1152.00
71.6465 1206.00
71.7117 1342.00
71.7769 1128.00
71.8421 904.00
71.9073 827.00
71.9725 735.00
72.0377 611.00
72.1029 505.00
72.1681 540.00
72.2333 560.00
72.2985 593.00
72.3637 655.00
72.4289 652.00
72.4941 739.00
72.5593 796.00
72.6245 776.00
72.6897 691.00
72.7549 699.00
72.8201 736.00
72.8853 653.00
72.9505 660.00
73.0157 755.00
73.0809 800.00
73.1461 763.00
73.2113 661.00
73.2765 638.00
73.3417 601.00
73.4069 543.00
73.4721 473.00
73.5373 500.00
73.6025 493.00
73.6677 475.00
73.7329 477.00
73.7981 507.00
73.8633 495.00
73.9285 533.00
73.9937 553.00
74.0589 608.00
74.1241 593.00
74.1893 562.00
74.2545 474.00
74.3197 507.00
74.3849 460.00
74.4501 451.00
74.5153 499.00
74.5805 510.00
74.6457 492.00
74.7109 537.00
74.7761 541.00
74.8413 595.00
74.9065 511.00
74.9717 527.00
75.0369 564.00
75.1021 690.00
75.1673 815.00
75.2325 864.00
75.2977 727.00
75.3629 731.00
75.4281 819.00
75.4933 1005.00
75.5585 1269.00
75.6237 1055.00
75.6889 918.00
75.7541 959.00
75.8193 908.00
75.8845 700.00
75.9497 586.00
76.0149 508.00
76.0801 511.00
76.1452 462.00
76.2104 485.00
76.2756 454.00
76.3409 452.00
76.406 503.00
76.4712 459.00
76.5364 525.00
76.6016 480.00
76.6668 521.00
76.732 529.00
76.7972 603.00
76.8624 758.00
76.9276 925.00
76.9928 1005.00
77.058 853.00
77.1232 742.00
77.1884 762.00
77.2536 692.00
77.3188 613.00
77.384 531.00
77.4492 574.00
77.5144 578.00
77.5796 506.00
77.6448 551.00
77.71 637.00
77.7752 650.00
77.8404 734.00
77.9056 710.00
77.9708 658.00
78.036 659.00
78.1012 691.00
78.1664 598.00
78.2316 584.00
78.2968 626.00
78.362 568.00
78.4272 612.00
78.4924 652.00
78.5576 746.00
78.6228 758.00
78.688 650.00
78.7532 640.00
78.8184 623.00
78.8836 597.00
78.9488 548.00
79.014 530.00
79.0792 537.00
79.1444 545.00
79.2096 566.00
79.2748 568.00
79.34 693.00
79.4052 950.00
79.4704 1071.00
79.5356 820.00
79.6008 711.00
79.666 803.00
79.7312 707.00
79.7964 555.00
79.8616 459.00
79.9268 501.00
79.992 484.00
80.0572 484.00
80.1224 491.00
80.1876 468.00
80.2528 449.00
80.318 495.00
80.3832 509.00
80.4484 473.00
80.5136 439.00
80.5788 456.00
80.644 483.00
80.7092 507.00
80.7744 486.00
80.8396 509.00
80.9048 569.00
80.9699 567.00
81.0351 520.00
81.1003 567.00
81.1655 561.00
81.2307 520.00
81.2959 537.00
81.3611 503.00
81.4263 512.00
81.4915 507.00
81.5567 543.00
81.6219 519.00
81.6871 535.00
81.7523 634.00
81.8175 619.00
81.8827 584.00
81.9479 642.00
82.0131 737.00
82.0783 931.00
82.1435 909.00
82.2087 754.00
82.2739 707.00
82.3391 763.00
82.4043 682.00
82.4695 604.00
82.5347 554.00
82.5999 505.00
82.6651 544.00
82.7303 618.00
82.7955 645.00
82.8607 591.00
82.9259 631.00
82.9911 631.00
83.0563 821.00
83.1215 915.00
83.1867 761.00
83.2519 718.00
83.3171 719.00
83.3823 768.00
83.4475 748.00
83.5127 676.00
83.5779 834.00
83.6431 976.00
83.7083 937.00
83.7735 834.00
83.8387 860.00
83.9039 941.00
83.9691 833.00
84.0343 713.00
84.0995 672.00
84.1647 677.00
84.2299 690.00
84.2951 609.00
84.3603 660.00
84.4255 925.00
84.4907 1104.00
84.5559 928.00
84.6211 802.00
84.6863 1079.00
84.7515 1086.00
84.8167 896.00
84.8819 710.00
84.9471 706.00
85.0123 685.00
85.0775 665.00
85.1427 580.00
85.2079 570.00
85.2731 492.00
85.3383 562.00
85.4035 638.00
85.4687 921.00
85.5339 914.00
85.5991 695.00
85.6643 596.00
85.7295 664.00
85.7946 722.00
85.8598 600.00
85.925 540.00
85.9903 504.00
86.0554 521.00
86.1206 503.00
86.1858 528.00
86.251 472.00
86.3162 491.00
86.3814 516.00
86.4466 511.00
86.5118 583.00
86.577 622.00
86.6422 714.00
86.7074 826.00
86.7726 722.00
86.8378 720.00
86.903 703.00
86.9682 667.00
87.0334 614.00
87.0986 538.00
87.1638 538.00
87.229 553.00
87.2942 520.00
87.3594 506.00
87.4246 495.00
87.4898 547.00
87.555 566.00
87.6202 536.00
87.6854 506.00
87.7506 546.00
87.8158 544.00
87.881 606.00
87.9462 680.00
88.0114 976.00
88.0766 982.00
88.1418 795.00
88.207 656.00
88.2722 763.00
88.3374 793.00
88.4026 696.00
88.4678 650.00
88.533 593.00
88.5982 664.00
88.6634 703.00
88.7286 869.00
88.7938 969.00
88.859 877.00
88.9242 799.00
88.9894 732.00
89.0546 880.00
89.1198 1158.00
89.185 1211.00
89.2502 1015.00
89.3154 766.00
89.3806 702.00
89.4458 847.00
89.511 806.00
89.5762 643.00
89.6414 570.00
89.7066 556.00
89.7718 559.00
89.837 665.00
89.9022 637.00
89.9674 688.00
90.0326 729.00
90.0978 684.00
90.163 626.00
90.2282 720.00
90.2934 729.00
90.3586 953.00
90.4238 1144.00
90.489 1016.00
90.5542 927.00
90.6193 855.00
90.6845 838.00
90.7497 809.00
90.8149 764.00
90.8801 681.00
90.9453 606.00
91.0105 547.00
91.0757 563.00
91.1409 537.00
91.2061 577.00
91.2713 675.00
91.3365 720.00
91.4017 612.00
91.4669 554.00
91.5321 595.00
91.5973 595.00
91.6625 632.00
91.7277 535.00
91.7929 581.00
91.8581 534.00
91.9233 701.00
91.9885 804.00
92.0537 784.00
92.1189 630.00
92.1841 559.00
92.2493 623.00
92.3145 684.00
92.3797 641.00
92.4449 608.00
92.5101 565.00
92.5753 522.00
92.6405 541.00
92.7057 554.00
92.7709 507.00
92.8361 526.00
92.9013 535.00
92.9665 464.00
93.0317 584.00
93.0969 504.00
93.1621 583.00
93.2273 511.00
93.2925 527.00
93.3577 529.00
93.4229 507.00
93.4881 515.00
93.5533 589.00
93.6185 632.00
93.6837 558.00
93.7489 577.00
93.8141 557.00
93.8793 556.00
93.9445 583.00
94.0097 520.00
94.0749 563.00
94.1401 517.00
94.2053 517.00
94.2705 532.00
94.3357 572.00
94.4009 728.00
94.4661 940.00
94.5313 870.00
94.5965 623.00
94.6617 634.00
94.7269 668.00
94.7921 782.00
94.8573 732.00
94.9225 602.00
94.9877 570.00
95.0529 594.00
95.1181 589.00
95.1833 574.00
95.2485 604.00
95.3137 658.00
95.3789 707.00
95.444 794.00
95.5092 774.00
95.5744 706.00
95.6396 709.00
95.7048 873.00
95.77 933.00
95.8352 914.00
95.9004 897.00
95.9656 828.00
96.0308 769.00
96.096 705.00
96.1612 714.00
96.2264 773.00
96.2916 675.00
96.3568 619.00
96.422 588.00
96.4872 592.00
96.5524 576.00
96.6176 595.00
96.6828 599.00
96.748 743.00
96.8132 954.00
96.8784 1009.00
96.9436 859.00
97.0088 728.00
97.074 816.00
97.1392 929.00
97.2044 1176.00
97.2696 1251.00
97.3348 1107.00
97.4 1002.00
97.4652 853.00
97.5304 969.00
97.5956 1131.00
97.6608 1208.00
97.726 1150.00
97.7912 957.00
97.8564 763.00
97.9216 701.00
97.9868 815.00
98.052 756.00
98.1172 745.00
98.1824 691.00
98.2476 634.00
98.3128 651.00
98.378 591.00
98.4432 644.00
98.5084 605.00
98.5736 646.00
98.6388 783.00
98.704 926.00
98.7692 904.00
98.8344 779.00
98.8996 711.00
98.9648 728.00
99.03 729.00
99.0952 775.00
99.1604 688.00
99.2256 661.00
99.2908 634.00
99.356 754.00
99.4212 813.00
99.4864 920.00
99.5516 873.00
99.6168 746.00
99.682 743.00
99.7472 761.00
99.8124 819.00
99.8776 890.00
99.9428 864.00
100.008 985.00
100.073 1201.00
100.095 1215.00