File: data/xrd_creation/results/PG_1845-1.xy
9.903433 2695.00
9.968632 2703.00
10.0338 2622.00
10.099 2628.00
10.1642 2526.00
10.2294 2433.00
10.2946 2528.00
10.3598 2431.00
10.425 2486.00
10.4902 2598.00
10.5554 2529.00
10.6206 2467.00
10.6858 2451.00
10.751 2345.00
10.8162 2367.00
10.8814 2466.00
10.9466 2324.00
11.0118 2240.00
11.077 2279.00
11.1422 2182.00
11.2074 2281.00
11.2726 2359.00
11.3378 2207.00
11.403 2242.00
11.4682 2225.00
11.5334 2159.00
11.5986 2148.00
11.6638 2232.00
11.729 2240.00
11.7942 2187.00
11.8594 2168.00
11.9246 2098.00
11.9898 2118.00
12.055 2109.00
12.1202 2069.00
12.1854 2085.00
12.2506 2056.00
12.3158 2033.00
12.381 2039.00
12.4462 1941.00
12.5114 2053.00
12.5766 2009.00
12.6418 1909.00
12.707 2067.00
12.7722 1979.00
12.8374 1984.00
12.9026 2020.00
12.9678 1975.00
13.033 2014.00
13.0982 1854.00
13.1634 1940.00
13.2286 1971.00
13.2938 1931.00
13.359 1907.00
13.4242 1937.00
13.4894 1935.00
13.5546 1898.00
13.6198 1865.00
13.685 1878.00
13.7502 1812.00
13.8154 1954.00
13.8805 1852.00
13.9457 1875.00
14.0109 1915.00
14.0761 1825.00
14.1413 1925.00
14.2065 1756.00
14.2717 1910.00
14.3369 1847.00
14.4021 1873.00
14.4673 1783.00
14.5325 1792.00
14.5977 1744.00
14.6629 1767.00
14.7281 1908.00
14.7933 1736.00
14.8585 1820.00
14.9237 1855.00
14.9889 1712.00
15.0541 1785.00
15.1193 1787.00
15.1845 1759.00
15.2497 1731.00
15.3149 1717.00
15.3801 1806.00
15.4453 1787.00
15.5105 1782.00
15.5757 1726.00
15.6409 1761.00
15.7061 1730.00
15.7713 1802.00
15.8365 1771.00
15.9017 1808.00
15.9669 1752.00
16.0321 1725.00
16.0973 1754.00
16.1625 1736.00
16.2277 1792.00
16.2929 1732.00
16.3581 1806.00
16.4233 1809.00
16.4885 1743.00
16.5537 1749.00
16.6189 1729.00
16.6841 1740.00
16.7493 1672.00
16.8145 1803.00
16.8797 1735.00
16.9449 1702.00
17.0101 1753.00
17.0753 1764.00
17.1405 1687.00
17.2057 1795.00
17.2709 1733.00
17.3361 1700.00
17.4013 1743.00
17.4665 1668.00
17.5317 1649.00
17.5969 1683.00
17.6621 1693.00
17.7273 1689.00
17.7925 1702.00
17.8577 1616.00
17.9229 1674.00
17.9881 1810.00
18.0533 1811.00
18.1185 1913.00
18.1837 2040.00
18.2489 2025.00
18.3141 2015.00
18.3793 1868.00
18.4445 1716.00
18.5097 1584.00
18.5749 1672.00
18.6401 1633.00
18.7052 1686.00
18.7704 1534.00
18.8356 1618.00
18.9008 1591.00
18.966 1594.00
19.0312 1523.00
19.0964 1560.00
19.1616 1503.00
19.2268 1598.00
19.292 1687.00
19.3572 1599.00
19.4224 1584.00
19.4876 1516.00
19.5528 1504.00
19.618 1521.00
19.6832 1607.00
19.7484 1478.00
19.8136 1588.00
19.8788 1534.00
19.944 1513.00
20.0092 1602.00
20.0744 1584.00
20.1396 1562.00
20.2048 1554.00
20.27 1530.00
20.3352 1538.00
20.4004 1584.00
20.4656 1590.00
20.5308 1644.00
20.596 1663.00
20.6612 1635.00
20.7264 1558.00
20.7916 1494.00
20.8568 1497.00
20.922 1476.00
20.9872 1461.00
21.0524 1443.00
21.1176 1467.00
21.1828 1433.00
21.248 1555.00
21.3132 1505.00
21.3784 1612.00
21.4436 1499.00
21.5088 1484.00
21.574 1456.00
21.6392 1544.00
21.7044 1536.00
21.7696 1620.00
21.8348 1589.00
21.9 1447.00
21.9652 1455.00
22.0304 1521.00
22.0956 1422.00
22.1608 1398.00
22.226 1379.00
22.2912 1387.00
22.3564 1425.00
22.4216 1497.00
22.4868 1470.00
22.552 1440.00
22.6172 1432.00
22.6824 1458.00
22.7476 1396.00
22.8128 1455.00
22.878 1415.00
22.9432 1447.00
23.0084 1436.00
23.0736 1332.00
23.1388 1522.00
23.204 1436.00
23.2692 1427.00
23.3344 1413.00
23.3996 1299.00
23.4647 1497.00
23.5299 1444.00
23.5951 1374.00
23.6603 1472.00
23.7255 1432.00
23.7907 1453.00
23.8559 1467.00
23.9211 1584.00
23.9863 1605.00
24.0515 1566.00
24.1167 1743.00
24.1819 1563.00
24.2471 1476.00
24.3123 1387.00
24.3775 1340.00
24.4427 1315.00
24.5079 1427.00
24.5731 1366.00
24.6383 1430.00
24.7035 1419.00
24.7687 1402.00
24.8339 1382.00
24.8991 1403.00
24.9643 1458.00
25.0295 1463.00
25.0947 1586.00
25.1599 1851.00
25.2251 2183.00
25.2903 3093.00
25.3555 4802.00
25.4207 6793.00
25.4859 6252.00
25.5511 3479.00
25.6163 1864.00
25.6815 1671.00
25.7467 1669.00
25.8119 1698.00
25.8771 2018.00
25.9423 2461.00
26.0075 3248.00
26.0727 4292.00
26.1379 3516.00
26.2031 2121.00
26.2683 1454.00
26.3335 1410.00
26.3987 1436.00
26.4639 1417.00
26.5291 1318.00
26.5943 1343.00
26.6595 1288.00
26.7247 1309.00
26.7899 1279.00
26.8551 1253.00
26.9203 1285.00
26.9855 1335.00
27.0507 1237.00
27.1159 1276.00
27.1811 1243.00
27.2463 1328.00
27.3115 1290.00
27.3767 1213.00
27.4419 1275.00
27.5071 1213.00
27.5723 1278.00
27.6375 1295.00
27.7027 1331.00
27.7679 1359.00
27.8331 1299.00
27.8983 1257.00
27.9635 1298.00
28.0287 1343.00
28.0939 1240.00
28.1591 1233.00
28.2243 1227.00
28.2894 1213.00
28.3546 1250.00
28.4198 1295.00
28.485 1327.00
28.5502 1496.00
28.6154 1725.00
28.6806 1641.00
28.7458 1471.00
28.811 1338.00
28.8762 1359.00
28.9414 1231.00
29.0066 1236.00
29.0718 1281.00
29.137 1180.00
29.2022 1225.00
29.2674 1283.00
29.3326 1122.00
29.3978 1212.00
29.463 1259.00
29.5282 1301.00
29.5934 1320.00
29.6586 1364.00
29.7238 1498.00
29.789 1680.00
29.8542 1876.00
29.9194 1962.00
29.9846 1611.00
30.0498 1506.00
30.115 1501.00
30.1802 1438.00
30.2454 1314.00
30.3106 1343.00
30.3758 1224.00
30.441 1344.00
30.5062 1282.00
30.5714 1386.00
30.6366 1500.00
30.7018 1721.00
30.767 2320.00
30.8322 3232.00
30.8974 3177.00
30.9626 2375.00
31.0278 1653.00
31.093 1551.00
31.1582 1753.00
31.2234 2137.00
31.2886 2814.00
31.3538 3732.00
31.419 3920.00
31.4842 3730.00
31.5494 4091.00
31.6146 5664.00
31.6798 6553.00
31.745 5444.00
31.8102 3479.00
31.8754 2062.00
31.9406 1624.00
32.0058 1388.00
32.071 1349.00
32.1362 1262.00
32.2014 1291.00
32.2666 1262.00
32.3318 1278.00
32.397 1271.00
32.4622 1304.00
32.5274 1329.00
32.5926 1445.00
32.6578 1511.00
32.723 1663.00
32.7882 1743.00
32.8534 1800.00
32.9186 2454.00
32.9838 3654.00
33.0489 5362.00
33.1141 6045.00
33.1793 4958.00
33.2445 3368.00
33.3097 2152.00
33.3749 1635.00
33.4401 1447.00
33.5053 1381.00
33.5705 1272.00
33.6357 1223.00
33.7009 1256.00
33.7661 1232.00
33.8313 1215.00
33.8965 1127.00
33.9617 1287.00
34.0269 1243.00
34.0921 1266.00
34.1573 1233.00
34.2225 1272.00
34.2877 1140.00
34.3529 1145.00
34.4181 1186.00
34.4833 1213.00
34.5485 1246.00
34.6137 1237.00
34.6789 1387.00
34.7441 1485.00
34.8093 1529.00
34.8745 1332.00
34.9397 1320.00
35.0049 1193.00
35.0701 1170.00
35.1353 1219.00
35.2005 1316.00
35.2657 1474.00
35.3309 1860.00
35.3961 2093.00
35.4613 1926.00
35.5265 1677.00
35.5917 1505.00
35.6569 1681.00
35.7221 1924.00
35.7873 1749.00
35.8525 1489.00
35.9177 1235.00
35.9829 1222.00
36.0481 1248.00
36.1133 1247.00
36.1785 1281.00
36.2437 1387.00
36.3089 1766.00
36.3741 2172.00
36.4393 2780.00
36.5045 2620.00
36.5697 2032.00
36.6349 1794.00
36.7001 2237.00
36.7653 3077.00
36.8305 3327.00
36.8957 2908.00
36.9609 2132.00
37.0261 1608.00
37.0913 1335.00
37.1565 1249.00
37.2217 1192.00
37.2869 1184.00
37.3521 1235.00
37.4173 1387.00
37.4825 1782.00
37.5477 2056.00
37.6129 2001.00
37.6781 1665.00
37.7433 1242.00
37.8085 1195.00
37.8736 1160.00
37.9388 1261.00
38.004 1181.00
38.0692 1131.00
38.1344 1092.00
38.1996 1031.00
38.2648 1082.00
38.33 1071.00
38.3952 1075.00
38.4604 1040.00
38.5256 1023.00
38.5908 1105.00
38.656 1096.00
38.7212 1022.00
38.7864 1066.00
38.8516 1064.00
38.9168 1043.00
38.982 1021.00
39.0472 1007.00
39.1124 1125.00
39.1776 1067.00
39.2428 1063.00
39.308 1035.00
39.3732 1074.00
39.4384 1052.00
39.5036 1049.00
39.5688 1086.00
39.634 1068.00
39.6992 1062.00
39.7644 1174.00
39.8296 1284.00
39.8948 1370.00
39.96 1603.00
40.0252 1599.00
40.0904 1635.00
40.1556 1563.00
40.2208 1311.00
40.286 1152.00
40.3512 1068.00
40.4164 1080.00
40.4816 1083.00
40.5468 1076.00
40.612 1101.00
40.6772 1083.00
40.7424 1095.00
40.8076 1064.00
40.8728 1034.00
40.938 1090.00
41.0032 1108.00
41.0684 1044.00
41.1336 1022.00
41.1988 1036.00
41.264 1079.00
41.3292 1012.00
41.3944 1128.00
41.4596 1297.00
41.5248 1457.00
41.59 1741.00
41.6552 1582.00
41.7204 1501.00
41.7856 1140.00
41.8508 1095.00
41.916 1047.00
41.9812 1056.00
42.0464 1163.00
42.1116 1247.00
42.1768 1168.00
42.242 1105.00
42.3072 1080.00
42.3724 1171.00
42.4376 1125.00
42.5028 1070.00
42.568 1018.00
42.6332 1031.00
42.6983 1119.00
42.7635 1133.00
42.8287 1065.00
42.8939 1109.00
42.9591 1106.00
43.0243 1267.00
43.0895 1405.00
43.1547 1599.00
43.2199 1504.00
43.2851 1474.00
43.3503 1248.00
43.4155 1115.00
43.4807 1019.00
43.5459 1031.00
43.6111 1141.00
43.6763 1070.00
43.7415 1037.00
43.8067 1020.00
43.8719 1014.00
43.9371 1015.00
44.0023 1137.00
44.0675 1232.00
44.1327 1330.00
44.1979 1647.00
44.2631 2507.00
44.3283 3655.00
44.3935 3545.00
44.4587 2670.00
44.5239 1865.00
44.5891 1273.00
44.6543 1199.00
44.7195 1136.00
44.7847 1136.00
44.8499 1086.00
44.9151 1001.00
44.9803 1003.00
45.0455 957.00
45.1107 1070.00
45.1759 1049.00
45.2411 1041.00
45.3063 1070.00
45.3715 1032.00
45.4367 1041.00
45.5019 1020.00
45.5671 1154.00
45.6323 1194.00
45.6975 1260.00
45.7627 1503.00
45.8279 2062.00
45.8931 2747.00
45.9583 2713.00
46.0235 2834.00
46.0887 2909.00
46.1539 3075.00
46.2191 2820.00
46.2843 2443.00
46.3495 2191.00
46.4147 2328.00
46.4799 2185.00
46.5451 1930.00
46.6103 1673.00
46.6755 1444.00
46.7407 1739.00
46.8059 1997.00
46.8711 2009.00
46.9363 1688.00
47.0015 1483.00
47.0667 1464.00
47.1319 1469.00
47.1971 1422.00
47.2623 1314.00
47.3275 1255.00
47.3927 1104.00
47.4579 1087.00
47.523 1087.00
47.5882 1090.00
47.6534 1161.00
47.7186 1252.00
47.7838 1413.00
47.849 1779.00
47.9142 2413.00
47.9794 2544.00
48.0446 2141.00
48.1098 1730.00
48.175 1349.00
48.2402 1100.00
48.3054 1114.00
48.3706 1010.00
48.4358 1129.00
48.501 1085.00
48.5662 1164.00
48.6314 1224.00
48.6966 1254.00
48.7618 1111.00
48.827 1085.00
48.8922 1077.00
48.9574 1064.00
49.0226 1031.00
49.0878 1093.00
49.153 1168.00
49.2182 1226.00
49.2834 1187.00
49.3486 1139.00
49.4138 1102.00
49.479 1134.00
49.5442 1122.00
49.6094 1095.00
49.6746 1105.00
49.7398 1069.00
49.805 1100.00
49.8702 1080.00
49.9354 1199.00
50.0006 1379.00
50.0658 1699.00
50.131 2198.00
50.1962 2348.00
50.2614 1860.00
50.3266 1745.00
50.3918 1442.00
50.457 1480.00
50.5222 1698.00
50.5874 1491.00
50.6526 1379.00
50.7178 1232.00
50.783 1115.00
50.8482 1173.00
50.9134 1150.00
50.9786 1191.00
51.0438 1135.00
51.109 1217.00
51.1742 1404.00
51.2394 1764.00
51.3046 1989.00
51.3698 1837.00
51.435 1794.00
51.5002 1488.00
51.5654 1284.00
51.6306 1158.00
51.6958 1124.00
51.761 1167.00
51.8262 1189.00
51.8914 1233.00
51.9566 1239.00
52.0218 1150.00
52.087 1164.00
52.1522 1058.00
52.2174 1103.00
52.2826 1053.00
52.3477 1147.00
52.4129 1091.00
52.4781 1114.00
52.5433 1090.00
52.6085 1022.00
52.6737 975.00
52.7389 941.00
52.8041 995.00
52.8693 1002.00
52.9345 1056.00
52.9997 1038.00
53.0649 1015.00
53.1301 1032.00
53.1953 1018.00
53.2605 1043.00
53.3257 1162.00
53.3909 1020.00
53.4561 1022.00
53.5213 1039.00
53.5865 1015.00
53.6517 992.00
53.7169 977.00
53.7821 1001.00
53.8473 1001.00
53.9125 979.00
53.9777 987.00
54.0429 1013.00
54.1081 989.00
54.1733 951.00
54.2385 937.00
54.3037 964.00
54.3689 953.00
54.4341 960.00
54.4993 999.00
54.5645 980.00
54.6297 954.00
54.6949 953.00
54.7601 968.00
54.8253 991.00
54.8905 970.00
54.9557 973.00
55.0209 960.00
55.0861 1033.00
55.1513 1104.00
55.2165 1173.00
55.2817 1150.00
55.3469 1110.00
55.4121 1132.00
55.4773 1098.00
55.5425 1124.00
55.6077 1194.00
55.6729 1346.00
55.7381 1549.00
55.8033 1593.00
55.8685 1468.00
55.9337 1469.00
55.9989 1254.00
56.0641 1296.00
56.1293 1366.00
56.1945 1353.00
56.2597 1600.00
56.3249 1751.00
56.3901 1830.00
56.4553 1993.00
56.5205 2286.00
56.5857 2298.00
56.6509 2388.00
56.7161 2283.00
56.7813 2057.00
56.8465 2138.00
56.9117 2239.00
56.9769 2578.00
57.042 2351.00
57.1073 2403.00
57.1724 2309.00
57.2376 1902.00
57.3028 1674.00
57.368 1554.00
57.4332 1618.00
57.4984 1637.00
57.5636 1418.00
57.6288 1266.00
57.694 1272.00
57.7592 1120.00
57.8244 1124.00
57.8896 1115.00
57.9548 1012.00
58.02 1081.00
58.0852 1060.00
58.1504 983.00
58.2156 1021.00
58.2808 989.00
58.346 994.00
58.4112 1007.00
58.4764 996.00
58.5416 1002.00
58.6068 974.00
58.672 963.00
58.7372 1032.00
58.8024 998.00
58.8676 1096.00
58.9328 1180.00
58.998 1248.00
59.0632 1588.00
59.1284 1772.00
59.1936 1611.00
59.2588 1558.00
59.324 1393.00
59.3892 1281.00
59.4544 1144.00
59.5196 1061.00
59.5848 1086.00
59.65 1038.00
59.7152 1136.00
59.7804 1050.00
59.8456 1117.00
59.9108 1160.00
59.976 1276.00
60.0412 1472.00
60.1064 1468.00
60.1716 1439.00
60.2368 1286.00
60.302 1097.00
60.3672 1044.00
60.4324 1042.00
60.4976 1033.00
60.5628 1010.00
60.628 1042.00
60.6932 1074.00
60.7584 1221.00
60.8236 1360.00
60.8888 1483.00
60.954 1384.00
61.0192 1265.00
61.0844 1343.00
61.1496 1040.00
61.2148 984.00
61.28 958.00
61.3452 1017.00
61.4104 1018.00
61.4756 1058.00
61.5408 1061.00
61.606 1091.00
61.6712 1095.00
61.7364 1121.00
61.8016 1130.00
61.8667 1038.00
61.932 986.00
61.9971 1036.00
62.0623 980.00
62.1275 1024.00
62.1927 1047.00
62.2579 1086.00
62.3231 1062.00
62.3883 1123.00
62.4535 1173.00
62.5187 1088.00
62.5839 1099.00
62.6491 1086.00
62.7143 1042.00
62.7795 1052.00
62.8447 1041.00
62.9099 1025.00
62.9751 1203.00
63.0403 1180.00
63.1055 1135.00
63.1707 1070.00
63.2359 1045.00
63.3011 1017.00
63.3663 1036.00
63.4315 1029.00
63.4967 966.00
63.5619 1059.00
63.6271 1085.00
63.6923 1042.00
63.7575 1087.00
63.8227 1195.00
63.8879 1203.00
63.9531 1270.00
64.0183 1241.00
64.0835 1288.00
64.1487 1429.00
64.2139 1362.00
64.2791 1361.00
64.3443 1264.00
64.4095 1199.00
64.4747 1082.00
64.5399 1127.00
64.6051 1079.00
64.6703 1052.00
64.7355 952.00
64.8007 992.00
64.8659 1043.00
64.9311 973.00
64.9963 991.00
65.0615 1062.00
65.1267 1083.00
65.1919 1055.00
65.2571 1164.00
65.3223 1114.00
65.3875 1207.00
65.4527 1298.00
65.5179 1272.00
65.5831 1399.00
65.6483 1578.00
65.7135 1811.00
65.7787 1984.00
65.8439 2031.00
65.9091 2235.00
65.9743 2313.00
66.0395 2404.00
66.1047 2436.00
66.1699 2368.00
66.2351 1939.00
66.3003 1910.00
66.3655 1655.00
66.4307 1381.00
66.4959 1222.00
66.561 1168.00
66.6263 1117.00
66.6915 1182.00
66.7566 1142.00
66.8218 1205.00
66.887 1136.00
66.9522 1118.00
67.0174 1124.00
67.0826 1015.00
67.1478 980.00
67.213 1031.00
67.2782 948.00
67.3434 970.00
67.4086 994.00
67.4738 945.00
67.539 880.00
67.6042 1008.00
67.6694 1002.00
67.7346 997.00
67.7998 995.00
67.865 1044.00
67.9302 913.00
67.9954 962.00
68.0606 921.00
68.1258 1081.00
68.191 1011.00
68.2562 1067.00
68.3214 1112.00
68.3866 1093.00
68.4518 1116.00
68.517 1144.00
68.5822 1157.00
68.6474 1114.00
68.7126 1121.00
68.7778 1104.00
68.843 1092.00
68.9082 1105.00
68.9734 1034.00
69.0386 1011.00
69.1038 1053.00
69.169 956.00
69.2342 1008.00
69.2994 1001.00
69.3646 977.00
69.4298 926.00
69.495 1019.00
69.5602 969.00
69.6254 940.00
69.6906 926.00
69.7558 935.00
69.821 956.00
69.8862 934.00
69.9514 864.00
70.0166 1026.00
70.0818 958.00
70.147 920.00
70.2122 866.00
70.2774 942.00
70.3426 1016.00
70.4078 959.00
70.473 1056.00
70.5382 979.00
70.6034 970.00
70.6686 955.00
70.7338 1034.00
70.799 956.00
70.8642 985.00
70.9294 943.00
70.9946 911.00
71.0598 984.00
71.125 996.00
71.1902 943.00
71.2554 955.00
71.3205 1013.00
71.3858 965.00
71.451 971.00
71.5162 1035.00
71.5813 984.00
71.6465 969.00
71.7117 1034.00
71.7769 1025.00
71.8421 1022.00
71.9073 1042.00
71.9725 1066.00
72.0377 1092.00
72.1029 1183.00
72.1681 1381.00
72.2333 1384.00
72.2985 1311.00
72.3637 1252.00
72.4289 1295.00
72.4941 1206.00
72.5593 1205.00
72.6245 1215.00
72.6897 1143.00
72.7549 1157.00
72.8201 1097.00
72.8853 1133.00
72.9505 1177.00
73.0157 1141.00
73.0809 1092.00
73.1461 1016.00
73.2113 1028.00
73.2765 1039.00
73.3417 983.00
73.4069 1037.00
73.4721 988.00
73.5373 995.00
73.6025 1061.00
73.6677 1153.00
73.7329 1154.00
73.7981 1348.00
73.8633 1606.00
73.9285 1648.00
73.9937 1590.00
74.0589 1501.00
74.1241 1368.00
74.1893 1268.00
74.2545 1189.00
74.3197 1159.00
74.3849 1170.00
74.4501 1263.00
74.5153 1171.00
74.5805 1140.00
74.6457 1180.00
74.7109 1183.00
74.7761 1184.00
74.8413 1246.00
74.9065 1250.00
74.9717 1213.00
75.0369 1148.00
75.1021 1238.00
75.1673 1234.00
75.2325 1405.00
75.2977 1432.00
75.3629 1441.00
75.4281 1417.00
75.4933 1427.00
75.5585 1375.00
75.6237 1377.00
75.6889 1327.00
75.7541 1287.00
75.8193 1230.00
75.8845 1137.00
75.9497 1087.00
76.0149 1063.00
76.0801 1110.00
76.1452 1242.00
76.2104 1263.00
76.2756 1265.00
76.3409 1133.00
76.406 1127.00
76.4712 1181.00
76.5364 1157.00
76.6016 1090.00
76.6668 1022.00
76.732 1094.00
76.7972 1115.00
76.8624 1024.00
76.9276 1016.00
76.9928 1056.00
77.058 1004.00
77.1232 999.00
77.1884 974.00
77.2536 1057.00
77.3188 1053.00
77.384 1120.00
77.4492 1119.00
77.5144 1055.00
77.5796 1151.00
77.6448 1129.00
77.71 1215.00
77.7752 1283.00
77.8404 1310.00
77.9056 1286.00
77.9708 1277.00
78.036 1254.00
78.1012 1190.00
78.1664 1089.00
78.2316 1113.00
78.2968 1109.00
78.362 1093.00
78.4272 1004.00
78.4924 1017.00
78.5576 1002.00
78.6228 976.00
78.688 969.00
78.7532 948.00
78.8184 1001.00
78.8836 1010.00
78.9488 900.00
79.014 1000.00
79.0792 904.00
79.1444 955.00
79.2096 930.00
79.2748 976.00
79.34 987.00
79.4052 1028.00
79.4704 1032.00
79.5356 982.00
79.6008 1081.00
79.666 1161.00
79.7312 1144.00
79.7964 1162.00
79.8616 1036.00
79.9268 1153.00
79.992 1055.00
80.0572 1053.00
80.1224 1033.00
80.1876 1092.00
80.2528 1178.00
80.318 1137.00
80.3832 1097.00
80.4484 1060.00
80.5136 1107.00
80.5788 1126.00
80.644 1039.00
80.7092 960.00
80.7744 981.00
80.8396 999.00
80.9048 981.00
80.9699 1023.00
81.0351 1002.00
81.1003 1043.00
81.1655 1048.00
81.2307 998.00
81.2959 966.00
81.3611 941.00
81.4263 996.00
81.4915 931.00
81.5567 955.00
81.6219 1031.00
81.6871 1005.00
81.7523 942.00
81.8175 1096.00
81.8827 1078.00
81.9479 1161.00
82.0131 1190.00
82.0783 1185.00
82.1435 1215.00
82.2087 1322.00
82.2739 1312.00
82.3391 1191.00
82.4043 1184.00
82.4695 1164.00
82.5347 1095.00
82.5999 1051.00
82.6651 992.00
82.7303 1055.00
82.7955 968.00
82.8607 993.00
82.9259 1069.00
82.9911 1140.00
83.0563 1149.00
83.1215 1281.00
83.1867 1418.00
83.2519 1586.00
83.3171 1644.00
83.3823 1663.00
83.4475 1611.00
83.5127 1562.00
83.5779 1469.00
83.6431 1544.00
83.7083 1433.00
83.7735 1369.00
83.8387 1283.00
83.9039 1199.00
83.9691 1200.00
84.0343 1142.00
84.0995 1130.00
84.1647 1133.00
84.2299 1163.00
84.2951 1135.00
84.3603 1223.00
84.4255 1228.00
84.4907 1180.00
84.5559 1150.00
84.6211 1155.00
84.6863 1028.00
84.7515 1092.00
84.8167 1081.00
84.8819 986.00
84.9471 967.00
85.0123 964.00
85.0775 958.00
85.1427 1027.00
85.2079 997.00
85.2731 1015.00
85.3383 1048.00
85.4035 1083.00
85.4687 1086.00
85.5339 1025.00
85.5991 1090.00
85.6643 1087.00
85.7295 1090.00
85.7946 1028.00
85.8598 1090.00
85.925 1079.00
85.9903 1044.00
86.0554 1101.00
86.1206 1125.00
86.1858 967.00
86.251 1045.00
86.3162 1031.00
86.3814 988.00
86.4466 1007.00
86.5118 1011.00
86.577 934.00
86.6422 931.00
86.7074 931.00
86.7726 996.00
86.8378 996.00
86.903 967.00
86.9682 976.00
87.0334 1005.00
87.0986 1108.00
87.1638 1089.00
87.229 1135.00
87.2942 1069.00
87.3594 1061.00
87.4246 1110.00
87.4898 1030.00
87.555 1068.00
87.6202 1027.00
87.6854 1010.00
87.7506 1005.00
87.8158 1010.00
87.881 1004.00
87.9462 990.00
88.0114 1055.00
88.0766 1017.00
88.1418 990.00
88.207 1032.00
88.2722 1033.00
88.3374 961.00
88.4026 1023.00
88.4678 1003.00
88.533 1051.00
88.5982 1013.00
88.6634 1042.00
88.7286 997.00
88.7938 975.00
88.859 963.00
88.9242 988.00
88.9894 958.00
89.0546 969.00
89.1198 902.00
89.185 968.00
89.2502 995.00
89.3154 982.00
89.3806 969.00
89.4458 968.00
89.511 1079.00
89.5762 984.00
89.6414 991.00
89.7066 987.00
89.7718 1035.00
89.837 1040.00
89.9022 1053.00
89.9674 1029.00
90.0326 1150.00
90.0978 1095.00
90.163 1055.00
90.2282 1029.00
90.2934 1081.00
90.3586 1043.00
90.4238 1047.00
90.489 981.00
90.5542 980.00
90.6193 1018.00
90.6845 1026.00
90.7497 1073.00
90.8149 989.00
90.8801 1029.00
90.9453 1024.00
91.0105 1117.00
91.0757 1073.00
91.1409 1102.00
91.2061 1113.00
91.2713 1074.00
91.3365 1153.00
91.4017 1113.00
91.4669 1198.00
91.5321 1148.00
91.5973 1115.00
91.6625 1215.00
91.7277 1297.00
91.7929 1436.00
91.8581 1637.00
91.9233 1676.00
91.9885 1539.00
92.0537 1570.00
92.1189 1528.00
92.1841 1445.00
92.2493 1465.00
92.3145 1457.00
92.3797 1344.00
92.4449 1295.00
92.5101 1241.00
92.5753 1190.00
92.6405 1160.00
92.7057 1125.00
92.7709 1145.00
92.8361 1136.00
92.9013 1104.00
92.9665 1142.00
93.0317 1236.00
93.0969 1165.00
93.1621 1180.00
93.2273 1134.00
93.2925 1151.00
93.3577 1141.00
93.4229 1130.00
93.4881 1101.00
93.5533 1118.00
93.6185 1081.00
93.6837 1045.00
93.7489 1087.00
93.8141 1174.00
93.8793 1101.00
93.9445 1192.00
94.0097 1133.00
94.0749 1068.00
94.1401 1087.00
94.2053 1086.00
94.2705 1097.00
94.3357 1101.00
94.4009 995.00
94.4661 1038.00
94.5313 1020.00
94.5965 1008.00
94.6617 1063.00
94.7269 1040.00
94.7921 1226.00
94.8573 1174.00
94.9225 1232.00
94.9877 1236.00
95.0529 1179.00
95.1181 1191.00
95.1833 1220.00
95.2485 1237.00
95.3137 1299.00
95.3789 1190.00
95.444 1172.00
95.5092 1087.00
95.5744 1154.00
95.6396 1152.00
95.7048 1073.00
95.77 1044.00
95.8352 1034.00
95.9004 998.00
95.9656 1074.00
96.0308 976.00
96.096 1104.00
96.1612 1033.00
96.2264 989.00
96.2916 1105.00
96.3568 1072.00
96.422 1081.00
96.4872 1026.00
96.5524 1127.00
96.6176 1146.00
96.6828 1054.00
96.748 1021.00
96.8132 1057.00
96.8784 1035.00
96.9436 1085.00
97.0088 1008.00
97.074 1046.00
97.1392 1103.00
97.2044 1115.00
97.2696 1127.00
97.3348 1170.00
97.4 1134.00
97.4652 1168.00
97.5304 1165.00
97.5956 1159.00
97.6608 1091.00
97.726 1033.00
97.7912 1067.00
97.8564 1024.00
97.9216 1066.00
97.9868 1080.00
98.052 1107.00
98.1172 989.00
98.1824 1037.00
98.2476 1063.00
98.3128 1123.00
98.378 1017.00
98.4432 1056.00
98.5084 1059.00
98.5736 1088.00
98.6388 1096.00
98.704 978.00
98.7692 1034.00
98.8344 1026.00
98.8996 1091.00
98.9648 994.00
99.03 1048.00
99.0952 1038.00
99.1604 1008.00
99.2256 1043.00
99.2908 1136.00
99.356 1178.00
99.4212 1137.00
99.4864 1103.00
99.5516 1016.00
99.6168 997.00
99.682 1126.00
99.7472 1044.00
99.8124 1037.00
99.8776 974.00
99.9428 1056.00
100.008 952.00
100.073 979.00
100.095 989.00