File: data/xrd_creation/results/PG_1520-1.xy
10.0094 2256.00
10.0746 2335.00
10.1398 2327.00
10.205 2257.00
10.2702 2168.00
10.3354 2279.00
10.4006 2229.00
10.4658 2173.00
10.531 2112.00
10.5962 2083.00
10.6614 2094.00
10.7266 2086.00
10.7918 2082.00
10.857 1932.00
10.9222 1944.00
10.9874 2029.00
11.0526 2008.00
11.1178 1971.00
11.183 1976.00
11.2482 1904.00
11.3134 1953.00
11.3786 1890.00
11.4438 1858.00
11.509 1874.00
11.5742 1833.00
11.6394 1857.00
11.7046 1845.00
11.7698 1885.00
11.835 1853.00
11.9002 1770.00
11.9654 1756.00
12.0306 1765.00
12.0958 1669.00
12.161 1739.00
12.2262 1750.00
12.2914 1612.00
12.3566 1650.00
12.4218 1663.00
12.487 1560.00
12.5522 1665.00
12.6174 1605.00
12.6826 1632.00
12.7478 1683.00
12.813 1579.00
12.8782 1557.00
12.9434 1602.00
13.0086 1579.00
13.0738 1594.00
13.139 1553.00
13.2042 1567.00
13.2694 1482.00
13.3346 1563.00
13.3998 1512.00
13.465 1518.00
13.5302 1472.00
13.5954 1489.00
13.6606 1484.00
13.7258 1502.00
13.791 1512.00
13.8562 1421.00
13.9214 1478.00
13.9865 1480.00
14.0517 1496.00
14.1169 1448.00
14.1821 1524.00
14.2473 1464.00
14.3125 1513.00
14.3777 1382.00
14.4429 1444.00
14.5081 1437.00
14.5733 1419.00
14.6385 1401.00
14.7037 1309.00
14.7689 1379.00
14.8341 1459.00
14.8993 1451.00
14.9645 1404.00
15.0297 1336.00
15.0949 1401.00
15.1601 1314.00
15.2253 1290.00
15.2905 1340.00
15.3557 1338.00
15.4209 1339.00
15.4861 1376.00
15.5513 1331.00
15.6165 1351.00
15.6817 1360.00
15.7469 1334.00
15.8121 1412.00
15.8773 1383.00
15.9425 1393.00
16.0077 1436.00
16.0729 1393.00
16.1381 1351.00
16.2033 1304.00
16.2685 1396.00
16.3337 1358.00
16.3989 1302.00
16.4641 1330.00
16.5293 1251.00
16.5945 1296.00
16.6597 1191.00
16.7249 1280.00
16.7901 1266.00
16.8553 1265.00
16.9205 1241.00
16.9857 1221.00
17.0509 1253.00
17.1161 1208.00
17.1813 1293.00
17.2465 1386.00
17.3117 1382.00
17.3769 1525.00
17.4421 1678.00
17.5073 1895.00
17.5725 2307.00
17.6377 2893.00
17.7029 3001.00
17.7681 1798.00
17.8333 1204.00
17.8985 1281.00
17.9637 1217.00
18.0289 1202.00
18.0941 1201.00
18.1593 1107.00
18.2245 1140.00
18.2897 1198.00
18.3549 1068.00
18.4201 1089.00
18.4853 1176.00
18.5505 1140.00
18.6157 1070.00
18.6809 1162.00
18.7461 1162.00
18.8112 1212.00
18.8764 1282.00
18.9416 1254.00
19.0068 1343.00
19.072 1441.00
19.1372 1499.00
19.2024 1473.00
19.2676 1419.00
19.3328 1172.00
19.398 1137.00
19.4632 1129.00
19.5284 1123.00
19.5936 1138.00
19.6588 1110.00
19.724 1098.00
19.7892 977.00
19.8544 1034.00
19.9196 1074.00
19.9848 998.00
20.05 1020.00
20.1152 1113.00
20.1804 954.00
20.2456 944.00
20.3108 1045.00
20.376 1027.00
20.4412 954.00
20.5064 1003.00
20.5716 971.00
20.6368 1003.00
20.702 1006.00
20.7672 997.00
20.8324 987.00
20.8976 932.00
20.9628 982.00
21.028 968.00
21.0932 926.00
21.1584 947.00
21.2236 929.00
21.2888 929.00
21.354 933.00
21.4192 947.00
21.4844 948.00
21.5496 918.00
21.6148 918.00
21.68 1005.00
21.7452 977.00
21.8104 974.00
21.8756 948.00
21.9408 935.00
22.006 925.00
22.0712 959.00
22.1364 892.00
22.2016 854.00
22.2668 920.00
22.332 903.00
22.3972 898.00
22.4624 924.00
22.5276 892.00
22.5928 903.00
22.658 841.00
22.7232 931.00
22.7884 933.00
22.8536 887.00
22.9188 859.00
22.984 895.00
23.0492 770.00
23.1144 907.00
23.1796 881.00
23.2448 883.00
23.31 874.00
23.3752 941.00
23.4404 974.00
23.5056 989.00
23.5708 1019.00
23.6359 1084.00
23.7011 1262.00
23.7663 1532.00
23.8315 2139.00
23.8967 2964.00
23.9619 4837.00
24.0271 8024.00
24.0923 13143.00
24.1575 14837.00
24.2227 5975.00
24.2879 1707.00
24.3531 1271.00
24.4183 1177.00
24.4835 1110.00
24.5487 1099.00
24.6139 1036.00
24.6791 992.00
24.7443 910.00
24.8095 855.00
24.8747 882.00
24.9399 851.00
25.0051 848.00
25.0703 920.00
25.1355 859.00
25.2007 853.00
25.2659 847.00
25.3311 800.00
25.3963 835.00
25.4615 778.00
25.5267 812.00
25.5919 824.00
25.6571 783.00
25.7223 808.00
25.7875 873.00
25.8527 814.00
25.9179 783.00
25.9831 797.00
26.0483 736.00
26.1135 760.00
26.1787 798.00
26.2439 774.00
26.3091 758.00
26.3743 765.00
26.4395 769.00
26.5047 792.00
26.5699 761.00
26.6351 750.00
26.7003 752.00
26.7655 779.00
26.8307 708.00
26.8959 814.00
26.9611 756.00
27.0263 699.00
27.0915 787.00
27.1567 732.00
27.2219 663.00
27.2871 790.00
27.3523 790.00
27.4175 678.00
27.4827 706.00
27.5479 742.00
27.6131 746.00
27.6783 713.00
27.7435 781.00
27.8087 774.00
27.8739 745.00
27.9391 758.00
28.0043 723.00
28.0695 763.00
28.1347 705.00
28.1999 680.00
28.2651 723.00
28.3303 710.00
28.3955 733.00
28.4606 774.00
28.5258 695.00
28.591 694.00
28.6562 757.00
28.7214 732.00
28.7866 709.00
28.8518 785.00
28.917 720.00
28.9822 761.00
29.0474 774.00
29.1126 756.00
29.1778 715.00
29.243 757.00
29.3082 729.00
29.3734 786.00
29.4386 810.00
29.5038 860.00
29.569 831.00
29.6342 942.00
29.6994 1099.00
29.7646 1333.00
29.8298 1741.00
29.895 2489.00
29.9602 3299.00
30.0254 2517.00
30.0906 2042.00
30.1558 2119.00
30.221 2609.00
30.2862 3045.00
30.3514 3489.00
30.4166 3401.00
30.4818 3193.00
30.547 3585.00
30.6122 3998.00
30.6774 4610.00
30.7426 5028.00
30.8078 5930.00
30.873 8125.00
30.9382 13380.00
31.0034 16367.00
31.0686 8325.00
31.1338 2799.00
31.199 1669.00
31.2642 1507.00
31.3294 1498.00
31.3946 1369.00
31.4598 1377.00
31.525 1445.00
31.5902 1599.00
31.6554 1885.00
31.7206 2348.00
31.7858 3009.00
31.851 3861.00
31.9162 4706.00
31.9814 4854.00
32.0466 4058.00
32.1118 3073.00
32.177 2293.00
32.2422 1884.00
32.3074 1487.00
32.3726 1291.00
32.4378 1168.00
32.503 1043.00
32.5682 994.00
32.6334 915.00
32.6986 891.00
32.7638 833.00
32.829 867.00
32.8942 806.00
32.9594 820.00
33.0246 836.00
33.0898 805.00
33.1549 817.00
33.2201 879.00
33.2853 895.00
33.3505 1031.00
33.4157 1025.00
33.4809 1142.00
33.5461 1310.00
33.6113 1414.00
33.6765 1643.00
33.7417 1621.00
33.8069 1566.00
33.8721 1429.00
33.9373 1263.00
34.0025 1235.00
34.0677 1580.00
34.1329 2086.00
34.1981 3348.00
34.2633 4558.00
34.3285 2917.00
34.3937 1640.00
34.4589 999.00
34.5241 916.00
34.5893 923.00
34.6545 847.00
34.7197 868.00
34.7849 927.00
34.8501 960.00
34.9153 993.00
34.9805 1055.00
35.0457 1258.00
35.1109 1527.00
35.1761 1944.00
35.2413 2659.00
35.3065 3854.00
35.3717 5280.00
35.4369 6437.00
35.5021 6453.00
35.5673 4825.00
35.6325 3126.00
35.6977 2137.00
35.7629 1615.00
35.8281 1289.00
35.8933 1163.00
35.9585 1059.00
36.0237 951.00
36.0889 805.00
36.1541 788.00
36.2193 757.00
36.2845 746.00
36.3497 739.00
36.4149 718.00
36.4801 750.00
36.5453 671.00
36.6105 734.00
36.6757 653.00
36.7409 765.00
36.8061 750.00
36.8713 780.00
36.9365 756.00
37.0017 791.00
37.0669 803.00
37.1321 904.00
37.1973 865.00
37.2625 1049.00
37.3277 1180.00
37.3929 1322.00
37.4581 1590.00
37.5233 1845.00
37.5885 2053.00
37.6537 2072.00
37.7189 1982.00
37.7841 1518.00
37.8493 1390.00
37.9145 1199.00
37.9796 1046.00
38.0448 1105.00
38.11 1118.00
38.1752 1163.00
38.2404 1358.00
38.3056 1617.00
38.3708 2138.00
38.436 2592.00
38.5012 2838.00
38.5664 3392.00
38.6316 4236.00
38.6968 4786.00
38.762 3404.00
38.8272 2353.00
38.8924 1556.00
38.9576 1203.00
39.0228 1102.00
39.088 970.00
39.1532 828.00
39.2184 765.00
39.2836 806.00
39.3488 718.00
39.414 685.00
39.4792 665.00
39.5444 649.00
39.6096 617.00
39.6748 573.00
39.74 564.00
39.8052 553.00
39.8704 598.00
39.9356 546.00
40.0008 574.00
40.066 536.00
40.1312 510.00
40.1964 534.00
40.2616 513.00
40.3268 539.00
40.392 568.00
40.4572 525.00
40.5224 538.00
40.5876 583.00
40.6528 618.00
40.718 657.00
40.7832 906.00
40.8484 1321.00
40.9136 1190.00
40.9788 922.00
41.044 635.00
41.1092 512.00
41.1744 600.00
41.2396 534.00
41.3048 534.00
41.37 531.00
41.4352 486.00
41.5004 479.00
41.5656 507.00
41.6308 536.00
41.696 513.00
41.7612 518.00
41.8264 505.00
41.8916 554.00
41.9568 545.00
42.022 495.00
42.0872 491.00
42.1524 507.00
42.2176 521.00
42.2828 554.00
42.348 520.00
42.4132 509.00
42.4784 580.00
42.5436 535.00
42.6088 538.00
42.6739 568.00
42.7392 616.00
42.8043 588.00
42.8695 700.00
42.9347 706.00
42.9999 806.00
43.0651 985.00
43.1303 949.00
43.1955 1084.00
43.2607 1044.00
43.3259 1016.00
43.3911 909.00
43.4563 794.00
43.5215 702.00
43.5867 644.00
43.6519 617.00
43.7171 521.00
43.7823 553.00
43.8475 507.00
43.9127 496.00
43.9779 499.00
44.0431 492.00
44.1083 500.00
44.1735 470.00
44.2387 501.00
44.3039 479.00
44.3691 489.00
44.4343 509.00
44.4995 480.00
44.5647 561.00
44.6299 561.00
44.6951 573.00
44.7603 617.00
44.8255 692.00
44.8907 661.00
44.9559 711.00
45.0211 738.00
45.0863 648.00
45.1515 629.00
45.2167 607.00
45.2819 598.00
45.3471 677.00
45.4123 678.00
45.4775 615.00
45.5427 595.00
45.6079 725.00
45.6731 832.00
45.7383 979.00
45.8035 1153.00
45.8687 1669.00
45.9339 2499.00
45.9991 3403.00
46.0643 2516.00
46.1295 2283.00
46.1947 1467.00
46.2599 1198.00
46.3251 1074.00
46.3903 1068.00
46.4555 1189.00
46.5207 1686.00
46.5859 2801.00
46.6511 5628.00
46.7163 8600.00
46.7815 4899.00
46.8467 4228.00
46.9119 1401.00
46.9771 780.00
47.0423 725.00
47.1075 612.00
47.1727 553.00
47.2379 573.00
47.3031 514.00
47.3683 530.00
47.4335 513.00
47.4986 494.00
47.5639 509.00
47.629 562.00
47.6942 559.00
47.7594 611.00
47.8246 825.00
47.8898 1128.00
47.955 888.00
48.0202 835.00
48.0854 649.00
48.1506 545.00
48.2158 560.00
48.281 617.00
48.3462 603.00
48.4114 593.00
48.4766 778.00
48.5418 691.00
48.607 848.00
48.6722 932.00
48.7374 1055.00
48.8026 1170.00
48.8678 1213.00
48.933 1131.00
48.9982 1096.00
49.0634 1018.00
49.1286 940.00
49.1938 771.00
49.259 667.00
49.3242 578.00
49.3894 562.00
49.4546 551.00
49.5198 601.00
49.585 614.00
49.6502 657.00
49.7154 683.00
49.7806 711.00
49.8458 674.00
49.911 591.00
49.9762 611.00
50.0414 538.00
50.1066 496.00
50.1718 494.00
50.237 474.00
50.3022 482.00
50.3674 437.00
50.4326 447.00
50.4978 425.00
50.563 426.00
50.6282 432.00
50.6934 487.00
50.7586 478.00
50.8238 467.00
50.889 442.00
50.9542 492.00
51.0194 522.00
51.0846 539.00
51.1498 566.00
51.215 505.00
51.2802 514.00
51.3454 459.00
51.4106 446.00
51.4758 433.00
51.541 432.00
51.6062 447.00
51.6714 459.00
51.7366 421.00
51.8018 395.00
51.867 416.00
51.9322 436.00
51.9974 423.00
52.0626 395.00
52.1278 399.00
52.193 412.00
52.2582 426.00
52.3233 482.00
52.3886 466.00
52.4537 612.00
52.5189 568.00
52.5841 529.00
52.6493 508.00
52.7145 455.00
52.7797 449.00
52.8449 426.00
52.9101 415.00
52.9753 416.00
53.0405 435.00
53.1057 390.00
53.1709 415.00
53.2361 366.00
53.3013 420.00
53.3665 371.00
53.4317 410.00
53.4969 423.00
53.5621 474.00
53.6273 385.00
53.6925 428.00
53.7577 442.00
53.8229 402.00
53.8881 446.00
53.9533 446.00
54.0185 432.00
54.0837 457.00
54.1489 555.00
54.2141 636.00
54.2793 555.00
54.3445 537.00
54.4097 575.00
54.4749 547.00
54.5401 593.00
54.6053 644.00
54.6705 590.00
54.7357 660.00
54.8009 700.00
54.8661 621.00
54.9313 614.00
54.9965 589.00
55.0617 629.00
55.1269 685.00
55.1921 955.00
55.2573 1605.00
55.3225 1724.00
55.3877 1056.00
55.4529 1072.00
55.5181 602.00
55.5833 493.00
55.6485 438.00
55.7137 403.00
55.7789 397.00
55.8441 454.00
55.9093 400.00
55.9745 404.00
56.0397 437.00
56.1049 443.00
56.1701 454.00
56.2353 424.00
56.3005 488.00
56.3657 426.00
56.4309 444.00
56.4961 462.00
56.5613 466.00
56.6265 519.00
56.6917 466.00
56.7569 494.00
56.8221 542.00
56.8873 495.00
56.9525 471.00
57.0177 537.00
57.0829 486.00
57.148 499.00
57.2132 537.00
57.2784 574.00
57.3436 572.00
57.4088 624.00
57.474 728.00
57.5392 817.00
57.6044 940.00
57.6696 1169.00
57.7348 1387.00
57.8 1353.00
57.8652 1344.00
57.9304 1322.00
57.9956 1228.00
58.0608 1057.00
58.126 895.00
58.1912 823.00
58.2564 711.00
58.3216 664.00
58.3868 691.00
58.452 756.00
58.5172 970.00
58.5824 1581.00
58.6476 1591.00
58.7128 1019.00
58.778 1189.00
58.8432 889.00
58.9084 918.00
58.9736 1504.00
59.0388 2080.00
59.104 1344.00
59.1692 1390.00
59.2344 1315.00
59.2996 926.00
59.3648 864.00
59.43 789.00
59.4952 738.00
59.5604 711.00
59.6256 669.00
59.6908 733.00
59.756 788.00
59.8212 833.00
59.8864 952.00
59.9516 1142.00
60.0168 1385.00
60.082 1514.00
60.1472 1409.00
60.2124 1338.00
60.2776 1269.00
60.3428 1123.00
60.408 1012.00
60.4732 1040.00
60.5384 1043.00
60.6036 1038.00
60.6688 1024.00
60.734 976.00
60.7992 1050.00
60.8644 992.00
60.9296 1014.00
60.9948 1171.00
61.06 1228.00
61.1252 1294.00
61.1904 1348.00
61.2556 1350.00
61.3208 1253.00
61.386 1086.00
61.4512 934.00
61.5164 878.00
61.5816 735.00
61.6468 689.00
61.712 627.00
61.7772 604.00
61.8424 667.00
61.9076 578.00
61.9727 525.00
62.0379 552.00
62.1031 514.00
62.1683 495.00
62.2335 517.00
62.2987 526.00
62.3639 549.00
62.4291 526.00
62.4943 551.00
62.5595 611.00
62.6247 650.00
62.6899 684.00
62.7551 763.00
62.8203 840.00
62.8855 872.00
62.9507 813.00
63.0159 799.00
63.0811 713.00
63.1463 647.00
63.2115 580.00
63.2767 565.00
63.3419 549.00
63.4071 548.00
63.4723 563.00
63.5375 532.00
63.6027 544.00
63.6679 631.00
63.7331 603.00
63.7983 727.00
63.8635 809.00
63.9287 869.00
63.9939 1001.00
64.0591 1210.00
64.1243 1613.00
64.1895 2343.00
64.2547 2018.00
64.3199 1864.00
64.3851 2064.00
64.4503 1678.00
64.5155 1640.00
64.5807 1641.00
64.6459 1892.00
64.7111 2316.00
64.7763 2660.00
64.8415 2831.00
64.9067 2888.00
64.9719 2683.00
65.0371 2353.00
65.1023 1923.00
65.1675 1553.00
65.2327 1214.00
65.2979 996.00
65.3631 816.00
65.4283 750.00
65.4935 586.00
65.5587 606.00
65.6239 565.00
65.6891 544.00
65.7543 499.00
65.8195 427.00
65.8847 444.00
65.9499 464.00
66.0151 433.00
66.0803 454.00
66.1455 431.00
66.2107 422.00
66.2759 397.00
66.3411 398.00
66.4063 404.00
66.4715 416.00
66.5367 395.00
66.6019 462.00
66.6671 419.00
66.7322 397.00
66.7974 455.00
66.8626 539.00
66.9278 461.00
66.993 428.00
67.0582 403.00
67.1234 402.00
67.1886 433.00
67.2538 407.00
67.319 393.00
67.3842 388.00
67.4494 397.00
67.5146 397.00
67.5798 406.00
67.645 400.00
67.7102 405.00
67.7754 392.00
67.8406 416.00
67.9058 416.00
67.971 413.00
68.0362 390.00
68.1014 417.00
68.1666 382.00
68.2318 426.00
68.297 427.00
68.3622 403.00
68.4274 451.00
68.4926 424.00
68.5578 470.00
68.623 531.00
68.6882 443.00
68.7534 453.00
68.8186 481.00
68.8838 461.00
68.949 524.00
69.0142 558.00
69.0794 531.00
69.1446 601.00
69.2098 636.00
69.275 705.00
69.3402 768.00
69.4054 778.00
69.4706 763.00
69.5358 911.00
69.601 908.00
69.6662 943.00
69.7314 1056.00
69.7966 1358.00
69.8618 1851.00
69.927 2238.00
69.9922 1276.00
70.0574 1284.00
70.1226 1421.00
70.1878 938.00
70.253 786.00
70.3182 748.00
70.3834 736.00
70.4486 854.00
70.5138 894.00
70.579 877.00
70.6442 775.00
70.7094 775.00
70.7746 683.00
70.8398 617.00
70.905 628.00
70.9702 579.00
71.0354 601.00
71.1006 516.00
71.1658 473.00
71.231 494.00
71.2962 469.00
71.3614 476.00
71.4266 460.00
71.4918 457.00
71.5569 443.00
71.6221 552.00
71.6873 679.00
71.7525 861.00
71.8177 722.00
71.8829 560.00
71.9481 647.00
72.0133 553.00
72.0785 441.00
72.1437 421.00
72.2089 454.00
72.2741 478.00
72.3393 467.00
72.4045 504.00
72.4697 517.00
72.5349 586.00
72.6001 549.00
72.6653 570.00
72.7305 619.00
72.7957 609.00
72.8609 543.00
72.9261 515.00
72.9913 514.00
73.0565 472.00
73.1217 437.00
73.1869 468.00
73.2521 453.00
73.3173 360.00
73.3825 424.00
73.4477 426.00
73.5129 450.00
73.5781 425.00
73.6433 491.00
73.7085 509.00
73.7737 567.00
73.8389 607.00
73.9041 568.00
73.9693 666.00
74.0345 626.00
74.0997 559.00
74.1649 589.00
74.2301 557.00
74.2953 635.00
74.3605 603.00
74.4257 563.00
74.4909 720.00
74.5561 843.00
74.6213 1266.00
74.6865 1452.00
74.7517 791.00
74.8169 824.00
74.8821 950.00
74.9473 668.00
75.0125 418.00
75.0777 432.00
75.1429 369.00
75.2081 361.00
75.2733 365.00
75.3385 358.00
75.4037 382.00
75.4689 356.00
75.5341 311.00
75.5993 349.00
75.6645 357.00
75.7297 340.00
75.7949 362.00
75.8601 373.00
75.9253 402.00
75.9905 383.00
76.0557 357.00
76.1209 374.00
76.186 361.00
76.2513 332.00
76.3165 335.00
76.3816 346.00
76.4468 359.00
76.512 328.00
76.5772 348.00
76.6424 378.00
76.7076 401.00
76.7728 489.00
76.838 564.00
76.9032 510.00
76.9684 413.00
77.0336 448.00
77.0988 443.00
77.164 396.00
77.2292 381.00
77.2944 327.00
77.3596 341.00
77.4248 356.00
77.49 361.00
77.5552 357.00
77.6204 361.00
77.6856 382.00
77.7508 351.00
77.816 408.00
77.8812 373.00
77.9464 423.00
78.0116 442.00
78.0768 431.00
78.142 434.00
78.2072 404.00
78.2724 437.00
78.3376 398.00
78.4028 428.00
78.468 431.00
78.5332 400.00
78.5984 418.00
78.6636 428.00
78.7288 422.00
78.794 433.00
78.8592 433.00
78.9244 427.00
78.9896 403.00
79.0548 450.00
79.12 451.00
79.1852 445.00
79.2504 453.00
79.3156 443.00
79.3808 493.00
79.446 503.00
79.5112 640.00
79.5764 750.00
79.6416 1146.00
79.7068 1346.00
79.772 806.00
79.8372 743.00
79.9024 1003.00
79.9676 1100.00
80.0328 1227.00
80.098 1038.00
80.1632 595.00
80.2284 703.00
80.2936 775.00
80.3588 549.00
80.424 390.00
80.4892 359.00
80.5544 325.00
80.6196 353.00
80.6848 334.00
80.75 325.00
80.8152 331.00
80.8804 336.00
80.9456 349.00
81.0108 368.00
81.076 332.00
81.1412 331.00
81.2063 364.00
81.2715 331.00
81.3367 340.00
81.4019 375.00
81.4671 345.00
81.5323 391.00
81.5975 389.00
81.6627 431.00
81.7279 549.00
81.7931 795.00
81.8583 801.00
81.9235 520.00
81.9887 513.00
82.0539 663.00
82.1191 551.00
82.1843 449.00
82.2495 426.00
82.3147 419.00
82.3799 436.00
82.4451 466.00
82.5103 487.00
82.5755 473.00
82.6407 444.00
82.7059 465.00
82.7711 439.00
82.8363 411.00
82.9015 354.00
82.9667 350.00
83.0319 347.00
83.0971 348.00
83.1623 370.00
83.2275 341.00
83.2927 362.00
83.3579 373.00
83.4231 344.00
83.4883 355.00
83.5535 386.00
83.6187 379.00
83.6839 409.00
83.7491 415.00
83.8143 408.00
83.8795 381.00
83.9447 428.00
84.0099 423.00
84.0751 438.00
84.1403 442.00
84.2055 420.00
84.2707 443.00
84.3359 488.00
84.4011 484.00
84.4663 493.00
84.5315 552.00
84.5967 521.00
84.6619 545.00
84.7271 488.00
84.7923 485.00
84.8575 459.00
84.9227 484.00
84.9879 407.00
85.0531 420.00
85.1183 404.00
85.1835 428.00
85.2487 424.00
85.3139 387.00
85.3791 418.00
85.4443 447.00
85.5095 519.00
85.5747 589.00
85.6399 766.00
85.7051 636.00
85.7703 541.00
85.8354 502.00
85.9006 593.00
85.9659 558.00
86.031 464.00
86.0962 419.00
86.1614 368.00
86.2266 395.00
86.2918 388.00
86.357 406.00
86.4222 366.00
86.4874 375.00
86.5526 374.00
86.6178 354.00
86.683 349.00
86.7482 335.00
86.8134 351.00
86.8786 349.00
86.9438 362.00
87.009 379.00
87.0742 396.00
87.1394 381.00
87.2046 334.00
87.2698 356.00
87.335 335.00
87.4002 337.00
87.4654 321.00
87.5306 318.00
87.5958 309.00
87.661 283.00
87.7262 281.00
87.7914 319.00
87.8566 314.00
87.9218 335.00
87.987 329.00
88.0522 325.00
88.1174 362.00
88.1826 330.00
88.2478 307.00
88.313 329.00
88.3782 320.00
88.4434 302.00
88.5086 311.00
88.5738 337.00
88.639 330.00
88.7042 337.00
88.7694 324.00
88.8346 350.00
88.8998 362.00
88.965 362.00
89.0302 389.00
89.0954 385.00
89.1606 418.00
89.2258 414.00
89.291 441.00
89.3562 491.00
89.4214 444.00
89.4866 390.00
89.5518 393.00
89.617 413.00
89.6822 382.00
89.7474 398.00
89.8126 359.00
89.8778 382.00
89.943 386.00
90.0082 398.00
90.0734 397.00
90.1386 401.00
90.2038 366.00
90.269 396.00
90.3342 435.00
90.3994 403.00
90.4646 403.00
90.5298 424.00
90.595 411.00
90.6601 467.00
90.7253 449.00
90.7905 442.00
90.8557 442.00
90.9209 428.00
90.9861 459.00
91.0513 460.00
91.1165 418.00
91.1817 469.00
91.2469 525.00
91.3121 517.00
91.3773 553.00
91.4425 520.00
91.5077 556.00
91.5729 532.00
91.6381 551.00
91.7033 539.00
91.7685 530.00
91.8337 486.00
91.8989 508.00
91.9641 427.00
92.0293 453.00
92.0945 416.00
92.1597 411.00
92.2249 420.00
92.2901 363.00
92.3553 388.00
92.4205 381.00
92.4857 364.00
92.5509 333.00
92.6161 343.00
92.6813 407.00
92.7465 372.00
92.8117 378.00
92.8769 384.00
92.9421 391.00
93.0073 372.00
93.0725 402.00
93.1377 451.00
93.2029 419.00
93.2681 394.00
93.3333 395.00
93.3985 398.00
93.4637 408.00
93.5289 395.00
93.5941 386.00
93.6593 402.00
93.7245 355.00
93.7897 431.00
93.8549 390.00
93.9201 398.00
93.9853 418.00
94.0505 422.00
94.1157 442.00
94.1809 510.00
94.2461 506.00
94.3113 558.00
94.3765 608.00
94.4417 665.00
94.5069 600.00
94.5721 597.00
94.6373 627.00
94.7025 680.00
94.7677 623.00
94.8329 544.00
94.8981 548.00
94.9633 564.00
95.0285 496.00
95.0937 548.00
95.1589 550.00
95.2241 594.00
95.2893 659.00
95.3545 760.00
95.4197 952.00
95.4848 818.00
95.55 588.00
95.6153 643.00
95.6804 691.00
95.7456 793.00
95.8108 688.00
95.876 594.00
95.9412 581.00
96.0064 605.00
96.0716 658.00
96.1368 641.00
96.202 630.00
96.2672 710.00
96.3324 715.00
96.3976 761.00
96.4628 849.00
96.528 955.00
96.5932 802.00
96.6584 713.00
96.7236 693.00
96.7888 719.00
96.854 743.00
96.9192 653.00
96.9844 536.00
97.0496 468.00
97.1148 522.00
97.18 465.00
97.2452 403.00
97.3104 422.00
97.3756 359.00
97.4408 381.00
97.506 363.00
97.5712 402.00
97.6364 387.00
97.7016 379.00
97.7668 374.00
97.832 382.00
97.8972 349.00
97.9624 400.00
98.0276 386.00
98.0928 391.00
98.158 380.00
98.2232 335.00
98.2884 396.00
98.3536 371.00
98.4188 396.00
98.484 420.00
98.5492 462.00
98.6144 435.00
98.6796 427.00
98.7448 416.00
98.81 461.00
98.8752 458.00
98.9404 469.00
99.0056 472.00
99.0708 501.00
99.136 525.00
99.2012 567.00
99.2664 633.00
99.3316 778.00
99.3968 604.00
99.462 558.00
99.5272 636.00
99.5924 730.00
99.6576 1045.00
99.7228 988.00
99.788 619.00
99.8532 509.00
99.9184 513.00
99.9836 601.00
99.9944 702.00