File: data/xrd_creation/results/PG_1739-1.xy
9.903433 2488.00
9.968632 2366.00
10.0338 2398.00
10.099 2303.00
10.1642 2448.00
10.2294 2341.00
10.2946 2328.00
10.3598 2309.00
10.425 2340.00
10.4902 2163.00
10.5554 2302.00
10.6206 2189.00
10.6858 2258.00
10.751 2157.00
10.8162 2152.00
10.8814 2179.00
10.9466 2114.00
11.0118 2044.00
11.077 2090.00
11.1422 2144.00
11.2074 2098.00
11.2726 2085.00
11.3378 2036.00
11.403 2077.00
11.4682 2037.00
11.5334 1963.00
11.5986 2087.00
11.6638 1979.00
11.729 1944.00
11.7942 1990.00
11.8594 1945.00
11.9246 1906.00
11.9898 1923.00
12.055 1874.00
12.1202 1868.00
12.1854 1873.00
12.2506 1901.00
12.3158 1860.00
12.381 1862.00
12.4462 1773.00
12.5114 1735.00
12.5766 1742.00
12.6418 1843.00
12.707 1777.00
12.7722 1722.00
12.8374 1752.00
12.9026 1710.00
12.9678 1779.00
13.033 1655.00
13.0982 1645.00
13.1634 1795.00
13.2286 1634.00
13.2938 1689.00
13.359 1674.00
13.4242 1634.00
13.4894 1641.00
13.5546 1596.00
13.6198 1688.00
13.685 1593.00
13.7502 1561.00
13.8154 1673.00
13.8805 1603.00
13.9457 1584.00
14.0109 1594.00
14.0761 1611.00
14.1413 1591.00
14.2065 1583.00
14.2717 1603.00
14.3369 1572.00
14.4021 1525.00
14.4673 1589.00
14.5325 1570.00
14.5977 1526.00
14.6629 1599.00
14.7281 1483.00
14.7933 1504.00
14.8585 1467.00
14.9237 1507.00
14.9889 1534.00
15.0541 1512.00
15.1193 1523.00
15.1845 1528.00
15.2497 1505.00
15.3149 1501.00
15.3801 1473.00
15.4453 1453.00
15.5105 1539.00
15.5757 1496.00
15.6409 1443.00
15.7061 1455.00
15.7713 1523.00
15.8365 1437.00
15.9017 1449.00
15.9669 1451.00
16.0321 1347.00
16.0973 1435.00
16.1625 1415.00
16.2277 1441.00
16.2929 1418.00
16.3581 1385.00
16.4233 1404.00
16.4885 1433.00
16.5537 1422.00
16.6189 1413.00
16.6841 1380.00
16.7493 1457.00
16.8145 1409.00
16.8797 1371.00
16.9449 1402.00
17.0101 1421.00
17.0753 1380.00
17.1405 1398.00
17.2057 1361.00
17.2709 1394.00
17.3361 1393.00
17.4013 1472.00
17.4665 1462.00
17.5317 1476.00
17.5969 1501.00
17.6621 1484.00
17.7273 1491.00
17.7925 1561.00
17.8577 1434.00
17.9229 1350.00
17.9881 1416.00
18.0533 1348.00
18.1185 1320.00
18.1837 1298.00
18.2489 1342.00
18.3141 1270.00
18.3793 1325.00
18.4445 1310.00
18.5097 1323.00
18.5749 1270.00
18.6401 1240.00
18.7052 1266.00
18.7704 1214.00
18.8356 1269.00
18.9008 1276.00
18.966 1206.00
19.0312 1208.00
19.0964 1269.00
19.1616 1248.00
19.2268 1231.00
19.292 1306.00
19.3572 1222.00
19.4224 1256.00
19.4876 1248.00
19.5528 1242.00
19.618 1314.00
19.6832 1244.00
19.7484 1250.00
19.8136 1203.00
19.8788 1189.00
19.944 1165.00
20.0092 1248.00
20.0744 1230.00
20.1396 1255.00
20.2048 1165.00
20.27 1170.00
20.3352 1259.00
20.4004 1103.00
20.4656 1218.00
20.5308 1174.00
20.596 1175.00
20.6612 1124.00
20.7264 1160.00
20.7916 1173.00
20.8568 1164.00
20.922 1227.00
20.9872 1150.00
21.0524 1141.00
21.1176 1148.00
21.1828 1205.00
21.248 1112.00
21.3132 1197.00
21.3784 1163.00
21.4436 1133.00
21.5088 1147.00
21.574 1124.00
21.6392 1133.00
21.7044 1140.00
21.7696 1111.00
21.8348 1112.00
21.9 1106.00
21.9652 1105.00
22.0304 1156.00
22.0956 1125.00
22.1608 1108.00
22.226 1106.00
22.2912 1132.00
22.3564 1104.00
22.4216 1137.00
22.4868 1132.00
22.552 1118.00
22.6172 1076.00
22.6824 1094.00
22.7476 1081.00
22.8128 1115.00
22.878 1117.00
22.9432 1083.00
23.0084 1046.00
23.0736 1090.00
23.1388 1100.00
23.204 1068.00
23.2692 1091.00
23.3344 1093.00
23.3996 1046.00
23.4647 1136.00
23.5299 1124.00
23.5951 1118.00
23.6603 1069.00
23.7255 1075.00
23.7907 1139.00
23.8559 1096.00
23.9211 1151.00
23.9863 1165.00
24.0515 1273.00
24.1167 1444.00
24.1819 1757.00
24.2471 1873.00
24.3123 2032.00
24.3775 2108.00
24.4427 1913.00
24.5079 1720.00
24.5731 1613.00
24.6383 1713.00
24.7035 1889.00
24.7687 1849.00
24.8339 1694.00
24.8991 1442.00
24.9643 1248.00
25.0295 1098.00
25.0947 1127.00
25.1599 1082.00
25.2251 1045.00
25.2903 1027.00
25.3555 1020.00
25.4207 1080.00
25.4859 1008.00
25.5511 1050.00
25.6163 1035.00
25.6815 1024.00
25.7467 976.00
25.8119 961.00
25.8771 1003.00
25.9423 1049.00
26.0075 1010.00
26.0727 981.00
26.1379 1037.00
26.2031 971.00
26.2683 1025.00
26.3335 986.00
26.3987 1039.00
26.4639 1026.00
26.5291 1001.00
26.5943 1046.00
26.6595 993.00
26.7247 1011.00
26.7899 1125.00
26.8551 1022.00
26.9203 973.00
26.9855 966.00
27.0507 972.00
27.1159 963.00
27.1811 991.00
27.2463 965.00
27.3115 1046.00
27.3767 1000.00
27.4419 1051.00
27.5071 1079.00
27.5723 1036.00
27.6375 1018.00
27.7027 1116.00
27.7679 1091.00
27.8331 1160.00
27.8983 1147.00
27.9635 1223.00
28.0287 1335.00
28.0939 1602.00
28.1591 1903.00
28.2243 2664.00
28.2894 3925.00
28.3546 5740.00
28.4198 7381.00
28.485 8219.00
28.5502 7487.00
28.6154 5750.00
28.6806 3516.00
28.7458 2295.00
28.811 1632.00
28.8762 1308.00
28.9414 1261.00
29.0066 1193.00
29.0718 1189.00
29.137 1110.00
29.2022 1138.00
29.2674 1042.00
29.3326 1030.00
29.3978 1024.00
29.463 1016.00
29.5282 985.00
29.5934 998.00
29.6586 1018.00
29.7238 1023.00
29.789 976.00
29.8542 999.00
29.9194 1010.00
29.9846 959.00
30.0498 985.00
30.115 959.00
30.1802 965.00
30.2454 984.00
30.3106 964.00
30.3758 1028.00
30.441 966.00
30.5062 948.00
30.5714 992.00
30.6366 964.00
30.7018 1027.00
30.767 1024.00
30.8322 1056.00
30.8974 975.00
30.9626 1022.00
31.0278 1073.00
31.093 1069.00
31.1582 1090.00
31.2234 1148.00
31.2886 1189.00
31.3538 1336.00
31.419 1536.00
31.4842 1792.00
31.5494 2638.00
31.6146 3656.00
31.6798 5280.00
31.745 6716.00
31.8102 7110.00
31.8754 6138.00
31.9406 4245.00
32.0058 2694.00
32.071 1820.00
32.1362 1502.00
32.2014 1184.00
32.2666 1178.00
32.3318 1091.00
32.397 1084.00
32.4622 996.00
32.5274 995.00
32.5926 942.00
32.6578 949.00
32.723 892.00
32.7882 880.00
32.8534 952.00
32.9186 980.00
32.9838 870.00
33.0489 922.00
33.1141 886.00
33.1793 927.00
33.2445 943.00
33.3097 956.00
33.3749 932.00
33.4401 924.00
33.5053 907.00
33.5705 925.00
33.6357 958.00
33.7009 988.00
33.7661 992.00
33.8313 965.00
33.8965 984.00
33.9617 1053.00
34.0269 1003.00
34.0921 1124.00
34.1573 1223.00
34.2225 1502.00
34.2877 1947.00
34.3529 2490.00
34.4181 3031.00
34.4833 3216.00
34.5485 3113.00
34.6137 2801.00
34.6789 2855.00
34.7441 2749.00
34.8093 2712.00
34.8745 2317.00
34.9397 1781.00
35.0049 1355.00
35.0701 1161.00
35.1353 1028.00
35.2005 1049.00
35.2657 1073.00
35.3309 1112.00
35.3961 1257.00
35.4613 1672.00
35.5265 2143.00
35.5917 2767.00
35.6569 3111.00
35.7221 2825.00
35.7873 2178.00
35.8525 1609.00
35.9177 1240.00
35.9829 1216.00
36.0481 1276.00
36.1133 1350.00
36.1785 1406.00
36.2437 1433.00
36.3089 1319.00
36.3741 1215.00
36.4393 1082.00
36.5045 933.00
36.5697 899.00
36.6349 895.00
36.7001 873.00
36.7653 893.00
36.8305 885.00
36.8957 940.00
36.9609 896.00
37.0261 926.00
37.0913 945.00
37.1565 1079.00
37.2217 1358.00
37.2869 1827.00
37.3521 2240.00
37.4173 2288.00
37.4825 1912.00
37.5477 1433.00
37.6129 1143.00
37.6781 991.00
37.7433 898.00
37.8085 942.00
37.8736 844.00
37.9388 822.00
38.004 824.00
38.0692 821.00
38.1344 867.00
38.1996 861.00
38.2648 816.00
38.33 886.00
38.3952 910.00
38.4604 974.00
38.5256 880.00
38.5908 895.00
38.656 994.00
38.7212 1125.00
38.7864 1291.00
38.8516 1498.00
38.9168 1725.00
38.982 1702.00
39.0472 1462.00
39.1124 1293.00
39.1776 1024.00
39.2428 948.00
39.308 930.00
39.3732 878.00
39.4384 883.00
39.5036 894.00
39.5688 859.00
39.634 847.00
39.6992 876.00
39.7644 834.00
39.8296 850.00
39.8948 889.00
39.96 881.00
40.0252 864.00
40.0904 899.00
40.1556 903.00
40.2208 913.00
40.286 993.00
40.3512 917.00
40.4164 968.00
40.4816 901.00
40.5468 939.00
40.612 924.00
40.6772 968.00
40.7424 903.00
40.8076 1083.00
40.8728 1186.00
40.938 1512.00
41.0032 1734.00
41.0684 2040.00
41.1336 2179.00
41.1988 2044.00
41.264 1722.00
41.3292 1522.00
41.3944 1444.00
41.4596 1394.00
41.5248 1405.00
41.59 1350.00
41.6552 1302.00
41.7204 1334.00
41.7856 1282.00
41.8508 1208.00
41.916 1060.00
41.9812 1098.00
42.0464 976.00
42.1116 888.00
42.1768 861.00
42.242 844.00
42.3072 870.00
42.3724 864.00
42.4376 847.00
42.5028 870.00
42.568 874.00
42.6332 857.00
42.6983 872.00
42.7635 856.00
42.8287 889.00
42.8939 890.00
42.9591 926.00
43.0243 966.00
43.0895 941.00
43.1547 1067.00
43.2199 1323.00
43.2851 2018.00
43.3503 2865.00
43.4155 3478.00
43.4807 3087.00
43.5459 2393.00
43.6111 1671.00
43.6763 1176.00
43.7415 968.00
43.8067 917.00
43.8719 914.00
43.9371 813.00
44.0023 899.00
44.0675 799.00
44.1327 837.00
44.1979 852.00
44.2631 827.00
44.3283 841.00
44.3935 843.00
44.4587 829.00
44.5239 860.00
44.5891 893.00
44.6543 896.00
44.7195 908.00
44.7847 898.00
44.8499 902.00
44.9151 889.00
44.9803 1016.00
45.0455 1067.00
45.1107 1192.00
45.1759 1306.00
45.2411 1333.00
45.3063 1282.00
45.3715 1076.00
45.4367 1044.00
45.5019 1008.00
45.5671 1027.00
45.6323 966.00
45.6975 1100.00
45.7627 1288.00
45.8279 1386.00
45.8931 1563.00
45.9583 1486.00
46.0235 1367.00
46.0887 1191.00
46.1539 1088.00
46.2191 976.00
46.2843 950.00
46.3495 864.00
46.4147 850.00
46.4799 875.00
46.5451 909.00
46.6103 888.00
46.6755 856.00
46.7407 837.00
46.8059 860.00
46.8711 853.00
46.9363 878.00
47.0015 817.00
47.0667 847.00
47.1319 884.00
47.1971 892.00
47.2623 828.00
47.3275 849.00
47.3927 838.00
47.4579 844.00
47.523 821.00
47.5882 868.00
47.6534 869.00
47.7186 892.00
47.7838 793.00
47.849 889.00
47.9142 839.00
47.9794 877.00
48.0446 883.00
48.1098 839.00
48.175 842.00
48.2402 868.00
48.3054 910.00
48.3706 881.00
48.4358 899.00
48.501 825.00
48.5662 873.00
48.6314 911.00
48.6966 880.00
48.7618 923.00
48.827 927.00
48.8922 949.00
48.9574 914.00
49.0226 919.00
49.0878 990.00
49.153 1010.00
49.2182 1071.00
49.2834 1152.00
49.3486 1170.00
49.4138 1266.00
49.479 1568.00
49.5442 2054.00
49.6094 2621.00
49.6746 3022.00
49.7398 2709.00
49.805 2364.00
49.8702 1848.00
49.9354 1473.00
50.0006 1181.00
50.0658 1122.00
50.131 1065.00
50.1962 1094.00
50.2614 1175.00
50.3266 1338.00
50.3918 1799.00
50.457 2518.00
50.5222 3231.00
50.5874 3621.00
50.6526 3268.00
50.7178 2680.00
50.783 2263.00
50.8482 2033.00
50.9134 2102.00
50.9786 2298.00
51.0438 2257.00
51.109 1946.00
51.1742 1548.00
51.2394 1278.00
51.3046 1113.00
51.3698 1041.00
51.435 1085.00
51.5002 1137.00
51.5654 1304.00
51.6306 1415.00
51.6958 1355.00
51.761 1316.00
51.8262 1188.00
51.8914 1053.00
51.9566 1048.00
52.0218 974.00
52.087 880.00
52.1522 937.00
52.2174 932.00
52.2826 967.00
52.3477 921.00
52.4129 927.00
52.4781 911.00
52.5433 921.00
52.6085 955.00
52.6737 850.00
52.7389 885.00
52.8041 940.00
52.8693 868.00
52.9345 889.00
52.9997 898.00
53.0649 866.00
53.1301 938.00
53.1953 925.00
53.2605 894.00
53.3257 886.00
53.3909 941.00
53.4561 882.00
53.5213 912.00
53.5865 967.00
53.6517 907.00
53.7169 896.00
53.7821 933.00
53.8473 921.00
53.9125 950.00
53.9777 933.00
54.0429 943.00
54.1081 1067.00
54.1733 1053.00
54.2385 1188.00
54.3037 1315.00
54.3689 1561.00
54.4341 2003.00
54.4993 2267.00
54.5645 2179.00
54.6297 2053.00
54.6949 1815.00
54.7601 1470.00
54.8253 1264.00
54.8905 1110.00
54.9557 1167.00
55.0209 1120.00
55.0861 1130.00
55.1513 1093.00
55.2165 1188.00
55.2817 1136.00
55.3469 1111.00
55.4121 1127.00
55.4773 1184.00
55.5425 1355.00
55.6077 1687.00
55.6729 2171.00
55.7381 2600.00
55.8033 2772.00
55.8685 2818.00
55.9337 2632.00
55.9989 2383.00
56.0641 2126.00
56.1293 1812.00
56.1945 1731.00
56.2597 1767.00
56.3249 1943.00
56.3901 2033.00
56.4553 1979.00
56.5205 1832.00
56.5857 1663.00
56.6509 1357.00
56.7161 1223.00
56.7813 1145.00
56.8465 979.00
56.9117 1077.00
56.9769 1003.00
57.042 980.00
57.1073 1035.00
57.1724 1035.00
57.2376 1008.00
57.3028 1102.00
57.368 1180.00
57.4332 1277.00
57.4984 1445.00
57.5636 1751.00
57.6288 1918.00
57.694 1896.00
57.7592 1785.00
57.8244 1585.00
57.8896 1376.00
57.9548 1225.00
58.02 1141.00
58.0852 1181.00
58.1504 1117.00
58.2156 1305.00
58.2808 1478.00
58.346 1698.00
58.4112 1747.00
58.4764 1649.00
58.5416 1607.00
58.6068 1548.00
58.672 1595.00
58.7372 1501.00
58.8024 1471.00
58.8676 1383.00
58.9328 1328.00
58.998 1206.00
59.0632 1055.00
59.1284 1003.00
59.1936 1011.00
59.2588 997.00
59.324 983.00
59.3892 1043.00
59.4544 948.00
59.5196 990.00
59.5848 992.00
59.65 1011.00
59.7152 972.00
59.7804 1008.00
59.8456 1019.00
59.9108 1057.00
59.976 1151.00
60.0412 1155.00
60.1064 1393.00
60.1716 1700.00
60.2368 1912.00
60.302 2238.00
60.3672 2408.00
60.4324 2453.00
60.4976 2280.00
60.5628 1996.00
60.628 1768.00
60.6932 1641.00
60.7584 1393.00
60.8236 1182.00
60.8888 1115.00
60.954 1104.00
61.0192 1090.00
61.0844 1072.00
61.1496 975.00
61.2148 1008.00
61.28 956.00
61.3452 1048.00
61.4104 1065.00
61.4756 1124.00
61.5408 1173.00
61.606 1273.00
61.6712 1463.00
61.7364 1735.00
61.8016 1840.00
61.8667 1769.00
61.932 1729.00
61.9971 1542.00
62.0623 1455.00
62.1275 1434.00
62.1927 1433.00
62.2579 1564.00
62.3231 1779.00
62.3883 1900.00
62.4535 1905.00
62.5187 1855.00
62.5839 1714.00
62.6491 1566.00
62.7143 1410.00
62.7795 1509.00
62.8447 1824.00
62.9099 2192.00
62.9751 2612.00
63.0403 2663.00
63.1055 2402.00
63.1707 2319.00
63.2359 2300.00
63.3011 2460.00
63.3663 2253.00
63.4315 2161.00
63.4967 1916.00
63.5619 1749.00
63.6271 1497.00
63.6923 1286.00
63.7575 1162.00
63.8227 1084.00
63.8879 1070.00
63.9531 1083.00
64.0183 1039.00
64.0835 1008.00
64.1487 955.00
64.2139 1043.00
64.2791 1019.00
64.3443 1158.00
64.4095 1150.00
64.4747 1188.00
64.5399 1229.00
64.6051 1296.00
64.6703 1399.00
64.7355 1494.00
64.8007 1430.00
64.8659 1349.00
64.9311 1336.00
64.9963 1224.00
65.0615 1123.00
65.1267 1092.00
65.1919 1044.00
65.2571 1008.00
65.3223 1004.00
65.3875 1091.00
65.4527 1137.00
65.5179 1117.00
65.5831 1123.00
65.6483 1123.00
65.7135 1140.00
65.7787 1241.00
65.8439 1400.00
65.9091 1541.00
65.9743 1523.00
66.0395 1637.00
66.1047 1867.00
66.1699 2087.00
66.2351 2181.00
66.3003 2091.00
66.3655 1919.00
66.4307 1888.00
66.4959 1639.00
66.561 1385.00
66.6263 1265.00
66.6915 1175.00
66.7566 1135.00
66.8218 1100.00
66.887 1010.00
66.9522 1018.00
67.0174 1037.00
67.0826 1041.00
67.1478 1031.00
67.213 1003.00
67.2782 962.00
67.3434 1024.00
67.4086 983.00
67.4738 964.00
67.539 963.00
67.6042 1013.00
67.6694 972.00
67.7346 970.00
67.7998 1004.00
67.865 953.00
67.9302 993.00
67.9954 1046.00
68.0606 1012.00
68.1258 985.00
68.191 985.00
68.2562 972.00
68.3214 955.00
68.3866 971.00
68.4518 943.00
68.517 970.00
68.5822 1115.00
68.6474 965.00
68.7126 1001.00
68.7778 1014.00
68.843 969.00
68.9082 966.00
68.9734 1037.00
69.0386 1048.00
69.1038 1010.00
69.169 1077.00
69.2342 1012.00
69.2994 1138.00
69.3646 1224.00
69.4298 1314.00
69.495 1346.00
69.5602 1400.00
69.6254 1310.00
69.6906 1207.00
69.7558 1222.00
69.821 1077.00
69.8862 1119.00
69.9514 1028.00
70.0166 1087.00
70.0818 1115.00
70.147 1109.00
70.2122 1051.00
70.2774 1148.00
70.3426 1036.00
70.4078 1081.00
70.473 1013.00
70.5382 1069.00
70.6034 1122.00
70.6686 1030.00
70.7338 1086.00
70.799 1077.00
70.8642 1080.00
70.9294 1065.00
70.9946 1029.00
71.0598 1082.00
71.125 1110.00
71.1902 1117.00
71.2554 1093.00
71.3205 1119.00
71.3858 1146.00
71.451 1281.00
71.5162 1462.00
71.5813 1668.00
71.6465 1726.00
71.7117 1843.00
71.7769 1831.00
71.8421 1719.00
71.9073 1511.00
71.9725 1427.00
72.0377 1304.00
72.1029 1209.00
72.1681 1116.00
72.2333 1096.00
72.2985 1141.00
72.3637 1166.00
72.4289 1141.00
72.4941 1108.00
72.5593 1239.00
72.6245 1308.00
72.6897 1328.00
72.7549 1310.00
72.8201 1286.00
72.8853 1268.00
72.9505 1222.00
73.0157 1298.00
73.0809 1367.00
73.1461 1366.00
73.2113 1344.00
73.2765 1340.00
73.3417 1263.00
73.4069 1171.00
73.4721 1195.00
73.5373 1057.00
73.6025 1076.00
73.6677 1025.00
73.7329 1091.00
73.7981 1030.00
73.8633 1073.00
73.9285 1056.00
73.9937 1113.00
74.0589 1144.00
74.1241 1127.00
74.1893 1076.00
74.2545 1111.00
74.3197 1068.00
74.3849 1032.00
74.4501 1045.00
74.5153 1033.00
74.5805 1041.00
74.6457 1054.00
74.7109 1008.00
74.7761 1011.00
74.8413 1061.00
74.9065 1070.00
74.9717 1091.00
75.0369 1130.00
75.1021 1195.00
75.1673 1234.00
75.2325 1383.00
75.2977 1531.00
75.3629 1645.00
75.4281 1785.00
75.4933 1866.00
75.5585 1891.00
75.6237 1958.00
75.6889 1994.00
75.7541 1998.00
75.8193 1835.00
75.8845 1641.00
75.9497 1512.00
76.0149 1438.00
76.0801 1324.00
76.1452 1257.00
76.2104 1155.00
76.2756 1151.00
76.3409 1078.00
76.406 1140.00
76.4712 1037.00
76.5364 1122.00
76.6016 1080.00
76.6668 1073.00
76.732 1120.00
76.7972 1177.00
76.8624 1289.00
76.9276 1300.00
76.9928 1357.00
77.058 1443.00
77.1232 1391.00
77.1884 1420.00
77.2536 1333.00
77.3188 1253.00
77.384 1221.00
77.4492 1191.00
77.5144 1169.00
77.5796 1186.00
77.6448 1150.00
77.71 1124.00
77.7752 1164.00
77.8404 1270.00
77.9056 1293.00
77.9708 1335.00
78.036 1380.00
78.1012 1338.00
78.1664 1411.00
78.2316 1300.00
78.2968 1299.00
78.362 1324.00
78.4272 1233.00
78.4924 1257.00
78.5576 1258.00
78.6228 1279.00
78.688 1231.00
78.7532 1220.00
78.8184 1195.00
78.8836 1227.00
78.9488 1236.00
79.014 1160.00
79.0792 1192.00
79.1444 1141.00
79.2096 1244.00
79.2748 1336.00
79.34 1480.00
79.4052 1644.00
79.4704 1896.00
79.5356 1856.00
79.6008 1816.00
79.666 1671.00
79.7312 1585.00
79.7964 1560.00
79.8616 1402.00
79.9268 1224.00
79.992 1203.00
80.0572 1152.00
80.1224 1107.00
80.1876 1114.00
80.2528 1142.00
80.318 1107.00
80.3832 1060.00
80.4484 1141.00
80.5136 1086.00
80.5788 1038.00
80.644 1065.00
80.7092 1133.00
80.7744 1147.00
80.8396 1168.00
80.9048 1211.00
80.9699 1165.00
81.0351 1176.00
81.1003 1162.00
81.1655 1142.00
81.2307 1211.00
81.2959 1165.00
81.3611 1134.00
81.4263 1124.00
81.4915 1117.00
81.5567 1116.00
81.6219 1174.00
81.6871 1103.00
81.7523 1232.00
81.8175 1258.00
81.8827 1244.00
81.9479 1296.00
82.0131 1378.00
82.0783 1446.00
82.1435 1482.00
82.2087 1531.00
82.2739 1456.00
82.3391 1450.00
82.4043 1342.00
82.4695 1293.00
82.5347 1263.00
82.5999 1159.00
82.6651 1185.00
82.7303 1164.00
82.7955 1127.00
82.8607 1346.00
82.9259 1219.00
82.9911 1303.00
83.0563 1385.00
83.1215 1342.00
83.1867 1440.00
83.2519 1491.00
83.3171 1487.00
83.3823 1429.00
83.4475 1449.00
83.5127 1448.00
83.5779 1387.00
83.6431 1516.00
83.7083 1659.00
83.7735 1572.00
83.8387 1613.00
83.9039 1523.00
83.9691 1513.00
84.0343 1521.00
84.0995 1433.00
84.1647 1435.00
84.2299 1362.00
84.2951 1401.00
84.3603 1430.00
84.4255 1468.00
84.4907 1448.00
84.5559 1559.00
84.6211 1647.00
84.6863 1588.00
84.7515 1690.00
84.8167 1591.00
84.8819 1567.00
84.9471 1547.00
85.0123 1384.00
85.0775 1373.00
85.1427 1333.00
85.2079 1321.00
85.2731 1288.00
85.3383 1352.00
85.4035 1281.00
85.4687 1354.00
85.5339 1432.00
85.5991 1443.00
85.6643 1385.00
85.7295 1409.00
85.7946 1341.00
85.8598 1294.00
85.925 1236.00
85.9903 1180.00
86.0554 1099.00
86.1206 1225.00
86.1858 1255.00
86.251 1198.00
86.3162 1197.00
86.3814 1143.00
86.4466 1214.00
86.5118 1184.00
86.577 1248.00
86.6422 1282.00
86.7074 1354.00
86.7726 1404.00
86.8378 1388.00
86.903 1250.00
86.9682 1337.00
87.0334 1357.00
87.0986 1274.00
87.1638 1297.00
87.229 1216.00
87.2942 1083.00
87.3594 1113.00
87.4246 1155.00
87.4898 1173.00
87.555 1181.00
87.6202 1202.00
87.6854 1253.00
87.7506 1190.00
87.8158 1223.00
87.881 1251.00
87.9462 1289.00
88.0114 1285.00
88.0766 1441.00
88.1418 1506.00
88.207 1512.00
88.2722 1427.00
88.3374 1495.00
88.4026 1431.00
88.4678 1490.00
88.533 1423.00
88.5982 1385.00
88.6634 1537.00
88.7286 1513.00
88.7938 1515.00
88.859 1560.00
88.9242 1660.00
88.9894 1610.00
89.0546 1633.00
89.1198 1697.00
89.185 1651.00
89.2502 1608.00
89.3154 1641.00
89.3806 1472.00
89.4458 1504.00
89.511 1450.00
89.5762 1425.00
89.6414 1348.00
89.7066 1373.00
89.7718 1329.00
89.837 1313.00
89.9022 1367.00
89.9674 1414.00
90.0326 1405.00
90.0978 1414.00
90.163 1421.00
90.2282 1423.00
90.2934 1473.00
90.3586 1559.00
90.4238 1529.00
90.489 1657.00
90.5542 1561.00
90.6193 1632.00
90.6845 1540.00
90.7497 1539.00
90.8149 1493.00
90.8801 1409.00
90.9453 1393.00
91.0105 1339.00
91.0757 1332.00
91.1409 1260.00
91.2061 1288.00
91.2713 1291.00
91.3365 1292.00
91.4017 1285.00
91.4669 1322.00
91.5321 1260.00
91.5973 1271.00
91.6625 1335.00
91.7277 1371.00
91.7929 1260.00
91.8581 1297.00
91.9233 1357.00
91.9885 1334.00
92.0537 1312.00
92.1189 1289.00
92.1841 1289.00
92.2493 1307.00
92.3145 1292.00
92.3797 1320.00
92.4449 1238.00
92.5101 1274.00
92.5753 1217.00
92.6405 1212.00
92.7057 1210.00
92.7709 1178.00
92.8361 1159.00
92.9013 1197.00
92.9665 1210.00
93.0317 1230.00
93.0969 1168.00
93.1621 1230.00
93.2273 1207.00
93.2925 1195.00
93.3577 1166.00
93.4229 1210.00
93.4881 1227.00
93.5533 1228.00
93.6185 1312.00
93.6837 1249.00
93.7489 1223.00
93.8141 1245.00
93.8793 1270.00
93.9445 1275.00
94.0097 1256.00
94.0749 1230.00
94.1401 1269.00
94.2053 1238.00
94.2705 1204.00
94.3357 1281.00
94.4009 1341.00
94.4661 1457.00
94.5313 1408.00
94.5965 1446.00
94.6617 1382.00
94.7269 1370.00
94.7921 1455.00
94.8573 1412.00
94.9225 1381.00
94.9877 1331.00
95.0529 1471.00
95.1181 1525.00
95.1833 1472.00
95.2485 1402.00
95.3137 1417.00
95.3789 1418.00
95.444 1466.00
95.5092 1497.00
95.5744 1510.00
95.6396 1460.00
95.7048 1548.00
95.77 1569.00
95.8352 1561.00
95.9004 1677.00
95.9656 1573.00
96.0308 1571.00
96.096 1542.00
96.1612 1481.00
96.2264 1434.00
96.2916 1518.00
96.3568 1370.00
96.422 1412.00
96.4872 1371.00
96.5524 1358.00
96.6176 1398.00
96.6828 1393.00
96.748 1474.00
96.8132 1539.00
96.8784 1623.00
96.9436 1626.00
97.0088 1575.00
97.074 1565.00
97.1392 1602.00
97.2044 1724.00
97.2696 1855.00
97.3348 1870.00
97.4 1956.00
97.4652 1839.00
97.5304 1837.00
97.5956 1870.00
97.6608 1899.00
97.726 1892.00
97.7912 1837.00
97.8564 1704.00
97.9216 1594.00
97.9868 1474.00
98.052 1494.00
98.1172 1484.00
98.1824 1403.00
98.2476 1424.00
98.3128 1366.00
98.378 1335.00
98.4432 1337.00
98.5084 1299.00
98.5736 1405.00
98.6388 1437.00
98.704 1447.00
98.7692 1487.00
98.8344 1558.00
98.8996 1535.00
98.9648 1607.00
99.03 1554.00
99.0952 1490.00
99.1604 1568.00
99.2256 1573.00
99.2908 1582.00
99.356 1543.00
99.4212 1621.00
99.4864 1627.00
99.5516 1568.00
99.6168 1624.00
99.682 1553.00
99.7472 1576.00
99.8124 1607.00
99.8776 1661.00
99.9428 1677.00
100.008 1750.00
100.073 1829.00
100.095 1740.00