File: data/xrd_creation/results/PG_1849-1.xy
9.903433 2527.00
9.968632 2517.00
10.0338 2478.00
10.099 2463.00
10.1642 2380.00
10.2294 2463.00
10.2946 2420.00
10.3598 2287.00
10.425 2304.00
10.4902 2268.00
10.5554 2184.00
10.6206 2165.00
10.6858 2254.00
10.751 2174.00
10.8162 2141.00
10.8814 2214.00
10.9466 2198.00
11.0118 2174.00
11.077 2088.00
11.1422 2126.00
11.2074 2092.00
11.2726 2127.00
11.3378 2125.00
11.403 2068.00
11.4682 1925.00
11.5334 1989.00
11.5986 1969.00
11.6638 2012.00
11.729 1915.00
11.7942 2018.00
11.8594 1968.00
11.9246 1889.00
11.9898 1875.00
12.055 1840.00
12.1202 1879.00
12.1854 1827.00
12.2506 1759.00
12.3158 1846.00
12.381 1738.00
12.4462 1793.00
12.5114 1756.00
12.5766 1804.00
12.6418 1673.00
12.707 1735.00
12.7722 1756.00
12.8374 1725.00
12.9026 1716.00
12.9678 1647.00
13.033 1726.00
13.0982 1806.00
13.1634 1758.00
13.2286 1703.00
13.2938 1798.00
13.359 1732.00
13.4242 1844.00
13.4894 2041.00
13.5546 2274.00
13.6198 2008.00
13.685 1604.00
13.7502 1653.00
13.8154 1626.00
13.8805 1600.00
13.9457 1571.00
14.0109 1539.00
14.0761 1514.00
14.1413 1536.00
14.2065 1506.00
14.2717 1575.00
14.3369 1476.00
14.4021 1483.00
14.4673 1509.00
14.5325 1629.00
14.5977 1566.00
14.6629 1703.00
14.7281 1868.00
14.7933 1969.00
14.8585 2253.00
14.9237 2799.00
14.9889 3148.00
15.0541 2053.00
15.1193 1501.00
15.1845 1460.00
15.2497 1494.00
15.3149 1432.00
15.3801 1447.00
15.4453 1517.00
15.5105 1460.00
15.5757 1397.00
15.6409 1405.00
15.7061 1365.00
15.7713 1401.00
15.8365 1401.00
15.9017 1451.00
15.9669 1361.00
16.0321 1404.00
16.0973 1429.00
16.1625 1356.00
16.2277 1326.00
16.2929 1354.00
16.3581 1341.00
16.4233 1329.00
16.4885 1433.00
16.5537 1325.00
16.6189 1279.00
16.6841 1237.00
16.7493 1295.00
16.8145 1302.00
16.8797 1363.00
16.9449 1268.00
17.0101 1330.00
17.0753 1347.00
17.1405 1295.00
17.2057 1240.00
17.2709 1302.00
17.3361 1305.00
17.4013 1317.00
17.4665 1292.00
17.5317 1246.00
17.5969 1323.00
17.6621 1292.00
17.7273 1287.00
17.7925 1238.00
17.8577 1220.00
17.9229 1244.00
17.9881 1247.00
18.0533 1213.00
18.1185 1246.00
18.1837 1182.00
18.2489 1198.00
18.3141 1268.00
18.3793 1217.00
18.4445 1272.00
18.5097 1221.00
18.5749 1370.00
18.6401 1440.00
18.7052 1545.00
18.7704 1630.00
18.8356 1698.00
18.9008 2136.00
18.966 2547.00
19.0312 1985.00
19.0964 1292.00
19.1616 1280.00
19.2268 1247.00
19.292 1222.00
19.3572 1206.00
19.4224 1203.00
19.4876 1237.00
19.5528 1342.00
19.618 1482.00
19.6832 1591.00
19.7484 2080.00
19.8136 2853.00
19.8788 3982.00
19.944 2734.00
20.0092 1421.00
20.0744 1190.00
20.1396 1169.00
20.2048 1145.00
20.27 1119.00
20.3352 1129.00
20.4004 1094.00
20.4656 1152.00
20.5308 1099.00
20.596 1166.00
20.6612 1181.00
20.7264 1290.00
20.7916 1363.00
20.8568 1625.00
20.922 1915.00
20.9872 2509.00
21.0524 3738.00
21.1176 5926.00
21.1828 3971.00
21.248 1611.00
21.3132 1270.00
21.3784 1198.00
21.4436 1205.00
21.5088 1252.00
21.574 1395.00
21.6392 1455.00
21.7044 1718.00
21.7696 2328.00
21.8348 2601.00
21.9 3176.00
21.9652 4647.00
22.0304 6503.00
22.0956 6121.00
22.1608 7260.00
22.226 7306.00
22.2912 8873.00
22.3564 9185.00
22.4216 5488.00
22.4868 2247.00
22.552 1433.00
22.6172 1320.00
22.6824 1248.00
22.7476 1181.00
22.8128 1208.00
22.878 1339.00
22.9432 1508.00
23.0084 2087.00
23.0736 2490.00
23.1388 1995.00
23.204 1777.00
23.2692 1926.00
23.3344 2148.00
23.3996 2682.00
23.4647 2328.00
23.5299 1469.00
23.5951 1251.00
23.6603 1477.00
23.7255 1676.00
23.7907 1833.00
23.8559 2411.00
23.9211 2803.00
23.9863 2138.00
24.0515 1980.00
24.1167 2594.00
24.1819 3732.00
24.2471 3661.00
24.3123 2264.00
24.3775 1472.00
24.4427 1299.00
24.5079 1538.00
24.5731 1979.00
24.6383 2955.00
24.7035 3080.00
24.7687 2894.00
24.8339 3971.00
24.8991 6490.00
24.9643 6133.00
25.0295 2841.00
25.0947 1300.00
25.1599 1135.00
25.2251 1121.00
25.2903 1032.00
25.3555 1068.00
25.4207 1006.00
25.4859 1075.00
25.5511 1208.00
25.6163 1292.00
25.6815 1432.00
25.7467 1596.00
25.8119 1728.00
25.8771 1319.00
25.9423 1005.00
26.0075 903.00
26.0727 979.00
26.1379 1013.00
26.2031 1036.00
26.2683 1106.00
26.3335 1221.00
26.3987 1336.00
26.4639 2098.00
26.5291 3357.00
26.5943 6212.00
26.6595 5566.00
26.7247 2571.00
26.7899 1525.00
26.8551 1887.00
26.9203 2439.00
26.9855 3412.00
27.0507 2487.00
27.1159 1300.00
27.1811 1041.00
27.2463 1052.00
27.3115 1081.00
27.3767 1390.00
27.4419 1890.00
27.5071 1720.00
27.5723 1428.00
27.6375 1071.00
27.7027 860.00
27.7679 876.00
27.8331 836.00
27.8983 826.00
27.9635 805.00
28.0287 784.00
28.0939 812.00
28.1591 767.00
28.2243 795.00
28.2894 757.00
28.3546 819.00
28.4198 767.00
28.485 842.00
28.5502 802.00
28.6154 808.00
28.6806 853.00
28.7458 946.00
28.811 1049.00
28.8762 1326.00
28.9414 1458.00
29.0066 1918.00
29.0718 2551.00
29.137 3607.00
29.2022 4205.00
29.2674 3346.00
29.3326 1978.00
29.3978 1270.00
29.463 962.00
29.5282 936.00
29.5934 897.00
29.6586 934.00
29.7238 1150.00
29.789 1582.00
29.8542 2243.00
29.9194 2267.00
29.9846 1533.00
30.0498 1389.00
30.115 1430.00
30.1802 1494.00
30.2454 1490.00
30.3106 1982.00
30.3758 3486.00
30.441 3396.00
30.5062 2103.00
30.5714 1227.00
30.6366 1263.00
30.7018 1650.00
30.767 2813.00
30.8322 5409.00
30.8974 7487.00
30.9626 4436.00
31.0278 1760.00
31.093 1085.00
31.1582 975.00
31.2234 856.00
31.2886 783.00
31.3538 739.00
31.419 760.00
31.4842 685.00
31.5494 765.00
31.6146 781.00
31.6798 868.00
31.745 814.00
31.8102 811.00
31.8754 717.00
31.9406 726.00
32.0058 796.00
32.071 762.00
32.1362 773.00
32.2014 785.00
32.2666 801.00
32.3318 867.00
32.397 992.00
32.4622 1457.00
32.5274 2261.00
32.5926 3930.00
32.6578 3618.00
32.723 3035.00
32.7882 3900.00
32.8534 6570.00
32.9186 7760.00
32.9838 5915.00
33.0489 3322.00
33.1141 2123.00
33.1793 1486.00
33.2445 1085.00
33.3097 955.00
33.3749 1022.00
33.4401 1123.00
33.5053 1468.00
33.5705 1718.00
33.6357 1208.00
33.7009 1009.00
33.7661 1017.00
33.8313 1318.00
33.8965 1466.00
33.9617 1513.00
34.0269 1273.00
34.0921 983.00
34.1573 1079.00
34.2225 1309.00
34.2877 1669.00
34.3529 1779.00
34.4181 2152.00
34.4833 2039.00
34.5485 1718.00
34.6137 1575.00
34.6789 1530.00
34.7441 1682.00
34.8093 1473.00
34.8745 1151.00
34.9397 989.00
35.0049 805.00
35.0701 889.00
35.1353 1005.00
35.2005 1068.00
35.2657 890.00
35.3309 785.00
35.3961 670.00
35.4613 789.00
35.5265 824.00
35.5917 977.00
35.6569 1502.00
35.7221 2524.00
35.7873 2587.00
35.8525 1907.00
35.9177 1388.00
35.9829 1516.00
36.0481 1671.00
36.1133 1590.00
36.1785 1852.00
36.2437 1962.00
36.3089 1960.00
36.3741 1711.00
36.4393 1319.00
36.5045 970.00
36.5697 926.00
36.6349 912.00
36.7001 923.00
36.7653 978.00
36.8305 885.00
36.8957 749.00
36.9609 653.00
37.0261 629.00
37.0913 581.00
37.1565 607.00
37.2217 581.00
37.2869 629.00
37.3521 601.00
37.4173 586.00
37.4825 565.00
37.5477 601.00
37.6129 576.00
37.6781 610.00
37.7433 577.00
37.8085 637.00
37.8736 669.00
37.9388 836.00
38.004 1008.00
38.0692 926.00
38.1344 724.00
38.1996 647.00
38.2648 623.00
38.33 668.00
38.3952 751.00
38.4604 877.00
38.5256 973.00
38.5908 960.00
38.656 920.00
38.7212 1063.00
38.7864 1486.00
38.8516 1225.00
38.9168 1052.00
38.982 738.00
39.0472 645.00
39.1124 708.00
39.1776 808.00
39.2428 1076.00
39.308 1499.00
39.3732 2348.00
39.4384 3258.00
39.5036 2139.00
39.5688 1512.00
39.634 1082.00
39.6992 1165.00
39.7644 1166.00
39.8296 1202.00
39.8948 1263.00
39.96 1677.00
40.0252 2126.00
40.0904 1857.00
40.1556 1553.00
40.2208 986.00
40.286 726.00
40.3512 740.00
40.4164 799.00
40.4816 949.00
40.5468 1024.00
40.612 1022.00
40.6772 1056.00
40.7424 1242.00
40.8076 1364.00
40.8728 976.00
40.938 795.00
41.0032 695.00
41.0684 606.00
41.1336 586.00
41.1988 645.00
41.264 613.00
41.3292 554.00
41.3944 521.00
41.4596 601.00
41.5248 630.00
41.59 757.00
41.6552 859.00
41.7204 905.00
41.7856 790.00
41.8508 672.00
41.916 681.00
41.9812 744.00
42.0464 889.00
42.1116 1115.00
42.1768 1109.00
42.242 992.00
42.3072 872.00
42.3724 716.00
42.4376 698.00
42.5028 581.00
42.568 602.00
42.6332 616.00
42.6983 598.00
42.7635 575.00
42.8287 767.00
42.8939 825.00
42.9591 929.00
43.0243 958.00
43.0895 1167.00
43.1547 1605.00
43.2199 1824.00
43.2851 1610.00
43.3503 1433.00
43.4155 1075.00
43.4807 1028.00
43.5459 821.00
43.6111 949.00
43.6763 1129.00
43.7415 1195.00
43.8067 1167.00
43.8719 913.00
43.9371 863.00
44.0023 871.00
44.0675 841.00
44.1327 789.00
44.1979 748.00
44.2631 660.00
44.3283 725.00
44.3935 708.00
44.4587 910.00
44.5239 1205.00
44.5891 1083.00
44.6543 1040.00
44.7195 820.00
44.7847 810.00
44.8499 773.00
44.9151 771.00
44.9803 860.00
45.0455 1116.00
45.1107 1442.00
45.1759 1290.00
45.2411 1269.00
45.3063 1149.00
45.3715 1150.00
45.4367 1076.00
45.5019 839.00
45.5671 846.00
45.6323 684.00
45.6975 766.00
45.7627 693.00
45.8279 717.00
45.8931 841.00
45.9583 1246.00
46.0235 1170.00
46.0887 1392.00
46.1539 1587.00
46.2191 1591.00
46.2843 1418.00
46.3495 1173.00
46.4147 898.00
46.4799 737.00
46.5451 645.00
46.6103 706.00
46.6755 979.00
46.7407 1340.00
46.8059 1062.00
46.8711 982.00
46.9363 702.00
47.0015 594.00
47.0667 710.00
47.1319 714.00
47.1971 896.00
47.2623 931.00
47.3275 938.00
47.3927 1037.00
47.4579 1063.00
47.523 1145.00
47.5882 1012.00
47.6534 838.00
47.7186 724.00
47.7838 589.00
47.849 586.00
47.9142 558.00
47.9794 543.00
48.0446 518.00
48.1098 626.00
48.175 696.00
48.2402 716.00
48.3054 769.00
48.3706 841.00
48.4358 1071.00
48.501 1352.00
48.5662 1480.00
48.6314 1297.00
48.6966 1102.00
48.7618 856.00
48.827 871.00
48.8922 883.00
48.9574 833.00
49.0226 874.00
49.0878 773.00
49.153 724.00
49.2182 644.00
49.2834 672.00
49.3486 630.00
49.4138 698.00
49.479 785.00
49.5442 902.00
49.6094 830.00
49.6746 859.00
49.7398 834.00
49.805 1025.00
49.8702 1045.00
49.9354 1017.00
50.0006 821.00
50.0658 814.00
50.131 974.00
50.1962 1254.00
50.2614 1089.00
50.3266 1307.00
50.3918 1716.00
50.457 1939.00
50.5222 1780.00
50.5874 1887.00
50.6526 1874.00
50.7178 2258.00
50.783 2417.00
50.8482 2160.00
50.9134 2336.00
50.9786 2771.00
51.0438 3001.00
51.109 3527.00
51.1742 3349.00
51.2394 3813.00
51.3046 4491.00
51.3698 3112.00
51.435 2637.00
51.5002 1520.00
51.5654 1015.00
51.6306 785.00
51.6958 712.00
51.761 789.00
51.8262 938.00
51.8914 972.00
51.9566 876.00
52.0218 975.00
52.087 1126.00
52.1522 1225.00
52.2174 1256.00
52.2826 1086.00
52.3477 1021.00
52.4129 865.00
52.4781 714.00
52.5433 715.00
52.6085 807.00
52.6737 898.00
52.7389 921.00
52.8041 829.00
52.8693 712.00
52.9345 677.00
52.9997 677.00
53.0649 716.00
53.1301 817.00
53.1953 785.00
53.2605 873.00
53.3257 928.00
53.3909 954.00
53.4561 816.00
53.5213 754.00
53.5865 738.00
53.6517 831.00
53.7169 1001.00
53.7821 1110.00
53.8473 1072.00
53.9125 1088.00
53.9777 885.00
54.0429 958.00
54.1081 962.00
54.1733 1062.00
54.2385 1207.00
54.3037 1141.00
54.3689 1658.00
54.4341 2275.00
54.4993 1540.00
54.5645 1483.00
54.6297 1166.00
54.6949 791.00
54.7601 723.00
54.8253 776.00
54.8905 907.00
54.9557 979.00
55.0209 1036.00
55.0861 1033.00
55.1513 1183.00
55.2165 1574.00
55.2817 1381.00
55.3469 1263.00
55.4121 1328.00
55.4773 1248.00
55.5425 1193.00
55.6077 1193.00
55.6729 1172.00
55.7381 1005.00
55.8033 928.00
55.8685 910.00
55.9337 796.00
55.9989 838.00
56.0641 943.00
56.1293 1089.00
56.1945 1438.00
56.2597 1331.00
56.3249 1200.00
56.3901 1261.00
56.4553 1380.00
56.5205 1770.00
56.5857 1279.00
56.6509 1193.00
56.7161 998.00
56.7813 771.00
56.8465 808.00
56.9117 829.00
56.9769 946.00
57.042 1047.00
57.1073 1115.00
57.1724 1059.00
57.2376 1037.00
57.3028 856.00
57.368 707.00
57.4332 643.00
57.4984 640.00
57.5636 710.00
57.6288 861.00
57.694 803.00
57.7592 822.00
57.8244 859.00
57.8896 805.00
57.9548 845.00
58.02 1118.00
58.0852 1138.00
58.1504 921.00
58.2156 1015.00
58.2808 884.00
58.346 746.00
58.4112 803.00
58.4764 722.00
58.5416 714.00
58.6068 698.00
58.672 656.00
58.7372 722.00
58.8024 904.00
58.8676 933.00
58.9328 917.00
58.998 840.00
59.0632 781.00
59.1284 796.00
59.1936 752.00
59.2588 768.00
59.324 831.00
59.3892 1066.00
59.4544 1063.00
59.5196 1220.00
59.5848 1296.00
59.65 1215.00
59.7152 1148.00
59.7804 1189.00
59.8456 1056.00
59.9108 888.00
59.976 975.00
60.0412 1019.00
60.1064 1129.00
60.1716 1230.00
60.2368 1286.00
60.302 1295.00
60.3672 1027.00
60.4324 1014.00
60.4976 858.00
60.5628 808.00
60.628 871.00
60.6932 861.00
60.7584 902.00
60.8236 1298.00
60.8888 2232.00
60.954 2310.00
61.0192 1548.00
61.0844 1836.00
61.1496 1328.00
61.2148 1040.00
61.28 859.00
61.3452 821.00
61.4104 696.00
61.4756 760.00
61.5408 973.00
61.606 1030.00
61.6712 919.00
61.7364 1073.00
61.8016 973.00
61.8667 901.00
61.932 849.00
61.9971 781.00
62.0623 874.00
62.1275 1020.00
62.1927 1009.00
62.2579 1216.00
62.3231 1170.00
62.3883 1323.00
62.4535 1465.00
62.5187 1194.00
62.5839 1035.00
62.6491 1001.00
62.7143 993.00
62.7795 944.00
62.8447 999.00
62.9099 852.00
62.9751 1020.00
63.0403 1384.00
63.1055 1603.00
63.1707 1538.00
63.2359 1339.00
63.3011 1192.00
63.3663 943.00
63.4315 764.00
63.4967 666.00
63.5619 696.00
63.6271 688.00
63.6923 739.00
63.7575 729.00
63.8227 827.00
63.8879 1005.00
63.9531 1031.00
64.0183 853.00
64.0835 834.00
64.1487 758.00
64.2139 695.00
64.2791 651.00
64.3443 559.00
64.4095 580.00
64.4747 554.00
64.5399 542.00
64.6051 588.00
64.6703 513.00
64.7355 585.00
64.8007 579.00
64.8659 650.00
64.9311 833.00
64.9963 690.00
65.0615 651.00
65.1267 656.00
65.1919 716.00
65.2571 747.00
65.3223 927.00
65.3875 1026.00
65.4527 1126.00
65.5179 1005.00
65.5831 994.00
65.6483 976.00
65.7135 945.00
65.7787 830.00
65.8439 874.00
65.9091 901.00
65.9743 880.00
66.0395 1064.00
66.1047 1059.00
66.1699 1044.00
66.2351 1134.00
66.3003 1135.00
66.3655 974.00
66.4307 880.00
66.4959 830.00
66.561 602.00
66.6263 603.00
66.6915 551.00
66.7566 653.00
66.8218 796.00
66.887 850.00
66.9522 795.00
67.0174 882.00
67.0826 874.00
67.1478 763.00
67.213 804.00
67.2782 699.00
67.3434 621.00
67.4086 564.00
67.4738 584.00
67.539 579.00
67.6042 500.00
67.6694 556.00
67.7346 539.00
67.7998 525.00
67.865 544.00
67.9302 604.00
67.9954 614.00
68.0606 631.00
68.1258 596.00
68.191 691.00
68.2562 856.00
68.3214 924.00
68.3866 823.00
68.4518 766.00
68.517 777.00
68.5822 574.00
68.6474 541.00
68.7126 505.00
68.7778 495.00
68.843 511.00
68.9082 522.00
68.9734 577.00
69.0386 656.00
69.1038 631.00
69.169 633.00
69.2342 620.00
69.2994 560.00
69.3646 584.00
69.4298 567.00
69.495 602.00
69.5602 711.00
69.6254 670.00
69.6906 763.00
69.7558 707.00
69.821 829.00
69.8862 776.00
69.9514 702.00
70.0166 763.00
70.0818 833.00
70.147 885.00
70.2122 903.00
70.2774 709.00
70.3426 833.00
70.4078 819.00
70.473 830.00
70.5382 776.00
70.6034 731.00
70.6686 746.00
70.7338 708.00
70.799 712.00
70.8642 677.00
70.9294 615.00
70.9946 585.00
71.0598 581.00
71.125 517.00
71.1902 490.00
71.2554 504.00
71.3205 478.00
71.3858 546.00
71.451 526.00
71.5162 619.00
71.5813 646.00
71.6465 570.00
71.7117 586.00
71.7769 584.00
71.8421 663.00
71.9073 778.00
71.9725 684.00
72.0377 698.00
72.1029 670.00
72.1681 667.00
72.2333 613.00
72.2985 540.00
72.3637 538.00
72.4289 513.00
72.4941 540.00
72.5593 548.00
72.6245 519.00
72.6897 531.00
72.7549 601.00
72.8201 564.00
72.8853 546.00
72.9505 457.00
73.0157 516.00
73.0809 511.00
73.1461 535.00
73.2113 513.00
73.2765 568.00
73.3417 626.00
73.4069 578.00
73.4721 599.00
73.5373 599.00
73.6025 628.00
73.6677 570.00
73.7329 522.00
73.7981 608.00
73.8633 615.00
73.9285 579.00
73.9937 545.00
74.0589 519.00
74.1241 524.00
74.1893 429.00
74.2545 446.00
74.3197 417.00
74.3849 432.00
74.4501 447.00
74.5153 445.00
74.5805 452.00
74.6457 517.00
74.7109 540.00
74.7761 557.00
74.8413 521.00
74.9065 508.00
74.9717 485.00
75.0369 489.00
75.1021 563.00
75.1673 538.00
75.2325 716.00
75.2977 726.00
75.3629 625.00
75.4281 582.00
75.4933 600.00
75.5585 562.00
75.6237 493.00
75.6889 550.00
75.7541 627.00
75.8193 614.00
75.8845 624.00
75.9497 587.00
76.0149 619.00
76.0801 667.00
76.1452 650.00
76.2104 611.00
76.2756 632.00
76.3409 645.00
76.406 705.00
76.4712 763.00
76.5364 757.00
76.6016 935.00
76.6668 1014.00
76.732 870.00
76.7972 809.00
76.8624 874.00
76.9276 803.00
76.9928 823.00
77.058 774.00
77.1232 788.00
77.1884 856.00
77.2536 877.00
77.3188 739.00
77.384 716.00
77.4492 716.00
77.5144 601.00
77.5796 579.00
77.6448 575.00
77.71 569.00
77.7752 556.00
77.8404 605.00
77.9056 625.00
77.9708 686.00
78.036 669.00
78.1012 658.00
78.1664 638.00
78.2316 636.00
78.2968 694.00
78.362 637.00
78.4272 633.00
78.4924 653.00
78.5576 670.00
78.6228 749.00
78.688 812.00
78.7532 727.00
78.8184 676.00
78.8836 865.00
78.9488 844.00
79.014 820.00
79.0792 781.00
79.1444 695.00
79.2096 722.00
79.2748 710.00
79.34 719.00
79.4052 733.00
79.4704 682.00
79.5356 859.00
79.6008 863.00
79.666 909.00
79.7312 957.00
79.7964 911.00
79.8616 846.00
79.9268 725.00
79.992 660.00
80.0572 670.00
80.1224 618.00
80.1876 611.00
80.2528 515.00
80.318 533.00
80.3832 636.00
80.4484 612.00
80.5136 623.00
80.5788 611.00
80.644 693.00
80.7092 775.00
80.7744 746.00
80.8396 740.00
80.9048 798.00
80.9699 746.00
81.0351 647.00
81.1003 647.00
81.1655 763.00
81.2307 714.00
81.2959 621.00
81.3611 569.00
81.4263 580.00
81.4915 571.00
81.5567 569.00
81.6219 524.00
81.6871 520.00
81.7523 568.00
81.8175 577.00
81.8827 610.00
81.9479 651.00
82.0131 786.00
82.0783 750.00
82.1435 723.00
82.2087 649.00
82.2739 672.00
82.3391 728.00
82.4043 654.00
82.4695 618.00
82.5347 608.00
82.5999 625.00
82.6651 725.00
82.7303 802.00
82.7955 835.00
82.8607 811.00
82.9259 786.00
82.9911 829.00
83.0563 798.00
83.1215 751.00
83.1867 838.00
83.2519 828.00
83.3171 894.00
83.3823 926.00
83.4475 856.00
83.5127 758.00
83.5779 737.00
83.6431 806.00
83.7083 688.00
83.7735 619.00
83.8387 622.00
83.9039 763.00
83.9691 818.00
84.0343 762.00
84.0995 661.00
84.1647 684.00
84.2299 733.00
84.2951 676.00
84.3603 662.00
84.4255 641.00
84.4907 598.00
84.5559 555.00
84.6211 603.00
84.6863 613.00
84.7515 571.00
84.8167 582.00
84.8819 544.00
84.9471 592.00
85.0123 621.00
85.0775 652.00
85.1427 625.00
85.2079 633.00
85.2731 606.00
85.3383 687.00
85.4035 624.00
85.4687 595.00
85.5339 577.00
85.5991 583.00
85.6643 609.00
85.7295 578.00
85.7946 571.00
85.8598 627.00
85.925 606.00
85.9903 732.00
86.0554 729.00
86.1206 688.00
86.1858 632.00
86.251 666.00
86.3162 709.00
86.3814 731.00
86.4466 590.00
86.5118 604.00
86.577 673.00
86.6422 755.00
86.7074 684.00
86.7726 653.00
86.8378 722.00
86.903 645.00
86.9682 627.00
87.0334 595.00
87.0986 494.00
87.1638 573.00
87.229 498.00
87.2942 518.00
87.3594 528.00
87.4246 598.00
87.4898 597.00
87.555 613.00
87.6202 655.00
87.6854 622.00
87.7506 756.00
87.8158 694.00
87.881 661.00
87.9462 694.00
88.0114 751.00
88.0766 714.00
88.1418 641.00
88.207 595.00
88.2722 571.00
88.3374 505.00
88.4026 520.00
88.4678 520.00
88.533 477.00
88.5982 490.00
88.6634 557.00
88.7286 601.00
88.7938 589.00
88.859 612.00
88.9242 604.00
88.9894 606.00
89.0546 590.00
89.1198 632.00
89.185 634.00
89.2502 637.00
89.3154 724.00
89.3806 706.00
89.4458 671.00
89.511 679.00
89.5762 658.00
89.6414 643.00
89.7066 672.00
89.7718 620.00
89.837 655.00
89.9022 688.00
89.9674 709.00
90.0326 788.00
90.0978 732.00
90.163 775.00
90.2282 658.00
90.2934 676.00
90.3586 641.00
90.4238 623.00
90.489 621.00
90.5542 558.00
90.6193 537.00
90.6845 608.00
90.7497 644.00
90.8149 625.00
90.8801 568.00
90.9453 589.00
91.0105 601.00
91.0757 554.00
91.1409 579.00
91.2061 576.00
91.2713 491.00
91.3365 471.00
91.4017 542.00
91.4669 595.00
91.5321 546.00
91.5973 524.00
91.6625 507.00
91.7277 537.00
91.7929 537.00
91.8581 553.00
91.9233 555.00
91.9885 519.00
92.0537 532.00
92.1189 524.00
92.1841 543.00
92.2493 616.00
92.3145 597.00
92.3797 548.00
92.4449 533.00
92.5101 579.00
92.5753 555.00
92.6405 573.00
92.7057 541.00
92.7709 489.00
92.8361 507.00
92.9013 447.00
92.9665 468.00
93.0317 470.00
93.0969 424.00
93.1621 435.00
93.2273 460.00
93.2925 471.00
93.3577 505.00
93.4229 465.00
93.4881 497.00
93.5533 557.00
93.6185 498.00
93.6837 532.00
93.7489 474.00
93.8141 442.00
93.8793 498.00
93.9445 504.00
94.0097 520.00
94.0749 535.00
94.1401 548.00
94.2053 467.00
94.2705 506.00
94.3357 527.00
94.4009 579.00
94.4661 506.00
94.5313 541.00
94.5965 518.00
94.6617 551.00
94.7269 539.00
94.7921 548.00
94.8573 481.00
94.9225 519.00
94.9877 521.00
95.0529 495.00
95.1181 477.00
95.1833 502.00
95.2485 587.00
95.3137 598.00
95.3789 553.00
95.444 479.00
95.5092 505.00
95.5744 545.00
95.6396 573.00
95.7048 493.00
95.77 516.00
95.8352 556.00
95.9004 544.00
95.9656 516.00
96.0308 546.00
96.096 554.00
96.1612 516.00
96.2264 582.00
96.2916 530.00
96.3568 530.00
96.422 580.00
96.4872 594.00
96.5524 606.00
96.6176 684.00
96.6828 693.00
96.748 609.00
96.8132 539.00
96.8784 568.00
96.9436 545.00
97.0088 561.00
97.074 534.00
97.1392 460.00
97.2044 415.00
97.2696 484.00
97.3348 502.00
97.4 548.00
97.4652 473.00
97.5304 474.00
97.5956 534.00
97.6608 443.00
97.726 547.00
97.7912 530.00
97.8564 552.00
97.9216 663.00
97.9868 638.00
98.052 636.00
98.1172 534.00
98.1824 550.00
98.2476 593.00
98.3128 606.00
98.378 566.00
98.4432 450.00
98.5084 501.00
98.5736 461.00
98.6388 482.00
98.704 460.00
98.7692 423.00
98.8344 417.00
98.8996 443.00
98.9648 467.00
99.03 473.00
99.0952 494.00
99.1604 499.00
99.2256 482.00
99.2908 540.00
99.356 606.00
99.4212 581.00
99.4864 515.00
99.5516 504.00
99.6168 494.00
99.682 489.00
99.7472 462.00
99.8124 449.00
99.8776 485.00
99.9428 422.00
100.008 469.00
100.073 404.00
100.095 413.00