File: data/xrd_creation/results/PG_1840-1.xy
9.903433 2366.00
9.968632 2394.00
10.0338 2402.00
10.099 2414.00
10.1642 2333.00
10.2294 2394.00
10.2946 2281.00
10.3598 2232.00
10.425 2217.00
10.4902 2203.00
10.5554 2236.00
10.6206 2170.00
10.6858 2230.00
10.751 2124.00
10.8162 2201.00
10.8814 2136.00
10.9466 2011.00
11.0118 2052.00
11.077 2111.00
11.1422 2093.00
11.2074 1975.00
11.2726 2022.00
11.3378 2017.00
11.403 1974.00
11.4682 1966.00
11.5334 1883.00
11.5986 1834.00
11.6638 1883.00
11.729 1903.00
11.7942 1949.00
11.8594 1868.00
11.9246 1783.00
11.9898 1824.00
12.055 1765.00
12.1202 1898.00
12.1854 1850.00
12.2506 1815.00
12.3158 1774.00
12.381 1780.00
12.4462 1728.00
12.5114 1737.00
12.5766 1681.00
12.6418 1673.00
12.707 1741.00
12.7722 1692.00
12.8374 1628.00
12.9026 1649.00
12.9678 1691.00
13.033 1731.00
13.0982 1670.00
13.1634 1633.00
13.2286 1644.00
13.2938 1663.00
13.359 1630.00
13.4242 1547.00
13.4894 1533.00
13.5546 1545.00
13.6198 1580.00
13.685 1518.00
13.7502 1589.00
13.8154 1618.00
13.8805 1563.00
13.9457 1540.00
14.0109 1619.00
14.0761 1558.00
14.1413 1585.00
14.2065 1628.00
14.2717 1624.00
14.3369 1779.00
14.4021 1778.00
14.4673 2052.00
14.5325 2408.00
14.5977 1801.00
14.6629 1561.00
14.7281 1454.00
14.7933 1437.00
14.8585 1465.00
14.9237 1380.00
14.9889 1355.00
15.0541 1379.00
15.1193 1392.00
15.1845 1371.00
15.2497 1454.00
15.3149 1421.00
15.3801 1456.00
15.4453 1370.00
15.5105 1391.00
15.5757 1363.00
15.6409 1371.00
15.7061 1391.00
15.7713 1323.00
15.8365 1317.00
15.9017 1318.00
15.9669 1359.00
16.0321 1388.00
16.0973 1362.00
16.1625 1273.00
16.2277 1300.00
16.2929 1288.00
16.3581 1319.00
16.4233 1325.00
16.4885 1288.00
16.5537 1240.00
16.6189 1303.00
16.6841 1352.00
16.7493 1284.00
16.8145 1281.00
16.8797 1264.00
16.9449 1251.00
17.0101 1246.00
17.0753 1191.00
17.1405 1280.00
17.2057 1267.00
17.2709 1304.00
17.3361 1278.00
17.4013 1172.00
17.4665 1232.00
17.5317 1180.00
17.5969 1156.00
17.6621 1221.00
17.7273 1254.00
17.7925 1257.00
17.8577 1227.00
17.9229 1180.00
17.9881 1191.00
18.0533 1152.00
18.1185 1200.00
18.1837 1138.00
18.2489 1176.00
18.3141 1172.00
18.3793 1147.00
18.4445 1142.00
18.5097 1121.00
18.5749 1165.00
18.6401 1148.00
18.7052 1156.00
18.7704 1138.00
18.8356 1123.00
18.9008 1113.00
18.966 1141.00
19.0312 1124.00
19.0964 1219.00
19.1616 1103.00
19.2268 1120.00
19.292 1106.00
19.3572 1106.00
19.4224 1052.00
19.4876 1105.00
19.5528 1114.00
19.618 1066.00
19.6832 1078.00
19.7484 1067.00
19.8136 1109.00
19.8788 1037.00
19.944 1029.00
20.0092 1063.00
20.0744 1075.00
20.1396 1035.00
20.2048 990.00
20.27 1129.00
20.3352 1125.00
20.4004 1164.00
20.4656 1121.00
20.5308 1172.00
20.596 1009.00
20.6612 1088.00
20.7264 1061.00
20.7916 972.00
20.8568 976.00
20.922 997.00
20.9872 1057.00
21.0524 977.00
21.1176 1036.00
21.1828 1047.00
21.248 1066.00
21.3132 1008.00
21.3784 1040.00
21.4436 1058.00
21.5088 1012.00
21.574 1145.00
21.6392 1182.00
21.7044 1301.00
21.7696 1513.00
21.8348 1684.00
21.9 1226.00
21.9652 1030.00
22.0304 1076.00
22.0956 952.00
22.1608 968.00
22.226 955.00
22.2912 995.00
22.3564 891.00
22.4216 1008.00
22.4868 947.00
22.552 979.00
22.6172 944.00
22.6824 976.00
22.7476 981.00
22.8128 1005.00
22.878 1049.00
22.9432 1010.00
23.0084 935.00
23.0736 931.00
23.1388 872.00
23.204 920.00
23.2692 875.00
23.3344 894.00
23.3996 868.00
23.4647 890.00
23.5299 933.00
23.5951 883.00
23.6603 885.00
23.7255 856.00
23.7907 845.00
23.8559 867.00
23.9211 861.00
23.9863 894.00
24.0515 876.00
24.1167 855.00
24.1819 853.00
24.2471 820.00
24.3123 935.00
24.3775 892.00
24.4427 941.00
24.5079 1010.00
24.5731 980.00
24.6383 1018.00
24.7035 948.00
24.7687 931.00
24.8339 878.00
24.8991 863.00
24.9643 824.00
25.0295 865.00
25.0947 835.00
25.1599 843.00
25.2251 804.00
25.2903 836.00
25.3555 880.00
25.4207 828.00
25.4859 814.00
25.5511 835.00
25.6163 824.00
25.6815 855.00
25.7467 897.00
25.8119 911.00
25.8771 884.00
25.9423 958.00
26.0075 965.00
26.0727 1082.00
26.1379 1119.00
26.2031 1246.00
26.2683 1587.00
26.3335 1942.00
26.3987 2708.00
26.4639 3590.00
26.5291 5377.00
26.5943 8437.00
26.6595 12041.00
26.7247 9368.00
26.7899 4776.00
26.8551 2431.00
26.9203 1664.00
26.9855 1293.00
27.0507 1203.00
27.1159 1054.00
27.1811 1033.00
27.2463 1001.00
27.3115 1107.00
27.3767 1170.00
27.4419 1531.00
27.5071 1423.00
27.5723 1097.00
27.6375 892.00
27.7027 851.00
27.7679 844.00
27.8331 808.00
27.8983 786.00
27.9635 800.00
28.0287 860.00
28.0939 812.00
28.1591 799.00
28.2243 837.00
28.2894 829.00
28.3546 803.00
28.4198 833.00
28.485 860.00
28.5502 846.00
28.6154 826.00
28.6806 947.00
28.7458 1063.00
28.811 1349.00
28.8762 2047.00
28.9414 3075.00
29.0066 2015.00
29.0718 1139.00
29.137 891.00
29.2022 853.00
29.2674 864.00
29.3326 880.00
29.3978 945.00
29.463 867.00
29.5282 826.00
29.5934 779.00
29.6586 824.00
29.7238 758.00
29.789 748.00
29.8542 836.00
29.9194 798.00
29.9846 865.00
30.0498 747.00
30.115 815.00
30.1802 863.00
30.2454 842.00
30.3106 907.00
30.3758 987.00
30.441 1015.00
30.5062 1270.00
30.5714 1518.00
30.6366 1970.00
30.7018 2696.00
30.767 4097.00
30.8322 6860.00
30.8974 10494.00
30.9626 8393.00
31.0278 7521.00
31.093 7205.00
31.1582 4282.00
31.2234 1819.00
31.2886 1240.00
31.3538 1047.00
31.419 958.00
31.4842 934.00
31.5494 904.00
31.6146 919.00
31.6798 832.00
31.745 974.00
31.8102 1002.00
31.8754 971.00
31.9406 1139.00
32.0058 1290.00
32.071 1543.00
32.1362 1911.00
32.2014 2446.00
32.2666 3269.00
32.3318 4496.00
32.397 5458.00
32.4622 4493.00
32.5274 2967.00
32.5926 1975.00
32.6578 1466.00
32.723 1212.00
32.7882 997.00
32.8534 995.00
32.9186 851.00
32.9838 852.00
33.0489 738.00
33.1141 787.00
33.1793 793.00
33.2445 747.00
33.3097 791.00
33.3749 864.00
33.4401 783.00
33.5053 740.00
33.5705 696.00
33.6357 762.00
33.7009 753.00
33.7661 797.00
33.8313 813.00
33.8965 834.00
33.9617 914.00
34.0269 1028.00
34.0921 1205.00
34.1573 1600.00
34.2225 2268.00
34.2877 3586.00
34.3529 4143.00
34.4181 2976.00
34.4833 1773.00
34.5485 1119.00
34.6137 865.00
34.6789 806.00
34.7441 721.00
34.8093 717.00
34.8745 708.00
34.9397 664.00
35.0049 647.00
35.0701 652.00
35.1353 684.00
35.2005 717.00
35.2657 701.00
35.3309 732.00
35.3961 734.00
35.4613 848.00
35.5265 939.00
35.5917 1195.00
35.6569 1646.00
35.7221 2642.00
35.7873 3198.00
35.8525 2260.00
35.9177 1351.00
35.9829 919.00
36.0481 699.00
36.1133 698.00
36.1785 690.00
36.2437 664.00
36.3089 616.00
36.3741 611.00
36.4393 578.00
36.5045 617.00
36.5697 586.00
36.6349 578.00
36.7001 591.00
36.7653 612.00
36.8305 608.00
36.8957 686.00
36.9609 753.00
37.0261 785.00
37.0913 812.00
37.1565 694.00
37.2217 598.00
37.2869 581.00
37.3521 575.00
37.4173 565.00
37.4825 596.00
37.5477 621.00
37.6129 628.00
37.6781 576.00
37.7433 599.00
37.8085 668.00
37.8736 694.00
37.9388 886.00
38.004 1098.00
38.0692 891.00
38.1344 793.00
38.1996 597.00
38.2648 595.00
38.33 579.00
38.3952 605.00
38.4604 550.00
38.5256 578.00
38.5908 539.00
38.656 570.00
38.7212 537.00
38.7864 521.00
38.8516 542.00
38.9168 532.00
38.982 552.00
39.0472 579.00
39.1124 556.00
39.1776 542.00
39.2428 542.00
39.308 594.00
39.3732 576.00
39.4384 677.00
39.5036 758.00
39.5688 979.00
39.634 1064.00
39.6992 886.00
39.7644 750.00
39.8296 718.00
39.8948 651.00
39.96 715.00
40.0252 873.00
40.0904 1156.00
40.1556 1604.00
40.2208 1230.00
40.286 950.00
40.3512 670.00
40.4164 550.00
40.4816 617.00
40.5468 527.00
40.612 603.00
40.6772 518.00
40.7424 524.00
40.8076 528.00
40.8728 626.00
40.938 510.00
41.0032 588.00
41.0684 583.00
41.1336 626.00
41.1988 653.00
41.264 636.00
41.3292 610.00
41.3944 606.00
41.4596 555.00
41.5248 572.00
41.59 540.00
41.6552 521.00
41.7204 522.00
41.7856 573.00
41.8508 579.00
41.916 575.00
41.9812 604.00
42.0464 717.00
42.1116 906.00
42.1768 887.00
42.242 821.00
42.3072 631.00
42.3724 593.00
42.4376 585.00
42.5028 556.00
42.568 529.00
42.6332 516.00
42.6983 576.00
42.7635 548.00
42.8287 549.00
42.8939 520.00
42.9591 518.00
43.0243 494.00
43.0895 532.00
43.1547 544.00
43.2199 523.00
43.2851 550.00
43.3503 540.00
43.4155 479.00
43.4807 552.00
43.5459 576.00
43.6111 544.00
43.6763 569.00
43.7415 613.00
43.8067 734.00
43.8719 675.00
43.9371 643.00
44.0023 597.00
44.0675 630.00
44.1327 610.00
44.1979 594.00
44.2631 632.00
44.3283 645.00
44.3935 653.00
44.4587 678.00
44.5239 708.00
44.5891 841.00
44.6543 991.00
44.7195 1210.00
44.7847 1494.00
44.8499 1565.00
44.9151 1385.00
44.9803 1139.00
45.0455 903.00
45.1107 707.00
45.1759 654.00
45.2411 605.00
45.3063 603.00
45.3715 645.00
45.4367 590.00
45.5019 570.00
45.5671 605.00
45.6323 609.00
45.6975 623.00
45.7627 722.00
45.8279 808.00
45.8931 1071.00
45.9583 1454.00
46.0235 1368.00
46.0887 1338.00
46.1539 1297.00
46.2191 1385.00
46.2843 1755.00
46.3495 1684.00
46.4147 1531.00
46.4799 1288.00
46.5451 1105.00
46.6103 960.00
46.6755 791.00
46.7407 726.00
46.8059 661.00
46.8711 576.00
46.9363 549.00
47.0015 582.00
47.0667 553.00
47.1319 570.00
47.1971 607.00
47.2623 585.00
47.3275 597.00
47.3927 642.00
47.4579 754.00
47.523 801.00
47.5882 998.00
47.6534 1460.00
47.7186 2638.00
47.7838 3701.00
47.849 2404.00
47.9142 2169.00
47.9794 1094.00
48.0446 708.00
48.1098 677.00
48.175 619.00
48.2402 645.00
48.3054 609.00
48.3706 588.00
48.4358 668.00
48.501 536.00
48.5662 587.00
48.6314 573.00
48.6966 560.00
48.7618 543.00
48.827 552.00
48.8922 532.00
48.9574 572.00
49.0226 577.00
49.0878 521.00
49.153 529.00
49.2182 606.00
49.2834 602.00
49.3486 584.00
49.4138 687.00
49.479 786.00
49.5442 896.00
49.6094 945.00
49.6746 889.00
49.7398 957.00
49.805 1034.00
49.8702 1258.00
49.9354 1597.00
50.0006 2063.00
50.0658 2567.00
50.131 2492.00
50.1962 2236.00
50.2614 1748.00
50.3266 1361.00
50.3918 1011.00
50.457 916.00
50.5222 817.00
50.5874 821.00
50.6526 726.00
50.7178 720.00
50.783 719.00
50.8482 698.00
50.9134 734.00
50.9786 826.00
51.0438 1030.00
51.109 1241.00
51.1742 1640.00
51.2394 2815.00
51.3046 4233.00
51.3698 2822.00
51.435 2679.00
51.5002 1666.00
51.5654 991.00
51.6306 838.00
51.6958 742.00
51.761 693.00
51.8262 711.00
51.8914 685.00
51.9566 708.00
52.0218 769.00
52.087 978.00
52.1522 1222.00
52.2174 1761.00
52.2826 3544.00
52.3477 5494.00
52.4129 3095.00
52.4781 3339.00
52.5433 1604.00
52.6085 937.00
52.6737 696.00
52.7389 723.00
52.8041 666.00
52.8693 711.00
52.9345 801.00
52.9997 845.00
53.0649 801.00
53.1301 791.00
53.1953 768.00
53.2605 729.00
53.3257 729.00
53.3909 710.00
53.4561 608.00
53.5213 632.00
53.5865 569.00
53.6517 573.00
53.7169 577.00
53.7821 533.00
53.8473 594.00
53.9125 557.00
53.9777 597.00
54.0429 640.00
54.1081 674.00
54.1733 609.00
54.2385 573.00
54.3037 624.00
54.3689 602.00
54.4341 680.00
54.4993 682.00
54.5645 684.00
54.6297 701.00
54.6949 653.00
54.7601 615.00
54.8253 561.00
54.8905 482.00
54.9557 534.00
55.0209 531.00
55.0861 542.00
55.1513 590.00
55.2165 539.00
55.2817 490.00
55.3469 550.00
55.4121 558.00
55.4773 513.00
55.5425 480.00
55.6077 527.00
55.6729 514.00
55.7381 530.00
55.8033 535.00
55.8685 558.00
55.9337 592.00
55.9989 623.00
56.0641 695.00
56.1293 890.00
56.1945 1508.00
56.2597 2382.00
56.3249 1315.00
56.3901 1483.00
56.4553 1129.00
56.5205 699.00
56.5857 682.00
56.6509 791.00
56.7161 646.00
56.7813 611.00
56.8465 622.00
56.9117 573.00
56.9769 537.00
57.042 552.00
57.1073 544.00
57.1724 502.00
57.2376 479.00
57.3028 505.00
57.368 522.00
57.4332 516.00
57.4984 520.00
57.5636 523.00
57.6288 587.00
57.694 613.00
57.7592 693.00
57.8244 701.00
57.8896 767.00
57.9548 774.00
58.02 783.00
58.0852 914.00
58.1504 1129.00
58.2156 1315.00
58.2808 1605.00
58.346 1612.00
58.4112 1430.00
58.4764 1257.00
58.5416 1023.00
58.6068 857.00
58.672 827.00
58.7372 669.00
58.8024 665.00
58.8676 609.00
58.9328 618.00
58.998 595.00
59.0632 611.00
59.1284 552.00
59.1936 665.00
59.2588 594.00
59.324 847.00
59.3892 1082.00
59.4544 1187.00
59.5196 1683.00
59.5848 1211.00
59.65 1140.00
59.7152 1096.00
59.7804 776.00
59.8456 668.00
59.9108 654.00
59.976 572.00
60.0412 592.00
60.1064 615.00
60.1716 688.00
60.2368 594.00
60.302 707.00
60.3672 766.00
60.4324 801.00
60.4976 882.00
60.5628 1054.00
60.628 1291.00
60.6932 1525.00
60.7584 1838.00
60.8236 2164.00
60.8888 3112.00
60.954 3459.00
61.0192 2167.00
61.0844 2135.00
61.1496 1606.00
61.2148 1086.00
61.28 853.00
61.3452 840.00
61.4104 808.00
61.4756 788.00
61.5408 797.00
61.606 788.00
61.6712 670.00
61.7364 691.00
61.8016 589.00
61.8667 596.00
61.932 540.00
61.9971 535.00
62.0623 508.00
62.1275 529.00
62.1927 559.00
62.2579 623.00
62.3231 647.00
62.3883 857.00
62.4535 1016.00
62.5187 794.00
62.5839 784.00
62.6491 752.00
62.7143 588.00
62.7795 550.00
62.8447 527.00
62.9099 574.00
62.9751 528.00
63.0403 633.00
63.1055 588.00
63.1707 649.00
63.2359 691.00
63.3011 788.00
63.3663 799.00
63.4315 846.00
63.4967 943.00
63.5619 927.00
63.6271 867.00
63.6923 832.00
63.7575 901.00
63.8227 823.00
63.8879 968.00
63.9531 1022.00
64.0183 896.00
64.0835 877.00
64.1487 748.00
64.2139 754.00
64.2791 805.00
64.3443 1027.00
64.4095 731.00
64.4747 755.00
64.5399 674.00
64.6051 558.00
64.6703 548.00
64.7355 549.00
64.8007 463.00
64.8659 427.00
64.9311 441.00
64.9963 510.00
65.0615 487.00
65.1267 491.00
65.1919 521.00
65.2571 592.00
65.3223 581.00
65.3875 703.00
65.4527 622.00
65.5179 593.00
65.5831 605.00
65.6483 573.00
65.7135 557.00
65.7787 569.00
65.8439 540.00
65.9091 623.00
65.9743 695.00
66.0395 720.00
66.1047 1020.00
66.1699 1369.00
66.2351 1996.00
66.3003 1862.00
66.3655 1399.00
66.4307 1504.00
66.4959 1182.00
66.561 798.00
66.6263 686.00
66.6915 601.00
66.7566 621.00
66.8218 607.00
66.887 571.00
66.9522 543.00
67.0174 592.00
67.0826 538.00
67.1478 494.00
67.213 482.00
67.2782 506.00
67.3434 450.00
67.4086 488.00
67.4738 495.00
67.539 465.00
67.6042 464.00
67.6694 458.00
67.7346 474.00
67.7998 436.00
67.865 477.00
67.9302 458.00
67.9954 484.00
68.0606 513.00
68.1258 589.00
68.191 592.00
68.2562 715.00
68.3214 762.00
68.3866 715.00
68.4518 784.00
68.517 845.00
68.5822 647.00
68.6474 626.00
68.7126 624.00
68.7778 567.00
68.843 518.00
68.9082 465.00
68.9734 473.00
69.0386 583.00
69.1038 580.00
69.169 494.00
69.2342 469.00
69.2994 474.00
69.3646 485.00
69.4298 481.00
69.495 518.00
69.5602 485.00
69.6254 580.00
69.6906 644.00
69.7558 649.00
69.821 659.00
69.8862 750.00
69.9514 875.00
70.0166 951.00
70.0818 766.00
70.147 770.00
70.2122 755.00
70.2774 624.00
70.3426 558.00
70.4078 520.00
70.473 482.00
70.5382 495.00
70.6034 512.00
70.6686 457.00
70.7338 485.00
70.799 437.00
70.8642 463.00
70.9294 478.00
70.9946 505.00
71.0598 494.00
71.125 468.00
71.1902 496.00
71.2554 478.00
71.3205 462.00
71.3858 495.00
71.451 478.00
71.5162 476.00
71.5813 484.00
71.6465 452.00
71.7117 480.00
71.7769 547.00
71.8421 509.00
71.9073 550.00
71.9725 593.00
72.0377 660.00
72.1029 789.00
72.1681 891.00
72.2333 1005.00
72.2985 928.00
72.3637 855.00
72.4289 792.00
72.4941 722.00
72.5593 621.00
72.6245 578.00
72.6897 519.00
72.7549 562.00
72.8201 512.00
72.8853 516.00
72.9505 467.00
73.0157 485.00
73.0809 485.00
73.1461 498.00
73.2113 469.00
73.2765 493.00
73.3417 498.00
73.4069 482.00
73.4721 498.00
73.5373 513.00
73.6025 531.00
73.6677 583.00
73.7329 661.00
73.7981 662.00
73.8633 774.00
73.9285 848.00
73.9937 838.00
74.0589 782.00
74.1241 837.00
74.1893 737.00
74.2545 710.00
74.3197 607.00
74.3849 582.00
74.4501 539.00
74.5153 540.00
74.5805 525.00
74.6457 501.00
74.7109 513.00
74.7761 473.00
74.8413 474.00
74.9065 527.00
74.9717 567.00
75.0369 539.00
75.1021 550.00
75.1673 636.00
75.2325 762.00
75.2977 876.00
75.3629 824.00
75.4281 924.00
75.4933 1093.00
75.5585 1082.00
75.6237 870.00
75.6889 799.00
75.7541 788.00
75.8193 673.00
75.8845 560.00
75.9497 571.00
76.0149 507.00
76.0801 485.00
76.1452 494.00
76.2104 511.00
76.2756 542.00
76.3409 508.00
76.406 601.00
76.4712 634.00
76.5364 898.00
76.6016 1401.00
76.6668 1362.00
76.732 926.00
76.7972 974.00
76.8624 1030.00
76.9276 769.00
76.9928 653.00
77.058 576.00
77.1232 516.00
77.1884 512.00
77.2536 445.00
77.3188 448.00
77.384 427.00
77.4492 488.00
77.5144 468.00
77.5796 436.00
77.6448 430.00
77.71 468.00
77.7752 488.00
77.8404 472.00
77.9056 482.00
77.9708 595.00
78.036 620.00
78.1012 507.00
78.1664 511.00
78.2316 533.00
78.2968 502.00
78.362 493.00
78.4272 430.00
78.4924 528.00
78.5576 480.00
78.6228 448.00
78.688 487.00
78.7532 451.00
78.8184 506.00
78.8836 486.00
78.9488 469.00
79.014 473.00
79.0792 537.00
79.1444 538.00
79.2096 529.00
79.2748 581.00
79.34 640.00
79.4052 629.00
79.4704 598.00
79.5356 573.00
79.6008 644.00
79.666 577.00
79.7312 561.00
79.7964 525.00
79.8616 533.00
79.9268 550.00
79.992 512.00
80.0572 526.00
80.1224 515.00
80.1876 511.00
80.2528 557.00
80.318 531.00
80.3832 476.00
80.4484 452.00
80.5136 477.00
80.5788 494.00
80.644 575.00
80.7092 640.00
80.7744 612.00
80.8396 635.00
80.9048 658.00
80.9699 651.00
81.0351 610.00
81.1003 554.00
81.1655 564.00
81.2307 518.00
81.2959 505.00
81.3611 505.00
81.4263 493.00
81.4915 480.00
81.5567 514.00
81.6219 434.00
81.6871 513.00
81.7523 501.00
81.8175 524.00
81.8827 532.00
81.9479 635.00
82.0131 693.00
82.0783 741.00
82.1435 667.00
82.2087 593.00
82.2739 645.00
82.3391 674.00
82.4043 607.00
82.4695 564.00
82.5347 615.00
82.5999 603.00
82.6651 627.00
82.7303 667.00
82.7955 690.00
82.8607 795.00
82.9259 1009.00
82.9911 1125.00
83.0563 1047.00
83.1215 939.00
83.1867 936.00
83.2519 1082.00
83.3171 1136.00
83.3823 1378.00
83.4475 1197.00
83.5127 1005.00
83.5779 1000.00
83.6431 1121.00
83.7083 1049.00
83.7735 915.00
83.8387 802.00
83.9039 776.00
83.9691 745.00
84.0343 711.00
84.0995 644.00
84.1647 609.00
84.2299 654.00
84.2951 592.00
84.3603 627.00
84.4255 659.00
84.4907 758.00
84.5559 775.00
84.6211 829.00
84.6863 1026.00
84.7515 1115.00
84.8167 989.00
84.8819 896.00
84.9471 909.00
85.0123 865.00
85.0775 762.00
85.1427 665.00
85.2079 614.00
85.2731 551.00
85.3383 552.00
85.4035 514.00
85.4687 511.00
85.5339 565.00
85.5991 606.00
85.6643 547.00
85.7295 594.00
85.7946 574.00
85.8598 646.00
85.925 685.00
85.9903 841.00
86.0554 1037.00
86.1206 1133.00
86.1858 1141.00
86.251 883.00
86.3162 833.00
86.3814 848.00
86.4466 791.00
86.5118 621.00
86.577 541.00
86.6422 523.00
86.7074 458.00
86.7726 485.00
86.8378 490.00
86.903 517.00
86.9682 527.00
87.0334 541.00
87.0986 548.00
87.1638 611.00
87.229 622.00
87.2942 620.00
87.3594 635.00
87.4246 613.00
87.4898 630.00
87.555 584.00
87.6202 598.00
87.6854 645.00
87.7506 619.00
87.8158 622.00
87.881 721.00
87.9462 691.00
88.0114 630.00
88.0766 603.00
88.1418 616.00
88.207 635.00
88.2722 539.00
88.3374 538.00
88.4026 521.00
88.4678 541.00
88.533 500.00
88.5982 485.00
88.6634 554.00
88.7286 592.00
88.7938 548.00
88.859 559.00
88.9242 577.00
88.9894 569.00
89.0546 603.00
89.1198 532.00
89.185 523.00
89.2502 587.00
89.3154 548.00
89.3806 583.00
89.4458 615.00
89.511 665.00
89.5762 639.00
89.6414 747.00
89.7066 733.00
89.7718 746.00
89.837 751.00
89.9022 740.00
89.9674 841.00
90.0326 809.00
90.0978 754.00
90.163 638.00
90.2282 632.00
90.2934 655.00
90.3586 585.00
90.4238 605.00
90.489 593.00
90.5542 528.00
90.6193 542.00
90.6845 533.00
90.7497 519.00
90.8149 545.00
90.8801 518.00
90.9453 524.00
91.0105 573.00
91.0757 539.00
91.1409 616.00
91.2061 554.00
91.2713 574.00
91.3365 625.00
91.4017 765.00
91.4669 845.00
91.5321 680.00
91.5973 618.00
91.6625 614.00
91.7277 669.00
91.7929 630.00
91.8581 584.00
91.9233 502.00
91.9885 525.00
92.0537 515.00
92.1189 484.00
92.1841 471.00
92.2493 468.00
92.3145 443.00
92.3797 517.00
92.4449 517.00
92.5101 585.00
92.5753 658.00
92.6405 679.00
92.7057 644.00
92.7709 624.00
92.8361 616.00
92.9013 626.00
92.9665 626.00
93.0317 625.00
93.0969 638.00
93.1621 718.00
93.2273 668.00
93.2925 624.00
93.3577 571.00
93.4229 574.00
93.4881 623.00
93.5533 525.00
93.6185 545.00
93.6837 502.00
93.7489 473.00
93.8141 485.00
93.8793 513.00
93.9445 520.00
94.0097 494.00
94.0749 489.00
94.1401 444.00
94.2053 503.00
94.2705 442.00
94.3357 430.00
94.4009 443.00
94.4661 498.00
94.5313 449.00
94.5965 450.00
94.6617 445.00
94.7269 425.00
94.7921 459.00
94.8573 473.00
94.9225 459.00
94.9877 449.00
95.0529 497.00
95.1181 498.00
95.1833 511.00
95.2485 536.00
95.3137 595.00
95.3789 630.00
95.444 554.00
95.5092 527.00
95.5744 572.00
95.6396 536.00
95.7048 562.00
95.77 519.00
95.8352 584.00
95.9004 619.00
95.9656 618.00
96.0308 564.00
96.096 559.00
96.1612 586.00
96.2264 596.00
96.2916 506.00
96.3568 540.00
96.422 524.00
96.4872 530.00
96.5524 627.00
96.6176 760.00
96.6828 839.00
96.748 732.00
96.8132 602.00
96.8784 601.00
96.9436 674.00
97.0088 695.00
97.074 652.00
97.1392 555.00
97.2044 536.00
97.2696 509.00
97.3348 525.00
97.4 542.00
97.4652 507.00
97.5304 572.00
97.5956 593.00
97.6608 695.00
97.726 750.00
97.7912 695.00
97.8564 696.00
97.9216 722.00
97.9868 757.00
98.052 743.00
98.1172 690.00
98.1824 620.00
98.2476 625.00
98.3128 570.00
98.378 607.00
98.4432 579.00
98.5084 523.00
98.5736 526.00
98.6388 566.00
98.704 496.00
98.7692 554.00
98.8344 542.00
98.8996 512.00
98.9648 520.00
99.03 500.00
99.0952 540.00
99.1604 574.00
99.2256 520.00
99.2908 587.00
99.356 586.00
99.4212 591.00
99.4864 550.00
99.5516 474.00
99.6168 540.00
99.682 558.00
99.7472 497.00
99.8124 475.00
99.8776 516.00
99.9428 531.00
100.008 459.00
100.073 491.00
100.095 477.00