File: data/xrd_creation/results/PG_1019-1.xy
10.0094 2426.00
10.0746 2462.00
10.1398 2480.00
10.205 2418.00
10.2702 2347.00
10.3354 2366.00
10.4006 2328.00
10.4658 2365.00
10.531 2290.00
10.5962 2332.00
10.6614 2316.00
10.7266 2291.00
10.7918 2186.00
10.857 2184.00
10.9222 2206.00
10.9874 2148.00
11.0526 2231.00
11.1178 2108.00
11.183 2216.00
11.2482 2172.00
11.3134 2176.00
11.3786 2078.00
11.4438 2132.00
11.509 2083.00
11.5742 2104.00
11.6394 2073.00
11.7046 2010.00
11.7698 1992.00
11.835 2021.00
11.9002 1905.00
11.9654 2025.00
12.0306 1933.00
12.0958 2004.00
12.161 1878.00
12.2262 2017.00
12.2914 1880.00
12.3566 1923.00
12.4218 1838.00
12.487 1861.00
12.5522 1906.00
12.6174 1752.00
12.6826 1884.00
12.7478 1838.00
12.813 1800.00
12.8782 1812.00
12.9434 1754.00
13.0086 1741.00
13.0738 1655.00
13.139 1792.00
13.2042 1777.00
13.2694 1738.00
13.3346 1695.00
13.3998 1771.00
13.465 1770.00
13.5302 1694.00
13.5954 1674.00
13.6606 1614.00
13.7258 1681.00
13.791 1622.00
13.8562 1710.00
13.9214 1692.00
13.9865 1615.00
14.0517 1628.00
14.1169 1693.00
14.1821 1593.00
14.2473 1640.00
14.3125 1646.00
14.3777 1582.00
14.4429 1616.00
14.5081 1618.00
14.5733 1669.00
14.6385 1594.00
14.7037 1597.00
14.7689 1598.00
14.8341 1554.00
14.8993 1586.00
14.9645 1599.00
15.0297 1567.00
15.0949 1569.00
15.1601 1582.00
15.2253 1566.00
15.2905 1545.00
15.3557 1660.00
15.4209 1487.00
15.4861 1489.00
15.5513 1500.00
15.6165 1470.00
15.6817 1537.00
15.7469 1512.00
15.8121 1552.00
15.8773 1518.00
15.9425 1528.00
16.0077 1483.00
16.0729 1521.00
16.1381 1425.00
16.2033 1467.00
16.2685 1474.00
16.3337 1524.00
16.3989 1505.00
16.4641 1445.00
16.5293 1467.00
16.5945 1484.00
16.6597 1497.00
16.7249 1439.00
16.7901 1382.00
16.8553 1428.00
16.9205 1448.00
16.9857 1400.00
17.0509 1428.00
17.1161 1483.00
17.1813 1464.00
17.2465 1561.00
17.3117 1648.00
17.3769 1663.00
17.4421 1478.00
17.5073 1516.00
17.5725 1468.00
17.6377 1416.00
17.7029 1410.00
17.7681 1357.00
17.8333 1391.00
17.8985 1384.00
17.9637 1308.00
18.0289 1344.00
18.0941 1424.00
18.1593 1366.00
18.2245 1307.00
18.2897 1304.00
18.3549 1292.00
18.4201 1309.00
18.4853 1310.00
18.5505 1218.00
18.6157 1272.00
18.6809 1321.00
18.7461 1274.00
18.8112 1321.00
18.8764 1277.00
18.9416 1214.00
19.0068 1312.00
19.072 1294.00
19.1372 1250.00
19.2024 1268.00
19.2676 1216.00
19.3328 1246.00
19.398 1300.00
19.4632 1266.00
19.5284 1268.00
19.5936 1269.00
19.6588 1251.00
19.724 1154.00
19.7892 1168.00
19.8544 1199.00
19.9196 1247.00
19.9848 1170.00
20.05 1197.00
20.1152 1162.00
20.1804 1236.00
20.2456 1206.00
20.3108 1244.00
20.376 1230.00
20.4412 1250.00
20.5064 1200.00
20.5716 1171.00
20.6368 1197.00
20.702 1260.00
20.7672 1382.00
20.8324 1587.00
20.8976 1997.00
20.9628 2174.00
21.028 2260.00
21.0932 2282.00
21.1584 1461.00
21.2236 1207.00
21.2888 1126.00
21.354 1104.00
21.4192 1159.00
21.4844 1088.00
21.5496 1111.00
21.6148 1107.00
21.68 1089.00
21.7452 1139.00
21.8104 1116.00
21.8756 1120.00
21.9408 1198.00
22.006 1106.00
22.0712 1170.00
22.1364 1101.00
22.2016 1128.00
22.2668 1124.00
22.332 1030.00
22.3972 1086.00
22.4624 1076.00
22.5276 1118.00
22.5928 1153.00
22.658 1067.00
22.7232 992.00
22.7884 1050.00
22.8536 1014.00
22.9188 1154.00
22.984 1040.00
23.0492 1020.00
23.1144 1052.00
23.1796 1089.00
23.2448 1039.00
23.31 1116.00
23.3752 1369.00
23.4404 1588.00
23.5056 1569.00
23.5708 1175.00
23.6359 1063.00
23.7011 1033.00
23.7663 1023.00
23.8315 1099.00
23.8967 998.00
23.9619 1120.00
24.0271 1040.00
24.0923 997.00
24.1575 1039.00
24.2227 1043.00
24.2879 1102.00
24.3531 1082.00
24.4183 1167.00
24.4835 1210.00
24.5487 1302.00
24.6139 1492.00
24.6791 1792.00
24.7443 2555.00
24.8095 2722.00
24.8747 1755.00
24.9399 1266.00
25.0051 1225.00
25.0703 1105.00
25.1355 980.00
25.2007 916.00
25.2659 955.00
25.3311 1007.00
25.3963 944.00
25.4615 903.00
25.5267 914.00
25.5919 976.00
25.6571 913.00
25.7223 994.00
25.7875 1103.00
25.8527 1237.00
25.9179 1161.00
25.9831 980.00
26.0483 949.00
26.1135 938.00
26.1787 933.00
26.2439 905.00
26.3091 893.00
26.3743 872.00
26.4395 950.00
26.5047 936.00
26.5699 897.00
26.6351 889.00
26.7003 980.00
26.7655 892.00
26.8307 893.00
26.8959 911.00
26.9611 898.00
27.0263 987.00
27.0915 886.00
27.1567 881.00
27.2219 877.00
27.2871 893.00
27.3523 894.00
27.4175 875.00
27.4827 886.00
27.5479 880.00
27.6131 806.00
27.6783 850.00
27.7435 908.00
27.8087 940.00
27.8739 1004.00
27.9391 1070.00
28.0043 1125.00
28.0695 999.00
28.1347 916.00
28.1999 895.00
28.2651 922.00
28.3303 944.00
28.3955 885.00
28.4606 879.00
28.5258 964.00
28.591 987.00
28.6562 843.00
28.7214 898.00
28.7866 838.00
28.8518 835.00
28.917 959.00
28.9822 1033.00
29.0474 1181.00
29.1126 1384.00
29.1778 2080.00
29.243 2719.00
29.3082 3159.00
29.3734 2169.00
29.4386 1181.00
29.5038 896.00
29.569 900.00
29.6342 915.00
29.6994 882.00
29.7646 892.00
29.8298 920.00
29.895 1039.00
29.9602 1174.00
30.0254 1823.00
30.0906 3301.00
30.1558 3865.00
30.221 2569.00
30.2862 1644.00
30.3514 2020.00
30.4166 2710.00
30.4818 2526.00
30.547 1718.00
30.6122 949.00
30.6774 850.00
30.7426 839.00
30.8078 850.00
30.873 823.00
30.9382 844.00
31.0034 804.00
31.0686 839.00
31.1338 851.00
31.199 853.00
31.2642 824.00
31.3294 880.00
31.3946 889.00
31.4598 993.00
31.525 1080.00
31.5902 1065.00
31.6554 1103.00
31.7206 1013.00
31.7858 978.00
31.851 921.00
31.9162 795.00
31.9814 836.00
32.0466 885.00
32.1118 826.00
32.177 815.00
32.2422 768.00
32.3074 841.00
32.3726 786.00
32.4378 749.00
32.503 788.00
32.5682 813.00
32.6334 765.00
32.6986 782.00
32.7638 793.00
32.829 829.00
32.8942 845.00
32.9594 953.00
33.0246 1002.00
33.0898 893.00
33.1549 765.00
33.2201 778.00
33.2853 795.00
33.3505 784.00
33.4157 765.00
33.4809 788.00
33.5461 823.00
33.6113 865.00
33.6765 1069.00
33.7417 1486.00
33.8069 2433.00
33.8721 3374.00
33.9373 2684.00
34.0025 1650.00
34.0677 1025.00
34.1329 913.00
34.1981 897.00
34.2633 861.00
34.3285 874.00
34.3937 864.00
34.4589 802.00
34.5241 800.00
34.5893 755.00
34.6545 851.00
34.7197 1014.00
34.7849 1138.00
34.8501 953.00
34.9153 811.00
34.9805 863.00
35.0457 936.00
35.1109 1221.00
35.1761 1402.00
35.2413 1030.00
35.3065 815.00
35.3717 745.00
35.4369 756.00
35.5021 741.00
35.5673 697.00
35.6325 741.00
35.6977 781.00
35.7629 707.00
35.8281 694.00
35.8933 746.00
35.9585 708.00
36.0237 744.00
36.0889 800.00
36.1541 824.00
36.2193 886.00
36.2845 1038.00
36.3497 1675.00
36.4149 2901.00
36.4801 3625.00
36.5453 2637.00
36.6105 1574.00
36.6757 1013.00
36.7409 946.00
36.8061 809.00
36.8713 829.00
36.9365 722.00
37.0017 741.00
37.0669 854.00
37.1321 837.00
37.1973 738.00
37.2625 779.00
37.3277 685.00
37.3929 652.00
37.4581 672.00
37.5233 682.00
37.5885 733.00
37.6537 679.00
37.7189 697.00
37.7841 654.00
37.8493 640.00
37.9145 678.00
37.9796 663.00
38.0448 712.00
38.11 743.00
38.1752 756.00
38.2404 682.00
38.3056 727.00
38.3708 710.00
38.436 744.00
38.5012 699.00
38.5664 728.00
38.6316 667.00
38.6968 670.00
38.762 633.00
38.8272 649.00
38.8924 636.00
38.9576 645.00
39.0228 664.00
39.088 715.00
39.1532 667.00
39.2184 638.00
39.2836 649.00
39.3488 787.00
39.414 794.00
39.4792 1144.00
39.5444 1399.00
39.6096 1796.00
39.6748 1609.00
39.74 1188.00
39.8052 1003.00
39.8704 1184.00
39.9356 1138.00
40.0008 1080.00
40.066 866.00
40.1312 755.00
40.1964 690.00
40.2616 686.00
40.3268 635.00
40.392 660.00
40.4572 638.00
40.5224 625.00
40.5876 637.00
40.6528 672.00
40.718 680.00
40.7832 627.00
40.8484 649.00
40.9136 715.00
40.9788 639.00
41.044 647.00
41.1092 656.00
41.1744 657.00
41.2396 674.00
41.3048 714.00
41.37 624.00
41.4352 702.00
41.5004 709.00
41.5656 688.00
41.6308 898.00
41.696 1215.00
41.7612 1401.00
41.8264 1198.00
41.8916 983.00
41.9568 824.00
42.022 875.00
42.0872 889.00
42.1524 825.00
42.2176 950.00
42.2828 835.00
42.348 820.00
42.4132 788.00
42.4784 1038.00
42.5436 1537.00
42.6088 1170.00
42.6739 1031.00
42.7392 696.00
42.8043 687.00
42.8695 661.00
42.9347 635.00
42.9999 623.00
43.0651 644.00
43.1303 613.00
43.1955 621.00
43.2607 588.00
43.3259 594.00
43.3911 548.00
43.4563 547.00
43.5215 613.00
43.5867 629.00
43.6519 644.00
43.7171 560.00
43.7823 595.00
43.8475 568.00
43.9127 632.00
43.9779 619.00
44.0431 637.00
44.1083 592.00
44.1735 697.00
44.2387 805.00
44.3039 789.00
44.3691 775.00
44.4343 812.00
44.4995 753.00
44.5647 667.00
44.6299 704.00
44.6951 624.00
44.7603 628.00
44.8255 620.00
44.8907 597.00
44.9559 604.00
45.0211 677.00
45.0863 672.00
45.1515 638.00
45.2167 617.00
45.2819 607.00
45.3471 658.00
45.4123 697.00
45.4775 677.00
45.5427 684.00
45.6079 608.00
45.6731 536.00
45.7383 579.00
45.8035 583.00
45.8687 609.00
45.9339 578.00
45.9991 617.00
46.0643 589.00
46.1295 595.00
46.1947 575.00
46.2599 605.00
46.3251 579.00
46.3903 600.00
46.4555 615.00
46.5207 688.00
46.5859 680.00
46.6511 593.00
46.7163 634.00
46.7815 585.00
46.8467 624.00
46.9119 671.00
46.9771 794.00
47.0423 1013.00
47.1075 742.00
47.1727 800.00
47.2379 594.00
47.3031 594.00
47.3683 603.00
47.4335 602.00
47.4986 608.00
47.5639 644.00
47.629 754.00
47.6942 782.00
47.7594 709.00
47.8246 681.00
47.8898 655.00
47.955 591.00
48.0202 686.00
48.0854 760.00
48.1506 680.00
48.2158 683.00
48.281 590.00
48.3462 547.00
48.4114 592.00
48.4766 570.00
48.5418 545.00
48.607 615.00
48.6722 566.00
48.7374 572.00
48.8026 606.00
48.8678 593.00
48.933 546.00
48.9982 563.00
49.0634 612.00
49.1286 549.00
49.1938 578.00
49.259 566.00
49.3242 584.00
49.3894 604.00
49.4546 603.00
49.5198 604.00
49.585 619.00
49.6502 566.00
49.7154 559.00
49.7806 585.00
49.8458 607.00
49.911 582.00
49.9762 650.00
50.0414 662.00
50.1066 726.00
50.1718 726.00
50.237 833.00
50.3022 836.00
50.3674 1018.00
50.4326 1467.00
50.4978 1468.00
50.563 1169.00
50.6282 1032.00
50.6934 753.00
50.7586 681.00
50.8238 614.00
50.889 609.00
50.9542 641.00
51.0194 663.00
51.0846 627.00
51.1498 542.00
51.215 588.00
51.2802 551.00
51.3454 520.00
51.4106 584.00
51.4758 601.00
51.541 543.00
51.6062 572.00
51.6714 567.00
51.7366 560.00
51.8018 550.00
51.867 550.00
51.9322 594.00
51.9974 540.00
52.0626 570.00
52.1278 575.00
52.193 564.00
52.2582 604.00
52.3233 647.00
52.3886 685.00
52.4537 655.00
52.5189 630.00
52.5841 639.00
52.6493 592.00
52.7145 634.00
52.7797 725.00
52.8449 701.00
52.9101 685.00
52.9753 644.00
53.0405 704.00
53.1057 780.00
53.1709 753.00
53.2361 720.00
53.3013 631.00
53.3665 584.00
53.4317 575.00
53.4969 578.00
53.5621 709.00
53.6273 994.00
53.6925 730.00
53.7577 732.00
53.8229 659.00
53.8881 571.00
53.9533 551.00
54.0185 540.00
54.0837 514.00
54.1489 545.00
54.2141 533.00
54.2793 518.00
54.3445 545.00
54.4097 567.00
54.4749 566.00
54.5401 551.00
54.6053 633.00
54.6705 558.00
54.7357 601.00
54.8009 670.00
54.8661 795.00
54.9313 1108.00
54.9965 1573.00
55.0617 2586.00
55.1269 2470.00
55.1921 1827.00
55.2573 1580.00
55.3225 1037.00
55.3877 832.00
55.4529 696.00
55.5181 699.00
55.5833 612.00
55.6485 671.00
55.7137 613.00
55.7789 554.00
55.8441 567.00
55.9093 544.00
55.9745 506.00
56.0397 571.00
56.1049 504.00
56.1701 566.00
56.2353 545.00
56.3005 530.00
56.3657 539.00
56.4309 518.00
56.4961 537.00
56.5613 572.00
56.6265 574.00
56.6917 507.00
56.7569 579.00
56.8221 594.00
56.8873 580.00
56.9525 555.00
57.0177 540.00
57.0829 585.00
57.148 570.00
57.2132 614.00
57.2784 677.00
57.3436 656.00
57.4088 716.00
57.474 799.00
57.5392 615.00
57.6044 635.00
57.6696 591.00
57.7348 550.00
57.8 562.00
57.8652 522.00
57.9304 546.00
57.9956 534.00
58.0608 540.00
58.126 516.00
58.1912 598.00
58.2564 567.00
58.3216 550.00
58.3868 573.00
58.452 623.00
58.5172 555.00
58.5824 710.00
58.6476 774.00
58.7128 705.00
58.778 639.00
58.8432 659.00
58.9084 580.00
58.9736 537.00
59.0388 576.00
59.104 549.00
59.1692 548.00
59.2344 545.00
59.2996 521.00
59.3648 540.00
59.43 549.00
59.4952 595.00
59.5604 557.00
59.6256 597.00
59.6908 611.00
59.756 649.00
59.8212 582.00
59.8864 579.00
59.9516 627.00
60.0168 604.00
60.082 644.00
60.1472 561.00
60.2124 542.00
60.2776 605.00
60.3428 555.00
60.408 535.00
60.4732 566.00
60.5384 539.00
60.6036 538.00
60.6688 501.00
60.734 553.00
60.7992 504.00
60.8644 586.00
60.9296 651.00
60.9948 586.00
61.06 570.00
61.1252 580.00
61.1904 510.00
61.2556 501.00
61.3208 517.00
61.386 557.00
61.4512 529.00
61.5164 543.00
61.5816 519.00
61.6468 509.00
61.712 519.00
61.7772 522.00
61.8424 543.00
61.9076 566.00
61.9727 533.00
62.0379 510.00
62.1031 586.00
62.1683 575.00
62.2335 733.00
62.2987 673.00
62.3639 651.00
62.4291 642.00
62.4943 615.00
62.5595 567.00
62.6247 522.00
62.6899 495.00
62.7551 569.00
62.8203 567.00
62.8855 586.00
62.9507 777.00
63.0159 654.00
63.0811 623.00
63.1463 652.00
63.2115 633.00
63.2767 590.00
63.3419 640.00
63.4071 756.00
63.4723 846.00
63.5375 812.00
63.6027 1008.00
63.6679 1153.00
63.7331 1049.00
63.7983 919.00
63.8635 946.00
63.9287 877.00
63.9939 830.00
64.0591 640.00
64.1243 655.00
64.1895 655.00
64.2547 628.00
64.3199 526.00
64.3851 506.00
64.4503 523.00
64.5155 536.00
64.5807 542.00
64.6459 479.00
64.7111 554.00
64.7763 574.00
64.8415 535.00
64.9067 639.00
64.9719 611.00
65.0371 611.00
65.1023 656.00
65.1675 685.00
65.2327 837.00
65.2979 1175.00
65.3631 1452.00
65.4283 1144.00
65.4935 1039.00
65.5587 959.00
65.6239 674.00
65.6891 619.00
65.7543 617.00
65.8195 567.00
65.8847 563.00
65.9499 514.00
66.0151 559.00
66.0803 529.00
66.1455 564.00
66.2107 537.00
66.2759 529.00
66.3411 535.00
66.4063 561.00
66.4715 593.00
66.5367 580.00
66.6019 590.00
66.6671 565.00
66.7322 587.00
66.7974 586.00
66.8626 531.00
66.9278 541.00
66.993 550.00
67.0582 525.00
67.1234 524.00
67.1886 550.00
67.2538 545.00
67.319 732.00
67.3842 784.00
67.4494 588.00
67.5146 644.00
67.5798 639.00
67.645 521.00
67.7102 518.00
67.7754 534.00
67.8406 505.00
67.9058 510.00
67.971 479.00
68.0362 492.00
68.1014 516.00
68.1666 528.00
68.2318 574.00
68.297 488.00
68.3622 556.00
68.4274 569.00
68.4926 501.00
68.5578 549.00
68.623 541.00
68.6882 545.00
68.7534 530.00
68.8186 533.00
68.8838 497.00
68.949 501.00
69.0142 538.00
69.0794 530.00
69.1446 518.00
69.2098 516.00
69.275 490.00
69.3402 494.00
69.4054 499.00
69.4706 532.00
69.5358 524.00
69.601 504.00
69.6662 522.00
69.7314 503.00
69.7966 528.00
69.8618 558.00
69.927 511.00
69.9922 531.00
70.0574 501.00
70.1226 546.00
70.1878 539.00
70.253 466.00
70.3182 530.00
70.3834 565.00
70.4486 561.00
70.5138 555.00
70.579 521.00
70.6442 538.00
70.7094 586.00
70.7746 577.00
70.8398 552.00
70.905 555.00
70.9702 582.00
71.0354 499.00
71.1006 487.00
71.1658 495.00
71.231 536.00
71.2962 509.00
71.3614 514.00
71.4266 503.00
71.4918 519.00
71.5569 544.00
71.6221 527.00
71.6873 522.00
71.7525 582.00
71.8177 681.00
71.8829 584.00
71.9481 529.00
72.0133 624.00
72.0785 565.00
72.1437 493.00
72.2089 562.00
72.2741 544.00
72.3393 567.00
72.4045 511.00
72.4697 543.00
72.5349 531.00
72.6001 496.00
72.6653 472.00
72.7305 518.00
72.7957 540.00
72.8609 560.00
72.9261 615.00
72.9913 585.00
73.0565 695.00
73.1217 797.00
73.1869 776.00
73.2521 721.00
73.3173 623.00
73.3825 662.00
73.4477 640.00
73.5129 599.00
73.5781 676.00
73.6433 684.00
73.7085 580.00
73.7737 590.00
73.8389 586.00
73.9041 558.00
73.9693 555.00
74.0345 555.00
74.0997 595.00
74.1649 570.00
74.2301 531.00
74.2953 603.00
74.3605 581.00
74.4257 569.00
74.4909 528.00
74.5561 490.00
74.6213 514.00
74.6865 538.00
74.7517 529.00
74.8169 535.00
74.8821 539.00
74.9473 515.00
75.0125 538.00
75.0777 609.00
75.1429 547.00
75.2081 475.00
75.2733 532.00
75.3385 523.00
75.4037 524.00
75.4689 505.00
75.5341 473.00
75.5993 529.00
75.6645 516.00
75.7297 514.00
75.7949 492.00
75.8601 576.00
75.9253 513.00
75.9905 590.00
76.0557 538.00
76.1209 554.00
76.186 581.00
76.2513 479.00
76.3165 517.00
76.3816 521.00
76.4468 523.00
76.512 495.00
76.5772 522.00
76.6424 503.00
76.7076 542.00
76.7728 536.00
76.838 589.00
76.9032 563.00
76.9684 636.00
77.0336 657.00
77.0988 621.00
77.164 594.00
77.2292 560.00
77.2944 583.00
77.3596 559.00
77.4248 482.00
77.49 534.00
77.5552 513.00
77.6204 485.00
77.6856 507.00
77.7508 484.00
77.816 505.00
77.8812 499.00
77.9464 513.00
78.0116 486.00
78.0768 518.00
78.142 496.00
78.2072 518.00
78.2724 512.00
78.3376 546.00
78.4028 527.00
78.468 503.00
78.5332 503.00
78.5984 558.00
78.6636 538.00
78.7288 547.00
78.794 525.00
78.8592 542.00
78.9244 513.00
78.9896 512.00
79.0548 545.00
79.12 526.00
79.1852 603.00
79.2504 579.00
79.3156 613.00
79.3808 595.00
79.446 669.00
79.5112 641.00
79.5764 627.00
79.6416 590.00
79.7068 607.00
79.772 558.00
79.8372 531.00
79.9024 632.00
79.9676 518.00
80.0328 536.00
80.098 499.00
80.1632 535.00
80.2284 517.00
80.2936 522.00
80.3588 523.00
80.424 501.00
80.4892 513.00
80.5544 529.00
80.6196 564.00
80.6848 538.00
80.75 526.00
80.8152 521.00
80.8804 536.00
80.9456 530.00
81.0108 567.00
81.076 514.00
81.1412 561.00
81.2063 534.00
81.2715 547.00
81.3367 557.00
81.4019 524.00
81.4671 524.00
81.5323 530.00
81.5975 530.00
81.6627 493.00
81.7279 528.00
81.7931 545.00
81.8583 514.00
81.9235 560.00
81.9887 540.00
82.0539 569.00
82.1191 523.00
82.1843 557.00
82.2495 599.00
82.3147 624.00
82.3799 634.00
82.4451 606.00
82.5103 573.00
82.5755 546.00
82.6407 523.00
82.7059 534.00
82.7711 474.00
82.8363 497.00
82.9015 534.00
82.9667 480.00
83.0319 505.00
83.0971 510.00
83.1623 515.00
83.2275 523.00
83.2927 516.00
83.3579 518.00
83.4231 544.00
83.4883 543.00
83.5535 526.00
83.6187 501.00
83.6839 477.00
83.7491 506.00
83.8143 512.00
83.8795 492.00
83.9447 509.00
84.0099 488.00
84.0751 491.00
84.1403 568.00
84.2055 562.00
84.2707 592.00
84.3359 605.00
84.4011 634.00
84.4663 621.00
84.5315 583.00
84.5967 593.00
84.6619 628.00
84.7271 596.00
84.7923 573.00
84.8575 552.00
84.9227 500.00
84.9879 539.00
85.0531 507.00
85.1183 516.00
85.1835 491.00
85.2487 507.00
85.3139 512.00
85.3791 515.00
85.4443 463.00
85.5095 503.00
85.5747 541.00
85.6399 481.00
85.7051 514.00
85.7703 503.00
85.8354 517.00
85.9006 525.00
85.9659 544.00
86.031 478.00
86.0962 531.00
86.1614 560.00
86.2266 536.00
86.2918 522.00
86.357 509.00
86.4222 530.00
86.4874 544.00
86.5526 546.00
86.6178 644.00
86.683 692.00
86.7482 627.00
86.8134 638.00
86.8786 611.00
86.9438 573.00
87.009 619.00
87.0742 567.00
87.1394 523.00
87.2046 530.00
87.2698 496.00
87.335 558.00
87.4002 504.00
87.4654 530.00
87.5306 472.00
87.5958 495.00
87.661 485.00
87.7262 504.00
87.7914 517.00
87.8566 498.00
87.9218 486.00
87.987 498.00
88.0522 522.00
88.1174 558.00
88.1826 516.00
88.2478 503.00
88.313 517.00
88.3782 547.00
88.4434 543.00
88.5086 542.00
88.5738 526.00
88.639 495.00
88.7042 479.00
88.7694 479.00
88.8346 484.00
88.8998 492.00
88.965 449.00
89.0302 486.00
89.0954 513.00
89.1606 553.00
89.2258 477.00
89.291 556.00
89.3562 526.00
89.4214 531.00
89.4866 492.00
89.5518 507.00
89.617 492.00
89.6822 506.00
89.7474 554.00
89.8126 529.00
89.8778 542.00
89.943 518.00
90.0082 540.00
90.0734 505.00
90.1386 509.00
90.2038 597.00
90.269 610.00
90.3342 765.00
90.3994 821.00
90.4646 743.00
90.5298 592.00
90.595 689.00
90.6601 649.00
90.7253 691.00
90.7905 551.00
90.8557 565.00
90.9209 550.00
90.9861 517.00
91.0513 506.00
91.1165 542.00
91.1817 543.00
91.2469 496.00
91.3121 518.00
91.3773 518.00
91.4425 523.00
91.5077 582.00
91.5729 537.00
91.6381 546.00
91.7033 549.00
91.7685 532.00
91.8337 487.00
91.8989 573.00
91.9641 547.00
92.0293 539.00
92.0945 530.00
92.1597 538.00
92.2249 516.00
92.2901 488.00
92.3553 491.00
92.4205 512.00
92.4857 536.00
92.5509 557.00
92.6161 547.00
92.6813 538.00
92.7465 533.00
92.8117 538.00
92.8769 454.00
92.9421 527.00
93.0073 482.00
93.0725 507.00
93.1377 498.00
93.2029 518.00
93.2681 517.00
93.3333 553.00
93.3985 519.00
93.4637 542.00
93.5289 508.00
93.5941 516.00
93.6593 527.00
93.7245 502.00
93.7897 503.00
93.8549 513.00
93.9201 516.00
93.9853 490.00
94.0505 525.00
94.1157 542.00
94.1809 504.00
94.2461 503.00
94.3113 514.00
94.3765 541.00
94.4417 509.00
94.5069 516.00
94.5721 533.00
94.6373 507.00
94.7025 528.00
94.7677 488.00
94.8329 526.00
94.8981 503.00
94.9633 578.00
95.0285 549.00
95.0937 524.00
95.1589 556.00
95.2241 537.00
95.2893 585.00
95.3545 654.00
95.4197 688.00
95.4848 703.00
95.55 637.00
95.6153 633.00
95.6804 595.00
95.7456 628.00
95.8108 645.00
95.876 573.00
95.9412 575.00
96.0064 565.00
96.0716 514.00
96.1368 493.00
96.202 492.00
96.2672 544.00
96.3324 501.00
96.3976 475.00
96.4628 509.00
96.528 556.00
96.5932 517.00
96.6584 515.00
96.7236 527.00
96.7888 490.00
96.854 507.00
96.9192 573.00
96.9844 521.00
97.0496 486.00
97.1148 533.00
97.18 552.00
97.2452 493.00
97.3104 491.00
97.3756 506.00
97.4408 462.00
97.506 552.00
97.5712 543.00
97.6364 514.00
97.7016 537.00
97.7668 511.00
97.832 525.00
97.8972 513.00
97.9624 514.00
98.0276 517.00
98.0928 546.00
98.158 544.00
98.2232 526.00
98.2884 538.00
98.3536 526.00
98.4188 521.00
98.484 469.00
98.5492 547.00
98.6144 481.00
98.6796 513.00
98.7448 493.00
98.81 487.00
98.8752 512.00
98.9404 507.00
99.0056 508.00
99.0708 497.00
99.136 509.00
99.2012 509.00
99.2664 463.00
99.3316 512.00
99.3968 565.00
99.462 547.00
99.5272 510.00
99.5924 537.00
99.6576 542.00
99.7228 537.00
99.788 551.00
99.8532 472.00
99.9184 555.00
99.9836 519.00
99.9944 516.00