File: data/xrd_creation/results/PG_1319-1.xy
10.0094 2166.00
10.0746 2166.00
10.1398 2204.00
10.205 2136.00
10.2702 2143.00
10.3354 2085.00
10.4006 2079.00
10.4658 2035.00
10.531 2060.00
10.5962 2006.00
10.6614 1953.00
10.7266 1974.00
10.7918 1990.00
10.857 1923.00
10.9222 1944.00
10.9874 1844.00
11.0526 1803.00
11.1178 1806.00
11.183 1890.00
11.2482 1822.00
11.3134 1810.00
11.3786 1758.00
11.4438 1718.00
11.509 1771.00
11.5742 1699.00
11.6394 1736.00
11.7046 1772.00
11.7698 1623.00
11.835 1682.00
11.9002 1684.00
11.9654 1647.00
12.0306 1596.00
12.0958 1636.00
12.161 1581.00
12.2262 1599.00
12.2914 1640.00
12.3566 1528.00
12.4218 1480.00
12.487 1522.00
12.5522 1495.00
12.6174 1487.00
12.6826 1431.00
12.7478 1518.00
12.813 1444.00
12.8782 1411.00
12.9434 1366.00
13.0086 1394.00
13.0738 1426.00
13.139 1403.00
13.2042 1380.00
13.2694 1386.00
13.3346 1373.00
13.3998 1362.00
13.465 1331.00
13.5302 1297.00
13.5954 1380.00
13.6606 1266.00
13.7258 1339.00
13.791 1343.00
13.8562 1301.00
13.9214 1243.00
13.9865 1301.00
14.0517 1255.00
14.1169 1230.00
14.1821 1216.00
14.2473 1199.00
14.3125 1169.00
14.3777 1169.00
14.4429 1234.00
14.5081 1227.00
14.5733 1210.00
14.6385 1272.00
14.7037 1169.00
14.7689 1152.00
14.8341 1131.00
14.8993 1171.00
14.9645 1155.00
15.0297 1144.00
15.0949 1144.00
15.1601 1170.00
15.2253 1157.00
15.2905 1083.00
15.3557 1132.00
15.4209 1136.00
15.4861 1077.00
15.5513 1078.00
15.6165 1171.00
15.6817 1052.00
15.7469 1154.00
15.8121 1114.00
15.8773 1082.00
15.9425 1056.00
16.0077 1057.00
16.0729 1023.00
16.1381 1141.00
16.2033 1065.00
16.2685 1098.00
16.3337 1087.00
16.3989 1051.00
16.4641 1033.00
16.5293 1055.00
16.5945 999.00
16.6597 1002.00
16.7249 1013.00
16.7901 975.00
16.8553 1032.00
16.9205 985.00
16.9857 930.00
17.0509 968.00
17.1161 974.00
17.1813 1031.00
17.2465 999.00
17.3117 969.00
17.3769 1039.00
17.4421 966.00
17.5073 938.00
17.5725 957.00
17.6377 979.00
17.7029 992.00
17.7681 1003.00
17.8333 1020.00
17.8985 946.00
17.9637 1016.00
18.0289 917.00
18.0941 897.00
18.1593 887.00
18.2245 916.00
18.2897 901.00
18.3549 932.00
18.4201 883.00
18.4853 917.00
18.5505 929.00
18.6157 880.00
18.6809 937.00
18.7461 863.00
18.8112 884.00
18.8764 800.00
18.9416 892.00
19.0068 892.00
19.072 910.00
19.1372 907.00
19.2024 877.00
19.2676 854.00
19.3328 830.00
19.398 803.00
19.4632 824.00
19.5284 829.00
19.5936 806.00
19.6588 789.00
19.724 842.00
19.7892 817.00
19.8544 781.00
19.9196 765.00
19.9848 812.00
20.05 811.00
20.1152 788.00
20.1804 775.00
20.2456 763.00
20.3108 773.00
20.376 747.00
20.4412 721.00
20.5064 763.00
20.5716 792.00
20.6368 792.00
20.702 705.00
20.7672 772.00
20.8324 772.00
20.8976 798.00
20.9628 758.00
21.028 711.00
21.0932 684.00
21.1584 735.00
21.2236 744.00
21.2888 737.00
21.354 732.00
21.4192 728.00
21.4844 732.00
21.5496 735.00
21.6148 725.00
21.68 702.00
21.7452 655.00
21.8104 735.00
21.8756 655.00
21.9408 732.00
22.006 668.00
22.0712 701.00
22.1364 728.00
22.2016 688.00
22.2668 689.00
22.332 710.00
22.3972 640.00
22.4624 694.00
22.5276 671.00
22.5928 634.00
22.658 680.00
22.7232 669.00
22.7884 644.00
22.8536 694.00
22.9188 628.00
22.984 630.00
23.0492 631.00
23.1144 652.00
23.1796 658.00
23.2448 655.00
23.31 645.00
23.3752 654.00
23.4404 636.00
23.5056 630.00
23.5708 606.00
23.6359 641.00
23.7011 617.00
23.7663 626.00
23.8315 671.00
23.8967 658.00
23.9619 562.00
24.0271 644.00
24.0923 610.00
24.1575 564.00
24.2227 579.00
24.2879 618.00
24.3531 585.00
24.4183 594.00
24.4835 601.00
24.5487 614.00
24.6139 599.00
24.6791 628.00
24.7443 604.00
24.8095 599.00
24.8747 602.00
24.9399 594.00
25.0051 591.00
25.0703 611.00
25.1355 553.00
25.2007 569.00
25.2659 588.00
25.3311 578.00
25.3963 574.00
25.4615 595.00
25.5267 569.00
25.5919 544.00
25.6571 545.00
25.7223 561.00
25.7875 532.00
25.8527 555.00
25.9179 534.00
25.9831 572.00
26.0483 508.00
26.1135 543.00
26.1787 508.00
26.2439 559.00
26.3091 569.00
26.3743 565.00
26.4395 557.00
26.5047 519.00
26.5699 569.00
26.6351 535.00
26.7003 483.00
26.7655 513.00
26.8307 507.00
26.8959 563.00
26.9611 501.00
27.0263 505.00
27.0915 472.00
27.1567 507.00
27.2219 492.00
27.2871 519.00
27.3523 540.00
27.4175 484.00
27.4827 518.00
27.5479 524.00
27.6131 554.00
27.6783 511.00
27.7435 539.00
27.8087 512.00
27.8739 461.00
27.9391 535.00
28.0043 504.00
28.0695 505.00
28.1347 473.00
28.1999 445.00
28.2651 529.00
28.3303 471.00
28.3955 481.00
28.4606 469.00
28.5258 498.00
28.591 493.00
28.6562 517.00
28.7214 459.00
28.7866 467.00
28.8518 506.00
28.917 462.00
28.9822 529.00
29.0474 478.00
29.1126 442.00
29.1778 452.00
29.243 440.00
29.3082 504.00
29.3734 429.00
29.4386 445.00
29.5038 477.00
29.569 465.00
29.6342 465.00
29.6994 452.00
29.7646 423.00
29.8298 443.00
29.895 413.00
29.9602 413.00
30.0254 443.00
30.0906 424.00
30.1558 461.00
30.221 412.00
30.2862 452.00
30.3514 423.00
30.4166 419.00
30.4818 464.00
30.547 441.00
30.6122 425.00
30.6774 417.00
30.7426 465.00
30.8078 449.00
30.873 446.00
30.9382 477.00
31.0034 396.00
31.0686 459.00
31.1338 466.00
31.199 423.00
31.2642 393.00
31.3294 420.00
31.3946 420.00
31.4598 429.00
31.525 395.00
31.5902 433.00
31.6554 402.00
31.7206 418.00
31.7858 404.00
31.851 419.00
31.9162 450.00
31.9814 407.00
32.0466 415.00
32.1118 419.00
32.177 442.00
32.2422 380.00
32.3074 412.00
32.3726 411.00
32.4378 412.00
32.503 405.00
32.5682 388.00
32.6334 408.00
32.6986 372.00
32.7638 409.00
32.829 383.00
32.8942 375.00
32.9594 407.00
33.0246 374.00
33.0898 391.00
33.1549 341.00
33.2201 409.00
33.2853 389.00
33.3505 383.00
33.4157 387.00
33.4809 422.00
33.5461 387.00
33.6113 363.00
33.6765 361.00
33.7417 378.00
33.8069 394.00
33.8721 385.00
33.9373 357.00
34.0025 396.00
34.0677 343.00
34.1329 377.00
34.1981 350.00
34.2633 365.00
34.3285 363.00
34.3937 333.00
34.4589 339.00
34.5241 390.00
34.5893 357.00
34.6545 394.00
34.7197 415.00
34.7849 348.00
34.8501 356.00
34.9153 348.00
34.9805 363.00
35.0457 327.00
35.1109 336.00
35.1761 345.00
35.2413 328.00
35.3065 325.00
35.3717 351.00
35.4369 350.00
35.5021 356.00
35.5673 349.00
35.6325 349.00
35.6977 347.00
35.7629 333.00
35.8281 332.00
35.8933 346.00
35.9585 334.00
36.0237 305.00
36.0889 338.00
36.1541 361.00
36.2193 321.00
36.2845 374.00
36.3497 328.00
36.4149 334.00
36.4801 348.00
36.5453 320.00
36.6105 350.00
36.6757 332.00
36.7409 345.00
36.8061 325.00
36.8713 346.00
36.9365 362.00
37.0017 309.00
37.0669 307.00
37.1321 332.00
37.1973 310.00
37.2625 335.00
37.3277 270.00
37.3929 324.00
37.4581 304.00
37.5233 272.00
37.5885 282.00
37.6537 332.00
37.7189 301.00
37.7841 295.00
37.8493 332.00
37.9145 282.00
37.9796 277.00
38.0448 329.00
38.11 289.00
38.1752 309.00
38.2404 328.00
38.3056 291.00
38.3708 291.00
38.436 287.00
38.5012 296.00
38.5664 266.00
38.6316 285.00
38.6968 285.00
38.762 280.00
38.8272 313.00
38.8924 320.00
38.9576 319.00
39.0228 278.00
39.088 286.00
39.1532 281.00
39.2184 282.00
39.2836 287.00
39.3488 291.00
39.414 297.00
39.4792 273.00
39.5444 325.00
39.6096 291.00
39.6748 275.00
39.74 275.00
39.8052 263.00
39.8704 271.00
39.9356 303.00
40.0008 240.00
40.066 284.00
40.1312 299.00
40.1964 269.00
40.2616 262.00
40.3268 318.00
40.392 279.00
40.4572 279.00
40.5224 258.00
40.5876 269.00
40.6528 281.00
40.718 261.00
40.7832 308.00
40.8484 243.00
40.9136 277.00
40.9788 291.00
41.044 244.00
41.1092 235.00
41.1744 259.00
41.2396 240.00
41.3048 242.00
41.37 233.00
41.4352 277.00
41.5004 275.00
41.5656 263.00
41.6308 267.00
41.696 247.00
41.7612 256.00
41.8264 258.00
41.8916 283.00
41.9568 264.00
42.022 241.00
42.0872 256.00
42.1524 272.00
42.2176 246.00
42.2828 248.00
42.348 230.00
42.4132 244.00
42.4784 228.00
42.5436 250.00
42.6088 263.00
42.6739 276.00
42.7392 258.00
42.8043 244.00
42.8695 267.00
42.9347 282.00
42.9999 269.00
43.0651 230.00
43.1303 231.00
43.1955 239.00
43.2607 240.00
43.3259 285.00
43.3911 259.00
43.4563 243.00
43.5215 243.00
43.5867 239.00
43.6519 235.00
43.7171 231.00
43.7823 207.00
43.8475 244.00
43.9127 272.00
43.9779 258.00
44.0431 215.00
44.1083 226.00
44.1735 237.00
44.2387 237.00
44.3039 232.00
44.3691 257.00
44.4343 213.00
44.4995 214.00
44.5647 217.00
44.6299 238.00
44.6951 246.00
44.7603 233.00
44.8255 216.00
44.8907 261.00
44.9559 200.00
45.0211 227.00
45.0863 227.00
45.1515 225.00
45.2167 228.00
45.2819 244.00
45.3471 247.00
45.4123 239.00
45.4775 218.00
45.5427 232.00
45.6079 272.00
45.6731 229.00
45.7383 234.00
45.8035 240.00
45.8687 225.00
45.9339 230.00
45.9991 233.00
46.0643 226.00
46.1295 209.00
46.1947 275.00
46.2599 257.00
46.3251 232.00
46.3903 205.00
46.4555 244.00
46.5207 239.00
46.5859 223.00
46.6511 248.00
46.7163 202.00
46.7815 198.00
46.8467 209.00
46.9119 216.00
46.9771 235.00
47.0423 239.00
47.1075 237.00
47.1727 215.00
47.2379 224.00
47.3031 220.00
47.3683 223.00
47.4335 249.00
47.4986 233.00
47.5639 236.00
47.629 245.00
47.6942 232.00
47.7594 234.00
47.8246 225.00
47.8898 215.00
47.955 222.00
48.0202 210.00
48.0854 212.00
48.1506 194.00
48.2158 218.00
48.281 216.00
48.3462 217.00
48.4114 205.00
48.4766 188.00
48.5418 211.00
48.607 231.00
48.6722 232.00
48.7374 242.00
48.8026 203.00
48.8678 183.00
48.933 219.00
48.9982 249.00
49.0634 208.00
49.1286 248.00
49.1938 214.00
49.259 203.00
49.3242 232.00
49.3894 223.00
49.4546 269.00
49.5198 227.00
49.585 224.00
49.6502 248.00
49.7154 201.00
49.7806 194.00
49.8458 237.00
49.911 215.00
49.9762 199.00
50.0414 221.00
50.1066 228.00
50.1718 203.00
50.237 188.00
50.3022 212.00
50.3674 247.00
50.4326 220.00
50.4978 181.00
50.563 222.00
50.6282 202.00
50.6934 190.00
50.7586 211.00
50.8238 196.00
50.889 194.00
50.9542 214.00
51.0194 242.00
51.0846 207.00
51.1498 217.00
51.215 198.00
51.2802 218.00
51.3454 193.00
51.4106 230.00
51.4758 206.00
51.541 231.00
51.6062 209.00
51.6714 186.00
51.7366 177.00
51.8018 201.00
51.867 192.00
51.9322 196.00
51.9974 212.00
52.0626 205.00
52.1278 192.00
52.193 172.00
52.2582 211.00
52.3233 211.00
52.3886 171.00
52.4537 206.00
52.5189 233.00
52.5841 199.00
52.6493 189.00
52.7145 178.00
52.7797 194.00
52.8449 201.00
52.9101 220.00
52.9753 194.00
53.0405 202.00
53.1057 217.00
53.1709 203.00
53.2361 213.00
53.3013 188.00
53.3665 208.00
53.4317 207.00
53.4969 190.00
53.5621 200.00
53.6273 179.00
53.6925 197.00
53.7577 149.00
53.8229 197.00
53.8881 182.00
53.9533 185.00
54.0185 202.00
54.0837 164.00
54.1489 201.00
54.2141 192.00
54.2793 201.00
54.3445 196.00
54.4097 194.00
54.4749 180.00
54.5401 179.00
54.6053 202.00
54.6705 186.00
54.7357 176.00
54.8009 203.00
54.8661 185.00
54.9313 175.00
54.9965 205.00
55.0617 199.00
55.1269 183.00
55.1921 160.00
55.2573 187.00
55.3225 193.00
55.3877 161.00
55.4529 167.00
55.5181 181.00
55.5833 201.00
55.6485 157.00
55.7137 194.00
55.7789 196.00
55.8441 182.00
55.9093 169.00
55.9745 215.00
56.0397 192.00
56.1049 186.00
56.1701 176.00
56.2353 177.00
56.3005 155.00
56.3657 170.00
56.4309 174.00
56.4961 189.00
56.5613 173.00
56.6265 172.00
56.6917 184.00
56.7569 203.00
56.8221 185.00
56.8873 166.00
56.9525 136.00
57.0177 178.00
57.0829 168.00
57.148 191.00
57.2132 184.00
57.2784 171.00
57.3436 169.00
57.4088 191.00
57.474 178.00
57.5392 160.00
57.6044 168.00
57.6696 174.00
57.7348 172.00
57.8 175.00
57.8652 171.00
57.9304 152.00
57.9956 195.00
58.0608 155.00
58.126 174.00
58.1912 171.00
58.2564 154.00
58.3216 156.00
58.3868 161.00
58.452 158.00
58.5172 179.00
58.5824 180.00
58.6476 175.00
58.7128 182.00
58.778 175.00
58.8432 165.00
58.9084 183.00
58.9736 154.00
59.0388 171.00
59.104 166.00
59.1692 157.00
59.2344 169.00
59.2996 149.00
59.3648 198.00
59.43 185.00
59.4952 163.00
59.5604 168.00
59.6256 180.00
59.6908 168.00
59.756 148.00
59.8212 154.00
59.8864 173.00
59.9516 152.00
60.0168 183.00
60.082 175.00
60.1472 157.00
60.2124 158.00
60.2776 161.00
60.3428 157.00
60.408 161.00
60.4732 168.00
60.5384 148.00
60.6036 160.00
60.6688 117.00
60.734 172.00
60.7992 158.00
60.8644 130.00
60.9296 192.00
60.9948 169.00
61.06 139.00
61.1252 149.00
61.1904 161.00
61.2556 162.00
61.3208 171.00
61.386 178.00
61.4512 174.00
61.5164 143.00
61.5816 149.00
61.6468 173.00
61.712 151.00
61.7772 127.00
61.8424 169.00
61.9076 161.00
61.9727 154.00
62.0379 172.00
62.1031 167.00
62.1683 150.00
62.2335 159.00
62.2987 151.00
62.3639 181.00
62.4291 175.00
62.4943 137.00
62.5595 160.00
62.6247 153.00
62.6899 172.00
62.7551 159.00
62.8203 170.00
62.8855 155.00
62.9507 179.00
63.0159 166.00
63.0811 148.00
63.1463 139.00
63.2115 155.00
63.2767 154.00
63.3419 147.00
63.4071 150.00
63.4723 151.00
63.5375 147.00
63.6027 149.00
63.6679 185.00
63.7331 128.00
63.7983 145.00
63.8635 160.00
63.9287 143.00
63.9939 168.00
64.0591 142.00
64.1243 176.00
64.1895 184.00
64.2547 161.00
64.3199 154.00
64.3851 156.00
64.4503 145.00
64.5155 151.00
64.5807 161.00
64.6459 135.00
64.7111 171.00
64.7763 151.00
64.8415 179.00
64.9067 141.00
64.9719 149.00
65.0371 152.00
65.1023 152.00
65.1675 161.00
65.2327 156.00
65.2979 132.00
65.3631 147.00
65.4283 160.00
65.4935 173.00
65.5587 160.00
65.6239 144.00
65.6891 168.00
65.7543 144.00
65.8195 167.00
65.8847 150.00
65.9499 162.00
66.0151 154.00
66.0803 154.00
66.1455 164.00
66.2107 152.00
66.2759 131.00
66.3411 142.00
66.4063 153.00
66.4715 159.00
66.5367 170.00
66.6019 146.00
66.6671 174.00
66.7322 131.00
66.7974 156.00
66.8626 148.00
66.9278 152.00
66.993 160.00
67.0582 152.00
67.1234 137.00
67.1886 161.00
67.2538 142.00
67.319 156.00
67.3842 169.00
67.4494 151.00
67.5146 166.00
67.5798 153.00
67.645 130.00
67.7102 138.00
67.7754 157.00
67.8406 156.00
67.9058 138.00
67.971 161.00
68.0362 163.00
68.1014 155.00
68.1666 154.00
68.2318 164.00
68.297 161.00
68.3622 153.00
68.4274 144.00
68.4926 151.00
68.5578 165.00
68.623 155.00
68.6882 128.00
68.7534 153.00
68.8186 161.00
68.8838 151.00
68.949 142.00
69.0142 176.00
69.0794 132.00
69.1446 146.00
69.2098 162.00
69.275 158.00
69.3402 126.00
69.4054 137.00
69.4706 157.00
69.5358 163.00
69.601 175.00
69.6662 160.00
69.7314 167.00
69.7966 162.00
69.8618 144.00
69.927 149.00
69.9922 135.00
70.0574 140.00
70.1226 147.00
70.1878 127.00
70.253 162.00
70.3182 131.00
70.3834 158.00
70.4486 149.00
70.5138 158.00
70.579 140.00
70.6442 181.00
70.7094 147.00
70.7746 157.00
70.8398 166.00
70.905 154.00
70.9702 175.00
71.0354 157.00
71.1006 178.00
71.1658 158.00
71.231 155.00
71.2962 168.00
71.3614 158.00
71.4266 151.00
71.4918 143.00
71.5569 155.00
71.6221 134.00
71.6873 136.00
71.7525 151.00
71.8177 159.00
71.8829 158.00
71.9481 137.00
72.0133 153.00
72.0785 172.00
72.1437 142.00
72.2089 163.00
72.2741 178.00
72.3393 145.00
72.4045 152.00
72.4697 160.00
72.5349 171.00
72.6001 135.00
72.6653 174.00
72.7305 143.00
72.7957 150.00
72.8609 163.00
72.9261 160.00
72.9913 154.00
73.0565 178.00
73.1217 152.00
73.1869 151.00
73.2521 172.00
73.3173 155.00
73.3825 142.00
73.4477 159.00
73.5129 153.00
73.5781 150.00
73.6433 156.00
73.7085 164.00
73.7737 147.00
73.8389 171.00
73.9041 186.00
73.9693 150.00
74.0345 153.00
74.0997 156.00
74.1649 155.00
74.2301 162.00
74.2953 154.00
74.3605 196.00
74.4257 160.00
74.4909 168.00
74.5561 189.00
74.6213 169.00
74.6865 150.00
74.7517 149.00
74.8169 161.00
74.8821 175.00
74.9473 145.00
75.0125 151.00
75.0777 164.00
75.1429 147.00
75.2081 161.00
75.2733 139.00
75.3385 153.00
75.4037 160.00
75.4689 158.00
75.5341 186.00
75.5993 190.00
75.6645 161.00
75.7297 152.00
75.7949 168.00
75.8601 132.00
75.9253 183.00
75.9905 164.00
76.0557 163.00
76.1209 173.00
76.186 153.00
76.2513 173.00
76.3165 166.00
76.3816 155.00
76.4468 161.00
76.512 175.00
76.5772 160.00
76.6424 152.00
76.7076 161.00
76.7728 168.00
76.838 168.00
76.9032 158.00
76.9684 172.00
77.0336 170.00
77.0988 177.00
77.164 167.00
77.2292 172.00
77.2944 177.00
77.3596 169.00
77.4248 179.00
77.49 157.00
77.5552 159.00
77.6204 206.00
77.6856 165.00
77.7508 168.00
77.816 189.00
77.8812 160.00
77.9464 186.00
78.0116 178.00
78.0768 160.00
78.142 189.00
78.2072 168.00
78.2724 178.00
78.3376 173.00
78.4028 153.00
78.468 167.00
78.5332 180.00
78.5984 175.00
78.6636 174.00
78.7288 158.00
78.794 173.00
78.8592 190.00
78.9244 182.00
78.9896 182.00
79.0548 154.00
79.12 195.00
79.1852 181.00
79.2504 173.00
79.3156 185.00
79.3808 184.00
79.446 190.00
79.5112 170.00
79.5764 180.00
79.6416 186.00
79.7068 199.00
79.772 173.00
79.8372 181.00
79.9024 199.00
79.9676 178.00
80.0328 218.00
80.098 177.00
80.1632 185.00
80.2284 170.00
80.2936 152.00
80.3588 200.00
80.424 187.00
80.4892 183.00
80.5544 201.00
80.6196 197.00
80.6848 167.00
80.75 216.00
80.8152 185.00
80.8804 183.00
80.9456 199.00
81.0108 209.00
81.076 186.00
81.1412 201.00
81.2063 189.00
81.2715 198.00
81.3367 194.00
81.4019 209.00
81.4671 189.00
81.5323 202.00
81.5975 223.00
81.6627 168.00
81.7279 183.00
81.7931 157.00
81.8583 178.00
81.9235 174.00
81.9887 169.00
82.0539 173.00
82.1191 188.00
82.1843 183.00
82.2495 183.00
82.3147 183.00
82.3799 192.00
82.4451 195.00
82.5103 151.00
82.5755 179.00
82.6407 195.00
82.7059 200.00
82.7711 171.00
82.8363 178.00
82.9015 164.00
82.9667 207.00
83.0319 183.00
83.0971 202.00
83.1623 182.00
83.2275 173.00
83.2927 197.00
83.3579 196.00
83.4231 188.00
83.4883 169.00
83.5535 186.00
83.6187 175.00
83.6839 208.00
83.7491 172.00
83.8143 173.00
83.8795 208.00
83.9447 189.00
84.0099 194.00
84.0751 180.00
84.1403 169.00
84.2055 178.00
84.2707 170.00
84.3359 202.00
84.4011 160.00
84.4663 166.00
84.5315 164.00
84.5967 199.00
84.6619 198.00
84.7271 174.00
84.7923 174.00
84.8575 178.00
84.9227 169.00
84.9879 175.00
85.0531 170.00
85.1183 169.00
85.1835 159.00
85.2487 160.00
85.3139 186.00
85.3791 149.00
85.4443 177.00
85.5095 181.00
85.5747 161.00
85.6399 191.00
85.7051 162.00
85.7703 154.00
85.8354 156.00
85.9006 158.00
85.9659 166.00
86.031 180.00
86.0962 145.00
86.1614 181.00
86.2266 170.00
86.2918 171.00
86.357 167.00
86.4222 201.00
86.4874 177.00
86.5526 180.00
86.6178 167.00
86.683 155.00
86.7482 179.00
86.8134 161.00
86.8786 184.00
86.9438 159.00
87.009 174.00
87.0742 165.00
87.1394 181.00
87.2046 163.00
87.2698 163.00
87.335 156.00
87.4002 172.00
87.4654 140.00
87.5306 168.00
87.5958 177.00
87.661 170.00
87.7262 175.00
87.7914 134.00
87.8566 151.00
87.9218 158.00
87.987 177.00
88.0522 158.00
88.1174 158.00
88.1826 176.00
88.2478 172.00
88.313 164.00
88.3782 155.00
88.4434 147.00
88.5086 150.00
88.5738 177.00
88.639 145.00
88.7042 128.00
88.7694 170.00
88.8346 156.00
88.8998 157.00
88.965 164.00
89.0302 163.00
89.0954 169.00
89.1606 169.00
89.2258 135.00
89.291 131.00
89.3562 159.00
89.4214 160.00
89.4866 167.00
89.5518 158.00
89.617 168.00
89.6822 128.00
89.7474 152.00
89.8126 164.00
89.8778 151.00
89.943 160.00
90.0082 163.00
90.0734 143.00
90.1386 135.00
90.2038 144.00
90.269 186.00
90.3342 165.00
90.3994 139.00
90.4646 134.00
90.5298 130.00
90.595 149.00
90.6601 147.00
90.7253 136.00
90.7905 152.00
90.8557 151.00
90.9209 143.00
90.9861 168.00
91.0513 153.00
91.1165 121.00
91.1817 167.00
91.2469 161.00
91.3121 147.00
91.3773 144.00
91.4425 149.00
91.5077 136.00
91.5729 156.00
91.6381 143.00
91.7033 155.00
91.7685 147.00
91.8337 137.00
91.8989 160.00
91.9641 131.00
92.0293 147.00
92.0945 161.00
92.1597 135.00
92.2249 147.00
92.2901 136.00
92.3553 143.00
92.4205 165.00
92.4857 141.00
92.5509 138.00
92.6161 170.00
92.6813 133.00
92.7465 150.00
92.8117 153.00
92.8769 154.00
92.9421 176.00
93.0073 122.00
93.0725 148.00
93.1377 154.00
93.2029 157.00
93.2681 150.00
93.3333 131.00
93.3985 154.00
93.4637 141.00
93.5289 126.00
93.5941 142.00
93.6593 147.00
93.7245 133.00
93.7897 153.00
93.8549 108.00
93.9201 146.00
93.9853 159.00
94.0505 149.00
94.1157 154.00
94.1809 171.00
94.2461 162.00
94.3113 172.00
94.3765 147.00
94.4417 141.00
94.5069 166.00
94.5721 151.00
94.6373 178.00
94.7025 164.00
94.7677 133.00
94.8329 146.00
94.8981 150.00
94.9633 133.00
95.0285 136.00
95.0937 172.00
95.1589 149.00
95.2241 141.00
95.2893 119.00
95.3545 144.00
95.4197 121.00
95.4848 138.00
95.55 131.00
95.6153 153.00
95.6804 138.00
95.7456 147.00
95.8108 118.00
95.876 132.00
95.9412 140.00
96.0064 143.00
96.0716 176.00
96.1368 140.00
96.202 165.00
96.2672 132.00
96.3324 162.00
96.3976 134.00
96.4628 154.00
96.528 148.00
96.5932 164.00
96.6584 131.00
96.7236 142.00
96.7888 144.00
96.854 150.00
96.9192 124.00
96.9844 155.00
97.0496 172.00
97.1148 145.00
97.18 147.00
97.2452 172.00
97.3104 145.00
97.3756 142.00
97.4408 152.00
97.506 142.00
97.5712 149.00
97.6364 164.00
97.7016 146.00
97.7668 161.00
97.832 145.00
97.8972 158.00
97.9624 163.00
98.0276 144.00
98.0928 140.00
98.158 155.00
98.2232 144.00
98.2884 152.00
98.3536 138.00
98.4188 147.00
98.484 142.00
98.5492 152.00
98.6144 154.00
98.6796 130.00
98.7448 146.00
98.81 145.00
98.8752 156.00
98.9404 139.00
99.0056 134.00
99.0708 138.00
99.136 180.00
99.2012 150.00
99.2664 137.00
99.3316 129.00
99.3968 163.00
99.462 131.00
99.5272 127.00
99.5924 146.00
99.6576 149.00
99.7228 153.00
99.788 143.00
99.8532 146.00
99.9184 151.00
99.9836 150.00
99.9944 130.00