File: data/xrd_creation/results/PG_1949-1.xy
9.903433 2589.00
9.968632 2596.00
10.0338 2609.00
10.099 2554.00
10.1642 2472.00
10.2294 2436.00
10.2946 2464.00
10.3598 2480.00
10.425 2366.00
10.4902 2412.00
10.5554 2348.00
10.6206 2310.00
10.6858 2323.00
10.751 2371.00
10.8162 2207.00
10.8814 2329.00
10.9466 2244.00
11.0118 2254.00
11.077 2227.00
11.1422 2158.00
11.2074 2148.00
11.2726 2176.00
11.3378 2195.00
11.403 2156.00
11.4682 2149.00
11.5334 2148.00
11.5986 2203.00
11.6638 2121.00
11.729 2084.00
11.7942 2109.00
11.8594 2177.00
11.9246 2154.00
11.9898 2132.00
12.055 2115.00
12.1202 2184.00
12.1854 2207.00
12.2506 2079.00
12.3158 2162.00
12.381 2113.00
12.4462 2267.00
12.5114 2196.00
12.5766 2487.00
12.6418 2780.00
12.707 2898.00
12.7722 2947.00
12.8374 3158.00
12.9026 3548.00
12.9678 3443.00
13.033 3443.00
13.0982 3097.00
13.1634 2756.00
13.2286 2516.00
13.2938 2086.00
13.359 1937.00
13.4242 1841.00
13.4894 1810.00
13.5546 1758.00
13.6198 1708.00
13.685 1751.00
13.7502 1720.00
13.8154 1638.00
13.8805 1601.00
13.9457 1605.00
14.0109 1598.00
14.0761 1593.00
14.1413 1650.00
14.2065 1627.00
14.2717 1534.00
14.3369 1499.00
14.4021 1575.00
14.4673 1523.00
14.5325 1588.00
14.5977 1630.00
14.6629 1648.00
14.7281 1635.00
14.7933 1790.00
14.8585 1633.00
14.9237 1604.00
14.9889 1600.00
15.0541 1559.00
15.1193 1580.00
15.1845 1452.00
15.2497 1482.00
15.3149 1452.00
15.3801 1407.00
15.4453 1543.00
15.5105 1546.00
15.5757 1657.00
15.6409 1576.00
15.7061 1529.00
15.7713 1546.00
15.8365 1524.00
15.9017 1522.00
15.9669 1528.00
16.0321 1517.00
16.0973 1512.00
16.1625 1482.00
16.2277 1497.00
16.2929 1599.00
16.3581 1519.00
16.4233 1626.00
16.4885 1565.00
16.5537 1555.00
16.6189 1563.00
16.6841 1487.00
16.7493 1551.00
16.8145 1448.00
16.8797 1443.00
16.9449 1443.00
17.0101 1488.00
17.0753 1434.00
17.1405 1396.00
17.2057 1387.00
17.2709 1429.00
17.3361 1373.00
17.4013 1297.00
17.4665 1292.00
17.5317 1342.00
17.5969 1421.00
17.6621 1438.00
17.7273 1541.00
17.7925 1468.00
17.8577 1457.00
17.9229 1468.00
17.9881 1455.00
18.0533 1407.00
18.1185 1321.00
18.1837 1292.00
18.2489 1295.00
18.3141 1277.00
18.3793 1362.00
18.4445 1291.00
18.5097 1282.00
18.5749 1305.00
18.6401 1405.00
18.7052 1400.00
18.7704 1516.00
18.8356 1570.00
18.9008 1411.00
18.966 1331.00
19.0312 1289.00
19.0964 1225.00
19.1616 1180.00
19.2268 1145.00
19.292 1159.00
19.3572 1165.00
19.4224 1262.00
19.4876 1297.00
19.5528 1517.00
19.618 1832.00
19.6832 2265.00
19.7484 2496.00
19.8136 2490.00
19.8788 2265.00
19.944 2011.00
20.0092 1768.00
20.0744 1481.00
20.1396 1326.00
20.2048 1151.00
20.27 1115.00
20.3352 1058.00
20.4004 1029.00
20.4656 1092.00
20.5308 1083.00
20.596 1009.00
20.6612 1053.00
20.7264 1002.00
20.7916 961.00
20.8568 989.00
20.922 1021.00
20.9872 1094.00
21.0524 1008.00
21.1176 1034.00
21.1828 1110.00
21.248 1087.00
21.3132 1158.00
21.3784 1306.00
21.4436 1364.00
21.5088 1428.00
21.574 1330.00
21.6392 1333.00
21.7044 1229.00
21.7696 1283.00
21.8348 1213.00
21.9 1180.00
21.9652 1183.00
22.0304 1042.00
22.0956 1088.00
22.1608 1114.00
22.226 1102.00
22.2912 1067.00
22.3564 1074.00
22.4216 1048.00
22.4868 1037.00
22.552 1100.00
22.6172 1129.00
22.6824 1406.00
22.7476 1574.00
22.8128 2078.00
22.878 2637.00
22.9432 2956.00
23.0084 3038.00
23.0736 2845.00
23.1388 2390.00
23.204 2007.00
23.2692 1690.00
23.3344 1409.00
23.3996 1202.00
23.4647 1027.00
23.5299 1022.00
23.5951 999.00
23.6603 959.00
23.7255 1029.00
23.7907 992.00
23.8559 1042.00
23.9211 1027.00
23.9863 1021.00
24.0515 1013.00
24.1167 1010.00
24.1819 1016.00
24.2471 1070.00
24.3123 1118.00
24.3775 1088.00
24.4427 1083.00
24.5079 1238.00
24.5731 1295.00
24.6383 1249.00
24.7035 1252.00
24.7687 1182.00
24.8339 1138.00
24.8991 1132.00
24.9643 1062.00
25.0295 986.00
25.0947 1018.00
25.1599 1044.00
25.2251 1073.00
25.2903 1101.00
25.3555 1178.00
25.4207 1188.00
25.4859 1239.00
25.5511 1176.00
25.6163 1203.00
25.6815 1234.00
25.7467 1237.00
25.8119 1236.00
25.8771 1244.00
25.9423 1343.00
26.0075 1375.00
26.0727 1528.00
26.1379 1753.00
26.2031 1940.00
26.2683 2028.00
26.3335 2056.00
26.3987 1948.00
26.4639 2011.00
26.5291 1901.00
26.5943 1920.00
26.6595 1865.00
26.7247 1574.00
26.7899 1394.00
26.8551 1281.00
26.9203 1122.00
26.9855 1009.00
27.0507 1086.00
27.1159 1002.00
27.1811 989.00
27.2463 1027.00
27.3115 1079.00
27.3767 1125.00
27.4419 1025.00
27.5071 1024.00
27.5723 1071.00
27.6375 1068.00
27.7027 1092.00
27.7679 1155.00
27.8331 1235.00
27.8983 1475.00
27.9635 1797.00
28.0287 2330.00
28.0939 2755.00
28.1591 3229.00
28.2243 3346.00
28.2894 3259.00
28.3546 2978.00
28.4198 2631.00
28.485 2420.00
28.5502 2259.00
28.6154 2125.00
28.6806 1992.00
28.7458 1883.00
28.811 1905.00
28.8762 1899.00
28.9414 1887.00
29.0066 1780.00
29.0718 1842.00
29.137 1839.00
29.2022 1610.00
29.2674 1478.00
29.3326 1495.00
29.3978 1444.00
29.463 1345.00
29.5282 1367.00
29.5934 1258.00
29.6586 1380.00
29.7238 1484.00
29.789 1832.00
29.8542 2227.00
29.9194 2876.00
29.9846 3690.00
30.0498 4588.00
30.115 5409.00
30.1802 5620.00
30.2454 5264.00
30.3106 4612.00
30.3758 3865.00
30.441 3198.00
30.5062 2629.00
30.5714 2331.00
30.6366 2253.00
30.7018 1871.00
30.767 1674.00
30.8322 1394.00
30.8974 1212.00
30.9626 1057.00
31.0278 1014.00
31.093 988.00
31.1582 946.00
31.2234 1026.00
31.2886 884.00
31.3538 899.00
31.419 907.00
31.4842 906.00
31.5494 1014.00
31.6146 1120.00
31.6798 1277.00
31.745 1361.00
31.8102 1333.00
31.8754 1389.00
31.9406 1324.00
32.0058 1209.00
32.071 1093.00
32.1362 1028.00
32.2014 1038.00
32.2666 1069.00
32.3318 1092.00
32.397 1022.00
32.4622 1011.00
32.5274 945.00
32.5926 904.00
32.6578 965.00
32.723 1051.00
32.7882 997.00
32.8534 1019.00
32.9186 966.00
32.9838 932.00
33.0489 875.00
33.1141 880.00
33.1793 873.00
33.2445 892.00
33.3097 876.00
33.3749 854.00
33.4401 883.00
33.5053 813.00
33.5705 849.00
33.6357 718.00
33.7009 820.00
33.7661 799.00
33.8313 778.00
33.8965 785.00
33.9617 739.00
34.0269 860.00
34.0921 811.00
34.1573 777.00
34.2225 745.00
34.2877 725.00
34.3529 673.00
34.4181 684.00
34.4833 655.00
34.5485 716.00
34.6137 713.00
34.6789 728.00
34.7441 725.00
34.8093 679.00
34.8745 667.00
34.9397 651.00
35.0049 632.00
35.0701 662.00
35.1353 664.00
35.2005 666.00
35.2657 694.00
35.3309 646.00
35.3961 663.00
35.4613 580.00
35.5265 564.00
35.5917 601.00
35.6569 529.00
35.7221 593.00
35.7873 587.00
35.8525 607.00
35.9177 640.00
35.9829 687.00
36.0481 801.00
36.1133 819.00
36.1785 731.00
36.2437 740.00
36.3089 724.00
36.3741 704.00
36.4393 714.00
36.5045 818.00
36.5697 978.00
36.6349 965.00
36.7001 1026.00
36.7653 1016.00
36.8305 982.00
36.8957 833.00
36.9609 802.00
37.0261 783.00
37.0913 744.00
37.1565 711.00
37.2217 732.00
37.2869 683.00
37.3521 668.00
37.4173 622.00
37.4825 584.00
37.5477 626.00
37.6129 646.00
37.6781 737.00
37.7433 886.00
37.8085 927.00
37.8736 1040.00
37.9388 1132.00
38.004 1245.00
38.0692 1152.00
38.1344 1137.00
38.1996 1063.00
38.2648 1007.00
38.33 987.00
38.3952 873.00
38.4604 816.00
38.5256 826.00
38.5908 911.00
38.656 742.00
38.7212 776.00
38.7864 747.00
38.8516 731.00
38.9168 678.00
38.982 649.00
39.0472 662.00
39.1124 641.00
39.1776 676.00
39.2428 670.00
39.308 655.00
39.3732 705.00
39.4384 755.00
39.5036 877.00
39.5688 919.00
39.634 997.00
39.6992 947.00
39.7644 945.00
39.8296 902.00
39.8948 791.00
39.96 737.00
40.0252 767.00
40.0904 767.00
40.1556 704.00
40.2208 778.00
40.286 832.00
40.3512 868.00
40.4164 939.00
40.4816 918.00
40.5468 934.00
40.612 875.00
40.6772 800.00
40.7424 725.00
40.8076 667.00
40.8728 585.00
40.938 522.00
41.0032 515.00
41.0684 583.00
41.1336 578.00
41.1988 563.00
41.264 502.00
41.3292 531.00
41.3944 519.00
41.4596 515.00
41.5248 515.00
41.59 607.00
41.6552 582.00
41.7204 594.00
41.7856 576.00
41.8508 537.00
41.916 525.00
41.9812 486.00
42.0464 468.00
42.1116 454.00
42.1768 520.00
42.242 563.00
42.3072 588.00
42.3724 728.00
42.4376 773.00
42.5028 825.00
42.568 812.00
42.6332 805.00
42.6983 702.00
42.7635 647.00
42.8287 629.00
42.8939 599.00
42.9591 604.00
43.0243 557.00
43.0895 609.00
43.1547 574.00
43.2199 546.00
43.2851 569.00
43.3503 596.00
43.4155 539.00
43.4807 606.00
43.5459 592.00
43.6111 546.00
43.6763 541.00
43.7415 551.00
43.8067 546.00
43.8719 585.00
43.9371 586.00
44.0023 536.00
44.0675 577.00
44.1327 594.00
44.1979 625.00
44.2631 695.00
44.3283 690.00
44.3935 747.00
44.4587 740.00
44.5239 745.00
44.5891 688.00
44.6543 656.00
44.7195 654.00
44.7847 646.00
44.8499 600.00
44.9151 640.00
44.9803 575.00
45.0455 615.00
45.1107 555.00
45.1759 578.00
45.2411 497.00
45.3063 489.00
45.3715 490.00
45.4367 535.00
45.5019 566.00
45.5671 609.00
45.6323 700.00
45.6975 773.00
45.7627 911.00
45.8279 894.00
45.8931 891.00
45.9583 855.00
46.0235 830.00
46.0887 812.00
46.1539 750.00
46.2191 749.00
46.2843 754.00
46.3495 675.00
46.4147 683.00
46.4799 743.00
46.5451 727.00
46.6103 894.00
46.6755 989.00
46.7407 1193.00
46.8059 1281.00
46.8711 1459.00
46.9363 1401.00
47.0015 1359.00
47.0667 1178.00
47.1319 1011.00
47.1971 864.00
47.2623 767.00
47.3275 641.00
47.3927 630.00
47.4579 684.00
47.523 687.00
47.5882 796.00
47.6534 909.00
47.7186 894.00
47.7838 888.00
47.849 830.00
47.9142 708.00
47.9794 726.00
48.0446 701.00
48.1098 677.00
48.175 702.00
48.2402 674.00
48.3054 685.00
48.3706 732.00
48.4358 701.00
48.501 699.00
48.5662 658.00
48.6314 675.00
48.6966 676.00
48.7618 729.00
48.827 797.00
48.8922 865.00
48.9574 955.00
49.0226 1040.00
49.0878 1179.00
49.153 1285.00
49.2182 1237.00
49.2834 1190.00
49.3486 1141.00
49.4138 1006.00
49.479 921.00
49.5442 808.00
49.6094 699.00
49.6746 662.00
49.7398 631.00
49.805 633.00
49.8702 749.00
49.9354 788.00
50.0006 805.00
50.0658 843.00
50.131 875.00
50.1962 913.00
50.2614 979.00
50.3266 958.00
50.3918 906.00
50.457 1007.00
50.5222 1013.00
50.5874 1072.00
50.6526 1010.00
50.7178 1012.00
50.783 865.00
50.8482 857.00
50.9134 942.00
50.9786 948.00
51.0438 1015.00
51.109 1001.00
51.1742 897.00
51.2394 896.00
51.3046 879.00
51.3698 837.00
51.435 739.00
51.5002 733.00
51.5654 608.00
51.6306 633.00
51.6958 608.00
51.761 652.00
51.8262 636.00
51.8914 648.00
51.9566 726.00
52.0218 719.00
52.087 863.00
52.1522 1031.00
52.2174 1156.00
52.2826 1123.00
52.3477 1121.00
52.4129 1122.00
52.4781 1041.00
52.5433 1023.00
52.6085 869.00
52.6737 824.00
52.7389 834.00
52.8041 716.00
52.8693 655.00
52.9345 675.00
52.9997 623.00
53.0649 634.00
53.1301 706.00
53.1953 851.00
53.2605 1031.00
53.3257 1099.00
53.3909 1152.00
53.4561 1192.00
53.5213 1204.00
53.5865 1197.00
53.6517 1160.00
53.7169 1154.00
53.7821 1080.00
53.8473 1003.00
53.9125 924.00
53.9777 859.00
54.0429 767.00
54.1081 733.00
54.1733 730.00
54.2385 671.00
54.3037 610.00
54.3689 619.00
54.4341 603.00
54.4993 568.00
54.5645 535.00
54.6297 525.00
54.6949 522.00
54.7601 556.00
54.8253 483.00
54.8905 468.00
54.9557 521.00
55.0209 562.00
55.0861 568.00
55.1513 585.00
55.2165 636.00
55.2817 641.00
55.3469 709.00
55.4121 726.00
55.4773 722.00
55.5425 886.00
55.6077 957.00
55.6729 1032.00
55.7381 1127.00
55.8033 1146.00
55.8685 1082.00
55.9337 959.00
55.9989 915.00
56.0641 933.00
56.1293 927.00
56.1945 976.00
56.2597 951.00
56.3249 923.00
56.3901 960.00
56.4553 966.00
56.5205 1009.00
56.5857 1037.00
56.6509 995.00
56.7161 918.00
56.7813 974.00
56.8465 874.00
56.9117 904.00
56.9769 997.00
57.042 851.00
57.1073 930.00
57.1724 915.00
57.2376 877.00
57.3028 922.00
57.368 730.00
57.4332 799.00
57.4984 760.00
57.5636 796.00
57.6288 760.00
57.694 746.00
57.7592 811.00
57.8244 784.00
57.8896 736.00
57.9548 808.00
58.02 778.00
58.0852 737.00
58.1504 737.00
58.2156 659.00
58.2808 707.00
58.346 749.00
58.4112 795.00
58.4764 857.00
58.5416 952.00
58.6068 964.00
58.672 934.00
58.7372 786.00
58.8024 755.00
58.8676 758.00
58.9328 664.00
58.998 664.00
59.0632 684.00
59.1284 630.00
59.1936 601.00
59.2588 567.00
59.324 629.00
59.3892 665.00
59.4544 716.00
59.5196 716.00
59.5848 797.00
59.65 663.00
59.7152 618.00
59.7804 553.00
59.8456 549.00
59.9108 582.00
59.976 600.00
60.0412 577.00
60.1064 552.00
60.1716 526.00
60.2368 551.00
60.302 511.00
60.3672 522.00
60.4324 546.00
60.4976 494.00
60.5628 511.00
60.628 552.00
60.6932 503.00
60.7584 491.00
60.8236 508.00
60.8888 458.00
60.954 458.00
61.0192 447.00
61.0844 470.00
61.1496 498.00
61.2148 489.00
61.28 520.00
61.3452 527.00
61.4104 465.00
61.4756 474.00
61.5408 470.00
61.606 480.00
61.6712 458.00
61.7364 473.00
61.8016 560.00
61.8667 525.00
61.932 550.00
61.9971 567.00
62.0623 563.00
62.1275 587.00
62.1927 625.00
62.2579 600.00
62.3231 672.00
62.3883 674.00
62.4535 691.00
62.5187 736.00
62.5839 836.00
62.6491 891.00
62.7143 893.00
62.7795 860.00
62.8447 763.00
62.9099 665.00
62.9751 588.00
63.0403 556.00
63.1055 506.00
63.1707 513.00
63.2359 469.00
63.3011 476.00
63.3663 515.00
63.4315 530.00
63.4967 550.00
63.5619 555.00
63.6271 551.00
63.6923 599.00
63.7575 549.00
63.8227 568.00
63.8879 587.00
63.9531 519.00
64.0183 541.00
64.0835 504.00
64.1487 487.00
64.2139 465.00
64.2791 453.00
64.3443 482.00
64.4095 511.00
64.4747 531.00
64.5399 474.00
64.6051 486.00
64.6703 540.00
64.7355 484.00
64.8007 504.00
64.8659 492.00
64.9311 452.00
64.9963 491.00
65.0615 433.00
65.1267 469.00
65.1919 431.00
65.2571 423.00
65.3223 464.00
65.3875 512.00
65.4527 505.00
65.5179 478.00
65.5831 509.00
65.6483 531.00
65.7135 564.00
65.7787 548.00
65.8439 559.00
65.9091 611.00
65.9743 613.00
66.0395 522.00
66.1047 530.00
66.1699 471.00
66.2351 469.00
66.3003 466.00
66.3655 517.00
66.4307 497.00
66.4959 506.00
66.561 576.00
66.6263 559.00
66.6915 607.00
66.7566 576.00
66.8218 626.00
66.887 601.00
66.9522 593.00
67.0174 583.00
67.0826 679.00
67.1478 726.00
67.213 813.00
67.2782 784.00
67.3434 813.00
67.4086 776.00
67.4738 712.00
67.539 712.00
67.6042 671.00
67.6694 699.00
67.7346 712.00
67.7998 638.00
67.865 620.00
67.9302 611.00
67.9954 602.00
68.0606 553.00
68.1258 539.00
68.191 548.00
68.2562 530.00
68.3214 472.00
68.3866 443.00
68.4518 468.00
68.517 447.00
68.5822 493.00
68.6474 504.00
68.7126 531.00
68.7778 569.00
68.843 550.00
68.9082 529.00
68.9734 548.00
69.0386 519.00
69.1038 474.00
69.169 454.00
69.2342 424.00
69.2994 412.00
69.3646 388.00
69.4298 397.00
69.495 433.00
69.5602 422.00
69.6254 465.00
69.6906 440.00
69.7558 499.00
69.821 471.00
69.8862 466.00
69.9514 458.00
70.0166 507.00
70.0818 477.00
70.147 482.00
70.2122 504.00
70.2774 463.00
70.3426 509.00
70.4078 502.00
70.473 569.00
70.5382 604.00
70.6034 578.00
70.6686 652.00
70.7338 609.00
70.799 586.00
70.8642 573.00
70.9294 613.00
70.9946 608.00
71.0598 524.00
71.125 528.00
71.1902 500.00
71.2554 499.00
71.3205 485.00
71.3858 465.00
71.451 482.00
71.5162 487.00
71.5813 429.00
71.6465 449.00
71.7117 476.00
71.7769 481.00
71.8421 489.00
71.9073 512.00
71.9725 500.00
72.0377 508.00
72.1029 555.00
72.1681 498.00
72.2333 486.00
72.2985 474.00
72.3637 439.00
72.4289 437.00
72.4941 475.00
72.5593 408.00
72.6245 483.00
72.6897 475.00
72.7549 479.00
72.8201 530.00
72.8853 612.00
72.9505 596.00
73.0157 633.00
73.0809 570.00
73.1461 599.00
73.2113 555.00
73.2765 522.00
73.3417 548.00
73.4069 557.00
73.4721 516.00
73.5373 506.00
73.6025 454.00
73.6677 492.00
73.7329 449.00
73.7981 503.00
73.8633 471.00
73.9285 479.00
73.9937 487.00
74.0589 463.00
74.1241 471.00
74.1893 492.00
74.2545 447.00
74.3197 422.00
74.3849 435.00
74.4501 425.00
74.5153 462.00
74.5805 431.00
74.6457 457.00
74.7109 519.00
74.7761 564.00
74.8413 600.00
74.9065 643.00
74.9717 757.00
75.0369 680.00
75.1021 646.00
75.1673 617.00
75.2325 578.00
75.2977 574.00
75.3629 556.00
75.4281 522.00
75.4933 501.00
75.5585 500.00
75.6237 504.00
75.6889 494.00
75.7541 478.00
75.8193 481.00
75.8845 560.00
75.9497 540.00
76.0149 553.00
76.0801 593.00
76.1452 592.00
76.2104 646.00
76.2756 680.00
76.3409 651.00
76.406 673.00
76.4712 672.00
76.5364 733.00
76.6016 672.00
76.6668 655.00
76.732 632.00
76.7972 615.00
76.8624 613.00
76.9276 573.00
76.9928 555.00
77.058 646.00
77.1232 551.00
77.1884 524.00
77.2536 499.00
77.3188 472.00
77.384 450.00
77.4492 478.00
77.5144 515.00
77.5796 422.00
77.6448 469.00
77.71 481.00
77.7752 492.00
77.8404 446.00
77.9056 487.00
77.9708 439.00
78.036 407.00
78.1012 452.00
78.1664 384.00
78.2316 427.00
78.2968 409.00
78.362 417.00
78.4272 450.00
78.4924 441.00
78.5576 426.00
78.6228 397.00
78.688 410.00
78.7532 403.00
78.8184 429.00
78.8836 405.00
78.9488 475.00
79.014 442.00
79.0792 479.00
79.1444 435.00
79.2096 466.00
79.2748 445.00
79.34 490.00
79.4052 436.00
79.4704 473.00
79.5356 444.00
79.6008 437.00
79.666 422.00
79.7312 447.00
79.7964 402.00
79.8616 408.00
79.9268 386.00
79.992 400.00
80.0572 424.00
80.1224 397.00
80.1876 380.00
80.2528 415.00
80.318 430.00
80.3832 457.00
80.4484 445.00
80.5136 468.00
80.5788 491.00
80.644 509.00
80.7092 476.00
80.7744 560.00
80.8396 566.00
80.9048 541.00
80.9699 570.00
81.0351 546.00
81.1003 537.00
81.1655 549.00
81.2307 538.00
81.2959 510.00
81.3611 472.00
81.4263 507.00
81.4915 521.00
81.5567 562.00
81.6219 552.00
81.6871 546.00
81.7523 550.00
81.8175 584.00
81.8827 571.00
81.9479 571.00
82.0131 556.00
82.0783 523.00
82.1435 533.00
82.2087 433.00
82.2739 455.00
82.3391 449.00
82.4043 456.00
82.4695 451.00
82.5347 444.00
82.5999 493.00
82.6651 495.00
82.7303 479.00
82.7955 498.00
82.8607 488.00
82.9259 492.00
82.9911 463.00
83.0563 461.00
83.1215 451.00
83.1867 406.00
83.2519 446.00
83.3171 430.00
83.3823 402.00
83.4475 395.00
83.5127 372.00
83.5779 387.00
83.6431 381.00
83.7083 343.00
83.7735 418.00
83.8387 383.00
83.9039 426.00
83.9691 359.00
84.0343 370.00
84.0995 392.00
84.1647 459.00
84.2299 434.00
84.2951 427.00
84.3603 443.00
84.4255 477.00
84.4907 492.00
84.5559 438.00
84.6211 452.00
84.6863 453.00
84.7515 413.00
84.8167 446.00
84.8819 414.00
84.9471 413.00
85.0123 426.00
85.0775 438.00
85.1427 458.00
85.2079 478.00
85.2731 483.00
85.3383 523.00
85.4035 517.00
85.4687 533.00
85.5339 506.00
85.5991 493.00
85.6643 454.00
85.7295 495.00
85.7946 475.00
85.8598 469.00
85.925 437.00
85.9903 446.00
86.0554 524.00
86.1206 527.00
86.1858 495.00
86.251 510.00
86.3162 526.00
86.3814 500.00
86.4466 505.00
86.5118 519.00
86.577 475.00
86.6422 482.00
86.7074 486.00
86.7726 467.00
86.8378 443.00
86.903 430.00
86.9682 449.00
87.0334 469.00
87.0986 446.00
87.1638 465.00
87.229 418.00
87.2942 416.00
87.3594 452.00
87.4246 438.00
87.4898 409.00
87.555 406.00
87.6202 423.00
87.6854 394.00
87.7506 425.00
87.8158 385.00
87.881 398.00
87.9462 406.00
88.0114 394.00
88.0766 408.00
88.1418 424.00
88.207 480.00
88.2722 404.00
88.3374 419.00
88.4026 448.00
88.4678 402.00
88.533 436.00
88.5982 391.00
88.6634 392.00
88.7286 354.00
88.7938 417.00
88.859 369.00
88.9242 387.00
88.9894 405.00
89.0546 414.00
89.1198 384.00
89.185 427.00
89.2502 431.00
89.3154 389.00
89.3806 404.00
89.4458 413.00
89.511 430.00
89.5762 404.00
89.6414 341.00
89.7066 383.00
89.7718 378.00
89.837 381.00
89.9022 390.00
89.9674 398.00
90.0326 408.00
90.0978 393.00
90.163 406.00
90.2282 455.00
90.2934 476.00
90.3586 457.00
90.4238 471.00
90.489 516.00
90.5542 536.00
90.6193 541.00
90.6845 529.00
90.7497 529.00
90.8149 532.00
90.8801 538.00
90.9453 579.00
91.0105 520.00
91.0757 518.00
91.1409 563.00
91.2061 473.00
91.2713 462.00
91.3365 463.00
91.4017 490.00
91.4669 476.00
91.5321 488.00
91.5973 467.00
91.6625 508.00
91.7277 467.00
91.7929 421.00
91.8581 475.00
91.9233 489.00
91.9885 399.00
92.0537 433.00
92.1189 473.00
92.1841 417.00
92.2493 440.00
92.3145 389.00
92.3797 424.00
92.4449 384.00
92.5101 384.00
92.5753 386.00
92.6405 402.00
92.7057 411.00
92.7709 444.00
92.8361 416.00
92.9013 416.00
92.9665 422.00
93.0317 454.00
93.0969 452.00
93.1621 461.00
93.2273 468.00
93.2925 465.00
93.3577 433.00
93.4229 434.00
93.4881 420.00
93.5533 402.00
93.6185 413.00
93.6837 396.00
93.7489 409.00
93.8141 427.00
93.8793 396.00
93.9445 459.00
94.0097 393.00
94.0749 435.00
94.1401 380.00
94.2053 412.00
94.2705 417.00
94.3357 425.00
94.4009 419.00
94.4661 406.00
94.5313 441.00
94.5965 394.00
94.6617 382.00
94.7269 461.00
94.7921 367.00
94.8573 427.00
94.9225 417.00
94.9877 411.00
95.0529 434.00
95.1181 392.00
95.1833 396.00
95.2485 400.00
95.3137 418.00
95.3789 411.00
95.444 406.00
95.5092 417.00
95.5744 367.00
95.6396 398.00
95.7048 427.00
95.77 410.00
95.8352 377.00
95.9004 395.00
95.9656 409.00
96.0308 378.00
96.096 382.00
96.1612 373.00
96.2264 397.00
96.2916 399.00
96.3568 365.00
96.422 339.00
96.4872 366.00
96.5524 347.00
96.6176 380.00
96.6828 339.00
96.748 366.00
96.8132 377.00
96.8784 370.00
96.9436 391.00
97.0088 371.00
97.074 400.00
97.1392 383.00
97.2044 411.00
97.2696 389.00
97.3348 360.00
97.4 410.00
97.4652 363.00
97.5304 358.00
97.5956 375.00
97.6608 337.00
97.726 348.00
97.7912 365.00
97.8564 382.00
97.9216 334.00
97.9868 367.00
98.052 339.00
98.1172 334.00
98.1824 363.00
98.2476 378.00
98.3128 423.00
98.378 411.00
98.4432 429.00
98.5084 418.00
98.5736 418.00
98.6388 392.00
98.704 394.00
98.7692 410.00
98.8344 412.00
98.8996 430.00
98.9648 408.00
99.03 412.00
99.0952 428.00
99.1604 404.00
99.2256 362.00
99.2908 401.00
99.356 408.00
99.4212 346.00
99.4864 396.00
99.5516 383.00
99.6168 418.00
99.682 399.00
99.7472 434.00
99.8124 451.00
99.8776 426.00
99.9428 433.00
100.008 397.00
100.073 420.00
100.095 450.00