File: data/xrd_creation/results/PG_1522-1.xy
10.0094 2349.00
10.0746 2311.00
10.1398 2283.00
10.205 2227.00
10.2702 2260.00
10.3354 2275.00
10.4006 2172.00
10.4658 2213.00
10.531 2162.00
10.5962 2141.00
10.6614 2152.00
10.7266 2182.00
10.7918 2160.00
10.857 2114.00
10.9222 2146.00
10.9874 2052.00
11.0526 2051.00
11.1178 1942.00
11.183 2011.00
11.2482 2002.00
11.3134 1955.00
11.3786 2006.00
11.4438 2029.00
11.509 1925.00
11.5742 1994.00
11.6394 1872.00
11.7046 1845.00
11.7698 1862.00
11.835 1831.00
11.9002 1831.00
11.9654 1879.00
12.0306 1854.00
12.0958 1757.00
12.161 1704.00
12.2262 1760.00
12.2914 1745.00
12.3566 1758.00
12.4218 1767.00
12.487 1719.00
12.5522 1708.00
12.6174 1708.00
12.6826 1690.00
12.7478 1737.00
12.813 1725.00
12.8782 1646.00
12.9434 1651.00
13.0086 1660.00
13.0738 1585.00
13.139 1648.00
13.2042 1633.00
13.2694 1639.00
13.3346 1589.00
13.3998 1558.00
13.465 1601.00
13.5302 1491.00
13.5954 1553.00
13.6606 1607.00
13.7258 1558.00
13.791 1568.00
13.8562 1572.00
13.9214 1511.00
13.9865 1543.00
14.0517 1496.00
14.1169 1609.00
14.1821 1581.00
14.2473 1492.00
14.3125 1514.00
14.3777 1513.00
14.4429 1494.00
14.5081 1430.00
14.5733 1434.00
14.6385 1450.00
14.7037 1454.00
14.7689 1520.00
14.8341 1477.00
14.8993 1418.00
14.9645 1525.00
15.0297 1443.00
15.0949 1516.00
15.1601 1438.00
15.2253 1544.00
15.2905 1487.00
15.3557 1445.00
15.4209 1487.00
15.4861 1489.00
15.5513 1506.00
15.6165 1482.00
15.6817 1518.00
15.7469 1571.00
15.8121 1652.00
15.8773 1751.00
15.9425 1753.00
16.0077 1722.00
16.0729 1711.00
16.1381 1472.00
16.2033 1483.00
16.2685 1440.00
16.3337 1442.00
16.3989 1461.00
16.4641 1351.00
16.5293 1394.00
16.5945 1402.00
16.6597 1366.00
16.7249 1389.00
16.7901 1464.00
16.8553 1370.00
16.9205 1424.00
16.9857 1324.00
17.0509 1383.00
17.1161 1339.00
17.1813 1297.00
17.2465 1335.00
17.3117 1365.00
17.3769 1324.00
17.4421 1330.00
17.5073 1325.00
17.5725 1361.00
17.6377 1308.00
17.7029 1297.00
17.7681 1307.00
17.8333 1316.00
17.8985 1292.00
17.9637 1275.00
18.0289 1282.00
18.0941 1237.00
18.1593 1236.00
18.2245 1266.00
18.2897 1288.00
18.3549 1295.00
18.4201 1272.00
18.4853 1289.00
18.5505 1313.00
18.6157 1304.00
18.6809 1317.00
18.7461 1380.00
18.8112 1438.00
18.8764 1607.00
18.9416 1789.00
19.0068 2065.00
19.072 2514.00
19.1372 3172.00
19.2024 3652.00
19.2676 3412.00
19.3328 2447.00
19.398 1802.00
19.4632 1534.00
19.5284 1456.00
19.5936 1314.00
19.6588 1272.00
19.724 1302.00
19.7892 1168.00
19.8544 1158.00
19.9196 1187.00
19.9848 1172.00
20.05 1135.00
20.1152 1176.00
20.1804 1186.00
20.2456 1166.00
20.3108 1240.00
20.376 1170.00
20.4412 1140.00
20.5064 1104.00
20.5716 1151.00
20.6368 1127.00
20.702 1126.00
20.7672 1154.00
20.8324 1171.00
20.8976 1090.00
20.9628 1127.00
21.028 1097.00
21.0932 1177.00
21.1584 1156.00
21.2236 1164.00
21.2888 1210.00
21.354 1338.00
21.4192 1625.00
21.4844 2347.00
21.5496 3577.00
21.6148 5265.00
21.68 4201.00
21.7452 1913.00
21.8104 1326.00
21.8756 1167.00
21.9408 1163.00
22.006 1087.00
22.0712 1028.00
22.1364 1061.00
22.2016 1097.00
22.2668 1073.00
22.332 1020.00
22.3972 1019.00
22.4624 1020.00
22.5276 967.00
22.5928 1025.00
22.658 985.00
22.7232 1054.00
22.7884 1040.00
22.8536 1019.00
22.9188 1025.00
22.984 1021.00
23.0492 1007.00
23.1144 1070.00
23.1796 1055.00
23.2448 1108.00
23.31 1044.00
23.3752 1054.00
23.4404 1022.00
23.5056 1061.00
23.5708 1245.00
23.6359 1365.00
23.7011 1562.00
23.7663 1592.00
23.8315 1291.00
23.8967 1123.00
23.9619 1038.00
24.0271 1082.00
24.0923 1085.00
24.1575 1085.00
24.2227 1112.00
24.2879 1171.00
24.3531 1205.00
24.4183 1257.00
24.4835 1358.00
24.5487 1325.00
24.6139 1250.00
24.6791 1198.00
24.7443 1163.00
24.8095 1114.00
24.8747 1062.00
24.9399 1066.00
25.0051 1010.00
25.0703 1006.00
25.1355 932.00
25.2007 921.00
25.2659 940.00
25.3311 934.00
25.3963 893.00
25.4615 940.00
25.5267 927.00
25.5919 940.00
25.6571 928.00
25.7223 972.00
25.7875 921.00
25.8527 903.00
25.9179 879.00
25.9831 891.00
26.0483 935.00
26.1135 1041.00
26.1787 933.00
26.2439 923.00
26.3091 934.00
26.3743 993.00
26.4395 931.00
26.5047 920.00
26.5699 951.00
26.6351 906.00
26.7003 906.00
26.7655 894.00
26.8307 874.00
26.8959 909.00
26.9611 898.00
27.0263 931.00
27.0915 942.00
27.1567 898.00
27.2219 928.00
27.2871 901.00
27.3523 935.00
27.4175 940.00
27.4827 883.00
27.5479 911.00
27.6131 1027.00
27.6783 1000.00
27.7435 990.00
27.8087 970.00
27.8739 949.00
27.9391 948.00
28.0043 938.00
28.0695 842.00
28.1347 930.00
28.1999 945.00
28.2651 915.00
28.3303 930.00
28.3955 965.00
28.4606 930.00
28.5258 1019.00
28.591 929.00
28.6562 985.00
28.7214 950.00
28.7866 976.00
28.8518 1074.00
28.917 1074.00
28.9822 1071.00
29.0474 1052.00
29.1126 1091.00
29.1778 1093.00
29.243 1098.00
29.3082 1170.00
29.3734 1292.00
29.4386 1261.00
29.5038 1430.00
29.569 1590.00
29.6342 2069.00
29.6994 2675.00
29.7646 2907.00
29.8298 2666.00
29.895 2400.00
29.9602 2552.00
30.0254 3092.00
30.0906 3731.00
30.1558 4821.00
30.221 6262.00
30.2862 8244.00
30.3514 9396.00
30.4166 9459.00
30.4818 9036.00
30.547 9456.00
30.6122 10958.00
30.6774 13232.00
30.7426 14165.00
30.8078 13435.00
30.873 11893.00
30.9382 9410.00
31.0034 6306.00
31.0686 4082.00
31.1338 3424.00
31.199 2971.00
31.2642 2805.00
31.3294 2755.00
31.3946 2755.00
31.4598 2883.00
31.525 3299.00
31.5902 3515.00
31.6554 4343.00
31.7206 5511.00
31.7858 7598.00
31.851 10521.00
31.9162 14575.00
31.9814 18267.00
32.0466 19400.00
32.1118 16310.00
32.177 11027.00
32.2422 7037.00
32.3074 4963.00
32.3726 3952.00
32.4378 2976.00
32.503 2483.00
32.5682 2213.00
32.6334 2110.00
32.6986 1928.00
32.7638 1733.00
32.829 1737.00
32.8942 1633.00
32.9594 1522.00
33.0246 1550.00
33.0898 1542.00
33.1549 1548.00
33.2201 1543.00
33.2853 1670.00
33.3505 1737.00
33.4157 1893.00
33.4809 2051.00
33.5461 2349.00
33.6113 2925.00
33.6765 3435.00
33.7417 3807.00
33.8069 3678.00
33.8721 3153.00
33.9373 2614.00
34.0025 2250.00
34.0677 2005.00
34.1329 1882.00
34.1981 1975.00
34.2633 2205.00
34.3285 2757.00
34.3937 3413.00
34.4589 2780.00
34.5241 2065.00
34.5893 1681.00
34.6545 1618.00
34.7197 1685.00
34.7849 1644.00
34.8501 1835.00
34.9153 1943.00
34.9805 2100.00
35.0457 2542.00
35.1109 2915.00
35.1761 3760.00
35.2413 5028.00
35.3065 7223.00
35.3717 10407.00
35.4369 13536.00
35.5021 14338.00
35.5673 12371.00
35.6325 9296.00
35.6977 6420.00
35.7629 4655.00
35.8281 3565.00
35.8933 2810.00
35.9585 2404.00
36.0237 2080.00
36.0889 1948.00
36.1541 1867.00
36.2193 1886.00
36.2845 2436.00
36.3497 3008.00
36.4149 2494.00
36.4801 1962.00
36.5453 1582.00
36.6105 1563.00
36.6757 1502.00
36.7409 1480.00
36.8061 1474.00
36.8713 1553.00
36.9365 1595.00
37.0017 1649.00
37.0669 1992.00
37.1321 2450.00
37.1973 3263.00
37.2625 3759.00
37.3277 3406.00
37.3929 3401.00
37.4581 3612.00
37.5233 4273.00
37.5885 4887.00
37.6537 5040.00
37.7189 4800.00
37.7841 4038.00
37.8493 3412.00
37.9145 2894.00
37.9796 2490.00
38.0448 2277.00
38.11 2405.00
38.1752 2423.00
38.2404 2555.00
38.3056 2928.00
38.3708 3475.00
38.436 4212.00
38.5012 5238.00
38.5664 6528.00
38.6316 7615.00
38.6968 7600.00
38.762 6645.00
38.8272 5133.00
38.8924 3918.00
38.9576 3069.00
39.0228 2530.00
39.088 2112.00
39.1532 1834.00
39.2184 1603.00
39.2836 1488.00
39.3488 1339.00
39.414 1247.00
39.4792 1163.00
39.5444 1147.00
39.6096 1112.00
39.6748 1186.00
39.74 1353.00
39.8052 1780.00
39.8704 2154.00
39.9356 1647.00
40.0008 1330.00
40.066 1128.00
40.1312 1151.00
40.1964 1512.00
40.2616 1248.00
40.3268 1131.00
40.392 952.00
40.4572 850.00
40.5224 785.00
40.5876 788.00
40.6528 817.00
40.718 798.00
40.7832 784.00
40.8484 775.00
40.9136 742.00
40.9788 761.00
41.044 749.00
41.1092 771.00
41.1744 778.00
41.2396 743.00
41.3048 777.00
41.37 743.00
41.4352 748.00
41.5004 690.00
41.5656 741.00
41.6308 750.00
41.696 715.00
41.7612 744.00
41.8264 749.00
41.8916 726.00
41.9568 770.00
42.022 802.00
42.0872 707.00
42.1524 747.00
42.2176 796.00
42.2828 853.00
42.348 860.00
42.4132 854.00
42.4784 796.00
42.5436 870.00
42.6088 923.00
42.6739 906.00
42.7392 1040.00
42.8043 1085.00
42.8695 1276.00
42.9347 1528.00
42.9999 1741.00
43.0651 1924.00
43.1303 2042.00
43.1955 2224.00
43.2607 2293.00
43.3259 2264.00
43.3911 2228.00
43.4563 1868.00
43.5215 1691.00
43.5867 1457.00
43.6519 1473.00
43.7171 1465.00
43.7823 1280.00
43.8475 1135.00
43.9127 925.00
43.9779 878.00
44.0431 901.00
44.1083 832.00
44.1735 866.00
44.2387 816.00
44.3039 811.00
44.3691 818.00
44.4343 838.00
44.4995 881.00
44.5647 969.00
44.6299 982.00
44.6951 1030.00
44.7603 1169.00
44.8255 1191.00
44.8907 1434.00
44.9559 1519.00
45.0211 1425.00
45.0863 1378.00
45.1515 1231.00
45.2167 1176.00
45.2819 1083.00
45.3471 1098.00
45.4123 1088.00
45.4775 1048.00
45.5427 1102.00
45.6079 1209.00
45.6731 1376.00
45.7383 1560.00
45.8035 1918.00
45.8687 2207.00
45.9339 2718.00
45.9991 3180.00
46.0643 3586.00
46.1295 3337.00
46.1947 3008.00
46.2599 2434.00
46.3251 1938.00
46.3903 1550.00
46.4555 1303.00
46.5207 1159.00
46.5859 1008.00
46.6511 951.00
46.7163 866.00
46.7815 819.00
46.8467 824.00
46.9119 802.00
46.9771 774.00
47.0423 764.00
47.1075 805.00
47.1727 806.00
47.2379 746.00
47.3031 721.00
47.3683 781.00
47.4335 751.00
47.4986 784.00
47.5639 755.00
47.629 779.00
47.6942 690.00
47.7594 744.00
47.8246 766.00
47.8898 764.00
47.955 784.00
48.0202 814.00
48.0854 829.00
48.1506 845.00
48.2158 951.00
48.281 1040.00
48.3462 1159.00
48.4114 1280.00
48.4766 1308.00
48.5418 1535.00
48.607 1724.00
48.6722 1971.00
48.7374 2349.00
48.8026 2744.00
48.8678 3214.00
48.933 3325.00
48.9982 3217.00
49.0634 2695.00
49.1286 2157.00
49.1938 1675.00
49.259 1352.00
49.3242 1188.00
49.3894 1042.00
49.4546 979.00
49.5198 1058.00
49.585 1140.00
49.6502 1237.00
49.7154 1445.00
49.7806 1439.00
49.8458 1468.00
49.911 1300.00
49.9762 1118.00
50.0414 1082.00
50.1066 881.00
50.1718 832.00
50.237 788.00
50.3022 801.00
50.3674 754.00
50.4326 719.00
50.4978 870.00
50.563 897.00
50.6282 933.00
50.6934 880.00
50.7586 922.00
50.8238 825.00
50.889 885.00
50.9542 924.00
51.0194 1039.00
51.0846 1104.00
51.1498 1165.00
51.215 1083.00
51.2802 1046.00
51.3454 969.00
51.4106 847.00
51.4758 774.00
51.541 719.00
51.6062 687.00
51.6714 657.00
51.7366 689.00
51.8018 649.00
51.867 680.00
51.9322 648.00
51.9974 657.00
52.0626 628.00
52.1278 651.00
52.193 653.00
52.2582 635.00
52.3233 640.00
52.3886 610.00
52.4537 658.00
52.5189 689.00
52.5841 683.00
52.6493 705.00
52.7145 704.00
52.7797 698.00
52.8449 785.00
52.9101 698.00
52.9753 657.00
53.0405 709.00
53.1057 696.00
53.1709 671.00
53.2361 632.00
53.3013 667.00
53.3665 626.00
53.4317 611.00
53.4969 647.00
53.5621 672.00
53.6273 677.00
53.6925 680.00
53.7577 656.00
53.8229 644.00
53.8881 681.00
53.9533 688.00
54.0185 674.00
54.0837 669.00
54.1489 707.00
54.2141 793.00
54.2793 771.00
54.3445 810.00
54.4097 864.00
54.4749 935.00
54.5401 986.00
54.6053 1180.00
54.6705 1312.00
54.7357 1305.00
54.8009 1320.00
54.8661 1301.00
54.9313 1174.00
54.9965 996.00
55.0617 955.00
55.1269 821.00
55.1921 828.00
55.2573 785.00
55.3225 714.00
55.3877 728.00
55.4529 714.00
55.5181 676.00
55.5833 670.00
55.6485 658.00
55.7137 683.00
55.7789 655.00
55.8441 654.00
55.9093 644.00
55.9745 637.00
56.0397 665.00
56.1049 669.00
56.1701 715.00
56.2353 726.00
56.3005 725.00
56.3657 757.00
56.4309 733.00
56.4961 851.00
56.5613 834.00
56.6265 873.00
56.6917 891.00
56.7569 927.00
56.8221 967.00
56.8873 953.00
56.9525 1033.00
57.0177 1266.00
57.0829 1123.00
57.148 1163.00
57.2132 1114.00
57.2784 1059.00
57.3436 1118.00
57.4088 1324.00
57.474 1433.00
57.5392 1753.00
57.6044 2154.00
57.6696 2591.00
57.7348 3166.00
57.8 3535.00
57.8652 3949.00
57.9304 3897.00
57.9956 3844.00
58.0608 3051.00
58.126 2661.00
58.1912 2222.00
58.2564 1756.00
58.3216 1577.00
58.3868 1411.00
58.452 1324.00
58.5172 1235.00
58.5824 1234.00
58.6476 1201.00
58.7128 1185.00
58.778 1143.00
58.8432 1109.00
58.9084 1175.00
58.9736 1305.00
59.0388 1356.00
59.104 1464.00
59.1692 1906.00
59.2344 2130.00
59.2996 2395.00
59.3648 2285.00
59.43 2138.00
59.4952 2020.00
59.5604 1822.00
59.6256 1689.00
59.6908 1495.00
59.756 1611.00
59.8212 1839.00
59.8864 2080.00
59.9516 2423.00
60.0168 2847.00
60.082 2975.00
60.1472 2986.00
60.2124 3012.00
60.2776 2846.00
60.3428 2758.00
60.408 2592.00
60.4732 2517.00
60.5384 2392.00
60.6036 2573.00
60.6688 2518.00
60.734 2502.00
60.7992 2508.00
60.8644 2437.00
60.9296 2348.00
60.9948 2611.00
61.06 2801.00
61.1252 3290.00
61.1904 3434.00
61.2556 3241.00
61.3208 3114.00
61.386 2853.00
61.4512 2486.00
61.5164 2025.00
61.5816 1818.00
61.6468 1655.00
61.712 1392.00
61.7772 1335.00
61.8424 1128.00
61.9076 1066.00
61.9727 1044.00
62.0379 1017.00
62.1031 992.00
62.1683 1098.00
62.2335 1002.00
62.2987 983.00
62.3639 1073.00
62.4291 1139.00
62.4943 1225.00
62.5595 1265.00
62.6247 1429.00
62.6899 1535.00
62.7551 1654.00
62.8203 1929.00
62.8855 1917.00
62.9507 1999.00
63.0159 1918.00
63.0811 1769.00
63.1463 1576.00
63.2115 1462.00
63.2767 1367.00
63.3419 1195.00
63.4071 1115.00
63.4723 1179.00
63.5375 1194.00
63.6027 1258.00
63.6679 1250.00
63.7331 1250.00
63.7983 1398.00
63.8635 1495.00
63.9287 1604.00
63.9939 1807.00
64.0591 1936.00
64.1243 2284.00
64.1895 2794.00
64.2547 3296.00
64.3199 3808.00
64.3851 3825.00
64.4503 4173.00
64.5155 4227.00
64.5807 4617.00
64.6459 5220.00
64.7111 5927.00
64.7763 6897.00
64.8415 7975.00
64.9067 8111.00
64.9719 7766.00
65.0371 6739.00
65.1023 5595.00
65.1675 4487.00
65.2327 3483.00
65.2979 2646.00
65.3631 2097.00
65.4283 1690.00
65.4935 1481.00
65.5587 1386.00
65.6239 1246.00
65.6891 1284.00
65.7543 1073.00
65.8195 1031.00
65.8847 961.00
65.9499 829.00
66.0151 794.00
66.0803 756.00
66.1455 730.00
66.2107 742.00
66.2759 734.00
66.3411 707.00
66.4063 755.00
66.4715 727.00
66.5367 716.00
66.6019 741.00
66.6671 712.00
66.7322 730.00
66.7974 715.00
66.8626 687.00
66.9278 733.00
66.993 725.00
67.0582 655.00
67.1234 708.00
67.1886 649.00
67.2538 672.00
67.319 723.00
67.3842 712.00
67.4494 788.00
67.5146 748.00
67.5798 773.00
67.645 701.00
67.7102 737.00
67.7754 692.00
67.8406 751.00
67.9058 709.00
67.971 638.00
68.0362 630.00
68.1014 669.00
68.1666 718.00
68.2318 670.00
68.297 715.00
68.3622 771.00
68.4274 653.00
68.4926 732.00
68.5578 771.00
68.623 771.00
68.6882 782.00
68.7534 805.00
68.8186 845.00
68.8838 816.00
68.949 935.00
69.0142 933.00
69.0794 1107.00
69.1446 1104.00
69.2098 1230.00
69.275 1266.00
69.3402 1390.00
69.4054 1494.00
69.4706 1669.00
69.5358 1735.00
69.601 1872.00
69.6662 1968.00
69.7314 2025.00
69.7966 1898.00
69.8618 2011.00
69.927 1859.00
69.9922 1748.00
70.0574 1680.00
70.1226 1563.00
70.1878 1511.00
70.253 1465.00
70.3182 1508.00
70.3834 1675.00
70.4486 1753.00
70.5138 1852.00
70.579 1831.00
70.6442 1817.00
70.7094 1709.00
70.7746 1645.00
70.8398 1415.00
70.905 1339.00
70.9702 1179.00
71.0354 1207.00
71.1006 1093.00
71.1658 988.00
71.231 972.00
71.2962 904.00
71.3614 839.00
71.4266 786.00
71.4918 753.00
71.5569 747.00
71.6221 704.00
71.6873 681.00
71.7525 705.00
71.8177 664.00
71.8829 751.00
71.9481 762.00
72.0133 805.00
72.0785 793.00
72.1437 728.00
72.2089 796.00
72.2741 878.00
72.3393 907.00
72.4045 980.00
72.4697 1011.00
72.5349 1138.00
72.6001 1332.00
72.6653 1312.00
72.7305 1323.00
72.7957 1291.00
72.8609 1158.00
72.9261 1104.00
72.9913 1020.00
73.0565 952.00
73.1217 862.00
73.1869 836.00
73.2521 825.00
73.3173 801.00
73.3825 764.00
73.4477 743.00
73.5129 685.00
73.5781 826.00
73.6433 842.00
73.7085 925.00
73.7737 1003.00
73.8389 1101.00
73.9041 1268.00
73.9693 1307.00
74.0345 1286.00
74.0997 1294.00
74.1649 1297.00
74.2301 1250.00
74.2953 1048.00
74.3605 991.00
74.4257 943.00
74.4909 892.00
74.5561 893.00
74.6213 890.00
74.6865 796.00
74.7517 818.00
74.8169 727.00
74.8821 782.00
74.9473 732.00
75.0125 735.00
75.0777 674.00
75.1429 644.00
75.2081 678.00
75.2733 639.00
75.3385 604.00
75.4037 640.00
75.4689 645.00
75.5341 604.00
75.5993 580.00
75.6645 618.00
75.7297 584.00
75.7949 568.00
75.8601 577.00
75.9253 580.00
75.9905 548.00
76.0557 592.00
76.1209 572.00
76.186 519.00
76.2513 527.00
76.3165 521.00
76.3816 588.00
76.4468 582.00
76.512 595.00
76.5772 581.00
76.6424 570.00
76.7076 622.00
76.7728 657.00
76.838 545.00
76.9032 599.00
76.9684 565.00
77.0336 568.00
77.0988 621.00
77.164 611.00
77.2292 584.00
77.2944 580.00
77.3596 555.00
77.4248 643.00
77.49 604.00
77.5552 604.00
77.6204 633.00
77.6856 665.00
77.7508 682.00
77.816 689.00
77.8812 701.00
77.9464 765.00
78.0116 723.00
78.0768 778.00
78.142 763.00
78.2072 753.00
78.2724 734.00
78.3376 785.00
78.4028 749.00
78.468 743.00
78.5332 696.00
78.5984 700.00
78.6636 683.00
78.7288 694.00
78.794 752.00
78.8592 746.00
78.9244 760.00
78.9896 739.00
79.0548 722.00
79.12 749.00
79.1852 690.00
79.2504 690.00
79.3156 716.00
79.3808 685.00
79.446 700.00
79.5112 667.00
79.5764 647.00
79.6416 673.00
79.7068 598.00
79.772 610.00
79.8372 559.00
79.9024 598.00
79.9676 587.00
80.0328 575.00
80.098 571.00
80.1632 527.00
80.2284 500.00
80.2936 518.00
80.3588 544.00
80.424 494.00
80.4892 539.00
80.5544 508.00
80.6196 525.00
80.6848 509.00
80.75 470.00
80.8152 522.00
80.8804 519.00
80.9456 523.00
81.0108 531.00
81.076 511.00
81.1412 511.00
81.2063 484.00
81.2715 544.00
81.3367 539.00
81.4019 499.00
81.4671 503.00
81.5323 481.00
81.5975 556.00
81.6627 508.00
81.7279 559.00
81.7931 535.00
81.8583 574.00
81.9235 541.00
81.9887 578.00
82.0539 605.00
82.1191 684.00
82.1843 595.00
82.2495 682.00
82.3147 680.00
82.3799 715.00
82.4451 721.00
82.5103 707.00
82.5755 694.00
82.6407 685.00
82.7059 660.00
82.7711 616.00
82.8363 637.00
82.9015 584.00
82.9667 604.00
83.0319 559.00
83.0971 590.00
83.1623 550.00
83.2275 659.00
83.2927 589.00
83.3579 665.00
83.4231 615.00
83.4883 659.00
83.5535 625.00
83.6187 593.00
83.6839 629.00
83.7491 677.00
83.8143 632.00
83.8795 669.00
83.9447 705.00
84.0099 659.00
84.0751 729.00
84.1403 816.00
84.2055 809.00
84.2707 922.00
84.3359 889.00
84.4011 995.00
84.4663 1098.00
84.5315 1109.00
84.5967 1171.00
84.6619 1125.00
84.7271 1055.00
84.7923 1028.00
84.8575 965.00
84.9227 948.00
84.9879 858.00
85.0531 782.00
85.1183 768.00
85.1835 733.00
85.2487 726.00
85.3139 689.00
85.3791 710.00
85.4443 775.00
85.5095 826.00
85.5747 834.00
85.6399 860.00
85.7051 922.00
85.7703 792.00
85.8354 790.00
85.9006 801.00
85.9659 875.00
86.031 759.00
86.0962 802.00
86.1614 706.00
86.2266 724.00
86.2918 719.00
86.357 761.00
86.4222 768.00
86.4874 710.00
86.5526 691.00
86.6178 668.00
86.683 627.00
86.7482 644.00
86.8134 558.00
86.8786 601.00
86.9438 596.00
87.009 543.00
87.0742 522.00
87.1394 491.00
87.2046 532.00
87.2698 500.00
87.335 521.00
87.4002 509.00
87.4654 515.00
87.5306 503.00
87.5958 485.00
87.661 516.00
87.7262 521.00
87.7914 533.00
87.8566 547.00
87.9218 556.00
87.987 538.00
88.0522 519.00
88.1174 532.00
88.1826 542.00
88.2478 529.00
88.313 507.00
88.3782 524.00
88.4434 594.00
88.5086 556.00
88.5738 532.00
88.639 552.00
88.7042 547.00
88.7694 607.00
88.8346 640.00
88.8998 702.00
88.965 685.00
89.0302 744.00
89.0954 742.00
89.1606 802.00
89.2258 810.00
89.291 819.00
89.3562 786.00
89.4214 834.00
89.4866 803.00
89.5518 732.00
89.617 766.00
89.6822 725.00
89.7474 692.00
89.8126 672.00
89.8778 700.00
89.943 721.00
90.0082 732.00
90.0734 803.00
90.1386 772.00
90.2038 788.00
90.269 842.00
90.3342 852.00
90.3994 778.00
90.4646 844.00
90.5298 843.00
90.595 822.00
90.6601 822.00
90.7253 836.00
90.7905 893.00
90.8557 848.00
90.9209 851.00
90.9861 898.00
91.0513 902.00
91.1165 903.00
91.1817 983.00
91.2469 1043.00
91.3121 1068.00
91.3773 1133.00
91.4425 1176.00
91.5077 1249.00
91.5729 1218.00
91.6381 1199.00
91.7033 1247.00
91.7685 1138.00
91.8337 1057.00
91.8989 1001.00
91.9641 1008.00
92.0293 899.00
92.0945 920.00
92.1597 827.00
92.2249 743.00
92.2901 759.00
92.3553 722.00
92.4205 767.00
92.4857 788.00
92.5509 722.00
92.6161 744.00
92.6813 680.00
92.7465 719.00
92.8117 737.00
92.8769 749.00
92.9421 783.00
93.0073 800.00
93.0725 799.00
93.1377 705.00
93.2029 792.00
93.2681 783.00
93.3333 779.00
93.3985 810.00
93.4637 799.00
93.5289 854.00
93.5941 844.00
93.6593 806.00
93.7245 781.00
93.7897 808.00
93.8549 813.00
93.9201 785.00
93.9853 839.00
94.0505 886.00
94.1157 852.00
94.1809 810.00
94.2461 921.00
94.3113 959.00
94.3765 1037.00
94.4417 1106.00
94.5069 1144.00
94.5721 1175.00
94.6373 1199.00
94.7025 1174.00
94.7677 1181.00
94.8329 1211.00
94.8981 1149.00
94.9633 1208.00
95.0285 1179.00
95.0937 1125.00
95.1589 1103.00
95.2241 1075.00
95.2893 1054.00
95.3545 1070.00
95.4197 1061.00
95.4848 996.00
95.55 985.00
95.6153 1016.00
95.6804 1066.00
95.7456 1114.00
95.8108 1163.00
95.876 1086.00
95.9412 1209.00
96.0064 1313.00
96.0716 1332.00
96.1368 1360.00
96.202 1468.00
96.2672 1526.00
96.3324 1513.00
96.3976 1485.00
96.4628 1500.00
96.528 1561.00
96.5932 1485.00
96.6584 1341.00
96.7236 1345.00
96.7888 1285.00
96.854 1240.00
96.9192 1198.00
96.9844 1015.00
97.0496 1002.00
97.1148 982.00
97.18 882.00
97.2452 821.00
97.3104 780.00
97.3756 734.00
97.4408 733.00
97.506 764.00
97.5712 700.00
97.6364 704.00
97.7016 642.00
97.7668 644.00
97.832 654.00
97.8972 653.00
97.9624 684.00
98.0276 677.00
98.0928 681.00
98.158 752.00
98.2232 714.00
98.2884 703.00
98.3536 740.00
98.4188 798.00
98.484 836.00
98.5492 836.00
98.6144 835.00
98.6796 878.00
98.7448 896.00
98.81 911.00
98.8752 877.00
98.9404 919.00
99.0056 997.00
99.0708 1006.00
99.136 920.00
99.2012 979.00
99.2664 978.00
99.3316 990.00
99.3968 975.00
99.462 875.00
99.5272 906.00
99.5924 810.00
99.6576 799.00
99.7228 801.00
99.788 807.00
99.8532 741.00
99.9184 756.00
99.9836 762.00
99.9944 702.00