File: data/xrd_creation/results/PG_1218-1.xy
10.0094 2441.00
10.0746 2439.00
10.1398 2446.00
10.205 2461.00
10.2702 2398.00
10.3354 2382.00
10.4006 2462.00
10.4658 2394.00
10.531 2342.00
10.5962 2347.00
10.6614 2293.00
10.7266 2294.00
10.7918 2197.00
10.857 2197.00
10.9222 2162.00
10.9874 2122.00
11.0526 2144.00
11.1178 2194.00
11.183 2151.00
11.2482 2118.00
11.3134 2184.00
11.3786 2185.00
11.4438 2038.00
11.509 2060.00
11.5742 2113.00
11.6394 2025.00
11.7046 2047.00
11.7698 2004.00
11.835 2009.00
11.9002 1987.00
11.9654 2006.00
12.0306 1930.00
12.0958 1953.00
12.161 1954.00
12.2262 1963.00
12.2914 1959.00
12.3566 1886.00
12.4218 1997.00
12.487 1861.00
12.5522 1837.00
12.6174 1933.00
12.6826 1839.00
12.7478 1821.00
12.813 1811.00
12.8782 1942.00
12.9434 1824.00
13.0086 1861.00
13.0738 1832.00
13.139 1791.00
13.2042 1712.00
13.2694 1813.00
13.3346 1720.00
13.3998 1714.00
13.465 1862.00
13.5302 1784.00
13.5954 1819.00
13.6606 1757.00
13.7258 1688.00
13.791 1728.00
13.8562 1677.00
13.9214 1722.00
13.9865 1722.00
14.0517 1629.00
14.1169 1691.00
14.1821 1644.00
14.2473 1681.00
14.3125 1642.00
14.3777 1661.00
14.4429 1713.00
14.5081 1659.00
14.5733 1633.00
14.6385 1696.00
14.7037 1632.00
14.7689 1613.00
14.8341 1563.00
14.8993 1570.00
14.9645 1606.00
15.0297 1541.00
15.0949 1665.00
15.1601 1616.00
15.2253 1564.00
15.2905 1545.00
15.3557 1684.00
15.4209 1605.00
15.4861 1552.00
15.5513 1570.00
15.6165 1554.00
15.6817 1582.00
15.7469 1633.00
15.8121 1552.00
15.8773 1581.00
15.9425 1518.00
16.0077 1583.00
16.0729 1477.00
16.1381 1520.00
16.2033 1574.00
16.2685 1467.00
16.3337 1565.00
16.3989 1606.00
16.4641 1520.00
16.5293 1484.00
16.5945 1431.00
16.6597 1486.00
16.7249 1509.00
16.7901 1445.00
16.8553 1502.00
16.9205 1463.00
16.9857 1447.00
17.0509 1478.00
17.1161 1465.00
17.1813 1444.00
17.2465 1553.00
17.3117 1533.00
17.3769 1443.00
17.4421 1482.00
17.5073 1445.00
17.5725 1478.00
17.6377 1461.00
17.7029 1495.00
17.7681 1399.00
17.8333 1440.00
17.8985 1426.00
17.9637 1446.00
18.0289 1404.00
18.0941 1436.00
18.1593 1402.00
18.2245 1453.00
18.2897 1402.00
18.3549 1458.00
18.4201 1416.00
18.4853 1458.00
18.5505 1384.00
18.6157 1326.00
18.6809 1440.00
18.7461 1433.00
18.8112 1421.00
18.8764 1322.00
18.9416 1395.00
19.0068 1370.00
19.072 1392.00
19.1372 1372.00
19.2024 1341.00
19.2676 1351.00
19.3328 1304.00
19.398 1334.00
19.4632 1391.00
19.5284 1367.00
19.5936 1421.00
19.6588 1281.00
19.724 1369.00
19.7892 1310.00
19.8544 1234.00
19.9196 1330.00
19.9848 1321.00
20.05 1379.00
20.1152 1285.00
20.1804 1326.00
20.2456 1332.00
20.3108 1329.00
20.376 1301.00
20.4412 1251.00
20.5064 1363.00
20.5716 1325.00
20.6368 1289.00
20.702 1329.00
20.7672 1329.00
20.8324 1262.00
20.8976 1295.00
20.9628 1281.00
21.028 1299.00
21.0932 1240.00
21.1584 1338.00
21.2236 1216.00
21.2888 1250.00
21.354 1290.00
21.4192 1330.00
21.4844 1348.00
21.5496 1338.00
21.6148 1492.00
21.68 1686.00
21.7452 1871.00
21.8104 1829.00
21.8756 1411.00
21.9408 1267.00
22.006 1268.00
22.0712 1258.00
22.1364 1208.00
22.2016 1143.00
22.2668 1273.00
22.332 1209.00
22.3972 1166.00
22.4624 1232.00
22.5276 1242.00
22.5928 1181.00
22.658 1172.00
22.7232 1220.00
22.7884 1209.00
22.8536 1204.00
22.9188 1192.00
22.984 1180.00
23.0492 1110.00
23.1144 1183.00
23.1796 1172.00
23.2448 1091.00
23.31 1193.00
23.3752 1141.00
23.4404 1099.00
23.5056 1186.00
23.5708 1094.00
23.6359 1194.00
23.7011 1184.00
23.7663 1126.00
23.8315 1123.00
23.8967 1173.00
23.9619 1145.00
24.0271 1222.00
24.0923 1156.00
24.1575 1180.00
24.2227 1291.00
24.2879 1400.00
24.3531 1422.00
24.4183 1305.00
24.4835 1146.00
24.5487 1137.00
24.6139 1067.00
24.6791 1074.00
24.7443 1091.00
24.8095 1111.00
24.8747 1119.00
24.9399 1099.00
25.0051 1142.00
25.0703 1152.00
25.1355 1136.00
25.2007 1130.00
25.2659 1072.00
25.3311 1095.00
25.3963 1100.00
25.4615 1134.00
25.5267 1125.00
25.5919 1031.00
25.6571 1076.00
25.7223 1095.00
25.7875 1123.00
25.8527 1050.00
25.9179 1077.00
25.9831 1011.00
26.0483 1008.00
26.1135 1092.00
26.1787 1023.00
26.2439 999.00
26.3091 1092.00
26.3743 1003.00
26.4395 1034.00
26.5047 1097.00
26.5699 1064.00
26.6351 1029.00
26.7003 1082.00
26.7655 1059.00
26.8307 1081.00
26.8959 1060.00
26.9611 1050.00
27.0263 1062.00
27.0915 1135.00
27.1567 1006.00
27.2219 1065.00
27.2871 1040.00
27.3523 1009.00
27.4175 1005.00
27.4827 1023.00
27.5479 1077.00
27.6131 1058.00
27.6783 1047.00
27.7435 1013.00
27.8087 1091.00
27.8739 1035.00
27.9391 1010.00
28.0043 1057.00
28.0695 1102.00
28.1347 1082.00
28.1999 1022.00
28.2651 975.00
28.3303 980.00
28.3955 1027.00
28.4606 1040.00
28.5258 1039.00
28.591 993.00
28.6562 985.00
28.7214 987.00
28.7866 1074.00
28.8518 1025.00
28.917 1005.00
28.9822 997.00
29.0474 1022.00
29.1126 1013.00
29.1778 1008.00
29.243 981.00
29.3082 1025.00
29.3734 920.00
29.4386 1035.00
29.5038 1002.00
29.569 999.00
29.6342 954.00
29.6994 988.00
29.7646 926.00
29.8298 1059.00
29.895 1026.00
29.9602 1024.00
30.0254 1058.00
30.0906 1061.00
30.1558 1088.00
30.221 1180.00
30.2862 1126.00
30.3514 1122.00
30.4166 1215.00
30.4818 1234.00
30.547 1430.00
30.6122 1882.00
30.6774 2948.00
30.7426 4672.00
30.8078 7686.00
30.873 8965.00
30.9382 5612.00
31.0034 2540.00
31.0686 1555.00
31.1338 1437.00
31.199 1183.00
31.2642 1157.00
31.3294 1061.00
31.3946 1075.00
31.4598 1033.00
31.525 989.00
31.5902 1021.00
31.6554 977.00
31.7206 984.00
31.7858 1020.00
31.851 958.00
31.9162 967.00
31.9814 982.00
32.0466 1023.00
32.1118 978.00
32.177 967.00
32.2422 1019.00
32.3074 921.00
32.3726 919.00
32.4378 918.00
32.503 968.00
32.5682 972.00
32.6334 989.00
32.6986 1038.00
32.7638 953.00
32.829 970.00
32.8942 975.00
32.9594 1024.00
33.0246 978.00
33.0898 1016.00
33.1549 1114.00
33.2201 1519.00
33.2853 1964.00
33.3505 2128.00
33.4157 1888.00
33.4809 1393.00
33.5461 1073.00
33.6113 1008.00
33.6765 1030.00
33.7417 1053.00
33.8069 1009.00
33.8721 980.00
33.9373 1012.00
34.0025 987.00
34.0677 994.00
34.1329 936.00
34.1981 917.00
34.2633 924.00
34.3285 876.00
34.3937 929.00
34.4589 962.00
34.5241 950.00
34.5893 902.00
34.6545 955.00
34.7197 937.00
34.7849 1010.00
34.8501 902.00
34.9153 941.00
34.9805 910.00
35.0457 966.00
35.1109 948.00
35.1761 947.00
35.2413 1040.00
35.3065 1020.00
35.3717 1077.00
35.4369 1144.00
35.5021 1349.00
35.5673 1905.00
35.6325 2753.00
35.6977 3924.00
35.7629 4028.00
35.8281 2837.00
35.8933 1737.00
35.9585 1254.00
36.0237 1066.00
36.0889 1064.00
36.1541 979.00
36.2193 936.00
36.2845 914.00
36.3497 930.00
36.4149 950.00
36.4801 954.00
36.5453 881.00
36.6105 980.00
36.6757 916.00
36.7409 883.00
36.8061 943.00
36.8713 950.00
36.9365 926.00
37.0017 908.00
37.0669 962.00
37.1321 904.00
37.1973 930.00
37.2625 883.00
37.3277 900.00
37.3929 912.00
37.4581 944.00
37.5233 920.00
37.5885 901.00
37.6537 933.00
37.7189 892.00
37.7841 1006.00
37.8493 1135.00
37.9145 1369.00
37.9796 1377.00
38.0448 1200.00
38.11 1010.00
38.1752 934.00
38.2404 868.00
38.3056 990.00
38.3708 942.00
38.436 883.00
38.5012 907.00
38.5664 849.00
38.6316 913.00
38.6968 831.00
38.762 918.00
38.8272 841.00
38.8924 921.00
38.9576 925.00
39.0228 898.00
39.088 884.00
39.1532 873.00
39.2184 918.00
39.2836 919.00
39.3488 901.00
39.414 885.00
39.4792 923.00
39.5444 890.00
39.6096 931.00
39.6748 835.00
39.74 901.00
39.8052 900.00
39.8704 911.00
39.9356 895.00
40.0008 951.00
40.066 1030.00
40.1312 970.00
40.1964 974.00
40.2616 917.00
40.3268 827.00
40.392 882.00
40.4572 832.00
40.5224 897.00
40.5876 870.00
40.6528 847.00
40.718 950.00
40.7832 926.00
40.8484 991.00
40.9136 1008.00
40.9788 1117.00
41.044 1126.00
41.1092 983.00
41.1744 938.00
41.2396 943.00
41.3048 878.00
41.37 872.00
41.4352 973.00
41.5004 925.00
41.5656 840.00
41.6308 889.00
41.696 858.00
41.7612 886.00
41.8264 924.00
41.8916 929.00
41.9568 1037.00
42.022 1143.00
42.0872 1308.00
42.1524 1288.00
42.2176 1078.00
42.2828 983.00
42.348 889.00
42.4132 884.00
42.4784 876.00
42.5436 905.00
42.6088 847.00
42.6739 924.00
42.7392 880.00
42.8043 935.00
42.8695 786.00
42.9347 884.00
42.9999 881.00
43.0651 873.00
43.1303 848.00
43.1955 890.00
43.2607 894.00
43.3259 909.00
43.3911 933.00
43.4563 890.00
43.5215 945.00
43.5867 882.00
43.6519 872.00
43.7171 917.00
43.7823 916.00
43.8475 891.00
43.9127 903.00
43.9779 896.00
44.0431 985.00
44.1083 954.00
44.1735 952.00
44.2387 919.00
44.3039 849.00
44.3691 850.00
44.4343 881.00
44.4995 934.00
44.5647 866.00
44.6299 811.00
44.6951 843.00
44.7603 832.00
44.8255 917.00
44.8907 836.00
44.9559 907.00
45.0211 888.00
45.0863 879.00
45.1515 877.00
45.2167 873.00
45.2819 884.00
45.3471 867.00
45.4123 874.00
45.4775 919.00
45.5427 863.00
45.6079 904.00
45.6731 884.00
45.7383 948.00
45.8035 1120.00
45.8687 1395.00
45.9339 1695.00
45.9991 1506.00
46.0643 1359.00
46.1295 1087.00
46.1947 957.00
46.2599 947.00
46.3251 926.00
46.3903 885.00
46.4555 903.00
46.5207 846.00
46.5859 872.00
46.6511 873.00
46.7163 845.00
46.7815 823.00
46.8467 853.00
46.9119 851.00
46.9771 926.00
47.0423 888.00
47.1075 879.00
47.1727 845.00
47.2379 861.00
47.3031 873.00
47.3683 830.00
47.4335 897.00
47.4986 890.00
47.5639 889.00
47.629 873.00
47.6942 848.00
47.7594 878.00
47.8246 889.00
47.8898 876.00
47.955 885.00
48.0202 875.00
48.0854 839.00
48.1506 842.00
48.2158 868.00
48.281 811.00
48.3462 875.00
48.4114 929.00
48.4766 877.00
48.5418 813.00
48.607 937.00
48.6722 876.00
48.7374 827.00
48.8026 871.00
48.8678 891.00
48.933 916.00
48.9982 846.00
49.0634 830.00
49.1286 891.00
49.1938 944.00
49.259 910.00
49.3242 994.00
49.3894 1072.00
49.4546 1375.00
49.5198 1536.00
49.585 1472.00
49.6502 1396.00
49.7154 1171.00
49.7806 1065.00
49.8458 963.00
49.911 884.00
49.9762 935.00
50.0414 851.00
50.1066 918.00
50.1718 884.00
50.237 879.00
50.3022 911.00
50.3674 925.00
50.4326 906.00
50.4978 898.00
50.563 876.00
50.6282 933.00
50.6934 948.00
50.7586 930.00
50.8238 990.00
50.889 1026.00
50.9542 1103.00
51.0194 1206.00
51.0846 1511.00
51.1498 2229.00
51.215 3625.00
51.2802 4272.00
51.3454 3230.00
51.4106 2861.00
51.4758 1796.00
51.541 1227.00
51.6062 1123.00
51.6714 1030.00
51.7366 984.00
51.8018 973.00
51.867 969.00
51.9322 923.00
51.9974 880.00
52.0626 878.00
52.1278 863.00
52.193 912.00
52.2582 916.00
52.3233 887.00
52.3886 897.00
52.4537 863.00
52.5189 895.00
52.5841 898.00
52.6493 911.00
52.7145 954.00
52.7797 879.00
52.8449 979.00
52.9101 1052.00
52.9753 1118.00
53.0405 1044.00
53.1057 995.00
53.1709 941.00
53.2361 923.00
53.3013 882.00
53.3665 920.00
53.4317 937.00
53.4969 891.00
53.5621 894.00
53.6273 948.00
53.6925 930.00
53.7577 910.00
53.8229 937.00
53.8881 924.00
53.9533 971.00
54.0185 1089.00
54.0837 1291.00
54.1489 1358.00
54.2141 1418.00
54.2793 1267.00
54.3445 1171.00
54.4097 1003.00
54.4749 975.00
54.5401 951.00
54.6053 927.00
54.6705 897.00
54.7357 902.00
54.8009 916.00
54.8661 918.00
54.9313 885.00
54.9965 856.00
55.0617 898.00
55.1269 889.00
55.1921 868.00
55.2573 898.00
55.3225 894.00
55.3877 860.00
55.4529 885.00
55.5181 851.00
55.5833 863.00
55.6485 822.00
55.7137 922.00
55.7789 940.00
55.8441 896.00
55.9093 925.00
55.9745 973.00
56.0397 1000.00
56.1049 1076.00
56.1701 1231.00
56.2353 1381.00
56.3005 1164.00
56.3657 1134.00
56.4309 958.00
56.4961 957.00
56.5613 922.00
56.6265 893.00
56.6917 909.00
56.7569 865.00
56.8221 922.00
56.8873 914.00
56.9525 944.00
57.0177 983.00
57.0829 935.00
57.148 896.00
57.2132 926.00
57.2784 948.00
57.3436 925.00
57.4088 934.00
57.474 957.00
57.5392 971.00
57.6044 1028.00
57.6696 1099.00
57.7348 1096.00
57.8 1092.00
57.8652 997.00
57.9304 1082.00
57.9956 955.00
58.0608 914.00
58.126 871.00
58.1912 954.00
58.2564 912.00
58.3216 956.00
58.3868 901.00
58.452 848.00
58.5172 901.00
58.5824 928.00
58.6476 844.00
58.7128 898.00
58.778 896.00
58.8432 953.00
58.9084 944.00
58.9736 984.00
59.0388 937.00
59.104 970.00
59.1692 956.00
59.2344 1033.00
59.2996 1229.00
59.3648 1291.00
59.43 1214.00
59.4952 1173.00
59.5604 1115.00
59.6256 1006.00
59.6908 971.00
59.756 948.00
59.8212 901.00
59.8864 885.00
59.9516 900.00
60.0168 953.00
60.082 928.00
60.1472 900.00
60.2124 985.00
60.2776 921.00
60.3428 999.00
60.408 987.00
60.4732 999.00
60.5384 1059.00
60.6036 1134.00
60.6688 1247.00
60.734 1480.00
60.7992 2125.00
60.8644 3347.00
60.9296 3109.00
60.9948 2430.00
61.06 2471.00
61.1252 1749.00
61.1904 1352.00
61.2556 1177.00
61.3208 1047.00
61.386 1021.00
61.4512 998.00
61.5164 934.00
61.5816 967.00
61.6468 936.00
61.712 943.00
61.7772 868.00
61.8424 935.00
61.9076 967.00
61.9727 926.00
62.0379 953.00
62.1031 1054.00
62.1683 1066.00
62.2335 1219.00
62.2987 1266.00
62.3639 1633.00
62.4291 1684.00
62.4943 1496.00
62.5595 1561.00
62.6247 1347.00
62.6899 1157.00
62.7551 1041.00
62.8203 1001.00
62.8855 953.00
62.9507 927.00
63.0159 965.00
63.0811 895.00
63.1463 986.00
63.2115 930.00
63.2767 925.00
63.3419 899.00
63.4071 921.00
63.4723 981.00
63.5375 974.00
63.6027 987.00
63.6679 1032.00
63.7331 1125.00
63.7983 1294.00
63.8635 1632.00
63.9287 1612.00
63.9939 1512.00
64.0591 1528.00
64.1243 1280.00
64.1895 1094.00
64.2547 1098.00
64.3199 972.00
64.3851 991.00
64.4503 958.00
64.5155 931.00
64.5807 947.00
64.6459 958.00
64.7111 901.00
64.7763 922.00
64.8415 910.00
64.9067 912.00
64.9719 884.00
65.0371 894.00
65.1023 902.00
65.1675 953.00
65.2327 925.00
65.2979 1040.00
65.3631 1067.00
65.4283 1042.00
65.4935 970.00
65.5587 1052.00
65.6239 1004.00
65.6891 934.00
65.7543 933.00
65.8195 947.00
65.8847 1001.00
65.9499 920.00
66.0151 963.00
66.0803 964.00
66.1455 952.00
66.2107 905.00
66.2759 954.00
66.3411 892.00
66.4063 896.00
66.4715 950.00
66.5367 994.00
66.6019 917.00
66.6671 964.00
66.7322 1020.00
66.7974 1022.00
66.8626 1022.00
66.9278 996.00
66.993 1025.00
67.0582 1012.00
67.1234 992.00
67.1886 916.00
67.2538 964.00
67.319 965.00
67.3842 956.00
67.4494 914.00
67.5146 859.00
67.5798 906.00
67.645 936.00
67.7102 928.00
67.7754 943.00
67.8406 949.00
67.9058 939.00
67.971 976.00
68.0362 971.00
68.1014 1064.00
68.1666 987.00
68.2318 1199.00
68.297 1138.00
68.3622 1061.00
68.4274 1108.00
68.4926 1025.00
68.5578 964.00
68.623 976.00
68.6882 990.00
68.7534 911.00
68.8186 942.00
68.8838 943.00
68.949 924.00
69.0142 976.00
69.0794 950.00
69.1446 932.00
69.2098 906.00
69.275 906.00
69.3402 867.00
69.4054 953.00
69.4706 909.00
69.5358 1016.00
69.601 1057.00
69.6662 1087.00
69.7314 1039.00
69.7966 1020.00
69.8618 1011.00
69.927 970.00
69.9922 1007.00
70.0574 918.00
70.1226 940.00
70.1878 921.00
70.253 894.00
70.3182 994.00
70.3834 913.00
70.4486 909.00
70.5138 911.00
70.579 979.00
70.6442 891.00
70.7094 899.00
70.7746 952.00
70.8398 920.00
70.905 949.00
70.9702 955.00
71.0354 932.00
71.1006 971.00
71.1658 972.00
71.231 956.00
71.2962 927.00
71.3614 928.00
71.4266 961.00
71.4918 946.00
71.5569 975.00
71.6221 954.00
71.6873 928.00
71.7525 1041.00
71.8177 935.00
71.8829 980.00
71.9481 1009.00
72.0133 1036.00
72.0785 1074.00
72.1437 1023.00
72.2089 1025.00
72.2741 995.00
72.3393 952.00
72.4045 1017.00
72.4697 955.00
72.5349 928.00
72.6001 937.00
72.6653 944.00
72.7305 944.00
72.7957 914.00
72.8609 974.00
72.9261 958.00
72.9913 921.00
73.0565 1017.00
73.1217 976.00
73.1869 939.00
73.2521 919.00
73.3173 937.00
73.3825 951.00
73.4477 998.00
73.5129 954.00
73.5781 942.00
73.6433 1003.00
73.7085 961.00
73.7737 1055.00
73.8389 1185.00
73.9041 1171.00
73.9693 1115.00
74.0345 1095.00
74.0997 1076.00
74.1649 1057.00
74.2301 953.00
74.2953 960.00
74.3605 949.00
74.4257 983.00
74.4909 962.00
74.5561 971.00
74.6213 918.00
74.6865 960.00
74.7517 971.00
74.8169 979.00
74.8821 960.00
74.9473 993.00
75.0125 974.00
75.0777 1043.00
75.1429 1168.00
75.2081 1313.00
75.2733 1349.00
75.3385 1228.00
75.4037 1192.00
75.4689 1185.00
75.5341 1107.00
75.5993 1052.00
75.6645 1037.00
75.7297 990.00
75.7949 1034.00
75.8601 971.00
75.9253 944.00
75.9905 1013.00
76.0557 937.00
76.1209 945.00
76.186 930.00
76.2513 1036.00
76.3165 987.00
76.3816 1008.00
76.4468 1017.00
76.512 1042.00
76.5772 1298.00
76.6424 1285.00
76.7076 1127.00
76.7728 1113.00
76.838 1089.00
76.9032 1086.00
76.9684 1006.00
77.0336 970.00
77.0988 923.00
77.164 957.00
77.2292 959.00
77.2944 988.00
77.3596 968.00
77.4248 976.00
77.49 994.00
77.5552 969.00
77.6204 974.00
77.6856 1008.00
77.7508 985.00
77.816 1038.00
77.8812 1088.00
77.9464 1111.00
78.0116 1186.00
78.0768 1038.00
78.142 1119.00
78.2072 1090.00
78.2724 1026.00
78.3376 958.00
78.4028 1009.00
78.468 1006.00
78.5332 994.00
78.5984 1000.00
78.6636 969.00
78.7288 996.00
78.794 990.00
78.8592 1003.00
78.9244 1005.00
78.9896 943.00
79.0548 1005.00
79.12 972.00
79.1852 1087.00
79.2504 1063.00
79.3156 1214.00
79.3808 1092.00
79.446 1051.00
79.5112 1051.00
79.5764 1104.00
79.6416 1119.00
79.7068 1027.00
79.772 1029.00
79.8372 944.00
79.9024 990.00
79.9676 1031.00
80.0328 1040.00
80.098 1032.00
80.1632 986.00
80.2284 982.00
80.2936 983.00
80.3588 1035.00
80.424 1046.00
80.4892 1038.00
80.5544 1029.00
80.6196 1082.00
80.6848 1168.00
80.75 1140.00
80.8152 1066.00
80.8804 1129.00
80.9456 1102.00
81.0108 983.00
81.076 1000.00
81.1412 1002.00
81.2063 922.00
81.2715 1026.00
81.3367 1008.00
81.4019 997.00
81.4671 1021.00
81.5323 1016.00
81.5975 1032.00
81.6627 1035.00
81.7279 1113.00
81.7931 1027.00
81.8583 1044.00
81.9235 1132.00
81.9887 1240.00
82.0539 1243.00
82.1191 1194.00
82.1843 1100.00
82.2495 1174.00
82.3147 1121.00
82.3799 1047.00
82.4451 1021.00
82.5103 914.00
82.5755 1058.00
82.6407 953.00
82.7059 1064.00
82.7711 1041.00
82.8363 1054.00
82.9015 1060.00
82.9667 1056.00
83.0319 1135.00
83.0971 1132.00
83.1623 1190.00
83.2275 1355.00
83.2927 1560.00
83.3579 1628.00
83.4231 1435.00
83.4883 1313.00
83.5535 1256.00
83.6187 1392.00
83.6839 1297.00
83.7491 1065.00
83.8143 1043.00
83.8795 1116.00
83.9447 1056.00
84.0099 968.00
84.0751 1061.00
84.1403 1030.00
84.2055 1002.00
84.2707 1010.00
84.3359 1050.00
84.4011 1102.00
84.4663 1062.00
84.5315 1014.00
84.5967 1039.00
84.6619 1098.00
84.7271 1059.00
84.7923 1077.00
84.8575 1133.00
84.9227 1214.00
84.9879 1108.00
85.0531 1085.00
85.1183 1035.00
85.1835 1061.00
85.2487 1011.00
85.3139 1011.00
85.3791 1053.00
85.4443 1035.00
85.5095 1001.00
85.5747 1025.00
85.6399 1017.00
85.7051 1045.00
85.7703 1093.00
85.8354 1076.00
85.9006 1235.00
85.9659 1391.00
86.031 1497.00
86.0962 1428.00
86.1614 1229.00
86.2266 1282.00
86.2918 1267.00
86.357 1207.00
86.4222 1080.00
86.4874 1096.00
86.5526 1049.00
86.6178 1074.00
86.683 1009.00
86.7482 1066.00
86.8134 985.00
86.8786 1001.00
86.9438 1071.00
87.009 1030.00
87.0742 1053.00
87.1394 973.00
87.2046 1066.00
87.2698 1031.00
87.335 1085.00
87.4002 1047.00
87.4654 1042.00
87.5306 1049.00
87.5958 1078.00
87.661 1060.00
87.7262 1055.00
87.7914 1075.00
87.8566 1060.00
87.9218 989.00
87.987 1059.00
88.0522 996.00
88.1174 1092.00
88.1826 1101.00
88.2478 1132.00
88.313 1026.00
88.3782 1056.00
88.4434 1061.00
88.5086 1134.00
88.5738 1097.00
88.639 1236.00
88.7042 1123.00
88.7694 1137.00
88.8346 1062.00
88.8998 1097.00
88.965 1067.00
89.0302 1105.00
89.0954 1048.00
89.1606 1095.00
89.2258 1046.00
89.291 1044.00
89.3562 1018.00
89.4214 1008.00
89.4866 1049.00
89.5518 1001.00
89.617 999.00
89.6822 1127.00
89.7474 1021.00
89.8126 1078.00
89.8778 1143.00
89.943 1227.00
90.0082 1228.00
90.0734 1210.00
90.1386 1113.00
90.2038 1140.00
90.269 1149.00
90.3342 1086.00
90.3994 1091.00
90.4646 1152.00
90.5298 1069.00
90.595 1086.00
90.6601 1026.00
90.7253 1128.00
90.7905 1061.00
90.8557 1088.00
90.9209 1059.00
90.9861 1018.00
91.0513 1039.00
91.1165 1053.00
91.1817 1049.00
91.2469 1102.00
91.3121 1019.00
91.3773 1036.00
91.4425 1062.00
91.5077 1027.00
91.5729 1094.00
91.6381 1005.00
91.7033 1101.00
91.7685 1061.00
91.8337 1045.00
91.8989 1027.00
91.9641 1016.00
92.0293 1107.00
92.0945 979.00
92.1597 1055.00
92.2249 1030.00
92.2901 1088.00
92.3553 1106.00
92.4205 1059.00
92.4857 1060.00
92.5509 1222.00
92.6161 1241.00
92.6813 1239.00
92.7465 1174.00
92.8117 1112.00
92.8769 1089.00
92.9421 1184.00
93.0073 1094.00
93.0725 1071.00
93.1377 1109.00
93.2029 1046.00
93.2681 1108.00
93.3333 1098.00
93.3985 1072.00
93.4637 1154.00
93.5289 1108.00
93.5941 1165.00
93.6593 1139.00
93.7245 1119.00
93.7897 1075.00
93.8549 1135.00
93.9201 1083.00
93.9853 1074.00
94.0505 1098.00
94.1157 1013.00
94.1809 1057.00
94.2461 1046.00
94.3113 1044.00
94.3765 1018.00
94.4417 1057.00
94.5069 1044.00
94.5721 1044.00
94.6373 1114.00
94.7025 1071.00
94.7677 1080.00
94.8329 1058.00
94.8981 1028.00
94.9633 1090.00
95.0285 1100.00
95.0937 1093.00
95.1589 1143.00
95.2241 1241.00
95.2893 1326.00
95.3545 1287.00
95.4197 1211.00
95.4848 1192.00
95.55 1171.00
95.6153 1183.00
95.6804 1153.00
95.7456 1112.00
95.8108 1135.00
95.876 1133.00
95.9412 1081.00
96.0064 1190.00
96.0716 1073.00
96.1368 1076.00
96.202 1118.00
96.2672 1104.00
96.3324 1076.00
96.3976 1120.00
96.4628 1206.00
96.528 1288.00
96.5932 1397.00
96.6584 1411.00
96.7236 1333.00
96.7888 1266.00
96.854 1284.00
96.9192 1271.00
96.9844 1361.00
97.0496 1256.00
97.1148 1109.00
97.18 1131.00
97.2452 1112.00
97.3104 1083.00
97.3756 1159.00
97.4408 1078.00
97.506 1088.00
97.5712 1113.00
97.6364 1176.00
97.7016 1118.00
97.7668 1166.00
97.832 1215.00
97.8972 1222.00
97.9624 1290.00
98.0276 1222.00
98.0928 1206.00
98.158 1111.00
98.2232 1208.00
98.2884 1185.00
98.3536 1131.00
98.4188 1113.00
98.484 1110.00
98.5492 1095.00
98.6144 1133.00
98.6796 1085.00
98.7448 1057.00
98.81 1123.00
98.8752 1075.00
98.9404 1053.00
99.0056 1106.00
99.0708 1074.00
99.136 1081.00
99.2012 1158.00
99.2664 1199.00
99.3316 1260.00
99.3968 1148.00
99.462 1182.00
99.5272 1158.00
99.5924 1140.00
99.6576 1083.00
99.7228 1131.00
99.788 1138.00
99.8532 1094.00
99.9184 1102.00
99.9836 1087.00
99.9944 1129.00