File: data/xrd_creation/results/PG_1945-1.xy
9.903433 2752.00
9.968632 2717.00
10.0338 2747.00
10.099 2711.00
10.1642 2656.00
10.2294 2618.00
10.2946 2600.00
10.3598 2686.00
10.425 2562.00
10.4902 2565.00
10.5554 2546.00
10.6206 2678.00
10.6858 2432.00
10.751 2511.00
10.8162 2463.00
10.8814 2446.00
10.9466 2429.00
11.0118 2465.00
11.077 2501.00
11.1422 2310.00
11.2074 2410.00
11.2726 2416.00
11.3378 2304.00
11.403 2314.00
11.4682 2263.00
11.5334 2264.00
11.5986 2321.00
11.6638 2419.00
11.729 2250.00
11.7942 2313.00
11.8594 2226.00
11.9246 2199.00
11.9898 2169.00
12.055 2060.00
12.1202 2118.00
12.1854 2161.00
12.2506 2112.00
12.3158 2122.00
12.381 2025.00
12.4462 2138.00
12.5114 2014.00
12.5766 2080.00
12.6418 2087.00
12.707 2047.00
12.7722 2150.00
12.8374 2018.00
12.9026 2045.00
12.9678 1959.00
13.033 2057.00
13.0982 2049.00
13.1634 2000.00
13.2286 1964.00
13.2938 2018.00
13.359 1891.00
13.4242 2030.00
13.4894 1837.00
13.5546 1942.00
13.6198 1945.00
13.685 1889.00
13.7502 1839.00
13.8154 1793.00
13.8805 1892.00
13.9457 1887.00
14.0109 1840.00
14.0761 1883.00
14.1413 1923.00
14.2065 1919.00
14.2717 1836.00
14.3369 1871.00
14.4021 1830.00
14.4673 1843.00
14.5325 1872.00
14.5977 1831.00
14.6629 1794.00
14.7281 1766.00
14.7933 1749.00
14.8585 1787.00
14.9237 1810.00
14.9889 1880.00
15.0541 1766.00
15.1193 1818.00
15.1845 1761.00
15.2497 1807.00
15.3149 1827.00
15.3801 1864.00
15.4453 1830.00
15.5105 1816.00
15.5757 1802.00
15.6409 1795.00
15.7061 1635.00
15.7713 1722.00
15.8365 1736.00
15.9017 1801.00
15.9669 1760.00
16.0321 1800.00
16.0973 1836.00
16.1625 1724.00
16.2277 1716.00
16.2929 1704.00
16.3581 1722.00
16.4233 1669.00
16.4885 1733.00
16.5537 1762.00
16.6189 1682.00
16.6841 1662.00
16.7493 1685.00
16.8145 1725.00
16.8797 1747.00
16.9449 1687.00
17.0101 1644.00
17.0753 1708.00
17.1405 1707.00
17.2057 1624.00
17.2709 1671.00
17.3361 1696.00
17.4013 1717.00
17.4665 1644.00
17.5317 1569.00
17.5969 1632.00
17.6621 1660.00
17.7273 1622.00
17.7925 1659.00
17.8577 1684.00
17.9229 1666.00
17.9881 1677.00
18.0533 1651.00
18.1185 1631.00
18.1837 1691.00
18.2489 1663.00
18.3141 1674.00
18.3793 1547.00
18.4445 1654.00
18.5097 1620.00
18.5749 1618.00
18.6401 1593.00
18.7052 1636.00
18.7704 1611.00
18.8356 1616.00
18.9008 1597.00
18.966 1622.00
19.0312 1562.00
19.0964 1609.00
19.1616 1581.00
19.2268 1561.00
19.292 1609.00
19.3572 1576.00
19.4224 1662.00
19.4876 1619.00
19.5528 1578.00
19.618 1510.00
19.6832 1525.00
19.7484 1562.00
19.8136 1517.00
19.8788 1540.00
19.944 1572.00
20.0092 1563.00
20.0744 1559.00
20.1396 1524.00
20.2048 1661.00
20.27 1558.00
20.3352 1687.00
20.4004 1656.00
20.4656 1815.00
20.5308 1668.00
20.596 1705.00
20.6612 1636.00
20.7264 1533.00
20.7916 1551.00
20.8568 1589.00
20.922 1512.00
20.9872 1513.00
21.0524 1593.00
21.1176 1571.00
21.1828 1568.00
21.248 1600.00
21.3132 1610.00
21.3784 1671.00
21.4436 1530.00
21.5088 1564.00
21.574 1577.00
21.6392 1522.00
21.7044 1495.00
21.7696 1471.00
21.8348 1568.00
21.9 1471.00
21.9652 1462.00
22.0304 1469.00
22.0956 1537.00
22.1608 1429.00
22.226 1471.00
22.2912 1441.00
22.3564 1424.00
22.4216 1460.00
22.4868 1389.00
22.552 1459.00
22.6172 1439.00
22.6824 1439.00
22.7476 1422.00
22.8128 1482.00
22.878 1448.00
22.9432 1499.00
23.0084 1469.00
23.0736 1460.00
23.1388 1629.00
23.204 1565.00
23.2692 1575.00
23.3344 1630.00
23.3996 1692.00
23.4647 1618.00
23.5299 1519.00
23.5951 1433.00
23.6603 1440.00
23.7255 1368.00
23.7907 1499.00
23.8559 1519.00
23.9211 1463.00
23.9863 1494.00
24.0515 1475.00
24.1167 1427.00
24.1819 1517.00
24.2471 1516.00
24.3123 1529.00
24.3775 1557.00
24.4427 1525.00
24.5079 1581.00
24.5731 1569.00
24.6383 1633.00
24.7035 1742.00
24.7687 1860.00
24.8339 1873.00
24.8991 2246.00
24.9643 2660.00
25.0295 3469.00
25.0947 4605.00
25.1599 5833.00
25.2251 7196.00
25.2903 7977.00
25.3555 8202.00
25.4207 7528.00
25.4859 6100.00
25.5511 4520.00
25.6163 3720.00
25.6815 3656.00
25.7467 3984.00
25.8119 4442.00
25.8771 4800.00
25.9423 4908.00
26.0075 4699.00
26.0727 3997.00
26.1379 3093.00
26.2031 2319.00
26.2683 1882.00
26.3335 1814.00
26.3987 1733.00
26.4639 1683.00
26.5291 1563.00
26.5943 1534.00
26.6595 1527.00
26.7247 1461.00
26.7899 1496.00
26.8551 1540.00
26.9203 1384.00
26.9855 1392.00
27.0507 1348.00
27.1159 1496.00
27.1811 1469.00
27.2463 1413.00
27.3115 1346.00
27.3767 1373.00
27.4419 1441.00
27.5071 1495.00
27.5723 1447.00
27.6375 1485.00
27.7027 1513.00
27.7679 1515.00
27.8331 1402.00
27.8983 1432.00
27.9635 1385.00
28.0287 1384.00
28.0939 1345.00
28.1591 1341.00
28.2243 1420.00
28.2894 1379.00
28.3546 1325.00
28.4198 1360.00
28.485 1453.00
28.5502 1484.00
28.6154 1477.00
28.6806 1507.00
28.7458 1525.00
28.811 1636.00
28.8762 1565.00
28.9414 1565.00
29.0066 1466.00
29.0718 1400.00
29.137 1380.00
29.2022 1392.00
29.2674 1462.00
29.3326 1403.00
29.3978 1527.00
29.463 1591.00
29.5282 1766.00
29.5934 1839.00
29.6586 2013.00
29.7238 2183.00
29.789 2172.00
29.8542 2208.00
29.9194 2019.00
29.9846 1863.00
30.0498 1678.00
30.115 1609.00
30.1802 1532.00
30.2454 1339.00
30.3106 1375.00
30.3758 1309.00
30.441 1368.00
30.5062 1386.00
30.5714 1472.00
30.6366 1593.00
30.7018 1918.00
30.767 2293.00
30.8322 2414.00
30.8974 2677.00
30.9626 2759.00
31.0278 2609.00
31.093 2276.00
31.1582 2032.00
31.2234 1741.00
31.2886 1677.00
31.3538 1786.00
31.419 1967.00
31.4842 2035.00
31.5494 2314.00
31.6146 2649.00
31.6798 2839.00
31.745 3064.00
31.8102 3066.00
31.8754 2869.00
31.9406 2517.00
32.0058 1964.00
32.071 1565.00
32.1362 1388.00
32.2014 1337.00
32.2666 1409.00
32.3318 1443.00
32.397 1294.00
32.4622 1305.00
32.5274 1314.00
32.5926 1310.00
32.6578 1403.00
32.723 1402.00
32.7882 1274.00
32.8534 1375.00
32.9186 1278.00
32.9838 1252.00
33.0489 1268.00
33.1141 1155.00
33.1793 1236.00
33.2445 1266.00
33.3097 1254.00
33.3749 1232.00
33.4401 1330.00
33.5053 1235.00
33.5705 1308.00
33.6357 1328.00
33.7009 1333.00
33.7661 1390.00
33.8313 1339.00
33.8965 1437.00
33.9617 1319.00
34.0269 1251.00
34.0921 1377.00
34.1573 1308.00
34.2225 1457.00
34.2877 1567.00
34.3529 1659.00
34.4181 1742.00
34.4833 1806.00
34.5485 1775.00
34.6137 1674.00
34.6789 1697.00
34.7441 1641.00
34.8093 1699.00
34.8745 1582.00
34.9397 1654.00
35.0049 1812.00
35.0701 1840.00
35.1353 1984.00
35.2005 2263.00
35.2657 2300.00
35.3309 2248.00
35.3961 2209.00
35.4613 1986.00
35.5265 1866.00
35.5917 1671.00
35.6569 1682.00
35.7221 1611.00
35.7873 1521.00
35.8525 1659.00
35.9177 1807.00
35.9829 1980.00
36.0481 2376.00
36.1133 2647.00
36.1785 3160.00
36.2437 3666.00
36.3089 3990.00
36.3741 4275.00
36.4393 4594.00
36.5045 4422.00
36.5697 4281.00
36.6349 4354.00
36.7001 4157.00
36.7653 3813.00
36.8305 3255.00
36.8957 2709.00
36.9609 2101.00
37.0261 1777.00
37.0913 1550.00
37.1565 1365.00
37.2217 1341.00
37.2869 1321.00
37.3521 1365.00
37.4173 1210.00
37.4825 1274.00
37.5477 1212.00
37.6129 1218.00
37.6781 1190.00
37.7433 1181.00
37.8085 1260.00
37.8736 1308.00
37.9388 1287.00
38.004 1418.00
38.0692 1387.00
38.1344 1488.00
38.1996 1538.00
38.2648 1580.00
38.33 1526.00
38.3952 1324.00
38.4604 1295.00
38.5256 1305.00
38.5908 1318.00
38.656 1253.00
38.7212 1308.00
38.7864 1460.00
38.8516 1538.00
38.9168 1669.00
38.982 1794.00
39.0472 1910.00
39.1124 1768.00
39.1776 1489.00
39.2428 1441.00
39.308 1373.00
39.3732 1245.00
39.4384 1195.00
39.5036 1190.00
39.5688 1175.00
39.634 1267.00
39.6992 1219.00
39.7644 1235.00
39.8296 1244.00
39.8948 1290.00
39.96 1309.00
40.0252 1228.00
40.0904 1195.00
40.1556 1114.00
40.2208 1134.00
40.286 1074.00
40.3512 1147.00
40.4164 1101.00
40.4816 1089.00
40.5468 1162.00
40.612 1193.00
40.6772 1136.00
40.7424 1124.00
40.8076 1164.00
40.8728 1169.00
40.938 1167.00
41.0032 1209.00
41.0684 1221.00
41.1336 1284.00
41.1988 1399.00
41.264 1590.00
41.3292 1706.00
41.3944 1918.00
41.4596 1991.00
41.5248 1947.00
41.59 1845.00
41.6552 1639.00
41.7204 1538.00
41.7856 1330.00
41.8508 1272.00
41.916 1164.00
41.9812 1225.00
42.0464 1156.00
42.1116 1151.00
42.1768 1108.00
42.242 1107.00
42.3072 1099.00
42.3724 1124.00
42.4376 1116.00
42.5028 1154.00
42.568 1145.00
42.6332 1130.00
42.6983 1113.00
42.7635 1164.00
42.8287 1189.00
42.8939 1209.00
42.9591 1235.00
43.0243 1322.00
43.0895 1279.00
43.1547 1379.00
43.2199 1356.00
43.2851 1299.00
43.3503 1354.00
43.4155 1300.00
43.4807 1391.00
43.5459 1432.00
43.6111 1366.00
43.6763 1342.00
43.7415 1458.00
43.8067 1569.00
43.8719 1692.00
43.9371 2117.00
44.0023 2637.00
44.0675 3098.00
44.1327 3760.00
44.1979 4040.00
44.2631 4231.00
44.3283 3894.00
44.3935 3363.00
44.4587 2602.00
44.5239 2018.00
44.5891 1653.00
44.6543 1487.00
44.7195 1352.00
44.7847 1320.00
44.8499 1314.00
44.9151 1261.00
44.9803 1347.00
45.0455 1338.00
45.1107 1392.00
45.1759 1378.00
45.2411 1362.00
45.3063 1356.00
45.3715 1399.00
45.4367 1543.00
45.5019 1689.00
45.5671 1876.00
45.6323 2240.00
45.6975 2360.00
45.7627 2459.00
45.8279 2383.00
45.8931 2204.00
45.9583 1935.00
46.0235 1587.00
46.0887 1501.00
46.1539 1520.00
46.2191 1439.00
46.2843 1478.00
46.3495 1551.00
46.4147 1616.00
46.4799 1667.00
46.5451 1794.00
46.6103 1981.00
46.6755 1973.00
46.7407 2050.00
46.8059 2001.00
46.8711 1831.00
46.9363 1753.00
47.0015 1693.00
47.0667 1469.00
47.1319 1322.00
47.1971 1512.00
47.2623 1450.00
47.3275 1407.00
47.3927 1591.00
47.4579 1842.00
47.523 2045.00
47.5882 2306.00
47.6534 2664.00
47.7186 2859.00
47.7838 2978.00
47.849 3034.00
47.9142 2870.00
47.9794 2413.00
48.0446 2062.00
48.1098 1645.00
48.175 1428.00
48.2402 1300.00
48.3054 1236.00
48.3706 1134.00
48.4358 1191.00
48.501 1098.00
48.5662 1066.00
48.6314 1125.00
48.6966 1113.00
48.7618 1091.00
48.827 1070.00
48.8922 1100.00
48.9574 1108.00
49.0226 1127.00
49.0878 1140.00
49.153 1109.00
49.2182 1091.00
49.2834 1154.00
49.3486 1240.00
49.4138 1307.00
49.479 1363.00
49.5442 1510.00
49.6094 1705.00
49.6746 1888.00
49.7398 2107.00
49.805 2251.00
49.8702 2374.00
49.9354 2558.00
50.0006 2661.00
50.0658 2791.00
50.131 2839.00
50.1962 2787.00
50.2614 2504.00
50.3266 2402.00
50.3918 2053.00
50.457 1878.00
50.5222 1702.00
50.5874 1603.00
50.6526 1438.00
50.7178 1370.00
50.783 1244.00
50.8482 1197.00
50.9134 1101.00
50.9786 1176.00
51.0438 1073.00
51.109 1105.00
51.1742 1077.00
51.2394 1051.00
51.3046 1086.00
51.3698 1104.00
51.435 1148.00
51.5002 1186.00
51.5654 1237.00
51.6306 1250.00
51.6958 1304.00
51.761 1289.00
51.8262 1318.00
51.8914 1234.00
51.9566 1230.00
52.0218 1087.00
52.087 1072.00
52.1522 1030.00
52.2174 1123.00
52.2826 1098.00
52.3477 1093.00
52.4129 1120.00
52.4781 1085.00
52.5433 1159.00
52.6085 1247.00
52.6737 1272.00
52.7389 1120.00
52.8041 1152.00
52.8693 1101.00
52.9345 1078.00
52.9997 1066.00
53.0649 1110.00
53.1301 1127.00
53.1953 1145.00
53.2605 1125.00
53.3257 1076.00
53.3909 1056.00
53.4561 996.00
53.5213 981.00
53.5865 1004.00
53.6517 1011.00
53.7169 936.00
53.7821 911.00
53.8473 947.00
53.9125 884.00
53.9777 962.00
54.0429 910.00
54.1081 920.00
54.1733 951.00
54.2385 918.00
54.3037 951.00
54.3689 990.00
54.4341 947.00
54.4993 931.00
54.5645 991.00
54.6297 908.00
54.6949 924.00
54.7601 1008.00
54.8253 996.00
54.8905 1046.00
54.9557 1013.00
55.0209 1012.00
55.0861 1039.00
55.1513 1063.00
55.2165 1045.00
55.2817 1124.00
55.3469 1168.00
55.4121 1090.00
55.4773 1069.00
55.5425 1108.00
55.6077 1068.00
55.6729 1006.00
55.7381 998.00
55.8033 1007.00
55.8685 900.00
55.9337 1040.00
55.9989 962.00
56.0641 956.00
56.1293 961.00
56.1945 888.00
56.2597 894.00
56.3249 964.00
56.3901 957.00
56.4553 957.00
56.5205 1063.00
56.5857 1003.00
56.6509 1100.00
56.7161 1067.00
56.7813 1081.00
56.8465 1143.00
56.9117 1171.00
56.9769 1204.00
57.042 1225.00
57.1073 1262.00
57.1724 1349.00
57.2376 1477.00
57.3028 1582.00
57.368 1543.00
57.4332 1515.00
57.4984 1509.00
57.5636 1424.00
57.6288 1381.00
57.694 1367.00
57.7592 1289.00
57.8244 1210.00
57.8896 1123.00
57.9548 1058.00
58.02 1061.00
58.0852 978.00
58.1504 1105.00
58.2156 958.00
58.2808 958.00
58.346 921.00
58.4112 1019.00
58.4764 999.00
58.5416 1016.00
58.6068 1030.00
58.672 1115.00
58.7372 1240.00
58.8024 1268.00
58.8676 1425.00
58.9328 1349.00
58.998 1446.00
59.0632 1424.00
59.1284 1294.00
59.1936 1312.00
59.2588 1220.00
59.324 1131.00
59.3892 1088.00
59.4544 1071.00
59.5196 1077.00
59.5848 1079.00
59.65 1199.00
59.7152 1223.00
59.7804 1313.00
59.8456 1350.00
59.9108 1414.00
59.976 1452.00
60.0412 1332.00
60.1064 1328.00
60.1716 1167.00
60.2368 1068.00
60.302 1045.00
60.3672 1015.00
60.4324 986.00
60.4976 1003.00
60.5628 942.00
60.628 968.00
60.6932 984.00
60.7584 910.00
60.8236 954.00
60.8888 927.00
60.954 948.00
61.0192 946.00
61.0844 976.00
61.1496 965.00
61.2148 869.00
61.28 954.00
61.3452 960.00
61.4104 932.00
61.4756 982.00
61.5408 975.00
61.606 948.00
61.6712 968.00
61.7364 933.00
61.8016 942.00
61.8667 970.00
61.932 897.00
61.9971 864.00
62.0623 857.00
62.1275 883.00
62.1927 869.00
62.2579 928.00
62.3231 988.00
62.3883 888.00
62.4535 1052.00
62.5187 1001.00
62.5839 1020.00
62.6491 1070.00
62.7143 1050.00
62.7795 1122.00
62.8447 1113.00
62.9099 1088.00
62.9751 1105.00
63.0403 1137.00
63.1055 981.00
63.1707 996.00
63.2359 1012.00
63.3011 895.00
63.3663 944.00
63.4315 984.00
63.4967 1039.00
63.5619 1046.00
63.6271 1040.00
63.6923 1079.00
63.7575 1124.00
63.8227 1192.00
63.8879 1226.00
63.9531 1252.00
64.0183 1308.00
64.0835 1347.00
64.1487 1251.00
64.2139 1179.00
64.2791 1150.00
64.3443 1077.00
64.4095 1022.00
64.4747 961.00
64.5399 926.00
64.6051 866.00
64.6703 923.00
64.7355 860.00
64.8007 1001.00
64.8659 977.00
64.9311 980.00
64.9963 1046.00
65.0615 1056.00
65.1267 1104.00
65.1919 1150.00
65.2571 1165.00
65.3223 1194.00
65.3875 1240.00
65.4527 1192.00
65.5179 1160.00
65.5831 1182.00
65.6483 1189.00
65.7135 1203.00
65.7787 1173.00
65.8439 1169.00
65.9091 1177.00
65.9743 1098.00
66.0395 1149.00
66.1047 1161.00
66.1699 1135.00
66.2351 1113.00
66.3003 1129.00
66.3655 1132.00
66.4307 1087.00
66.4959 1004.00
66.561 1030.00
66.6263 1009.00
66.6915 1012.00
66.7566 1041.00
66.8218 1074.00
66.887 1001.00
66.9522 958.00
67.0174 919.00
67.0826 932.00
67.1478 965.00
67.213 894.00
67.2782 913.00
67.3434 898.00
67.4086 895.00
67.4738 895.00
67.539 882.00
67.6042 877.00
67.6694 890.00
67.7346 896.00
67.7998 876.00
67.865 865.00
67.9302 900.00
67.9954 850.00
68.0606 890.00
68.1258 822.00
68.191 848.00
68.2562 868.00
68.3214 864.00
68.3866 933.00
68.4518 909.00
68.517 846.00
68.5822 904.00
68.6474 869.00
68.7126 884.00
68.7778 889.00
68.843 817.00
68.9082 832.00
68.9734 831.00
69.0386 855.00
69.1038 836.00
69.169 949.00
69.2342 860.00
69.2994 873.00
69.3646 912.00
69.4298 878.00
69.495 800.00
69.5602 775.00
69.6254 837.00
69.6906 788.00
69.7558 854.00
69.821 815.00
69.8862 845.00
69.9514 830.00
70.0166 838.00
70.0818 820.00
70.147 848.00
70.2122 827.00
70.2774 786.00
70.3426 851.00
70.4078 815.00
70.473 832.00
70.5382 833.00
70.6034 857.00
70.6686 834.00
70.7338 840.00
70.799 812.00
70.8642 874.00
70.9294 894.00
70.9946 921.00
71.0598 906.00
71.125 978.00
71.1902 928.00
71.2554 842.00
71.3205 911.00
71.3858 908.00
71.451 928.00
71.5162 887.00
71.5813 886.00
71.6465 952.00
71.7117 994.00
71.7769 1007.00
71.8421 1069.00
71.9073 1146.00
71.9725 1181.00
72.0377 1171.00
72.1029 1223.00
72.1681 1295.00
72.2333 1248.00
72.2985 1204.00
72.3637 1158.00
72.4289 1182.00
72.4941 1082.00
72.5593 1051.00
72.6245 1058.00
72.6897 1063.00
72.7549 1007.00
72.8201 1014.00
72.8853 1055.00
72.9505 1124.00
73.0157 1107.00
73.0809 1083.00
73.1461 1113.00
73.2113 1102.00
73.2765 1223.00
73.3417 1187.00
73.4069 1286.00
73.4721 1270.00
73.5373 1318.00
73.6025 1341.00
73.6677 1370.00
73.7329 1448.00
73.7981 1459.00
73.8633 1533.00
73.9285 1577.00
73.9937 1471.00
74.0589 1353.00
74.1241 1425.00
74.1893 1306.00
74.2545 1269.00
74.3197 1291.00
74.3849 1264.00
74.4501 1206.00
74.5153 1229.00
74.5805 1281.00
74.6457 1252.00
74.7109 1156.00
74.7761 1174.00
74.8413 1183.00
74.9065 1296.00
74.9717 1124.00
75.0369 1184.00
75.1021 1174.00
75.1673 1197.00
75.2325 1181.00
75.2977 1206.00
75.3629 1205.00
75.4281 1157.00
75.4933 1100.00
75.5585 1163.00
75.6237 1061.00
75.6889 1063.00
75.7541 997.00
75.8193 1094.00
75.8845 1127.00
75.9497 1107.00
76.0149 1143.00
76.0801 1130.00
76.1452 1125.00
76.2104 1176.00
76.2756 1091.00
76.3409 1003.00
76.406 1033.00
76.4712 1038.00
76.5364 990.00
76.6016 944.00
76.6668 898.00
76.732 957.00
76.7972 948.00
76.8624 961.00
76.9276 1035.00
76.9928 975.00
77.058 870.00
77.1232 919.00
77.1884 930.00
77.2536 932.00
77.3188 967.00
77.384 938.00
77.4492 1044.00
77.5144 1043.00
77.5796 1074.00
77.6448 1115.00
77.71 1150.00
77.7752 1144.00
77.8404 1081.00
77.9056 1054.00
77.9708 1046.00
78.036 1025.00
78.1012 1032.00
78.1664 964.00
78.2316 916.00
78.2968 832.00
78.362 922.00
78.4272 929.00
78.4924 841.00
78.5576 862.00
78.6228 804.00
78.688 838.00
78.7532 816.00
78.8184 812.00
78.8836 826.00
78.9488 850.00
79.014 783.00
79.0792 860.00
79.1444 843.00
79.2096 859.00
79.2748 852.00
79.34 856.00
79.4052 813.00
79.4704 801.00
79.5356 770.00
79.6008 772.00
79.666 811.00
79.7312 823.00
79.7964 853.00
79.8616 875.00
79.9268 907.00
79.992 909.00
80.0572 980.00
80.1224 937.00
80.1876 983.00
80.2528 1008.00
80.318 1011.00
80.3832 970.00
80.4484 920.00
80.5136 948.00
80.5788 865.00
80.644 895.00
80.7092 945.00
80.7744 843.00
80.8396 889.00
80.9048 857.00
80.9699 797.00
81.0351 805.00
81.1003 888.00
81.1655 819.00
81.2307 836.00
81.2959 861.00
81.3611 841.00
81.4263 847.00
81.4915 846.00
81.5567 896.00
81.6219 895.00
81.6871 924.00
81.7523 940.00
81.8175 980.00
81.8827 1031.00
81.9479 1064.00
82.0131 1014.00
82.0783 1133.00
82.1435 1089.00
82.2087 1074.00
82.2739 1071.00
82.3391 1120.00
82.4043 1016.00
82.4695 995.00
82.5347 1046.00
82.5999 917.00
82.6651 1015.00
82.7303 932.00
82.7955 891.00
82.8607 895.00
82.9259 910.00
82.9911 890.00
83.0563 933.00
83.1215 933.00
83.1867 998.00
83.2519 977.00
83.3171 961.00
83.3823 957.00
83.4475 924.00
83.5127 941.00
83.5779 915.00
83.6431 868.00
83.7083 925.00
83.7735 897.00
83.8387 833.00
83.9039 872.00
83.9691 805.00
84.0343 877.00
84.0995 897.00
84.1647 919.00
84.2299 967.00
84.2951 978.00
84.3603 943.00
84.4255 909.00
84.4907 890.00
84.5559 884.00
84.6211 896.00
84.6863 820.00
84.7515 873.00
84.8167 872.00
84.8819 813.00
84.9471 896.00
85.0123 893.00
85.0775 900.00
85.1427 904.00
85.2079 985.00
85.2731 1072.00
85.3383 1006.00
85.4035 931.00
85.4687 946.00
85.5339 921.00
85.5991 909.00
85.6643 934.00
85.7295 986.00
85.7946 826.00
85.8598 824.00
85.925 942.00
85.9903 753.00
86.0554 828.00
86.1206 778.00
86.1858 788.00
86.251 815.00
86.3162 828.00
86.3814 872.00
86.4466 756.00
86.5118 754.00
86.577 859.00
86.6422 769.00
86.7074 895.00
86.7726 838.00
86.8378 783.00
86.903 731.00
86.9682 864.00
87.0334 774.00
87.0986 854.00
87.1638 857.00
87.229 838.00
87.2942 803.00
87.3594 788.00
87.4246 859.00
87.4898 856.00
87.555 865.00
87.6202 803.00
87.6854 820.00
87.7506 810.00
87.8158 821.00
87.881 893.00
87.9462 826.00
88.0114 822.00
88.0766 850.00
88.1418 812.00
88.207 768.00
88.2722 759.00
88.3374 777.00
88.4026 737.00
88.4678 827.00
88.533 773.00
88.5982 836.00
88.6634 804.00
88.7286 802.00
88.7938 784.00
88.859 795.00
88.9242 812.00
88.9894 820.00
89.0546 805.00
89.1198 809.00
89.185 872.00
89.2502 829.00
89.3154 853.00
89.3806 865.00
89.4458 848.00
89.511 824.00
89.5762 903.00
89.6414 776.00
89.7066 828.00
89.7718 817.00
89.837 867.00
89.9022 877.00
89.9674 788.00
90.0326 857.00
90.0978 850.00
90.163 801.00
90.2282 820.00
90.2934 739.00
90.3586 750.00
90.4238 803.00
90.489 794.00
90.5542 738.00
90.6193 775.00
90.6845 714.00
90.7497 763.00
90.8149 767.00
90.8801 787.00
90.9453 772.00
91.0105 760.00
91.0757 775.00
91.1409 810.00
91.2061 745.00
91.2713 805.00
91.3365 812.00
91.4017 822.00
91.4669 838.00
91.5321 888.00
91.5973 850.00
91.6625 844.00
91.7277 932.00
91.7929 917.00
91.8581 876.00
91.9233 890.00
91.9885 845.00
92.0537 784.00
92.1189 879.00
92.1841 855.00
92.2493 804.00
92.3145 855.00
92.3797 735.00
92.4449 747.00
92.5101 711.00
92.5753 780.00
92.6405 743.00
92.7057 806.00
92.7709 745.00
92.8361 758.00
92.9013 775.00
92.9665 766.00
93.0317 714.00
93.0969 861.00
93.1621 778.00
93.2273 828.00
93.2925 835.00
93.3577 848.00
93.4229 808.00
93.4881 819.00
93.5533 751.00
93.6185 891.00
93.6837 822.00
93.7489 821.00
93.8141 863.00
93.8793 893.00
93.9445 895.00
94.0097 909.00
94.0749 878.00
94.1401 955.00
94.2053 918.00
94.2705 994.00
94.3357 935.00
94.4009 900.00
94.4661 927.00
94.5313 937.00
94.5965 945.00
94.6617 961.00
94.7269 969.00
94.7921 1015.00
94.8573 1052.00
94.9225 963.00
94.9877 1016.00
95.0529 1056.00
95.1181 1041.00
95.1833 975.00
95.2485 935.00
95.3137 949.00
95.3789 917.00
95.444 911.00
95.5092 873.00
95.5744 878.00
95.6396 817.00
95.7048 804.00
95.77 807.00
95.8352 824.00
95.9004 807.00
95.9656 895.00
96.0308 833.00
96.096 834.00
96.1612 870.00
96.2264 825.00
96.2916 867.00
96.3568 862.00
96.422 846.00
96.4872 897.00
96.5524 818.00
96.6176 803.00
96.6828 839.00
96.748 774.00
96.8132 839.00
96.8784 853.00
96.9436 882.00
97.0088 842.00
97.074 917.00
97.1392 996.00
97.2044 951.00
97.2696 920.00
97.3348 954.00
97.4 939.00
97.4652 875.00
97.5304 875.00
97.5956 798.00
97.6608 845.00
97.726 873.00
97.7912 773.00
97.8564 788.00
97.9216 778.00
97.9868 791.00
98.052 821.00
98.1172 809.00
98.1824 722.00
98.2476 763.00
98.3128 771.00
98.378 765.00
98.4432 738.00
98.5084 718.00
98.5736 738.00
98.6388 773.00
98.704 775.00
98.7692 813.00
98.8344 813.00
98.8996 766.00
98.9648 855.00
99.03 862.00
99.0952 815.00
99.1604 847.00
99.2256 803.00
99.2908 898.00
99.356 931.00
99.4212 841.00
99.4864 846.00
99.5516 881.00
99.6168 877.00
99.682 793.00
99.7472 809.00
99.8124 824.00
99.8776 745.00
99.9428 850.00
100.008 811.00
100.073 796.00
100.095 776.00