File: data/xrd_creation/results/PG_1221-1.xy
10.0094 2619.00
10.0746 2592.00
10.1398 2595.00
10.205 2536.00
10.2702 2620.00
10.3354 2597.00
10.4006 2557.00
10.4658 2458.00
10.531 2502.00
10.5962 2548.00
10.6614 2446.00
10.7266 2393.00
10.7918 2500.00
10.857 2502.00
10.9222 2477.00
10.9874 2406.00
11.0526 2348.00
11.1178 2348.00
11.183 2383.00
11.2482 2312.00
11.3134 2331.00
11.3786 2321.00
11.4438 2393.00
11.509 2298.00
11.5742 2328.00
11.6394 2348.00
11.7046 2294.00
11.7698 2283.00
11.835 2244.00
11.9002 2269.00
11.9654 2233.00
12.0306 2274.00
12.0958 2246.00
12.161 2285.00
12.2262 2165.00
12.2914 2178.00
12.3566 2126.00
12.4218 2137.00
12.487 2261.00
12.5522 2124.00
12.6174 2196.00
12.6826 2192.00
12.7478 2080.00
12.813 2038.00
12.8782 2039.00
12.9434 2162.00
13.0086 2091.00
13.0738 2056.00
13.139 2044.00
13.2042 2111.00
13.2694 2094.00
13.3346 1977.00
13.3998 2053.00
13.465 2074.00
13.5302 1985.00
13.5954 2065.00
13.6606 2046.00
13.7258 2032.00
13.791 2034.00
13.8562 2021.00
13.9214 2101.00
13.9865 1941.00
14.0517 1964.00
14.1169 2089.00
14.1821 1915.00
14.2473 2065.00
14.3125 1941.00
14.3777 2071.00
14.4429 1927.00
14.5081 2007.00
14.5733 1969.00
14.6385 1972.00
14.7037 1940.00
14.7689 1941.00
14.8341 1904.00
14.8993 1981.00
14.9645 1963.00
15.0297 1958.00
15.0949 2101.00
15.1601 2012.00
15.2253 1999.00
15.2905 2064.00
15.3557 2078.00
15.4209 2230.00
15.4861 2204.00
15.5513 2440.00
15.6165 2634.00
15.6817 2955.00
15.7469 3593.00
15.8121 4298.00
15.8773 5802.00
15.9425 7531.00
16.0077 8223.00
16.0729 6507.00
16.1381 4171.00
16.2033 3001.00
16.2685 2537.00
16.3337 2252.00
16.3989 2219.00
16.4641 2113.00
16.5293 2049.00
16.5945 2061.00
16.6597 1978.00
16.7249 1880.00
16.7901 1937.00
16.8553 1914.00
16.9205 1952.00
16.9857 1884.00
17.0509 1823.00
17.1161 1881.00
17.1813 1874.00
17.2465 1846.00
17.3117 1918.00
17.3769 1762.00
17.4421 1858.00
17.5073 1871.00
17.5725 1843.00
17.6377 1813.00
17.7029 1913.00
17.7681 1814.00
17.8333 1815.00
17.8985 1839.00
17.9637 1746.00
18.0289 1740.00
18.0941 1894.00
18.1593 1787.00
18.2245 1784.00
18.2897 1834.00
18.3549 1752.00
18.4201 1818.00
18.4853 1854.00
18.5505 1787.00
18.6157 1856.00
18.6809 1914.00
18.7461 1832.00
18.8112 1794.00
18.8764 1686.00
18.9416 1719.00
19.0068 1703.00
19.072 1765.00
19.1372 1783.00
19.2024 1715.00
19.2676 1777.00
19.3328 1673.00
19.398 1673.00
19.4632 1689.00
19.5284 1745.00
19.5936 1707.00
19.6588 1701.00
19.724 1708.00
19.7892 1669.00
19.8544 1623.00
19.9196 1697.00
19.9848 1688.00
20.05 1654.00
20.1152 1713.00
20.1804 1734.00
20.2456 1640.00
20.3108 1683.00
20.376 1598.00
20.4412 1666.00
20.5064 1595.00
20.5716 1631.00
20.6368 1654.00
20.702 1616.00
20.7672 1646.00
20.8324 1687.00
20.8976 1670.00
20.9628 1633.00
21.028 1583.00
21.0932 1675.00
21.1584 1568.00
21.2236 1630.00
21.2888 1690.00
21.354 1669.00
21.4192 1579.00
21.4844 1627.00
21.5496 1627.00
21.6148 1520.00
21.68 1627.00
21.7452 1580.00
21.8104 1585.00
21.8756 1545.00
21.9408 1602.00
22.006 1544.00
22.0712 1605.00
22.1364 1607.00
22.2016 1574.00
22.2668 1605.00
22.332 1637.00
22.3972 1589.00
22.4624 1613.00
22.5276 1567.00
22.5928 1472.00
22.658 1549.00
22.7232 1583.00
22.7884 1593.00
22.8536 1570.00
22.9188 1543.00
22.984 1563.00
23.0492 1543.00
23.1144 1615.00
23.1796 1556.00
23.2448 1564.00
23.31 1520.00
23.3752 1551.00
23.4404 1554.00
23.5056 1509.00
23.5708 1534.00
23.6359 1501.00
23.7011 1542.00
23.7663 1510.00
23.8315 1601.00
23.8967 1566.00
23.9619 1605.00
24.0271 1539.00
24.0923 1588.00
24.1575 1621.00
24.2227 1495.00
24.2879 1505.00
24.3531 1562.00
24.4183 1513.00
24.4835 1575.00
24.5487 1492.00
24.6139 1518.00
24.6791 1486.00
24.7443 1539.00
24.8095 1464.00
24.8747 1530.00
24.9399 1443.00
25.0051 1545.00
25.0703 1518.00
25.1355 1557.00
25.2007 1564.00
25.2659 1497.00
25.3311 1445.00
25.3963 1495.00
25.4615 1477.00
25.5267 1570.00
25.5919 1541.00
25.6571 1489.00
25.7223 1499.00
25.7875 1566.00
25.8527 1495.00
25.9179 1520.00
25.9831 1449.00
26.0483 1485.00
26.1135 1417.00
26.1787 1512.00
26.2439 1461.00
26.3091 1572.00
26.3743 1534.00
26.4395 1482.00
26.5047 1552.00
26.5699 1543.00
26.6351 1540.00
26.7003 1591.00
26.7655 1620.00
26.8307 1591.00
26.8959 1613.00
26.9611 1561.00
27.0263 1618.00
27.0915 1696.00
27.1567 1741.00
27.2219 1868.00
27.2871 2033.00
27.3523 2381.00
27.4175 3017.00
27.4827 4164.00
27.5479 5697.00
27.6131 6879.00
27.6783 6433.00
27.7435 4851.00
27.8087 3449.00
27.8739 2739.00
27.9391 2615.00
28.0043 2612.00
28.0695 3032.00
28.1347 3996.00
28.1999 5603.00
28.2651 7822.00
28.3303 9053.00
28.3955 7524.00
28.4606 4973.00
28.5258 3428.00
28.591 2603.00
28.6562 2110.00
28.7214 1909.00
28.7866 1805.00
28.8518 1667.00
28.917 1633.00
28.9822 1546.00
29.0474 1559.00
29.1126 1511.00
29.1778 1522.00
29.243 1448.00
29.3082 1436.00
29.3734 1449.00
29.4386 1501.00
29.5038 1449.00
29.569 1411.00
29.6342 1459.00
29.6994 1473.00
29.7646 1420.00
29.8298 1438.00
29.895 1465.00
29.9602 1393.00
30.0254 1409.00
30.0906 1437.00
30.1558 1447.00
30.221 1418.00
30.2862 1507.00
30.3514 1521.00
30.4166 1673.00
30.4818 2055.00
30.547 2374.00
30.6122 2143.00
30.6774 1789.00
30.7426 1564.00
30.8078 1490.00
30.873 1392.00
30.9382 1375.00
31.0034 1487.00
31.0686 1320.00
31.1338 1429.00
31.199 1424.00
31.2642 1462.00
31.3294 1389.00
31.3946 1402.00
31.4598 1458.00
31.525 1493.00
31.5902 1477.00
31.6554 1588.00
31.7206 1731.00
31.7858 1940.00
31.851 2285.00
31.9162 2559.00
31.9814 2588.00
32.0466 2328.00
32.1118 2009.00
32.177 1653.00
32.2422 1604.00
32.3074 1501.00
32.3726 1421.00
32.4378 1381.00
32.503 1372.00
32.5682 1377.00
32.6334 1331.00
32.6986 1289.00
32.7638 1290.00
32.829 1367.00
32.8942 1308.00
32.9594 1321.00
33.0246 1267.00
33.0898 1323.00
33.1549 1271.00
33.2201 1354.00
33.2853 1234.00
33.3505 1299.00
33.4157 1344.00
33.4809 1288.00
33.5461 1308.00
33.6113 1385.00
33.6765 1298.00
33.7417 1319.00
33.8069 1298.00
33.8721 1318.00
33.9373 1325.00
34.0025 1331.00
34.0677 1314.00
34.1329 1307.00
34.1981 1307.00
34.2633 1333.00
34.3285 1347.00
34.3937 1323.00
34.4589 1296.00
34.5241 1291.00
34.5893 1326.00
34.6545 1261.00
34.7197 1257.00
34.7849 1296.00
34.8501 1324.00
34.9153 1261.00
34.9805 1282.00
35.0457 1293.00
35.1109 1311.00
35.1761 1371.00
35.2413 1344.00
35.3065 1372.00
35.3717 1285.00
35.4369 1334.00
35.5021 1314.00
35.5673 1341.00
35.6325 1493.00
35.6977 1583.00
35.7629 1889.00
35.8281 2766.00
35.8933 4255.00
35.9585 4129.00
36.0237 3061.00
36.0889 2068.00
36.1541 1710.00
36.2193 1715.00
36.2845 1794.00
36.3497 1848.00
36.4149 1769.00
36.4801 1534.00
36.5453 1418.00
36.6105 1334.00
36.6757 1365.00
36.7409 1341.00
36.8061 1286.00
36.8713 1261.00
36.9365 1209.00
37.0017 1260.00
37.0669 1307.00
37.1321 1180.00
37.1973 1292.00
37.2625 1306.00
37.3277 1264.00
37.3929 1282.00
37.4581 1284.00
37.5233 1380.00
37.5885 1381.00
37.6537 1307.00
37.7189 1338.00
37.7841 1255.00
37.8493 1332.00
37.9145 1223.00
37.9796 1269.00
38.0448 1251.00
38.11 1254.00
38.1752 1296.00
38.2404 1287.00
38.3056 1209.00
38.3708 1274.00
38.436 1232.00
38.5012 1281.00
38.5664 1291.00
38.6316 1249.00
38.6968 1307.00
38.762 1311.00
38.8272 1294.00
38.8924 1368.00
38.9576 1319.00
39.0228 1342.00
39.088 1275.00
39.1532 1457.00
39.2184 1454.00
39.2836 1503.00
39.3488 1595.00
39.414 1694.00
39.4792 1871.00
39.5444 2248.00
39.6096 2873.00
39.6748 3899.00
39.74 5264.00
39.8052 6161.00
39.8704 5832.00
39.9356 4648.00
40.0008 3447.00
40.066 2618.00
40.1312 2101.00
40.1964 1747.00
40.2616 1560.00
40.3268 1531.00
40.392 1463.00
40.4572 1383.00
40.5224 1344.00
40.5876 1323.00
40.6528 1322.00
40.718 1298.00
40.7832 1230.00
40.8484 1297.00
40.9136 1295.00
40.9788 1262.00
41.044 1219.00
41.1092 1207.00
41.1744 1273.00
41.2396 1246.00
41.3048 1319.00
41.37 1218.00
41.4352 1278.00
41.5004 1268.00
41.5656 1269.00
41.6308 1206.00
41.696 1190.00
41.7612 1227.00
41.8264 1241.00
41.8916 1166.00
41.9568 1216.00
42.022 1358.00
42.0872 1260.00
42.1524 1263.00
42.2176 1268.00
42.2828 1421.00
42.348 1457.00
42.4132 1666.00
42.4784 1928.00
42.5436 2038.00
42.6088 2084.00
42.6739 1882.00
42.7392 1628.00
42.8043 1498.00
42.8695 1370.00
42.9347 1312.00
42.9999 1278.00
43.0651 1265.00
43.1303 1304.00
43.1955 1284.00
43.2607 1225.00
43.3259 1232.00
43.3911 1222.00
43.4563 1356.00
43.5215 1687.00
43.5867 1825.00
43.6519 1723.00
43.7171 1501.00
43.7823 1379.00
43.8475 1290.00
43.9127 1248.00
43.9779 1218.00
44.0431 1157.00
44.1083 1124.00
44.1735 1141.00
44.2387 1263.00
44.3039 1118.00
44.3691 1204.00
44.4343 1205.00
44.4995 1183.00
44.5647 1187.00
44.6299 1197.00
44.6951 1135.00
44.7603 1174.00
44.8255 1140.00
44.8907 1157.00
44.9559 1195.00
45.0211 1188.00
45.0863 1129.00
45.1515 1156.00
45.2167 1122.00
45.2819 1173.00
45.3471 1154.00
45.4123 1276.00
45.4775 1189.00
45.5427 1199.00
45.6079 1108.00
45.6731 1163.00
45.7383 1151.00
45.8035 1201.00
45.8687 1177.00
45.9339 1106.00
45.9991 1139.00
46.0643 1189.00
46.1295 1205.00
46.1947 1223.00
46.2599 1180.00
46.3251 1218.00
46.3903 1187.00
46.4555 1219.00
46.5207 1183.00
46.5859 1177.00
46.6511 1183.00
46.7163 1171.00
46.7815 1175.00
46.8467 1190.00
46.9119 1246.00
46.9771 1223.00
47.0423 1308.00
47.1075 1242.00
47.1727 1329.00
47.2379 1513.00
47.3031 1711.00
47.3683 1891.00
47.4335 2109.00
47.4986 2027.00
47.5639 1768.00
47.629 1541.00
47.6942 1428.00
47.7594 1412.00
47.8246 1412.00
47.8898 1372.00
47.955 1328.00
48.0202 1384.00
48.0854 1425.00
48.1506 1522.00
48.2158 1638.00
48.281 1712.00
48.3462 2025.00
48.4114 2460.00
48.4766 2920.00
48.5418 3036.00
48.607 3173.00
48.6722 3143.00
48.7374 3252.00
48.8026 3576.00
48.8678 4290.00
48.933 5069.00
48.9982 5051.00
49.0634 4722.00
49.1286 3923.00
49.1938 3068.00
49.259 2394.00
49.3242 1930.00
49.3894 1709.00
49.4546 1573.00
49.5198 1521.00
49.585 1338.00
49.6502 1398.00
49.7154 1317.00
49.7806 1354.00
49.8458 1241.00
49.911 1372.00
49.9762 1363.00
50.0414 1396.00
50.1066 1486.00
50.1718 1625.00
50.237 1697.00
50.3022 1744.00
50.3674 1644.00
50.4326 1507.00
50.4978 1442.00
50.563 1278.00
50.6282 1244.00
50.6934 1232.00
50.7586 1201.00
50.8238 1158.00
50.889 1180.00
50.9542 1266.00
51.0194 1195.00
51.0846 1139.00
51.1498 1141.00
51.215 1171.00
51.2802 1142.00
51.3454 1159.00
51.4106 1210.00
51.4758 1170.00
51.541 1120.00
51.6062 1209.00
51.6714 1053.00
51.7366 1196.00
51.8018 1164.00
51.867 1130.00
51.9322 1189.00
51.9974 1206.00
52.0626 1189.00
52.1278 1092.00
52.193 1106.00
52.2582 1095.00
52.3233 1205.00
52.3886 1104.00
52.4537 1165.00
52.5189 1123.00
52.5841 1140.00
52.6493 1157.00
52.7145 1134.00
52.7797 1183.00
52.8449 1139.00
52.9101 1135.00
52.9753 1114.00
53.0405 1108.00
53.1057 1090.00
53.1709 1121.00
53.2361 1144.00
53.3013 1161.00
53.3665 1174.00
53.4317 1131.00
53.4969 1140.00
53.5621 1142.00
53.6273 1152.00
53.6925 1131.00
53.7577 1225.00
53.8229 1147.00
53.8881 1322.00
53.9533 1418.00
54.0185 1416.00
54.0837 1368.00
54.1489 1272.00
54.2141 1182.00
54.2793 1198.00
54.3445 1133.00
54.4097 1158.00
54.4749 1106.00
54.5401 1148.00
54.6053 1168.00
54.6705 1091.00
54.7357 1141.00
54.8009 1148.00
54.8661 1165.00
54.9313 1187.00
54.9965 1200.00
55.0617 1192.00
55.1269 1207.00
55.1921 1280.00
55.2573 1298.00
55.3225 1345.00
55.3877 1584.00
55.4529 1687.00
55.5181 1961.00
55.5833 2199.00
55.6485 2157.00
55.7137 2139.00
55.7789 1837.00
55.8441 1575.00
55.9093 1491.00
55.9745 1327.00
56.0397 1290.00
56.1049 1296.00
56.1701 1258.00
56.2353 1314.00
56.3005 1324.00
56.3657 1321.00
56.4309 1493.00
56.4961 1613.00
56.5613 1701.00
56.6265 1710.00
56.6917 1610.00
56.7569 1502.00
56.8221 1423.00
56.8873 1401.00
56.9525 1288.00
57.0177 1185.00
57.0829 1251.00
57.148 1183.00
57.2132 1140.00
57.2784 1180.00
57.3436 1302.00
57.4088 1602.00
57.474 1859.00
57.5392 1876.00
57.6044 1706.00
57.6696 1642.00
57.7348 1415.00
57.8 1347.00
57.8652 1286.00
57.9304 1268.00
57.9956 1337.00
58.0608 1339.00
58.126 1468.00
58.1912 1380.00
58.2564 1314.00
58.3216 1363.00
58.3868 1255.00
58.452 1249.00
58.5172 1277.00
58.5824 1198.00
58.6476 1198.00
58.7128 1219.00
58.778 1237.00
58.8432 1210.00
58.9084 1216.00
58.9736 1337.00
59.0388 1337.00
59.104 1435.00
59.1692 1404.00
59.2344 1283.00
59.2996 1354.00
59.3648 1272.00
59.43 1182.00
59.4952 1152.00
59.5604 1145.00
59.6256 1090.00
59.6908 1134.00
59.756 1138.00
59.8212 1113.00
59.8864 1166.00
59.9516 1103.00
60.0168 1134.00
60.082 1102.00
60.1472 1184.00
60.2124 1081.00
60.2776 1141.00
60.3428 1164.00
60.408 1147.00
60.4732 1140.00
60.5384 1112.00
60.6036 1176.00
60.6688 1120.00
60.734 1134.00
60.7992 1082.00
60.8644 1094.00
60.9296 1015.00
60.9948 1107.00
61.06 1077.00
61.1252 1084.00
61.1904 1066.00
61.2556 1127.00
61.3208 1148.00
61.386 1100.00
61.4512 1106.00
61.5164 1102.00
61.5816 1134.00
61.6468 1126.00
61.712 1109.00
61.7772 1131.00
61.8424 1119.00
61.9076 1086.00
61.9727 1059.00
62.0379 1057.00
62.1031 1155.00
62.1683 1112.00
62.2335 1111.00
62.2987 1113.00
62.3639 1183.00
62.4291 1166.00
62.4943 1126.00
62.5595 1136.00
62.6247 1150.00
62.6899 1204.00
62.7551 1124.00
62.8203 1155.00
62.8855 1226.00
62.9507 1370.00
63.0159 1746.00
63.0811 1955.00
63.1463 2038.00
63.2115 1880.00
63.2767 1731.00
63.3419 1506.00
63.4071 1351.00
63.4723 1211.00
63.5375 1221.00
63.6027 1215.00
63.6679 1177.00
63.7331 1265.00
63.7983 1120.00
63.8635 1271.00
63.9287 1283.00
63.9939 1344.00
64.0591 1483.00
64.1243 1623.00
64.1895 1747.00
64.2547 1910.00
64.3199 1967.00
64.3851 1928.00
64.4503 1859.00
64.5155 1671.00
64.5807 1561.00
64.6459 1379.00
64.7111 1324.00
64.7763 1299.00
64.8415 1314.00
64.9067 1256.00
64.9719 1209.00
65.0371 1235.00
65.1023 1263.00
65.1675 1292.00
65.2327 1361.00
65.2979 1374.00
65.3631 1344.00
65.4283 1423.00
65.4935 1382.00
65.5587 1321.00
65.6239 1298.00
65.6891 1283.00
65.7543 1172.00
65.8195 1229.00
65.8847 1219.00
65.9499 1168.00
66.0151 1244.00
66.0803 1214.00
66.1455 1251.00
66.2107 1212.00
66.2759 1227.00
66.3411 1269.00
66.4063 1200.00
66.4715 1198.00
66.5367 1203.00
66.6019 1157.00
66.6671 1161.00
66.7322 1106.00
66.7974 1126.00
66.8626 1181.00
66.9278 1092.00
66.993 1061.00
67.0582 1059.00
67.1234 1112.00
67.1886 1060.00
67.2538 1088.00
67.319 1112.00
67.3842 1177.00
67.4494 1078.00
67.5146 1149.00
67.5798 1061.00
67.645 1155.00
67.7102 1107.00
67.7754 1059.00
67.8406 1083.00
67.9058 1110.00
67.971 1090.00
68.0362 1034.00
68.1014 1138.00
68.1666 1136.00
68.2318 1165.00
68.297 1030.00
68.3622 1154.00
68.4274 1128.00
68.4926 1136.00
68.5578 1133.00
68.623 1089.00
68.6882 1110.00
68.7534 1089.00
68.8186 1061.00
68.8838 1050.00
68.949 1146.00
69.0142 1123.00
69.0794 1134.00
69.1446 1126.00
69.2098 1035.00
69.275 1157.00
69.3402 1149.00
69.4054 1193.00
69.4706 1222.00
69.5358 1250.00
69.601 1233.00
69.6662 1267.00
69.7314 1435.00
69.7966 1441.00
69.8618 1569.00
69.927 1709.00
69.9922 1708.00
70.0574 1682.00
70.1226 1661.00
70.1878 1625.00
70.253 1365.00
70.3182 1406.00
70.3834 1257.00
70.4486 1220.00
70.5138 1197.00
70.579 1161.00
70.6442 1141.00
70.7094 1169.00
70.7746 1221.00
70.8398 1194.00
70.905 1172.00
70.9702 1213.00
71.0354 1288.00
71.1006 1342.00
71.1658 1360.00
71.231 1266.00
71.2962 1298.00
71.3614 1380.00
71.4266 1265.00
71.4918 1378.00
71.5569 1316.00
71.6221 1190.00
71.6873 1212.00
71.7525 1171.00
71.8177 1187.00
71.8829 1119.00
71.9481 1160.00
72.0133 1139.00
72.0785 1148.00
72.1437 1079.00
72.2089 1106.00
72.2741 1103.00
72.3393 1142.00
72.4045 1125.00
72.4697 1082.00
72.5349 1119.00
72.6001 1184.00
72.6653 1051.00
72.7305 1116.00
72.7957 1143.00
72.8609 1152.00
72.9261 1188.00
72.9913 1221.00
73.0565 1152.00
73.1217 1170.00
73.1869 1147.00
73.2521 1190.00
73.3173 1211.00
73.3825 1111.00
73.4477 1092.00
73.5129 1107.00
73.5781 1059.00
73.6433 1113.00
73.7085 1075.00
73.7737 1091.00
73.8389 1114.00
73.9041 1090.00
73.9693 1020.00
74.0345 1091.00
74.0997 1133.00
74.1649 1121.00
74.2301 1140.00
74.2953 1084.00
74.3605 1076.00
74.4257 1197.00
74.4909 1192.00
74.5561 1209.00
74.6213 1187.00
74.6865 1234.00
74.7517 1232.00
74.8169 1164.00
74.8821 1174.00
74.9473 1086.00
75.0125 1081.00
75.0777 1152.00
75.1429 1100.00
75.2081 1150.00
75.2733 1107.00
75.3385 1087.00
75.4037 1095.00
75.4689 1150.00
75.5341 1211.00
75.5993 1167.00
75.6645 1178.00
75.7297 1190.00
75.7949 1243.00
75.8601 1199.00
75.9253 1258.00
75.9905 1343.00
76.0557 1352.00
76.1209 1399.00
76.186 1388.00
76.2513 1428.00
76.3165 1367.00
76.3816 1462.00
76.4468 1487.00
76.512 1450.00
76.5772 1559.00
76.6424 1545.00
76.7076 1489.00
76.7728 1465.00
76.838 1367.00
76.9032 1359.00
76.9684 1313.00
77.0336 1358.00
77.0988 1346.00
77.164 1385.00
77.2292 1510.00
77.2944 1480.00
77.3596 1513.00
77.4248 1708.00
77.49 1814.00
77.5552 1803.00
77.6204 1842.00
77.6856 1906.00
77.7508 1940.00
77.816 1913.00
77.8812 1927.00
77.9464 1715.00
78.0116 1742.00
78.0768 1638.00
78.142 1512.00
78.2072 1435.00
78.2724 1362.00
78.3376 1316.00
78.4028 1272.00
78.468 1230.00
78.5332 1284.00
78.5984 1244.00
78.6636 1212.00
78.7288 1294.00
78.794 1375.00
78.8592 1338.00
78.9244 1288.00
78.9896 1250.00
79.0548 1191.00
79.12 1151.00
79.1852 1160.00
79.2504 1058.00
79.3156 1160.00
79.3808 1114.00
79.446 1146.00
79.5112 1086.00
79.5764 1053.00
79.6416 1099.00
79.7068 1138.00
79.772 1075.00
79.8372 1182.00
79.9024 1085.00
79.9676 1141.00
80.0328 1069.00
80.098 1066.00
80.1632 1132.00
80.2284 1073.00
80.2936 1107.00
80.3588 1067.00
80.424 1042.00
80.4892 1092.00
80.5544 1061.00
80.6196 1141.00
80.6848 1143.00
80.75 1067.00
80.8152 1087.00
80.8804 1074.00
80.9456 1060.00
81.0108 1131.00
81.076 1050.00
81.1412 1105.00
81.2063 1155.00
81.2715 1086.00
81.3367 1056.00
81.4019 1083.00
81.4671 1052.00
81.5323 1080.00
81.5975 1130.00
81.6627 1074.00
81.7279 1081.00
81.7931 1097.00
81.8583 1070.00
81.9235 1105.00
81.9887 1064.00
82.0539 1071.00
82.1191 1136.00
82.1843 1161.00
82.2495 1197.00
82.3147 1191.00
82.3799 1195.00
82.4451 1275.00
82.5103 1333.00
82.5755 1347.00
82.6407 1377.00
82.7059 1330.00
82.7711 1244.00
82.8363 1237.00
82.9015 1248.00
82.9667 1182.00
83.0319 1152.00
83.0971 1120.00
83.1623 1131.00
83.2275 1055.00
83.2927 1122.00
83.3579 1142.00
83.4231 1062.00
83.4883 1096.00
83.5535 1108.00
83.6187 1082.00
83.6839 1048.00
83.7491 1047.00
83.8143 1038.00
83.8795 1015.00
83.9447 1065.00
84.0099 1105.00
84.0751 1098.00
84.1403 1122.00
84.2055 1093.00
84.2707 1105.00
84.3359 1026.00
84.4011 1082.00
84.4663 1061.00
84.5315 1039.00
84.5967 1096.00
84.6619 1092.00
84.7271 1086.00
84.7923 1113.00
84.8575 1119.00
84.9227 1108.00
84.9879 1122.00
85.0531 1106.00
85.1183 1164.00
85.1835 1153.00
85.2487 1116.00
85.3139 1194.00
85.3791 1106.00
85.4443 1142.00
85.5095 1153.00
85.5747 1130.00
85.6399 1107.00
85.7051 1116.00
85.7703 1070.00
85.8354 1108.00
85.9006 1148.00
85.9659 1100.00
86.031 1123.00
86.0962 1179.00
86.1614 1065.00
86.2266 1140.00
86.2918 1138.00
86.357 1073.00
86.4222 1074.00
86.4874 1073.00
86.5526 1082.00
86.6178 1093.00
86.683 1140.00
86.7482 1038.00
86.8134 1007.00
86.8786 1092.00
86.9438 1073.00
87.009 1076.00
87.0742 1074.00
87.1394 1064.00
87.2046 1109.00
87.2698 1143.00
87.335 1135.00
87.4002 1151.00
87.4654 1195.00
87.5306 1126.00
87.5958 1197.00
87.661 1136.00
87.7262 1135.00
87.7914 1125.00
87.8566 1072.00
87.9218 1059.00
87.987 1063.00
88.0522 1064.00
88.1174 1071.00
88.1826 1090.00
88.2478 1089.00
88.313 1083.00
88.3782 1161.00
88.4434 1178.00
88.5086 1128.00
88.5738 1188.00
88.639 1174.00
88.7042 1300.00
88.7694 1292.00
88.8346 1366.00
88.8998 1426.00
88.965 1357.00
89.0302 1450.00
89.0954 1388.00
89.1606 1359.00
89.2258 1424.00
89.291 1347.00
89.3562 1187.00
89.4214 1297.00
89.4866 1211.00
89.5518 1174.00
89.617 1182.00
89.6822 1190.00
89.7474 1129.00
89.8126 1146.00
89.8778 1153.00
89.943 1141.00
90.0082 1256.00
90.0734 1222.00
90.1386 1263.00
90.2038 1345.00
90.269 1472.00
90.3342 1437.00
90.3994 1500.00
90.4646 1423.00
90.5298 1400.00
90.595 1391.00
90.6601 1404.00
90.7253 1358.00
90.7905 1318.00
90.8557 1285.00
90.9209 1285.00
90.9861 1207.00
91.0513 1162.00
91.1165 1200.00
91.1817 1128.00
91.2469 1143.00
91.3121 1173.00
91.3773 1184.00
91.4425 1160.00
91.5077 1213.00
91.5729 1202.00
91.6381 1184.00
91.7033 1181.00
91.7685 1171.00
91.8337 1206.00
91.8989 1194.00
91.9641 1127.00
92.0293 1169.00
92.0945 1159.00
92.1597 1207.00
92.2249 1116.00
92.2901 1187.00
92.3553 1175.00
92.4205 1163.00
92.4857 1169.00
92.5509 1119.00
92.6161 1106.00
92.6813 1077.00
92.7465 1012.00
92.8117 1058.00
92.8769 1066.00
92.9421 1066.00
93.0073 1075.00
93.0725 1128.00
93.1377 1148.00
93.2029 1090.00
93.2681 1103.00
93.3333 1142.00
93.3985 1160.00
93.4637 1077.00
93.5289 1110.00
93.5941 1121.00
93.6593 1045.00
93.7245 1094.00
93.7897 1083.00
93.8549 1143.00
93.9201 1106.00
93.9853 1101.00
94.0505 1084.00
94.1157 1102.00
94.1809 1090.00
94.2461 1004.00
94.3113 1042.00
94.3765 1142.00
94.4417 1150.00
94.5069 1091.00
94.5721 1113.00
94.6373 1124.00
94.7025 1144.00
94.7677 1067.00
94.8329 1113.00
94.8981 1174.00
94.9633 1111.00
95.0285 1191.00
95.0937 1224.00
95.1589 1205.00
95.2241 1186.00
95.2893 1224.00
95.3545 1231.00
95.4197 1210.00
95.4848 1296.00
95.55 1324.00
95.6153 1341.00
95.6804 1346.00
95.7456 1431.00
95.8108 1473.00
95.876 1415.00
95.9412 1439.00
96.0064 1345.00
96.0716 1392.00
96.1368 1351.00
96.202 1324.00
96.2672 1319.00
96.3324 1255.00
96.3976 1289.00
96.4628 1268.00
96.528 1259.00
96.5932 1257.00
96.6584 1232.00
96.7236 1308.00
96.7888 1278.00
96.854 1358.00
96.9192 1286.00
96.9844 1277.00
97.0496 1318.00
97.1148 1313.00
97.18 1402.00
97.2452 1307.00
97.3104 1251.00
97.3756 1172.00
97.4408 1257.00
97.506 1172.00
97.5712 1170.00
97.6364 1179.00
97.7016 1156.00
97.7668 1114.00
97.832 1162.00
97.8972 1138.00
97.9624 1080.00
98.0276 1079.00
98.0928 1135.00
98.158 1139.00
98.2232 1118.00
98.2884 1161.00
98.3536 1159.00
98.4188 1112.00
98.484 1123.00
98.5492 1139.00
98.6144 1118.00
98.6796 1187.00
98.7448 1131.00
98.81 1028.00
98.8752 1063.00
98.9404 1065.00
99.0056 1081.00
99.0708 1099.00
99.136 1042.00
99.2012 1077.00
99.2664 1148.00
99.3316 1147.00
99.3968 1097.00
99.462 1090.00
99.5272 1085.00
99.5924 1045.00
99.6576 1093.00
99.7228 1151.00
99.788 1094.00
99.8532 1019.00
99.9184 1040.00
99.9836 1071.00
99.9944 1131.00