File: data/xrd_creation/results/PG_1217-1.xy
10.0094 2403.00
10.0746 2346.00
10.1398 2418.00
10.205 2298.00
10.2702 2315.00
10.3354 2227.00
10.4006 2241.00
10.4658 2172.00
10.531 2220.00
10.5962 2148.00
10.6614 2261.00
10.7266 2115.00
10.7918 2160.00
10.857 2104.00
10.9222 2056.00
10.9874 2069.00
11.0526 2060.00
11.1178 2082.00
11.183 2100.00
11.2482 2102.00
11.3134 2058.00
11.3786 1991.00
11.4438 1984.00
11.509 2054.00
11.5742 2008.00
11.6394 1992.00
11.7046 2010.00
11.7698 1950.00
11.835 1948.00
11.9002 1985.00
11.9654 1868.00
12.0306 1854.00
12.0958 1866.00
12.161 1874.00
12.2262 1811.00
12.2914 1911.00
12.3566 1861.00
12.4218 1785.00
12.487 1870.00
12.5522 1803.00
12.6174 1809.00
12.6826 1873.00
12.7478 1742.00
12.813 1815.00
12.8782 1700.00
12.9434 1676.00
13.0086 1699.00
13.0738 1706.00
13.139 1699.00
13.2042 1734.00
13.2694 1703.00
13.3346 1647.00
13.3998 1687.00
13.465 1717.00
13.5302 1669.00
13.5954 1655.00
13.6606 1647.00
13.7258 1571.00
13.791 1607.00
13.8562 1664.00
13.9214 1628.00
13.9865 1576.00
14.0517 1537.00
14.1169 1604.00
14.1821 1607.00
14.2473 1573.00
14.3125 1604.00
14.3777 1567.00
14.4429 1524.00
14.5081 1531.00
14.5733 1548.00
14.6385 1526.00
14.7037 1558.00
14.7689 1517.00
14.8341 1475.00
14.8993 1539.00
14.9645 1450.00
15.0297 1481.00
15.0949 1459.00
15.1601 1561.00
15.2253 1508.00
15.2905 1500.00
15.3557 1464.00
15.4209 1392.00
15.4861 1505.00
15.5513 1501.00
15.6165 1454.00
15.6817 1455.00
15.7469 1424.00
15.8121 1514.00
15.8773 1426.00
15.9425 1409.00
16.0077 1461.00
16.0729 1399.00
16.1381 1462.00
16.2033 1427.00
16.2685 1422.00
16.3337 1389.00
16.3989 1351.00
16.4641 1388.00
16.5293 1460.00
16.5945 1448.00
16.6597 1432.00
16.7249 1348.00
16.7901 1408.00
16.8553 1356.00
16.9205 1375.00
16.9857 1400.00
17.0509 1358.00
17.1161 1395.00
17.1813 1343.00
17.2465 1443.00
17.3117 1365.00
17.3769 1399.00
17.4421 1391.00
17.5073 1425.00
17.5725 1414.00
17.6377 1418.00
17.7029 1516.00
17.7681 1548.00
17.8333 1582.00
17.8985 1407.00
17.9637 1332.00
18.0289 1351.00
18.0941 1344.00
18.1593 1234.00
18.2245 1330.00
18.2897 1333.00
18.3549 1283.00
18.4201 1295.00
18.4853 1236.00
18.5505 1321.00
18.6157 1297.00
18.6809 1271.00
18.7461 1294.00
18.8112 1294.00
18.8764 1286.00
18.9416 1228.00
19.0068 1241.00
19.072 1317.00
19.1372 1237.00
19.2024 1241.00
19.2676 1283.00
19.3328 1244.00
19.398 1279.00
19.4632 1241.00
19.5284 1251.00
19.5936 1247.00
19.6588 1217.00
19.724 1232.00
19.7892 1270.00
19.8544 1192.00
19.9196 1248.00
19.9848 1171.00
20.05 1148.00
20.1152 1227.00
20.1804 1177.00
20.2456 1206.00
20.3108 1256.00
20.376 1182.00
20.4412 1146.00
20.5064 1255.00
20.5716 1178.00
20.6368 1132.00
20.702 1127.00
20.7672 1188.00
20.8324 1191.00
20.8976 1160.00
20.9628 1174.00
21.028 1167.00
21.0932 1162.00
21.1584 1107.00
21.2236 1188.00
21.2888 1187.00
21.354 1183.00
21.4192 1151.00
21.4844 1149.00
21.5496 1184.00
21.6148 1153.00
21.68 1178.00
21.7452 1095.00
21.8104 1102.00
21.8756 1117.00
21.9408 1184.00
22.006 1143.00
22.0712 1206.00
22.1364 1133.00
22.2016 1104.00
22.2668 1181.00
22.332 1106.00
22.3972 1114.00
22.4624 1227.00
22.5276 1064.00
22.5928 1165.00
22.658 1137.00
22.7232 1047.00
22.7884 1135.00
22.8536 1153.00
22.9188 1158.00
22.984 1180.00
23.0492 1098.00
23.1144 1186.00
23.1796 1078.00
23.2448 1151.00
23.31 1160.00
23.3752 1162.00
23.4404 1041.00
23.5056 1079.00
23.5708 1071.00
23.6359 1154.00
23.7011 1141.00
23.7663 1087.00
23.8315 1104.00
23.8967 1113.00
23.9619 1118.00
24.0271 1176.00
24.0923 1164.00
24.1575 1274.00
24.2227 1424.00
24.2879 1623.00
24.3531 1997.00
24.4183 2158.00
24.4835 1942.00
24.5487 1526.00
24.6139 1294.00
24.6791 1383.00
24.7443 1477.00
24.8095 1708.00
24.8747 1806.00
24.9399 1471.00
25.0051 1277.00
25.0703 1080.00
25.1355 1164.00
25.2007 1017.00
25.2659 1076.00
25.3311 1049.00
25.3963 1071.00
25.4615 1025.00
25.5267 1018.00
25.5919 1048.00
25.6571 1085.00
25.7223 1080.00
25.7875 1063.00
25.8527 1043.00
25.9179 1061.00
25.9831 1086.00
26.0483 1042.00
26.1135 1043.00
26.1787 1058.00
26.2439 1061.00
26.3091 1055.00
26.3743 1020.00
26.4395 965.00
26.5047 993.00
26.5699 1039.00
26.6351 962.00
26.7003 1021.00
26.7655 1024.00
26.8307 985.00
26.8959 991.00
26.9611 1026.00
27.0263 1038.00
27.0915 1070.00
27.1567 995.00
27.2219 960.00
27.2871 990.00
27.3523 971.00
27.4175 1079.00
27.4827 1060.00
27.5479 1030.00
27.6131 1010.00
27.6783 1073.00
27.7435 1085.00
27.8087 1137.00
27.8739 1106.00
27.9391 1133.00
28.0043 1131.00
28.0695 1245.00
28.1347 1271.00
28.1999 1367.00
28.2651 1576.00
28.3303 2072.00
28.3955 2846.00
28.4606 4170.00
28.5258 5871.00
28.591 6862.00
28.6562 5621.00
28.7214 3388.00
28.7866 2149.00
28.8518 1573.00
28.917 1388.00
28.9822 1229.00
29.0474 1144.00
29.1126 1104.00
29.1778 1124.00
29.243 1040.00
29.3082 1093.00
29.3734 980.00
29.4386 1011.00
29.5038 1046.00
29.569 1007.00
29.6342 1045.00
29.6994 1012.00
29.7646 1023.00
29.8298 989.00
29.895 975.00
29.9602 1070.00
30.0254 999.00
30.0906 1070.00
30.1558 1019.00
30.221 986.00
30.2862 1056.00
30.3514 948.00
30.4166 1009.00
30.4818 1051.00
30.547 1028.00
30.6122 960.00
30.6774 985.00
30.7426 961.00
30.8078 982.00
30.873 1030.00
30.9382 1047.00
31.0034 1045.00
31.0686 1069.00
31.1338 1023.00
31.199 1035.00
31.2642 1072.00
31.3294 1086.00
31.3946 1139.00
31.4598 1201.00
31.525 1335.00
31.5902 1490.00
31.6554 1974.00
31.7206 2678.00
31.7858 3915.00
31.851 5268.00
31.9162 5623.00
31.9814 4309.00
32.0466 2627.00
32.1118 1777.00
32.177 1446.00
32.2422 1276.00
32.3074 1146.00
32.3726 1136.00
32.4378 1103.00
32.503 1130.00
32.5682 1040.00
32.6334 996.00
32.6986 1022.00
32.7638 1027.00
32.829 996.00
32.8942 1007.00
32.9594 978.00
33.0246 998.00
33.0898 1011.00
33.1549 1126.00
33.2201 1334.00
33.2853 1650.00
33.3505 2194.00
33.4157 2101.00
33.4809 1552.00
33.5461 1198.00
33.6113 1036.00
33.6765 988.00
33.7417 1003.00
33.8069 990.00
33.8721 998.00
33.9373 1012.00
34.0025 1022.00
34.0677 1039.00
34.1329 1101.00
34.1981 1074.00
34.2633 1147.00
34.3285 1248.00
34.3937 1560.00
34.4589 2012.00
34.5241 2551.00
34.5893 2703.00
34.6545 2368.00
34.7197 2060.00
34.7849 2131.00
34.8501 2433.00
34.9153 2355.00
34.9805 1805.00
35.0457 1384.00
35.1109 1165.00
35.1761 1107.00
35.2413 1114.00
35.3065 1050.00
35.3717 1110.00
35.4369 1110.00
35.5021 1256.00
35.5673 1499.00
35.6325 1945.00
35.6977 2747.00
35.7629 3311.00
35.8281 3145.00
35.8933 2429.00
35.9585 1635.00
36.0237 1250.00
36.0889 1215.00
36.1541 1205.00
36.2193 1272.00
36.2845 1454.00
36.3497 1469.00
36.4149 1269.00
36.4801 1107.00
36.5453 1026.00
36.6105 1011.00
36.6757 925.00
36.7409 935.00
36.8061 979.00
36.8713 966.00
36.9365 988.00
37.0017 917.00
37.0669 935.00
37.1321 920.00
37.1973 942.00
37.2625 880.00
37.3277 943.00
37.3929 893.00
37.4581 976.00
37.5233 956.00
37.5885 950.00
37.6537 962.00
37.7189 916.00
37.7841 939.00
37.8493 923.00
37.9145 905.00
37.9796 942.00
38.0448 934.00
38.11 923.00
38.1752 914.00
38.2404 904.00
38.3056 953.00
38.3708 921.00
38.436 920.00
38.5012 894.00
38.5664 916.00
38.6316 900.00
38.6968 1009.00
38.762 1026.00
38.8272 1013.00
38.8924 1168.00
38.9576 1357.00
39.0228 1573.00
39.088 1498.00
39.1532 1292.00
39.2184 1193.00
39.2836 1027.00
39.3488 1045.00
39.414 1047.00
39.4792 1012.00
39.5444 981.00
39.6096 962.00
39.6748 924.00
39.74 874.00
39.8052 958.00
39.8704 958.00
39.9356 945.00
40.0008 860.00
40.066 952.00
40.1312 911.00
40.1964 934.00
40.2616 1038.00
40.3268 969.00
40.392 1028.00
40.4572 1027.00
40.5224 970.00
40.5876 962.00
40.6528 957.00
40.718 1018.00
40.7832 1032.00
40.8484 1077.00
40.9136 1114.00
40.9788 1268.00
41.044 1571.00
41.1092 1816.00
41.1744 1962.00
41.2396 1855.00
41.3048 1771.00
41.37 1425.00
41.4352 1248.00
41.5004 1223.00
41.5656 1219.00
41.6308 1287.00
41.696 1260.00
41.7612 1276.00
41.8264 1207.00
41.8916 1257.00
41.9568 1109.00
42.022 1094.00
42.0872 959.00
42.1524 961.00
42.2176 979.00
42.2828 947.00
42.348 962.00
42.4132 980.00
42.4784 880.00
42.5436 931.00
42.6088 955.00
42.6739 814.00
42.7392 961.00
42.8043 898.00
42.8695 922.00
42.9347 883.00
42.9999 947.00
43.0651 988.00
43.1303 870.00
43.1955 951.00
43.2607 965.00
43.3259 941.00
43.3911 936.00
43.4563 949.00
43.5215 917.00
43.5867 885.00
43.6519 948.00
43.7171 939.00
43.7823 973.00
43.8475 860.00
43.9127 911.00
43.9779 938.00
44.0431 853.00
44.1083 924.00
44.1735 909.00
44.2387 905.00
44.3039 880.00
44.3691 951.00
44.4343 927.00
44.4995 856.00
44.5647 925.00
44.6299 990.00
44.6951 912.00
44.7603 879.00
44.8255 914.00
44.8907 904.00
44.9559 900.00
45.0211 954.00
45.0863 1052.00
45.1515 1038.00
45.2167 1215.00
45.2819 1325.00
45.3471 1262.00
45.4123 1158.00
45.4775 1075.00
45.5427 1004.00
45.6079 963.00
45.6731 971.00
45.7383 1047.00
45.8035 1118.00
45.8687 1152.00
45.9339 1354.00
45.9991 1428.00
46.0643 1302.00
46.1295 1189.00
46.1947 1149.00
46.2599 1013.00
46.3251 1052.00
46.3903 943.00
46.4555 878.00
46.5207 947.00
46.5859 948.00
46.6511 892.00
46.7163 948.00
46.7815 938.00
46.8467 947.00
46.9119 949.00
46.9771 960.00
47.0423 908.00
47.1075 917.00
47.1727 924.00
47.2379 929.00
47.3031 903.00
47.3683 943.00
47.4335 894.00
47.4986 888.00
47.5639 988.00
47.629 924.00
47.6942 920.00
47.7594 898.00
47.8246 910.00
47.8898 943.00
47.955 912.00
48.0202 951.00
48.0854 861.00
48.1506 922.00
48.2158 975.00
48.281 978.00
48.3462 953.00
48.4114 953.00
48.4766 940.00
48.5418 898.00
48.607 953.00
48.6722 955.00
48.7374 976.00
48.8026 925.00
48.8678 903.00
48.933 983.00
48.9982 987.00
49.0634 930.00
49.1286 979.00
49.1938 924.00
49.259 1065.00
49.3242 1104.00
49.3894 1199.00
49.4546 1204.00
49.5198 1377.00
49.585 1740.00
49.6502 2217.00
49.7154 2492.00
49.7806 2650.00
49.8458 2365.00
49.911 1874.00
49.9762 1517.00
50.0414 1221.00
50.1066 1165.00
50.1718 1130.00
50.237 1053.00
50.3022 1032.00
50.3674 1199.00
50.4326 1245.00
50.4978 1457.00
50.563 1977.00
50.6282 2761.00
50.6934 2803.00
50.7586 2455.00
50.8238 2081.00
50.889 1645.00
50.9542 1553.00
51.0194 1769.00
51.0846 1969.00
51.1498 1825.00
51.215 1642.00
51.2802 1413.00
51.3454 1196.00
51.4106 1099.00
51.4758 1079.00
51.541 1123.00
51.6062 1141.00
51.6714 1251.00
51.7366 1308.00
51.8018 1300.00
51.867 1259.00
51.9322 1237.00
51.9974 1084.00
52.0626 1011.00
52.1278 1021.00
52.193 983.00
52.2582 996.00
52.3233 998.00
52.3886 935.00
52.4537 965.00
52.5189 1024.00
52.5841 958.00
52.6493 1015.00
52.7145 954.00
52.7797 992.00
52.8449 998.00
52.9101 964.00
52.9753 1026.00
53.0405 933.00
53.1057 912.00
53.1709 967.00
53.2361 996.00
53.3013 1020.00
53.3665 979.00
53.4317 959.00
53.4969 964.00
53.5621 979.00
53.6273 998.00
53.6925 933.00
53.7577 1025.00
53.8229 989.00
53.8881 1045.00
53.9533 1021.00
54.0185 1097.00
54.0837 1187.00
54.1489 1350.00
54.2141 1609.00
54.2793 1729.00
54.3445 1626.00
54.4097 1551.00
54.4749 1539.00
54.5401 1621.00
54.6053 1892.00
54.6705 1921.00
54.7357 1671.00
54.8009 1577.00
54.8661 1349.00
54.9313 1173.00
54.9965 1170.00
55.0617 1033.00
55.1269 1120.00
55.1921 1135.00
55.2573 1139.00
55.3225 1097.00
55.3877 1115.00
55.4529 1084.00
55.5181 1150.00
55.5833 1161.00
55.6485 1235.00
55.7137 1384.00
55.7789 1770.00
55.8441 2110.00
55.9093 2217.00
55.9745 2139.00
56.0397 2052.00
56.1049 1940.00
56.1701 1695.00
56.2353 1568.00
56.3005 1474.00
56.3657 1550.00
56.4309 1688.00
56.4961 1722.00
56.5613 1703.00
56.6265 1523.00
56.6917 1364.00
56.7569 1219.00
56.8221 1130.00
56.8873 1077.00
56.9525 1040.00
57.0177 1064.00
57.0829 1042.00
57.148 1027.00
57.2132 1061.00
57.2784 1099.00
57.3436 1076.00
57.4088 1138.00
57.474 1160.00
57.5392 1182.00
57.6044 1392.00
57.6696 1661.00
57.7348 1881.00
57.8 1723.00
57.8652 1609.00
57.9304 1478.00
57.9956 1311.00
58.0608 1224.00
58.126 1162.00
58.1912 1117.00
58.2564 1142.00
58.3216 1175.00
58.3868 1382.00
58.452 1513.00
58.5172 1478.00
58.5824 1506.00
58.6476 1400.00
58.7128 1406.00
58.778 1392.00
58.8432 1336.00
58.9084 1328.00
58.9736 1347.00
59.0388 1223.00
59.104 1175.00
59.1692 1047.00
59.2344 1070.00
59.2996 1125.00
59.3648 1084.00
59.43 994.00
59.4952 1053.00
59.5604 1098.00
59.6256 1026.00
59.6908 1010.00
59.756 1016.00
59.8212 1017.00
59.8864 1075.00
59.9516 1052.00
60.0168 1088.00
60.082 1075.00
60.1472 1180.00
60.2124 1244.00
60.2776 1474.00
60.3428 1751.00
60.408 1849.00
60.4732 1903.00
60.5384 1941.00
60.6036 1806.00
60.6688 1625.00
60.734 1510.00
60.7992 1427.00
60.8644 1226.00
60.9296 1162.00
60.9948 1133.00
61.06 1065.00
61.1252 1055.00
61.1904 1085.00
61.2556 1054.00
61.3208 1026.00
61.386 1069.00
61.4512 1090.00
61.5164 1076.00
61.5816 1135.00
61.6468 1146.00
61.712 1248.00
61.7772 1305.00
61.8424 1456.00
61.9076 1566.00
61.9727 1601.00
62.0379 1447.00
62.1031 1440.00
62.1683 1331.00
62.2335 1297.00
62.2987 1401.00
62.3639 1496.00
62.4291 1696.00
62.4943 1931.00
62.5595 2058.00
62.6247 2009.00
62.6899 1812.00
62.7551 1627.00
62.8203 1466.00
62.8855 1295.00
62.9507 1183.00
63.0159 1183.00
63.0811 1225.00
63.1463 1156.00
63.2115 1235.00
63.2767 1425.00
63.3419 1645.00
63.4071 1799.00
63.4723 1881.00
63.5375 1699.00
63.6027 1603.00
63.6679 1476.00
63.7331 1372.00
63.7983 1223.00
63.8635 1199.00
63.9287 1149.00
63.9939 1244.00
64.0591 1393.00
64.1243 1528.00
64.1895 1519.00
64.2547 1330.00
64.3199 1274.00
64.3851 1258.00
64.4503 1126.00
64.5155 1132.00
64.5807 1211.00
64.6459 1195.00
64.7111 1220.00
64.7763 1293.00
64.8415 1326.00
64.9067 1366.00
64.9719 1296.00
65.0371 1228.00
65.1023 1188.00
65.1675 1190.00
65.2327 1095.00
65.2979 1072.00
65.3631 1053.00
65.4283 1100.00
65.4935 1111.00
65.5587 1101.00
65.6239 1136.00
65.6891 1143.00
65.7543 1189.00
65.8195 1203.00
65.8847 1206.00
65.9499 1324.00
66.0151 1439.00
66.0803 1374.00
66.1455 1440.00
66.2107 1590.00
66.2759 1776.00
66.3411 1807.00
66.4063 1725.00
66.4715 1669.00
66.5367 1530.00
66.6019 1462.00
66.6671 1301.00
66.7322 1177.00
66.7974 1131.00
66.8626 1177.00
66.9278 1018.00
66.993 1043.00
67.0582 1042.00
67.1234 1095.00
67.1886 1004.00
67.2538 1072.00
67.319 1016.00
67.3842 1072.00
67.4494 1030.00
67.5146 1077.00
67.5798 1097.00
67.645 1036.00
67.7102 1115.00
67.7754 1096.00
67.8406 1062.00
67.9058 1042.00
67.971 1034.00
68.0362 1056.00
68.1014 1116.00
68.1666 1057.00
68.2318 1021.00
68.297 1087.00
68.3622 1072.00
68.4274 1068.00
68.4926 1083.00
68.5578 1071.00
68.623 1031.00
68.6882 1091.00
68.7534 1041.00
68.8186 996.00
68.8838 1026.00
68.949 1109.00
69.0142 1083.00
69.0794 1115.00
69.1446 1158.00
69.2098 1082.00
69.275 1078.00
69.3402 1059.00
69.4054 1169.00
69.4706 1189.00
69.5358 1267.00
69.601 1309.00
69.6662 1318.00
69.7314 1356.00
69.7966 1312.00
69.8618 1199.00
69.927 1164.00
69.9922 1127.00
70.0574 1174.00
70.1226 1081.00
70.1878 1111.00
70.253 1224.00
70.3182 1172.00
70.3834 1077.00
70.4486 1112.00
70.5138 1100.00
70.579 1151.00
70.6442 1117.00
70.7094 1084.00
70.7746 1162.00
70.8398 1114.00
70.905 1046.00
70.9702 1147.00
71.0354 1123.00
71.1006 1133.00
71.1658 1091.00
71.231 1157.00
71.2962 1134.00
71.3614 1087.00
71.4266 1141.00
71.4918 1223.00
71.5569 1304.00
71.6221 1335.00
71.6873 1422.00
71.7525 1558.00
71.8177 1614.00
71.8829 1609.00
71.9481 1541.00
72.0133 1518.00
72.0785 1538.00
72.1437 1399.00
72.2089 1273.00
72.2741 1291.00
72.3393 1236.00
72.4045 1199.00
72.4697 1280.00
72.5349 1214.00
72.6001 1249.00
72.6653 1301.00
72.7305 1220.00
72.7957 1268.00
72.8609 1203.00
72.9261 1282.00
72.9913 1205.00
73.0565 1282.00
73.1217 1226.00
73.1869 1230.00
73.2521 1266.00
73.3173 1257.00
73.3825 1222.00
73.4477 1230.00
73.5129 1207.00
73.5781 1150.00
73.6433 1141.00
73.7085 1135.00
73.7737 1062.00
73.8389 1117.00
73.9041 1140.00
73.9693 1106.00
74.0345 1125.00
74.0997 1105.00
74.1649 1141.00
74.2301 1157.00
74.2953 1131.00
74.3605 1146.00
74.4257 1110.00
74.4909 1094.00
74.5561 1094.00
74.6213 1105.00
74.6865 1112.00
74.7517 1089.00
74.8169 1131.00
74.8821 1067.00
74.9473 1145.00
75.0125 1152.00
75.0777 1138.00
75.1429 1185.00
75.2081 1206.00
75.2733 1302.00
75.3385 1407.00
75.4037 1351.00
75.4689 1295.00
75.5341 1295.00
75.5993 1367.00
75.6645 1370.00
75.7297 1520.00
75.7949 1603.00
75.8601 1505.00
75.9253 1489.00
75.9905 1463.00
76.0557 1354.00
76.1209 1321.00
76.186 1251.00
76.2513 1277.00
76.3165 1127.00
76.3816 1163.00
76.4468 1107.00
76.512 1146.00
76.5772 1182.00
76.6424 1141.00
76.7076 1138.00
76.7728 1116.00
76.838 1162.00
76.9032 1159.00
76.9684 1279.00
77.0336 1281.00
77.0988 1295.00
77.164 1391.00
77.2292 1327.00
77.2944 1391.00
77.3596 1252.00
77.4248 1276.00
77.49 1204.00
77.5552 1217.00
77.6204 1205.00
77.6856 1222.00
77.7508 1236.00
77.816 1195.00
77.8812 1267.00
77.9464 1253.00
78.0116 1393.00
78.0768 1333.00
78.142 1331.00
78.2072 1365.00
78.2724 1339.00
78.3376 1293.00
78.4028 1240.00
78.468 1206.00
78.5332 1223.00
78.5984 1325.00
78.6636 1297.00
78.7288 1266.00
78.794 1218.00
78.8592 1214.00
78.9244 1267.00
78.9896 1233.00
79.0548 1248.00
79.12 1152.00
79.1852 1176.00
79.2504 1154.00
79.3156 1185.00
79.3808 1219.00
79.446 1236.00
79.5112 1322.00
79.5764 1373.00
79.6416 1386.00
79.7068 1359.00
79.772 1365.00
79.8372 1244.00
79.9024 1325.00
79.9676 1200.00
80.0328 1190.00
80.098 1198.00
80.1632 1186.00
80.2284 1153.00
80.2936 1116.00
80.3588 1145.00
80.424 1122.00
80.4892 1154.00
80.5544 1199.00
80.6196 1143.00
80.6848 1209.00
80.75 1210.00
80.8152 1289.00
80.8804 1247.00
80.9456 1258.00
81.0108 1263.00
81.076 1263.00
81.1412 1219.00
81.2063 1214.00
81.2715 1199.00
81.3367 1253.00
81.4019 1131.00
81.4671 1241.00
81.5323 1192.00
81.5975 1157.00
81.6627 1243.00
81.7279 1162.00
81.7931 1241.00
81.8583 1184.00
81.9235 1227.00
81.9887 1224.00
82.0539 1285.00
82.1191 1320.00
82.1843 1401.00
82.2495 1447.00
82.3147 1425.00
82.3799 1343.00
82.4451 1319.00
82.5103 1256.00
82.5755 1252.00
82.6407 1211.00
82.7059 1166.00
82.7711 1243.00
82.8363 1240.00
82.9015 1227.00
82.9667 1304.00
83.0319 1371.00
83.0971 1333.00
83.1623 1327.00
83.2275 1372.00
83.2927 1444.00
83.3579 1394.00
83.4231 1387.00
83.4883 1430.00
83.5535 1371.00
83.6187 1302.00
83.6839 1440.00
83.7491 1463.00
83.8143 1523.00
83.8795 1429.00
83.9447 1354.00
84.0099 1449.00
84.0751 1414.00
84.1403 1425.00
84.2055 1376.00
84.2707 1312.00
84.3359 1377.00
84.4011 1373.00
84.4663 1407.00
84.5315 1363.00
84.5967 1501.00
84.6619 1437.00
84.7271 1444.00
84.7923 1510.00
84.8575 1455.00
84.9227 1603.00
84.9879 1556.00
85.0531 1464.00
85.1183 1453.00
85.1835 1442.00
85.2487 1467.00
85.3139 1325.00
85.3791 1320.00
85.4443 1356.00
85.5095 1330.00
85.5747 1370.00
85.6399 1431.00
85.7051 1332.00
85.7703 1331.00
85.8354 1382.00
85.9006 1334.00
85.9659 1322.00
86.031 1262.00
86.0962 1218.00
86.1614 1161.00
86.2266 1177.00
86.2918 1212.00
86.357 1230.00
86.4222 1234.00
86.4874 1211.00
86.5526 1259.00
86.6178 1231.00
86.683 1263.00
86.7482 1277.00
86.8134 1299.00
86.8786 1361.00
86.9438 1315.00
87.009 1361.00
87.0742 1364.00
87.1394 1243.00
87.2046 1198.00
87.2698 1210.00
87.335 1239.00
87.4002 1157.00
87.4654 1263.00
87.5306 1223.00
87.5958 1286.00
87.661 1226.00
87.7262 1246.00
87.7914 1249.00
87.8566 1242.00
87.9218 1347.00
87.987 1278.00
88.0522 1337.00
88.1174 1307.00
88.1826 1408.00
88.2478 1445.00
88.313 1422.00
88.3782 1448.00
88.4434 1454.00
88.5086 1435.00
88.5738 1518.00
88.639 1532.00
88.7042 1387.00
88.7694 1425.00
88.8346 1570.00
88.8998 1527.00
88.965 1580.00
89.0302 1544.00
89.0954 1525.00
89.1606 1531.00
89.2258 1495.00
89.291 1502.00
89.3562 1527.00
89.4214 1471.00
89.4866 1473.00
89.5518 1326.00
89.617 1376.00
89.6822 1428.00
89.7474 1368.00
89.8126 1348.00
89.8778 1375.00
89.943 1359.00
90.0082 1366.00
90.0734 1357.00
90.1386 1392.00
90.2038 1329.00
90.269 1338.00
90.3342 1420.00
90.3994 1469.00
90.4646 1437.00
90.5298 1504.00
90.595 1517.00
90.6601 1456.00
90.7253 1594.00
90.7905 1456.00
90.8557 1504.00
90.9209 1427.00
90.9861 1347.00
91.0513 1387.00
91.1165 1354.00
91.1817 1257.00
91.2469 1310.00
91.3121 1281.00
91.3773 1299.00
91.4425 1385.00
91.5077 1308.00
91.5729 1352.00
91.6381 1327.00
91.7033 1282.00
91.7685 1327.00
91.8337 1348.00
91.8989 1289.00
91.9641 1355.00
92.0293 1312.00
92.0945 1272.00
92.1597 1307.00
92.2249 1286.00
92.2901 1312.00
92.3553 1312.00
92.4205 1263.00
92.4857 1302.00
92.5509 1306.00
92.6161 1305.00
92.6813 1227.00
92.7465 1249.00
92.8117 1309.00
92.8769 1236.00
92.9421 1267.00
93.0073 1241.00
93.0725 1210.00
93.1377 1232.00
93.2029 1238.00
93.2681 1230.00
93.3333 1226.00
93.3985 1261.00
93.4637 1305.00
93.5289 1329.00
93.5941 1315.00
93.6593 1254.00
93.7245 1331.00
93.7897 1394.00
93.8549 1334.00
93.9201 1370.00
93.9853 1328.00
94.0505 1291.00
94.1157 1306.00
94.1809 1392.00
94.2461 1265.00
94.3113 1265.00
94.3765 1361.00
94.4417 1374.00
94.5069 1353.00
94.5721 1339.00
94.6373 1428.00
94.7025 1496.00
94.7677 1364.00
94.8329 1349.00
94.8981 1361.00
94.9633 1375.00
95.0285 1341.00
95.0937 1345.00
95.1589 1366.00
95.2241 1298.00
95.2893 1287.00
95.3545 1286.00
95.4197 1324.00
95.4848 1334.00
95.55 1374.00
95.6153 1426.00
95.6804 1464.00
95.7456 1506.00
95.8108 1428.00
95.876 1507.00
95.9412 1510.00
96.0064 1516.00
96.0716 1480.00
96.1368 1474.00
96.202 1479.00
96.2672 1439.00
96.3324 1428.00
96.3976 1406.00
96.4628 1366.00
96.528 1358.00
96.5932 1356.00
96.6584 1364.00
96.7236 1344.00
96.7888 1416.00
96.854 1498.00
96.9192 1506.00
96.9844 1518.00
97.0496 1552.00
97.1148 1517.00
97.18 1502.00
97.2452 1545.00
97.3104 1608.00
97.3756 1635.00
97.4408 1684.00
97.506 1714.00
97.5712 1632.00
97.6364 1707.00
97.7016 1686.00
97.7668 1671.00
97.832 1598.00
97.8972 1643.00
97.9624 1585.00
98.0276 1475.00
98.0928 1567.00
98.158 1482.00
98.2232 1403.00
98.2884 1432.00
98.3536 1419.00
98.4188 1347.00
98.484 1397.00
98.5492 1395.00
98.6144 1396.00
98.6796 1350.00
98.7448 1373.00
98.81 1481.00
98.8752 1471.00
98.9404 1468.00
99.0056 1432.00
99.0708 1509.00
99.136 1453.00
99.2012 1508.00
99.2664 1463.00
99.3316 1425.00
99.3968 1427.00
99.462 1491.00
99.5272 1545.00
99.5924 1588.00
99.6576 1485.00
99.7228 1607.00
99.788 1482.00
99.8532 1521.00
99.9184 1492.00
99.9836 1551.00
99.9944 1517.00