File: data/xrd_creation/results/PG_1744-1.xy
9.903433 2361.00
9.968632 2326.00
10.0338 2322.00
10.099 2265.00
10.1642 2254.00
10.2294 2326.00
10.2946 2080.00
10.3598 2215.00
10.425 2234.00
10.4902 2179.00
10.5554 2154.00
10.6206 2156.00
10.6858 2159.00
10.751 2164.00
10.8162 2120.00
10.8814 1977.00
10.9466 2078.00
11.0118 2064.00
11.077 2007.00
11.1422 2033.00
11.2074 2016.00
11.2726 1920.00
11.3378 1933.00
11.403 1967.00
11.4682 1968.00
11.5334 1865.00
11.5986 1766.00
11.6638 1947.00
11.729 1841.00
11.7942 1914.00
11.8594 1880.00
11.9246 1853.00
11.9898 1808.00
12.055 1723.00
12.1202 1852.00
12.1854 1772.00
12.2506 1769.00
12.3158 1744.00
12.381 1808.00
12.4462 1744.00
12.5114 1679.00
12.5766 1638.00
12.6418 1623.00
12.707 1709.00
12.7722 1610.00
12.8374 1649.00
12.9026 1623.00
12.9678 1637.00
13.033 1605.00
13.0982 1545.00
13.1634 1699.00
13.2286 1582.00
13.2938 1575.00
13.359 1679.00
13.4242 1569.00
13.4894 1611.00
13.5546 1538.00
13.6198 1636.00
13.685 1534.00
13.7502 1489.00
13.8154 1527.00
13.8805 1561.00
13.9457 1490.00
14.0109 1625.00
14.0761 1477.00
14.1413 1548.00
14.2065 1465.00
14.2717 1471.00
14.3369 1438.00
14.4021 1465.00
14.4673 1463.00
14.5325 1463.00
14.5977 1507.00
14.6629 1439.00
14.7281 1438.00
14.7933 1382.00
14.8585 1397.00
14.9237 1403.00
14.9889 1405.00
15.0541 1367.00
15.1193 1374.00
15.1845 1391.00
15.2497 1382.00
15.3149 1322.00
15.3801 1393.00
15.4453 1333.00
15.5105 1363.00
15.5757 1342.00
15.6409 1326.00
15.7061 1340.00
15.7713 1302.00
15.8365 1327.00
15.9017 1364.00
15.9669 1333.00
16.0321 1319.00
16.0973 1336.00
16.1625 1355.00
16.2277 1276.00
16.2929 1314.00
16.3581 1346.00
16.4233 1389.00
16.4885 1288.00
16.5537 1282.00
16.6189 1358.00
16.6841 1336.00
16.7493 1286.00
16.8145 1283.00
16.8797 1294.00
16.9449 1230.00
17.0101 1286.00
17.0753 1277.00
17.1405 1274.00
17.2057 1199.00
17.2709 1157.00
17.3361 1279.00
17.4013 1185.00
17.4665 1249.00
17.5317 1216.00
17.5969 1229.00
17.6621 1274.00
17.7273 1304.00
17.7925 1336.00
17.8577 1349.00
17.9229 1317.00
17.9881 1179.00
18.0533 1213.00
18.1185 1214.00
18.1837 1190.00
18.2489 1173.00
18.3141 1148.00
18.3793 1058.00
18.4445 1145.00
18.5097 1150.00
18.5749 1111.00
18.6401 1120.00
18.7052 1135.00
18.7704 1204.00
18.8356 1119.00
18.9008 1095.00
18.966 1099.00
19.0312 1133.00
19.0964 1128.00
19.1616 1117.00
19.2268 1074.00
19.292 1138.00
19.3572 1030.00
19.4224 997.00
19.4876 1099.00
19.5528 1012.00
19.618 1029.00
19.6832 1052.00
19.7484 1001.00
19.8136 1048.00
19.8788 1018.00
19.944 1027.00
20.0092 1015.00
20.0744 1027.00
20.1396 1054.00
20.2048 1009.00
20.27 1014.00
20.3352 958.00
20.4004 975.00
20.4656 1029.00
20.5308 1031.00
20.596 1028.00
20.6612 998.00
20.7264 999.00
20.7916 967.00
20.8568 1032.00
20.922 991.00
20.9872 968.00
21.0524 1014.00
21.1176 968.00
21.1828 976.00
21.248 976.00
21.3132 984.00
21.3784 938.00
21.4436 980.00
21.5088 978.00
21.574 929.00
21.6392 958.00
21.7044 939.00
21.7696 897.00
21.8348 980.00
21.9 952.00
21.9652 909.00
22.0304 930.00
22.0956 905.00
22.1608 911.00
22.226 893.00
22.2912 965.00
22.3564 913.00
22.4216 934.00
22.4868 946.00
22.552 913.00
22.6172 920.00
22.6824 910.00
22.7476 946.00
22.8128 907.00
22.878 879.00
22.9432 899.00
23.0084 908.00
23.0736 844.00
23.1388 860.00
23.204 847.00
23.2692 883.00
23.3344 895.00
23.3996 897.00
23.4647 850.00
23.5299 896.00
23.5951 866.00
23.6603 829.00
23.7255 912.00
23.7907 836.00
23.8559 822.00
23.9211 874.00
23.9863 858.00
24.0515 921.00
24.1167 884.00
24.1819 900.00
24.2471 1008.00
24.3123 1150.00
24.3775 1308.00
24.4427 1354.00
24.5079 1522.00
24.5731 1273.00
24.6383 1109.00
24.7035 1088.00
24.7687 1190.00
24.8339 1302.00
24.8991 1371.00
24.9643 1245.00
25.0295 958.00
25.0947 847.00
25.1599 863.00
25.2251 808.00
25.2903 832.00
25.3555 786.00
25.4207 835.00
25.4859 823.00
25.5511 833.00
25.6163 796.00
25.6815 766.00
25.7467 805.00
25.8119 828.00
25.8771 825.00
25.9423 800.00
26.0075 833.00
26.0727 828.00
26.1379 771.00
26.2031 895.00
26.2683 850.00
26.3335 911.00
26.3987 915.00
26.4639 1014.00
26.5291 1137.00
26.5943 1326.00
26.6595 1899.00
26.7247 2651.00
26.7899 3867.00
26.8551 4839.00
26.9203 4260.00
26.9855 2682.00
27.0507 1624.00
27.1159 1139.00
27.1811 1020.00
27.2463 937.00
27.3115 879.00
27.3767 808.00
27.4419 824.00
27.5071 784.00
27.5723 833.00
27.6375 793.00
27.7027 798.00
27.7679 926.00
27.8331 789.00
27.8983 817.00
27.9635 856.00
28.0287 895.00
28.0939 871.00
28.1591 939.00
28.2243 1052.00
28.2894 1188.00
28.3546 1519.00
28.4198 1922.00
28.485 2883.00
28.5502 4229.00
28.6154 5095.00
28.6806 4652.00
28.7458 3045.00
28.811 1876.00
28.8762 1413.00
28.9414 1112.00
29.0066 959.00
29.0718 906.00
29.137 825.00
29.2022 783.00
29.2674 791.00
29.3326 759.00
29.3978 748.00
29.463 747.00
29.5282 759.00
29.5934 697.00
29.6586 733.00
29.7238 707.00
29.789 686.00
29.8542 635.00
29.9194 712.00
29.9846 680.00
30.0498 701.00
30.115 694.00
30.1802 711.00
30.2454 676.00
30.3106 690.00
30.3758 688.00
30.441 662.00
30.5062 687.00
30.5714 701.00
30.6366 708.00
30.7018 745.00
30.767 740.00
30.8322 755.00
30.8974 684.00
30.9626 706.00
31.0278 765.00
31.093 735.00
31.1582 738.00
31.2234 747.00
31.2886 782.00
31.3538 768.00
31.419 821.00
31.4842 904.00
31.5494 990.00
31.6146 1097.00
31.6798 1429.00
31.745 1905.00
31.8102 2667.00
31.8754 3752.00
31.9406 4296.00
32.0058 3534.00
32.071 2404.00
32.1362 1457.00
32.2014 1044.00
32.2666 984.00
32.3318 772.00
32.397 808.00
32.4622 750.00
32.5274 680.00
32.5926 636.00
32.6578 619.00
32.723 647.00
32.7882 667.00
32.8534 603.00
32.9186 671.00
32.9838 659.00
33.0489 642.00
33.1141 695.00
33.1793 694.00
33.2445 647.00
33.3097 660.00
33.3749 699.00
33.4401 689.00
33.5053 693.00
33.5705 713.00
33.6357 711.00
33.7009 791.00
33.7661 823.00
33.8313 934.00
33.8965 1202.00
33.9617 1668.00
34.0269 2581.00
34.0921 3938.00
34.1573 4501.00
34.2225 3620.00
34.2877 2465.00
34.3529 1564.00
34.4181 1402.00
34.4833 1608.00
34.5485 1931.00
34.6137 2113.00
34.6789 1844.00
34.7441 1655.00
34.8093 1633.00
34.8745 1816.00
34.9397 1665.00
35.0049 1346.00
35.0701 1040.00
35.1353 812.00
35.2005 749.00
35.2657 717.00
35.3309 641.00
35.3961 743.00
35.4613 713.00
35.5265 737.00
35.5917 852.00
35.6569 1175.00
35.7221 1620.00
35.7873 1974.00
35.8525 1646.00
35.9177 1235.00
35.9829 877.00
36.0481 714.00
36.1133 708.00
36.1785 734.00
36.2437 774.00
36.3089 892.00
36.3741 915.00
36.4393 816.00
36.5045 758.00
36.5697 718.00
36.6349 598.00
36.7001 577.00
36.7653 566.00
36.8305 547.00
36.8957 525.00
36.9609 508.00
37.0261 595.00
37.0913 551.00
37.1565 592.00
37.2217 607.00
37.2869 559.00
37.3521 560.00
37.4173 547.00
37.4825 567.00
37.5477 567.00
37.6129 539.00
37.6781 579.00
37.7433 583.00
37.8085 584.00
37.8736 626.00
37.9388 647.00
38.004 700.00
38.0692 922.00
38.1344 1327.00
38.1996 1674.00
38.2648 1562.00
38.33 1253.00
38.3952 910.00
38.4604 699.00
38.5256 636.00
38.5908 587.00
38.656 602.00
38.7212 595.00
38.7864 554.00
38.8516 619.00
38.9168 696.00
38.982 891.00
39.0472 1062.00
39.1124 1118.00
39.1776 1026.00
39.2428 919.00
39.308 795.00
39.3732 656.00
39.4384 628.00
39.5036 572.00
39.5688 517.00
39.634 477.00
39.6992 563.00
39.7644 542.00
39.8296 507.00
39.8948 528.00
39.96 528.00
40.0252 535.00
40.0904 509.00
40.1556 477.00
40.2208 516.00
40.286 545.00
40.3512 514.00
40.4164 548.00
40.4816 550.00
40.5468 549.00
40.612 517.00
40.6772 505.00
40.7424 535.00
40.8076 577.00
40.8728 546.00
40.938 614.00
41.0032 656.00
41.0684 767.00
41.1336 973.00
41.1988 1146.00
41.264 1185.00
41.3292 1110.00
41.3944 915.00
41.4596 808.00
41.5248 798.00
41.59 745.00
41.6552 722.00
41.7204 723.00
41.7856 763.00
41.8508 685.00
41.916 732.00
41.9812 701.00
42.0464 613.00
42.1116 591.00
42.1768 539.00
42.242 493.00
42.3072 501.00
42.3724 493.00
42.4376 481.00
42.5028 494.00
42.568 486.00
42.6332 459.00
42.6983 467.00
42.7635 510.00
42.8287 516.00
42.8939 561.00
42.9591 564.00
43.0243 499.00
43.0895 481.00
43.1547 477.00
43.2199 472.00
43.2851 474.00
43.3503 496.00
43.4155 478.00
43.4807 441.00
43.5459 472.00
43.6111 444.00
43.6763 435.00
43.7415 429.00
43.8067 436.00
43.8719 434.00
43.9371 425.00
44.0023 411.00
44.0675 465.00
44.1327 465.00
44.1979 457.00
44.2631 441.00
44.3283 433.00
44.3935 456.00
44.4587 465.00
44.5239 447.00
44.5891 443.00
44.6543 464.00
44.7195 482.00
44.7847 525.00
44.8499 451.00
44.9151 491.00
44.9803 472.00
45.0455 435.00
45.1107 504.00
45.1759 611.00
45.2411 629.00
45.3063 682.00
45.3715 693.00
45.4367 711.00
45.5019 585.00
45.5671 558.00
45.6323 508.00
45.6975 514.00
45.7627 520.00
45.8279 539.00
45.8931 653.00
45.9583 742.00
46.0235 805.00
46.0887 845.00
46.1539 707.00
46.2191 634.00
46.2843 618.00
46.3495 481.00
46.4147 527.00
46.4799 457.00
46.5451 430.00
46.6103 476.00
46.6755 463.00
46.7407 425.00
46.8059 462.00
46.8711 417.00
46.9363 471.00
47.0015 441.00
47.0667 421.00
47.1319 453.00
47.1971 410.00
47.2623 444.00
47.3275 434.00
47.3927 428.00
47.4579 445.00
47.523 418.00
47.5882 459.00
47.6534 414.00
47.7186 393.00
47.7838 452.00
47.849 525.00
47.9142 430.00
47.9794 434.00
48.0446 466.00
48.1098 437.00
48.175 413.00
48.2402 428.00
48.3054 403.00
48.3706 463.00
48.4358 434.00
48.501 449.00
48.5662 434.00
48.6314 451.00
48.6966 462.00
48.7618 439.00
48.827 432.00
48.8922 454.00
48.9574 430.00
49.0226 470.00
49.0878 487.00
49.153 432.00
49.2182 452.00
49.2834 519.00
49.3486 498.00
49.4138 574.00
49.479 620.00
49.5442 665.00
49.6094 712.00
49.6746 971.00
49.7398 1321.00
49.805 1603.00
49.8702 1496.00
49.9354 1300.00
50.0006 926.00
50.0658 688.00
50.131 644.00
50.1962 571.00
50.2614 564.00
50.3266 555.00
50.3918 570.00
50.457 651.00
50.5222 869.00
50.5874 1267.00
50.6526 1820.00
50.7178 1982.00
50.783 1846.00
50.8482 1426.00
50.9134 1144.00
50.9786 964.00
51.0438 1196.00
51.109 1277.00
51.1742 1251.00
51.2394 1100.00
51.3046 840.00
51.3698 699.00
51.435 676.00
51.5002 644.00
51.5654 706.00
51.6306 778.00
51.6958 1010.00
51.761 1260.00
51.8262 1555.00
51.8914 2351.00
51.9566 3513.00
52.0218 4449.00
52.087 3675.00
52.1522 2983.00
52.2174 1970.00
52.2826 1157.00
52.3477 820.00
52.4129 648.00
52.4781 604.00
52.5433 553.00
52.6085 472.00
52.6737 521.00
52.7389 528.00
52.8041 525.00
52.8693 470.00
52.9345 474.00
52.9997 475.00
53.0649 446.00
53.1301 479.00
53.1953 468.00
53.2605 451.00
53.3257 446.00
53.3909 449.00
53.4561 502.00
53.5213 435.00
53.5865 459.00
53.6517 420.00
53.7169 435.00
53.7821 490.00
53.8473 498.00
53.9125 486.00
53.9777 457.00
54.0429 494.00
54.1081 457.00
54.1733 471.00
54.2385 534.00
54.3037 568.00
54.3689 640.00
54.4341 689.00
54.4993 820.00
54.5645 915.00
54.6297 1206.00
54.6949 1285.00
54.7601 1221.00
54.8253 1226.00
54.8905 1259.00
54.9557 1423.00
55.0209 1506.00
55.0861 1183.00
55.1513 1009.00
55.2165 841.00
55.2817 716.00
55.3469 634.00
55.4121 555.00
55.4773 599.00
55.5425 572.00
55.6077 617.00
55.6729 664.00
55.7381 789.00
55.8033 1043.00
55.8685 1342.00
55.9337 1416.00
55.9989 1452.00
56.0641 1405.00
56.1293 1318.00
56.1945 1084.00
56.2597 980.00
56.3249 877.00
56.3901 820.00
56.4553 955.00
56.5205 1090.00
56.5857 1006.00
56.6509 956.00
56.7161 839.00
56.7813 635.00
56.8465 598.00
56.9117 513.00
56.9769 495.00
57.042 522.00
57.1073 452.00
57.1724 476.00
57.2376 522.00
57.3028 499.00
57.368 530.00
57.4332 539.00
57.4984 584.00
57.5636 622.00
57.6288 739.00
57.694 901.00
57.7592 1018.00
57.8244 1047.00
57.8896 1054.00
57.9548 1069.00
58.02 1091.00
58.0852 966.00
58.1504 907.00
58.2156 860.00
58.2808 752.00
58.346 668.00
58.4112 807.00
58.4764 903.00
58.5416 888.00
58.6068 829.00
58.672 806.00
58.7372 738.00
58.8024 743.00
58.8676 751.00
58.9328 745.00
58.998 653.00
59.0632 595.00
59.1284 554.00
59.1936 491.00
59.2588 503.00
59.324 451.00
59.3892 506.00
59.4544 455.00
59.5196 466.00
59.5848 446.00
59.65 473.00
59.7152 462.00
59.7804 467.00
59.8456 474.00
59.9108 493.00
59.976 463.00
60.0412 495.00
60.1064 553.00
60.1716 571.00
60.2368 641.00
60.302 772.00
60.3672 992.00
60.4324 1132.00
60.4976 1136.00
60.5628 1143.00
60.628 1118.00
60.6932 997.00
60.7584 904.00
60.8236 773.00
60.8888 657.00
60.954 616.00
61.0192 523.00
61.0844 505.00
61.1496 498.00
61.2148 478.00
61.28 514.00
61.3452 469.00
61.4104 503.00
61.4756 475.00
61.5408 518.00
61.606 517.00
61.6712 513.00
61.7364 603.00
61.8016 685.00
61.8667 832.00
61.932 1108.00
61.9971 1291.00
62.0623 1548.00
62.1275 1566.00
62.1927 1440.00
62.2579 1252.00
62.3231 1050.00
62.3883 952.00
62.4535 985.00
62.5187 1004.00
62.5839 988.00
62.6491 963.00
62.7143 835.00
62.7795 780.00
62.8447 643.00
62.9099 577.00
62.9751 466.00
63.0403 573.00
63.1055 568.00
63.1707 608.00
63.2359 628.00
63.3011 683.00
63.3663 822.00
63.4315 990.00
63.4967 1153.00
63.5619 978.00
63.6271 960.00
63.6923 867.00
63.7575 688.00
63.8227 608.00
63.8879 523.00
63.9531 490.00
64.0183 502.00
64.0835 478.00
64.1487 495.00
64.2139 493.00
64.2791 489.00
64.3443 494.00
64.4095 500.00
64.4747 580.00
64.5399 576.00
64.6051 583.00
64.6703 640.00
64.7355 795.00
64.8007 930.00
64.8659 1196.00
64.9311 1572.00
64.9963 1460.00
65.0615 1134.00
65.1267 1107.00
65.1919 885.00
65.2571 681.00
65.3223 610.00
65.3875 526.00
65.4527 534.00
65.5179 539.00
65.5831 546.00
65.6483 553.00
65.7135 612.00
65.7787 608.00
65.8439 645.00
65.9091 749.00
65.9743 885.00
66.0395 1127.00
66.1047 1491.00
66.1699 1758.00
66.2351 1858.00
66.3003 1710.00
66.3655 1729.00
66.4307 1491.00
66.4959 1201.00
66.561 989.00
66.6263 870.00
66.6915 691.00
66.7566 622.00
66.8218 550.00
66.887 515.00
66.9522 491.00
67.0174 463.00
67.0826 439.00
67.1478 435.00
67.213 477.00
67.2782 457.00
67.3434 443.00
67.4086 410.00
67.4738 444.00
67.539 378.00
67.6042 493.00
67.6694 435.00
67.7346 442.00
67.7998 421.00
67.865 415.00
67.9302 421.00
67.9954 445.00
68.0606 435.00
68.1258 443.00
68.191 420.00
68.2562 452.00
68.3214 407.00
68.3866 432.00
68.4518 440.00
68.517 437.00
68.5822 409.00
68.6474 424.00
68.7126 424.00
68.7778 441.00
68.843 412.00
68.9082 443.00
68.9734 433.00
69.0386 414.00
69.1038 418.00
69.169 461.00
69.2342 443.00
69.2994 429.00
69.3646 428.00
69.4298 467.00
69.495 551.00
69.5602 577.00
69.6254 611.00
69.6906 551.00
69.7558 596.00
69.821 608.00
69.8862 537.00
69.9514 466.00
70.0166 517.00
70.0818 408.00
70.147 464.00
70.2122 501.00
70.2774 517.00
70.3426 481.00
70.4078 460.00
70.473 440.00
70.5382 445.00
70.6034 481.00
70.6686 431.00
70.7338 463.00
70.799 485.00
70.8642 453.00
70.9294 546.00
70.9946 483.00
71.0598 463.00
71.125 485.00
71.1902 522.00
71.2554 540.00
71.3205 594.00
71.3858 728.00
71.451 930.00
71.5162 926.00
71.5813 853.00
71.6465 941.00
71.7117 1009.00
71.7769 987.00
71.8421 900.00
71.9073 957.00
71.9725 817.00
72.0377 779.00
72.1029 703.00
72.1681 613.00
72.2333 568.00
72.2985 514.00
72.3637 482.00
72.4289 522.00
72.4941 526.00
72.5593 509.00
72.6245 529.00
72.6897 548.00
72.7549 596.00
72.8201 578.00
72.8853 549.00
72.9505 565.00
73.0157 550.00
73.0809 533.00
73.1461 548.00
73.2113 604.00
73.2765 626.00
73.3417 591.00
73.4069 537.00
73.4721 513.00
73.5373 517.00
73.6025 489.00
73.6677 444.00
73.7329 466.00
73.7981 422.00
73.8633 470.00
73.9285 430.00
73.9937 421.00
74.0589 476.00
74.1241 471.00
74.1893 439.00
74.2545 501.00
74.3197 458.00
74.3849 467.00
74.4501 475.00
74.5153 445.00
74.5805 439.00
74.6457 434.00
74.7109 420.00
74.7761 450.00
74.8413 388.00
74.9065 400.00
74.9717 438.00
75.0369 454.00
75.1021 447.00
75.1673 476.00
75.2325 504.00
75.2977 570.00
75.3629 561.00
75.4281 692.00
75.4933 563.00
75.5585 594.00
75.6237 600.00
75.6889 610.00
75.7541 706.00
75.8193 777.00
75.8845 698.00
75.9497 713.00
76.0149 680.00
76.0801 631.00
76.1452 591.00
76.2104 555.00
76.2756 549.00
76.3409 448.00
76.406 491.00
76.4712 443.00
76.5364 442.00
76.6016 427.00
76.6668 445.00
76.732 465.00
76.7972 470.00
76.8624 480.00
76.9276 497.00
76.9928 495.00
77.058 568.00
77.1232 584.00
77.1884 615.00
77.2536 585.00
77.3188 616.00
77.384 534.00
77.4492 534.00
77.5144 507.00
77.5796 497.00
77.6448 483.00
77.71 514.00
77.7752 474.00
77.8404 517.00
77.9056 536.00
77.9708 534.00
78.036 543.00
78.1012 589.00
78.1664 570.00
78.2316 596.00
78.2968 605.00
78.362 571.00
78.4272 556.00
78.4924 573.00
78.5576 553.00
78.6228 596.00
78.688 689.00
78.7532 785.00
78.8184 1006.00
78.8836 1213.00
78.9488 1148.00
79.014 995.00
79.0792 902.00
79.1444 924.00
79.2096 811.00
79.2748 637.00
79.34 576.00
79.4052 524.00
79.4704 535.00
79.5356 589.00
79.6008 639.00
79.666 672.00
79.7312 612.00
79.7964 576.00
79.8616 610.00
79.9268 571.00
79.992 558.00
80.0572 479.00
80.1224 475.00
80.1876 424.00
80.2528 436.00
80.318 430.00
80.3832 447.00
80.4484 474.00
80.5136 433.00
80.5788 424.00
80.644 437.00
80.7092 440.00
80.7744 402.00
80.8396 430.00
80.9048 428.00
80.9699 503.00
81.0351 504.00
81.1003 519.00
81.1655 595.00
81.2307 599.00
81.2959 709.00
81.3611 670.00
81.4263 623.00
81.4915 601.00
81.5567 580.00
81.6219 634.00
81.6871 535.00
81.7523 454.00
81.8175 504.00
81.8827 543.00
81.9479 518.00
82.0131 509.00
82.0783 531.00
82.1435 521.00
82.2087 612.00
82.2739 625.00
82.3391 660.00
82.4043 578.00
82.4695 550.00
82.5347 564.00
82.5999 591.00
82.6651 491.00
82.7303 491.00
82.7955 455.00
82.8607 507.00
82.9259 523.00
82.9911 544.00
83.0563 528.00
83.1215 529.00
83.1867 609.00
83.2519 611.00
83.3171 643.00
83.3823 655.00
83.4475 633.00
83.5127 657.00
83.5779 618.00
83.6431 691.00
83.7083 734.00
83.7735 893.00
83.8387 1076.00
83.9039 1245.00
83.9691 1085.00
84.0343 970.00
84.0995 987.00
84.1647 926.00
84.2299 798.00
84.2951 678.00
84.3603 651.00
84.4255 658.00
84.4907 592.00
84.5559 607.00
84.6211 656.00
84.6863 756.00
84.7515 703.00
84.8167 732.00
84.8819 700.00
84.9471 706.00
85.0123 733.00
85.0775 616.00
85.1427 585.00
85.2079 590.00
85.2731 572.00
85.3383 490.00
85.4035 473.00
85.4687 541.00
85.5339 564.00
85.5991 588.00
85.6643 566.00
85.7295 612.00
85.7946 570.00
85.8598 537.00
85.925 563.00
85.9903 538.00
86.0554 520.00
86.1206 490.00
86.1858 441.00
86.251 474.00
86.3162 477.00
86.3814 457.00
86.4466 442.00
86.5118 451.00
86.577 483.00
86.6422 470.00
86.7074 537.00
86.7726 566.00
86.8378 575.00
86.903 573.00
86.9682 560.00
87.0334 560.00
87.0986 553.00
87.1638 561.00
87.229 557.00
87.2942 610.00
87.3594 678.00
87.4246 715.00
87.4898 618.00
87.555 602.00
87.6202 629.00
87.6854 601.00
87.7506 576.00
87.8158 519.00
87.881 494.00
87.9462 568.00
88.0114 502.00
88.0766 548.00
88.1418 553.00
88.207 652.00
88.2722 659.00
88.3374 645.00
88.4026 598.00
88.4678 590.00
88.533 635.00
88.5982 602.00
88.6634 596.00
88.7286 547.00
88.7938 594.00
88.859 649.00
88.9242 650.00
88.9894 696.00
89.0546 683.00
89.1198 662.00
89.185 721.00
89.2502 760.00
89.3154 738.00
89.3806 797.00
89.4458 757.00
89.511 727.00
89.5762 713.00
89.6414 721.00
89.7066 705.00
89.7718 792.00
89.837 911.00
89.9022 1077.00
89.9674 1213.00
90.0326 1066.00
90.0978 959.00
90.163 933.00
90.2282 947.00
90.2934 831.00
90.3586 794.00
90.4238 760.00
90.489 727.00
90.5542 782.00
90.6193 794.00
90.6845 758.00
90.7497 768.00
90.8149 809.00
90.8801 860.00
90.9453 969.00
91.0105 1032.00
91.0757 1228.00
91.1409 1056.00
91.2061 874.00
91.2713 842.00
91.3365 863.00
91.4017 851.00
91.4669 751.00
91.5321 652.00
91.5973 594.00
91.6625 543.00
91.7277 546.00
91.7929 600.00
91.8581 520.00
91.9233 547.00
91.9885 537.00
92.0537 530.00
92.1189 553.00
92.1841 593.00
92.2493 534.00
92.3145 505.00
92.3797 521.00
92.4449 521.00
92.5101 475.00
92.5753 559.00
92.6405 445.00
92.7057 470.00
92.7709 490.00
92.8361 465.00
92.9013 507.00
92.9665 488.00
93.0317 517.00
93.0969 470.00
93.1621 535.00
93.2273 479.00
93.2925 542.00
93.3577 645.00
93.4229 723.00
93.4881 735.00
93.5533 644.00
93.6185 649.00
93.6837 632.00
93.7489 720.00
93.8141 618.00
93.8793 532.00
93.9445 524.00
94.0097 482.00
94.0749 517.00
94.1401 488.00
94.2053 506.00
94.2705 484.00
94.3357 519.00
94.4009 532.00
94.4661 508.00
94.5313 529.00
94.5965 618.00
94.6617 579.00
94.7269 538.00
94.7921 564.00
94.8573 585.00
94.9225 565.00
94.9877 527.00
95.0529 531.00
95.1181 524.00
95.1833 500.00
95.2485 512.00
95.3137 497.00
95.3789 516.00
95.444 520.00
95.5092 576.00
95.5744 590.00
95.6396 578.00
95.7048 618.00
95.77 673.00
95.8352 642.00
95.9004 700.00
95.9656 761.00
96.0308 761.00
96.096 847.00
96.1612 962.00
96.2264 804.00
96.2916 760.00
96.3568 737.00
96.422 678.00
96.4872 681.00
96.5524 632.00
96.6176 576.00
96.6828 602.00
96.748 567.00
96.8132 593.00
96.8784 635.00
96.9436 655.00
97.0088 705.00
97.074 728.00
97.1392 714.00
97.2044 666.00
97.2696 716.00
97.3348 751.00
97.4 761.00
97.4652 793.00
97.5304 827.00
97.5956 788.00
97.6608 776.00
97.726 801.00
97.7912 762.00
97.8564 780.00
97.9216 817.00
97.9868 716.00
98.052 628.00
98.1172 600.00
98.1824 613.00
98.2476 632.00
98.3128 590.00
98.378 554.00
98.4432 568.00
98.5084 509.00
98.5736 534.00
98.6388 495.00
98.704 552.00
98.7692 578.00
98.8344 612.00
98.8996 668.00
98.9648 699.00
99.03 603.00
99.0952 623.00
99.1604 694.00
99.2256 639.00
99.2908 629.00
99.356 611.00
99.4212 645.00
99.4864 631.00
99.5516 666.00
99.6168 613.00
99.682 715.00
99.7472 702.00
99.8124 669.00
99.8776 612.00
99.9428 627.00
100.008 681.00
100.073 720.00
100.095 727.00