File: data/xrd_creation/results/PG_1844-1.xy
9.903433 2458.00
9.968632 2442.00
10.0338 2416.00
10.099 2584.00
10.1642 2500.00
10.2294 2355.00
10.2946 2359.00
10.3598 2395.00
10.425 2343.00
10.4902 2350.00
10.5554 2239.00
10.6206 2325.00
10.6858 2330.00
10.751 2271.00
10.8162 2220.00
10.8814 2120.00
10.9466 2257.00
11.0118 2301.00
11.077 2219.00
11.1422 2202.00
11.2074 2204.00
11.2726 2242.00
11.3378 2184.00
11.403 2089.00
11.4682 2118.00
11.5334 2196.00
11.5986 2052.00
11.6638 2075.00
11.729 1994.00
11.7942 2028.00
11.8594 1981.00
11.9246 2036.00
11.9898 1935.00
12.055 1920.00
12.1202 1958.00
12.1854 1935.00
12.2506 1875.00
12.3158 1850.00
12.381 1977.00
12.4462 1934.00
12.5114 1949.00
12.5766 1842.00
12.6418 1907.00
12.707 1812.00
12.7722 1765.00
12.8374 1747.00
12.9026 1905.00
12.9678 1708.00
13.033 1828.00
13.0982 1880.00
13.1634 1745.00
13.2286 1737.00
13.2938 1661.00
13.359 1680.00
13.4242 1689.00
13.4894 1690.00
13.5546 1671.00
13.6198 1725.00
13.685 1618.00
13.7502 1714.00
13.8154 1657.00
13.8805 1598.00
13.9457 1585.00
14.0109 1614.00
14.0761 1554.00
14.1413 1618.00
14.2065 1627.00
14.2717 1595.00
14.3369 1469.00
14.4021 1581.00
14.4673 1533.00
14.5325 1657.00
14.5977 1573.00
14.6629 1611.00
14.7281 1577.00
14.7933 1557.00
14.8585 1595.00
14.9237 1560.00
14.9889 1578.00
15.0541 1522.00
15.1193 1587.00
15.1845 1531.00
15.2497 1487.00
15.3149 1479.00
15.3801 1572.00
15.4453 1473.00
15.5105 1496.00
15.5757 1544.00
15.6409 1473.00
15.7061 1611.00
15.7713 1458.00
15.8365 1499.00
15.9017 1490.00
15.9669 1479.00
16.0321 1545.00
16.0973 1473.00
16.1625 1487.00
16.2277 1484.00
16.2929 1406.00
16.3581 1428.00
16.4233 1416.00
16.4885 1453.00
16.5537 1466.00
16.6189 1442.00
16.6841 1410.00
16.7493 1442.00
16.8145 1427.00
16.8797 1437.00
16.9449 1376.00
17.0101 1349.00
17.0753 1350.00
17.1405 1346.00
17.2057 1361.00
17.2709 1357.00
17.3361 1391.00
17.4013 1380.00
17.4665 1377.00
17.5317 1405.00
17.5969 1405.00
17.6621 1340.00
17.7273 1385.00
17.7925 1322.00
17.8577 1347.00
17.9229 1341.00
17.9881 1371.00
18.0533 1291.00
18.1185 1304.00
18.1837 1370.00
18.2489 1375.00
18.3141 1316.00
18.3793 1363.00
18.4445 1251.00
18.5097 1321.00
18.5749 1330.00
18.6401 1315.00
18.7052 1298.00
18.7704 1289.00
18.8356 1252.00
18.9008 1281.00
18.966 1268.00
19.0312 1301.00
19.0964 1277.00
19.1616 1256.00
19.2268 1282.00
19.292 1262.00
19.3572 1252.00
19.4224 1303.00
19.4876 1243.00
19.5528 1198.00
19.618 1167.00
19.6832 1221.00
19.7484 1204.00
19.8136 1232.00
19.8788 1205.00
19.944 1166.00
20.0092 1134.00
20.0744 1165.00
20.1396 1146.00
20.2048 1184.00
20.27 1167.00
20.3352 1176.00
20.4004 1202.00
20.4656 1180.00
20.5308 1113.00
20.596 1081.00
20.6612 1181.00
20.7264 1171.00
20.7916 1125.00
20.8568 1133.00
20.922 1174.00
20.9872 1161.00
21.0524 1101.00
21.1176 1177.00
21.1828 1190.00
21.248 1203.00
21.3132 1115.00
21.3784 1067.00
21.4436 1180.00
21.5088 1255.00
21.574 1259.00
21.6392 1386.00
21.7044 1434.00
21.7696 1584.00
21.8348 1515.00
21.9 1240.00
21.9652 1135.00
22.0304 1057.00
22.0956 1059.00
22.1608 1096.00
22.226 1059.00
22.2912 1045.00
22.3564 1052.00
22.4216 1053.00
22.4868 1068.00
22.552 1019.00
22.6172 1070.00
22.6824 1032.00
22.7476 1008.00
22.8128 982.00
22.878 1087.00
22.9432 1056.00
23.0084 945.00
23.0736 1078.00
23.1388 1032.00
23.204 1006.00
23.2692 1087.00
23.3344 1088.00
23.3996 1012.00
23.4647 951.00
23.5299 986.00
23.5951 1016.00
23.6603 987.00
23.7255 1038.00
23.7907 1033.00
23.8559 956.00
23.9211 1002.00
23.9863 953.00
24.0515 987.00
24.1167 1027.00
24.1819 914.00
24.2471 964.00
24.3123 970.00
24.3775 970.00
24.4427 941.00
24.5079 961.00
24.5731 997.00
24.6383 932.00
24.7035 974.00
24.7687 956.00
24.8339 917.00
24.8991 947.00
24.9643 948.00
25.0295 960.00
25.0947 975.00
25.1599 913.00
25.2251 925.00
25.2903 930.00
25.3555 932.00
25.4207 892.00
25.4859 869.00
25.5511 928.00
25.6163 908.00
25.6815 998.00
25.7467 921.00
25.8119 946.00
25.8771 902.00
25.9423 906.00
26.0075 917.00
26.0727 934.00
26.1379 914.00
26.2031 881.00
26.2683 1016.00
26.3335 1005.00
26.3987 986.00
26.4639 1241.00
26.5291 1341.00
26.5943 1604.00
26.6595 2195.00
26.7247 2996.00
26.7899 4163.00
26.8551 5239.00
26.9203 5074.00
26.9855 3075.00
27.0507 1873.00
27.1159 1293.00
27.1811 1158.00
27.2463 1012.00
27.3115 986.00
27.3767 959.00
27.4419 925.00
27.5071 915.00
27.5723 838.00
27.6375 878.00
27.7027 849.00
27.7679 884.00
27.8331 879.00
27.8983 888.00
27.9635 845.00
28.0287 871.00
28.0939 810.00
28.1591 814.00
28.2243 839.00
28.2894 826.00
28.3546 777.00
28.4198 820.00
28.485 822.00
28.5502 823.00
28.6154 759.00
28.6806 733.00
28.7458 830.00
28.811 772.00
28.8762 827.00
28.9414 767.00
29.0066 806.00
29.0718 789.00
29.137 745.00
29.2022 757.00
29.2674 807.00
29.3326 739.00
29.3978 753.00
29.463 758.00
29.5282 692.00
29.5934 791.00
29.6586 777.00
29.7238 803.00
29.789 765.00
29.8542 742.00
29.9194 771.00
29.9846 804.00
30.0498 793.00
30.115 776.00
30.1802 857.00
30.2454 823.00
30.3106 842.00
30.3758 836.00
30.441 923.00
30.5062 988.00
30.5714 1220.00
30.6366 1600.00
30.7018 2402.00
30.767 4198.00
30.8322 6233.00
30.8974 6747.00
30.9626 4134.00
31.0278 1831.00
31.093 1055.00
31.1582 973.00
31.2234 848.00
31.2886 757.00
31.3538 743.00
31.419 767.00
31.4842 752.00
31.5494 732.00
31.6146 671.00
31.6798 728.00
31.745 720.00
31.8102 695.00
31.8754 655.00
31.9406 709.00
32.0058 735.00
32.071 704.00
32.1362 680.00
32.2014 703.00
32.2666 687.00
32.3318 722.00
32.397 671.00
32.4622 671.00
32.5274 697.00
32.5926 694.00
32.6578 694.00
32.723 688.00
32.7882 700.00
32.8534 733.00
32.9186 701.00
32.9838 701.00
33.0489 678.00
33.1141 661.00
33.1793 746.00
33.2445 685.00
33.3097 765.00
33.3749 770.00
33.4401 806.00
33.5053 780.00
33.5705 730.00
33.6357 795.00
33.7009 839.00
33.7661 878.00
33.8313 1021.00
33.8965 1237.00
33.9617 1873.00
34.0269 2727.00
34.0921 4068.00
34.1573 4954.00
34.2225 4049.00
34.2877 2581.00
34.3529 1485.00
34.4181 1036.00
34.4833 904.00
34.5485 842.00
34.6137 755.00
34.6789 722.00
34.7441 683.00
34.8093 667.00
34.8745 656.00
34.9397 653.00
35.0049 680.00
35.0701 601.00
35.1353 626.00
35.2005 663.00
35.2657 667.00
35.3309 728.00
35.3961 702.00
35.4613 729.00
35.5265 856.00
35.5917 1179.00
35.6569 1856.00
35.7221 2503.00
35.7873 2434.00
35.8525 1550.00
35.9177 927.00
35.9829 797.00
36.0481 658.00
36.1133 691.00
36.1785 627.00
36.2437 609.00
36.3089 620.00
36.3741 605.00
36.4393 624.00
36.5045 539.00
36.5697 576.00
36.6349 611.00
36.7001 589.00
36.7653 564.00
36.8305 606.00
36.8957 574.00
36.9609 570.00
37.0261 538.00
37.0913 577.00
37.1565 572.00
37.2217 596.00
37.2869 611.00
37.3521 593.00
37.4173 592.00
37.4825 597.00
37.5477 632.00
37.6129 584.00
37.6781 637.00
37.7433 604.00
37.8085 685.00
37.8736 842.00
37.9388 1024.00
38.004 1167.00
38.0692 1210.00
38.1344 1432.00
38.1996 1756.00
38.2648 1810.00
38.33 1316.00
38.3952 988.00
38.4604 688.00
38.5256 665.00
38.5908 666.00
38.656 585.00
38.7212 578.00
38.7864 576.00
38.8516 559.00
38.9168 565.00
38.982 566.00
39.0472 551.00
39.1124 664.00
39.1776 723.00
39.2428 777.00
39.308 723.00
39.3732 635.00
39.4384 625.00
39.5036 588.00
39.5688 499.00
39.634 555.00
39.6992 574.00
39.7644 519.00
39.8296 561.00
39.8948 546.00
39.96 523.00
40.0252 599.00
40.0904 601.00
40.1556 584.00
40.2208 523.00
40.286 550.00
40.3512 503.00
40.4164 524.00
40.4816 509.00
40.5468 519.00
40.612 554.00
40.6772 494.00
40.7424 425.00
40.8076 516.00
40.8728 490.00
40.938 520.00
41.0032 474.00
41.0684 474.00
41.1336 496.00
41.1988 547.00
41.264 454.00
41.3292 471.00
41.3944 465.00
41.4596 479.00
41.5248 478.00
41.59 483.00
41.6552 496.00
41.7204 490.00
41.7856 505.00
41.8508 517.00
41.916 553.00
41.9812 566.00
42.0464 717.00
42.1116 784.00
42.1768 725.00
42.242 671.00
42.3072 572.00
42.3724 453.00
42.4376 440.00
42.5028 514.00
42.568 491.00
42.6332 487.00
42.6983 518.00
42.7635 514.00
42.8287 556.00
42.8939 531.00
42.9591 554.00
43.0243 497.00
43.0895 457.00
43.1547 464.00
43.2199 476.00
43.2851 442.00
43.3503 457.00
43.4155 475.00
43.4807 447.00
43.5459 439.00
43.6111 463.00
43.6763 468.00
43.7415 491.00
43.8067 436.00
43.8719 496.00
43.9371 468.00
44.0023 521.00
44.0675 486.00
44.1327 516.00
44.1979 455.00
44.2631 428.00
44.3283 421.00
44.3935 452.00
44.4587 486.00
44.5239 498.00
44.5891 430.00
44.6543 461.00
44.7195 430.00
44.7847 439.00
44.8499 431.00
44.9151 417.00
44.9803 437.00
45.0455 473.00
45.1107 400.00
45.1759 455.00
45.2411 440.00
45.3063 404.00
45.3715 464.00
45.4367 474.00
45.5019 430.00
45.5671 430.00
45.6323 492.00
45.6975 524.00
45.7627 567.00
45.8279 673.00
45.8931 916.00
45.9583 1130.00
46.0235 882.00
46.0887 829.00
46.1539 584.00
46.2191 513.00
46.2843 506.00
46.3495 453.00
46.4147 460.00
46.4799 422.00
46.5451 451.00
46.6103 447.00
46.6755 416.00
46.7407 435.00
46.8059 443.00
46.8711 434.00
46.9363 418.00
47.0015 442.00
47.0667 450.00
47.1319 410.00
47.1971 433.00
47.2623 455.00
47.3275 456.00
47.3927 399.00
47.4579 419.00
47.523 428.00
47.5882 422.00
47.6534 442.00
47.7186 418.00
47.7838 400.00
47.849 433.00
47.9142 409.00
47.9794 435.00
48.0446 410.00
48.1098 411.00
48.175 403.00
48.2402 440.00
48.3054 414.00
48.3706 429.00
48.4358 439.00
48.501 407.00
48.5662 427.00
48.6314 425.00
48.6966 407.00
48.7618 420.00
48.827 464.00
48.8922 385.00
48.9574 416.00
49.0226 379.00
49.0878 385.00
49.153 446.00
49.2182 396.00
49.2834 408.00
49.3486 433.00
49.4138 463.00
49.479 524.00
49.5442 612.00
49.6094 562.00
49.6746 502.00
49.7398 474.00
49.805 456.00
49.8702 400.00
49.9354 403.00
50.0006 453.00
50.0658 404.00
50.131 437.00
50.1962 458.00
50.2614 414.00
50.3266 445.00
50.3918 435.00
50.457 446.00
50.5222 441.00
50.5874 482.00
50.6526 452.00
50.7178 472.00
50.783 497.00
50.8482 504.00
50.9134 541.00
50.9786 590.00
51.0438 744.00
51.109 1003.00
51.1742 1649.00
51.2394 2741.00
51.3046 3350.00
51.3698 2202.00
51.435 1898.00
51.5002 1189.00
51.5654 803.00
51.6306 727.00
51.6958 798.00
51.761 870.00
51.8262 1285.00
51.8914 1918.00
51.9566 3147.00
52.0218 4608.00
52.087 4119.00
52.1522 3270.00
52.2174 2386.00
52.2826 1300.00
52.3477 876.00
52.4129 651.00
52.4781 607.00
52.5433 529.00
52.6085 509.00
52.6737 513.00
52.7389 511.00
52.8041 453.00
52.8693 541.00
52.9345 599.00
52.9997 623.00
53.0649 549.00
53.1301 516.00
53.1953 459.00
53.2605 407.00
53.3257 497.00
53.3909 408.00
53.4561 416.00
53.5213 446.00
53.5865 416.00
53.6517 410.00
53.7169 402.00
53.7821 431.00
53.8473 446.00
53.9125 371.00
53.9777 394.00
54.0429 458.00
54.1081 452.00
54.1733 456.00
54.2385 399.00
54.3037 475.00
54.3689 470.00
54.4341 439.00
54.4993 490.00
54.5645 488.00
54.6297 536.00
54.6949 497.00
54.7601 544.00
54.8253 603.00
54.8905 854.00
54.9557 1125.00
55.0209 1483.00
55.0861 1149.00
55.1513 1045.00
55.2165 833.00
55.2817 589.00
55.3469 468.00
55.4121 380.00
55.4773 483.00
55.5425 430.00
55.6077 410.00
55.6729 408.00
55.7381 397.00
55.8033 407.00
55.8685 399.00
55.9337 454.00
55.9989 410.00
56.0641 470.00
56.1293 613.00
56.1945 803.00
56.2597 770.00
56.3249 656.00
56.3901 624.00
56.4553 525.00
56.5205 468.00
56.5857 416.00
56.6509 409.00
56.7161 394.00
56.7813 379.00
56.8465 406.00
56.9117 410.00
56.9769 362.00
57.042 353.00
57.1073 396.00
57.1724 422.00
57.2376 367.00
57.3028 398.00
57.368 361.00
57.4332 423.00
57.4984 405.00
57.5636 421.00
57.6288 406.00
57.694 452.00
57.7592 522.00
57.8244 533.00
57.8896 550.00
57.9548 653.00
58.02 773.00
58.0852 853.00
58.1504 766.00
58.2156 663.00
58.2808 592.00
58.346 515.00
58.4112 478.00
58.4764 427.00
58.5416 380.00
58.6068 387.00
58.672 419.00
58.7372 401.00
58.8024 388.00
58.8676 393.00
58.9328 422.00
58.998 403.00
59.0632 395.00
59.1284 412.00
59.1936 433.00
59.2588 528.00
59.324 599.00
59.3892 679.00
59.4544 586.00
59.5196 621.00
59.5848 504.00
59.65 411.00
59.7152 394.00
59.7804 399.00
59.8456 395.00
59.9108 373.00
59.976 339.00
60.0412 406.00
60.1064 390.00
60.1716 391.00
60.2368 415.00
60.302 407.00
60.3672 430.00
60.4324 427.00
60.4976 463.00
60.5628 487.00
60.628 557.00
60.6932 653.00
60.7584 863.00
60.8236 1550.00
60.8888 2367.00
60.954 2210.00
61.0192 1546.00
61.0844 1616.00
61.1496 930.00
61.2148 615.00
61.28 533.00
61.3452 494.00
61.4104 426.00
61.4756 443.00
61.5408 415.00
61.606 437.00
61.6712 425.00
61.7364 408.00
61.8016 415.00
61.8667 507.00
61.932 610.00
61.9971 755.00
62.0623 1083.00
62.1275 1391.00
62.1927 1202.00
62.2579 1025.00
62.3231 1063.00
62.3883 1073.00
62.4535 900.00
62.5187 673.00
62.5839 616.00
62.6491 582.00
62.7143 466.00
62.7795 397.00
62.8447 406.00
62.9099 403.00
62.9751 390.00
63.0403 404.00
63.1055 406.00
63.1707 384.00
63.2359 317.00
63.3011 371.00
63.3663 390.00
63.4315 384.00
63.4967 348.00
63.5619 412.00
63.6271 391.00
63.6923 423.00
63.7575 465.00
63.8227 587.00
63.8879 752.00
63.9531 736.00
64.0183 603.00
64.0835 614.00
64.1487 537.00
64.2139 420.00
64.2791 388.00
64.3443 428.00
64.4095 440.00
64.4747 403.00
64.5399 425.00
64.6051 421.00
64.6703 472.00
64.7355 528.00
64.8007 649.00
64.8659 849.00
64.9311 1139.00
64.9963 1287.00
65.0615 1078.00
65.1267 961.00
65.1919 863.00
65.2571 696.00
65.3223 628.00
65.3875 686.00
65.4527 550.00
65.5179 474.00
65.5831 504.00
65.6483 427.00
65.7135 457.00
65.7787 449.00
65.8439 502.00
65.9091 549.00
65.9743 553.00
66.0395 712.00
66.1047 1012.00
66.1699 1394.00
66.2351 1541.00
66.3003 1178.00
66.3655 1121.00
66.4307 958.00
66.4959 692.00
66.561 544.00
66.6263 470.00
66.6915 433.00
66.7566 490.00
66.8218 478.00
66.887 466.00
66.9522 430.00
67.0174 470.00
67.0826 365.00
67.1478 367.00
67.213 356.00
67.2782 390.00
67.3434 373.00
67.4086 343.00
67.4738 361.00
67.539 378.00
67.6042 376.00
67.6694 361.00
67.7346 339.00
67.7998 354.00
67.865 359.00
67.9302 358.00
67.9954 360.00
68.0606 362.00
68.1258 406.00
68.191 469.00
68.2562 554.00
68.3214 570.00
68.3866 479.00
68.4518 490.00
68.517 466.00
68.5822 396.00
68.6474 352.00
68.7126 374.00
68.7778 335.00
68.843 332.00
68.9082 366.00
68.9734 337.00
69.0386 342.00
69.1038 368.00
69.169 313.00
69.2342 354.00
69.2994 340.00
69.3646 362.00
69.4298 379.00
69.495 372.00
69.5602 410.00
69.6254 436.00
69.6906 528.00
69.7558 457.00
69.821 442.00
69.8862 440.00
69.9514 373.00
70.0166 371.00
70.0818 345.00
70.147 352.00
70.2122 334.00
70.2774 355.00
70.3426 342.00
70.4078 333.00
70.473 348.00
70.5382 391.00
70.6034 332.00
70.6686 357.00
70.7338 348.00
70.799 320.00
70.8642 361.00
70.9294 341.00
70.9946 316.00
71.0598 374.00
71.125 383.00
71.1902 381.00
71.2554 369.00
71.3205 437.00
71.3858 550.00
71.451 749.00
71.5162 828.00
71.5813 682.00
71.6465 607.00
71.7117 627.00
71.7769 502.00
71.8421 422.00
71.9073 428.00
71.9725 391.00
72.0377 344.00
72.1029 318.00
72.1681 338.00
72.2333 338.00
72.2985 327.00
72.3637 347.00
72.4289 315.00
72.4941 349.00
72.5593 350.00
72.6245 326.00
72.6897 370.00
72.7549 365.00
72.8201 329.00
72.8853 322.00
72.9505 346.00
73.0157 326.00
73.0809 323.00
73.1461 340.00
73.2113 350.00
73.2765 322.00
73.3417 363.00
73.4069 326.00
73.4721 335.00
73.5373 308.00
73.6025 385.00
73.6677 355.00
73.7329 369.00
73.7981 415.00
73.8633 517.00
73.9285 456.00
73.9937 450.00
74.0589 426.00
74.1241 390.00
74.1893 364.00
74.2545 364.00
74.3197 359.00
74.3849 343.00
74.4501 347.00
74.5153 368.00
74.5805 379.00
74.6457 328.00
74.7109 344.00
74.7761 394.00
74.8413 375.00
74.9065 353.00
74.9717 396.00
75.0369 348.00
75.1021 410.00
75.1673 472.00
75.2325 569.00
75.2977 605.00
75.3629 477.00
75.4281 450.00
75.4933 490.00
75.5585 404.00
75.6237 353.00
75.6889 359.00
75.7541 317.00
75.8193 357.00
75.8845 327.00
75.9497 333.00
76.0149 333.00
76.0801 347.00
76.1452 341.00
76.2104 327.00
76.2756 353.00
76.3409 372.00
76.406 353.00
76.4712 440.00
76.5364 452.00
76.6016 599.00
76.6668 560.00
76.732 484.00
76.7972 472.00
76.8624 484.00
76.9276 449.00
76.9928 383.00
77.058 336.00
77.1232 351.00
77.1884 353.00
77.2536 339.00
77.3188 350.00
77.384 300.00
77.4492 298.00
77.5144 311.00
77.5796 317.00
77.6448 346.00
77.71 359.00
77.7752 371.00
77.8404 362.00
77.9056 428.00
77.9708 502.00
78.036 459.00
78.1012 400.00
78.1664 424.00
78.2316 458.00
78.2968 398.00
78.362 415.00
78.4272 365.00
78.4924 387.00
78.5576 394.00
78.6228 429.00
78.688 497.00
78.7532 574.00
78.8184 716.00
78.8836 998.00
78.9488 1125.00
79.014 906.00
79.0792 777.00
79.1444 841.00
79.2096 737.00
79.2748 629.00
79.34 607.00
79.4052 536.00
79.4704 453.00
79.5356 472.00
79.6008 396.00
79.666 408.00
79.7312 363.00
79.7964 380.00
79.8616 338.00
79.9268 322.00
79.992 333.00
80.0572 340.00
80.1224 333.00
80.1876 362.00
80.2528 325.00
80.318 377.00
80.3832 318.00
80.4484 364.00
80.5136 338.00
80.5788 393.00
80.644 462.00
80.7092 417.00
80.7744 384.00
80.8396 397.00
80.9048 414.00
80.9699 417.00
81.0351 372.00
81.1003 371.00
81.1655 395.00
81.2307 434.00
81.2959 535.00
81.3611 604.00
81.4263 521.00
81.4915 453.00
81.5567 478.00
81.6219 488.00
81.6871 433.00
81.7523 376.00
81.8175 426.00
81.8827 382.00
81.9479 498.00
82.0131 588.00
82.0783 577.00
82.1435 477.00
82.2087 452.00
82.2739 477.00
82.3391 443.00
82.4043 428.00
82.4695 396.00
82.5347 322.00
82.5999 329.00
82.6651 362.00
82.7303 341.00
82.7955 360.00
82.8607 397.00
82.9259 348.00
82.9911 356.00
83.0563 379.00
83.1215 386.00
83.1867 413.00
83.2519 558.00
83.3171 726.00
83.3823 893.00
83.4475 674.00
83.5127 575.00
83.5779 670.00
83.6431 685.00
83.7083 566.00
83.7735 584.00
83.8387 754.00
83.9039 886.00
83.9691 846.00
84.0343 633.00
84.0995 599.00
84.1647 635.00
84.2299 571.00
84.2951 441.00
84.3603 394.00
84.4255 383.00
84.4907 337.00
84.5559 350.00
84.6211 362.00
84.6863 382.00
84.7515 344.00
84.8167 339.00
84.8819 301.00
84.9471 340.00
85.0123 343.00
85.0775 364.00
85.1427 354.00
85.2079 321.00
85.2731 316.00
85.3383 320.00
85.4035 312.00
85.4687 324.00
85.5339 343.00
85.5991 346.00
85.6643 345.00
85.7295 354.00
85.7946 396.00
85.8598 413.00
85.925 527.00
85.9903 662.00
86.0554 700.00
86.1206 540.00
86.1858 494.00
86.251 515.00
86.3162 545.00
86.3814 426.00
86.4466 372.00
86.5118 351.00
86.577 342.00
86.6422 331.00
86.7074 320.00
86.7726 327.00
86.8378 344.00
86.903 359.00
86.9682 348.00
87.0334 341.00
87.0986 388.00
87.1638 365.00
87.229 437.00
87.2942 484.00
87.3594 553.00
87.4246 659.00
87.4898 579.00
87.555 455.00
87.6202 524.00
87.6854 475.00
87.7506 475.00
87.8158 398.00
87.881 362.00
87.9462 310.00
88.0114 326.00
88.0766 335.00
88.1418 319.00
88.207 329.00
88.2722 317.00
88.3374 314.00
88.4026 308.00
88.4678 300.00
88.533 351.00
88.5982 390.00
88.6634 443.00
88.7286 414.00
88.7938 358.00
88.859 379.00
88.9242 367.00
88.9894 381.00
89.0546 343.00
89.1198 369.00
89.185 338.00
89.2502 353.00
89.3154 362.00
89.3806 343.00
89.4458 359.00
89.511 366.00
89.5762 397.00
89.6414 367.00
89.7066 464.00
89.7718 536.00
89.837 656.00
89.9022 916.00
89.9674 1168.00
90.0326 1097.00
90.0978 857.00
90.163 735.00
90.2282 813.00
90.2934 798.00
90.3586 630.00
90.4238 513.00
90.489 442.00
90.5542 413.00
90.6193 468.00
90.6845 386.00
90.7497 418.00
90.8149 466.00
90.8801 487.00
90.9453 631.00
91.0105 795.00
91.0757 991.00
91.1409 1003.00
91.2061 743.00
91.2713 726.00
91.3365 741.00
91.4017 687.00
91.4669 595.00
91.5321 497.00
91.5973 436.00
91.6625 372.00
91.7277 366.00
91.7929 360.00
91.8581 375.00
91.9233 347.00
91.9885 368.00
92.0537 369.00
92.1189 314.00
92.1841 344.00
92.2493 360.00
92.3145 347.00
92.3797 339.00
92.4449 340.00
92.5101 412.00
92.5753 485.00
92.6405 498.00
92.7057 514.00
92.7709 433.00
92.8361 406.00
92.9013 416.00
92.9665 409.00
93.0317 409.00
93.0969 380.00
93.1621 353.00
93.2273 359.00
93.2925 435.00
93.3577 490.00
93.4229 579.00
93.4881 665.00
93.5533 585.00
93.6185 504.00
93.6837 446.00
93.7489 507.00
93.8141 457.00
93.8793 417.00
93.9445 408.00
94.0097 373.00
94.0749 336.00
94.1401 303.00
94.2053 321.00
94.2705 340.00
94.3357 329.00
94.4009 323.00
94.4661 313.00
94.5313 333.00
94.5965 300.00
94.6617 308.00
94.7269 342.00
94.7921 337.00
94.8573 330.00
94.9225 359.00
94.9877 366.00
95.0529 369.00
95.1181 367.00
95.1833 379.00
95.2485 443.00
95.3137 494.00
95.3789 423.00
95.444 463.00
95.5092 387.00
95.5744 409.00
95.6396 484.00
95.7048 395.00
95.77 380.00
95.8352 390.00
95.9004 383.00
95.9656 417.00
96.0308 482.00
96.096 540.00
96.1612 613.00
96.2264 644.00
96.2916 530.00
96.3568 471.00
96.422 488.00
96.4872 602.00
96.5524 621.00
96.6176 694.00
96.6828 684.00
96.748 516.00
96.8132 478.00
96.8784 504.00
96.9436 539.00
97.0088 468.00
97.074 428.00
97.1392 352.00
97.2044 376.00
97.2696 334.00
97.3348 358.00
97.4 344.00
97.4652 331.00
97.5304 352.00
97.5956 347.00
97.6608 341.00
97.726 327.00
97.7912 363.00
97.8564 383.00
97.9216 463.00
97.9868 512.00
98.052 442.00
98.1172 368.00
98.1824 416.00
98.2476 372.00
98.3128 440.00
98.378 414.00
98.4432 356.00
98.5084 357.00
98.5736 337.00
98.6388 334.00
98.704 307.00
98.7692 370.00
98.8344 329.00
98.8996 322.00
98.9648 355.00
99.03 340.00
99.0952 328.00
99.1604 362.00
99.2256 367.00
99.2908 415.00
99.356 450.00
99.4212 425.00
99.4864 330.00
99.5516 404.00
99.6168 391.00
99.682 367.00
99.7472 340.00
99.8124 329.00
99.8776 319.00
99.9428 297.00
100.008 366.00
100.073 326.00
100.095 353.00