File: data/xrd_creation/results/PG_1418-1.xy
10.0094 3437.00
10.0746 3327.00
10.1398 3392.00
10.205 3407.00
10.2702 3525.00
10.3354 3479.00
10.4006 3332.00
10.4658 3317.00
10.531 3458.00
10.5962 3311.00
10.6614 3338.00
10.7266 3376.00
10.7918 3278.00
10.857 3292.00
10.9222 3243.00
10.9874 3354.00
11.0526 3294.00
11.1178 3260.00
11.183 3113.00
11.2482 3289.00
11.3134 3183.00
11.3786 3218.00
11.4438 3234.00
11.509 3256.00
11.5742 3253.00
11.6394 3158.00
11.7046 3127.00
11.7698 3135.00
11.835 3313.00
11.9002 3056.00
11.9654 3239.00
12.0306 3147.00
12.0958 3110.00
12.161 3099.00
12.2262 3113.00
12.2914 3055.00
12.3566 3239.00
12.4218 3134.00
12.487 3124.00
12.5522 3056.00
12.6174 3013.00
12.6826 3017.00
12.7478 3036.00
12.813 3041.00
12.8782 3021.00
12.9434 2993.00
13.0086 3010.00
13.0738 3082.00
13.139 3109.00
13.2042 2966.00
13.2694 2847.00
13.3346 2959.00
13.3998 2982.00
13.465 3008.00
13.5302 3010.00
13.5954 2957.00
13.6606 2991.00
13.7258 2902.00
13.791 2947.00
13.8562 2951.00
13.9214 3057.00
13.9865 2858.00
14.0517 2898.00
14.1169 2986.00
14.1821 2917.00
14.2473 2876.00
14.3125 2893.00
14.3777 2908.00
14.4429 2879.00
14.5081 2866.00
14.5733 2876.00
14.6385 2838.00
14.7037 2982.00
14.7689 2926.00
14.8341 2890.00
14.8993 3043.00
14.9645 2931.00
15.0297 2837.00
15.0949 2849.00
15.1601 2910.00
15.2253 2861.00
15.2905 2868.00
15.3557 2941.00
15.4209 2939.00
15.4861 2916.00
15.5513 2910.00
15.6165 2871.00
15.6817 2929.00
15.7469 2895.00
15.8121 2956.00
15.8773 2932.00
15.9425 2929.00
16.0077 2945.00
16.0729 2879.00
16.1381 2944.00
16.2033 2834.00
16.2685 2807.00
16.3337 2882.00
16.3989 2849.00
16.4641 2900.00
16.5293 2852.00
16.5945 2864.00
16.6597 2773.00
16.7249 2904.00
16.7901 2927.00
16.8553 2821.00
16.9205 2829.00
16.9857 2946.00
17.0509 2849.00
17.1161 2817.00
17.1813 2894.00
17.2465 2836.00
17.3117 2974.00
17.3769 2861.00
17.4421 2927.00
17.5073 2892.00
17.5725 2900.00
17.6377 2921.00
17.7029 2972.00
17.7681 2920.00
17.8333 2954.00
17.8985 2968.00
17.9637 3024.00
18.0289 3010.00
18.0941 3041.00
18.1593 3007.00
18.2245 3122.00
18.2897 3105.00
18.3549 3377.00
18.4201 3300.00
18.4853 3557.00
18.5505 4057.00
18.6157 4701.00
18.6809 5950.00
18.7461 7174.00
18.8112 7122.00
18.8764 5243.00
18.9416 4661.00
19.0068 4635.00
19.072 5218.00
19.1372 5791.00
19.2024 5762.00
19.2676 4448.00
19.3328 3485.00
19.398 3162.00
19.4632 2970.00
19.5284 2921.00
19.5936 2886.00
19.6588 2885.00
19.724 2874.00
19.7892 2782.00
19.8544 2829.00
19.9196 2802.00
19.9848 2838.00
20.05 2782.00
20.1152 2806.00
20.1804 2753.00
20.2456 2676.00
20.3108 2771.00
20.376 2614.00
20.4412 2685.00
20.5064 2673.00
20.5716 2728.00
20.6368 2708.00
20.702 2779.00
20.7672 2747.00
20.8324 2670.00
20.8976 2745.00
20.9628 2795.00
21.028 2739.00
21.0932 2782.00
21.1584 2810.00
21.2236 2760.00
21.2888 2696.00
21.354 2735.00
21.4192 2834.00
21.4844 2772.00
21.5496 3010.00
21.6148 3274.00
21.68 4060.00
21.7452 4775.00
21.8104 5242.00
21.8756 3818.00
21.9408 2976.00
22.006 2817.00
22.0712 2791.00
22.1364 2755.00
22.2016 2685.00
22.2668 2778.00
22.332 2685.00
22.3972 2751.00
22.4624 2727.00
22.5276 2710.00
22.5928 2632.00
22.658 2659.00
22.7232 2646.00
22.7884 2689.00
22.8536 2632.00
22.9188 2586.00
22.984 2650.00
23.0492 2878.00
23.1144 3231.00
23.1796 3768.00
23.2448 3613.00
23.31 3167.00
23.3752 2901.00
23.4404 2818.00
23.5056 2717.00
23.5708 2659.00
23.6359 2750.00
23.7011 2784.00
23.7663 2813.00
23.8315 2766.00
23.8967 2675.00
23.9619 2766.00
24.0271 2719.00
24.0923 2839.00
24.1575 2623.00
24.2227 2634.00
24.2879 2735.00
24.3531 2681.00
24.4183 2646.00
24.4835 2696.00
24.5487 2757.00
24.6139 2818.00
24.6791 2696.00
24.7443 2805.00
24.8095 2840.00
24.8747 3003.00
24.9399 3107.00
25.0051 3111.00
25.0703 3311.00
25.1355 3036.00
25.2007 2763.00
25.2659 2675.00
25.3311 2591.00
25.3963 2540.00
25.4615 2569.00
25.5267 2567.00
25.5919 2564.00
25.6571 2468.00
25.7223 2550.00
25.7875 2506.00
25.8527 2514.00
25.9179 2456.00
25.9831 2520.00
26.0483 2546.00
26.1135 2471.00
26.1787 2444.00
26.2439 2445.00
26.3091 2516.00
26.3743 2494.00
26.4395 2482.00
26.5047 2506.00
26.5699 2560.00
26.6351 2408.00
26.7003 2524.00
26.7655 2567.00
26.8307 2491.00
26.8959 2459.00
26.9611 2560.00
27.0263 2472.00
27.0915 2507.00
27.1567 2428.00
27.2219 2407.00
27.2871 2309.00
27.3523 2523.00
27.4175 2447.00
27.4827 2414.00
27.5479 2390.00
27.6131 2400.00
27.6783 2497.00
27.7435 2508.00
27.8087 2475.00
27.8739 2392.00
27.9391 2378.00
28.0043 2453.00
28.0695 2395.00
28.1347 2539.00
28.1999 2391.00
28.2651 2489.00
28.3303 2526.00
28.3955 2537.00
28.4606 2501.00
28.5258 2473.00
28.591 2492.00
28.6562 2482.00
28.7214 2374.00
28.7866 2386.00
28.8518 2412.00
28.917 2362.00
28.9822 2531.00
29.0474 2452.00
29.1126 2514.00
29.1778 2543.00
29.243 2564.00
29.3082 2500.00
29.3734 2475.00
29.4386 2550.00
29.5038 2478.00
29.569 2575.00
29.6342 2590.00
29.6994 2819.00
29.7646 3040.00
29.8298 3194.00
29.895 3725.00
29.9602 4266.00
30.0254 4853.00
30.0906 4567.00
30.1558 3814.00
30.221 3402.00
30.2862 3071.00
30.3514 3056.00
30.4166 3105.00
30.4818 3247.00
30.547 3570.00
30.6122 4069.00
30.6774 5668.00
30.7426 9572.00
30.8078 17842.00
30.873 27712.00
30.9382 18304.00
31.0034 8846.00
31.0686 4831.00
31.1338 3744.00
31.199 3293.00
31.2642 2991.00
31.3294 2771.00
31.3946 2729.00
31.4598 2585.00
31.525 2576.00
31.5902 2492.00
31.6554 2498.00
31.7206 2365.00
31.7858 2481.00
31.851 2432.00
31.9162 2361.00
31.9814 2412.00
32.0466 2400.00
32.1118 2391.00
32.177 2357.00
32.2422 2406.00
32.3074 2407.00
32.3726 2353.00
32.4378 2280.00
32.503 2469.00
32.5682 2384.00
32.6334 2347.00
32.6986 2478.00
32.7638 2351.00
32.829 2285.00
32.8942 2346.00
32.9594 2319.00
33.0246 2295.00
33.0898 2354.00
33.1549 2350.00
33.2201 2333.00
33.2853 2472.00
33.3505 2484.00
33.4157 2520.00
33.4809 2527.00
33.5461 2475.00
33.6113 2357.00
33.6765 2343.00
33.7417 2330.00
33.8069 2460.00
33.8721 2490.00
33.9373 2630.00
34.0025 2926.00
34.0677 3084.00
34.1329 2905.00
34.1981 2739.00
34.2633 2674.00
34.3285 2576.00
34.3937 2596.00
34.4589 2631.00
34.5241 2727.00
34.5893 2815.00
34.6545 2619.00
34.7197 2497.00
34.7849 2395.00
34.8501 2404.00
34.9153 2367.00
34.9805 2348.00
35.0457 2407.00
35.1109 2439.00
35.1761 2431.00
35.2413 2532.00
35.3065 2526.00
35.3717 2572.00
35.4369 2644.00
35.5021 2833.00
35.5673 3330.00
35.6325 4633.00
35.6977 7688.00
35.7629 9299.00
35.8281 6576.00
35.8933 3960.00
35.9585 2988.00
36.0237 2656.00
36.0889 2489.00
36.1541 2508.00
36.2193 2370.00
36.2845 2361.00
36.3497 2286.00
36.4149 2296.00
36.4801 2274.00
36.5453 2310.00
36.6105 2257.00
36.6757 2317.00
36.7409 2320.00
36.8061 2225.00
36.8713 2277.00
36.9365 2266.00
37.0017 2264.00
37.0669 2177.00
37.1321 2300.00
37.1973 2247.00
37.2625 2283.00
37.3277 2270.00
37.3929 2235.00
37.4581 2325.00
37.5233 2256.00
37.5885 2309.00
37.6537 2340.00
37.7189 2349.00
37.7841 2446.00
37.8493 2753.00
37.9145 3107.00
37.9796 3549.00
38.0448 3044.00
38.11 2659.00
38.1752 2430.00
38.2404 2370.00
38.3056 2276.00
38.3708 2367.00
38.436 2395.00
38.5012 2295.00
38.5664 2296.00
38.6316 2200.00
38.6968 2218.00
38.762 2290.00
38.8272 2298.00
38.8924 2187.00
38.9576 2223.00
39.0228 2267.00
39.088 2229.00
39.1532 2231.00
39.2184 2189.00
39.2836 2204.00
39.3488 2192.00
39.414 2161.00
39.4792 2253.00
39.5444 2160.00
39.6096 2220.00
39.6748 2147.00
39.74 2246.00
39.8052 2399.00
39.8704 2197.00
39.9356 2232.00
40.0008 2333.00
40.066 2650.00
40.1312 2628.00
40.1964 2539.00
40.2616 2387.00
40.3268 2303.00
40.392 2298.00
40.4572 2220.00
40.5224 2163.00
40.5876 2174.00
40.6528 2208.00
40.718 2265.00
40.7832 2287.00
40.8484 2315.00
40.9136 2267.00
40.9788 2219.00
41.044 2182.00
41.1092 2168.00
41.1744 2210.00
41.2396 2191.00
41.3048 2173.00
41.37 2147.00
41.4352 2199.00
41.5004 2363.00
41.5656 2283.00
41.6308 2332.00
41.696 2177.00
41.7612 2190.00
41.8264 2318.00
41.8916 2323.00
41.9568 2361.00
42.022 2596.00
42.0872 3063.00
42.1524 3067.00
42.2176 2826.00
42.2828 2475.00
42.348 2261.00
42.4132 2205.00
42.4784 2125.00
42.5436 2188.00
42.6088 2138.00
42.6739 2252.00
42.7392 2178.00
42.8043 2375.00
42.8695 2350.00
42.9347 2298.00
42.9999 2205.00
43.0651 2171.00
43.1303 2243.00
43.1955 2288.00
43.2607 2328.00
43.3259 2198.00
43.3911 2219.00
43.4563 2137.00
43.5215 2144.00
43.5867 2215.00
43.6519 2176.00
43.7171 2065.00
43.7823 2025.00
43.8475 2197.00
43.9127 2204.00
43.9779 2194.00
44.0431 2360.00
44.1083 2347.00
44.1735 2291.00
44.2387 2152.00
44.3039 2229.00
44.3691 2155.00
44.4343 2196.00
44.4995 2220.00
44.5647 2239.00
44.6299 2207.00
44.6951 2261.00
44.7603 2271.00
44.8255 2326.00
44.8907 2330.00
44.9559 2273.00
45.0211 2441.00
45.0863 2532.00
45.1515 2414.00
45.2167 2317.00
45.2819 2294.00
45.3471 2291.00
45.4123 2277.00
45.4775 2250.00
45.5427 2154.00
45.6079 2301.00
45.6731 2354.00
45.7383 2363.00
45.8035 2612.00
45.8687 2978.00
45.9339 3869.00
45.9991 3639.00
46.0643 3331.00
46.1295 2675.00
46.1947 2396.00
46.2599 2299.00
46.3251 2231.00
46.3903 2218.00
46.4555 2239.00
46.5207 2242.00
46.5859 2284.00
46.6511 2244.00
46.7163 2273.00
46.7815 2374.00
46.8467 2483.00
46.9119 2462.00
46.9771 2470.00
47.0423 2361.00
47.1075 2418.00
47.1727 2425.00
47.2379 2400.00
47.3031 2365.00
47.3683 2407.00
47.4335 2405.00
47.4986 2335.00
47.5639 2283.00
47.629 2269.00
47.6942 2156.00
47.7594 2199.00
47.8246 2178.00
47.8898 2144.00
47.955 2152.00
48.0202 2030.00
48.0854 2125.00
48.1506 2129.00
48.2158 2153.00
48.281 2267.00
48.3462 2411.00
48.4114 2333.00
48.4766 2329.00
48.5418 2175.00
48.607 2035.00
48.6722 2092.00
48.7374 2120.00
48.8026 2122.00
48.8678 2160.00
48.933 2099.00
48.9982 2129.00
49.0634 2154.00
49.1286 2174.00
49.1938 2086.00
49.259 2112.00
49.3242 2088.00
49.3894 2156.00
49.4546 2266.00
49.5198 2552.00
49.585 2686.00
49.6502 2522.00
49.7154 2347.00
49.7806 2238.00
49.8458 2232.00
49.911 2149.00
49.9762 2216.00
50.0414 2158.00
50.1066 2143.00
50.1718 2163.00
50.237 2287.00
50.3022 2254.00
50.3674 2364.00
50.4326 2466.00
50.4978 2567.00
50.563 2572.00
50.6282 2539.00
50.6934 2466.00
50.7586 2469.00
50.8238 2469.00
50.889 2548.00
50.9542 2536.00
51.0194 2838.00
51.0846 2964.00
51.1498 3818.00
51.215 6440.00
51.2802 10408.00
51.3454 6970.00
51.4106 6817.00
51.4758 4455.00
51.541 3175.00
51.6062 2703.00
51.6714 2536.00
51.7366 2368.00
51.8018 2295.00
51.867 2234.00
51.9322 2186.00
51.9974 2096.00
52.0626 2174.00
52.1278 2163.00
52.193 2114.00
52.2582 2117.00
52.3233 2102.00
52.3886 2048.00
52.4537 2052.00
52.5189 2061.00
52.5841 2096.00
52.6493 2080.00
52.7145 2042.00
52.7797 2105.00
52.8449 2214.00
52.9101 2365.00
52.9753 2534.00
53.0405 2385.00
53.1057 2310.00
53.1709 2226.00
53.2361 2180.00
53.3013 2105.00
53.3665 2139.00
53.4317 2102.00
53.4969 2077.00
53.5621 2124.00
53.6273 2104.00
53.6925 2070.00
53.7577 2039.00
53.8229 2072.00
53.8881 2057.00
53.9533 2061.00
54.0185 2027.00
54.0837 2052.00
54.1489 2004.00
54.2141 2073.00
54.2793 2097.00
54.3445 2031.00
54.4097 2032.00
54.4749 2094.00
54.5401 2144.00
54.6053 2176.00
54.6705 2198.00
54.7357 2066.00
54.8009 2043.00
54.8661 2047.00
54.9313 2085.00
54.9965 1962.00
55.0617 2052.00
55.1269 2147.00
55.1921 2025.00
55.2573 1976.00
55.3225 2094.00
55.3877 2023.00
55.4529 2069.00
55.5181 2037.00
55.5833 2084.00
55.6485 1997.00
55.7137 2039.00
55.7789 1976.00
55.8441 1975.00
55.9093 2119.00
55.9745 2122.00
56.0397 2144.00
56.1049 2265.00
56.1701 2588.00
56.2353 3062.00
56.3005 2617.00
56.3657 2677.00
56.4309 2567.00
56.4961 2343.00
56.5613 2194.00
56.6265 2190.00
56.6917 2184.00
56.7569 2192.00
56.8221 2139.00
56.8873 2164.00
56.9525 2100.00
57.0177 2063.00
57.0829 2053.00
57.148 2057.00
57.2132 2029.00
57.2784 2045.00
57.3436 2038.00
57.4088 2051.00
57.474 2127.00
57.5392 2119.00
57.6044 2126.00
57.6696 2085.00
57.7348 2191.00
57.8 2234.00
57.8652 2153.00
57.9304 2196.00
57.9956 2130.00
58.0608 2200.00
58.126 2151.00
58.1912 2110.00
58.2564 2141.00
58.3216 2070.00
58.3868 2075.00
58.452 2081.00
58.5172 2059.00
58.5824 2069.00
58.6476 2077.00
58.7128 2041.00
58.778 2103.00
58.8432 2160.00
58.9084 2115.00
58.9736 1994.00
59.0388 2122.00
59.104 2081.00
59.1692 2104.00
59.2344 2183.00
59.2996 2481.00
59.3648 2821.00
59.43 2605.00
59.4952 2548.00
59.5604 2582.00
59.6256 2265.00
59.6908 2125.00
59.756 2183.00
59.8212 2162.00
59.8864 2270.00
59.9516 2150.00
60.0168 2170.00
60.082 2162.00
60.1472 2163.00
60.2124 2235.00
60.2776 2176.00
60.3428 2171.00
60.408 2188.00
60.4732 2289.00
60.5384 2362.00
60.6036 2443.00
60.6688 2618.00
60.734 2802.00
60.7992 3644.00
60.8644 5895.00
60.9296 7053.00
60.9948 4720.00
61.06 4997.00
61.1252 4175.00
61.1904 2813.00
61.2556 2465.00
61.3208 2394.00
61.386 2310.00
61.4512 2217.00
61.5164 2143.00
61.5816 2278.00
61.6468 2213.00
61.712 2194.00
61.7772 2279.00
61.8424 2160.00
61.9076 2251.00
61.9727 2246.00
62.0379 2172.00
62.1031 2148.00
62.1683 2267.00
62.2335 2244.00
62.2987 2416.00
62.3639 2749.00
62.4291 3229.00
62.4943 2714.00
62.5595 2618.00
62.6247 2610.00
62.6899 2350.00
62.7551 2250.00
62.8203 2129.00
62.8855 2112.00
62.9507 2059.00
63.0159 2126.00
63.0811 2029.00
63.1463 1954.00
63.2115 2071.00
63.2767 2021.00
63.3419 2132.00
63.4071 2017.00
63.4723 2027.00
63.5375 2013.00
63.6027 2064.00
63.6679 2152.00
63.7331 2175.00
63.7983 2391.00
63.8635 2690.00
63.9287 3000.00
63.9939 2557.00
64.0591 2529.00
64.1243 2468.00
64.1895 2263.00
64.2547 2120.00
64.3199 2112.00
64.3851 2059.00
64.4503 2026.00
64.5155 2050.00
64.5807 2065.00
64.6459 2036.00
64.7111 2040.00
64.7763 1958.00
64.8415 2049.00
64.9067 2080.00
64.9719 1961.00
65.0371 2030.00
65.1023 2098.00
65.1675 2047.00
65.2327 2094.00
65.2979 2224.00
65.3631 2327.00
65.4283 2189.00
65.4935 2161.00
65.5587 2167.00
65.6239 2165.00
65.6891 2012.00
65.7543 2066.00
65.8195 2063.00
65.8847 2028.00
65.9499 1958.00
66.0151 2034.00
66.0803 1975.00
66.1455 1965.00
66.2107 2042.00
66.2759 2007.00
66.3411 1984.00
66.4063 1994.00
66.4715 1978.00
66.5367 2010.00
66.6019 1993.00
66.6671 1993.00
66.7322 2023.00
66.7974 2061.00
66.8626 2183.00
66.9278 2023.00
66.993 2085.00
67.0582 2049.00
67.1234 2122.00
67.1886 1918.00
67.2538 2011.00
67.319 1987.00
67.3842 2020.00
67.4494 1985.00
67.5146 2025.00
67.5798 2029.00
67.645 2085.00
67.7102 1994.00
67.7754 2009.00
67.8406 2107.00
67.9058 1988.00
67.971 2010.00
68.0362 1978.00
68.1014 2102.00
68.1666 2138.00
68.2318 2363.00
68.297 2360.00
68.3622 2265.00
68.4274 2241.00
68.4926 2258.00
68.5578 2096.00
68.623 2038.00
68.6882 2080.00
68.7534 2022.00
68.8186 2025.00
68.8838 2157.00
68.949 2067.00
69.0142 1974.00
69.0794 1964.00
69.1446 1939.00
69.2098 1969.00
69.275 1968.00
69.3402 1939.00
69.4054 1961.00
69.4706 2025.00
69.5358 2022.00
69.601 2217.00
69.6662 2253.00
69.7314 2228.00
69.7966 2105.00
69.8618 2138.00
69.927 2099.00
69.9922 2061.00
70.0574 1900.00
70.1226 2033.00
70.1878 1982.00
70.253 1976.00
70.3182 2046.00
70.3834 2002.00
70.4486 1911.00
70.5138 1964.00
70.579 1994.00
70.6442 2010.00
70.7094 1975.00
70.7746 1964.00
70.8398 2005.00
70.905 1911.00
70.9702 1934.00
71.0354 1976.00
71.1006 1919.00
71.1658 2018.00
71.231 1953.00
71.2962 1943.00
71.3614 1896.00
71.4266 1971.00
71.4918 2026.00
71.5569 1935.00
71.6221 1988.00
71.6873 2045.00
71.7525 1897.00
71.8177 2024.00
71.8829 1935.00
71.9481 1960.00
72.0133 1896.00
72.0785 1936.00
72.1437 1950.00
72.2089 2006.00
72.2741 1955.00
72.3393 1963.00
72.4045 1984.00
72.4697 2043.00
72.5349 1886.00
72.6001 1911.00
72.6653 1971.00
72.7305 1897.00
72.7957 1937.00
72.8609 1945.00
72.9261 1960.00
72.9913 1992.00
73.0565 1932.00
73.1217 1947.00
73.1869 1995.00
73.2521 1937.00
73.3173 2042.00
73.3825 1997.00
73.4477 2046.00
73.5129 2078.00
73.5781 2059.00
73.6433 1981.00
73.7085 2083.00
73.7737 2111.00
73.8389 2290.00
73.9041 2256.00
73.9693 2245.00
74.0345 1998.00
74.0997 2244.00
74.1649 2107.00
74.2301 1980.00
74.2953 1996.00
74.3605 1924.00
74.4257 1930.00
74.4909 2055.00
74.5561 1952.00
74.6213 1997.00
74.6865 2024.00
74.7517 1930.00
74.8169 2013.00
74.8821 1997.00
74.9473 2055.00
75.0125 2028.00
75.0777 2020.00
75.1429 2222.00
75.2081 2344.00
75.2733 2517.00
75.3385 2258.00
75.4037 2236.00
75.4689 2348.00
75.5341 2231.00
75.5993 2105.00
75.6645 2078.00
75.7297 2096.00
75.7949 1984.00
75.8601 2069.00
75.9253 1997.00
75.9905 1975.00
76.0557 2052.00
76.1209 2092.00
76.186 1988.00
76.2513 1973.00
76.3165 2022.00
76.3816 2023.00
76.4468 2102.00
76.512 2205.00
76.5772 2428.00
76.6424 2596.00
76.7076 2240.00
76.7728 2234.00
76.838 2256.00
76.9032 2141.00
76.9684 2095.00
77.0336 2105.00
77.0988 1982.00
77.164 2031.00
77.2292 1950.00
77.2944 1993.00
77.3596 1911.00
77.4248 1935.00
77.49 1978.00
77.5552 2049.00
77.6204 1953.00
77.6856 1943.00
77.7508 1932.00
77.816 2061.00
77.8812 2056.00
77.9464 2255.00
78.0116 2188.00
78.0768 2173.00
78.142 2123.00
78.2072 2064.00
78.2724 2054.00
78.3376 2054.00
78.4028 1955.00
78.468 2033.00
78.5332 2059.00
78.5984 2014.00
78.6636 1938.00
78.7288 1925.00
78.794 1993.00
78.8592 1890.00
78.9244 1935.00
78.9896 1977.00
79.0548 1903.00
79.12 2089.00
79.1852 2138.00
79.2504 2161.00
79.3156 2304.00
79.3808 2292.00
79.446 2087.00
79.5112 2137.00
79.5764 2125.00
79.6416 2088.00
79.7068 1996.00
79.772 1983.00
79.8372 1928.00
79.9024 1986.00
79.9676 1916.00
80.0328 1932.00
80.098 1912.00
80.1632 2006.00
80.2284 1959.00
80.2936 2009.00
80.3588 1919.00
80.424 1976.00
80.4892 2073.00
80.5544 1979.00
80.6196 2086.00
80.6848 2228.00
80.75 2020.00
80.8152 2103.00
80.8804 2023.00
80.9456 2042.00
81.0108 2088.00
81.076 2016.00
81.1412 2067.00
81.2063 1961.00
81.2715 2049.00
81.3367 1975.00
81.4019 1977.00
81.4671 2057.00
81.5323 1966.00
81.5975 2081.00
81.6627 2031.00
81.7279 1976.00
81.7931 2051.00
81.8583 2174.00
81.9235 2105.00
81.9887 2358.00
82.0539 2425.00
82.1191 2216.00
82.1843 2157.00
82.2495 2287.00
82.3147 2205.00
82.3799 2071.00
82.4451 1999.00
82.5103 2073.00
82.5755 1985.00
82.6407 2054.00
82.7059 1962.00
82.7711 1932.00
82.8363 1949.00
82.9015 2067.00
82.9667 1987.00
83.0319 2028.00
83.0971 2041.00
83.1623 2063.00
83.2275 2201.00
83.2927 2534.00
83.3579 2974.00
83.4231 2625.00
83.4883 2430.00
83.5535 2472.00
83.6187 2608.00
83.6839 2340.00
83.7491 2166.00
83.8143 2104.00
83.8795 2078.00
83.9447 1963.00
84.0099 1954.00
84.0751 1968.00
84.1403 1980.00
84.2055 1968.00
84.2707 1938.00
84.3359 1914.00
84.4011 1919.00
84.4663 2004.00
84.5315 1957.00
84.5967 1911.00
84.6619 1894.00
84.7271 1949.00
84.7923 1975.00
84.8575 1988.00
84.9227 1967.00
84.9879 1907.00
85.0531 2019.00
85.1183 1944.00
85.1835 1948.00
85.2487 1861.00
85.3139 2000.00
85.3791 1922.00
85.4443 1856.00
85.5095 2001.00
85.5747 1942.00
85.6399 2041.00
85.7051 2075.00
85.7703 2022.00
85.8354 1993.00
85.9006 2154.00
85.9659 2426.00
86.031 2675.00
86.0962 2473.00
86.1614 2251.00
86.2266 2167.00
86.2918 2394.00
86.357 2239.00
86.4222 2209.00
86.4874 2045.00
86.5526 1996.00
86.6178 1972.00
86.683 1958.00
86.7482 1965.00
86.8134 1927.00
86.8786 2007.00
86.9438 1940.00
87.009 1949.00
87.0742 2012.00
87.1394 2009.00
87.2046 2019.00
87.2698 2012.00
87.335 2071.00
87.4002 2116.00
87.4654 1994.00
87.5306 2009.00
87.5958 1993.00
87.661 2033.00
87.7262 2009.00
87.7914 2004.00
87.8566 1900.00
87.9218 1974.00
87.987 1983.00
88.0522 1890.00
88.1174 1965.00
88.1826 1985.00
88.2478 1984.00
88.313 1977.00
88.3782 1993.00
88.4434 1936.00
88.5086 1903.00
88.5738 1966.00
88.639 2010.00
88.7042 2116.00
88.7694 2036.00
88.8346 2019.00
88.8998 2044.00
88.965 2056.00
89.0302 1997.00
89.0954 1935.00
89.1606 2038.00
89.2258 1882.00
89.291 1940.00
89.3562 1926.00
89.4214 1995.00
89.4866 1991.00
89.5518 1937.00
89.617 1952.00
89.6822 1913.00
89.7474 1889.00
89.8126 2035.00
89.8778 2061.00
89.943 2061.00
90.0082 2422.00
90.0734 2148.00
90.1386 2053.00
90.2038 2143.00
90.269 2116.00
90.3342 2112.00
90.3994 1965.00
90.4646 1865.00
90.5298 1956.00
90.595 1937.00
90.6601 1860.00
90.7253 1953.00
90.7905 1902.00
90.8557 1930.00
90.9209 1862.00
90.9861 1952.00
91.0513 1972.00
91.1165 1892.00
91.1817 1965.00
91.2469 1893.00
91.3121 1944.00
91.3773 2034.00
91.4425 2022.00
91.5077 1919.00
91.5729 1978.00
91.6381 1950.00
91.7033 1924.00
91.7685 1948.00
91.8337 1934.00
91.8989 1928.00
91.9641 1833.00
92.0293 1997.00
92.0945 2027.00
92.1597 1939.00
92.2249 1888.00
92.2901 1888.00
92.3553 1965.00
92.4205 1896.00
92.4857 1930.00
92.5509 2136.00
92.6161 2159.00
92.6813 2304.00
92.7465 2146.00
92.8117 2057.00
92.8769 2047.00
92.9421 2133.00
93.0073 2105.00
93.0725 2048.00
93.1377 1931.00
93.2029 1908.00
93.2681 1936.00
93.3333 2015.00
93.3985 2013.00
93.4637 1971.00
93.5289 1958.00
93.5941 1919.00
93.6593 1924.00
93.7245 1904.00
93.7897 1889.00
93.8549 1908.00
93.9201 1986.00
93.9853 1865.00
94.0505 1943.00
94.1157 1897.00
94.1809 1947.00
94.2461 1918.00
94.3113 1911.00
94.3765 1897.00
94.4417 1960.00
94.5069 1948.00
94.5721 1903.00
94.6373 1981.00
94.7025 2007.00
94.7677 1967.00
94.8329 1945.00
94.8981 1962.00
94.9633 1959.00
95.0285 2022.00
95.0937 1957.00
95.1589 1926.00
95.2241 2077.00
95.2893 2239.00
95.3545 2177.00
95.4197 2061.00
95.4848 1992.00
95.55 2143.00
95.6153 2026.00
95.6804 2101.00
95.7456 2005.00
95.8108 1978.00
95.876 1912.00
95.9412 1925.00
96.0064 1878.00
96.0716 1970.00
96.1368 1973.00
96.202 2006.00
96.2672 1962.00
96.3324 1947.00
96.3976 1996.00
96.4628 2078.00
96.528 2142.00
96.5932 2397.00
96.6584 2540.00
96.7236 2308.00
96.7888 2207.00
96.854 2201.00
96.9192 2318.00
96.9844 2319.00
97.0496 2219.00
97.1148 2065.00
97.18 1981.00
97.2452 1990.00
97.3104 2002.00
97.3756 1960.00
97.4408 1919.00
97.506 1991.00
97.5712 2034.00
97.6364 1992.00
97.7016 2037.00
97.7668 1957.00
97.832 2094.00
97.8972 2072.00
97.9624 2290.00
98.0276 2301.00
98.0928 2088.00
98.158 2040.00
98.2232 2096.00
98.2884 2167.00
98.3536 2178.00
98.4188 2049.00
98.484 1984.00
98.5492 1917.00
98.6144 1922.00
98.6796 1904.00
98.7448 2016.00
98.81 2002.00
98.8752 1923.00
98.9404 2025.00
99.0056 1911.00
99.0708 2056.00
99.136 2020.00
99.2012 2009.00
99.2664 2103.00
99.3316 2143.00
99.3968 2123.00
99.462 2070.00
99.5272 2028.00
99.5924 2020.00
99.6576 2059.00
99.7228 2107.00
99.788 2012.00
99.8532 1987.00
99.9184 1948.00
99.9836 2009.00
99.9944 1932.00