File: data/xrd_creation/results/PG_1834-1.xy
9.903433 2718.00
9.968632 2566.00
10.0338 2615.00
10.099 2530.00
10.1642 2477.00
10.2294 2598.00
10.2946 2488.00
10.3598 2503.00
10.425 2525.00
10.4902 2547.00
10.5554 2526.00
10.6206 2409.00
10.6858 2479.00
10.751 2462.00
10.8162 2484.00
10.8814 2389.00
10.9466 2483.00
11.0118 2335.00
11.077 2366.00
11.1422 2307.00
11.2074 2242.00
11.2726 2238.00
11.3378 2294.00
11.403 2279.00
11.4682 2374.00
11.5334 2210.00
11.5986 2271.00
11.6638 2179.00
11.729 2207.00
11.7942 2228.00
11.8594 2168.00
11.9246 2052.00
11.9898 2116.00
12.055 2152.00
12.1202 2128.00
12.1854 2149.00
12.2506 2010.00
12.3158 2077.00
12.381 2097.00
12.4462 1964.00
12.5114 2022.00
12.5766 1918.00
12.6418 1943.00
12.707 2001.00
12.7722 1930.00
12.8374 1961.00
12.9026 1938.00
12.9678 2015.00
13.033 1844.00
13.0982 1919.00
13.1634 1953.00
13.2286 1954.00
13.2938 1832.00
13.359 1769.00
13.4242 1893.00
13.4894 1810.00
13.5546 1877.00
13.6198 1981.00
13.685 1827.00
13.7502 1814.00
13.8154 1731.00
13.8805 1747.00
13.9457 1789.00
14.0109 1808.00
14.0761 1868.00
14.1413 1759.00
14.2065 1768.00
14.2717 1839.00
14.3369 1771.00
14.4021 1821.00
14.4673 1793.00
14.5325 1781.00
14.5977 1787.00
14.6629 1734.00
14.7281 1827.00
14.7933 1752.00
14.8585 1795.00
14.9237 1740.00
14.9889 1780.00
15.0541 1795.00
15.1193 1747.00
15.1845 1674.00
15.2497 1825.00
15.3149 1706.00
15.3801 1730.00
15.4453 1736.00
15.5105 1606.00
15.5757 1613.00
15.6409 1723.00
15.7061 1672.00
15.7713 1751.00
15.8365 1644.00
15.9017 1654.00
15.9669 1662.00
16.0321 1632.00
16.0973 1677.00
16.1625 1689.00
16.2277 1657.00
16.2929 1626.00
16.3581 1659.00
16.4233 1744.00
16.4885 1755.00
16.5537 1906.00
16.6189 1974.00
16.6841 1983.00
16.7493 2122.00
16.8145 2265.00
16.8797 2687.00
16.9449 3054.00
17.0101 2595.00
17.0753 1694.00
17.1405 1625.00
17.2057 1586.00
17.2709 1696.00
17.3361 1549.00
17.4013 1575.00
17.4665 1507.00
17.5317 1579.00
17.5969 1565.00
17.6621 1628.00
17.7273 1568.00
17.7925 1540.00
17.8577 1524.00
17.9229 1566.00
17.9881 1490.00
18.0533 1540.00
18.1185 1488.00
18.1837 1475.00
18.2489 1520.00
18.3141 1456.00
18.3793 1497.00
18.4445 1475.00
18.5097 1449.00
18.5749 1503.00
18.6401 1429.00
18.7052 1418.00
18.7704 1444.00
18.8356 1416.00
18.9008 1431.00
18.966 1462.00
19.0312 1462.00
19.0964 1438.00
19.1616 1387.00
19.2268 1311.00
19.292 1412.00
19.3572 1388.00
19.4224 1322.00
19.4876 1443.00
19.5528 1377.00
19.618 1397.00
19.6832 1383.00
19.7484 1346.00
19.8136 1383.00
19.8788 1404.00
19.944 1355.00
20.0092 1367.00
20.0744 1320.00
20.1396 1313.00
20.2048 1331.00
20.27 1337.00
20.3352 1290.00
20.4004 1372.00
20.4656 1285.00
20.5308 1327.00
20.596 1285.00
20.6612 1320.00
20.7264 1275.00
20.7916 1340.00
20.8568 1281.00
20.922 1262.00
20.9872 1319.00
21.0524 1321.00
21.1176 1281.00
21.1828 1352.00
21.248 1382.00
21.3132 1481.00
21.3784 1532.00
21.4436 1648.00
21.5088 1784.00
21.574 1999.00
21.6392 2321.00
21.7044 2837.00
21.7696 3595.00
21.8348 3221.00
21.9 1970.00
21.9652 1452.00
22.0304 1363.00
22.0956 1291.00
22.1608 1323.00
22.226 1323.00
22.2912 1176.00
22.3564 1192.00
22.4216 1233.00
22.4868 1241.00
22.552 1256.00
22.6172 1244.00
22.6824 1224.00
22.7476 1142.00
22.8128 1214.00
22.878 1165.00
22.9432 1164.00
23.0084 1108.00
23.0736 1153.00
23.1388 1206.00
23.204 1163.00
23.2692 1198.00
23.3344 1107.00
23.3996 1161.00
23.4647 1207.00
23.5299 1255.00
23.5951 1158.00
23.6603 1211.00
23.7255 1321.00
23.7907 1448.00
23.8559 1569.00
23.9211 1876.00
23.9863 2458.00
24.0515 2019.00
24.1167 1410.00
24.1819 1203.00
24.2471 1171.00
24.3123 1106.00
24.3775 1106.00
24.4427 1120.00
24.5079 1163.00
24.5731 1082.00
24.6383 1059.00
24.7035 1108.00
24.7687 1101.00
24.8339 1123.00
24.8991 1069.00
24.9643 1047.00
25.0295 1026.00
25.0947 1031.00
25.1599 1057.00
25.2251 1076.00
25.2903 1072.00
25.3555 1133.00
25.4207 985.00
25.4859 1015.00
25.5511 1088.00
25.6163 998.00
25.6815 1030.00
25.7467 1019.00
25.8119 1036.00
25.8771 1039.00
25.9423 1061.00
26.0075 1032.00
26.0727 949.00
26.1379 1010.00
26.2031 971.00
26.2683 1035.00
26.3335 955.00
26.3987 974.00
26.4639 1035.00
26.5291 1029.00
26.5943 974.00
26.6595 982.00
26.7247 1016.00
26.7899 1057.00
26.8551 982.00
26.9203 934.00
26.9855 992.00
27.0507 970.00
27.1159 996.00
27.1811 1002.00
27.2463 978.00
27.3115 994.00
27.3767 1019.00
27.4419 996.00
27.5071 1017.00
27.5723 1033.00
27.6375 939.00
27.7027 948.00
27.7679 976.00
27.8331 1022.00
27.8983 1014.00
27.9635 998.00
28.0287 958.00
28.0939 961.00
28.1591 971.00
28.2243 1027.00
28.2894 934.00
28.3546 965.00
28.4198 923.00
28.485 952.00
28.5502 924.00
28.6154 957.00
28.6806 987.00
28.7458 958.00
28.811 1025.00
28.8762 995.00
28.9414 1057.00
29.0066 1112.00
29.0718 1193.00
29.137 1522.00
29.2022 1847.00
29.2674 2620.00
29.3326 2875.00
29.3978 2311.00
29.463 1376.00
29.5282 1096.00
29.5934 987.00
29.6586 989.00
29.7238 968.00
29.789 1004.00
29.8542 1172.00
29.9194 1052.00
29.9846 1114.00
30.0498 1117.00
30.115 1204.00
30.1802 1208.00
30.2454 1243.00
30.3106 1449.00
30.3758 1725.00
30.441 2152.00
30.5062 2724.00
30.5714 3998.00
30.6366 6077.00
30.7018 9265.00
30.767 15255.00
30.8322 24894.00
30.8974 26467.00
30.9626 14720.00
31.0278 5122.00
31.093 2476.00
31.1582 1954.00
31.2234 1690.00
31.2886 1393.00
31.3538 1315.00
31.419 1159.00
31.4842 1109.00
31.5494 1018.00
31.6146 965.00
31.6798 979.00
31.745 974.00
31.8102 965.00
31.8754 965.00
31.9406 957.00
32.0058 916.00
32.071 964.00
32.1362 932.00
32.2014 905.00
32.2666 873.00
32.3318 910.00
32.397 877.00
32.4622 843.00
32.5274 840.00
32.5926 869.00
32.6578 816.00
32.723 868.00
32.7882 824.00
32.8534 842.00
32.9186 819.00
32.9838 820.00
33.0489 862.00
33.1141 832.00
33.1793 916.00
33.2445 1019.00
33.3097 1039.00
33.3749 1162.00
33.4401 1068.00
33.5053 941.00
33.5705 817.00
33.6357 879.00
33.7009 839.00
33.7661 911.00
33.8313 921.00
33.8965 980.00
33.9617 1120.00
34.0269 1176.00
34.0921 1087.00
34.1573 893.00
34.2225 835.00
34.2877 773.00
34.3529 831.00
34.4181 758.00
34.4833 869.00
34.5485 777.00
34.6137 784.00
34.6789 800.00
34.7441 812.00
34.8093 812.00
34.8745 810.00
34.9397 822.00
35.0049 843.00
35.0701 831.00
35.1353 871.00
35.2005 907.00
35.2657 1012.00
35.3309 1178.00
35.3961 1367.00
35.4613 1709.00
35.5265 2352.00
35.5917 3644.00
35.6569 5651.00
35.7221 8899.00
35.7873 7456.00
35.8525 4634.00
35.9177 1935.00
35.9829 1221.00
36.0481 1115.00
36.1133 944.00
36.1785 885.00
36.2437 866.00
36.3089 856.00
36.3741 720.00
36.4393 741.00
36.5045 730.00
36.5697 727.00
36.6349 724.00
36.7001 721.00
36.7653 741.00
36.8305 744.00
36.8957 716.00
36.9609 720.00
37.0261 752.00
37.0913 704.00
37.1565 711.00
37.2217 746.00
37.2869 702.00
37.3521 680.00
37.4173 698.00
37.4825 742.00
37.5477 766.00
37.6129 791.00
37.6781 846.00
37.7433 939.00
37.8085 1141.00
37.8736 1496.00
37.9388 2115.00
38.004 2057.00
38.0692 1568.00
38.1344 1109.00
38.1996 983.00
38.2648 776.00
38.33 803.00
38.3952 706.00
38.4604 719.00
38.5256 653.00
38.5908 686.00
38.656 687.00
38.7212 680.00
38.7864 647.00
38.8516 638.00
38.9168 676.00
38.982 656.00
39.0472 618.00
39.1124 698.00
39.1776 653.00
39.2428 658.00
39.308 665.00
39.3732 655.00
39.4384 629.00
39.5036 663.00
39.5688 615.00
39.634 622.00
39.6992 630.00
39.7644 645.00
39.8296 641.00
39.8948 733.00
39.96 774.00
40.0252 887.00
40.0904 959.00
40.1556 828.00
40.2208 734.00
40.286 632.00
40.3512 620.00
40.4164 616.00
40.4816 548.00
40.5468 625.00
40.612 645.00
40.6772 646.00
40.7424 616.00
40.8076 599.00
40.8728 630.00
40.938 629.00
41.0032 595.00
41.0684 609.00
41.1336 611.00
41.1988 583.00
41.264 619.00
41.3292 604.00
41.3944 585.00
41.4596 588.00
41.5248 601.00
41.59 560.00
41.6552 648.00
41.7204 611.00
41.7856 665.00
41.8508 774.00
41.916 877.00
41.9812 1054.00
42.0464 1389.00
42.1116 2048.00
42.1768 1554.00
42.242 1252.00
42.3072 802.00
42.3724 670.00
42.4376 660.00
42.5028 633.00
42.568 606.00
42.6332 565.00
42.6983 621.00
42.7635 597.00
42.8287 572.00
42.8939 568.00
42.9591 594.00
43.0243 580.00
43.0895 591.00
43.1547 565.00
43.2199 544.00
43.2851 594.00
43.3503 556.00
43.4155 585.00
43.4807 518.00
43.5459 589.00
43.6111 560.00
43.6763 601.00
43.7415 586.00
43.8067 591.00
43.8719 582.00
43.9371 638.00
44.0023 757.00
44.0675 834.00
44.1327 741.00
44.1979 735.00
44.2631 621.00
44.3283 632.00
44.3935 578.00
44.4587 567.00
44.5239 567.00
44.5891 582.00
44.6543 607.00
44.7195 554.00
44.7847 566.00
44.8499 591.00
44.9151 580.00
44.9803 597.00
45.0455 671.00
45.1107 640.00
45.1759 705.00
45.2411 858.00
45.3063 1081.00
45.3715 1554.00
45.4367 1375.00
45.5019 1109.00
45.5671 887.00
45.6323 766.00
45.6975 856.00
45.7627 1087.00
45.8279 1552.00
45.8931 2179.00
45.9583 2984.00
46.0235 2152.00
46.0887 1863.00
46.1539 1005.00
46.2191 684.00
46.2843 638.00
46.3495 544.00
46.4147 622.00
46.4799 603.00
46.5451 582.00
46.6103 545.00
46.6755 605.00
46.7407 507.00
46.8059 552.00
46.8711 521.00
46.9363 520.00
47.0015 527.00
47.0667 518.00
47.1319 530.00
47.1971 509.00
47.2623 556.00
47.3275 531.00
47.3927 532.00
47.4579 507.00
47.523 529.00
47.5882 539.00
47.6534 496.00
47.7186 535.00
47.7838 550.00
47.849 521.00
47.9142 529.00
47.9794 499.00
48.0446 534.00
48.1098 499.00
48.175 552.00
48.2402 583.00
48.3054 489.00
48.3706 515.00
48.4358 535.00
48.501 487.00
48.5662 508.00
48.6314 541.00
48.6966 549.00
48.7618 499.00
48.827 566.00
48.8922 499.00
48.9574 494.00
49.0226 507.00
49.0878 490.00
49.153 573.00
49.2182 544.00
49.2834 630.00
49.3486 650.00
49.4138 777.00
49.479 992.00
49.5442 1234.00
49.6094 1070.00
49.6746 896.00
49.7398 730.00
49.805 623.00
49.8702 622.00
49.9354 547.00
50.0006 531.00
50.0658 584.00
50.131 527.00
50.1962 573.00
50.2614 603.00
50.3266 590.00
50.3918 618.00
50.457 562.00
50.5222 539.00
50.5874 619.00
50.6526 703.00
50.7178 685.00
50.783 799.00
50.8482 913.00
50.9134 1137.00
50.9786 1371.00
51.0438 1946.00
51.109 3012.00
51.1742 5197.00
51.2394 9097.00
51.3046 10445.00
51.3698 6597.00
51.435 5730.00
51.5002 2346.00
51.5654 1406.00
51.6306 1028.00
51.6958 973.00
51.761 875.00
51.8262 756.00
51.8914 759.00
51.9566 626.00
52.0218 591.00
52.087 590.00
52.1522 580.00
52.2174 535.00
52.2826 551.00
52.3477 554.00
52.4129 523.00
52.4781 515.00
52.5433 537.00
52.6085 517.00
52.6737 612.00
52.7389 607.00
52.8041 731.00
52.8693 830.00
52.9345 1082.00
52.9997 1067.00
53.0649 885.00
53.1301 822.00
53.1953 635.00
53.2605 575.00
53.3257 556.00
53.3909 525.00
53.4561 492.00
53.5213 483.00
53.5865 486.00
53.6517 479.00
53.7169 479.00
53.7821 509.00
53.8473 507.00
53.9125 496.00
53.9777 478.00
54.0429 466.00
54.1081 523.00
54.1733 547.00
54.2385 469.00
54.3037 511.00
54.3689 524.00
54.4341 519.00
54.4993 594.00
54.5645 655.00
54.6297 765.00
54.6949 652.00
54.7601 634.00
54.8253 573.00
54.8905 584.00
54.9557 530.00
55.0209 487.00
55.0861 515.00
55.1513 473.00
55.2165 525.00
55.2817 557.00
55.3469 489.00
55.4121 501.00
55.4773 478.00
55.5425 479.00
55.6077 469.00
55.6729 464.00
55.7381 500.00
55.8033 536.00
55.8685 606.00
55.9337 600.00
55.9989 678.00
56.0641 885.00
56.1293 1126.00
56.1945 1645.00
56.2597 1725.00
56.3249 1185.00
56.3901 1250.00
56.4553 750.00
56.5205 631.00
56.5857 572.00
56.6509 527.00
56.7161 510.00
56.7813 476.00
56.8465 474.00
56.9117 446.00
56.9769 461.00
57.042 486.00
57.1073 450.00
57.1724 391.00
57.2376 448.00
57.3028 459.00
57.368 532.00
57.4332 468.00
57.4984 537.00
57.5636 564.00
57.6288 707.00
57.694 867.00
57.7592 918.00
57.8244 975.00
57.8896 715.00
57.9548 664.00
58.02 594.00
58.0852 527.00
58.1504 487.00
58.2156 474.00
58.2808 467.00
58.346 440.00
58.4112 501.00
58.4764 467.00
58.5416 446.00
58.6068 500.00
58.672 469.00
58.7372 521.00
58.8024 526.00
58.8676 509.00
58.9328 512.00
58.998 526.00
59.0632 544.00
59.1284 618.00
59.1936 716.00
59.2588 907.00
59.324 1282.00
59.3892 1639.00
59.4544 1178.00
59.5196 1108.00
59.5848 887.00
59.65 655.00
59.7152 580.00
59.7804 545.00
59.8456 495.00
59.9108 571.00
59.976 535.00
60.0412 527.00
60.1064 479.00
60.1716 561.00
60.2368 642.00
60.302 727.00
60.3672 781.00
60.4324 823.00
60.4976 813.00
60.5628 1066.00
60.628 1279.00
60.6932 1679.00
60.7584 2593.00
60.8236 4524.00
60.8888 7434.00
60.954 6041.00
61.0192 4199.00
61.0844 4153.00
61.1496 2176.00
61.2148 1206.00
61.28 891.00
61.3452 830.00
61.4104 755.00
61.4756 570.00
61.5408 593.00
61.606 592.00
61.6712 587.00
61.7364 578.00
61.8016 563.00
61.8667 565.00
61.932 548.00
61.9971 522.00
62.0623 587.00
62.1275 628.00
62.1927 702.00
62.2579 906.00
62.3231 1192.00
62.3883 1813.00
62.4535 1741.00
62.5187 1207.00
62.5839 1300.00
62.6491 900.00
62.7143 628.00
62.7795 600.00
62.8447 535.00
62.9099 494.00
62.9751 470.00
63.0403 495.00
63.1055 524.00
63.1707 494.00
63.2359 569.00
63.3011 516.00
63.3663 598.00
63.4315 605.00
63.4967 552.00
63.5619 586.00
63.6271 598.00
63.6923 669.00
63.7575 784.00
63.8227 1238.00
63.8879 1773.00
63.9531 1490.00
64.0183 1135.00
64.0835 1168.00
64.1487 789.00
64.2139 599.00
64.2791 508.00
64.3443 496.00
64.4095 489.00
64.4747 440.00
64.5399 460.00
64.6051 411.00
64.6703 404.00
64.7355 472.00
64.8007 412.00
64.8659 470.00
64.9311 442.00
64.9963 431.00
65.0615 479.00
65.1267 524.00
65.1919 544.00
65.2571 619.00
65.3223 797.00
65.3875 969.00
65.4527 677.00
65.5179 712.00
65.5831 699.00
65.6483 534.00
65.7135 454.00
65.7787 460.00
65.8439 413.00
65.9091 416.00
65.9743 411.00
66.0395 457.00
66.1047 443.00
66.1699 422.00
66.2351 447.00
66.3003 453.00
66.3655 406.00
66.4307 467.00
66.4959 455.00
66.561 490.00
66.6263 496.00
66.6915 521.00
66.7566 586.00
66.8218 738.00
66.887 653.00
66.9522 597.00
67.0174 617.00
67.0826 488.00
67.1478 429.00
67.213 415.00
67.2782 394.00
67.3434 408.00
67.4086 391.00
67.4738 387.00
67.539 389.00
67.6042 437.00
67.6694 428.00
67.7346 450.00
67.7998 457.00
67.865 471.00
67.9302 503.00
67.9954 487.00
68.0606 560.00
68.1258 674.00
68.191 874.00
68.2562 1227.00
68.3214 979.00
68.3866 808.00
68.4518 866.00
68.517 702.00
68.5822 596.00
68.6474 588.00
68.7126 473.00
68.7778 513.00
68.843 473.00
68.9082 461.00
68.9734 411.00
69.0386 421.00
69.1038 432.00
69.169 455.00
69.2342 423.00
69.2994 440.00
69.3646 440.00
69.4298 458.00
69.495 493.00
69.5602 551.00
69.6254 718.00
69.6906 825.00
69.7558 642.00
69.821 562.00
69.8862 648.00
69.9514 498.00
70.0166 439.00
70.0818 420.00
70.147 441.00
70.2122 397.00
70.2774 413.00
70.3426 411.00
70.4078 410.00
70.473 358.00
70.5382 388.00
70.6034 379.00
70.6686 420.00
70.7338 388.00
70.799 397.00
70.8642 394.00
70.9294 470.00
70.9946 531.00
71.0598 477.00
71.125 438.00
71.1902 432.00
71.2554 476.00
71.3205 416.00
71.3858 391.00
71.451 392.00
71.5162 386.00
71.5813 414.00
71.6465 382.00
71.7117 389.00
71.7769 414.00
71.8421 386.00
71.9073 392.00
71.9725 404.00
72.0377 382.00
72.1029 378.00
72.1681 438.00
72.2333 407.00
72.2985 401.00
72.3637 389.00
72.4289 369.00
72.4941 410.00
72.5593 382.00
72.6245 363.00
72.6897 381.00
72.7549 419.00
72.8201 356.00
72.8853 388.00
72.9505 377.00
73.0157 379.00
73.0809 377.00
73.1461 399.00
73.2113 409.00
73.2765 402.00
73.3417 437.00
73.4069 409.00
73.4721 392.00
73.5373 420.00
73.6025 475.00
73.6677 538.00
73.7329 567.00
73.7981 738.00
73.8633 924.00
73.9285 858.00
73.9937 635.00
74.0589 673.00
74.1241 665.00
74.1893 498.00
74.2545 406.00
74.3197 427.00
74.3849 379.00
74.4501 399.00
74.5153 392.00
74.5805 441.00
74.6457 401.00
74.7109 433.00
74.7761 410.00
74.8413 440.00
74.9065 423.00
74.9717 472.00
75.0369 534.00
75.1021 620.00
75.1673 858.00
75.2325 1214.00
75.2977 1158.00
75.3629 803.00
75.4281 843.00
75.4933 794.00
75.5585 587.00
75.6237 477.00
75.6889 420.00
75.7541 445.00
75.8193 435.00
75.8845 412.00
75.9497 478.00
76.0149 495.00
76.0801 527.00
76.1452 429.00
76.2104 449.00
76.2756 490.00
76.3409 510.00
76.406 553.00
76.4712 659.00
76.5364 817.00
76.6016 1212.00
76.6668 1130.00
76.732 804.00
76.7972 766.00
76.8624 887.00
76.9276 583.00
76.9928 507.00
77.058 418.00
77.1232 453.00
77.1884 400.00
77.2536 425.00
77.3188 424.00
77.384 420.00
77.4492 398.00
77.5144 398.00
77.5796 407.00
77.6448 425.00
77.71 440.00
77.7752 466.00
77.8404 524.00
77.9056 665.00
77.9708 843.00
78.036 790.00
78.1012 579.00
78.1664 666.00
78.2316 721.00
78.2968 537.00
78.362 446.00
78.4272 442.00
78.4924 448.00
78.5576 477.00
78.6228 451.00
78.688 462.00
78.7532 482.00
78.8184 452.00
78.8836 429.00
78.9488 448.00
79.014 468.00
79.0792 420.00
79.1444 469.00
79.2096 590.00
79.2748 718.00
79.34 834.00
79.4052 710.00
79.4704 616.00
79.5356 674.00
79.6008 639.00
79.666 458.00
79.7312 408.00
79.7964 395.00
79.8616 373.00
79.9268 396.00
79.992 362.00
80.0572 332.00
80.1224 351.00
80.1876 421.00
80.2528 384.00
80.318 402.00
80.3832 425.00
80.4484 400.00
80.5136 480.00
80.5788 517.00
80.644 655.00
80.7092 655.00
80.7744 538.00
80.8396 493.00
80.9048 525.00
80.9699 503.00
81.0351 420.00
81.1003 429.00
81.1655 466.00
81.2307 481.00
81.2959 414.00
81.3611 382.00
81.4263 451.00
81.4915 428.00
81.5567 406.00
81.6219 414.00
81.6871 450.00
81.7523 490.00
81.8175 513.00
81.8827 599.00
81.9479 784.00
82.0131 1090.00
82.0783 1030.00
82.1435 686.00
82.2087 747.00
82.2739 745.00
82.3391 600.00
82.4043 479.00
82.4695 463.00
82.5347 429.00
82.5999 388.00
82.6651 409.00
82.7303 403.00
82.7955 436.00
82.8607 463.00
82.9259 471.00
82.9911 473.00
83.0563 530.00
83.1215 600.00
83.1867 810.00
83.2519 1111.00
83.3171 1632.00
83.3823 1924.00
83.4475 1303.00
83.5127 980.00
83.5779 1129.00
83.6431 1275.00
83.7083 774.00
83.7735 576.00
83.8387 483.00
83.9039 456.00
83.9691 412.00
84.0343 440.00
84.0995 346.00
84.1647 397.00
84.2299 388.00
84.2951 364.00
84.3603 361.00
84.4255 340.00
84.4907 387.00
84.5559 392.00
84.6211 359.00
84.6863 406.00
84.7515 391.00
84.8167 380.00
84.8819 347.00
84.9471 351.00
85.0123 371.00
85.0775 372.00
85.1427 379.00
85.2079 362.00
85.2731 390.00
85.3383 395.00
85.4035 405.00
85.4687 386.00
85.5339 412.00
85.5991 394.00
85.6643 461.00
85.7295 487.00
85.7946 522.00
85.8598 677.00
85.925 891.00
85.9903 1266.00
86.0554 1350.00
86.1206 938.00
86.1858 853.00
86.251 946.00
86.3162 919.00
86.3814 660.00
86.4466 505.00
86.5118 468.00
86.577 453.00
86.6422 406.00
86.7074 366.00
86.7726 405.00
86.8378 381.00
86.903 396.00
86.9682 400.00
87.0334 417.00
87.0986 371.00
87.1638 426.00
87.229 444.00
87.2942 504.00
87.3594 538.00
87.4246 474.00
87.4898 453.00
87.555 413.00
87.6202 443.00
87.6854 448.00
87.7506 368.00
87.8158 408.00
87.881 409.00
87.9462 439.00
88.0114 372.00
88.0766 383.00
88.1418 377.00
88.207 386.00
88.2722 390.00
88.3374 420.00
88.4026 415.00
88.4678 449.00
88.533 477.00
88.5982 574.00
88.6634 637.00
88.7286 555.00
88.7938 500.00
88.859 455.00
88.9242 473.00
88.9894 463.00
89.0546 407.00
89.1198 413.00
89.185 410.00
89.2502 330.00
89.3154 390.00
89.3806 357.00
89.4458 372.00
89.511 389.00
89.5762 351.00
89.6414 402.00
89.7066 408.00
89.7718 429.00
89.837 505.00
89.9022 592.00
89.9674 780.00
90.0326 914.00
90.0978 654.00
90.163 527.00
90.2282 574.00
90.2934 636.00
90.3586 538.00
90.4238 423.00
90.489 390.00
90.5542 367.00
90.6193 387.00
90.6845 384.00
90.7497 322.00
90.8149 342.00
90.8801 358.00
90.9453 364.00
91.0105 354.00
91.0757 368.00
91.1409 389.00
91.2061 380.00
91.2713 387.00
91.3365 404.00
91.4017 359.00
91.4669 365.00
91.5321 402.00
91.5973 397.00
91.6625 396.00
91.7277 345.00
91.7929 329.00
91.8581 354.00
91.9233 364.00
91.9885 381.00
92.0537 360.00
92.1189 399.00
92.1841 368.00
92.2493 392.00
92.3145 389.00
92.3797 398.00
92.4449 443.00
92.5101 517.00
92.5753 633.00
92.6405 858.00
92.7057 803.00
92.7709 608.00
92.8361 555.00
92.9013 548.00
92.9665 629.00
93.0317 495.00
93.0969 458.00
93.1621 401.00
93.2273 407.00
93.2925 345.00
93.3577 395.00
93.4229 377.00
93.4881 382.00
93.5533 378.00
93.6185 385.00
93.6837 374.00
93.7489 346.00
93.8141 327.00
93.8793 356.00
93.9445 343.00
94.0097 315.00
94.0749 354.00
94.1401 340.00
94.2053 347.00
94.2705 357.00
94.3357 363.00
94.4009 352.00
94.4661 365.00
94.5313 353.00
94.5965 401.00
94.6617 385.00
94.7269 398.00
94.7921 396.00
94.8573 375.00
94.9225 410.00
94.9877 394.00
95.0529 447.00
95.1181 496.00
95.1833 557.00
95.2485 731.00
95.3137 882.00
95.3789 750.00
95.444 538.00
95.5092 527.00
95.5744 580.00
95.6396 619.00
95.7048 551.00
95.77 466.00
95.8352 400.00
95.9004 451.00
95.9656 455.00
96.0308 422.00
96.096 394.00
96.1612 451.00
96.2264 404.00
96.2916 466.00
96.3568 489.00
96.422 570.00
96.4872 688.00
96.5524 850.00
96.6176 1204.00
96.6828 1205.00
96.748 920.00
96.8132 740.00
96.8784 728.00
96.9436 834.00
97.0088 813.00
97.074 565.00
97.1392 479.00
97.2044 454.00
97.2696 444.00
97.3348 397.00
97.4 416.00
97.4652 451.00
97.5304 393.00
97.5956 446.00
97.6608 418.00
97.726 458.00
97.7912 483.00
97.8564 574.00
97.9216 724.00
97.9868 879.00
98.052 766.00
98.1172 622.00
98.1824 628.00
98.2476 609.00
98.3128 635.00
98.378 575.00
98.4432 453.00
98.5084 440.00
98.5736 410.00
98.6388 406.00
98.704 376.00
98.7692 398.00
98.8344 391.00
98.8996 384.00
98.9648 379.00
99.03 420.00
99.0952 426.00
99.1604 479.00
99.2256 541.00
99.2908 681.00
99.356 640.00
99.4212 531.00
99.4864 457.00
99.5516 490.00
99.6168 532.00
99.682 517.00
99.7472 459.00
99.8124 367.00
99.8776 388.00
99.9428 395.00
100.008 381.00
100.073 385.00
100.095 345.00