File: data/xrd_creation/results/PG_1847-1.xy
9.903433 2497.00
9.968632 2510.00
10.0338 2450.00
10.099 2421.00
10.1642 2591.00
10.2294 2453.00
10.2946 2325.00
10.3598 2461.00
10.425 2464.00
10.4902 2353.00
10.5554 2289.00
10.6206 2262.00
10.6858 2352.00
10.751 2259.00
10.8162 2284.00
10.8814 2264.00
10.9466 2400.00
11.0118 2268.00
11.077 2239.00
11.1422 2232.00
11.2074 2176.00
11.2726 2163.00
11.3378 2078.00
11.403 2115.00
11.4682 2116.00
11.5334 2119.00
11.5986 2058.00
11.6638 1963.00
11.729 2007.00
11.7942 1958.00
11.8594 1933.00
11.9246 1948.00
11.9898 2026.00
12.055 1914.00
12.1202 1962.00
12.1854 1944.00
12.2506 1935.00
12.3158 1921.00
12.381 1910.00
12.4462 1887.00
12.5114 1841.00
12.5766 1913.00
12.6418 1782.00
12.707 1836.00
12.7722 1800.00
12.8374 1828.00
12.9026 1764.00
12.9678 1778.00
13.033 1739.00
13.0982 1832.00
13.1634 1723.00
13.2286 1742.00
13.2938 1742.00
13.359 1755.00
13.4242 1728.00
13.4894 1671.00
13.5546 1660.00
13.6198 1715.00
13.685 1680.00
13.7502 1589.00
13.8154 1584.00
13.8805 1681.00
13.9457 1634.00
14.0109 1680.00
14.0761 1679.00
14.1413 1590.00
14.2065 1611.00
14.2717 1568.00
14.3369 1594.00
14.4021 1611.00
14.4673 1644.00
14.5325 1619.00
14.5977 1569.00
14.6629 1686.00
14.7281 1516.00
14.7933 1592.00
14.8585 1546.00
14.9237 1517.00
14.9889 1532.00
15.0541 1542.00
15.1193 1561.00
15.1845 1470.00
15.2497 1516.00
15.3149 1630.00
15.3801 1473.00
15.4453 1517.00
15.5105 1464.00
15.5757 1522.00
15.6409 1552.00
15.7061 1451.00
15.7713 1480.00
15.8365 1482.00
15.9017 1512.00
15.9669 1491.00
16.0321 1444.00
16.0973 1417.00
16.1625 1464.00
16.2277 1433.00
16.2929 1423.00
16.3581 1387.00
16.4233 1471.00
16.4885 1458.00
16.5537 1377.00
16.6189 1431.00
16.6841 1383.00
16.7493 1441.00
16.8145 1369.00
16.8797 1361.00
16.9449 1420.00
17.0101 1457.00
17.0753 1450.00
17.1405 1391.00
17.2057 1381.00
17.2709 1435.00
17.3361 1341.00
17.4013 1397.00
17.4665 1329.00
17.5317 1348.00
17.5969 1350.00
17.6621 1393.00
17.7273 1275.00
17.7925 1364.00
17.8577 1403.00
17.9229 1339.00
17.9881 1331.00
18.0533 1243.00
18.1185 1348.00
18.1837 1426.00
18.2489 1296.00
18.3141 1337.00
18.3793 1401.00
18.4445 1452.00
18.5097 1460.00
18.5749 1571.00
18.6401 1761.00
18.7052 2001.00
18.7704 2417.00
18.8356 3346.00
18.9008 4994.00
18.966 6371.00
19.0312 2888.00
19.0964 1466.00
19.1616 1403.00
19.2268 1327.00
19.292 1363.00
19.3572 1350.00
19.4224 1269.00
19.4876 1237.00
19.5528 1269.00
19.618 1193.00
19.6832 1188.00
19.7484 1211.00
19.8136 1253.00
19.8788 1262.00
19.944 1173.00
20.0092 1233.00
20.0744 1168.00
20.1396 1186.00
20.2048 1176.00
20.27 1194.00
20.3352 1206.00
20.4004 1212.00
20.4656 1219.00
20.5308 1230.00
20.596 1257.00
20.6612 1242.00
20.7264 1240.00
20.7916 1250.00
20.8568 1351.00
20.922 1424.00
20.9872 1756.00
21.0524 2192.00
21.1176 3051.00
21.1828 4533.00
21.248 3195.00
21.3132 1410.00
21.3784 1151.00
21.4436 1201.00
21.5088 1184.00
21.574 1149.00
21.6392 1094.00
21.7044 1124.00
21.7696 1155.00
21.8348 1095.00
21.9 1149.00
21.9652 1144.00
22.0304 1084.00
22.0956 1059.00
22.1608 1002.00
22.226 1058.00
22.2912 1002.00
22.3564 1074.00
22.4216 1010.00
22.4868 1023.00
22.552 1096.00
22.6172 1011.00
22.6824 1075.00
22.7476 1073.00
22.8128 1045.00
22.878 1065.00
22.9432 1027.00
23.0084 1071.00
23.0736 1243.00
23.1388 1267.00
23.204 1569.00
23.2692 2070.00
23.3344 3167.00
23.3996 3528.00
23.4647 1743.00
23.5299 1082.00
23.5951 1055.00
23.6603 1068.00
23.7255 976.00
23.7907 1021.00
23.8559 924.00
23.9211 1029.00
23.9863 1013.00
24.0515 958.00
24.1167 975.00
24.1819 1060.00
24.2471 956.00
24.3123 921.00
24.3775 927.00
24.4427 957.00
24.5079 1005.00
24.5731 948.00
24.6383 929.00
24.7035 913.00
24.7687 978.00
24.8339 1039.00
24.8991 1038.00
24.9643 1028.00
25.0295 1171.00
25.0947 1407.00
25.1599 2047.00
25.2251 2823.00
25.2903 1895.00
25.3555 1075.00
25.4207 904.00
25.4859 960.00
25.5511 869.00
25.6163 856.00
25.6815 940.00
25.7467 896.00
25.8119 882.00
25.8771 873.00
25.9423 889.00
26.0075 862.00
26.0727 880.00
26.1379 845.00
26.2031 830.00
26.2683 889.00
26.3335 825.00
26.3987 850.00
26.4639 833.00
26.5291 898.00
26.5943 962.00
26.6595 919.00
26.7247 809.00
26.7899 864.00
26.8551 847.00
26.9203 880.00
26.9855 861.00
27.0507 846.00
27.1159 837.00
27.1811 916.00
27.2463 957.00
27.3115 992.00
27.3767 1266.00
27.4419 1538.00
27.5071 1158.00
27.5723 850.00
27.6375 865.00
27.7027 815.00
27.7679 844.00
27.8331 816.00
27.8983 828.00
27.9635 794.00
28.0287 783.00
28.0939 800.00
28.1591 766.00
28.2243 824.00
28.2894 804.00
28.3546 788.00
28.4198 787.00
28.485 737.00
28.5502 816.00
28.6154 729.00
28.6806 795.00
28.7458 784.00
28.811 745.00
28.8762 766.00
28.9414 757.00
29.0066 749.00
29.0718 790.00
29.137 773.00
29.2022 740.00
29.2674 711.00
29.3326 760.00
29.3978 777.00
29.463 771.00
29.5282 708.00
29.5934 668.00
29.6586 719.00
29.7238 755.00
29.789 757.00
29.8542 758.00
29.9194 729.00
29.9846 696.00
30.0498 791.00
30.115 793.00
30.1802 720.00
30.2454 732.00
30.3106 764.00
30.3758 739.00
30.441 721.00
30.5062 727.00
30.5714 795.00
30.6366 743.00
30.7018 782.00
30.767 725.00
30.8322 801.00
30.8974 846.00
30.9626 848.00
31.0278 832.00
31.093 804.00
31.1582 828.00
31.2234 1059.00
31.2886 1812.00
31.3538 3277.00
31.419 4077.00
31.4842 2401.00
31.5494 1051.00
31.6146 808.00
31.6798 771.00
31.745 736.00
31.8102 701.00
31.8754 688.00
31.9406 759.00
32.0058 715.00
32.071 687.00
32.1362 693.00
32.2014 715.00
32.2666 763.00
32.3318 693.00
32.397 736.00
32.4622 721.00
32.5274 699.00
32.5926 739.00
32.6578 694.00
32.723 761.00
32.7882 754.00
32.8534 715.00
32.9186 782.00
32.9838 819.00
33.0489 828.00
33.1141 907.00
33.1793 1275.00
33.2445 2214.00
33.3097 5183.00
33.3749 10525.00
33.4401 8105.00
33.5053 4375.00
33.5705 1136.00
33.6357 922.00
33.7009 811.00
33.7661 775.00
33.8313 699.00
33.8965 683.00
33.9617 699.00
34.0269 643.00
34.0921 688.00
34.1573 656.00
34.2225 636.00
34.2877 751.00
34.3529 666.00
34.4181 724.00
34.4833 717.00
34.5485 679.00
34.6137 777.00
34.6789 1144.00
34.7441 1710.00
34.8093 1360.00
34.8745 1006.00
34.9397 688.00
35.0049 694.00
35.0701 732.00
35.1353 728.00
35.2005 713.00
35.2657 737.00
35.3309 949.00
35.3961 1488.00
35.4613 2987.00
35.5265 5795.00
35.5917 4075.00
35.6569 2645.00
35.7221 972.00
35.7873 808.00
35.8525 742.00
35.9177 668.00
35.9829 674.00
36.0481 631.00
36.1133 672.00
36.1785 543.00
36.2437 645.00
36.3089 623.00
36.3741 614.00
36.4393 629.00
36.5045 614.00
36.5697 629.00
36.6349 581.00
36.7001 631.00
36.7653 638.00
36.8305 604.00
36.8957 616.00
36.9609 578.00
37.0261 600.00
37.0913 570.00
37.1565 571.00
37.2217 567.00
37.2869 554.00
37.3521 584.00
37.4173 565.00
37.4825 588.00
37.5477 614.00
37.6129 610.00
37.6781 544.00
37.7433 543.00
37.8085 601.00
37.8736 661.00
37.9388 753.00
38.004 971.00
38.0692 918.00
38.1344 841.00
38.1996 706.00
38.2648 623.00
38.33 585.00
38.3952 571.00
38.4604 586.00
38.5256 586.00
38.5908 554.00
38.656 572.00
38.7212 527.00
38.7864 559.00
38.8516 556.00
38.9168 587.00
38.982 520.00
39.0472 572.00
39.1124 564.00
39.1776 562.00
39.2428 566.00
39.308 561.00
39.3732 537.00
39.4384 595.00
39.5036 540.00
39.5688 514.00
39.634 558.00
39.6992 580.00
39.7644 469.00
39.8296 547.00
39.8948 567.00
39.96 572.00
40.0252 547.00
40.0904 526.00
40.1556 539.00
40.2208 487.00
40.286 539.00
40.3512 559.00
40.4164 636.00
40.4816 963.00
40.5468 1105.00
40.612 804.00
40.6772 641.00
40.7424 592.00
40.8076 550.00
40.8728 526.00
40.938 499.00
41.0032 580.00
41.0684 526.00
41.1336 552.00
41.1988 520.00
41.264 483.00
41.3292 542.00
41.3944 541.00
41.4596 531.00
41.5248 604.00
41.59 539.00
41.6552 548.00
41.7204 548.00
41.7856 624.00
41.8508 748.00
41.916 1453.00
41.9812 2970.00
42.0464 1948.00
42.1116 1764.00
42.1768 761.00
42.242 615.00
42.3072 570.00
42.3724 558.00
42.4376 560.00
42.5028 590.00
42.568 604.00
42.6332 893.00
42.6983 1705.00
42.7635 1267.00
42.8287 1207.00
42.8939 625.00
42.9591 469.00
43.0243 520.00
43.0895 537.00
43.1547 522.00
43.2199 485.00
43.2851 483.00
43.3503 481.00
43.4155 488.00
43.4807 505.00
43.5459 475.00
43.6111 467.00
43.6763 508.00
43.7415 474.00
43.8067 528.00
43.8719 505.00
43.9371 523.00
44.0023 508.00
44.0675 482.00
44.1327 506.00
44.1979 479.00
44.2631 457.00
44.3283 503.00
44.3935 494.00
44.4587 479.00
44.5239 487.00
44.5891 523.00
44.6543 460.00
44.7195 466.00
44.7847 490.00
44.8499 507.00
44.9151 447.00
44.9803 526.00
45.0455 496.00
45.1107 550.00
45.1759 745.00
45.2411 1363.00
45.3063 1927.00
45.3715 1076.00
45.4367 1058.00
45.5019 564.00
45.5671 522.00
45.6323 459.00
45.6975 514.00
45.7627 556.00
45.8279 530.00
45.8931 490.00
45.9583 514.00
46.0235 516.00
46.0887 489.00
46.1539 487.00
46.2191 529.00
46.2843 468.00
46.3495 465.00
46.4147 459.00
46.4799 472.00
46.5451 465.00
46.6103 478.00
46.6755 515.00
46.7407 539.00
46.8059 731.00
46.8711 889.00
46.9363 650.00
47.0015 644.00
47.0667 546.00
47.1319 589.00
47.1971 747.00
47.2623 1604.00
47.3275 3815.00
47.3927 2659.00
47.4579 2294.00
47.523 1199.00
47.5882 609.00
47.6534 577.00
47.7186 526.00
47.7838 527.00
47.849 466.00
47.9142 455.00
47.9794 467.00
48.0446 458.00
48.1098 450.00
48.175 458.00
48.2402 478.00
48.3054 481.00
48.3706 471.00
48.4358 457.00
48.501 463.00
48.5662 478.00
48.6314 431.00
48.6966 468.00
48.7618 482.00
48.827 589.00
48.8922 949.00
48.9574 1004.00
49.0226 737.00
49.0878 689.00
49.153 523.00
49.2182 489.00
49.2834 454.00
49.3486 449.00
49.4138 434.00
49.479 402.00
49.5442 419.00
49.6094 431.00
49.6746 463.00
49.7398 435.00
49.805 448.00
49.8702 465.00
49.9354 480.00
50.0006 436.00
50.0658 431.00
50.131 468.00
50.1962 435.00
50.2614 432.00
50.3266 442.00
50.3918 427.00
50.457 452.00
50.5222 427.00
50.5874 434.00
50.6526 440.00
50.7178 466.00
50.783 482.00
50.8482 470.00
50.9134 597.00
50.9786 923.00
51.0438 644.00
51.109 704.00
51.1742 620.00
51.2394 918.00
51.3046 2304.00
51.3698 2282.00
51.435 1393.00
51.5002 1321.00
51.5654 609.00
51.6306 519.00
51.6958 459.00
51.761 474.00
51.8262 454.00
51.8914 479.00
51.9566 445.00
52.0218 454.00
52.087 404.00
52.1522 433.00
52.2174 451.00
52.2826 427.00
52.3477 425.00
52.4129 477.00
52.4781 431.00
52.5433 444.00
52.6085 431.00
52.6737 412.00
52.7389 393.00
52.8041 430.00
52.8693 427.00
52.9345 431.00
52.9997 461.00
53.0649 446.00
53.1301 419.00
53.1953 455.00
53.2605 433.00
53.3257 411.00
53.3909 444.00
53.4561 483.00
53.5213 460.00
53.5865 430.00
53.6517 429.00
53.7169 712.00
53.7821 910.00
53.8473 583.00
53.9125 741.00
53.9777 460.00
54.0429 428.00
54.1081 443.00
54.1733 408.00
54.2385 430.00
54.3037 419.00
54.3689 434.00
54.4341 427.00
54.4993 385.00
54.5645 399.00
54.6297 428.00
54.6949 441.00
54.7601 446.00
54.8253 431.00
54.8905 487.00
54.9557 423.00
55.0209 404.00
55.0861 443.00
55.1513 459.00
55.2165 435.00
55.2817 467.00
55.3469 449.00
55.4121 480.00
55.4773 621.00
55.5425 706.00
55.6077 561.00
55.6729 662.00
55.7381 581.00
55.8033 493.00
55.8685 560.00
55.9337 489.00
55.9989 511.00
56.0641 813.00
56.1293 1460.00
56.1945 1024.00
56.2597 968.00
56.3249 905.00
56.3901 653.00
56.4553 837.00
56.5205 1644.00
56.5857 1127.00
56.6509 1062.00
56.7161 1342.00
56.7813 2064.00
56.8465 3425.00
56.9117 1295.00
56.9769 1915.00
57.042 941.00
57.1073 519.00
57.1724 491.00
57.2376 538.00
57.3028 691.00
57.368 543.00
57.4332 515.00
57.4984 513.00
57.5636 476.00
57.6288 425.00
57.694 464.00
57.7592 433.00
57.8244 429.00
57.8896 403.00
57.9548 465.00
58.02 436.00
58.0852 494.00
58.1504 640.00
58.2156 1276.00
58.2808 1749.00
58.346 885.00
58.4112 1369.00
58.4764 705.00
58.5416 585.00
58.6068 499.00
58.672 469.00
58.7372 450.00
58.8024 415.00
58.8676 411.00
58.9328 435.00
58.998 429.00
59.0632 421.00
59.1284 427.00
59.1936 437.00
59.2588 441.00
59.324 408.00
59.3892 479.00
59.4544 415.00
59.5196 466.00
59.5848 609.00
59.65 1107.00
59.7152 1102.00
59.7804 698.00
59.8456 885.00
59.9108 571.00
59.976 433.00
60.0412 480.00
60.1064 501.00
60.1716 453.00
60.2368 463.00
60.302 449.00
60.3672 490.00
60.4324 485.00
60.4976 887.00
60.5628 1230.00
60.628 643.00
60.6932 842.00
60.7584 701.00
60.8236 532.00
60.8888 555.00
60.954 567.00
61.0192 593.00
61.0844 642.00
61.1496 1295.00
61.2148 3785.00
61.28 2815.00
61.3452 1556.00
61.4104 2431.00
61.4756 927.00
61.5408 550.00
61.606 496.00
61.6712 449.00
61.7364 425.00
61.8016 424.00
61.8667 440.00
61.932 424.00
61.9971 404.00
62.0623 430.00
62.1275 425.00
62.1927 419.00
62.2579 403.00
62.3231 419.00
62.3883 375.00
62.4535 428.00
62.5187 428.00
62.5839 401.00
62.6491 400.00
62.7143 384.00
62.7795 442.00
62.8447 455.00
62.9099 373.00
62.9751 405.00
63.0403 409.00
63.1055 418.00
63.1707 408.00
63.2359 409.00
63.3011 379.00
63.3663 435.00
63.4315 441.00
63.4967 421.00
63.5619 434.00
63.6271 425.00
63.6923 532.00
63.7575 1016.00
63.8227 1064.00
63.8879 588.00
63.9531 770.00
64.0183 655.00
64.0835 465.00
64.1487 419.00
64.2139 440.00
64.2791 432.00
64.3443 400.00
64.4095 423.00
64.4747 387.00
64.5399 431.00
64.6051 395.00
64.6703 419.00
64.7355 414.00
64.8007 414.00
64.8659 482.00
64.9311 513.00
64.9963 1054.00
65.0615 1207.00
65.1267 574.00
65.1919 878.00
65.2571 697.00
65.3223 600.00
65.3875 1051.00
65.4527 756.00
65.5179 1054.00
65.5831 1645.00
65.6483 725.00
65.7135 773.00
65.7787 845.00
65.8439 540.00
65.9091 628.00
65.9743 817.00
66.0395 466.00
66.1047 551.00
66.1699 552.00
66.2351 460.00
66.3003 454.00
66.3655 401.00
66.4307 382.00
66.4959 421.00
66.561 413.00
66.6263 389.00
66.6915 390.00
66.7566 385.00
66.8218 371.00
66.887 391.00
66.9522 399.00
67.0174 370.00
67.0826 384.00
67.1478 396.00
67.213 423.00
67.2782 354.00
67.3434 418.00
67.4086 410.00
67.4738 438.00
67.539 415.00
67.6042 412.00
67.6694 479.00
67.7346 427.00
67.7998 448.00
67.865 479.00
67.9302 640.00
67.9954 1690.00
68.0606 1988.00
68.1258 781.00
68.191 1122.00
68.2562 1085.00
68.3214 518.00
68.3866 427.00
68.4518 431.00
68.517 396.00
68.5822 403.00
68.6474 387.00
68.7126 370.00
68.7778 383.00
68.843 406.00
68.9082 409.00
68.9734 440.00
69.0386 557.00
69.1038 841.00
69.169 458.00
69.2342 489.00
69.2994 613.00
69.3646 419.00
69.4298 414.00
69.495 418.00
69.5602 596.00
69.6254 831.00
69.6906 475.00
69.7558 490.00
69.821 598.00
69.8862 508.00
69.9514 394.00
70.0166 388.00
70.0818 387.00
70.147 420.00
70.2122 411.00
70.2774 391.00
70.3426 401.00
70.4078 385.00
70.473 390.00
70.5382 386.00
70.6034 361.00
70.6686 423.00
70.7338 515.00
70.799 498.00
70.8642 413.00
70.9294 446.00
70.9946 487.00
71.0598 365.00
71.125 365.00
71.1902 360.00
71.2554 387.00
71.3205 387.00
71.3858 337.00
71.451 384.00
71.5162 356.00
71.5813 373.00
71.6465 394.00
71.7117 403.00
71.7769 537.00
71.8421 429.00
71.9073 384.00
71.9725 403.00
72.0377 452.00
72.1029 343.00
72.1681 399.00
72.2333 562.00
72.2985 562.00
72.3637 436.00
72.4289 443.00
72.4941 502.00
72.5593 412.00
72.6245 454.00
72.6897 532.00
72.7549 580.00
72.8201 734.00
72.8853 496.00
72.9505 464.00
73.0157 533.00
73.0809 466.00
73.1461 398.00
73.2113 366.00
73.2765 396.00
73.3417 375.00
73.4069 357.00
73.4721 416.00
73.5373 376.00
73.6025 356.00
73.6677 399.00
73.7329 444.00
73.7981 482.00
73.8633 415.00
73.9285 390.00
73.9937 459.00
74.0589 403.00
74.1241 347.00
74.1893 391.00
74.2545 436.00
74.3197 373.00
74.3849 401.00
74.4501 369.00
74.5153 432.00
74.5805 500.00
74.6457 1101.00
74.7109 917.00
74.7761 497.00
74.8413 602.00
74.9065 718.00
74.9717 522.00
75.0369 572.00
75.1021 427.00
75.1673 421.00
75.2325 467.00
75.2977 458.00
75.3629 387.00
75.4281 382.00
75.4933 380.00
75.5585 398.00
75.6237 556.00
75.6889 841.00
75.7541 519.00
75.8193 514.00
75.8845 585.00
75.9497 510.00
76.0149 418.00
76.0801 369.00
76.1452 393.00
76.2104 418.00
76.2756 575.00
76.3409 492.00
76.406 412.00
76.4712 472.00
76.5364 521.00
76.6016 406.00
76.6668 388.00
76.732 344.00
76.7972 361.00
76.8624 362.00
76.9276 378.00
76.9928 367.00
77.058 352.00
77.1232 400.00
77.1884 383.00
77.2536 352.00
77.3188 455.00
77.384 748.00
77.4492 542.00
77.5144 433.00
77.5796 490.00
77.6448 547.00
77.71 420.00
77.7752 365.00
77.8404 373.00
77.9056 363.00
77.9708 334.00
78.036 354.00
78.1012 369.00
78.1664 366.00
78.2316 365.00
78.2968 384.00
78.362 354.00
78.4272 346.00
78.4924 388.00
78.5576 336.00
78.6228 344.00
78.688 338.00
78.7532 312.00
78.8184 345.00
78.8836 337.00
78.9488 362.00
79.014 338.00
79.0792 340.00
79.1444 398.00
79.2096 362.00
79.2748 358.00
79.34 373.00
79.4052 390.00
79.4704 335.00
79.5356 398.00
79.6008 387.00
79.666 332.00
79.7312 360.00
79.7964 359.00
79.8616 372.00
79.9268 351.00
79.992 366.00
80.0572 360.00
80.1224 363.00
80.1876 363.00
80.2528 398.00
80.318 387.00
80.3832 370.00
80.4484 363.00
80.5136 388.00
80.5788 394.00
80.644 406.00
80.7092 651.00
80.7744 672.00
80.8396 575.00
80.9048 478.00
80.9699 654.00
81.0351 879.00
81.1003 1229.00
81.1655 678.00
81.2307 678.00
81.2959 721.00
81.3611 692.00
81.4263 516.00
81.4915 497.00
81.5567 400.00
81.6219 387.00
81.6871 360.00
81.7523 375.00
81.8175 333.00
81.8827 373.00
81.9479 400.00
82.0131 323.00
82.0783 360.00
82.1435 330.00
82.2087 366.00
82.2739 368.00
82.3391 345.00
82.4043 376.00
82.4695 388.00
82.5347 351.00
82.5999 341.00
82.6651 411.00
82.7303 367.00
82.7955 354.00
82.8607 364.00
82.9259 357.00
82.9911 391.00
83.0563 349.00
83.1215 400.00
83.1867 394.00
83.2519 380.00
83.3171 388.00
83.3823 435.00
83.4475 643.00
83.5127 1117.00
83.5779 636.00
83.6431 497.00
83.7083 608.00
83.7735 807.00
83.8387 516.00
83.9039 483.00
83.9691 382.00
84.0343 391.00
84.0995 412.00
84.1647 457.00
84.2299 392.00
84.2951 389.00
84.3603 354.00
84.4255 422.00
84.4907 380.00
84.5559 369.00
84.6211 370.00
84.6863 375.00
84.7515 413.00
84.8167 436.00
84.8819 605.00
84.9471 1168.00
85.0123 871.00
85.0775 510.00
85.1427 548.00
85.2079 927.00
85.2731 652.00
85.3383 418.00
85.4035 407.00
85.4687 474.00
85.5339 424.00
85.5991 378.00
85.6643 369.00
85.7295 385.00
85.7946 353.00
85.8598 376.00
85.925 372.00
85.9903 392.00
86.0554 343.00
86.1206 374.00
86.1858 375.00
86.251 351.00
86.3162 386.00
86.3814 380.00
86.4466 373.00
86.5118 359.00
86.577 366.00
86.6422 392.00
86.7074 406.00
86.7726 438.00
86.8378 453.00
86.903 403.00
86.9682 650.00
87.0334 1408.00
87.0986 1427.00
87.1638 1287.00
87.229 638.00
87.2942 898.00
87.3594 969.00
87.4246 887.00
87.4898 544.00
87.555 414.00
87.6202 366.00
87.6854 378.00
87.7506 407.00
87.8158 389.00
87.881 354.00
87.9462 397.00
88.0114 375.00
88.0766 361.00
88.1418 350.00
88.207 381.00
88.2722 355.00
88.3374 376.00
88.4026 368.00
88.4678 377.00
88.533 380.00
88.5982 349.00
88.6634 391.00
88.7286 339.00
88.7938 333.00
88.859 405.00
88.9242 546.00
88.9894 555.00
89.0546 419.00
89.1198 428.00
89.185 455.00
89.2502 466.00
89.3154 386.00
89.3806 353.00
89.4458 402.00
89.511 345.00
89.5762 353.00
89.6414 392.00
89.7066 368.00
89.7718 410.00
89.837 362.00
89.9022 369.00
89.9674 417.00
90.0326 354.00
90.0978 363.00
90.163 385.00
90.2282 366.00
90.2934 351.00
90.3586 364.00
90.4238 378.00
90.489 368.00
90.5542 395.00
90.6193 411.00
90.6845 394.00
90.7497 383.00
90.8149 521.00
90.8801 900.00
90.9453 735.00
91.0105 457.00
91.0757 460.00
91.1409 566.00
91.2061 712.00
91.2713 497.00
91.3365 421.00
91.4017 592.00
91.4669 1118.00
91.5321 750.00
91.5973 632.00
91.6625 585.00
91.7277 941.00
91.7929 902.00
91.8581 544.00
91.9233 433.00
91.9885 487.00
92.0537 554.00
92.1189 389.00
92.1841 426.00
92.2493 424.00
92.3145 459.00
92.3797 645.00
92.4449 1126.00
92.5101 735.00
92.5753 548.00
92.6405 741.00
92.7057 990.00
92.7709 961.00
92.8361 748.00
92.9013 569.00
92.9665 676.00
93.0317 507.00
93.0969 578.00
93.1621 637.00
93.2273 575.00
93.2925 441.00
93.3577 374.00
93.4229 409.00
93.4881 440.00
93.5533 403.00
93.6185 357.00
93.6837 370.00
93.7489 354.00
93.8141 345.00
93.8793 385.00
93.9445 367.00
94.0097 335.00
94.0749 364.00
94.1401 355.00
94.2053 340.00
94.2705 355.00
94.3357 376.00
94.4009 423.00
94.4661 379.00
94.5313 416.00
94.5965 602.00
94.6617 771.00
94.7269 535.00
94.7921 443.00
94.8573 413.00
94.9225 538.00
94.9877 582.00
95.0529 386.00
95.1181 383.00
95.1833 356.00
95.2485 368.00
95.3137 420.00
95.3789 382.00
95.444 377.00
95.5092 380.00
95.5744 367.00
95.6396 386.00
95.7048 358.00
95.77 352.00
95.8352 372.00
95.9004 347.00
95.9656 372.00
96.0308 359.00
96.096 375.00
96.1612 343.00
96.2264 347.00
96.2916 392.00
96.3568 370.00
96.422 339.00
96.4872 345.00
96.5524 373.00
96.6176 403.00
96.6828 363.00
96.748 341.00
96.8132 402.00
96.8784 355.00
96.9436 385.00
97.0088 363.00
97.074 388.00
97.1392 389.00
97.2044 418.00
97.2696 443.00
97.3348 405.00
97.4 348.00
97.4652 355.00
97.5304 392.00
97.5956 448.00
97.6608 519.00
97.726 455.00
97.7912 364.00
97.8564 405.00
97.9216 412.00
97.9868 407.00
98.052 395.00
98.1172 368.00
98.1824 353.00
98.2476 367.00
98.3128 390.00
98.378 377.00
98.4432 368.00
98.5084 340.00
98.5736 352.00
98.6388 346.00
98.704 406.00
98.7692 387.00
98.8344 383.00
98.8996 413.00
98.9648 512.00
99.03 492.00
99.0952 462.00
99.1604 499.00
99.2256 422.00
99.2908 466.00
99.356 497.00
99.4212 513.00
99.4864 693.00
99.5516 542.00
99.6168 445.00
99.682 441.00
99.7472 451.00
99.8124 499.00
99.8776 662.00
99.9428 1239.00
100.008 1072.00
100.073 565.00
100.095 553.00