File: data/xrd_creation/results/PG_1943-1.xy
9.903433 2650.00
9.968632 2722.00
10.0338 2681.00
10.099 2661.00
10.1642 2696.00
10.2294 2658.00
10.2946 2590.00
10.3598 2587.00
10.425 2490.00
10.4902 2543.00
10.5554 2457.00
10.6206 2478.00
10.6858 2456.00
10.751 2420.00
10.8162 2421.00
10.8814 2478.00
10.9466 2337.00
11.0118 2385.00
11.077 2347.00
11.1422 2330.00
11.2074 2297.00
11.2726 2310.00
11.3378 2359.00
11.403 2235.00
11.4682 2212.00
11.5334 2157.00
11.5986 2300.00
11.6638 2185.00
11.729 2115.00
11.7942 2210.00
11.8594 2114.00
11.9246 2212.00
11.9898 2104.00
12.055 2131.00
12.1202 2034.00
12.1854 2118.00
12.2506 2024.00
12.3158 2048.00
12.381 2107.00
12.4462 1966.00
12.5114 1914.00
12.5766 1968.00
12.6418 1947.00
12.707 1930.00
12.7722 1872.00
12.8374 1915.00
12.9026 1936.00
12.9678 2018.00
13.033 1869.00
13.0982 1896.00
13.1634 1877.00
13.2286 1844.00
13.2938 1795.00
13.359 1811.00
13.4242 1853.00
13.4894 1714.00
13.5546 1765.00
13.6198 1768.00
13.685 1746.00
13.7502 1754.00
13.8154 1769.00
13.8805 1697.00
13.9457 1698.00
14.0109 1768.00
14.0761 1786.00
14.1413 1605.00
14.2065 1702.00
14.2717 1709.00
14.3369 1741.00
14.4021 1745.00
14.4673 1639.00
14.5325 1691.00
14.5977 1592.00
14.6629 1715.00
14.7281 1624.00
14.7933 1607.00
14.8585 1674.00
14.9237 1662.00
14.9889 1672.00
15.0541 1587.00
15.1193 1627.00
15.1845 1603.00
15.2497 1528.00
15.3149 1532.00
15.3801 1599.00
15.4453 1592.00
15.5105 1665.00
15.5757 1582.00
15.6409 1636.00
15.7061 1553.00
15.7713 1626.00
15.8365 1641.00
15.9017 1524.00
15.9669 1599.00
16.0321 1556.00
16.0973 1648.00
16.1625 1521.00
16.2277 1564.00
16.2929 1563.00
16.3581 1587.00
16.4233 1532.00
16.4885 1522.00
16.5537 1560.00
16.6189 1567.00
16.6841 1534.00
16.7493 1536.00
16.8145 1591.00
16.8797 1564.00
16.9449 1544.00
17.0101 1573.00
17.0753 1526.00
17.1405 1635.00
17.2057 1545.00
17.2709 1570.00
17.3361 1587.00
17.4013 1498.00
17.4665 1490.00
17.5317 1506.00
17.5969 1525.00
17.6621 1506.00
17.7273 1561.00
17.7925 1516.00
17.8577 1502.00
17.9229 1497.00
17.9881 1618.00
18.0533 1627.00
18.1185 1578.00
18.1837 1565.00
18.2489 1528.00
18.3141 1579.00
18.3793 1534.00
18.4445 1620.00
18.5097 1577.00
18.5749 1575.00
18.6401 1624.00
18.7052 1647.00
18.7704 1475.00
18.8356 1659.00
18.9008 1633.00
18.966 1646.00
19.0312 1565.00
19.0964 1632.00
19.1616 1519.00
19.2268 1582.00
19.292 1649.00
19.3572 1635.00
19.4224 1641.00
19.4876 1576.00
19.5528 1638.00
19.618 1688.00
19.6832 1601.00
19.7484 1687.00
19.8136 1591.00
19.8788 1672.00
19.944 1632.00
20.0092 1575.00
20.0744 1642.00
20.1396 1610.00
20.2048 1654.00
20.27 1630.00
20.3352 1664.00
20.4004 1619.00
20.4656 1613.00
20.5308 1695.00
20.596 1635.00
20.6612 1724.00
20.7264 1633.00
20.7916 1722.00
20.8568 1687.00
20.922 1773.00
20.9872 1746.00
21.0524 1783.00
21.1176 1734.00
21.1828 1724.00
21.248 1644.00
21.3132 1784.00
21.3784 1711.00
21.4436 1711.00
21.5088 1781.00
21.574 1735.00
21.6392 1719.00
21.7044 1808.00
21.7696 1803.00
21.8348 1812.00
21.9 1803.00
21.9652 1812.00
22.0304 1873.00
22.0956 1790.00
22.1608 1794.00
22.226 1841.00
22.2912 1815.00
22.3564 1914.00
22.4216 1821.00
22.4868 1849.00
22.552 1862.00
22.6172 1902.00
22.6824 1887.00
22.7476 1958.00
22.8128 1948.00
22.878 1938.00
22.9432 1815.00
23.0084 1937.00
23.0736 1885.00
23.1388 1953.00
23.204 1971.00
23.2692 1914.00
23.3344 1954.00
23.3996 1951.00
23.4647 1936.00
23.5299 1989.00
23.5951 1943.00
23.6603 1991.00
23.7255 1951.00
23.7907 2027.00
23.8559 1938.00
23.9211 1899.00
23.9863 1975.00
24.0515 2042.00
24.1167 2023.00
24.1819 2140.00
24.2471 2074.00
24.3123 2122.00
24.3775 2121.00
24.4427 2110.00
24.5079 2025.00
24.5731 2093.00
24.6383 1964.00
24.7035 2055.00
24.7687 1990.00
24.8339 2048.00
24.8991 2078.00
24.9643 2068.00
25.0295 2055.00
25.0947 2013.00
25.1599 2014.00
25.2251 2059.00
25.2903 2132.00
25.3555 2061.00
25.4207 2013.00
25.4859 2046.00
25.5511 1966.00
25.6163 2005.00
25.6815 1981.00
25.7467 2007.00
25.8119 1970.00
25.8771 2027.00
25.9423 2009.00
26.0075 1977.00
26.0727 2084.00
26.1379 1985.00
26.2031 1981.00
26.2683 2067.00
26.3335 1998.00
26.3987 1946.00
26.4639 1999.00
26.5291 2017.00
26.5943 2052.00
26.6595 1930.00
26.7247 2084.00
26.7899 1960.00
26.8551 2019.00
26.9203 1984.00
26.9855 1961.00
27.0507 1980.00
27.1159 1936.00
27.1811 1964.00
27.2463 1930.00
27.3115 1831.00
27.3767 1909.00
27.4419 1895.00
27.5071 1951.00
27.5723 1925.00
27.6375 1875.00
27.7027 1822.00
27.7679 1871.00
27.8331 1820.00
27.8983 1878.00
27.9635 1887.00
28.0287 1851.00
28.0939 1893.00
28.1591 1905.00
28.2243 1703.00
28.2894 1885.00
28.3546 1875.00
28.4198 1789.00
28.485 1835.00
28.5502 1778.00
28.6154 1868.00
28.6806 1854.00
28.7458 1749.00
28.811 1787.00
28.8762 1838.00
28.9414 1756.00
29.0066 1829.00
29.0718 1811.00
29.137 1750.00
29.2022 1775.00
29.2674 1664.00
29.3326 1740.00
29.3978 1590.00
29.463 1668.00
29.5282 1602.00
29.5934 1703.00
29.6586 1588.00
29.7238 1651.00
29.789 1597.00
29.8542 1625.00
29.9194 1677.00
29.9846 1803.00
30.0498 1841.00
30.115 1762.00
30.1802 1838.00
30.2454 1829.00
30.3106 1700.00
30.3758 1630.00
30.441 1615.00
30.5062 1621.00
30.5714 1638.00
30.6366 1763.00
30.7018 1718.00
30.767 1818.00
30.8322 1770.00
30.8974 1771.00
30.9626 1675.00
31.0278 1573.00
31.093 1539.00
31.1582 1573.00
31.2234 1612.00
31.2886 1507.00
31.3538 1626.00
31.419 1649.00
31.4842 1608.00
31.5494 1624.00
31.6146 1604.00
31.6798 1665.00
31.745 1628.00
31.8102 1518.00
31.8754 1504.00
31.9406 1479.00
32.0058 1345.00
32.071 1260.00
32.1362 1331.00
32.2014 1261.00
32.2666 1212.00
32.3318 1242.00
32.397 1240.00
32.4622 1179.00
32.5274 1214.00
32.5926 1195.00
32.6578 1230.00
32.723 1180.00
32.7882 1171.00
32.8534 1158.00
32.9186 1192.00
32.9838 1214.00
33.0489 1164.00
33.1141 1138.00
33.1793 1110.00
33.2445 1159.00
33.3097 1138.00
33.3749 1111.00
33.4401 1110.00
33.5053 1094.00
33.5705 1095.00
33.6357 1136.00
33.7009 1120.00
33.7661 1150.00
33.8313 1091.00
33.8965 1153.00
33.9617 1100.00
34.0269 1110.00
34.0921 1164.00
34.1573 1154.00
34.2225 1160.00
34.2877 1083.00
34.3529 1143.00
34.4181 1114.00
34.4833 1088.00
34.5485 1066.00
34.6137 1058.00
34.6789 1094.00
34.7441 1023.00
34.8093 968.00
34.8745 1071.00
34.9397 1016.00
35.0049 1001.00
35.0701 952.00
35.1353 1014.00
35.2005 949.00
35.2657 946.00
35.3309 982.00
35.3961 916.00
35.4613 949.00
35.5265 904.00
35.5917 967.00
35.6569 938.00
35.7221 947.00
35.7873 1005.00
35.8525 934.00
35.9177 902.00
35.9829 988.00
36.0481 935.00
36.1133 941.00
36.1785 973.00
36.2437 1044.00
36.3089 1002.00
36.3741 978.00
36.4393 975.00
36.5045 852.00
36.5697 909.00
36.6349 871.00
36.7001 919.00
36.7653 856.00
36.8305 851.00
36.8957 844.00
36.9609 960.00
37.0261 907.00
37.0913 824.00
37.1565 858.00
37.2217 881.00
37.2869 829.00
37.3521 913.00
37.4173 847.00
37.4825 851.00
37.5477 834.00
37.6129 894.00
37.6781 826.00
37.7433 862.00
37.8085 917.00
37.8736 852.00
37.9388 897.00
38.004 923.00
38.0692 1026.00
38.1344 962.00
38.1996 926.00
38.2648 862.00
38.33 839.00
38.3952 909.00
38.4604 902.00
38.5256 849.00
38.5908 860.00
38.656 825.00
38.7212 856.00
38.7864 886.00
38.8516 947.00
38.9168 936.00
38.982 927.00
39.0472 835.00
39.1124 871.00
39.1776 809.00
39.2428 855.00
39.308 888.00
39.3732 913.00
39.4384 851.00
39.5036 797.00
39.5688 790.00
39.634 828.00
39.6992 806.00
39.7644 771.00
39.8296 780.00
39.8948 768.00
39.96 840.00
40.0252 793.00
40.0904 815.00
40.1556 776.00
40.2208 805.00
40.286 790.00
40.3512 800.00
40.4164 780.00
40.4816 799.00
40.5468 837.00
40.612 782.00
40.6772 830.00
40.7424 764.00
40.8076 800.00
40.8728 801.00
40.938 730.00
41.0032 764.00
41.0684 796.00
41.1336 793.00
41.1988 746.00
41.264 754.00
41.3292 797.00
41.3944 808.00
41.4596 772.00
41.5248 708.00
41.59 763.00
41.6552 720.00
41.7204 829.00
41.7856 777.00
41.8508 774.00
41.916 776.00
41.9812 752.00
42.0464 749.00
42.1116 760.00
42.1768 743.00
42.242 731.00
42.3072 726.00
42.3724 712.00
42.4376 723.00
42.5028 725.00
42.568 727.00
42.6332 680.00
42.6983 740.00
42.7635 716.00
42.8287 713.00
42.8939 706.00
42.9591 748.00
43.0243 704.00
43.0895 748.00
43.1547 712.00
43.2199 725.00
43.2851 708.00
43.3503 745.00
43.4155 754.00
43.4807 733.00
43.5459 708.00
43.6111 681.00
43.6763 703.00
43.7415 669.00
43.8067 694.00
43.8719 656.00
43.9371 683.00
44.0023 703.00
44.0675 739.00
44.1327 715.00
44.1979 713.00
44.2631 705.00
44.3283 725.00
44.3935 765.00
44.4587 704.00
44.5239 708.00
44.5891 730.00
44.6543 755.00
44.7195 721.00
44.7847 759.00
44.8499 684.00
44.9151 744.00
44.9803 724.00
45.0455 706.00
45.1107 740.00
45.1759 700.00
45.2411 660.00
45.3063 710.00
45.3715 676.00
45.4367 665.00
45.5019 673.00
45.5671 686.00
45.6323 637.00
45.6975 730.00
45.7627 660.00
45.8279 622.00
45.8931 678.00
45.9583 679.00
46.0235 633.00
46.0887 682.00
46.1539 638.00
46.2191 643.00
46.2843 700.00
46.3495 689.00
46.4147 651.00
46.4799 624.00
46.5451 665.00
46.6103 622.00
46.6755 593.00
46.7407 628.00
46.8059 670.00
46.8711 638.00
46.9363 619.00
47.0015 643.00
47.0667 609.00
47.1319 604.00
47.1971 641.00
47.2623 634.00
47.3275 672.00
47.3927 636.00
47.4579 596.00
47.523 643.00
47.5882 635.00
47.6534 622.00
47.7186 625.00
47.7838 651.00
47.849 585.00
47.9142 601.00
47.9794 643.00
48.0446 643.00
48.1098 595.00
48.175 607.00
48.2402 606.00
48.3054 606.00
48.3706 620.00
48.4358 625.00
48.501 617.00
48.5662 638.00
48.6314 566.00
48.6966 606.00
48.7618 596.00
48.827 611.00
48.8922 624.00
48.9574 604.00
49.0226 574.00
49.0878 590.00
49.153 607.00
49.2182 670.00
49.2834 599.00
49.3486 621.00
49.4138 642.00
49.479 661.00
49.5442 654.00
49.6094 674.00
49.6746 684.00
49.7398 674.00
49.805 611.00
49.8702 628.00
49.9354 672.00
50.0006 593.00
50.0658 587.00
50.131 616.00
50.1962 551.00
50.2614 572.00
50.3266 664.00
50.3918 572.00
50.457 555.00
50.5222 567.00
50.5874 599.00
50.6526 588.00
50.7178 573.00
50.783 627.00
50.8482 604.00
50.9134 651.00
50.9786 643.00
51.0438 594.00
51.109 575.00
51.1742 536.00
51.2394 548.00
51.3046 543.00
51.3698 621.00
51.435 573.00
51.5002 559.00
51.5654 579.00
51.6306 609.00
51.6958 578.00
51.761 596.00
51.8262 543.00
51.8914 569.00
51.9566 546.00
52.0218 592.00
52.087 543.00
52.1522 577.00
52.2174 588.00
52.2826 596.00
52.3477 590.00
52.4129 598.00
52.4781 599.00
52.5433 630.00
52.6085 538.00
52.6737 549.00
52.7389 570.00
52.8041 517.00
52.8693 555.00
52.9345 556.00
52.9997 518.00
53.0649 571.00
53.1301 514.00
53.1953 540.00
53.2605 541.00
53.3257 507.00
53.3909 526.00
53.4561 530.00
53.5213 533.00
53.5865 514.00
53.6517 571.00
53.7169 557.00
53.7821 492.00
53.8473 562.00
53.9125 546.00
53.9777 541.00
54.0429 528.00
54.1081 523.00
54.1733 536.00
54.2385 527.00
54.3037 499.00
54.3689 497.00
54.4341 537.00
54.4993 507.00
54.5645 538.00
54.6297 557.00
54.6949 475.00
54.7601 554.00
54.8253 520.00
54.8905 529.00
54.9557 567.00
55.0209 537.00
55.0861 481.00
55.1513 521.00
55.2165 545.00
55.2817 542.00
55.3469 540.00
55.4121 548.00
55.4773 534.00
55.5425 542.00
55.6077 479.00
55.6729 554.00
55.7381 504.00
55.8033 495.00
55.8685 565.00
55.9337 517.00
55.9989 492.00
56.0641 557.00
56.1293 514.00
56.1945 506.00
56.2597 509.00
56.3249 553.00
56.3901 517.00
56.4553 507.00
56.5205 529.00
56.5857 537.00
56.6509 539.00
56.7161 535.00
56.7813 501.00
56.8465 469.00
56.9117 506.00
56.9769 488.00
57.042 534.00
57.1073 502.00
57.1724 514.00
57.2376 529.00
57.3028 471.00
57.368 489.00
57.4332 535.00
57.4984 510.00
57.5636 518.00
57.6288 481.00
57.694 524.00
57.7592 531.00
57.8244 525.00
57.8896 517.00
57.9548 484.00
58.02 515.00
58.0852 496.00
58.1504 480.00
58.2156 472.00
58.2808 520.00
58.346 453.00
58.4112 532.00
58.4764 450.00
58.5416 510.00
58.6068 457.00
58.672 502.00
58.7372 503.00
58.8024 518.00
58.8676 470.00
58.9328 479.00
58.998 502.00
59.0632 520.00
59.1284 455.00
59.1936 483.00
59.2588 496.00
59.324 431.00
59.3892 480.00
59.4544 457.00
59.5196 498.00
59.5848 448.00
59.65 501.00
59.7152 492.00
59.7804 470.00
59.8456 457.00
59.9108 435.00
59.976 498.00
60.0412 508.00
60.1064 446.00
60.1716 451.00
60.2368 476.00
60.302 479.00
60.3672 491.00
60.4324 485.00
60.4976 470.00
60.5628 468.00
60.628 482.00
60.6932 481.00
60.7584 454.00
60.8236 535.00
60.8888 481.00
60.954 461.00
61.0192 469.00
61.0844 478.00
61.1496 437.00
61.2148 478.00
61.28 488.00
61.3452 476.00
61.4104 453.00
61.4756 470.00
61.5408 445.00
61.606 491.00
61.6712 494.00
61.7364 509.00
61.8016 487.00
61.8667 445.00
61.932 448.00
61.9971 447.00
62.0623 495.00
62.1275 465.00
62.1927 476.00
62.2579 482.00
62.3231 448.00
62.3883 470.00
62.4535 479.00
62.5187 454.00
62.5839 474.00
62.6491 473.00
62.7143 468.00
62.7795 446.00
62.8447 435.00
62.9099 467.00
62.9751 425.00
63.0403 473.00
63.1055 452.00
63.1707 486.00
63.2359 453.00
63.3011 459.00
63.3663 449.00
63.4315 482.00
63.4967 457.00
63.5619 437.00
63.6271 454.00
63.6923 428.00
63.7575 436.00
63.8227 481.00
63.8879 482.00
63.9531 465.00
64.0183 460.00
64.0835 454.00
64.1487 395.00
64.2139 518.00
64.2791 447.00
64.3443 457.00
64.4095 452.00
64.4747 457.00
64.5399 430.00
64.6051 441.00
64.6703 387.00
64.7355 448.00
64.8007 424.00
64.8659 432.00
64.9311 412.00
64.9963 437.00
65.0615 434.00
65.1267 435.00
65.1919 413.00
65.2571 423.00
65.3223 450.00
65.3875 457.00
65.4527 420.00
65.5179 425.00
65.5831 405.00
65.6483 438.00
65.7135 420.00
65.7787 462.00
65.8439 451.00
65.9091 436.00
65.9743 425.00
66.0395 447.00
66.1047 451.00
66.1699 435.00
66.2351 470.00
66.3003 444.00
66.3655 445.00
66.4307 436.00
66.4959 438.00
66.561 445.00
66.6263 454.00
66.6915 475.00
66.7566 418.00
66.8218 446.00
66.887 373.00
66.9522 441.00
67.0174 461.00
67.0826 420.00
67.1478 412.00
67.213 465.00
67.2782 410.00
67.3434 444.00
67.4086 411.00
67.4738 400.00
67.539 402.00
67.6042 431.00
67.6694 390.00
67.7346 418.00
67.7998 396.00
67.865 442.00
67.9302 442.00
67.9954 421.00
68.0606 379.00
68.1258 426.00
68.191 426.00
68.2562 432.00
68.3214 398.00
68.3866 446.00
68.4518 396.00
68.517 435.00
68.5822 424.00
68.6474 414.00
68.7126 419.00
68.7778 445.00
68.843 405.00
68.9082 418.00
68.9734 420.00
69.0386 418.00
69.1038 411.00
69.169 408.00
69.2342 397.00
69.2994 429.00
69.3646 409.00
69.4298 421.00
69.495 406.00
69.5602 432.00
69.6254 382.00
69.6906 389.00
69.7558 371.00
69.821 380.00
69.8862 425.00
69.9514 431.00
70.0166 445.00
70.0818 404.00
70.147 411.00
70.2122 409.00
70.2774 403.00
70.3426 400.00
70.4078 367.00
70.473 423.00
70.5382 400.00
70.6034 406.00
70.6686 412.00
70.7338 377.00
70.799 418.00
70.8642 400.00
70.9294 371.00
70.9946 405.00
71.0598 445.00
71.125 395.00
71.1902 446.00
71.2554 376.00
71.3205 443.00
71.3858 400.00
71.451 408.00
71.5162 396.00
71.5813 402.00
71.6465 409.00
71.7117 414.00
71.7769 390.00
71.8421 405.00
71.9073 444.00
71.9725 433.00
72.0377 375.00
72.1029 378.00
72.1681 398.00
72.2333 415.00
72.2985 426.00
72.3637 381.00
72.4289 359.00
72.4941 398.00
72.5593 386.00
72.6245 413.00
72.6897 432.00
72.7549 384.00
72.8201 396.00
72.8853 380.00
72.9505 364.00
73.0157 405.00
73.0809 365.00
73.1461 405.00
73.2113 376.00
73.2765 417.00
73.3417 399.00
73.4069 426.00
73.4721 381.00
73.5373 405.00
73.6025 386.00
73.6677 390.00
73.7329 392.00
73.7981 408.00
73.8633 426.00
73.9285 406.00
73.9937 400.00
74.0589 403.00
74.1241 394.00
74.1893 421.00
74.2545 367.00
74.3197 420.00
74.3849 365.00
74.4501 395.00
74.5153 404.00
74.5805 422.00
74.6457 364.00
74.7109 404.00
74.7761 363.00
74.8413 397.00
74.9065 403.00
74.9717 418.00
75.0369 386.00
75.1021 358.00
75.1673 355.00
75.2325 357.00
75.2977 403.00
75.3629 367.00
75.4281 364.00
75.4933 394.00
75.5585 373.00
75.6237 413.00
75.6889 424.00
75.7541 401.00
75.8193 399.00
75.8845 378.00
75.9497 419.00
76.0149 389.00
76.0801 412.00
76.1452 428.00
76.2104 405.00
76.2756 427.00
76.3409 386.00
76.406 387.00
76.4712 419.00
76.5364 402.00
76.6016 390.00
76.6668 377.00
76.732 421.00
76.7972 396.00
76.8624 375.00
76.9276 404.00
76.9928 378.00
77.058 377.00
77.1232 401.00
77.1884 407.00
77.2536 388.00
77.3188 361.00
77.384 383.00
77.4492 374.00
77.5144 371.00
77.5796 399.00
77.6448 341.00
77.71 422.00
77.7752 419.00
77.8404 382.00
77.9056 397.00
77.9708 381.00
78.036 347.00
78.1012 373.00
78.1664 403.00
78.2316 395.00
78.2968 391.00
78.362 391.00
78.4272 391.00
78.4924 387.00
78.5576 414.00
78.6228 395.00
78.688 439.00
78.7532 353.00
78.8184 336.00
78.8836 380.00
78.9488 344.00
79.014 366.00
79.0792 367.00
79.1444 386.00
79.2096 411.00
79.2748 336.00
79.34 380.00
79.4052 406.00
79.4704 386.00
79.5356 388.00
79.6008 388.00
79.666 358.00
79.7312 400.00
79.7964 417.00
79.8616 354.00
79.9268 362.00
79.992 361.00
80.0572 385.00
80.1224 379.00
80.1876 383.00
80.2528 389.00
80.318 381.00
80.3832 382.00
80.4484 369.00
80.5136 377.00
80.5788 347.00
80.644 422.00
80.7092 355.00
80.7744 364.00
80.8396 358.00
80.9048 386.00
80.9699 391.00
81.0351 357.00
81.1003 360.00
81.1655 379.00
81.2307 385.00
81.2959 352.00
81.3611 356.00
81.4263 356.00
81.4915 350.00
81.5567 371.00
81.6219 414.00
81.6871 371.00
81.7523 387.00
81.8175 385.00
81.8827 354.00
81.9479 408.00
82.0131 368.00
82.0783 376.00
82.1435 340.00
82.2087 352.00
82.2739 381.00
82.3391 344.00
82.4043 384.00
82.4695 351.00
82.5347 349.00
82.5999 350.00
82.6651 357.00
82.7303 370.00
82.7955 355.00
82.8607 361.00
82.9259 330.00
82.9911 371.00
83.0563 338.00
83.1215 309.00
83.1867 340.00
83.2519 343.00
83.3171 370.00
83.3823 337.00
83.4475 345.00
83.5127 341.00
83.5779 355.00
83.6431 347.00
83.7083 354.00
83.7735 325.00
83.8387 346.00
83.9039 333.00
83.9691 374.00
84.0343 341.00
84.0995 369.00
84.1647 314.00
84.2299 334.00
84.2951 345.00
84.3603 348.00
84.4255 357.00
84.4907 319.00
84.5559 343.00
84.6211 344.00
84.6863 329.00
84.7515 351.00
84.8167 341.00
84.8819 305.00
84.9471 355.00
85.0123 313.00
85.0775 328.00
85.1427 310.00
85.2079 297.00
85.2731 300.00
85.3383 358.00
85.4035 319.00
85.4687 339.00
85.5339 353.00
85.5991 321.00
85.6643 314.00
85.7295 308.00
85.7946 311.00
85.8598 339.00
85.925 319.00
85.9903 325.00
86.0554 336.00
86.1206 321.00
86.1858 323.00
86.251 328.00
86.3162 300.00
86.3814 336.00
86.4466 320.00
86.5118 306.00
86.577 303.00
86.6422 348.00
86.7074 274.00
86.7726 301.00
86.8378 312.00
86.903 326.00
86.9682 329.00
87.0334 336.00
87.0986 302.00
87.1638 323.00
87.229 268.00
87.2942 344.00
87.3594 325.00
87.4246 296.00
87.4898 327.00
87.555 306.00
87.6202 298.00
87.6854 296.00
87.7506 280.00
87.8158 306.00
87.881 299.00
87.9462 276.00
88.0114 287.00
88.0766 294.00
88.1418 267.00
88.207 295.00
88.2722 280.00
88.3374 296.00
88.4026 322.00
88.4678 312.00
88.533 294.00
88.5982 317.00
88.6634 332.00
88.7286 288.00
88.7938 318.00
88.859 319.00
88.9242 261.00
88.9894 286.00
89.0546 305.00
89.1198 302.00
89.185 298.00
89.2502 275.00
89.3154 306.00
89.3806 265.00
89.4458 306.00
89.511 265.00
89.5762 314.00
89.6414 284.00
89.7066 272.00
89.7718 277.00
89.837 304.00
89.9022 297.00
89.9674 267.00
90.0326 273.00
90.0978 251.00
90.163 335.00
90.2282 304.00
90.2934 262.00
90.3586 292.00
90.4238 262.00
90.489 286.00
90.5542 282.00
90.6193 277.00
90.6845 288.00
90.7497 276.00
90.8149 268.00
90.8801 273.00
90.9453 283.00
91.0105 275.00
91.0757 272.00
91.1409 274.00
91.2061 307.00
91.2713 265.00
91.3365 271.00
91.4017 272.00
91.4669 283.00
91.5321 281.00
91.5973 276.00
91.6625 268.00
91.7277 289.00
91.7929 266.00
91.8581 281.00
91.9233 274.00
91.9885 276.00
92.0537 237.00
92.1189 284.00
92.1841 266.00
92.2493 282.00
92.3145 285.00
92.3797 292.00
92.4449 270.00
92.5101 287.00
92.5753 291.00
92.6405 278.00
92.7057 287.00
92.7709 262.00
92.8361 280.00
92.9013 284.00
92.9665 272.00
93.0317 285.00
93.0969 273.00
93.1621 276.00
93.2273 294.00
93.2925 263.00
93.3577 306.00
93.4229 280.00
93.4881 245.00
93.5533 280.00
93.6185 260.00
93.6837 276.00
93.7489 266.00
93.8141 237.00
93.8793 299.00
93.9445 270.00
94.0097 275.00
94.0749 292.00
94.1401 284.00
94.2053 282.00
94.2705 232.00
94.3357 294.00
94.4009 282.00
94.4661 261.00
94.5313 243.00
94.5965 258.00
94.6617 270.00
94.7269 257.00
94.7921 250.00
94.8573 246.00
94.9225 267.00
94.9877 262.00
95.0529 270.00
95.1181 272.00
95.1833 269.00
95.2485 249.00
95.3137 267.00
95.3789 269.00
95.444 282.00
95.5092 241.00
95.5744 272.00
95.6396 283.00
95.7048 294.00
95.77 324.00
95.8352 250.00
95.9004 235.00
95.9656 259.00
96.0308 261.00
96.096 276.00
96.1612 239.00
96.2264 281.00
96.2916 288.00
96.3568 262.00
96.422 261.00
96.4872 278.00
96.5524 266.00
96.6176 265.00
96.6828 283.00
96.748 300.00
96.8132 278.00
96.8784 288.00
96.9436 258.00
97.0088 270.00
97.074 256.00
97.1392 287.00
97.2044 265.00
97.2696 250.00
97.3348 283.00
97.4 271.00
97.4652 268.00
97.5304 247.00
97.5956 271.00
97.6608 295.00
97.726 264.00
97.7912 266.00
97.8564 276.00
97.9216 265.00
97.9868 273.00
98.052 284.00
98.1172 233.00
98.1824 232.00
98.2476 244.00
98.3128 264.00
98.378 247.00
98.4432 265.00
98.5084 259.00
98.5736 249.00
98.6388 275.00
98.704 299.00
98.7692 245.00
98.8344 264.00
98.8996 273.00
98.9648 266.00
99.03 251.00
99.0952 268.00
99.1604 267.00
99.2256 259.00
99.2908 272.00
99.356 261.00
99.4212 242.00
99.4864 266.00
99.5516 287.00
99.6168 286.00
99.682 230.00
99.7472 259.00
99.8124 277.00
99.8776 238.00
99.9428 272.00
100.008 250.00
100.073 271.00
100.095 264.00