File: data/xrd_creation/results/PG_1122-1.xy
10.0094 3171.00
10.0746 3220.00
10.1398 3106.00
10.205 3191.00
10.2702 3062.00
10.3354 3161.00
10.4006 3090.00
10.4658 3072.00
10.531 3106.00
10.5962 3028.00
10.6614 3037.00
10.7266 3038.00
10.7918 3108.00
10.857 3099.00
10.9222 3024.00
10.9874 3051.00
11.0526 2925.00
11.1178 3029.00
11.183 2952.00
11.2482 2988.00
11.3134 2875.00
11.3786 2907.00
11.4438 3007.00
11.509 2910.00
11.5742 2933.00
11.6394 3052.00
11.7046 2919.00
11.7698 2806.00
11.835 2793.00
11.9002 2923.00
11.9654 2871.00
12.0306 2926.00
12.0958 2809.00
12.161 2806.00
12.2262 2839.00
12.2914 2906.00
12.3566 2709.00
12.4218 2828.00
12.487 2772.00
12.5522 2786.00
12.6174 2726.00
12.6826 2842.00
12.7478 2776.00
12.813 2749.00
12.8782 2808.00
12.9434 2911.00
13.0086 2645.00
13.0738 2762.00
13.139 2764.00
13.2042 2906.00
13.2694 2808.00
13.3346 2798.00
13.3998 2664.00
13.465 2675.00
13.5302 2682.00
13.5954 2753.00
13.6606 2733.00
13.7258 2693.00
13.791 2725.00
13.8562 2772.00
13.9214 2762.00
13.9865 2692.00
14.0517 2721.00
14.1169 2743.00
14.1821 2713.00
14.2473 2766.00
14.3125 2705.00
14.3777 2736.00
14.4429 2792.00
14.5081 2822.00
14.5733 2736.00
14.6385 2757.00
14.7037 2804.00
14.7689 2901.00
14.8341 2688.00
14.8993 2824.00
14.9645 2717.00
15.0297 2791.00
15.0949 2790.00
15.1601 2748.00
15.2253 2689.00
15.2905 2709.00
15.3557 2744.00
15.4209 2767.00
15.4861 2784.00
15.5513 2733.00
15.6165 2787.00
15.6817 2776.00
15.7469 2736.00
15.8121 2828.00
15.8773 2689.00
15.9425 2804.00
16.0077 2790.00
16.0729 2799.00
16.1381 2765.00
16.2033 2732.00
16.2685 2848.00
16.3337 2786.00
16.3989 2699.00
16.4641 2825.00
16.5293 2745.00
16.5945 2791.00
16.6597 2791.00
16.7249 2899.00
16.7901 2841.00
16.8553 2753.00
16.9205 2879.00
16.9857 2777.00
17.0509 2823.00
17.1161 2796.00
17.1813 2917.00
17.2465 2801.00
17.3117 2757.00
17.3769 2800.00
17.4421 2880.00
17.5073 2831.00
17.5725 2834.00
17.6377 2860.00
17.7029 2820.00
17.7681 2829.00
17.8333 2765.00
17.8985 2881.00
17.9637 2834.00
18.0289 2880.00
18.0941 2921.00
18.1593 2889.00
18.2245 2907.00
18.2897 2918.00
18.3549 2907.00
18.4201 2812.00
18.4853 2778.00
18.5505 2758.00
18.6157 2869.00
18.6809 2892.00
18.7461 2902.00
18.8112 2801.00
18.8764 2844.00
18.9416 2868.00
19.0068 2837.00
19.072 2866.00
19.1372 2891.00
19.2024 2877.00
19.2676 2820.00
19.3328 2815.00
19.398 2862.00
19.4632 2889.00
19.5284 2959.00
19.5936 2892.00
19.6588 2889.00
19.724 2786.00
19.7892 2861.00
19.8544 2844.00
19.9196 2849.00
19.9848 2908.00
20.05 2934.00
20.1152 2832.00
20.1804 2892.00
20.2456 2887.00
20.3108 2855.00
20.376 3003.00
20.4412 2928.00
20.5064 2933.00
20.5716 2908.00
20.6368 2763.00
20.702 3008.00
20.7672 2868.00
20.8324 2923.00
20.8976 2974.00
20.9628 3008.00
21.028 3010.00
21.0932 3214.00
21.1584 3496.00
21.2236 4011.00
21.2888 4517.00
21.354 4892.00
21.4192 4990.00
21.4844 4775.00
21.5496 4610.00
21.6148 4033.00
21.68 3162.00
21.7452 3023.00
21.8104 2920.00
21.8756 2939.00
21.9408 2995.00
22.006 2909.00
22.0712 2884.00
22.1364 2852.00
22.2016 2896.00
22.2668 2901.00
22.332 2856.00
22.3972 2891.00
22.4624 2836.00
22.5276 2809.00
22.5928 2880.00
22.658 2915.00
22.7232 2854.00
22.7884 2919.00
22.8536 2858.00
22.9188 2935.00
22.984 2987.00
23.0492 2945.00
23.1144 2944.00
23.1796 2959.00
23.2448 2988.00
23.31 3094.00
23.3752 3265.00
23.4404 3444.00
23.5056 3321.00
23.5708 3416.00
23.6359 3258.00
23.7011 3142.00
23.7663 3008.00
23.8315 2998.00
23.8967 2939.00
23.9619 2977.00
24.0271 2898.00
24.0923 2982.00
24.1575 3002.00
24.2227 2970.00
24.2879 3024.00
24.3531 2841.00
24.4183 2808.00
24.4835 2892.00
24.5487 3031.00
24.6139 2907.00
24.6791 2914.00
24.7443 2908.00
24.8095 2928.00
24.8747 2895.00
24.9399 2907.00
25.0051 2855.00
25.0703 2872.00
25.1355 2811.00
25.2007 2946.00
25.2659 2970.00
25.3311 2880.00
25.3963 2875.00
25.4615 2874.00
25.5267 3078.00
25.5919 2861.00
25.6571 2941.00
25.7223 2836.00
25.7875 2879.00
25.8527 2860.00
25.9179 2871.00
25.9831 2914.00
26.0483 2910.00
26.1135 2920.00
26.1787 2887.00
26.2439 2848.00
26.3091 2935.00
26.3743 2861.00
26.4395 2895.00
26.5047 2920.00
26.5699 2918.00
26.6351 2922.00
26.7003 2962.00
26.7655 2934.00
26.8307 2893.00
26.8959 2967.00
26.9611 2926.00
27.0263 2853.00
27.0915 2880.00
27.1567 2892.00
27.2219 2907.00
27.2871 2911.00
27.3523 2891.00
27.4175 2893.00
27.4827 2879.00
27.5479 2974.00
27.6131 2844.00
27.6783 2941.00
27.7435 2837.00
27.8087 2886.00
27.8739 2834.00
27.9391 2798.00
28.0043 2885.00
28.0695 2930.00
28.1347 2880.00
28.1999 2838.00
28.2651 2905.00
28.3303 2799.00
28.3955 2835.00
28.4606 2868.00
28.5258 2957.00
28.591 2849.00
28.6562 2882.00
28.7214 2846.00
28.7866 2964.00
28.8518 2863.00
28.917 2925.00
28.9822 2841.00
29.0474 2960.00
29.1126 2928.00
29.1778 3066.00
29.243 3025.00
29.3082 3100.00
29.3734 3269.00
29.4386 3538.00
29.5038 3640.00
29.569 3686.00
29.6342 3634.00
29.6994 3549.00
29.7646 3197.00
29.8298 2954.00
29.895 3015.00
29.9602 2931.00
30.0254 3003.00
30.0906 2974.00
30.1558 3057.00
30.221 3066.00
30.2862 3006.00
30.3514 3274.00
30.4166 3412.00
30.4818 4019.00
30.547 4576.00
30.6122 5104.00
30.6774 5506.00
30.7426 5463.00
30.8078 5180.00
30.873 4613.00
30.9382 3692.00
31.0034 3292.00
31.0686 3143.00
31.1338 2930.00
31.199 3022.00
31.2642 3073.00
31.3294 3067.00
31.3946 3086.00
31.4598 3225.00
31.525 3303.00
31.5902 3788.00
31.6554 4309.00
31.7206 5154.00
31.7858 5958.00
31.851 6264.00
31.9162 6494.00
31.9814 6185.00
32.0466 5323.00
32.1118 4417.00
32.177 3754.00
32.2422 3515.00
32.3074 3753.00
32.3726 3967.00
32.4378 4149.00
32.503 4481.00
32.5682 4773.00
32.6334 4496.00
32.6986 4372.00
32.7638 4044.00
32.829 3700.00
32.8942 3389.00
32.9594 3183.00
33.0246 3100.00
33.0898 3004.00
33.1549 2941.00
33.2201 2948.00
33.2853 2969.00
33.3505 3004.00
33.4157 2927.00
33.4809 3051.00
33.5461 2988.00
33.6113 2984.00
33.6765 3050.00
33.7417 3030.00
33.8069 3133.00
33.8721 3194.00
33.9373 3308.00
34.0025 3454.00
34.0677 3737.00
34.1329 3977.00
34.1981 4124.00
34.2633 3946.00
34.3285 3958.00
34.3937 3668.00
34.4589 3435.00
34.5241 3271.00
34.5893 3278.00
34.6545 3482.00
34.7197 3443.00
34.7849 3435.00
34.8501 3669.00
34.9153 3685.00
34.9805 3980.00
35.0457 4141.00
35.1109 4743.00
35.1761 5653.00
35.2413 7175.00
35.3065 9671.00
35.3717 13177.00
35.4369 17099.00
35.5021 20920.00
35.5673 23073.00
35.6325 23849.00
35.6977 22156.00
35.7629 18330.00
35.8281 13717.00
35.8933 9802.00
35.9585 7075.00
36.0237 5980.00
36.0889 5425.00
36.1541 4926.00
36.2193 4587.00
36.2845 4284.00
36.3497 3932.00
36.4149 3665.00
36.4801 3535.00
36.5453 3520.00
36.6105 3464.00
36.6757 3431.00
36.7409 3483.00
36.8061 3637.00
36.8713 4027.00
36.9365 4467.00
37.0017 4598.00
37.0669 4668.00
37.1321 4778.00
37.1973 4371.00
37.2625 3981.00
37.3277 3609.00
37.3929 3563.00
37.4581 3444.00
37.5233 3484.00
37.5885 3509.00
37.6537 3661.00
37.7189 3582.00
37.7841 3765.00
37.8493 3716.00
37.9145 3904.00
37.9796 4026.00
38.0448 4182.00
38.11 4369.00
38.1752 4777.00
38.2404 5326.00
38.3056 5885.00
38.3708 6843.00
38.436 8343.00
38.5012 10445.00
38.5664 13237.00
38.6316 15998.00
38.6968 19590.00
38.762 21755.00
38.8272 22855.00
38.8924 22147.00
38.9576 20257.00
39.0228 16657.00
39.088 13351.00
39.1532 10788.00
39.2184 8724.00
39.2836 6955.00
39.3488 5683.00
39.414 5098.00
39.4792 4589.00
39.5444 4430.00
39.6096 4299.00
39.6748 4169.00
39.74 4144.00
39.8052 4027.00
39.8704 3732.00
39.9356 3706.00
40.0008 3715.00
40.066 3726.00
40.1312 3516.00
40.1964 3383.00
40.2616 3268.00
40.3268 3175.00
40.392 3083.00
40.4572 3155.00
40.5224 3138.00
40.5876 3121.00
40.6528 3062.00
40.718 3130.00
40.7832 3055.00
40.8484 3132.00
40.9136 3024.00
40.9788 2962.00
41.044 2977.00
41.1092 2979.00
41.1744 3042.00
41.2396 2853.00
41.3048 2919.00
41.37 2984.00
41.4352 3038.00
41.5004 2962.00
41.5656 2853.00
41.6308 2938.00
41.696 2890.00
41.7612 2902.00
41.8264 2982.00
41.8916 3014.00
41.9568 2980.00
42.022 3045.00
42.0872 2980.00
42.1524 3016.00
42.2176 2989.00
42.2828 2969.00
42.348 2905.00
42.4132 2823.00
42.4784 2976.00
42.5436 2988.00
42.6088 3015.00
42.6739 3086.00
42.7392 3023.00
42.8043 2997.00
42.8695 2967.00
42.9347 3012.00
42.9999 2955.00
43.0651 2970.00
43.1303 2965.00
43.1955 2956.00
43.2607 2931.00
43.3259 2894.00
43.3911 2936.00
43.4563 3049.00
43.5215 3155.00
43.5867 3073.00
43.6519 3068.00
43.7171 2991.00
43.7823 2975.00
43.8475 3000.00
43.9127 2854.00
43.9779 2826.00
44.0431 2876.00
44.1083 2866.00
44.1735 2961.00
44.2387 2785.00
44.3039 2887.00
44.3691 2903.00
44.4343 2835.00
44.4995 2857.00
44.5647 2917.00
44.6299 2846.00
44.6951 2844.00
44.7603 2889.00
44.8255 2796.00
44.8907 2917.00
44.9559 2874.00
45.0211 2812.00
45.0863 2903.00
45.1515 2802.00
45.2167 2918.00
45.2819 3007.00
45.3471 2794.00
45.4123 2840.00
45.4775 2941.00
45.5427 2821.00
45.6079 2874.00
45.6731 2793.00
45.7383 2874.00
45.8035 2875.00
45.8687 2959.00
45.9339 2892.00
45.9991 2980.00
46.0643 3010.00
46.1295 3063.00
46.1947 3037.00
46.2599 3171.00
46.3251 3255.00
46.3903 3051.00
46.4555 3248.00
46.5207 3084.00
46.5859 2999.00
46.6511 2983.00
46.7163 2867.00
46.7815 2980.00
46.8467 2908.00
46.9119 2905.00
46.9771 2843.00
47.0423 2856.00
47.1075 2808.00
47.1727 2801.00
47.2379 2929.00
47.3031 2937.00
47.3683 2902.00
47.4335 2841.00
47.4986 2950.00
47.5639 3051.00
47.629 2911.00
47.6942 2961.00
47.7594 2921.00
47.8246 2963.00
47.8898 2897.00
47.955 3016.00
48.0202 3034.00
48.0854 3089.00
48.1506 3143.00
48.2158 3183.00
48.281 3259.00
48.3462 3437.00
48.4114 3570.00
48.4766 3837.00
48.5418 4361.00
48.607 5289.00
48.6722 6262.00
48.7374 7135.00
48.8026 7900.00
48.8678 8381.00
48.933 8371.00
48.9982 7582.00
49.0634 6710.00
49.1286 5902.00
49.1938 4844.00
49.259 4309.00
49.3242 3943.00
49.3894 3621.00
49.4546 3478.00
49.5198 3390.00
49.585 3225.00
49.6502 3126.00
49.7154 3025.00
49.7806 3008.00
49.8458 2907.00
49.911 2930.00
49.9762 3011.00
50.0414 2964.00
50.1066 2891.00
50.1718 2967.00
50.237 2893.00
50.3022 3038.00
50.3674 3001.00
50.4326 3038.00
50.4978 3044.00
50.563 3071.00
50.6282 2937.00
50.6934 2910.00
50.7586 2790.00
50.8238 2894.00
50.889 2858.00
50.9542 2999.00
51.0194 2948.00
51.0846 2832.00
51.1498 2917.00
51.215 3008.00
51.2802 3014.00
51.3454 3029.00
51.4106 3020.00
51.4758 3129.00
51.541 2900.00
51.6062 2994.00
51.6714 3007.00
51.7366 2846.00
51.8018 2922.00
51.867 2938.00
51.9322 2866.00
51.9974 2837.00
52.0626 2848.00
52.1278 2850.00
52.193 2891.00
52.2582 2926.00
52.3233 2831.00
52.3886 2841.00
52.4537 2891.00
52.5189 2928.00
52.5841 2829.00
52.6493 2904.00
52.7145 2893.00
52.7797 2959.00
52.8449 3043.00
52.9101 3042.00
52.9753 3208.00
53.0405 3078.00
53.1057 3223.00
53.1709 3414.00
53.2361 3530.00
53.3013 3760.00
53.3665 3861.00
53.4317 4056.00
53.4969 4043.00
53.5621 4187.00
53.6273 4025.00
53.6925 3906.00
53.7577 3709.00
53.8229 3567.00
53.8881 3332.00
53.9533 3327.00
54.0185 3044.00
54.0837 3133.00
54.1489 3015.00
54.2141 2893.00
54.2793 2835.00
54.3445 2974.00
54.4097 2823.00
54.4749 2827.00
54.5401 2910.00
54.6053 2856.00
54.6705 2813.00
54.7357 2809.00
54.8009 2772.00
54.8661 2808.00
54.9313 2816.00
54.9965 2724.00
55.0617 2832.00
55.1269 2810.00
55.1921 2799.00
55.2573 2768.00
55.3225 2805.00
55.3877 2745.00
55.4529 2778.00
55.5181 2764.00
55.5833 2781.00
55.6485 2882.00
55.7137 2715.00
55.7789 2787.00
55.8441 2817.00
55.9093 2796.00
55.9745 2988.00
56.0397 2834.00
56.1049 2805.00
56.1701 2788.00
56.2353 2797.00
56.3005 2834.00
56.3657 2851.00
56.4309 2843.00
56.4961 2880.00
56.5613 2967.00
56.6265 2922.00
56.6917 3052.00
56.7569 2934.00
56.8221 3012.00
56.8873 3048.00
56.9525 3035.00
57.0177 2978.00
57.0829 2875.00
57.148 2951.00
57.2132 2871.00
57.2784 2940.00
57.3436 2968.00
57.4088 2921.00
57.474 2892.00
57.5392 3026.00
57.6044 2993.00
57.6696 3182.00
57.7348 3316.00
57.8 3402.00
57.8652 3571.00
57.9304 3655.00
57.9956 3731.00
58.0608 4006.00
58.126 4183.00
58.1912 4672.00
58.2564 4930.00
58.3216 5204.00
58.3868 5069.00
58.452 5067.00
58.5172 4780.00
58.5824 4459.00
58.6476 4168.00
58.7128 3825.00
58.778 3559.00
58.8432 3470.00
58.9084 3421.00
58.9736 3332.00
59.0388 3408.00
59.104 3233.00
59.1692 3196.00
59.2344 3143.00
59.2996 3127.00
59.3648 3029.00
59.43 2957.00
59.4952 2934.00
59.5604 2957.00
59.6256 3029.00
59.6908 3026.00
59.756 3128.00
59.8212 3146.00
59.8864 3243.00
59.9516 3277.00
60.0168 2986.00
60.082 2977.00
60.1472 2985.00
60.2124 2775.00
60.2776 2828.00
60.3428 2777.00
60.408 2726.00
60.4732 2767.00
60.5384 2902.00
60.6036 2842.00
60.6688 2843.00
60.734 2941.00
60.7992 2900.00
60.8644 2985.00
60.9296 3021.00
60.9948 3200.00
61.06 3311.00
61.1252 3435.00
61.1904 3699.00
61.2556 3910.00
61.3208 4096.00
61.386 4560.00
61.4512 5259.00
61.5164 5748.00
61.5816 6089.00
61.6468 6254.00
61.712 6220.00
61.7772 5669.00
61.8424 5013.00
61.9076 4642.00
61.9727 4094.00
62.0379 3719.00
62.1031 3234.00
62.1683 3224.00
62.2335 3131.00
62.2987 3051.00
62.3639 3066.00
62.4291 2988.00
62.4943 2888.00
62.5595 2922.00
62.6247 2994.00
62.6899 2918.00
62.7551 2876.00
62.8203 2843.00
62.8855 2791.00
62.9507 2820.00
63.0159 2788.00
63.0811 2812.00
63.1463 2871.00
63.2115 2942.00
63.2767 2916.00
63.3419 2941.00
63.4071 3070.00
63.4723 2992.00
63.5375 3030.00
63.6027 3112.00
63.6679 2961.00
63.7331 3073.00
63.7983 2803.00
63.8635 2882.00
63.9287 2874.00
63.9939 2893.00
64.0591 2887.00
64.1243 2777.00
64.1895 2827.00
64.2547 2881.00
64.3199 2837.00
64.3851 2921.00
64.4503 2903.00
64.5155 2854.00
64.5807 2963.00
64.6459 2872.00
64.7111 2870.00
64.7763 3054.00
64.8415 3008.00
64.9067 2952.00
64.9719 3006.00
65.0371 3199.00
65.1023 3141.00
65.1675 3298.00
65.2327 3376.00
65.2979 3405.00
65.3631 3557.00
65.4283 3622.00
65.4935 3921.00
65.5587 4087.00
65.6239 4400.00
65.6891 4538.00
65.7543 4817.00
65.8195 4783.00
65.8847 5001.00
65.9499 5104.00
66.0151 5084.00
66.0803 4934.00
66.1455 5392.00
66.2107 5698.00
66.2759 5643.00
66.3411 5955.00
66.4063 5778.00
66.4715 5617.00
66.5367 5109.00
66.6019 4713.00
66.6671 4301.00
66.7322 4085.00
66.7974 3747.00
66.8626 3632.00
66.9278 3413.00
66.993 3410.00
67.0582 3298.00
67.1234 3288.00
67.1886 3300.00
67.2538 3203.00
67.319 3326.00
67.3842 3365.00
67.4494 3416.00
67.5146 3547.00
67.5798 3609.00
67.645 3828.00
67.7102 4049.00
67.7754 4381.00
67.8406 4768.00
67.9058 5009.00
67.971 5396.00
68.0362 5881.00
68.1014 5815.00
68.1666 5858.00
68.2318 5481.00
68.297 5254.00
68.3622 4582.00
68.4274 4330.00
68.4926 3976.00
68.5578 3636.00
68.623 3400.00
68.6882 3287.00
68.7534 3175.00
68.8186 2963.00
68.8838 3053.00
68.949 2994.00
69.0142 2935.00
69.0794 2848.00
69.1446 2881.00
69.2098 2848.00
69.275 2844.00
69.3402 2861.00
69.4054 2809.00
69.4706 2799.00
69.5358 2875.00
69.601 2852.00
69.6662 2790.00
69.7314 2812.00
69.7966 2838.00
69.8618 2732.00
69.927 2781.00
69.9922 2756.00
70.0574 2681.00
70.1226 2736.00
70.1878 2680.00
70.253 2742.00
70.3182 2823.00
70.3834 2758.00
70.4486 2746.00
70.5138 2804.00
70.579 2714.00
70.6442 2719.00
70.7094 2824.00
70.7746 2746.00
70.8398 2750.00
70.905 2810.00
70.9702 2733.00
71.0354 2744.00
71.1006 2790.00
71.1658 2725.00
71.231 2747.00
71.2962 2810.00
71.3614 2739.00
71.4266 2801.00
71.4918 2799.00
71.5569 2782.00
71.6221 2794.00
71.6873 2884.00
71.7525 2922.00
71.8177 2931.00
71.8829 2905.00
71.9481 3064.00
72.0133 3019.00
72.0785 3091.00
72.1437 3136.00
72.2089 3205.00
72.2741 3457.00
72.3393 3502.00
72.4045 3691.00
72.4697 3750.00
72.5349 3717.00
72.6001 3696.00
72.6653 3491.00
72.7305 3461.00
72.7957 3253.00
72.8609 3279.00
72.9261 3077.00
72.9913 2907.00
73.0565 2919.00
73.1217 2835.00
73.1869 2820.00
73.2521 2937.00
73.3173 2755.00
73.3825 2724.00
73.4477 2759.00
73.5129 2761.00
73.5781 2708.00
73.6433 2738.00
73.7085 2730.00
73.7737 2838.00
73.8389 2755.00
73.9041 2910.00
73.9693 3008.00
74.0345 2904.00
74.0997 2913.00
74.1649 2838.00
74.2301 2769.00
74.2953 2877.00
74.3605 2858.00
74.4257 2818.00
74.4909 2948.00
74.5561 2863.00
74.6213 3048.00
74.6865 3054.00
74.7517 3213.00
74.8169 3484.00
74.8821 3690.00
74.9473 3937.00
75.0125 4274.00
75.0777 4294.00
75.1429 4377.00
75.2081 4250.00
75.2733 4246.00
75.3385 4145.00
75.4037 3963.00
75.4689 3696.00
75.5341 3631.00
75.5993 3434.00
75.6645 3180.00
75.7297 3013.00
75.7949 2983.00
75.8601 3013.00
75.9253 2748.00
75.9905 2787.00
76.0557 2766.00
76.1209 2766.00
76.186 2700.00
76.2513 2789.00
76.3165 2808.00
76.3816 2636.00
76.4468 2701.00
76.512 2689.00
76.5772 2715.00
76.6424 2638.00
76.7076 2626.00
76.7728 2677.00
76.838 2676.00
76.9032 2635.00
76.9684 2674.00
77.0336 2666.00
77.0988 2619.00
77.164 2726.00
77.2292 2756.00
77.2944 2706.00
77.3596 2761.00
77.4248 2619.00
77.49 2700.00
77.5552 2764.00
77.6204 2759.00
77.6856 2723.00
77.7508 2774.00
77.816 2657.00
77.8812 2626.00
77.9464 2587.00
78.0116 2647.00
78.0768 2749.00
78.142 2647.00
78.2072 2699.00
78.2724 2643.00
78.3376 2680.00
78.4028 2640.00
78.468 2615.00
78.5332 2635.00
78.5984 2722.00
78.6636 2622.00
78.7288 2666.00
78.794 2650.00
78.8592 2625.00
78.9244 2629.00
78.9896 2629.00
79.0548 2645.00
79.12 2585.00
79.1852 2713.00
79.2504 2744.00
79.3156 2764.00
79.3808 2683.00
79.446 2754.00
79.5112 2622.00
79.5764 2771.00
79.6416 2714.00
79.7068 2701.00
79.772 2686.00
79.8372 2686.00
79.9024 2730.00
79.9676 2738.00
80.0328 2885.00
80.098 2874.00
80.1632 3035.00
80.2284 2971.00
80.2936 3025.00
80.3588 2904.00
80.424 2984.00
80.4892 2850.00
80.5544 2803.00
80.6196 2818.00
80.6848 2850.00
80.75 2884.00
80.8152 2803.00
80.8804 2724.00
80.9456 2668.00
81.0108 2808.00
81.076 2667.00
81.1412 2729.00
81.2063 2613.00
81.2715 2761.00
81.3367 2623.00
81.4019 2747.00
81.4671 2654.00
81.5323 2658.00
81.5975 2773.00
81.6627 2738.00
81.7279 2786.00
81.7931 2792.00
81.8583 2839.00
81.9235 2834.00
81.9887 2806.00
82.0539 2953.00
82.1191 2973.00
82.1843 2894.00
82.2495 3094.00
82.3147 3186.00
82.3799 3307.00
82.4451 3376.00
82.5103 3340.00
82.5755 3376.00
82.6407 3429.00
82.7059 3317.00
82.7711 3415.00
82.8363 3353.00
82.9015 3313.00
82.9667 3306.00
83.0319 3360.00
83.0971 3321.00
83.1623 3377.00
83.2275 3237.00
83.2927 3265.00
83.3579 3244.00
83.4231 3304.00
83.4883 3314.00
83.5535 3346.00
83.6187 3340.00
83.6839 3260.00
83.7491 3213.00
83.8143 3214.00
83.8795 3115.00
83.9447 3053.00
84.0099 3151.00
84.0751 2951.00
84.1403 2906.00
84.2055 2808.00
84.2707 2818.00
84.3359 2777.00
84.4011 2780.00
84.4663 2667.00
84.5315 2739.00
84.5967 2676.00
84.6619 2761.00
84.7271 2722.00
84.7923 2667.00
84.8575 2689.00
84.9227 2618.00
84.9879 2615.00
85.0531 2732.00
85.1183 2576.00
85.1835 2689.00
85.2487 2671.00
85.3139 2651.00
85.3791 2706.00
85.4443 2664.00
85.5095 2565.00
85.5747 2685.00
85.6399 2709.00
85.7051 2603.00
85.7703 2670.00
85.8354 2686.00
85.9006 2691.00
85.9659 2700.00
86.031 2662.00
86.0962 2718.00
86.1614 2775.00
86.2266 2789.00
86.2918 2769.00
86.357 2816.00
86.4222 2808.00
86.4874 2855.00
86.5526 2888.00
86.6178 2847.00
86.683 2785.00
86.7482 2790.00
86.8134 2802.00
86.8786 2723.00
86.9438 2802.00
87.009 2867.00
87.0742 2761.00
87.1394 2692.00
87.2046 2713.00
87.2698 2705.00
87.335 2662.00
87.4002 2752.00
87.4654 2766.00
87.5306 2799.00
87.5958 2675.00
87.661 2595.00
87.7262 2694.00
87.7914 2678.00
87.8566 2658.00
87.9218 2700.00
87.987 2687.00
88.0522 2662.00
88.1174 2655.00
88.1826 2653.00
88.2478 2718.00
88.313 2767.00
88.3782 2642.00
88.4434 2649.00
88.5086 2669.00
88.5738 2798.00
88.639 2719.00
88.7042 2715.00
88.7694 2711.00
88.8346 2712.00
88.8998 2697.00
88.965 2737.00
89.0302 2767.00
89.0954 2872.00
89.1606 2906.00
89.2258 2771.00
89.291 2794.00
89.3562 2919.00
89.4214 2892.00
89.4866 2921.00
89.5518 2980.00
89.617 3042.00
89.6822 3174.00
89.7474 3094.00
89.8126 3116.00
89.8778 3132.00
89.943 3007.00
90.0082 3022.00
90.0734 2998.00
90.1386 2948.00
90.2038 2967.00
90.269 2839.00
90.3342 2820.00
90.3994 2849.00
90.4646 2772.00
90.5298 2778.00
90.595 2783.00
90.6601 2751.00
90.7253 2728.00
90.7905 2806.00
90.8557 2823.00
90.9209 2743.00
90.9861 2735.00
91.0513 2753.00
91.1165 2827.00
91.1817 2769.00
91.2469 2730.00
91.3121 2768.00
91.3773 2689.00
91.4425 2804.00
91.5077 2815.00
91.5729 2829.00
91.6381 2768.00
91.7033 2867.00
91.7685 2771.00
91.8337 2787.00
91.8989 2857.00
91.9641 2756.00
92.0293 2758.00
92.0945 2781.00
92.1597 2728.00
92.2249 2737.00
92.2901 2775.00
92.3553 2649.00
92.4205 2782.00
92.4857 2753.00
92.5509 2757.00
92.6161 2746.00
92.6813 2629.00
92.7465 2602.00
92.8117 2654.00
92.8769 2606.00
92.9421 2688.00
93.0073 2583.00
93.0725 2573.00
93.1377 2659.00
93.2029 2672.00
93.2681 2644.00
93.3333 2736.00
93.3985 2648.00
93.4637 2633.00
93.5289 2715.00
93.5941 2695.00
93.6593 2563.00
93.7245 2596.00
93.7897 2710.00
93.8549 2662.00
93.9201 2630.00
93.9853 2517.00
94.0505 2637.00
94.1157 2668.00
94.1809 2691.00
94.2461 2673.00
94.3113 2539.00
94.3765 2675.00
94.4417 2679.00
94.5069 2677.00
94.5721 2635.00
94.6373 2558.00
94.7025 2752.00
94.7677 2568.00
94.8329 2665.00
94.8981 2625.00
94.9633 2613.00
95.0285 2651.00
95.0937 2623.00
95.1589 2611.00
95.2241 2658.00
95.2893 2680.00
95.3545 2730.00
95.4197 2647.00
95.4848 2740.00
95.55 2797.00
95.6153 2713.00
95.6804 2710.00
95.7456 2817.00
95.8108 2704.00
95.876 2729.00
95.9412 2662.00
96.0064 2658.00
96.0716 2642.00
96.1368 2610.00
96.202 2672.00
96.2672 2686.00
96.3324 2636.00
96.3976 2613.00
96.4628 2604.00
96.528 2673.00
96.5932 2694.00
96.6584 2634.00
96.7236 2711.00
96.7888 2671.00
96.854 2658.00
96.9192 2591.00
96.9844 2641.00
97.0496 2665.00
97.1148 2615.00
97.18 2691.00
97.2452 2568.00
97.3104 2692.00
97.3756 2638.00
97.4408 2686.00
97.506 2674.00
97.5712 2680.00
97.6364 2649.00
97.7016 2730.00
97.7668 2698.00
97.832 2710.00
97.8972 2734.00
97.9624 2674.00
98.0276 2786.00
98.0928 2780.00
98.158 2811.00
98.2232 2783.00
98.2884 2907.00
98.3536 2870.00
98.4188 2848.00
98.484 2768.00
98.5492 2900.00
98.6144 2764.00
98.6796 2931.00
98.7448 2870.00
98.81 2879.00
98.8752 2833.00
98.9404 2868.00
99.0056 2912.00
99.0708 2848.00
99.136 2752.00
99.2012 2894.00
99.2664 2840.00
99.3316 2916.00
99.3968 2906.00
99.462 2988.00
99.5272 2969.00
99.5924 2920.00
99.6576 2945.00
99.7228 3051.00
99.788 3019.00
99.8532 2963.00
99.9184 2942.00
99.9836 2950.00
99.9944 3008.00