File: data/xrd_creation/results/PG_1419-1.xy
10.0094 4125.00
10.0746 4218.00
10.1398 4270.00
10.205 4246.00
10.2702 4203.00
10.3354 4256.00
10.4006 4150.00
10.4658 4113.00
10.531 4158.00
10.5962 4141.00
10.6614 4072.00
10.7266 4120.00
10.7918 3921.00
10.857 4063.00
10.9222 4043.00
10.9874 4085.00
11.0526 4051.00
11.1178 4046.00
11.183 3921.00
11.2482 4057.00
11.3134 3989.00
11.3786 3952.00
11.4438 4003.00
11.509 4068.00
11.5742 4032.00
11.6394 3973.00
11.7046 3949.00
11.7698 3952.00
11.835 3982.00
11.9002 3965.00
11.9654 4116.00
12.0306 4103.00
12.0958 4084.00
12.161 3966.00
12.2262 3984.00
12.2914 4030.00
12.3566 3919.00
12.4218 3965.00
12.487 3942.00
12.5522 3926.00
12.6174 4019.00
12.6826 3847.00
12.7478 3867.00
12.813 3864.00
12.8782 3895.00
12.9434 3922.00
13.0086 3874.00
13.0738 3955.00
13.139 3846.00
13.2042 3948.00
13.2694 3861.00
13.3346 3876.00
13.3998 3936.00
13.465 3938.00
13.5302 3971.00
13.5954 3941.00
13.6606 3798.00
13.7258 3985.00
13.791 3969.00
13.8562 3798.00
13.9214 3978.00
13.9865 3898.00
14.0517 3969.00
14.1169 3909.00
14.1821 3878.00
14.2473 3856.00
14.3125 3855.00
14.3777 4071.00
14.4429 3957.00
14.5081 3830.00
14.5733 3950.00
14.6385 3995.00
14.7037 3961.00
14.7689 3883.00
14.8341 3983.00
14.8993 4192.00
14.9645 3894.00
15.0297 3949.00
15.0949 4071.00
15.1601 3876.00
15.2253 3845.00
15.2905 3996.00
15.3557 3939.00
15.4209 3876.00
15.4861 3852.00
15.5513 3984.00
15.6165 4002.00
15.6817 4069.00
15.7469 3929.00
15.8121 4041.00
15.8773 4053.00
15.9425 3925.00
16.0077 3845.00
16.0729 3937.00
16.1381 3958.00
16.2033 3999.00
16.2685 4073.00
16.3337 4000.00
16.3989 4019.00
16.4641 3878.00
16.5293 3945.00
16.5945 4041.00
16.6597 3957.00
16.7249 4069.00
16.7901 3969.00
16.8553 3946.00
16.9205 4043.00
16.9857 4102.00
17.0509 4063.00
17.1161 4041.00
17.1813 4067.00
17.2465 4136.00
17.3117 4252.00
17.3769 4454.00
17.4421 4286.00
17.5073 4185.00
17.5725 3946.00
17.6377 4025.00
17.7029 4030.00
17.7681 4045.00
17.8333 4179.00
17.8985 4149.00
17.9637 4136.00
18.0289 4226.00
18.0941 4179.00
18.1593 4212.00
18.2245 4225.00
18.2897 4404.00
18.3549 4275.00
18.4201 4398.00
18.4853 4320.00
18.5505 4462.00
18.6157 4647.00
18.6809 4725.00
18.7461 4995.00
18.8112 4644.00
18.8764 4505.00
18.9416 4356.00
19.0068 4407.00
19.072 4501.00
19.1372 4391.00
19.2024 4310.00
19.2676 4166.00
19.3328 4011.00
19.398 4012.00
19.4632 4039.00
19.5284 3953.00
19.5936 3856.00
19.6588 4030.00
19.724 4027.00
19.7892 3843.00
19.8544 3798.00
19.9196 3941.00
19.9848 3925.00
20.05 3999.00
20.1152 3885.00
20.1804 3892.00
20.2456 3924.00
20.3108 3937.00
20.376 3815.00
20.4412 3905.00
20.5064 3831.00
20.5716 3886.00
20.6368 3937.00
20.702 3991.00
20.7672 3911.00
20.8324 4177.00
20.8976 4018.00
20.9628 4015.00
21.028 3868.00
21.0932 3959.00
21.1584 4093.00
21.2236 3882.00
21.2888 3995.00
21.354 3923.00
21.4192 3847.00
21.4844 3912.00
21.5496 3913.00
21.6148 4065.00
21.68 3907.00
21.7452 3809.00
21.8104 3917.00
21.8756 3862.00
21.9408 3927.00
22.006 4003.00
22.0712 4029.00
22.1364 4166.00
22.2016 4086.00
22.2668 3919.00
22.332 3913.00
22.3972 4013.00
22.4624 3971.00
22.5276 3968.00
22.5928 4217.00
22.658 4238.00
22.7232 4355.00
22.7884 4255.00
22.8536 4233.00
22.9188 3893.00
22.984 3976.00
23.0492 4074.00
23.1144 4160.00
23.1796 4090.00
23.2448 4078.00
23.31 4036.00
23.3752 4115.00
23.4404 4101.00
23.5056 3996.00
23.5708 4069.00
23.6359 4124.00
23.7011 4011.00
23.7663 4174.00
23.8315 4239.00
23.8967 4124.00
23.9619 4356.00
24.0271 4289.00
24.0923 4176.00
24.1575 4251.00
24.2227 4142.00
24.2879 4231.00
24.3531 4144.00
24.4183 4119.00
24.4835 4132.00
24.5487 4193.00
24.6139 4191.00
24.6791 3988.00
24.7443 4206.00
24.8095 4135.00
24.8747 4171.00
24.9399 4247.00
25.0051 4240.00
25.0703 4198.00
25.1355 4070.00
25.2007 4009.00
25.2659 4079.00
25.3311 3995.00
25.3963 3900.00
25.4615 3972.00
25.5267 3934.00
25.5919 3926.00
25.6571 3907.00
25.7223 3892.00
25.7875 3957.00
25.8527 3910.00
25.9179 3852.00
25.9831 3902.00
26.0483 3853.00
26.1135 3835.00
26.1787 3911.00
26.2439 3843.00
26.3091 3930.00
26.3743 3889.00
26.4395 3905.00
26.5047 3880.00
26.5699 3841.00
26.6351 3923.00
26.7003 3857.00
26.7655 3774.00
26.8307 3883.00
26.8959 3872.00
26.9611 3786.00
27.0263 3923.00
27.0915 3828.00
27.1567 3915.00
27.2219 3750.00
27.2871 3930.00
27.3523 3773.00
27.4175 3888.00
27.4827 3832.00
27.5479 3907.00
27.6131 3979.00
27.6783 3955.00
27.7435 3804.00
27.8087 3964.00
27.8739 4014.00
27.9391 3888.00
28.0043 3982.00
28.0695 3884.00
28.1347 3934.00
28.1999 3962.00
28.2651 3944.00
28.3303 3851.00
28.3955 3868.00
28.4606 3803.00
28.5258 3882.00
28.591 3901.00
28.6562 3902.00
28.7214 3974.00
28.7866 3828.00
28.8518 3987.00
28.917 3849.00
28.9822 4061.00
29.0474 4113.00
29.1126 4121.00
29.1778 4352.00
29.243 4183.00
29.3082 4052.00
29.3734 3981.00
29.4386 4022.00
29.5038 3996.00
29.569 4036.00
29.6342 4086.00
29.6994 4025.00
29.7646 4050.00
29.8298 4083.00
29.895 4216.00
29.9602 4214.00
30.0254 4208.00
30.0906 4062.00
30.1558 4074.00
30.221 4073.00
30.2862 4033.00
30.3514 3990.00
30.4166 4080.00
30.4818 4240.00
30.547 4323.00
30.6122 4071.00
30.6774 4002.00
30.7426 4053.00
30.8078 3987.00
30.873 4024.00
30.9382 4066.00
31.0034 4108.00
31.0686 4105.00
31.1338 4091.00
31.199 4038.00
31.2642 3899.00
31.3294 4028.00
31.3946 4012.00
31.4598 3839.00
31.525 3808.00
31.5902 4011.00
31.6554 3898.00
31.7206 3948.00
31.7858 4019.00
31.851 4079.00
31.9162 4103.00
31.9814 4162.00
32.0466 4445.00
32.1118 4411.00
32.177 4280.00
32.2422 4078.00
32.3074 3973.00
32.3726 3895.00
32.4378 3854.00
32.503 3901.00
32.5682 3876.00
32.6334 3880.00
32.6986 3926.00
32.7638 4098.00
32.829 4093.00
32.8942 4031.00
32.9594 3945.00
33.0246 3965.00
33.0898 3987.00
33.1549 3898.00
33.2201 4006.00
33.2853 3916.00
33.3505 3873.00
33.4157 3916.00
33.4809 4039.00
33.5461 4029.00
33.6113 4023.00
33.6765 3862.00
33.7417 3892.00
33.8069 4062.00
33.8721 3974.00
33.9373 4084.00
34.0025 4076.00
34.0677 4110.00
34.1329 4098.00
34.1981 4114.00
34.2633 3974.00
34.3285 4222.00
34.3937 4140.00
34.4589 4179.00
34.5241 4250.00
34.5893 4286.00
34.6545 4207.00
34.7197 4203.00
34.7849 4013.00
34.8501 3919.00
34.9153 4010.00
34.9805 3872.00
35.0457 3949.00
35.1109 3878.00
35.1761 4023.00
35.2413 3929.00
35.3065 3991.00
35.3717 3994.00
35.4369 3935.00
35.5021 3967.00
35.5673 3840.00
35.6325 3845.00
35.6977 3803.00
35.7629 3868.00
35.8281 3872.00
35.8933 3746.00
35.9585 3827.00
36.0237 4004.00
36.0889 3887.00
36.1541 4161.00
36.2193 4161.00
36.2845 3975.00
36.3497 3856.00
36.4149 3830.00
36.4801 3923.00
36.5453 3908.00
36.6105 3942.00
36.6757 4010.00
36.7409 4432.00
36.8061 4399.00
36.8713 4408.00
36.9365 4269.00
37.0017 4022.00
37.0669 4048.00
37.1321 3821.00
37.1973 3858.00
37.2625 3820.00
37.3277 3795.00
37.3929 3870.00
37.4581 3987.00
37.5233 3900.00
37.5885 3957.00
37.6537 3979.00
37.7189 3863.00
37.7841 3806.00
37.8493 3873.00
37.9145 3837.00
37.9796 3867.00
38.0448 3728.00
38.11 3812.00
38.1752 3805.00
38.2404 3734.00
38.3056 3764.00
38.3708 3763.00
38.436 3826.00
38.5012 3838.00
38.5664 3776.00
38.6316 3862.00
38.6968 3779.00
38.762 3704.00
38.8272 3879.00
38.8924 3805.00
38.9576 3890.00
39.0228 3859.00
39.088 3864.00
39.1532 3919.00
39.2184 3715.00
39.2836 3746.00
39.3488 3748.00
39.414 3713.00
39.4792 3664.00
39.5444 3677.00
39.6096 3810.00
39.6748 3619.00
39.74 3687.00
39.8052 3739.00
39.8704 3698.00
39.9356 3735.00
40.0008 3835.00
40.066 3987.00
40.1312 3831.00
40.1964 3886.00
40.2616 3773.00
40.3268 3767.00
40.392 3805.00
40.4572 3832.00
40.5224 3816.00
40.5876 3825.00
40.6528 3657.00
40.718 3771.00
40.7832 3693.00
40.8484 3715.00
40.9136 3642.00
40.9788 3615.00
41.044 3646.00
41.1092 3636.00
41.1744 3637.00
41.2396 3661.00
41.3048 3673.00
41.37 3725.00
41.4352 3655.00
41.5004 3714.00
41.5656 3673.00
41.6308 3701.00
41.696 3730.00
41.7612 3702.00
41.8264 3534.00
41.8916 3646.00
41.9568 3702.00
42.022 3702.00
42.0872 3703.00
42.1524 3592.00
42.2176 3747.00
42.2828 3652.00
42.348 3720.00
42.4132 3597.00
42.4784 3602.00
42.5436 3551.00
42.6088 3563.00
42.6739 3602.00
42.7392 3691.00
42.8043 3657.00
42.8695 3691.00
42.9347 3679.00
42.9999 3638.00
43.0651 3675.00
43.1303 3784.00
43.1955 3770.00
43.2607 3599.00
43.3259 3736.00
43.3911 3682.00
43.4563 3601.00
43.5215 3767.00
43.5867 3631.00
43.6519 3712.00
43.7171 3742.00
43.7823 3642.00
43.8475 3722.00
43.9127 3685.00
43.9779 3561.00
44.0431 3558.00
44.1083 3554.00
44.1735 3623.00
44.2387 3586.00
44.3039 3585.00
44.3691 3663.00
44.4343 3560.00
44.4995 3706.00
44.5647 3754.00
44.6299 3681.00
44.6951 3611.00
44.7603 3762.00
44.8255 3688.00
44.8907 3779.00
44.9559 3805.00
45.0211 3919.00
45.0863 3777.00
45.1515 3728.00
45.2167 3646.00
45.2819 3724.00
45.3471 3711.00
45.4123 3624.00
45.4775 3685.00
45.5427 3646.00
45.6079 3621.00
45.6731 3586.00
45.7383 3602.00
45.8035 3533.00
45.8687 3528.00
45.9339 3484.00
45.9991 3759.00
46.0643 3649.00
46.1295 3531.00
46.1947 3589.00
46.2599 3619.00
46.3251 3620.00
46.3903 3641.00
46.4555 3664.00
46.5207 3556.00
46.5859 3640.00
46.6511 3612.00
46.7163 3716.00
46.7815 3756.00
46.8467 3749.00
46.9119 3642.00
46.9771 3624.00
47.0423 3745.00
47.1075 3725.00
47.1727 3680.00
47.2379 3502.00
47.3031 3652.00
47.3683 3715.00
47.4335 3650.00
47.4986 3633.00
47.5639 3615.00
47.629 3591.00
47.6942 3704.00
47.7594 3614.00
47.8246 3720.00
47.8898 3674.00
47.955 3638.00
48.0202 3580.00
48.0854 3655.00
48.1506 3616.00
48.2158 3702.00
48.281 3759.00
48.3462 3734.00
48.4114 3587.00
48.4766 3627.00
48.5418 3535.00
48.607 3600.00
48.6722 3693.00
48.7374 3643.00
48.8026 3498.00
48.8678 3582.00
48.933 3620.00
48.9982 3491.00
49.0634 3581.00
49.1286 3588.00
49.1938 3667.00
49.259 3623.00
49.3242 3609.00
49.3894 3651.00
49.4546 3563.00
49.5198 3637.00
49.585 3537.00
49.6502 3653.00
49.7154 3717.00
49.7806 3703.00
49.8458 3662.00
49.911 3760.00
49.9762 3712.00
50.0414 3684.00
50.1066 3653.00
50.1718 3680.00
50.237 3767.00
50.3022 3517.00
50.3674 3694.00
50.4326 3805.00
50.4978 3780.00
50.563 3806.00
50.6282 3715.00
50.6934 3753.00
50.7586 3641.00
50.8238 3640.00
50.889 3690.00
50.9542 3580.00
51.0194 3566.00
51.0846 3619.00
51.1498 3669.00
51.215 3711.00
51.2802 3550.00
51.3454 3608.00
51.4106 3655.00
51.4758 3677.00
51.541 3648.00
51.6062 3634.00
51.6714 3623.00
51.7366 3547.00
51.8018 3545.00
51.867 3628.00
51.9322 3604.00
51.9974 3773.00
52.0626 3544.00
52.1278 3545.00
52.193 3446.00
52.2582 3457.00
52.3233 3630.00
52.3886 3651.00
52.4537 3555.00
52.5189 3508.00
52.5841 3576.00
52.6493 3555.00
52.7145 3567.00
52.7797 3665.00
52.8449 3641.00
52.9101 3659.00
52.9753 3709.00
53.0405 3543.00
53.1057 3571.00
53.1709 3641.00
53.2361 3583.00
53.3013 3588.00
53.3665 3560.00
53.4317 3648.00
53.4969 3562.00
53.5621 3486.00
53.6273 3518.00
53.6925 3509.00
53.7577 3474.00
53.8229 3520.00
53.8881 3426.00
53.9533 3457.00
54.0185 3497.00
54.0837 3664.00
54.1489 3539.00
54.2141 3509.00
54.2793 3541.00
54.3445 3497.00
54.4097 3540.00
54.4749 3335.00
54.5401 3581.00
54.6053 3513.00
54.6705 3473.00
54.7357 3503.00
54.8009 3467.00
54.8661 3523.00
54.9313 3456.00
54.9965 3462.00
55.0617 3460.00
55.1269 3508.00
55.1921 3473.00
55.2573 3657.00
55.3225 3597.00
55.3877 3485.00
55.4529 3451.00
55.5181 3623.00
55.5833 3491.00
55.6485 3553.00
55.7137 3541.00
55.7789 3635.00
55.8441 3564.00
55.9093 3413.00
55.9745 3608.00
56.0397 3479.00
56.1049 3526.00
56.1701 3506.00
56.2353 3473.00
56.3005 3456.00
56.3657 3604.00
56.4309 3511.00
56.4961 3561.00
56.5613 3575.00
56.6265 3477.00
56.6917 3522.00
56.7569 3498.00
56.8221 3628.00
56.8873 3489.00
56.9525 3581.00
57.0177 3565.00
57.0829 3474.00
57.148 3524.00
57.2132 3600.00
57.2784 3483.00
57.3436 3415.00
57.4088 3615.00
57.474 3531.00
57.5392 3579.00
57.6044 3512.00
57.6696 3528.00
57.7348 3579.00
57.8 3502.00
57.8652 3490.00
57.9304 3551.00
57.9956 3599.00
58.0608 3459.00
58.126 3512.00
58.1912 3391.00
58.2564 3611.00
58.3216 3454.00
58.3868 3573.00
58.452 3593.00
58.5172 3527.00
58.5824 3489.00
58.6476 3531.00
58.7128 3454.00
58.778 3529.00
58.8432 3584.00
58.9084 3576.00
58.9736 3451.00
59.0388 3520.00
59.104 3468.00
59.1692 3486.00
59.2344 3489.00
59.2996 3503.00
59.3648 3505.00
59.43 3488.00
59.4952 3502.00
59.5604 3466.00
59.6256 3517.00
59.6908 3534.00
59.756 3439.00
59.8212 3468.00
59.8864 3528.00
59.9516 3545.00
60.0168 3462.00
60.082 3652.00
60.1472 3458.00
60.2124 3549.00
60.2776 3384.00
60.3428 3524.00
60.408 3531.00
60.4732 3534.00
60.5384 3673.00
60.6036 3457.00
60.6688 3474.00
60.734 3588.00
60.7992 3539.00
60.8644 3558.00
60.9296 3370.00
60.9948 3533.00
61.06 3479.00
61.1252 3579.00
61.1904 3434.00
61.2556 3480.00
61.3208 3465.00
61.386 3433.00
61.4512 3428.00
61.5164 3571.00
61.5816 3496.00
61.6468 3525.00
61.712 3485.00
61.7772 3600.00
61.8424 3525.00
61.9076 3510.00
61.9727 3474.00
62.0379 3411.00
62.1031 3531.00
62.1683 3491.00
62.2335 3444.00
62.2987 3518.00
62.3639 3636.00
62.4291 3447.00
62.4943 3418.00
62.5595 3522.00
62.6247 3542.00
62.6899 3541.00
62.7551 3446.00
62.8203 3539.00
62.8855 3392.00
62.9507 3524.00
63.0159 3475.00
63.0811 3439.00
63.1463 3573.00
63.2115 3490.00
63.2767 3498.00
63.3419 3488.00
63.4071 3431.00
63.4723 3510.00
63.5375 3526.00
63.6027 3406.00
63.6679 3511.00
63.7331 3482.00
63.7983 3514.00
63.8635 3499.00
63.9287 3484.00
63.9939 3518.00
64.0591 3504.00
64.1243 3458.00
64.1895 3651.00
64.2547 3483.00
64.3199 3570.00
64.3851 3416.00
64.4503 3400.00
64.5155 3453.00
64.5807 3495.00
64.6459 3432.00
64.7111 3464.00
64.7763 3442.00
64.8415 3462.00
64.9067 3550.00
64.9719 3351.00
65.0371 3486.00
65.1023 3477.00
65.1675 3406.00
65.2327 3383.00
65.2979 3461.00
65.3631 3382.00
65.4283 3463.00
65.4935 3396.00
65.5587 3506.00
65.6239 3408.00
65.6891 3415.00
65.7543 3476.00
65.8195 3455.00
65.8847 3358.00
65.9499 3474.00
66.0151 3358.00
66.0803 3401.00
66.1455 3393.00
66.2107 3423.00
66.2759 3487.00
66.3411 3458.00
66.4063 3553.00
66.4715 3442.00
66.5367 3364.00
66.6019 3432.00
66.6671 3548.00
66.7322 3474.00
66.7974 3437.00
66.8626 3559.00
66.9278 3451.00
66.993 3439.00
67.0582 3479.00
67.1234 3549.00
67.1886 3495.00
67.2538 3390.00
67.319 3496.00
67.3842 3452.00
67.4494 3441.00
67.5146 3365.00
67.5798 3422.00
67.645 3487.00
67.7102 3395.00
67.7754 3375.00
67.8406 3488.00
67.9058 3504.00
67.971 3430.00
68.0362 3447.00
68.1014 3462.00
68.1666 3499.00
68.2318 3384.00
68.297 3417.00
68.3622 3523.00
68.4274 3539.00
68.4926 3478.00
68.5578 3322.00
68.623 3426.00
68.6882 3464.00
68.7534 3611.00
68.8186 3392.00
68.8838 3417.00
68.949 3521.00
69.0142 3342.00
69.0794 3457.00
69.1446 3531.00
69.2098 3460.00
69.275 3423.00
69.3402 3396.00
69.4054 3423.00
69.4706 3441.00
69.5358 3382.00
69.601 3463.00
69.6662 3456.00
69.7314 3587.00
69.7966 3398.00
69.8618 3413.00
69.927 3407.00
69.9922 3423.00
70.0574 3425.00
70.1226 3447.00
70.1878 3447.00
70.253 3442.00
70.3182 3248.00
70.3834 3362.00
70.4486 3561.00
70.5138 3366.00
70.579 3374.00
70.6442 3423.00
70.7094 3485.00
70.7746 3419.00
70.8398 3467.00
70.905 3345.00
70.9702 3454.00
71.0354 3384.00
71.1006 3412.00
71.1658 3404.00
71.231 3432.00
71.2962 3486.00
71.3614 3513.00
71.4266 3444.00
71.4918 3405.00
71.5569 3400.00
71.6221 3413.00
71.6873 3346.00
71.7525 3289.00
71.8177 3383.00
71.8829 3346.00
71.9481 3333.00
72.0133 3520.00
72.0785 3345.00
72.1437 3359.00
72.2089 3477.00
72.2741 3483.00
72.3393 3356.00
72.4045 3418.00
72.4697 3463.00
72.5349 3507.00
72.6001 3415.00
72.6653 3355.00
72.7305 3399.00
72.7957 3466.00
72.8609 3411.00
72.9261 3361.00
72.9913 3442.00
73.0565 3474.00
73.1217 3387.00
73.1869 3384.00
73.2521 3543.00
73.3173 3422.00
73.3825 3505.00
73.4477 3352.00
73.5129 3466.00
73.5781 3409.00
73.6433 3413.00
73.7085 3449.00
73.7737 3289.00
73.8389 3501.00
73.9041 3442.00
73.9693 3399.00
74.0345 3476.00
74.0997 3396.00
74.1649 3457.00
74.2301 3489.00
74.2953 3402.00
74.3605 3411.00
74.4257 3477.00
74.4909 3453.00
74.5561 3480.00
74.6213 3536.00
74.6865 3431.00
74.7517 3332.00
74.8169 3374.00
74.8821 3419.00
74.9473 3383.00
75.0125 3458.00
75.0777 3389.00
75.1429 3431.00
75.2081 3384.00
75.2733 3460.00
75.3385 3407.00
75.4037 3476.00
75.4689 3475.00
75.5341 3382.00
75.5993 3414.00
75.6645 3384.00
75.7297 3358.00
75.7949 3210.00
75.8601 3392.00
75.9253 3463.00
75.9905 3428.00
76.0557 3397.00
76.1209 3319.00
76.186 3380.00
76.2513 3430.00
76.3165 3362.00
76.3816 3457.00
76.4468 3417.00
76.512 3466.00
76.5772 3405.00
76.6424 3363.00
76.7076 3444.00
76.7728 3484.00
76.838 3319.00
76.9032 3413.00
76.9684 3523.00
77.0336 3414.00
77.0988 3437.00
77.164 3548.00
77.2292 3523.00
77.2944 3499.00
77.3596 3393.00
77.4248 3485.00
77.49 3311.00
77.5552 3332.00
77.6204 3357.00
77.6856 3447.00
77.7508 3396.00
77.816 3407.00
77.8812 3306.00
77.9464 3456.00
78.0116 3413.00
78.0768 3382.00
78.142 3447.00
78.2072 3387.00
78.2724 3310.00
78.3376 3446.00
78.4028 3471.00
78.468 3357.00
78.5332 3387.00
78.5984 3418.00
78.6636 3394.00
78.7288 3396.00
78.794 3471.00
78.8592 3456.00
78.9244 3387.00
78.9896 3413.00
79.0548 3372.00
79.12 3361.00
79.1852 3365.00
79.2504 3377.00
79.3156 3360.00
79.3808 3355.00
79.446 3335.00
79.5112 3399.00
79.5764 3311.00
79.6416 3332.00
79.7068 3401.00
79.772 3410.00
79.8372 3215.00
79.9024 3447.00
79.9676 3349.00
80.0328 3214.00
80.098 3390.00
80.1632 3348.00
80.2284 3349.00
80.2936 3338.00
80.3588 3396.00
80.424 3375.00
80.4892 3471.00
80.5544 3438.00
80.6196 3280.00
80.6848 3316.00
80.75 3314.00
80.8152 3355.00
80.8804 3350.00
80.9456 3401.00
81.0108 3373.00
81.076 3339.00
81.1412 3369.00
81.2063 3366.00
81.2715 3446.00
81.3367 3340.00
81.4019 3431.00
81.4671 3368.00
81.5323 3274.00
81.5975 3421.00
81.6627 3440.00
81.7279 3333.00
81.7931 3381.00
81.8583 3405.00
81.9235 3283.00
81.9887 3349.00
82.0539 3427.00
82.1191 3407.00
82.1843 3299.00
82.2495 3479.00
82.3147 3401.00
82.3799 3360.00
82.4451 3406.00
82.5103 3294.00
82.5755 3488.00
82.6407 3372.00
82.7059 3377.00
82.7711 3414.00
82.8363 3399.00
82.9015 3244.00
82.9667 3330.00
83.0319 3390.00
83.0971 3434.00
83.1623 3488.00
83.2275 3348.00
83.2927 3392.00
83.3579 3365.00
83.4231 3309.00
83.4883 3324.00
83.5535 3366.00
83.6187 3404.00
83.6839 3256.00
83.7491 3300.00
83.8143 3305.00
83.8795 3454.00
83.9447 3410.00
84.0099 3393.00
84.0751 3398.00
84.1403 3425.00
84.2055 3363.00
84.2707 3418.00
84.3359 3470.00
84.4011 3483.00
84.4663 3433.00
84.5315 3421.00
84.5967 3444.00
84.6619 3524.00
84.7271 3318.00
84.7923 3431.00
84.8575 3417.00
84.9227 3370.00
84.9879 3304.00
85.0531 3449.00
85.1183 3355.00
85.1835 3301.00
85.2487 3438.00
85.3139 3345.00
85.3791 3361.00
85.4443 3344.00
85.5095 3326.00
85.5747 3275.00
85.6399 3347.00
85.7051 3512.00
85.7703 3404.00
85.8354 3312.00
85.9006 3401.00
85.9659 3251.00
86.031 3377.00
86.0962 3358.00
86.1614 3459.00
86.2266 3352.00
86.2918 3421.00
86.357 3319.00
86.4222 3372.00
86.4874 3343.00
86.5526 3499.00
86.6178 3404.00
86.683 3359.00
86.7482 3275.00
86.8134 3397.00
86.8786 3403.00
86.9438 3371.00
87.009 3325.00
87.0742 3376.00
87.1394 3354.00
87.2046 3366.00
87.2698 3296.00
87.335 3302.00
87.4002 3461.00
87.4654 3339.00
87.5306 3282.00
87.5958 3336.00
87.661 3338.00
87.7262 3338.00
87.7914 3322.00
87.8566 3372.00
87.9218 3368.00
87.987 3343.00
88.0522 3363.00
88.1174 3349.00
88.1826 3393.00
88.2478 3313.00
88.313 3356.00
88.3782 3332.00
88.4434 3273.00
88.5086 3377.00
88.5738 3375.00
88.639 3248.00
88.7042 3403.00
88.7694 3348.00
88.8346 3360.00
88.8998 3286.00
88.965 3350.00
89.0302 3391.00
89.0954 3262.00
89.1606 3291.00
89.2258 3395.00
89.291 3276.00
89.3562 3365.00
89.4214 3351.00
89.4866 3280.00
89.5518 3407.00
89.617 3331.00
89.6822 3322.00
89.7474 3413.00
89.8126 3455.00
89.8778 3344.00
89.943 3420.00
90.0082 3305.00
90.0734 3333.00
90.1386 3402.00
90.2038 3433.00
90.269 3323.00
90.3342 3371.00
90.3994 3317.00
90.4646 3331.00
90.5298 3339.00
90.595 3372.00
90.6601 3361.00
90.7253 3285.00
90.7905 3267.00
90.8557 3442.00
90.9209 3399.00
90.9861 3411.00
91.0513 3346.00
91.1165 3287.00
91.1817 3348.00
91.2469 3372.00
91.3121 3390.00
91.3773 3429.00
91.4425 3350.00
91.5077 3517.00
91.5729 3280.00
91.6381 3394.00
91.7033 3399.00
91.7685 3457.00
91.8337 3450.00
91.8989 3373.00
91.9641 3264.00
92.0293 3347.00
92.0945 3397.00
92.1597 3285.00
92.2249 3488.00
92.2901 3397.00
92.3553 3366.00
92.4205 3376.00
92.4857 3414.00
92.5509 3386.00
92.6161 3297.00
92.6813 3370.00
92.7465 3384.00
92.8117 3319.00
92.8769 3315.00
92.9421 3417.00
93.0073 3399.00
93.0725 3298.00
93.1377 3458.00
93.2029 3283.00
93.2681 3218.00
93.3333 3326.00
93.3985 3379.00
93.4637 3299.00
93.5289 3342.00
93.5941 3190.00
93.6593 3328.00
93.7245 3195.00
93.7897 3405.00
93.8549 3339.00
93.9201 3287.00
93.9853 3233.00
94.0505 3481.00
94.1157 3393.00
94.1809 3337.00
94.2461 3347.00
94.3113 3438.00
94.3765 3347.00
94.4417 3383.00
94.5069 3346.00
94.5721 3349.00
94.6373 3397.00
94.7025 3386.00
94.7677 3453.00
94.8329 3408.00
94.8981 3288.00
94.9633 3409.00
95.0285 3310.00
95.0937 3381.00
95.1589 3331.00
95.2241 3356.00
95.2893 3255.00
95.3545 3377.00
95.4197 3266.00
95.4848 3380.00
95.55 3486.00
95.6153 3391.00
95.6804 3395.00
95.7456 3326.00
95.8108 3392.00
95.876 3354.00
95.9412 3304.00
96.0064 3228.00
96.0716 3406.00
96.1368 3517.00
96.202 3371.00
96.2672 3392.00
96.3324 3333.00
96.3976 3369.00
96.4628 3394.00
96.528 3423.00
96.5932 3463.00
96.6584 3418.00
96.7236 3525.00
96.7888 3382.00
96.854 3330.00
96.9192 3327.00
96.9844 3458.00
97.0496 3288.00
97.1148 3426.00
97.18 3421.00
97.2452 3360.00
97.3104 3242.00
97.3756 3347.00
97.4408 3323.00
97.506 3254.00
97.5712 3330.00
97.6364 3395.00
97.7016 3448.00
97.7668 3331.00
97.832 3395.00
97.8972 3502.00
97.9624 3360.00
98.0276 3363.00
98.0928 3267.00
98.158 3369.00
98.2232 3419.00
98.2884 3337.00
98.3536 3279.00
98.4188 3291.00
98.484 3428.00
98.5492 3218.00
98.6144 3321.00
98.6796 3370.00
98.7448 3382.00
98.81 3361.00
98.8752 3416.00
98.9404 3344.00
99.0056 3249.00
99.0708 3291.00
99.136 3275.00
99.2012 3354.00
99.2664 3385.00
99.3316 3378.00
99.3968 3364.00
99.462 3348.00
99.5272 3292.00
99.5924 3334.00
99.6576 3322.00
99.7228 3308.00
99.788 3312.00
99.8532 3288.00
99.9184 3272.00
99.9836 3282.00
99.9944 3360.00