File: data/xrd_creation/results/PG_1317-1.xy
10.0094 2337.00
10.0746 2273.00
10.1398 2339.00
10.205 2262.00
10.2702 2267.00
10.3354 2287.00
10.4006 2211.00
10.4658 2156.00
10.531 2161.00
10.5962 2113.00
10.6614 2125.00
10.7266 2097.00
10.7918 2138.00
10.857 2139.00
10.9222 2110.00
10.9874 2113.00
11.0526 2016.00
11.1178 1947.00
11.183 1966.00
11.2482 2045.00
11.3134 1940.00
11.3786 1947.00
11.4438 1942.00
11.509 2033.00
11.5742 1902.00
11.6394 1900.00
11.7046 1873.00
11.7698 1849.00
11.835 1836.00
11.9002 1913.00
11.9654 1882.00
12.0306 1813.00
12.0958 1808.00
12.161 1813.00
12.2262 1805.00
12.2914 1805.00
12.3566 1736.00
12.4218 1733.00
12.487 1666.00
12.5522 1697.00
12.6174 1805.00
12.6826 1683.00
12.7478 1709.00
12.813 1723.00
12.8782 1669.00
12.9434 1682.00
13.0086 1699.00
13.0738 1697.00
13.139 1573.00
13.2042 1644.00
13.2694 1571.00
13.3346 1628.00
13.3998 1559.00
13.465 1614.00
13.5302 1571.00
13.5954 1504.00
13.6606 1575.00
13.7258 1653.00
13.791 1494.00
13.8562 1533.00
13.9214 1480.00
13.9865 1613.00
14.0517 1466.00
14.1169 1509.00
14.1821 1560.00
14.2473 1452.00
14.3125 1419.00
14.3777 1459.00
14.4429 1480.00
14.5081 1391.00
14.5733 1510.00
14.6385 1540.00
14.7037 1471.00
14.7689 1494.00
14.8341 1499.00
14.8993 1454.00
14.9645 1452.00
15.0297 1393.00
15.0949 1484.00
15.1601 1465.00
15.2253 1427.00
15.2905 1405.00
15.3557 1384.00
15.4209 1429.00
15.4861 1412.00
15.5513 1375.00
15.6165 1370.00
15.6817 1416.00
15.7469 1455.00
15.8121 1462.00
15.8773 1332.00
15.9425 1404.00
16.0077 1371.00
16.0729 1385.00
16.1381 1332.00
16.2033 1417.00
16.2685 1354.00
16.3337 1387.00
16.3989 1329.00
16.4641 1332.00
16.5293 1350.00
16.5945 1310.00
16.6597 1329.00
16.7249 1408.00
16.7901 1291.00
16.8553 1306.00
16.9205 1370.00
16.9857 1327.00
17.0509 1288.00
17.1161 1284.00
17.1813 1330.00
17.2465 1305.00
17.3117 1232.00
17.3769 1294.00
17.4421 1308.00
17.5073 1373.00
17.5725 1373.00
17.6377 1467.00
17.7029 1451.00
17.7681 1425.00
17.8333 1413.00
17.8985 1336.00
17.9637 1269.00
18.0289 1279.00
18.0941 1316.00
18.1593 1270.00
18.2245 1259.00
18.2897 1264.00
18.3549 1307.00
18.4201 1254.00
18.4853 1274.00
18.5505 1266.00
18.6157 1212.00
18.6809 1331.00
18.7461 1240.00
18.8112 1233.00
18.8764 1221.00
18.9416 1261.00
19.0068 1244.00
19.072 1162.00
19.1372 1242.00
19.2024 1196.00
19.2676 1201.00
19.3328 1131.00
19.398 1132.00
19.4632 1182.00
19.5284 1144.00
19.5936 1188.00
19.6588 1157.00
19.724 1244.00
19.7892 1149.00
19.8544 1165.00
19.9196 1180.00
19.9848 1100.00
20.05 1087.00
20.1152 1104.00
20.1804 1106.00
20.2456 1130.00
20.3108 1153.00
20.376 1170.00
20.4412 1124.00
20.5064 1165.00
20.5716 1100.00
20.6368 1160.00
20.702 1150.00
20.7672 1179.00
20.8324 1190.00
20.8976 1084.00
20.9628 1162.00
21.028 1167.00
21.0932 1115.00
21.1584 1109.00
21.2236 1116.00
21.2888 1132.00
21.354 1119.00
21.4192 1098.00
21.4844 1095.00
21.5496 1128.00
21.6148 1126.00
21.68 1153.00
21.7452 1110.00
21.8104 1052.00
21.8756 1055.00
21.9408 1088.00
22.006 1121.00
22.0712 1136.00
22.1364 1081.00
22.2016 1086.00
22.2668 1026.00
22.332 1097.00
22.3972 1033.00
22.4624 1074.00
22.5276 1051.00
22.5928 1022.00
22.658 1053.00
22.7232 1058.00
22.7884 1053.00
22.8536 1030.00
22.9188 1107.00
22.984 1021.00
23.0492 1056.00
23.1144 1061.00
23.1796 1024.00
23.2448 1084.00
23.31 1043.00
23.3752 1065.00
23.4404 1004.00
23.5056 1064.00
23.5708 1062.00
23.6359 1066.00
23.7011 1023.00
23.7663 1116.00
23.8315 1047.00
23.8967 1072.00
23.9619 1092.00
24.0271 1205.00
24.0923 1106.00
24.1575 1279.00
24.2227 1571.00
24.2879 1674.00
24.3531 1809.00
24.4183 1782.00
24.4835 1696.00
24.5487 1443.00
24.6139 1331.00
24.6791 1372.00
24.7443 1423.00
24.8095 1479.00
24.8747 1449.00
24.9399 1247.00
25.0051 1137.00
25.0703 1048.00
25.1355 1025.00
25.2007 1020.00
25.2659 1009.00
25.3311 1033.00
25.3963 964.00
25.4615 997.00
25.5267 977.00
25.5919 1025.00
25.6571 954.00
25.7223 1039.00
25.7875 1008.00
25.8527 1004.00
25.9179 949.00
25.9831 933.00
26.0483 968.00
26.1135 978.00
26.1787 1038.00
26.2439 968.00
26.3091 975.00
26.3743 1002.00
26.4395 949.00
26.5047 1018.00
26.5699 954.00
26.6351 1000.00
26.7003 989.00
26.7655 965.00
26.8307 1027.00
26.8959 988.00
26.9611 942.00
27.0263 937.00
27.0915 948.00
27.1567 998.00
27.2219 986.00
27.2871 931.00
27.3523 1004.00
27.4175 1013.00
27.4827 954.00
27.5479 1004.00
27.6131 1029.00
27.6783 1030.00
27.7435 1010.00
27.8087 1010.00
27.8739 1054.00
27.9391 1024.00
28.0043 1142.00
28.0695 1199.00
28.1347 1328.00
28.1999 1572.00
28.2651 1902.00
28.3303 2619.00
28.3955 3470.00
28.4606 4282.00
28.5258 5148.00
28.591 4923.00
28.6562 4023.00
28.7214 2699.00
28.7866 1807.00
28.8518 1509.00
28.917 1257.00
28.9822 1170.00
29.0474 1085.00
29.1126 1054.00
29.1778 1047.00
29.243 1020.00
29.3082 954.00
29.3734 1000.00
29.4386 996.00
29.5038 922.00
29.569 965.00
29.6342 936.00
29.6994 962.00
29.7646 932.00
29.8298 943.00
29.895 965.00
29.9602 914.00
30.0254 936.00
30.0906 922.00
30.1558 985.00
30.221 962.00
30.2862 933.00
30.3514 970.00
30.4166 877.00
30.4818 958.00
30.547 905.00
30.6122 957.00
30.6774 943.00
30.7426 944.00
30.8078 933.00
30.873 1009.00
30.9382 980.00
31.0034 930.00
31.0686 1031.00
31.1338 1025.00
31.199 974.00
31.2642 1026.00
31.3294 1061.00
31.3946 1120.00
31.4598 1275.00
31.525 1435.00
31.5902 1772.00
31.6554 2403.00
31.7206 3101.00
31.7858 3799.00
31.851 4361.00
31.9162 4210.00
31.9814 3202.00
32.0466 2244.00
32.1118 1592.00
32.177 1206.00
32.2422 1118.00
32.3074 1059.00
32.3726 1056.00
32.4378 1023.00
32.503 994.00
32.5682 972.00
32.6334 981.00
32.6986 912.00
32.7638 969.00
32.829 1007.00
32.8942 945.00
32.9594 945.00
33.0246 994.00
33.0898 1043.00
33.1549 1179.00
33.2201 1356.00
33.2853 1590.00
33.3505 1782.00
33.4157 1695.00
33.4809 1333.00
33.5461 1104.00
33.6113 1036.00
33.6765 961.00
33.7417 915.00
33.8069 971.00
33.8721 925.00
33.9373 955.00
34.0025 974.00
34.0677 991.00
34.1329 1022.00
34.1981 1042.00
34.2633 1203.00
34.3285 1475.00
34.3937 1707.00
34.4589 1936.00
34.5241 2339.00
34.5893 2284.00
34.6545 2033.00
34.7197 2026.00
34.7849 2062.00
34.8501 2037.00
34.9153 1835.00
34.9805 1436.00
35.0457 1197.00
35.1109 1092.00
35.1761 1013.00
35.2413 942.00
35.3065 1023.00
35.3717 1019.00
35.4369 1115.00
35.5021 1339.00
35.5673 1634.00
35.6325 2070.00
35.6977 2507.00
35.7629 2679.00
35.8281 2336.00
35.8933 1903.00
35.9585 1457.00
36.0237 1191.00
36.0889 1092.00
36.1541 1141.00
36.2193 1239.00
36.2845 1249.00
36.3497 1240.00
36.4149 1088.00
36.4801 977.00
36.5453 979.00
36.6105 861.00
36.6757 902.00
36.7409 891.00
36.8061 917.00
36.8713 882.00
36.9365 897.00
37.0017 862.00
37.0669 866.00
37.1321 884.00
37.1973 870.00
37.2625 871.00
37.3277 915.00
37.3929 907.00
37.4581 854.00
37.5233 858.00
37.5885 852.00
37.6537 863.00
37.7189 889.00
37.7841 894.00
37.8493 865.00
37.9145 811.00
37.9796 890.00
38.0448 891.00
38.11 930.00
38.1752 887.00
38.2404 820.00
38.3056 898.00
38.3708 875.00
38.436 789.00
38.5012 848.00
38.5664 825.00
38.6316 939.00
38.6968 909.00
38.762 949.00
38.8272 1126.00
38.8924 1220.00
38.9576 1332.00
39.0228 1378.00
39.088 1270.00
39.1532 1080.00
39.2184 1024.00
39.2836 982.00
39.3488 998.00
39.414 934.00
39.4792 908.00
39.5444 925.00
39.6096 811.00
39.6748 868.00
39.74 880.00
39.8052 855.00
39.8704 837.00
39.9356 842.00
40.0008 823.00
40.066 863.00
40.1312 856.00
40.1964 858.00
40.2616 960.00
40.3268 884.00
40.392 903.00
40.4572 940.00
40.5224 856.00
40.5876 924.00
40.6528 958.00
40.718 949.00
40.7832 990.00
40.8484 1022.00
40.9136 1190.00
40.9788 1363.00
41.044 1562.00
41.1092 1696.00
41.1744 1724.00
41.2396 1624.00
41.3048 1419.00
41.37 1218.00
41.4352 1220.00
41.5004 1207.00
41.5656 1207.00
41.6308 1251.00
41.696 1199.00
41.7612 1187.00
41.8264 1072.00
41.8916 1123.00
41.9568 973.00
42.022 945.00
42.0872 927.00
42.1524 910.00
42.2176 843.00
42.2828 887.00
42.348 879.00
42.4132 863.00
42.4784 865.00
42.5436 834.00
42.6088 849.00
42.6739 819.00
42.7392 824.00
42.8043 884.00
42.8695 806.00
42.9347 886.00
42.9999 891.00
43.0651 841.00
43.1303 822.00
43.1955 814.00
43.2607 874.00
43.3259 844.00
43.3911 895.00
43.4563 854.00
43.5215 862.00
43.5867 836.00
43.6519 882.00
43.7171 889.00
43.7823 865.00
43.8475 789.00
43.9127 869.00
43.9779 866.00
44.0431 900.00
44.1083 844.00
44.1735 869.00
44.2387 881.00
44.3039 845.00
44.3691 856.00
44.4343 860.00
44.4995 855.00
44.5647 804.00
44.6299 839.00
44.6951 850.00
44.7603 843.00
44.8255 879.00
44.8907 860.00
44.9559 954.00
45.0211 953.00
45.0863 928.00
45.1515 1016.00
45.2167 1044.00
45.2819 1135.00
45.3471 1067.00
45.4123 1054.00
45.4775 970.00
45.5427 967.00
45.6079 961.00
45.6731 924.00
45.7383 1026.00
45.8035 1075.00
45.8687 1170.00
45.9339 1312.00
45.9991 1235.00
46.0643 1166.00
46.1295 1056.00
46.1947 1100.00
46.2599 970.00
46.3251 939.00
46.3903 898.00
46.4555 910.00
46.5207 901.00
46.5859 866.00
46.6511 891.00
46.7163 841.00
46.7815 823.00
46.8467 840.00
46.9119 903.00
46.9771 864.00
47.0423 865.00
47.1075 843.00
47.1727 853.00
47.2379 857.00
47.3031 839.00
47.3683 890.00
47.4335 870.00
47.4986 876.00
47.5639 850.00
47.629 820.00
47.6942 870.00
47.7594 904.00
47.8246 853.00
47.8898 889.00
47.955 877.00
48.0202 925.00
48.0854 840.00
48.1506 842.00
48.2158 914.00
48.281 864.00
48.3462 867.00
48.4114 876.00
48.4766 949.00
48.5418 838.00
48.607 887.00
48.6722 898.00
48.7374 882.00
48.8026 938.00
48.8678 926.00
48.933 890.00
48.9982 897.00
49.0634 969.00
49.1286 985.00
49.1938 995.00
49.259 999.00
49.3242 984.00
49.3894 1192.00
49.4546 1251.00
49.5198 1588.00
49.585 1720.00
49.6502 2190.00
49.7154 2394.00
49.7806 2240.00
49.8458 1986.00
49.911 1653.00
49.9762 1250.00
50.0414 1152.00
50.1066 1084.00
50.1718 1071.00
50.237 1024.00
50.3022 1080.00
50.3674 1188.00
50.4326 1423.00
50.4978 1769.00
50.563 2112.00
50.6282 2457.00
50.6934 2379.00
50.7586 2080.00
50.8238 1699.00
50.889 1680.00
50.9542 1576.00
51.0194 1663.00
51.0846 1768.00
51.1498 1494.00
51.215 1392.00
51.2802 1213.00
51.3454 1075.00
51.4106 1080.00
51.4758 1016.00
51.541 1093.00
51.6062 1166.00
51.6714 1208.00
51.7366 1261.00
51.8018 1119.00
51.867 1069.00
51.9322 1050.00
51.9974 965.00
52.0626 927.00
52.1278 957.00
52.193 965.00
52.2582 895.00
52.3233 871.00
52.3886 890.00
52.4537 918.00
52.5189 950.00
52.5841 928.00
52.6493 899.00
52.7145 896.00
52.7797 889.00
52.8449 929.00
52.9101 891.00
52.9753 906.00
53.0405 920.00
53.1057 890.00
53.1709 904.00
53.2361 884.00
53.3013 914.00
53.3665 925.00
53.4317 897.00
53.4969 907.00
53.5621 893.00
53.6273 896.00
53.6925 947.00
53.7577 943.00
53.8229 919.00
53.8881 960.00
53.9533 973.00
54.0185 1011.00
54.0837 1133.00
54.1489 1407.00
54.2141 1553.00
54.2793 1631.00
54.3445 1510.00
54.4097 1519.00
54.4749 1539.00
54.5401 1645.00
54.6053 1722.00
54.6705 1663.00
54.7357 1577.00
54.8009 1383.00
54.8661 1274.00
54.9313 1124.00
54.9965 1047.00
55.0617 1006.00
55.1269 1056.00
55.1921 1101.00
55.2573 1110.00
55.3225 1074.00
55.3877 1041.00
55.4529 1126.00
55.5181 1134.00
55.5833 1194.00
55.6485 1248.00
55.7137 1560.00
55.7789 1847.00
55.8441 1982.00
55.9093 2116.00
55.9745 1969.00
56.0397 1866.00
56.1049 1783.00
56.1701 1573.00
56.2353 1426.00
56.3005 1454.00
56.3657 1587.00
56.4309 1537.00
56.4961 1643.00
56.5613 1445.00
56.6265 1381.00
56.6917 1249.00
56.7569 1147.00
56.8221 1075.00
56.8873 1032.00
56.9525 1029.00
57.0177 1018.00
57.0829 975.00
57.148 1017.00
57.2132 1030.00
57.2784 991.00
57.3436 1049.00
57.4088 1069.00
57.474 1137.00
57.5392 1274.00
57.6044 1381.00
57.6696 1566.00
57.7348 1634.00
57.8 1509.00
57.8652 1454.00
57.9304 1265.00
57.9956 1091.00
58.0608 1123.00
58.126 1081.00
58.1912 1110.00
58.2564 1148.00
58.3216 1254.00
58.3868 1363.00
58.452 1428.00
58.5172 1464.00
58.5824 1359.00
58.6476 1331.00
58.7128 1319.00
58.778 1344.00
58.8432 1303.00
58.9084 1287.00
58.9736 1191.00
59.0388 1059.00
59.104 1085.00
59.1692 1039.00
59.2344 961.00
59.2996 957.00
59.3648 984.00
59.43 980.00
59.4952 958.00
59.5604 1018.00
59.6256 1021.00
59.6908 1069.00
59.756 943.00
59.8212 986.00
59.8864 1035.00
59.9516 1051.00
60.0168 1082.00
60.082 1085.00
60.1472 1181.00
60.2124 1320.00
60.2776 1389.00
60.3428 1655.00
60.408 1750.00
60.4732 1741.00
60.5384 1722.00
60.6036 1677.00
60.6688 1516.00
60.734 1406.00
60.7992 1264.00
60.8644 1139.00
60.9296 1109.00
60.9948 1088.00
61.06 1047.00
61.1252 996.00
61.1904 1020.00
61.2556 1001.00
61.3208 989.00
61.386 1002.00
61.4512 1051.00
61.5164 1074.00
61.5816 1116.00
61.6468 1121.00
61.712 1210.00
61.7772 1381.00
61.8424 1443.00
61.9076 1480.00
61.9727 1427.00
62.0379 1402.00
62.1031 1327.00
62.1683 1302.00
62.2335 1270.00
62.2987 1294.00
62.3639 1471.00
62.4291 1687.00
62.4943 1793.00
62.5595 1943.00
62.6247 1772.00
62.6899 1593.00
62.7551 1438.00
62.8203 1191.00
62.8855 1144.00
62.9507 1155.00
63.0159 1102.00
63.0811 1168.00
63.1463 1150.00
63.2115 1212.00
63.2767 1433.00
63.3419 1613.00
63.4071 1675.00
63.4723 1808.00
63.5375 1620.00
63.6027 1451.00
63.6679 1273.00
63.7331 1153.00
63.7983 1061.00
63.8635 1124.00
63.9287 1104.00
63.9939 1174.00
64.0591 1285.00
64.1243 1376.00
64.1895 1371.00
64.2547 1254.00
64.3199 1193.00
64.3851 1159.00
64.4503 1134.00
64.5155 1044.00
64.5807 1120.00
64.6459 1213.00
64.7111 1206.00
64.7763 1211.00
64.8415 1269.00
64.9067 1248.00
64.9719 1148.00
65.0371 1097.00
65.1023 1169.00
65.1675 1105.00
65.2327 1128.00
65.2979 1065.00
65.3631 1023.00
65.4283 1027.00
65.4935 1066.00
65.5587 1068.00
65.6239 1029.00
65.6891 1082.00
65.7543 1105.00
65.8195 1218.00
65.8847 1224.00
65.9499 1264.00
66.0151 1451.00
66.0803 1339.00
66.1455 1529.00
66.2107 1617.00
66.2759 1558.00
66.3411 1651.00
66.4063 1625.00
66.4715 1480.00
66.5367 1348.00
66.6019 1258.00
66.6671 1156.00
66.7322 1159.00
66.7974 1155.00
66.8626 1062.00
66.9278 998.00
66.993 984.00
67.0582 1047.00
67.1234 1051.00
67.1886 1007.00
67.2538 1018.00
67.319 1020.00
67.3842 1015.00
67.4494 1037.00
67.5146 979.00
67.5798 1009.00
67.645 1001.00
67.7102 1017.00
67.7754 1030.00
67.8406 927.00
67.9058 1009.00
67.971 968.00
68.0362 1003.00
68.1014 977.00
68.1666 995.00
68.2318 948.00
68.297 914.00
68.3622 1012.00
68.4274 1025.00
68.4926 1038.00
68.5578 1014.00
68.623 1007.00
68.6882 1004.00
68.7534 971.00
68.8186 1042.00
68.8838 1077.00
68.949 959.00
69.0142 1029.00
69.0794 1028.00
69.1446 1024.00
69.2098 1049.00
69.275 1122.00
69.3402 1069.00
69.4054 1145.00
69.4706 1208.00
69.5358 1188.00
69.601 1234.00
69.6662 1290.00
69.7314 1196.00
69.7966 1197.00
69.8618 1105.00
69.927 1146.00
69.9922 1082.00
70.0574 1020.00
70.1226 1086.00
70.1878 1083.00
70.253 1057.00
70.3182 1084.00
70.3834 1088.00
70.4486 1017.00
70.5138 1100.00
70.579 1095.00
70.6442 1076.00
70.7094 1092.00
70.7746 1087.00
70.8398 1080.00
70.905 1102.00
70.9702 1035.00
71.0354 1140.00
71.1006 1084.00
71.1658 1108.00
71.231 1030.00
71.2962 1089.00
71.3614 1110.00
71.4266 1098.00
71.4918 1197.00
71.5569 1240.00
71.6221 1354.00
71.6873 1428.00
71.7525 1485.00
71.8177 1510.00
71.8829 1459.00
71.9481 1483.00
72.0133 1444.00
72.0785 1383.00
72.1437 1350.00
72.2089 1251.00
72.2741 1228.00
72.3393 1180.00
72.4045 1201.00
72.4697 1187.00
72.5349 1159.00
72.6001 1199.00
72.6653 1240.00
72.7305 1169.00
72.7957 1209.00
72.8609 1239.00
72.9261 1129.00
72.9913 1263.00
73.0565 1256.00
73.1217 1174.00
73.1869 1192.00
73.2521 1174.00
73.3173 1216.00
73.3825 1157.00
73.4477 1226.00
73.5129 1167.00
73.5781 1070.00
73.6433 1094.00
73.7085 1031.00
73.7737 1060.00
73.8389 1058.00
73.9041 1076.00
73.9693 1103.00
74.0345 1061.00
74.0997 1096.00
74.1649 1078.00
74.2301 1107.00
74.2953 1088.00
74.3605 1103.00
74.4257 1133.00
74.4909 1083.00
74.5561 1057.00
74.6213 1091.00
74.6865 1077.00
74.7517 1090.00
74.8169 1051.00
74.8821 1066.00
74.9473 1123.00
75.0125 1134.00
75.0777 1099.00
75.1429 1128.00
75.2081 1182.00
75.2733 1248.00
75.3385 1201.00
75.4037 1252.00
75.4689 1306.00
75.5341 1410.00
75.5993 1355.00
75.6645 1452.00
75.7297 1482.00
75.7949 1479.00
75.8601 1397.00
75.9253 1381.00
75.9905 1352.00
76.0557 1220.00
76.1209 1206.00
76.186 1166.00
76.2513 1108.00
76.3165 1176.00
76.3816 1127.00
76.4468 1139.00
76.512 1130.00
76.5772 1129.00
76.6424 1105.00
76.7076 1124.00
76.7728 1215.00
76.838 1132.00
76.9032 1201.00
76.9684 1172.00
77.0336 1228.00
77.0988 1281.00
77.164 1277.00
77.2292 1257.00
77.2944 1217.00
77.3596 1202.00
77.4248 1157.00
77.49 1159.00
77.5552 1148.00
77.6204 1105.00
77.6856 1147.00
77.7508 1175.00
77.816 1134.00
77.8812 1195.00
77.9464 1220.00
78.0116 1221.00
78.0768 1214.00
78.142 1259.00
78.2072 1246.00
78.2724 1199.00
78.3376 1230.00
78.4028 1161.00
78.468 1197.00
78.5332 1206.00
78.5984 1214.00
78.6636 1194.00
78.7288 1227.00
78.794 1158.00
78.8592 1197.00
78.9244 1171.00
78.9896 1235.00
79.0548 1168.00
79.12 1222.00
79.1852 1097.00
79.2504 1165.00
79.3156 1195.00
79.3808 1225.00
79.446 1202.00
79.5112 1238.00
79.5764 1387.00
79.6416 1395.00
79.7068 1322.00
79.772 1328.00
79.8372 1312.00
79.9024 1253.00
79.9676 1191.00
80.0328 1094.00
80.098 1139.00
80.1632 1137.00
80.2284 1069.00
80.2936 1137.00
80.3588 1159.00
80.424 1101.00
80.4892 1156.00
80.5544 1053.00
80.6196 1203.00
80.6848 1223.00
80.75 1217.00
80.8152 1152.00
80.8804 1132.00
80.9456 1159.00
81.0108 1198.00
81.076 1129.00
81.1412 1125.00
81.2063 1177.00
81.2715 1220.00
81.3367 1139.00
81.4019 1229.00
81.4671 1088.00
81.5323 1144.00
81.5975 1180.00
81.6627 1154.00
81.7279 1161.00
81.7931 1128.00
81.8583 1204.00
81.9235 1205.00
81.9887 1310.00
82.0539 1304.00
82.1191 1335.00
82.1843 1369.00
82.2495 1388.00
82.3147 1351.00
82.3799 1288.00
82.4451 1330.00
82.5103 1231.00
82.5755 1279.00
82.6407 1232.00
82.7059 1187.00
82.7711 1181.00
82.8363 1195.00
82.9015 1210.00
82.9667 1192.00
83.0319 1297.00
83.0971 1331.00
83.1623 1300.00
83.2275 1363.00
83.2927 1309.00
83.3579 1435.00
83.4231 1381.00
83.4883 1371.00
83.5535 1328.00
83.6187 1325.00
83.6839 1338.00
83.7491 1288.00
83.8143 1408.00
83.8795 1433.00
83.9447 1377.00
84.0099 1325.00
84.0751 1343.00
84.1403 1338.00
84.2055 1295.00
84.2707 1339.00
84.3359 1269.00
84.4011 1324.00
84.4663 1372.00
84.5315 1372.00
84.5967 1396.00
84.6619 1396.00
84.7271 1392.00
84.7923 1428.00
84.8575 1493.00
84.9227 1488.00
84.9879 1544.00
85.0531 1505.00
85.1183 1418.00
85.1835 1315.00
85.2487 1304.00
85.3139 1312.00
85.3791 1229.00
85.4443 1287.00
85.5095 1237.00
85.5747 1327.00
85.6399 1374.00
85.7051 1301.00
85.7703 1314.00
85.8354 1236.00
85.9006 1300.00
85.9659 1170.00
86.031 1234.00
86.0962 1197.00
86.1614 1098.00
86.2266 1166.00
86.2918 1164.00
86.357 1134.00
86.4222 1201.00
86.4874 1261.00
86.5526 1242.00
86.6178 1159.00
86.683 1277.00
86.7482 1289.00
86.8134 1294.00
86.8786 1306.00
86.9438 1355.00
87.009 1284.00
87.0742 1318.00
87.1394 1208.00
87.2046 1319.00
87.2698 1215.00
87.335 1201.00
87.4002 1226.00
87.4654 1205.00
87.5306 1188.00
87.5958 1168.00
87.661 1162.00
87.7262 1182.00
87.7914 1230.00
87.8566 1286.00
87.9218 1259.00
87.987 1289.00
88.0522 1284.00
88.1174 1345.00
88.1826 1383.00
88.2478 1414.00
88.313 1413.00
88.3782 1379.00
88.4434 1356.00
88.5086 1355.00
88.5738 1431.00
88.639 1423.00
88.7042 1448.00
88.7694 1401.00
88.8346 1471.00
88.8998 1459.00
88.965 1468.00
89.0302 1503.00
89.0954 1404.00
89.1606 1471.00
89.2258 1517.00
89.291 1528.00
89.3562 1520.00
89.4214 1391.00
89.4866 1420.00
89.5518 1357.00
89.617 1376.00
89.6822 1288.00
89.7474 1306.00
89.8126 1321.00
89.8778 1244.00
89.943 1292.00
90.0082 1334.00
90.0734 1317.00
90.1386 1319.00
90.2038 1346.00
90.269 1401.00
90.3342 1336.00
90.3994 1437.00
90.4646 1425.00
90.5298 1424.00
90.595 1407.00
90.6601 1395.00
90.7253 1355.00
90.7905 1375.00
90.8557 1375.00
90.9209 1378.00
90.9861 1341.00
91.0513 1250.00
91.1165 1315.00
91.1817 1265.00
91.2469 1231.00
91.3121 1265.00
91.3773 1329.00
91.4425 1282.00
91.5077 1272.00
91.5729 1244.00
91.6381 1252.00
91.7033 1276.00
91.7685 1296.00
91.8337 1286.00
91.8989 1248.00
91.9641 1301.00
92.0293 1219.00
92.0945 1249.00
92.1597 1295.00
92.2249 1260.00
92.2901 1278.00
92.3553 1303.00
92.4205 1227.00
92.4857 1296.00
92.5509 1277.00
92.6161 1176.00
92.6813 1201.00
92.7465 1276.00
92.8117 1216.00
92.8769 1223.00
92.9421 1238.00
93.0073 1246.00
93.0725 1217.00
93.1377 1196.00
93.2029 1260.00
93.2681 1241.00
93.3333 1184.00
93.3985 1209.00
93.4637 1176.00
93.5289 1276.00
93.5941 1334.00
93.6593 1295.00
93.7245 1322.00
93.7897 1388.00
93.8549 1405.00
93.9201 1320.00
93.9853 1327.00
94.0505 1299.00
94.1157 1290.00
94.1809 1259.00
94.2461 1284.00
94.3113 1263.00
94.3765 1297.00
94.4417 1321.00
94.5069 1300.00
94.5721 1387.00
94.6373 1325.00
94.7025 1359.00
94.7677 1313.00
94.8329 1361.00
94.8981 1321.00
94.9633 1271.00
95.0285 1240.00
95.0937 1306.00
95.1589 1291.00
95.2241 1201.00
95.2893 1249.00
95.3545 1277.00
95.4197 1194.00
95.4848 1318.00
95.55 1374.00
95.6153 1432.00
95.6804 1352.00
95.7456 1434.00
95.8108 1435.00
95.876 1503.00
95.9412 1512.00
96.0064 1450.00
96.0716 1448.00
96.1368 1504.00
96.202 1469.00
96.2672 1366.00
96.3324 1376.00
96.3976 1406.00
96.4628 1306.00
96.528 1347.00
96.5932 1310.00
96.6584 1304.00
96.7236 1427.00
96.7888 1383.00
96.854 1469.00
96.9192 1476.00
96.9844 1467.00
97.0496 1452.00
97.1148 1490.00
97.18 1486.00
97.2452 1600.00
97.3104 1572.00
97.3756 1584.00
97.4408 1678.00
97.506 1609.00
97.5712 1604.00
97.6364 1591.00
97.7016 1580.00
97.7668 1676.00
97.832 1692.00
97.8972 1590.00
97.9624 1558.00
98.0276 1452.00
98.0928 1426.00
98.158 1397.00
98.2232 1386.00
98.2884 1364.00
98.3536 1373.00
98.4188 1314.00
98.484 1341.00
98.5492 1308.00
98.6144 1340.00
98.6796 1405.00
98.7448 1379.00
98.81 1390.00
98.8752 1495.00
98.9404 1407.00
99.0056 1446.00
99.0708 1517.00
99.136 1388.00
99.2012 1448.00
99.2664 1400.00
99.3316 1445.00
99.3968 1461.00
99.462 1497.00
99.5272 1441.00
99.5924 1553.00
99.6576 1566.00
99.7228 1497.00
99.788 1583.00
99.8532 1505.00
99.9184 1524.00
99.9836 1521.00
99.9944 1538.00