File: data/xrd_creation/results/PG_1750-1.xy
9.903433 2640.00
9.968632 2602.00
10.0338 2500.00
10.099 2507.00
10.1642 2540.00
10.2294 2558.00
10.2946 2552.00
10.3598 2483.00
10.425 2440.00
10.4902 2473.00
10.5554 2426.00
10.6206 2372.00
10.6858 2489.00
10.751 2357.00
10.8162 2377.00
10.8814 2394.00
10.9466 2283.00
11.0118 2299.00
11.077 2329.00
11.1422 2217.00
11.2074 2177.00
11.2726 2282.00
11.3378 2248.00
11.403 2160.00
11.4682 2142.00
11.5334 2131.00
11.5986 2203.00
11.6638 2126.00
11.729 2144.00
11.7942 2050.00
11.8594 2040.00
11.9246 1989.00
11.9898 2027.00
12.055 1955.00
12.1202 2009.00
12.1854 1964.00
12.2506 1970.00
12.3158 1874.00
12.381 1948.00
12.4462 1957.00
12.5114 1954.00
12.5766 1980.00
12.6418 1895.00
12.707 1972.00
12.7722 1892.00
12.8374 1835.00
12.9026 1869.00
12.9678 1840.00
13.033 1828.00
13.0982 1886.00
13.1634 1834.00
13.2286 1829.00
13.2938 1796.00
13.359 1864.00
13.4242 1760.00
13.4894 1759.00
13.5546 1786.00
13.6198 1719.00
13.685 1769.00
13.7502 1824.00
13.8154 1806.00
13.8805 1768.00
13.9457 1715.00
14.0109 1761.00
14.0761 1740.00
14.1413 1684.00
14.2065 1719.00
14.2717 1688.00
14.3369 1739.00
14.4021 1651.00
14.4673 1712.00
14.5325 1711.00
14.5977 1713.00
14.6629 1702.00
14.7281 1733.00
14.7933 1756.00
14.8585 1609.00
14.9237 1633.00
14.9889 1627.00
15.0541 1650.00
15.1193 1655.00
15.1845 1657.00
15.2497 1623.00
15.3149 1603.00
15.3801 1569.00
15.4453 1674.00
15.5105 1609.00
15.5757 1609.00
15.6409 1577.00
15.7061 1557.00
15.7713 1570.00
15.8365 1669.00
15.9017 1637.00
15.9669 1565.00
16.0321 1580.00
16.0973 1608.00
16.1625 1595.00
16.2277 1509.00
16.2929 1528.00
16.3581 1552.00
16.4233 1524.00
16.4885 1602.00
16.5537 1606.00
16.6189 1578.00
16.6841 1591.00
16.7493 1486.00
16.8145 1516.00
16.8797 1553.00
16.9449 1616.00
17.0101 1528.00
17.0753 1535.00
17.1405 1480.00
17.2057 1547.00
17.2709 1467.00
17.3361 1474.00
17.4013 1580.00
17.4665 1627.00
17.5317 1558.00
17.5969 1655.00
17.6621 1758.00
17.7273 1797.00
17.7925 1872.00
17.8577 2011.00
17.9229 1851.00
17.9881 1559.00
18.0533 1547.00
18.1185 1431.00
18.1837 1473.00
18.2489 1468.00
18.3141 1462.00
18.3793 1437.00
18.4445 1408.00
18.5097 1465.00
18.5749 1358.00
18.6401 1480.00
18.7052 1446.00
18.7704 1388.00
18.8356 1334.00
18.9008 1350.00
18.966 1420.00
19.0312 1414.00
19.0964 1444.00
19.1616 1405.00
19.2268 1394.00
19.292 1378.00
19.3572 1362.00
19.4224 1368.00
19.4876 1352.00
19.5528 1367.00
19.618 1314.00
19.6832 1332.00
19.7484 1319.00
19.8136 1366.00
19.8788 1395.00
19.944 1334.00
20.0092 1365.00
20.0744 1370.00
20.1396 1362.00
20.2048 1318.00
20.27 1308.00
20.3352 1451.00
20.4004 1466.00
20.4656 1533.00
20.5308 1518.00
20.596 1695.00
20.6612 1878.00
20.7264 2184.00
20.7916 2647.00
20.8568 2448.00
20.922 1694.00
20.9872 1363.00
21.0524 1297.00
21.1176 1325.00
21.1828 1295.00
21.248 1359.00
21.3132 1330.00
21.3784 1308.00
21.4436 1225.00
21.5088 1261.00
21.574 1281.00
21.6392 1257.00
21.7044 1298.00
21.7696 1303.00
21.8348 1260.00
21.9 1241.00
21.9652 1266.00
22.0304 1216.00
22.0956 1256.00
22.1608 1212.00
22.226 1261.00
22.2912 1200.00
22.3564 1220.00
22.4216 1227.00
22.4868 1198.00
22.552 1234.00
22.6172 1267.00
22.6824 1262.00
22.7476 1214.00
22.8128 1191.00
22.878 1244.00
22.9432 1162.00
23.0084 1209.00
23.0736 1193.00
23.1388 1207.00
23.204 1152.00
23.2692 1243.00
23.3344 1195.00
23.3996 1214.00
23.4647 1196.00
23.5299 1180.00
23.5951 1186.00
23.6603 1208.00
23.7255 1170.00
23.7907 1239.00
23.8559 1233.00
23.9211 1229.00
23.9863 1301.00
24.0515 1262.00
24.1167 1338.00
24.1819 1408.00
24.2471 1656.00
24.3123 1833.00
24.3775 2168.00
24.4427 2808.00
24.5079 3083.00
24.5731 2587.00
24.6383 1963.00
24.7035 1823.00
24.7687 1897.00
24.8339 2338.00
24.8991 2703.00
24.9643 2433.00
25.0295 1754.00
25.0947 1382.00
25.1599 1265.00
25.2251 1166.00
25.2903 1198.00
25.3555 1200.00
25.4207 1069.00
25.4859 1137.00
25.5511 1128.00
25.6163 1136.00
25.6815 1147.00
25.7467 1165.00
25.8119 1141.00
25.8771 1117.00
25.9423 1113.00
26.0075 1085.00
26.0727 1060.00
26.1379 1182.00
26.2031 1080.00
26.2683 1127.00
26.3335 1100.00
26.3987 1147.00
26.4639 1092.00
26.5291 1094.00
26.5943 1141.00
26.6595 1116.00
26.7247 1088.00
26.7899 1079.00
26.8551 1057.00
26.9203 1092.00
26.9855 1102.00
27.0507 1104.00
27.1159 1078.00
27.1811 1112.00
27.2463 1120.00
27.3115 1093.00
27.3767 1085.00
27.4419 1117.00
27.5071 1206.00
27.5723 1221.00
27.6375 1222.00
27.7027 1187.00
27.7679 1278.00
27.8331 1310.00
27.8983 1281.00
27.9635 1401.00
28.0287 1326.00
28.0939 1529.00
28.1591 1653.00
28.2243 1879.00
28.2894 2300.00
28.3546 3029.00
28.4198 4079.00
28.485 6084.00
28.5502 8981.00
28.6154 12738.00
28.6806 13195.00
28.7458 9153.00
28.811 5059.00
28.8762 3103.00
28.9414 2555.00
29.0066 2334.00
29.0718 2339.00
29.137 2542.00
29.2022 3277.00
29.2674 4698.00
29.3326 7203.00
29.3978 12267.00
29.463 16952.00
29.5282 11062.00
29.5934 4698.00
29.6586 2380.00
29.7238 1845.00
29.789 1752.00
29.8542 1601.00
29.9194 1485.00
29.9846 1395.00
30.0498 1292.00
30.115 1298.00
30.1802 1361.00
30.2454 1313.00
30.3106 1262.00
30.3758 1268.00
30.441 1234.00
30.5062 1278.00
30.5714 1203.00
30.6366 1147.00
30.7018 1197.00
30.767 1204.00
30.8322 1153.00
30.8974 1222.00
30.9626 1291.00
31.0278 1270.00
31.093 1262.00
31.1582 1250.00
31.2234 1341.00
31.2886 1307.00
31.3538 1510.00
31.419 1574.00
31.4842 1658.00
31.5494 1820.00
31.6146 2193.00
31.6798 2878.00
31.745 3830.00
31.8102 5614.00
31.8754 8274.00
31.9406 10840.00
32.0058 9718.00
32.071 6381.00
32.1362 3421.00
32.2014 2411.00
32.2666 1910.00
32.3318 1640.00
32.397 1389.00
32.4622 1322.00
32.5274 1211.00
32.5926 1164.00
32.6578 1106.00
32.723 1109.00
32.7882 1098.00
32.8534 1064.00
32.9186 1024.00
32.9838 1026.00
33.0489 1092.00
33.1141 1139.00
33.1793 1078.00
33.2445 978.00
33.3097 1119.00
33.3749 1030.00
33.4401 1104.00
33.5053 1144.00
33.5705 1163.00
33.6357 1123.00
33.7009 1167.00
33.7661 1284.00
33.8313 1451.00
33.8965 1758.00
33.9617 2524.00
34.0269 3749.00
34.0921 5001.00
34.1573 3816.00
34.2225 2305.00
34.2877 1717.00
34.3529 1746.00
34.4181 2150.00
34.4833 2640.00
34.5485 3848.00
34.6137 4636.00
34.6789 4448.00
34.7441 3637.00
34.8093 3340.00
34.8745 3881.00
34.9397 4018.00
35.0049 3399.00
35.0701 2275.00
35.1353 1641.00
35.2005 1377.00
35.2657 1224.00
35.3309 1160.00
35.3961 1214.00
35.4613 1260.00
35.5265 1411.00
35.5917 1735.00
35.6569 2214.00
35.7221 2967.00
35.7873 4350.00
35.8525 4349.00
35.9177 3006.00
35.9829 2041.00
36.0481 1611.00
36.1133 1726.00
36.1785 2120.00
36.2437 2195.00
36.3089 2156.00
36.3741 2034.00
36.4393 1780.00
36.5045 1470.00
36.5697 1188.00
36.6349 1151.00
36.7001 1009.00
36.7653 1024.00
36.8305 1020.00
36.8957 953.00
36.9609 984.00
37.0261 956.00
37.0913 949.00
37.1565 951.00
37.2217 1014.00
37.2869 938.00
37.3521 887.00
37.4173 961.00
37.4825 889.00
37.5477 883.00
37.6129 899.00
37.6781 846.00
37.7433 922.00
37.8085 897.00
37.8736 959.00
37.9388 924.00
38.004 928.00
38.0692 903.00
38.1344 1012.00
38.1996 1100.00
38.2648 1097.00
38.33 1010.00
38.3952 947.00
38.4604 900.00
38.5256 914.00
38.5908 876.00
38.656 1001.00
38.7212 996.00
38.7864 1054.00
38.8516 1091.00
38.9168 1272.00
38.982 1515.00
39.0472 1927.00
39.1124 2107.00
39.1776 1886.00
39.2428 1425.00
39.308 1208.00
39.3732 1089.00
39.4384 1038.00
39.5036 986.00
39.5688 914.00
39.634 933.00
39.6992 933.00
39.7644 956.00
39.8296 1011.00
39.8948 1048.00
39.96 1157.00
40.0252 1259.00
40.0904 1648.00
40.1556 1933.00
40.2208 1600.00
40.286 1215.00
40.3512 1033.00
40.4164 1040.00
40.4816 1110.00
40.5468 1025.00
40.612 1035.00
40.6772 935.00
40.7424 948.00
40.8076 991.00
40.8728 1016.00
40.938 1128.00
41.0032 1185.00
41.0684 1512.00
41.1336 1757.00
41.1988 2315.00
41.264 2694.00
41.3292 2553.00
41.3944 2117.00
41.4596 1704.00
41.5248 1502.00
41.59 1514.00
41.6552 1679.00
41.7204 1550.00
41.7856 1488.00
41.8508 1494.00
41.916 1603.00
41.9812 1587.00
42.0464 1368.00
42.1116 1198.00
42.1768 1013.00
42.242 964.00
42.3072 927.00
42.3724 906.00
42.4376 858.00
42.5028 846.00
42.568 835.00
42.6332 913.00
42.6983 839.00
42.7635 891.00
42.8287 861.00
42.8939 879.00
42.9591 852.00
43.0243 808.00
43.0895 831.00
43.1547 785.00
43.2199 866.00
43.2851 843.00
43.3503 930.00
43.4155 917.00
43.4807 895.00
43.5459 1001.00
43.6111 1136.00
43.6763 1472.00
43.7415 2141.00
43.8067 2099.00
43.8719 1664.00
43.9371 1253.00
44.0023 942.00
44.0675 890.00
44.1327 817.00
44.1979 873.00
44.2631 857.00
44.3283 856.00
44.3935 838.00
44.4587 832.00
44.5239 818.00
44.5891 859.00
44.6543 854.00
44.7195 886.00
44.7847 876.00
44.8499 885.00
44.9151 867.00
44.9803 892.00
45.0455 979.00
45.1107 929.00
45.1759 1029.00
45.2411 1171.00
45.3063 1348.00
45.3715 1456.00
45.4367 1353.00
45.5019 1225.00
45.5671 1092.00
45.6323 970.00
45.6975 990.00
45.7627 1022.00
45.8279 1139.00
45.8931 1261.00
45.9583 1406.00
46.0235 1657.00
46.0887 1822.00
46.1539 1535.00
46.2191 1372.00
46.2843 1060.00
46.3495 1026.00
46.4147 911.00
46.4799 889.00
46.5451 850.00
46.6103 837.00
46.6755 911.00
46.7407 876.00
46.8059 913.00
46.8711 871.00
46.9363 887.00
47.0015 878.00
47.0667 983.00
47.1319 1230.00
47.1971 1313.00
47.2623 1088.00
47.3275 1025.00
47.3927 931.00
47.4579 880.00
47.523 856.00
47.5882 851.00
47.6534 843.00
47.7186 835.00
47.7838 810.00
47.849 845.00
47.9142 828.00
47.9794 852.00
48.0446 845.00
48.1098 852.00
48.175 890.00
48.2402 917.00
48.3054 979.00
48.3706 1032.00
48.4358 1061.00
48.501 1227.00
48.5662 1534.00
48.6314 2051.00
48.6966 3404.00
48.7618 6350.00
48.827 8033.00
48.8922 5090.00
48.9574 4335.00
49.0226 2092.00
49.0878 1430.00
49.153 1167.00
49.2182 1164.00
49.2834 1103.00
49.3486 1095.00
49.4138 1276.00
49.479 1314.00
49.5442 1447.00
49.6094 1553.00
49.6746 1847.00
49.7398 2558.00
49.805 3440.00
49.8702 3450.00
49.9354 2897.00
50.0006 2291.00
50.0658 1651.00
50.131 1341.00
50.1962 1274.00
50.2614 1205.00
50.3266 1410.00
50.3918 1582.00
50.457 1665.00
50.5222 1808.00
50.5874 2220.00
50.6526 3417.00
50.7178 4313.00
50.783 3842.00
50.8482 3379.00
50.9134 2463.00
50.9786 1945.00
51.0438 2133.00
51.109 2508.00
51.1742 2528.00
51.2394 2227.00
51.3046 1788.00
51.3698 1363.00
51.435 1120.00
51.5002 1134.00
51.5654 1059.00
51.6306 1138.00
51.6958 1321.00
51.761 1451.00
51.8262 1603.00
51.8914 1556.00
51.9566 1409.00
52.0218 1137.00
52.087 1023.00
52.1522 971.00
52.2174 913.00
52.2826 869.00
52.3477 846.00
52.4129 901.00
52.4781 868.00
52.5433 871.00
52.6085 904.00
52.6737 835.00
52.7389 823.00
52.8041 825.00
52.8693 871.00
52.9345 796.00
52.9997 867.00
53.0649 845.00
53.1301 852.00
53.1953 879.00
53.2605 943.00
53.3257 1059.00
53.3909 1300.00
53.4561 1680.00
53.5213 1513.00
53.5865 1293.00
53.6517 1208.00
53.7169 935.00
53.7821 916.00
53.8473 893.00
53.9125 851.00
53.9777 880.00
54.0429 915.00
54.1081 912.00
54.1733 919.00
54.2385 935.00
54.3037 967.00
54.3689 1098.00
54.4341 1263.00
54.4993 1482.00
54.5645 1794.00
54.6297 1982.00
54.6949 2512.00
54.7601 2262.00
54.8253 1940.00
54.8905 1709.00
54.9557 1537.00
55.0209 1224.00
55.0861 1144.00
55.1513 1115.00
55.2165 1059.00
55.2817 1110.00
55.3469 1080.00
55.4121 1038.00
55.4773 1160.00
55.5425 1052.00
55.6077 1139.00
55.6729 1306.00
55.7381 1597.00
55.8033 1957.00
55.8685 2493.00
55.9337 2942.00
55.9989 3042.00
56.0641 2779.00
56.1293 2593.00
56.1945 2438.00
56.2597 2063.00
56.3249 2058.00
56.3901 2138.00
56.4553 2524.00
56.5205 2430.00
56.5857 2499.00
56.6509 2198.00
56.7161 1811.00
56.7813 1444.00
56.8465 1199.00
56.9117 1080.00
56.9769 1040.00
57.042 1037.00
57.1073 967.00
57.1724 948.00
57.2376 950.00
57.3028 1001.00
57.368 1095.00
57.4332 1120.00
57.4984 1208.00
57.5636 1408.00
57.6288 1730.00
57.694 2258.00
57.7592 3203.00
57.8244 5102.00
57.8896 6507.00
57.9548 4415.00
58.02 3884.00
58.0852 2730.00
58.1504 1644.00
58.2156 1320.00
58.2808 1288.00
58.346 1266.00
58.4112 1428.00
58.4764 1742.00
58.5416 1823.00
58.6068 1767.00
58.672 1658.00
58.7372 1594.00
58.8024 1465.00
58.8676 1634.00
58.9328 1617.00
58.998 1474.00
59.0632 1429.00
59.1284 1421.00
59.1936 1414.00
59.2588 1805.00
59.324 1864.00
59.3892 1496.00
59.4544 1476.00
59.5196 1232.00
59.5848 1057.00
59.65 1010.00
59.7152 906.00
59.7804 942.00
59.8456 973.00
59.9108 938.00
59.976 943.00
60.0412 1010.00
60.1064 977.00
60.1716 1055.00
60.2368 1227.00
60.302 1445.00
60.3672 1756.00
60.4324 2209.00
60.4976 2331.00
60.5628 2378.00
60.628 2648.00
60.6932 2944.00
60.7584 2341.00
60.8236 1977.00
60.8888 1670.00
60.954 1307.00
61.0192 1063.00
61.0844 1042.00
61.1496 956.00
61.2148 1008.00
61.28 880.00
61.3452 864.00
61.4104 908.00
61.4756 930.00
61.5408 979.00
61.606 988.00
61.6712 1085.00
61.7364 1074.00
61.8016 1240.00
61.8667 1432.00
61.932 1748.00
61.9971 1947.00
62.0623 1950.00
62.1275 1823.00
62.1927 1600.00
62.2579 1559.00
62.3231 1392.00
62.3883 1425.00
62.4535 1494.00
62.5187 1871.00
62.5839 1950.00
62.6491 1795.00
62.7143 1688.00
62.7795 1476.00
62.8447 1320.00
62.9099 1157.00
62.9751 1020.00
63.0403 1001.00
63.1055 989.00
63.1707 1067.00
63.2359 1248.00
63.3011 1274.00
63.3663 1719.00
63.4315 2057.00
63.4967 2228.00
63.5619 2126.00
63.6271 1880.00
63.6923 1736.00
63.7575 1473.00
63.8227 1144.00
63.8879 1049.00
63.9531 968.00
64.0183 920.00
64.0835 919.00
64.1487 906.00
64.2139 914.00
64.2791 913.00
64.3443 906.00
64.4095 919.00
64.4747 934.00
64.5399 931.00
64.6051 1058.00
64.6703 1282.00
64.7355 1498.00
64.8007 1651.00
64.8659 1512.00
64.9311 1623.00
64.9963 1506.00
65.0615 1224.00
65.1267 1179.00
65.1919 1017.00
65.2571 873.00
65.3223 877.00
65.3875 840.00
65.4527 861.00
65.5179 913.00
65.5831 898.00
65.6483 944.00
65.7135 1008.00
65.7787 1093.00
65.8439 1081.00
65.9091 1075.00
65.9743 1275.00
66.0395 1419.00
66.1047 1616.00
66.1699 1615.00
66.2351 1710.00
66.3003 2016.00
66.3655 2045.00
66.4307 1991.00
66.4959 1731.00
66.561 1681.00
66.6263 1443.00
66.6915 1298.00
66.7566 1096.00
66.8218 1046.00
66.887 944.00
66.9522 889.00
67.0174 895.00
67.0826 885.00
67.1478 799.00
67.213 868.00
67.2782 869.00
67.3434 790.00
67.4086 810.00
67.4738 764.00
67.539 807.00
67.6042 772.00
67.6694 763.00
67.7346 777.00
67.7998 822.00
67.865 773.00
67.9302 785.00
67.9954 810.00
68.0606 779.00
68.1258 794.00
68.191 766.00
68.2562 819.00
68.3214 886.00
68.3866 773.00
68.4518 782.00
68.517 780.00
68.5822 811.00
68.6474 789.00
68.7126 776.00
68.7778 728.00
68.843 751.00
68.9082 810.00
68.9734 791.00
69.0386 802.00
69.1038 868.00
69.169 755.00
69.2342 816.00
69.2994 824.00
69.3646 880.00
69.4298 847.00
69.495 996.00
69.5602 1059.00
69.6254 1204.00
69.6906 1117.00
69.7558 1120.00
69.821 1073.00
69.8862 1066.00
69.9514 1038.00
70.0166 1215.00
70.0818 1072.00
70.147 1030.00
70.2122 1001.00
70.2774 1054.00
70.3426 991.00
70.4078 909.00
70.473 888.00
70.5382 809.00
70.6034 825.00
70.6686 859.00
70.7338 843.00
70.799 854.00
70.8642 941.00
70.9294 904.00
70.9946 885.00
71.0598 925.00
71.125 995.00
71.1902 1052.00
71.2554 1326.00
71.3205 1498.00
71.3858 1124.00
71.451 1247.00
71.5162 1316.00
71.5813 1221.00
71.6465 1242.00
71.7117 1380.00
71.7769 1453.00
71.8421 1564.00
71.9073 1614.00
71.9725 1581.00
72.0377 1368.00
72.1029 1182.00
72.1681 1158.00
72.2333 1009.00
72.2985 1016.00
72.3637 1020.00
72.4289 1063.00
72.4941 1229.00
72.5593 1505.00
72.6245 1420.00
72.6897 1226.00
72.7549 1340.00
72.8201 1335.00
72.8853 1143.00
72.9505 1030.00
73.0157 988.00
73.0809 1090.00
73.1461 1034.00
73.2113 1075.00
73.2765 1048.00
73.3417 1116.00
73.4069 1071.00
73.4721 1052.00
73.5373 1009.00
73.6025 969.00
73.6677 977.00
73.7329 907.00
73.7981 1056.00
73.8633 1092.00
73.9285 944.00
73.9937 906.00
74.0589 968.00
74.1241 965.00
74.1893 877.00
74.2545 906.00
74.3197 894.00
74.3849 856.00
74.4501 815.00
74.5153 845.00
74.5805 809.00
74.6457 794.00
74.7109 832.00
74.7761 798.00
74.8413 854.00
74.9065 854.00
74.9717 939.00
75.0369 1076.00
75.1021 1222.00
75.1673 1038.00
75.2325 1102.00
75.2977 1149.00
75.3629 1138.00
75.4281 1178.00
75.4933 1147.00
75.5585 1009.00
75.6237 1087.00
75.6889 1165.00
75.7541 1260.00
75.8193 1354.00
75.8845 1393.00
75.9497 1273.00
76.0149 1289.00
76.0801 1220.00
76.1452 1088.00
76.2104 1043.00
76.2756 1148.00
76.3409 1099.00
76.406 959.00
76.4712 913.00
76.5364 881.00
76.6016 924.00
76.6668 919.00
76.732 915.00
76.7972 861.00
76.8624 825.00
76.9276 841.00
76.9928 925.00
77.058 1000.00
77.1232 1141.00
77.1884 1061.00
77.2536 1154.00
77.3188 1122.00
77.384 1041.00
77.4492 1165.00
77.5144 1275.00
77.5796 1446.00
77.6448 1257.00
77.71 1105.00
77.7752 1137.00
77.8404 1147.00
77.9056 1059.00
77.9708 1061.00
78.036 1052.00
78.1012 1008.00
78.1664 1135.00
78.2316 1080.00
78.2968 1120.00
78.362 1096.00
78.4272 1043.00
78.4924 1073.00
78.5576 1045.00
78.6228 1123.00
78.688 1295.00
78.7532 1720.00
78.8184 2104.00
78.8836 1674.00
78.9488 1405.00
79.014 1459.00
79.0792 1406.00
79.1444 1171.00
79.2096 942.00
79.2748 884.00
79.34 978.00
79.4052 991.00
79.4704 978.00
79.5356 1017.00
79.6008 1138.00
79.666 1221.00
79.7312 1159.00
79.7964 1143.00
79.8616 1066.00
79.9268 1122.00
79.992 1017.00
80.0572 921.00
80.1224 927.00
80.1876 822.00
80.2528 881.00
80.318 859.00
80.3832 822.00
80.4484 806.00
80.5136 831.00
80.5788 809.00
80.644 883.00
80.7092 869.00
80.7744 818.00
80.8396 877.00
80.9048 896.00
80.9699 916.00
81.0351 944.00
81.1003 1056.00
81.1655 1226.00
81.2307 1484.00
81.2959 1613.00
81.3611 1282.00
81.4263 1219.00
81.4915 1201.00
81.5567 1132.00
81.6219 976.00
81.6871 917.00
81.7523 882.00
81.8175 923.00
81.8827 871.00
81.9479 907.00
82.0131 960.00
82.0783 986.00
82.1435 1088.00
82.2087 1088.00
82.2739 1202.00
82.3391 1246.00
82.4043 1209.00
82.4695 1242.00
82.5347 1137.00
82.5999 1135.00
82.6651 1051.00
82.7303 1019.00
82.7955 926.00
82.8607 973.00
82.9259 897.00
82.9911 1016.00
83.0563 956.00
83.1215 925.00
83.1867 1025.00
83.2519 1060.00
83.3171 1108.00
83.3823 1151.00
83.4475 1178.00
83.5127 1157.00
83.5779 1158.00
83.6431 1215.00
83.7083 1228.00
83.7735 1240.00
83.8387 1351.00
83.9039 1321.00
83.9691 1271.00
84.0343 1160.00
84.0995 1218.00
84.1647 1176.00
84.2299 1098.00
84.2951 1017.00
84.3603 1028.00
84.4255 1079.00
84.4907 1075.00
84.5559 1093.00
84.6211 1150.00
84.6863 1287.00
84.7515 1328.00
84.8167 1252.00
84.8819 1525.00
84.9471 1525.00
85.0123 1409.00
85.0775 1267.00
85.1427 1230.00
85.2079 1210.00
85.2731 1020.00
85.3383 948.00
85.4035 889.00
85.4687 978.00
85.5339 963.00
85.5991 1002.00
85.6643 1108.00
85.7295 1173.00
85.7946 1010.00
85.8598 969.00
85.925 1011.00
85.9903 1045.00
86.0554 948.00
86.1206 914.00
86.1858 905.00
86.251 824.00
86.3162 795.00
86.3814 898.00
86.4466 844.00
86.5118 822.00
86.577 871.00
86.6422 844.00
86.7074 911.00
86.7726 943.00
86.8378 989.00
86.903 984.00
86.9682 1064.00
87.0334 1033.00
87.0986 1014.00
87.1638 1061.00
87.229 1072.00
87.2942 1149.00
87.3594 1218.00
87.4246 984.00
87.4898 977.00
87.555 1023.00
87.6202 1014.00
87.6854 882.00
87.7506 907.00
87.8158 898.00
87.881 861.00
87.9462 943.00
88.0114 943.00
88.0766 949.00
88.1418 1000.00
88.207 1058.00
88.2722 1098.00
88.3374 1155.00
88.4026 1074.00
88.4678 1116.00
88.533 1063.00
88.5982 1068.00
88.6634 1064.00
88.7286 1055.00
88.7938 1108.00
88.859 1132.00
88.9242 1195.00
88.9894 1218.00
89.0546 1228.00
89.1198 1163.00
89.185 1168.00
89.2502 1294.00
89.3154 1339.00
89.3806 1317.00
89.4458 1220.00
89.511 1241.00
89.5762 1109.00
89.6414 1237.00
89.7066 1326.00
89.7718 1353.00
89.837 1197.00
89.9022 1078.00
89.9674 1115.00
90.0326 1228.00
90.0978 1141.00
90.163 1017.00
90.2282 1044.00
90.2934 1045.00
90.3586 1032.00
90.4238 1133.00
90.489 1117.00
90.5542 1200.00
90.6193 1210.00
90.6845 1216.00
90.7497 1325.00
90.8149 1352.00
90.8801 1646.00
90.9453 1841.00
91.0105 1635.00
91.0757 1222.00
91.1409 1180.00
91.2061 1246.00
91.2713 1254.00
91.3365 1093.00
91.4017 1008.00
91.4669 973.00
91.5321 960.00
91.5973 1032.00
91.6625 987.00
91.7277 943.00
91.7929 982.00
91.8581 895.00
91.9233 928.00
91.9885 1083.00
92.0537 1126.00
92.1189 1179.00
92.1841 1313.00
92.2493 1207.00
92.3145 1079.00
92.3797 1081.00
92.4449 1097.00
92.5101 1068.00
92.5753 915.00
92.6405 842.00
92.7057 801.00
92.7709 868.00
92.8361 857.00
92.9013 887.00
92.9665 826.00
93.0317 851.00
93.0969 846.00
93.1621 876.00
93.2273 891.00
93.2925 912.00
93.3577 1025.00
93.4229 1039.00
93.4881 921.00
93.5533 872.00
93.6185 951.00
93.6837 985.00
93.7489 958.00
93.8141 890.00
93.8793 878.00
93.9445 899.00
94.0097 889.00
94.0749 860.00
94.1401 896.00
94.2053 884.00
94.2705 846.00
94.3357 949.00
94.4009 944.00
94.4661 943.00
94.5313 1008.00
94.5965 1177.00
94.6617 1058.00
94.7269 1157.00
94.7921 1078.00
94.8573 1087.00
94.9225 1013.00
94.9877 1009.00
95.0529 929.00
95.1181 985.00
95.1833 936.00
95.2485 856.00
95.3137 945.00
95.3789 909.00
95.444 970.00
95.5092 976.00
95.5744 1028.00
95.6396 1119.00
95.7048 1279.00
95.77 1495.00
95.8352 1515.00
95.9004 1345.00
95.9656 1272.00
96.0308 1380.00
96.096 1475.00
96.1612 1246.00
96.2264 1205.00
96.2916 1113.00
96.3568 1100.00
96.422 1018.00
96.4872 1006.00
96.5524 1013.00
96.6176 951.00
96.6828 963.00
96.748 933.00
96.8132 992.00
96.8784 1075.00
96.9436 1163.00
97.0088 1285.00
97.074 1230.00
97.1392 1226.00
97.2044 1198.00
97.2696 1261.00
97.3348 1309.00
97.4 1356.00
97.4652 1481.00
97.5304 1426.00
97.5956 1390.00
97.6608 1456.00
97.726 1383.00
97.7912 1368.00
97.8564 1390.00
97.9216 1390.00
97.9868 1348.00
98.052 1220.00
98.1172 1442.00
98.1824 1555.00
98.2476 1694.00
98.3128 1388.00
98.378 1229.00
98.4432 1165.00
98.5084 1267.00
98.5736 1265.00
98.6388 1112.00
98.704 1101.00
98.7692 1018.00
98.8344 1111.00
98.8996 1137.00
98.9648 1122.00
99.03 1143.00
99.0952 1081.00
99.1604 1148.00
99.2256 1144.00
99.2908 1299.00
99.356 1262.00
99.4212 1537.00
99.4864 1507.00
99.5516 1286.00
99.6168 1182.00
99.682 1340.00
99.7472 1401.00
99.8124 1346.00
99.8776 1343.00
99.9428 1227.00
100.008 1234.00
100.073 1201.00
100.095 1194.00