File: data/xrd_creation/results/PG_1735-1.xy
9.903433 2773.00
9.968632 2805.00
10.0338 2753.00
10.099 2804.00
10.1642 2704.00
10.2294 2675.00
10.2946 2602.00
10.3598 2628.00
10.425 2598.00
10.4902 2656.00
10.5554 2586.00
10.6206 2630.00
10.6858 2468.00
10.751 2479.00
10.8162 2503.00
10.8814 2442.00
10.9466 2516.00
11.0118 2603.00
11.077 2391.00
11.1422 2437.00
11.2074 2413.00
11.2726 2448.00
11.3378 2403.00
11.403 2396.00
11.4682 2349.00
11.5334 2336.00
11.5986 2328.00
11.6638 2302.00
11.729 2299.00
11.7942 2315.00
11.8594 2319.00
11.9246 2287.00
11.9898 2131.00
12.055 2285.00
12.1202 2258.00
12.1854 2116.00
12.2506 2174.00
12.3158 2207.00
12.381 2311.00
12.4462 2110.00
12.5114 2105.00
12.5766 2094.00
12.6418 2171.00
12.707 2094.00
12.7722 2059.00
12.8374 2083.00
12.9026 2089.00
12.9678 2032.00
13.033 2062.00
13.0982 2037.00
13.1634 2060.00
13.2286 1999.00
13.2938 2070.00
13.359 2032.00
13.4242 2035.00
13.4894 1965.00
13.5546 1908.00
13.6198 1929.00
13.685 1927.00
13.7502 1881.00
13.8154 1961.00
13.8805 1840.00
13.9457 1874.00
14.0109 1968.00
14.0761 1981.00
14.1413 1884.00
14.2065 1917.00
14.2717 1909.00
14.3369 1880.00
14.4021 1944.00
14.4673 1918.00
14.5325 1890.00
14.5977 1920.00
14.6629 1929.00
14.7281 1860.00
14.7933 1797.00
14.8585 1947.00
14.9237 1916.00
14.9889 1908.00
15.0541 1882.00
15.1193 1824.00
15.1845 1797.00
15.2497 1901.00
15.3149 1872.00
15.3801 1871.00
15.4453 1903.00
15.5105 1836.00
15.5757 1799.00
15.6409 1800.00
15.7061 1816.00
15.7713 1806.00
15.8365 1834.00
15.9017 1795.00
15.9669 1790.00
16.0321 1762.00
16.0973 1818.00
16.1625 1739.00
16.2277 1738.00
16.2929 1803.00
16.3581 1784.00
16.4233 1661.00
16.4885 1805.00
16.5537 1716.00
16.6189 1769.00
16.6841 1722.00
16.7493 1714.00
16.8145 1696.00
16.8797 1698.00
16.9449 1750.00
17.0101 1762.00
17.0753 1751.00
17.1405 1695.00
17.2057 1790.00
17.2709 1739.00
17.3361 1756.00
17.4013 1779.00
17.4665 1752.00
17.5317 1775.00
17.5969 2057.00
17.6621 2158.00
17.7273 2413.00
17.7925 2801.00
17.8577 3291.00
17.9229 2873.00
17.9881 2081.00
18.0533 1891.00
18.1185 1672.00
18.1837 1661.00
18.2489 1682.00
18.3141 1695.00
18.3793 1682.00
18.4445 1646.00
18.5097 1614.00
18.5749 1641.00
18.6401 1616.00
18.7052 1641.00
18.7704 1644.00
18.8356 1562.00
18.9008 1600.00
18.966 1608.00
19.0312 1556.00
19.0964 1566.00
19.1616 1489.00
19.2268 1582.00
19.292 1561.00
19.3572 1560.00
19.4224 1624.00
19.4876 1489.00
19.5528 1515.00
19.618 1580.00
19.6832 1644.00
19.7484 1470.00
19.8136 1488.00
19.8788 1526.00
19.944 1531.00
20.0092 1594.00
20.0744 1474.00
20.1396 1459.00
20.2048 1492.00
20.27 1479.00
20.3352 1498.00
20.4004 1444.00
20.4656 1475.00
20.5308 1530.00
20.596 1489.00
20.6612 1469.00
20.7264 1425.00
20.7916 1501.00
20.8568 1489.00
20.922 1497.00
20.9872 1469.00
21.0524 1484.00
21.1176 1431.00
21.1828 1426.00
21.248 1492.00
21.3132 1523.00
21.3784 1432.00
21.4436 1451.00
21.5088 1449.00
21.574 1377.00
21.6392 1509.00
21.7044 1465.00
21.7696 1407.00
21.8348 1384.00
21.9 1438.00
21.9652 1464.00
22.0304 1463.00
22.0956 1547.00
22.1608 1418.00
22.226 1501.00
22.2912 1449.00
22.3564 1410.00
22.4216 1448.00
22.4868 1366.00
22.552 1443.00
22.6172 1376.00
22.6824 1492.00
22.7476 1431.00
22.8128 1433.00
22.878 1447.00
22.9432 1470.00
23.0084 1375.00
23.0736 1358.00
23.1388 1449.00
23.204 1369.00
23.2692 1425.00
23.3344 1371.00
23.3996 1388.00
23.4647 1389.00
23.5299 1356.00
23.5951 1477.00
23.6603 1382.00
23.7255 1383.00
23.7907 1435.00
23.8559 1434.00
23.9211 1485.00
23.9863 1562.00
24.0515 1609.00
24.1167 1646.00
24.1819 1675.00
24.2471 1841.00
24.3123 2558.00
24.3775 3578.00
24.4427 5187.00
24.5079 6439.00
24.5731 5142.00
24.6383 3368.00
24.7035 2728.00
24.7687 3173.00
24.8339 4222.00
24.8991 5233.00
24.9643 4823.00
25.0295 2999.00
25.0947 2033.00
25.1599 1738.00
25.2251 1627.00
25.2903 1478.00
25.3555 1466.00
25.4207 1401.00
25.4859 1467.00
25.5511 1424.00
25.6163 1371.00
25.6815 1419.00
25.7467 1441.00
25.8119 1389.00
25.8771 1490.00
25.9423 1416.00
26.0075 1368.00
26.0727 1324.00
26.1379 1304.00
26.2031 1295.00
26.2683 1387.00
26.3335 1407.00
26.3987 1342.00
26.4639 1244.00
26.5291 1450.00
26.5943 1363.00
26.6595 1242.00
26.7247 1288.00
26.7899 1297.00
26.8551 1289.00
26.9203 1319.00
26.9855 1343.00
27.0507 1318.00
27.1159 1330.00
27.1811 1313.00
27.2463 1378.00
27.3115 1371.00
27.3767 1516.00
27.4419 1411.00
27.5071 1420.00
27.5723 1450.00
27.6375 1487.00
27.7027 1617.00
27.7679 1672.00
27.8331 1756.00
27.8983 1819.00
27.9635 1931.00
28.0287 2041.00
28.0939 2255.00
28.1591 2456.00
28.2243 2783.00
28.2894 3414.00
28.3546 4444.00
28.4198 6555.00
28.485 10434.00
28.5502 17627.00
28.6154 28490.00
28.6806 31188.00
28.7458 21412.00
28.811 11117.00
28.8762 6257.00
28.9414 4400.00
29.0066 3426.00
29.0718 2810.00
29.137 2463.00
29.2022 2250.00
29.2674 2056.00
29.3326 1930.00
29.3978 1880.00
29.463 1714.00
29.5282 1707.00
29.5934 1637.00
29.6586 1597.00
29.7238 1569.00
29.789 1434.00
29.8542 1524.00
29.9194 1553.00
29.9846 1493.00
30.0498 1480.00
30.115 1408.00
30.1802 1494.00
30.2454 1562.00
30.3106 1537.00
30.3758 1698.00
30.441 1938.00
30.5062 1802.00
30.5714 1620.00
30.6366 1461.00
30.7018 1477.00
30.767 1574.00
30.8322 1652.00
30.8974 1677.00
30.9626 1648.00
31.0278 1759.00
31.093 1859.00
31.1582 1902.00
31.2234 1961.00
31.2886 2012.00
31.3538 2126.00
31.419 2278.00
31.4842 2523.00
31.5494 2871.00
31.6146 3381.00
31.6798 4261.00
31.745 5694.00
31.8102 9071.00
31.8754 15452.00
31.9406 23071.00
32.0058 23439.00
32.071 15995.00
32.1362 8540.00
32.2014 5153.00
32.2666 3668.00
32.3318 2877.00
32.397 2377.00
32.4622 2042.00
32.5274 1872.00
32.5926 1706.00
32.6578 1642.00
32.723 1585.00
32.7882 1484.00
32.8534 1517.00
32.9186 1426.00
32.9838 1388.00
33.0489 1366.00
33.1141 1373.00
33.1793 1272.00
33.2445 1415.00
33.3097 1456.00
33.3749 1463.00
33.4401 1397.00
33.5053 1384.00
33.5705 1447.00
33.6357 1435.00
33.7009 1398.00
33.7661 1374.00
33.8313 1490.00
33.8965 1489.00
33.9617 1451.00
34.0269 1553.00
34.0921 1466.00
34.1573 1587.00
34.2225 1714.00
34.2877 1816.00
34.3529 2121.00
34.4181 2698.00
34.4833 3837.00
34.5485 6097.00
34.6137 8946.00
34.6789 9843.00
34.7441 7943.00
34.8093 6755.00
34.8745 8049.00
34.9397 8718.00
35.0049 6704.00
35.0701 4208.00
35.1353 2694.00
35.2005 2130.00
35.2657 1984.00
35.3309 1810.00
35.3961 1860.00
35.4613 1952.00
35.5265 2322.00
35.5917 2468.00
35.6569 3144.00
35.7221 4894.00
35.7873 8138.00
35.8525 9326.00
35.9177 6577.00
35.9829 3794.00
36.0481 2423.00
36.1133 2029.00
36.1785 1983.00
36.2437 2137.00
36.3089 2703.00
36.3741 3377.00
36.4393 3196.00
36.5045 2494.00
36.5697 1869.00
36.6349 1466.00
36.7001 1359.00
36.7653 1274.00
36.8305 1229.00
36.8957 1250.00
36.9609 1153.00
37.0261 1181.00
37.0913 1198.00
37.1565 1158.00
37.2217 1132.00
37.2869 1148.00
37.3521 1129.00
37.4173 1124.00
37.4825 1112.00
37.5477 1174.00
37.6129 1103.00
37.6781 1132.00
37.7433 1160.00
37.8085 1166.00
37.8736 1158.00
37.9388 1116.00
38.004 1101.00
38.0692 1162.00
38.1344 1194.00
38.1996 1230.00
38.2648 1387.00
38.33 1523.00
38.3952 1435.00
38.4604 1342.00
38.5256 1171.00
38.5908 1163.00
38.656 1187.00
38.7212 1258.00
38.7864 1266.00
38.8516 1454.00
38.9168 1689.00
38.982 2323.00
39.0472 3319.00
39.1124 3797.00
39.1776 3240.00
39.2428 2339.00
39.308 1695.00
39.3732 1461.00
39.4384 1429.00
39.5036 1286.00
39.5688 1276.00
39.634 1220.00
39.6992 1255.00
39.7644 1183.00
39.8296 1245.00
39.8948 1112.00
39.96 1201.00
40.0252 1208.00
40.0904 1215.00
40.1556 1229.00
40.2208 1287.00
40.286 1328.00
40.3512 1353.00
40.4164 1325.00
40.4816 1394.00
40.5468 1439.00
40.612 1293.00
40.6772 1330.00
40.7424 1223.00
40.8076 1281.00
40.8728 1438.00
40.938 1558.00
41.0032 1618.00
41.0684 1943.00
41.1336 2628.00
41.1988 3863.00
41.264 4908.00
41.3292 4854.00
41.3944 3924.00
41.4596 2866.00
41.5248 2332.00
41.59 2464.00
41.6552 2584.00
41.7204 2797.00
41.7856 2773.00
41.8508 2530.00
41.916 2596.00
41.9812 2290.00
42.0464 2042.00
42.1116 1555.00
42.1768 1379.00
42.242 1226.00
42.3072 1112.00
42.3724 1227.00
42.4376 1053.00
42.5028 1033.00
42.568 1097.00
42.6332 1042.00
42.6983 1127.00
42.7635 1001.00
42.8287 1006.00
42.8939 1001.00
42.9591 1019.00
43.0243 1040.00
43.0895 1031.00
43.1547 1043.00
43.2199 973.00
43.2851 1007.00
43.3503 1018.00
43.4155 984.00
43.4807 967.00
43.5459 937.00
43.6111 926.00
43.6763 955.00
43.7415 1020.00
43.8067 914.00
43.8719 1010.00
43.9371 984.00
44.0023 990.00
44.0675 988.00
44.1327 945.00
44.1979 940.00
44.2631 928.00
44.3283 957.00
44.3935 984.00
44.4587 1009.00
44.5239 1012.00
44.5891 987.00
44.6543 982.00
44.7195 1101.00
44.7847 1115.00
44.8499 1121.00
44.9151 1044.00
44.9803 1121.00
45.0455 1127.00
45.1107 1109.00
45.1759 1269.00
45.2411 1455.00
45.3063 1891.00
45.3715 2349.00
45.4367 2265.00
45.5019 2036.00
45.5671 1656.00
45.6323 1324.00
45.6975 1348.00
45.7627 1304.00
45.8279 1431.00
45.8931 1612.00
45.9583 1960.00
46.0235 2587.00
46.0887 2928.00
46.1539 2578.00
46.2191 2198.00
46.2843 1661.00
46.3495 1277.00
46.4147 1217.00
46.4799 1137.00
46.5451 1118.00
46.6103 1055.00
46.6755 1036.00
46.7407 1114.00
46.8059 1107.00
46.8711 1066.00
46.9363 1097.00
47.0015 1062.00
47.0667 969.00
47.1319 1008.00
47.1971 902.00
47.2623 986.00
47.3275 948.00
47.3927 902.00
47.4579 928.00
47.523 915.00
47.5882 930.00
47.6534 996.00
47.7186 961.00
47.7838 980.00
47.849 940.00
47.9142 920.00
47.9794 971.00
48.0446 953.00
48.1098 976.00
48.175 952.00
48.2402 961.00
48.3054 989.00
48.3706 952.00
48.4358 948.00
48.501 1093.00
48.5662 1005.00
48.6314 1090.00
48.6966 1097.00
48.7618 925.00
48.827 1031.00
48.8922 998.00
48.9574 1081.00
49.0226 973.00
49.0878 1045.00
49.153 1107.00
49.2182 1158.00
49.2834 1168.00
49.3486 1316.00
49.4138 1477.00
49.479 1705.00
49.5442 1963.00
49.6094 2032.00
49.6746 2545.00
49.7398 3748.00
49.805 6088.00
49.8702 6812.00
49.9354 5423.00
50.0006 4318.00
50.0658 2806.00
50.131 1976.00
50.1962 1702.00
50.2614 1553.00
50.3266 1525.00
50.3918 1681.00
50.457 1761.00
50.5222 2177.00
50.5874 3183.00
50.6526 5513.00
50.7178 8703.00
50.783 7433.00
50.8482 6066.00
50.9134 4427.00
50.9786 3179.00
51.0438 3410.00
51.109 4398.00
51.1742 4720.00
51.2394 3859.00
51.3046 3205.00
51.3698 2272.00
51.435 1671.00
51.5002 1474.00
51.5654 1379.00
51.6306 1599.00
51.6958 1784.00
51.761 2188.00
51.8262 2461.00
51.8914 2194.00
51.9566 1920.00
52.0218 1509.00
52.087 1273.00
52.1522 1178.00
52.2174 1123.00
52.2826 1039.00
52.3477 1006.00
52.4129 999.00
52.4781 1033.00
52.5433 1023.00
52.6085 1028.00
52.6737 998.00
52.7389 985.00
52.8041 943.00
52.8693 907.00
52.9345 993.00
52.9997 997.00
53.0649 999.00
53.1301 960.00
53.1953 959.00
53.2605 927.00
53.3257 939.00
53.3909 997.00
53.4561 965.00
53.5213 1026.00
53.5865 990.00
53.6517 994.00
53.7169 1081.00
53.7821 1048.00
53.8473 1135.00
53.9125 1096.00
53.9777 1077.00
54.0429 1044.00
54.1081 1148.00
54.1733 1100.00
54.2385 1148.00
54.3037 1214.00
54.3689 1299.00
54.4341 1401.00
54.4993 1714.00
54.5645 2209.00
54.6297 3028.00
54.6949 4148.00
54.7601 4297.00
54.8253 3631.00
54.8905 3099.00
54.9557 2277.00
55.0209 1741.00
55.0861 1548.00
55.1513 1474.00
55.2165 1459.00
55.2817 1476.00
55.3469 1541.00
55.4121 1380.00
55.4773 1437.00
55.5425 1415.00
55.6077 1560.00
55.6729 1637.00
55.7381 1878.00
55.8033 2419.00
55.8685 3454.00
55.9337 4842.00
55.9989 5497.00
56.0641 4993.00
56.1293 5039.00
56.1945 4755.00
56.2597 3643.00
56.3249 3091.00
56.3901 2889.00
56.4553 3026.00
56.5205 3980.00
56.5857 3784.00
56.6509 3201.00
56.7161 2841.00
56.7813 2027.00
56.8465 1638.00
56.9117 1496.00
56.9769 1269.00
57.042 1162.00
57.1073 1141.00
57.1724 1165.00
57.2376 1124.00
57.3028 1206.00
57.368 1201.00
57.4332 1262.00
57.4984 1393.00
57.5636 1470.00
57.6288 1805.00
57.694 2192.00
57.7592 2817.00
57.8244 3424.00
57.8896 3036.00
57.9548 2632.00
58.02 2225.00
58.0852 1762.00
58.1504 1550.00
58.2156 1522.00
58.2808 1455.00
58.346 1495.00
58.4112 1864.00
58.4764 2534.00
58.5416 2925.00
58.6068 2679.00
58.672 2531.00
58.7372 2273.00
58.8024 2148.00
58.8676 2291.00
58.9328 2362.00
58.998 1993.00
59.0632 1892.00
59.1284 1662.00
59.1936 1343.00
59.2588 1262.00
59.324 1233.00
59.3892 1066.00
59.4544 1115.00
59.5196 1038.00
59.5848 1051.00
59.65 987.00
59.7152 1056.00
59.7804 1061.00
59.8456 1120.00
59.9108 1073.00
59.976 1214.00
60.0412 1213.00
60.1064 1200.00
60.1716 1400.00
60.2368 1536.00
60.302 1853.00
60.3672 2525.00
60.4324 3616.00
60.4976 3827.00
60.5628 3606.00
60.628 3837.00
60.6932 3590.00
60.7584 2931.00
60.8236 2434.00
60.8888 2139.00
60.954 1711.00
61.0192 1477.00
61.0844 1280.00
61.1496 1200.00
61.2148 1179.00
61.28 1070.00
61.3452 1009.00
61.4104 1163.00
61.4756 1114.00
61.5408 1096.00
61.606 1148.00
61.6712 1189.00
61.7364 1289.00
61.8016 1462.00
61.8667 1737.00
61.932 2360.00
61.9971 2849.00
62.0623 2792.00
62.1275 2633.00
62.1927 2395.00
62.2579 2221.00
62.3231 1946.00
62.3883 1932.00
62.4535 2152.00
62.5187 2723.00
62.5839 3164.00
62.6491 3164.00
62.7143 2706.00
62.7795 2384.00
62.8447 1954.00
62.9099 1584.00
62.9751 1424.00
63.0403 1303.00
63.1055 1326.00
63.1707 1368.00
63.2359 1436.00
63.3011 1664.00
63.3663 2076.00
63.4315 2513.00
63.4967 3512.00
63.5619 3637.00
63.6271 3072.00
63.6923 2825.00
63.7575 2261.00
63.8227 1757.00
63.8879 1459.00
63.9531 1236.00
64.0183 1147.00
64.0835 1077.00
64.1487 1153.00
64.2139 1096.00
64.2791 1064.00
64.3443 1073.00
64.4095 1098.00
64.4747 1072.00
64.5399 1062.00
64.6051 1176.00
64.6703 1296.00
64.7355 1484.00
64.8007 1526.00
64.8659 1775.00
64.9311 2037.00
64.9963 1891.00
65.0615 1654.00
65.1267 1513.00
65.1919 1347.00
65.2571 1137.00
65.3223 1068.00
65.3875 1059.00
65.4527 999.00
65.5179 1004.00
65.5831 1082.00
65.6483 1210.00
65.7135 1235.00
65.7787 1292.00
65.8439 1328.00
65.9091 1403.00
65.9743 1585.00
66.0395 1843.00
66.1047 1953.00
66.1699 1942.00
66.2351 2128.00
66.3003 2610.00
66.3655 3165.00
66.4307 3348.00
66.4959 2891.00
66.561 2742.00
66.6263 2613.00
66.6915 2056.00
66.7566 1615.00
66.8218 1440.00
66.887 1292.00
66.9522 1115.00
67.0174 996.00
67.0826 977.00
67.1478 935.00
67.213 928.00
67.2782 977.00
67.3434 902.00
67.4086 947.00
67.4738 882.00
67.539 925.00
67.6042 966.00
67.6694 876.00
67.7346 906.00
67.7998 968.00
67.865 873.00
67.9302 907.00
67.9954 839.00
68.0606 886.00
68.1258 920.00
68.191 818.00
68.2562 891.00
68.3214 910.00
68.3866 850.00
68.4518 899.00
68.517 920.00
68.5822 846.00
68.6474 914.00
68.7126 829.00
68.7778 880.00
68.843 901.00
68.9082 828.00
68.9734 885.00
69.0386 897.00
69.1038 854.00
69.169 843.00
69.2342 922.00
69.2994 919.00
69.3646 962.00
69.4298 1035.00
69.495 1139.00
69.5602 1351.00
69.6254 1559.00
69.6906 1653.00
69.7558 1457.00
69.821 1432.00
69.8862 1266.00
69.9514 1108.00
70.0166 1034.00
70.0818 903.00
70.147 1044.00
70.2122 1111.00
70.2774 1038.00
70.3426 1120.00
70.4078 1047.00
70.473 1086.00
70.5382 1023.00
70.6034 983.00
70.6686 953.00
70.7338 967.00
70.799 993.00
70.8642 1041.00
70.9294 1028.00
70.9946 940.00
71.0598 979.00
71.125 956.00
71.1902 941.00
71.2554 919.00
71.3205 920.00
71.3858 965.00
71.451 1005.00
71.5162 1094.00
71.5813 1225.00
71.6465 1392.00
71.7117 1727.00
71.7769 2037.00
71.8421 2183.00
71.9073 2358.00
71.9725 2441.00
72.0377 2125.00
72.1029 1936.00
72.1681 1695.00
72.2333 1502.00
72.2985 1224.00
72.3637 1132.00
72.4289 1068.00
72.4941 1143.00
72.5593 1177.00
72.6245 1229.00
72.6897 1287.00
72.7549 1399.00
72.8201 1520.00
72.8853 1474.00
72.9505 1361.00
73.0157 1293.00
73.0809 1256.00
73.1461 1247.00
73.2113 1369.00
73.2765 1366.00
73.3417 1365.00
73.4069 1377.00
73.4721 1320.00
73.5373 1295.00
73.6025 1160.00
73.6677 1104.00
73.7329 989.00
73.7981 916.00
73.8633 967.00
73.9285 925.00
73.9937 934.00
74.0589 944.00
74.1241 921.00
74.1893 915.00
74.2545 939.00
74.3197 952.00
74.3849 1019.00
74.4501 957.00
74.5153 925.00
74.5805 883.00
74.6457 790.00
74.7109 933.00
74.7761 903.00
74.8413 929.00
74.9065 893.00
74.9717 940.00
75.0369 924.00
75.1021 921.00
75.1673 990.00
75.2325 1105.00
75.2977 1077.00
75.3629 1331.00
75.4281 1514.00
75.4933 1468.00
75.5585 1399.00
75.6237 1386.00
75.6889 1562.00
75.7541 1725.00
75.8193 2178.00
75.8845 2020.00
75.9497 1820.00
76.0149 1911.00
76.0801 1751.00
76.1452 1418.00
76.2104 1269.00
76.2756 1142.00
76.3409 1000.00
76.406 970.00
76.4712 921.00
76.5364 1006.00
76.6016 913.00
76.6668 956.00
76.732 918.00
76.7972 969.00
76.8624 999.00
76.9276 1033.00
76.9928 1094.00
77.058 1179.00
77.1232 1333.00
77.1884 1502.00
77.2536 1460.00
77.3188 1394.00
77.384 1363.00
77.4492 1396.00
77.5144 1172.00
77.5796 1183.00
77.6448 1094.00
77.71 1051.00
77.7752 1041.00
77.8404 1017.00
77.9056 1108.00
77.9708 1161.00
78.036 1175.00
78.1012 1233.00
78.1664 1363.00
78.2316 1343.00
78.2968 1349.00
78.362 1321.00
78.4272 1171.00
78.4924 1197.00
78.5576 1175.00
78.6228 1125.00
78.688 1157.00
78.7532 1246.00
78.8184 1229.00
78.8836 1240.00
78.9488 1192.00
79.014 1135.00
79.0792 1098.00
79.1444 1080.00
79.2096 1015.00
79.2748 1072.00
79.34 1052.00
79.4052 1141.00
79.4704 1148.00
79.5356 1266.00
79.6008 1446.00
79.666 1806.00
79.7312 1692.00
79.7964 1416.00
79.8616 1419.00
79.9268 1408.00
79.992 1262.00
80.0572 1109.00
80.1224 1057.00
80.1876 936.00
80.2528 927.00
80.318 893.00
80.3832 878.00
80.4484 877.00
80.5136 906.00
80.5788 908.00
80.644 903.00
80.7092 879.00
80.7744 845.00
80.8396 892.00
80.9048 899.00
80.9699 956.00
81.0351 948.00
81.1003 1006.00
81.1655 1020.00
81.2307 1055.00
81.2959 1010.00
81.3611 1072.00
81.4263 988.00
81.4915 1009.00
81.5567 941.00
81.6219 1006.00
81.6871 994.00
81.7523 936.00
81.8175 952.00
81.8827 976.00
81.9479 1020.00
82.0131 1142.00
82.0783 1162.00
82.1435 1176.00
82.2087 1229.00
82.2739 1535.00
82.3391 1606.00
82.4043 1574.00
82.4695 1381.00
82.5347 1279.00
82.5999 1283.00
82.6651 1246.00
82.7303 1070.00
82.7955 1078.00
82.8607 978.00
82.9259 1083.00
82.9911 1053.00
83.0563 1078.00
83.1215 1155.00
83.1867 1189.00
83.2519 1238.00
83.3171 1479.00
83.3823 1559.00
83.4475 1550.00
83.5127 1474.00
83.5779 1461.00
83.6431 1445.00
83.7083 1436.00
83.7735 1499.00
83.8387 1558.00
83.9039 1750.00
83.9691 1622.00
84.0343 1586.00
84.0995 1608.00
84.1647 1583.00
84.2299 1468.00
84.2951 1255.00
84.3603 1342.00
84.4255 1296.00
84.4907 1318.00
84.5559 1316.00
84.6211 1385.00
84.6863 1596.00
84.7515 1699.00
84.8167 1542.00
84.8819 1626.00
84.9471 1782.00
85.0123 1653.00
85.0775 1524.00
85.1427 1422.00
85.2079 1320.00
85.2731 1301.00
85.3383 1199.00
85.4035 1056.00
85.4687 1063.00
85.5339 1097.00
85.5991 1243.00
85.6643 1352.00
85.7295 1556.00
85.7946 1299.00
85.8598 1248.00
85.925 1204.00
85.9903 1237.00
86.0554 1122.00
86.1206 964.00
86.1858 994.00
86.251 891.00
86.3162 962.00
86.3814 926.00
86.4466 919.00
86.5118 935.00
86.577 916.00
86.6422 936.00
86.7074 990.00
86.7726 1126.00
86.8378 1182.00
86.903 1347.00
86.9682 1318.00
87.0334 1219.00
87.0986 1162.00
87.1638 1175.00
87.229 1166.00
87.2942 1013.00
87.3594 1012.00
87.4246 888.00
87.4898 1001.00
87.555 892.00
87.6202 863.00
87.6854 941.00
87.7506 954.00
87.8158 930.00
87.881 999.00
87.9462 1005.00
88.0114 1031.00
88.0766 1064.00
88.1418 1256.00
88.207 1274.00
88.2722 1523.00
88.3374 1478.00
88.4026 1372.00
88.4678 1281.00
88.533 1347.00
88.5982 1357.00
88.6634 1290.00
88.7286 1216.00
88.7938 1161.00
88.859 1297.00
88.9242 1385.00
88.9894 1555.00
89.0546 1645.00
89.1198 1535.00
89.185 1564.00
89.2502 1546.00
89.3154 1775.00
89.3806 1767.00
89.4458 1764.00
89.511 1526.00
89.5762 1436.00
89.6414 1419.00
89.7066 1361.00
89.7718 1327.00
89.837 1259.00
89.9022 1172.00
89.9674 1201.00
90.0326 1231.00
90.0978 1310.00
90.163 1293.00
90.2282 1335.00
90.2934 1250.00
90.3586 1268.00
90.4238 1361.00
90.489 1435.00
90.5542 1591.00
90.6193 1693.00
90.6845 1687.00
90.7497 1554.00
90.8149 1397.00
90.8801 1406.00
90.9453 1384.00
91.0105 1254.00
91.0757 1239.00
91.1409 1127.00
91.2061 1030.00
91.2713 993.00
91.3365 965.00
91.4017 1026.00
91.4669 1004.00
91.5321 1024.00
91.5973 1055.00
91.6625 1006.00
91.7277 945.00
91.7929 1028.00
91.8581 1023.00
91.9233 1024.00
91.9885 1052.00
92.0537 1015.00
92.1189 1130.00
92.1841 1173.00
92.2493 1245.00
92.3145 1136.00
92.3797 1089.00
92.4449 1074.00
92.5101 1058.00
92.5753 1028.00
92.6405 1027.00
92.7057 1015.00
92.7709 906.00
92.8361 958.00
92.9013 874.00
92.9665 913.00
93.0317 956.00
93.0969 876.00
93.1621 884.00
93.2273 865.00
93.2925 904.00
93.3577 831.00
93.4229 879.00
93.4881 861.00
93.5533 900.00
93.6185 948.00
93.6837 894.00
93.7489 910.00
93.8141 992.00
93.8793 994.00
93.9445 944.00
94.0097 872.00
94.0749 926.00
94.1401 944.00
94.2053 961.00
94.2705 943.00
94.3357 966.00
94.4009 934.00
94.4661 980.00
94.5313 1037.00
94.5965 1142.00
94.6617 1251.00
94.7269 1310.00
94.7921 1194.00
94.8573 1203.00
94.9225 1177.00
94.9877 1200.00
95.0529 1185.00
95.1181 1132.00
95.1833 1069.00
95.2485 1026.00
95.3137 1037.00
95.3789 1078.00
95.444 1011.00
95.5092 1037.00
95.5744 1090.00
95.6396 1210.00
95.7048 1227.00
95.77 1211.00
95.8352 1303.00
95.9004 1349.00
95.9656 1512.00
96.0308 1548.00
96.096 1584.00
96.1612 1424.00
96.2264 1378.00
96.2916 1233.00
96.3568 1281.00
96.422 1262.00
96.4872 1228.00
96.5524 1161.00
96.6176 1045.00
96.6828 1064.00
96.748 1129.00
96.8132 1083.00
96.8784 1207.00
96.9436 1284.00
97.0088 1450.00
97.074 1529.00
97.1392 1480.00
97.2044 1530.00
97.2696 1503.00
97.3348 1594.00
97.4 1819.00
97.4652 1909.00
97.5304 1886.00
97.5956 1725.00
97.6608 1745.00
97.726 1751.00
97.7912 1862.00
97.8564 1904.00
97.9216 1830.00
97.9868 1786.00
98.052 1586.00
98.1172 1470.00
98.1824 1401.00
98.2476 1360.00
98.3128 1284.00
98.378 1274.00
98.4432 1186.00
98.5084 1069.00
98.5736 1097.00
98.6388 1063.00
98.704 1179.00
98.7692 1157.00
98.8344 1265.00
98.8996 1430.00
98.9648 1507.00
99.03 1504.00
99.0952 1400.00
99.1604 1366.00
99.2256 1323.00
99.2908 1387.00
99.356 1352.00
99.4212 1263.00
99.4864 1304.00
99.5516 1366.00
99.6168 1563.00
99.682 1461.00
99.7472 1451.00
99.8124 1441.00
99.8776 1420.00
99.9428 1403.00
100.008 1416.00
100.073 1485.00
100.095 1459.00