File: data/xrd_creation/results/PG_1018-1.xy
10.0094 2101.00
10.0746 2258.00
10.1398 2211.00
10.205 2158.00
10.2702 2149.00
10.3354 2130.00
10.4006 2128.00
10.4658 2055.00
10.531 2036.00
10.5962 1987.00
10.6614 1953.00
10.7266 1989.00
10.7918 1959.00
10.857 2040.00
10.9222 2002.00
10.9874 1923.00
11.0526 1911.00
11.1178 1880.00
11.183 1800.00
11.2482 1842.00
11.3134 1848.00
11.3786 1791.00
11.4438 1789.00
11.509 1756.00
11.5742 1793.00
11.6394 1755.00
11.7046 1746.00
11.7698 1707.00
11.835 1660.00
11.9002 1635.00
11.9654 1683.00
12.0306 1539.00
12.0958 1645.00
12.161 1682.00
12.2262 1619.00
12.2914 1587.00
12.3566 1538.00
12.4218 1564.00
12.487 1601.00
12.5522 1499.00
12.6174 1520.00
12.6826 1483.00
12.7478 1537.00
12.813 1520.00
12.8782 1475.00
12.9434 1516.00
13.0086 1431.00
13.0738 1487.00
13.139 1423.00
13.2042 1438.00
13.2694 1437.00
13.3346 1396.00
13.3998 1365.00
13.465 1351.00
13.5302 1397.00
13.5954 1356.00
13.6606 1352.00
13.7258 1375.00
13.791 1336.00
13.8562 1345.00
13.9214 1340.00
13.9865 1330.00
14.0517 1272.00
14.1169 1249.00
14.1821 1303.00
14.2473 1367.00
14.3125 1268.00
14.3777 1215.00
14.4429 1214.00
14.5081 1286.00
14.5733 1246.00
14.6385 1201.00
14.7037 1242.00
14.7689 1171.00
14.8341 1234.00
14.8993 1248.00
14.9645 1228.00
15.0297 1181.00
15.0949 1171.00
15.1601 1207.00
15.2253 1132.00
15.2905 1205.00
15.3557 1216.00
15.4209 1132.00
15.4861 1175.00
15.5513 1201.00
15.6165 1165.00
15.6817 1063.00
15.7469 1186.00
15.8121 1136.00
15.8773 1206.00
15.9425 1161.00
16.0077 1155.00
16.0729 1122.00
16.1381 1112.00
16.2033 1188.00
16.2685 1113.00
16.3337 1155.00
16.3989 1096.00
16.4641 1083.00
16.5293 1094.00
16.5945 1116.00
16.6597 1025.00
16.7249 1093.00
16.7901 1093.00
16.8553 1036.00
16.9205 1087.00
16.9857 1036.00
17.0509 1054.00
17.1161 1088.00
17.1813 1039.00
17.2465 1046.00
17.3117 1025.00
17.3769 1029.00
17.4421 987.00
17.5073 1010.00
17.5725 1026.00
17.6377 993.00
17.7029 1024.00
17.7681 1013.00
17.8333 1007.00
17.8985 1001.00
17.9637 993.00
18.0289 955.00
18.0941 930.00
18.1593 988.00
18.2245 908.00
18.2897 881.00
18.3549 940.00
18.4201 965.00
18.4853 962.00
18.5505 966.00
18.6157 965.00
18.6809 896.00
18.7461 956.00
18.8112 935.00
18.8764 891.00
18.9416 971.00
19.0068 901.00
19.072 834.00
19.1372 914.00
19.2024 864.00
19.2676 843.00
19.3328 868.00
19.398 853.00
19.4632 833.00
19.5284 811.00
19.5936 926.00
19.6588 851.00
19.724 849.00
19.7892 821.00
19.8544 838.00
19.9196 825.00
19.9848 816.00
20.05 866.00
20.1152 812.00
20.1804 804.00
20.2456 804.00
20.3108 814.00
20.376 823.00
20.4412 778.00
20.5064 789.00
20.5716 763.00
20.6368 798.00
20.702 725.00
20.7672 772.00
20.8324 793.00
20.8976 777.00
20.9628 769.00
21.028 747.00
21.0932 741.00
21.1584 768.00
21.2236 857.00
21.2888 979.00
21.354 1012.00
21.4192 915.00
21.4844 818.00
21.5496 758.00
21.6148 772.00
21.68 746.00
21.7452 760.00
21.8104 706.00
21.8756 732.00
21.9408 704.00
22.006 689.00
22.0712 741.00
22.1364 707.00
22.2016 688.00
22.2668 701.00
22.332 744.00
22.3972 722.00
22.4624 721.00
22.5276 696.00
22.5928 706.00
22.658 712.00
22.7232 695.00
22.7884 721.00
22.8536 712.00
22.9188 751.00
22.984 695.00
23.0492 726.00
23.1144 691.00
23.1796 683.00
23.2448 669.00
23.31 710.00
23.3752 648.00
23.4404 715.00
23.5056 684.00
23.5708 639.00
23.6359 633.00
23.7011 641.00
23.7663 676.00
23.8315 620.00
23.8967 660.00
23.9619 602.00
24.0271 600.00
24.0923 650.00
24.1575 634.00
24.2227 683.00
24.2879 732.00
24.3531 823.00
24.4183 777.00
24.4835 741.00
24.5487 685.00
24.6139 602.00
24.6791 612.00
24.7443 610.00
24.8095 616.00
24.8747 623.00
24.9399 604.00
25.0051 605.00
25.0703 612.00
25.1355 579.00
25.2007 573.00
25.2659 618.00
25.3311 581.00
25.3963 572.00
25.4615 572.00
25.5267 535.00
25.5919 611.00
25.6571 583.00
25.7223 568.00
25.7875 571.00
25.8527 594.00
25.9179 611.00
25.9831 543.00
26.0483 583.00
26.1135 573.00
26.1787 559.00
26.2439 557.00
26.3091 545.00
26.3743 555.00
26.4395 515.00
26.5047 548.00
26.5699 542.00
26.6351 578.00
26.7003 544.00
26.7655 492.00
26.8307 545.00
26.8959 513.00
26.9611 542.00
27.0263 552.00
27.0915 518.00
27.1567 542.00
27.2219 563.00
27.2871 524.00
27.3523 532.00
27.4175 536.00
27.4827 560.00
27.5479 510.00
27.6131 491.00
27.6783 499.00
27.7435 521.00
27.8087 532.00
27.8739 498.00
27.9391 513.00
28.0043 529.00
28.0695 554.00
28.1347 532.00
28.1999 521.00
28.2651 491.00
28.3303 524.00
28.3955 483.00
28.4606 498.00
28.5258 543.00
28.591 527.00
28.6562 505.00
28.7214 506.00
28.7866 535.00
28.8518 479.00
28.917 475.00
28.9822 473.00
29.0474 462.00
29.1126 515.00
29.1778 486.00
29.243 446.00
29.3082 502.00
29.3734 457.00
29.4386 531.00
29.5038 510.00
29.569 471.00
29.6342 531.00
29.6994 491.00
29.7646 456.00
29.8298 509.00
29.895 458.00
29.9602 559.00
30.0254 493.00
30.0906 541.00
30.1558 537.00
30.221 634.00
30.2862 762.00
30.3514 1166.00
30.4166 2028.00
30.4818 2124.00
30.547 1537.00
30.6122 885.00
30.6774 606.00
30.7426 535.00
30.8078 526.00
30.873 484.00
30.9382 487.00
31.0034 487.00
31.0686 446.00
31.1338 450.00
31.199 457.00
31.2642 429.00
31.3294 475.00
31.3946 423.00
31.4598 419.00
31.525 444.00
31.5902 458.00
31.6554 453.00
31.7206 452.00
31.7858 433.00
31.851 470.00
31.9162 470.00
31.9814 415.00
32.0466 415.00
32.1118 423.00
32.177 445.00
32.2422 431.00
32.3074 414.00
32.3726 405.00
32.4378 474.00
32.503 429.00
32.5682 436.00
32.6334 431.00
32.6986 398.00
32.7638 419.00
32.829 430.00
32.8942 412.00
32.9594 458.00
33.0246 428.00
33.0898 418.00
33.1549 451.00
33.2201 426.00
33.2853 392.00
33.3505 476.00
33.4157 531.00
33.4809 568.00
33.5461 543.00
33.6113 472.00
33.6765 402.00
33.7417 382.00
33.8069 403.00
33.8721 411.00
33.9373 388.00
34.0025 353.00
34.0677 395.00
34.1329 377.00
34.1981 363.00
34.2633 394.00
34.3285 372.00
34.3937 387.00
34.4589 396.00
34.5241 398.00
34.5893 350.00
34.6545 357.00
34.7197 391.00
34.7849 376.00
34.8501 380.00
34.9153 445.00
34.9805 385.00
35.0457 352.00
35.1109 404.00
35.1761 487.00
35.2413 562.00
35.3065 741.00
35.3717 757.00
35.4369 666.00
35.5021 487.00
35.5673 464.00
35.6325 397.00
35.6977 384.00
35.7629 377.00
35.8281 373.00
35.8933 415.00
35.9585 405.00
36.0237 488.00
36.0889 510.00
36.1541 467.00
36.2193 442.00
36.2845 337.00
36.3497 394.00
36.4149 377.00
36.4801 336.00
36.5453 327.00
36.6105 354.00
36.6757 377.00
36.7409 352.00
36.8061 339.00
36.8713 369.00
36.9365 341.00
37.0017 354.00
37.0669 341.00
37.1321 325.00
37.1973 316.00
37.2625 341.00
37.3277 325.00
37.3929 365.00
37.4581 349.00
37.5233 416.00
37.5885 398.00
37.6537 368.00
37.7189 368.00
37.7841 317.00
37.8493 328.00
37.9145 312.00
37.9796 350.00
38.0448 316.00
38.11 314.00
38.1752 312.00
38.2404 331.00
38.3056 302.00
38.3708 319.00
38.436 320.00
38.5012 306.00
38.5664 295.00
38.6316 303.00
38.6968 289.00
38.762 311.00
38.8272 326.00
38.8924 300.00
38.9576 318.00
39.0228 339.00
39.088 301.00
39.1532 285.00
39.2184 313.00
39.2836 294.00
39.3488 307.00
39.414 310.00
39.4792 309.00
39.5444 340.00
39.6096 310.00
39.6748 337.00
39.74 334.00
39.8052 316.00
39.8704 314.00
39.9356 278.00
40.0008 316.00
40.066 308.00
40.1312 282.00
40.1964 268.00
40.2616 318.00
40.3268 283.00
40.392 279.00
40.4572 295.00
40.5224 306.00
40.5876 273.00
40.6528 310.00
40.718 302.00
40.7832 278.00
40.8484 301.00
40.9136 310.00
40.9788 266.00
41.044 297.00
41.1092 265.00
41.1744 285.00
41.2396 307.00
41.3048 290.00
41.37 317.00
41.4352 348.00
41.5004 295.00
41.5656 260.00
41.6308 313.00
41.696 355.00
41.7612 343.00
41.8264 330.00
41.8916 307.00
41.9568 270.00
42.022 293.00
42.0872 257.00
42.1524 284.00
42.2176 296.00
42.2828 237.00
42.348 280.00
42.4132 290.00
42.4784 272.00
42.5436 263.00
42.6088 235.00
42.6739 247.00
42.7392 258.00
42.8043 246.00
42.8695 264.00
42.9347 259.00
42.9999 291.00
43.0651 256.00
43.1303 274.00
43.1955 269.00
43.2607 258.00
43.3259 266.00
43.3911 235.00
43.4563 273.00
43.5215 289.00
43.5867 259.00
43.6519 276.00
43.7171 289.00
43.7823 281.00
43.8475 292.00
43.9127 287.00
43.9779 260.00
44.0431 275.00
44.1083 282.00
44.1735 268.00
44.2387 273.00
44.3039 279.00
44.3691 246.00
44.4343 290.00
44.4995 280.00
44.5647 234.00
44.6299 235.00
44.6951 272.00
44.7603 259.00
44.8255 259.00
44.8907 257.00
44.9559 259.00
45.0211 248.00
45.0863 239.00
45.1515 265.00
45.2167 267.00
45.2819 259.00
45.3471 243.00
45.4123 262.00
45.4775 321.00
45.5427 366.00
45.6079 353.00
45.6731 335.00
45.7383 274.00
45.8035 280.00
45.8687 266.00
45.9339 240.00
45.9991 230.00
46.0643 224.00
46.1295 210.00
46.1947 260.00
46.2599 231.00
46.3251 193.00
46.3903 228.00
46.4555 249.00
46.5207 258.00
46.5859 222.00
46.6511 191.00
46.7163 236.00
46.7815 212.00
46.8467 236.00
46.9119 242.00
46.9771 197.00
47.0423 234.00
47.1075 262.00
47.1727 239.00
47.2379 243.00
47.3031 244.00
47.3683 273.00
47.4335 237.00
47.4986 230.00
47.5639 250.00
47.629 222.00
47.6942 236.00
47.7594 256.00
47.8246 213.00
47.8898 256.00
47.955 237.00
48.0202 215.00
48.0854 247.00
48.1506 232.00
48.2158 260.00
48.281 207.00
48.3462 221.00
48.4114 237.00
48.4766 234.00
48.5418 258.00
48.607 236.00
48.6722 220.00
48.7374 245.00
48.8026 236.00
48.8678 228.00
48.933 225.00
48.9982 215.00
49.0634 230.00
49.1286 263.00
49.1938 244.00
49.259 222.00
49.3242 239.00
49.3894 211.00
49.4546 261.00
49.5198 226.00
49.585 207.00
49.6502 214.00
49.7154 230.00
49.7806 230.00
49.8458 225.00
49.911 237.00
49.9762 242.00
50.0414 306.00
50.1066 323.00
50.1718 272.00
50.237 249.00
50.3022 211.00
50.3674 231.00
50.4326 233.00
50.4978 244.00
50.563 203.00
50.6282 250.00
50.6934 239.00
50.7586 331.00
50.8238 482.00
50.889 601.00
50.9542 532.00
51.0194 520.00
51.0846 391.00
51.1498 279.00
51.215 261.00
51.2802 238.00
51.3454 250.00
51.4106 232.00
51.4758 248.00
51.541 218.00
51.6062 232.00
51.6714 184.00
51.7366 256.00
51.8018 193.00
51.867 213.00
51.9322 222.00
51.9974 227.00
52.0626 196.00
52.1278 219.00
52.193 183.00
52.2582 189.00
52.3233 209.00
52.3886 182.00
52.4537 225.00
52.5189 213.00
52.5841 242.00
52.6493 220.00
52.7145 234.00
52.7797 232.00
52.8449 226.00
52.9101 196.00
52.9753 209.00
53.0405 227.00
53.1057 207.00
53.1709 180.00
53.2361 229.00
53.3013 213.00
53.3665 190.00
53.4317 198.00
53.4969 232.00
53.5621 189.00
53.6273 231.00
53.6925 232.00
53.7577 232.00
53.8229 216.00
53.8881 188.00
53.9533 199.00
54.0185 186.00
54.0837 204.00
54.1489 192.00
54.2141 208.00
54.2793 196.00
54.3445 228.00
54.4097 233.00
54.4749 206.00
54.5401 243.00
54.6053 221.00
54.6705 285.00
54.7357 311.00
54.8009 284.00
54.8661 298.00
54.9313 264.00
54.9965 200.00
55.0617 219.00
55.1269 169.00
55.1921 195.00
55.2573 190.00
55.3225 203.00
55.3877 183.00
55.4529 190.00
55.5181 169.00
55.5833 173.00
55.6485 218.00
55.7137 199.00
55.7789 196.00
55.8441 242.00
55.9093 230.00
55.9745 244.00
56.0397 219.00
56.1049 186.00
56.1701 190.00
56.2353 191.00
56.3005 196.00
56.3657 191.00
56.4309 200.00
56.4961 178.00
56.5613 194.00
56.6265 192.00
56.6917 210.00
56.7569 207.00
56.8221 165.00
56.8873 195.00
56.9525 178.00
57.0177 187.00
57.0829 185.00
57.148 179.00
57.2132 179.00
57.2784 160.00
57.3436 185.00
57.4088 216.00
57.474 208.00
57.5392 171.00
57.6044 198.00
57.6696 198.00
57.7348 183.00
57.8 182.00
57.8652 174.00
57.9304 177.00
57.9956 186.00
58.0608 180.00
58.126 170.00
58.1912 185.00
58.2564 175.00
58.3216 198.00
58.3868 189.00
58.452 192.00
58.5172 164.00
58.5824 197.00
58.6476 181.00
58.7128 178.00
58.778 165.00
58.8432 173.00
58.9084 174.00
58.9736 207.00
59.0388 184.00
59.104 222.00
59.1692 220.00
59.2344 189.00
59.2996 182.00
59.3648 189.00
59.43 162.00
59.4952 188.00
59.5604 163.00
59.6256 200.00
59.6908 157.00
59.756 187.00
59.8212 188.00
59.8864 181.00
59.9516 178.00
60.0168 189.00
60.082 172.00
60.1472 167.00
60.2124 177.00
60.2776 191.00
60.3428 198.00
60.408 238.00
60.4732 303.00
60.5384 422.00
60.6036 374.00
60.6688 329.00
60.734 304.00
60.7992 193.00
60.8644 204.00
60.9296 195.00
60.9948 198.00
61.06 172.00
61.1252 173.00
61.1904 162.00
61.2556 166.00
61.3208 156.00
61.386 152.00
61.4512 184.00
61.5164 165.00
61.5816 161.00
61.6468 192.00
61.712 161.00
61.7772 156.00
61.8424 195.00
61.9076 180.00
61.9727 190.00
62.0379 213.00
62.1031 207.00
62.1683 214.00
62.2335 184.00
62.2987 173.00
62.3639 218.00
62.4291 188.00
62.4943 179.00
62.5595 158.00
62.6247 188.00
62.6899 167.00
62.7551 168.00
62.8203 177.00
62.8855 157.00
62.9507 170.00
63.0159 151.00
63.0811 186.00
63.1463 159.00
63.2115 181.00
63.2767 191.00
63.3419 207.00
63.4071 198.00
63.4723 215.00
63.5375 229.00
63.6027 218.00
63.6679 208.00
63.7331 207.00
63.7983 167.00
63.8635 169.00
63.9287 162.00
63.9939 156.00
64.0591 203.00
64.1243 160.00
64.1895 156.00
64.2547 189.00
64.3199 164.00
64.3851 178.00
64.4503 167.00
64.5155 192.00
64.5807 188.00
64.6459 157.00
64.7111 169.00
64.7763 163.00
64.8415 181.00
64.9067 198.00
64.9719 226.00
65.0371 190.00
65.1023 213.00
65.1675 172.00
65.2327 191.00
65.2979 158.00
65.3631 166.00
65.4283 146.00
65.4935 143.00
65.5587 171.00
65.6239 170.00
65.6891 196.00
65.7543 150.00
65.8195 165.00
65.8847 189.00
65.9499 150.00
66.0151 164.00
66.0803 163.00
66.1455 152.00
66.2107 148.00
66.2759 162.00
66.3411 175.00
66.4063 169.00
66.4715 158.00
66.5367 156.00
66.6019 187.00
66.6671 153.00
66.7322 166.00
66.7974 169.00
66.8626 171.00
66.9278 150.00
66.993 165.00
67.0582 188.00
67.1234 139.00
67.1886 141.00
67.2538 163.00
67.319 171.00
67.3842 153.00
67.4494 173.00
67.5146 157.00
67.5798 182.00
67.645 175.00
67.7102 171.00
67.7754 146.00
67.8406 153.00
67.9058 151.00
67.971 176.00
68.0362 170.00
68.1014 188.00
68.1666 158.00
68.2318 149.00
68.297 142.00
68.3622 166.00
68.4274 157.00
68.4926 169.00
68.5578 139.00
68.623 159.00
68.6882 161.00
68.7534 167.00
68.8186 158.00
68.8838 177.00
68.949 168.00
69.0142 162.00
69.0794 141.00
69.1446 180.00
69.2098 164.00
69.275 172.00
69.3402 189.00
69.4054 167.00
69.4706 173.00
69.5358 186.00
69.601 159.00
69.6662 166.00
69.7314 158.00
69.7966 157.00
69.8618 155.00
69.927 138.00
69.9922 170.00
70.0574 154.00
70.1226 170.00
70.1878 142.00
70.253 183.00
70.3182 135.00
70.3834 159.00
70.4486 158.00
70.5138 143.00
70.579 165.00
70.6442 163.00
70.7094 145.00
70.7746 165.00
70.8398 154.00
70.905 149.00
70.9702 160.00
71.0354 156.00
71.1006 157.00
71.1658 176.00
71.231 161.00
71.2962 177.00
71.3614 182.00
71.4266 181.00
71.4918 178.00
71.5569 143.00
71.6221 150.00
71.6873 137.00
71.7525 165.00
71.8177 165.00
71.8829 169.00
71.9481 166.00
72.0133 182.00
72.0785 181.00
72.1437 148.00
72.2089 153.00
72.2741 166.00
72.3393 152.00
72.4045 178.00
72.4697 162.00
72.5349 170.00
72.6001 166.00
72.6653 179.00
72.7305 152.00
72.7957 157.00
72.8609 195.00
72.9261 174.00
72.9913 149.00
73.0565 183.00
73.1217 189.00
73.1869 158.00
73.2521 164.00
73.3173 152.00
73.3825 166.00
73.4477 194.00
73.5129 193.00
73.5781 187.00
73.6433 154.00
73.7085 181.00
73.7737 199.00
73.8389 160.00
73.9041 179.00
73.9693 145.00
74.0345 172.00
74.0997 177.00
74.1649 172.00
74.2301 158.00
74.2953 173.00
74.3605 158.00
74.4257 150.00
74.4909 161.00
74.5561 177.00
74.6213 172.00
74.6865 149.00
74.7517 146.00
74.8169 175.00
74.8821 189.00
74.9473 197.00
75.0125 164.00
75.0777 154.00
75.1429 201.00
75.2081 204.00
75.2733 169.00
75.3385 167.00
75.4037 166.00
75.4689 170.00
75.5341 153.00
75.5993 161.00
75.6645 151.00
75.7297 169.00
75.7949 160.00
75.8601 191.00
75.9253 178.00
75.9905 179.00
76.0557 181.00
76.1209 174.00
76.186 202.00
76.2513 204.00
76.3165 194.00
76.3816 170.00
76.4468 215.00
76.512 206.00
76.5772 224.00
76.6424 186.00
76.7076 177.00
76.7728 193.00
76.838 183.00
76.9032 186.00
76.9684 154.00
77.0336 179.00
77.0988 181.00
77.164 198.00
77.2292 174.00
77.2944 178.00
77.3596 178.00
77.4248 199.00
77.49 194.00
77.5552 196.00
77.6204 187.00
77.6856 206.00
77.7508 159.00
77.816 164.00
77.8812 192.00
77.9464 180.00
78.0116 165.00
78.0768 177.00
78.142 209.00
78.2072 161.00
78.2724 167.00
78.3376 223.00
78.4028 179.00
78.468 181.00
78.5332 180.00
78.5984 187.00
78.6636 197.00
78.7288 211.00
78.794 185.00
78.8592 171.00
78.9244 202.00
78.9896 216.00
79.0548 203.00
79.12 209.00
79.1852 190.00
79.2504 222.00
79.3156 170.00
79.3808 175.00
79.446 189.00
79.5112 187.00
79.5764 177.00
79.6416 172.00
79.7068 205.00
79.772 196.00
79.8372 190.00
79.9024 194.00
79.9676 185.00
80.0328 187.00
80.098 171.00
80.1632 189.00
80.2284 188.00
80.2936 200.00
80.3588 184.00
80.424 191.00
80.4892 177.00
80.5544 183.00
80.6196 225.00
80.6848 217.00
80.75 196.00
80.8152 192.00
80.8804 192.00
80.9456 185.00
81.0108 175.00
81.076 179.00
81.1412 175.00
81.2063 190.00
81.2715 194.00
81.3367 204.00
81.4019 179.00
81.4671 185.00
81.5323 179.00
81.5975 222.00
81.6627 188.00
81.7279 213.00
81.7931 213.00
81.8583 199.00
81.9235 212.00
81.9887 182.00
82.0539 220.00
82.1191 202.00
82.1843 192.00
82.2495 219.00
82.3147 170.00
82.3799 183.00
82.4451 204.00
82.5103 160.00
82.5755 188.00
82.6407 200.00
82.7059 187.00
82.7711 207.00
82.8363 190.00
82.9015 195.00
82.9667 198.00
83.0319 198.00
83.0971 214.00
83.1623 209.00
83.2275 215.00
83.2927 217.00
83.3579 216.00
83.4231 195.00
83.4883 183.00
83.5535 183.00
83.6187 189.00
83.6839 192.00
83.7491 202.00
83.8143 203.00
83.8795 179.00
83.9447 171.00
84.0099 190.00
84.0751 176.00
84.1403 190.00
84.2055 205.00
84.2707 227.00
84.3359 175.00
84.4011 201.00
84.4663 182.00
84.5315 172.00
84.5967 215.00
84.6619 165.00
84.7271 193.00
84.7923 180.00
84.8575 208.00
84.9227 193.00
84.9879 188.00
85.0531 157.00
85.1183 165.00
85.1835 185.00
85.2487 195.00
85.3139 167.00
85.3791 190.00
85.4443 182.00
85.5095 193.00
85.5747 179.00
85.6399 196.00
85.7051 191.00
85.7703 194.00
85.8354 210.00
85.9006 197.00
85.9659 191.00
86.031 200.00
86.0962 181.00
86.1614 149.00
86.2266 177.00
86.2918 179.00
86.357 183.00
86.4222 184.00
86.4874 153.00
86.5526 183.00
86.6178 165.00
86.683 164.00
86.7482 176.00
86.8134 176.00
86.8786 181.00
86.9438 190.00
87.009 151.00
87.0742 160.00
87.1394 187.00
87.2046 191.00
87.2698 163.00
87.335 167.00
87.4002 170.00
87.4654 174.00
87.5306 184.00
87.5958 171.00
87.661 177.00
87.7262 177.00
87.7914 170.00
87.8566 167.00
87.9218 183.00
87.987 173.00
88.0522 172.00
88.1174 141.00
88.1826 152.00
88.2478 173.00
88.313 166.00
88.3782 163.00
88.4434 183.00
88.5086 161.00
88.5738 166.00
88.639 179.00
88.7042 175.00
88.7694 172.00
88.8346 170.00
88.8998 148.00
88.965 185.00
89.0302 171.00
89.0954 179.00
89.1606 150.00
89.2258 162.00
89.291 186.00
89.3562 187.00
89.4214 176.00
89.4866 179.00
89.5518 158.00
89.617 162.00
89.6822 164.00
89.7474 159.00
89.8126 181.00
89.8778 159.00
89.943 147.00
90.0082 190.00
90.0734 178.00
90.1386 183.00
90.2038 169.00
90.269 170.00
90.3342 190.00
90.3994 181.00
90.4646 155.00
90.5298 145.00
90.595 149.00
90.6601 172.00
90.7253 179.00
90.7905 178.00
90.8557 156.00
90.9209 157.00
90.9861 166.00
91.0513 166.00
91.1165 142.00
91.1817 148.00
91.2469 165.00
91.3121 142.00
91.3773 160.00
91.4425 163.00
91.5077 152.00
91.5729 154.00
91.6381 150.00
91.7033 161.00
91.7685 158.00
91.8337 170.00
91.8989 157.00
91.9641 128.00
92.0293 140.00
92.0945 162.00
92.1597 146.00
92.2249 154.00
92.2901 167.00
92.3553 180.00
92.4205 177.00
92.4857 173.00
92.5509 173.00
92.6161 168.00
92.6813 171.00
92.7465 162.00
92.8117 125.00
92.8769 165.00
92.9421 166.00
93.0073 138.00
93.0725 134.00
93.1377 150.00
93.2029 152.00
93.2681 143.00
93.3333 145.00
93.3985 171.00
93.4637 149.00
93.5289 155.00
93.5941 164.00
93.6593 162.00
93.7245 186.00
93.7897 142.00
93.8549 153.00
93.9201 168.00
93.9853 167.00
94.0505 157.00
94.1157 155.00
94.1809 151.00
94.2461 168.00
94.3113 159.00
94.3765 159.00
94.4417 150.00
94.5069 150.00
94.5721 162.00
94.6373 144.00
94.7025 138.00
94.7677 183.00
94.8329 162.00
94.8981 166.00
94.9633 158.00
95.0285 173.00
95.0937 168.00
95.1589 165.00
95.2241 186.00
95.2893 157.00
95.3545 180.00
95.4197 164.00
95.4848 163.00
95.55 188.00
95.6153 157.00
95.6804 169.00
95.7456 148.00
95.8108 152.00
95.876 165.00
95.9412 150.00
96.0064 161.00
96.0716 147.00
96.1368 152.00
96.202 153.00
96.2672 157.00
96.3324 187.00
96.3976 180.00
96.4628 174.00
96.528 150.00
96.5932 168.00
96.6584 157.00
96.7236 171.00
96.7888 167.00
96.854 185.00
96.9192 189.00
96.9844 141.00
97.0496 163.00
97.1148 171.00
97.18 159.00
97.2452 147.00
97.3104 150.00
97.3756 173.00
97.4408 163.00
97.506 151.00
97.5712 171.00
97.6364 157.00
97.7016 152.00
97.7668 159.00
97.832 175.00
97.8972 147.00
97.9624 175.00
98.0276 150.00
98.0928 176.00
98.158 172.00
98.2232 168.00
98.2884 138.00
98.3536 145.00
98.4188 161.00
98.484 150.00
98.5492 144.00
98.6144 135.00
98.6796 153.00
98.7448 136.00
98.81 151.00
98.8752 188.00
98.9404 171.00
99.0056 161.00
99.0708 188.00
99.136 171.00
99.2012 180.00
99.2664 157.00
99.3316 182.00
99.3968 152.00
99.462 170.00
99.5272 171.00
99.5924 181.00
99.6576 168.00
99.7228 150.00
99.788 170.00
99.8532 150.00
99.9184 149.00
99.9836 148.00
99.9944 164.00