File: data/xrd_creation/results/PG_1738-1.xy
9.903433 2523.00
9.968632 2534.00
10.0338 2448.00
10.099 2525.00
10.1642 2397.00
10.2294 2375.00
10.2946 2346.00
10.3598 2383.00
10.425 2399.00
10.4902 2318.00
10.5554 2252.00
10.6206 2335.00
10.6858 2329.00
10.751 2263.00
10.8162 2220.00
10.8814 2216.00
10.9466 2198.00
11.0118 2102.00
11.077 2138.00
11.1422 2180.00
11.2074 2168.00
11.2726 2241.00
11.3378 2073.00
11.403 2138.00
11.4682 2010.00
11.5334 2076.00
11.5986 1993.00
11.6638 2102.00
11.729 1952.00
11.7942 1905.00
11.8594 2008.00
11.9246 1933.00
11.9898 1952.00
12.055 1950.00
12.1202 1901.00
12.1854 1921.00
12.2506 1835.00
12.3158 1851.00
12.381 1832.00
12.4462 1888.00
12.5114 1796.00
12.5766 1863.00
12.6418 1809.00
12.707 1778.00
12.7722 1766.00
12.8374 1740.00
12.9026 1836.00
12.9678 1709.00
13.033 1705.00
13.0982 1722.00
13.1634 1712.00
13.2286 1740.00
13.2938 1703.00
13.359 1656.00
13.4242 1835.00
13.4894 1625.00
13.5546 1690.00
13.6198 1715.00
13.685 1695.00
13.7502 1661.00
13.8154 1606.00
13.8805 1589.00
13.9457 1546.00
14.0109 1634.00
14.0761 1596.00
14.1413 1489.00
14.2065 1584.00
14.2717 1627.00
14.3369 1538.00
14.4021 1500.00
14.4673 1500.00
14.5325 1511.00
14.5977 1516.00
14.6629 1575.00
14.7281 1498.00
14.7933 1602.00
14.8585 1553.00
14.9237 1498.00
14.9889 1525.00
15.0541 1477.00
15.1193 1560.00
15.1845 1552.00
15.2497 1509.00
15.3149 1455.00
15.3801 1472.00
15.4453 1516.00
15.5105 1487.00
15.5757 1410.00
15.6409 1381.00
15.7061 1439.00
15.7713 1448.00
15.8365 1501.00
15.9017 1486.00
15.9669 1502.00
16.0321 1475.00
16.0973 1502.00
16.1625 1363.00
16.2277 1447.00
16.2929 1444.00
16.3581 1423.00
16.4233 1442.00
16.4885 1361.00
16.5537 1429.00
16.6189 1369.00
16.6841 1346.00
16.7493 1395.00
16.8145 1392.00
16.8797 1299.00
16.9449 1375.00
17.0101 1386.00
17.0753 1427.00
17.1405 1432.00
17.2057 1449.00
17.2709 1451.00
17.3361 1416.00
17.4013 1438.00
17.4665 1378.00
17.5317 1477.00
17.5969 1445.00
17.6621 1495.00
17.7273 1507.00
17.7925 1585.00
17.8577 1522.00
17.9229 1382.00
17.9881 1376.00
18.0533 1353.00
18.1185 1393.00
18.1837 1185.00
18.2489 1231.00
18.3141 1269.00
18.3793 1295.00
18.4445 1276.00
18.5097 1291.00
18.5749 1356.00
18.6401 1254.00
18.7052 1285.00
18.7704 1268.00
18.8356 1170.00
18.9008 1285.00
18.966 1189.00
19.0312 1268.00
19.0964 1225.00
19.1616 1145.00
19.2268 1203.00
19.292 1237.00
19.3572 1208.00
19.4224 1208.00
19.4876 1215.00
19.5528 1172.00
19.618 1266.00
19.6832 1134.00
19.7484 1167.00
19.8136 1122.00
19.8788 1164.00
19.944 1207.00
20.0092 1159.00
20.0744 1093.00
20.1396 1268.00
20.2048 1128.00
20.27 1154.00
20.3352 1170.00
20.4004 1180.00
20.4656 1184.00
20.5308 1158.00
20.596 1144.00
20.6612 1155.00
20.7264 1193.00
20.7916 1152.00
20.8568 1099.00
20.922 1148.00
20.9872 1114.00
21.0524 1176.00
21.1176 1117.00
21.1828 1125.00
21.248 1095.00
21.3132 1129.00
21.3784 1177.00
21.4436 1089.00
21.5088 1155.00
21.574 1080.00
21.6392 1092.00
21.7044 1143.00
21.7696 1129.00
21.8348 1135.00
21.9 1053.00
21.9652 1095.00
22.0304 1107.00
22.0956 1117.00
22.1608 1113.00
22.226 1150.00
22.2912 1116.00
22.3564 1198.00
22.4216 1307.00
22.4868 1481.00
22.552 1694.00
22.6172 1939.00
22.6824 2378.00
22.7476 3057.00
22.8128 3407.00
22.878 2947.00
22.9432 1844.00
23.0084 1302.00
23.0736 1172.00
23.1388 1151.00
23.204 1121.00
23.2692 1022.00
23.3344 1035.00
23.3996 1032.00
23.4647 1026.00
23.5299 1038.00
23.5951 1105.00
23.6603 1041.00
23.7255 1107.00
23.7907 1022.00
23.8559 1083.00
23.9211 1118.00
23.9863 1096.00
24.0515 1213.00
24.1167 1190.00
24.1819 1335.00
24.2471 1407.00
24.3123 1697.00
24.3775 1926.00
24.4427 2069.00
24.5079 1857.00
24.5731 1573.00
24.6383 1523.00
24.7035 1515.00
24.7687 1695.00
24.8339 1806.00
24.8991 1619.00
24.9643 1363.00
25.0295 1197.00
25.0947 1098.00
25.1599 1043.00
25.2251 957.00
25.2903 1044.00
25.3555 1013.00
25.4207 987.00
25.4859 982.00
25.5511 1050.00
25.6163 985.00
25.6815 1065.00
25.7467 1023.00
25.8119 1009.00
25.8771 1047.00
25.9423 1033.00
26.0075 955.00
26.0727 957.00
26.1379 989.00
26.2031 974.00
26.2683 963.00
26.3335 950.00
26.3987 915.00
26.4639 927.00
26.5291 963.00
26.5943 985.00
26.6595 944.00
26.7247 939.00
26.7899 920.00
26.8551 971.00
26.9203 931.00
26.9855 964.00
27.0507 934.00
27.1159 961.00
27.1811 998.00
27.2463 979.00
27.3115 984.00
27.3767 978.00
27.4419 966.00
27.5071 1000.00
27.5723 1072.00
27.6375 968.00
27.7027 1010.00
27.7679 1044.00
27.8331 1100.00
27.8983 1107.00
27.9635 1196.00
28.0287 1257.00
28.0939 1410.00
28.1591 1663.00
28.2243 2014.00
28.2894 2652.00
28.3546 3802.00
28.4198 5575.00
28.485 7998.00
28.5502 10149.00
28.6154 9578.00
28.6806 6749.00
28.7458 3998.00
28.811 2644.00
28.8762 2094.00
28.9414 1965.00
29.0066 1963.00
29.0718 2164.00
29.137 2255.00
29.2022 1954.00
29.2674 1552.00
29.3326 1296.00
29.3978 1148.00
29.463 1061.00
29.5282 1053.00
29.5934 1011.00
29.6586 913.00
29.7238 941.00
29.789 994.00
29.8542 999.00
29.9194 928.00
29.9846 983.00
30.0498 899.00
30.115 910.00
30.1802 919.00
30.2454 931.00
30.3106 838.00
30.3758 879.00
30.441 922.00
30.5062 890.00
30.5714 925.00
30.6366 948.00
30.7018 911.00
30.767 939.00
30.8322 832.00
30.8974 896.00
30.9626 937.00
31.0278 1007.00
31.093 1010.00
31.1582 1015.00
31.2234 982.00
31.2886 1121.00
31.3538 1126.00
31.419 1254.00
31.4842 1313.00
31.5494 1556.00
31.6146 1981.00
31.6798 2656.00
31.745 3764.00
31.8102 5149.00
31.8754 6297.00
31.9406 5884.00
32.0058 4158.00
32.071 2686.00
32.1362 1868.00
32.2014 1417.00
32.2666 1084.00
32.3318 1068.00
32.397 1000.00
32.4622 983.00
32.5274 932.00
32.5926 872.00
32.6578 921.00
32.723 940.00
32.7882 903.00
32.8534 907.00
32.9186 946.00
32.9838 946.00
33.0489 896.00
33.1141 853.00
33.1793 882.00
33.2445 829.00
33.3097 788.00
33.3749 863.00
33.4401 869.00
33.5053 838.00
33.5705 860.00
33.6357 811.00
33.7009 850.00
33.7661 843.00
33.8313 818.00
33.8965 871.00
33.9617 909.00
34.0269 847.00
34.0921 898.00
34.1573 919.00
34.2225 1023.00
34.2877 1175.00
34.3529 1423.00
34.4181 1832.00
34.4833 2475.00
34.5485 2901.00
34.6137 2998.00
34.6789 2591.00
34.7441 2525.00
34.8093 2627.00
34.8745 2606.00
34.9397 2113.00
35.0049 1547.00
35.0701 1146.00
35.1353 988.00
35.2005 997.00
35.2657 922.00
35.3309 953.00
35.3961 938.00
35.4613 1100.00
35.5265 1189.00
35.5917 1584.00
35.6569 2121.00
35.7221 2597.00
35.7873 2728.00
35.8525 2143.00
35.9177 1512.00
35.9829 1143.00
36.0481 1064.00
36.1133 1078.00
36.1785 1176.00
36.2437 1250.00
36.3089 1361.00
36.3741 1251.00
36.4393 1178.00
36.5045 1142.00
36.5697 1282.00
36.6349 1578.00
36.7001 1992.00
36.7653 2129.00
36.8305 1734.00
36.8957 1453.00
36.9609 1087.00
37.0261 1028.00
37.0913 1275.00
37.1565 1296.00
37.2217 1292.00
37.2869 1146.00
37.3521 973.00
37.4173 791.00
37.4825 767.00
37.5477 790.00
37.6129 780.00
37.6781 764.00
37.7433 730.00
37.8085 732.00
37.8736 732.00
37.9388 780.00
38.004 724.00
38.0692 707.00
38.1344 782.00
38.1996 712.00
38.2648 699.00
38.33 781.00
38.3952 804.00
38.4604 748.00
38.5256 786.00
38.5908 745.00
38.656 788.00
38.7212 846.00
38.7864 856.00
38.8516 988.00
38.9168 1232.00
38.982 1404.00
39.0472 1480.00
39.1124 1345.00
39.1776 1088.00
39.2428 929.00
39.308 845.00
39.3732 778.00
39.4384 731.00
39.5036 790.00
39.5688 707.00
39.634 722.00
39.6992 710.00
39.7644 716.00
39.8296 754.00
39.8948 744.00
39.96 721.00
40.0252 789.00
40.0904 673.00
40.1556 721.00
40.2208 786.00
40.286 801.00
40.3512 816.00
40.4164 834.00
40.4816 828.00
40.5468 776.00
40.612 757.00
40.6772 749.00
40.7424 799.00
40.8076 828.00
40.8728 867.00
40.938 926.00
41.0032 1077.00
41.0684 1305.00
41.1336 1657.00
41.1988 1882.00
41.264 1716.00
41.3292 1467.00
41.3944 1257.00
41.4596 1116.00
41.5248 1141.00
41.59 1139.00
41.6552 1153.00
41.7204 1126.00
41.7856 1117.00
41.8508 1123.00
41.916 1071.00
41.9812 942.00
42.0464 911.00
42.1116 771.00
42.1768 746.00
42.242 752.00
42.3072 685.00
42.3724 742.00
42.4376 706.00
42.5028 743.00
42.568 774.00
42.6332 766.00
42.6983 744.00
42.7635 795.00
42.8287 811.00
42.8939 776.00
42.9591 782.00
43.0243 704.00
43.0895 681.00
43.1547 694.00
43.2199 622.00
43.2851 747.00
43.3503 655.00
43.4155 652.00
43.4807 674.00
43.5459 700.00
43.6111 638.00
43.6763 681.00
43.7415 683.00
43.8067 660.00
43.8719 705.00
43.9371 700.00
44.0023 675.00
44.0675 685.00
44.1327 723.00
44.1979 696.00
44.2631 719.00
44.3283 744.00
44.3935 739.00
44.4587 723.00
44.5239 710.00
44.5891 795.00
44.6543 770.00
44.7195 750.00
44.7847 768.00
44.8499 723.00
44.9151 743.00
44.9803 818.00
45.0455 809.00
45.1107 1038.00
45.1759 1124.00
45.2411 1297.00
45.3063 1330.00
45.3715 1142.00
45.4367 1064.00
45.5019 928.00
45.5671 813.00
45.6323 846.00
45.6975 812.00
45.7627 876.00
45.8279 939.00
45.8931 1159.00
45.9583 1331.00
46.0235 1385.00
46.0887 1463.00
46.1539 1455.00
46.2191 1549.00
46.2843 1717.00
46.3495 1544.00
46.4147 1291.00
46.4799 1020.00
46.5451 857.00
46.6103 789.00
46.6755 764.00
46.7407 705.00
46.8059 687.00
46.8711 678.00
46.9363 668.00
47.0015 649.00
47.0667 689.00
47.1319 710.00
47.1971 650.00
47.2623 731.00
47.3275 672.00
47.3927 633.00
47.4579 723.00
47.523 621.00
47.5882 631.00
47.6534 629.00
47.7186 754.00
47.7838 667.00
47.849 724.00
47.9142 674.00
47.9794 697.00
48.0446 701.00
48.1098 673.00
48.175 698.00
48.2402 719.00
48.3054 689.00
48.3706 737.00
48.4358 723.00
48.501 728.00
48.5662 778.00
48.6314 731.00
48.6966 739.00
48.7618 801.00
48.827 751.00
48.8922 769.00
48.9574 762.00
49.0226 773.00
49.0878 824.00
49.153 809.00
49.2182 905.00
49.2834 863.00
49.3486 984.00
49.4138 1057.00
49.479 1122.00
49.5442 1346.00
49.6094 1509.00
49.6746 1968.00
49.7398 2486.00
49.805 2575.00
49.8702 2235.00
49.9354 2078.00
50.0006 1630.00
50.0658 1471.00
50.131 1220.00
50.1962 1179.00
50.2614 1056.00
50.3266 948.00
50.3918 1126.00
50.457 1286.00
50.5222 1777.00
50.5874 2548.00
50.6526 3147.00
50.7178 2951.00
50.783 2570.00
50.8482 2216.00
50.9134 1938.00
50.9786 2137.00
51.0438 2452.00
51.109 2527.00
51.1742 2164.00
51.2394 1785.00
51.3046 1372.00
51.3698 1096.00
51.435 973.00
51.5002 964.00
51.5654 989.00
51.6306 1100.00
51.6958 1194.00
51.761 1199.00
51.8262 1104.00
51.8914 1076.00
51.9566 849.00
52.0218 791.00
52.087 750.00
52.1522 772.00
52.2174 712.00
52.2826 734.00
52.3477 750.00
52.4129 747.00
52.4781 740.00
52.5433 742.00
52.6085 678.00
52.6737 703.00
52.7389 744.00
52.8041 750.00
52.8693 809.00
52.9345 749.00
52.9997 703.00
53.0649 705.00
53.1301 747.00
53.1953 648.00
53.2605 682.00
53.3257 745.00
53.3909 691.00
53.4561 714.00
53.5213 723.00
53.5865 696.00
53.6517 696.00
53.7169 719.00
53.7821 744.00
53.8473 803.00
53.9125 815.00
53.9777 801.00
54.0429 732.00
54.1081 815.00
54.1733 859.00
54.2385 804.00
54.3037 862.00
54.3689 1001.00
54.4341 1177.00
54.4993 1307.00
54.5645 1649.00
54.6297 1822.00
54.6949 1818.00
54.7601 1639.00
54.8253 1396.00
54.8905 1223.00
54.9557 1103.00
55.0209 1208.00
55.0861 1365.00
55.1513 1622.00
55.2165 1530.00
55.2817 1466.00
55.3469 1506.00
55.4121 1464.00
55.4773 1549.00
55.5425 1504.00
55.6077 1612.00
55.6729 1600.00
55.7381 1734.00
55.8033 1967.00
55.8685 2185.00
55.9337 2375.00
55.9989 2183.00
56.0641 2141.00
56.1293 1947.00
56.1945 1683.00
56.2597 1620.00
56.3249 1607.00
56.3901 1811.00
56.4553 1992.00
56.5205 1965.00
56.5857 1826.00
56.6509 1535.00
56.7161 1180.00
56.7813 1023.00
56.8465 918.00
56.9117 855.00
56.9769 797.00
57.042 789.00
57.1073 822.00
57.1724 754.00
57.2376 831.00
57.3028 776.00
57.368 835.00
57.4332 904.00
57.4984 893.00
57.5636 1059.00
57.6288 1297.00
57.694 1495.00
57.7592 1551.00
57.8244 1430.00
57.8896 1271.00
57.9548 1197.00
58.02 974.00
58.0852 914.00
58.1504 885.00
58.2156 914.00
58.2808 982.00
58.346 1156.00
58.4112 1372.00
58.4764 1515.00
58.5416 1443.00
58.6068 1350.00
58.672 1404.00
58.7372 1483.00
58.8024 1503.00
58.8676 1476.00
58.9328 1307.00
58.998 1237.00
59.0632 1030.00
59.1284 903.00
59.1936 877.00
59.2588 815.00
59.324 719.00
59.3892 796.00
59.4544 765.00
59.5196 801.00
59.5848 776.00
59.65 787.00
59.7152 822.00
59.7804 805.00
59.8456 781.00
59.9108 833.00
59.976 865.00
60.0412 933.00
60.1064 971.00
60.1716 1039.00
60.2368 1238.00
60.302 1500.00
60.3672 1695.00
60.4324 1777.00
60.4976 1790.00
60.5628 1746.00
60.628 1613.00
60.6932 1434.00
60.7584 1146.00
60.8236 1128.00
60.8888 993.00
60.954 886.00
61.0192 859.00
61.0844 854.00
61.1496 807.00
61.2148 818.00
61.28 841.00
61.3452 787.00
61.4104 775.00
61.4756 838.00
61.5408 857.00
61.606 864.00
61.6712 873.00
61.7364 969.00
61.8016 1163.00
61.8667 1309.00
61.932 1359.00
61.9971 1430.00
62.0623 1333.00
62.1275 1211.00
62.1927 1119.00
62.2579 1126.00
62.3231 1222.00
62.3883 1232.00
62.4535 1418.00
62.5187 1587.00
62.5839 1496.00
62.6491 1338.00
62.7143 1228.00
62.7795 1061.00
62.8447 887.00
62.9099 862.00
62.9751 784.00
63.0403 863.00
63.1055 851.00
63.1707 970.00
63.2359 1064.00
63.3011 1249.00
63.3663 1530.00
63.4315 1733.00
63.4967 1751.00
63.5619 1688.00
63.6271 1486.00
63.6923 1418.00
63.7575 1293.00
63.8227 1215.00
63.8879 1089.00
63.9531 1016.00
64.0183 942.00
64.0835 872.00
64.1487 858.00
64.2139 869.00
64.2791 843.00
64.3443 790.00
64.4095 808.00
64.4747 819.00
64.5399 839.00
64.6051 879.00
64.6703 979.00
64.7355 982.00
64.8007 1095.00
64.8659 1121.00
64.9311 1050.00
64.9963 998.00
65.0615 952.00
65.1267 891.00
65.1919 835.00
65.2571 813.00
65.3223 827.00
65.3875 792.00
65.4527 754.00
65.5179 800.00
65.5831 865.00
65.6483 855.00
65.7135 869.00
65.7787 850.00
65.8439 901.00
65.9091 1072.00
65.9743 1162.00
66.0395 1182.00
66.1047 1291.00
66.1699 1267.00
66.2351 1511.00
66.3003 1676.00
66.3655 1687.00
66.4307 1482.00
66.4959 1391.00
66.561 1298.00
66.6263 1096.00
66.6915 947.00
66.7566 917.00
66.8218 849.00
66.887 853.00
66.9522 769.00
67.0174 782.00
67.0826 779.00
67.1478 810.00
67.213 744.00
67.2782 772.00
67.3434 722.00
67.4086 755.00
67.4738 750.00
67.539 724.00
67.6042 743.00
67.6694 735.00
67.7346 743.00
67.7998 707.00
67.865 674.00
67.9302 721.00
67.9954 719.00
68.0606 756.00
68.1258 746.00
68.191 716.00
68.2562 732.00
68.3214 708.00
68.3866 699.00
68.4518 720.00
68.517 686.00
68.5822 731.00
68.6474 712.00
68.7126 666.00
68.7778 730.00
68.843 762.00
68.9082 653.00
68.9734 702.00
69.0386 708.00
69.1038 706.00
69.169 743.00
69.2342 724.00
69.2994 757.00
69.3646 765.00
69.4298 830.00
69.495 891.00
69.5602 1012.00
69.6254 996.00
69.6906 903.00
69.7558 885.00
69.821 871.00
69.8862 825.00
69.9514 814.00
70.0166 805.00
70.0818 827.00
70.147 818.00
70.2122 926.00
70.2774 977.00
70.3426 915.00
70.4078 954.00
70.473 921.00
70.5382 872.00
70.6034 889.00
70.6686 851.00
70.7338 791.00
70.799 775.00
70.8642 822.00
70.9294 853.00
70.9946 855.00
71.0598 897.00
71.125 969.00
71.1902 1019.00
71.2554 1030.00
71.3205 1066.00
71.3858 996.00
71.451 956.00
71.5162 943.00
71.5813 1012.00
71.6465 1122.00
71.7117 1258.00
71.7769 1327.00
71.8421 1322.00
71.9073 1321.00
71.9725 1228.00
72.0377 1158.00
72.1029 1020.00
72.1681 982.00
72.2333 872.00
72.2985 878.00
72.3637 831.00
72.4289 796.00
72.4941 833.00
72.5593 891.00
72.6245 828.00
72.6897 923.00
72.7549 911.00
72.8201 925.00
72.8853 921.00
72.9505 857.00
73.0157 882.00
73.0809 976.00
73.1461 966.00
73.2113 889.00
73.2765 993.00
73.3417 872.00
73.4069 874.00
73.4721 803.00
73.5373 786.00
73.6025 786.00
73.6677 769.00
73.7329 724.00
73.7981 744.00
73.8633 756.00
73.9285 760.00
73.9937 730.00
74.0589 761.00
74.1241 755.00
74.1893 802.00
74.2545 703.00
74.3197 727.00
74.3849 709.00
74.4501 746.00
74.5153 714.00
74.5805 646.00
74.6457 707.00
74.7109 727.00
74.7761 722.00
74.8413 709.00
74.9065 713.00
74.9717 700.00
75.0369 693.00
75.1021 809.00
75.1673 785.00
75.2325 855.00
75.2977 906.00
75.3629 959.00
75.4281 939.00
75.4933 926.00
75.5585 976.00
75.6237 1009.00
75.6889 1122.00
75.7541 1168.00
75.8193 1170.00
75.8845 1155.00
75.9497 1073.00
76.0149 1065.00
76.0801 990.00
76.1452 866.00
76.2104 855.00
76.2756 808.00
76.3409 801.00
76.406 766.00
76.4712 763.00
76.5364 698.00
76.6016 750.00
76.6668 770.00
76.732 799.00
76.7972 765.00
76.8624 752.00
76.9276 805.00
76.9928 862.00
77.058 913.00
77.1232 934.00
77.1884 1017.00
77.2536 991.00
77.3188 860.00
77.384 886.00
77.4492 876.00
77.5144 948.00
77.5796 899.00
77.6448 916.00
77.71 944.00
77.7752 947.00
77.8404 970.00
77.9056 959.00
77.9708 933.00
78.036 1027.00
78.1012 957.00
78.1664 945.00
78.2316 976.00
78.2968 911.00
78.362 930.00
78.4272 882.00
78.4924 879.00
78.5576 815.00
78.6228 885.00
78.688 915.00
78.7532 894.00
78.8184 963.00
78.8836 963.00
78.9488 897.00
79.014 904.00
79.0792 911.00
79.1444 917.00
79.2096 889.00
79.2748 905.00
79.34 895.00
79.4052 907.00
79.4704 887.00
79.5356 969.00
79.6008 1077.00
79.666 1149.00
79.7312 1021.00
79.7964 901.00
79.8616 923.00
79.9268 853.00
79.992 841.00
80.0572 850.00
80.1224 828.00
80.1876 831.00
80.2528 871.00
80.318 822.00
80.3832 844.00
80.4484 835.00
80.5136 772.00
80.5788 812.00
80.644 737.00
80.7092 795.00
80.7744 769.00
80.8396 818.00
80.9048 789.00
80.9699 866.00
81.0351 761.00
81.1003 772.00
81.1655 832.00
81.2307 805.00
81.2959 865.00
81.3611 816.00
81.4263 757.00
81.4915 808.00
81.5567 843.00
81.6219 807.00
81.6871 785.00
81.7523 775.00
81.8175 835.00
81.8827 862.00
81.9479 845.00
82.0131 880.00
82.0783 951.00
82.1435 966.00
82.2087 1040.00
82.2739 1052.00
82.3391 1059.00
82.4043 1007.00
82.4695 967.00
82.5347 937.00
82.5999 970.00
82.6651 850.00
82.7303 825.00
82.7955 857.00
82.8607 867.00
82.9259 879.00
82.9911 820.00
83.0563 871.00
83.1215 934.00
83.1867 955.00
83.2519 1008.00
83.3171 993.00
83.3823 925.00
83.4475 1021.00
83.5127 955.00
83.5779 1017.00
83.6431 946.00
83.7083 1034.00
83.7735 1084.00
83.8387 1103.00
83.9039 1008.00
83.9691 1038.00
84.0343 1069.00
84.0995 1094.00
84.1647 1027.00
84.2299 942.00
84.2951 965.00
84.3603 962.00
84.4255 901.00
84.4907 991.00
84.5559 1058.00
84.6211 1149.00
84.6863 1177.00
84.7515 1240.00
84.8167 1191.00
84.8819 1170.00
84.9471 1176.00
85.0123 1102.00
85.0775 963.00
85.1427 948.00
85.2079 896.00
85.2731 889.00
85.3383 867.00
85.4035 858.00
85.4687 867.00
85.5339 898.00
85.5991 931.00
85.6643 1024.00
85.7295 954.00
85.7946 894.00
85.8598 887.00
85.925 908.00
85.9903 864.00
86.0554 854.00
86.1206 787.00
86.1858 848.00
86.251 846.00
86.3162 777.00
86.3814 747.00
86.4466 816.00
86.5118 789.00
86.577 777.00
86.6422 777.00
86.7074 862.00
86.7726 913.00
86.8378 982.00
86.903 915.00
86.9682 942.00
87.0334 900.00
87.0986 904.00
87.1638 872.00
87.229 858.00
87.2942 770.00
87.3594 755.00
87.4246 743.00
87.4898 783.00
87.555 796.00
87.6202 813.00
87.6854 822.00
87.7506 790.00
87.8158 785.00
87.881 769.00
87.9462 821.00
88.0114 891.00
88.0766 856.00
88.1418 928.00
88.207 941.00
88.2722 1012.00
88.3374 1007.00
88.4026 972.00
88.4678 971.00
88.533 922.00
88.5982 926.00
88.6634 945.00
88.7286 965.00
88.7938 977.00
88.859 954.00
88.9242 1028.00
88.9894 1065.00
89.0546 1159.00
89.1198 1070.00
89.185 1163.00
89.2502 1114.00
89.3154 1124.00
89.3806 1103.00
89.4458 1042.00
89.511 1032.00
89.5762 1010.00
89.6414 968.00
89.7066 916.00
89.7718 920.00
89.837 896.00
89.9022 881.00
89.9674 876.00
90.0326 925.00
90.0978 892.00
90.163 990.00
90.2282 952.00
90.2934 971.00
90.3586 973.00
90.4238 1049.00
90.489 1124.00
90.5542 1136.00
90.6193 1053.00
90.6845 1104.00
90.7497 1012.00
90.8149 1074.00
90.8801 946.00
90.9453 952.00
91.0105 923.00
91.0757 842.00
91.1409 886.00
91.2061 793.00
91.2713 769.00
91.3365 788.00
91.4017 886.00
91.4669 846.00
91.5321 870.00
91.5973 767.00
91.6625 840.00
91.7277 781.00
91.7929 858.00
91.8581 831.00
91.9233 880.00
91.9885 825.00
92.0537 816.00
92.1189 914.00
92.1841 886.00
92.2493 836.00
92.3145 842.00
92.3797 877.00
92.4449 811.00
92.5101 807.00
92.5753 827.00
92.6405 801.00
92.7057 868.00
92.7709 814.00
92.8361 839.00
92.9013 819.00
92.9665 773.00
93.0317 752.00
93.0969 844.00
93.1621 790.00
93.2273 803.00
93.2925 803.00
93.3577 800.00
93.4229 789.00
93.4881 831.00
93.5533 842.00
93.6185 792.00
93.6837 787.00
93.7489 813.00
93.8141 802.00
93.8793 865.00
93.9445 881.00
94.0097 790.00
94.0749 829.00
94.1401 828.00
94.2053 821.00
94.2705 851.00
94.3357 871.00
94.4009 830.00
94.4661 964.00
94.5313 867.00
94.5965 985.00
94.6617 973.00
94.7269 967.00
94.7921 948.00
94.8573 956.00
94.9225 917.00
94.9877 953.00
95.0529 852.00
95.1181 832.00
95.1833 842.00
95.2485 848.00
95.3137 872.00
95.3789 886.00
95.444 863.00
95.5092 955.00
95.5744 993.00
95.6396 956.00
95.7048 996.00
95.77 977.00
95.8352 988.00
95.9004 1044.00
95.9656 1097.00
96.0308 1029.00
96.096 1112.00
96.1612 1021.00
96.2264 1010.00
96.2916 926.00
96.3568 955.00
96.422 963.00
96.4872 944.00
96.5524 859.00
96.6176 894.00
96.6828 858.00
96.748 897.00
96.8132 997.00
96.8784 1013.00
96.9436 1086.00
97.0088 1107.00
97.074 1096.00
97.1392 1133.00
97.2044 1050.00
97.2696 1177.00
97.3348 1203.00
97.4 1257.00
97.4652 1208.00
97.5304 1293.00
97.5956 1266.00
97.6608 1243.00
97.726 1304.00
97.7912 1278.00
97.8564 1275.00
97.9216 1186.00
97.9868 1096.00
98.052 1039.00
98.1172 1139.00
98.1824 1031.00
98.2476 1007.00
98.3128 971.00
98.378 945.00
98.4432 945.00
98.5084 950.00
98.5736 908.00
98.6388 959.00
98.704 963.00
98.7692 1002.00
98.8344 1085.00
98.8996 1106.00
98.9648 1099.00
99.03 1022.00
99.0952 1052.00
99.1604 1020.00
99.2256 1101.00
99.2908 1126.00
99.356 1034.00
99.4212 1027.00
99.4864 1033.00
99.5516 1097.00
99.6168 1140.00
99.682 1109.00
99.7472 1102.00
99.8124 1060.00
99.8776 1094.00
99.9428 1226.00
100.008 1114.00
100.073 1232.00
100.095 1181.00