File: data/xrd_creation/results/PG_1422-1.xy
10.0094 6348.00
10.0746 6400.00
10.1398 6280.00
10.205 6245.00
10.2702 6337.00
10.3354 6215.00
10.4006 6415.00
10.4658 6277.00
10.531 6379.00
10.5962 6365.00
10.6614 6380.00
10.7266 6317.00
10.7918 6448.00
10.857 6472.00
10.9222 6304.00
10.9874 6448.00
11.0526 6319.00
11.1178 6414.00
11.183 6422.00
11.2482 6306.00
11.3134 6410.00
11.3786 6304.00
11.4438 6474.00
11.509 6285.00
11.5742 6289.00
11.6394 6319.00
11.7046 6264.00
11.7698 6356.00
11.835 6407.00
11.9002 6333.00
11.9654 6306.00
12.0306 6326.00
12.0958 6253.00
12.161 6230.00
12.2262 6317.00
12.2914 6305.00
12.3566 6438.00
12.4218 6454.00
12.487 6275.00
12.5522 6266.00
12.6174 6523.00
12.6826 6224.00
12.7478 6478.00
12.813 6458.00
12.8782 6214.00
12.9434 6435.00
13.0086 6568.00
13.0738 6572.00
13.139 6317.00
13.2042 6436.00
13.2694 6364.00
13.3346 6441.00
13.3998 6370.00
13.465 6433.00
13.5302 6540.00
13.5954 6395.00
13.6606 6357.00
13.7258 6436.00
13.791 6410.00
13.8562 6419.00
13.9214 6382.00
13.9865 6554.00
14.0517 6396.00
14.1169 6405.00
14.1821 6418.00
14.2473 6328.00
14.3125 6482.00
14.3777 6551.00
14.4429 6491.00
14.5081 6458.00
14.5733 6294.00
14.6385 6364.00
14.7037 6457.00
14.7689 6430.00
14.8341 6416.00
14.8993 6353.00
14.9645 6418.00
15.0297 6405.00
15.0949 6524.00
15.1601 6505.00
15.2253 6428.00
15.2905 6325.00
15.3557 6408.00
15.4209 6335.00
15.4861 6490.00
15.5513 6367.00
15.6165 6465.00
15.6817 6485.00
15.7469 6521.00
15.8121 6488.00
15.8773 6377.00
15.9425 6547.00
16.0077 6486.00
16.0729 6468.00
16.1381 6367.00
16.2033 6492.00
16.2685 6425.00
16.3337 6500.00
16.3989 6511.00
16.4641 6386.00
16.5293 6422.00
16.5945 6429.00
16.6597 6382.00
16.7249 6371.00
16.7901 6464.00
16.8553 6349.00
16.9205 6365.00
16.9857 6452.00
17.0509 6398.00
17.1161 6447.00
17.1813 6432.00
17.2465 6521.00
17.3117 6491.00
17.3769 6708.00
17.4421 6581.00
17.5073 6482.00
17.5725 6617.00
17.6377 6532.00
17.7029 6623.00
17.7681 6564.00
17.8333 6568.00
17.8985 6614.00
17.9637 6749.00
18.0289 6669.00
18.0941 6567.00
18.1593 6748.00
18.2245 6707.00
18.2897 6857.00
18.3549 7090.00
18.4201 7153.00
18.4853 7231.00
18.5505 7563.00
18.6157 8329.00
18.6809 9008.00
18.7461 10595.00
18.8112 11862.00
18.8764 12115.00
18.9416 10238.00
19.0068 8791.00
19.072 8600.00
19.1372 9385.00
19.2024 9879.00
19.2676 9980.00
19.3328 8636.00
19.398 7527.00
19.4632 6946.00
19.5284 6670.00
19.5936 6694.00
19.6588 6498.00
19.724 6579.00
19.7892 6599.00
19.8544 6500.00
19.9196 6534.00
19.9848 6619.00
20.05 6647.00
20.1152 6547.00
20.1804 6615.00
20.2456 6690.00
20.3108 6527.00
20.376 6538.00
20.4412 6530.00
20.5064 6415.00
20.5716 6580.00
20.6368 6435.00
20.702 6544.00
20.7672 6359.00
20.8324 6524.00
20.8976 6602.00
20.9628 6366.00
21.028 6487.00
21.0932 6309.00
21.1584 6430.00
21.2236 6417.00
21.2888 6502.00
21.354 6462.00
21.4192 6573.00
21.4844 6526.00
21.5496 6610.00
21.6148 6728.00
21.68 6989.00
21.7452 6912.00
21.8104 6433.00
21.8756 6485.00
21.9408 6376.00
22.006 6273.00
22.0712 6315.00
22.1364 6415.00
22.2016 6497.00
22.2668 6466.00
22.332 6391.00
22.3972 6297.00
22.4624 6406.00
22.5276 6263.00
22.5928 6376.00
22.658 6510.00
22.7232 6556.00
22.7884 6379.00
22.8536 6455.00
22.9188 6714.00
22.984 6533.00
23.0492 6621.00
23.1144 6791.00
23.1796 7003.00
23.2448 7511.00
23.31 7940.00
23.3752 7318.00
23.4404 6821.00
23.5056 6640.00
23.5708 6507.00
23.6359 6683.00
23.7011 6466.00
23.7663 6669.00
23.8315 6547.00
23.8967 6705.00
23.9619 6629.00
24.0271 6531.00
24.0923 6530.00
24.1575 6493.00
24.2227 6499.00
24.2879 6555.00
24.3531 6435.00
24.4183 6347.00
24.4835 6497.00
24.5487 6601.00
24.6139 6671.00
24.6791 6577.00
24.7443 6582.00
24.8095 6705.00
24.8747 7075.00
24.9399 7325.00
25.0051 7257.00
25.0703 7704.00
25.1355 7798.00
25.2007 7381.00
25.2659 6979.00
25.3311 6555.00
25.3963 6552.00
25.4615 6395.00
25.5267 6332.00
25.5919 6511.00
25.6571 6413.00
25.7223 6326.00
25.7875 6316.00
25.8527 6244.00
25.9179 6269.00
25.9831 6170.00
26.0483 6230.00
26.1135 6222.00
26.1787 6084.00
26.2439 6339.00
26.3091 6121.00
26.3743 6273.00
26.4395 6235.00
26.5047 6307.00
26.5699 6179.00
26.6351 6270.00
26.7003 6234.00
26.7655 6286.00
26.8307 6369.00
26.8959 6116.00
26.9611 6150.00
27.0263 6207.00
27.0915 6329.00
27.1567 6244.00
27.2219 6121.00
27.2871 6193.00
27.3523 6348.00
27.4175 6172.00
27.4827 6149.00
27.5479 6362.00
27.6131 6236.00
27.6783 6263.00
27.7435 6111.00
27.8087 6097.00
27.8739 6249.00
27.9391 6242.00
28.0043 6304.00
28.0695 6202.00
28.1347 6290.00
28.1999 6237.00
28.2651 6401.00
28.3303 6476.00
28.3955 6295.00
28.4606 6329.00
28.5258 6300.00
28.591 6377.00
28.6562 6261.00
28.7214 6264.00
28.7866 6282.00
28.8518 6237.00
28.917 6227.00
28.9822 6181.00
29.0474 6262.00
29.1126 6209.00
29.1778 6191.00
29.243 6362.00
29.3082 6240.00
29.3734 6424.00
29.4386 6457.00
29.5038 6459.00
29.569 6539.00
29.6342 6444.00
29.6994 6618.00
29.7646 6824.00
29.8298 7035.00
29.895 6952.00
29.9602 7389.00
30.0254 7971.00
30.0906 8317.00
30.1558 8171.00
30.221 7597.00
30.2862 7129.00
30.3514 6637.00
30.4166 6574.00
30.4818 6416.00
30.547 6249.00
30.6122 6216.00
30.6774 6270.00
30.7426 6241.00
30.8078 6324.00
30.873 6378.00
30.9382 6782.00
31.0034 6743.00
31.0686 6402.00
31.1338 6204.00
31.199 6123.00
31.2642 6283.00
31.3294 6183.00
31.3946 6232.00
31.4598 6151.00
31.525 6100.00
31.5902 6199.00
31.6554 6231.00
31.7206 6010.00
31.7858 6080.00
31.851 6171.00
31.9162 6259.00
31.9814 6429.00
32.0466 6657.00
32.1118 6939.00
32.177 6715.00
32.2422 6534.00
32.3074 6347.00
32.3726 6138.00
32.4378 6292.00
32.503 6258.00
32.5682 6242.00
32.6334 6419.00
32.6986 6257.00
32.7638 6313.00
32.829 6116.00
32.8942 6226.00
32.9594 6087.00
33.0246 6158.00
33.0898 6167.00
33.1549 6145.00
33.2201 6325.00
33.2853 6139.00
33.3505 6129.00
33.4157 6131.00
33.4809 6092.00
33.5461 6289.00
33.6113 6296.00
33.6765 6272.00
33.7417 6209.00
33.8069 6336.00
33.8721 6499.00
33.9373 6511.00
34.0025 6790.00
34.0677 7324.00
34.1329 8006.00
34.1981 7579.00
34.2633 7307.00
34.3285 7217.00
34.3937 7075.00
34.4589 7078.00
34.5241 7111.00
34.5893 7256.00
34.6545 7475.00
34.7197 7208.00
34.7849 6737.00
34.8501 6408.00
34.9153 6403.00
34.9805 6332.00
35.0457 6119.00
35.1109 6314.00
35.1761 6320.00
35.2413 6291.00
35.3065 6327.00
35.3717 6238.00
35.4369 6111.00
35.5021 6193.00
35.5673 6036.00
35.6325 6194.00
35.6977 6211.00
35.7629 6125.00
35.8281 5991.00
35.8933 6222.00
35.9585 6193.00
36.0237 6062.00
36.0889 6181.00
36.1541 6137.00
36.2193 6055.00
36.2845 6280.00
36.3497 6212.00
36.4149 6205.00
36.4801 6260.00
36.5453 6357.00
36.6105 6184.00
36.6757 6047.00
36.7409 6149.00
36.8061 6116.00
36.8713 6029.00
36.9365 6271.00
37.0017 6115.00
37.0669 6103.00
37.1321 6003.00
37.1973 6131.00
37.2625 6331.00
37.3277 6425.00
37.3929 6378.00
37.4581 6225.00
37.5233 6228.00
37.5885 6156.00
37.6537 6153.00
37.7189 6026.00
37.7841 6241.00
37.8493 6222.00
37.9145 6213.00
37.9796 6327.00
38.0448 6202.00
38.11 6188.00
38.1752 6195.00
38.2404 6123.00
38.3056 6082.00
38.3708 6246.00
38.436 6081.00
38.5012 6101.00
38.5664 6277.00
38.6316 6156.00
38.6968 5973.00
38.762 6156.00
38.8272 6135.00
38.8924 5984.00
38.9576 5979.00
39.0228 6073.00
39.088 5999.00
39.1532 6054.00
39.2184 5907.00
39.2836 6003.00
39.3488 6128.00
39.414 6034.00
39.4792 6050.00
39.5444 6003.00
39.6096 6148.00
39.6748 6086.00
39.74 6135.00
39.8052 6118.00
39.8704 6188.00
39.9356 6202.00
40.0008 6120.00
40.066 6276.00
40.1312 6280.00
40.1964 6404.00
40.2616 6886.00
40.3268 6756.00
40.392 6418.00
40.4572 6160.00
40.5224 6136.00
40.5876 6181.00
40.6528 6024.00
40.718 6020.00
40.7832 6119.00
40.8484 6265.00
40.9136 6211.00
40.9788 6139.00
41.044 6170.00
41.1092 6129.00
41.1744 5969.00
41.2396 6146.00
41.3048 6106.00
41.37 6109.00
41.4352 6163.00
41.5004 6009.00
41.5656 6194.00
41.6308 6038.00
41.696 6211.00
41.7612 6157.00
41.8264 6197.00
41.8916 6021.00
41.9568 6040.00
42.022 6174.00
42.0872 5908.00
42.1524 6137.00
42.2176 6058.00
42.2828 6022.00
42.348 6072.00
42.4132 6120.00
42.4784 5986.00
42.5436 6047.00
42.6088 5987.00
42.6739 6104.00
42.7392 6052.00
42.8043 6292.00
42.8695 6496.00
42.9347 6376.00
42.9999 6365.00
43.0651 6332.00
43.1303 6229.00
43.1955 6324.00
43.2607 6305.00
43.3259 6394.00
43.3911 6298.00
43.4563 6279.00
43.5215 5983.00
43.5867 5966.00
43.6519 6103.00
43.7171 5986.00
43.7823 6103.00
43.8475 5917.00
43.9127 5965.00
43.9779 5900.00
44.0431 5945.00
44.1083 5907.00
44.1735 6001.00
44.2387 6128.00
44.3039 6022.00
44.3691 6026.00
44.4343 5843.00
44.4995 6090.00
44.5647 6098.00
44.6299 6070.00
44.6951 6396.00
44.7603 6283.00
44.8255 6387.00
44.8907 6298.00
44.9559 6232.00
45.0211 6201.00
45.0863 6523.00
45.1515 6513.00
45.2167 6604.00
45.2819 6405.00
45.3471 6378.00
45.4123 6303.00
45.4775 6094.00
45.5427 6078.00
45.6079 5995.00
45.6731 6021.00
45.7383 6072.00
45.8035 6011.00
45.8687 6037.00
45.9339 6053.00
45.9991 6047.00
46.0643 6076.00
46.1295 6050.00
46.1947 6234.00
46.2599 6045.00
46.3251 6052.00
46.3903 6095.00
46.4555 6152.00
46.5207 6082.00
46.5859 6334.00
46.6511 6281.00
46.7163 6161.00
46.7815 6167.00
46.8467 6230.00
46.9119 6326.00
46.9771 6299.00
47.0423 6202.00
47.1075 6325.00
47.1727 6350.00
47.2379 6286.00
47.3031 6258.00
47.3683 6311.00
47.4335 6358.00
47.4986 6234.00
47.5639 6143.00
47.629 6207.00
47.6942 6205.00
47.7594 6088.00
47.8246 5955.00
47.8898 5917.00
47.955 5966.00
48.0202 5878.00
48.0854 5953.00
48.1506 6056.00
48.2158 6082.00
48.281 6360.00
48.3462 6563.00
48.4114 6760.00
48.4766 6632.00
48.5418 6484.00
48.607 6164.00
48.6722 6102.00
48.7374 6047.00
48.8026 5994.00
48.8678 5988.00
48.933 5975.00
48.9982 5998.00
49.0634 6156.00
49.1286 6007.00
49.1938 5965.00
49.259 5987.00
49.3242 6092.00
49.3894 6007.00
49.4546 5965.00
49.5198 5931.00
49.585 6209.00
49.6502 6146.00
49.7154 6125.00
49.7806 5946.00
49.8458 6085.00
49.911 6111.00
49.9762 6050.00
50.0414 5995.00
50.1066 5966.00
50.1718 6108.00
50.237 5977.00
50.3022 6007.00
50.3674 6116.00
50.4326 6485.00
50.4978 6781.00
50.563 6743.00
50.6282 6758.00
50.6934 6506.00
50.7586 6497.00
50.8238 6291.00
50.889 6077.00
50.9542 6186.00
51.0194 6142.00
51.0846 6097.00
51.1498 6152.00
51.215 6208.00
51.2802 6130.00
51.3454 6016.00
51.4106 6040.00
51.4758 6072.00
51.541 5953.00
51.6062 6032.00
51.6714 6026.00
51.7366 6020.00
51.8018 5974.00
51.867 6015.00
51.9322 5757.00
51.9974 5835.00
52.0626 5949.00
52.1278 5870.00
52.193 5888.00
52.2582 6008.00
52.3233 5904.00
52.3886 5956.00
52.4537 5957.00
52.5189 5798.00
52.5841 6042.00
52.6493 5790.00
52.7145 5931.00
52.7797 5794.00
52.8449 5913.00
52.9101 5907.00
52.9753 5956.00
53.0405 5973.00
53.1057 6012.00
53.1709 5801.00
53.2361 5945.00
53.3013 5970.00
53.3665 6082.00
53.4317 6086.00
53.4969 5852.00
53.5621 6003.00
53.6273 5920.00
53.6925 5879.00
53.7577 5923.00
53.8229 5932.00
53.8881 5988.00
53.9533 5991.00
54.0185 5871.00
54.0837 5895.00
54.1489 5948.00
54.2141 5986.00
54.2793 5953.00
54.3445 6093.00
54.4097 5886.00
54.4749 5883.00
54.5401 5958.00
54.6053 5851.00
54.6705 5953.00
54.7357 6065.00
54.8009 5842.00
54.8661 5885.00
54.9313 6049.00
54.9965 5883.00
55.0617 5869.00
55.1269 5915.00
55.1921 6114.00
55.2573 6185.00
55.3225 6098.00
55.3877 6030.00
55.4529 5893.00
55.5181 5991.00
55.5833 5949.00
55.6485 5938.00
55.7137 5901.00
55.7789 5979.00
55.8441 6019.00
55.9093 6007.00
55.9745 5866.00
56.0397 5990.00
56.1049 5849.00
56.1701 5971.00
56.2353 5898.00
56.3005 5958.00
56.3657 5948.00
56.4309 6063.00
56.4961 6153.00
56.5613 6244.00
56.6265 6042.00
56.6917 6161.00
56.7569 6012.00
56.8221 6059.00
56.8873 5942.00
56.9525 6020.00
57.0177 5902.00
57.0829 6039.00
57.148 6045.00
57.2132 5978.00
57.2784 6098.00
57.3436 6195.00
57.4088 5989.00
57.474 6084.00
57.5392 5992.00
57.6044 6038.00
57.6696 5919.00
57.7348 6013.00
57.8 5946.00
57.8652 5957.00
57.9304 5927.00
57.9956 5950.00
58.0608 6182.00
58.126 6081.00
58.1912 6257.00
58.2564 5909.00
58.3216 6176.00
58.3868 6083.00
58.452 6094.00
58.5172 6304.00
58.5824 6197.00
58.6476 6034.00
58.7128 6010.00
58.778 6079.00
58.8432 5995.00
58.9084 6093.00
58.9736 6004.00
59.0388 6009.00
59.104 5963.00
59.1692 5938.00
59.2344 6073.00
59.2996 5850.00
59.3648 5816.00
59.43 6079.00
59.4952 6000.00
59.5604 6078.00
59.6256 6010.00
59.6908 6082.00
59.756 5955.00
59.8212 5972.00
59.8864 5951.00
59.9516 6174.00
60.0168 6094.00
60.082 6096.00
60.1472 6134.00
60.2124 6141.00
60.2776 6000.00
60.3428 5889.00
60.408 5983.00
60.4732 5916.00
60.5384 5957.00
60.6036 5943.00
60.6688 5979.00
60.734 5846.00
60.7992 6100.00
60.8644 5974.00
60.9296 5948.00
60.9948 5864.00
61.06 5942.00
61.1252 5932.00
61.1904 5802.00
61.2556 5909.00
61.3208 5924.00
61.386 5912.00
61.4512 5975.00
61.5164 6007.00
61.5816 5993.00
61.6468 6135.00
61.712 6291.00
61.7772 6279.00
61.8424 6084.00
61.9076 6028.00
61.9727 5985.00
62.0379 6059.00
62.1031 6082.00
62.1683 6089.00
62.2335 6060.00
62.2987 5926.00
62.3639 6219.00
62.4291 6078.00
62.4943 6002.00
62.5595 6070.00
62.6247 5925.00
62.6899 6183.00
62.7551 5974.00
62.8203 5952.00
62.8855 5973.00
62.9507 5988.00
63.0159 5832.00
63.0811 6038.00
63.1463 5915.00
63.2115 5832.00
63.2767 5665.00
63.3419 5886.00
63.4071 5901.00
63.4723 5975.00
63.5375 5941.00
63.6027 5939.00
63.6679 5842.00
63.7331 5931.00
63.7983 5993.00
63.8635 5938.00
63.9287 6154.00
63.9939 6072.00
64.0591 5972.00
64.1243 6106.00
64.1895 5927.00
64.2547 6001.00
64.3199 5845.00
64.3851 6019.00
64.4503 6002.00
64.5155 5997.00
64.5807 5810.00
64.6459 5794.00
64.7111 5862.00
64.7763 5812.00
64.8415 5850.00
64.9067 5941.00
64.9719 5923.00
65.0371 5995.00
65.1023 6025.00
65.1675 5823.00
65.2327 5831.00
65.2979 5930.00
65.3631 5827.00
65.4283 5966.00
65.4935 5968.00
65.5587 5900.00
65.6239 5875.00
65.6891 5887.00
65.7543 5904.00
65.8195 5861.00
65.8847 5823.00
65.9499 5944.00
66.0151 5772.00
66.0803 5803.00
66.1455 5650.00
66.2107 5888.00
66.2759 6050.00
66.3411 5982.00
66.4063 5940.00
66.4715 5823.00
66.5367 5859.00
66.6019 5996.00
66.6671 5962.00
66.7322 5895.00
66.7974 5840.00
66.8626 6022.00
66.9278 5788.00
66.993 5938.00
67.0582 5809.00
67.1234 5905.00
67.1886 6028.00
67.2538 5875.00
67.319 5845.00
67.3842 5748.00
67.4494 5911.00
67.5146 5784.00
67.5798 5843.00
67.645 5872.00
67.7102 5882.00
67.7754 5930.00
67.8406 5856.00
67.9058 5863.00
67.971 5817.00
68.0362 5794.00
68.1014 5828.00
68.1666 5920.00
68.2318 5873.00
68.297 5856.00
68.3622 5804.00
68.4274 5894.00
68.4926 5882.00
68.5578 5898.00
68.623 5931.00
68.6882 5780.00
68.7534 5901.00
68.8186 6004.00
68.8838 5969.00
68.949 5930.00
69.0142 5900.00
69.0794 5988.00
69.1446 6035.00
69.2098 5841.00
69.275 6023.00
69.3402 5861.00
69.4054 5985.00
69.4706 5960.00
69.5358 5814.00
69.601 6032.00
69.6662 5902.00
69.7314 5853.00
69.7966 5824.00
69.8618 5887.00
69.927 5897.00
69.9922 5799.00
70.0574 5875.00
70.1226 5826.00
70.1878 5838.00
70.253 5803.00
70.3182 5764.00
70.3834 5915.00
70.4486 5844.00
70.5138 5947.00
70.579 5932.00
70.6442 5975.00
70.7094 5848.00
70.7746 6007.00
70.8398 5936.00
70.905 5921.00
70.9702 6015.00
71.0354 5989.00
71.1006 6030.00
71.1658 5954.00
71.231 5823.00
71.2962 6006.00
71.3614 5897.00
71.4266 5805.00
71.4918 5933.00
71.5569 5806.00
71.6221 5886.00
71.6873 5942.00
71.7525 5729.00
71.8177 5915.00
71.8829 5988.00
71.9481 5890.00
72.0133 5729.00
72.0785 5840.00
72.1437 5829.00
72.2089 6016.00
72.2741 5761.00
72.3393 5905.00
72.4045 5920.00
72.4697 5802.00
72.5349 5891.00
72.6001 5837.00
72.6653 5814.00
72.7305 5878.00
72.7957 5899.00
72.8609 5907.00
72.9261 5861.00
72.9913 5864.00
73.0565 5956.00
73.1217 5803.00
73.1869 5934.00
73.2521 5750.00
73.3173 5916.00
73.3825 5752.00
73.4477 5795.00
73.5129 5979.00
73.5781 5926.00
73.6433 5751.00
73.7085 5944.00
73.7737 5927.00
73.8389 5841.00
73.9041 5782.00
73.9693 5937.00
74.0345 5737.00
74.0997 6010.00
74.1649 5846.00
74.2301 5798.00
74.2953 5830.00
74.3605 5890.00
74.4257 5690.00
74.4909 5813.00
74.5561 5883.00
74.6213 5862.00
74.6865 5904.00
74.7517 5971.00
74.8169 5807.00
74.8821 5860.00
74.9473 5729.00
75.0125 5800.00
75.0777 5907.00
75.1429 5833.00
75.2081 5939.00
75.2733 5926.00
75.3385 5948.00
75.4037 5724.00
75.4689 5951.00
75.5341 5774.00
75.5993 5842.00
75.6645 5845.00
75.7297 5794.00
75.7949 5874.00
75.8601 5939.00
75.9253 5804.00
75.9905 5824.00
76.0557 5783.00
76.1209 5983.00
76.186 5904.00
76.2513 5833.00
76.3165 5944.00
76.3816 5849.00
76.4468 6031.00
76.512 5893.00
76.5772 5789.00
76.6424 5833.00
76.7076 5922.00
76.7728 5832.00
76.838 5870.00
76.9032 5879.00
76.9684 5797.00
77.0336 5908.00
77.0988 5804.00
77.164 5886.00
77.2292 5932.00
77.2944 5777.00
77.3596 5769.00
77.4248 5909.00
77.49 5844.00
77.5552 5797.00
77.6204 5839.00
77.6856 5878.00
77.7508 5824.00
77.816 5835.00
77.8812 5907.00
77.9464 5842.00
78.0116 5713.00
78.0768 5754.00
78.142 5873.00
78.2072 5803.00
78.2724 5679.00
78.3376 5899.00
78.4028 5799.00
78.468 5798.00
78.5332 5836.00
78.5984 5859.00
78.6636 5782.00
78.7288 5710.00
78.794 5740.00
78.8592 5735.00
78.9244 5787.00
78.9896 5747.00
79.0548 5816.00
79.12 5945.00
79.1852 5702.00
79.2504 5827.00
79.3156 5806.00
79.3808 5820.00
79.446 5861.00
79.5112 5923.00
79.5764 5983.00
79.6416 5766.00
79.7068 5858.00
79.772 5863.00
79.8372 5871.00
79.9024 5892.00
79.9676 5986.00
80.0328 5813.00
80.098 5826.00
80.1632 5845.00
80.2284 6007.00
80.2936 5958.00
80.3588 5708.00
80.424 5926.00
80.4892 5931.00
80.5544 5711.00
80.6196 5740.00
80.6848 5737.00
80.75 5659.00
80.8152 5789.00
80.8804 5845.00
80.9456 5772.00
81.0108 5905.00
81.076 5724.00
81.1412 5742.00
81.2063 5842.00
81.2715 5786.00
81.3367 5837.00
81.4019 5927.00
81.4671 5869.00
81.5323 5855.00
81.5975 5810.00
81.6627 5771.00
81.7279 5768.00
81.7931 5808.00
81.8583 5785.00
81.9235 5786.00
81.9887 5829.00
82.0539 5792.00
82.1191 5860.00
82.1843 5877.00
82.2495 5885.00
82.3147 5794.00
82.3799 5690.00
82.4451 5748.00
82.5103 5833.00
82.5755 5881.00
82.6407 5729.00
82.7059 5815.00
82.7711 5765.00
82.8363 5758.00
82.9015 5717.00
82.9667 5856.00
83.0319 5881.00
83.0971 5807.00
83.1623 5806.00
83.2275 5718.00
83.2927 5807.00
83.3579 5813.00
83.4231 5809.00
83.4883 5690.00
83.5535 5769.00
83.6187 5699.00
83.6839 5863.00
83.7491 5841.00
83.8143 5839.00
83.8795 5659.00
83.9447 5629.00
84.0099 5877.00
84.0751 5753.00
84.1403 5851.00
84.2055 5768.00
84.2707 5739.00
84.3359 5711.00
84.4011 5891.00
84.4663 5757.00
84.5315 5815.00
84.5967 5868.00
84.6619 5807.00
84.7271 5831.00
84.7923 5697.00
84.8575 5794.00
84.9227 5771.00
84.9879 5856.00
85.0531 5902.00
85.1183 5837.00
85.1835 5726.00
85.2487 5832.00
85.3139 5849.00
85.3791 5898.00
85.4443 5773.00
85.5095 5824.00
85.5747 5739.00
85.6399 5715.00
85.7051 5817.00
85.7703 5767.00
85.8354 5789.00
85.9006 5738.00
85.9659 5805.00
86.031 5806.00
86.0962 5826.00
86.1614 5758.00
86.2266 5886.00
86.2918 5730.00
86.357 5798.00
86.4222 5787.00
86.4874 5866.00
86.5526 5670.00
86.6178 5781.00
86.683 5734.00
86.7482 5710.00
86.8134 5855.00
86.8786 5738.00
86.9438 5907.00
87.009 5741.00
87.0742 5881.00
87.1394 5781.00
87.2046 5825.00
87.2698 5873.00
87.335 5830.00
87.4002 5864.00
87.4654 5700.00
87.5306 5954.00
87.5958 5709.00
87.661 5779.00
87.7262 5780.00
87.7914 5861.00
87.8566 5820.00
87.9218 5763.00
87.987 5764.00
88.0522 5733.00
88.1174 5922.00
88.1826 5919.00
88.2478 5849.00
88.313 5833.00
88.3782 5796.00
88.4434 5990.00
88.5086 5783.00
88.5738 5831.00
88.639 5830.00
88.7042 5821.00
88.7694 5773.00
88.8346 5715.00
88.8998 5813.00
88.965 5792.00
89.0302 5735.00
89.0954 5750.00
89.1606 5734.00
89.2258 5814.00
89.291 5771.00
89.3562 5929.00
89.4214 5730.00
89.4866 5715.00
89.5518 5817.00
89.617 5664.00
89.6822 5701.00
89.7474 5763.00
89.8126 5880.00
89.8778 5814.00
89.943 5737.00
90.0082 5725.00
90.0734 5758.00
90.1386 5746.00
90.2038 5815.00
90.269 5640.00
90.3342 5704.00
90.3994 5884.00
90.4646 5818.00
90.5298 5797.00
90.595 5756.00
90.6601 5790.00
90.7253 5720.00
90.7905 5766.00
90.8557 5679.00
90.9209 5882.00
90.9861 6041.00
91.0513 5825.00
91.1165 5839.00
91.1817 5865.00
91.2469 5827.00
91.3121 5853.00
91.3773 5753.00
91.4425 5799.00
91.5077 5844.00
91.5729 5840.00
91.6381 5784.00
91.7033 5790.00
91.7685 5701.00
91.8337 5884.00
91.8989 5795.00
91.9641 5845.00
92.0293 5758.00
92.0945 5848.00
92.1597 5946.00
92.2249 5739.00
92.2901 5880.00
92.3553 5895.00
92.4205 5828.00
92.4857 5854.00
92.5509 5826.00
92.6161 5720.00
92.6813 5796.00
92.7465 5748.00
92.8117 5741.00
92.8769 5780.00
92.9421 5829.00
93.0073 5880.00
93.0725 5821.00
93.1377 5714.00
93.2029 5877.00
93.2681 5844.00
93.3333 5776.00
93.3985 5874.00
93.4637 5748.00
93.5289 5638.00
93.5941 5773.00
93.6593 5758.00
93.7245 5709.00
93.7897 5796.00
93.8549 5706.00
93.9201 5788.00
93.9853 5858.00
94.0505 5904.00
94.1157 5820.00
94.1809 5839.00
94.2461 5813.00
94.3113 5806.00
94.3765 5936.00
94.4417 5687.00
94.5069 5732.00
94.5721 5709.00
94.6373 5835.00
94.7025 5790.00
94.7677 5742.00
94.8329 5864.00
94.8981 5685.00
94.9633 5800.00
95.0285 5756.00
95.0937 5758.00
95.1589 5789.00
95.2241 5788.00
95.2893 5741.00
95.3545 5706.00
95.4197 5748.00
95.4848 5892.00
95.55 5751.00
95.6153 5856.00
95.6804 5672.00
95.7456 5700.00
95.8108 5966.00
95.876 5693.00
95.9412 5829.00
96.0064 5855.00
96.0716 5897.00
96.1368 5805.00
96.202 5888.00
96.2672 5787.00
96.3324 5868.00
96.3976 5755.00
96.4628 5888.00
96.528 5799.00
96.5932 5645.00
96.6584 5621.00
96.7236 5815.00
96.7888 5813.00
96.854 5817.00
96.9192 5906.00
96.9844 5791.00
97.0496 5699.00
97.1148 5708.00
97.18 5686.00
97.2452 5709.00
97.3104 5795.00
97.3756 5773.00
97.4408 5623.00
97.506 5912.00
97.5712 5861.00
97.6364 5716.00
97.7016 5909.00
97.7668 5822.00
97.832 5701.00
97.8972 5868.00
97.9624 5846.00
98.0276 5810.00
98.0928 5866.00
98.158 5949.00
98.2232 5884.00
98.2884 5731.00
98.3536 5912.00
98.4188 5857.00
98.484 5783.00
98.5492 5722.00
98.6144 5881.00
98.6796 5896.00
98.7448 5642.00
98.81 5859.00
98.8752 5822.00
98.9404 5793.00
99.0056 5763.00
99.0708 5775.00
99.136 5782.00
99.2012 5955.00
99.2664 5826.00
99.3316 5921.00
99.3968 5802.00
99.462 5748.00
99.5272 5867.00
99.5924 5784.00
99.6576 5978.00
99.7228 5799.00
99.788 5900.00
99.8532 5788.00
99.9184 5945.00
99.9836 5867.00
99.9944 5811.00