File: data/xrd_creation/results/PG_1939-1.xy
9.903433 3040.00
9.968632 2900.00
10.0338 2869.00
10.099 2970.00
10.1642 2942.00
10.2294 2966.00
10.2946 2916.00
10.3598 2920.00
10.425 2864.00
10.4902 2906.00
10.5554 2887.00
10.6206 3024.00
10.6858 2867.00
10.751 2798.00
10.8162 2864.00
10.8814 2854.00
10.9466 2734.00
11.0118 2838.00
11.077 2795.00
11.1422 2672.00
11.2074 2771.00
11.2726 2769.00
11.3378 2717.00
11.403 2725.00
11.4682 2706.00
11.5334 2834.00
11.5986 2832.00
11.6638 2786.00
11.729 2644.00
11.7942 2747.00
11.8594 2685.00
11.9246 2645.00
11.9898 2662.00
12.055 2671.00
12.1202 2560.00
12.1854 2599.00
12.2506 2516.00
12.3158 2594.00
12.381 2597.00
12.4462 2628.00
12.5114 2647.00
12.5766 2644.00
12.6418 2611.00
12.707 2798.00
12.7722 2920.00
12.8374 3012.00
12.9026 3016.00
12.9678 2992.00
13.033 2819.00
13.0982 2709.00
13.1634 2515.00
13.2286 2419.00
13.2938 2473.00
13.359 2489.00
13.4242 2512.00
13.4894 2437.00
13.5546 2393.00
13.6198 2340.00
13.685 2321.00
13.7502 2437.00
13.8154 2510.00
13.8805 2404.00
13.9457 2330.00
14.0109 2418.00
14.0761 2465.00
14.1413 2361.00
14.2065 2358.00
14.2717 2368.00
14.3369 2362.00
14.4021 2354.00
14.4673 2440.00
14.5325 2362.00
14.5977 2305.00
14.6629 2326.00
14.7281 2325.00
14.7933 2336.00
14.8585 2336.00
14.9237 2364.00
14.9889 2346.00
15.0541 2244.00
15.1193 2378.00
15.1845 2377.00
15.2497 2263.00
15.3149 2289.00
15.3801 2260.00
15.4453 2238.00
15.5105 2294.00
15.5757 2273.00
15.6409 2275.00
15.7061 2295.00
15.7713 2346.00
15.8365 2257.00
15.9017 2267.00
15.9669 2232.00
16.0321 2259.00
16.0973 2308.00
16.1625 2269.00
16.2277 2295.00
16.2929 2230.00
16.3581 2244.00
16.4233 2191.00
16.4885 2317.00
16.5537 2250.00
16.6189 2264.00
16.6841 2325.00
16.7493 2255.00
16.8145 2175.00
16.8797 2214.00
16.9449 2209.00
17.0101 2217.00
17.0753 2208.00
17.1405 2219.00
17.2057 2257.00
17.2709 2228.00
17.3361 2178.00
17.4013 2196.00
17.4665 2305.00
17.5317 2177.00
17.5969 2270.00
17.6621 2275.00
17.7273 2116.00
17.7925 2168.00
17.8577 2076.00
17.9229 2196.00
17.9881 2139.00
18.0533 2080.00
18.1185 2147.00
18.1837 2203.00
18.2489 2230.00
18.3141 2098.00
18.3793 2176.00
18.4445 2117.00
18.5097 2159.00
18.5749 2148.00
18.6401 2087.00
18.7052 2092.00
18.7704 2118.00
18.8356 2137.00
18.9008 2104.00
18.966 2148.00
19.0312 2145.00
19.0964 2059.00
19.1616 2062.00
19.2268 2117.00
19.292 2174.00
19.3572 2046.00
19.4224 2065.00
19.4876 2122.00
19.5528 2123.00
19.618 2043.00
19.6832 2154.00
19.7484 2095.00
19.8136 2120.00
19.8788 2085.00
19.944 2108.00
20.0092 2049.00
20.0744 2108.00
20.1396 2062.00
20.2048 2011.00
20.27 2056.00
20.3352 2083.00
20.4004 2045.00
20.4656 1948.00
20.5308 1977.00
20.596 2078.00
20.6612 2089.00
20.7264 2057.00
20.7916 2034.00
20.8568 2015.00
20.922 2090.00
20.9872 2007.00
21.0524 2079.00
21.1176 1980.00
21.1828 2074.00
21.248 2048.00
21.3132 2072.00
21.3784 2039.00
21.4436 2075.00
21.5088 2061.00
21.574 2098.00
21.6392 2112.00
21.7044 2075.00
21.7696 2052.00
21.8348 1944.00
21.9 2047.00
21.9652 2069.00
22.0304 1988.00
22.0956 2022.00
22.1608 1961.00
22.226 2047.00
22.2912 1972.00
22.3564 2030.00
22.4216 2047.00
22.4868 1929.00
22.552 2056.00
22.6172 1958.00
22.6824 1977.00
22.7476 2012.00
22.8128 1982.00
22.878 2025.00
22.9432 1991.00
23.0084 2111.00
23.0736 2166.00
23.1388 2225.00
23.204 2133.00
23.2692 2278.00
23.3344 2169.00
23.3996 2117.00
23.4647 2089.00
23.5299 2015.00
23.5951 1976.00
23.6603 2014.00
23.7255 1960.00
23.7907 1953.00
23.8559 1912.00
23.9211 1958.00
23.9863 2004.00
24.0515 2023.00
24.1167 1964.00
24.1819 1923.00
24.2471 1982.00
24.3123 1944.00
24.3775 1975.00
24.4427 1961.00
24.5079 1927.00
24.5731 1954.00
24.6383 1908.00
24.7035 1972.00
24.7687 1920.00
24.8339 1864.00
24.8991 1911.00
24.9643 1895.00
25.0295 1891.00
25.0947 1961.00
25.1599 1933.00
25.2251 1843.00
25.2903 1885.00
25.3555 1967.00
25.4207 1941.00
25.4859 1891.00
25.5511 1930.00
25.6163 1981.00
25.6815 2106.00
25.7467 2242.00
25.8119 2319.00
25.8771 2368.00
25.9423 2286.00
26.0075 2229.00
26.0727 2054.00
26.1379 1948.00
26.2031 1945.00
26.2683 1832.00
26.3335 1884.00
26.3987 1886.00
26.4639 1907.00
26.5291 1915.00
26.5943 2008.00
26.6595 1983.00
26.7247 2075.00
26.7899 1960.00
26.8551 1982.00
26.9203 2024.00
26.9855 2115.00
27.0507 2122.00
27.1159 2064.00
27.1811 1959.00
27.2463 1963.00
27.3115 1898.00
27.3767 1941.00
27.4419 1905.00
27.5071 1883.00
27.5723 1932.00
27.6375 1885.00
27.7027 1855.00
27.7679 1933.00
27.8331 1819.00
27.8983 1895.00
27.9635 1932.00
28.0287 1876.00
28.0939 1897.00
28.1591 1936.00
28.2243 1915.00
28.2894 1919.00
28.3546 1987.00
28.4198 1862.00
28.485 1865.00
28.5502 1863.00
28.6154 2018.00
28.6806 2064.00
28.7458 2097.00
28.811 2086.00
28.8762 1946.00
28.9414 1993.00
29.0066 1991.00
29.0718 1896.00
29.137 1911.00
29.2022 1857.00
29.2674 1807.00
29.3326 1766.00
29.3978 1815.00
29.463 1891.00
29.5282 1940.00
29.5934 2166.00
29.6586 2479.00
29.7238 2669.00
29.789 2982.00
29.8542 3012.00
29.9194 2825.00
29.9846 2591.00
30.0498 2311.00
30.115 2105.00
30.1802 1916.00
30.2454 1914.00
30.3106 1872.00
30.3758 1879.00
30.441 1850.00
30.5062 1916.00
30.5714 2100.00
30.6366 2281.00
30.7018 2624.00
30.767 3177.00
30.8322 3603.00
30.8974 3750.00
30.9626 3541.00
31.0278 3011.00
31.093 2601.00
31.1582 2221.00
31.2234 1991.00
31.2886 2008.00
31.3538 2004.00
31.419 1962.00
31.4842 2024.00
31.5494 2273.00
31.6146 2472.00
31.6798 2895.00
31.745 3131.00
31.8102 3312.00
31.8754 3075.00
31.9406 2760.00
32.0058 2583.00
32.071 2465.00
32.1362 2821.00
32.2014 3290.00
32.2666 3645.00
32.3318 4062.00
32.397 4080.00
32.4622 4099.00
32.5274 3879.00
32.5926 3844.00
32.6578 3790.00
32.723 3993.00
32.7882 3860.00
32.8534 3481.00
32.9186 2806.00
32.9838 2356.00
33.0489 2108.00
33.1141 1940.00
33.1793 1873.00
33.2445 1854.00
33.3097 1847.00
33.3749 1845.00
33.4401 1820.00
33.5053 1846.00
33.5705 1869.00
33.6357 1931.00
33.7009 1929.00
33.7661 1890.00
33.8313 1933.00
33.8965 1868.00
33.9617 1873.00
34.0269 1883.00
34.0921 1842.00
34.1573 1903.00
34.2225 1991.00
34.2877 2053.00
34.3529 2044.00
34.4181 2060.00
34.4833 2002.00
34.5485 1824.00
34.6137 1921.00
34.6789 1823.00
34.7441 1841.00
34.8093 1857.00
34.8745 1863.00
34.9397 1842.00
35.0049 1872.00
35.0701 1866.00
35.1353 1850.00
35.2005 2038.00
35.2657 2061.00
35.3309 2085.00
35.3961 2030.00
35.4613 1938.00
35.5265 1984.00
35.5917 1811.00
35.6569 1781.00
35.7221 1856.00
35.7873 1902.00
35.8525 1831.00
35.9177 1854.00
35.9829 1831.00
36.0481 1973.00
36.1133 2122.00
36.1785 2252.00
36.2437 2336.00
36.3089 2488.00
36.3741 2416.00
36.4393 2269.00
36.5045 2090.00
36.5697 1995.00
36.6349 1876.00
36.7001 1870.00
36.7653 1917.00
36.8305 1906.00
36.8957 1931.00
36.9609 2077.00
37.0261 2042.00
37.0913 2418.00
37.1565 3065.00
37.2217 4035.00
37.2869 5437.00
37.3521 6704.00
37.4173 6969.00
37.4825 6371.00
37.5477 5038.00
37.6129 3713.00
37.6781 2718.00
37.7433 2203.00
37.8085 2093.00
37.8736 2033.00
37.9388 1921.00
38.004 2087.00
38.0692 2125.00
38.1344 2327.00
38.1996 2281.00
38.2648 2265.00
38.33 2157.00
38.3952 2121.00
38.4604 2131.00
38.5256 2168.00
38.5908 2377.00
38.656 2611.00
38.7212 2667.00
38.7864 2654.00
38.8516 2746.00
38.9168 2731.00
38.982 2948.00
39.0472 2767.00
39.1124 2806.00
39.1776 2637.00
39.2428 2555.00
39.308 2377.00
39.3732 2180.00
39.4384 2084.00
39.5036 1975.00
39.5688 1914.00
39.634 1940.00
39.6992 1975.00
39.7644 2165.00
39.8296 2331.00
39.8948 2347.00
39.96 2351.00
40.0252 2249.00
40.0904 2089.00
40.1556 2028.00
40.2208 2011.00
40.286 1976.00
40.3512 1974.00
40.4164 1883.00
40.4816 1987.00
40.5468 2094.00
40.612 2070.00
40.6772 1914.00
40.7424 2038.00
40.8076 1864.00
40.8728 1724.00
40.938 1769.00
41.0032 1802.00
41.0684 1803.00
41.1336 1794.00
41.1988 1866.00
41.264 2083.00
41.3292 2182.00
41.3944 2395.00
41.4596 2506.00
41.5248 2444.00
41.59 2374.00
41.6552 2318.00
41.7204 2204.00
41.7856 2352.00
41.8508 2257.00
41.916 2140.00
41.9812 2006.00
42.0464 2017.00
42.1116 1918.00
42.1768 1892.00
42.242 1789.00
42.3072 1787.00
42.3724 1929.00
42.4376 1912.00
42.5028 1916.00
42.568 1914.00
42.6332 1900.00
42.6983 1943.00
42.7635 1871.00
42.8287 1944.00
42.8939 1945.00
42.9591 1888.00
43.0243 2244.00
43.0895 2501.00
43.1547 3222.00
43.2199 4488.00
43.2851 6683.00
43.3503 8861.00
43.4155 10740.00
43.4807 10759.00
43.5459 8877.00
43.6111 6414.00
43.6763 4385.00
43.7415 3068.00
43.8067 2350.00
43.8719 2151.00
43.9371 1951.00
44.0023 1945.00
44.0675 1945.00
44.1327 1808.00
44.1979 1793.00
44.2631 1856.00
44.3283 1806.00
44.3935 1813.00
44.4587 1839.00
44.5239 1858.00
44.5891 1799.00
44.6543 1725.00
44.7195 1821.00
44.7847 1851.00
44.8499 1904.00
44.9151 1947.00
44.9803 1955.00
45.0455 2028.00
45.1107 1959.00
45.1759 1969.00
45.2411 2070.00
45.3063 1965.00
45.3715 1839.00
45.4367 1755.00
45.5019 1784.00
45.5671 1775.00
45.6323 1734.00
45.6975 1750.00
45.7627 1927.00
45.8279 1783.00
45.8931 1829.00
45.9583 1817.00
46.0235 1871.00
46.0887 1827.00
46.1539 1860.00
46.2191 1862.00
46.2843 1810.00
46.3495 1826.00
46.4147 1862.00
46.4799 1874.00
46.5451 1772.00
46.6103 1835.00
46.6755 1761.00
46.7407 1902.00
46.8059 1878.00
46.8711 1868.00
46.9363 1783.00
47.0015 1745.00
47.0667 1819.00
47.1319 1739.00
47.1971 1803.00
47.2623 1921.00
47.3275 1839.00
47.3927 1934.00
47.4579 1956.00
47.523 1908.00
47.5882 1859.00
47.6534 1833.00
47.7186 1789.00
47.7838 1841.00
47.849 1811.00
47.9142 1956.00
47.9794 1837.00
48.0446 1767.00
48.1098 1766.00
48.175 1751.00
48.2402 1879.00
48.3054 1860.00
48.3706 1821.00
48.4358 1875.00
48.501 1797.00
48.5662 1863.00
48.6314 1832.00
48.6966 1965.00
48.7618 1867.00
48.827 2006.00
48.8922 2001.00
48.9574 1827.00
49.0226 1867.00
49.0878 1772.00
49.153 1775.00
49.2182 1833.00
49.2834 1864.00
49.3486 1885.00
49.4138 2005.00
49.479 2120.00
49.5442 2169.00
49.6094 2116.00
49.6746 2233.00
49.7398 2145.00
49.805 2104.00
49.8702 2061.00
49.9354 1985.00
50.0006 1913.00
50.0658 1888.00
50.131 1901.00
50.1962 1763.00
50.2614 1736.00
50.3266 1711.00
50.3918 1805.00
50.457 1754.00
50.5222 1848.00
50.5874 1826.00
50.6526 1735.00
50.7178 1790.00
50.783 1877.00
50.8482 1956.00
50.9134 1965.00
50.9786 1946.00
51.0438 1956.00
51.109 1859.00
51.1742 1926.00
51.2394 1800.00
51.3046 1856.00
51.3698 1891.00
51.435 1930.00
51.5002 2077.00
51.5654 2110.00
51.6306 2149.00
51.6958 2156.00
51.761 1928.00
51.8262 1965.00
51.8914 1880.00
51.9566 1858.00
52.0218 1834.00
52.087 1929.00
52.1522 1841.00
52.2174 1773.00
52.2826 1833.00
52.3477 1963.00
52.4129 1855.00
52.4781 1914.00
52.5433 1958.00
52.6085 2044.00
52.6737 2025.00
52.7389 1916.00
52.8041 1874.00
52.8693 1872.00
52.9345 1936.00
52.9997 1906.00
53.0649 1889.00
53.1301 1854.00
53.1953 1849.00
53.2605 1832.00
53.3257 1837.00
53.3909 1831.00
53.4561 1830.00
53.5213 1744.00
53.5865 1790.00
53.6517 1799.00
53.7169 1832.00
53.7821 1968.00
53.8473 1835.00
53.9125 1934.00
53.9777 1830.00
54.0429 1790.00
54.1081 1856.00
54.1733 1729.00
54.2385 1770.00
54.3037 1791.00
54.3689 1825.00
54.4341 1769.00
54.4993 1829.00
54.5645 1848.00
54.6297 1826.00
54.6949 1787.00
54.7601 1800.00
54.8253 1728.00
54.8905 1777.00
54.9557 1699.00
55.0209 1695.00
55.0861 1897.00
55.1513 1752.00
55.2165 1785.00
55.2817 1767.00
55.3469 1913.00
55.4121 1901.00
55.4773 1953.00
55.5425 1966.00
55.6077 2028.00
55.6729 1877.00
55.7381 1922.00
55.8033 1839.00
55.8685 1952.00
55.9337 1825.00
55.9989 1851.00
56.0641 1808.00
56.1293 1776.00
56.1945 1749.00
56.2597 1836.00
56.3249 1822.00
56.3901 1742.00
56.4553 1718.00
56.5205 1798.00
56.5857 1813.00
56.6509 1808.00
56.7161 1799.00
56.7813 1760.00
56.8465 1771.00
56.9117 1793.00
56.9769 1713.00
57.042 1813.00
57.1073 1821.00
57.1724 1844.00
57.2376 1882.00
57.3028 2036.00
57.368 1880.00
57.4332 1957.00
57.4984 2047.00
57.5636 2063.00
57.6288 2028.00
57.694 1987.00
57.7592 1940.00
57.8244 2023.00
57.8896 1976.00
57.9548 1930.00
58.02 1903.00
58.0852 1842.00
58.1504 1840.00
58.2156 1845.00
58.2808 1813.00
58.346 1763.00
58.4112 1850.00
58.4764 1693.00
58.5416 1796.00
58.6068 1772.00
58.672 1798.00
58.7372 1690.00
58.8024 1800.00
58.8676 1733.00
58.9328 1793.00
58.998 1815.00
59.0632 1736.00
59.1284 1735.00
59.1936 1722.00
59.2588 1700.00
59.324 1699.00
59.3892 1755.00
59.4544 1826.00
59.5196 1713.00
59.5848 1698.00
59.65 1788.00
59.7152 1777.00
59.7804 1830.00
59.8456 1862.00
59.9108 1826.00
59.976 1829.00
60.0412 1788.00
60.1064 1761.00
60.1716 1704.00
60.2368 1681.00
60.302 1755.00
60.3672 1810.00
60.4324 1801.00
60.4976 1814.00
60.5628 1865.00
60.628 1837.00
60.6932 1828.00
60.7584 1869.00
60.8236 1807.00
60.8888 1809.00
60.954 1800.00
61.0192 1901.00
61.0844 1817.00
61.1496 1854.00
61.2148 1877.00
61.28 1814.00
61.3452 1795.00
61.4104 1831.00
61.4756 1820.00
61.5408 1767.00
61.606 1854.00
61.6712 1822.00
61.7364 1738.00
61.8016 1766.00
61.8667 1762.00
61.932 1784.00
61.9971 1852.00
62.0623 1782.00
62.1275 1851.00
62.1927 1816.00
62.2579 1857.00
62.3231 1874.00
62.3883 1918.00
62.4535 1870.00
62.5187 1920.00
62.5839 2023.00
62.6491 2230.00
62.7143 2455.00
62.7795 3050.00
62.8447 3882.00
62.9099 4867.00
62.9751 5644.00
63.0403 5936.00
63.1055 5729.00
63.1707 4916.00
63.2359 4127.00
63.3011 3310.00
63.3663 2662.00
63.4315 2202.00
63.4967 2053.00
63.5619 1970.00
63.6271 1853.00
63.6923 1950.00
63.7575 1839.00
63.8227 1856.00
63.8879 1851.00
63.9531 1715.00
64.0183 1884.00
64.0835 1881.00
64.1487 1834.00
64.2139 1802.00
64.2791 1866.00
64.3443 1887.00
64.4095 1800.00
64.4747 1803.00
64.5399 1841.00
64.6051 1800.00
64.6703 1836.00
64.7355 1779.00
64.8007 1717.00
64.8659 1768.00
64.9311 1883.00
64.9963 1777.00
65.0615 1772.00
65.1267 1790.00
65.1919 1889.00
65.2571 1831.00
65.3223 1851.00
65.3875 1813.00
65.4527 1799.00
65.5179 1720.00
65.5831 1802.00
65.6483 1811.00
65.7135 1769.00
65.7787 1732.00
65.8439 1851.00
65.9091 1787.00
65.9743 1830.00
66.0395 1867.00
66.1047 1811.00
66.1699 1805.00
66.2351 1884.00
66.3003 1801.00
66.3655 1898.00
66.4307 1893.00
66.4959 1806.00
66.561 1789.00
66.6263 1777.00
66.6915 1808.00
66.7566 1752.00
66.8218 1831.00
66.887 1861.00
66.9522 1849.00
67.0174 1848.00
67.0826 1915.00
67.1478 1866.00
67.213 1870.00
67.2782 1952.00
67.3434 1996.00
67.4086 1912.00
67.4738 1815.00
67.539 1935.00
67.6042 1876.00
67.6694 1840.00
67.7346 1869.00
67.7998 1914.00
67.865 1861.00
67.9302 1759.00
67.9954 1834.00
68.0606 1851.00
68.1258 1815.00
68.191 1784.00
68.2562 1870.00
68.3214 1843.00
68.3866 1847.00
68.4518 1819.00
68.517 1835.00
68.5822 1805.00
68.6474 1843.00
68.7126 1818.00
68.7778 1755.00
68.843 1872.00
68.9082 1748.00
68.9734 1770.00
69.0386 1821.00
69.1038 1810.00
69.169 1796.00
69.2342 1820.00
69.2994 1843.00
69.3646 1945.00
69.4298 1817.00
69.495 1857.00
69.5602 1871.00
69.6254 1895.00
69.6906 1843.00
69.7558 1846.00
69.821 1836.00
69.8862 1848.00
69.9514 1849.00
70.0166 1970.00
70.0818 1855.00
70.147 1909.00
70.2122 1979.00
70.2774 1735.00
70.3426 1853.00
70.4078 1904.00
70.473 1880.00
70.5382 1819.00
70.6034 1843.00
70.6686 1861.00
70.7338 1853.00
70.799 1833.00
70.8642 1838.00
70.9294 1842.00
70.9946 1857.00
71.0598 1923.00
71.125 1949.00
71.1902 1891.00
71.2554 1810.00
71.3205 1828.00
71.3858 1770.00
71.451 1825.00
71.5162 1841.00
71.5813 1877.00
71.6465 1825.00
71.7117 1710.00
71.7769 1876.00
71.8421 1867.00
71.9073 1843.00
71.9725 1855.00
72.0377 1812.00
72.1029 1866.00
72.1681 1818.00
72.2333 1774.00
72.2985 1736.00
72.3637 1785.00
72.4289 1813.00
72.4941 1854.00
72.5593 1879.00
72.6245 1854.00
72.6897 1868.00
72.7549 1915.00
72.8201 1885.00
72.8853 1894.00
72.9505 1816.00
73.0157 1770.00
73.0809 1810.00
73.1461 1837.00
73.2113 1897.00
73.2765 1840.00
73.3417 1790.00
73.4069 1827.00
73.4721 1776.00
73.5373 2000.00
73.6025 1863.00
73.6677 1916.00
73.7329 1850.00
73.7981 1900.00
73.8633 1811.00
73.9285 1843.00
73.9937 1809.00
74.0589 1879.00
74.1241 1906.00
74.1893 1813.00
74.2545 1834.00
74.3197 1859.00
74.3849 1844.00
74.4501 1867.00
74.5153 1827.00
74.5805 1904.00
74.6457 1803.00
74.7109 1844.00
74.7761 1870.00
74.8413 1849.00
74.9065 1887.00
74.9717 1896.00
75.0369 1878.00
75.1021 1966.00
75.1673 2079.00
75.2325 2104.00
75.2977 2307.00
75.3629 2582.00
75.4281 2963.00
75.4933 3283.00
75.5585 3360.00
75.6237 3316.00
75.6889 2953.00
75.7541 2768.00
75.8193 2532.00
75.8845 2267.00
75.9497 2164.00
76.0149 1997.00
76.0801 1888.00
76.1452 1864.00
76.2104 1949.00
76.2756 1832.00
76.3409 1871.00
76.406 1867.00
76.4712 1910.00
76.5364 1838.00
76.6016 1757.00
76.6668 1776.00
76.732 1855.00
76.7972 1886.00
76.8624 1861.00
76.9276 1875.00
76.9928 1867.00
77.058 1857.00
77.1232 1870.00
77.1884 1844.00
77.2536 1876.00
77.3188 1850.00
77.384 1828.00
77.4492 1847.00
77.5144 1782.00
77.5796 1851.00
77.6448 1824.00
77.71 1816.00
77.7752 1736.00
77.8404 1850.00
77.9056 1803.00
77.9708 1823.00
78.036 1846.00
78.1012 1862.00
78.1664 1842.00
78.2316 1928.00
78.2968 1855.00
78.362 1789.00
78.4272 1762.00
78.4924 1827.00
78.5576 1819.00
78.6228 1834.00
78.688 1845.00
78.7532 1846.00
78.8184 1826.00
78.8836 1824.00
78.9488 1989.00
79.014 1892.00
79.0792 1926.00
79.1444 1975.00
79.2096 2083.00
79.2748 2109.00
79.34 2335.00
79.4052 2681.00
79.4704 2769.00
79.5356 2871.00
79.6008 2786.00
79.666 2717.00
79.7312 2467.00
79.7964 2451.00
79.8616 2306.00
79.9268 2117.00
79.992 2029.00
80.0572 1977.00
80.1224 1998.00
80.1876 1951.00
80.2528 1919.00
80.318 1869.00
80.3832 1907.00
80.4484 1845.00
80.5136 1937.00
80.5788 1843.00
80.644 1869.00
80.7092 1802.00
80.7744 1970.00
80.8396 1872.00
80.9048 1948.00
80.9699 1956.00
81.0351 1936.00
81.1003 1901.00
81.1655 1904.00
81.2307 1882.00
81.2959 1796.00
81.3611 1867.00
81.4263 1880.00
81.4915 1833.00
81.5567 1839.00
81.6219 1886.00
81.6871 1908.00
81.7523 1901.00
81.8175 1909.00
81.8827 1852.00
81.9479 1873.00
82.0131 1943.00
82.0783 1879.00
82.1435 1862.00
82.2087 1909.00
82.2739 1893.00
82.3391 1961.00
82.4043 1907.00
82.4695 1911.00
82.5347 1773.00
82.5999 1757.00
82.6651 1857.00
82.7303 1774.00
82.7955 1861.00
82.8607 1859.00
82.9259 1764.00
82.9911 1841.00
83.0563 1780.00
83.1215 1873.00
83.1867 1783.00
83.2519 1841.00
83.3171 1824.00
83.3823 1861.00
83.4475 1793.00
83.5127 1906.00
83.5779 1844.00
83.6431 1849.00
83.7083 1827.00
83.7735 1763.00
83.8387 1849.00
83.9039 1792.00
83.9691 1786.00
84.0343 1895.00
84.0995 1899.00
84.1647 1897.00
84.2299 1908.00
84.2951 1887.00
84.3603 1809.00
84.4255 1827.00
84.4907 1852.00
84.5559 1889.00
84.6211 1871.00
84.6863 1942.00
84.7515 1885.00
84.8167 1846.00
84.8819 1923.00
84.9471 1774.00
85.0123 1829.00
85.0775 1850.00
85.1427 1823.00
85.2079 1845.00
85.2731 1858.00
85.3383 1818.00
85.4035 1868.00
85.4687 1875.00
85.5339 1802.00
85.5991 1951.00
85.6643 1815.00
85.7295 1886.00
85.7946 1890.00
85.8598 1889.00
85.925 1788.00
85.9903 1876.00
86.0554 1898.00
86.1206 1815.00
86.1858 1825.00
86.251 1803.00
86.3162 1922.00
86.3814 1833.00
86.4466 1908.00
86.5118 1852.00
86.577 1886.00
86.6422 1908.00
86.7074 1942.00
86.7726 1868.00
86.8378 1902.00
86.903 1872.00
86.9682 1883.00
87.0334 1895.00
87.0986 1837.00
87.1638 1842.00
87.229 1897.00
87.2942 1953.00
87.3594 1903.00
87.4246 1842.00
87.4898 1834.00
87.555 1827.00
87.6202 1876.00
87.6854 1810.00
87.7506 1854.00
87.8158 1826.00
87.881 1918.00
87.9462 1802.00
88.0114 1763.00
88.0766 1882.00
88.1418 1942.00
88.207 1811.00
88.2722 1922.00
88.3374 1894.00
88.4026 1897.00
88.4678 1877.00
88.533 1751.00
88.5982 1879.00
88.6634 1877.00
88.7286 1871.00
88.7938 1862.00
88.859 1825.00
88.9242 1845.00
88.9894 1818.00
89.0546 1923.00
89.1198 1801.00
89.185 1821.00
89.2502 1923.00
89.3154 1864.00
89.3806 1891.00
89.4458 1828.00
89.511 1894.00
89.5762 1930.00
89.6414 1908.00
89.7066 1838.00
89.7718 1948.00
89.837 1924.00
89.9022 1838.00
89.9674 1915.00
90.0326 1857.00
90.0978 1889.00
90.163 1913.00
90.2282 1844.00
90.2934 1807.00
90.3586 1860.00
90.4238 1879.00
90.489 1864.00
90.5542 1904.00
90.6193 1928.00
90.6845 1887.00
90.7497 1885.00
90.8149 1949.00
90.8801 1914.00
90.9453 1795.00
91.0105 1867.00
91.0757 1904.00
91.1409 1875.00
91.2061 1835.00
91.2713 1962.00
91.3365 1869.00
91.4017 1892.00
91.4669 1885.00
91.5321 1849.00
91.5973 1962.00
91.6625 1840.00
91.7277 1825.00
91.7929 1795.00
91.8581 1815.00
91.9233 1891.00
91.9885 1835.00
92.0537 1864.00
92.1189 1857.00
92.1841 1928.00
92.2493 1850.00
92.3145 1938.00
92.3797 1901.00
92.4449 1863.00
92.5101 1881.00
92.5753 1804.00
92.6405 1895.00
92.7057 1903.00
92.7709 1913.00
92.8361 1920.00
92.9013 1821.00
92.9665 1920.00
93.0317 1914.00
93.0969 1884.00
93.1621 1895.00
93.2273 1769.00
93.2925 1852.00
93.3577 1844.00
93.4229 1857.00
93.4881 1902.00
93.5533 1970.00
93.6185 1915.00
93.6837 1970.00
93.7489 1895.00
93.8141 1851.00
93.8793 1874.00
93.9445 1963.00
94.0097 1906.00
94.0749 1990.00
94.1401 1917.00
94.2053 1915.00
94.2705 1973.00
94.3357 1944.00
94.4009 2008.00
94.4661 1946.00
94.5313 1921.00
94.5965 1912.00
94.6617 1967.00
94.7269 1967.00
94.7921 1960.00
94.8573 1953.00
94.9225 1982.00
94.9877 2105.00
95.0529 2254.00
95.1181 2293.00
95.1833 2391.00
95.2485 2193.00
95.3137 2201.00
95.3789 2184.00
95.444 2184.00
95.5092 2083.00
95.5744 2065.00
95.6396 2066.00
95.7048 1919.00
95.77 1943.00
95.8352 1889.00
95.9004 1873.00
95.9656 1919.00
96.0308 1866.00
96.096 1967.00
96.1612 1874.00
96.2264 1880.00
96.2916 1839.00
96.3568 1873.00
96.422 1840.00
96.4872 1907.00
96.5524 1901.00
96.6176 1860.00
96.6828 1901.00
96.748 1811.00
96.8132 1881.00
96.8784 1797.00
96.9436 1887.00
97.0088 1901.00
97.074 1901.00
97.1392 1803.00
97.2044 1743.00
97.2696 1859.00
97.3348 1846.00
97.4 1821.00
97.4652 1816.00
97.5304 1842.00
97.5956 1840.00
97.6608 1847.00
97.726 1831.00
97.7912 1870.00
97.8564 1793.00
97.9216 1786.00
97.9868 1913.00
98.052 1868.00
98.1172 1887.00
98.1824 1934.00
98.2476 1849.00
98.3128 1811.00
98.378 1870.00
98.4432 1883.00
98.5084 1899.00
98.5736 1848.00
98.6388 1933.00
98.704 1943.00
98.7692 1839.00
98.8344 1896.00
98.8996 1825.00
98.9648 1891.00
99.03 1822.00
99.0952 1881.00
99.1604 1904.00
99.2256 1793.00
99.2908 1926.00
99.356 1877.00
99.4212 1886.00
99.4864 1962.00
99.5516 1916.00
99.6168 1903.00
99.682 1977.00
99.7472 1948.00
99.8124 1871.00
99.8776 1938.00
99.9428 1907.00
100.008 1897.00
100.073 1872.00
100.095 1912.00