File: data/xrd_creation/results/PG_1841-1.xy
9.903433 2635.00
9.968632 2477.00
10.0338 2528.00
10.099 2550.00
10.1642 2496.00
10.2294 2496.00
10.2946 2446.00
10.3598 2455.00
10.425 2360.00
10.4902 2490.00
10.5554 2280.00
10.6206 2386.00
10.6858 2415.00
10.751 2336.00
10.8162 2308.00
10.8814 2359.00
10.9466 2380.00
11.0118 2239.00
11.077 2181.00
11.1422 2146.00
11.2074 2147.00
11.2726 2326.00
11.3378 2224.00
11.403 2133.00
11.4682 2159.00
11.5334 2137.00
11.5986 2127.00
11.6638 2120.00
11.729 2116.00
11.7942 2018.00
11.8594 2069.00
11.9246 2030.00
11.9898 2048.00
12.055 1998.00
12.1202 1998.00
12.1854 2063.00
12.2506 1948.00
12.3158 2031.00
12.381 1881.00
12.4462 1973.00
12.5114 1836.00
12.5766 1889.00
12.6418 1947.00
12.707 1834.00
12.7722 1902.00
12.8374 1825.00
12.9026 1867.00
12.9678 1833.00
13.033 1760.00
13.0982 1822.00
13.1634 1836.00
13.2286 1837.00
13.2938 1750.00
13.359 1856.00
13.4242 1808.00
13.4894 1808.00
13.5546 1830.00
13.6198 1839.00
13.685 1852.00
13.7502 1943.00
13.8154 1976.00
13.8805 2173.00
13.9457 2341.00
14.0109 2884.00
14.0761 3168.00
14.1413 2300.00
14.2065 1814.00
14.2717 1752.00
14.3369 1611.00
14.4021 1697.00
14.4673 1611.00
14.5325 1688.00
14.5977 1668.00
14.6629 1712.00
14.7281 1558.00
14.7933 1610.00
14.8585 1690.00
14.9237 1647.00
14.9889 1667.00
15.0541 1542.00
15.1193 1636.00
15.1845 1547.00
15.2497 1584.00
15.3149 1564.00
15.3801 1586.00
15.4453 1603.00
15.5105 1526.00
15.5757 1589.00
15.6409 1504.00
15.7061 1557.00
15.7713 1527.00
15.8365 1545.00
15.9017 1495.00
15.9669 1530.00
16.0321 1525.00
16.0973 1564.00
16.1625 1509.00
16.2277 1548.00
16.2929 1507.00
16.3581 1531.00
16.4233 1453.00
16.4885 1469.00
16.5537 1494.00
16.6189 1494.00
16.6841 1516.00
16.7493 1403.00
16.8145 1558.00
16.8797 1402.00
16.9449 1480.00
17.0101 1496.00
17.0753 1441.00
17.1405 1438.00
17.2057 1440.00
17.2709 1477.00
17.3361 1445.00
17.4013 1420.00
17.4665 1432.00
17.5317 1445.00
17.5969 1547.00
17.6621 1494.00
17.7273 1406.00
17.7925 1391.00
17.8577 1442.00
17.9229 1371.00
17.9881 1436.00
18.0533 1423.00
18.1185 1372.00
18.1837 1292.00
18.2489 1378.00
18.3141 1307.00
18.3793 1351.00
18.4445 1325.00
18.5097 1333.00
18.5749 1332.00
18.6401 1322.00
18.7052 1336.00
18.7704 1372.00
18.8356 1295.00
18.9008 1310.00
18.966 1244.00
19.0312 1319.00
19.0964 1294.00
19.1616 1313.00
19.2268 1395.00
19.292 1266.00
19.3572 1219.00
19.4224 1254.00
19.4876 1234.00
19.5528 1229.00
19.618 1354.00
19.6832 1323.00
19.7484 1335.00
19.8136 1281.00
19.8788 1275.00
19.944 1246.00
20.0092 1179.00
20.0744 1186.00
20.1396 1168.00
20.2048 1260.00
20.27 1249.00
20.3352 1201.00
20.4004 1251.00
20.4656 1173.00
20.5308 1208.00
20.596 1173.00
20.6612 1184.00
20.7264 1212.00
20.7916 1263.00
20.8568 1203.00
20.922 1223.00
20.9872 1154.00
21.0524 1126.00
21.1176 1196.00
21.1828 1175.00
21.248 1260.00
21.3132 1256.00
21.3784 1189.00
21.4436 1236.00
21.5088 1232.00
21.574 1337.00
21.6392 1396.00
21.7044 1678.00
21.7696 2220.00
21.8348 2582.00
21.9 1725.00
21.9652 1247.00
22.0304 1174.00
22.0956 1155.00
22.1608 1192.00
22.226 1105.00
22.2912 1131.00
22.3564 1084.00
22.4216 1085.00
22.4868 1098.00
22.552 1133.00
22.6172 1096.00
22.6824 1109.00
22.7476 1098.00
22.8128 1158.00
22.878 1057.00
22.9432 1119.00
23.0084 1127.00
23.0736 1098.00
23.1388 1051.00
23.204 1069.00
23.2692 1007.00
23.3344 1034.00
23.3996 1054.00
23.4647 1049.00
23.5299 1061.00
23.5951 1045.00
23.6603 964.00
23.7255 1047.00
23.7907 1025.00
23.8559 1035.00
23.9211 1031.00
23.9863 981.00
24.0515 1008.00
24.1167 1014.00
24.1819 1021.00
24.2471 982.00
24.3123 984.00
24.3775 1017.00
24.4427 1024.00
24.5079 1015.00
24.5731 1019.00
24.6383 1010.00
24.7035 968.00
24.7687 959.00
24.8339 942.00
24.8991 952.00
24.9643 966.00
25.0295 968.00
25.0947 957.00
25.1599 941.00
25.2251 1056.00
25.2903 930.00
25.3555 950.00
25.4207 974.00
25.4859 983.00
25.5511 911.00
25.6163 969.00
25.6815 964.00
25.7467 1066.00
25.8119 1065.00
25.8771 1060.00
25.9423 967.00
26.0075 875.00
26.0727 889.00
26.1379 902.00
26.2031 972.00
26.2683 950.00
26.3335 918.00
26.3987 896.00
26.4639 979.00
26.5291 908.00
26.5943 855.00
26.6595 913.00
26.7247 903.00
26.7899 952.00
26.8551 941.00
26.9203 960.00
26.9855 998.00
27.0507 1009.00
27.1159 1014.00
27.1811 985.00
27.2463 1016.00
27.3115 1046.00
27.3767 1020.00
27.4419 1098.00
27.5071 1195.00
27.5723 1264.00
27.6375 1477.00
27.7027 1821.00
27.7679 2507.00
27.8331 4072.00
27.8983 7572.00
27.9635 15261.00
28.0287 18677.00
28.0939 10237.00
28.1591 3412.00
28.2243 1931.00
28.2894 1549.00
28.3546 1326.00
28.4198 1154.00
28.485 1138.00
28.5502 1126.00
28.6154 1290.00
28.6806 1534.00
28.7458 1302.00
28.811 1100.00
28.8762 1091.00
28.9414 1084.00
29.0066 988.00
29.0718 962.00
29.137 909.00
29.2022 930.00
29.2674 913.00
29.3326 842.00
29.3978 870.00
29.463 825.00
29.5282 894.00
29.5934 846.00
29.6586 834.00
29.7238 833.00
29.789 874.00
29.8542 963.00
29.9194 947.00
29.9846 951.00
30.0498 945.00
30.115 908.00
30.1802 993.00
30.2454 976.00
30.3106 975.00
30.3758 1096.00
30.441 1220.00
30.5062 1295.00
30.5714 1512.00
30.6366 1881.00
30.7018 2857.00
30.767 5123.00
30.8322 10126.00
30.8974 17194.00
30.9626 10779.00
31.0278 4680.00
31.093 2081.00
31.1582 1632.00
31.2234 1331.00
31.2886 1179.00
31.3538 1030.00
31.419 1004.00
31.4842 934.00
31.5494 910.00
31.6146 953.00
31.6798 931.00
31.745 897.00
31.8102 893.00
31.8754 963.00
31.9406 958.00
32.0058 971.00
32.071 1061.00
32.1362 1265.00
32.2014 1790.00
32.2666 2695.00
32.3318 4810.00
32.397 7529.00
32.4622 5183.00
32.5274 2471.00
32.5926 1417.00
32.6578 1066.00
32.723 1020.00
32.7882 927.00
32.8534 865.00
32.9186 819.00
32.9838 864.00
33.0489 865.00
33.1141 790.00
33.1793 796.00
33.2445 801.00
33.3097 836.00
33.3749 954.00
33.4401 1002.00
33.5053 848.00
33.5705 815.00
33.6357 777.00
33.7009 771.00
33.7661 755.00
33.8313 709.00
33.8965 732.00
33.9617 774.00
34.0269 725.00
34.0921 729.00
34.1573 816.00
34.2225 702.00
34.2877 708.00
34.3529 710.00
34.4181 689.00
34.4833 729.00
34.5485 703.00
34.6137 725.00
34.6789 675.00
34.7441 734.00
34.8093 743.00
34.8745 748.00
34.9397 793.00
35.0049 775.00
35.0701 836.00
35.1353 904.00
35.2005 1109.00
35.2657 1548.00
35.3309 2328.00
35.3961 2264.00
35.4613 1835.00
35.5265 1339.00
35.5917 1423.00
35.6569 2241.00
35.7221 4135.00
35.7873 5311.00
35.8525 3446.00
35.9177 1770.00
35.9829 1068.00
36.0481 876.00
36.1133 799.00
36.1785 750.00
36.2437 764.00
36.3089 701.00
36.3741 649.00
36.4393 724.00
36.5045 603.00
36.5697 677.00
36.6349 643.00
36.7001 639.00
36.7653 679.00
36.8305 761.00
36.8957 698.00
36.9609 717.00
37.0261 608.00
37.0913 666.00
37.1565 616.00
37.2217 636.00
37.2869 688.00
37.3521 638.00
37.4173 646.00
37.4825 601.00
37.5477 640.00
37.6129 628.00
37.6781 648.00
37.7433 658.00
37.8085 674.00
37.8736 859.00
37.9388 1210.00
38.004 1553.00
38.0692 1192.00
38.1344 824.00
38.1996 683.00
38.2648 680.00
38.33 587.00
38.3952 640.00
38.4604 643.00
38.5256 607.00
38.5908 605.00
38.656 607.00
38.7212 613.00
38.7864 539.00
38.8516 553.00
38.9168 563.00
38.982 578.00
39.0472 569.00
39.1124 594.00
39.1776 566.00
39.2428 552.00
39.308 559.00
39.3732 585.00
39.4384 545.00
39.5036 569.00
39.5688 533.00
39.634 595.00
39.6992 609.00
39.7644 679.00
39.8296 736.00
39.8948 817.00
39.96 750.00
40.0252 670.00
40.0904 761.00
40.1556 689.00
40.2208 679.00
40.286 585.00
40.3512 555.00
40.4164 568.00
40.4816 527.00
40.5468 576.00
40.612 576.00
40.6772 557.00
40.7424 506.00
40.8076 538.00
40.8728 561.00
40.938 560.00
41.0032 513.00
41.0684 569.00
41.1336 535.00
41.1988 549.00
41.264 628.00
41.3292 597.00
41.3944 571.00
41.4596 548.00
41.5248 515.00
41.59 548.00
41.6552 593.00
41.7204 604.00
41.7856 614.00
41.8508 616.00
41.916 612.00
41.9812 651.00
42.0464 851.00
42.1116 1202.00
42.1768 1244.00
42.242 1118.00
42.3072 1012.00
42.3724 1089.00
42.4376 922.00
42.5028 748.00
42.568 640.00
42.6332 614.00
42.6983 585.00
42.7635 531.00
42.8287 530.00
42.8939 555.00
42.9591 520.00
43.0243 524.00
43.0895 498.00
43.1547 561.00
43.2199 548.00
43.2851 530.00
43.3503 489.00
43.4155 558.00
43.4807 473.00
43.5459 521.00
43.6111 511.00
43.6763 446.00
43.7415 514.00
43.8067 550.00
43.8719 494.00
43.9371 555.00
44.0023 545.00
44.0675 667.00
44.1327 645.00
44.1979 603.00
44.2631 589.00
44.3283 535.00
44.3935 533.00
44.4587 480.00
44.5239 567.00
44.5891 564.00
44.6543 554.00
44.7195 505.00
44.7847 557.00
44.8499 562.00
44.9151 551.00
44.9803 520.00
45.0455 479.00
45.1107 540.00
45.1759 538.00
45.2411 525.00
45.3063 527.00
45.3715 542.00
45.4367 617.00
45.5019 549.00
45.5671 520.00
45.6323 620.00
45.6975 664.00
45.7627 730.00
45.8279 876.00
45.8931 1210.00
45.9583 2195.00
46.0235 1871.00
46.0887 2109.00
46.1539 2149.00
46.2191 3729.00
46.2843 7514.00
46.3495 5440.00
46.4147 4699.00
46.4799 2352.00
46.5451 1269.00
46.6103 908.00
46.6755 771.00
46.7407 684.00
46.8059 594.00
46.8711 566.00
46.9363 577.00
47.0015 546.00
47.0667 563.00
47.1319 491.00
47.1971 518.00
47.2623 506.00
47.3275 596.00
47.3927 604.00
47.4579 585.00
47.523 566.00
47.5882 584.00
47.6534 522.00
47.7186 559.00
47.7838 543.00
47.849 501.00
47.9142 486.00
47.9794 513.00
48.0446 491.00
48.1098 543.00
48.175 528.00
48.2402 527.00
48.3054 498.00
48.3706 555.00
48.4358 563.00
48.501 736.00
48.5662 708.00
48.6314 652.00
48.6966 646.00
48.7618 514.00
48.827 455.00
48.8922 471.00
48.9574 471.00
49.0226 495.00
49.0878 506.00
49.153 531.00
49.2182 581.00
49.2834 586.00
49.3486 539.00
49.4138 599.00
49.479 692.00
49.5442 782.00
49.6094 880.00
49.6746 745.00
49.7398 715.00
49.805 517.00
49.8702 564.00
49.9354 559.00
50.0006 550.00
50.0658 580.00
50.131 547.00
50.1962 546.00
50.2614 547.00
50.3266 538.00
50.3918 530.00
50.457 559.00
50.5222 488.00
50.5874 581.00
50.6526 557.00
50.7178 642.00
50.783 701.00
50.8482 745.00
50.9134 803.00
50.9786 815.00
51.0438 891.00
51.109 1138.00
51.1742 1678.00
51.2394 3468.00
51.3046 6530.00
51.3698 3838.00
51.435 3860.00
51.5002 2045.00
51.5654 1074.00
51.6306 882.00
51.6958 714.00
51.761 676.00
51.8262 528.00
51.8914 546.00
51.9566 545.00
52.0218 512.00
52.087 498.00
52.1522 505.00
52.2174 538.00
52.2826 495.00
52.3477 486.00
52.4129 456.00
52.4781 480.00
52.5433 486.00
52.6085 468.00
52.6737 505.00
52.7389 527.00
52.8041 489.00
52.8693 602.00
52.9345 685.00
52.9997 815.00
53.0649 694.00
53.1301 775.00
53.1953 586.00
53.2605 536.00
53.3257 513.00
53.3909 493.00
53.4561 515.00
53.5213 522.00
53.5865 482.00
53.6517 445.00
53.7169 472.00
53.7821 504.00
53.8473 542.00
53.9125 533.00
53.9777 435.00
54.0429 543.00
54.1081 503.00
54.1733 502.00
54.2385 585.00
54.3037 620.00
54.3689 639.00
54.4341 767.00
54.4993 871.00
54.5645 941.00
54.6297 1368.00
54.6949 2061.00
54.7601 3985.00
54.8253 7098.00
54.8905 4394.00
54.9557 4282.00
55.0209 2698.00
55.0861 1392.00
55.1513 1007.00
55.2165 835.00
55.2817 726.00
55.3469 660.00
55.4121 623.00
55.4773 538.00
55.5425 558.00
55.6077 569.00
55.6729 511.00
55.7381 528.00
55.8033 529.00
55.8685 512.00
55.9337 518.00
55.9989 540.00
56.0641 591.00
56.1293 693.00
56.1945 889.00
56.2597 1260.00
56.3249 863.00
56.3901 934.00
56.4553 799.00
56.5205 549.00
56.5857 536.00
56.6509 535.00
56.7161 501.00
56.7813 489.00
56.8465 500.00
56.9117 498.00
56.9769 525.00
57.042 537.00
57.1073 567.00
57.1724 588.00
57.2376 649.00
57.3028 786.00
57.368 1167.00
57.4332 2083.00
57.4984 1903.00
57.5636 1499.00
57.6288 1597.00
57.694 929.00
57.7592 748.00
57.8244 809.00
57.8896 652.00
57.9548 643.00
58.02 618.00
58.0852 504.00
58.1504 485.00
58.2156 480.00
58.2808 491.00
58.346 503.00
58.4112 481.00
58.4764 509.00
58.5416 474.00
58.6068 468.00
58.672 461.00
58.7372 497.00
58.8024 487.00
58.8676 534.00
58.9328 526.00
58.998 544.00
59.0632 610.00
59.1284 636.00
59.1936 666.00
59.2588 841.00
59.324 1326.00
59.3892 2280.00
59.4544 1540.00
59.5196 1467.00
59.5848 1340.00
59.65 813.00
59.7152 602.00
59.7804 538.00
59.8456 543.00
59.9108 504.00
59.976 527.00
60.0412 492.00
60.1064 490.00
60.1716 548.00
60.2368 536.00
60.302 539.00
60.3672 533.00
60.4324 556.00
60.4976 578.00
60.5628 654.00
60.628 699.00
60.6932 774.00
60.7584 1042.00
60.8236 1521.00
60.8888 3286.00
60.954 4320.00
61.0192 2361.00
61.0844 2706.00
61.1496 1957.00
61.2148 1042.00
61.28 804.00
61.3452 613.00
61.4104 591.00
61.4756 549.00
61.5408 486.00
61.606 496.00
61.6712 501.00
61.7364 447.00
61.8016 491.00
61.8667 484.00
61.932 525.00
61.9971 533.00
62.0623 487.00
62.1275 509.00
62.1927 472.00
62.2579 502.00
62.3231 651.00
62.3883 947.00
62.4535 1326.00
62.5187 817.00
62.5839 904.00
62.6491 815.00
62.7143 579.00
62.7795 477.00
62.8447 508.00
62.9099 424.00
62.9751 494.00
63.0403 438.00
63.1055 408.00
63.1707 493.00
63.2359 487.00
63.3011 444.00
63.3663 427.00
63.4315 460.00
63.4967 469.00
63.5619 473.00
63.6271 496.00
63.6923 468.00
63.7575 522.00
63.8227 646.00
63.8879 999.00
63.9531 1192.00
64.0183 781.00
64.0835 927.00
64.1487 817.00
64.2139 624.00
64.2791 733.00
64.3443 1063.00
64.4095 844.00
64.4747 763.00
64.5399 759.00
64.6051 609.00
64.6703 546.00
64.7355 469.00
64.8007 469.00
64.8659 435.00
64.9311 410.00
64.9963 420.00
65.0615 380.00
65.1267 443.00
65.1919 445.00
65.2571 437.00
65.3223 539.00
65.3875 723.00
65.4527 610.00
65.5179 529.00
65.5831 586.00
65.6483 504.00
65.7135 400.00
65.7787 414.00
65.8439 426.00
65.9091 427.00
65.9743 463.00
66.0395 453.00
66.1047 426.00
66.1699 427.00
66.2351 422.00
66.3003 426.00
66.3655 403.00
66.4307 418.00
66.4959 401.00
66.561 381.00
66.6263 426.00
66.6915 468.00
66.7566 487.00
66.8218 588.00
66.887 588.00
66.9522 496.00
67.0174 578.00
67.0826 593.00
67.1478 538.00
67.213 575.00
67.2782 814.00
67.3434 1094.00
67.4086 861.00
67.4738 712.00
67.539 849.00
67.6042 677.00
67.6694 518.00
67.7346 467.00
67.7998 444.00
67.865 439.00
67.9302 488.00
67.9954 431.00
68.0606 441.00
68.1258 482.00
68.191 537.00
68.2562 777.00
68.3214 784.00
68.3866 585.00
68.4518 612.00
68.517 613.00
68.5822 502.00
68.6474 450.00
68.7126 475.00
68.7778 415.00
68.843 487.00
68.9082 466.00
68.9734 555.00
69.0386 710.00
69.1038 1101.00
69.169 899.00
69.2342 726.00
69.2994 804.00
69.3646 693.00
69.4298 515.00
69.495 471.00
69.5602 465.00
69.6254 467.00
69.6906 638.00
69.7558 608.00
69.821 501.00
69.8862 503.00
69.9514 510.00
70.0166 398.00
70.0818 389.00
70.147 412.00
70.2122 377.00
70.2774 416.00
70.3426 361.00
70.4078 383.00
70.473 422.00
70.5382 384.00
70.6034 404.00
70.6686 365.00
70.7338 395.00
70.799 399.00
70.8642 357.00
70.9294 417.00
70.9946 386.00
71.0598 382.00
71.125 384.00
71.1902 397.00
71.2554 353.00
71.3205 395.00
71.3858 376.00
71.451 398.00
71.5162 379.00
71.5813 390.00
71.6465 374.00
71.7117 386.00
71.7769 385.00
71.8421 420.00
71.9073 428.00
71.9725 467.00
72.0377 495.00
72.1029 454.00
72.1681 438.00
72.2333 457.00
72.2985 391.00
72.3637 378.00
72.4289 426.00
72.4941 350.00
72.5593 385.00
72.6245 405.00
72.6897 404.00
72.7549 440.00
72.8201 356.00
72.8853 348.00
72.9505 410.00
73.0157 408.00
73.0809 403.00
73.1461 382.00
73.2113 409.00
73.2765 422.00
73.3417 413.00
73.4069 416.00
73.4721 433.00
73.5373 417.00
73.6025 472.00
73.6677 481.00
73.7329 636.00
73.7981 622.00
73.8633 719.00
73.9285 867.00
73.9937 717.00
74.0589 750.00
74.1241 883.00
74.1893 1045.00
74.2545 1582.00
74.3197 2136.00
74.3849 1305.00
74.4501 1124.00
74.5153 1432.00
74.5805 982.00
74.6457 664.00
74.7109 588.00
74.7761 510.00
74.8413 506.00
74.9065 463.00
74.9717 424.00
75.0369 484.00
75.1021 485.00
75.1673 528.00
75.2325 749.00
75.2977 914.00
75.3629 626.00
75.4281 616.00
75.4933 682.00
75.5585 607.00
75.6237 484.00
75.6889 461.00
75.7541 440.00
75.8193 457.00
75.8845 464.00
75.9497 430.00
76.0149 450.00
76.0801 464.00
76.1452 474.00
76.2104 516.00
76.2756 537.00
76.3409 590.00
76.406 793.00
76.4712 1040.00
76.5364 1903.00
76.6016 1891.00
76.6668 1494.00
76.732 1291.00
76.7972 1431.00
76.8624 1067.00
76.9276 796.00
76.9928 619.00
77.058 525.00
77.1232 509.00
77.1884 467.00
77.2536 452.00
77.3188 411.00
77.384 413.00
77.4492 394.00
77.5144 448.00
77.5796 396.00
77.6448 438.00
77.71 440.00
77.7752 437.00
77.8404 463.00
77.9056 486.00
77.9708 655.00
78.036 763.00
78.1012 639.00
78.1664 664.00
78.2316 860.00
78.2968 701.00
78.362 537.00
78.4272 570.00
78.4924 543.00
78.5576 492.00
78.6228 401.00
78.688 432.00
78.7532 435.00
78.8184 479.00
78.8836 417.00
78.9488 440.00
79.014 417.00
79.0792 428.00
79.1444 408.00
79.2096 430.00
79.2748 477.00
79.34 600.00
79.4052 644.00
79.4704 487.00
79.5356 499.00
79.6008 557.00
79.666 459.00
79.7312 400.00
79.7964 407.00
79.8616 398.00
79.9268 388.00
79.992 367.00
80.0572 354.00
80.1224 329.00
80.1876 397.00
80.2528 361.00
80.318 380.00
80.3832 350.00
80.4484 379.00
80.5136 440.00
80.5788 421.00
80.644 468.00
80.7092 579.00
80.7744 497.00
80.8396 420.00
80.9048 489.00
80.9699 503.00
81.0351 417.00
81.1003 414.00
81.1655 430.00
81.2307 369.00
81.2959 365.00
81.3611 415.00
81.4263 430.00
81.4915 428.00
81.5567 437.00
81.6219 371.00
81.6871 379.00
81.7523 433.00
81.8175 396.00
81.8827 420.00
81.9479 534.00
82.0131 720.00
82.0783 805.00
82.1435 567.00
82.2087 548.00
82.2739 635.00
82.3391 597.00
82.4043 517.00
82.4695 478.00
82.5347 468.00
82.5999 566.00
82.6651 584.00
82.7303 561.00
82.7955 458.00
82.8607 513.00
82.9259 540.00
82.9911 500.00
83.0563 470.00
83.1215 468.00
83.1867 462.00
83.2519 606.00
83.3171 838.00
83.3823 1290.00
83.4475 981.00
83.5127 754.00
83.5779 751.00
83.6431 917.00
83.7083 666.00
83.7735 525.00
83.8387 457.00
83.9039 431.00
83.9691 427.00
84.0343 425.00
84.0995 399.00
84.1647 409.00
84.2299 404.00
84.2951 400.00
84.3603 408.00
84.4255 389.00
84.4907 338.00
84.5559 371.00
84.6211 410.00
84.6863 427.00
84.7515 409.00
84.8167 394.00
84.8819 420.00
84.9471 390.00
85.0123 429.00
85.0775 453.00
85.1427 438.00
85.2079 524.00
85.2731 605.00
85.3383 806.00
85.4035 1192.00
85.4687 1002.00
85.5339 745.00
85.5991 686.00
85.6643 894.00
85.7295 812.00
85.7946 675.00
85.8598 565.00
85.925 651.00
85.9903 777.00
86.0554 1073.00
86.1206 821.00
86.1858 601.00
86.251 636.00
86.3162 823.00
86.3814 596.00
86.4466 509.00
86.5118 407.00
86.577 444.00
86.6422 385.00
86.7074 428.00
86.7726 426.00
86.8378 435.00
86.903 449.00
86.9682 461.00
87.0334 599.00
87.0986 544.00
87.1638 428.00
87.229 439.00
87.2942 517.00
87.3594 597.00
87.4246 559.00
87.4898 476.00
87.555 431.00
87.6202 460.00
87.6854 418.00
87.7506 407.00
87.8158 362.00
87.881 392.00
87.9462 345.00
88.0114 379.00
88.0766 395.00
88.1418 386.00
88.207 395.00
88.2722 346.00
88.3374 408.00
88.4026 373.00
88.4678 355.00
88.533 370.00
88.5982 419.00
88.6634 497.00
88.7286 504.00
88.7938 458.00
88.859 394.00
88.9242 415.00
88.9894 404.00
89.0546 401.00
89.1198 380.00
89.185 376.00
89.2502 365.00
89.3154 373.00
89.3806 336.00
89.4458 407.00
89.511 367.00
89.5762 387.00
89.6414 423.00
89.7066 433.00
89.7718 458.00
89.837 467.00
89.9022 466.00
89.9674 506.00
90.0326 670.00
90.0978 591.00
90.163 523.00
90.2282 505.00
90.2934 565.00
90.3586 492.00
90.4238 443.00
90.489 383.00
90.5542 423.00
90.6193 407.00
90.6845 379.00
90.7497 360.00
90.8149 392.00
90.8801 409.00
90.9453 431.00
91.0105 460.00
91.0757 475.00
91.1409 453.00
91.2061 485.00
91.2713 505.00
91.3365 732.00
91.4017 971.00
91.4669 886.00
91.5321 728.00
91.5973 661.00
91.6625 785.00
91.7277 891.00
91.7929 830.00
91.8581 844.00
91.9233 1097.00
91.9885 1358.00
92.0537 960.00
92.1189 760.00
92.1841 783.00
92.2493 925.00
92.3145 827.00
92.3797 609.00
92.4449 559.00
92.5101 546.00
92.5753 529.00
92.6405 631.00
92.7057 719.00
92.7709 527.00
92.8361 503.00
92.9013 482.00
92.9665 546.00
93.0317 509.00
93.0969 451.00
93.1621 425.00
93.2273 438.00
93.2925 359.00
93.3577 392.00
93.4229 407.00
93.4881 395.00
93.5533 402.00
93.6185 372.00
93.6837 385.00
93.7489 363.00
93.8141 368.00
93.8793 329.00
93.9445 370.00
94.0097 378.00
94.0749 401.00
94.1401 382.00
94.2053 399.00
94.2705 368.00
94.3357 393.00
94.4009 362.00
94.4661 366.00
94.5313 391.00
94.5965 394.00
94.6617 404.00
94.7269 386.00
94.7921 374.00
94.8573 373.00
94.9225 383.00
94.9877 361.00
95.0529 412.00
95.1181 440.00
95.1833 440.00
95.2485 475.00
95.3137 628.00
95.3789 595.00
95.444 517.00
95.5092 479.00
95.5744 493.00
95.6396 579.00
95.7048 563.00
95.77 606.00
95.8352 535.00
95.9004 485.00
95.9656 435.00
96.0308 462.00
96.096 499.00
96.1612 496.00
96.2264 460.00
96.2916 445.00
96.3568 456.00
96.422 470.00
96.4872 500.00
96.5524 529.00
96.6176 717.00
96.6828 901.00
96.748 665.00
96.8132 524.00
96.8784 528.00
96.9436 603.00
97.0088 645.00
97.074 571.00
97.1392 429.00
97.2044 424.00
97.2696 442.00
97.3348 388.00
97.4 350.00
97.4652 395.00
97.5304 381.00
97.5956 394.00
97.6608 438.00
97.726 389.00
97.7912 374.00
97.8564 440.00
97.9216 501.00
97.9868 614.00
98.052 619.00
98.1172 468.00
98.1824 437.00
98.2476 468.00
98.3128 511.00
98.378 495.00
98.4432 439.00
98.5084 382.00
98.5736 375.00
98.6388 420.00
98.704 364.00
98.7692 340.00
98.8344 372.00
98.8996 402.00
98.9648 375.00
99.03 371.00
99.0952 415.00
99.1604 398.00
99.2256 438.00
99.2908 526.00
99.356 539.00
99.4212 504.00
99.4864 448.00
99.5516 417.00
99.6168 409.00
99.682 449.00
99.7472 457.00
99.8124 377.00
99.8776 381.00
99.9428 376.00
100.008 393.00
100.073 425.00
100.095 440.00