File: data/xrd_creation/results/PG_1420-1.xy
10.0094 4508.00
10.0746 4600.00
10.1398 4603.00
10.205 4615.00
10.2702 4566.00
10.3354 4503.00
10.4006 4537.00
10.4658 4430.00
10.531 4431.00
10.5962 4426.00
10.6614 4371.00
10.7266 4565.00
10.7918 4384.00
10.857 4511.00
10.9222 4576.00
10.9874 4473.00
11.0526 4293.00
11.1178 4385.00
11.183 4329.00
11.2482 4422.00
11.3134 4435.00
11.3786 4402.00
11.4438 4264.00
11.509 4398.00
11.5742 4331.00
11.6394 4348.00
11.7046 4171.00
11.7698 4295.00
11.835 4245.00
11.9002 4164.00
11.9654 4117.00
12.0306 4325.00
12.0958 4234.00
12.161 4200.00
12.2262 4283.00
12.2914 4357.00
12.3566 4190.00
12.4218 4308.00
12.487 4164.00
12.5522 4170.00
12.6174 4230.00
12.6826 4211.00
12.7478 4239.00
12.813 4196.00
12.8782 4248.00
12.9434 4263.00
13.0086 4207.00
13.0738 4057.00
13.139 4045.00
13.2042 3999.00
13.2694 4072.00
13.3346 4120.00
13.3998 4087.00
13.465 4187.00
13.5302 4125.00
13.5954 4152.00
13.6606 4081.00
13.7258 4063.00
13.791 4079.00
13.8562 4127.00
13.9214 4115.00
13.9865 4056.00
14.0517 4025.00
14.1169 4100.00
14.1821 4086.00
14.2473 4140.00
14.3125 4069.00
14.3777 4013.00
14.4429 3972.00
14.5081 4070.00
14.5733 4043.00
14.6385 4055.00
14.7037 4049.00
14.7689 4123.00
14.8341 3947.00
14.8993 3974.00
14.9645 4098.00
15.0297 4075.00
15.0949 4076.00
15.1601 4191.00
15.2253 4004.00
15.2905 3940.00
15.3557 4047.00
15.4209 3897.00
15.4861 4029.00
15.5513 4044.00
15.6165 3934.00
15.6817 3992.00
15.7469 3934.00
15.8121 4075.00
15.8773 4014.00
15.9425 3934.00
16.0077 3912.00
16.0729 3881.00
16.1381 3916.00
16.2033 3968.00
16.2685 3921.00
16.3337 3995.00
16.3989 3847.00
16.4641 3864.00
16.5293 3914.00
16.5945 3957.00
16.6597 3941.00
16.7249 3904.00
16.7901 4088.00
16.8553 3891.00
16.9205 3969.00
16.9857 4124.00
17.0509 4058.00
17.1161 4108.00
17.1813 4033.00
17.2465 4080.00
17.3117 4130.00
17.3769 4186.00
17.4421 4280.00
17.5073 4472.00
17.5725 4579.00
17.6377 5062.00
17.7029 5461.00
17.7681 4680.00
17.8333 4255.00
17.8985 4175.00
17.9637 4184.00
18.0289 4239.00
18.0941 4169.00
18.1593 4385.00
18.2245 4367.00
18.2897 4447.00
18.3549 4598.00
18.4201 4711.00
18.4853 4911.00
18.5505 5337.00
18.6157 5892.00
18.6809 6802.00
18.7461 7532.00
18.8112 7120.00
18.8764 5953.00
18.9416 5354.00
19.0068 5292.00
19.072 5590.00
19.1372 5945.00
19.2024 5761.00
19.2676 4887.00
19.3328 4179.00
19.398 4151.00
19.4632 3982.00
19.5284 4008.00
19.5936 3916.00
19.6588 3946.00
19.724 3845.00
19.7892 3926.00
19.8544 3802.00
19.9196 3875.00
19.9848 3878.00
20.05 3718.00
20.1152 3865.00
20.1804 3780.00
20.2456 3754.00
20.3108 3791.00
20.376 3891.00
20.4412 3822.00
20.5064 3640.00
20.5716 3778.00
20.6368 3675.00
20.702 3691.00
20.7672 3816.00
20.8324 3733.00
20.8976 3786.00
20.9628 3816.00
21.028 3722.00
21.0932 3677.00
21.1584 3663.00
21.2236 3662.00
21.2888 3751.00
21.354 3699.00
21.4192 3654.00
21.4844 3751.00
21.5496 3633.00
21.6148 3815.00
21.68 3635.00
21.7452 3687.00
21.8104 3762.00
21.8756 3621.00
21.9408 3786.00
22.006 3626.00
22.0712 3860.00
22.1364 3699.00
22.2016 3767.00
22.2668 3713.00
22.332 3737.00
22.3972 3727.00
22.4624 3718.00
22.5276 3795.00
22.5928 3746.00
22.658 3936.00
22.7232 3965.00
22.7884 3945.00
22.8536 3860.00
22.9188 3887.00
22.984 3855.00
23.0492 3946.00
23.1144 4225.00
23.1796 4476.00
23.2448 4487.00
23.31 4242.00
23.3752 3993.00
23.4404 3932.00
23.5056 3970.00
23.5708 3923.00
23.6359 3950.00
23.7011 3981.00
23.7663 4048.00
23.8315 4292.00
23.8967 4454.00
23.9619 5177.00
24.0271 6858.00
24.0923 10168.00
24.1575 13412.00
24.2227 8373.00
24.2879 4711.00
24.3531 4156.00
24.4183 4068.00
24.4835 3929.00
24.5487 3921.00
24.6139 3953.00
24.6791 4011.00
24.7443 4083.00
24.8095 4285.00
24.8747 4335.00
24.9399 4306.00
25.0051 4508.00
25.0703 4542.00
25.1355 4171.00
25.2007 4073.00
25.2659 3823.00
25.3311 3825.00
25.3963 3772.00
25.4615 3755.00
25.5267 3592.00
25.5919 3696.00
25.6571 3610.00
25.7223 3656.00
25.7875 3609.00
25.8527 3761.00
25.9179 3628.00
25.9831 3659.00
26.0483 3621.00
26.1135 3636.00
26.1787 3444.00
26.2439 3577.00
26.3091 3630.00
26.3743 3598.00
26.4395 3632.00
26.5047 3617.00
26.5699 3579.00
26.6351 3624.00
26.7003 3479.00
26.7655 3551.00
26.8307 3529.00
26.8959 3634.00
26.9611 3390.00
27.0263 3497.00
27.0915 3463.00
27.1567 3516.00
27.2219 3647.00
27.2871 3543.00
27.3523 3511.00
27.4175 3580.00
27.4827 3521.00
27.5479 3507.00
27.6131 3556.00
27.6783 3523.00
27.7435 3507.00
27.8087 3498.00
27.8739 3539.00
27.9391 3613.00
28.0043 3588.00
28.0695 3576.00
28.1347 3539.00
28.1999 3550.00
28.2651 3546.00
28.3303 3619.00
28.3955 3673.00
28.4606 3590.00
28.5258 3541.00
28.591 3600.00
28.6562 3651.00
28.7214 3597.00
28.7866 3536.00
28.8518 3550.00
28.917 3462.00
28.9822 3604.00
29.0474 3410.00
29.1126 3489.00
29.1778 3524.00
29.243 3653.00
29.3082 3584.00
29.3734 3598.00
29.4386 3582.00
29.5038 3630.00
29.569 3674.00
29.6342 3707.00
29.6994 3780.00
29.7646 4045.00
29.8298 4225.00
29.895 4910.00
29.9602 5837.00
30.0254 5588.00
30.0906 4873.00
30.1558 4214.00
30.221 3927.00
30.2862 3615.00
30.3514 3590.00
30.4166 3607.00
30.4818 3656.00
30.547 3659.00
30.6122 3599.00
30.6774 3601.00
30.7426 3771.00
30.8078 4061.00
30.873 5165.00
30.9382 8246.00
31.0034 12135.00
31.0686 8197.00
31.1338 4727.00
31.199 3804.00
31.2642 3549.00
31.3294 3526.00
31.3946 3429.00
31.4598 3485.00
31.525 3399.00
31.5902 3397.00
31.6554 3482.00
31.7206 3419.00
31.7858 3404.00
31.851 3449.00
31.9162 3348.00
31.9814 3409.00
32.0466 3416.00
32.1118 3354.00
32.177 3316.00
32.2422 3371.00
32.3074 3308.00
32.3726 3494.00
32.4378 3271.00
32.503 3452.00
32.5682 3374.00
32.6334 3426.00
32.6986 3509.00
32.7638 3333.00
32.829 3295.00
32.8942 3322.00
32.9594 3355.00
33.0246 3358.00
33.0898 3325.00
33.1549 3413.00
33.2201 3410.00
33.2853 3417.00
33.3505 3315.00
33.4157 3369.00
33.4809 3290.00
33.5461 3412.00
33.6113 3463.00
33.6765 3468.00
33.7417 3491.00
33.8069 3564.00
33.8721 3651.00
33.9373 3777.00
34.0025 4247.00
34.0677 4353.00
34.1329 4264.00
34.1981 4741.00
34.2633 5736.00
34.3285 5144.00
34.3937 4446.00
34.4589 3784.00
34.5241 3959.00
34.5893 3990.00
34.6545 4003.00
34.7197 3634.00
34.7849 3369.00
34.8501 3493.00
34.9153 3463.00
34.9805 3348.00
35.0457 3342.00
35.1109 3342.00
35.1761 3423.00
35.2413 3272.00
35.3065 3430.00
35.3717 3443.00
35.4369 3731.00
35.5021 3883.00
35.5673 3654.00
35.6325 3343.00
35.6977 3312.00
35.7629 3370.00
35.8281 3263.00
35.8933 3370.00
35.9585 3299.00
36.0237 3259.00
36.0889 3296.00
36.1541 3203.00
36.2193 3265.00
36.2845 3229.00
36.3497 3302.00
36.4149 3297.00
36.4801 3303.00
36.5453 3398.00
36.6105 3287.00
36.6757 3308.00
36.7409 3345.00
36.8061 3264.00
36.8713 3341.00
36.9365 3354.00
37.0017 3211.00
37.0669 3268.00
37.1321 3315.00
37.1973 3267.00
37.2625 3348.00
37.3277 3267.00
37.3929 3415.00
37.4581 3420.00
37.5233 3413.00
37.5885 3382.00
37.6537 3426.00
37.7189 3530.00
37.7841 3350.00
37.8493 3409.00
37.9145 3340.00
37.9796 3437.00
38.0448 3305.00
38.11 3381.00
38.1752 3439.00
38.2404 3436.00
38.3056 3391.00
38.3708 3594.00
38.436 3852.00
38.5012 3556.00
38.5664 3655.00
38.6316 3968.00
38.6968 4511.00
38.762 4075.00
38.8272 3798.00
38.8924 3350.00
38.9576 3233.00
39.0228 3300.00
39.088 3351.00
39.1532 3242.00
39.2184 3249.00
39.2836 3251.00
39.3488 3288.00
39.414 3143.00
39.4792 3249.00
39.5444 3222.00
39.6096 3323.00
39.6748 3351.00
39.74 3245.00
39.8052 3243.00
39.8704 3283.00
39.9356 3374.00
40.0008 3383.00
40.066 3313.00
40.1312 3539.00
40.1964 3649.00
40.2616 3564.00
40.3268 3536.00
40.392 3387.00
40.4572 3363.00
40.5224 3329.00
40.5876 3263.00
40.6528 3322.00
40.718 3337.00
40.7832 3469.00
40.8484 3586.00
40.9136 3764.00
40.9788 3558.00
41.044 3370.00
41.1092 3283.00
41.1744 3252.00
41.2396 3284.00
41.3048 3262.00
41.37 3260.00
41.4352 3242.00
41.5004 3339.00
41.5656 3309.00
41.6308 3240.00
41.696 3176.00
41.7612 3353.00
41.8264 3331.00
41.8916 3253.00
41.9568 3182.00
42.022 3261.00
42.0872 3190.00
42.1524 3236.00
42.2176 3229.00
42.2828 3233.00
42.348 3217.00
42.4132 3243.00
42.4784 3215.00
42.5436 3274.00
42.6088 3245.00
42.6739 3297.00
42.7392 3377.00
42.8043 3513.00
42.8695 3434.00
42.9347 3418.00
42.9999 3346.00
43.0651 3248.00
43.1303 3285.00
43.1955 3484.00
43.2607 3390.00
43.3259 3325.00
43.3911 3315.00
43.4563 3383.00
43.5215 3177.00
43.5867 3294.00
43.6519 3321.00
43.7171 3266.00
43.7823 3268.00
43.8475 3205.00
43.9127 3207.00
43.9779 3218.00
44.0431 3180.00
44.1083 3161.00
44.1735 3197.00
44.2387 3248.00
44.3039 3155.00
44.3691 3283.00
44.4343 3243.00
44.4995 3340.00
44.5647 3377.00
44.6299 3276.00
44.6951 3468.00
44.7603 3454.00
44.8255 3380.00
44.8907 3458.00
44.9559 3462.00
45.0211 3538.00
45.0863 3557.00
45.1515 3467.00
45.2167 3503.00
45.2819 3451.00
45.3471 3448.00
45.4123 3416.00
45.4775 3353.00
45.5427 3328.00
45.6079 3405.00
45.6731 3317.00
45.7383 3274.00
45.8035 3240.00
45.8687 3405.00
45.9339 3809.00
45.9991 4396.00
46.0643 3817.00
46.1295 3907.00
46.1947 3569.00
46.2599 3443.00
46.3251 3508.00
46.3903 3362.00
46.4555 3420.00
46.5207 3521.00
46.5859 3790.00
46.6511 4938.00
46.7163 7646.00
46.7815 5770.00
46.8467 5617.00
46.9119 4063.00
46.9771 3524.00
47.0423 3442.00
47.1075 3534.00
47.1727 3425.00
47.2379 3426.00
47.3031 3383.00
47.3683 3469.00
47.4335 3278.00
47.4986 3417.00
47.5639 3286.00
47.629 3294.00
47.6942 3314.00
47.7594 3448.00
47.8246 3351.00
47.8898 3530.00
47.955 3500.00
48.0202 3439.00
48.0854 3302.00
48.1506 3310.00
48.2158 3329.00
48.281 3629.00
48.3462 3555.00
48.4114 3465.00
48.4766 3366.00
48.5418 3426.00
48.607 3371.00
48.6722 3343.00
48.7374 3139.00
48.8026 3342.00
48.8678 3269.00
48.933 3320.00
48.9982 3367.00
49.0634 3375.00
49.1286 3332.00
49.1938 3271.00
49.259 3297.00
49.3242 3220.00
49.3894 3145.00
49.4546 3251.00
49.5198 3272.00
49.585 3307.00
49.6502 3353.00
49.7154 3410.00
49.7806 3204.00
49.8458 3262.00
49.911 3237.00
49.9762 3326.00
50.0414 3268.00
50.1066 3269.00
50.1718 3264.00
50.237 3337.00
50.3022 3268.00
50.3674 3455.00
50.4326 3679.00
50.4978 3743.00
50.563 3556.00
50.6282 3492.00
50.6934 3313.00
50.7586 3416.00
50.8238 3351.00
50.889 3300.00
50.9542 3262.00
51.0194 3415.00
51.0846 3216.00
51.1498 3310.00
51.215 3392.00
51.2802 3327.00
51.3454 3267.00
51.4106 3189.00
51.4758 3243.00
51.541 3248.00
51.6062 3182.00
51.6714 3246.00
51.7366 3316.00
51.8018 3218.00
51.867 3222.00
51.9322 3299.00
51.9974 3233.00
52.0626 3199.00
52.1278 3136.00
52.193 3124.00
52.2582 3220.00
52.3233 3162.00
52.3886 3224.00
52.4537 3292.00
52.5189 3247.00
52.5841 3113.00
52.6493 3254.00
52.7145 3135.00
52.7797 3219.00
52.8449 3256.00
52.9101 3118.00
52.9753 3128.00
53.0405 3126.00
53.1057 3132.00
53.1709 3179.00
53.2361 3122.00
53.3013 3182.00
53.3665 3238.00
53.4317 3199.00
53.4969 3209.00
53.5621 3181.00
53.6273 3104.00
53.6925 3117.00
53.7577 3097.00
53.8229 3054.00
53.8881 3191.00
53.9533 3167.00
54.0185 3223.00
54.0837 3151.00
54.1489 3147.00
54.2141 3248.00
54.2793 3262.00
54.3445 3210.00
54.4097 3164.00
54.4749 3217.00
54.5401 3273.00
54.6053 3126.00
54.6705 3131.00
54.7357 3256.00
54.8009 3168.00
54.8661 3186.00
54.9313 3085.00
54.9965 3103.00
55.0617 3185.00
55.1269 3151.00
55.1921 3352.00
55.2573 3725.00
55.3225 3933.00
55.3877 3489.00
55.4529 3529.00
55.5181 3251.00
55.5833 3234.00
55.6485 3164.00
55.7137 3052.00
55.7789 3258.00
55.8441 3101.00
55.9093 3103.00
55.9745 3029.00
56.0397 3195.00
56.1049 3202.00
56.1701 3087.00
56.2353 3180.00
56.3005 3159.00
56.3657 3230.00
56.4309 3308.00
56.4961 3247.00
56.5613 3228.00
56.6265 3146.00
56.6917 3173.00
56.7569 3237.00
56.8221 3266.00
56.8873 3284.00
56.9525 3192.00
57.0177 3131.00
57.0829 3179.00
57.148 3138.00
57.2132 3240.00
57.2784 3187.00
57.3436 3089.00
57.4088 3193.00
57.474 3256.00
57.5392 3180.00
57.6044 3085.00
57.6696 3163.00
57.7348 3096.00
57.8 3132.00
57.8652 3115.00
57.9304 3130.00
57.9956 3247.00
58.0608 3203.00
58.126 3292.00
58.1912 3306.00
58.2564 3277.00
58.3216 3171.00
58.3868 3339.00
58.452 3168.00
58.5172 3325.00
58.5824 3620.00
58.6476 3775.00
58.7128 3432.00
58.778 3485.00
58.8432 3296.00
58.9084 3258.00
58.9736 3512.00
59.0388 3819.00
59.104 3609.00
59.1692 3478.00
59.2344 3383.00
59.2996 3278.00
59.3648 3294.00
59.43 3135.00
59.4952 3127.00
59.5604 3068.00
59.6256 3179.00
59.6908 3243.00
59.756 3126.00
59.8212 3176.00
59.8864 3176.00
59.9516 3216.00
60.0168 3311.00
60.082 3464.00
60.1472 3205.00
60.2124 3258.00
60.2776 3160.00
60.3428 3153.00
60.408 3074.00
60.4732 3178.00
60.5384 3229.00
60.6036 3206.00
60.6688 3150.00
60.734 3064.00
60.7992 3167.00
60.8644 3199.00
60.9296 3030.00
60.9948 3092.00
61.06 3106.00
61.1252 3226.00
61.1904 3092.00
61.2556 3162.00
61.3208 3173.00
61.386 3136.00
61.4512 3121.00
61.5164 3268.00
61.5816 3109.00
61.6468 3155.00
61.712 3179.00
61.7772 3137.00
61.8424 3222.00
61.9076 3292.00
61.9727 3240.00
62.0379 3212.00
62.1031 3131.00
62.1683 3136.00
62.2335 3145.00
62.2987 3149.00
62.3639 3135.00
62.4291 3131.00
62.4943 3143.00
62.5595 3101.00
62.6247 3180.00
62.6899 3222.00
62.7551 3168.00
62.8203 3140.00
62.8855 3107.00
62.9507 3075.00
63.0159 3121.00
63.0811 2994.00
63.1463 3183.00
63.2115 3054.00
63.2767 2971.00
63.3419 3111.00
63.4071 2989.00
63.4723 3103.00
63.5375 3042.00
63.6027 3025.00
63.6679 3032.00
63.7331 3123.00
63.7983 3046.00
63.8635 3172.00
63.9287 3181.00
63.9939 3236.00
64.0591 3343.00
64.1243 3407.00
64.1895 3733.00
64.2547 3633.00
64.3199 3297.00
64.3851 3509.00
64.4503 3168.00
64.5155 3073.00
64.5807 3040.00
64.6459 3094.00
64.7111 3024.00
64.7763 3141.00
64.8415 3017.00
64.9067 3146.00
64.9719 3031.00
65.0371 3090.00
65.1023 3168.00
65.1675 3001.00
65.2327 3022.00
65.2979 3009.00
65.3631 3128.00
65.4283 2973.00
65.4935 3093.00
65.5587 2996.00
65.6239 3058.00
65.6891 3101.00
65.7543 2968.00
65.8195 3110.00
65.8847 3004.00
65.9499 3015.00
66.0151 3000.00
66.0803 3112.00
66.1455 3059.00
66.2107 3055.00
66.2759 3059.00
66.3411 3165.00
66.4063 2998.00
66.4715 2987.00
66.5367 3185.00
66.6019 3064.00
66.6671 3039.00
66.7322 3065.00
66.7974 3108.00
66.8626 3143.00
66.9278 3074.00
66.993 2990.00
67.0582 3068.00
67.1234 3135.00
67.1886 3226.00
67.2538 3070.00
67.319 3141.00
67.3842 3203.00
67.4494 3029.00
67.5146 3065.00
67.5798 3101.00
67.645 2976.00
67.7102 3121.00
67.7754 3039.00
67.8406 3031.00
67.9058 3088.00
67.971 3077.00
68.0362 3091.00
68.1014 3099.00
68.1666 3061.00
68.2318 3086.00
68.297 3094.00
68.3622 3157.00
68.4274 3134.00
68.4926 3097.00
68.5578 3074.00
68.623 3056.00
68.6882 3128.00
68.7534 3142.00
68.8186 3104.00
68.8838 3202.00
68.949 3017.00
69.0142 3187.00
69.0794 3164.00
69.1446 3086.00
69.2098 3183.00
69.275 3161.00
69.3402 3134.00
69.4054 3117.00
69.4706 3107.00
69.5358 3069.00
69.601 3105.00
69.6662 3158.00
69.7314 3142.00
69.7966 3224.00
69.8618 3426.00
69.927 3722.00
69.9922 3229.00
70.0574 3236.00
70.1226 3361.00
70.1878 3109.00
70.253 3201.00
70.3182 3159.00
70.3834 3075.00
70.4486 2963.00
70.5138 3041.00
70.579 3081.00
70.6442 3039.00
70.7094 3148.00
70.7746 3089.00
70.8398 2937.00
70.905 3091.00
70.9702 3059.00
71.0354 3034.00
71.1006 3057.00
71.1658 3031.00
71.231 3039.00
71.2962 3014.00
71.3614 3083.00
71.4266 3066.00
71.4918 3127.00
71.5569 3175.00
71.6221 3080.00
71.6873 3105.00
71.7525 3351.00
71.8177 3240.00
71.8829 3082.00
71.9481 3157.00
72.0133 3233.00
72.0785 3133.00
72.1437 3091.00
72.2089 3052.00
72.2741 3029.00
72.3393 3017.00
72.4045 3022.00
72.4697 3038.00
72.5349 3044.00
72.6001 3091.00
72.6653 3110.00
72.7305 3054.00
72.7957 3053.00
72.8609 3043.00
72.9261 3061.00
72.9913 2973.00
73.0565 3110.00
73.1217 3074.00
73.1869 3043.00
73.2521 3057.00
73.3173 3004.00
73.3825 3139.00
73.4477 3088.00
73.5129 3037.00
73.5781 3014.00
73.6433 3026.00
73.7085 3137.00
73.7737 3108.00
73.8389 3086.00
73.9041 3161.00
73.9693 3089.00
74.0345 3131.00
74.0997 3104.00
74.1649 3151.00
74.2301 3008.00
74.2953 3109.00
74.3605 3107.00
74.4257 3109.00
74.4909 3239.00
74.5561 3102.00
74.6213 3395.00
74.6865 3810.00
74.7517 3283.00
74.8169 3171.00
74.8821 3370.00
74.9473 3285.00
75.0125 3073.00
75.0777 3129.00
75.1429 3037.00
75.2081 3066.00
75.2733 3020.00
75.3385 3090.00
75.4037 3003.00
75.4689 3030.00
75.5341 3068.00
75.5993 3144.00
75.6645 3090.00
75.7297 2999.00
75.7949 3090.00
75.8601 3146.00
75.9253 3224.00
75.9905 2984.00
76.0557 3043.00
76.1209 3128.00
76.186 3184.00
76.2513 3091.00
76.3165 3042.00
76.3816 3047.00
76.4468 3035.00
76.512 3094.00
76.5772 3226.00
76.6424 3134.00
76.7076 3059.00
76.7728 3098.00
76.838 3217.00
76.9032 3146.00
76.9684 3161.00
77.0336 3205.00
77.0988 3210.00
77.164 3064.00
77.2292 3154.00
77.2944 3105.00
77.3596 3149.00
77.4248 3086.00
77.49 3079.00
77.5552 3066.00
77.6204 3052.00
77.6856 3064.00
77.7508 3207.00
77.816 3031.00
77.8812 2977.00
77.9464 3080.00
78.0116 3078.00
78.0768 3015.00
78.142 3116.00
78.2072 3109.00
78.2724 3036.00
78.3376 3048.00
78.4028 3049.00
78.468 2949.00
78.5332 3062.00
78.5984 2975.00
78.6636 3164.00
78.7288 3051.00
78.794 3072.00
78.8592 3047.00
78.9244 2927.00
78.9896 3064.00
79.0548 3124.00
79.12 2944.00
79.1852 3007.00
79.2504 3089.00
79.3156 3023.00
79.3808 3212.00
79.446 3051.00
79.5112 3078.00
79.5764 3168.00
79.6416 3303.00
79.7068 3609.00
79.772 3123.00
79.8372 3070.00
79.9024 3344.00
79.9676 3371.00
80.0328 3339.00
80.098 3398.00
80.1632 3292.00
80.2284 3215.00
80.2936 3306.00
80.3588 3193.00
80.424 3134.00
80.4892 3115.00
80.5544 3033.00
80.6196 3075.00
80.6848 3068.00
80.75 3008.00
80.8152 3004.00
80.8804 2990.00
80.9456 3125.00
81.0108 3008.00
81.076 3041.00
81.1412 3071.00
81.2063 3031.00
81.2715 3046.00
81.3367 3065.00
81.4019 3011.00
81.4671 3081.00
81.5323 2986.00
81.5975 3107.00
81.6627 3147.00
81.7279 3061.00
81.7931 3249.00
81.8583 3402.00
81.9235 3163.00
81.9887 3045.00
82.0539 3201.00
82.1191 3201.00
82.1843 3009.00
82.2495 3061.00
82.3147 3003.00
82.3799 3047.00
82.4451 3163.00
82.5103 3151.00
82.5755 3107.00
82.6407 2988.00
82.7059 3038.00
82.7711 3065.00
82.8363 3048.00
82.9015 3058.00
82.9667 3022.00
83.0319 3007.00
83.0971 2975.00
83.1623 2972.00
83.2275 3046.00
83.2927 3054.00
83.3579 3053.00
83.4231 3127.00
83.4883 3059.00
83.5535 2964.00
83.6187 3001.00
83.6839 3065.00
83.7491 3053.00
83.8143 3026.00
83.8795 3076.00
83.9447 3020.00
84.0099 2952.00
84.0751 3036.00
84.1403 2982.00
84.2055 3099.00
84.2707 3062.00
84.3359 3097.00
84.4011 2974.00
84.4663 3150.00
84.5315 2990.00
84.5967 2993.00
84.6619 3061.00
84.7271 3027.00
84.7923 2996.00
84.8575 3010.00
84.9227 3047.00
84.9879 3067.00
85.0531 2888.00
85.1183 3159.00
85.1835 3030.00
85.2487 3015.00
85.3139 3122.00
85.3791 2937.00
85.4443 3129.00
85.5095 3043.00
85.5747 3045.00
85.6399 3299.00
85.7051 3163.00
85.7703 3052.00
85.8354 3031.00
85.9006 3003.00
85.9659 3246.00
86.031 3053.00
86.0962 2984.00
86.1614 3115.00
86.2266 2997.00
86.2918 2940.00
86.357 3011.00
86.4222 3030.00
86.4874 2961.00
86.5526 3016.00
86.6178 2960.00
86.683 3072.00
86.7482 2906.00
86.8134 3146.00
86.8786 3048.00
86.9438 3025.00
87.009 3115.00
87.0742 3112.00
87.1394 3048.00
87.2046 3044.00
87.2698 3126.00
87.335 3171.00
87.4002 3015.00
87.4654 3115.00
87.5306 3017.00
87.5958 2944.00
87.661 3078.00
87.7262 3107.00
87.7914 3067.00
87.8566 3016.00
87.9218 3125.00
87.987 3090.00
88.0522 3009.00
88.1174 3010.00
88.1826 2956.00
88.2478 3007.00
88.313 2940.00
88.3782 3038.00
88.4434 3000.00
88.5086 3052.00
88.5738 3038.00
88.639 3025.00
88.7042 2986.00
88.7694 2963.00
88.8346 3041.00
88.8998 3024.00
88.965 3001.00
89.0302 2936.00
89.0954 2994.00
89.1606 2966.00
89.2258 2978.00
89.291 3041.00
89.3562 3109.00
89.4214 3074.00
89.4866 3097.00
89.5518 3094.00
89.617 3066.00
89.6822 3121.00
89.7474 2992.00
89.8126 3073.00
89.8778 3002.00
89.943 3170.00
90.0082 2998.00
90.0734 3131.00
90.1386 3008.00
90.2038 3002.00
90.269 3114.00
90.3342 2909.00
90.3994 3012.00
90.4646 3035.00
90.5298 3092.00
90.595 3092.00
90.6601 3032.00
90.7253 2999.00
90.7905 3000.00
90.8557 2955.00
90.9209 3066.00
90.9861 3096.00
91.0513 3052.00
91.1165 3007.00
91.1817 3070.00
91.2469 3051.00
91.3121 2974.00
91.3773 3090.00
91.4425 3086.00
91.5077 2976.00
91.5729 3077.00
91.6381 3006.00
91.7033 2988.00
91.7685 3053.00
91.8337 3085.00
91.8989 3025.00
91.9641 3051.00
92.0293 3084.00
92.0945 3101.00
92.1597 2995.00
92.2249 2935.00
92.2901 3027.00
92.3553 3069.00
92.4205 2902.00
92.4857 2944.00
92.5509 3058.00
92.6161 3017.00
92.6813 3069.00
92.7465 3021.00
92.8117 3009.00
92.8769 3101.00
92.9421 3010.00
93.0073 3059.00
93.0725 3059.00
93.1377 3101.00
93.2029 3109.00
93.2681 3133.00
93.3333 2971.00
93.3985 2987.00
93.4637 3107.00
93.5289 3063.00
93.5941 3127.00
93.6593 3079.00
93.7245 2928.00
93.7897 3047.00
93.8549 3036.00
93.9201 2992.00
93.9853 3046.00
94.0505 3110.00
94.1157 3043.00
94.1809 3014.00
94.2461 3054.00
94.3113 3092.00
94.3765 3041.00
94.4417 3143.00
94.5069 2976.00
94.5721 3018.00
94.6373 2984.00
94.7025 3021.00
94.7677 3134.00
94.8329 3078.00
94.8981 3074.00
94.9633 3025.00
95.0285 3014.00
95.0937 3078.00
95.1589 3106.00
95.2241 3065.00
95.2893 3096.00
95.3545 3186.00
95.4197 3256.00
95.4848 3255.00
95.55 3097.00
95.6153 3154.00
95.6804 3111.00
95.7456 3159.00
95.8108 3002.00
95.876 3072.00
95.9412 3032.00
96.0064 2956.00
96.0716 3072.00
96.1368 3064.00
96.202 2937.00
96.2672 2966.00
96.3324 3035.00
96.3976 3055.00
96.4628 3126.00
96.528 3113.00
96.5932 3230.00
96.6584 3051.00
96.7236 2990.00
96.7888 3017.00
96.854 3178.00
96.9192 3063.00
96.9844 3037.00
97.0496 3052.00
97.1148 3070.00
97.18 3044.00
97.2452 2947.00
97.3104 3037.00
97.3756 3033.00
97.4408 3174.00
97.506 3018.00
97.5712 3068.00
97.6364 3035.00
97.7016 3008.00
97.7668 2979.00
97.832 3158.00
97.8972 2938.00
97.9624 2966.00
98.0276 3093.00
98.0928 3096.00
98.158 3030.00
98.2232 2999.00
98.2884 3023.00
98.3536 2997.00
98.4188 2978.00
98.484 3108.00
98.5492 2952.00
98.6144 3064.00
98.6796 2968.00
98.7448 3152.00
98.81 3167.00
98.8752 3136.00
98.9404 3175.00
99.0056 3136.00
99.0708 3068.00
99.136 3026.00
99.2012 3092.00
99.2664 3129.00
99.3316 3159.00
99.3968 3092.00
99.462 3106.00
99.5272 3141.00
99.5924 3246.00
99.6576 3193.00
99.7228 3382.00
99.788 3068.00
99.8532 3106.00
99.9184 3163.00
99.9836 3164.00
99.9944 3193.00