File: data/xrd_creation/results/PG_1020-1.xy
10.0094 2637.00
10.0746 2475.00
10.1398 2506.00
10.205 2423.00
10.2702 2461.00
10.3354 2494.00
10.4006 2399.00
10.4658 2399.00
10.531 2340.00
10.5962 2443.00
10.6614 2326.00
10.7266 2365.00
10.7918 2375.00
10.857 2308.00
10.9222 2335.00
10.9874 2434.00
11.0526 2244.00
11.1178 2202.00
11.183 2207.00
11.2482 2291.00
11.3134 2207.00
11.3786 2236.00
11.4438 2215.00
11.509 2222.00
11.5742 2159.00
11.6394 2135.00
11.7046 2172.00
11.7698 2072.00
11.835 2117.00
11.9002 2017.00
11.9654 2068.00
12.0306 2096.00
12.0958 2044.00
12.161 2021.00
12.2262 2038.00
12.2914 2035.00
12.3566 1950.00
12.4218 2059.00
12.487 1935.00
12.5522 1988.00
12.6174 2002.00
12.6826 1953.00
12.7478 1952.00
12.813 1983.00
12.8782 1925.00
12.9434 1958.00
13.0086 1915.00
13.0738 1875.00
13.139 1902.00
13.2042 1823.00
13.2694 1849.00
13.3346 1891.00
13.3998 1818.00
13.465 1847.00
13.5302 1849.00
13.5954 1842.00
13.6606 1806.00
13.7258 1797.00
13.791 1833.00
13.8562 1778.00
13.9214 1774.00
13.9865 1771.00
14.0517 1769.00
14.1169 1686.00
14.1821 1782.00
14.2473 1756.00
14.3125 1756.00
14.3777 1721.00
14.4429 1771.00
14.5081 1719.00
14.5733 1739.00
14.6385 1785.00
14.7037 1859.00
14.7689 1754.00
14.8341 1629.00
14.8993 1698.00
14.9645 1713.00
15.0297 1682.00
15.0949 1753.00
15.1601 1702.00
15.2253 1701.00
15.2905 1783.00
15.3557 1722.00
15.4209 1600.00
15.4861 1680.00
15.5513 1618.00
15.6165 1668.00
15.6817 1643.00
15.7469 1624.00
15.8121 1640.00
15.8773 1609.00
15.9425 1579.00
16.0077 1698.00
16.0729 1664.00
16.1381 1620.00
16.2033 1542.00
16.2685 1651.00
16.3337 1570.00
16.3989 1590.00
16.4641 1652.00
16.5293 1652.00
16.5945 1619.00
16.6597 1613.00
16.7249 1563.00
16.7901 1650.00
16.8553 1582.00
16.9205 1504.00
16.9857 1529.00
17.0509 1509.00
17.1161 1532.00
17.1813 1523.00
17.2465 1575.00
17.3117 1570.00
17.3769 1617.00
17.4421 1667.00
17.5073 1721.00
17.5725 1989.00
17.6377 2321.00
17.7029 2940.00
17.7681 3324.00
17.8333 1990.00
17.8985 1619.00
17.9637 1513.00
18.0289 1554.00
18.0941 1466.00
18.1593 1484.00
18.2245 1570.00
18.2897 1544.00
18.3549 1487.00
18.4201 1499.00
18.4853 1442.00
18.5505 1444.00
18.6157 1484.00
18.6809 1432.00
18.7461 1436.00
18.8112 1401.00
18.8764 1469.00
18.9416 1420.00
19.0068 1461.00
19.072 1437.00
19.1372 1361.00
19.2024 1358.00
19.2676 1445.00
19.3328 1404.00
19.398 1361.00
19.4632 1402.00
19.5284 1413.00
19.5936 1377.00
19.6588 1386.00
19.724 1288.00
19.7892 1338.00
19.8544 1335.00
19.9196 1347.00
19.9848 1380.00
20.05 1398.00
20.1152 1330.00
20.1804 1389.00
20.2456 1307.00
20.3108 1291.00
20.376 1323.00
20.4412 1326.00
20.5064 1279.00
20.5716 1257.00
20.6368 1313.00
20.702 1245.00
20.7672 1281.00
20.8324 1295.00
20.8976 1330.00
20.9628 1274.00
21.028 1280.00
21.0932 1235.00
21.1584 1227.00
21.2236 1285.00
21.2888 1259.00
21.354 1229.00
21.4192 1300.00
21.4844 1301.00
21.5496 1317.00
21.6148 1216.00
21.68 1281.00
21.7452 1249.00
21.8104 1270.00
21.8756 1179.00
21.9408 1241.00
22.006 1218.00
22.0712 1177.00
22.1364 1284.00
22.2016 1250.00
22.2668 1225.00
22.332 1182.00
22.3972 1247.00
22.4624 1219.00
22.5276 1163.00
22.5928 1181.00
22.658 1197.00
22.7232 1207.00
22.7884 1211.00
22.8536 1238.00
22.9188 1175.00
22.984 1223.00
23.0492 1163.00
23.1144 1257.00
23.1796 1145.00
23.2448 1223.00
23.31 1233.00
23.3752 1239.00
23.4404 1221.00
23.5056 1256.00
23.5708 1193.00
23.6359 1207.00
23.7011 1276.00
23.7663 1318.00
23.8315 1431.00
23.8967 1565.00
23.9619 1941.00
24.0271 3122.00
24.0923 5811.00
24.1575 10567.00
24.2227 13651.00
24.2879 5868.00
24.3531 1702.00
24.4183 1419.00
24.4835 1475.00
24.5487 1461.00
24.6139 1642.00
24.6791 2029.00
24.7443 3084.00
24.8095 4692.00
24.8747 4689.00
24.9399 2602.00
25.0051 1470.00
25.0703 1307.00
25.1355 1216.00
25.2007 1215.00
25.2659 1198.00
25.3311 1122.00
25.3963 1124.00
25.4615 1113.00
25.5267 1075.00
25.5919 1102.00
25.6571 1114.00
25.7223 1098.00
25.7875 1080.00
25.8527 1088.00
25.9179 1040.00
25.9831 1050.00
26.0483 1024.00
26.1135 1070.00
26.1787 1025.00
26.2439 987.00
26.3091 1091.00
26.3743 1054.00
26.4395 1077.00
26.5047 1021.00
26.5699 1057.00
26.6351 1025.00
26.7003 1066.00
26.7655 1011.00
26.8307 962.00
26.8959 1075.00
26.9611 1061.00
27.0263 1070.00
27.0915 1065.00
27.1567 1060.00
27.2219 990.00
27.2871 981.00
27.3523 973.00
27.4175 1003.00
27.4827 1015.00
27.5479 1038.00
27.6131 1010.00
27.6783 968.00
27.7435 986.00
27.8087 1007.00
27.8739 978.00
27.9391 973.00
28.0043 1005.00
28.0695 985.00
28.1347 1028.00
28.1999 989.00
28.2651 935.00
28.3303 969.00
28.3955 981.00
28.4606 915.00
28.5258 1015.00
28.591 958.00
28.6562 966.00
28.7214 960.00
28.7866 1025.00
28.8518 934.00
28.917 932.00
28.9822 920.00
29.0474 970.00
29.1126 883.00
29.1778 914.00
29.243 980.00
29.3082 946.00
29.3734 942.00
29.4386 968.00
29.5038 944.00
29.569 968.00
29.6342 964.00
29.6994 940.00
29.7646 971.00
29.8298 1039.00
29.895 1254.00
29.9602 1900.00
30.0254 2566.00
30.0906 1790.00
30.1558 1181.00
30.221 1023.00
30.2862 967.00
30.3514 1074.00
30.4166 959.00
30.4818 1003.00
30.547 1038.00
30.6122 1026.00
30.6774 1029.00
30.7426 1115.00
30.8078 1253.00
30.873 1872.00
30.9382 3747.00
31.0034 8487.00
31.0686 12752.00
31.1338 6659.00
31.199 2010.00
31.2642 1243.00
31.3294 1142.00
31.3946 1051.00
31.4598 1008.00
31.525 959.00
31.5902 958.00
31.6554 881.00
31.7206 981.00
31.7858 913.00
31.851 923.00
31.9162 865.00
31.9814 827.00
32.0466 926.00
32.1118 887.00
32.177 875.00
32.2422 858.00
32.3074 878.00
32.3726 897.00
32.4378 814.00
32.503 889.00
32.5682 860.00
32.6334 910.00
32.6986 868.00
32.7638 842.00
32.829 823.00
32.8942 896.00
32.9594 863.00
33.0246 961.00
33.0898 940.00
33.1549 834.00
33.2201 877.00
33.2853 913.00
33.3505 877.00
33.4157 956.00
33.4809 905.00
33.5461 977.00
33.6113 1051.00
33.6765 1156.00
33.7417 1470.00
33.8069 2419.00
33.8721 4580.00
33.9373 6482.00
34.0025 4747.00
34.0677 2564.00
34.1329 1483.00
34.1981 1626.00
34.2633 2585.00
34.3285 4077.00
34.3937 2551.00
34.4589 1557.00
34.5241 992.00
34.5893 923.00
34.6545 905.00
34.7197 871.00
34.7849 870.00
34.8501 818.00
34.9153 884.00
34.9805 925.00
35.0457 855.00
35.1109 842.00
35.1761 795.00
35.2413 927.00
35.3065 889.00
35.3717 851.00
35.4369 1021.00
35.5021 1443.00
35.5673 1797.00
35.6325 1363.00
35.6977 1014.00
35.7629 876.00
35.8281 878.00
35.8933 863.00
35.9585 904.00
36.0237 902.00
36.0889 868.00
36.1541 895.00
36.2193 907.00
36.2845 1073.00
36.3497 1487.00
36.4149 2455.00
36.4801 4540.00
36.5453 5579.00
36.6105 4000.00
36.6757 2206.00
36.7409 1162.00
36.8061 1072.00
36.8713 953.00
36.9365 851.00
37.0017 855.00
37.0669 825.00
37.1321 770.00
37.1973 792.00
37.2625 780.00
37.3277 769.00
37.3929 803.00
37.4581 757.00
37.5233 800.00
37.5885 782.00
37.6537 789.00
37.7189 779.00
37.7841 787.00
37.8493 824.00
37.9145 774.00
37.9796 740.00
38.0448 734.00
38.11 784.00
38.1752 767.00
38.2404 752.00
38.3056 830.00
38.3708 913.00
38.436 1069.00
38.5012 1285.00
38.5664 1041.00
38.6316 1058.00
38.6968 1634.00
38.762 2552.00
38.8272 1665.00
38.8924 1295.00
38.9576 832.00
39.0228 755.00
39.088 812.00
39.1532 793.00
39.2184 750.00
39.2836 760.00
39.3488 777.00
39.414 699.00
39.4792 739.00
39.5444 668.00
39.6096 742.00
39.6748 757.00
39.74 739.00
39.8052 765.00
39.8704 745.00
39.9356 801.00
40.0008 917.00
40.066 1028.00
40.1312 1010.00
40.1964 950.00
40.2616 761.00
40.3268 758.00
40.392 756.00
40.4572 719.00
40.5224 804.00
40.5876 703.00
40.6528 741.00
40.718 695.00
40.7832 792.00
40.8484 944.00
40.9136 1288.00
40.9788 1292.00
41.044 993.00
41.1092 812.00
41.1744 756.00
41.2396 756.00
41.3048 749.00
41.37 741.00
41.4352 727.00
41.5004 749.00
41.5656 841.00
41.6308 946.00
41.696 1237.00
41.7612 2171.00
41.8264 2404.00
41.8916 1909.00
41.9568 1344.00
42.022 924.00
42.0872 776.00
42.1524 831.00
42.2176 721.00
42.2828 763.00
42.348 721.00
42.4132 722.00
42.4784 681.00
42.5436 710.00
42.6088 707.00
42.6739 672.00
42.7392 747.00
42.8043 685.00
42.8695 722.00
42.9347 649.00
42.9999 693.00
43.0651 687.00
43.1303 706.00
43.1955 689.00
43.2607 723.00
43.3259 737.00
43.3911 686.00
43.4563 616.00
43.5215 711.00
43.5867 695.00
43.6519 702.00
43.7171 697.00
43.7823 617.00
43.8475 745.00
43.9127 665.00
43.9779 752.00
44.0431 673.00
44.1083 702.00
44.1735 701.00
44.2387 721.00
44.3039 672.00
44.3691 712.00
44.4343 790.00
44.4995 993.00
44.5647 836.00
44.6299 826.00
44.6951 758.00
44.7603 696.00
44.8255 694.00
44.8907 690.00
44.9559 643.00
45.0211 670.00
45.0863 676.00
45.1515 676.00
45.2167 732.00
45.2819 720.00
45.3471 690.00
45.4123 684.00
45.4775 668.00
45.5427 699.00
45.6079 688.00
45.6731 704.00
45.7383 734.00
45.8035 746.00
45.8687 747.00
45.9339 955.00
45.9991 1450.00
46.0643 2262.00
46.1295 1357.00
46.1947 1529.00
46.2599 839.00
46.3251 790.00
46.3903 788.00
46.4555 765.00
46.5207 892.00
46.5859 1014.00
46.6511 1410.00
46.7163 3501.00
46.7815 7156.00
46.8467 3507.00
46.9119 3848.00
46.9771 1288.00
47.0423 929.00
47.1075 817.00
47.1727 778.00
47.2379 728.00
47.3031 698.00
47.3683 697.00
47.4335 686.00
47.4986 741.00
47.5639 733.00
47.629 705.00
47.6942 666.00
47.7594 715.00
47.8246 739.00
47.8898 853.00
47.955 1173.00
48.0202 917.00
48.0854 957.00
48.1506 737.00
48.2158 711.00
48.281 680.00
48.3462 681.00
48.4114 653.00
48.4766 676.00
48.5418 680.00
48.607 656.00
48.6722 686.00
48.7374 703.00
48.8026 633.00
48.8678 635.00
48.933 671.00
48.9982 679.00
49.0634 721.00
49.1286 865.00
49.1938 794.00
49.259 750.00
49.3242 736.00
49.3894 710.00
49.4546 671.00
49.5198 655.00
49.585 668.00
49.6502 626.00
49.7154 661.00
49.7806 657.00
49.8458 676.00
49.911 643.00
49.9762 673.00
50.0414 688.00
50.1066 672.00
50.1718 650.00
50.237 715.00
50.3022 806.00
50.3674 920.00
50.4326 1444.00
50.4978 2409.00
50.563 2409.00
50.6282 1848.00
50.6934 1542.00
50.7586 904.00
50.8238 789.00
50.889 711.00
50.9542 643.00
51.0194 661.00
51.0846 645.00
51.1498 662.00
51.215 651.00
51.2802 658.00
51.3454 634.00
51.4106 626.00
51.4758 647.00
51.541 631.00
51.6062 630.00
51.6714 601.00
51.7366 628.00
51.8018 655.00
51.867 674.00
51.9322 640.00
51.9974 652.00
52.0626 655.00
52.1278 607.00
52.193 659.00
52.2582 668.00
52.3233 623.00
52.3886 630.00
52.4537 678.00
52.5189 832.00
52.5841 760.00
52.6493 726.00
52.7145 749.00
52.7797 697.00
52.8449 608.00
52.9101 611.00
52.9753 605.00
53.0405 643.00
53.1057 669.00
53.1709 639.00
53.2361 625.00
53.3013 678.00
53.3665 667.00
53.4317 650.00
53.4969 657.00
53.5621 666.00
53.6273 641.00
53.6925 613.00
53.7577 654.00
53.8229 637.00
53.8881 672.00
53.9533 612.00
54.0185 649.00
54.0837 657.00
54.1489 648.00
54.2141 690.00
54.2793 784.00
54.3445 663.00
54.4097 729.00
54.4749 708.00
54.5401 701.00
54.6053 690.00
54.6705 724.00
54.7357 770.00
54.8009 794.00
54.8661 923.00
54.9313 1004.00
54.9965 1508.00
55.0617 2710.00
55.1269 4775.00
55.1921 4127.00
55.2573 3256.00
55.3225 3568.00
55.3877 2374.00
55.4529 1383.00
55.5181 1466.00
55.5833 904.00
55.6485 763.00
55.7137 709.00
55.7789 660.00
55.8441 715.00
55.9093 641.00
55.9745 628.00
56.0397 611.00
56.1049 683.00
56.1701 663.00
56.2353 614.00
56.3005 662.00
56.3657 633.00
56.4309 607.00
56.4961 620.00
56.5613 687.00
56.6265 639.00
56.6917 560.00
56.7569 611.00
56.8221 667.00
56.8873 602.00
56.9525 622.00
57.0177 655.00
57.0829 628.00
57.148 666.00
57.2132 606.00
57.2784 614.00
57.3436 676.00
57.4088 658.00
57.474 632.00
57.5392 656.00
57.6044 641.00
57.6696 652.00
57.7348 620.00
57.8 634.00
57.8652 683.00
57.9304 603.00
57.9956 636.00
58.0608 684.00
58.126 672.00
58.1912 650.00
58.2564 617.00
58.3216 671.00
58.3868 686.00
58.452 670.00
58.5172 737.00
58.5824 967.00
58.6476 1618.00
58.7128 1624.00
58.778 1201.00
58.8432 1367.00
58.9084 932.00
58.9736 801.00
59.0388 1217.00
59.104 1786.00
59.1692 1083.00
59.2344 1086.00
59.2996 1051.00
59.3648 704.00
59.43 593.00
59.4952 630.00
59.5604 655.00
59.6256 601.00
59.6908 607.00
59.756 610.00
59.8212 625.00
59.8864 626.00
59.9516 616.00
60.0168 625.00
60.082 815.00
60.1472 863.00
60.2124 737.00
60.2776 757.00
60.3428 630.00
60.408 642.00
60.4732 688.00
60.5384 610.00
60.6036 584.00
60.6688 609.00
60.734 583.00
60.7992 619.00
60.8644 601.00
60.9296 589.00
60.9948 565.00
61.06 595.00
61.1252 607.00
61.1904 554.00
61.2556 552.00
61.3208 591.00
61.386 586.00
61.4512 616.00
61.5164 588.00
61.5816 584.00
61.6468 623.00
61.712 647.00
61.7772 610.00
61.8424 610.00
61.9076 730.00
61.9727 623.00
62.0379 593.00
62.1031 633.00
62.1683 622.00
62.2335 633.00
62.2987 581.00
62.3639 605.00
62.4291 638.00
62.4943 583.00
62.5595 621.00
62.6247 608.00
62.6899 611.00
62.7551 598.00
62.8203 633.00
62.8855 578.00
62.9507 586.00
63.0159 623.00
63.0811 623.00
63.1463 617.00
63.2115 647.00
63.2767 656.00
63.3419 669.00
63.4071 711.00
63.4723 666.00
63.5375 747.00
63.6027 958.00
63.6679 1340.00
63.7331 1917.00
63.7983 1597.00
63.8635 1461.00
63.9287 1533.00
63.9939 1039.00
64.0591 946.00
64.1243 937.00
64.1895 950.00
64.2547 1633.00
64.3199 987.00
64.3851 920.00
64.4503 1101.00
64.5155 726.00
64.5807 668.00
64.6459 625.00
64.7111 667.00
64.7763 623.00
64.8415 637.00
64.9067 678.00
64.9719 652.00
65.0371 691.00
65.1023 709.00
65.1675 756.00
65.2327 962.00
65.2979 1407.00
65.3631 2008.00
65.4283 2086.00
65.4935 1585.00
65.5587 1533.00
65.6239 1323.00
65.6891 943.00
65.7543 761.00
65.8195 663.00
65.8847 663.00
65.9499 646.00
66.0151 564.00
66.0803 588.00
66.1455 612.00
66.2107 610.00
66.2759 581.00
66.3411 581.00
66.4063 624.00
66.4715 585.00
66.5367 573.00
66.6019 618.00
66.6671 614.00
66.7322 626.00
66.7974 610.00
66.8626 587.00
66.9278 634.00
66.993 636.00
67.0582 612.00
67.1234 595.00
67.1886 641.00
67.2538 629.00
67.319 616.00
67.3842 598.00
67.4494 607.00
67.5146 608.00
67.5798 568.00
67.645 593.00
67.7102 579.00
67.7754 600.00
67.8406 542.00
67.9058 607.00
67.971 521.00
68.0362 571.00
68.1014 609.00
68.1666 650.00
68.2318 569.00
68.297 608.00
68.3622 575.00
68.4274 623.00
68.4926 592.00
68.5578 585.00
68.623 675.00
68.6882 623.00
68.7534 602.00
68.8186 608.00
68.8838 611.00
68.949 574.00
69.0142 587.00
69.0794 633.00
69.1446 555.00
69.2098 562.00
69.275 635.00
69.3402 615.00
69.4054 601.00
69.4706 591.00
69.5358 598.00
69.601 597.00
69.6662 657.00
69.7314 632.00
69.7966 618.00
69.8618 748.00
69.927 1300.00
69.9922 1771.00
70.0574 868.00
70.1226 960.00
70.1878 1166.00
70.253 717.00
70.3182 649.00
70.3834 630.00
70.4486 679.00
70.5138 624.00
70.579 606.00
70.6442 603.00
70.7094 617.00
70.7746 606.00
70.8398 609.00
70.905 621.00
70.9702 589.00
71.0354 590.00
71.1006 605.00
71.1658 580.00
71.231 581.00
71.2962 605.00
71.3614 612.00
71.4266 586.00
71.4918 579.00
71.5569 603.00
71.6221 550.00
71.6873 582.00
71.7525 749.00
71.8177 943.00
71.8829 732.00
71.9481 639.00
72.0133 757.00
72.0785 673.00
72.1437 587.00
72.2089 581.00
72.2741 580.00
72.3393 607.00
72.4045 606.00
72.4697 624.00
72.5349 550.00
72.6001 581.00
72.6653 610.00
72.7305 590.00
72.7957 616.00
72.8609 628.00
72.9261 632.00
72.9913 626.00
73.0565 753.00
73.1217 950.00
73.1869 1142.00
73.2521 1071.00
73.3173 908.00
73.3825 971.00
73.4477 884.00
73.5129 786.00
73.5781 764.00
73.6433 706.00
73.7085 702.00
73.7737 675.00
73.8389 672.00
73.9041 650.00
73.9693 597.00
74.0345 593.00
74.0997 597.00
74.1649 596.00
74.2301 606.00
74.2953 590.00
74.3605 701.00
74.4257 646.00
74.4909 623.00
74.5561 661.00
74.6213 783.00
74.6865 1134.00
74.7517 1412.00
74.8169 802.00
74.8821 851.00
74.9473 1061.00
75.0125 737.00
75.0777 594.00
75.1429 616.00
75.2081 547.00
75.2733 610.00
75.3385 573.00
75.4037 577.00
75.4689 611.00
75.5341 592.00
75.5993 550.00
75.6645 529.00
75.7297 561.00
75.7949 590.00
75.8601 570.00
75.9253 571.00
75.9905 633.00
76.0557 624.00
76.1209 616.00
76.186 539.00
76.2513 637.00
76.3165 585.00
76.3816 562.00
76.4468 593.00
76.512 552.00
76.5772 528.00
76.6424 617.00
76.7076 610.00
76.7728 668.00
76.838 693.00
76.9032 837.00
76.9684 793.00
77.0336 843.00
77.0988 928.00
77.164 832.00
77.2292 814.00
77.2944 719.00
77.3596 755.00
77.4248 635.00
77.49 609.00
77.5552 605.00
77.6204 568.00
77.6856 610.00
77.7508 576.00
77.816 573.00
77.8812 550.00
77.9464 595.00
78.0116 556.00
78.0768 618.00
78.142 541.00
78.2072 559.00
78.2724 571.00
78.3376 592.00
78.4028 571.00
78.468 566.00
78.5332 535.00
78.5984 571.00
78.6636 578.00
78.7288 577.00
78.794 657.00
78.8592 649.00
78.9244 620.00
78.9896 587.00
79.0548 618.00
79.12 609.00
79.1852 714.00
79.2504 728.00
79.3156 829.00
79.3808 795.00
79.446 739.00
79.5112 750.00
79.5764 828.00
79.6416 836.00
79.7068 1110.00
79.772 1272.00
79.8372 780.00
79.9024 802.00
79.9676 1051.00
80.0328 952.00
80.098 1229.00
80.1632 956.00
80.2284 709.00
80.2936 759.00
80.3588 971.00
80.424 783.00
80.4892 692.00
80.5544 641.00
80.6196 649.00
80.6848 651.00
80.75 552.00
80.8152 548.00
80.8804 611.00
80.9456 556.00
81.0108 587.00
81.076 593.00
81.1412 606.00
81.2063 612.00
81.2715 613.00
81.3367 619.00
81.4019 603.00
81.4671 558.00
81.5323 570.00
81.5975 546.00
81.6627 613.00
81.7279 599.00
81.7931 640.00
81.8583 902.00
81.9235 888.00
81.9887 669.00
82.0539 687.00
82.1191 831.00
82.1843 771.00
82.2495 702.00
82.3147 743.00
82.3799 721.00
82.4451 682.00
82.5103 668.00
82.5755 776.00
82.6407 679.00
82.7059 616.00
82.7711 605.00
82.8363 646.00
82.9015 592.00
82.9667 607.00
83.0319 644.00
83.0971 582.00
83.1623 556.00
83.2275 560.00
83.2927 578.00
83.3579 525.00
83.4231 559.00
83.4883 576.00
83.5535 556.00
83.6187 563.00
83.6839 540.00
83.7491 587.00
83.8143 622.00
83.8795 581.00
83.9447 594.00
84.0099 553.00
84.0751 625.00
84.1403 613.00
84.2055 602.00
84.2707 645.00
84.3359 651.00
84.4011 722.00
84.4663 820.00
84.5315 762.00
84.5967 693.00
84.6619 736.00
84.7271 794.00
84.7923 631.00
84.8575 651.00
84.9227 617.00
84.9879 580.00
85.0531 550.00
85.1183 593.00
85.1835 559.00
85.2487 602.00
85.3139 570.00
85.3791 590.00
85.4443 535.00
85.5095 649.00
85.5747 579.00
85.6399 642.00
85.7051 881.00
85.7703 694.00
85.8354 715.00
85.9006 705.00
85.9659 730.00
86.031 692.00
86.0962 671.00
86.1614 654.00
86.2266 565.00
86.2918 555.00
86.357 586.00
86.4222 576.00
86.4874 574.00
86.5526 643.00
86.6178 627.00
86.683 767.00
86.7482 868.00
86.8134 806.00
86.8786 722.00
86.9438 640.00
87.009 704.00
87.0742 719.00
87.1394 682.00
87.2046 612.00
87.2698 562.00
87.335 592.00
87.4002 607.00
87.4654 608.00
87.5306 596.00
87.5958 577.00
87.661 561.00
87.7262 553.00
87.7914 572.00
87.8566 593.00
87.9218 539.00
87.987 564.00
88.0522 543.00
88.1174 561.00
88.1826 564.00
88.2478 518.00
88.313 556.00
88.3782 550.00
88.4434 547.00
88.5086 570.00
88.5738 539.00
88.639 576.00
88.7042 568.00
88.7694 560.00
88.8346 527.00
88.8998 615.00
88.965 566.00
89.0302 583.00
89.0954 580.00
89.1606 577.00
89.2258 581.00
89.291 540.00
89.3562 550.00
89.4214 622.00
89.4866 586.00
89.5518 531.00
89.617 587.00
89.6822 579.00
89.7474 547.00
89.8126 575.00
89.8778 574.00
89.943 597.00
90.0082 593.00
90.0734 607.00
90.1386 611.00
90.2038 700.00
90.269 730.00
90.3342 854.00
90.3994 1071.00
90.4646 1077.00
90.5298 892.00
90.595 799.00
90.6601 848.00
90.7253 860.00
90.7905 739.00
90.8557 631.00
90.9209 672.00
90.9861 625.00
91.0513 590.00
91.1165 586.00
91.1817 592.00
91.2469 573.00
91.3121 591.00
91.3773 538.00
91.4425 558.00
91.5077 565.00
91.5729 563.00
91.6381 575.00
91.7033 563.00
91.7685 525.00
91.8337 605.00
91.8989 585.00
91.9641 576.00
92.0293 545.00
92.0945 581.00
92.1597 597.00
92.2249 565.00
92.2901 575.00
92.3553 526.00
92.4205 569.00
92.4857 550.00
92.5509 596.00
92.6161 584.00
92.6813 542.00
92.7465 551.00
92.8117 532.00
92.8769 581.00
92.9421 598.00
93.0073 531.00
93.0725 549.00
93.1377 577.00
93.2029 561.00
93.2681 588.00
93.3333 569.00
93.3985 665.00
93.4637 645.00
93.5289 606.00
93.5941 564.00
93.6593 568.00
93.7245 585.00
93.7897 543.00
93.8549 599.00
93.9201 549.00
93.9853 552.00
94.0505 555.00
94.1157 588.00
94.1809 546.00
94.2461 623.00
94.3113 534.00
94.3765 586.00
94.4417 641.00
94.5069 651.00
94.5721 612.00
94.6373 626.00
94.7025 588.00
94.7677 626.00
94.8329 616.00
94.8981 562.00
94.9633 573.00
95.0285 580.00
95.0937 549.00
95.1589 577.00
95.2241 662.00
95.2893 694.00
95.3545 771.00
95.4197 920.00
95.4848 1309.00
95.55 1154.00
95.6153 924.00
95.6804 835.00
95.7456 850.00
95.8108 995.00
95.876 851.00
95.9412 707.00
96.0064 666.00
96.0716 627.00
96.1368 652.00
96.202 637.00
96.2672 586.00
96.3324 588.00
96.3976 585.00
96.4628 604.00
96.528 717.00
96.5932 747.00
96.6584 686.00
96.7236 578.00
96.7888 596.00
96.854 736.00
96.9192 752.00
96.9844 664.00
97.0496 647.00
97.1148 586.00
97.18 653.00
97.2452 621.00
97.3104 571.00
97.3756 616.00
97.4408 573.00
97.506 593.00
97.5712 585.00
97.6364 592.00
97.7016 594.00
97.7668 657.00
97.832 684.00
97.8972 685.00
97.9624 617.00
98.0276 580.00
98.0928 611.00
98.158 594.00
98.2232 615.00
98.2884 552.00
98.3536 608.00
98.4188 590.00
98.484 566.00
98.5492 600.00
98.6144 558.00
98.6796 561.00
98.7448 594.00
98.81 623.00
98.8752 573.00
98.9404 565.00
99.0056 580.00
99.0708 567.00
99.136 562.00
99.2012 598.00
99.2664 625.00
99.3316 660.00
99.3968 782.00
99.462 649.00
99.5272 603.00
99.5924 685.00
99.6576 788.00
99.7228 1094.00
99.788 961.00
99.8532 700.00
99.9184 640.00
99.9836 660.00
99.9944 668.00