File: data/xrd_creation/results/PG_1322-1.xy
10.0094 5416.00
10.0746 5570.00
10.1398 5497.00
10.205 5546.00
10.2702 5471.00
10.3354 5446.00
10.4006 5557.00
10.4658 5451.00
10.531 5561.00
10.5962 5623.00
10.6614 5417.00
10.7266 5548.00
10.7918 5543.00
10.857 5491.00
10.9222 5424.00
10.9874 5380.00
11.0526 5527.00
11.1178 5457.00
11.183 5561.00
11.2482 5484.00
11.3134 5478.00
11.3786 5644.00
11.4438 5585.00
11.509 5436.00
11.5742 5577.00
11.6394 5421.00
11.7046 5479.00
11.7698 5528.00
11.835 5669.00
11.9002 5505.00
11.9654 5527.00
12.0306 5675.00
12.0958 5588.00
12.161 5571.00
12.2262 5560.00
12.2914 5566.00
12.3566 5671.00
12.4218 5630.00
12.487 5501.00
12.5522 5534.00
12.6174 5614.00
12.6826 5547.00
12.7478 5545.00
12.813 5668.00
12.8782 5462.00
12.9434 5731.00
13.0086 5613.00
13.0738 5566.00
13.139 5529.00
13.2042 5528.00
13.2694 5532.00
13.3346 5593.00
13.3998 5605.00
13.465 5512.00
13.5302 5638.00
13.5954 5586.00
13.6606 5659.00
13.7258 5571.00
13.791 5855.00
13.8562 5699.00
13.9214 5548.00
13.9865 5702.00
14.0517 5598.00
14.1169 5724.00
14.1821 5533.00
14.2473 5588.00
14.3125 5609.00
14.3777 5764.00
14.4429 5690.00
14.5081 5726.00
14.5733 5677.00
14.6385 5850.00
14.7037 5787.00
14.7689 5801.00
14.8341 5651.00
14.8993 5689.00
14.9645 5812.00
15.0297 5661.00
15.0949 5711.00
15.1601 5804.00
15.2253 5734.00
15.2905 5705.00
15.3557 5701.00
15.4209 5646.00
15.4861 5796.00
15.5513 5548.00
15.6165 5642.00
15.6817 5657.00
15.7469 5889.00
15.8121 5713.00
15.8773 5915.00
15.9425 5827.00
16.0077 5894.00
16.0729 5885.00
16.1381 5704.00
16.2033 5819.00
16.2685 5771.00
16.3337 5704.00
16.3989 5787.00
16.4641 5852.00
16.5293 5832.00
16.5945 5800.00
16.6597 5710.00
16.7249 5770.00
16.7901 5736.00
16.8553 5794.00
16.9205 5846.00
16.9857 5859.00
17.0509 5857.00
17.1161 5906.00
17.1813 5913.00
17.2465 5822.00
17.3117 5786.00
17.3769 5804.00
17.4421 5826.00
17.5073 5799.00
17.5725 5776.00
17.6377 5869.00
17.7029 5840.00
17.7681 5830.00
17.8333 5824.00
17.8985 5891.00
17.9637 5771.00
18.0289 5935.00
18.0941 5891.00
18.1593 5783.00
18.2245 5906.00
18.2897 5793.00
18.3549 5793.00
18.4201 5817.00
18.4853 5921.00
18.5505 5728.00
18.6157 5794.00
18.6809 5911.00
18.7461 5957.00
18.8112 5932.00
18.8764 5895.00
18.9416 5828.00
19.0068 5966.00
19.072 5957.00
19.1372 5958.00
19.2024 5785.00
19.2676 5793.00
19.3328 5907.00
19.398 5869.00
19.4632 6031.00
19.5284 5875.00
19.5936 5809.00
19.6588 5923.00
19.724 6052.00
19.7892 5901.00
19.8544 5885.00
19.9196 5854.00
19.9848 5863.00
20.05 5891.00
20.1152 6006.00
20.1804 5879.00
20.2456 5927.00
20.3108 5895.00
20.376 5828.00
20.4412 6047.00
20.5064 6135.00
20.5716 6028.00
20.6368 5923.00
20.702 5929.00
20.7672 6006.00
20.8324 5972.00
20.8976 5821.00
20.9628 5871.00
21.028 5921.00
21.0932 6000.00
21.1584 5950.00
21.2236 5866.00
21.2888 5924.00
21.354 5934.00
21.4192 6137.00
21.4844 6060.00
21.5496 6222.00
21.6148 6569.00
21.68 7090.00
21.7452 6505.00
21.8104 5994.00
21.8756 6054.00
21.9408 5971.00
22.006 6011.00
22.0712 5938.00
22.1364 5885.00
22.2016 5961.00
22.2668 5893.00
22.332 5883.00
22.3972 5839.00
22.4624 5872.00
22.5276 5901.00
22.5928 5786.00
22.658 6031.00
22.7232 5929.00
22.7884 6127.00
22.8536 5894.00
22.9188 6079.00
22.984 6021.00
23.0492 5771.00
23.1144 6017.00
23.1796 5808.00
23.2448 5950.00
23.31 5935.00
23.3752 5976.00
23.4404 6102.00
23.5056 5897.00
23.5708 5966.00
23.6359 5962.00
23.7011 6107.00
23.7663 6008.00
23.8315 6063.00
23.8967 6035.00
23.9619 6134.00
24.0271 6134.00
24.0923 6117.00
24.1575 6164.00
24.2227 6095.00
24.2879 6372.00
24.3531 6857.00
24.4183 7382.00
24.4835 8371.00
24.5487 7897.00
24.6139 6560.00
24.6791 6270.00
24.7443 6058.00
24.8095 6010.00
24.8747 6019.00
24.9399 6053.00
25.0051 6010.00
25.0703 6121.00
25.1355 6104.00
25.2007 6027.00
25.2659 5937.00
25.3311 6013.00
25.3963 6141.00
25.4615 5987.00
25.5267 6094.00
25.5919 6040.00
25.6571 5981.00
25.7223 5990.00
25.7875 6129.00
25.8527 6096.00
25.9179 6053.00
25.9831 6050.00
26.0483 6099.00
26.1135 6184.00
26.1787 5955.00
26.2439 6116.00
26.3091 6066.00
26.3743 6078.00
26.4395 6018.00
26.5047 6124.00
26.5699 6013.00
26.6351 5937.00
26.7003 5907.00
26.7655 5946.00
26.8307 5876.00
26.8959 6066.00
26.9611 6198.00
27.0263 5947.00
27.0915 6002.00
27.1567 6050.00
27.2219 5966.00
27.2871 6117.00
27.3523 5976.00
27.4175 6011.00
27.4827 5858.00
27.5479 5980.00
27.6131 6043.00
27.6783 6127.00
27.7435 6078.00
27.8087 6142.00
27.8739 6107.00
27.9391 5951.00
28.0043 6017.00
28.0695 5979.00
28.1347 6027.00
28.1999 5978.00
28.2651 6041.00
28.3303 6056.00
28.3955 6003.00
28.4606 5959.00
28.5258 6123.00
28.591 6104.00
28.6562 5989.00
28.7214 5961.00
28.7866 5895.00
28.8518 6055.00
28.917 6240.00
28.9822 6028.00
29.0474 6007.00
29.1126 6138.00
29.1778 6151.00
29.243 5879.00
29.3082 6101.00
29.3734 6018.00
29.4386 6028.00
29.5038 6016.00
29.569 6010.00
29.6342 6128.00
29.6994 6168.00
29.7646 6284.00
29.8298 6080.00
29.895 6186.00
29.9602 6080.00
30.0254 6155.00
30.0906 6075.00
30.1558 5976.00
30.221 5968.00
30.2862 6090.00
30.3514 6039.00
30.4166 5964.00
30.4818 6098.00
30.547 6199.00
30.6122 6207.00
30.6774 6312.00
30.7426 6208.00
30.8078 6252.00
30.873 6595.00
30.9382 6714.00
31.0034 6802.00
31.0686 6305.00
31.1338 6113.00
31.199 6033.00
31.2642 5941.00
31.3294 5950.00
31.3946 6009.00
31.4598 6098.00
31.525 6135.00
31.5902 6065.00
31.6554 6102.00
31.7206 6013.00
31.7858 6097.00
31.851 6192.00
31.9162 6328.00
31.9814 6474.00
32.0466 7137.00
32.1118 8256.00
32.177 7990.00
32.2422 7133.00
32.3074 6538.00
32.3726 6236.00
32.4378 6051.00
32.503 6180.00
32.5682 6228.00
32.6334 6088.00
32.6986 5931.00
32.7638 6122.00
32.829 6028.00
32.8942 6213.00
32.9594 6100.00
33.0246 6330.00
33.0898 6157.00
33.1549 6503.00
33.2201 6628.00
33.2853 6965.00
33.3505 8194.00
33.4157 10939.00
33.4809 14657.00
33.5461 12589.00
33.6113 9197.00
33.6765 6809.00
33.7417 6576.00
33.8069 6279.00
33.8721 6314.00
33.9373 6152.00
34.0025 6094.00
34.0677 6060.00
34.1329 6223.00
34.1981 6140.00
34.2633 6144.00
34.3285 6312.00
34.3937 6269.00
34.4589 6523.00
34.5241 6355.00
34.5893 6158.00
34.6545 6060.00
34.7197 6235.00
34.7849 6132.00
34.8501 6177.00
34.9153 6001.00
34.9805 6132.00
35.0457 6088.00
35.1109 6019.00
35.1761 6229.00
35.2413 6048.00
35.3065 6177.00
35.3717 6153.00
35.4369 6034.00
35.5021 6264.00
35.5673 6215.00
35.6325 6188.00
35.6977 6357.00
35.7629 6623.00
35.8281 7408.00
35.8933 9415.00
35.9585 12690.00
36.0237 11142.00
36.0889 8973.00
36.1541 6912.00
36.2193 6437.00
36.2845 6618.00
36.3497 6560.00
36.4149 7479.00
36.4801 6884.00
36.5453 6392.00
36.6105 6166.00
36.6757 6056.00
36.7409 6138.00
36.8061 6078.00
36.8713 6059.00
36.9365 6070.00
37.0017 6102.00
37.0669 6127.00
37.1321 5976.00
37.1973 6254.00
37.2625 6568.00
37.3277 6391.00
37.3929 6427.00
37.4581 6105.00
37.5233 6121.00
37.5885 6119.00
37.6537 6063.00
37.7189 6136.00
37.7841 6053.00
37.8493 6075.00
37.9145 6131.00
37.9796 6112.00
38.0448 6135.00
38.11 5939.00
38.1752 6024.00
38.2404 6127.00
38.3056 6138.00
38.3708 6027.00
38.436 6049.00
38.5012 6054.00
38.5664 6122.00
38.6316 5893.00
38.6968 6059.00
38.762 6040.00
38.8272 6090.00
38.8924 6080.00
38.9576 6142.00
39.0228 6039.00
39.088 5970.00
39.1532 6083.00
39.2184 6118.00
39.2836 6082.00
39.3488 5964.00
39.414 6137.00
39.4792 6130.00
39.5444 6110.00
39.6096 6287.00
39.6748 6292.00
39.74 6221.00
39.8052 6170.00
39.8704 6410.00
39.9356 6481.00
40.0008 6329.00
40.066 6039.00
40.1312 6133.00
40.1964 6154.00
40.2616 6280.00
40.3268 6099.00
40.392 6145.00
40.4572 6204.00
40.5224 6101.00
40.5876 6181.00
40.6528 6028.00
40.718 6210.00
40.7832 6239.00
40.8484 6179.00
40.9136 6091.00
40.9788 6298.00
41.044 6488.00
41.1092 6974.00
41.1744 8222.00
41.2396 7536.00
41.3048 7090.00
41.37 6500.00
41.4352 6076.00
41.5004 6221.00
41.5656 6121.00
41.6308 6155.00
41.696 6194.00
41.7612 6133.00
41.8264 6078.00
41.8916 6105.00
41.9568 6116.00
42.022 6115.00
42.0872 5937.00
42.1524 6002.00
42.2176 5949.00
42.2828 6098.00
42.348 5943.00
42.4132 6089.00
42.4784 6099.00
42.5436 6069.00
42.6088 6021.00
42.6739 6049.00
42.7392 6103.00
42.8043 6001.00
42.8695 6211.00
42.9347 6103.00
42.9999 6109.00
43.0651 6104.00
43.1303 6096.00
43.1955 6066.00
43.2607 6090.00
43.3259 5998.00
43.3911 6050.00
43.4563 5991.00
43.5215 6061.00
43.5867 6115.00
43.6519 6049.00
43.7171 6233.00
43.7823 6313.00
43.8475 6439.00
43.9127 6257.00
43.9779 6240.00
44.0431 6061.00
44.1083 6119.00
44.1735 6011.00
44.2387 6117.00
44.3039 6009.00
44.3691 6106.00
44.4343 6147.00
44.4995 6095.00
44.5647 6117.00
44.6299 5920.00
44.6951 6110.00
44.7603 6030.00
44.8255 6015.00
44.8907 5980.00
44.9559 6124.00
45.0211 6127.00
45.0863 6155.00
45.1515 6019.00
45.2167 5977.00
45.2819 6052.00
45.3471 6122.00
45.4123 6057.00
45.4775 5934.00
45.5427 6026.00
45.6079 6228.00
45.6731 5956.00
45.7383 6222.00
45.8035 6055.00
45.8687 6134.00
45.9339 6111.00
45.9991 5986.00
46.0643 6183.00
46.1295 6086.00
46.1947 6297.00
46.2599 6210.00
46.3251 6030.00
46.3903 6028.00
46.4555 5964.00
46.5207 6082.00
46.5859 6066.00
46.6511 6007.00
46.7163 6160.00
46.7815 6015.00
46.8467 5906.00
46.9119 6082.00
46.9771 6137.00
47.0423 6054.00
47.1075 6124.00
47.1727 6026.00
47.2379 6081.00
47.3031 6048.00
47.3683 5983.00
47.4335 5975.00
47.4986 6036.00
47.5639 6053.00
47.629 5978.00
47.6942 6100.00
47.7594 5999.00
47.8246 6052.00
47.8898 5982.00
47.955 6126.00
48.0202 6097.00
48.0854 6119.00
48.1506 6030.00
48.2158 6306.00
48.281 6287.00
48.3462 6129.00
48.4114 6106.00
48.4766 6027.00
48.5418 6184.00
48.607 6031.00
48.6722 6059.00
48.7374 6027.00
48.8026 6032.00
48.8678 6097.00
48.933 5974.00
48.9982 6077.00
49.0634 6321.00
49.1286 6337.00
49.1938 6280.00
49.259 6214.00
49.3242 6204.00
49.3894 6155.00
49.4546 6226.00
49.5198 6347.00
49.585 6306.00
49.6502 6771.00
49.7154 8015.00
49.7806 9223.00
49.8458 7975.00
49.911 7786.00
49.9762 6751.00
50.0414 6418.00
50.1066 6295.00
50.1718 6388.00
50.237 6024.00
50.3022 6302.00
50.3674 6219.00
50.4326 6195.00
50.4978 5957.00
50.563 6230.00
50.6282 6157.00
50.6934 6104.00
50.7586 5964.00
50.8238 6037.00
50.889 5983.00
50.9542 6019.00
51.0194 6129.00
51.0846 6081.00
51.1498 6055.00
51.215 5979.00
51.2802 6060.00
51.3454 6102.00
51.4106 5991.00
51.4758 5980.00
51.541 6069.00
51.6062 5949.00
51.6714 6007.00
51.7366 6196.00
51.8018 6085.00
51.867 6035.00
51.9322 6101.00
51.9974 6091.00
52.0626 6041.00
52.1278 5911.00
52.193 6113.00
52.2582 6124.00
52.3233 5878.00
52.3886 6016.00
52.4537 6042.00
52.5189 6049.00
52.5841 6065.00
52.6493 6057.00
52.7145 6042.00
52.7797 5997.00
52.8449 6036.00
52.9101 6160.00
52.9753 6133.00
53.0405 6269.00
53.1057 6066.00
53.1709 6081.00
53.2361 6058.00
53.3013 6123.00
53.3665 6099.00
53.4317 6115.00
53.4969 5967.00
53.5621 6206.00
53.6273 6085.00
53.6925 6053.00
53.7577 6234.00
53.8229 6253.00
53.8881 6151.00
53.9533 6165.00
54.0185 6360.00
54.0837 6094.00
54.1489 6470.00
54.2141 6713.00
54.2793 7723.00
54.3445 9819.00
54.4097 8913.00
54.4749 8326.00
54.5401 7771.00
54.6053 6701.00
54.6705 6384.00
54.7357 6333.00
54.8009 6080.00
54.8661 6213.00
54.9313 6049.00
54.9965 5989.00
55.0617 6090.00
55.1269 6158.00
55.1921 6089.00
55.2573 6117.00
55.3225 6104.00
55.3877 6039.00
55.4529 6218.00
55.5181 6096.00
55.5833 6151.00
55.6485 6057.00
55.7137 5919.00
55.7789 6202.00
55.8441 6012.00
55.9093 6142.00
55.9745 6232.00
56.0397 6093.00
56.1049 6021.00
56.1701 6163.00
56.2353 5999.00
56.3005 6154.00
56.3657 6114.00
56.4309 6183.00
56.4961 6115.00
56.5613 6105.00
56.6265 6041.00
56.6917 6214.00
56.7569 6121.00
56.8221 6033.00
56.8873 6120.00
56.9525 6084.00
57.0177 6205.00
57.0829 6406.00
57.148 6191.00
57.2132 6248.00
57.2784 6172.00
57.3436 6241.00
57.4088 6093.00
57.474 6117.00
57.5392 6178.00
57.6044 6238.00
57.6696 6207.00
57.7348 6507.00
57.8 6814.00
57.8652 7019.00
57.9304 6708.00
57.9956 6544.00
58.0608 6549.00
58.126 6213.00
58.1912 6250.00
58.2564 6163.00
58.3216 6143.00
58.3868 6118.00
58.452 6180.00
58.5172 6219.00
58.5824 6039.00
58.6476 6252.00
58.7128 6241.00
58.778 6198.00
58.8432 6118.00
58.9084 6200.00
58.9736 6163.00
59.0388 6041.00
59.104 6203.00
59.1692 6244.00
59.2344 6224.00
59.2996 6228.00
59.3648 6011.00
59.43 6319.00
59.4952 6099.00
59.5604 6105.00
59.6256 6068.00
59.6908 6132.00
59.756 6115.00
59.8212 5974.00
59.8864 6231.00
59.9516 6241.00
60.0168 6098.00
60.082 6265.00
60.1472 6220.00
60.2124 6233.00
60.2776 6168.00
60.3428 6128.00
60.408 6182.00
60.4732 5996.00
60.5384 6099.00
60.6036 6037.00
60.6688 5991.00
60.734 6346.00
60.7992 6061.00
60.8644 6185.00
60.9296 6231.00
60.9948 6258.00
61.06 6246.00
61.1252 6005.00
61.1904 6077.00
61.2556 6061.00
61.3208 6215.00
61.386 6234.00
61.4512 6011.00
61.5164 6140.00
61.5816 6271.00
61.6468 6234.00
61.712 6258.00
61.7772 6071.00
61.8424 6133.00
61.9076 6054.00
61.9727 6222.00
62.0379 6031.00
62.1031 6142.00
62.1683 6326.00
62.2335 6122.00
62.2987 6109.00
62.3639 6194.00
62.4291 6203.00
62.4943 6210.00
62.5595 6340.00
62.6247 6921.00
62.6899 8173.00
62.7551 8319.00
62.8203 7337.00
62.8855 7745.00
62.9507 7108.00
63.0159 6597.00
63.0811 6341.00
63.1463 6281.00
63.2115 6220.00
63.2767 6344.00
63.3419 6209.00
63.4071 6266.00
63.4723 6170.00
63.5375 6334.00
63.6027 6068.00
63.6679 6161.00
63.7331 6269.00
63.7983 6298.00
63.8635 6335.00
63.9287 6321.00
63.9939 6235.00
64.0591 6286.00
64.1243 6410.00
64.1895 6864.00
64.2547 8014.00
64.3199 8448.00
64.3851 7364.00
64.4503 7339.00
64.5155 7100.00
64.5807 6550.00
64.6459 6400.00
64.7111 6276.00
64.7763 6245.00
64.8415 6179.00
64.9067 6210.00
64.9719 6143.00
65.0371 6161.00
65.1023 6243.00
65.1675 6173.00
65.2327 6149.00
65.2979 5986.00
65.3631 5982.00
65.4283 6052.00
65.4935 6059.00
65.5587 6059.00
65.6239 6037.00
65.6891 6169.00
65.7543 6305.00
65.8195 6108.00
65.8847 6203.00
65.9499 6228.00
66.0151 6083.00
66.0803 6144.00
66.1455 6040.00
66.2107 6216.00
66.2759 6088.00
66.3411 6100.00
66.4063 6043.00
66.4715 6141.00
66.5367 6238.00
66.6019 6214.00
66.6671 6133.00
66.7322 6281.00
66.7974 6084.00
66.8626 6210.00
66.9278 6198.00
66.993 6249.00
67.0582 6123.00
67.1234 6163.00
67.1886 6130.00
67.2538 6168.00
67.319 6187.00
67.3842 6175.00
67.4494 6151.00
67.5146 6037.00
67.5798 6117.00
67.645 6118.00
67.7102 6271.00
67.7754 6283.00
67.8406 6120.00
67.9058 6220.00
67.971 6156.00
68.0362 6058.00
68.1014 6124.00
68.1666 6269.00
68.2318 6192.00
68.297 6164.00
68.3622 6179.00
68.4274 6144.00
68.4926 6124.00
68.5578 6176.00
68.623 6146.00
68.6882 6112.00
68.7534 6202.00
68.8186 6090.00
68.8838 6209.00
68.949 6189.00
69.0142 6140.00
69.0794 6199.00
69.1446 6199.00
69.2098 6222.00
69.275 6269.00
69.3402 6326.00
69.4054 6180.00
69.4706 6072.00
69.5358 6091.00
69.601 6174.00
69.6662 6297.00
69.7314 6271.00
69.7966 6161.00
69.8618 6401.00
69.927 6330.00
69.9922 6376.00
70.0574 6337.00
70.1226 6179.00
70.1878 6214.00
70.253 6222.00
70.3182 6298.00
70.3834 6187.00
70.4486 6004.00
70.5138 6051.00
70.579 6141.00
70.6442 6096.00
70.7094 6088.00
70.7746 6207.00
70.8398 6080.00
70.905 6154.00
70.9702 6305.00
71.0354 6089.00
71.1006 6222.00
71.1658 6142.00
71.231 6275.00
71.2962 6026.00
71.3614 6069.00
71.4266 6040.00
71.4918 6163.00
71.5569 6150.00
71.6221 6239.00
71.6873 6096.00
71.7525 6415.00
71.8177 6267.00
71.8829 6155.00
71.9481 6364.00
72.0133 6286.00
72.0785 6563.00
72.1437 6833.00
72.2089 6951.00
72.2741 6542.00
72.3393 6597.00
72.4045 6559.00
72.4697 6371.00
72.5349 6485.00
72.6001 6289.00
72.6653 6179.00
72.7305 6287.00
72.7957 6224.00
72.8609 6215.00
72.9261 6288.00
72.9913 6136.00
73.0565 6250.00
73.1217 6238.00
73.1869 6116.00
73.2521 6279.00
73.3173 6156.00
73.3825 6262.00
73.4477 6317.00
73.5129 6240.00
73.5781 6070.00
73.6433 6135.00
73.7085 6159.00
73.7737 6403.00
73.8389 6130.00
73.9041 6252.00
73.9693 6117.00
74.0345 6299.00
74.0997 6184.00
74.1649 6171.00
74.2301 6245.00
74.2953 6282.00
74.3605 6121.00
74.4257 6081.00
74.4909 6303.00
74.5561 6073.00
74.6213 6104.00
74.6865 6228.00
74.7517 6319.00
74.8169 6255.00
74.8821 6241.00
74.9473 6081.00
75.0125 6276.00
75.0777 6312.00
75.1429 6063.00
75.2081 6122.00
75.2733 6251.00
75.3385 6246.00
75.4037 6304.00
75.4689 6266.00
75.5341 6284.00
75.5993 6324.00
75.6645 6587.00
75.7297 6717.00
75.7949 6518.00
75.8601 6394.00
75.9253 6477.00
75.9905 6485.00
76.0557 6204.00
76.1209 6195.00
76.186 6113.00
76.2513 6272.00
76.3165 6224.00
76.3816 6102.00
76.4468 6285.00
76.512 6156.00
76.5772 6167.00
76.6424 6122.00
76.7076 6165.00
76.7728 6237.00
76.838 6030.00
76.9032 6144.00
76.9684 6075.00
77.0336 6176.00
77.0988 6199.00
77.164 6134.00
77.2292 6301.00
77.2944 6121.00
77.3596 6014.00
77.4248 6166.00
77.49 6144.00
77.5552 6195.00
77.6204 6143.00
77.6856 6261.00
77.7508 6152.00
77.816 6281.00
77.8812 6352.00
77.9464 6362.00
78.0116 6337.00
78.0768 6329.00
78.142 6268.00
78.2072 6364.00
78.2724 6218.00
78.3376 6242.00
78.4028 6172.00
78.468 6216.00
78.5332 6259.00
78.5984 6140.00
78.6636 6253.00
78.7288 6226.00
78.794 6230.00
78.8592 6127.00
78.9244 6142.00
78.9896 6112.00
79.0548 6203.00
79.12 6220.00
79.1852 6232.00
79.2504 6222.00
79.3156 6045.00
79.3808 6339.00
79.446 6105.00
79.5112 6021.00
79.5764 6108.00
79.6416 6260.00
79.7068 6299.00
79.772 6159.00
79.8372 6175.00
79.9024 6362.00
79.9676 6256.00
80.0328 6016.00
80.098 6115.00
80.1632 6055.00
80.2284 6124.00
80.2936 6182.00
80.3588 6332.00
80.424 6172.00
80.4892 6162.00
80.5544 6201.00
80.6196 6254.00
80.6848 6233.00
80.75 6303.00
80.8152 6484.00
80.8804 6535.00
80.9456 6543.00
81.0108 6330.00
81.076 6345.00
81.1412 6281.00
81.2063 6392.00
81.2715 6293.00
81.3367 6258.00
81.4019 6275.00
81.4671 6247.00
81.5323 6163.00
81.5975 6203.00
81.6627 6155.00
81.7279 6247.00
81.7931 6186.00
81.8583 6217.00
81.9235 6206.00
81.9887 6160.00
82.0539 6390.00
82.1191 6262.00
82.1843 6065.00
82.2495 6137.00
82.3147 6116.00
82.3799 6232.00
82.4451 6215.00
82.5103 6236.00
82.5755 6128.00
82.6407 6215.00
82.7059 6196.00
82.7711 6214.00
82.8363 6306.00
82.9015 6182.00
82.9667 6170.00
83.0319 6066.00
83.0971 6492.00
83.1623 6553.00
83.2275 6529.00
83.2927 6346.00
83.3579 6268.00
83.4231 6336.00
83.4883 6288.00
83.5535 6182.00
83.6187 6231.00
83.6839 6236.00
83.7491 6181.00
83.8143 6191.00
83.8795 6233.00
83.9447 6195.00
84.0099 6329.00
84.0751 6260.00
84.1403 6165.00
84.2055 6056.00
84.2707 6234.00
84.3359 6194.00
84.4011 6162.00
84.4663 6123.00
84.5315 6131.00
84.5967 6146.00
84.6619 6259.00
84.7271 6262.00
84.7923 6387.00
84.8575 6124.00
84.9227 6274.00
84.9879 6274.00
85.0531 6466.00
85.1183 6528.00
85.1835 6869.00
85.2487 6536.00
85.3139 6341.00
85.3791 6404.00
85.4443 6497.00
85.5095 6469.00
85.5747 6303.00
85.6399 6224.00
85.7051 6222.00
85.7703 6233.00
85.8354 6182.00
85.9006 6223.00
85.9659 6324.00
86.031 6060.00
86.0962 6111.00
86.1614 6263.00
86.2266 6315.00
86.2918 6260.00
86.357 6249.00
86.4222 6138.00
86.4874 6286.00
86.5526 6118.00
86.6178 6189.00
86.683 6112.00
86.7482 6275.00
86.8134 6126.00
86.8786 6248.00
86.9438 6261.00
87.009 6154.00
87.0742 6165.00
87.1394 6076.00
87.2046 6003.00
87.2698 6024.00
87.335 6225.00
87.4002 5987.00
87.4654 6117.00
87.5306 6107.00
87.5958 6146.00
87.661 6111.00
87.7262 6189.00
87.7914 6266.00
87.8566 6183.00
87.9218 6240.00
87.987 6191.00
88.0522 6249.00
88.1174 6293.00
88.1826 6231.00
88.2478 6247.00
88.313 6267.00
88.3782 6120.00
88.4434 6217.00
88.5086 6279.00
88.5738 6258.00
88.639 6355.00
88.7042 6541.00
88.7694 6842.00
88.8346 6795.00
88.8998 6316.00
88.965 6420.00
89.0302 6532.00
89.0954 6525.00
89.1606 6320.00
89.2258 6270.00
89.291 6305.00
89.3562 6270.00
89.4214 6191.00
89.4866 6184.00
89.5518 6364.00
89.617 6262.00
89.6822 6178.00
89.7474 6242.00
89.8126 6268.00
89.8778 6109.00
89.943 6038.00
90.0082 6124.00
90.0734 6194.00
90.1386 6202.00
90.2038 6213.00
90.269 6236.00
90.3342 6167.00
90.3994 6235.00
90.4646 6218.00
90.5298 6235.00
90.595 6189.00
90.6601 6274.00
90.7253 6177.00
90.7905 6245.00
90.8557 6190.00
90.9209 6194.00
90.9861 6114.00
91.0513 6154.00
91.1165 6275.00
91.1817 6160.00
91.2469 6243.00
91.3121 6379.00
91.3773 6244.00
91.4425 6258.00
91.5077 6379.00
91.5729 6262.00
91.6381 6354.00
91.7033 6193.00
91.7685 6034.00
91.8337 6269.00
91.8989 6121.00
91.9641 6176.00
92.0293 6179.00
92.0945 6198.00
92.1597 6201.00
92.2249 6310.00
92.2901 6197.00
92.3553 6174.00
92.4205 6132.00
92.4857 6233.00
92.5509 6235.00
92.6161 6333.00
92.6813 6169.00
92.7465 6184.00
92.8117 6149.00
92.8769 6116.00
92.9421 6270.00
93.0073 6273.00
93.0725 6215.00
93.1377 6257.00
93.2029 6197.00
93.2681 6156.00
93.3333 6336.00
93.3985 6380.00
93.4637 6318.00
93.5289 6285.00
93.5941 6258.00
93.6593 6280.00
93.7245 6303.00
93.7897 6504.00
93.8549 6736.00
93.9201 6670.00
93.9853 6584.00
94.0505 6396.00
94.1157 6463.00
94.1809 6413.00
94.2461 6309.00
94.3113 6437.00
94.3765 6187.00
94.4417 6316.00
94.5069 6207.00
94.5721 6010.00
94.6373 6167.00
94.7025 6257.00
94.7677 6235.00
94.8329 6199.00
94.8981 6264.00
94.9633 6280.00
95.0285 6237.00
95.0937 6203.00
95.1589 6249.00
95.2241 6158.00
95.2893 6458.00
95.3545 6268.00
95.4197 6331.00
95.4848 6191.00
95.55 6293.00
95.6153 6327.00
95.6804 6378.00
95.7456 6244.00
95.8108 6143.00
95.876 6365.00
95.9412 6274.00
96.0064 6384.00
96.0716 6227.00
96.1368 6263.00
96.202 6246.00
96.2672 6381.00
96.3324 6271.00
96.3976 6132.00
96.4628 6265.00
96.528 6093.00
96.5932 6329.00
96.6584 6171.00
96.7236 6290.00
96.7888 6152.00
96.854 6227.00
96.9192 6072.00
96.9844 6192.00
97.0496 6246.00
97.1148 6298.00
97.18 6222.00
97.2452 6188.00
97.3104 6178.00
97.3756 6189.00
97.4408 6196.00
97.506 6233.00
97.5712 6268.00
97.6364 6201.00
97.7016 6215.00
97.7668 6248.00
97.832 6383.00
97.8972 6190.00
97.9624 6077.00
98.0276 6128.00
98.0928 6417.00
98.158 6435.00
98.2232 6203.00
98.2884 6284.00
98.3536 6346.00
98.4188 6262.00
98.484 6273.00
98.5492 6305.00
98.6144 6090.00
98.6796 6143.00
98.7448 6177.00
98.81 6177.00
98.8752 6232.00
98.9404 6406.00
99.0056 6285.00
99.0708 6189.00
99.136 6202.00
99.2012 6191.00
99.2664 6232.00
99.3316 6260.00
99.3968 6191.00
99.462 6082.00
99.5272 6274.00
99.5924 6177.00
99.6576 6160.00
99.7228 6368.00
99.788 6259.00
99.8532 6214.00
99.9184 6318.00
99.9836 6402.00
99.9944 6295.00