File: data/xrd_creation/results/PG_1321-1.xy
10.0094 2555.00
10.0746 2385.00
10.1398 2464.00
10.205 2406.00
10.2702 2371.00
10.3354 2419.00
10.4006 2364.00
10.4658 2320.00
10.531 2326.00
10.5962 2372.00
10.6614 2302.00
10.7266 2224.00
10.7918 2378.00
10.857 2278.00
10.9222 2222.00
10.9874 2278.00
11.0526 2351.00
11.1178 2203.00
11.183 2295.00
11.2482 2192.00
11.3134 2221.00
11.3786 2250.00
11.4438 2190.00
11.509 2185.00
11.5742 2070.00
11.6394 2112.00
11.7046 2117.00
11.7698 2081.00
11.835 2029.00
11.9002 2090.00
11.9654 2135.00
12.0306 2029.00
12.0958 2062.00
12.161 1983.00
12.2262 2065.00
12.2914 1978.00
12.3566 2113.00
12.4218 1994.00
12.487 2016.00
12.5522 1995.00
12.6174 1891.00
12.6826 1970.00
12.7478 1891.00
12.813 1952.00
12.8782 1931.00
12.9434 1916.00
13.0086 1858.00
13.0738 1917.00
13.139 1871.00
13.2042 1882.00
13.2694 1814.00
13.3346 1757.00
13.3998 1853.00
13.465 1932.00
13.5302 1886.00
13.5954 1845.00
13.6606 1873.00
13.7258 1702.00
13.791 1825.00
13.8562 1925.00
13.9214 1808.00
13.9865 1800.00
14.0517 1822.00
14.1169 1793.00
14.1821 1850.00
14.2473 1805.00
14.3125 1796.00
14.3777 1865.00
14.4429 1754.00
14.5081 1843.00
14.5733 1812.00
14.6385 1802.00
14.7037 1758.00
14.7689 1788.00
14.8341 1833.00
14.8993 1745.00
14.9645 1851.00
15.0297 1762.00
15.0949 1863.00
15.1601 1833.00
15.2253 1876.00
15.2905 1956.00
15.3557 1918.00
15.4209 1938.00
15.4861 1994.00
15.5513 2175.00
15.6165 2502.00
15.6817 2742.00
15.7469 3250.00
15.8121 4162.00
15.8773 5355.00
15.9425 6193.00
16.0077 5200.00
16.0729 3518.00
16.1381 2668.00
16.2033 2185.00
16.2685 2022.00
16.3337 1849.00
16.3989 1863.00
16.4641 1830.00
16.5293 1729.00
16.5945 1768.00
16.6597 1765.00
16.7249 1715.00
16.7901 1754.00
16.8553 1745.00
16.9205 1705.00
16.9857 1667.00
17.0509 1655.00
17.1161 1711.00
17.1813 1781.00
17.2465 1712.00
17.3117 1634.00
17.3769 1650.00
17.4421 1741.00
17.5073 1681.00
17.5725 1667.00
17.6377 1629.00
17.7029 1664.00
17.7681 1706.00
17.8333 1744.00
17.8985 1528.00
17.9637 1654.00
18.0289 1680.00
18.0941 1656.00
18.1593 1575.00
18.2245 1610.00
18.2897 1586.00
18.3549 1622.00
18.4201 1590.00
18.4853 1600.00
18.5505 1613.00
18.6157 1640.00
18.6809 1618.00
18.7461 1590.00
18.8112 1566.00
18.8764 1644.00
18.9416 1560.00
19.0068 1502.00
19.072 1564.00
19.1372 1554.00
19.2024 1442.00
19.2676 1474.00
19.3328 1546.00
19.398 1514.00
19.4632 1461.00
19.5284 1535.00
19.5936 1516.00
19.6588 1453.00
19.724 1554.00
19.7892 1576.00
19.8544 1522.00
19.9196 1567.00
19.9848 1545.00
20.05 1460.00
20.1152 1524.00
20.1804 1553.00
20.2456 1482.00
20.3108 1497.00
20.376 1493.00
20.4412 1470.00
20.5064 1464.00
20.5716 1461.00
20.6368 1450.00
20.702 1465.00
20.7672 1484.00
20.8324 1544.00
20.8976 1517.00
20.9628 1383.00
21.028 1485.00
21.0932 1463.00
21.1584 1459.00
21.2236 1415.00
21.2888 1383.00
21.354 1453.00
21.4192 1453.00
21.4844 1409.00
21.5496 1466.00
21.6148 1464.00
21.68 1464.00
21.7452 1431.00
21.8104 1439.00
21.8756 1328.00
21.9408 1492.00
22.006 1445.00
22.0712 1410.00
22.1364 1476.00
22.2016 1402.00
22.2668 1439.00
22.332 1538.00
22.3972 1396.00
22.4624 1459.00
22.5276 1429.00
22.5928 1412.00
22.658 1448.00
22.7232 1338.00
22.7884 1354.00
22.8536 1411.00
22.9188 1443.00
22.984 1452.00
23.0492 1360.00
23.1144 1392.00
23.1796 1406.00
23.2448 1429.00
23.31 1438.00
23.3752 1416.00
23.4404 1451.00
23.5056 1358.00
23.5708 1372.00
23.6359 1381.00
23.7011 1365.00
23.7663 1423.00
23.8315 1403.00
23.8967 1316.00
23.9619 1434.00
24.0271 1348.00
24.0923 1445.00
24.1575 1418.00
24.2227 1451.00
24.2879 1485.00
24.3531 1601.00
24.4183 1943.00
24.4835 1797.00
24.5487 1521.00
24.6139 1342.00
24.6791 1368.00
24.7443 1341.00
24.8095 1399.00
24.8747 1305.00
24.9399 1367.00
25.0051 1402.00
25.0703 1311.00
25.1355 1357.00
25.2007 1353.00
25.2659 1374.00
25.3311 1345.00
25.3963 1383.00
25.4615 1341.00
25.5267 1255.00
25.5919 1395.00
25.6571 1390.00
25.7223 1328.00
25.7875 1354.00
25.8527 1358.00
25.9179 1326.00
25.9831 1354.00
26.0483 1279.00
26.1135 1257.00
26.1787 1355.00
26.2439 1289.00
26.3091 1335.00
26.3743 1325.00
26.4395 1414.00
26.5047 1374.00
26.5699 1334.00
26.6351 1383.00
26.7003 1381.00
26.7655 1422.00
26.8307 1370.00
26.8959 1420.00
26.9611 1391.00
27.0263 1481.00
27.0915 1550.00
27.1567 1596.00
27.2219 1753.00
27.2871 2063.00
27.3523 2513.00
27.4175 3346.00
27.4827 4531.00
27.5479 5423.00
27.6131 5527.00
27.6783 4032.00
27.7435 3092.00
27.8087 2390.00
27.8739 2265.00
27.9391 2273.00
28.0043 2525.00
28.0695 3239.00
28.1347 4553.00
28.1999 6256.00
28.2651 7713.00
28.3303 6677.00
28.3955 4587.00
28.4606 3160.00
28.5258 2349.00
28.591 1937.00
28.6562 1676.00
28.7214 1554.00
28.7866 1502.00
28.8518 1456.00
28.917 1411.00
28.9822 1397.00
29.0474 1341.00
29.1126 1355.00
29.1778 1350.00
29.243 1271.00
29.3082 1360.00
29.3734 1224.00
29.4386 1342.00
29.5038 1308.00
29.569 1275.00
29.6342 1337.00
29.6994 1243.00
29.7646 1283.00
29.8298 1329.00
29.895 1254.00
29.9602 1236.00
30.0254 1269.00
30.0906 1276.00
30.1558 1280.00
30.221 1317.00
30.2862 1241.00
30.3514 1301.00
30.4166 1290.00
30.4818 1226.00
30.547 1257.00
30.6122 1220.00
30.6774 1213.00
30.7426 1284.00
30.8078 1241.00
30.873 1294.00
30.9382 1231.00
31.0034 1233.00
31.0686 1214.00
31.1338 1247.00
31.199 1258.00
31.2642 1230.00
31.3294 1328.00
31.3946 1318.00
31.4598 1248.00
31.525 1443.00
31.5902 1386.00
31.6554 1498.00
31.7206 1691.00
31.7858 1945.00
31.851 2252.00
31.9162 2243.00
31.9814 1935.00
32.0466 1679.00
32.1118 1482.00
32.177 1429.00
32.2422 1366.00
32.3074 1339.00
32.3726 1274.00
32.4378 1267.00
32.503 1310.00
32.5682 1283.00
32.6334 1303.00
32.6986 1276.00
32.7638 1166.00
32.829 1247.00
32.8942 1178.00
32.9594 1313.00
33.0246 1208.00
33.0898 1328.00
33.1549 1275.00
33.2201 1388.00
33.2853 1804.00
33.3505 2411.00
33.4157 3260.00
33.4809 2671.00
33.5461 1837.00
33.6113 1381.00
33.6765 1232.00
33.7417 1272.00
33.8069 1259.00
33.8721 1171.00
33.9373 1166.00
34.0025 1216.00
34.0677 1185.00
34.1329 1232.00
34.1981 1235.00
34.2633 1148.00
34.3285 1203.00
34.3937 1134.00
34.4589 1182.00
34.5241 1150.00
34.5893 1170.00
34.6545 1209.00
34.7197 1212.00
34.7849 1158.00
34.8501 1215.00
34.9153 1153.00
34.9805 1203.00
35.0457 1197.00
35.1109 1143.00
35.1761 1147.00
35.2413 1217.00
35.3065 1191.00
35.3717 1250.00
35.4369 1157.00
35.5021 1203.00
35.5673 1224.00
35.6325 1176.00
35.6977 1317.00
35.7629 1421.00
35.8281 1702.00
35.8933 2516.00
35.9585 2528.00
36.0237 2029.00
36.0889 1557.00
36.1541 1454.00
36.2193 1599.00
36.2845 1665.00
36.3497 1570.00
36.4149 1490.00
36.4801 1332.00
36.5453 1234.00
36.6105 1184.00
36.6757 1174.00
36.7409 1147.00
36.8061 1168.00
36.8713 1182.00
36.9365 1164.00
37.0017 1084.00
37.0669 1122.00
37.1321 1152.00
37.1973 1198.00
37.2625 1117.00
37.3277 1101.00
37.3929 1157.00
37.4581 1136.00
37.5233 1205.00
37.5885 1134.00
37.6537 1145.00
37.7189 1137.00
37.7841 1171.00
37.8493 1130.00
37.9145 1156.00
37.9796 1119.00
38.0448 1147.00
38.11 1189.00
38.1752 1125.00
38.2404 1172.00
38.3056 1205.00
38.3708 1220.00
38.436 1096.00
38.5012 1172.00
38.5664 1228.00
38.6316 1108.00
38.6968 1209.00
38.762 1201.00
38.8272 1164.00
38.8924 1172.00
38.9576 1140.00
39.0228 1211.00
39.088 1182.00
39.1532 1328.00
39.2184 1268.00
39.2836 1412.00
39.3488 1472.00
39.414 1636.00
39.4792 1991.00
39.5444 2485.00
39.6096 3281.00
39.6748 4457.00
39.74 5491.00
39.8052 5255.00
39.8704 4381.00
39.9356 3237.00
40.0008 2493.00
40.066 2038.00
40.1312 1682.00
40.1964 1530.00
40.2616 1350.00
40.3268 1346.00
40.392 1238.00
40.4572 1253.00
40.5224 1229.00
40.5876 1196.00
40.6528 1224.00
40.718 1221.00
40.7832 1193.00
40.8484 1204.00
40.9136 1202.00
40.9788 1230.00
41.044 1404.00
41.1092 1672.00
41.1744 1569.00
41.2396 1412.00
41.3048 1301.00
41.37 1165.00
41.4352 1182.00
41.5004 1167.00
41.5656 1168.00
41.6308 1128.00
41.696 1131.00
41.7612 1152.00
41.8264 1170.00
41.8916 1189.00
41.9568 1143.00
42.022 1134.00
42.0872 1169.00
42.1524 1239.00
42.2176 1269.00
42.2828 1357.00
42.348 1485.00
42.4132 1701.00
42.4784 1947.00
42.5436 1891.00
42.6088 1776.00
42.6739 1589.00
42.7392 1390.00
42.8043 1278.00
42.8695 1235.00
42.9347 1226.00
42.9999 1127.00
43.0651 1155.00
43.1303 1142.00
43.1955 1091.00
43.2607 1146.00
43.3259 1155.00
43.3911 1103.00
43.4563 1181.00
43.5215 1118.00
43.5867 1157.00
43.6519 1142.00
43.7171 1133.00
43.7823 1127.00
43.8475 1100.00
43.9127 1182.00
43.9779 1121.00
44.0431 1168.00
44.1083 1165.00
44.1735 1055.00
44.2387 1041.00
44.3039 1109.00
44.3691 1048.00
44.4343 1035.00
44.4995 1130.00
44.5647 1139.00
44.6299 1088.00
44.6951 1073.00
44.7603 1101.00
44.8255 1096.00
44.8907 1145.00
44.9559 1120.00
45.0211 1109.00
45.0863 1108.00
45.1515 1092.00
45.2167 1151.00
45.2819 1057.00
45.3471 1072.00
45.4123 1133.00
45.4775 1062.00
45.5427 1049.00
45.6079 1107.00
45.6731 1061.00
45.7383 1131.00
45.8035 1107.00
45.8687 1134.00
45.9339 1163.00
45.9991 1096.00
46.0643 1065.00
46.1295 1173.00
46.1947 1086.00
46.2599 1111.00
46.3251 1093.00
46.3903 1065.00
46.4555 1041.00
46.5207 1160.00
46.5859 1093.00
46.6511 1097.00
46.7163 1094.00
46.7815 1077.00
46.8467 1200.00
46.9119 1178.00
46.9771 1197.00
47.0423 1230.00
47.1075 1284.00
47.1727 1320.00
47.2379 1511.00
47.3031 1740.00
47.3683 1888.00
47.4335 1782.00
47.4986 1701.00
47.5639 1525.00
47.629 1373.00
47.6942 1318.00
47.7594 1299.00
47.8246 1229.00
47.8898 1264.00
47.955 1230.00
48.0202 1322.00
48.0854 1410.00
48.1506 1456.00
48.2158 1605.00
48.281 1800.00
48.3462 2206.00
48.4114 2623.00
48.4766 2873.00
48.5418 2885.00
48.607 3001.00
48.6722 2956.00
48.7374 3221.00
48.8026 3882.00
48.8678 4532.00
48.933 4681.00
48.9982 4294.00
49.0634 3664.00
49.1286 2883.00
49.1938 2381.00
49.259 1857.00
49.3242 1652.00
49.3894 1444.00
49.4546 1433.00
49.5198 1343.00
49.585 1466.00
49.6502 1671.00
49.7154 2082.00
49.7806 1749.00
49.8458 1675.00
49.911 1450.00
49.9762 1402.00
50.0414 1383.00
50.1066 1592.00
50.1718 1620.00
50.237 1603.00
50.3022 1550.00
50.3674 1455.00
50.4326 1281.00
50.4978 1250.00
50.563 1220.00
50.6282 1178.00
50.6934 1139.00
50.7586 1105.00
50.8238 1092.00
50.889 1169.00
50.9542 1133.00
51.0194 1066.00
51.0846 1096.00
51.1498 1073.00
51.215 1049.00
51.2802 1089.00
51.3454 1066.00
51.4106 1133.00
51.4758 1074.00
51.541 1080.00
51.6062 1024.00
51.6714 1102.00
51.7366 1051.00
51.8018 1054.00
51.867 1067.00
51.9322 1083.00
51.9974 1020.00
52.0626 1159.00
52.1278 1076.00
52.193 1043.00
52.2582 1088.00
52.3233 1091.00
52.3886 1057.00
52.4537 1102.00
52.5189 1077.00
52.5841 1109.00
52.6493 1117.00
52.7145 1090.00
52.7797 1100.00
52.8449 1087.00
52.9101 1052.00
52.9753 1069.00
53.0405 1039.00
53.1057 1054.00
53.1709 1153.00
53.2361 1098.00
53.3013 999.00
53.3665 1104.00
53.4317 1105.00
53.4969 1088.00
53.5621 1069.00
53.6273 1143.00
53.6925 1070.00
53.7577 1110.00
53.8229 1138.00
53.8881 1064.00
53.9533 1184.00
54.0185 1067.00
54.0837 1125.00
54.1489 1233.00
54.2141 1503.00
54.2793 1996.00
54.3445 1795.00
54.4097 1606.00
54.4749 1489.00
54.5401 1218.00
54.6053 1186.00
54.6705 1134.00
54.7357 1153.00
54.8009 1087.00
54.8661 1120.00
54.9313 1158.00
54.9965 1106.00
55.0617 1081.00
55.1269 1227.00
55.1921 1178.00
55.2573 1351.00
55.3225 1470.00
55.3877 1513.00
55.4529 1828.00
55.5181 2030.00
55.5833 2093.00
55.6485 1923.00
55.7137 1722.00
55.7789 1592.00
55.8441 1359.00
55.9093 1326.00
55.9745 1235.00
56.0397 1201.00
56.1049 1142.00
56.1701 1221.00
56.2353 1217.00
56.3005 1320.00
56.3657 1377.00
56.4309 1409.00
56.4961 1564.00
56.5613 1518.00
56.6265 1490.00
56.6917 1490.00
56.7569 1384.00
56.8221 1275.00
56.8873 1205.00
56.9525 1168.00
57.0177 1144.00
57.0829 1152.00
57.148 1140.00
57.2132 1138.00
57.2784 1130.00
57.3436 1087.00
57.4088 1116.00
57.474 1151.00
57.5392 1139.00
57.6044 1213.00
57.6696 1193.00
57.7348 1298.00
57.8 1343.00
57.8652 1336.00
57.9304 1293.00
57.9956 1373.00
58.0608 1348.00
58.126 1304.00
58.1912 1293.00
58.2564 1305.00
58.3216 1187.00
58.3868 1201.00
58.452 1167.00
58.5172 1135.00
58.5824 1094.00
58.6476 1100.00
58.7128 1206.00
58.778 1131.00
58.8432 1229.00
58.9084 1202.00
58.9736 1333.00
59.0388 1314.00
59.104 1309.00
59.1692 1291.00
59.2344 1242.00
59.2996 1221.00
59.3648 1114.00
59.43 1088.00
59.4952 1076.00
59.5604 1082.00
59.6256 1064.00
59.6908 1074.00
59.756 1107.00
59.8212 1048.00
59.8864 1076.00
59.9516 1034.00
60.0168 982.00
60.082 1042.00
60.1472 1076.00
60.2124 1033.00
60.2776 1021.00
60.3428 1013.00
60.408 1048.00
60.4732 1039.00
60.5384 989.00
60.6036 1050.00
60.6688 1025.00
60.734 1025.00
60.7992 1046.00
60.8644 1087.00
60.9296 1037.00
60.9948 979.00
61.06 1056.00
61.1252 1081.00
61.1904 1062.00
61.2556 1066.00
61.3208 1061.00
61.386 1054.00
61.4512 1030.00
61.5164 1038.00
61.5816 1012.00
61.6468 1035.00
61.712 1005.00
61.7772 1108.00
61.8424 1028.00
61.9076 1040.00
61.9727 998.00
62.0379 1007.00
62.1031 1129.00
62.1683 1058.00
62.2335 1070.00
62.2987 1045.00
62.3639 1026.00
62.4291 1106.00
62.4943 1051.00
62.5595 1218.00
62.6247 1404.00
62.6899 1647.00
62.7551 1324.00
62.8203 1388.00
62.8855 1303.00
62.9507 1167.00
63.0159 1117.00
63.0811 1081.00
63.1463 1125.00
63.2115 1078.00
63.2767 1070.00
63.3419 1069.00
63.4071 1089.00
63.4723 1058.00
63.5375 1094.00
63.6027 1074.00
63.6679 1132.00
63.7331 1126.00
63.7983 1163.00
63.8635 1158.00
63.9287 1371.00
63.9939 1343.00
64.0591 1414.00
64.1243 1716.00
64.1895 2124.00
64.2547 2456.00
64.3199 2159.00
64.3851 2095.00
64.4503 1958.00
64.5155 1590.00
64.5807 1418.00
64.6459 1369.00
64.7111 1268.00
64.7763 1238.00
64.8415 1177.00
64.9067 1124.00
64.9719 1186.00
65.0371 1186.00
65.1023 1187.00
65.1675 1304.00
65.2327 1299.00
65.2979 1394.00
65.3631 1340.00
65.4283 1290.00
65.4935 1270.00
65.5587 1251.00
65.6239 1227.00
65.6891 1153.00
65.7543 1218.00
65.8195 1127.00
65.8847 1133.00
65.9499 1092.00
66.0151 1122.00
66.0803 1128.00
66.1455 1143.00
66.2107 1158.00
66.2759 1115.00
66.3411 1072.00
66.4063 1106.00
66.4715 1083.00
66.5367 1102.00
66.6019 1105.00
66.6671 1066.00
66.7322 1076.00
66.7974 1059.00
66.8626 1075.00
66.9278 1064.00
66.993 1057.00
67.0582 1081.00
67.1234 1057.00
67.1886 1079.00
67.2538 1004.00
67.319 1029.00
67.3842 1038.00
67.4494 1059.00
67.5146 1055.00
67.5798 994.00
67.645 1027.00
67.7102 1015.00
67.7754 1061.00
67.8406 1037.00
67.9058 1033.00
67.971 1049.00
68.0362 1047.00
68.1014 1021.00
68.1666 1046.00
68.2318 1025.00
68.297 1049.00
68.3622 1023.00
68.4274 1076.00
68.4926 986.00
68.5578 1066.00
68.623 1076.00
68.6882 1050.00
68.7534 1042.00
68.8186 1020.00
68.8838 1068.00
68.949 1005.00
69.0142 1064.00
69.0794 1053.00
69.1446 1074.00
69.2098 1040.00
69.275 1055.00
69.3402 1097.00
69.4054 1127.00
69.4706 1136.00
69.5358 1176.00
69.601 1187.00
69.6662 1286.00
69.7314 1392.00
69.7966 1526.00
69.8618 1701.00
69.927 1684.00
69.9922 1680.00
70.0574 1579.00
70.1226 1513.00
70.1878 1438.00
70.253 1275.00
70.3182 1277.00
70.3834 1167.00
70.4486 1161.00
70.5138 1091.00
70.579 1139.00
70.6442 1107.00
70.7094 1078.00
70.7746 1074.00
70.8398 1140.00
70.905 1175.00
70.9702 1181.00
71.0354 1131.00
71.1006 1271.00
71.1658 1218.00
71.231 1315.00
71.2962 1215.00
71.3614 1171.00
71.4266 1150.00
71.4918 1103.00
71.5569 1056.00
71.6221 1082.00
71.6873 1077.00
71.7525 1070.00
71.8177 1009.00
71.8829 1122.00
71.9481 1121.00
72.0133 1113.00
72.0785 1255.00
72.1437 1195.00
72.2089 1202.00
72.2741 1191.00
72.3393 1135.00
72.4045 1077.00
72.4697 1026.00
72.5349 1129.00
72.6001 1062.00
72.6653 1104.00
72.7305 1100.00
72.7957 1093.00
72.8609 1174.00
72.9261 1084.00
72.9913 1118.00
73.0565 1108.00
73.1217 1139.00
73.1869 1166.00
73.2521 1098.00
73.3173 1105.00
73.3825 1060.00
73.4477 1091.00
73.5129 1015.00
73.5781 1081.00
73.6433 1056.00
73.7085 1075.00
73.7737 1063.00
73.8389 1047.00
73.9041 1073.00
73.9693 1001.00
74.0345 1060.00
74.0997 1041.00
74.1649 1036.00
74.2301 1112.00
74.2953 1026.00
74.3605 994.00
74.4257 1040.00
74.4909 1017.00
74.5561 1070.00
74.6213 1076.00
74.6865 1064.00
74.7517 1086.00
74.8169 1094.00
74.8821 1079.00
74.9473 1084.00
75.0125 1098.00
75.0777 1054.00
75.1429 1064.00
75.2081 1051.00
75.2733 1038.00
75.3385 1083.00
75.4037 1052.00
75.4689 1087.00
75.5341 1102.00
75.5993 1164.00
75.6645 1230.00
75.7297 1302.00
75.7949 1205.00
75.8601 1275.00
75.9253 1302.00
75.9905 1375.00
76.0557 1405.00
76.1209 1453.00
76.186 1399.00
76.2513 1370.00
76.3165 1381.00
76.3816 1344.00
76.4468 1380.00
76.512 1428.00
76.5772 1419.00
76.6424 1404.00
76.7076 1328.00
76.7728 1338.00
76.838 1354.00
76.9032 1281.00
76.9684 1298.00
77.0336 1321.00
77.0988 1344.00
77.164 1303.00
77.2292 1410.00
77.2944 1553.00
77.3596 1602.00
77.4248 1615.00
77.49 1653.00
77.5552 1739.00
77.6204 1804.00
77.6856 1877.00
77.7508 1887.00
77.816 1767.00
77.8812 1744.00
77.9464 1636.00
78.0116 1546.00
78.0768 1455.00
78.142 1446.00
78.2072 1289.00
78.2724 1294.00
78.3376 1271.00
78.4028 1190.00
78.468 1171.00
78.5332 1215.00
78.5984 1182.00
78.6636 1292.00
78.7288 1224.00
78.794 1192.00
78.8592 1214.00
78.9244 1205.00
78.9896 1166.00
79.0548 1195.00
79.12 1138.00
79.1852 1116.00
79.2504 1102.00
79.3156 1049.00
79.3808 1028.00
79.446 1171.00
79.5112 1038.00
79.5764 1058.00
79.6416 1064.00
79.7068 1082.00
79.772 1053.00
79.8372 1038.00
79.9024 1072.00
79.9676 998.00
80.0328 1026.00
80.098 1039.00
80.1632 1019.00
80.2284 1025.00
80.2936 1059.00
80.3588 1081.00
80.424 1063.00
80.4892 1066.00
80.5544 1039.00
80.6196 1010.00
80.6848 1050.00
80.75 1066.00
80.8152 1070.00
80.8804 1128.00
80.9456 1147.00
81.0108 1138.00
81.076 1002.00
81.1412 1089.00
81.2063 1041.00
81.2715 997.00
81.3367 1099.00
81.4019 1072.00
81.4671 1017.00
81.5323 1029.00
81.5975 1049.00
81.6627 1080.00
81.7279 1057.00
81.7931 1067.00
81.8583 1072.00
81.9235 1031.00
81.9887 1054.00
82.0539 1044.00
82.1191 1082.00
82.1843 1127.00
82.2495 1130.00
82.3147 1162.00
82.3799 1218.00
82.4451 1212.00
82.5103 1306.00
82.5755 1305.00
82.6407 1242.00
82.7059 1221.00
82.7711 1225.00
82.8363 1263.00
82.9015 1201.00
82.9667 1153.00
83.0319 1196.00
83.0971 1181.00
83.1623 1180.00
83.2275 1139.00
83.2927 1111.00
83.3579 1090.00
83.4231 1077.00
83.4883 1115.00
83.5535 1034.00
83.6187 1063.00
83.6839 1062.00
83.7491 1021.00
83.8143 1044.00
83.8795 1000.00
83.9447 1019.00
84.0099 1058.00
84.0751 1030.00
84.1403 1038.00
84.2055 1052.00
84.2707 1092.00
84.3359 1032.00
84.4011 1034.00
84.4663 1011.00
84.5315 1045.00
84.5967 1102.00
84.6619 1066.00
84.7271 984.00
84.7923 1046.00
84.8575 1113.00
84.9227 1110.00
84.9879 1108.00
85.0531 1162.00
85.1183 1279.00
85.1835 1240.00
85.2487 1213.00
85.3139 1242.00
85.3791 1233.00
85.4443 1150.00
85.5095 1179.00
85.5747 1090.00
85.6399 1096.00
85.7051 1092.00
85.7703 1070.00
85.8354 1037.00
85.9006 1077.00
85.9659 1029.00
86.031 1125.00
86.0962 1084.00
86.1614 1062.00
86.2266 1072.00
86.2918 1082.00
86.357 1058.00
86.4222 1089.00
86.4874 1051.00
86.5526 1044.00
86.6178 1028.00
86.683 1040.00
86.7482 1046.00
86.8134 1021.00
86.8786 1044.00
86.9438 1070.00
87.009 1083.00
87.0742 1021.00
87.1394 1070.00
87.2046 1041.00
87.2698 1009.00
87.335 1114.00
87.4002 1051.00
87.4654 1029.00
87.5306 1059.00
87.5958 1042.00
87.661 1021.00
87.7262 1039.00
87.7914 1092.00
87.8566 1028.00
87.9218 1028.00
87.987 1029.00
88.0522 1072.00
88.1174 1078.00
88.1826 1178.00
88.2478 1076.00
88.313 1164.00
88.3782 1094.00
88.4434 1169.00
88.5086 1154.00
88.5738 1148.00
88.639 1247.00
88.7042 1357.00
88.7694 1358.00
88.8346 1451.00
88.8998 1421.00
88.965 1469.00
89.0302 1459.00
89.0954 1315.00
89.1606 1368.00
89.2258 1251.00
89.291 1245.00
89.3562 1263.00
89.4214 1184.00
89.4866 1122.00
89.5518 1149.00
89.617 1149.00
89.6822 1151.00
89.7474 1039.00
89.8126 1118.00
89.8778 1125.00
89.943 1118.00
90.0082 1200.00
90.0734 1203.00
90.1386 1141.00
90.2038 1224.00
90.269 1202.00
90.3342 1233.00
90.3994 1312.00
90.4646 1247.00
90.5298 1212.00
90.595 1301.00
90.6601 1199.00
90.7253 1283.00
90.7905 1220.00
90.8557 1182.00
90.9209 1150.00
90.9861 1186.00
91.0513 1140.00
91.1165 1122.00
91.1817 1131.00
91.2469 1200.00
91.3121 1150.00
91.3773 1147.00
91.4425 1163.00
91.5077 1163.00
91.5729 1182.00
91.6381 1150.00
91.7033 1186.00
91.7685 1130.00
91.8337 1132.00
91.8989 1137.00
91.9641 1116.00
92.0293 1131.00
92.0945 1078.00
92.1597 1103.00
92.2249 1076.00
92.2901 1124.00
92.3553 1075.00
92.4205 1043.00
92.4857 1034.00
92.5509 1079.00
92.6161 1104.00
92.6813 996.00
92.7465 1089.00
92.8117 1052.00
92.8769 1058.00
92.9421 1087.00
93.0073 1038.00
93.0725 1078.00
93.1377 1013.00
93.2029 1047.00
93.2681 1063.00
93.3333 1117.00
93.3985 1063.00
93.4637 1077.00
93.5289 1079.00
93.5941 1102.00
93.6593 1087.00
93.7245 1190.00
93.7897 1242.00
93.8549 1225.00
93.9201 1087.00
93.9853 1081.00
94.0505 1101.00
94.1157 1099.00
94.1809 1052.00
94.2461 1082.00
94.3113 1078.00
94.3765 1064.00
94.4417 1018.00
94.5069 1052.00
94.5721 1125.00
94.6373 1080.00
94.7025 1092.00
94.7677 1084.00
94.8329 1067.00
94.8981 1074.00
94.9633 1103.00
95.0285 1109.00
95.0937 1105.00
95.1589 1100.00
95.2241 1156.00
95.2893 1187.00
95.3545 1161.00
95.4197 1199.00
95.4848 1240.00
95.55 1217.00
95.6153 1264.00
95.6804 1289.00
95.7456 1382.00
95.8108 1412.00
95.876 1363.00
95.9412 1337.00
96.0064 1383.00
96.0716 1287.00
96.1368 1302.00
96.202 1262.00
96.2672 1255.00
96.3324 1304.00
96.3976 1205.00
96.4628 1154.00
96.528 1145.00
96.5932 1268.00
96.6584 1224.00
96.7236 1267.00
96.7888 1275.00
96.854 1252.00
96.9192 1281.00
96.9844 1221.00
97.0496 1239.00
97.1148 1220.00
97.18 1255.00
97.2452 1232.00
97.3104 1173.00
97.3756 1197.00
97.4408 1120.00
97.506 1098.00
97.5712 1095.00
97.6364 1137.00
97.7016 1106.00
97.7668 1137.00
97.832 1087.00
97.8972 1058.00
97.9624 1057.00
98.0276 1043.00
98.0928 1072.00
98.158 1016.00
98.2232 1138.00
98.2884 1107.00
98.3536 1048.00
98.4188 1075.00
98.484 1079.00
98.5492 1064.00
98.6144 1081.00
98.6796 1106.00
98.7448 1139.00
98.81 1094.00
98.8752 1078.00
98.9404 1091.00
99.0056 1114.00
99.0708 1178.00
99.136 1046.00
99.2012 1121.00
99.2664 1074.00
99.3316 1075.00
99.3968 1048.00
99.462 1045.00
99.5272 1093.00
99.5924 974.00
99.6576 1051.00
99.7228 1090.00
99.788 1020.00
99.8532 1100.00
99.9184 1028.00
99.9836 1055.00
99.9944 1046.00