File: data/xrd_creation/results/PG_1935-1.xy
9.903433 2514.00
9.968632 2603.00
10.0338 2515.00
10.099 2385.00
10.1642 2507.00
10.2294 2497.00
10.2946 2451.00
10.3598 2349.00
10.425 2368.00
10.4902 2339.00
10.5554 2275.00
10.6206 2376.00
10.6858 2243.00
10.751 2304.00
10.8162 2231.00
10.8814 2296.00
10.9466 2231.00
11.0118 2240.00
11.077 2144.00
11.1422 2199.00
11.2074 2061.00
11.2726 2114.00
11.3378 2126.00
11.403 2014.00
11.4682 2150.00
11.5334 1958.00
11.5986 2026.00
11.6638 2018.00
11.729 1968.00
11.7942 1977.00
11.8594 1934.00
11.9246 1949.00
11.9898 1925.00
12.055 1869.00
12.1202 1860.00
12.1854 1768.00
12.2506 1803.00
12.3158 1771.00
12.381 1821.00
12.4462 1784.00
12.5114 1712.00
12.5766 1784.00
12.6418 1775.00
12.707 1702.00
12.7722 1729.00
12.8374 1744.00
12.9026 1681.00
12.9678 1704.00
13.033 1622.00
13.0982 1651.00
13.1634 1602.00
13.2286 1608.00
13.2938 1546.00
13.359 1557.00
13.4242 1518.00
13.4894 1591.00
13.5546 1590.00
13.6198 1486.00
13.685 1465.00
13.7502 1535.00
13.8154 1486.00
13.8805 1520.00
13.9457 1525.00
14.0109 1453.00
14.0761 1408.00
14.1413 1429.00
14.2065 1372.00
14.2717 1392.00
14.3369 1444.00
14.4021 1381.00
14.4673 1393.00
14.5325 1396.00
14.5977 1414.00
14.6629 1381.00
14.7281 1406.00
14.7933 1396.00
14.8585 1439.00
14.9237 1358.00
14.9889 1324.00
15.0541 1333.00
15.1193 1377.00
15.1845 1345.00
15.2497 1302.00
15.3149 1361.00
15.3801 1333.00
15.4453 1367.00
15.5105 1296.00
15.5757 1253.00
15.6409 1274.00
15.7061 1272.00
15.7713 1263.00
15.8365 1268.00
15.9017 1282.00
15.9669 1265.00
16.0321 1271.00
16.0973 1214.00
16.1625 1246.00
16.2277 1241.00
16.2929 1292.00
16.3581 1268.00
16.4233 1220.00
16.4885 1217.00
16.5537 1290.00
16.6189 1214.00
16.6841 1143.00
16.7493 1249.00
16.8145 1183.00
16.8797 1229.00
16.9449 1186.00
17.0101 1224.00
17.0753 1219.00
17.1405 1180.00
17.2057 1199.00
17.2709 1121.00
17.3361 1139.00
17.4013 1136.00
17.4665 1160.00
17.5317 1160.00
17.5969 1136.00
17.6621 1119.00
17.7273 1081.00
17.7925 1088.00
17.8577 1150.00
17.9229 1133.00
17.9881 1098.00
18.0533 1061.00
18.1185 1064.00
18.1837 1054.00
18.2489 1095.00
18.3141 1025.00
18.3793 1070.00
18.4445 1094.00
18.5097 1060.00
18.5749 1092.00
18.6401 1022.00
18.7052 1023.00
18.7704 1051.00
18.8356 1008.00
18.9008 1027.00
18.966 1007.00
19.0312 1057.00
19.0964 1024.00
19.1616 998.00
19.2268 1052.00
19.292 1010.00
19.3572 957.00
19.4224 1010.00
19.4876 1038.00
19.5528 989.00
19.618 907.00
19.6832 1016.00
19.7484 956.00
19.8136 932.00
19.8788 960.00
19.944 998.00
20.0092 927.00
20.0744 943.00
20.1396 880.00
20.2048 957.00
20.27 889.00
20.3352 884.00
20.4004 929.00
20.4656 925.00
20.5308 863.00
20.596 879.00
20.6612 997.00
20.7264 871.00
20.7916 908.00
20.8568 919.00
20.922 889.00
20.9872 907.00
21.0524 877.00
21.1176 873.00
21.1828 920.00
21.248 898.00
21.3132 888.00
21.3784 904.00
21.4436 892.00
21.5088 878.00
21.574 861.00
21.6392 906.00
21.7044 855.00
21.7696 848.00
21.8348 829.00
21.9 832.00
21.9652 875.00
22.0304 848.00
22.0956 827.00
22.1608 826.00
22.226 890.00
22.2912 841.00
22.3564 828.00
22.4216 826.00
22.4868 790.00
22.552 846.00
22.6172 819.00
22.6824 801.00
22.7476 840.00
22.8128 792.00
22.878 764.00
22.9432 866.00
23.0084 847.00
23.0736 821.00
23.1388 867.00
23.204 806.00
23.2692 800.00
23.3344 779.00
23.3996 753.00
23.4647 804.00
23.5299 839.00
23.5951 823.00
23.6603 838.00
23.7255 750.00
23.7907 814.00
23.8559 762.00
23.9211 767.00
23.9863 779.00
24.0515 740.00
24.1167 734.00
24.1819 767.00
24.2471 737.00
24.3123 694.00
24.3775 778.00
24.4427 715.00
24.5079 709.00
24.5731 738.00
24.6383 772.00
24.7035 699.00
24.7687 722.00
24.8339 713.00
24.8991 714.00
24.9643 725.00
25.0295 735.00
25.0947 794.00
25.1599 799.00
25.2251 791.00
25.2903 682.00
25.3555 695.00
25.4207 714.00
25.4859 715.00
25.5511 755.00
25.6163 715.00
25.6815 707.00
25.7467 693.00
25.8119 750.00
25.8771 688.00
25.9423 690.00
26.0075 661.00
26.0727 657.00
26.1379 679.00
26.2031 686.00
26.2683 684.00
26.3335 684.00
26.3987 676.00
26.4639 658.00
26.5291 674.00
26.5943 671.00
26.6595 672.00
26.7247 643.00
26.7899 630.00
26.8551 673.00
26.9203 662.00
26.9855 667.00
27.0507 680.00
27.1159 674.00
27.1811 669.00
27.2463 698.00
27.3115 671.00
27.3767 656.00
27.4419 714.00
27.5071 695.00
27.5723 761.00
27.6375 832.00
27.7027 1051.00
27.7679 1538.00
27.8331 1413.00
27.8983 924.00
27.9635 691.00
28.0287 692.00
28.0939 640.00
28.1591 699.00
28.2243 705.00
28.2894 652.00
28.3546 623.00
28.4198 666.00
28.485 644.00
28.5502 634.00
28.6154 646.00
28.6806 648.00
28.7458 614.00
28.811 557.00
28.8762 611.00
28.9414 620.00
29.0066 595.00
29.0718 580.00
29.137 625.00
29.2022 606.00
29.2674 568.00
29.3326 593.00
29.3978 648.00
29.463 613.00
29.5282 570.00
29.5934 603.00
29.6586 598.00
29.7238 569.00
29.789 584.00
29.8542 579.00
29.9194 583.00
29.9846 623.00
30.0498 586.00
30.115 666.00
30.1802 595.00
30.2454 595.00
30.3106 537.00
30.3758 574.00
30.441 538.00
30.5062 626.00
30.5714 573.00
30.6366 591.00
30.7018 591.00
30.767 555.00
30.8322 532.00
30.8974 587.00
30.9626 539.00
31.0278 535.00
31.093 550.00
31.1582 553.00
31.2234 513.00
31.2886 560.00
31.3538 564.00
31.419 574.00
31.4842 536.00
31.5494 635.00
31.6146 668.00
31.6798 640.00
31.745 507.00
31.8102 544.00
31.8754 584.00
31.9406 548.00
32.0058 510.00
32.071 519.00
32.1362 518.00
32.2014 522.00
32.2666 547.00
32.3318 551.00
32.397 554.00
32.4622 626.00
32.5274 698.00
32.5926 667.00
32.6578 569.00
32.723 509.00
32.7882 503.00
32.8534 494.00
32.9186 532.00
32.9838 486.00
33.0489 480.00
33.1141 481.00
33.1793 534.00
33.2445 464.00
33.3097 484.00
33.3749 474.00
33.4401 482.00
33.5053 484.00
33.5705 502.00
33.6357 499.00
33.7009 507.00
33.7661 487.00
33.8313 496.00
33.8965 516.00
33.9617 475.00
34.0269 500.00
34.0921 493.00
34.1573 453.00
34.2225 491.00
34.2877 507.00
34.3529 502.00
34.4181 493.00
34.4833 497.00
34.5485 417.00
34.6137 480.00
34.6789 530.00
34.7441 510.00
34.8093 539.00
34.8745 477.00
34.9397 447.00
35.0049 418.00
35.0701 440.00
35.1353 462.00
35.2005 466.00
35.2657 449.00
35.3309 435.00
35.3961 497.00
35.4613 461.00
35.5265 443.00
35.5917 445.00
35.6569 458.00
35.7221 398.00
35.7873 433.00
35.8525 415.00
35.9177 446.00
35.9829 447.00
36.0481 436.00
36.1133 451.00
36.1785 416.00
36.2437 470.00
36.3089 458.00
36.3741 451.00
36.4393 443.00
36.5045 423.00
36.5697 440.00
36.6349 418.00
36.7001 439.00
36.7653 404.00
36.8305 411.00
36.8957 375.00
36.9609 372.00
37.0261 428.00
37.0913 441.00
37.1565 420.00
37.2217 441.00
37.2869 433.00
37.3521 406.00
37.4173 414.00
37.4825 392.00
37.5477 405.00
37.6129 423.00
37.6781 391.00
37.7433 401.00
37.8085 386.00
37.8736 442.00
37.9388 389.00
38.004 414.00
38.0692 382.00
38.1344 405.00
38.1996 383.00
38.2648 395.00
38.33 399.00
38.3952 392.00
38.4604 393.00
38.5256 377.00
38.5908 374.00
38.656 360.00
38.7212 404.00
38.7864 411.00
38.8516 388.00
38.9168 368.00
38.982 409.00
39.0472 392.00
39.1124 370.00
39.1776 375.00
39.2428 402.00
39.308 379.00
39.3732 381.00
39.4384 441.00
39.5036 401.00
39.5688 386.00
39.634 362.00
39.6992 368.00
39.7644 362.00
39.8296 377.00
39.8948 359.00
39.96 369.00
40.0252 377.00
40.0904 380.00
40.1556 376.00
40.2208 381.00
40.286 376.00
40.3512 322.00
40.4164 364.00
40.4816 388.00
40.5468 349.00
40.612 346.00
40.6772 353.00
40.7424 367.00
40.8076 342.00
40.8728 361.00
40.938 366.00
41.0032 346.00
41.0684 312.00
41.1336 351.00
41.1988 364.00
41.264 346.00
41.3292 375.00
41.3944 346.00
41.4596 374.00
41.5248 361.00
41.59 362.00
41.6552 345.00
41.7204 330.00
41.7856 363.00
41.8508 347.00
41.916 320.00
41.9812 352.00
42.0464 353.00
42.1116 367.00
42.1768 359.00
42.242 345.00
42.3072 340.00
42.3724 357.00
42.4376 328.00
42.5028 352.00
42.568 322.00
42.6332 321.00
42.6983 360.00
42.7635 353.00
42.8287 322.00
42.8939 351.00
42.9591 375.00
43.0243 353.00
43.0895 350.00
43.1547 365.00
43.2199 324.00
43.2851 329.00
43.3503 303.00
43.4155 337.00
43.4807 340.00
43.5459 341.00
43.6111 339.00
43.6763 342.00
43.7415 325.00
43.8067 326.00
43.8719 313.00
43.9371 332.00
44.0023 366.00
44.0675 316.00
44.1327 318.00
44.1979 348.00
44.2631 325.00
44.3283 335.00
44.3935 328.00
44.4587 326.00
44.5239 305.00
44.5891 334.00
44.6543 339.00
44.7195 300.00
44.7847 328.00
44.8499 275.00
44.9151 307.00
44.9803 293.00
45.0455 317.00
45.1107 330.00
45.1759 298.00
45.2411 290.00
45.3063 311.00
45.3715 325.00
45.4367 310.00
45.5019 305.00
45.5671 317.00
45.6323 336.00
45.6975 313.00
45.7627 336.00
45.8279 319.00
45.8931 326.00
45.9583 366.00
46.0235 407.00
46.0887 539.00
46.1539 445.00
46.2191 387.00
46.2843 319.00
46.3495 296.00
46.4147 337.00
46.4799 348.00
46.5451 300.00
46.6103 303.00
46.6755 323.00
46.7407 405.00
46.8059 338.00
46.8711 372.00
46.9363 301.00
47.0015 345.00
47.0667 306.00
47.1319 299.00
47.1971 307.00
47.2623 310.00
47.3275 281.00
47.3927 274.00
47.4579 287.00
47.523 297.00
47.5882 310.00
47.6534 273.00
47.7186 290.00
47.7838 278.00
47.849 310.00
47.9142 312.00
47.9794 262.00
48.0446 297.00
48.1098 287.00
48.175 296.00
48.2402 311.00
48.3054 292.00
48.3706 308.00
48.4358 297.00
48.501 341.00
48.5662 339.00
48.6314 274.00
48.6966 316.00
48.7618 280.00
48.827 286.00
48.8922 283.00
48.9574 284.00
49.0226 280.00
49.0878 305.00
49.153 271.00
49.2182 313.00
49.2834 272.00
49.3486 288.00
49.4138 288.00
49.479 311.00
49.5442 267.00
49.6094 274.00
49.6746 279.00
49.7398 292.00
49.805 298.00
49.8702 283.00
49.9354 291.00
50.0006 289.00
50.0658 293.00
50.131 288.00
50.1962 288.00
50.2614 282.00
50.3266 289.00
50.3918 302.00
50.457 305.00
50.5222 277.00
50.5874 264.00
50.6526 276.00
50.7178 281.00
50.783 237.00
50.8482 275.00
50.9134 317.00
50.9786 289.00
51.0438 291.00
51.109 298.00
51.1742 279.00
51.2394 284.00
51.3046 282.00
51.3698 285.00
51.435 273.00
51.5002 281.00
51.5654 276.00
51.6306 257.00
51.6958 240.00
51.761 289.00
51.8262 269.00
51.8914 288.00
51.9566 272.00
52.0218 258.00
52.087 269.00
52.1522 239.00
52.2174 290.00
52.2826 290.00
52.3477 283.00
52.4129 293.00
52.4781 290.00
52.5433 246.00
52.6085 250.00
52.6737 262.00
52.7389 250.00
52.8041 298.00
52.8693 264.00
52.9345 296.00
52.9997 270.00
53.0649 258.00
53.1301 266.00
53.1953 280.00
53.2605 272.00
53.3257 282.00
53.3909 294.00
53.4561 266.00
53.5213 272.00
53.5865 263.00
53.6517 248.00
53.7169 246.00
53.7821 264.00
53.8473 261.00
53.9125 280.00
53.9777 263.00
54.0429 286.00
54.1081 373.00
54.1733 332.00
54.2385 279.00
54.3037 298.00
54.3689 243.00
54.4341 211.00
54.4993 256.00
54.5645 246.00
54.6297 269.00
54.6949 263.00
54.7601 279.00
54.8253 264.00
54.8905 276.00
54.9557 262.00
55.0209 233.00
55.0861 241.00
55.1513 266.00
55.2165 309.00
55.2817 344.00
55.3469 419.00
55.4121 362.00
55.4773 369.00
55.5425 313.00
55.6077 232.00
55.6729 269.00
55.7381 243.00
55.8033 282.00
55.8685 256.00
55.9337 264.00
55.9989 257.00
56.0641 272.00
56.1293 230.00
56.1945 256.00
56.2597 226.00
56.3249 228.00
56.3901 266.00
56.4553 283.00
56.5205 204.00
56.5857 234.00
56.6509 246.00
56.7161 238.00
56.7813 251.00
56.8465 262.00
56.9117 229.00
56.9769 235.00
57.042 249.00
57.1073 289.00
57.1724 222.00
57.2376 230.00
57.3028 271.00
57.368 234.00
57.4332 217.00
57.4984 194.00
57.5636 281.00
57.6288 294.00
57.694 282.00
57.7592 239.00
57.8244 206.00
57.8896 259.00
57.9548 250.00
58.02 241.00
58.0852 229.00
58.1504 205.00
58.2156 239.00
58.2808 246.00
58.346 237.00
58.4112 232.00
58.4764 265.00
58.5416 199.00
58.6068 233.00
58.672 224.00
58.7372 234.00
58.8024 223.00
58.8676 242.00
58.9328 225.00
58.998 230.00
59.0632 248.00
59.1284 242.00
59.1936 215.00
59.2588 191.00
59.324 236.00
59.3892 236.00
59.4544 190.00
59.5196 236.00
59.5848 214.00
59.65 227.00
59.7152 238.00
59.7804 223.00
59.8456 207.00
59.9108 245.00
59.976 243.00
60.0412 200.00
60.1064 248.00
60.1716 196.00
60.2368 229.00
60.302 205.00
60.3672 208.00
60.4324 228.00
60.4976 228.00
60.5628 213.00
60.628 211.00
60.6932 227.00
60.7584 210.00
60.8236 202.00
60.8888 206.00
60.954 227.00
61.0192 233.00
61.0844 211.00
61.1496 211.00
61.2148 217.00
61.28 235.00
61.3452 207.00
61.4104 213.00
61.4756 216.00
61.5408 250.00
61.606 228.00
61.6712 225.00
61.7364 246.00
61.8016 230.00
61.8667 219.00
61.932 208.00
61.9971 188.00
62.0623 217.00
62.1275 225.00
62.1927 240.00
62.2579 195.00
62.3231 209.00
62.3883 204.00
62.4535 209.00
62.5187 197.00
62.5839 202.00
62.6491 250.00
62.7143 222.00
62.7795 206.00
62.8447 223.00
62.9099 216.00
62.9751 235.00
63.0403 194.00
63.1055 209.00
63.1707 218.00
63.2359 225.00
63.3011 217.00
63.3663 198.00
63.4315 214.00
63.4967 209.00
63.5619 214.00
63.6271 198.00
63.6923 193.00
63.7575 200.00
63.8227 217.00
63.8879 227.00
63.9531 210.00
64.0183 204.00
64.0835 218.00
64.1487 211.00
64.2139 216.00
64.2791 186.00
64.3443 171.00
64.4095 192.00
64.4747 189.00
64.5399 186.00
64.6051 226.00
64.6703 192.00
64.7355 189.00
64.8007 223.00
64.8659 226.00
64.9311 194.00
64.9963 208.00
65.0615 188.00
65.1267 221.00
65.1919 211.00
65.2571 221.00
65.3223 202.00
65.3875 206.00
65.4527 227.00
65.5179 206.00
65.5831 192.00
65.6483 171.00
65.7135 182.00
65.7787 196.00
65.8439 178.00
65.9091 216.00
65.9743 191.00
66.0395 191.00
66.1047 225.00
66.1699 188.00
66.2351 190.00
66.3003 202.00
66.3655 174.00
66.4307 192.00
66.4959 212.00
66.561 217.00
66.6263 201.00
66.6915 206.00
66.7566 195.00
66.8218 171.00
66.887 183.00
66.9522 203.00
67.0174 205.00
67.0826 194.00
67.1478 183.00
67.213 202.00
67.2782 223.00
67.3434 178.00
67.4086 193.00
67.4738 215.00
67.539 186.00
67.6042 211.00
67.6694 195.00
67.7346 187.00
67.7998 208.00
67.865 218.00
67.9302 203.00
67.9954 217.00
68.0606 206.00
68.1258 206.00
68.191 192.00
68.2562 194.00
68.3214 197.00
68.3866 191.00
68.4518 190.00
68.517 237.00
68.5822 210.00
68.6474 201.00
68.7126 188.00
68.7778 181.00
68.843 163.00
68.9082 211.00
68.9734 199.00
69.0386 228.00
69.1038 180.00
69.169 180.00
69.2342 183.00
69.2994 236.00
69.3646 200.00
69.4298 182.00
69.495 180.00
69.5602 199.00
69.6254 192.00
69.6906 163.00
69.7558 202.00
69.821 204.00
69.8862 205.00
69.9514 207.00
70.0166 178.00
70.0818 199.00
70.147 181.00
70.2122 195.00
70.2774 217.00
70.3426 171.00
70.4078 197.00
70.473 190.00
70.5382 207.00
70.6034 202.00
70.6686 175.00
70.7338 233.00
70.799 219.00
70.8642 199.00
70.9294 180.00
70.9946 190.00
71.0598 196.00
71.125 199.00
71.1902 206.00
71.2554 223.00
71.3205 216.00
71.3858 206.00
71.451 220.00
71.5162 204.00
71.5813 198.00
71.6465 219.00
71.7117 218.00
71.7769 198.00
71.8421 196.00
71.9073 218.00
71.9725 199.00
72.0377 176.00
72.1029 186.00
72.1681 205.00
72.2333 229.00
72.2985 212.00
72.3637 191.00
72.4289 202.00
72.4941 202.00
72.5593 208.00
72.6245 193.00
72.6897 199.00
72.7549 227.00
72.8201 200.00
72.8853 213.00
72.9505 219.00
73.0157 217.00
73.0809 199.00
73.1461 204.00
73.2113 210.00
73.2765 187.00
73.3417 225.00
73.4069 211.00
73.4721 193.00
73.5373 205.00
73.6025 188.00
73.6677 236.00
73.7329 182.00
73.7981 202.00
73.8633 222.00
73.9285 179.00
73.9937 202.00
74.0589 196.00
74.1241 210.00
74.1893 214.00
74.2545 210.00
74.3197 246.00
74.3849 263.00
74.4501 244.00
74.5153 249.00
74.5805 259.00
74.6457 208.00
74.7109 230.00
74.7761 234.00
74.8413 219.00
74.9065 216.00
74.9717 224.00
75.0369 233.00
75.1021 217.00
75.1673 198.00
75.2325 212.00
75.2977 210.00
75.3629 215.00
75.4281 231.00
75.4933 226.00
75.5585 232.00
75.6237 256.00
75.6889 214.00
75.7541 238.00
75.8193 238.00
75.8845 185.00
75.9497 201.00
76.0149 232.00
76.0801 240.00
76.1452 218.00
76.2104 192.00
76.2756 215.00
76.3409 194.00
76.406 199.00
76.4712 209.00
76.5364 217.00
76.6016 233.00
76.6668 205.00
76.732 193.00
76.7972 207.00
76.8624 200.00
76.9276 223.00
76.9928 197.00
77.058 210.00
77.1232 185.00
77.1884 223.00
77.2536 197.00
77.3188 214.00
77.384 223.00
77.4492 232.00
77.5144 237.00
77.5796 232.00
77.6448 204.00
77.71 198.00
77.7752 211.00
77.8404 222.00
77.9056 227.00
77.9708 219.00
78.036 259.00
78.1012 225.00
78.1664 225.00
78.2316 242.00
78.2968 268.00
78.362 211.00
78.4272 207.00
78.4924 221.00
78.5576 247.00
78.6228 210.00
78.688 200.00
78.7532 207.00
78.8184 204.00
78.8836 216.00
78.9488 232.00
79.014 200.00
79.0792 271.00
79.1444 219.00
79.2096 237.00
79.2748 237.00
79.34 224.00
79.4052 234.00
79.4704 201.00
79.5356 218.00
79.6008 226.00
79.666 276.00
79.7312 216.00
79.7964 266.00
79.8616 274.00
79.9268 229.00
79.992 238.00
80.0572 214.00
80.1224 261.00
80.1876 200.00
80.2528 221.00
80.318 250.00
80.3832 218.00
80.4484 262.00
80.5136 246.00
80.5788 220.00
80.644 242.00
80.7092 214.00
80.7744 232.00
80.8396 272.00
80.9048 221.00
80.9699 196.00
81.0351 210.00
81.1003 257.00
81.1655 220.00
81.2307 218.00
81.2959 238.00
81.3611 233.00
81.4263 250.00
81.4915 240.00
81.5567 265.00
81.6219 200.00
81.6871 225.00
81.7523 281.00
81.8175 233.00
81.8827 229.00
81.9479 224.00
82.0131 268.00
82.0783 220.00
82.1435 223.00
82.2087 246.00
82.2739 247.00
82.3391 239.00
82.4043 265.00
82.4695 260.00
82.5347 222.00
82.5999 246.00
82.6651 242.00
82.7303 218.00
82.7955 243.00
82.8607 248.00
82.9259 214.00
82.9911 225.00
83.0563 177.00
83.1215 216.00
83.1867 248.00
83.2519 229.00
83.3171 205.00
83.3823 243.00
83.4475 206.00
83.5127 221.00
83.5779 249.00
83.6431 228.00
83.7083 224.00
83.7735 230.00
83.8387 226.00
83.9039 229.00
83.9691 237.00
84.0343 201.00
84.0995 249.00
84.1647 232.00
84.2299 218.00
84.2951 216.00
84.3603 249.00
84.4255 234.00
84.4907 198.00
84.5559 235.00
84.6211 229.00
84.6863 237.00
84.7515 196.00
84.8167 237.00
84.8819 227.00
84.9471 242.00
85.0123 234.00
85.0775 214.00
85.1427 241.00
85.2079 210.00
85.2731 216.00
85.3383 267.00
85.4035 245.00
85.4687 224.00
85.5339 209.00
85.5991 224.00
85.6643 213.00
85.7295 212.00
85.7946 234.00
85.8598 202.00
85.925 265.00
85.9903 187.00
86.0554 243.00
86.1206 229.00
86.1858 173.00
86.251 243.00
86.3162 236.00
86.3814 212.00
86.4466 232.00
86.5118 228.00
86.577 213.00
86.6422 202.00
86.7074 219.00
86.7726 233.00
86.8378 231.00
86.903 210.00
86.9682 218.00
87.0334 204.00
87.0986 211.00
87.1638 197.00
87.229 204.00
87.2942 200.00
87.3594 208.00
87.4246 204.00
87.4898 211.00
87.555 203.00
87.6202 191.00
87.6854 178.00
87.7506 191.00
87.8158 198.00
87.881 211.00
87.9462 243.00
88.0114 213.00
88.0766 193.00
88.1418 178.00
88.207 200.00
88.2722 179.00
88.3374 203.00
88.4026 193.00
88.4678 192.00
88.533 197.00
88.5982 188.00
88.6634 182.00
88.7286 213.00
88.7938 203.00
88.859 212.00
88.9242 208.00
88.9894 170.00
89.0546 212.00
89.1198 180.00
89.185 210.00
89.2502 214.00
89.3154 221.00
89.3806 188.00
89.4458 208.00
89.511 198.00
89.5762 208.00
89.6414 174.00
89.7066 201.00
89.7718 193.00
89.837 184.00
89.9022 183.00
89.9674 201.00
90.0326 187.00
90.0978 184.00
90.163 192.00
90.2282 169.00
90.2934 197.00
90.3586 204.00
90.4238 179.00
90.489 194.00
90.5542 211.00
90.6193 217.00
90.6845 190.00
90.7497 190.00
90.8149 195.00
90.8801 181.00
90.9453 184.00
91.0105 198.00
91.0757 205.00
91.1409 196.00
91.2061 196.00
91.2713 186.00
91.3365 219.00
91.4017 197.00
91.4669 190.00
91.5321 187.00
91.5973 204.00
91.6625 206.00
91.7277 172.00
91.7929 198.00
91.8581 210.00
91.9233 207.00
91.9885 189.00
92.0537 187.00
92.1189 212.00
92.1841 181.00
92.2493 203.00
92.3145 209.00
92.3797 197.00
92.4449 192.00
92.5101 192.00
92.5753 214.00
92.6405 184.00
92.7057 190.00
92.7709 201.00
92.8361 181.00
92.9013 203.00
92.9665 190.00
93.0317 189.00
93.0969 192.00
93.1621 183.00
93.2273 188.00
93.2925 192.00
93.3577 185.00
93.4229 206.00
93.4881 200.00
93.5533 201.00
93.6185 190.00
93.6837 208.00
93.7489 191.00
93.8141 203.00
93.8793 201.00
93.9445 194.00
94.0097 208.00
94.0749 199.00
94.1401 183.00
94.2053 222.00
94.2705 174.00
94.3357 207.00
94.4009 208.00
94.4661 204.00
94.5313 189.00
94.5965 198.00
94.6617 182.00
94.7269 220.00
94.7921 168.00
94.8573 197.00
94.9225 191.00
94.9877 207.00
95.0529 198.00
95.1181 192.00
95.1833 187.00
95.2485 196.00
95.3137 200.00
95.3789 210.00
95.444 176.00
95.5092 172.00
95.5744 173.00
95.6396 219.00
95.7048 208.00
95.77 173.00
95.8352 193.00
95.9004 181.00
95.9656 171.00
96.0308 182.00
96.096 183.00
96.1612 205.00
96.2264 192.00
96.2916 193.00
96.3568 206.00
96.422 175.00
96.4872 179.00
96.5524 190.00
96.6176 198.00
96.6828 216.00
96.748 178.00
96.8132 168.00
96.8784 177.00
96.9436 207.00
97.0088 191.00
97.074 179.00
97.1392 169.00
97.2044 197.00
97.2696 167.00
97.3348 177.00
97.4 203.00
97.4652 159.00
97.5304 167.00
97.5956 200.00
97.6608 178.00
97.726 206.00
97.7912 222.00
97.8564 186.00
97.9216 162.00
97.9868 178.00
98.052 198.00
98.1172 185.00
98.1824 184.00
98.2476 195.00
98.3128 199.00
98.378 201.00
98.4432 184.00
98.5084 195.00
98.5736 214.00
98.6388 204.00
98.704 166.00
98.7692 209.00
98.8344 163.00
98.8996 175.00
98.9648 201.00
99.03 213.00
99.0952 223.00
99.1604 176.00
99.2256 177.00
99.2908 194.00
99.356 205.00
99.4212 193.00
99.4864 207.00
99.5516 169.00
99.6168 183.00
99.682 190.00
99.7472 184.00
99.8124 182.00
99.8776 194.00
99.9428 191.00
100.008 178.00
100.073 172.00
100.095 180.00