File: data/xrd_creation/results/PG_1320-1.xy
10.0094 3973.00
10.0746 4108.00
10.1398 3998.00
10.205 4014.00
10.2702 3961.00
10.3354 4014.00
10.4006 3913.00
10.4658 3976.00
10.531 3918.00
10.5962 3983.00
10.6614 3938.00
10.7266 3841.00
10.7918 3935.00
10.857 3902.00
10.9222 3891.00
10.9874 3934.00
11.0526 3844.00
11.1178 3916.00
11.183 3843.00
11.2482 3761.00
11.3134 3846.00
11.3786 3913.00
11.4438 3804.00
11.509 3799.00
11.5742 3919.00
11.6394 3851.00
11.7046 3754.00
11.7698 3679.00
11.835 3759.00
11.9002 3831.00
11.9654 3765.00
12.0306 3854.00
12.0958 3810.00
12.161 3698.00
12.2262 3733.00
12.2914 3758.00
12.3566 3714.00
12.4218 3755.00
12.487 3729.00
12.5522 3735.00
12.6174 3843.00
12.6826 3704.00
12.7478 3687.00
12.813 3646.00
12.8782 3700.00
12.9434 3750.00
13.0086 3589.00
13.0738 3645.00
13.139 3761.00
13.2042 3654.00
13.2694 3628.00
13.3346 3751.00
13.3998 3593.00
13.465 3654.00
13.5302 3640.00
13.5954 3746.00
13.6606 3702.00
13.7258 3555.00
13.791 3720.00
13.8562 3723.00
13.9214 3642.00
13.9865 3727.00
14.0517 3672.00
14.1169 3727.00
14.1821 3648.00
14.2473 3708.00
14.3125 3602.00
14.3777 3680.00
14.4429 3802.00
14.5081 3724.00
14.5733 3675.00
14.6385 3579.00
14.7037 3686.00
14.7689 3709.00
14.8341 3654.00
14.8993 3588.00
14.9645 3639.00
15.0297 3713.00
15.0949 3678.00
15.1601 3682.00
15.2253 3672.00
15.2905 3783.00
15.3557 3703.00
15.4209 3702.00
15.4861 3720.00
15.5513 3736.00
15.6165 3655.00
15.6817 3793.00
15.7469 3697.00
15.8121 3658.00
15.8773 3625.00
15.9425 3723.00
16.0077 3701.00
16.0729 3658.00
16.1381 3793.00
16.2033 3740.00
16.2685 3720.00
16.3337 3724.00
16.3989 3681.00
16.4641 3675.00
16.5293 3644.00
16.5945 3727.00
16.6597 3575.00
16.7249 3594.00
16.7901 3627.00
16.8553 3655.00
16.9205 3723.00
16.9857 3804.00
17.0509 3674.00
17.1161 3714.00
17.1813 3691.00
17.2465 3649.00
17.3117 3848.00
17.3769 3756.00
17.4421 3733.00
17.5073 3942.00
17.5725 4175.00
17.6377 4591.00
17.7029 5013.00
17.7681 4852.00
17.8333 3864.00
17.8985 3689.00
17.9637 3628.00
18.0289 3612.00
18.0941 3623.00
18.1593 3724.00
18.2245 3656.00
18.2897 3669.00
18.3549 3607.00
18.4201 3531.00
18.4853 3598.00
18.5505 3590.00
18.6157 3584.00
18.6809 3645.00
18.7461 3615.00
18.8112 3638.00
18.8764 3654.00
18.9416 3648.00
19.0068 3439.00
19.072 3644.00
19.1372 3677.00
19.2024 3606.00
19.2676 3473.00
19.3328 3663.00
19.398 3547.00
19.4632 3594.00
19.5284 3672.00
19.5936 3599.00
19.6588 3581.00
19.724 3586.00
19.7892 3568.00
19.8544 3426.00
19.9196 3430.00
19.9848 3470.00
20.05 3582.00
20.1152 3526.00
20.1804 3628.00
20.2456 3606.00
20.3108 3567.00
20.376 3480.00
20.4412 3567.00
20.5064 3656.00
20.5716 3389.00
20.6368 3569.00
20.702 3466.00
20.7672 3582.00
20.8324 3552.00
20.8976 3526.00
20.9628 3503.00
21.028 3450.00
21.0932 3482.00
21.1584 3538.00
21.2236 3442.00
21.2888 3536.00
21.354 3527.00
21.4192 3525.00
21.4844 3571.00
21.5496 3629.00
21.6148 3610.00
21.68 3629.00
21.7452 3476.00
21.8104 3480.00
21.8756 3427.00
21.9408 3569.00
22.006 3555.00
22.0712 3398.00
22.1364 3474.00
22.2016 3417.00
22.2668 3421.00
22.332 3563.00
22.3972 3418.00
22.4624 3501.00
22.5276 3377.00
22.5928 3523.00
22.658 3586.00
22.7232 3361.00
22.7884 3496.00
22.8536 3492.00
22.9188 3491.00
22.984 3462.00
23.0492 3514.00
23.1144 3486.00
23.1796 3465.00
23.2448 3438.00
23.31 3531.00
23.3752 3532.00
23.4404 3324.00
23.5056 3490.00
23.5708 3468.00
23.6359 3674.00
23.7011 3494.00
23.7663 3606.00
23.8315 3808.00
23.8967 3800.00
23.9619 4440.00
24.0271 5696.00
24.0923 8874.00
24.1575 14194.00
24.2227 12385.00
24.2879 6138.00
24.3531 4671.00
24.4183 5183.00
24.4835 5289.00
24.5487 4228.00
24.6139 3811.00
24.6791 3545.00
24.7443 3534.00
24.8095 3469.00
24.8747 3505.00
24.9399 3488.00
25.0051 3406.00
25.0703 3509.00
25.1355 3460.00
25.2007 3460.00
25.2659 3379.00
25.3311 3478.00
25.3963 3454.00
25.4615 3356.00
25.5267 3418.00
25.5919 3438.00
25.6571 3456.00
25.7223 3506.00
25.7875 3383.00
25.8527 3363.00
25.9179 3347.00
25.9831 3264.00
26.0483 3364.00
26.1135 3366.00
26.1787 3516.00
26.2439 3401.00
26.3091 3416.00
26.3743 3401.00
26.4395 3337.00
26.5047 3368.00
26.5699 3384.00
26.6351 3378.00
26.7003 3422.00
26.7655 3385.00
26.8307 3314.00
26.8959 3349.00
26.9611 3331.00
27.0263 3287.00
27.0915 3370.00
27.1567 3305.00
27.2219 3330.00
27.2871 3183.00
27.3523 3338.00
27.4175 3270.00
27.4827 3297.00
27.5479 3289.00
27.6131 3358.00
27.6783 3429.00
27.7435 3282.00
27.8087 3379.00
27.8739 3381.00
27.9391 3286.00
28.0043 3360.00
28.0695 3306.00
28.1347 3327.00
28.1999 3414.00
28.2651 3428.00
28.3303 3382.00
28.3955 3326.00
28.4606 3328.00
28.5258 3286.00
28.591 3265.00
28.6562 3239.00
28.7214 3306.00
28.7866 3261.00
28.8518 3194.00
28.917 3221.00
28.9822 3351.00
29.0474 3256.00
29.1126 3310.00
29.1778 3252.00
29.243 3354.00
29.3082 3279.00
29.3734 3209.00
29.4386 3421.00
29.5038 3359.00
29.569 3306.00
29.6342 3340.00
29.6994 3195.00
29.7646 3369.00
29.8298 3380.00
29.895 3752.00
29.9602 4346.00
30.0254 4526.00
30.0906 3862.00
30.1558 3397.00
30.221 3421.00
30.2862 3296.00
30.3514 3395.00
30.4166 3424.00
30.4818 3490.00
30.547 3483.00
30.6122 3455.00
30.6774 3467.00
30.7426 3521.00
30.8078 3708.00
30.873 4327.00
30.9382 6541.00
31.0034 11329.00
31.0686 11304.00
31.1338 7174.00
31.199 3842.00
31.2642 3434.00
31.3294 3396.00
31.3946 3349.00
31.4598 3428.00
31.525 3302.00
31.5902 3150.00
31.6554 3306.00
31.7206 3257.00
31.7858 3236.00
31.851 3251.00
31.9162 3289.00
31.9814 3314.00
32.0466 3311.00
32.1118 3303.00
32.177 3269.00
32.2422 3215.00
32.3074 3323.00
32.3726 3266.00
32.4378 3307.00
32.503 3255.00
32.5682 3232.00
32.6334 3257.00
32.6986 3200.00
32.7638 3277.00
32.829 3325.00
32.8942 3369.00
32.9594 3396.00
33.0246 3308.00
33.0898 3336.00
33.1549 3520.00
33.2201 3817.00
33.2853 4321.00
33.3505 6270.00
33.4157 8780.00
33.4809 8364.00
33.5461 5875.00
33.6113 4207.00
33.6765 3559.00
33.7417 3439.00
33.8069 3472.00
33.8721 3301.00
33.9373 3422.00
34.0025 3366.00
34.0677 3371.00
34.1329 3498.00
34.1981 3971.00
34.2633 5159.00
34.3285 5783.00
34.3937 4631.00
34.4589 3430.00
34.5241 3376.00
34.5893 3391.00
34.6545 3231.00
34.7197 3276.00
34.7849 3305.00
34.8501 3255.00
34.9153 3224.00
34.9805 3323.00
35.0457 3317.00
35.1109 3199.00
35.1761 3217.00
35.2413 3218.00
35.3065 3283.00
35.3717 3379.00
35.4369 3544.00
35.5021 3987.00
35.5673 3946.00
35.6325 3800.00
35.6977 3726.00
35.7629 4090.00
35.8281 4748.00
35.8933 6673.00
35.9585 7557.00
36.0237 5877.00
36.0889 4293.00
36.1541 3524.00
36.2193 3334.00
36.2845 3331.00
36.3497 3199.00
36.4149 3213.00
36.4801 3206.00
36.5453 3345.00
36.6105 3125.00
36.6757 3231.00
36.7409 3166.00
36.8061 3229.00
36.8713 3375.00
36.9365 3251.00
37.0017 3193.00
37.0669 3230.00
37.1321 3209.00
37.1973 3206.00
37.2625 3159.00
37.3277 3231.00
37.3929 3129.00
37.4581 3201.00
37.5233 3193.00
37.5885 3127.00
37.6537 3230.00
37.7189 3116.00
37.7841 3245.00
37.8493 3099.00
37.9145 3267.00
37.9796 3179.00
38.0448 3264.00
38.11 3193.00
38.1752 3213.00
38.2404 3293.00
38.3056 3291.00
38.3708 3382.00
38.436 3569.00
38.5012 3546.00
38.5664 3523.00
38.6316 3437.00
38.6968 4167.00
38.762 4475.00
38.8272 3921.00
38.8924 3412.00
38.9576 3090.00
39.0228 3214.00
39.088 3093.00
39.1532 3220.00
39.2184 3156.00
39.2836 3128.00
39.3488 3141.00
39.414 3154.00
39.4792 3175.00
39.5444 3205.00
39.6096 3238.00
39.6748 3145.00
39.74 3148.00
39.8052 3140.00
39.8704 3122.00
39.9356 3148.00
40.0008 3165.00
40.066 3113.00
40.1312 3120.00
40.1964 3091.00
40.2616 3122.00
40.3268 3123.00
40.392 3164.00
40.4572 3091.00
40.5224 3175.00
40.5876 3034.00
40.6528 3167.00
40.718 3188.00
40.7832 3256.00
40.8484 3330.00
40.9136 3808.00
40.9788 3551.00
41.044 3797.00
41.1092 4297.00
41.1744 4540.00
41.2396 4019.00
41.3048 3472.00
41.37 3342.00
41.4352 3160.00
41.5004 3147.00
41.5656 3088.00
41.6308 3238.00
41.696 3045.00
41.7612 3127.00
41.8264 3199.00
41.8916 3171.00
41.9568 3073.00
42.022 3100.00
42.0872 3181.00
42.1524 3075.00
42.2176 3091.00
42.2828 3044.00
42.348 3113.00
42.4132 3024.00
42.4784 3070.00
42.5436 3233.00
42.6088 3061.00
42.6739 2994.00
42.7392 3154.00
42.8043 3072.00
42.8695 3095.00
42.9347 3059.00
42.9999 3104.00
43.0651 3198.00
43.1303 3043.00
43.1955 3049.00
43.2607 3104.00
43.3259 3117.00
43.3911 3184.00
43.4563 3125.00
43.5215 3193.00
43.5867 3093.00
43.6519 3126.00
43.7171 3119.00
43.7823 3194.00
43.8475 3314.00
43.9127 3174.00
43.9779 3126.00
44.0431 3160.00
44.1083 3110.00
44.1735 3017.00
44.2387 3157.00
44.3039 3089.00
44.3691 3156.00
44.4343 3023.00
44.4995 3123.00
44.5647 3117.00
44.6299 3112.00
44.6951 3029.00
44.7603 3077.00
44.8255 3139.00
44.8907 3081.00
44.9559 3031.00
45.0211 3112.00
45.0863 3130.00
45.1515 3137.00
45.2167 3138.00
45.2819 3061.00
45.3471 3139.00
45.4123 3072.00
45.4775 3227.00
45.5427 3093.00
45.6079 3155.00
45.6731 3133.00
45.7383 3129.00
45.8035 3170.00
45.8687 3124.00
45.9339 3280.00
45.9991 4024.00
46.0643 4343.00
46.1295 3735.00
46.1947 3563.00
46.2599 3229.00
46.3251 3192.00
46.3903 3230.00
46.4555 3228.00
46.5207 3230.00
46.5859 3339.00
46.6511 3987.00
46.7163 6301.00
46.7815 8340.00
46.8467 5422.00
46.9119 5309.00
46.9771 3454.00
47.0423 3352.00
47.1075 3252.00
47.1727 3210.00
47.2379 3100.00
47.3031 3179.00
47.3683 3033.00
47.4335 3176.00
47.4986 3142.00
47.5639 3202.00
47.629 3086.00
47.6942 3182.00
47.7594 3073.00
47.8246 3146.00
47.8898 3371.00
47.955 3465.00
48.0202 3327.00
48.0854 3305.00
48.1506 3151.00
48.2158 3219.00
48.281 3074.00
48.3462 3081.00
48.4114 3059.00
48.4766 3223.00
48.5418 3014.00
48.607 3201.00
48.6722 3182.00
48.7374 3021.00
48.8026 3231.00
48.8678 3051.00
48.933 3084.00
48.9982 3034.00
49.0634 3097.00
49.1286 3324.00
49.1938 3233.00
49.259 3215.00
49.3242 3200.00
49.3894 3190.00
49.4546 3243.00
49.5198 3237.00
49.585 3323.00
49.6502 4127.00
49.7154 5237.00
49.7806 4664.00
49.8458 4236.00
49.911 3777.00
49.9762 3333.00
50.0414 3133.00
50.1066 3127.00
50.1718 3057.00
50.237 3103.00
50.3022 3018.00
50.3674 3173.00
50.4326 3100.00
50.4978 3059.00
50.563 3098.00
50.6282 3140.00
50.6934 3015.00
50.7586 3236.00
50.8238 3053.00
50.889 3069.00
50.9542 3121.00
51.0194 3127.00
51.0846 3020.00
51.1498 2994.00
51.215 3086.00
51.2802 3065.00
51.3454 3028.00
51.4106 3104.00
51.4758 3040.00
51.541 3146.00
51.6062 3055.00
51.6714 3060.00
51.7366 2963.00
51.8018 2967.00
51.867 3053.00
51.9322 2995.00
51.9974 3060.00
52.0626 3004.00
52.1278 3109.00
52.193 2963.00
52.2582 3091.00
52.3233 3155.00
52.3886 3100.00
52.4537 3166.00
52.5189 3295.00
52.5841 3085.00
52.6493 3127.00
52.7145 3072.00
52.7797 3082.00
52.8449 3127.00
52.9101 3095.00
52.9753 3112.00
53.0405 3096.00
53.1057 3080.00
53.1709 3217.00
53.2361 3011.00
53.3013 3008.00
53.3665 3055.00
53.4317 3026.00
53.4969 3087.00
53.5621 3008.00
53.6273 3130.00
53.6925 3056.00
53.7577 3123.00
53.8229 3131.00
53.8881 3122.00
53.9533 3175.00
54.0185 3256.00
54.0837 3305.00
54.1489 3555.00
54.2141 4270.00
54.2793 5760.00
54.3445 5333.00
54.4097 4688.00
54.4749 4290.00
54.5401 3563.00
54.6053 3179.00
54.6705 3221.00
54.7357 3276.00
54.8009 3141.00
54.8661 3106.00
54.9313 3117.00
54.9965 3168.00
55.0617 3026.00
55.1269 3105.00
55.1921 3183.00
55.2573 3263.00
55.3225 4020.00
55.3877 3654.00
55.4529 3467.00
55.5181 3548.00
55.5833 3139.00
55.6485 3044.00
55.7137 3121.00
55.7789 3135.00
55.8441 3021.00
55.9093 3156.00
55.9745 3109.00
56.0397 3048.00
56.1049 3194.00
56.1701 3049.00
56.2353 3064.00
56.3005 3028.00
56.3657 3101.00
56.4309 3119.00
56.4961 3091.00
56.5613 3119.00
56.6265 3059.00
56.6917 3152.00
56.7569 2990.00
56.8221 3106.00
56.8873 3049.00
56.9525 3043.00
57.0177 3081.00
57.0829 2997.00
57.148 3090.00
57.2132 3025.00
57.2784 3118.00
57.3436 3133.00
57.4088 3146.00
57.474 3089.00
57.5392 2990.00
57.6044 3097.00
57.6696 3296.00
57.7348 3412.00
57.8 3612.00
57.8652 3409.00
57.9304 3343.00
57.9956 3197.00
58.0608 3164.00
58.126 3118.00
58.1912 3141.00
58.2564 3092.00
58.3216 3105.00
58.3868 3124.00
58.452 3099.00
58.5172 3121.00
58.5824 3286.00
58.6476 3664.00
58.7128 3428.00
58.778 3312.00
58.8432 3524.00
58.9084 3213.00
58.9736 3304.00
59.0388 3647.00
59.104 4036.00
59.1692 3371.00
59.2344 3587.00
59.2996 3311.00
59.3648 3060.00
59.43 3186.00
59.4952 2983.00
59.5604 3063.00
59.6256 3050.00
59.6908 3047.00
59.756 3078.00
59.8212 3095.00
59.8864 3176.00
59.9516 3023.00
60.0168 3220.00
60.082 3192.00
60.1472 3132.00
60.2124 3001.00
60.2776 3229.00
60.3428 3095.00
60.408 3156.00
60.4732 3064.00
60.5384 2973.00
60.6036 3058.00
60.6688 3081.00
60.734 3085.00
60.7992 3154.00
60.8644 3102.00
60.9296 3119.00
60.9948 3006.00
61.06 2994.00
61.1252 3019.00
61.1904 3143.00
61.2556 2968.00
61.3208 3044.00
61.386 3114.00
61.4512 3075.00
61.5164 3080.00
61.5816 2993.00
61.6468 3031.00
61.712 3046.00
61.7772 3066.00
61.8424 3097.00
61.9076 3168.00
61.9727 2971.00
62.0379 3046.00
62.1031 3053.00
62.1683 3084.00
62.2335 3019.00
62.2987 3140.00
62.3639 3179.00
62.4291 3093.00
62.4943 3246.00
62.5595 3368.00
62.6247 3966.00
62.6899 4738.00
62.7551 4002.00
62.8203 3986.00
62.8855 3837.00
62.9507 3425.00
63.0159 3203.00
63.0811 3160.00
63.1463 3081.00
63.2115 3044.00
63.2767 3091.00
63.3419 3130.00
63.4071 3049.00
63.4723 3116.00
63.5375 3057.00
63.6027 3022.00
63.6679 3051.00
63.7331 3110.00
63.7983 3147.00
63.8635 3234.00
63.9287 3144.00
63.9939 3235.00
64.0591 3410.00
64.1243 3364.00
64.1895 4287.00
64.2547 5660.00
64.3199 4410.00
64.3851 4131.00
64.4503 4419.00
64.5155 3475.00
64.5807 3237.00
64.6459 3182.00
64.7111 3110.00
64.7763 3090.00
64.8415 3064.00
64.9067 3064.00
64.9719 3152.00
65.0371 3034.00
65.1023 3113.00
65.1675 3042.00
65.2327 2992.00
65.2979 3068.00
65.3631 2992.00
65.4283 3083.00
65.4935 3134.00
65.5587 3023.00
65.6239 3111.00
65.6891 2900.00
65.7543 3192.00
65.8195 3007.00
65.8847 3088.00
65.9499 3059.00
66.0151 2999.00
66.0803 3054.00
66.1455 2953.00
66.2107 3054.00
66.2759 3179.00
66.3411 3168.00
66.4063 3029.00
66.4715 3047.00
66.5367 2931.00
66.6019 3092.00
66.6671 2976.00
66.7322 3008.00
66.7974 3114.00
66.8626 2999.00
66.9278 3024.00
66.993 2962.00
67.0582 3094.00
67.1234 3006.00
67.1886 2958.00
67.2538 3049.00
67.319 3103.00
67.3842 3099.00
67.4494 3016.00
67.5146 3071.00
67.5798 2984.00
67.645 3003.00
67.7102 2936.00
67.7754 3050.00
67.8406 3065.00
67.9058 3033.00
67.971 2983.00
68.0362 3020.00
68.1014 2913.00
68.1666 3070.00
68.2318 3060.00
68.297 3085.00
68.3622 3073.00
68.4274 3087.00
68.4926 2940.00
68.5578 3039.00
68.623 3003.00
68.6882 2994.00
68.7534 2960.00
68.8186 3081.00
68.8838 3015.00
68.949 2970.00
69.0142 3039.00
69.0794 3126.00
69.1446 3158.00
69.2098 3075.00
69.275 3108.00
69.3402 3094.00
69.4054 3101.00
69.4706 3153.00
69.5358 3130.00
69.601 3070.00
69.6662 3109.00
69.7314 3244.00
69.7966 3266.00
69.8618 3370.00
69.927 3896.00
69.9922 3863.00
70.0574 3240.00
70.1226 3429.00
70.1878 3541.00
70.253 3088.00
70.3182 3050.00
70.3834 2992.00
70.4486 3086.00
70.5138 3104.00
70.579 3067.00
70.6442 3009.00
70.7094 3082.00
70.7746 3080.00
70.8398 3108.00
70.905 3033.00
70.9702 2929.00
71.0354 3070.00
71.1006 2983.00
71.1658 3070.00
71.231 3006.00
71.2962 3031.00
71.3614 3004.00
71.4266 3139.00
71.4918 2974.00
71.5569 3058.00
71.6221 3126.00
71.6873 3161.00
71.7525 3162.00
71.8177 3442.00
71.8829 3216.00
71.9481 3270.00
72.0133 3478.00
72.0785 3546.00
72.1437 3346.00
72.2089 3261.00
72.2741 3432.00
72.3393 3214.00
72.4045 3242.00
72.4697 3201.00
72.5349 3049.00
72.6001 3177.00
72.6653 3035.00
72.7305 3044.00
72.7957 3024.00
72.8609 3045.00
72.9261 2996.00
72.9913 3008.00
73.0565 3030.00
73.1217 3143.00
73.1869 3009.00
73.2521 3117.00
73.3173 3039.00
73.3825 2963.00
73.4477 3085.00
73.5129 3053.00
73.5781 2935.00
73.6433 2993.00
73.7085 3135.00
73.7737 3024.00
73.8389 3137.00
73.9041 3055.00
73.9693 2991.00
74.0345 2997.00
74.0997 3073.00
74.1649 2998.00
74.2301 3071.00
74.2953 2993.00
74.3605 3142.00
74.4257 3066.00
74.4909 3007.00
74.5561 3216.00
74.6213 3292.00
74.6865 3754.00
74.7517 3406.00
74.8169 3123.00
74.8821 3244.00
74.9473 3306.00
75.0125 3160.00
75.0777 3071.00
75.1429 3019.00
75.2081 3085.00
75.2733 2989.00
75.3385 3120.00
75.4037 3088.00
75.4689 3099.00
75.5341 3111.00
75.5993 3167.00
75.6645 3315.00
75.7297 3376.00
75.7949 3124.00
75.8601 3109.00
75.9253 3218.00
75.9905 3231.00
76.0557 3085.00
76.1209 3060.00
76.186 3148.00
76.2513 3095.00
76.3165 3106.00
76.3816 3054.00
76.4468 3054.00
76.512 3014.00
76.5772 3021.00
76.6424 3080.00
76.7076 2969.00
76.7728 3045.00
76.838 3118.00
76.9032 3212.00
76.9684 3078.00
77.0336 3106.00
77.0988 3184.00
77.164 3000.00
77.2292 3004.00
77.2944 3005.00
77.3596 3264.00
77.4248 3092.00
77.49 3011.00
77.5552 3033.00
77.6204 3021.00
77.6856 3041.00
77.7508 3022.00
77.816 3028.00
77.8812 3100.00
77.9464 3126.00
78.0116 3048.00
78.0768 3048.00
78.142 3016.00
78.2072 3065.00
78.2724 3101.00
78.3376 3005.00
78.4028 3045.00
78.468 3000.00
78.5332 3055.00
78.5984 2966.00
78.6636 3059.00
78.7288 2962.00
78.794 2974.00
78.8592 3045.00
78.9244 3037.00
78.9896 3160.00
79.0548 3073.00
79.12 3139.00
79.1852 3129.00
79.2504 3005.00
79.3156 2977.00
79.3808 3012.00
79.446 3035.00
79.5112 3104.00
79.5764 3109.00
79.6416 3276.00
79.7068 3637.00
79.772 3542.00
79.8372 3153.00
79.9024 3145.00
79.9676 3433.00
80.0328 3407.00
80.098 3671.00
80.1632 3296.00
80.2284 3113.00
80.2936 3332.00
80.3588 3368.00
80.424 3192.00
80.4892 3051.00
80.5544 2999.00
80.6196 3148.00
80.6848 3072.00
80.75 3232.00
80.8152 3219.00
80.8804 3228.00
80.9456 3178.00
81.0108 3095.00
81.076 3246.00
81.1412 3130.00
81.2063 3059.00
81.2715 3104.00
81.3367 2952.00
81.4019 3069.00
81.4671 3068.00
81.5323 2903.00
81.5975 2988.00
81.6627 3101.00
81.7279 3040.00
81.7931 3167.00
81.8583 3454.00
81.9235 3271.00
81.9887 3060.00
82.0539 3144.00
82.1191 3262.00
82.1843 3111.00
82.2495 3097.00
82.3147 3113.00
82.3799 3118.00
82.4451 2985.00
82.5103 3123.00
82.5755 3213.00
82.6407 3016.00
82.7059 3065.00
82.7711 3040.00
82.8363 3094.00
82.9015 3004.00
82.9667 3115.00
83.0319 3190.00
83.0971 3314.00
83.1623 3217.00
83.2275 3122.00
83.2927 3123.00
83.3579 3022.00
83.4231 3143.00
83.4883 3131.00
83.5535 3102.00
83.6187 3072.00
83.6839 2990.00
83.7491 3148.00
83.8143 3096.00
83.8795 2990.00
83.9447 3078.00
84.0099 3095.00
84.0751 2957.00
84.1403 3048.00
84.2055 3100.00
84.2707 2972.00
84.3359 3068.00
84.4011 3016.00
84.4663 3129.00
84.5315 3098.00
84.5967 3125.00
84.6619 2983.00
84.7271 3012.00
84.7923 3071.00
84.8575 3070.00
84.9227 3072.00
84.9879 3114.00
85.0531 3102.00
85.1183 3443.00
85.1835 3313.00
85.2487 3293.00
85.3139 3162.00
85.3791 3329.00
85.4443 3161.00
85.5095 3158.00
85.5747 3115.00
85.6399 3095.00
85.7051 3208.00
85.7703 3155.00
85.8354 3157.00
85.9006 3052.00
85.9659 3265.00
86.031 3072.00
86.0962 3031.00
86.1614 2937.00
86.2266 3020.00
86.2918 3128.00
86.357 2923.00
86.4222 3041.00
86.4874 3077.00
86.5526 3017.00
86.6178 2990.00
86.683 2977.00
86.7482 3142.00
86.8134 2921.00
86.8786 3026.00
86.9438 3064.00
87.009 3000.00
87.0742 3094.00
87.1394 3065.00
87.2046 3077.00
87.2698 3138.00
87.335 3111.00
87.4002 3104.00
87.4654 3059.00
87.5306 3054.00
87.5958 2968.00
87.661 2959.00
87.7262 3107.00
87.7914 3108.00
87.8566 3085.00
87.9218 2992.00
87.987 2962.00
88.0522 3047.00
88.1174 3118.00
88.1826 3027.00
88.2478 3081.00
88.313 3011.00
88.3782 2922.00
88.4434 3019.00
88.5086 3163.00
88.5738 3064.00
88.639 3100.00
88.7042 3362.00
88.7694 3372.00
88.8346 3142.00
88.8998 3197.00
88.965 3223.00
89.0302 3146.00
89.0954 3122.00
89.1606 3113.00
89.2258 3046.00
89.291 3002.00
89.3562 3126.00
89.4214 3106.00
89.4866 2990.00
89.5518 2998.00
89.617 3003.00
89.6822 2976.00
89.7474 3060.00
89.8126 3175.00
89.8778 2983.00
89.943 2974.00
90.0082 3083.00
90.0734 3085.00
90.1386 3030.00
90.2038 3039.00
90.269 3041.00
90.3342 3128.00
90.3994 3074.00
90.4646 2893.00
90.5298 2911.00
90.595 3032.00
90.6601 3020.00
90.7253 2991.00
90.7905 3080.00
90.8557 3020.00
90.9209 2986.00
90.9861 2984.00
91.0513 2996.00
91.1165 3028.00
91.1817 3054.00
91.2469 3069.00
91.3121 3063.00
91.3773 3131.00
91.4425 3040.00
91.5077 3034.00
91.5729 3065.00
91.6381 3017.00
91.7033 3016.00
91.7685 2969.00
91.8337 2976.00
91.8989 3032.00
91.9641 3000.00
92.0293 2972.00
92.0945 3012.00
92.1597 3067.00
92.2249 2999.00
92.2901 2994.00
92.3553 3027.00
92.4205 2991.00
92.4857 3045.00
92.5509 3030.00
92.6161 3062.00
92.6813 2917.00
92.7465 2983.00
92.8117 3001.00
92.8769 3037.00
92.9421 2948.00
93.0073 3066.00
93.0725 3027.00
93.1377 3117.00
93.2029 3067.00
93.2681 3033.00
93.3333 3042.00
93.3985 3141.00
93.4637 3015.00
93.5289 3010.00
93.5941 3005.00
93.6593 3095.00
93.7245 3131.00
93.7897 3397.00
93.8549 3358.00
93.9201 3167.00
93.9853 3104.00
94.0505 3321.00
94.1157 3242.00
94.1809 3161.00
94.2461 3092.00
94.3113 3064.00
94.3765 3058.00
94.4417 3124.00
94.5069 2968.00
94.5721 3165.00
94.6373 3073.00
94.7025 2975.00
94.7677 3260.00
94.8329 3124.00
94.8981 3034.00
94.9633 3021.00
95.0285 3070.00
95.0937 3014.00
95.1589 3083.00
95.2241 3108.00
95.2893 3152.00
95.3545 3085.00
95.4197 3128.00
95.4848 3417.00
95.55 3179.00
95.6153 3082.00
95.6804 3069.00
95.7456 3217.00
95.8108 3414.00
95.876 3260.00
95.9412 3068.00
96.0064 3107.00
96.0716 3082.00
96.1368 3179.00
96.202 3109.00
96.2672 3062.00
96.3324 3078.00
96.3976 3028.00
96.4628 3058.00
96.528 3093.00
96.5932 3233.00
96.6584 3171.00
96.7236 3027.00
96.7888 3028.00
96.854 3147.00
96.9192 3299.00
96.9844 3001.00
97.0496 3069.00
97.1148 3188.00
97.18 3093.00
97.2452 3055.00
97.3104 3051.00
97.3756 3089.00
97.4408 3092.00
97.506 3076.00
97.5712 3024.00
97.6364 2973.00
97.7016 3102.00
97.7668 3087.00
97.832 3013.00
97.8972 3055.00
97.9624 3048.00
98.0276 3006.00
98.0928 3028.00
98.158 2988.00
98.2232 2965.00
98.2884 3010.00
98.3536 2952.00
98.4188 2951.00
98.484 2997.00
98.5492 2992.00
98.6144 3055.00
98.6796 3074.00
98.7448 2994.00
98.81 3067.00
98.8752 3085.00
98.9404 3101.00
99.0056 3037.00
99.0708 3052.00
99.136 2923.00
99.2012 3214.00
99.2664 3086.00
99.3316 3356.00
99.3968 3197.00
99.462 3141.00
99.5272 3026.00
99.5924 2904.00
99.6576 3221.00
99.7228 3528.00
99.788 3235.00
99.8532 3054.00
99.9184 3170.00
99.9836 3109.00
99.9944 3098.00