File: data/xrd_creation/results/PG_1743-1.xy
9.903433 2903.00
9.968632 2909.00
10.0338 2748.00
10.099 2770.00
10.1642 2662.00
10.2294 2737.00
10.2946 2732.00
10.3598 2682.00
10.425 2742.00
10.4902 2651.00
10.5554 2683.00
10.6206 2638.00
10.6858 2674.00
10.751 2629.00
10.8162 2547.00
10.8814 2514.00
10.9466 2640.00
11.0118 2524.00
11.077 2546.00
11.1422 2444.00
11.2074 2498.00
11.2726 2565.00
11.3378 2487.00
11.403 2416.00
11.4682 2392.00
11.5334 2435.00
11.5986 2313.00
11.6638 2368.00
11.729 2432.00
11.7942 2413.00
11.8594 2535.00
11.9246 2349.00
11.9898 2314.00
12.055 2375.00
12.1202 2305.00
12.1854 2371.00
12.2506 2345.00
12.3158 2323.00
12.381 2249.00
12.4462 2286.00
12.5114 2226.00
12.5766 2162.00
12.6418 2145.00
12.707 2263.00
12.7722 2308.00
12.8374 2300.00
12.9026 2074.00
12.9678 2178.00
13.033 2270.00
13.0982 2128.00
13.1634 2266.00
13.2286 2226.00
13.2938 2181.00
13.359 2179.00
13.4242 2057.00
13.4894 2099.00
13.5546 2181.00
13.6198 2183.00
13.685 2136.00
13.7502 2068.00
13.8154 2009.00
13.8805 2009.00
13.9457 2021.00
14.0109 2089.00
14.0761 2054.00
14.1413 2092.00
14.2065 1988.00
14.2717 2002.00
14.3369 2019.00
14.4021 1983.00
14.4673 2021.00
14.5325 1988.00
14.5977 2010.00
14.6629 1958.00
14.7281 1929.00
14.7933 1969.00
14.8585 2046.00
14.9237 1961.00
14.9889 1940.00
15.0541 1917.00
15.1193 1975.00
15.1845 1951.00
15.2497 2003.00
15.3149 1974.00
15.3801 1946.00
15.4453 2021.00
15.5105 1985.00
15.5757 1915.00
15.6409 1877.00
15.7061 1951.00
15.7713 1872.00
15.8365 1859.00
15.9017 1905.00
15.9669 1916.00
16.0321 1939.00
16.0973 1904.00
16.1625 1891.00
16.2277 1965.00
16.2929 1844.00
16.3581 1910.00
16.4233 1879.00
16.4885 1815.00
16.5537 1930.00
16.6189 1917.00
16.6841 1984.00
16.7493 1938.00
16.8145 1879.00
16.8797 1870.00
16.9449 1824.00
17.0101 1866.00
17.0753 1824.00
17.1405 1862.00
17.2057 1785.00
17.2709 1901.00
17.3361 1918.00
17.4013 1911.00
17.4665 1923.00
17.5317 1899.00
17.5969 2091.00
17.6621 2351.00
17.7273 2598.00
17.7925 3164.00
17.8577 3543.00
17.9229 2994.00
17.9881 2375.00
18.0533 2015.00
18.1185 1891.00
18.1837 1810.00
18.2489 1877.00
18.3141 1737.00
18.3793 1790.00
18.4445 1848.00
18.5097 1744.00
18.5749 1792.00
18.6401 1809.00
18.7052 1856.00
18.7704 1831.00
18.8356 1795.00
18.9008 1744.00
18.966 1781.00
19.0312 1809.00
19.0964 1692.00
19.1616 1796.00
19.2268 1719.00
19.292 1687.00
19.3572 1773.00
19.4224 1791.00
19.4876 1796.00
19.5528 1762.00
19.618 1727.00
19.6832 1714.00
19.7484 1743.00
19.8136 1703.00
19.8788 1730.00
19.944 1698.00
20.0092 1736.00
20.0744 1719.00
20.1396 1643.00
20.2048 1683.00
20.27 1712.00
20.3352 1648.00
20.4004 1726.00
20.4656 1633.00
20.5308 1767.00
20.596 1663.00
20.6612 1719.00
20.7264 1679.00
20.7916 1646.00
20.8568 1738.00
20.922 1721.00
20.9872 1707.00
21.0524 1700.00
21.1176 1680.00
21.1828 1732.00
21.248 1688.00
21.3132 1651.00
21.3784 1667.00
21.4436 1722.00
21.5088 1660.00
21.574 1733.00
21.6392 1676.00
21.7044 1622.00
21.7696 1695.00
21.8348 1644.00
21.9 1650.00
21.9652 1627.00
22.0304 1704.00
22.0956 1626.00
22.1608 1659.00
22.226 1649.00
22.2912 1676.00
22.3564 1616.00
22.4216 1626.00
22.4868 1718.00
22.552 1648.00
22.6172 1643.00
22.6824 1651.00
22.7476 1600.00
22.8128 1609.00
22.878 1666.00
22.9432 1616.00
23.0084 1606.00
23.0736 1577.00
23.1388 1595.00
23.204 1580.00
23.2692 1640.00
23.3344 1624.00
23.3996 1662.00
23.4647 1687.00
23.5299 1639.00
23.5951 1629.00
23.6603 1628.00
23.7255 1641.00
23.7907 1697.00
23.8559 1648.00
23.9211 1612.00
23.9863 1681.00
24.0515 1748.00
24.1167 1854.00
24.1819 1902.00
24.2471 2235.00
24.3123 2694.00
24.3775 3923.00
24.4427 5718.00
24.5079 6877.00
24.5731 5529.00
24.6383 3623.00
24.7035 2912.00
24.7687 3342.00
24.8339 4422.00
24.8991 5887.00
24.9643 5088.00
25.0295 3264.00
25.0947 2229.00
25.1599 1827.00
25.2251 1820.00
25.2903 1738.00
25.3555 1694.00
25.4207 1532.00
25.4859 1591.00
25.5511 1547.00
25.6163 1604.00
25.6815 1544.00
25.7467 1536.00
25.8119 1589.00
25.8771 1634.00
25.9423 1499.00
26.0075 1553.00
26.0727 1548.00
26.1379 1457.00
26.2031 1519.00
26.2683 1463.00
26.3335 1428.00
26.3987 1470.00
26.4639 1483.00
26.5291 1515.00
26.5943 1441.00
26.6595 1507.00
26.7247 1510.00
26.7899 1492.00
26.8551 1468.00
26.9203 1503.00
26.9855 1421.00
27.0507 1475.00
27.1159 1471.00
27.1811 1513.00
27.2463 1439.00
27.3115 1410.00
27.3767 1451.00
27.4419 1565.00
27.5071 1583.00
27.5723 1516.00
27.6375 1651.00
27.7027 1736.00
27.7679 1774.00
27.8331 1890.00
27.8983 1889.00
27.9635 1997.00
28.0287 2132.00
28.0939 2314.00
28.1591 2591.00
28.2243 2911.00
28.2894 3571.00
28.3546 4536.00
28.4198 6527.00
28.485 11106.00
28.5502 19418.00
28.6154 30300.00
28.6806 32886.00
28.7458 21957.00
28.811 11439.00
28.8762 6414.00
28.9414 4567.00
29.0066 3409.00
29.0718 2839.00
29.137 2501.00
29.2022 2220.00
29.2674 2114.00
29.3326 1890.00
29.3978 1811.00
29.463 1840.00
29.5282 1801.00
29.5934 1769.00
29.6586 1687.00
29.7238 1709.00
29.789 1637.00
29.8542 1585.00
29.9194 1537.00
29.9846 1617.00
30.0498 1534.00
30.115 1495.00
30.1802 1515.00
30.2454 1516.00
30.3106 1541.00
30.3758 1606.00
30.441 1584.00
30.5062 1633.00
30.5714 1584.00
30.6366 1515.00
30.7018 1604.00
30.767 1555.00
30.8322 1736.00
30.8974 1661.00
30.9626 1771.00
31.0278 1777.00
31.093 1779.00
31.1582 1821.00
31.2234 1801.00
31.2886 1980.00
31.3538 2161.00
31.419 2354.00
31.4842 2437.00
31.5494 2843.00
31.6146 3309.00
31.6798 4256.00
31.745 6144.00
31.8102 9965.00
31.8754 16671.00
31.9406 24769.00
32.0058 23564.00
32.071 15476.00
32.1362 8342.00
32.2014 4837.00
32.2666 3587.00
32.3318 2716.00
32.397 2416.00
32.4622 2043.00
32.5274 1919.00
32.5926 1764.00
32.6578 1632.00
32.723 1565.00
32.7882 1553.00
32.8534 1545.00
32.9186 1502.00
32.9838 1438.00
33.0489 1398.00
33.1141 1423.00
33.1793 1400.00
33.2445 1354.00
33.3097 1372.00
33.3749 1403.00
33.4401 1422.00
33.5053 1416.00
33.5705 1346.00
33.6357 1434.00
33.7009 1457.00
33.7661 1377.00
33.8313 1408.00
33.8965 1471.00
33.9617 1411.00
34.0269 1531.00
34.0921 1575.00
34.1573 1549.00
34.2225 1698.00
34.2877 1876.00
34.3529 2139.00
34.4181 2856.00
34.4833 4080.00
34.5485 6635.00
34.6137 9293.00
34.6789 9619.00
34.7441 7483.00
34.8093 6554.00
34.8745 7998.00
34.9397 8632.00
35.0049 6550.00
35.0701 4209.00
35.1353 2678.00
35.2005 2154.00
35.2657 1833.00
35.3309 1771.00
35.3961 1772.00
35.4613 1912.00
35.5265 1955.00
35.5917 2233.00
35.6569 3283.00
35.7221 5519.00
35.7873 8811.00
35.8525 9305.00
35.9177 6373.00
35.9829 3697.00
36.0481 2276.00
36.1133 2048.00
36.1785 2021.00
36.2437 2318.00
36.3089 2928.00
36.3741 3490.00
36.4393 3174.00
36.5045 2419.00
36.5697 1794.00
36.6349 1566.00
36.7001 1377.00
36.7653 1310.00
36.8305 1322.00
36.8957 1237.00
36.9609 1223.00
37.0261 1182.00
37.0913 1153.00
37.1565 1144.00
37.2217 1126.00
37.2869 1138.00
37.3521 1157.00
37.4173 1097.00
37.4825 1222.00
37.5477 1197.00
37.6129 1158.00
37.6781 1149.00
37.7433 1120.00
37.8085 1152.00
37.8736 1190.00
37.9388 1102.00
38.004 1158.00
38.0692 1127.00
38.1344 1134.00
38.1996 1189.00
38.2648 1171.00
38.33 1126.00
38.3952 1118.00
38.4604 1123.00
38.5256 1094.00
38.5908 1228.00
38.656 1224.00
38.7212 1184.00
38.7864 1282.00
38.8516 1457.00
38.9168 1812.00
38.982 2314.00
39.0472 3631.00
39.1124 4058.00
39.1776 3222.00
39.2428 2334.00
39.308 1797.00
39.3732 1443.00
39.4384 1424.00
39.5036 1250.00
39.5688 1178.00
39.634 1141.00
39.6992 1237.00
39.7644 1120.00
39.8296 1157.00
39.8948 1094.00
39.96 1217.00
40.0252 1138.00
40.0904 1142.00
40.1556 1203.00
40.2208 1129.00
40.286 1217.00
40.3512 1213.00
40.4164 1334.00
40.4816 1442.00
40.5468 1362.00
40.612 1328.00
40.6772 1277.00
40.7424 1226.00
40.8076 1317.00
40.8728 1406.00
40.938 1455.00
41.0032 1622.00
41.0684 2018.00
41.1336 2869.00
41.1988 3947.00
41.264 5152.00
41.3292 4871.00
41.3944 3796.00
41.4596 2774.00
41.5248 2410.00
41.59 2385.00
41.6552 2667.00
41.7204 2627.00
41.7856 2494.00
41.8508 2473.00
41.916 2588.00
41.9812 2381.00
42.0464 1945.00
42.1116 1572.00
42.1768 1364.00
42.242 1127.00
42.3072 1209.00
42.3724 1107.00
42.4376 1053.00
42.5028 1094.00
42.568 1073.00
42.6332 1101.00
42.6983 1097.00
42.7635 1010.00
42.8287 1037.00
42.8939 1001.00
42.9591 1028.00
43.0243 1006.00
43.0895 998.00
43.1547 1070.00
43.2199 1012.00
43.2851 1000.00
43.3503 1004.00
43.4155 1061.00
43.4807 972.00
43.5459 1038.00
43.6111 1040.00
43.6763 995.00
43.7415 1009.00
43.8067 1005.00
43.8719 1011.00
43.9371 993.00
44.0023 962.00
44.0675 1039.00
44.1327 982.00
44.1979 962.00
44.2631 1049.00
44.3283 1001.00
44.3935 999.00
44.4587 986.00
44.5239 1029.00
44.5891 1007.00
44.6543 991.00
44.7195 1011.00
44.7847 1050.00
44.8499 1076.00
44.9151 1063.00
44.9803 1069.00
45.0455 1107.00
45.1107 1217.00
45.1759 1369.00
45.2411 1589.00
45.3063 2037.00
45.3715 2368.00
45.4367 2338.00
45.5019 1970.00
45.5671 1630.00
45.6323 1430.00
45.6975 1388.00
45.7627 1308.00
45.8279 1456.00
45.8931 1730.00
45.9583 2132.00
46.0235 2803.00
46.0887 2996.00
46.1539 2735.00
46.2191 2066.00
46.2843 1610.00
46.3495 1372.00
46.4147 1175.00
46.4799 1107.00
46.5451 1050.00
46.6103 1026.00
46.6755 968.00
46.7407 1040.00
46.8059 937.00
46.8711 919.00
46.9363 990.00
47.0015 1002.00
47.0667 970.00
47.1319 987.00
47.1971 1008.00
47.2623 968.00
47.3275 959.00
47.3927 947.00
47.4579 963.00
47.523 950.00
47.5882 920.00
47.6534 1015.00
47.7186 978.00
47.7838 966.00
47.849 944.00
47.9142 1002.00
47.9794 992.00
48.0446 943.00
48.1098 962.00
48.175 1029.00
48.2402 963.00
48.3054 1038.00
48.3706 969.00
48.4358 921.00
48.501 958.00
48.5662 963.00
48.6314 993.00
48.6966 1019.00
48.7618 999.00
48.827 1004.00
48.8922 1029.00
48.9574 1057.00
49.0226 1020.00
49.0878 1090.00
49.153 1101.00
49.2182 1152.00
49.2834 1265.00
49.3486 1377.00
49.4138 1517.00
49.479 1730.00
49.5442 1846.00
49.6094 1964.00
49.6746 2638.00
49.7398 3965.00
49.805 6282.00
49.8702 6623.00
49.9354 5475.00
50.0006 4201.00
50.0658 2577.00
50.131 1952.00
50.1962 1660.00
50.2614 1535.00
50.3266 1511.00
50.3918 1624.00
50.457 1780.00
50.5222 2152.00
50.5874 3329.00
50.6526 5752.00
50.7178 8754.00
50.783 7327.00
50.8482 6203.00
50.9134 4350.00
50.9786 3132.00
51.0438 3331.00
51.109 4570.00
51.1742 4754.00
51.2394 3821.00
51.3046 3168.00
51.3698 2304.00
51.435 1682.00
51.5002 1479.00
51.5654 1408.00
51.6306 1532.00
51.6958 1803.00
51.761 2312.00
51.8262 2417.00
51.8914 2190.00
51.9566 1883.00
52.0218 1559.00
52.087 1292.00
52.1522 1127.00
52.2174 1111.00
52.2826 1077.00
52.3477 1015.00
52.4129 1042.00
52.4781 1057.00
52.5433 974.00
52.6085 1006.00
52.6737 999.00
52.7389 972.00
52.8041 1014.00
52.8693 969.00
52.9345 979.00
52.9997 1010.00
53.0649 971.00
53.1301 983.00
53.1953 1018.00
53.2605 1023.00
53.3257 985.00
53.3909 950.00
53.4561 959.00
53.5213 969.00
53.5865 976.00
53.6517 1033.00
53.7169 1018.00
53.7821 1047.00
53.8473 1051.00
53.9125 1017.00
53.9777 1039.00
54.0429 1066.00
54.1081 1075.00
54.1733 1114.00
54.2385 1203.00
54.3037 1262.00
54.3689 1407.00
54.4341 1542.00
54.4993 1893.00
54.5645 2437.00
54.6297 3422.00
54.6949 4160.00
54.7601 4244.00
54.8253 3527.00
54.8905 2908.00
54.9557 2151.00
55.0209 1731.00
55.0861 1510.00
55.1513 1360.00
55.2165 1456.00
55.2817 1539.00
55.3469 1532.00
55.4121 1502.00
55.4773 1511.00
55.5425 1400.00
55.6077 1516.00
55.6729 1665.00
55.7381 1981.00
55.8033 2583.00
55.8685 3761.00
55.9337 5132.00
55.9989 5537.00
56.0641 5055.00
56.1293 4924.00
56.1945 4425.00
56.2597 3360.00
56.3249 2975.00
56.3901 2777.00
56.4553 2945.00
56.5205 3811.00
56.5857 3672.00
56.6509 3242.00
56.7161 2817.00
56.7813 2049.00
56.8465 1617.00
56.9117 1380.00
56.9769 1235.00
57.042 1169.00
57.1073 1158.00
57.1724 1074.00
57.2376 1067.00
57.3028 1173.00
57.368 1234.00
57.4332 1145.00
57.4984 1376.00
57.5636 1484.00
57.6288 1796.00
57.694 2250.00
57.7592 3147.00
57.8244 3351.00
57.8896 3025.00
57.9548 2658.00
58.02 2095.00
58.0852 1724.00
58.1504 1466.00
58.2156 1456.00
58.2808 1445.00
58.346 1538.00
58.4112 1909.00
58.4764 2701.00
58.5416 2919.00
58.6068 2711.00
58.672 2570.00
58.7372 2255.00
58.8024 2174.00
58.8676 2452.00
58.9328 2350.00
58.998 2058.00
59.0632 1901.00
59.1284 1510.00
59.1936 1230.00
59.2588 1174.00
59.324 1108.00
59.3892 1105.00
59.4544 1154.00
59.5196 1106.00
59.5848 1121.00
59.65 1103.00
59.7152 1046.00
59.7804 1045.00
59.8456 1062.00
59.9108 1136.00
59.976 1083.00
60.0412 1192.00
60.1064 1222.00
60.1716 1388.00
60.2368 1550.00
60.302 1918.00
60.3672 2683.00
60.4324 3812.00
60.4976 3854.00
60.5628 3738.00
60.628 3847.00
60.6932 3672.00
60.7584 2833.00
60.8236 2445.00
60.8888 2146.00
60.954 1664.00
61.0192 1358.00
61.0844 1297.00
61.1496 1189.00
61.2148 1102.00
61.28 1105.00
61.3452 1056.00
61.4104 1113.00
61.4756 1148.00
61.5408 1206.00
61.606 1142.00
61.6712 1287.00
61.7364 1397.00
61.8016 1523.00
61.8667 1932.00
61.932 2369.00
61.9971 2871.00
62.0623 2767.00
62.1275 2535.00
62.1927 2271.00
62.2579 1962.00
62.3231 1887.00
62.3883 1921.00
62.4535 2243.00
62.5187 2745.00
62.5839 3314.00
62.6491 3117.00
62.7143 2543.00
62.7795 2343.00
62.8447 1827.00
62.9099 1474.00
62.9751 1381.00
63.0403 1288.00
63.1055 1332.00
63.1707 1424.00
63.2359 1425.00
63.3011 1719.00
63.3663 2138.00
63.4315 2821.00
63.4967 3508.00
63.5619 3655.00
63.6271 2979.00
63.6923 2762.00
63.7575 2212.00
63.8227 1607.00
63.8879 1379.00
63.9531 1270.00
64.0183 1152.00
64.0835 1133.00
64.1487 1080.00
64.2139 1053.00
64.2791 1107.00
64.3443 1035.00
64.4095 1036.00
64.4747 1098.00
64.5399 1060.00
64.6051 1084.00
64.6703 1339.00
64.7355 1575.00
64.8007 1622.00
64.8659 1848.00
64.9311 2058.00
64.9963 1935.00
65.0615 1584.00
65.1267 1508.00
65.1919 1236.00
65.2571 1191.00
65.3223 1048.00
65.3875 1066.00
65.4527 1054.00
65.5179 1069.00
65.5831 1057.00
65.6483 1256.00
65.7135 1250.00
65.7787 1246.00
65.8439 1330.00
65.9091 1282.00
65.9743 1714.00
66.0395 1879.00
66.1047 1949.00
66.1699 2012.00
66.2351 2254.00
66.3003 2742.00
66.3655 3307.00
66.4307 3426.00
66.4959 2820.00
66.561 2776.00
66.6263 2556.00
66.6915 1880.00
66.7566 1618.00
66.8218 1391.00
66.887 1229.00
66.9522 1062.00
67.0174 1014.00
67.0826 1054.00
67.1478 945.00
67.213 956.00
67.2782 1038.00
67.3434 923.00
67.4086 881.00
67.4738 963.00
67.539 942.00
67.6042 922.00
67.6694 939.00
67.7346 926.00
67.7998 966.00
67.865 901.00
67.9302 924.00
67.9954 859.00
68.0606 932.00
68.1258 870.00
68.191 887.00
68.2562 911.00
68.3214 876.00
68.3866 912.00
68.4518 904.00
68.517 931.00
68.5822 904.00
68.6474 881.00
68.7126 870.00
68.7778 888.00
68.843 897.00
68.9082 887.00
68.9734 915.00
69.0386 916.00
69.1038 901.00
69.169 964.00
69.2342 991.00
69.2994 918.00
69.3646 1051.00
69.4298 1033.00
69.495 1199.00
69.5602 1495.00
69.6254 1676.00
69.6906 1602.00
69.7558 1446.00
69.821 1434.00
69.8862 1346.00
69.9514 1224.00
70.0166 1083.00
70.0818 953.00
70.147 1068.00
70.2122 1122.00
70.2774 1122.00
70.3426 1139.00
70.4078 1084.00
70.473 1059.00
70.5382 1085.00
70.6034 986.00
70.6686 981.00
70.7338 980.00
70.799 984.00
70.8642 1070.00
70.9294 1043.00
70.9946 973.00
71.0598 1011.00
71.125 1010.00
71.1902 973.00
71.2554 988.00
71.3205 967.00
71.3858 1071.00
71.451 1041.00
71.5162 1076.00
71.5813 1268.00
71.6465 1508.00
71.7117 1808.00
71.7769 2287.00
71.8421 2313.00
71.9073 2429.00
71.9725 2475.00
72.0377 2158.00
72.1029 1837.00
72.1681 1658.00
72.2333 1381.00
72.2985 1152.00
72.3637 1175.00
72.4289 1064.00
72.4941 1084.00
72.5593 1114.00
72.6245 1241.00
72.6897 1353.00
72.7549 1400.00
72.8201 1542.00
72.8853 1488.00
72.9505 1358.00
73.0157 1398.00
73.0809 1287.00
73.1461 1271.00
73.2113 1439.00
73.2765 1490.00
73.3417 1458.00
73.4069 1424.00
73.4721 1399.00
73.5373 1214.00
73.6025 1193.00
73.6677 1099.00
73.7329 993.00
73.7981 933.00
73.8633 908.00
73.9285 926.00
73.9937 893.00
74.0589 927.00
74.1241 970.00
74.1893 1064.00
74.2545 1066.00
74.3197 994.00
74.3849 966.00
74.4501 967.00
74.5153 951.00
74.5805 920.00
74.6457 870.00
74.7109 881.00
74.7761 880.00
74.8413 932.00
74.9065 844.00
74.9717 951.00
75.0369 935.00
75.1021 960.00
75.1673 984.00
75.2325 1032.00
75.2977 1224.00
75.3629 1406.00
75.4281 1546.00
75.4933 1445.00
75.5585 1332.00
75.6237 1481.00
75.6889 1576.00
75.7541 1880.00
75.8193 2110.00
75.8845 2136.00
75.9497 1919.00
76.0149 1920.00
76.0801 1718.00
76.1452 1497.00
76.2104 1287.00
76.2756 1142.00
76.3409 1009.00
76.406 1058.00
76.4712 925.00
76.5364 992.00
76.6016 941.00
76.6668 956.00
76.732 935.00
76.7972 929.00
76.8624 1041.00
76.9276 993.00
76.9928 1103.00
77.058 1214.00
77.1232 1393.00
77.1884 1606.00
77.2536 1528.00
77.3188 1506.00
77.384 1336.00
77.4492 1308.00
77.5144 1318.00
77.5796 1132.00
77.6448 1116.00
77.71 1138.00
77.7752 1085.00
77.8404 1099.00
77.9056 1056.00
77.9708 1199.00
78.036 1317.00
78.1012 1418.00
78.1664 1337.00
78.2316 1418.00
78.2968 1416.00
78.362 1295.00
78.4272 1223.00
78.4924 1178.00
78.5576 1199.00
78.6228 1140.00
78.688 1153.00
78.7532 1218.00
78.8184 1324.00
78.8836 1235.00
78.9488 1190.00
79.014 1113.00
79.0792 1130.00
79.1444 1077.00
79.2096 1031.00
79.2748 1017.00
79.34 1108.00
79.4052 1087.00
79.4704 1170.00
79.5356 1237.00
79.6008 1480.00
79.666 1756.00
79.7312 1646.00
79.7964 1535.00
79.8616 1437.00
79.9268 1373.00
79.992 1194.00
80.0572 1106.00
80.1224 946.00
80.1876 983.00
80.2528 957.00
80.318 895.00
80.3832 938.00
80.4484 891.00
80.5136 946.00
80.5788 840.00
80.644 896.00
80.7092 873.00
80.7744 825.00
80.8396 887.00
80.9048 935.00
80.9699 922.00
81.0351 965.00
81.1003 992.00
81.1655 1086.00
81.2307 1038.00
81.2959 1063.00
81.3611 1022.00
81.4263 1016.00
81.4915 1056.00
81.5567 979.00
81.6219 959.00
81.6871 953.00
81.7523 1035.00
81.8175 927.00
81.8827 1025.00
81.9479 1089.00
82.0131 1161.00
82.0783 1252.00
82.1435 1251.00
82.2087 1320.00
82.2739 1586.00
82.3391 1627.00
82.4043 1504.00
82.4695 1428.00
82.5347 1322.00
82.5999 1337.00
82.6651 1179.00
82.7303 1095.00
82.7955 1015.00
82.8607 1023.00
82.9259 1095.00
82.9911 1090.00
83.0563 1144.00
83.1215 1128.00
83.1867 1153.00
83.2519 1356.00
83.3171 1431.00
83.3823 1559.00
83.4475 1458.00
83.5127 1473.00
83.5779 1565.00
83.6431 1469.00
83.7083 1432.00
83.7735 1422.00
83.8387 1683.00
83.9039 1775.00
83.9691 1608.00
84.0343 1563.00
84.0995 1629.00
84.1647 1612.00
84.2299 1451.00
84.2951 1328.00
84.3603 1321.00
84.4255 1287.00
84.4907 1276.00
84.5559 1402.00
84.6211 1436.00
84.6863 1595.00
84.7515 1636.00
84.8167 1627.00
84.8819 1724.00
84.9471 1803.00
85.0123 1668.00
85.0775 1524.00
85.1427 1419.00
85.2079 1397.00
85.2731 1281.00
85.3383 1246.00
85.4035 1086.00
85.4687 1060.00
85.5339 1163.00
85.5991 1197.00
85.6643 1409.00
85.7295 1515.00
85.7946 1290.00
85.8598 1249.00
85.925 1132.00
85.9903 1211.00
86.0554 1116.00
86.1206 1018.00
86.1858 1008.00
86.251 916.00
86.3162 923.00
86.3814 928.00
86.4466 951.00
86.5118 985.00
86.577 954.00
86.6422 969.00
86.7074 1072.00
86.7726 1168.00
86.8378 1163.00
86.903 1266.00
86.9682 1331.00
87.0334 1229.00
87.0986 1173.00
87.1638 1181.00
87.229 1144.00
87.2942 1091.00
87.3594 973.00
87.4246 973.00
87.4898 914.00
87.555 890.00
87.6202 942.00
87.6854 904.00
87.7506 951.00
87.8158 984.00
87.881 949.00
87.9462 955.00
88.0114 1000.00
88.0766 1077.00
88.1418 1137.00
88.207 1390.00
88.2722 1592.00
88.3374 1547.00
88.4026 1479.00
88.4678 1376.00
88.533 1453.00
88.5982 1382.00
88.6634 1292.00
88.7286 1216.00
88.7938 1293.00
88.859 1287.00
88.9242 1512.00
88.9894 1635.00
89.0546 1675.00
89.1198 1542.00
89.185 1614.00
89.2502 1686.00
89.3154 1750.00
89.3806 1789.00
89.4458 1704.00
89.511 1565.00
89.5762 1419.00
89.6414 1385.00
89.7066 1304.00
89.7718 1220.00
89.837 1207.00
89.9022 1139.00
89.9674 1139.00
90.0326 1160.00
90.0978 1209.00
90.163 1263.00
90.2282 1308.00
90.2934 1280.00
90.3586 1282.00
90.4238 1388.00
90.489 1393.00
90.5542 1522.00
90.6193 1683.00
90.6845 1621.00
90.7497 1524.00
90.8149 1582.00
90.8801 1478.00
90.9453 1320.00
91.0105 1277.00
91.0757 1149.00
91.1409 1079.00
91.2061 1054.00
91.2713 1075.00
91.3365 1028.00
91.4017 1081.00
91.4669 1069.00
91.5321 1073.00
91.5973 1021.00
91.6625 1003.00
91.7277 1015.00
91.7929 964.00
91.8581 1093.00
91.9233 998.00
91.9885 1030.00
92.0537 1041.00
92.1189 1187.00
92.1841 1185.00
92.2493 1141.00
92.3145 1161.00
92.3797 1003.00
92.4449 1082.00
92.5101 1027.00
92.5753 974.00
92.6405 979.00
92.7057 981.00
92.7709 913.00
92.8361 931.00
92.9013 875.00
92.9665 941.00
93.0317 873.00
93.0969 869.00
93.1621 867.00
93.2273 904.00
93.2925 850.00
93.3577 872.00
93.4229 877.00
93.4881 857.00
93.5533 864.00
93.6185 893.00
93.6837 896.00
93.7489 917.00
93.8141 973.00
93.8793 911.00
93.9445 984.00
94.0097 930.00
94.0749 920.00
94.1401 910.00
94.2053 929.00
94.2705 936.00
94.3357 925.00
94.4009 944.00
94.4661 1008.00
94.5313 1052.00
94.5965 1171.00
94.6617 1399.00
94.7269 1317.00
94.7921 1195.00
94.8573 1170.00
94.9225 1171.00
94.9877 1166.00
95.0529 1192.00
95.1181 1109.00
95.1833 1053.00
95.2485 1017.00
95.3137 975.00
95.3789 983.00
95.444 1032.00
95.5092 1022.00
95.5744 1110.00
95.6396 1261.00
95.7048 1274.00
95.77 1284.00
95.8352 1245.00
95.9004 1376.00
95.9656 1435.00
96.0308 1587.00
96.096 1488.00
96.1612 1515.00
96.2264 1413.00
96.2916 1225.00
96.3568 1215.00
96.422 1253.00
96.4872 1267.00
96.5524 1081.00
96.6176 1108.00
96.6828 1092.00
96.748 1139.00
96.8132 1205.00
96.8784 1235.00
96.9436 1415.00
97.0088 1491.00
97.074 1549.00
97.1392 1591.00
97.2044 1562.00
97.2696 1524.00
97.3348 1626.00
97.4 1825.00
97.4652 1858.00
97.5304 1905.00
97.5956 1733.00
97.6608 1756.00
97.726 1827.00
97.7912 1864.00
97.8564 1877.00
97.9216 1773.00
97.9868 1651.00
98.052 1544.00
98.1172 1402.00
98.1824 1413.00
98.2476 1361.00
98.3128 1291.00
98.378 1192.00
98.4432 1125.00
98.5084 1126.00
98.5736 1084.00
98.6388 1067.00
98.704 1043.00
98.7692 1145.00
98.8344 1271.00
98.8996 1495.00
98.9648 1473.00
99.03 1419.00
99.0952 1357.00
99.1604 1329.00
99.2256 1345.00
99.2908 1382.00
99.356 1308.00
99.4212 1314.00
99.4864 1340.00
99.5516 1335.00
99.6168 1456.00
99.682 1510.00
99.7472 1455.00
99.8124 1521.00
99.8776 1388.00
99.9428 1437.00
100.008 1493.00
100.073 1538.00
100.095 1547.00