File: data/xrd_creation/results/PG_1850-1.xy
9.903433 2573.00
9.968632 2674.00
10.0338 2694.00
10.099 2611.00
10.1642 2570.00
10.2294 2608.00
10.2946 2410.00
10.3598 2477.00
10.425 2536.00
10.4902 2429.00
10.5554 2455.00
10.6206 2501.00
10.6858 2396.00
10.751 2383.00
10.8162 2365.00
10.8814 2368.00
10.9466 2352.00
11.0118 2340.00
11.077 2316.00
11.1422 2327.00
11.2074 2316.00
11.2726 2324.00
11.3378 2254.00
11.403 2347.00
11.4682 2277.00
11.5334 2271.00
11.5986 2129.00
11.6638 2174.00
11.729 2221.00
11.7942 2093.00
11.8594 2053.00
11.9246 2100.00
11.9898 2151.00
12.055 2028.00
12.1202 2056.00
12.1854 2155.00
12.2506 2078.00
12.3158 2009.00
12.381 1954.00
12.4462 1917.00
12.5114 1985.00
12.5766 1945.00
12.6418 2055.00
12.707 1878.00
12.7722 1860.00
12.8374 1890.00
12.9026 1893.00
12.9678 1961.00
13.033 1843.00
13.0982 1880.00
13.1634 1872.00
13.2286 1824.00
13.2938 1833.00
13.359 1856.00
13.4242 1887.00
13.4894 1773.00
13.5546 1721.00
13.6198 1884.00
13.685 1804.00
13.7502 1781.00
13.8154 1761.00
13.8805 1794.00
13.9457 1721.00
14.0109 1766.00
14.0761 1782.00
14.1413 1760.00
14.2065 1716.00
14.2717 1707.00
14.3369 1784.00
14.4021 1647.00
14.4673 1728.00
14.5325 1721.00
14.5977 1779.00
14.6629 1811.00
14.7281 1764.00
14.7933 1810.00
14.8585 1709.00
14.9237 1754.00
14.9889 1821.00
15.0541 1756.00
15.1193 1854.00
15.1845 1816.00
15.2497 1700.00
15.3149 1608.00
15.3801 1593.00
15.4453 1731.00
15.5105 1637.00
15.5757 1614.00
15.6409 1601.00
15.7061 1684.00
15.7713 1666.00
15.8365 1651.00
15.9017 1682.00
15.9669 1670.00
16.0321 1582.00
16.0973 1734.00
16.1625 1708.00
16.2277 1623.00
16.2929 1616.00
16.3581 1656.00
16.4233 1664.00
16.4885 1614.00
16.5537 1667.00
16.6189 1674.00
16.6841 1621.00
16.7493 1599.00
16.8145 1575.00
16.8797 1590.00
16.9449 1675.00
17.0101 1619.00
17.0753 1681.00
17.1405 1501.00
17.2057 1554.00
17.2709 1660.00
17.3361 1585.00
17.4013 1565.00
17.4665 1528.00
17.5317 1565.00
17.5969 1528.00
17.6621 1547.00
17.7273 1519.00
17.7925 1564.00
17.8577 1592.00
17.9229 1515.00
17.9881 1501.00
18.0533 1491.00
18.1185 1565.00
18.1837 1455.00
18.2489 1427.00
18.3141 1468.00
18.3793 1453.00
18.4445 1468.00
18.5097 1411.00
18.5749 1473.00
18.6401 1535.00
18.7052 1494.00
18.7704 1468.00
18.8356 1446.00
18.9008 1518.00
18.966 1517.00
19.0312 1388.00
19.0964 1402.00
19.1616 1403.00
19.2268 1461.00
19.292 1414.00
19.3572 1378.00
19.4224 1433.00
19.4876 1466.00
19.5528 1423.00
19.618 1386.00
19.6832 1402.00
19.7484 1349.00
19.8136 1366.00
19.8788 1364.00
19.944 1317.00
20.0092 1384.00
20.0744 1345.00
20.1396 1388.00
20.2048 1376.00
20.27 1323.00
20.3352 1362.00
20.4004 1375.00
20.4656 1402.00
20.5308 1448.00
20.596 1483.00
20.6612 1611.00
20.7264 1795.00
20.7916 2319.00
20.8568 2413.00
20.922 1783.00
20.9872 1482.00
21.0524 1408.00
21.1176 1401.00
21.1828 1349.00
21.248 1326.00
21.3132 1348.00
21.3784 1372.00
21.4436 1429.00
21.5088 1450.00
21.574 1478.00
21.6392 1615.00
21.7044 1927.00
21.7696 2630.00
21.8348 3211.00
21.9 2225.00
21.9652 1533.00
22.0304 1341.00
22.0956 1356.00
22.1608 1205.00
22.226 1278.00
22.2912 1296.00
22.3564 1269.00
22.4216 1308.00
22.4868 1282.00
22.552 1310.00
22.6172 1291.00
22.6824 1196.00
22.7476 1313.00
22.8128 1240.00
22.878 1267.00
22.9432 1249.00
23.0084 1253.00
23.0736 1263.00
23.1388 1348.00
23.204 1287.00
23.2692 1202.00
23.3344 1182.00
23.3996 1246.00
23.4647 1287.00
23.5299 1247.00
23.5951 1250.00
23.6603 1253.00
23.7255 1217.00
23.7907 1240.00
23.8559 1219.00
23.9211 1229.00
23.9863 1191.00
24.0515 1216.00
24.1167 1227.00
24.1819 1275.00
24.2471 1216.00
24.3123 1230.00
24.3775 1206.00
24.4427 1190.00
24.5079 1154.00
24.5731 1152.00
24.6383 1173.00
24.7035 1227.00
24.7687 1207.00
24.8339 1151.00
24.8991 1193.00
24.9643 1176.00
25.0295 1185.00
25.0947 1210.00
25.1599 1169.00
25.2251 1126.00
25.2903 1160.00
25.3555 1121.00
25.4207 1168.00
25.4859 1158.00
25.5511 1133.00
25.6163 1174.00
25.6815 1148.00
25.7467 1140.00
25.8119 1126.00
25.8771 1139.00
25.9423 1128.00
26.0075 1164.00
26.0727 1136.00
26.1379 1082.00
26.2031 1149.00
26.2683 1118.00
26.3335 1160.00
26.3987 1140.00
26.4639 1151.00
26.5291 1197.00
26.5943 1169.00
26.6595 1191.00
26.7247 1118.00
26.7899 1124.00
26.8551 1137.00
26.9203 1094.00
26.9855 1081.00
27.0507 1115.00
27.1159 1125.00
27.1811 1110.00
27.2463 1072.00
27.3115 1100.00
27.3767 1090.00
27.4419 1111.00
27.5071 1074.00
27.5723 1071.00
27.6375 1055.00
27.7027 1106.00
27.7679 1153.00
27.8331 1144.00
27.8983 1154.00
27.9635 1122.00
28.0287 1118.00
28.0939 1086.00
28.1591 1063.00
28.2243 1120.00
28.2894 1097.00
28.3546 1162.00
28.4198 1125.00
28.485 1151.00
28.5502 1125.00
28.6154 1237.00
28.6806 1143.00
28.7458 1201.00
28.811 1234.00
28.8762 1178.00
28.9414 1243.00
29.0066 1297.00
29.0718 1391.00
29.137 1536.00
29.2022 1804.00
29.2674 2422.00
29.3326 3812.00
29.3978 7361.00
29.463 12244.00
29.5282 10232.00
29.5934 5534.00
29.6586 2698.00
29.7238 1939.00
29.789 1798.00
29.8542 1715.00
29.9194 1576.00
29.9846 1536.00
30.0498 1395.00
30.115 1456.00
30.1802 1435.00
30.2454 1445.00
30.3106 1386.00
30.3758 1430.00
30.441 1553.00
30.5062 1724.00
30.5714 1830.00
30.6366 2299.00
30.7018 3264.00
30.767 5815.00
30.8322 12438.00
30.8974 22036.00
30.9626 14519.00
31.0278 5807.00
31.093 2335.00
31.1582 1730.00
31.2234 1583.00
31.2886 1424.00
31.3538 1261.00
31.419 1148.00
31.4842 1157.00
31.5494 1182.00
31.6146 1144.00
31.6798 1136.00
31.745 1154.00
31.8102 1198.00
31.8754 1067.00
31.9406 1115.00
32.0058 1117.00
32.071 1071.00
32.1362 1086.00
32.2014 1101.00
32.2666 1138.00
32.3318 1085.00
32.397 1010.00
32.4622 1107.00
32.5274 1073.00
32.5926 1040.00
32.6578 1044.00
32.723 1082.00
32.7882 1084.00
32.8534 1059.00
32.9186 1035.00
32.9838 1072.00
33.0489 1041.00
33.1141 1141.00
33.1793 1057.00
33.2445 1037.00
33.3097 1064.00
33.3749 1324.00
33.4401 1383.00
33.5053 1188.00
33.5705 1100.00
33.6357 1061.00
33.7009 1144.00
33.7661 1165.00
33.8313 1191.00
33.8965 1299.00
33.9617 1595.00
34.0269 2455.00
34.0921 3886.00
34.1573 3407.00
34.2225 2365.00
34.2877 1501.00
34.3529 1298.00
34.4181 1220.00
34.4833 1104.00
34.5485 1065.00
34.6137 1179.00
34.6789 1006.00
34.7441 1063.00
34.8093 1002.00
34.8745 1062.00
34.9397 1058.00
35.0049 1064.00
35.0701 1040.00
35.1353 1059.00
35.2005 1116.00
35.2657 1066.00
35.3309 1169.00
35.3961 1130.00
35.4613 1221.00
35.5265 1329.00
35.5917 1787.00
35.6569 2737.00
35.7221 5426.00
35.7873 7239.00
35.8525 4632.00
35.9177 2221.00
35.9829 1312.00
36.0481 1331.00
36.1133 1388.00
36.1785 1486.00
36.2437 1658.00
36.3089 1398.00
36.3741 1156.00
36.4393 1108.00
36.5045 952.00
36.5697 990.00
36.6349 1010.00
36.7001 1011.00
36.7653 946.00
36.8305 991.00
36.8957 1008.00
36.9609 974.00
37.0261 1044.00
37.0913 946.00
37.1565 1007.00
37.2217 943.00
37.2869 975.00
37.3521 909.00
37.4173 941.00
37.4825 975.00
37.5477 898.00
37.6129 986.00
37.6781 1021.00
37.7433 1008.00
37.8085 1039.00
37.8736 1243.00
37.9388 1680.00
38.004 2066.00
38.0692 1633.00
38.1344 1290.00
38.1996 1189.00
38.2648 1116.00
38.33 1031.00
38.3952 987.00
38.4604 947.00
38.5256 926.00
38.5908 962.00
38.656 925.00
38.7212 928.00
38.7864 884.00
38.8516 949.00
38.9168 872.00
38.982 937.00
39.0472 938.00
39.1124 938.00
39.1776 900.00
39.2428 878.00
39.308 908.00
39.3732 955.00
39.4384 927.00
39.5036 892.00
39.5688 880.00
39.634 928.00
39.6992 938.00
39.7644 959.00
39.8296 936.00
39.8948 967.00
39.96 985.00
40.0252 1192.00
40.0904 1598.00
40.1556 1860.00
40.2208 1563.00
40.286 1341.00
40.3512 1069.00
40.4164 1008.00
40.4816 871.00
40.5468 851.00
40.612 892.00
40.6772 925.00
40.7424 884.00
40.8076 891.00
40.8728 902.00
40.938 878.00
41.0032 906.00
41.0684 891.00
41.1336 893.00
41.1988 940.00
41.264 918.00
41.3292 910.00
41.3944 836.00
41.4596 881.00
41.5248 919.00
41.59 822.00
41.6552 882.00
41.7204 941.00
41.7856 957.00
41.8508 894.00
41.916 969.00
41.9812 1110.00
42.0464 1308.00
42.1116 1887.00
42.1768 1797.00
42.242 1531.00
42.3072 1164.00
42.3724 995.00
42.4376 876.00
42.5028 896.00
42.568 918.00
42.6332 825.00
42.6983 859.00
42.7635 841.00
42.8287 917.00
42.8939 869.00
42.9591 919.00
43.0243 882.00
43.0895 842.00
43.1547 864.00
43.2199 938.00
43.2851 867.00
43.3503 891.00
43.4155 950.00
43.4807 903.00
43.5459 925.00
43.6111 1052.00
43.6763 1173.00
43.7415 1661.00
43.8067 1948.00
43.8719 1625.00
43.9371 1401.00
44.0023 1197.00
44.0675 1218.00
44.1327 1165.00
44.1979 1170.00
44.2631 855.00
44.3283 917.00
44.3935 908.00
44.4587 833.00
44.5239 875.00
44.5891 864.00
44.6543 894.00
44.7195 871.00
44.7847 883.00
44.8499 897.00
44.9151 876.00
44.9803 895.00
45.0455 889.00
45.1107 849.00
45.1759 851.00
45.2411 903.00
45.3063 864.00
45.3715 883.00
45.4367 892.00
45.5019 896.00
45.5671 849.00
45.6323 956.00
45.6975 964.00
45.7627 958.00
45.8279 1142.00
45.8931 1673.00
45.9583 2623.00
46.0235 2250.00
46.0887 1961.00
46.1539 1390.00
46.2191 967.00
46.2843 909.00
46.3495 974.00
46.4147 890.00
46.4799 884.00
46.5451 832.00
46.6103 895.00
46.6755 891.00
46.7407 834.00
46.8059 920.00
46.8711 856.00
46.9363 854.00
47.0015 944.00
47.0667 983.00
47.1319 1084.00
47.1971 1162.00
47.2623 1082.00
47.3275 1053.00
47.3927 968.00
47.4579 951.00
47.523 911.00
47.5882 897.00
47.6534 893.00
47.7186 914.00
47.7838 888.00
47.849 969.00
47.9142 916.00
47.9794 836.00
48.0446 862.00
48.1098 898.00
48.175 951.00
48.2402 942.00
48.3054 936.00
48.3706 984.00
48.4358 1012.00
48.501 1086.00
48.5662 1281.00
48.6314 1371.00
48.6966 2063.00
48.7618 4011.00
48.827 6341.00
48.8922 4719.00
48.9574 4043.00
49.0226 2542.00
49.0878 1470.00
49.153 1313.00
49.2182 1141.00
49.2834 1035.00
49.3486 1062.00
49.4138 1113.00
49.479 1181.00
49.5442 1451.00
49.6094 1487.00
49.6746 1303.00
49.7398 1126.00
49.805 982.00
49.8702 942.00
49.9354 989.00
50.0006 940.00
50.0658 1020.00
50.131 871.00
50.1962 943.00
50.2614 874.00
50.3266 964.00
50.3918 1155.00
50.457 1181.00
50.5222 1089.00
50.5874 1047.00
50.6526 999.00
50.7178 1007.00
50.783 965.00
50.8482 970.00
50.9134 1139.00
50.9786 1262.00
51.0438 1432.00
51.109 1654.00
51.1742 2409.00
51.2394 5044.00
51.3046 9334.00
51.3698 5490.00
51.435 5378.00
51.5002 2902.00
51.5654 1489.00
51.6306 1187.00
51.6958 1083.00
51.761 978.00
51.8262 1009.00
51.8914 979.00
51.9566 892.00
52.0218 991.00
52.087 937.00
52.1522 974.00
52.2174 956.00
52.2826 930.00
52.3477 913.00
52.4129 886.00
52.4781 827.00
52.5433 908.00
52.6085 862.00
52.6737 902.00
52.7389 910.00
52.8041 987.00
52.8693 979.00
52.9345 1116.00
52.9997 1379.00
53.0649 1189.00
53.1301 1134.00
53.1953 981.00
53.2605 991.00
53.3257 921.00
53.3909 1063.00
53.4561 1354.00
53.5213 1374.00
53.5865 1233.00
53.6517 1200.00
53.7169 1023.00
53.7821 971.00
53.8473 941.00
53.9125 893.00
53.9777 864.00
54.0429 871.00
54.1081 856.00
54.1733 891.00
54.2385 801.00
54.3037 869.00
54.3689 842.00
54.4341 921.00
54.4993 890.00
54.5645 972.00
54.6297 1029.00
54.6949 914.00
54.7601 940.00
54.8253 897.00
54.8905 975.00
54.9557 956.00
55.0209 1043.00
55.0861 927.00
55.1513 956.00
55.2165 865.00
55.2817 838.00
55.3469 817.00
55.4121 842.00
55.4773 845.00
55.5425 856.00
55.6077 884.00
55.6729 914.00
55.7381 823.00
55.8033 924.00
55.8685 952.00
55.9337 997.00
55.9989 907.00
56.0641 1014.00
56.1293 999.00
56.1945 1594.00
56.2597 2008.00
56.3249 1561.00
56.3901 1658.00
56.4553 1724.00
56.5205 1280.00
56.5857 1238.00
56.6509 1125.00
56.7161 997.00
56.7813 913.00
56.8465 945.00
56.9117 904.00
56.9769 897.00
57.042 882.00
57.1073 882.00
57.1724 985.00
57.2376 918.00
57.3028 928.00
57.368 892.00
57.4332 992.00
57.4984 1003.00
57.5636 1029.00
57.6288 1056.00
57.694 1222.00
57.7592 1612.00
57.8244 2816.00
57.8896 4427.00
57.9548 3672.00
58.02 3023.00
58.0852 2684.00
58.1504 1682.00
58.2156 1185.00
58.2808 1071.00
58.346 1030.00
58.4112 980.00
58.4764 935.00
58.5416 968.00
58.6068 984.00
58.672 997.00
58.7372 932.00
58.8024 956.00
58.8676 945.00
58.9328 965.00
58.998 958.00
59.0632 1002.00
59.1284 1069.00
59.1936 1164.00
59.2588 1450.00
59.324 2030.00
59.3892 2263.00
59.4544 1860.00
59.5196 1578.00
59.5848 1484.00
59.65 1039.00
59.7152 1035.00
59.7804 955.00
59.8456 857.00
59.9108 953.00
59.976 936.00
60.0412 909.00
60.1064 891.00
60.1716 933.00
60.2368 942.00
60.302 914.00
60.3672 994.00
60.4324 926.00
60.4976 1076.00
60.5628 1192.00
60.628 1378.00
60.6932 1836.00
60.7584 2159.00
60.8236 2740.00
60.8888 5558.00
60.954 6429.00
61.0192 3481.00
61.0844 4070.00
61.1496 2729.00
61.2148 1496.00
61.28 1174.00
61.3452 1044.00
61.4104 1022.00
61.4756 945.00
61.5408 927.00
61.606 899.00
61.6712 948.00
61.7364 940.00
61.8016 932.00
61.8667 879.00
61.932 934.00
61.9971 990.00
62.0623 1129.00
62.1275 1091.00
62.1927 1043.00
62.2579 1189.00
62.3231 1248.00
62.3883 1635.00
62.4535 2153.00
62.5187 1415.00
62.5839 1476.00
62.6491 1276.00
62.7143 1020.00
62.7795 937.00
62.8447 898.00
62.9099 841.00
62.9751 859.00
63.0403 841.00
63.1055 894.00
63.1707 869.00
63.2359 877.00
63.3011 888.00
63.3663 859.00
63.4315 1016.00
63.4967 1019.00
63.5619 1000.00
63.6271 1020.00
63.6923 1037.00
63.7575 951.00
63.8227 1188.00
63.8879 1602.00
63.9531 1886.00
64.0183 1368.00
64.0835 1429.00
64.1487 1262.00
64.2139 979.00
64.2791 931.00
64.3443 897.00
64.4095 864.00
64.4747 913.00
64.5399 876.00
64.6051 959.00
64.6703 949.00
64.7355 1072.00
64.8007 1315.00
64.8659 1100.00
64.9311 1118.00
64.9963 1042.00
65.0615 960.00
65.1267 925.00
65.1919 870.00
65.2571 922.00
65.3223 976.00
65.3875 1308.00
65.4527 1118.00
65.5179 966.00
65.5831 1105.00
65.6483 900.00
65.7135 878.00
65.7787 872.00
65.8439 845.00
65.9091 897.00
65.9743 837.00
66.0395 927.00
66.1047 1023.00
66.1699 972.00
66.2351 845.00
66.3003 969.00
66.3655 891.00
66.4307 824.00
66.4959 907.00
66.561 886.00
66.6263 837.00
66.6915 840.00
66.7566 899.00
66.8218 1094.00
66.887 1071.00
66.9522 955.00
67.0174 989.00
67.0826 915.00
67.1478 875.00
67.213 809.00
67.2782 823.00
67.3434 840.00
67.4086 857.00
67.4738 808.00
67.539 818.00
67.6042 787.00
67.6694 820.00
67.7346 852.00
67.7998 829.00
67.865 817.00
67.9302 889.00
67.9954 849.00
68.0606 845.00
68.1258 895.00
68.191 1048.00
68.2562 1382.00
68.3214 1381.00
68.3866 1116.00
68.4518 1090.00
68.517 1071.00
68.5822 910.00
68.6474 861.00
68.7126 815.00
68.7778 901.00
68.843 806.00
68.9082 846.00
68.9734 846.00
69.0386 824.00
69.1038 885.00
69.169 765.00
69.2342 779.00
69.2994 796.00
69.3646 868.00
69.4298 872.00
69.495 926.00
69.5602 877.00
69.6254 984.00
69.6906 1134.00
69.7558 1059.00
69.821 902.00
69.8862 1027.00
69.9514 1090.00
70.0166 1098.00
70.0818 1044.00
70.147 928.00
70.2122 1003.00
70.2774 1020.00
70.3426 818.00
70.4078 883.00
70.473 834.00
70.5382 801.00
70.6034 828.00
70.6686 818.00
70.7338 832.00
70.799 871.00
70.8642 809.00
70.9294 853.00
70.9946 822.00
71.0598 863.00
71.125 910.00
71.1902 856.00
71.2554 1093.00
71.3205 1318.00
71.3858 1184.00
71.451 1082.00
71.5162 1144.00
71.5813 1009.00
71.6465 937.00
71.7117 824.00
71.7769 810.00
71.8421 821.00
71.9073 777.00
71.9725 865.00
72.0377 805.00
72.1029 855.00
72.1681 864.00
72.2333 831.00
72.2985 891.00
72.3637 863.00
72.4289 862.00
72.4941 964.00
72.5593 1164.00
72.6245 1182.00
72.6897 1068.00
72.7549 1031.00
72.8201 1023.00
72.8853 955.00
72.9505 852.00
73.0157 845.00
73.0809 883.00
73.1461 877.00
73.2113 803.00
73.2765 897.00
73.3417 854.00
73.4069 858.00
73.4721 873.00
73.5373 831.00
73.6025 880.00
73.6677 884.00
73.7329 925.00
73.7981 1076.00
73.8633 1364.00
73.9285 1414.00
73.9937 1096.00
74.0589 1099.00
74.1241 1120.00
74.1893 958.00
74.2545 854.00
74.3197 875.00
74.3849 882.00
74.4501 846.00
74.5153 841.00
74.5805 860.00
74.6457 893.00
74.7109 813.00
74.7761 845.00
74.8413 914.00
74.9065 902.00
74.9717 924.00
75.0369 966.00
75.1021 1200.00
75.1673 1218.00
75.2325 1362.00
75.2977 1709.00
75.3629 1294.00
75.4281 1153.00
75.4933 1242.00
75.5585 1087.00
75.6237 930.00
75.6889 915.00
75.7541 865.00
75.8193 859.00
75.8845 855.00
75.9497 865.00
76.0149 845.00
76.0801 845.00
76.1452 796.00
76.2104 845.00
76.2756 889.00
76.3409 1021.00
76.406 960.00
76.4712 983.00
76.5364 1094.00
76.6016 1401.00
76.6668 1569.00
76.732 1198.00
76.7972 1060.00
76.8624 1236.00
76.9276 1140.00
76.9928 861.00
77.058 879.00
77.1232 867.00
77.1884 917.00
77.2536 877.00
77.3188 877.00
77.384 866.00
77.4492 880.00
77.5144 1003.00
77.5796 1158.00
77.6448 1221.00
77.71 1037.00
77.7752 1047.00
77.8404 1129.00
77.9056 1107.00
77.9708 1242.00
78.036 1329.00
78.1012 996.00
78.1664 977.00
78.2316 1068.00
78.2968 999.00
78.362 921.00
78.4272 898.00
78.4924 879.00
78.5576 956.00
78.6228 947.00
78.688 1017.00
78.7532 1225.00
78.8184 1706.00
78.8836 1659.00
78.9488 1220.00
79.014 1320.00
79.0792 1330.00
79.1444 1149.00
79.2096 1027.00
79.2748 1062.00
79.34 1251.00
79.4052 1194.00
79.4704 1005.00
79.5356 998.00
79.6008 1082.00
79.666 994.00
79.7312 933.00
79.7964 809.00
79.8616 807.00
79.9268 871.00
79.992 829.00
80.0572 838.00
80.1224 836.00
80.1876 805.00
80.2528 877.00
80.318 840.00
80.3832 856.00
80.4484 897.00
80.5136 857.00
80.5788 869.00
80.644 1022.00
80.7092 1173.00
80.7744 988.00
80.8396 955.00
80.9048 946.00
80.9699 1012.00
81.0351 922.00
81.1003 944.00
81.1655 1010.00
81.2307 1191.00
81.2959 1373.00
81.3611 1142.00
81.4263 1046.00
81.4915 1141.00
81.5567 1126.00
81.6219 971.00
81.6871 919.00
81.7523 935.00
81.8175 939.00
81.8827 989.00
81.9479 1089.00
82.0131 1285.00
82.0783 1383.00
82.1435 1094.00
82.2087 1058.00
82.2739 1143.00
82.3391 1095.00
82.4043 999.00
82.4695 1006.00
82.5347 952.00
82.5999 941.00
82.6651 913.00
82.7303 884.00
82.7955 896.00
82.8607 872.00
82.9259 897.00
82.9911 892.00
83.0563 902.00
83.1215 956.00
83.1867 928.00
83.2519 1144.00
83.3171 1442.00
83.3823 2240.00
83.4475 1728.00
83.5127 1287.00
83.5779 1395.00
83.6431 1661.00
83.7083 1298.00
83.7735 1027.00
83.8387 918.00
83.9039 959.00
83.9691 900.00
84.0343 919.00
84.0995 847.00
84.1647 814.00
84.2299 852.00
84.2951 824.00
84.3603 869.00
84.4255 833.00
84.4907 815.00
84.5559 876.00
84.6211 852.00
84.6863 858.00
84.7515 890.00
84.8167 889.00
84.8819 984.00
84.9471 1101.00
85.0123 1046.00
85.0775 958.00
85.1427 949.00
85.2079 959.00
85.2731 875.00
85.3383 827.00
85.4035 832.00
85.4687 849.00
85.5339 847.00
85.5991 888.00
85.6643 826.00
85.7295 855.00
85.7946 906.00
85.8598 1002.00
85.925 1085.00
85.9903 1391.00
86.0554 1845.00
86.1206 1377.00
86.1858 1137.00
86.251 1139.00
86.3162 1300.00
86.3814 1111.00
86.4466 930.00
86.5118 919.00
86.577 819.00
86.6422 809.00
86.7074 843.00
86.7726 883.00
86.8378 801.00
86.903 833.00
86.9682 847.00
87.0334 831.00
87.0986 852.00
87.1638 906.00
87.229 906.00
87.2942 1019.00
87.3594 1229.00
87.4246 1127.00
87.4898 995.00
87.555 1009.00
87.6202 1130.00
87.6854 1030.00
87.7506 881.00
87.8158 863.00
87.881 830.00
87.9462 813.00
88.0114 829.00
88.0766 795.00
88.1418 868.00
88.207 825.00
88.2722 839.00
88.3374 817.00
88.4026 831.00
88.4678 796.00
88.533 850.00
88.5982 930.00
88.6634 965.00
88.7286 1074.00
88.7938 909.00
88.859 856.00
88.9242 920.00
88.9894 1040.00
89.0546 859.00
89.1198 788.00
89.185 853.00
89.2502 862.00
89.3154 851.00
89.3806 844.00
89.4458 864.00
89.511 852.00
89.5762 836.00
89.6414 909.00
89.7066 1070.00
89.7718 1171.00
89.837 1050.00
89.9022 1047.00
89.9674 1121.00
90.0326 1528.00
90.0978 1187.00
90.163 1001.00
90.2282 1086.00
90.2934 1015.00
90.3586 1004.00
90.4238 892.00
90.489 905.00
90.5542 848.00
90.6193 824.00
90.6845 898.00
90.7497 908.00
90.8149 963.00
90.8801 1030.00
90.9453 1258.00
91.0105 1373.00
91.0757 1128.00
91.1409 1102.00
91.2061 1053.00
91.2713 1182.00
91.3365 1099.00
91.4017 935.00
91.4669 967.00
91.5321 875.00
91.5973 861.00
91.6625 825.00
91.7277 910.00
91.7929 867.00
91.8581 835.00
91.9233 873.00
91.9885 859.00
92.0537 878.00
92.1189 997.00
92.1841 1074.00
92.2493 1094.00
92.3145 978.00
92.3797 914.00
92.4449 939.00
92.5101 1012.00
92.5753 1028.00
92.6405 1212.00
92.7057 1253.00
92.7709 989.00
92.8361 945.00
92.9013 906.00
92.9665 1059.00
93.0317 1000.00
93.0969 865.00
93.1621 873.00
93.2273 834.00
93.2925 892.00
93.3577 952.00
93.4229 978.00
93.4881 995.00
93.5533 938.00
93.6185 875.00
93.6837 839.00
93.7489 872.00
93.8141 892.00
93.8793 904.00
93.9445 796.00
94.0097 807.00
94.0749 842.00
94.1401 909.00
94.2053 869.00
94.2705 814.00
94.3357 932.00
94.4009 814.00
94.4661 845.00
94.5313 874.00
94.5965 915.00
94.6617 890.00
94.7269 864.00
94.7921 895.00
94.8573 895.00
94.9225 919.00
94.9877 904.00
95.0529 842.00
95.1181 852.00
95.1833 977.00
95.2485 1065.00
95.3137 1208.00
95.3789 1179.00
95.444 1040.00
95.5092 1021.00
95.5744 952.00
95.6396 1103.00
95.7048 1118.00
95.77 1180.00
95.8352 1242.00
95.9004 1052.00
95.9656 1012.00
96.0308 984.00
96.096 1032.00
96.1612 1086.00
96.2264 987.00
96.2916 1006.00
96.3568 909.00
96.422 954.00
96.4872 932.00
96.5524 1141.00
96.6176 1420.00
96.6828 1655.00
96.748 1280.00
96.8132 1122.00
96.8784 1115.00
96.9436 1281.00
97.0088 1273.00
97.074 1114.00
97.1392 1002.00
97.2044 907.00
97.2696 843.00
97.3348 908.00
97.4 899.00
97.4652 941.00
97.5304 903.00
97.5956 835.00
97.6608 788.00
97.726 827.00
97.7912 858.00
97.8564 975.00
97.9216 1043.00
97.9868 1344.00
98.052 1206.00
98.1172 1118.00
98.1824 1332.00
98.2476 1454.00
98.3128 1337.00
98.378 1171.00
98.4432 1077.00
98.5084 1023.00
98.5736 1096.00
98.6388 1081.00
98.704 1015.00
98.7692 926.00
98.8344 924.00
98.8996 886.00
98.9648 928.00
99.03 922.00
99.0952 858.00
99.1604 890.00
99.2256 952.00
99.2908 1112.00
99.356 1244.00
99.4212 1262.00
99.4864 1230.00
99.5516 1074.00
99.6168 1078.00
99.682 1082.00
99.7472 1084.00
99.8124 1067.00
99.8776 998.00
99.9428 957.00
100.008 899.00
100.073 909.00
100.095 981.00