File: data/xrd_creation/results/PG_1119-1.xy
10.0094 2272.00
10.0746 2292.00
10.1398 2245.00
10.205 2266.00
10.2702 2127.00
10.3354 2135.00
10.4006 2105.00
10.4658 2049.00
10.531 2144.00
10.5962 2094.00
10.6614 2115.00
10.7266 1929.00
10.7918 1974.00
10.857 1982.00
10.9222 1970.00
10.9874 1981.00
11.0526 1905.00
11.1178 1931.00
11.183 1981.00
11.2482 1952.00
11.3134 1837.00
11.3786 1920.00
11.4438 1877.00
11.509 1817.00
11.5742 1793.00
11.6394 1838.00
11.7046 1826.00
11.7698 1773.00
11.835 1774.00
11.9002 1705.00
11.9654 1750.00
12.0306 1727.00
12.0958 1715.00
12.161 1553.00
12.2262 1670.00
12.2914 1644.00
12.3566 1641.00
12.4218 1562.00
12.487 1517.00
12.5522 1509.00
12.6174 1588.00
12.6826 1564.00
12.7478 1519.00
12.813 1569.00
12.8782 1532.00
12.9434 1515.00
13.0086 1509.00
13.0738 1469.00
13.139 1520.00
13.2042 1438.00
13.2694 1396.00
13.3346 1432.00
13.3998 1388.00
13.465 1435.00
13.5302 1364.00
13.5954 1359.00
13.6606 1306.00
13.7258 1355.00
13.791 1346.00
13.8562 1367.00
13.9214 1352.00
13.9865 1251.00
14.0517 1295.00
14.1169 1272.00
14.1821 1229.00
14.2473 1268.00
14.3125 1312.00
14.3777 1278.00
14.4429 1316.00
14.5081 1282.00
14.5733 1270.00
14.6385 1265.00
14.7037 1244.00
14.7689 1240.00
14.8341 1177.00
14.8993 1160.00
14.9645 1196.00
15.0297 1202.00
15.0949 1185.00
15.1601 1231.00
15.2253 1199.00
15.2905 1143.00
15.3557 1130.00
15.4209 1168.00
15.4861 1193.00
15.5513 1152.00
15.6165 1117.00
15.6817 1151.00
15.7469 1134.00
15.8121 1157.00
15.8773 1174.00
15.9425 1119.00
16.0077 1121.00
16.0729 1176.00
16.1381 1093.00
16.2033 1067.00
16.2685 1047.00
16.3337 1120.00
16.3989 1131.00
16.4641 1088.00
16.5293 1052.00
16.5945 1078.00
16.6597 1078.00
16.7249 1101.00
16.7901 1130.00
16.8553 981.00
16.9205 1098.00
16.9857 1054.00
17.0509 1070.00
17.1161 1053.00
17.1813 1038.00
17.2465 1007.00
17.3117 997.00
17.3769 1014.00
17.4421 968.00
17.5073 1031.00
17.5725 953.00
17.6377 1027.00
17.7029 983.00
17.7681 980.00
17.8333 1018.00
17.8985 1005.00
17.9637 963.00
18.0289 940.00
18.0941 943.00
18.1593 875.00
18.2245 961.00
18.2897 958.00
18.3549 970.00
18.4201 945.00
18.4853 924.00
18.5505 895.00
18.6157 915.00
18.6809 882.00
18.7461 883.00
18.8112 916.00
18.8764 920.00
18.9416 860.00
19.0068 874.00
19.072 890.00
19.1372 962.00
19.2024 867.00
19.2676 910.00
19.3328 929.00
19.398 874.00
19.4632 908.00
19.5284 859.00
19.5936 849.00
19.6588 871.00
19.724 853.00
19.7892 870.00
19.8544 874.00
19.9196 850.00
19.9848 810.00
20.05 830.00
20.1152 811.00
20.1804 871.00
20.2456 792.00
20.3108 806.00
20.376 821.00
20.4412 851.00
20.5064 808.00
20.5716 836.00
20.6368 801.00
20.702 774.00
20.7672 816.00
20.8324 773.00
20.8976 731.00
20.9628 761.00
21.028 801.00
21.0932 745.00
21.1584 735.00
21.2236 756.00
21.2888 765.00
21.354 718.00
21.4192 756.00
21.4844 760.00
21.5496 787.00
21.6148 757.00
21.68 723.00
21.7452 767.00
21.8104 745.00
21.8756 685.00
21.9408 723.00
22.006 758.00
22.0712 751.00
22.1364 672.00
22.2016 703.00
22.2668 702.00
22.332 705.00
22.3972 749.00
22.4624 726.00
22.5276 702.00
22.5928 702.00
22.658 788.00
22.7232 758.00
22.7884 695.00
22.8536 654.00
22.9188 733.00
22.984 680.00
23.0492 653.00
23.1144 649.00
23.1796 600.00
23.2448 680.00
23.31 698.00
23.3752 656.00
23.4404 679.00
23.5056 676.00
23.5708 650.00
23.6359 642.00
23.7011 669.00
23.7663 679.00
23.8315 630.00
23.8967 678.00
23.9619 634.00
24.0271 625.00
24.0923 664.00
24.1575 620.00
24.2227 647.00
24.2879 677.00
24.3531 591.00
24.4183 698.00
24.4835 597.00
24.5487 635.00
24.6139 607.00
24.6791 631.00
24.7443 664.00
24.8095 659.00
24.8747 590.00
24.9399 614.00
25.0051 640.00
25.0703 559.00
25.1355 559.00
25.2007 635.00
25.2659 596.00
25.3311 611.00
25.3963 628.00
25.4615 604.00
25.5267 575.00
25.5919 612.00
25.6571 636.00
25.7223 588.00
25.7875 600.00
25.8527 596.00
25.9179 580.00
25.9831 590.00
26.0483 558.00
26.1135 544.00
26.1787 564.00
26.2439 576.00
26.3091 578.00
26.3743 603.00
26.4395 582.00
26.5047 549.00
26.5699 589.00
26.6351 591.00
26.7003 585.00
26.7655 545.00
26.8307 551.00
26.8959 530.00
26.9611 590.00
27.0263 553.00
27.0915 596.00
27.1567 538.00
27.2219 526.00
27.2871 544.00
27.3523 540.00
27.4175 532.00
27.4827 517.00
27.5479 521.00
27.6131 528.00
27.6783 557.00
27.7435 497.00
27.8087 531.00
27.8739 541.00
27.9391 522.00
28.0043 573.00
28.0695 632.00
28.1347 601.00
28.1999 574.00
28.2651 561.00
28.3303 504.00
28.3955 565.00
28.4606 528.00
28.5258 519.00
28.591 528.00
28.6562 569.00
28.7214 554.00
28.7866 517.00
28.8518 549.00
28.917 531.00
28.9822 558.00
29.0474 599.00
29.1126 574.00
29.1778 588.00
29.243 516.00
29.3082 511.00
29.3734 503.00
29.4386 512.00
29.5038 508.00
29.569 467.00
29.6342 492.00
29.6994 461.00
29.7646 517.00
29.8298 488.00
29.895 506.00
29.9602 501.00
30.0254 470.00
30.0906 463.00
30.1558 482.00
30.221 457.00
30.2862 455.00
30.3514 487.00
30.4166 444.00
30.4818 453.00
30.547 449.00
30.6122 465.00
30.6774 434.00
30.7426 475.00
30.8078 530.00
30.873 467.00
30.9382 445.00
31.0034 440.00
31.0686 428.00
31.1338 489.00
31.199 440.00
31.2642 445.00
31.3294 473.00
31.3946 445.00
31.4598 431.00
31.525 449.00
31.5902 431.00
31.6554 434.00
31.7206 415.00
31.7858 456.00
31.851 437.00
31.9162 419.00
31.9814 409.00
32.0466 426.00
32.1118 416.00
32.177 434.00
32.2422 417.00
32.3074 423.00
32.3726 422.00
32.4378 410.00
32.503 421.00
32.5682 458.00
32.6334 458.00
32.6986 363.00
32.7638 427.00
32.829 419.00
32.8942 377.00
32.9594 412.00
33.0246 426.00
33.0898 444.00
33.1549 429.00
33.2201 415.00
33.2853 416.00
33.3505 411.00
33.4157 405.00
33.4809 439.00
33.5461 428.00
33.6113 410.00
33.6765 423.00
33.7417 426.00
33.8069 434.00
33.8721 411.00
33.9373 413.00
34.0025 395.00
34.0677 407.00
34.1329 406.00
34.1981 403.00
34.2633 398.00
34.3285 399.00
34.3937 357.00
34.4589 400.00
34.5241 410.00
34.5893 383.00
34.6545 379.00
34.7197 394.00
34.7849 414.00
34.8501 371.00
34.9153 389.00
34.9805 346.00
35.0457 357.00
35.1109 362.00
35.1761 346.00
35.2413 393.00
35.3065 406.00
35.3717 375.00
35.4369 401.00
35.5021 385.00
35.5673 374.00
35.6325 358.00
35.6977 356.00
35.7629 350.00
35.8281 367.00
35.8933 334.00
35.9585 398.00
36.0237 384.00
36.0889 390.00
36.1541 325.00
36.2193 345.00
36.2845 328.00
36.3497 325.00
36.4149 407.00
36.4801 392.00
36.5453 392.00
36.6105 359.00
36.6757 330.00
36.7409 350.00
36.8061 371.00
36.8713 380.00
36.9365 314.00
37.0017 370.00
37.0669 338.00
37.1321 346.00
37.1973 351.00
37.2625 347.00
37.3277 312.00
37.3929 332.00
37.4581 355.00
37.5233 342.00
37.5885 347.00
37.6537 368.00
37.7189 358.00
37.7841 323.00
37.8493 326.00
37.9145 332.00
37.9796 353.00
38.0448 326.00
38.11 311.00
38.1752 310.00
38.2404 289.00
38.3056 333.00
38.3708 360.00
38.436 321.00
38.5012 324.00
38.5664 349.00
38.6316 312.00
38.6968 329.00
38.762 330.00
38.8272 323.00
38.8924 329.00
38.9576 336.00
39.0228 313.00
39.088 308.00
39.1532 325.00
39.2184 329.00
39.2836 300.00
39.3488 302.00
39.414 383.00
39.4792 311.00
39.5444 336.00
39.6096 299.00
39.6748 308.00
39.74 303.00
39.8052 309.00
39.8704 298.00
39.9356 315.00
40.0008 299.00
40.066 313.00
40.1312 325.00
40.1964 306.00
40.2616 319.00
40.3268 281.00
40.392 297.00
40.4572 264.00
40.5224 315.00
40.5876 311.00
40.6528 303.00
40.718 269.00
40.7832 279.00
40.8484 285.00
40.9136 243.00
40.9788 261.00
41.044 273.00
41.1092 279.00
41.1744 299.00
41.2396 282.00
41.3048 302.00
41.37 302.00
41.4352 302.00
41.5004 274.00
41.5656 274.00
41.6308 276.00
41.696 290.00
41.7612 248.00
41.8264 288.00
41.8916 324.00
41.9568 272.00
42.022 283.00
42.0872 280.00
42.1524 278.00
42.2176 293.00
42.2828 258.00
42.348 301.00
42.4132 307.00
42.4784 277.00
42.5436 298.00
42.6088 287.00
42.6739 261.00
42.7392 250.00
42.8043 290.00
42.8695 290.00
42.9347 272.00
42.9999 297.00
43.0651 258.00
43.1303 258.00
43.1955 310.00
43.2607 294.00
43.3259 294.00
43.3911 241.00
43.4563 332.00
43.5215 291.00
43.5867 244.00
43.6519 249.00
43.7171 266.00
43.7823 258.00
43.8475 293.00
43.9127 265.00
43.9779 269.00
44.0431 261.00
44.1083 277.00
44.1735 241.00
44.2387 256.00
44.3039 271.00
44.3691 271.00
44.4343 246.00
44.4995 277.00
44.5647 239.00
44.6299 250.00
44.6951 264.00
44.7603 257.00
44.8255 238.00
44.8907 268.00
44.9559 292.00
45.0211 257.00
45.0863 276.00
45.1515 258.00
45.2167 243.00
45.2819 233.00
45.3471 235.00
45.4123 277.00
45.4775 251.00
45.5427 246.00
45.6079 263.00
45.6731 240.00
45.7383 250.00
45.8035 234.00
45.8687 214.00
45.9339 258.00
45.9991 229.00
46.0643 240.00
46.1295 246.00
46.1947 227.00
46.2599 265.00
46.3251 240.00
46.3903 280.00
46.4555 265.00
46.5207 241.00
46.5859 246.00
46.6511 259.00
46.7163 263.00
46.7815 280.00
46.8467 278.00
46.9119 257.00
46.9771 239.00
47.0423 231.00
47.1075 248.00
47.1727 241.00
47.2379 240.00
47.3031 258.00
47.3683 242.00
47.4335 237.00
47.4986 234.00
47.5639 228.00
47.629 219.00
47.6942 245.00
47.7594 220.00
47.8246 229.00
47.8898 232.00
47.955 230.00
48.0202 241.00
48.0854 267.00
48.1506 246.00
48.2158 247.00
48.281 227.00
48.3462 221.00
48.4114 269.00
48.4766 295.00
48.5418 241.00
48.607 256.00
48.6722 246.00
48.7374 239.00
48.8026 258.00
48.8678 219.00
48.933 271.00
48.9982 244.00
49.0634 233.00
49.1286 248.00
49.1938 262.00
49.259 241.00
49.3242 261.00
49.3894 242.00
49.4546 231.00
49.5198 237.00
49.585 221.00
49.6502 273.00
49.7154 241.00
49.7806 247.00
49.8458 265.00
49.911 239.00
49.9762 257.00
50.0414 245.00
50.1066 249.00
50.1718 221.00
50.237 226.00
50.3022 227.00
50.3674 236.00
50.4326 232.00
50.4978 235.00
50.563 242.00
50.6282 230.00
50.6934 234.00
50.7586 217.00
50.8238 238.00
50.889 213.00
50.9542 240.00
51.0194 260.00
51.0846 224.00
51.1498 208.00
51.215 236.00
51.2802 214.00
51.3454 219.00
51.4106 247.00
51.4758 202.00
51.541 207.00
51.6062 206.00
51.6714 215.00
51.7366 224.00
51.8018 233.00
51.867 226.00
51.9322 201.00
51.9974 196.00
52.0626 231.00
52.1278 185.00
52.193 222.00
52.2582 197.00
52.3233 222.00
52.3886 185.00
52.4537 192.00
52.5189 195.00
52.5841 231.00
52.6493 214.00
52.7145 213.00
52.7797 222.00
52.8449 220.00
52.9101 210.00
52.9753 238.00
53.0405 236.00
53.1057 215.00
53.1709 231.00
53.2361 198.00
53.3013 219.00
53.3665 238.00
53.4317 205.00
53.4969 209.00
53.5621 204.00
53.6273 201.00
53.6925 229.00
53.7577 224.00
53.8229 197.00
53.8881 214.00
53.9533 224.00
54.0185 218.00
54.0837 196.00
54.1489 187.00
54.2141 232.00
54.2793 205.00
54.3445 194.00
54.4097 222.00
54.4749 182.00
54.5401 183.00
54.6053 223.00
54.6705 201.00
54.7357 226.00
54.8009 209.00
54.8661 234.00
54.9313 182.00
54.9965 225.00
55.0617 210.00
55.1269 213.00
55.1921 268.00
55.2573 201.00
55.3225 235.00
55.3877 176.00
55.4529 230.00
55.5181 206.00
55.5833 215.00
55.6485 204.00
55.7137 200.00
55.7789 210.00
55.8441 223.00
55.9093 206.00
55.9745 195.00
56.0397 181.00
56.1049 192.00
56.1701 227.00
56.2353 191.00
56.3005 196.00
56.3657 234.00
56.4309 205.00
56.4961 187.00
56.5613 214.00
56.6265 173.00
56.6917 183.00
56.7569 199.00
56.8221 224.00
56.8873 228.00
56.9525 207.00
57.0177 221.00
57.0829 237.00
57.148 168.00
57.2132 187.00
57.2784 197.00
57.3436 175.00
57.4088 206.00
57.474 170.00
57.5392 221.00
57.6044 207.00
57.6696 246.00
57.7348 208.00
57.8 184.00
57.8652 208.00
57.9304 213.00
57.9956 238.00
58.0608 211.00
58.126 216.00
58.1912 200.00
58.2564 186.00
58.3216 212.00
58.3868 193.00
58.452 190.00
58.5172 187.00
58.5824 197.00
58.6476 202.00
58.7128 177.00
58.778 193.00
58.8432 184.00
58.9084 227.00
58.9736 182.00
59.0388 198.00
59.104 177.00
59.1692 185.00
59.2344 199.00
59.2996 169.00
59.3648 175.00
59.43 202.00
59.4952 195.00
59.5604 226.00
59.6256 181.00
59.6908 139.00
59.756 165.00
59.8212 168.00
59.8864 183.00
59.9516 176.00
60.0168 160.00
60.082 189.00
60.1472 202.00
60.2124 193.00
60.2776 185.00
60.3428 192.00
60.408 151.00
60.4732 167.00
60.5384 187.00
60.6036 177.00
60.6688 162.00
60.734 190.00
60.7992 172.00
60.8644 178.00
60.9296 167.00
60.9948 185.00
61.06 168.00
61.1252 171.00
61.1904 171.00
61.2556 191.00
61.3208 173.00
61.386 184.00
61.4512 176.00
61.5164 185.00
61.5816 169.00
61.6468 163.00
61.712 193.00
61.7772 208.00
61.8424 160.00
61.9076 191.00
61.9727 180.00
62.0379 184.00
62.1031 177.00
62.1683 163.00
62.2335 175.00
62.2987 176.00
62.3639 177.00
62.4291 166.00
62.4943 140.00
62.5595 168.00
62.6247 168.00
62.6899 160.00
62.7551 188.00
62.8203 162.00
62.8855 208.00
62.9507 194.00
63.0159 161.00
63.0811 169.00
63.1463 163.00
63.2115 159.00
63.2767 188.00
63.3419 186.00
63.4071 174.00
63.4723 170.00
63.5375 173.00
63.6027 191.00
63.6679 211.00
63.7331 189.00
63.7983 150.00
63.8635 170.00
63.9287 158.00
63.9939 160.00
64.0591 186.00
64.1243 161.00
64.1895 194.00
64.2547 162.00
64.3199 156.00
64.3851 158.00
64.4503 165.00
64.5155 166.00
64.5807 188.00
64.6459 148.00
64.7111 166.00
64.7763 155.00
64.8415 165.00
64.9067 179.00
64.9719 173.00
65.0371 180.00
65.1023 172.00
65.1675 167.00
65.2327 193.00
65.2979 177.00
65.3631 164.00
65.4283 166.00
65.4935 180.00
65.5587 174.00
65.6239 173.00
65.6891 178.00
65.7543 183.00
65.8195 146.00
65.8847 182.00
65.9499 184.00
66.0151 163.00
66.0803 172.00
66.1455 168.00
66.2107 161.00
66.2759 154.00
66.3411 164.00
66.4063 170.00
66.4715 155.00
66.5367 179.00
66.6019 161.00
66.6671 154.00
66.7322 207.00
66.7974 172.00
66.8626 164.00
66.9278 172.00
66.993 172.00
67.0582 184.00
67.1234 170.00
67.1886 195.00
67.2538 188.00
67.319 194.00
67.3842 170.00
67.4494 193.00
67.5146 199.00
67.5798 179.00
67.645 165.00
67.7102 180.00
67.7754 153.00
67.8406 158.00
67.9058 185.00
67.971 160.00
68.0362 149.00
68.1014 163.00
68.1666 166.00
68.2318 162.00
68.297 163.00
68.3622 184.00
68.4274 152.00
68.4926 149.00
68.5578 177.00
68.623 178.00
68.6882 176.00
68.7534 148.00
68.8186 162.00
68.8838 163.00
68.949 186.00
69.0142 171.00
69.0794 180.00
69.1446 193.00
69.2098 143.00
69.275 158.00
69.3402 167.00
69.4054 160.00
69.4706 153.00
69.5358 157.00
69.601 163.00
69.6662 169.00
69.7314 170.00
69.7966 161.00
69.8618 189.00
69.927 174.00
69.9922 166.00
70.0574 158.00
70.1226 149.00
70.1878 175.00
70.253 165.00
70.3182 175.00
70.3834 198.00
70.4486 151.00
70.5138 176.00
70.579 201.00
70.6442 166.00
70.7094 166.00
70.7746 162.00
70.8398 158.00
70.905 176.00
70.9702 163.00
71.0354 188.00
71.1006 177.00
71.1658 167.00
71.231 182.00
71.2962 180.00
71.3614 139.00
71.4266 189.00
71.4918 176.00
71.5569 161.00
71.6221 163.00
71.6873 162.00
71.7525 162.00
71.8177 182.00
71.8829 150.00
71.9481 164.00
72.0133 169.00
72.0785 185.00
72.1437 176.00
72.2089 180.00
72.2741 173.00
72.3393 190.00
72.4045 174.00
72.4697 140.00
72.5349 176.00
72.6001 174.00
72.6653 167.00
72.7305 185.00
72.7957 155.00
72.8609 155.00
72.9261 153.00
72.9913 194.00
73.0565 175.00
73.1217 185.00
73.1869 155.00
73.2521 166.00
73.3173 181.00
73.3825 174.00
73.4477 183.00
73.5129 146.00
73.5781 184.00
73.6433 169.00
73.7085 182.00
73.7737 165.00
73.8389 152.00
73.9041 167.00
73.9693 169.00
74.0345 180.00
74.0997 191.00
74.1649 177.00
74.2301 146.00
74.2953 182.00
74.3605 165.00
74.4257 181.00
74.4909 190.00
74.5561 192.00
74.6213 160.00
74.6865 178.00
74.7517 182.00
74.8169 155.00
74.8821 182.00
74.9473 183.00
75.0125 178.00
75.0777 176.00
75.1429 175.00
75.2081 181.00
75.2733 202.00
75.3385 195.00
75.4037 179.00
75.4689 196.00
75.5341 189.00
75.5993 187.00
75.6645 193.00
75.7297 190.00
75.7949 177.00
75.8601 173.00
75.9253 175.00
75.9905 178.00
76.0557 168.00
76.1209 185.00
76.186 203.00
76.2513 149.00
76.3165 177.00
76.3816 182.00
76.4468 212.00
76.512 167.00
76.5772 201.00
76.6424 201.00
76.7076 176.00
76.7728 167.00
76.838 203.00
76.9032 185.00
76.9684 197.00
77.0336 159.00
77.0988 181.00
77.164 200.00
77.2292 177.00
77.2944 174.00
77.3596 198.00
77.4248 194.00
77.49 188.00
77.5552 181.00
77.6204 162.00
77.6856 168.00
77.7508 169.00
77.816 199.00
77.8812 188.00
77.9464 170.00
78.0116 211.00
78.0768 176.00
78.142 175.00
78.2072 169.00
78.2724 200.00
78.3376 200.00
78.4028 170.00
78.468 199.00
78.5332 200.00
78.5984 184.00
78.6636 207.00
78.7288 188.00
78.794 173.00
78.8592 187.00
78.9244 183.00
78.9896 203.00
79.0548 203.00
79.12 188.00
79.1852 177.00
79.2504 193.00
79.3156 209.00
79.3808 194.00
79.446 186.00
79.5112 201.00
79.5764 188.00
79.6416 185.00
79.7068 225.00
79.772 206.00
79.8372 194.00
79.9024 183.00
79.9676 203.00
80.0328 211.00
80.098 203.00
80.1632 212.00
80.2284 178.00
80.2936 228.00
80.3588 212.00
80.424 182.00
80.4892 201.00
80.5544 180.00
80.6196 229.00
80.6848 190.00
80.75 228.00
80.8152 214.00
80.8804 199.00
80.9456 177.00
81.0108 215.00
81.076 196.00
81.1412 192.00
81.2063 229.00
81.2715 198.00
81.3367 225.00
81.4019 179.00
81.4671 195.00
81.5323 173.00
81.5975 221.00
81.6627 191.00
81.7279 192.00
81.7931 199.00
81.8583 193.00
81.9235 195.00
81.9887 201.00
82.0539 182.00
82.1191 190.00
82.1843 199.00
82.2495 207.00
82.3147 201.00
82.3799 232.00
82.4451 205.00
82.5103 193.00
82.5755 200.00
82.6407 212.00
82.7059 200.00
82.7711 197.00
82.8363 192.00
82.9015 217.00
82.9667 199.00
83.0319 210.00
83.0971 206.00
83.1623 191.00
83.2275 206.00
83.2927 228.00
83.3579 199.00
83.4231 172.00
83.4883 207.00
83.5535 201.00
83.6187 218.00
83.6839 178.00
83.7491 195.00
83.8143 180.00
83.8795 201.00
83.9447 195.00
84.0099 186.00
84.0751 195.00
84.1403 188.00
84.2055 203.00
84.2707 196.00
84.3359 175.00
84.4011 189.00
84.4663 201.00
84.5315 193.00
84.5967 212.00
84.6619 183.00
84.7271 171.00
84.7923 192.00
84.8575 192.00
84.9227 200.00
84.9879 172.00
85.0531 175.00
85.1183 187.00
85.1835 196.00
85.2487 221.00
85.3139 153.00
85.3791 195.00
85.4443 202.00
85.5095 173.00
85.5747 162.00
85.6399 205.00
85.7051 197.00
85.7703 212.00
85.8354 193.00
85.9006 176.00
85.9659 188.00
86.031 162.00
86.0962 213.00
86.1614 179.00
86.2266 165.00
86.2918 185.00
86.357 179.00
86.4222 196.00
86.4874 161.00
86.5526 186.00
86.6178 185.00
86.683 169.00
86.7482 169.00
86.8134 191.00
86.8786 158.00
86.9438 168.00
87.009 193.00
87.0742 183.00
87.1394 189.00
87.2046 201.00
87.2698 169.00
87.335 164.00
87.4002 147.00
87.4654 175.00
87.5306 135.00
87.5958 158.00
87.661 163.00
87.7262 187.00
87.7914 156.00
87.8566 200.00
87.9218 188.00
87.987 170.00
88.0522 172.00
88.1174 195.00
88.1826 163.00
88.2478 171.00
88.313 187.00
88.3782 165.00
88.4434 179.00
88.5086 151.00
88.5738 170.00
88.639 187.00
88.7042 148.00
88.7694 203.00
88.8346 181.00
88.8998 189.00
88.965 194.00
89.0302 168.00
89.0954 186.00
89.1606 160.00
89.2258 156.00
89.291 178.00
89.3562 175.00
89.4214 190.00
89.4866 155.00
89.5518 167.00
89.617 160.00
89.6822 168.00
89.7474 178.00
89.8126 159.00
89.8778 176.00
89.943 166.00
90.0082 161.00
90.0734 174.00
90.1386 185.00
90.2038 170.00
90.269 174.00
90.3342 175.00
90.3994 165.00
90.4646 180.00
90.5298 198.00
90.595 165.00
90.6601 162.00
90.7253 197.00
90.7905 145.00
90.8557 163.00
90.9209 173.00
90.9861 167.00
91.0513 173.00
91.1165 174.00
91.1817 163.00
91.2469 149.00
91.3121 173.00
91.3773 163.00
91.4425 184.00
91.5077 148.00
91.5729 155.00
91.6381 198.00
91.7033 161.00
91.7685 147.00
91.8337 180.00
91.8989 177.00
91.9641 179.00
92.0293 164.00
92.0945 178.00
92.1597 154.00
92.2249 158.00
92.2901 150.00
92.3553 148.00
92.4205 181.00
92.4857 156.00
92.5509 183.00
92.6161 150.00
92.6813 161.00
92.7465 177.00
92.8117 152.00
92.8769 154.00
92.9421 151.00
93.0073 162.00
93.0725 171.00
93.1377 164.00
93.2029 158.00
93.2681 140.00
93.3333 163.00
93.3985 173.00
93.4637 168.00
93.5289 143.00
93.5941 171.00
93.6593 160.00
93.7245 159.00
93.7897 166.00
93.8549 162.00
93.9201 158.00
93.9853 141.00
94.0505 167.00
94.1157 168.00
94.1809 162.00
94.2461 165.00
94.3113 156.00
94.3765 145.00
94.4417 160.00
94.5069 155.00
94.5721 149.00
94.6373 164.00
94.7025 155.00
94.7677 172.00
94.8329 158.00
94.8981 159.00
94.9633 173.00
95.0285 146.00
95.0937 179.00
95.1589 164.00
95.2241 159.00
95.2893 186.00
95.3545 175.00
95.4197 162.00
95.4848 170.00
95.55 156.00
95.6153 157.00
95.6804 161.00
95.7456 158.00
95.8108 174.00
95.876 156.00
95.9412 154.00
96.0064 177.00
96.0716 166.00
96.1368 140.00
96.202 160.00
96.2672 190.00
96.3324 163.00
96.3976 188.00
96.4628 152.00
96.528 160.00
96.5932 151.00
96.6584 157.00
96.7236 182.00
96.7888 170.00
96.854 152.00
96.9192 185.00
96.9844 191.00
97.0496 137.00
97.1148 195.00
97.18 179.00
97.2452 161.00
97.3104 162.00
97.3756 163.00
97.4408 166.00
97.506 174.00
97.5712 187.00
97.6364 172.00
97.7016 150.00
97.7668 172.00
97.832 163.00
97.8972 163.00
97.9624 169.00
98.0276 174.00
98.0928 162.00
98.158 146.00
98.2232 156.00
98.2884 172.00
98.3536 153.00
98.4188 157.00
98.484 181.00
98.5492 158.00
98.6144 183.00
98.6796 164.00
98.7448 141.00
98.81 153.00
98.8752 164.00
98.9404 186.00
99.0056 169.00
99.0708 172.00
99.136 121.00
99.2012 173.00
99.2664 159.00
99.3316 184.00
99.3968 149.00
99.462 178.00
99.5272 175.00
99.5924 168.00
99.6576 170.00
99.7228 166.00
99.788 163.00
99.8532 169.00
99.9184 163.00
99.9836 169.00
99.9944 140.00