File: data/xrd_creation/results/PG_1734-1.xy
9.903433 2446.00
9.968632 2502.00
10.0338 2430.00
10.099 2546.00
10.1642 2436.00
10.2294 2497.00
10.2946 2390.00
10.3598 2378.00
10.425 2288.00
10.4902 2295.00
10.5554 2272.00
10.6206 2217.00
10.6858 2302.00
10.751 2293.00
10.8162 2247.00
10.8814 2132.00
10.9466 2140.00
11.0118 2207.00
11.077 2155.00
11.1422 2079.00
11.2074 2023.00
11.2726 2081.00
11.3378 2014.00
11.403 2000.00
11.4682 2000.00
11.5334 1948.00
11.5986 2037.00
11.6638 1994.00
11.729 1961.00
11.7942 1929.00
11.8594 1976.00
11.9246 1931.00
11.9898 1895.00
12.055 1830.00
12.1202 1888.00
12.1854 1799.00
12.2506 1809.00
12.3158 1775.00
12.381 1691.00
12.4462 1794.00
12.5114 1730.00
12.5766 1696.00
12.6418 1676.00
12.707 1751.00
12.7722 1731.00
12.8374 1590.00
12.9026 1627.00
12.9678 1578.00
13.033 1629.00
13.0982 1630.00
13.1634 1622.00
13.2286 1542.00
13.2938 1596.00
13.359 1631.00
13.4242 1568.00
13.4894 1617.00
13.5546 1517.00
13.6198 1503.00
13.685 1464.00
13.7502 1523.00
13.8154 1582.00
13.8805 1423.00
13.9457 1390.00
14.0109 1480.00
14.0761 1430.00
14.1413 1470.00
14.2065 1400.00
14.2717 1422.00
14.3369 1416.00
14.4021 1417.00
14.4673 1445.00
14.5325 1381.00
14.5977 1415.00
14.6629 1352.00
14.7281 1393.00
14.7933 1374.00
14.8585 1329.00
14.9237 1320.00
14.9889 1315.00
15.0541 1344.00
15.1193 1396.00
15.1845 1329.00
15.2497 1333.00
15.3149 1316.00
15.3801 1379.00
15.4453 1313.00
15.5105 1325.00
15.5757 1317.00
15.6409 1319.00
15.7061 1267.00
15.7713 1290.00
15.8365 1285.00
15.9017 1264.00
15.9669 1255.00
16.0321 1197.00
16.0973 1304.00
16.1625 1253.00
16.2277 1268.00
16.2929 1197.00
16.3581 1244.00
16.4233 1299.00
16.4885 1375.00
16.5537 1356.00
16.6189 1253.00
16.6841 1302.00
16.7493 1165.00
16.8145 1246.00
16.8797 1249.00
16.9449 1152.00
17.0101 1181.00
17.0753 1207.00
17.1405 1216.00
17.2057 1236.00
17.2709 1190.00
17.3361 1205.00
17.4013 1215.00
17.4665 1157.00
17.5317 1176.00
17.5969 1129.00
17.6621 1166.00
17.7273 1124.00
17.7925 1167.00
17.8577 1013.00
17.9229 1081.00
17.9881 1096.00
18.0533 1067.00
18.1185 1025.00
18.1837 1079.00
18.2489 1120.00
18.3141 1128.00
18.3793 1047.00
18.4445 1065.00
18.5097 1022.00
18.5749 1022.00
18.6401 1027.00
18.7052 1030.00
18.7704 1047.00
18.8356 956.00
18.9008 1004.00
18.966 995.00
19.0312 990.00
19.0964 945.00
19.1616 995.00
19.2268 991.00
19.292 1018.00
19.3572 943.00
19.4224 965.00
19.4876 1000.00
19.5528 962.00
19.618 984.00
19.6832 908.00
19.7484 935.00
19.8136 943.00
19.8788 1015.00
19.944 974.00
20.0092 889.00
20.0744 905.00
20.1396 896.00
20.2048 977.00
20.27 955.00
20.3352 909.00
20.4004 893.00
20.4656 947.00
20.5308 897.00
20.596 922.00
20.6612 910.00
20.7264 870.00
20.7916 910.00
20.8568 907.00
20.922 893.00
20.9872 909.00
21.0524 901.00
21.1176 883.00
21.1828 885.00
21.248 890.00
21.3132 851.00
21.3784 845.00
21.4436 833.00
21.5088 849.00
21.574 886.00
21.6392 887.00
21.7044 839.00
21.7696 788.00
21.8348 848.00
21.9 810.00
21.9652 832.00
22.0304 817.00
22.0956 826.00
22.1608 857.00
22.226 811.00
22.2912 864.00
22.3564 767.00
22.4216 799.00
22.4868 817.00
22.552 797.00
22.6172 801.00
22.6824 792.00
22.7476 800.00
22.8128 785.00
22.878 781.00
22.9432 835.00
23.0084 760.00
23.0736 820.00
23.1388 802.00
23.204 773.00
23.2692 788.00
23.3344 794.00
23.3996 822.00
23.4647 811.00
23.5299 901.00
23.5951 928.00
23.6603 891.00
23.7255 744.00
23.7907 767.00
23.8559 799.00
23.9211 829.00
23.9863 796.00
24.0515 876.00
24.1167 849.00
24.1819 856.00
24.2471 788.00
24.3123 776.00
24.3775 797.00
24.4427 789.00
24.5079 798.00
24.5731 768.00
24.6383 747.00
24.7035 739.00
24.7687 739.00
24.8339 761.00
24.8991 690.00
24.9643 692.00
25.0295 718.00
25.0947 721.00
25.1599 727.00
25.2251 657.00
25.2903 670.00
25.3555 706.00
25.4207 696.00
25.4859 687.00
25.5511 675.00
25.6163 668.00
25.6815 690.00
25.7467 730.00
25.8119 684.00
25.8771 638.00
25.9423 648.00
26.0075 633.00
26.0727 679.00
26.1379 686.00
26.2031 652.00
26.2683 647.00
26.3335 717.00
26.3987 705.00
26.4639 694.00
26.5291 704.00
26.5943 656.00
26.6595 639.00
26.7247 647.00
26.7899 629.00
26.8551 653.00
26.9203 626.00
26.9855 633.00
27.0507 622.00
27.1159 658.00
27.1811 685.00
27.2463 653.00
27.3115 624.00
27.3767 625.00
27.4419 661.00
27.5071 679.00
27.5723 580.00
27.6375 674.00
27.7027 614.00
27.7679 697.00
27.8331 695.00
27.8983 721.00
27.9635 680.00
28.0287 727.00
28.0939 863.00
28.1591 973.00
28.2243 1340.00
28.2894 1244.00
28.3546 1127.00
28.4198 864.00
28.485 759.00
28.5502 651.00
28.6154 646.00
28.6806 622.00
28.7458 668.00
28.811 710.00
28.8762 708.00
28.9414 685.00
29.0066 683.00
29.0718 632.00
29.137 623.00
29.2022 561.00
29.2674 554.00
29.3326 597.00
29.3978 604.00
29.463 593.00
29.5282 586.00
29.5934 607.00
29.6586 596.00
29.7238 594.00
29.789 567.00
29.8542 558.00
29.9194 628.00
29.9846 577.00
30.0498 560.00
30.115 557.00
30.1802 584.00
30.2454 553.00
30.3106 514.00
30.3758 568.00
30.441 547.00
30.5062 553.00
30.5714 539.00
30.6366 562.00
30.7018 572.00
30.767 523.00
30.8322 545.00
30.8974 546.00
30.9626 584.00
31.0278 570.00
31.093 540.00
31.1582 567.00
31.2234 575.00
31.2886 580.00
31.3538 645.00
31.419 725.00
31.4842 886.00
31.5494 1047.00
31.6146 1035.00
31.6798 885.00
31.745 755.00
31.8102 619.00
31.8754 578.00
31.9406 547.00
32.0058 520.00
32.071 483.00
32.1362 505.00
32.2014 512.00
32.2666 539.00
32.3318 529.00
32.397 495.00
32.4622 503.00
32.5274 549.00
32.5926 499.00
32.6578 495.00
32.723 490.00
32.7882 473.00
32.8534 487.00
32.9186 506.00
32.9838 489.00
33.0489 483.00
33.1141 460.00
33.1793 473.00
33.2445 483.00
33.3097 494.00
33.3749 480.00
33.4401 495.00
33.5053 497.00
33.5705 480.00
33.6357 494.00
33.7009 544.00
33.7661 518.00
33.8313 538.00
33.8965 505.00
33.9617 495.00
34.0269 480.00
34.0921 548.00
34.1573 591.00
34.2225 612.00
34.2877 683.00
34.3529 622.00
34.4181 623.00
34.4833 587.00
34.5485 599.00
34.6137 565.00
34.6789 533.00
34.7441 538.00
34.8093 470.00
34.8745 444.00
34.9397 434.00
35.0049 449.00
35.0701 451.00
35.1353 470.00
35.2005 474.00
35.2657 498.00
35.3309 519.00
35.3961 590.00
35.4613 601.00
35.5265 543.00
35.5917 511.00
35.6569 482.00
35.7221 467.00
35.7873 453.00
35.8525 444.00
35.9177 455.00
35.9829 453.00
36.0481 462.00
36.1133 439.00
36.1785 460.00
36.2437 439.00
36.3089 443.00
36.3741 438.00
36.4393 439.00
36.5045 433.00
36.5697 412.00
36.6349 401.00
36.7001 425.00
36.7653 412.00
36.8305 413.00
36.8957 392.00
36.9609 422.00
37.0261 419.00
37.0913 363.00
37.1565 436.00
37.2217 412.00
37.2869 401.00
37.3521 403.00
37.4173 381.00
37.4825 357.00
37.5477 389.00
37.6129 361.00
37.6781 402.00
37.7433 408.00
37.8085 407.00
37.8736 386.00
37.9388 390.00
38.004 385.00
38.0692 393.00
38.1344 388.00
38.1996 388.00
38.2648 425.00
38.33 390.00
38.3952 336.00
38.4604 421.00
38.5256 378.00
38.5908 367.00
38.656 428.00
38.7212 433.00
38.7864 420.00
38.8516 375.00
38.9168 397.00
38.982 393.00
39.0472 353.00
39.1124 419.00
39.1776 398.00
39.2428 370.00
39.308 354.00
39.3732 365.00
39.4384 385.00
39.5036 341.00
39.5688 364.00
39.634 356.00
39.6992 368.00
39.7644 342.00
39.8296 371.00
39.8948 371.00
39.96 395.00
40.0252 341.00
40.0904 360.00
40.1556 362.00
40.2208 346.00
40.286 334.00
40.3512 357.00
40.4164 377.00
40.4816 358.00
40.5468 320.00
40.612 379.00
40.6772 375.00
40.7424 344.00
40.8076 431.00
40.8728 428.00
40.938 418.00
41.0032 440.00
41.0684 371.00
41.1336 366.00
41.1988 361.00
41.264 391.00
41.3292 370.00
41.3944 343.00
41.4596 365.00
41.5248 334.00
41.59 394.00
41.6552 342.00
41.7204 353.00
41.7856 338.00
41.8508 335.00
41.916 314.00
41.9812 346.00
42.0464 342.00
42.1116 339.00
42.1768 294.00
42.242 348.00
42.3072 340.00
42.3724 337.00
42.4376 323.00
42.5028 333.00
42.568 334.00
42.6332 344.00
42.6983 325.00
42.7635 353.00
42.8287 308.00
42.8939 338.00
42.9591 342.00
43.0243 364.00
43.0895 370.00
43.1547 379.00
43.2199 378.00
43.2851 358.00
43.3503 348.00
43.4155 362.00
43.4807 309.00
43.5459 317.00
43.6111 329.00
43.6763 342.00
43.7415 354.00
43.8067 320.00
43.8719 314.00
43.9371 305.00
44.0023 329.00
44.0675 306.00
44.1327 314.00
44.1979 323.00
44.2631 314.00
44.3283 308.00
44.3935 310.00
44.4587 318.00
44.5239 302.00
44.5891 294.00
44.6543 303.00
44.7195 295.00
44.7847 312.00
44.8499 336.00
44.9151 351.00
44.9803 353.00
45.0455 387.00
45.1107 385.00
45.1759 354.00
45.2411 299.00
45.3063 328.00
45.3715 300.00
45.4367 326.00
45.5019 329.00
45.5671 330.00
45.6323 369.00
45.6975 367.00
45.7627 369.00
45.8279 340.00
45.8931 318.00
45.9583 281.00
46.0235 295.00
46.0887 336.00
46.1539 312.00
46.2191 321.00
46.2843 302.00
46.3495 300.00
46.4147 319.00
46.4799 297.00
46.5451 295.00
46.6103 290.00
46.6755 312.00
46.7407 284.00
46.8059 299.00
46.8711 292.00
46.9363 305.00
47.0015 285.00
47.0667 299.00
47.1319 310.00
47.1971 302.00
47.2623 285.00
47.3275 306.00
47.3927 281.00
47.4579 289.00
47.523 277.00
47.5882 293.00
47.6534 282.00
47.7186 259.00
47.7838 300.00
47.849 268.00
47.9142 289.00
47.9794 281.00
48.0446 289.00
48.1098 277.00
48.175 291.00
48.2402 311.00
48.3054 280.00
48.3706 313.00
48.4358 289.00
48.501 240.00
48.5662 286.00
48.6314 278.00
48.6966 319.00
48.7618 256.00
48.827 277.00
48.8922 277.00
48.9574 298.00
49.0226 279.00
49.0878 298.00
49.153 325.00
49.2182 288.00
49.2834 283.00
49.3486 340.00
49.4138 387.00
49.479 433.00
49.5442 410.00
49.6094 380.00
49.6746 319.00
49.7398 339.00
49.805 276.00
49.8702 271.00
49.9354 307.00
50.0006 280.00
50.0658 305.00
50.131 319.00
50.1962 317.00
50.2614 389.00
50.3266 418.00
50.3918 473.00
50.457 413.00
50.5222 383.00
50.5874 347.00
50.6526 339.00
50.7178 329.00
50.783 354.00
50.8482 355.00
50.9134 312.00
50.9786 302.00
51.0438 342.00
51.109 295.00
51.1742 295.00
51.2394 263.00
51.3046 304.00
51.3698 304.00
51.435 318.00
51.5002 350.00
51.5654 311.00
51.6306 312.00
51.6958 268.00
51.761 267.00
51.8262 288.00
51.8914 257.00
51.9566 285.00
52.0218 232.00
52.087 264.00
52.1522 238.00
52.2174 234.00
52.2826 282.00
52.3477 241.00
52.4129 273.00
52.4781 277.00
52.5433 243.00
52.6085 256.00
52.6737 245.00
52.7389 242.00
52.8041 230.00
52.8693 273.00
52.9345 257.00
52.9997 258.00
53.0649 228.00
53.1301 266.00
53.1953 248.00
53.2605 272.00
53.3257 229.00
53.3909 247.00
53.4561 270.00
53.5213 258.00
53.5865 276.00
53.6517 259.00
53.7169 235.00
53.7821 248.00
53.8473 261.00
53.9125 240.00
53.9777 257.00
54.0429 233.00
54.1081 238.00
54.1733 240.00
54.2385 288.00
54.3037 307.00
54.3689 359.00
54.4341 318.00
54.4993 336.00
54.5645 305.00
54.6297 275.00
54.6949 281.00
54.7601 258.00
54.8253 242.00
54.8905 257.00
54.9557 279.00
55.0209 270.00
55.0861 244.00
55.1513 249.00
55.2165 213.00
55.2817 286.00
55.3469 307.00
55.4121 280.00
55.4773 279.00
55.5425 303.00
55.6077 335.00
55.6729 332.00
55.7381 359.00
55.8033 326.00
55.8685 336.00
55.9337 266.00
55.9989 288.00
56.0641 302.00
56.1293 327.00
56.1945 292.00
56.2597 260.00
56.3249 296.00
56.3901 240.00
56.4553 267.00
56.5205 261.00
56.5857 266.00
56.6509 256.00
56.7161 225.00
56.7813 249.00
56.8465 236.00
56.9117 206.00
56.9769 240.00
57.042 233.00
57.1073 209.00
57.1724 248.00
57.2376 227.00
57.3028 246.00
57.368 286.00
57.4332 285.00
57.4984 294.00
57.5636 292.00
57.6288 247.00
57.694 262.00
57.7592 243.00
57.8244 231.00
57.8896 226.00
57.9548 225.00
58.02 245.00
58.0852 264.00
58.1504 274.00
58.2156 287.00
58.2808 281.00
58.346 273.00
58.4112 246.00
58.4764 229.00
58.5416 265.00
58.6068 266.00
58.672 257.00
58.7372 269.00
58.8024 272.00
58.8676 260.00
58.9328 229.00
58.998 235.00
59.0632 225.00
59.1284 194.00
59.1936 235.00
59.2588 215.00
59.324 249.00
59.3892 215.00
59.4544 221.00
59.5196 222.00
59.5848 249.00
59.65 240.00
59.7152 198.00
59.7804 215.00
59.8456 239.00
59.9108 243.00
59.976 235.00
60.0412 258.00
60.1064 300.00
60.1716 305.00
60.2368 288.00
60.302 291.00
60.3672 290.00
60.4324 262.00
60.4976 245.00
60.5628 249.00
60.628 286.00
60.6932 239.00
60.7584 251.00
60.8236 251.00
60.8888 231.00
60.954 213.00
61.0192 223.00
61.0844 201.00
61.1496 231.00
61.2148 210.00
61.28 202.00
61.3452 232.00
61.4104 213.00
61.4756 216.00
61.5408 268.00
61.606 264.00
61.6712 288.00
61.7364 248.00
61.8016 258.00
61.8667 250.00
61.932 216.00
61.9971 226.00
62.0623 235.00
62.1275 229.00
62.1927 258.00
62.2579 226.00
62.3231 256.00
62.3883 250.00
62.4535 241.00
62.5187 261.00
62.5839 216.00
62.6491 230.00
62.7143 236.00
62.7795 220.00
62.8447 237.00
62.9099 240.00
62.9751 266.00
63.0403 247.00
63.1055 245.00
63.1707 258.00
63.2359 283.00
63.3011 277.00
63.3663 256.00
63.4315 263.00
63.4967 247.00
63.5619 224.00
63.6271 217.00
63.6923 216.00
63.7575 195.00
63.8227 210.00
63.8879 200.00
63.9531 185.00
64.0183 200.00
64.0835 238.00
64.1487 188.00
64.2139 226.00
64.2791 220.00
64.3443 217.00
64.4095 249.00
64.4747 215.00
64.5399 230.00
64.6051 237.00
64.6703 221.00
64.7355 230.00
64.8007 213.00
64.8659 209.00
64.9311 217.00
64.9963 192.00
65.0615 213.00
65.1267 219.00
65.1919 191.00
65.2571 194.00
65.3223 188.00
65.3875 201.00
65.4527 223.00
65.5179 209.00
65.5831 194.00
65.6483 222.00
65.7135 226.00
65.7787 249.00
65.8439 245.00
65.9091 216.00
65.9743 235.00
66.0395 238.00
66.1047 286.00
66.1699 258.00
66.2351 265.00
66.3003 260.00
66.3655 241.00
66.4307 223.00
66.4959 227.00
66.561 235.00
66.6263 210.00
66.6915 223.00
66.7566 215.00
66.8218 210.00
66.887 202.00
66.9522 200.00
67.0174 214.00
67.0826 209.00
67.1478 196.00
67.213 197.00
67.2782 211.00
67.3434 231.00
67.4086 187.00
67.4738 198.00
67.539 203.00
67.6042 182.00
67.6694 219.00
67.7346 188.00
67.7998 216.00
67.865 205.00
67.9302 200.00
67.9954 194.00
68.0606 178.00
68.1258 223.00
68.191 237.00
68.2562 209.00
68.3214 177.00
68.3866 191.00
68.4518 179.00
68.517 204.00
68.5822 183.00
68.6474 230.00
68.7126 207.00
68.7778 207.00
68.843 225.00
68.9082 201.00
68.9734 208.00
69.0386 201.00
69.1038 205.00
69.169 223.00
69.2342 229.00
69.2994 217.00
69.3646 242.00
69.4298 184.00
69.495 212.00
69.5602 223.00
69.6254 192.00
69.6906 205.00
69.7558 188.00
69.821 227.00
69.8862 174.00
69.9514 207.00
70.0166 208.00
70.0818 196.00
70.147 209.00
70.2122 188.00
70.2774 200.00
70.3426 188.00
70.4078 193.00
70.473 217.00
70.5382 242.00
70.6034 209.00
70.6686 210.00
70.7338 223.00
70.799 204.00
70.8642 223.00
70.9294 216.00
70.9946 201.00
71.0598 204.00
71.125 201.00
71.1902 224.00
71.2554 195.00
71.3205 198.00
71.3858 243.00
71.451 229.00
71.5162 257.00
71.5813 245.00
71.6465 227.00
71.7117 232.00
71.7769 234.00
71.8421 219.00
71.9073 212.00
71.9725 239.00
72.0377 198.00
72.1029 202.00
72.1681 246.00
72.2333 207.00
72.2985 201.00
72.3637 218.00
72.4289 202.00
72.4941 220.00
72.5593 224.00
72.6245 234.00
72.6897 227.00
72.7549 200.00
72.8201 221.00
72.8853 189.00
72.9505 223.00
73.0157 264.00
73.0809 228.00
73.1461 245.00
73.2113 229.00
73.2765 199.00
73.3417 201.00
73.4069 217.00
73.4721 214.00
73.5373 194.00
73.6025 213.00
73.6677 209.00
73.7329 229.00
73.7981 220.00
73.8633 213.00
73.9285 199.00
73.9937 217.00
74.0589 202.00
74.1241 215.00
74.1893 222.00
74.2545 209.00
74.3197 180.00
74.3849 202.00
74.4501 187.00
74.5153 209.00
74.5805 226.00
74.6457 216.00
74.7109 201.00
74.7761 224.00
74.8413 197.00
74.9065 221.00
74.9717 259.00
75.0369 231.00
75.1021 228.00
75.1673 226.00
75.2325 225.00
75.2977 219.00
75.3629 208.00
75.4281 203.00
75.4933 257.00
75.5585 225.00
75.6237 220.00
75.6889 260.00
75.7541 241.00
75.8193 232.00
75.8845 224.00
75.9497 218.00
76.0149 245.00
76.0801 224.00
76.1452 214.00
76.2104 217.00
76.2756 231.00
76.3409 218.00
76.406 214.00
76.4712 210.00
76.5364 216.00
76.6016 198.00
76.6668 243.00
76.732 234.00
76.7972 238.00
76.8624 224.00
76.9276 228.00
76.9928 224.00
77.058 227.00
77.1232 224.00
77.1884 273.00
77.2536 200.00
77.3188 242.00
77.384 212.00
77.4492 257.00
77.5144 258.00
77.5796 235.00
77.6448 258.00
77.71 247.00
77.7752 202.00
77.8404 219.00
77.9056 240.00
77.9708 233.00
78.036 214.00
78.1012 256.00
78.1664 226.00
78.2316 220.00
78.2968 217.00
78.362 215.00
78.4272 231.00
78.4924 203.00
78.5576 232.00
78.6228 234.00
78.688 226.00
78.7532 242.00
78.8184 226.00
78.8836 238.00
78.9488 237.00
79.014 234.00
79.0792 268.00
79.1444 238.00
79.2096 238.00
79.2748 230.00
79.34 231.00
79.4052 256.00
79.4704 228.00
79.5356 244.00
79.6008 239.00
79.666 266.00
79.7312 211.00
79.7964 218.00
79.8616 240.00
79.9268 234.00
79.992 259.00
80.0572 235.00
80.1224 220.00
80.1876 215.00
80.2528 236.00
80.318 241.00
80.3832 256.00
80.4484 218.00
80.5136 224.00
80.5788 243.00
80.644 251.00
80.7092 230.00
80.7744 238.00
80.8396 235.00
80.9048 260.00
80.9699 218.00
81.0351 237.00
81.1003 207.00
81.1655 260.00
81.2307 220.00
81.2959 230.00
81.3611 219.00
81.4263 213.00
81.4915 222.00
81.5567 234.00
81.6219 265.00
81.6871 232.00
81.7523 232.00
81.8175 243.00
81.8827 220.00
81.9479 237.00
82.0131 222.00
82.0783 240.00
82.1435 223.00
82.2087 226.00
82.2739 242.00
82.3391 273.00
82.4043 243.00
82.4695 232.00
82.5347 242.00
82.5999 237.00
82.6651 270.00
82.7303 246.00
82.7955 248.00
82.8607 245.00
82.9259 220.00
82.9911 290.00
83.0563 276.00
83.1215 245.00
83.1867 261.00
83.2519 237.00
83.3171 265.00
83.3823 231.00
83.4475 259.00
83.5127 238.00
83.5779 226.00
83.6431 247.00
83.7083 213.00
83.7735 257.00
83.8387 268.00
83.9039 256.00
83.9691 221.00
84.0343 242.00
84.0995 231.00
84.1647 233.00
84.2299 232.00
84.2951 236.00
84.3603 279.00
84.4255 240.00
84.4907 240.00
84.5559 239.00
84.6211 208.00
84.6863 268.00
84.7515 270.00
84.8167 219.00
84.8819 265.00
84.9471 243.00
85.0123 238.00
85.0775 256.00
85.1427 220.00
85.2079 209.00
85.2731 206.00
85.3383 231.00
85.4035 209.00
85.4687 225.00
85.5339 212.00
85.5991 240.00
85.6643 239.00
85.7295 226.00
85.7946 221.00
85.8598 224.00
85.925 221.00
85.9903 232.00
86.0554 204.00
86.1206 235.00
86.1858 219.00
86.251 215.00
86.3162 214.00
86.3814 226.00
86.4466 210.00
86.5118 244.00
86.577 204.00
86.6422 248.00
86.7074 224.00
86.7726 226.00
86.8378 234.00
86.903 225.00
86.9682 192.00
87.0334 202.00
87.0986 216.00
87.1638 195.00
87.229 200.00
87.2942 196.00
87.3594 216.00
87.4246 219.00
87.4898 218.00
87.555 192.00
87.6202 214.00
87.6854 229.00
87.7506 217.00
87.8158 221.00
87.881 215.00
87.9462 233.00
88.0114 222.00
88.0766 241.00
88.1418 238.00
88.207 216.00
88.2722 232.00
88.3374 186.00
88.4026 221.00
88.4678 190.00
88.533 210.00
88.5982 205.00
88.6634 223.00
88.7286 222.00
88.7938 233.00
88.859 201.00
88.9242 229.00
88.9894 186.00
89.0546 194.00
89.1198 246.00
89.185 225.00
89.2502 240.00
89.3154 222.00
89.3806 233.00
89.4458 239.00
89.511 212.00
89.5762 243.00
89.6414 208.00
89.7066 199.00
89.7718 203.00
89.837 216.00
89.9022 198.00
89.9674 206.00
90.0326 186.00
90.0978 189.00
90.163 184.00
90.2282 210.00
90.2934 195.00
90.3586 194.00
90.4238 206.00
90.489 221.00
90.5542 225.00
90.6193 229.00
90.6845 204.00
90.7497 216.00
90.8149 209.00
90.8801 178.00
90.9453 191.00
91.0105 190.00
91.0757 224.00
91.1409 203.00
91.2061 218.00
91.2713 208.00
91.3365 213.00
91.4017 210.00
91.4669 223.00
91.5321 197.00
91.5973 179.00
91.6625 198.00
91.7277 211.00
91.7929 238.00
91.8581 193.00
91.9233 201.00
91.9885 180.00
92.0537 183.00
92.1189 213.00
92.1841 184.00
92.2493 188.00
92.3145 207.00
92.3797 189.00
92.4449 208.00
92.5101 170.00
92.5753 184.00
92.6405 218.00
92.7057 205.00
92.7709 194.00
92.8361 199.00
92.9013 203.00
92.9665 244.00
93.0317 213.00
93.0969 223.00
93.1621 194.00
93.2273 204.00
93.2925 172.00
93.3577 220.00
93.4229 176.00
93.4881 217.00
93.5533 200.00
93.6185 183.00
93.6837 218.00
93.7489 203.00
93.8141 198.00
93.8793 183.00
93.9445 203.00
94.0097 180.00
94.0749 204.00
94.1401 198.00
94.2053 202.00
94.2705 178.00
94.3357 225.00
94.4009 223.00
94.4661 196.00
94.5313 207.00
94.5965 194.00
94.6617 196.00
94.7269 176.00
94.7921 198.00
94.8573 208.00
94.9225 227.00
94.9877 210.00
95.0529 208.00
95.1181 220.00
95.1833 199.00
95.2485 196.00
95.3137 186.00
95.3789 212.00
95.444 231.00
95.5092 205.00
95.5744 218.00
95.6396 216.00
95.7048 214.00
95.77 220.00
95.8352 213.00
95.9004 203.00
95.9656 205.00
96.0308 212.00
96.096 197.00
96.1612 212.00
96.2264 202.00
96.2916 197.00
96.3568 195.00
96.422 227.00
96.4872 204.00
96.5524 211.00
96.6176 191.00
96.6828 216.00
96.748 189.00
96.8132 218.00
96.8784 206.00
96.9436 200.00
97.0088 226.00
97.074 209.00
97.1392 197.00
97.2044 209.00
97.2696 217.00
97.3348 211.00
97.4 239.00
97.4652 217.00
97.5304 228.00
97.5956 227.00
97.6608 221.00
97.726 191.00
97.7912 200.00
97.8564 203.00
97.9216 190.00
97.9868 200.00
98.052 212.00
98.1172 199.00
98.1824 200.00
98.2476 172.00
98.3128 205.00
98.378 193.00
98.4432 197.00
98.5084 187.00
98.5736 209.00
98.6388 201.00
98.704 196.00
98.7692 230.00
98.8344 228.00
98.8996 188.00
98.9648 199.00
99.03 205.00
99.0952 181.00
99.1604 199.00
99.2256 196.00
99.2908 197.00
99.356 214.00
99.4212 206.00
99.4864 217.00
99.5516 215.00
99.6168 206.00
99.682 204.00
99.7472 197.00
99.8124 196.00
99.8776 200.00
99.9428 205.00
100.008 207.00
100.073 215.00
100.095 194.00