File: data/xrd_creation/results/PG_1622-1.xy
10.0094 2751.00
10.0746 2616.00
10.1398 2674.00
10.205 2633.00
10.2702 2717.00
10.3354 2711.00
10.4006 2594.00
10.4658 2630.00
10.531 2612.00
10.5962 2615.00
10.6614 2661.00
10.7266 2512.00
10.7918 2499.00
10.857 2521.00
10.9222 2489.00
10.9874 2486.00
11.0526 2530.00
11.1178 2512.00
11.183 2643.00
11.2482 2684.00
11.3134 2895.00
11.3786 3292.00
11.4438 3662.00
11.509 4467.00
11.5742 5695.00
11.6394 7609.00
11.7046 9754.00
11.7698 10067.00
11.835 5051.00
11.9002 2910.00
11.9654 2468.00
12.0306 2330.00
12.0958 2236.00
12.161 2182.00
12.2262 2196.00
12.2914 2109.00
12.3566 2111.00
12.4218 2089.00
12.487 2075.00
12.5522 2131.00
12.6174 1997.00
12.6826 2092.00
12.7478 1984.00
12.813 1989.00
12.8782 2002.00
12.9434 1967.00
13.0086 1958.00
13.0738 1896.00
13.139 1891.00
13.2042 1968.00
13.2694 1951.00
13.3346 1889.00
13.3998 1893.00
13.465 1863.00
13.5302 1871.00
13.5954 1876.00
13.6606 1870.00
13.7258 1812.00
13.791 1773.00
13.8562 1826.00
13.9214 1727.00
13.9865 1766.00
14.0517 1760.00
14.1169 1757.00
14.1821 1710.00
14.2473 1700.00
14.3125 1755.00
14.3777 1757.00
14.4429 1765.00
14.5081 1802.00
14.5733 1773.00
14.6385 1746.00
14.7037 1688.00
14.7689 1694.00
14.8341 1826.00
14.8993 1740.00
14.9645 1722.00
15.0297 1711.00
15.0949 1663.00
15.1601 1720.00
15.2253 1699.00
15.2905 1736.00
15.3557 1642.00
15.4209 1659.00
15.4861 1641.00
15.5513 1633.00
15.6165 1666.00
15.6817 1607.00
15.7469 1667.00
15.8121 1543.00
15.8773 1669.00
15.9425 1612.00
16.0077 1650.00
16.0729 1594.00
16.1381 1701.00
16.2033 1602.00
16.2685 1807.00
16.3337 1896.00
16.3989 1902.00
16.4641 2033.00
16.5293 2136.00
16.5945 1826.00
16.6597 1642.00
16.7249 1516.00
16.7901 1622.00
16.8553 1654.00
16.9205 1540.00
16.9857 1530.00
17.0509 1610.00
17.1161 1562.00
17.1813 1517.00
17.2465 1583.00
17.3117 1582.00
17.3769 1580.00
17.4421 1537.00
17.5073 1502.00
17.5725 1552.00
17.6377 1410.00
17.7029 1543.00
17.7681 1486.00
17.8333 1502.00
17.8985 1513.00
17.9637 1461.00
18.0289 1480.00
18.0941 1602.00
18.1593 1549.00
18.2245 1484.00
18.2897 1513.00
18.3549 1494.00
18.4201 1437.00
18.4853 1451.00
18.5505 1557.00
18.6157 1508.00
18.6809 1450.00
18.7461 1521.00
18.8112 1459.00
18.8764 1553.00
18.9416 1467.00
19.0068 1442.00
19.072 1475.00
19.1372 1483.00
19.2024 1465.00
19.2676 1532.00
19.3328 1574.00
19.398 1653.00
19.4632 1557.00
19.5284 1518.00
19.5936 1494.00
19.6588 1464.00
19.724 1518.00
19.7892 1630.00
19.8544 1700.00
19.9196 1761.00
19.9848 2112.00
20.05 2621.00
20.1152 3351.00
20.1804 4153.00
20.2456 3255.00
20.3108 2222.00
20.376 2006.00
20.4412 2182.00
20.5064 2385.00
20.5716 2990.00
20.6368 4530.00
20.702 6796.00
20.7672 10636.00
20.8324 13869.00
20.8976 10888.00
20.9628 4809.00
21.028 2765.00
21.0932 2227.00
21.1584 1949.00
21.2236 1760.00
21.2888 1708.00
21.354 1847.00
21.4192 1902.00
21.4844 2466.00
21.5496 3287.00
21.6148 4081.00
21.68 3128.00
21.7452 1924.00
21.8104 1573.00
21.8756 1471.00
21.9408 1457.00
22.006 1412.00
22.0712 1406.00
22.1364 1434.00
22.2016 1387.00
22.2668 1429.00
22.332 1457.00
22.3972 1405.00
22.4624 1405.00
22.5276 1408.00
22.5928 1454.00
22.658 1427.00
22.7232 1439.00
22.7884 1474.00
22.8536 1420.00
22.9188 1402.00
22.984 1422.00
23.0492 1500.00
23.1144 1653.00
23.1796 1935.00
23.2448 2502.00
23.31 2755.00
23.3752 2173.00
23.4404 1545.00
23.5056 1560.00
23.5708 1672.00
23.6359 1757.00
23.7011 2004.00
23.7663 1824.00
23.8315 1552.00
23.8967 1352.00
23.9619 1297.00
24.0271 1346.00
24.0923 1317.00
24.1575 1347.00
24.2227 1360.00
24.2879 1349.00
24.3531 1410.00
24.4183 1406.00
24.4835 1381.00
24.5487 1380.00
24.6139 1425.00
24.6791 1391.00
24.7443 1325.00
24.8095 1437.00
24.8747 1403.00
24.9399 1456.00
25.0051 1424.00
25.0703 1429.00
25.1355 1480.00
25.2007 1563.00
25.2659 1698.00
25.3311 1841.00
25.3963 2011.00
25.4615 2126.00
25.5267 2311.00
25.5919 2421.00
25.6571 2689.00
25.7223 3008.00
25.7875 3540.00
25.8527 4302.00
25.9179 6052.00
25.9831 9447.00
26.0483 16987.00
26.1135 32532.00
26.1787 57608.00
26.2439 76896.00
26.3091 50202.00
26.3743 19911.00
26.4395 8357.00
26.5047 5334.00
26.5699 3973.00
26.6351 3107.00
26.7003 2589.00
26.7655 2215.00
26.8307 2123.00
26.8959 1940.00
26.9611 1851.00
27.0263 1815.00
27.0915 1723.00
27.1567 1654.00
27.2219 1629.00
27.2871 1553.00
27.3523 1624.00
27.4175 1702.00
27.4827 1629.00
27.5479 1588.00
27.6131 1558.00
27.6783 1454.00
27.7435 1476.00
27.8087 1520.00
27.8739 1533.00
27.9391 1511.00
28.0043 1399.00
28.0695 1537.00
28.1347 1488.00
28.1999 1480.00
28.2651 1587.00
28.3303 1781.00
28.3955 2301.00
28.4606 3518.00
28.5258 5068.00
28.591 5720.00
28.6562 3647.00
28.7214 2075.00
28.7866 1565.00
28.8518 1515.00
28.917 1407.00
28.9822 1403.00
29.0474 1376.00
29.1126 1337.00
29.1778 1289.00
29.243 1306.00
29.3082 1333.00
29.3734 1261.00
29.4386 1353.00
29.5038 1302.00
29.569 1513.00
29.6342 1691.00
29.6994 1959.00
29.7646 1998.00
29.8298 1732.00
29.895 1442.00
29.9602 1401.00
30.0254 1352.00
30.0906 1289.00
30.1558 1292.00
30.221 1191.00
30.2862 1208.00
30.3514 1275.00
30.4166 1317.00
30.4818 1240.00
30.547 1328.00
30.6122 1417.00
30.6774 1674.00
30.7426 2047.00
30.8078 2859.00
30.873 3671.00
30.9382 3363.00
31.0034 2327.00
31.0686 1551.00
31.1338 1389.00
31.199 1287.00
31.2642 1305.00
31.3294 1258.00
31.3946 1312.00
31.4598 1280.00
31.525 1281.00
31.5902 1284.00
31.6554 1272.00
31.7206 1338.00
31.7858 1496.00
31.851 1692.00
31.9162 2430.00
31.9814 3552.00
32.0466 4720.00
32.1118 4150.00
32.177 2866.00
32.2422 1832.00
32.3074 1478.00
32.3726 1379.00
32.4378 1268.00
32.503 1219.00
32.5682 1189.00
32.6334 1214.00
32.6986 1185.00
32.7638 1244.00
32.829 1396.00
32.8942 1542.00
32.9594 2230.00
33.0246 3149.00
33.0898 3022.00
33.1549 2123.00
33.2201 1380.00
33.2853 1221.00
33.3505 1225.00
33.4157 1156.00
33.4809 1096.00
33.5461 1077.00
33.6113 1062.00
33.6765 1054.00
33.7417 1046.00
33.8069 1088.00
33.8721 1034.00
33.9373 1086.00
34.0025 1093.00
34.0677 1111.00
34.1329 1216.00
34.1981 1295.00
34.2633 1495.00
34.3285 1896.00
34.3937 2175.00
34.4589 1794.00
34.5241 1472.00
34.5893 1180.00
34.6545 1161.00
34.7197 1131.00
34.7849 1140.00
34.8501 1159.00
34.9153 1251.00
34.9805 1569.00
35.0457 2101.00
35.1109 2486.00
35.1761 2114.00
35.2413 1641.00
35.3065 1230.00
35.3717 1103.00
35.4369 1144.00
35.5021 1121.00
35.5673 1139.00
35.6325 1140.00
35.6977 1221.00
35.7629 1316.00
35.8281 1336.00
35.8933 1438.00
35.9585 1622.00
36.0237 1844.00
36.0889 2457.00
36.1541 4070.00
36.2193 6543.00
36.2845 8304.00
36.3497 6732.00
36.4149 4129.00
36.4801 2268.00
36.5453 1708.00
36.6105 1460.00
36.6757 1474.00
36.7409 1337.00
36.8061 1359.00
36.8713 1709.00
36.9365 2257.00
37.0017 3459.00
37.0669 4087.00
37.1321 3495.00
37.1973 3008.00
37.2625 2503.00
37.3277 1961.00
37.3929 1592.00
37.4581 1388.00
37.5233 1271.00
37.5885 1266.00
37.6537 1243.00
37.7189 1381.00
37.7841 1401.00
37.8493 1493.00
37.9145 1545.00
37.9796 1737.00
38.0448 2120.00
38.11 2897.00
38.1752 5163.00
38.2404 9600.00
38.3056 14909.00
38.3708 12619.00
38.436 8243.00
38.5012 3814.00
38.5664 2385.00
38.6316 1978.00
38.6968 1805.00
38.762 1975.00
38.8272 2859.00
38.8924 3875.00
38.9576 3548.00
39.0228 2687.00
39.088 1665.00
39.1532 1415.00
39.2184 1360.00
39.2836 1386.00
39.3488 1353.00
39.414 1493.00
39.4792 1709.00
39.5444 2232.00
39.6096 3499.00
39.6748 6289.00
39.74 9237.00
39.8052 8378.00
39.8704 5887.00
39.9356 3270.00
40.0008 2015.00
40.066 1627.00
40.1312 1531.00
40.1964 1540.00
40.2616 1458.00
40.3268 1336.00
40.392 1156.00
40.4572 1101.00
40.5224 1114.00
40.5876 1274.00
40.6528 1538.00
40.718 1609.00
40.7832 1528.00
40.8484 1265.00
40.9136 1124.00
40.9788 1072.00
41.044 992.00
41.1092 1039.00
41.1744 1053.00
41.2396 1102.00
41.3048 1095.00
41.37 1109.00
41.4352 1137.00
41.5004 1135.00
41.5656 1177.00
41.6308 1315.00
41.696 1500.00
41.7612 1634.00
41.8264 2117.00
41.8916 3236.00
41.9568 5438.00
42.022 9067.00
42.0872 11829.00
42.1524 8868.00
42.2176 6041.00
42.2828 3002.00
42.348 2049.00
42.4132 1719.00
42.4784 1424.00
42.5436 1242.00
42.6088 1174.00
42.6739 1049.00
42.7392 973.00
42.8043 1054.00
42.8695 1028.00
42.9347 1104.00
42.9999 1051.00
43.0651 996.00
43.1303 1014.00
43.1955 974.00
43.2607 942.00
43.3259 932.00
43.3911 923.00
43.4563 969.00
43.5215 945.00
43.5867 927.00
43.6519 1042.00
43.7171 1153.00
43.7823 1037.00
43.8475 1118.00
43.9127 1003.00
43.9779 1212.00
44.0431 1478.00
44.1083 1632.00
44.1735 1410.00
44.2387 1199.00
44.3039 937.00
44.3691 940.00
44.4343 916.00
44.4995 905.00
44.5647 921.00
44.6299 902.00
44.6951 923.00
44.7603 881.00
44.8255 902.00
44.8907 932.00
44.9559 1032.00
45.0211 1149.00
45.0863 1453.00
45.1515 1922.00
45.2167 1894.00
45.2819 1573.00
45.3471 1327.00
45.4123 1070.00
45.4775 949.00
45.5427 888.00
45.6079 897.00
45.6731 902.00
45.7383 809.00
45.8035 837.00
45.8687 902.00
45.9339 867.00
45.9991 832.00
46.0643 802.00
46.1295 837.00
46.1947 859.00
46.2599 799.00
46.3251 853.00
46.3903 862.00
46.4555 812.00
46.5207 792.00
46.5859 815.00
46.6511 802.00
46.7163 828.00
46.7815 884.00
46.8467 856.00
46.9119 818.00
46.9771 894.00
47.0423 802.00
47.1075 926.00
47.1727 989.00
47.2379 1135.00
47.3031 1321.00
47.3683 1177.00
47.4335 1090.00
47.4986 965.00
47.5639 881.00
47.629 891.00
47.6942 914.00
47.7594 918.00
47.8246 960.00
47.8898 972.00
47.955 951.00
48.0202 1008.00
48.0854 958.00
48.1506 1031.00
48.2158 1055.00
48.281 1196.00
48.3462 1344.00
48.4114 1738.00
48.4766 2698.00
48.5418 3866.00
48.607 3727.00
48.6722 3420.00
48.7374 3486.00
48.8026 4151.00
48.8678 6416.00
48.933 8637.00
48.9982 7346.00
49.0634 5622.00
49.1286 3534.00
49.1938 2011.00
49.259 1555.00
49.3242 1207.00
49.3894 1123.00
49.4546 981.00
49.5198 1015.00
49.585 932.00
49.6502 899.00
49.7154 861.00
49.7806 942.00
49.8458 896.00
49.911 868.00
49.9762 858.00
50.0414 896.00
50.1066 945.00
50.1718 1009.00
50.237 1297.00
50.3022 1686.00
50.3674 1695.00
50.4326 1347.00
50.4978 1347.00
50.563 1091.00
50.6282 998.00
50.6934 927.00
50.7586 854.00
50.8238 826.00
50.889 870.00
50.9542 840.00
51.0194 833.00
51.0846 785.00
51.1498 773.00
51.215 810.00
51.2802 845.00
51.3454 794.00
51.4106 812.00
51.4758 795.00
51.541 840.00
51.6062 882.00
51.6714 940.00
51.7366 1055.00
51.8018 1143.00
51.867 1076.00
51.9322 954.00
51.9974 931.00
52.0626 831.00
52.1278 858.00
52.193 871.00
52.2582 842.00
52.3233 797.00
52.3886 819.00
52.4537 786.00
52.5189 811.00
52.5841 859.00
52.6493 820.00
52.7145 871.00
52.7797 936.00
52.8449 947.00
52.9101 980.00
52.9753 1120.00
53.0405 1149.00
53.1057 1600.00
53.1709 2200.00
53.2361 3178.00
53.3013 3252.00
53.3665 2612.00
53.4317 2436.00
53.4969 2414.00
53.5621 3321.00
53.6273 4369.00
53.6925 3574.00
53.7577 2835.00
53.8229 2190.00
53.8881 1398.00
53.9533 1139.00
54.0185 999.00
54.0837 967.00
54.1489 867.00
54.2141 872.00
54.2793 844.00
54.3445 873.00
54.4097 897.00
54.4749 856.00
54.5401 991.00
54.6053 932.00
54.6705 1015.00
54.7357 1022.00
54.8009 929.00
54.8661 811.00
54.9313 828.00
54.9965 770.00
55.0617 792.00
55.1269 826.00
55.1921 775.00
55.2573 782.00
55.3225 815.00
55.3877 831.00
55.4529 815.00
55.5181 786.00
55.5833 781.00
55.6485 870.00
55.7137 779.00
55.7789 782.00
55.8441 805.00
55.9093 881.00
55.9745 927.00
56.0397 960.00
56.1049 986.00
56.1701 924.00
56.2353 979.00
56.3005 977.00
56.3657 1122.00
56.4309 1172.00
56.4961 1430.00
56.5613 1722.00
56.6265 1693.00
56.6917 1529.00
56.7569 1342.00
56.8221 1083.00
56.8873 998.00
56.9525 976.00
57.0177 1006.00
57.0829 940.00
57.148 988.00
57.2132 916.00
57.2784 860.00
57.3436 869.00
57.4088 804.00
57.474 792.00
57.5392 847.00
57.6044 886.00
57.6696 799.00
57.7348 888.00
57.8 870.00
57.8652 957.00
57.9304 1072.00
57.9956 1059.00
58.0608 1044.00
58.126 1002.00
58.1912 931.00
58.2564 1037.00
58.3216 979.00
58.3868 1052.00
58.452 1071.00
58.5172 1241.00
58.5824 1348.00
58.6476 1497.00
58.7128 1746.00
58.778 2041.00
58.8432 2325.00
58.9084 2947.00
58.9736 4420.00
59.0388 6697.00
59.104 8616.00
59.1692 7074.00
59.2344 5915.00
59.2996 4672.00
59.3648 2717.00
59.43 1812.00
59.4952 1420.00
59.5604 1243.00
59.6256 1139.00
59.6908 1045.00
59.756 1070.00
59.8212 1076.00
59.8864 1248.00
59.9516 1552.00
60.0168 1907.00
60.082 2206.00
60.1472 1890.00
60.2124 1568.00
60.2776 1430.00
60.3428 1059.00
60.408 936.00
60.4732 945.00
60.5384 936.00
60.6036 761.00
60.6688 853.00
60.734 853.00
60.7992 894.00
60.8644 834.00
60.9296 864.00
60.9948 866.00
61.06 829.00
61.1252 907.00
61.1904 961.00
61.2556 1078.00
61.3208 1197.00
61.386 1317.00
61.4512 1258.00
61.5164 1140.00
61.5816 1218.00
61.6468 1250.00
61.712 1374.00
61.7772 1527.00
61.8424 2227.00
61.9076 2952.00
61.9727 2886.00
62.0379 2198.00
62.1031 2138.00
62.1683 1631.00
62.2335 1221.00
62.2987 1032.00
62.3639 993.00
62.4291 994.00
62.4943 999.00
62.5595 1220.00
62.6247 1459.00
62.6899 1613.00
62.7551 1343.00
62.8203 1249.00
62.8855 1234.00
62.9507 1015.00
63.0159 896.00
63.0811 877.00
63.1463 812.00
63.2115 826.00
63.2767 879.00
63.3419 782.00
63.4071 873.00
63.4723 885.00
63.5375 898.00
63.6027 961.00
63.6679 917.00
63.7331 916.00
63.7983 958.00
63.8635 943.00
63.9287 873.00
63.9939 915.00
64.0591 921.00
64.1243 870.00
64.1895 890.00
64.2547 871.00
64.3199 828.00
64.3851 876.00
64.4503 842.00
64.5155 892.00
64.5807 872.00
64.6459 856.00
64.7111 832.00
64.7763 863.00
64.8415 925.00
64.9067 876.00
64.9719 919.00
65.0371 983.00
65.1023 988.00
65.1675 1063.00
65.2327 1028.00
65.2979 1088.00
65.3631 1069.00
65.4283 1047.00
65.4935 1212.00
65.5587 1253.00
65.6239 1413.00
65.6891 1543.00
65.7543 1832.00
65.8195 2290.00
65.8847 3373.00
65.9499 5167.00
66.0151 6057.00
66.0803 4849.00
66.1455 5280.00
66.2107 6122.00
66.2759 6824.00
66.3411 6311.00
66.4063 4998.00
66.4715 4594.00
66.5367 3719.00
66.6019 2430.00
66.6671 1892.00
66.7322 1545.00
66.7974 1425.00
66.8626 1265.00
66.9278 1360.00
66.993 1440.00
67.0582 1659.00
67.1234 2119.00
67.1886 3067.00
67.2538 4253.00
67.319 4554.00
67.3842 3351.00
67.4494 3240.00
67.5146 2755.00
67.5798 1904.00
67.645 1462.00
67.7102 1236.00
67.7754 1110.00
67.8406 984.00
67.9058 961.00
67.971 973.00
68.0362 880.00
68.1014 918.00
68.1666 891.00
68.2318 925.00
68.297 896.00
68.3622 886.00
68.4274 904.00
68.4926 927.00
68.5578 888.00
68.623 971.00
68.6882 971.00
68.7534 1058.00
68.8186 1225.00
68.8838 1642.00
68.949 1792.00
69.0142 1628.00
69.0794 1390.00
69.1446 1359.00
69.2098 1161.00
69.275 1023.00
69.3402 875.00
69.4054 843.00
69.4706 897.00
69.5358 883.00
69.601 898.00
69.6662 913.00
69.7314 959.00
69.7966 982.00
69.8618 1054.00
69.927 1142.00
69.9922 1364.00
70.0574 1588.00
70.1226 2118.00
70.1878 2953.00
70.253 4006.00
70.3182 3803.00
70.3834 2693.00
70.4486 2652.00
70.5138 2314.00
70.579 1581.00
70.6442 1239.00
70.7094 1021.00
70.7746 961.00
70.8398 940.00
70.905 905.00
70.9702 833.00
71.0354 832.00
71.1006 833.00
71.1658 827.00
71.231 949.00
71.2962 981.00
71.3614 1011.00
71.4266 1044.00
71.4918 932.00
71.5569 923.00
71.6221 898.00
71.6873 859.00
71.7525 832.00
71.8177 802.00
71.8829 785.00
71.9481 808.00
72.0133 783.00
72.0785 844.00
72.1437 828.00
72.2089 842.00
72.2741 857.00
72.3393 855.00
72.4045 884.00
72.4697 950.00
72.5349 1055.00
72.6001 1048.00
72.6653 1029.00
72.7305 966.00
72.7957 974.00
72.8609 867.00
72.9261 819.00
72.9913 797.00
73.0565 749.00
73.1217 750.00
73.1869 769.00
73.2521 767.00
73.3173 762.00
73.3825 797.00
73.4477 877.00
73.5129 863.00
73.5781 896.00
73.6433 956.00
73.7085 1119.00
73.7737 1291.00
73.8389 1353.00
73.9041 1636.00
73.9693 2166.00
74.0345 2762.00
74.0997 2788.00
74.1649 2208.00
74.2301 2010.00
74.2953 1939.00
74.3605 1448.00
74.4257 1159.00
74.4909 967.00
74.5561 895.00
74.6213 865.00
74.6865 819.00
74.7517 866.00
74.8169 859.00
74.8821 822.00
74.9473 835.00
75.0125 791.00
75.0777 782.00
75.1429 896.00
75.2081 936.00
75.2733 832.00
75.3385 847.00
75.4037 839.00
75.4689 776.00
75.5341 824.00
75.5993 850.00
75.6645 829.00
75.7297 768.00
75.7949 843.00
75.8601 803.00
75.9253 837.00
75.9905 807.00
76.0557 964.00
76.1209 1010.00
76.186 934.00
76.2513 967.00
76.3165 1000.00
76.3816 965.00
76.4468 1111.00
76.512 1145.00
76.5772 1237.00
76.6424 1101.00
76.7076 1029.00
76.7728 1048.00
76.838 1010.00
76.9032 898.00
76.9684 851.00
77.0336 856.00
77.0988 854.00
77.164 924.00
77.2292 918.00
77.2944 1008.00
77.3596 1242.00
77.4248 1536.00
77.49 2072.00
77.5552 2133.00
77.6204 1827.00
77.6856 1742.00
77.7508 2055.00
77.816 2235.00
77.8812 2204.00
77.9464 1744.00
78.0116 1472.00
78.0768 1514.00
78.142 1371.00
78.2072 1117.00
78.2724 983.00
78.3376 853.00
78.4028 974.00
78.468 1023.00
78.5332 1026.00
78.5984 1170.00
78.6636 1362.00
78.7288 1569.00
78.794 1449.00
78.8592 1260.00
78.9244 1165.00
78.9896 1247.00
79.0548 1020.00
79.12 910.00
79.1852 831.00
79.2504 861.00
79.3156 863.00
79.3808 805.00
79.446 852.00
79.5112 959.00
79.5764 1064.00
79.6416 1129.00
79.7068 1001.00
79.772 1022.00
79.8372 1049.00
79.9024 1027.00
79.9676 1053.00
80.0328 1136.00
80.098 1387.00
80.1632 1721.00
80.2284 2193.00
80.2936 2433.00
80.3588 2078.00
80.424 1717.00
80.4892 1684.00
80.5544 1619.00
80.6196 1262.00
80.6848 1014.00
80.75 893.00
80.8152 864.00
80.8804 811.00
80.9456 719.00
81.0108 710.00
81.076 779.00
81.1412 727.00
81.2063 759.00
81.2715 736.00
81.3367 783.00
81.4019 767.00
81.4671 808.00
81.5323 832.00
81.5975 864.00
81.6627 842.00
81.7279 769.00
81.7931 864.00
81.8583 839.00
81.9235 956.00
81.9887 867.00
82.0539 869.00
82.1191 841.00
82.1843 907.00
82.2495 900.00
82.3147 978.00
82.3799 1034.00
82.4451 1068.00
82.5103 967.00
82.5755 922.00
82.6407 869.00
82.7059 879.00
82.7711 863.00
82.8363 716.00
82.9015 770.00
82.9667 742.00
83.0319 839.00
83.0971 790.00
83.1623 779.00
83.2275 750.00
83.2927 761.00
83.3579 754.00
83.4231 731.00
83.4883 653.00
83.5535 690.00
83.6187 688.00
83.6839 671.00
83.7491 670.00
83.8143 650.00
83.8795 700.00
83.9447 640.00
84.0099 635.00
84.0751 679.00
84.1403 716.00
84.2055 714.00
84.2707 650.00
84.3359 652.00
84.4011 640.00
84.4663 684.00
84.5315 685.00
84.5967 609.00
84.6619 650.00
84.7271 677.00
84.7923 686.00
84.8575 752.00
84.9227 731.00
84.9879 789.00
85.0531 832.00
85.1183 981.00
85.1835 1019.00
85.2487 1006.00
85.3139 948.00
85.3791 967.00
85.4443 927.00
85.5095 858.00
85.5747 778.00
85.6399 772.00
85.7051 729.00
85.7703 721.00
85.8354 667.00
85.9006 673.00
85.9659 669.00
86.031 658.00
86.0962 628.00
86.1614 652.00
86.2266 666.00
86.2918 726.00
86.357 671.00
86.4222 680.00
86.4874 701.00
86.5526 679.00
86.6178 693.00
86.683 675.00
86.7482 698.00
86.8134 695.00
86.8786 664.00
86.9438 653.00
87.009 640.00
87.0742 638.00
87.1394 673.00
87.2046 675.00
87.2698 636.00
87.335 642.00
87.4002 634.00
87.4654 611.00
87.5306 687.00
87.5958 688.00
87.661 672.00
87.7262 691.00
87.7914 662.00
87.8566 686.00
87.9218 704.00
87.987 695.00
88.0522 656.00
88.1174 644.00
88.1826 715.00
88.2478 738.00
88.313 681.00
88.3782 687.00
88.4434 743.00
88.5086 750.00
88.5738 898.00
88.639 977.00
88.7042 1208.00
88.7694 1392.00
88.8346 1620.00
88.8998 1497.00
88.965 1277.00
89.0302 1159.00
89.0954 1211.00
89.1606 1114.00
89.2258 973.00
89.291 935.00
89.3562 770.00
89.4214 768.00
89.4866 752.00
89.5518 786.00
89.617 870.00
89.6822 982.00
89.7474 1216.00
89.8126 1522.00
89.8778 1413.00
89.943 1144.00
90.0082 1142.00
90.0734 1113.00
90.1386 1068.00
90.2038 918.00
90.269 872.00
90.3342 752.00
90.3994 688.00
90.4646 654.00
90.5298 700.00
90.595 708.00
90.6601 705.00
90.7253 690.00
90.7905 698.00
90.8557 740.00
90.9209 747.00
90.9861 777.00
91.0513 819.00
91.1165 827.00
91.1817 854.00
91.2469 890.00
91.3121 852.00
91.3773 820.00
91.4425 837.00
91.5077 746.00
91.5729 722.00
91.6381 769.00
91.7033 737.00
91.7685 705.00
91.8337 717.00
91.8989 738.00
91.9641 707.00
92.0293 722.00
92.0945 779.00
92.1597 767.00
92.2249 818.00
92.2901 894.00
92.3553 1089.00
92.4205 1315.00
92.4857 1712.00
92.5509 1760.00
92.6161 1484.00
92.6813 1218.00
92.7465 1291.00
92.8117 1372.00
92.8769 1290.00
92.9421 1014.00
93.0073 870.00
93.0725 850.00
93.1377 883.00
93.2029 943.00
93.2681 984.00
93.3333 1124.00
93.3985 1166.00
93.4637 1144.00
93.5289 1032.00
93.5941 1040.00
93.6593 971.00
93.7245 965.00
93.7897 885.00
93.8549 840.00
93.9201 752.00
93.9853 689.00
94.0505 712.00
94.1157 713.00
94.1809 707.00
94.2461 711.00
94.3113 720.00
94.3765 743.00
94.4417 766.00
94.5069 814.00
94.5721 733.00
94.6373 779.00
94.7025 760.00
94.7677 730.00
94.8329 764.00
94.8981 708.00
94.9633 744.00
95.0285 659.00
95.0937 705.00
95.1589 718.00
95.2241 734.00
95.2893 707.00
95.3545 720.00
95.4197 727.00
95.4848 745.00
95.55 765.00
95.6153 809.00
95.6804 951.00
95.7456 1010.00
95.8108 1179.00
95.876 1253.00
95.9412 1143.00
96.0064 954.00
96.0716 1062.00
96.1368 979.00
96.202 974.00
96.2672 924.00
96.3324 854.00
96.3976 760.00
96.4628 819.00
96.528 809.00
96.5932 795.00
96.6584 838.00
96.7236 825.00
96.7888 895.00
96.854 860.00
96.9192 977.00
96.9844 1098.00
97.0496 1243.00
97.1148 1344.00
97.18 1319.00
97.2452 1110.00
97.3104 1002.00
97.3756 1034.00
97.4408 1071.00
97.506 1012.00
97.5712 829.00
97.6364 774.00
97.7016 742.00
97.7668 731.00
97.832 704.00
97.8972 704.00
97.9624 722.00
98.0276 668.00
98.0928 691.00
98.158 715.00
98.2232 710.00
98.2884 723.00
98.3536 726.00
98.4188 700.00
98.484 757.00
98.5492 720.00
98.6144 709.00
98.6796 719.00
98.7448 792.00
98.81 772.00
98.8752 835.00
98.9404 883.00
99.0056 887.00
99.0708 1037.00
99.136 961.00
99.2012 1067.00
99.2664 1136.00
99.3316 1378.00
99.3968 1702.00
99.462 2067.00
99.5272 2218.00
99.5924 2154.00
99.6576 1837.00
99.7228 2052.00
99.788 2213.00
99.8532 2332.00
99.9184 2095.00
99.9836 1662.00
99.9944 1655.00