File: data/xrd_creation/results/PG_1938-1.xy
9.903433 3780.00
9.968632 3802.00
10.0338 3943.00
10.099 3904.00
10.1642 3943.00
10.2294 3986.00
10.2946 3941.00
10.3598 4038.00
10.425 3985.00
10.4902 4138.00
10.5554 3894.00
10.6206 3970.00
10.6858 3903.00
10.751 3857.00
10.8162 3882.00
10.8814 3946.00
10.9466 3921.00
11.0118 3918.00
11.077 4098.00
11.1422 3849.00
11.2074 3717.00
11.2726 3593.00
11.3378 3353.00
11.403 3237.00
11.4682 3093.00
11.5334 3070.00
11.5986 2960.00
11.6638 3006.00
11.729 2953.00
11.7942 2991.00
11.8594 2903.00
11.9246 2947.00
11.9898 3031.00
12.055 2871.00
12.1202 2823.00
12.1854 2905.00
12.2506 2743.00
12.3158 2906.00
12.381 2808.00
12.4462 2864.00
12.5114 2825.00
12.5766 2842.00
12.6418 2797.00
12.707 2722.00
12.7722 2700.00
12.8374 2706.00
12.9026 2696.00
12.9678 2776.00
13.033 2611.00
13.0982 2466.00
13.1634 2477.00
13.2286 2506.00
13.2938 2483.00
13.359 2502.00
13.4242 2479.00
13.4894 2466.00
13.5546 2471.00
13.6198 2446.00
13.685 2441.00
13.7502 2429.00
13.8154 2305.00
13.8805 2404.00
13.9457 2400.00
14.0109 2344.00
14.0761 2408.00
14.1413 2366.00
14.2065 2306.00
14.2717 2340.00
14.3369 2401.00
14.4021 2298.00
14.4673 2310.00
14.5325 2331.00
14.5977 2318.00
14.6629 2323.00
14.7281 2305.00
14.7933 2279.00
14.8585 2195.00
14.9237 2230.00
14.9889 2219.00
15.0541 2242.00
15.1193 2215.00
15.1845 2197.00
15.2497 2279.00
15.3149 2241.00
15.3801 2270.00
15.4453 2242.00
15.5105 2297.00
15.5757 2220.00
15.6409 2246.00
15.7061 2171.00
15.7713 2217.00
15.8365 2254.00
15.9017 2317.00
15.9669 2316.00
16.0321 2209.00
16.0973 2240.00
16.1625 2239.00
16.2277 2317.00
16.2929 2223.00
16.3581 2298.00
16.4233 2198.00
16.4885 2219.00
16.5537 2239.00
16.6189 2179.00
16.6841 2145.00
16.7493 2152.00
16.8145 2181.00
16.8797 2173.00
16.9449 2149.00
17.0101 1957.00
17.0753 2113.00
17.1405 2060.00
17.2057 2160.00
17.2709 2210.00
17.3361 2123.00
17.4013 2196.00
17.4665 2183.00
17.5317 2248.00
17.5969 2112.00
17.6621 2174.00
17.7273 2182.00
17.7925 2200.00
17.8577 2206.00
17.9229 2087.00
17.9881 2113.00
18.0533 2074.00
18.1185 1983.00
18.1837 2105.00
18.2489 1994.00
18.3141 2047.00
18.3793 2110.00
18.4445 2024.00
18.5097 2057.00
18.5749 2061.00
18.6401 2033.00
18.7052 1958.00
18.7704 2036.00
18.8356 2130.00
18.9008 1979.00
18.966 1958.00
19.0312 1982.00
19.0964 1917.00
19.1616 1980.00
19.2268 1990.00
19.292 1977.00
19.3572 1935.00
19.4224 2042.00
19.4876 2039.00
19.5528 2014.00
19.618 2006.00
19.6832 2028.00
19.7484 1980.00
19.8136 1948.00
19.8788 2024.00
19.944 1966.00
20.0092 1982.00
20.0744 1983.00
20.1396 1992.00
20.2048 2000.00
20.27 2060.00
20.3352 2037.00
20.4004 1949.00
20.4656 2009.00
20.5308 2017.00
20.596 2057.00
20.6612 2051.00
20.7264 2040.00
20.7916 1976.00
20.8568 2042.00
20.922 1984.00
20.9872 1987.00
21.0524 1984.00
21.1176 2115.00
21.1828 2061.00
21.248 1965.00
21.3132 1977.00
21.3784 2001.00
21.4436 2038.00
21.5088 1980.00
21.574 2082.00
21.6392 1955.00
21.7044 1978.00
21.7696 2071.00
21.8348 2057.00
21.9 1920.00
21.9652 2055.00
22.0304 2030.00
22.0956 1972.00
22.1608 2083.00
22.226 2207.00
22.2912 2212.00
22.3564 2268.00
22.4216 2405.00
22.4868 2789.00
22.552 3026.00
22.6172 3099.00
22.6824 2929.00
22.7476 2820.00
22.8128 2956.00
22.878 3271.00
22.9432 4318.00
23.0084 6166.00
23.0736 8372.00
23.1388 6728.00
23.204 3575.00
23.2692 2510.00
23.3344 2351.00
23.3996 2321.00
23.4647 2278.00
23.5299 2124.00
23.5951 2184.00
23.6603 2155.00
23.7255 2331.00
23.7907 2328.00
23.8559 2420.00
23.9211 2292.00
23.9863 2270.00
24.0515 2169.00
24.1167 2286.00
24.1819 2203.00
24.2471 2203.00
24.3123 2069.00
24.3775 2152.00
24.4427 2207.00
24.5079 2202.00
24.5731 2390.00
24.6383 2464.00
24.7035 2516.00
24.7687 2506.00
24.8339 2274.00
24.8991 2171.00
24.9643 2220.00
25.0295 2263.00
25.0947 2154.00
25.1599 2226.00
25.2251 2357.00
25.2903 2328.00
25.3555 2362.00
25.4207 2319.00
25.4859 2415.00
25.5511 2353.00
25.6163 2475.00
25.6815 2522.00
25.7467 2375.00
25.8119 2397.00
25.8771 2312.00
25.9423 2374.00
26.0075 2400.00
26.0727 2314.00
26.1379 2355.00
26.2031 2303.00
26.2683 2240.00
26.3335 2262.00
26.3987 2202.00
26.4639 2230.00
26.5291 2255.00
26.5943 2388.00
26.6595 2363.00
26.7247 2379.00
26.7899 2300.00
26.8551 2371.00
26.9203 2323.00
26.9855 2459.00
27.0507 2458.00
27.1159 2482.00
27.1811 2547.00
27.2463 2605.00
27.3115 2578.00
27.3767 2608.00
27.4419 2671.00
27.5071 2633.00
27.5723 2722.00
27.6375 2542.00
27.7027 2573.00
27.7679 2620.00
27.8331 2764.00
27.8983 2896.00
27.9635 3077.00
28.0287 3103.00
28.0939 3044.00
28.1591 2970.00
28.2243 3061.00
28.2894 2989.00
28.3546 3199.00
28.4198 3216.00
28.485 3409.00
28.5502 3526.00
28.6154 3923.00
28.6806 4981.00
28.7458 6737.00
28.811 8330.00
28.8762 7492.00
28.9414 5389.00
29.0066 4145.00
29.0718 3666.00
29.137 3642.00
29.2022 3664.00
29.2674 3754.00
29.3326 4255.00
29.3978 4788.00
29.463 4658.00
29.5282 3788.00
29.5934 3169.00
29.6586 2847.00
29.7238 2765.00
29.789 2759.00
29.8542 2665.00
29.9194 2688.00
29.9846 2654.00
30.0498 2696.00
30.115 2655.00
30.1802 2718.00
30.2454 2670.00
30.3106 2778.00
30.3758 2976.00
30.441 3152.00
30.5062 3617.00
30.5714 3864.00
30.6366 3328.00
30.7018 3003.00
30.767 2948.00
30.8322 3034.00
30.8974 2795.00
30.9626 2870.00
31.0278 2806.00
31.093 2898.00
31.1582 2969.00
31.2234 2982.00
31.2886 2873.00
31.3538 2727.00
31.419 2624.00
31.4842 2712.00
31.5494 2809.00
31.6146 3197.00
31.6798 3485.00
31.745 3993.00
31.8102 4156.00
31.8754 4784.00
31.9406 5376.00
32.0058 5712.00
32.071 4927.00
32.1362 3879.00
32.2014 2978.00
32.2666 2619.00
32.3318 2344.00
32.397 2334.00
32.4622 2188.00
32.5274 2272.00
32.5926 2167.00
32.6578 2134.00
32.723 2070.00
32.7882 2090.00
32.8534 2000.00
32.9186 1969.00
32.9838 1966.00
33.0489 1933.00
33.1141 2003.00
33.1793 2128.00
33.2445 2052.00
33.3097 1989.00
33.3749 1979.00
33.4401 1923.00
33.5053 1947.00
33.5705 1911.00
33.6357 1947.00
33.7009 1912.00
33.7661 1862.00
33.8313 1912.00
33.8965 1839.00
33.9617 1820.00
34.0269 1873.00
34.0921 1892.00
34.1573 2001.00
34.2225 1939.00
34.2877 1932.00
34.3529 2012.00
34.4181 1910.00
34.4833 1941.00
34.5485 2101.00
34.6137 2005.00
34.6789 2001.00
34.7441 1976.00
34.8093 1968.00
34.8745 1971.00
34.9397 2067.00
35.0049 2020.00
35.0701 1908.00
35.1353 1864.00
35.2005 1855.00
35.2657 1759.00
35.3309 1774.00
35.3961 1815.00
35.4613 1818.00
35.5265 1941.00
35.5917 1839.00
35.6569 1879.00
35.7221 1934.00
35.7873 2096.00
35.8525 2067.00
35.9177 2133.00
35.9829 2171.00
36.0481 2253.00
36.1133 2194.00
36.1785 2125.00
36.2437 2053.00
36.3089 1976.00
36.3741 1965.00
36.4393 2017.00
36.5045 2035.00
36.5697 2058.00
36.6349 2083.00
36.7001 2000.00
36.7653 2181.00
36.8305 2334.00
36.8957 2840.00
36.9609 3870.00
37.0261 4111.00
37.0913 3537.00
37.1565 2764.00
37.2217 2285.00
37.2869 2252.00
37.3521 2160.00
37.4173 2496.00
37.4825 2737.00
37.5477 2569.00
37.6129 2169.00
37.6781 1939.00
37.7433 1757.00
37.8085 1825.00
37.8736 1868.00
37.9388 1835.00
38.004 1905.00
38.0692 1822.00
38.1344 1842.00
38.1996 1897.00
38.2648 1951.00
38.33 1917.00
38.3952 2030.00
38.4604 1737.00
38.5256 1845.00
38.5908 1758.00
38.656 1774.00
38.7212 1697.00
38.7864 1719.00
38.8516 1772.00
38.9168 1719.00
38.982 1696.00
39.0472 1653.00
39.1124 1698.00
39.1776 1786.00
39.2428 1780.00
39.308 1926.00
39.3732 1830.00
39.4384 1803.00
39.5036 1711.00
39.5688 1740.00
39.634 1761.00
39.6992 2025.00
39.7644 1827.00
39.8296 1691.00
39.8948 1585.00
39.96 1676.00
40.0252 1638.00
40.0904 1679.00
40.1556 1616.00
40.2208 1607.00
40.286 1652.00
40.3512 1620.00
40.4164 1577.00
40.4816 1639.00
40.5468 1590.00
40.612 1648.00
40.6772 1681.00
40.7424 1745.00
40.8076 1610.00
40.8728 1701.00
40.938 1772.00
41.0032 1812.00
41.0684 1998.00
41.1336 1968.00
41.1988 1849.00
41.264 1723.00
41.3292 1694.00
41.3944 1715.00
41.4596 1643.00
41.5248 1643.00
41.59 1656.00
41.6552 1583.00
41.7204 1640.00
41.7856 1659.00
41.8508 1578.00
41.916 1639.00
41.9812 1585.00
42.0464 1520.00
42.1116 1670.00
42.1768 1663.00
42.242 1550.00
42.3072 1647.00
42.3724 1743.00
42.4376 1678.00
42.5028 1739.00
42.568 1565.00
42.6332 1662.00
42.6983 1774.00
42.7635 1741.00
42.8287 1824.00
42.8939 1683.00
42.9591 1772.00
43.0243 1851.00
43.0895 1851.00
43.1547 1877.00
43.2199 1870.00
43.2851 1770.00
43.3503 1669.00
43.4155 1758.00
43.4807 1660.00
43.5459 1644.00
43.6111 1633.00
43.6763 1688.00
43.7415 1637.00
43.8067 1679.00
43.8719 1768.00
43.9371 1632.00
44.0023 1652.00
44.0675 1638.00
44.1327 1714.00
44.1979 1683.00
44.2631 1724.00
44.3283 1717.00
44.3935 1753.00
44.4587 1772.00
44.5239 1763.00
44.5891 1837.00
44.6543 1758.00
44.7195 1771.00
44.7847 1832.00
44.8499 1779.00
44.9151 1929.00
44.9803 2001.00
45.0455 1892.00
45.1107 1834.00
45.1759 1942.00
45.2411 2041.00
45.3063 2035.00
45.3715 2402.00
45.4367 2733.00
45.5019 2830.00
45.5671 2725.00
45.6323 2539.00
45.6975 2252.00
45.7627 2180.00
45.8279 2076.00
45.8931 1991.00
45.9583 1969.00
46.0235 1903.00
46.0887 1876.00
46.1539 1881.00
46.2191 1840.00
46.2843 1792.00
46.3495 1839.00
46.4147 2081.00
46.4799 2325.00
46.5451 3038.00
46.6103 3298.00
46.6755 2818.00
46.7407 2506.00
46.8059 2124.00
46.8711 2004.00
46.9363 1857.00
47.0015 1855.00
47.0667 1759.00
47.1319 1698.00
47.1971 1625.00
47.2623 1674.00
47.3275 1638.00
47.3927 1694.00
47.4579 1694.00
47.523 1604.00
47.5882 1651.00
47.6534 1688.00
47.7186 1651.00
47.7838 1733.00
47.849 1770.00
47.9142 1681.00
47.9794 1742.00
48.0446 1687.00
48.1098 1768.00
48.175 1679.00
48.2402 1651.00
48.3054 1706.00
48.3706 1627.00
48.4358 1728.00
48.501 1643.00
48.5662 1656.00
48.6314 1664.00
48.6966 1628.00
48.7618 1686.00
48.827 1663.00
48.8922 1716.00
48.9574 1674.00
49.0226 1717.00
49.0878 1707.00
49.153 1740.00
49.2182 1673.00
49.2834 1790.00
49.3486 1708.00
49.4138 1799.00
49.479 1674.00
49.5442 1772.00
49.6094 1729.00
49.6746 1902.00
49.7398 1824.00
49.805 1859.00
49.8702 1979.00
49.9354 1887.00
50.0006 1915.00
50.0658 2013.00
50.131 2317.00
50.1962 2512.00
50.2614 2513.00
50.3266 2307.00
50.3918 2136.00
50.457 1949.00
50.5222 1930.00
50.5874 1886.00
50.6526 1819.00
50.7178 1765.00
50.783 1797.00
50.8482 1782.00
50.9134 1875.00
50.9786 1974.00
51.0438 2130.00
51.109 2221.00
51.1742 2400.00
51.2394 2598.00
51.3046 2794.00
51.3698 3054.00
51.435 2859.00
51.5002 2536.00
51.5654 2304.00
51.6306 2103.00
51.6958 1926.00
51.761 1787.00
51.8262 1782.00
51.8914 1673.00
51.9566 1773.00
52.0218 1713.00
52.087 1754.00
52.1522 1700.00
52.2174 1768.00
52.2826 1688.00
52.3477 1665.00
52.4129 1681.00
52.4781 1813.00
52.5433 1880.00
52.6085 1723.00
52.6737 1756.00
52.7389 1777.00
52.8041 1719.00
52.8693 1706.00
52.9345 1684.00
52.9997 1702.00
53.0649 1666.00
53.1301 1659.00
53.1953 1638.00
53.2605 1655.00
53.3257 1591.00
53.3909 1597.00
53.4561 1662.00
53.5213 1490.00
53.5865 1649.00
53.6517 1609.00
53.7169 1577.00
53.7821 1630.00
53.8473 1600.00
53.9125 1595.00
53.9777 1527.00
54.0429 1576.00
54.1081 1603.00
54.1733 1622.00
54.2385 1601.00
54.3037 1685.00
54.3689 1564.00
54.4341 1576.00
54.4993 1604.00
54.5645 1615.00
54.6297 1570.00
54.6949 1643.00
54.7601 1608.00
54.8253 1668.00
54.8905 1611.00
54.9557 1725.00
55.0209 1640.00
55.0861 1776.00
55.1513 1763.00
55.2165 1887.00
55.2817 1823.00
55.3469 2144.00
55.4121 2644.00
55.4773 2717.00
55.5425 2483.00
55.6077 2618.00
55.6729 2513.00
55.7381 2592.00
55.8033 2663.00
55.8685 2550.00
55.9337 2269.00
55.9989 2100.00
56.0641 1911.00
56.1293 1965.00
56.1945 1914.00
56.2597 1980.00
56.3249 2095.00
56.3901 2270.00
56.4553 2471.00
56.5205 2492.00
56.5857 2403.00
56.6509 2404.00
56.7161 2545.00
56.7813 2573.00
56.8465 2570.00
56.9117 2310.00
56.9769 2105.00
57.042 2001.00
57.1073 1816.00
57.1724 1745.00
57.2376 1713.00
57.3028 1700.00
57.368 1663.00
57.4332 1724.00
57.4984 1657.00
57.5636 1707.00
57.6288 1633.00
57.694 1688.00
57.7592 1651.00
57.8244 1681.00
57.8896 1747.00
57.9548 1711.00
58.02 1722.00
58.0852 1740.00
58.1504 1742.00
58.2156 1675.00
58.2808 1673.00
58.346 1585.00
58.4112 1619.00
58.4764 1633.00
58.5416 1708.00
58.6068 1681.00
58.672 1762.00
58.7372 1667.00
58.8024 1700.00
58.8676 1865.00
58.9328 1872.00
58.998 2023.00
59.0632 2015.00
59.1284 1928.00
59.1936 1962.00
59.2588 1833.00
59.324 1785.00
59.3892 1765.00
59.4544 1614.00
59.5196 1671.00
59.5848 1713.00
59.65 1645.00
59.7152 1638.00
59.7804 1616.00
59.8456 1598.00
59.9108 1698.00
59.976 1637.00
60.0412 1688.00
60.1064 1663.00
60.1716 1603.00
60.2368 1629.00
60.302 1680.00
60.3672 1683.00
60.4324 1701.00
60.4976 1665.00
60.5628 1611.00
60.628 1657.00
60.6932 1653.00
60.7584 1617.00
60.8236 1637.00
60.8888 1621.00
60.954 1571.00
61.0192 1678.00
61.0844 1613.00
61.1496 1674.00
61.2148 1710.00
61.28 1635.00
61.3452 1649.00
61.4104 1650.00
61.4756 1699.00
61.5408 1609.00
61.606 1649.00
61.6712 1592.00
61.7364 1604.00
61.8016 1678.00
61.8667 1671.00
61.932 1615.00
61.9971 1620.00
62.0623 1576.00
62.1275 1550.00
62.1927 1597.00
62.2579 1590.00
62.3231 1570.00
62.3883 1581.00
62.4535 1579.00
62.5187 1588.00
62.5839 1608.00
62.6491 1615.00
62.7143 1638.00
62.7795 1543.00
62.8447 1590.00
62.9099 1525.00
62.9751 1538.00
63.0403 1468.00
63.1055 1562.00
63.1707 1468.00
63.2359 1481.00
63.3011 1539.00
63.3663 1573.00
63.4315 1575.00
63.4967 1562.00
63.5619 1583.00
63.6271 1602.00
63.6923 1629.00
63.7575 1654.00
63.8227 1610.00
63.8879 1780.00
63.9531 1849.00
64.0183 1906.00
64.0835 1832.00
64.1487 1793.00
64.2139 1728.00
64.2791 1749.00
64.3443 1627.00
64.4095 1610.00
64.4747 1590.00
64.5399 1567.00
64.6051 1591.00
64.6703 1512.00
64.7355 1459.00
64.8007 1564.00
64.8659 1531.00
64.9311 1514.00
64.9963 1467.00
65.0615 1455.00
65.1267 1485.00
65.1919 1480.00
65.2571 1523.00
65.3223 1539.00
65.3875 1525.00
65.4527 1559.00
65.5179 1500.00
65.5831 1620.00
65.6483 1554.00
65.7135 1605.00
65.7787 1557.00
65.8439 1627.00
65.9091 1630.00
65.9743 1687.00
66.0395 1744.00
66.1047 1789.00
66.1699 1773.00
66.2351 1832.00
66.3003 1846.00
66.3655 1847.00
66.4307 1675.00
66.4959 1677.00
66.561 1579.00
66.6263 1589.00
66.6915 1516.00
66.7566 1540.00
66.8218 1548.00
66.887 1468.00
66.9522 1551.00
67.0174 1508.00
67.0826 1449.00
67.1478 1472.00
67.213 1489.00
67.2782 1465.00
67.3434 1516.00
67.4086 1445.00
67.4738 1567.00
67.539 1557.00
67.6042 1481.00
67.6694 1497.00
67.7346 1457.00
67.7998 1519.00
67.865 1433.00
67.9302 1453.00
67.9954 1509.00
68.0606 1566.00
68.1258 1483.00
68.191 1488.00
68.2562 1564.00
68.3214 1413.00
68.3866 1371.00
68.4518 1472.00
68.517 1573.00
68.5822 1534.00
68.6474 1432.00
68.7126 1456.00
68.7778 1368.00
68.843 1414.00
68.9082 1323.00
68.9734 1455.00
69.0386 1509.00
69.1038 1415.00
69.169 1526.00
69.2342 1499.00
69.2994 1386.00
69.3646 1459.00
69.4298 1390.00
69.495 1394.00
69.5602 1414.00
69.6254 1364.00
69.6906 1367.00
69.7558 1455.00
69.821 1388.00
69.8862 1395.00
69.9514 1376.00
70.0166 1399.00
70.0818 1423.00
70.147 1363.00
70.2122 1521.00
70.2774 1402.00
70.3426 1477.00
70.4078 1409.00
70.473 1593.00
70.5382 1683.00
70.6034 1804.00
70.6686 1652.00
70.7338 1742.00
70.799 1699.00
70.8642 1635.00
70.9294 1572.00
70.9946 1521.00
71.0598 1495.00
71.125 1458.00
71.1902 1507.00
71.2554 1485.00
71.3205 1522.00
71.3858 1619.00
71.451 1663.00
71.5162 1839.00
71.5813 1740.00
71.6465 1740.00
71.7117 1577.00
71.7769 1488.00
71.8421 1475.00
71.9073 1484.00
71.9725 1449.00
72.0377 1446.00
72.1029 1379.00
72.1681 1371.00
72.2333 1437.00
72.2985 1494.00
72.3637 1526.00
72.4289 1416.00
72.4941 1428.00
72.5593 1442.00
72.6245 1308.00
72.6897 1385.00
72.7549 1408.00
72.8201 1432.00
72.8853 1362.00
72.9505 1311.00
73.0157 1369.00
73.0809 1466.00
73.1461 1396.00
73.2113 1369.00
73.2765 1376.00
73.3417 1317.00
73.4069 1389.00
73.4721 1323.00
73.5373 1389.00
73.6025 1275.00
73.6677 1406.00
73.7329 1411.00
73.7981 1455.00
73.8633 1321.00
73.9285 1337.00
73.9937 1279.00
74.0589 1294.00
74.1241 1381.00
74.1893 1360.00
74.2545 1330.00
74.3197 1349.00
74.3849 1316.00
74.4501 1368.00
74.5153 1413.00
74.5805 1401.00
74.6457 1326.00
74.7109 1391.00
74.7761 1482.00
74.8413 1537.00
74.9065 1507.00
74.9717 1575.00
75.0369 1526.00
75.1021 1474.00
75.1673 1543.00
75.2325 1515.00
75.2977 1504.00
75.3629 1475.00
75.4281 1489.00
75.4933 1479.00
75.5585 1484.00
75.6237 1422.00
75.6889 1499.00
75.7541 1480.00
75.8193 1530.00
75.8845 1428.00
75.9497 1391.00
76.0149 1360.00
76.0801 1382.00
76.1452 1361.00
76.2104 1326.00
76.2756 1363.00
76.3409 1398.00
76.406 1310.00
76.4712 1331.00
76.5364 1392.00
76.6016 1384.00
76.6668 1394.00
76.732 1359.00
76.7972 1447.00
76.8624 1433.00
76.9276 1379.00
76.9928 1381.00
77.058 1353.00
77.1232 1373.00
77.1884 1433.00
77.2536 1372.00
77.3188 1412.00
77.384 1323.00
77.4492 1394.00
77.5144 1287.00
77.5796 1352.00
77.6448 1390.00
77.71 1365.00
77.7752 1455.00
77.8404 1468.00
77.9056 1422.00
77.9708 1462.00
78.036 1534.00
78.1012 1580.00
78.1664 1501.00
78.2316 1528.00
78.2968 1374.00
78.362 1394.00
78.4272 1400.00
78.4924 1381.00
78.5576 1436.00
78.6228 1411.00
78.688 1398.00
78.7532 1290.00
78.8184 1462.00
78.8836 1395.00
78.9488 1383.00
79.014 1379.00
79.0792 1389.00
79.1444 1525.00
79.2096 1479.00
79.2748 1451.00
79.34 1485.00
79.4052 1468.00
79.4704 1501.00
79.5356 1427.00
79.6008 1421.00
79.666 1396.00
79.7312 1492.00
79.7964 1391.00
79.8616 1421.00
79.9268 1348.00
79.992 1325.00
80.0572 1334.00
80.1224 1411.00
80.1876 1372.00
80.2528 1323.00
80.318 1401.00
80.3832 1403.00
80.4484 1410.00
80.5136 1454.00
80.5788 1386.00
80.644 1494.00
80.7092 1408.00
80.7744 1392.00
80.8396 1351.00
80.9048 1367.00
80.9699 1361.00
81.0351 1413.00
81.1003 1403.00
81.1655 1378.00
81.2307 1333.00
81.2959 1354.00
81.3611 1334.00
81.4263 1367.00
81.4915 1315.00
81.5567 1310.00
81.6219 1331.00
81.6871 1378.00
81.7523 1413.00
81.8175 1321.00
81.8827 1317.00
81.9479 1403.00
82.0131 1365.00
82.0783 1349.00
82.1435 1394.00
82.2087 1438.00
82.2739 1351.00
82.3391 1371.00
82.4043 1371.00
82.4695 1351.00
82.5347 1307.00
82.5999 1345.00
82.6651 1354.00
82.7303 1356.00
82.7955 1325.00
82.8607 1379.00
82.9259 1377.00
82.9911 1272.00
83.0563 1326.00
83.1215 1282.00
83.1867 1378.00
83.2519 1312.00
83.3171 1353.00
83.3823 1312.00
83.4475 1375.00
83.5127 1257.00
83.5779 1366.00
83.6431 1391.00
83.7083 1481.00
83.7735 1431.00
83.8387 1368.00
83.9039 1359.00
83.9691 1368.00
84.0343 1371.00
84.0995 1360.00
84.1647 1323.00
84.2299 1306.00
84.2951 1270.00
84.3603 1323.00
84.4255 1394.00
84.4907 1338.00
84.5559 1373.00
84.6211 1283.00
84.6863 1322.00
84.7515 1351.00
84.8167 1328.00
84.8819 1453.00
84.9471 1437.00
85.0123 1374.00
85.0775 1358.00
85.1427 1394.00
85.2079 1365.00
85.2731 1367.00
85.3383 1390.00
85.4035 1384.00
85.4687 1300.00
85.5339 1272.00
85.5991 1354.00
85.6643 1316.00
85.7295 1317.00
85.7946 1344.00
85.8598 1331.00
85.925 1292.00
85.9903 1258.00
86.0554 1275.00
86.1206 1289.00
86.1858 1304.00
86.251 1311.00
86.3162 1277.00
86.3814 1356.00
86.4466 1322.00
86.5118 1338.00
86.577 1312.00
86.6422 1250.00
86.7074 1379.00
86.7726 1344.00
86.8378 1327.00
86.903 1263.00
86.9682 1272.00
87.0334 1308.00
87.0986 1317.00
87.1638 1455.00
87.229 1365.00
87.2942 1260.00
87.3594 1325.00
87.4246 1299.00
87.4898 1361.00
87.555 1349.00
87.6202 1293.00
87.6854 1333.00
87.7506 1326.00
87.8158 1344.00
87.881 1271.00
87.9462 1365.00
88.0114 1337.00
88.0766 1363.00
88.1418 1251.00
88.207 1270.00
88.2722 1316.00
88.3374 1263.00
88.4026 1295.00
88.4678 1299.00
88.533 1410.00
88.5982 1359.00
88.6634 1301.00
88.7286 1302.00
88.7938 1329.00
88.859 1354.00
88.9242 1386.00
88.9894 1265.00
89.0546 1309.00
89.1198 1307.00
89.185 1323.00
89.2502 1309.00
89.3154 1338.00
89.3806 1293.00
89.4458 1288.00
89.511 1314.00
89.5762 1334.00
89.6414 1319.00
89.7066 1381.00
89.7718 1382.00
89.837 1303.00
89.9022 1302.00
89.9674 1272.00
90.0326 1327.00
90.0978 1358.00
90.163 1258.00
90.2282 1294.00
90.2934 1273.00
90.3586 1367.00
90.4238 1295.00
90.489 1259.00
90.5542 1437.00
90.6193 1295.00
90.6845 1263.00
90.7497 1345.00
90.8149 1378.00
90.8801 1335.00
90.9453 1390.00
91.0105 1340.00
91.0757 1323.00
91.1409 1279.00
91.2061 1347.00
91.2713 1266.00
91.3365 1363.00
91.4017 1326.00
91.4669 1301.00
91.5321 1333.00
91.5973 1386.00
91.6625 1308.00
91.7277 1432.00
91.7929 1366.00
91.8581 1394.00
91.9233 1495.00
91.9885 1434.00
92.0537 1435.00
92.1189 1478.00
92.1841 1530.00
92.2493 1441.00
92.3145 1457.00
92.3797 1407.00
92.4449 1416.00
92.5101 1328.00
92.5753 1401.00
92.6405 1350.00
92.7057 1353.00
92.7709 1411.00
92.8361 1420.00
92.9013 1392.00
92.9665 1286.00
93.0317 1368.00
93.0969 1359.00
93.1621 1321.00
93.2273 1330.00
93.2925 1305.00
93.3577 1371.00
93.4229 1369.00
93.4881 1367.00
93.5533 1297.00
93.6185 1325.00
93.6837 1344.00
93.7489 1352.00
93.8141 1253.00
93.8793 1338.00
93.9445 1381.00
94.0097 1252.00
94.0749 1297.00
94.1401 1285.00
94.2053 1258.00
94.2705 1355.00
94.3357 1339.00
94.4009 1327.00
94.4661 1332.00
94.5313 1222.00
94.5965 1356.00
94.6617 1371.00
94.7269 1394.00
94.7921 1401.00
94.8573 1333.00
94.9225 1229.00
94.9877 1301.00
95.0529 1360.00
95.1181 1318.00
95.1833 1336.00
95.2485 1319.00
95.3137 1229.00
95.3789 1283.00
95.444 1299.00
95.5092 1316.00
95.5744 1319.00
95.6396 1297.00
95.7048 1346.00
95.77 1335.00
95.8352 1365.00
95.9004 1232.00
95.9656 1279.00
96.0308 1285.00
96.096 1310.00
96.1612 1242.00
96.2264 1311.00
96.2916 1345.00
96.3568 1254.00
96.422 1310.00
96.4872 1300.00
96.5524 1247.00
96.6176 1283.00
96.6828 1228.00
96.748 1278.00
96.8132 1330.00
96.8784 1315.00
96.9436 1264.00
97.0088 1291.00
97.074 1322.00
97.1392 1317.00
97.2044 1289.00
97.2696 1243.00
97.3348 1274.00
97.4 1241.00
97.4652 1210.00
97.5304 1261.00
97.5956 1208.00
97.6608 1261.00
97.726 1286.00
97.7912 1342.00
97.8564 1241.00
97.9216 1391.00
97.9868 1374.00
98.052 1314.00
98.1172 1368.00
98.1824 1282.00
98.2476 1319.00
98.3128 1274.00
98.378 1358.00
98.4432 1376.00
98.5084 1297.00
98.5736 1337.00
98.6388 1237.00
98.704 1384.00
98.7692 1240.00
98.8344 1321.00
98.8996 1266.00
98.9648 1313.00
99.03 1286.00
99.0952 1388.00
99.1604 1249.00
99.2256 1425.00
99.2908 1296.00
99.356 1372.00
99.4212 1307.00
99.4864 1344.00
99.5516 1341.00
99.6168 1440.00
99.682 1371.00
99.7472 1396.00
99.8124 1333.00
99.8776 1388.00
99.9428 1407.00
100.008 1412.00
100.073 1306.00
100.095 1340.00