File: data/xrd_creation/results/PG_1318-1.xy
10.0094 2234.00
10.0746 2277.00
10.1398 2267.00
10.205 2308.00
10.2702 2209.00
10.3354 2204.00
10.4006 2231.00
10.4658 2185.00
10.531 2155.00
10.5962 2204.00
10.6614 2126.00
10.7266 2142.00
10.7918 2196.00
10.857 2090.00
10.9222 2066.00
10.9874 2017.00
11.0526 2034.00
11.1178 2009.00
11.183 2037.00
11.2482 2072.00
11.3134 2078.00
11.3786 2004.00
11.4438 1955.00
11.509 1946.00
11.5742 1975.00
11.6394 1848.00
11.7046 1901.00
11.7698 1825.00
11.835 1982.00
11.9002 1896.00
11.9654 1886.00
12.0306 1812.00
12.0958 1815.00
12.161 1777.00
12.2262 1806.00
12.2914 1912.00
12.3566 1808.00
12.4218 1794.00
12.487 1758.00
12.5522 1785.00
12.6174 1780.00
12.6826 1674.00
12.7478 1754.00
12.813 1756.00
12.8782 1719.00
12.9434 1663.00
13.0086 1645.00
13.0738 1652.00
13.139 1632.00
13.2042 1769.00
13.2694 1670.00
13.3346 1616.00
13.3998 1527.00
13.465 1587.00
13.5302 1648.00
13.5954 1658.00
13.6606 1606.00
13.7258 1608.00
13.791 1633.00
13.8562 1550.00
13.9214 1558.00
13.9865 1566.00
14.0517 1497.00
14.1169 1536.00
14.1821 1484.00
14.2473 1554.00
14.3125 1494.00
14.3777 1527.00
14.4429 1515.00
14.5081 1532.00
14.5733 1539.00
14.6385 1548.00
14.7037 1615.00
14.7689 1596.00
14.8341 1503.00
14.8993 1560.00
14.9645 1523.00
15.0297 1557.00
15.0949 1508.00
15.1601 1436.00
15.2253 1538.00
15.2905 1473.00
15.3557 1518.00
15.4209 1413.00
15.4861 1489.00
15.5513 1456.00
15.6165 1431.00
15.6817 1421.00
15.7469 1454.00
15.8121 1452.00
15.8773 1468.00
15.9425 1475.00
16.0077 1432.00
16.0729 1432.00
16.1381 1405.00
16.2033 1391.00
16.2685 1430.00
16.3337 1385.00
16.3989 1463.00
16.4641 1396.00
16.5293 1430.00
16.5945 1340.00
16.6597 1461.00
16.7249 1352.00
16.7901 1335.00
16.8553 1411.00
16.9205 1390.00
16.9857 1377.00
17.0509 1342.00
17.1161 1408.00
17.1813 1388.00
17.2465 1417.00
17.3117 1320.00
17.3769 1416.00
17.4421 1384.00
17.5073 1291.00
17.5725 1420.00
17.6377 1278.00
17.7029 1395.00
17.7681 1337.00
17.8333 1383.00
17.8985 1374.00
17.9637 1371.00
18.0289 1312.00
18.0941 1268.00
18.1593 1294.00
18.2245 1362.00
18.2897 1332.00
18.3549 1329.00
18.4201 1343.00
18.4853 1352.00
18.5505 1247.00
18.6157 1239.00
18.6809 1303.00
18.7461 1307.00
18.8112 1390.00
18.8764 1360.00
18.9416 1267.00
19.0068 1330.00
19.072 1348.00
19.1372 1275.00
19.2024 1247.00
19.2676 1263.00
19.3328 1227.00
19.398 1278.00
19.4632 1233.00
19.5284 1282.00
19.5936 1261.00
19.6588 1197.00
19.724 1272.00
19.7892 1233.00
19.8544 1195.00
19.9196 1222.00
19.9848 1218.00
20.05 1225.00
20.1152 1271.00
20.1804 1161.00
20.2456 1214.00
20.3108 1141.00
20.376 1145.00
20.4412 1161.00
20.5064 1162.00
20.5716 1160.00
20.6368 1243.00
20.702 1173.00
20.7672 1174.00
20.8324 1193.00
20.8976 1211.00
20.9628 1249.00
21.028 1186.00
21.0932 1143.00
21.1584 1122.00
21.2236 1210.00
21.2888 1228.00
21.354 1269.00
21.4192 1238.00
21.4844 1363.00
21.5496 1367.00
21.6148 1350.00
21.68 1450.00
21.7452 1373.00
21.8104 1301.00
21.8756 1304.00
21.9408 1282.00
22.006 1162.00
22.0712 1102.00
22.1364 1208.00
22.2016 1147.00
22.2668 1220.00
22.332 1178.00
22.3972 1104.00
22.4624 1145.00
22.5276 1188.00
22.5928 1130.00
22.658 1214.00
22.7232 1092.00
22.7884 1051.00
22.8536 1113.00
22.9188 1179.00
22.984 1103.00
23.0492 1103.00
23.1144 1070.00
23.1796 1121.00
23.2448 1133.00
23.31 1114.00
23.3752 1102.00
23.4404 1136.00
23.5056 1070.00
23.5708 1089.00
23.6359 1091.00
23.7011 1028.00
23.7663 1034.00
23.8315 1109.00
23.8967 1125.00
23.9619 1072.00
24.0271 1140.00
24.0923 1150.00
24.1575 1202.00
24.2227 1230.00
24.2879 1171.00
24.3531 1150.00
24.4183 1188.00
24.4835 1140.00
24.5487 1119.00
24.6139 1071.00
24.6791 1097.00
24.7443 1016.00
24.8095 1066.00
24.8747 1010.00
24.9399 1069.00
25.0051 1015.00
25.0703 1010.00
25.1355 1048.00
25.2007 988.00
25.2659 1021.00
25.3311 1024.00
25.3963 1041.00
25.4615 1043.00
25.5267 1013.00
25.5919 994.00
25.6571 1109.00
25.7223 1073.00
25.7875 943.00
25.8527 1030.00
25.9179 1017.00
25.9831 982.00
26.0483 1023.00
26.1135 993.00
26.1787 1003.00
26.2439 1035.00
26.3091 1023.00
26.3743 981.00
26.4395 1004.00
26.5047 978.00
26.5699 1049.00
26.6351 1035.00
26.7003 984.00
26.7655 1043.00
26.8307 1012.00
26.8959 987.00
26.9611 965.00
27.0263 951.00
27.0915 999.00
27.1567 1033.00
27.2219 940.00
27.2871 990.00
27.3523 1014.00
27.4175 950.00
27.4827 968.00
27.5479 1006.00
27.6131 977.00
27.6783 1008.00
27.7435 1007.00
27.8087 979.00
27.8739 1014.00
27.9391 935.00
28.0043 958.00
28.0695 992.00
28.1347 1021.00
28.1999 930.00
28.2651 912.00
28.3303 952.00
28.3955 989.00
28.4606 948.00
28.5258 948.00
28.591 963.00
28.6562 932.00
28.7214 966.00
28.7866 959.00
28.8518 971.00
28.917 968.00
28.9822 977.00
29.0474 958.00
29.1126 947.00
29.1778 929.00
29.243 937.00
29.3082 912.00
29.3734 927.00
29.4386 914.00
29.5038 971.00
29.569 973.00
29.6342 924.00
29.6994 945.00
29.7646 966.00
29.8298 1071.00
29.895 947.00
29.9602 975.00
30.0254 1028.00
30.0906 933.00
30.1558 1014.00
30.221 1034.00
30.2862 1044.00
30.3514 1113.00
30.4166 1369.00
30.4818 1685.00
30.547 2114.00
30.6122 2793.00
30.6774 3338.00
30.7426 3621.00
30.8078 3852.00
30.873 3865.00
30.9382 3320.00
31.0034 2238.00
31.0686 1503.00
31.1338 1189.00
31.199 1102.00
31.2642 976.00
31.3294 936.00
31.3946 940.00
31.4598 946.00
31.525 1054.00
31.5902 949.00
31.6554 948.00
31.7206 918.00
31.7858 924.00
31.851 886.00
31.9162 890.00
31.9814 910.00
32.0466 887.00
32.1118 982.00
32.177 880.00
32.2422 935.00
32.3074 961.00
32.3726 860.00
32.4378 952.00
32.503 976.00
32.5682 981.00
32.6334 918.00
32.6986 923.00
32.7638 942.00
32.829 936.00
32.8942 1029.00
32.9594 1079.00
33.0246 1240.00
33.0898 1361.00
33.1549 1426.00
33.2201 1598.00
33.2853 1602.00
33.3505 1507.00
33.4157 1424.00
33.4809 1132.00
33.5461 978.00
33.6113 924.00
33.6765 955.00
33.7417 944.00
33.8069 940.00
33.8721 900.00
33.9373 953.00
34.0025 923.00
34.0677 905.00
34.1329 913.00
34.1981 899.00
34.2633 952.00
34.3285 906.00
34.3937 816.00
34.4589 880.00
34.5241 885.00
34.5893 861.00
34.6545 888.00
34.7197 913.00
34.7849 898.00
34.8501 851.00
34.9153 895.00
34.9805 940.00
35.0457 940.00
35.1109 959.00
35.1761 933.00
35.2413 918.00
35.3065 1067.00
35.3717 1341.00
35.4369 1432.00
35.5021 1865.00
35.5673 2178.00
35.6325 2213.00
35.6977 2308.00
35.7629 2331.00
35.8281 1908.00
35.8933 1483.00
35.9585 1089.00
36.0237 1016.00
36.0889 875.00
36.1541 873.00
36.2193 864.00
36.2845 835.00
36.3497 867.00
36.4149 880.00
36.4801 875.00
36.5453 859.00
36.6105 906.00
36.6757 902.00
36.7409 852.00
36.8061 847.00
36.8713 834.00
36.9365 910.00
37.0017 887.00
37.0669 839.00
37.1321 855.00
37.1973 840.00
37.2625 889.00
37.3277 795.00
37.3929 882.00
37.4581 865.00
37.5233 867.00
37.5885 853.00
37.6537 911.00
37.7189 972.00
37.7841 1028.00
37.8493 1025.00
37.9145 1041.00
37.9796 1090.00
38.0448 1085.00
38.11 911.00
38.1752 882.00
38.2404 858.00
38.3056 838.00
38.3708 879.00
38.436 849.00
38.5012 820.00
38.5664 881.00
38.6316 880.00
38.6968 823.00
38.762 880.00
38.8272 899.00
38.8924 816.00
38.9576 853.00
39.0228 853.00
39.088 864.00
39.1532 820.00
39.2184 858.00
39.2836 806.00
39.3488 917.00
39.414 882.00
39.4792 869.00
39.5444 880.00
39.6096 865.00
39.6748 834.00
39.74 879.00
39.8052 864.00
39.8704 862.00
39.9356 820.00
40.0008 858.00
40.066 931.00
40.1312 876.00
40.1964 866.00
40.2616 814.00
40.3268 850.00
40.392 859.00
40.4572 878.00
40.5224 840.00
40.5876 862.00
40.6528 860.00
40.718 939.00
40.7832 947.00
40.8484 976.00
40.9136 956.00
40.9788 1043.00
41.044 953.00
41.1092 914.00
41.1744 891.00
41.2396 863.00
41.3048 844.00
41.37 837.00
41.4352 862.00
41.5004 862.00
41.5656 877.00
41.6308 830.00
41.696 882.00
41.7612 891.00
41.8264 893.00
41.8916 997.00
41.9568 961.00
42.022 1008.00
42.0872 1040.00
42.1524 1024.00
42.2176 988.00
42.2828 924.00
42.348 895.00
42.4132 827.00
42.4784 868.00
42.5436 813.00
42.6088 840.00
42.6739 817.00
42.7392 852.00
42.8043 813.00
42.8695 795.00
42.9347 783.00
42.9999 814.00
43.0651 834.00
43.1303 838.00
43.1955 824.00
43.2607 834.00
43.3259 827.00
43.3911 798.00
43.4563 819.00
43.5215 861.00
43.5867 816.00
43.6519 869.00
43.7171 875.00
43.7823 878.00
43.8475 830.00
43.9127 858.00
43.9779 835.00
44.0431 843.00
44.1083 856.00
44.1735 865.00
44.2387 947.00
44.3039 831.00
44.3691 827.00
44.4343 820.00
44.4995 861.00
44.5647 794.00
44.6299 865.00
44.6951 806.00
44.7603 796.00
44.8255 845.00
44.8907 820.00
44.9559 869.00
45.0211 810.00
45.0863 863.00
45.1515 842.00
45.2167 872.00
45.2819 834.00
45.3471 836.00
45.4123 911.00
45.4775 902.00
45.5427 873.00
45.6079 946.00
45.6731 959.00
45.7383 1068.00
45.8035 1144.00
45.8687 1173.00
45.9339 1206.00
45.9991 1211.00
46.0643 1064.00
46.1295 978.00
46.1947 880.00
46.2599 901.00
46.3251 857.00
46.3903 833.00
46.4555 856.00
46.5207 854.00
46.5859 835.00
46.6511 832.00
46.7163 870.00
46.7815 838.00
46.8467 835.00
46.9119 911.00
46.9771 877.00
47.0423 814.00
47.1075 853.00
47.1727 830.00
47.2379 872.00
47.3031 864.00
47.3683 867.00
47.4335 860.00
47.4986 850.00
47.5639 828.00
47.629 860.00
47.6942 820.00
47.7594 851.00
47.8246 813.00
47.8898 846.00
47.955 812.00
48.0202 857.00
48.0854 852.00
48.1506 856.00
48.2158 837.00
48.281 873.00
48.3462 844.00
48.4114 865.00
48.4766 803.00
48.5418 871.00
48.607 872.00
48.6722 865.00
48.7374 753.00
48.8026 834.00
48.8678 849.00
48.933 855.00
48.9982 911.00
49.0634 901.00
49.1286 937.00
49.1938 990.00
49.259 1084.00
49.3242 1191.00
49.3894 1270.00
49.4546 1307.00
49.5198 1279.00
49.585 1215.00
49.6502 1080.00
49.7154 984.00
49.7806 921.00
49.8458 914.00
49.911 895.00
49.9762 869.00
50.0414 855.00
50.1066 890.00
50.1718 869.00
50.237 869.00
50.3022 919.00
50.3674 892.00
50.4326 879.00
50.4978 886.00
50.563 873.00
50.6282 923.00
50.6934 868.00
50.7586 962.00
50.8238 1036.00
50.889 1016.00
50.9542 1240.00
51.0194 1555.00
51.0846 1910.00
51.1498 2226.00
51.215 2545.00
51.2802 2618.00
51.3454 2393.00
51.4106 1844.00
51.4758 1451.00
51.541 1132.00
51.6062 1016.00
51.6714 994.00
51.7366 966.00
51.8018 866.00
51.867 942.00
51.9322 909.00
51.9974 892.00
52.0626 927.00
52.1278 867.00
52.193 875.00
52.2582 811.00
52.3233 856.00
52.3886 867.00
52.4537 849.00
52.5189 904.00
52.5841 868.00
52.6493 953.00
52.7145 950.00
52.7797 988.00
52.8449 1008.00
52.9101 1038.00
52.9753 991.00
53.0405 977.00
53.1057 929.00
53.1709 885.00
53.2361 937.00
53.3013 884.00
53.3665 912.00
53.4317 836.00
53.4969 889.00
53.5621 830.00
53.6273 919.00
53.6925 917.00
53.7577 968.00
53.8229 1004.00
53.8881 1065.00
53.9533 1153.00
54.0185 1233.00
54.0837 1310.00
54.1489 1298.00
54.2141 1179.00
54.2793 1036.00
54.3445 1025.00
54.4097 969.00
54.4749 879.00
54.5401 930.00
54.6053 970.00
54.6705 864.00
54.7357 840.00
54.8009 866.00
54.8661 938.00
54.9313 855.00
54.9965 863.00
55.0617 856.00
55.1269 869.00
55.1921 861.00
55.2573 893.00
55.3225 904.00
55.3877 901.00
55.4529 902.00
55.5181 848.00
55.5833 885.00
55.6485 867.00
55.7137 936.00
55.7789 960.00
55.8441 896.00
55.9093 955.00
55.9745 1010.00
56.0397 1110.00
56.1049 1120.00
56.1701 1112.00
56.2353 1098.00
56.3005 1106.00
56.3657 996.00
56.4309 980.00
56.4961 898.00
56.5613 915.00
56.6265 884.00
56.6917 900.00
56.7569 931.00
56.8221 949.00
56.8873 884.00
56.9525 909.00
57.0177 895.00
57.0829 904.00
57.148 923.00
57.2132 905.00
57.2784 892.00
57.3436 908.00
57.4088 906.00
57.474 961.00
57.5392 1038.00
57.6044 1031.00
57.6696 972.00
57.7348 987.00
57.8 1010.00
57.8652 995.00
57.9304 899.00
57.9956 914.00
58.0608 914.00
58.126 910.00
58.1912 891.00
58.2564 919.00
58.3216 890.00
58.3868 914.00
58.452 917.00
58.5172 954.00
58.5824 868.00
58.6476 932.00
58.7128 900.00
58.778 870.00
58.8432 910.00
58.9084 955.00
58.9736 954.00
59.0388 937.00
59.104 1046.00
59.1692 1051.00
59.2344 1104.00
59.2996 1132.00
59.3648 1168.00
59.43 1168.00
59.4952 1067.00
59.5604 1025.00
59.6256 962.00
59.6908 973.00
59.756 1007.00
59.8212 958.00
59.8864 901.00
59.9516 977.00
60.0168 922.00
60.082 928.00
60.1472 955.00
60.2124 965.00
60.2776 934.00
60.3428 932.00
60.408 1003.00
60.4732 940.00
60.5384 1018.00
60.6036 1213.00
60.6688 1512.00
60.734 1831.00
60.7992 2054.00
60.8644 2220.00
60.9296 2262.00
60.9948 2059.00
61.06 1678.00
61.1252 1431.00
61.1904 1272.00
61.2556 1070.00
61.3208 1030.00
61.386 939.00
61.4512 973.00
61.5164 975.00
61.5816 976.00
61.6468 970.00
61.712 1007.00
61.7772 1004.00
61.8424 892.00
61.9076 941.00
61.9727 998.00
62.0379 1097.00
62.1031 1146.00
62.1683 1298.00
62.2335 1412.00
62.2987 1451.00
62.3639 1526.00
62.4291 1574.00
62.4943 1391.00
62.5595 1271.00
62.6247 1185.00
62.6899 1071.00
62.7551 1022.00
62.8203 929.00
62.8855 988.00
62.9507 977.00
63.0159 941.00
63.0811 947.00
63.1463 945.00
63.2115 926.00
63.2767 937.00
63.3419 943.00
63.4071 949.00
63.4723 927.00
63.5375 1051.00
63.6027 1004.00
63.6679 1233.00
63.7331 1193.00
63.7983 1505.00
63.8635 1514.00
63.9287 1566.00
63.9939 1341.00
64.0591 1239.00
64.1243 1126.00
64.1895 1120.00
64.2547 1009.00
64.3199 946.00
64.3851 948.00
64.4503 970.00
64.5155 941.00
64.5807 922.00
64.6459 906.00
64.7111 913.00
64.7763 974.00
64.8415 902.00
64.9067 926.00
64.9719 924.00
65.0371 1009.00
65.1023 946.00
65.1675 970.00
65.2327 979.00
65.2979 1049.00
65.3631 1084.00
65.4283 1042.00
65.4935 1013.00
65.5587 1008.00
65.6239 937.00
65.6891 940.00
65.7543 949.00
65.8195 947.00
65.8847 952.00
65.9499 918.00
66.0151 932.00
66.0803 921.00
66.1455 946.00
66.2107 977.00
66.2759 935.00
66.3411 951.00
66.4063 961.00
66.4715 995.00
66.5367 964.00
66.6019 993.00
66.6671 995.00
66.7322 1015.00
66.7974 957.00
66.8626 1027.00
66.9278 989.00
66.993 1007.00
67.0582 1022.00
67.1234 972.00
67.1886 906.00
67.2538 936.00
67.319 962.00
67.3842 952.00
67.4494 994.00
67.5146 945.00
67.5798 935.00
67.645 899.00
67.7102 976.00
67.7754 984.00
67.8406 1020.00
67.9058 893.00
67.971 1014.00
68.0362 1042.00
68.1014 1031.00
68.1666 1117.00
68.2318 1119.00
68.297 1084.00
68.3622 1146.00
68.4274 1037.00
68.4926 1042.00
68.5578 1008.00
68.623 962.00
68.6882 962.00
68.7534 890.00
68.8186 943.00
68.8838 949.00
68.949 913.00
69.0142 991.00
69.0794 943.00
69.1446 962.00
69.2098 992.00
69.275 992.00
69.3402 967.00
69.4054 1016.00
69.4706 1011.00
69.5358 1086.00
69.601 1146.00
69.6662 1047.00
69.7314 1099.00
69.7966 1030.00
69.8618 1041.00
69.927 992.00
69.9922 966.00
70.0574 967.00
70.1226 1016.00
70.1878 974.00
70.253 916.00
70.3182 1016.00
70.3834 968.00
70.4486 984.00
70.5138 986.00
70.579 981.00
70.6442 939.00
70.7094 1010.00
70.7746 981.00
70.8398 993.00
70.905 1007.00
70.9702 1014.00
71.0354 954.00
71.1006 939.00
71.1658 999.00
71.231 937.00
71.2962 952.00
71.3614 986.00
71.4266 975.00
71.4918 968.00
71.5569 925.00
71.6221 990.00
71.6873 1033.00
71.7525 1018.00
71.8177 1004.00
71.8829 1114.00
71.9481 1106.00
72.0133 1061.00
72.0785 1086.00
72.1437 989.00
72.2089 1052.00
72.2741 996.00
72.3393 1013.00
72.4045 968.00
72.4697 965.00
72.5349 987.00
72.6001 992.00
72.6653 976.00
72.7305 964.00
72.7957 989.00
72.8609 976.00
72.9261 974.00
72.9913 935.00
73.0565 955.00
73.1217 917.00
73.1869 993.00
73.2521 959.00
73.3173 1001.00
73.3825 981.00
73.4477 976.00
73.5129 1026.00
73.5781 944.00
73.6433 1000.00
73.7085 1023.00
73.7737 1064.00
73.8389 1130.00
73.9041 1081.00
73.9693 1073.00
74.0345 1092.00
74.0997 1054.00
74.1649 1001.00
74.2301 956.00
74.2953 1017.00
74.3605 1016.00
74.4257 933.00
74.4909 1067.00
74.5561 1032.00
74.6213 983.00
74.6865 1061.00
74.7517 1037.00
74.8169 964.00
74.8821 929.00
74.9473 1064.00
75.0125 1118.00
75.0777 1189.00
75.1429 1218.00
75.2081 1301.00
75.2733 1287.00
75.3385 1335.00
75.4037 1185.00
75.4689 1185.00
75.5341 1126.00
75.5993 1080.00
75.6645 972.00
75.7297 1016.00
75.7949 1052.00
75.8601 1034.00
75.9253 999.00
75.9905 954.00
76.0557 1015.00
76.1209 977.00
76.186 1050.00
76.2513 1040.00
76.3165 1070.00
76.3816 1038.00
76.4468 1042.00
76.512 1200.00
76.5772 1202.00
76.6424 1194.00
76.7076 1200.00
76.7728 1135.00
76.838 1055.00
76.9032 1086.00
76.9684 1064.00
77.0336 1023.00
77.0988 1077.00
77.164 983.00
77.2292 1030.00
77.2944 1026.00
77.3596 1029.00
77.4248 1050.00
77.49 1083.00
77.5552 978.00
77.6204 1055.00
77.6856 1050.00
77.7508 1005.00
77.816 1065.00
77.8812 1138.00
77.9464 1139.00
78.0116 1083.00
78.0768 1133.00
78.142 1121.00
78.2072 1108.00
78.2724 1063.00
78.3376 1037.00
78.4028 1022.00
78.468 1040.00
78.5332 1044.00
78.5984 1023.00
78.6636 1001.00
78.7288 1020.00
78.794 1001.00
78.8592 1054.00
78.9244 1059.00
78.9896 1056.00
79.0548 1063.00
79.12 1111.00
79.1852 1104.00
79.2504 1084.00
79.3156 1092.00
79.3808 1098.00
79.446 1080.00
79.5112 1025.00
79.5764 1101.00
79.6416 1077.00
79.7068 1007.00
79.772 1045.00
79.8372 1000.00
79.9024 998.00
79.9676 1023.00
80.0328 1075.00
80.098 1054.00
80.1632 1014.00
80.2284 1059.00
80.2936 1053.00
80.3588 1126.00
80.424 1075.00
80.4892 1099.00
80.5544 1086.00
80.6196 1170.00
80.6848 1096.00
80.75 1106.00
80.8152 1122.00
80.8804 1078.00
80.9456 1092.00
81.0108 1050.00
81.076 1012.00
81.1412 1049.00
81.2063 1063.00
81.2715 1018.00
81.3367 1053.00
81.4019 1096.00
81.4671 1009.00
81.5323 1052.00
81.5975 1113.00
81.6627 1124.00
81.7279 1055.00
81.7931 1118.00
81.8583 1090.00
81.9235 1159.00
81.9887 1232.00
82.0539 1206.00
82.1191 1249.00
82.1843 1127.00
82.2495 1104.00
82.3147 1140.00
82.3799 1123.00
82.4451 1170.00
82.5103 1010.00
82.5755 1094.00
82.6407 1131.00
82.7059 1072.00
82.7711 1110.00
82.8363 1124.00
82.9015 1114.00
82.9667 1075.00
83.0319 1180.00
83.0971 1171.00
83.1623 1280.00
83.2275 1385.00
83.2927 1412.00
83.3579 1437.00
83.4231 1432.00
83.4883 1329.00
83.5535 1278.00
83.6187 1272.00
83.6839 1210.00
83.7491 1115.00
83.8143 1113.00
83.8795 1078.00
83.9447 1036.00
84.0099 1086.00
84.0751 1078.00
84.1403 1091.00
84.2055 1047.00
84.2707 1098.00
84.3359 1072.00
84.4011 1073.00
84.4663 1096.00
84.5315 1147.00
84.5967 1164.00
84.6619 1114.00
84.7271 1142.00
84.7923 1175.00
84.8575 1159.00
84.9227 1115.00
84.9879 1088.00
85.0531 1110.00
85.1183 1134.00
85.1835 1053.00
85.2487 1122.00
85.3139 1073.00
85.3791 1125.00
85.4443 1069.00
85.5095 1016.00
85.5747 1107.00
85.6399 1107.00
85.7051 1105.00
85.7703 1167.00
85.8354 1271.00
85.9006 1250.00
85.9659 1332.00
86.031 1324.00
86.0962 1319.00
86.1614 1228.00
86.2266 1270.00
86.2918 1166.00
86.357 1179.00
86.4222 1135.00
86.4874 1086.00
86.5526 1115.00
86.6178 1060.00
86.683 1132.00
86.7482 1110.00
86.8134 1042.00
86.8786 1032.00
86.9438 1103.00
87.009 1116.00
87.0742 1093.00
87.1394 1129.00
87.2046 1181.00
87.2698 1164.00
87.335 1102.00
87.4002 1167.00
87.4654 1053.00
87.5306 1146.00
87.5958 1128.00
87.661 1126.00
87.7262 1116.00
87.7914 1086.00
87.8566 1137.00
87.9218 1066.00
87.987 1122.00
88.0522 1166.00
88.1174 1136.00
88.1826 1191.00
88.2478 1154.00
88.313 1158.00
88.3782 1202.00
88.4434 1181.00
88.5086 1230.00
88.5738 1126.00
88.639 1228.00
88.7042 1210.00
88.7694 1158.00
88.8346 1053.00
88.8998 1170.00
88.965 1167.00
89.0302 1166.00
89.0954 1091.00
89.1606 1079.00
89.2258 1092.00
89.291 1069.00
89.3562 1095.00
89.4214 1098.00
89.4866 1048.00
89.5518 1096.00
89.617 1139.00
89.6822 1052.00
89.7474 1175.00
89.8126 1148.00
89.8778 1226.00
89.943 1226.00
90.0082 1201.00
90.0734 1224.00
90.1386 1189.00
90.2038 1182.00
90.269 1180.00
90.3342 1109.00
90.3994 1177.00
90.4646 1092.00
90.5298 1147.00
90.595 1100.00
90.6601 1096.00
90.7253 1045.00
90.7905 1121.00
90.8557 1093.00
90.9209 1063.00
90.9861 1082.00
91.0513 1134.00
91.1165 1143.00
91.1817 1080.00
91.2469 1066.00
91.3121 1089.00
91.3773 1159.00
91.4425 1126.00
91.5077 1051.00
91.5729 1111.00
91.6381 1051.00
91.7033 1102.00
91.7685 1112.00
91.8337 1107.00
91.8989 1124.00
91.9641 1077.00
92.0293 1148.00
92.0945 1169.00
92.1597 1116.00
92.2249 1140.00
92.2901 1139.00
92.3553 1192.00
92.4205 1221.00
92.4857 1135.00
92.5509 1233.00
92.6161 1248.00
92.6813 1231.00
92.7465 1200.00
92.8117 1161.00
92.8769 1234.00
92.9421 1250.00
93.0073 1191.00
93.0725 1179.00
93.1377 1172.00
93.2029 1222.00
93.2681 1140.00
93.3333 1199.00
93.3985 1203.00
93.4637 1128.00
93.5289 1251.00
93.5941 1250.00
93.6593 1145.00
93.7245 1181.00
93.7897 1197.00
93.8549 1182.00
93.9201 1143.00
93.9853 1136.00
94.0505 1191.00
94.1157 1138.00
94.1809 1110.00
94.2461 1137.00
94.3113 1164.00
94.3765 1134.00
94.4417 1128.00
94.5069 1135.00
94.5721 1135.00
94.6373 1125.00
94.7025 1165.00
94.7677 1139.00
94.8329 1175.00
94.8981 1125.00
94.9633 1157.00
95.0285 1112.00
95.0937 1204.00
95.1589 1239.00
95.2241 1272.00
95.2893 1305.00
95.3545 1277.00
95.4197 1226.00
95.4848 1255.00
95.55 1281.00
95.6153 1246.00
95.6804 1226.00
95.7456 1203.00
95.8108 1173.00
95.876 1168.00
95.9412 1184.00
96.0064 1143.00
96.0716 1130.00
96.1368 1144.00
96.202 1149.00
96.2672 1155.00
96.3324 1191.00
96.3976 1183.00
96.4628 1274.00
96.528 1339.00
96.5932 1370.00
96.6584 1530.00
96.7236 1361.00
96.7888 1304.00
96.854 1301.00
96.9192 1325.00
96.9844 1281.00
97.0496 1262.00
97.1148 1179.00
97.18 1177.00
97.2452 1183.00
97.3104 1140.00
97.3756 1221.00
97.4408 1161.00
97.506 1154.00
97.5712 1142.00
97.6364 1168.00
97.7016 1230.00
97.7668 1250.00
97.832 1286.00
97.8972 1297.00
97.9624 1310.00
98.0276 1280.00
98.0928 1293.00
98.158 1251.00
98.2232 1250.00
98.2884 1248.00
98.3536 1268.00
98.4188 1136.00
98.484 1200.00
98.5492 1184.00
98.6144 1231.00
98.6796 1147.00
98.7448 1185.00
98.81 1165.00
98.8752 1172.00
98.9404 1150.00
99.0056 1190.00
99.0708 1229.00
99.136 1225.00
99.2012 1275.00
99.2664 1213.00
99.3316 1215.00
99.3968 1246.00
99.462 1293.00
99.5272 1197.00
99.5924 1232.00
99.6576 1133.00
99.7228 1248.00
99.788 1163.00
99.8532 1194.00
99.9184 1157.00
99.9836 1119.00
99.9944 1145.00