File: data/xrd_creation/results/PG_1940-1.xy
9.903433 2511.00
9.968632 2459.00
10.0338 2467.00
10.099 2453.00
10.1642 2399.00
10.2294 2291.00
10.2946 2344.00
10.3598 2391.00
10.425 2285.00
10.4902 2288.00
10.5554 2308.00
10.6206 2309.00
10.6858 2272.00
10.751 2163.00
10.8162 2215.00
10.8814 2191.00
10.9466 2184.00
11.0118 2157.00
11.077 2187.00
11.1422 2108.00
11.2074 2032.00
11.2726 2050.00
11.3378 2026.00
11.403 2057.00
11.4682 2017.00
11.5334 1977.00
11.5986 2060.00
11.6638 2004.00
11.729 1989.00
11.7942 1900.00
11.8594 1950.00
11.9246 1859.00
11.9898 1861.00
12.055 1826.00
12.1202 1887.00
12.1854 1766.00
12.2506 1827.00
12.3158 1808.00
12.381 1808.00
12.4462 1889.00
12.5114 1862.00
12.5766 1811.00
12.6418 1798.00
12.707 1819.00
12.7722 1797.00
12.8374 1730.00
12.9026 1797.00
12.9678 1812.00
13.033 1708.00
13.0982 1726.00
13.1634 1613.00
13.2286 1649.00
13.2938 1635.00
13.359 1613.00
13.4242 1676.00
13.4894 1589.00
13.5546 1600.00
13.6198 1597.00
13.685 1646.00
13.7502 1599.00
13.8154 1582.00
13.8805 1606.00
13.9457 1657.00
14.0109 1740.00
14.0761 1616.00
14.1413 1784.00
14.2065 1868.00
14.2717 1926.00
14.3369 1913.00
14.4021 2040.00
14.4673 2064.00
14.5325 1870.00
14.5977 1572.00
14.6629 1480.00
14.7281 1518.00
14.7933 1417.00
14.8585 1415.00
14.9237 1445.00
14.9889 1400.00
15.0541 1405.00
15.1193 1415.00
15.1845 1401.00
15.2497 1380.00
15.3149 1399.00
15.3801 1397.00
15.4453 1338.00
15.5105 1373.00
15.5757 1431.00
15.6409 1333.00
15.7061 1335.00
15.7713 1401.00
15.8365 1377.00
15.9017 1430.00
15.9669 1333.00
16.0321 1327.00
16.0973 1312.00
16.1625 1357.00
16.2277 1254.00
16.2929 1365.00
16.3581 1294.00
16.4233 1301.00
16.4885 1320.00
16.5537 1341.00
16.6189 1292.00
16.6841 1301.00
16.7493 1276.00
16.8145 1314.00
16.8797 1309.00
16.9449 1203.00
17.0101 1322.00
17.0753 1301.00
17.1405 1270.00
17.2057 1200.00
17.2709 1262.00
17.3361 1240.00
17.4013 1214.00
17.4665 1247.00
17.5317 1267.00
17.5969 1227.00
17.6621 1214.00
17.7273 1180.00
17.7925 1192.00
17.8577 1213.00
17.9229 1228.00
17.9881 1171.00
18.0533 1212.00
18.1185 1236.00
18.1837 1162.00
18.2489 1165.00
18.3141 1128.00
18.3793 1211.00
18.4445 1185.00
18.5097 1215.00
18.5749 1167.00
18.6401 1169.00
18.7052 1182.00
18.7704 1177.00
18.8356 1090.00
18.9008 1116.00
18.966 1181.00
19.0312 1156.00
19.0964 1247.00
19.1616 1288.00
19.2268 1202.00
19.292 1226.00
19.3572 1270.00
19.4224 1304.00
19.4876 1159.00
19.5528 1163.00
19.618 1127.00
19.6832 1112.00
19.7484 1120.00
19.8136 1051.00
19.8788 1049.00
19.944 1072.00
20.0092 1104.00
20.0744 1156.00
20.1396 1159.00
20.2048 1190.00
20.27 1223.00
20.3352 1236.00
20.4004 1307.00
20.4656 1237.00
20.5308 1184.00
20.596 1055.00
20.6612 1024.00
20.7264 1013.00
20.7916 978.00
20.8568 989.00
20.922 983.00
20.9872 983.00
21.0524 1071.00
21.1176 1007.00
21.1828 988.00
21.248 976.00
21.3132 945.00
21.3784 1026.00
21.4436 983.00
21.5088 1003.00
21.574 1036.00
21.6392 967.00
21.7044 953.00
21.7696 931.00
21.8348 988.00
21.9 935.00
21.9652 968.00
22.0304 940.00
22.0956 911.00
22.1608 909.00
22.226 971.00
22.2912 975.00
22.3564 935.00
22.4216 1018.00
22.4868 911.00
22.552 878.00
22.6172 901.00
22.6824 906.00
22.7476 944.00
22.8128 936.00
22.878 975.00
22.9432 969.00
23.0084 899.00
23.0736 931.00
23.1388 898.00
23.204 943.00
23.2692 970.00
23.3344 952.00
23.3996 935.00
23.4647 1001.00
23.5299 916.00
23.5951 904.00
23.6603 902.00
23.7255 843.00
23.7907 896.00
23.8559 850.00
23.9211 889.00
23.9863 867.00
24.0515 894.00
24.1167 875.00
24.1819 901.00
24.2471 872.00
24.3123 882.00
24.3775 859.00
24.4427 946.00
24.5079 957.00
24.5731 926.00
24.6383 875.00
24.7035 841.00
24.7687 865.00
24.8339 797.00
24.8991 812.00
24.9643 870.00
25.0295 812.00
25.0947 836.00
25.1599 866.00
25.2251 822.00
25.2903 809.00
25.3555 827.00
25.4207 859.00
25.4859 832.00
25.5511 839.00
25.6163 925.00
25.6815 971.00
25.7467 955.00
25.8119 922.00
25.8771 953.00
25.9423 1012.00
26.0075 1033.00
26.0727 1178.00
26.1379 1445.00
26.2031 2014.00
26.2683 2733.00
26.3335 3691.00
26.3987 4648.00
26.4639 5385.00
26.5291 6294.00
26.5943 6947.00
26.6595 6460.00
26.7247 4421.00
26.7899 2710.00
26.8551 1828.00
26.9203 1470.00
26.9855 1390.00
27.0507 1401.00
27.1159 1555.00
27.1811 1651.00
27.2463 1746.00
27.3115 2046.00
27.3767 2154.00
27.4419 1926.00
27.5071 1360.00
27.5723 1103.00
27.6375 908.00
27.7027 912.00
27.7679 815.00
27.8331 797.00
27.8983 780.00
27.9635 791.00
28.0287 735.00
28.0939 754.00
28.1591 731.00
28.2243 797.00
28.2894 751.00
28.3546 779.00
28.4198 802.00
28.485 871.00
28.5502 1002.00
28.6154 1159.00
28.6806 1384.00
28.7458 1568.00
28.811 1708.00
28.8762 2089.00
28.9414 1896.00
29.0066 1235.00
29.0718 884.00
29.137 818.00
29.2022 764.00
29.2674 760.00
29.3326 767.00
29.3978 762.00
29.463 757.00
29.5282 740.00
29.5934 741.00
29.6586 743.00
29.7238 737.00
29.789 775.00
29.8542 763.00
29.9194 798.00
29.9846 817.00
30.0498 846.00
30.115 864.00
30.1802 795.00
30.2454 790.00
30.3106 762.00
30.3758 826.00
30.441 814.00
30.5062 811.00
30.5714 974.00
30.6366 1197.00
30.7018 1750.00
30.767 2235.00
30.8322 2586.00
30.8974 3266.00
30.9626 4024.00
31.0278 4538.00
31.093 3332.00
31.1582 1829.00
31.2234 1114.00
31.2886 919.00
31.3538 870.00
31.419 864.00
31.4842 834.00
31.5494 909.00
31.6146 1019.00
31.6798 1202.00
31.745 1326.00
31.8102 1699.00
31.8754 1822.00
31.9406 2150.00
32.0058 2258.00
32.071 2404.00
32.1362 2655.00
32.2014 2979.00
32.2666 3214.00
32.3318 3164.00
32.397 2906.00
32.4622 2427.00
32.5274 1905.00
32.5926 1492.00
32.6578 1294.00
32.723 1037.00
32.7882 903.00
32.8534 896.00
32.9186 930.00
32.9838 863.00
33.0489 783.00
33.1141 767.00
33.1793 742.00
33.2445 669.00
33.3097 754.00
33.3749 847.00
33.4401 845.00
33.5053 942.00
33.5705 987.00
33.6357 1222.00
33.7009 1285.00
33.7661 1329.00
33.8313 1256.00
33.8965 1218.00
33.9617 1359.00
34.0269 1610.00
34.0921 1862.00
34.1573 2153.00
34.2225 2452.00
34.2877 2556.00
34.3529 2183.00
34.4181 1625.00
34.4833 1209.00
34.5485 935.00
34.6137 768.00
34.6789 681.00
34.7441 615.00
34.8093 621.00
34.8745 589.00
34.9397 613.00
35.0049 588.00
35.0701 557.00
35.1353 584.00
35.2005 589.00
35.2657 630.00
35.3309 591.00
35.3961 620.00
35.4613 554.00
35.5265 625.00
35.5917 573.00
35.6569 608.00
35.7221 535.00
35.7873 634.00
35.8525 615.00
35.9177 630.00
35.9829 670.00
36.0481 611.00
36.1133 704.00
36.1785 692.00
36.2437 740.00
36.3089 788.00
36.3741 856.00
36.4393 843.00
36.5045 721.00
36.5697 651.00
36.6349 581.00
36.7001 596.00
36.7653 557.00
36.8305 651.00
36.8957 588.00
36.9609 647.00
37.0261 674.00
37.0913 617.00
37.1565 558.00
37.2217 565.00
37.2869 561.00
37.3521 551.00
37.4173 545.00
37.4825 588.00
37.5477 574.00
37.6129 592.00
37.6781 535.00
37.7433 600.00
37.8085 615.00
37.8736 588.00
37.9388 572.00
38.004 590.00
38.0692 588.00
38.1344 662.00
38.1996 684.00
38.2648 634.00
38.33 667.00
38.3952 655.00
38.4604 642.00
38.5256 604.00
38.5908 688.00
38.656 638.00
38.7212 733.00
38.7864 753.00
38.8516 874.00
38.9168 917.00
38.982 941.00
39.0472 960.00
39.1124 980.00
39.1776 921.00
39.2428 804.00
39.308 832.00
39.3732 764.00
39.4384 803.00
39.5036 830.00
39.5688 957.00
39.634 864.00
39.6992 769.00
39.7644 735.00
39.8296 711.00
39.8948 822.00
39.96 876.00
40.0252 903.00
40.0904 1084.00
40.1556 935.00
40.2208 824.00
40.286 564.00
40.3512 542.00
40.4164 509.00
40.4816 543.00
40.5468 513.00
40.612 488.00
40.6772 506.00
40.7424 499.00
40.8076 518.00
40.8728 553.00
40.938 493.00
41.0032 531.00
41.0684 530.00
41.1336 562.00
41.1988 576.00
41.264 567.00
41.3292 525.00
41.3944 534.00
41.4596 528.00
41.5248 554.00
41.59 532.00
41.6552 486.00
41.7204 453.00
41.7856 493.00
41.8508 571.00
41.916 535.00
41.9812 489.00
42.0464 493.00
42.1116 504.00
42.1768 494.00
42.242 507.00
42.3072 443.00
42.3724 495.00
42.4376 524.00
42.5028 507.00
42.568 507.00
42.6332 484.00
42.6983 558.00
42.7635 536.00
42.8287 509.00
42.8939 508.00
42.9591 519.00
43.0243 514.00
43.0895 489.00
43.1547 530.00
43.2199 537.00
43.2851 595.00
43.3503 619.00
43.4155 661.00
43.4807 772.00
43.5459 874.00
43.6111 970.00
43.6763 929.00
43.7415 1100.00
43.8067 1148.00
43.8719 1053.00
43.9371 911.00
44.0023 812.00
44.0675 648.00
44.1327 664.00
44.1979 563.00
44.2631 642.00
44.3283 675.00
44.3935 783.00
44.4587 807.00
44.5239 860.00
44.5891 968.00
44.6543 964.00
44.7195 1053.00
44.7847 1083.00
44.8499 966.00
44.9151 881.00
44.9803 788.00
45.0455 764.00
45.1107 734.00
45.1759 668.00
45.2411 630.00
45.3063 628.00
45.3715 562.00
45.4367 575.00
45.5019 485.00
45.5671 564.00
45.6323 528.00
45.6975 563.00
45.7627 602.00
45.8279 663.00
45.8931 664.00
45.9583 760.00
46.0235 877.00
46.0887 1015.00
46.1539 1095.00
46.2191 1209.00
46.2843 1216.00
46.3495 1144.00
46.4147 1106.00
46.4799 1067.00
46.5451 842.00
46.6103 712.00
46.6755 672.00
46.7407 626.00
46.8059 614.00
46.8711 577.00
46.9363 607.00
47.0015 537.00
47.0667 536.00
47.1319 506.00
47.1971 540.00
47.2623 650.00
47.3275 661.00
47.3927 839.00
47.4579 1109.00
47.523 1409.00
47.5882 1764.00
47.6534 1917.00
47.7186 2164.00
47.7838 1874.00
47.849 1429.00
47.9142 984.00
47.9794 665.00
48.0446 633.00
48.1098 579.00
48.175 540.00
48.2402 558.00
48.3054 515.00
48.3706 512.00
48.4358 498.00
48.501 528.00
48.5662 546.00
48.6314 495.00
48.6966 499.00
48.7618 541.00
48.827 508.00
48.8922 449.00
48.9574 468.00
49.0226 494.00
49.0878 486.00
49.153 477.00
49.2182 562.00
49.2834 600.00
49.3486 637.00
49.4138 663.00
49.479 778.00
49.5442 850.00
49.6094 978.00
49.6746 1071.00
49.7398 1225.00
49.805 1498.00
49.8702 1558.00
49.9354 1722.00
50.0006 1771.00
50.0658 1646.00
50.131 1512.00
50.1962 1320.00
50.2614 1132.00
50.3266 994.00
50.3918 870.00
50.457 713.00
50.5222 771.00
50.5874 622.00
50.6526 627.00
50.7178 674.00
50.783 559.00
50.8482 533.00
50.9134 646.00
50.9786 554.00
51.0438 518.00
51.109 574.00
51.1742 594.00
51.2394 533.00
51.3046 524.00
51.3698 558.00
51.435 565.00
51.5002 602.00
51.5654 553.00
51.6306 586.00
51.6958 626.00
51.761 628.00
51.8262 701.00
51.8914 782.00
51.9566 1025.00
52.0218 1435.00
52.087 1966.00
52.1522 2342.00
52.2174 3042.00
52.2826 3497.00
52.3477 2849.00
52.4129 2286.00
52.4781 1720.00
52.5433 1035.00
52.6085 853.00
52.6737 781.00
52.7389 695.00
52.8041 687.00
52.8693 647.00
52.9345 587.00
52.9997 594.00
53.0649 581.00
53.1301 630.00
53.1953 569.00
53.2605 533.00
53.3257 572.00
53.3909 585.00
53.4561 549.00
53.5213 525.00
53.5865 476.00
53.6517 504.00
53.7169 539.00
53.7821 534.00
53.8473 514.00
53.9125 579.00
53.9777 613.00
54.0429 625.00
54.1081 563.00
54.1733 577.00
54.2385 579.00
54.3037 556.00
54.3689 537.00
54.4341 550.00
54.4993 523.00
54.5645 504.00
54.6297 518.00
54.6949 507.00
54.7601 490.00
54.8253 490.00
54.8905 490.00
54.9557 457.00
55.0209 475.00
55.0861 463.00
55.1513 497.00
55.2165 463.00
55.2817 512.00
55.3469 480.00
55.4121 521.00
55.4773 533.00
55.5425 524.00
55.6077 531.00
55.6729 501.00
55.7381 523.00
55.8033 523.00
55.8685 589.00
55.9337 762.00
55.9989 967.00
56.0641 962.00
56.1293 1218.00
56.1945 1332.00
56.2597 1285.00
56.3249 1012.00
56.3901 907.00
56.4553 664.00
56.5205 654.00
56.5857 638.00
56.6509 566.00
56.7161 552.00
56.7813 509.00
56.8465 482.00
56.9117 495.00
56.9769 473.00
57.042 484.00
57.1073 499.00
57.1724 474.00
57.2376 507.00
57.3028 558.00
57.368 579.00
57.4332 548.00
57.4984 579.00
57.5636 615.00
57.6288 638.00
57.694 639.00
57.7592 737.00
57.8244 688.00
57.8896 821.00
57.9548 835.00
58.02 870.00
58.0852 951.00
58.1504 1057.00
58.2156 1143.00
58.2808 1087.00
58.346 961.00
58.4112 927.00
58.4764 922.00
58.5416 782.00
58.6068 682.00
58.672 614.00
58.7372 606.00
58.8024 596.00
58.8676 500.00
58.9328 504.00
58.998 500.00
59.0632 538.00
59.1284 524.00
59.1936 629.00
59.2588 686.00
59.324 757.00
59.3892 886.00
59.4544 973.00
59.5196 974.00
59.5848 815.00
59.65 772.00
59.7152 710.00
59.7804 599.00
59.8456 565.00
59.9108 638.00
59.976 622.00
60.0412 584.00
60.1064 650.00
60.1716 644.00
60.2368 654.00
60.302 710.00
60.3672 745.00
60.4324 769.00
60.4976 820.00
60.5628 918.00
60.628 945.00
60.6932 894.00
60.7584 880.00
60.8236 848.00
60.8888 812.00
60.954 763.00
61.0192 721.00
61.0844 672.00
61.1496 672.00
61.2148 637.00
61.28 577.00
61.3452 639.00
61.4104 651.00
61.4756 655.00
61.5408 626.00
61.606 575.00
61.6712 536.00
61.7364 527.00
61.8016 510.00
61.8667 468.00
61.932 456.00
61.9971 439.00
62.0623 491.00
62.1275 436.00
62.1927 457.00
62.2579 424.00
62.3231 412.00
62.3883 454.00
62.4535 422.00
62.5187 483.00
62.5839 479.00
62.6491 486.00
62.7143 522.00
62.7795 526.00
62.8447 566.00
62.9099 565.00
62.9751 575.00
63.0403 603.00
63.1055 654.00
63.1707 651.00
63.2359 732.00
63.3011 690.00
63.3663 770.00
63.4315 735.00
63.4967 659.00
63.5619 727.00
63.6271 619.00
63.6923 567.00
63.7575 589.00
63.8227 555.00
63.8879 538.00
63.9531 527.00
64.0183 597.00
64.0835 602.00
64.1487 626.00
64.2139 678.00
64.2791 703.00
64.3443 592.00
64.4095 631.00
64.4747 566.00
64.5399 495.00
64.6051 458.00
64.6703 419.00
64.7355 471.00
64.8007 439.00
64.8659 430.00
64.9311 451.00
64.9963 402.00
65.0615 408.00
65.1267 432.00
65.1919 394.00
65.2571 457.00
65.3223 416.00
65.3875 409.00
65.4527 426.00
65.5179 486.00
65.5831 514.00
65.6483 459.00
65.7135 529.00
65.7787 561.00
65.8439 652.00
65.9091 744.00
65.9743 814.00
66.0395 1071.00
66.1047 1168.00
66.1699 1359.00
66.2351 1343.00
66.3003 1219.00
66.3655 1109.00
66.4307 909.00
66.4959 816.00
66.561 619.00
66.6263 558.00
66.6915 539.00
66.7566 517.00
66.8218 511.00
66.887 506.00
66.9522 544.00
67.0174 489.00
67.0826 484.00
67.1478 452.00
67.213 503.00
67.2782 420.00
67.3434 450.00
67.4086 455.00
67.4738 428.00
67.539 429.00
67.6042 460.00
67.6694 389.00
67.7346 436.00
67.7998 445.00
67.865 423.00
67.9302 443.00
67.9954 423.00
68.0606 426.00
68.1258 470.00
68.191 489.00
68.2562 483.00
68.3214 461.00
68.3866 521.00
68.4518 510.00
68.517 549.00
68.5822 539.00
68.6474 477.00
68.7126 489.00
68.7778 471.00
68.843 497.00
68.9082 510.00
68.9734 467.00
69.0386 439.00
69.1038 438.00
69.169 455.00
69.2342 433.00
69.2994 456.00
69.3646 469.00
69.4298 472.00
69.495 465.00
69.5602 485.00
69.6254 491.00
69.6906 533.00
69.7558 561.00
69.821 636.00
69.8862 675.00
69.9514 699.00
70.0166 690.00
70.0818 642.00
70.147 588.00
70.2122 507.00
70.2774 527.00
70.3426 498.00
70.4078 524.00
70.473 507.00
70.5382 444.00
70.6034 457.00
70.6686 442.00
70.7338 454.00
70.799 450.00
70.8642 487.00
70.9294 442.00
70.9946 485.00
71.0598 494.00
71.125 530.00
71.1902 456.00
71.2554 450.00
71.3205 520.00
71.3858 451.00
71.451 484.00
71.5162 446.00
71.5813 460.00
71.6465 515.00
71.7117 510.00
71.7769 555.00
71.8421 601.00
71.9073 600.00
71.9725 658.00
72.0377 667.00
72.1029 761.00
72.1681 738.00
72.2333 689.00
72.2985 652.00
72.3637 606.00
72.4289 622.00
72.4941 592.00
72.5593 541.00
72.6245 506.00
72.6897 576.00
72.7549 478.00
72.8201 480.00
72.8853 482.00
72.9505 464.00
73.0157 461.00
73.0809 511.00
73.1461 450.00
73.2113 472.00
73.2765 474.00
73.3417 453.00
73.4069 490.00
73.4721 555.00
73.5373 574.00
73.6025 637.00
73.6677 621.00
73.7329 649.00
73.7981 612.00
73.8633 681.00
73.9285 627.00
73.9937 616.00
74.0589 593.00
74.1241 535.00
74.1893 575.00
74.2545 571.00
74.3197 551.00
74.3849 487.00
74.4501 493.00
74.5153 505.00
74.5805 454.00
74.6457 479.00
74.7109 443.00
74.7761 476.00
74.8413 483.00
74.9065 504.00
74.9717 486.00
75.0369 467.00
75.1021 529.00
75.1673 548.00
75.2325 570.00
75.2977 634.00
75.3629 667.00
75.4281 700.00
75.4933 689.00
75.5585 713.00
75.6237 701.00
75.6889 660.00
75.7541 572.00
75.8193 490.00
75.8845 494.00
75.9497 495.00
76.0149 416.00
76.0801 446.00
76.1452 470.00
76.2104 482.00
76.2756 540.00
76.3409 614.00
76.406 684.00
76.4712 687.00
76.5364 879.00
76.6016 861.00
76.6668 721.00
76.732 685.00
76.7972 713.00
76.8624 636.00
76.9276 574.00
76.9928 531.00
77.058 573.00
77.1232 525.00
77.1884 467.00
77.2536 489.00
77.3188 434.00
77.384 378.00
77.4492 408.00
77.5144 385.00
77.5796 422.00
77.6448 388.00
77.71 402.00
77.7752 385.00
77.8404 444.00
77.9056 393.00
77.9708 431.00
78.036 418.00
78.1012 431.00
78.1664 407.00
78.2316 404.00
78.2968 433.00
78.362 403.00
78.4272 412.00
78.4924 387.00
78.5576 456.00
78.6228 491.00
78.688 431.00
78.7532 449.00
78.8184 434.00
78.8836 427.00
78.9488 419.00
79.014 488.00
79.0792 463.00
79.1444 485.00
79.2096 461.00
79.2748 434.00
79.34 481.00
79.4052 464.00
79.4704 443.00
79.5356 491.00
79.6008 449.00
79.666 428.00
79.7312 448.00
79.7964 416.00
79.8616 481.00
79.9268 483.00
79.992 467.00
80.0572 512.00
80.1224 497.00
80.1876 481.00
80.2528 454.00
80.318 440.00
80.3832 457.00
80.4484 459.00
80.5136 477.00
80.5788 436.00
80.644 468.00
80.7092 493.00
80.7744 505.00
80.8396 481.00
80.9048 508.00
80.9699 479.00
81.0351 489.00
81.1003 482.00
81.1655 482.00
81.2307 448.00
81.2959 452.00
81.3611 462.00
81.4263 459.00
81.4915 406.00
81.5567 400.00
81.6219 446.00
81.6871 422.00
81.7523 464.00
81.8175 467.00
81.8827 474.00
81.9479 483.00
82.0131 479.00
82.0783 460.00
82.1435 528.00
82.2087 518.00
82.2739 586.00
82.3391 501.00
82.4043 542.00
82.4695 555.00
82.5347 587.00
82.5999 622.00
82.6651 668.00
82.7303 692.00
82.7955 707.00
82.8607 775.00
82.9259 804.00
82.9911 858.00
83.0563 841.00
83.1215 842.00
83.1867 825.00
83.2519 802.00
83.3171 839.00
83.3823 779.00
83.4475 801.00
83.5127 763.00
83.5779 729.00
83.6431 756.00
83.7083 749.00
83.7735 694.00
83.8387 686.00
83.9039 635.00
83.9691 625.00
84.0343 651.00
84.0995 597.00
84.1647 608.00
84.2299 638.00
84.2951 668.00
84.3603 668.00
84.4255 721.00
84.4907 755.00
84.5559 841.00
84.6211 835.00
84.6863 791.00
84.7515 830.00
84.8167 861.00
84.8819 755.00
84.9471 704.00
85.0123 651.00
85.0775 622.00
85.1427 616.00
85.2079 577.00
85.2731 520.00
85.3383 501.00
85.4035 471.00
85.4687 555.00
85.5339 466.00
85.5991 503.00
85.6643 490.00
85.7295 487.00
85.7946 487.00
85.8598 550.00
85.925 594.00
85.9903 628.00
86.0554 682.00
86.1206 763.00
86.1858 682.00
86.251 642.00
86.3162 611.00
86.3814 651.00
86.4466 570.00
86.5118 490.00
86.577 543.00
86.6422 517.00
86.7074 550.00
86.7726 476.00
86.8378 524.00
86.903 536.00
86.9682 496.00
87.0334 508.00
87.0986 550.00
87.1638 513.00
87.229 478.00
87.2942 499.00
87.3594 517.00
87.4246 475.00
87.4898 474.00
87.555 561.00
87.6202 525.00
87.6854 563.00
87.7506 573.00
87.8158 538.00
87.881 544.00
87.9462 552.00
88.0114 531.00
88.0766 535.00
88.1418 504.00
88.207 493.00
88.2722 426.00
88.3374 469.00
88.4026 433.00
88.4678 467.00
88.533 484.00
88.5982 436.00
88.6634 452.00
88.7286 439.00
88.7938 453.00
88.859 483.00
88.9242 468.00
88.9894 486.00
89.0546 491.00
89.1198 480.00
89.185 489.00
89.2502 555.00
89.3154 537.00
89.3806 576.00
89.4458 551.00
89.511 567.00
89.5762 631.00
89.6414 614.00
89.7066 667.00
89.7718 571.00
89.837 579.00
89.9022 544.00
89.9674 567.00
90.0326 580.00
90.0978 562.00
90.163 525.00
90.2282 515.00
90.2934 504.00
90.3586 496.00
90.4238 512.00
90.489 460.00
90.5542 475.00
90.6193 497.00
90.6845 469.00
90.7497 510.00
90.8149 493.00
90.8801 541.00
90.9453 467.00
91.0105 492.00
91.0757 516.00
91.1409 566.00
91.2061 576.00
91.2713 593.00
91.3365 656.00
91.4017 629.00
91.4669 606.00
91.5321 552.00
91.5973 539.00
91.6625 538.00
91.7277 492.00
91.7929 468.00
91.8581 448.00
91.9233 484.00
91.9885 469.00
92.0537 455.00
92.1189 456.00
92.1841 477.00
92.2493 481.00
92.3145 481.00
92.3797 526.00
92.4449 533.00
92.5101 511.00
92.5753 516.00
92.6405 498.00
92.7057 488.00
92.7709 485.00
92.8361 518.00
92.9013 555.00
92.9665 526.00
93.0317 573.00
93.0969 612.00
93.1621 610.00
93.2273 550.00
93.2925 495.00
93.3577 518.00
93.4229 487.00
93.4881 450.00
93.5533 481.00
93.6185 435.00
93.6837 462.00
93.7489 465.00
93.8141 427.00
93.8793 425.00
93.9445 414.00
94.0097 418.00
94.0749 453.00
94.1401 464.00
94.2053 439.00
94.2705 432.00
94.3357 429.00
94.4009 412.00
94.4661 436.00
94.5313 436.00
94.5965 399.00
94.6617 444.00
94.7269 410.00
94.7921 415.00
94.8573 396.00
94.9225 408.00
94.9877 406.00
95.0529 443.00
95.1181 414.00
95.1833 430.00
95.2485 470.00
95.3137 433.00
95.3789 426.00
95.444 429.00
95.5092 409.00
95.5744 439.00
95.6396 414.00
95.7048 496.00
95.77 509.00
95.8352 535.00
95.9004 571.00
95.9656 533.00
96.0308 493.00
96.096 548.00
96.1612 529.00
96.2264 490.00
96.2916 487.00
96.3568 460.00
96.422 483.00
96.4872 453.00
96.5524 475.00
96.6176 450.00
96.6828 480.00
96.748 451.00
96.8132 451.00
96.8784 495.00
96.9436 479.00
97.0088 436.00
97.074 474.00
97.1392 447.00
97.2044 464.00
97.2696 464.00
97.3348 486.00
97.4 510.00
97.4652 543.00
97.5304 585.00
97.5956 543.00
97.6608 623.00
97.726 620.00
97.7912 586.00
97.8564 504.00
97.9216 488.00
97.9868 547.00
98.052 527.00
98.1172 488.00
98.1824 457.00
98.2476 458.00
98.3128 475.00
98.378 439.00
98.4432 490.00
98.5084 466.00
98.5736 487.00
98.6388 436.00
98.704 521.00
98.7692 467.00
98.8344 421.00
98.8996 461.00
98.9648 457.00
99.03 456.00
99.0952 462.00
99.1604 487.00
99.2256 477.00
99.2908 462.00
99.356 478.00
99.4212 472.00
99.4864 458.00
99.5516 443.00
99.6168 448.00
99.682 474.00
99.7472 413.00
99.8124 400.00
99.8776 445.00
99.9428 394.00
100.008 403.00
100.073 434.00
100.095 428.00