File: data/xrd_creation/results/PG_1848-1.xy
9.903433 2658.00
9.968632 2623.00
10.0338 2579.00
10.099 2524.00
10.1642 2476.00
10.2294 2600.00
10.2946 2611.00
10.3598 2438.00
10.425 2503.00
10.4902 2497.00
10.5554 2405.00
10.6206 2461.00
10.6858 2463.00
10.751 2431.00
10.8162 2495.00
10.8814 2457.00
10.9466 2382.00
11.0118 2415.00
11.077 2373.00
11.1422 2336.00
11.2074 2270.00
11.2726 2341.00
11.3378 2346.00
11.403 2231.00
11.4682 2168.00
11.5334 2218.00
11.5986 2212.00
11.6638 2100.00
11.729 2037.00
11.7942 2240.00
11.8594 2132.00
11.9246 2171.00
11.9898 2085.00
12.055 2175.00
12.1202 1969.00
12.1854 2065.00
12.2506 2068.00
12.3158 2143.00
12.381 2012.00
12.4462 2034.00
12.5114 2006.00
12.5766 1975.00
12.6418 1991.00
12.707 1931.00
12.7722 1946.00
12.8374 1955.00
12.9026 1999.00
12.9678 1986.00
13.033 1896.00
13.0982 1911.00
13.1634 1847.00
13.2286 1831.00
13.2938 1895.00
13.359 1869.00
13.4242 1952.00
13.4894 1886.00
13.5546 1816.00
13.6198 1789.00
13.685 1785.00
13.7502 1710.00
13.8154 1743.00
13.8805 1827.00
13.9457 1820.00
14.0109 1730.00
14.0761 1876.00
14.1413 1761.00
14.2065 1824.00
14.2717 1811.00
14.3369 1782.00
14.4021 1678.00
14.4673 1705.00
14.5325 1730.00
14.5977 1725.00
14.6629 1834.00
14.7281 1692.00
14.7933 1791.00
14.8585 1727.00
14.9237 1690.00
14.9889 1737.00
15.0541 1698.00
15.1193 1632.00
15.1845 1699.00
15.2497 1686.00
15.3149 1654.00
15.3801 1771.00
15.4453 1744.00
15.5105 1837.00
15.5757 2117.00
15.6409 2149.00
15.7061 2431.00
15.7713 2685.00
15.8365 1936.00
15.9017 1675.00
15.9669 1668.00
16.0321 1701.00
16.0973 1613.00
16.1625 1561.00
16.2277 1730.00
16.2929 1591.00
16.3581 1619.00
16.4233 1625.00
16.4885 1609.00
16.5537 1650.00
16.6189 1565.00
16.6841 1562.00
16.7493 1517.00
16.8145 1566.00
16.8797 1560.00
16.9449 1518.00
17.0101 1642.00
17.0753 1574.00
17.1405 1544.00
17.2057 1591.00
17.2709 1529.00
17.3361 1607.00
17.4013 1561.00
17.4665 1565.00
17.5317 1538.00
17.5969 1528.00
17.6621 1521.00
17.7273 1534.00
17.7925 1592.00
17.8577 1543.00
17.9229 1526.00
17.9881 1434.00
18.0533 1447.00
18.1185 1436.00
18.1837 1516.00
18.2489 1445.00
18.3141 1429.00
18.3793 1514.00
18.4445 1413.00
18.5097 1438.00
18.5749 1433.00
18.6401 1418.00
18.7052 1382.00
18.7704 1368.00
18.8356 1427.00
18.9008 1343.00
18.966 1419.00
19.0312 1360.00
19.0964 1393.00
19.1616 1384.00
19.2268 1382.00
19.292 1388.00
19.3572 1296.00
19.4224 1349.00
19.4876 1364.00
19.5528 1377.00
19.618 1398.00
19.6832 1309.00
19.7484 1417.00
19.8136 1339.00
19.8788 1404.00
19.944 1368.00
20.0092 1317.00
20.0744 1460.00
20.1396 1458.00
20.2048 1422.00
20.27 1462.00
20.3352 1675.00
20.4004 1880.00
20.4656 2354.00
20.5308 3347.00
20.596 4850.00
20.6612 6042.00
20.7264 3927.00
20.7916 2123.00
20.8568 1592.00
20.922 1423.00
20.9872 1425.00
21.0524 1393.00
21.1176 1409.00
21.1828 1398.00
21.248 1338.00
21.3132 1324.00
21.3784 1352.00
21.4436 1406.00
21.5088 1461.00
21.574 1623.00
21.6392 1661.00
21.7044 2262.00
21.7696 3202.00
21.8348 4570.00
21.9 3907.00
21.9652 2520.00
22.0304 2492.00
22.0956 2642.00
22.1608 2074.00
22.226 1507.00
22.2912 1388.00
22.3564 1243.00
22.4216 1262.00
22.4868 1227.00
22.552 1208.00
22.6172 1215.00
22.6824 1231.00
22.7476 1103.00
22.8128 1180.00
22.878 1198.00
22.9432 1190.00
23.0084 1199.00
23.0736 1146.00
23.1388 1107.00
23.204 1111.00
23.2692 1199.00
23.3344 1128.00
23.3996 1147.00
23.4647 1135.00
23.5299 1160.00
23.5951 1092.00
23.6603 1107.00
23.7255 1109.00
23.7907 1155.00
23.8559 1096.00
23.9211 1143.00
23.9863 1080.00
24.0515 1088.00
24.1167 1096.00
24.1819 995.00
24.2471 1083.00
24.3123 1048.00
24.3775 1041.00
24.4427 1021.00
24.5079 1082.00
24.5731 1039.00
24.6383 1036.00
24.7035 1086.00
24.7687 1053.00
24.8339 1030.00
24.8991 1040.00
24.9643 1036.00
25.0295 1058.00
25.0947 1058.00
25.1599 1081.00
25.2251 993.00
25.2903 966.00
25.3555 1065.00
25.4207 978.00
25.4859 1051.00
25.5511 1019.00
25.6163 970.00
25.6815 967.00
25.7467 1081.00
25.8119 1129.00
25.8771 1143.00
25.9423 1204.00
26.0075 1090.00
26.0727 1048.00
26.1379 992.00
26.2031 1057.00
26.2683 1197.00
26.3335 1377.00
26.3987 1991.00
26.4639 2940.00
26.5291 3342.00
26.5943 2049.00
26.6595 1219.00
26.7247 1097.00
26.7899 1008.00
26.8551 1071.00
26.9203 925.00
26.9855 966.00
27.0507 978.00
27.1159 928.00
27.1811 977.00
27.2463 906.00
27.3115 930.00
27.3767 969.00
27.4419 905.00
27.5071 996.00
27.5723 926.00
27.6375 952.00
27.7027 923.00
27.7679 936.00
27.8331 1003.00
27.8983 985.00
27.9635 951.00
28.0287 934.00
28.0939 952.00
28.1591 940.00
28.2243 905.00
28.2894 889.00
28.3546 966.00
28.4198 882.00
28.485 866.00
28.5502 882.00
28.6154 946.00
28.6806 893.00
28.7458 871.00
28.811 925.00
28.8762 907.00
28.9414 892.00
29.0066 867.00
29.0718 940.00
29.137 908.00
29.2022 915.00
29.2674 865.00
29.3326 809.00
29.3978 878.00
29.463 947.00
29.5282 872.00
29.5934 938.00
29.6586 934.00
29.7238 915.00
29.789 901.00
29.8542 946.00
29.9194 1035.00
29.9846 1061.00
30.0498 1081.00
30.115 1050.00
30.1802 1050.00
30.2454 1028.00
30.3106 1227.00
30.3758 1257.00
30.441 1501.00
30.5062 1603.00
30.5714 1841.00
30.6366 2301.00
30.7018 3483.00
30.767 6493.00
30.8322 14037.00
30.8974 29343.00
30.9626 30054.00
31.0278 16648.00
31.093 5092.00
31.1582 3204.00
31.2234 2819.00
31.2886 3023.00
31.3538 3613.00
31.419 3250.00
31.4842 2127.00
31.5494 1359.00
31.6146 1149.00
31.6798 1086.00
31.745 986.00
31.8102 992.00
31.8754 938.00
31.9406 965.00
32.0058 1017.00
32.071 941.00
32.1362 878.00
32.2014 879.00
32.2666 929.00
32.3318 915.00
32.397 911.00
32.4622 938.00
32.5274 972.00
32.5926 1112.00
32.6578 1513.00
32.723 1874.00
32.7882 1586.00
32.8534 1144.00
32.9186 974.00
32.9838 887.00
33.0489 845.00
33.1141 825.00
33.1793 874.00
33.2445 874.00
33.3097 906.00
33.3749 1114.00
33.4401 1280.00
33.5053 1163.00
33.5705 1037.00
33.6357 1082.00
33.7009 1166.00
33.7661 1036.00
33.8313 892.00
33.8965 827.00
33.9617 808.00
34.0269 787.00
34.0921 752.00
34.1573 817.00
34.2225 800.00
34.2877 826.00
34.3529 812.00
34.4181 821.00
34.4833 913.00
34.5485 1143.00
34.6137 1531.00
34.6789 1786.00
34.7441 1347.00
34.8093 981.00
34.8745 848.00
34.9397 852.00
35.0049 887.00
35.0701 812.00
35.1353 793.00
35.2005 887.00
35.2657 887.00
35.3309 940.00
35.3961 990.00
35.4613 1080.00
35.5265 1147.00
35.5917 1570.00
35.6569 2542.00
35.7221 5280.00
35.7873 10429.00
35.8525 7790.00
35.9177 5009.00
35.9829 1886.00
36.0481 1260.00
36.1133 1107.00
36.1785 1033.00
36.2437 876.00
36.3089 905.00
36.3741 990.00
36.4393 919.00
36.5045 800.00
36.5697 742.00
36.6349 690.00
36.7001 758.00
36.7653 778.00
36.8305 702.00
36.8957 756.00
36.9609 726.00
37.0261 721.00
37.0913 737.00
37.1565 641.00
37.2217 672.00
37.2869 722.00
37.3521 709.00
37.4173 690.00
37.4825 708.00
37.5477 710.00
37.6129 753.00
37.6781 803.00
37.7433 909.00
37.8085 901.00
37.8736 987.00
37.9388 1406.00
38.004 2312.00
38.0692 2059.00
38.1344 1614.00
38.1996 946.00
38.2648 781.00
38.33 734.00
38.3952 740.00
38.4604 670.00
38.5256 637.00
38.5908 640.00
38.656 696.00
38.7212 667.00
38.7864 722.00
38.8516 660.00
38.9168 632.00
38.982 607.00
39.0472 659.00
39.1124 649.00
39.1776 645.00
39.2428 642.00
39.308 637.00
39.3732 599.00
39.4384 643.00
39.5036 613.00
39.5688 627.00
39.634 625.00
39.6992 648.00
39.7644 664.00
39.8296 586.00
39.8948 681.00
39.96 664.00
40.0252 764.00
40.0904 812.00
40.1556 1069.00
40.2208 893.00
40.286 825.00
40.3512 655.00
40.4164 651.00
40.4816 622.00
40.5468 622.00
40.612 670.00
40.6772 625.00
40.7424 612.00
40.8076 619.00
40.8728 587.00
40.938 635.00
41.0032 659.00
41.0684 617.00
41.1336 628.00
41.1988 676.00
41.264 665.00
41.3292 702.00
41.3944 690.00
41.4596 877.00
41.5248 1014.00
41.59 1378.00
41.6552 1186.00
41.7204 1023.00
41.7856 826.00
41.8508 791.00
41.916 752.00
41.9812 751.00
42.0464 975.00
42.1116 1518.00
42.1768 2288.00
42.242 1615.00
42.3072 1502.00
42.3724 1071.00
42.4376 922.00
42.5028 851.00
42.568 675.00
42.6332 621.00
42.6983 659.00
42.7635 601.00
42.8287 587.00
42.8939 600.00
42.9591 583.00
43.0243 556.00
43.0895 572.00
43.1547 540.00
43.2199 587.00
43.2851 581.00
43.3503 593.00
43.4155 582.00
43.4807 614.00
43.5459 532.00
43.6111 597.00
43.6763 550.00
43.7415 586.00
43.8067 584.00
43.8719 645.00
43.9371 560.00
44.0023 640.00
44.0675 747.00
44.1327 908.00
44.1979 793.00
44.2631 719.00
44.3283 612.00
44.3935 561.00
44.4587 603.00
44.5239 554.00
44.5891 619.00
44.6543 586.00
44.7195 596.00
44.7847 627.00
44.8499 611.00
44.9151 601.00
44.9803 600.00
45.0455 542.00
45.1107 571.00
45.1759 572.00
45.2411 612.00
45.3063 592.00
45.3715 589.00
45.4367 606.00
45.5019 651.00
45.5671 655.00
45.6323 724.00
45.6975 826.00
45.7627 1098.00
45.8279 1151.00
45.8931 1524.00
45.9583 2516.00
46.0235 3518.00
46.0887 2216.00
46.1539 1937.00
46.2191 1027.00
46.2843 796.00
46.3495 669.00
46.4147 648.00
46.4799 604.00
46.5451 629.00
46.6103 571.00
46.6755 592.00
46.7407 552.00
46.8059 574.00
46.8711 587.00
46.9363 584.00
47.0015 580.00
47.0667 572.00
47.1319 582.00
47.1971 574.00
47.2623 578.00
47.3275 567.00
47.3927 615.00
47.4579 612.00
47.523 647.00
47.5882 801.00
47.6534 1246.00
47.7186 1048.00
47.7838 974.00
47.849 689.00
47.9142 655.00
47.9794 652.00
48.0446 696.00
48.1098 896.00
48.175 1027.00
48.2402 884.00
48.3054 856.00
48.3706 708.00
48.4358 643.00
48.501 551.00
48.5662 585.00
48.6314 577.00
48.6966 533.00
48.7618 528.00
48.827 565.00
48.8922 591.00
48.9574 601.00
49.0226 661.00
49.0878 848.00
49.153 1007.00
49.2182 915.00
49.2834 865.00
49.3486 721.00
49.4138 709.00
49.479 711.00
49.5442 992.00
49.6094 1433.00
49.6746 1042.00
49.7398 1089.00
49.805 834.00
49.8702 748.00
49.9354 719.00
50.0006 672.00
50.0658 632.00
50.131 610.00
50.1962 637.00
50.2614 605.00
50.3266 582.00
50.3918 596.00
50.457 568.00
50.5222 654.00
50.5874 616.00
50.6526 625.00
50.7178 679.00
50.783 678.00
50.8482 776.00
50.9134 908.00
50.9786 975.00
51.0438 1157.00
51.109 1465.00
51.1742 2030.00
51.2394 3956.00
51.3046 9840.00
51.3698 10126.00
51.435 6973.00
51.5002 6513.00
51.5654 2892.00
51.6306 1855.00
51.6958 1526.00
51.761 1072.00
51.8262 926.00
51.8914 789.00
51.9566 794.00
52.0218 693.00
52.087 688.00
52.1522 680.00
52.2174 667.00
52.2826 826.00
52.3477 900.00
52.4129 783.00
52.4781 799.00
52.5433 634.00
52.6085 649.00
52.6737 632.00
52.7389 648.00
52.8041 600.00
52.8693 722.00
52.9345 817.00
52.9997 1178.00
53.0649 1030.00
53.1301 897.00
53.1953 802.00
53.2605 654.00
53.3257 601.00
53.3909 562.00
53.4561 505.00
53.5213 605.00
53.5865 534.00
53.6517 520.00
53.7169 543.00
53.7821 562.00
53.8473 528.00
53.9125 524.00
53.9777 521.00
54.0429 537.00
54.1081 597.00
54.1733 525.00
54.2385 600.00
54.3037 544.00
54.3689 515.00
54.4341 518.00
54.4993 486.00
54.5645 579.00
54.6297 642.00
54.6949 695.00
54.7601 532.00
54.8253 569.00
54.8905 527.00
54.9557 484.00
55.0209 539.00
55.0861 534.00
55.1513 485.00
55.2165 515.00
55.2817 507.00
55.3469 491.00
55.4121 468.00
55.4773 499.00
55.5425 484.00
55.6077 552.00
55.6729 526.00
55.7381 543.00
55.8033 576.00
55.8685 663.00
55.9337 812.00
55.9989 870.00
56.0641 791.00
56.1293 958.00
56.1945 989.00
56.2597 1850.00
56.3249 1781.00
56.3901 1218.00
56.4553 1271.00
56.5205 833.00
56.5857 726.00
56.6509 632.00
56.7161 593.00
56.7813 571.00
56.8465 530.00
56.9117 524.00
56.9769 500.00
57.042 512.00
57.1073 463.00
57.1724 514.00
57.2376 555.00
57.3028 501.00
57.368 476.00
57.4332 513.00
57.4984 495.00
57.5636 520.00
57.6288 536.00
57.694 548.00
57.7592 541.00
57.8244 708.00
57.8896 828.00
57.9548 654.00
58.02 695.00
58.0852 594.00
58.1504 565.00
58.2156 513.00
58.2808 547.00
58.346 513.00
58.4112 623.00
58.4764 521.00
58.5416 565.00
58.6068 529.00
58.672 575.00
58.7372 593.00
58.8024 684.00
58.8676 689.00
58.9328 685.00
58.998 635.00
59.0632 653.00
59.1284 635.00
59.1936 716.00
59.2588 866.00
59.324 1133.00
59.3892 1584.00
59.4544 1845.00
59.5196 1217.00
59.5848 1300.00
59.65 924.00
59.7152 694.00
59.7804 571.00
59.8456 557.00
59.9108 604.00
59.976 603.00
60.0412 557.00
60.1064 596.00
60.1716 581.00
60.2368 606.00
60.302 705.00
60.3672 708.00
60.4324 717.00
60.4976 788.00
60.5628 801.00
60.628 919.00
60.6932 1103.00
60.7584 1260.00
60.8236 1834.00
60.8888 3733.00
60.954 8394.00
61.0192 5129.00
61.0844 4088.00
61.1496 4540.00
61.2148 2043.00
61.28 1334.00
61.3452 1251.00
61.4104 1188.00
61.4756 988.00
61.5408 877.00
61.606 740.00
61.6712 631.00
61.7364 655.00
61.8016 635.00
61.8667 586.00
61.932 569.00
61.9971 581.00
62.0623 612.00
62.1275 550.00
62.1927 657.00
62.2579 720.00
62.3231 943.00
62.3883 1578.00
62.4535 2327.00
62.5187 1808.00
62.5839 1435.00
62.6491 1442.00
62.7143 940.00
62.7795 693.00
62.8447 616.00
62.9099 584.00
62.9751 518.00
63.0403 523.00
63.1055 524.00
63.1707 482.00
63.2359 524.00
63.3011 506.00
63.3663 522.00
63.4315 513.00
63.4967 487.00
63.5619 543.00
63.6271 556.00
63.6923 585.00
63.7575 625.00
63.8227 714.00
63.8879 1160.00
63.9531 1936.00
64.0183 1320.00
64.0835 1090.00
64.1487 1330.00
64.2139 831.00
64.2791 660.00
64.3443 603.00
64.4095 541.00
64.4747 519.00
64.5399 544.00
64.6051 545.00
64.6703 613.00
64.7355 558.00
64.8007 620.00
64.8659 711.00
64.9311 575.00
64.9963 610.00
65.0615 584.00
65.1267 515.00
65.1919 505.00
65.2571 579.00
65.3223 611.00
65.3875 895.00
65.4527 1055.00
65.5179 770.00
65.5831 789.00
65.6483 761.00
65.7135 582.00
65.7787 522.00
65.8439 513.00
65.9091 486.00
65.9743 492.00
66.0395 467.00
66.1047 524.00
66.1699 445.00
66.2351 496.00
66.3003 593.00
66.3655 653.00
66.4307 581.00
66.4959 541.00
66.561 626.00
66.6263 517.00
66.6915 471.00
66.7566 540.00
66.8218 664.00
66.887 846.00
66.9522 641.00
67.0174 641.00
67.0826 700.00
67.1478 567.00
67.213 471.00
67.2782 485.00
67.3434 501.00
67.4086 487.00
67.4738 483.00
67.539 463.00
67.6042 479.00
67.6694 456.00
67.7346 442.00
67.7998 492.00
67.865 479.00
67.9302 471.00
67.9954 595.00
68.0606 596.00
68.1258 645.00
68.191 688.00
68.2562 948.00
68.3214 1361.00
68.3866 935.00
68.4518 807.00
68.517 929.00
68.5822 700.00
68.6474 636.00
68.7126 564.00
68.7778 573.00
68.843 574.00
68.9082 577.00
68.9734 530.00
69.0386 520.00
69.1038 593.00
69.169 542.00
69.2342 567.00
69.2994 545.00
69.3646 585.00
69.4298 553.00
69.495 494.00
69.5602 536.00
69.6254 548.00
69.6906 724.00
69.7558 944.00
69.821 730.00
69.8862 699.00
69.9514 863.00
70.0166 686.00
70.0818 541.00
70.147 576.00
70.2122 557.00
70.2774 474.00
70.3426 487.00
70.4078 506.00
70.473 519.00
70.5382 497.00
70.6034 584.00
70.6686 606.00
70.7338 565.00
70.799 516.00
70.8642 535.00
70.9294 447.00
70.9946 489.00
71.0598 405.00
71.125 461.00
71.1902 411.00
71.2554 441.00
71.3205 473.00
71.3858 408.00
71.451 434.00
71.5162 444.00
71.5813 419.00
71.6465 420.00
71.7117 444.00
71.7769 480.00
71.8421 444.00
71.9073 502.00
71.9725 465.00
72.0377 527.00
72.1029 531.00
72.1681 494.00
72.2333 541.00
72.2985 469.00
72.3637 496.00
72.4289 478.00
72.4941 499.00
72.5593 674.00
72.6245 608.00
72.6897 558.00
72.7549 580.00
72.8201 578.00
72.8853 613.00
72.9505 614.00
73.0157 617.00
73.0809 582.00
73.1461 538.00
73.2113 588.00
73.2765 502.00
73.3417 485.00
73.4069 465.00
73.4721 449.00
73.5373 469.00
73.6025 441.00
73.6677 488.00
73.7329 461.00
73.7981 569.00
73.8633 718.00
73.9285 1048.00
73.9937 806.00
74.0589 639.00
74.1241 783.00
74.1893 665.00
74.2545 583.00
74.3197 497.00
74.3849 533.00
74.4501 494.00
74.5153 487.00
74.5805 504.00
74.6457 521.00
74.7109 588.00
74.7761 670.00
74.8413 577.00
74.9065 607.00
74.9717 646.00
75.0369 613.00
75.1021 630.00
75.1673 628.00
75.2325 817.00
75.2977 1350.00
75.3629 1093.00
75.4281 724.00
75.4933 858.00
75.5585 889.00
75.6237 614.00
75.6889 568.00
75.7541 481.00
75.8193 486.00
75.8845 474.00
75.9497 479.00
76.0149 473.00
76.0801 480.00
76.1452 499.00
76.2104 528.00
76.2756 613.00
76.3409 615.00
76.406 510.00
76.4712 600.00
76.5364 682.00
76.6016 804.00
76.6668 1442.00
76.732 1016.00
76.7972 756.00
76.8624 827.00
76.9276 982.00
76.9928 686.00
77.058 546.00
77.1232 526.00
77.1884 462.00
77.2536 460.00
77.3188 459.00
77.384 445.00
77.4492 468.00
77.5144 461.00
77.5796 531.00
77.6448 481.00
77.71 485.00
77.7752 520.00
77.8404 512.00
77.9056 575.00
77.9708 673.00
78.036 998.00
78.1012 721.00
78.1664 651.00
78.2316 669.00
78.2968 744.00
78.362 628.00
78.4272 603.00
78.4924 592.00
78.5576 513.00
78.6228 518.00
78.688 491.00
78.7532 508.00
78.8184 513.00
78.8836 449.00
78.9488 444.00
79.014 500.00
79.0792 451.00
79.1444 507.00
79.2096 471.00
79.2748 489.00
79.34 741.00
79.4052 1032.00
79.4704 686.00
79.5356 559.00
79.6008 672.00
79.666 654.00
79.7312 541.00
79.7964 451.00
79.8616 475.00
79.9268 465.00
79.992 443.00
80.0572 465.00
80.1224 407.00
80.1876 432.00
80.2528 416.00
80.318 437.00
80.3832 432.00
80.4484 449.00
80.5136 436.00
80.5788 501.00
80.644 519.00
80.7092 726.00
80.7744 706.00
80.8396 540.00
80.9048 577.00
80.9699 599.00
81.0351 523.00
81.1003 451.00
81.1655 508.00
81.2307 438.00
81.2959 435.00
81.3611 449.00
81.4263 430.00
81.4915 418.00
81.5567 442.00
81.6219 489.00
81.6871 520.00
81.7523 462.00
81.8175 517.00
81.8827 553.00
81.9479 589.00
82.0131 773.00
82.0783 1231.00
82.1435 932.00
82.2087 703.00
82.2739 718.00
82.3391 881.00
82.4043 650.00
82.4695 535.00
82.5347 466.00
82.5999 492.00
82.6651 466.00
82.7303 457.00
82.7955 447.00
82.8607 449.00
82.9259 485.00
82.9911 530.00
83.0563 597.00
83.1215 592.00
83.1867 573.00
83.2519 712.00
83.3171 991.00
83.3823 1681.00
83.4475 1889.00
83.5127 1175.00
83.5779 955.00
83.6431 1171.00
83.7083 1172.00
83.7735 727.00
83.8387 564.00
83.9039 524.00
83.9691 510.00
84.0343 469.00
84.0995 444.00
84.1647 488.00
84.2299 468.00
84.2951 461.00
84.3603 483.00
84.4255 476.00
84.4907 449.00
84.5559 463.00
84.6211 459.00
84.6863 512.00
84.7515 542.00
84.8167 421.00
84.8819 447.00
84.9471 433.00
85.0123 459.00
85.0775 440.00
85.1427 458.00
85.2079 444.00
85.2731 483.00
85.3383 452.00
85.4035 456.00
85.4687 479.00
85.5339 457.00
85.5991 507.00
85.6643 508.00
85.7295 585.00
85.7946 554.00
85.8598 614.00
85.925 643.00
85.9903 923.00
86.0554 1441.00
86.1206 1447.00
86.1858 889.00
86.251 814.00
86.3162 1055.00
86.3814 966.00
86.4466 655.00
86.5118 503.00
86.577 561.00
86.6422 491.00
86.7074 500.00
86.7726 475.00
86.8378 474.00
86.903 499.00
86.9682 478.00
87.0334 506.00
87.0986 516.00
87.1638 500.00
87.229 459.00
87.2942 500.00
87.3594 614.00
87.4246 649.00
87.4898 587.00
87.555 469.00
87.6202 514.00
87.6854 556.00
87.7506 484.00
87.8158 449.00
87.881 450.00
87.9462 414.00
88.0114 415.00
88.0766 436.00
88.1418 441.00
88.207 444.00
88.2722 419.00
88.3374 406.00
88.4026 459.00
88.4678 461.00
88.533 450.00
88.5982 512.00
88.6634 541.00
88.7286 738.00
88.7938 707.00
88.859 560.00
88.9242 528.00
88.9894 553.00
89.0546 576.00
89.1198 458.00
89.185 475.00
89.2502 457.00
89.3154 431.00
89.3806 471.00
89.4458 460.00
89.511 449.00
89.5762 467.00
89.6414 456.00
89.7066 468.00
89.7718 472.00
89.837 503.00
89.9022 521.00
89.9674 640.00
90.0326 933.00
90.0978 924.00
90.163 632.00
90.2282 623.00
90.2934 608.00
90.3586 717.00
90.4238 613.00
90.489 516.00
90.5542 490.00
90.6193 480.00
90.6845 458.00
90.7497 465.00
90.8149 432.00
90.8801 486.00
90.9453 514.00
91.0105 508.00
91.0757 475.00
91.1409 470.00
91.2061 480.00
91.2713 495.00
91.3365 476.00
91.4017 525.00
91.4669 445.00
91.5321 468.00
91.5973 427.00
91.6625 440.00
91.7277 448.00
91.7929 436.00
91.8581 355.00
91.9233 439.00
91.9885 436.00
92.0537 414.00
92.1189 376.00
92.1841 449.00
92.2493 445.00
92.3145 474.00
92.3797 479.00
92.4449 469.00
92.5101 510.00
92.5753 543.00
92.6405 680.00
92.7057 952.00
92.7709 754.00
92.8361 624.00
92.9013 569.00
92.9665 679.00
93.0317 712.00
93.0969 609.00
93.1621 541.00
93.2273 480.00
93.2925 466.00
93.3577 460.00
93.4229 467.00
93.4881 484.00
93.5533 447.00
93.6185 449.00
93.6837 467.00
93.7489 475.00
93.8141 449.00
93.8793 458.00
93.9445 471.00
94.0097 425.00
94.0749 428.00
94.1401 418.00
94.2053 402.00
94.2705 402.00
94.3357 429.00
94.4009 460.00
94.4661 407.00
94.5313 418.00
94.5965 458.00
94.6617 431.00
94.7269 451.00
94.7921 474.00
94.8573 429.00
94.9225 451.00
94.9877 428.00
95.0529 475.00
95.1181 507.00
95.1833 511.00
95.2485 557.00
95.3137 772.00
95.3789 951.00
95.444 723.00
95.5092 593.00
95.5744 581.00
95.6396 675.00
95.7048 727.00
95.77 581.00
95.8352 514.00
95.9004 486.00
95.9656 472.00
96.0308 526.00
96.096 457.00
96.1612 423.00
96.2264 420.00
96.2916 474.00
96.3568 509.00
96.422 483.00
96.4872 596.00
96.5524 656.00
96.6176 857.00
96.6828 1320.00
96.748 1184.00
96.8132 811.00
96.8784 640.00
96.9436 788.00
97.0088 878.00
97.074 823.00
97.1392 652.00
97.2044 552.00
97.2696 550.00
97.3348 489.00
97.4 514.00
97.4652 481.00
97.5304 480.00
97.5956 486.00
97.6608 458.00
97.726 480.00
97.7912 496.00
97.8564 513.00
97.9216 609.00
97.9868 771.00
98.052 943.00
98.1172 762.00
98.1824 600.00
98.2476 575.00
98.3128 656.00
98.378 659.00
98.4432 594.00
98.5084 490.00
98.5736 509.00
98.6388 449.00
98.704 428.00
98.7692 482.00
98.8344 415.00
98.8996 450.00
98.9648 460.00
99.03 443.00
99.0952 442.00
99.1604 479.00
99.2256 512.00
99.2908 570.00
99.356 808.00
99.4212 703.00
99.4864 576.00
99.5516 569.00
99.6168 547.00
99.682 646.00
99.7472 633.00
99.8124 558.00
99.8776 536.00
99.9428 528.00
100.008 452.00
100.073 475.00
100.095 464.00