File: data/xrd_creation/results/PG_1518-1.xy
10.0094 2328.00
10.0746 2336.00
10.1398 2221.00
10.205 2235.00
10.2702 2171.00
10.3354 2240.00
10.4006 2184.00
10.4658 2204.00
10.531 2159.00
10.5962 2049.00
10.6614 2075.00
10.7266 2093.00
10.7918 2018.00
10.857 2119.00
10.9222 2082.00
10.9874 2082.00
11.0526 1994.00
11.1178 1943.00
11.183 2010.00
11.2482 1907.00
11.3134 1962.00
11.3786 1980.00
11.4438 1877.00
11.509 1852.00
11.5742 1884.00
11.6394 1849.00
11.7046 1904.00
11.7698 1815.00
11.835 1827.00
11.9002 1808.00
11.9654 1826.00
12.0306 1741.00
12.0958 1765.00
12.161 1696.00
12.2262 1737.00
12.2914 1696.00
12.3566 1723.00
12.4218 1759.00
12.487 1762.00
12.5522 1724.00
12.6174 1626.00
12.6826 1649.00
12.7478 1679.00
12.813 1648.00
12.8782 1639.00
12.9434 1652.00
13.0086 1594.00
13.0738 1641.00
13.139 1578.00
13.2042 1611.00
13.2694 1556.00
13.3346 1519.00
13.3998 1561.00
13.465 1491.00
13.5302 1566.00
13.5954 1477.00
13.6606 1487.00
13.7258 1514.00
13.791 1431.00
13.8562 1469.00
13.9214 1563.00
13.9865 1549.00
14.0517 1528.00
14.1169 1499.00
14.1821 1540.00
14.2473 1452.00
14.3125 1384.00
14.3777 1426.00
14.4429 1394.00
14.5081 1402.00
14.5733 1414.00
14.6385 1440.00
14.7037 1475.00
14.7689 1378.00
14.8341 1453.00
14.8993 1467.00
14.9645 1436.00
15.0297 1389.00
15.0949 1361.00
15.1601 1404.00
15.2253 1376.00
15.2905 1447.00
15.3557 1324.00
15.4209 1395.00
15.4861 1371.00
15.5513 1329.00
15.6165 1369.00
15.6817 1363.00
15.7469 1391.00
15.8121 1355.00
15.8773 1319.00
15.9425 1392.00
16.0077 1356.00
16.0729 1307.00
16.1381 1351.00
16.2033 1323.00
16.2685 1345.00
16.3337 1387.00
16.3989 1290.00
16.4641 1265.00
16.5293 1247.00
16.5945 1302.00
16.6597 1296.00
16.7249 1226.00
16.7901 1212.00
16.8553 1226.00
16.9205 1238.00
16.9857 1260.00
17.0509 1292.00
17.1161 1267.00
17.1813 1212.00
17.2465 1199.00
17.3117 1199.00
17.3769 1219.00
17.4421 1229.00
17.5073 1223.00
17.5725 1225.00
17.6377 1239.00
17.7029 1205.00
17.7681 1325.00
17.8333 1282.00
17.8985 1190.00
17.9637 1226.00
18.0289 1209.00
18.0941 1208.00
18.1593 1211.00
18.2245 1172.00
18.2897 1129.00
18.3549 1155.00
18.4201 1155.00
18.4853 1165.00
18.5505 1212.00
18.6157 1154.00
18.6809 1184.00
18.7461 1252.00
18.8112 1178.00
18.8764 1204.00
18.9416 1253.00
19.0068 1316.00
19.072 1274.00
19.1372 1381.00
19.2024 1377.00
19.2676 1284.00
19.3328 1151.00
19.398 1111.00
19.4632 1098.00
19.5284 1110.00
19.5936 1110.00
19.6588 1092.00
19.724 1097.00
19.7892 1108.00
19.8544 1010.00
19.9196 1075.00
19.9848 1071.00
20.05 990.00
20.1152 1004.00
20.1804 1008.00
20.2456 1051.00
20.3108 1077.00
20.376 1065.00
20.4412 997.00
20.5064 1020.00
20.5716 1010.00
20.6368 1039.00
20.702 1050.00
20.7672 995.00
20.8324 1021.00
20.8976 1011.00
20.9628 1042.00
21.028 1010.00
21.0932 991.00
21.1584 1067.00
21.2236 980.00
21.2888 1008.00
21.354 1017.00
21.4192 1081.00
21.4844 1124.00
21.5496 1299.00
21.6148 1575.00
21.68 1926.00
21.7452 2762.00
21.8104 3469.00
21.8756 2015.00
21.9408 1130.00
22.006 1067.00
22.0712 1024.00
22.1364 966.00
22.2016 947.00
22.2668 978.00
22.332 937.00
22.3972 907.00
22.4624 980.00
22.5276 872.00
22.5928 898.00
22.658 932.00
22.7232 894.00
22.7884 886.00
22.8536 872.00
22.9188 889.00
22.984 911.00
23.0492 911.00
23.1144 917.00
23.1796 875.00
23.2448 928.00
23.31 834.00
23.3752 914.00
23.4404 927.00
23.5056 837.00
23.5708 834.00
23.6359 917.00
23.7011 837.00
23.7663 820.00
23.8315 785.00
23.8967 821.00
23.9619 815.00
24.0271 854.00
24.0923 870.00
24.1575 898.00
24.2227 847.00
24.2879 815.00
24.3531 820.00
24.4183 844.00
24.4835 885.00
24.5487 813.00
24.6139 795.00
24.6791 788.00
24.7443 818.00
24.8095 778.00
24.8747 804.00
24.9399 822.00
25.0051 831.00
25.0703 785.00
25.1355 744.00
25.2007 770.00
25.2659 814.00
25.3311 798.00
25.3963 786.00
25.4615 754.00
25.5267 756.00
25.5919 784.00
25.6571 758.00
25.7223 764.00
25.7875 749.00
25.8527 761.00
25.9179 825.00
25.9831 753.00
26.0483 802.00
26.1135 757.00
26.1787 781.00
26.2439 781.00
26.3091 770.00
26.3743 760.00
26.4395 752.00
26.5047 717.00
26.5699 722.00
26.6351 758.00
26.7003 751.00
26.7655 762.00
26.8307 736.00
26.8959 725.00
26.9611 703.00
27.0263 743.00
27.0915 781.00
27.1567 675.00
27.2219 710.00
27.2871 753.00
27.3523 700.00
27.4175 736.00
27.4827 715.00
27.5479 782.00
27.6131 762.00
27.6783 718.00
27.7435 736.00
27.8087 757.00
27.8739 818.00
27.9391 753.00
28.0043 684.00
28.0695 670.00
28.1347 696.00
28.1999 734.00
28.2651 758.00
28.3303 754.00
28.3955 714.00
28.4606 738.00
28.5258 734.00
28.591 747.00
28.6562 706.00
28.7214 793.00
28.7866 759.00
28.8518 794.00
28.917 755.00
28.9822 784.00
29.0474 773.00
29.1126 801.00
29.1778 792.00
29.243 819.00
29.3082 791.00
29.3734 776.00
29.4386 798.00
29.5038 757.00
29.569 876.00
29.6342 856.00
29.6994 880.00
29.7646 961.00
29.8298 984.00
29.895 1111.00
29.9602 1213.00
30.0254 1223.00
30.0906 1311.00
30.1558 1496.00
30.221 1775.00
30.2862 2062.00
30.3514 2099.00
30.4166 2314.00
30.4818 2243.00
30.547 2646.00
30.6122 3562.00
30.6774 5232.00
30.7426 9000.00
30.8078 17550.00
30.873 29091.00
30.9382 19030.00
31.0034 7516.00
31.0686 2823.00
31.1338 2040.00
31.199 1687.00
31.2642 1521.00
31.3294 1305.00
31.3946 1287.00
31.4598 1269.00
31.525 1306.00
31.5902 1282.00
31.6554 1437.00
31.7206 1557.00
31.7858 1806.00
31.851 2120.00
31.9162 2606.00
31.9814 2671.00
32.0466 2196.00
32.1118 1755.00
32.177 1424.00
32.2422 1214.00
32.3074 1052.00
32.3726 943.00
32.4378 904.00
32.503 818.00
32.5682 861.00
32.6334 821.00
32.6986 773.00
32.7638 853.00
32.829 729.00
32.8942 820.00
32.9594 795.00
33.0246 744.00
33.0898 785.00
33.1549 809.00
33.2201 827.00
33.2853 858.00
33.3505 1085.00
33.4157 1162.00
33.4809 972.00
33.5461 1024.00
33.6113 1085.00
33.6765 1129.00
33.7417 1118.00
33.8069 1116.00
33.8721 956.00
33.9373 960.00
34.0025 840.00
34.0677 786.00
34.1329 765.00
34.1981 822.00
34.2633 904.00
34.3285 868.00
34.3937 821.00
34.4589 823.00
34.5241 863.00
34.5893 823.00
34.6545 897.00
34.7197 863.00
34.7849 872.00
34.8501 844.00
34.9153 913.00
34.9805 1017.00
35.0457 997.00
35.1109 1201.00
35.1761 1336.00
35.2413 1593.00
35.3065 2144.00
35.3717 2652.00
35.4369 2824.00
35.5021 2750.00
35.5673 2779.00
35.6325 3675.00
35.6977 6938.00
35.7629 9136.00
35.8281 5556.00
35.8933 2558.00
35.9585 1300.00
36.0237 986.00
36.0889 884.00
36.1541 813.00
36.2193 766.00
36.2845 733.00
36.3497 730.00
36.4149 663.00
36.4801 706.00
36.5453 685.00
36.6105 696.00
36.6757 690.00
36.7409 742.00
36.8061 723.00
36.8713 713.00
36.9365 702.00
37.0017 746.00
37.0669 733.00
37.1321 832.00
37.1973 760.00
37.2625 841.00
37.3277 873.00
37.3929 916.00
37.4581 1086.00
37.5233 1139.00
37.5885 1201.00
37.6537 1225.00
37.7189 1230.00
37.7841 1196.00
37.8493 1324.00
37.9145 1736.00
37.9796 2357.00
38.0448 1764.00
38.11 1423.00
38.1752 929.00
38.2404 924.00
38.3056 959.00
38.3708 1008.00
38.436 1141.00
38.5012 1270.00
38.5664 1531.00
38.6316 1492.00
38.6968 1323.00
38.762 1187.00
38.8272 990.00
38.8924 791.00
38.9576 688.00
39.0228 631.00
39.088 660.00
39.1532 598.00
39.2184 571.00
39.2836 589.00
39.3488 558.00
39.414 563.00
39.4792 560.00
39.5444 558.00
39.6096 517.00
39.6748 513.00
39.74 559.00
39.8052 540.00
39.8704 571.00
39.9356 552.00
40.0008 614.00
40.066 845.00
40.1312 774.00
40.1964 722.00
40.2616 585.00
40.3268 513.00
40.392 502.00
40.4572 480.00
40.5224 470.00
40.5876 482.00
40.6528 503.00
40.718 497.00
40.7832 500.00
40.8484 518.00
40.9136 495.00
40.9788 498.00
41.044 486.00
41.1092 508.00
41.1744 489.00
41.2396 465.00
41.3048 514.00
41.37 499.00
41.4352 479.00
41.5004 556.00
41.5656 507.00
41.6308 516.00
41.696 514.00
41.7612 525.00
41.8264 566.00
41.8916 560.00
41.9568 623.00
42.022 960.00
42.0872 1579.00
42.1524 1782.00
42.2176 1271.00
42.2828 926.00
42.348 614.00
42.4132 577.00
42.4784 555.00
42.5436 548.00
42.6088 522.00
42.6739 528.00
42.7392 544.00
42.8043 516.00
42.8695 583.00
42.9347 578.00
42.9999 574.00
43.0651 616.00
43.1303 617.00
43.1955 719.00
43.2607 700.00
43.3259 637.00
43.3911 634.00
43.4563 573.00
43.5215 551.00
43.5867 558.00
43.6519 505.00
43.7171 508.00
43.7823 463.00
43.8475 479.00
43.9127 546.00
43.9779 539.00
44.0431 777.00
44.1083 739.00
44.1735 637.00
44.2387 630.00
44.3039 503.00
44.3691 487.00
44.4343 532.00
44.4995 501.00
44.5647 523.00
44.6299 505.00
44.6951 525.00
44.7603 545.00
44.8255 554.00
44.8907 584.00
44.9559 573.00
45.0211 588.00
45.0863 560.00
45.1515 538.00
45.2167 534.00
45.2819 593.00
45.3471 537.00
45.4123 558.00
45.4775 592.00
45.5427 583.00
45.6079 664.00
45.6731 649.00
45.7383 825.00
45.8035 1011.00
45.8687 1618.00
45.9339 3053.00
45.9991 2660.00
46.0643 2219.00
46.1295 1450.00
46.1947 885.00
46.2599 746.00
46.3251 686.00
46.3903 626.00
46.4555 536.00
46.5207 483.00
46.5859 534.00
46.6511 454.00
46.7163 473.00
46.7815 462.00
46.8467 471.00
46.9119 487.00
46.9771 434.00
47.0423 460.00
47.1075 449.00
47.1727 458.00
47.2379 472.00
47.3031 445.00
47.3683 495.00
47.4335 493.00
47.4986 452.00
47.5639 482.00
47.629 502.00
47.6942 503.00
47.7594 455.00
47.8246 437.00
47.8898 482.00
47.955 475.00
48.0202 466.00
48.0854 455.00
48.1506 469.00
48.2158 472.00
48.281 560.00
48.3462 487.00
48.4114 541.00
48.4766 558.00
48.5418 640.00
48.607 623.00
48.6722 673.00
48.7374 698.00
48.8026 758.00
48.8678 715.00
48.933 687.00
48.9982 612.00
49.0634 586.00
49.1286 515.00
49.1938 505.00
49.259 481.00
49.3242 499.00
49.3894 516.00
49.4546 706.00
49.5198 1100.00
49.585 1135.00
49.6502 901.00
49.7154 888.00
49.7806 671.00
49.8458 595.00
49.911 589.00
49.9762 553.00
50.0414 485.00
50.1066 500.00
50.1718 521.00
50.237 466.00
50.3022 508.00
50.3674 480.00
50.4326 458.00
50.4978 514.00
50.563 466.00
50.6282 463.00
50.6934 575.00
50.7586 611.00
50.8238 628.00
50.889 696.00
50.9542 838.00
51.0194 982.00
51.0846 1328.00
51.1498 2368.00
51.215 5427.00
51.2802 11079.00
51.3454 6376.00
51.4106 6226.00
51.4758 3188.00
51.541 1318.00
51.6062 926.00
51.6714 786.00
51.7366 699.00
51.8018 517.00
51.867 520.00
51.9322 500.00
51.9974 488.00
52.0626 481.00
52.1278 496.00
52.193 510.00
52.2582 463.00
52.3233 441.00
52.3886 464.00
52.4537 505.00
52.5189 467.00
52.5841 455.00
52.6493 425.00
52.7145 490.00
52.7797 487.00
52.8449 572.00
52.9101 826.00
52.9753 1158.00
53.0405 777.00
53.1057 825.00
53.1709 632.00
53.2361 466.00
53.3013 440.00
53.3665 454.00
53.4317 477.00
53.4969 462.00
53.5621 482.00
53.6273 444.00
53.6925 432.00
53.7577 410.00
53.8229 446.00
53.8881 412.00
53.9533 438.00
54.0185 470.00
54.0837 428.00
54.1489 453.00
54.2141 449.00
54.2793 435.00
54.3445 437.00
54.4097 473.00
54.4749 549.00
54.5401 547.00
54.6053 648.00
54.6705 628.00
54.7357 613.00
54.8009 560.00
54.8661 517.00
54.9313 493.00
54.9965 412.00
55.0617 463.00
55.1269 465.00
55.1921 417.00
55.2573 445.00
55.3225 462.00
55.3877 398.00
55.4529 382.00
55.5181 470.00
55.5833 443.00
55.6485 426.00
55.7137 421.00
55.7789 458.00
55.8441 528.00
55.9093 490.00
55.9745 547.00
56.0397 520.00
56.1049 729.00
56.1701 1182.00
56.2353 1881.00
56.3005 1189.00
56.3657 1189.00
56.4309 989.00
56.4961 619.00
56.5613 571.00
56.6265 534.00
56.6917 510.00
56.7569 524.00
56.8221 465.00
56.8873 468.00
56.9525 487.00
57.0177 460.00
57.0829 429.00
57.148 457.00
57.2132 549.00
57.2784 516.00
57.3436 583.00
57.4088 554.00
57.474 624.00
57.5392 707.00
57.6044 787.00
57.6696 879.00
57.7348 988.00
57.8 1113.00
57.8652 1121.00
57.9304 1021.00
57.9956 903.00
58.0608 691.00
58.126 634.00
58.1912 584.00
58.2564 602.00
58.3216 508.00
58.3868 522.00
58.452 481.00
58.5172 506.00
58.5824 484.00
58.6476 525.00
58.7128 579.00
58.778 507.00
58.8432 548.00
58.9084 577.00
58.9736 548.00
59.0388 610.00
59.104 604.00
59.1692 707.00
59.2344 767.00
59.2996 1126.00
59.3648 1753.00
59.43 1332.00
59.4952 1196.00
59.5604 1188.00
59.6256 754.00
59.6908 738.00
59.756 654.00
59.8212 709.00
59.8864 651.00
59.9516 740.00
60.0168 731.00
60.082 834.00
60.1472 803.00
60.2124 835.00
60.2776 819.00
60.3428 860.00
60.408 843.00
60.4732 901.00
60.5384 865.00
60.6036 994.00
60.6688 1191.00
60.734 1484.00
60.7992 2367.00
60.8644 5435.00
60.9296 7738.00
60.9948 3969.00
61.06 4626.00
61.1252 3389.00
61.1904 1710.00
61.2556 1223.00
61.3208 920.00
61.386 799.00
61.4512 692.00
61.5164 627.00
61.5816 633.00
61.6468 550.00
61.712 503.00
61.7772 512.00
61.8424 565.00
61.9076 530.00
61.9727 554.00
62.0379 540.00
62.1031 586.00
62.1683 605.00
62.2335 677.00
62.2987 818.00
62.3639 1461.00
62.4291 2084.00
62.4943 1233.00
62.5595 1192.00
62.6247 1243.00
62.6899 836.00
62.7551 753.00
62.8203 736.00
62.8855 700.00
62.9507 665.00
63.0159 682.00
63.0811 595.00
63.1463 611.00
63.2115 567.00
63.2767 553.00
63.3419 536.00
63.4071 582.00
63.4723 587.00
63.5375 551.00
63.6027 639.00
63.6679 611.00
63.7331 717.00
63.7983 860.00
63.8635 1415.00
63.9287 1920.00
63.9939 1208.00
64.0591 1317.00
64.1243 1319.00
64.1895 1015.00
64.2547 951.00
64.3199 1004.00
64.3851 944.00
64.4503 972.00
64.5155 994.00
64.5807 1045.00
64.6459 1183.00
64.7111 1284.00
64.7763 1392.00
64.8415 1379.00
64.9067 1354.00
64.9719 1266.00
65.0371 1073.00
65.1023 937.00
65.1675 758.00
65.2327 748.00
65.2979 786.00
65.3631 1059.00
65.4283 843.00
65.4935 653.00
65.5587 715.00
65.6239 553.00
65.6891 469.00
65.7543 416.00
65.8195 421.00
65.8847 432.00
65.9499 447.00
66.0151 421.00
66.0803 409.00
66.1455 398.00
66.2107 383.00
66.2759 394.00
66.3411 437.00
66.4063 416.00
66.4715 446.00
66.5367 409.00
66.6019 459.00
66.6671 465.00
66.7322 502.00
66.7974 664.00
66.8626 703.00
66.9278 533.00
66.993 582.00
67.0582 584.00
67.1234 437.00
67.1886 442.00
67.2538 421.00
67.319 423.00
67.3842 421.00
67.4494 416.00
67.5146 385.00
67.5798 367.00
67.645 405.00
67.7102 392.00
67.7754 406.00
67.8406 408.00
67.9058 461.00
67.971 448.00
68.0362 461.00
68.1014 488.00
68.1666 625.00
68.2318 1003.00
68.297 1097.00
68.3622 727.00
68.4274 803.00
68.4926 755.00
68.5578 541.00
68.623 470.00
68.6882 433.00
68.7534 445.00
68.8186 441.00
68.8838 457.00
68.949 462.00
69.0142 438.00
69.0794 435.00
69.1446 547.00
69.2098 496.00
69.275 521.00
69.3402 526.00
69.4054 576.00
69.4706 600.00
69.5358 605.00
69.601 700.00
69.6662 904.00
69.7314 982.00
69.7966 686.00
69.8618 777.00
69.927 701.00
69.9922 613.00
70.0574 523.00
70.1226 503.00
70.1878 502.00
70.253 540.00
70.3182 552.00
70.3834 556.00
70.4486 554.00
70.5138 538.00
70.579 545.00
70.6442 506.00
70.7094 521.00
70.7746 485.00
70.8398 434.00
70.905 479.00
70.9702 454.00
71.0354 409.00
71.1006 464.00
71.1658 382.00
71.231 442.00
71.2962 398.00
71.3614 384.00
71.4266 369.00
71.4918 351.00
71.5569 355.00
71.6221 376.00
71.6873 393.00
71.7525 363.00
71.8177 390.00
71.8829 391.00
71.9481 367.00
72.0133 400.00
72.0785 376.00
72.1437 380.00
72.2089 387.00
72.2741 422.00
72.3393 409.00
72.4045 413.00
72.4697 486.00
72.5349 467.00
72.6001 496.00
72.6653 465.00
72.7305 442.00
72.7957 453.00
72.8609 424.00
72.9261 448.00
72.9913 430.00
73.0565 428.00
73.1217 395.00
73.1869 399.00
73.2521 395.00
73.3173 408.00
73.3825 388.00
73.4477 398.00
73.5129 403.00
73.5781 424.00
73.6433 443.00
73.7085 477.00
73.7737 589.00
73.8389 808.00
73.9041 1003.00
73.9693 739.00
74.0345 657.00
74.0997 734.00
74.1649 574.00
74.2301 513.00
74.2953 463.00
74.3605 443.00
74.4257 419.00
74.4909 427.00
74.5561 394.00
74.6213 393.00
74.6865 405.00
74.7517 416.00
74.8169 445.00
74.8821 426.00
74.9473 397.00
75.0125 421.00
75.0777 475.00
75.1429 540.00
75.2081 860.00
75.2733 1270.00
75.3385 800.00
75.4037 670.00
75.4689 780.00
75.5341 697.00
75.5993 535.00
75.6645 422.00
75.7297 416.00
75.7949 395.00
75.8601 387.00
75.9253 395.00
75.9905 358.00
76.0557 354.00
76.1209 379.00
76.186 404.00
76.2513 397.00
76.3165 394.00
76.3816 402.00
76.4468 450.00
76.512 589.00
76.5772 834.00
76.6424 1236.00
76.7076 757.00
76.7728 652.00
76.838 813.00
76.9032 679.00
76.9684 455.00
77.0336 410.00
77.0988 408.00
77.164 362.00
77.2292 352.00
77.2944 381.00
77.3596 345.00
77.4248 364.00
77.49 380.00
77.5552 345.00
77.6204 412.00
77.6856 385.00
77.7508 380.00
77.816 394.00
77.8812 509.00
77.9464 746.00
78.0116 896.00
78.0768 624.00
78.142 559.00
78.2072 673.00
78.2724 548.00
78.3376 468.00
78.4028 422.00
78.468 371.00
78.5332 380.00
78.5984 405.00
78.6636 390.00
78.7288 398.00
78.794 399.00
78.8592 356.00
78.9244 403.00
78.9896 387.00
79.0548 401.00
79.12 420.00
79.1852 500.00
79.2504 506.00
79.3156 797.00
79.3808 771.00
79.446 550.00
79.5112 571.00
79.5764 626.00
79.6416 512.00
79.7068 423.00
79.772 404.00
79.8372 366.00
79.9024 381.00
79.9676 369.00
80.0328 348.00
80.098 362.00
80.1632 388.00
80.2284 369.00
80.2936 359.00
80.3588 350.00
80.424 366.00
80.4892 383.00
80.5544 420.00
80.6196 489.00
80.6848 622.00
80.75 581.00
80.8152 477.00
80.8804 494.00
80.9456 516.00
81.0108 425.00
81.076 402.00
81.1412 378.00
81.2063 360.00
81.2715 396.00
81.3367 358.00
81.4019 331.00
81.4671 385.00
81.5323 346.00
81.5975 372.00
81.6627 410.00
81.7279 389.00
81.7931 429.00
81.8583 477.00
81.9235 602.00
81.9887 880.00
82.0539 1108.00
82.1191 649.00
82.1843 519.00
82.2495 749.00
82.3147 676.00
82.3799 506.00
82.4451 440.00
82.5103 381.00
82.5755 445.00
82.6407 363.00
82.7059 409.00
82.7711 359.00
82.8363 405.00
82.9015 384.00
82.9667 417.00
83.0319 454.00
83.0971 482.00
83.1623 569.00
83.2275 660.00
83.2927 1038.00
83.3579 1861.00
83.4231 1419.00
83.4883 967.00
83.5535 911.00
83.6187 1191.00
83.6839 946.00
83.7491 590.00
83.8143 483.00
83.8795 450.00
83.9447 447.00
84.0099 396.00
84.0751 397.00
84.1403 428.00
84.2055 435.00
84.2707 418.00
84.3359 454.00
84.4011 396.00
84.4663 457.00
84.5315 489.00
84.5967 443.00
84.6619 445.00
84.7271 436.00
84.7923 423.00
84.8575 434.00
84.9227 428.00
84.9879 411.00
85.0531 388.00
85.1183 376.00
85.1835 354.00
85.2487 374.00
85.3139 373.00
85.3791 418.00
85.4443 401.00
85.5095 372.00
85.5747 443.00
85.6399 442.00
85.7051 454.00
85.7703 460.00
85.8354 540.00
85.9006 602.00
85.9659 958.00
86.031 1484.00
86.0962 1159.00
86.1614 757.00
86.2266 753.00
86.2918 1006.00
86.357 815.00
86.4222 557.00
86.4874 437.00
86.5526 426.00
86.6178 399.00
86.683 352.00
86.7482 343.00
86.8134 323.00
86.8786 337.00
86.9438 395.00
87.009 373.00
87.0742 363.00
87.1394 375.00
87.2046 382.00
87.2698 443.00
87.335 541.00
87.4002 499.00
87.4654 485.00
87.5306 378.00
87.5958 441.00
87.661 469.00
87.7262 394.00
87.7914 376.00
87.8566 358.00
87.9218 393.00
87.987 361.00
88.0522 364.00
88.1174 398.00
88.1826 343.00
88.2478 390.00
88.313 383.00
88.3782 369.00
88.4434 363.00
88.5086 382.00
88.5738 409.00
88.639 504.00
88.7042 616.00
88.7694 473.00
88.8346 453.00
88.8998 462.00
88.965 512.00
89.0302 492.00
89.0954 414.00
89.1606 438.00
89.2258 423.00
89.291 417.00
89.3562 385.00
89.4214 424.00
89.4866 391.00
89.5518 410.00
89.617 393.00
89.6822 380.00
89.7474 449.00
89.8126 453.00
89.8778 496.00
89.943 682.00
90.0082 884.00
90.0734 735.00
90.1386 606.00
90.2038 590.00
90.269 646.00
90.3342 669.00
90.3994 520.00
90.4646 437.00
90.5298 431.00
90.595 395.00
90.6601 411.00
90.7253 426.00
90.7905 403.00
90.8557 351.00
90.9209 424.00
90.9861 402.00
91.0513 442.00
91.1165 441.00
91.1817 465.00
91.2469 460.00
91.3121 518.00
91.3773 486.00
91.4425 491.00
91.5077 453.00
91.5729 463.00
91.6381 479.00
91.7033 465.00
91.7685 451.00
91.8337 421.00
91.8989 433.00
91.9641 434.00
92.0293 366.00
92.0945 390.00
92.1597 413.00
92.2249 384.00
92.2901 453.00
92.3553 413.00
92.4205 431.00
92.4857 467.00
92.5509 539.00
92.6161 726.00
92.6813 904.00
92.7465 606.00
92.8117 497.00
92.8769 506.00
92.9421 638.00
93.0073 656.00
93.0725 472.00
93.1377 457.00
93.2029 415.00
93.2681 383.00
93.3333 452.00
93.3985 401.00
93.4637 447.00
93.5289 397.00
93.5941 441.00
93.6593 399.00
93.7245 414.00
93.7897 399.00
93.8549 444.00
93.9201 412.00
93.9853 385.00
94.0505 417.00
94.1157 391.00
94.1809 395.00
94.2461 467.00
94.3113 434.00
94.3765 459.00
94.4417 467.00
94.5069 439.00
94.5721 467.00
94.6373 464.00
94.7025 465.00
94.7677 460.00
94.8329 469.00
94.8981 447.00
94.9633 459.00
95.0285 454.00
95.0937 531.00
95.1589 508.00
95.2241 627.00
95.2893 840.00
95.3545 844.00
95.4197 617.00
95.4848 541.00
95.55 513.00
95.6153 684.00
95.6804 679.00
95.7456 551.00
95.8108 493.00
95.876 473.00
95.9412 529.00
96.0064 514.00
96.0716 503.00
96.1368 479.00
96.202 495.00
96.2672 501.00
96.3324 577.00
96.3976 569.00
96.4628 688.00
96.528 719.00
96.5932 1068.00
96.6584 1339.00
96.7236 1119.00
96.7888 808.00
96.854 714.00
96.9192 797.00
96.9844 906.00
97.0496 717.00
97.1148 516.00
97.18 444.00
97.2452 492.00
97.3104 430.00
97.3756 424.00
97.4408 392.00
97.506 409.00
97.5712 426.00
97.6364 395.00
97.7016 370.00
97.7668 427.00
97.832 470.00
97.8972 555.00
97.9624 800.00
98.0276 821.00
98.0928 568.00
98.158 516.00
98.2232 520.00
98.2884 633.00
98.3536 632.00
98.4188 513.00
98.484 422.00
98.5492 450.00
98.6144 441.00
98.6796 467.00
98.7448 417.00
98.81 394.00
98.8752 466.00
98.9404 399.00
99.0056 423.00
99.0708 441.00
99.136 499.00
99.2012 538.00
99.2664 638.00
99.3316 715.00
99.3968 589.00
99.462 521.00
99.5272 521.00
99.5924 530.00
99.6576 568.00
99.7228 499.00
99.788 483.00
99.8532 410.00
99.9184 423.00
99.9836 403.00
99.9944 366.00