File: data/xrd_creation/results/PG_1421-1.xy
10.0094 3028.00
10.0746 2948.00
10.1398 2951.00
10.205 2918.00
10.2702 3042.00
10.3354 2918.00
10.4006 3021.00
10.4658 2892.00
10.531 2848.00
10.5962 2899.00
10.6614 2782.00
10.7266 2797.00
10.7918 2824.00
10.857 2898.00
10.9222 2832.00
10.9874 2695.00
11.0526 2833.00
11.1178 2726.00
11.183 2682.00
11.2482 2677.00
11.3134 2655.00
11.3786 2809.00
11.4438 2694.00
11.509 2698.00
11.5742 2702.00
11.6394 2673.00
11.7046 2677.00
11.7698 2676.00
11.835 2585.00
11.9002 2604.00
11.9654 2517.00
12.0306 2640.00
12.0958 2590.00
12.161 2632.00
12.2262 2554.00
12.2914 2559.00
12.3566 2578.00
12.4218 2565.00
12.487 2504.00
12.5522 2484.00
12.6174 2499.00
12.6826 2466.00
12.7478 2454.00
12.813 2443.00
12.8782 2519.00
12.9434 2546.00
13.0086 2322.00
13.0738 2508.00
13.139 2438.00
13.2042 2385.00
13.2694 2434.00
13.3346 2469.00
13.3998 2322.00
13.465 2470.00
13.5302 2389.00
13.5954 2449.00
13.6606 2468.00
13.7258 2339.00
13.791 2397.00
13.8562 2408.00
13.9214 2431.00
13.9865 2281.00
14.0517 2336.00
14.1169 2362.00
14.1821 2336.00
14.2473 2375.00
14.3125 2288.00
14.3777 2290.00
14.4429 2414.00
14.5081 2355.00
14.5733 2350.00
14.6385 2321.00
14.7037 2372.00
14.7689 2349.00
14.8341 2291.00
14.8993 2343.00
14.9645 2396.00
15.0297 2207.00
15.0949 2308.00
15.1601 2403.00
15.2253 2336.00
15.2905 2500.00
15.3557 2568.00
15.4209 2626.00
15.4861 2854.00
15.5513 2953.00
15.6165 3430.00
15.6817 3996.00
15.7469 4944.00
15.8121 6406.00
15.8773 8259.00
15.9425 9223.00
16.0077 7604.00
16.0729 5099.00
16.1381 3741.00
16.2033 3002.00
16.2685 2733.00
16.3337 2535.00
16.3989 2506.00
16.4641 2404.00
16.5293 2352.00
16.5945 2398.00
16.6597 2384.00
16.7249 2311.00
16.7901 2339.00
16.8553 2292.00
16.9205 2383.00
16.9857 2300.00
17.0509 2272.00
17.1161 2168.00
17.1813 2189.00
17.2465 2301.00
17.3117 2235.00
17.3769 2233.00
17.4421 2398.00
17.5073 2379.00
17.5725 2269.00
17.6377 2234.00
17.7029 2297.00
17.7681 2243.00
17.8333 2247.00
17.8985 2289.00
17.9637 2267.00
18.0289 2183.00
18.0941 2250.00
18.1593 2236.00
18.2245 2269.00
18.2897 2297.00
18.3549 2301.00
18.4201 2263.00
18.4853 2276.00
18.5505 2231.00
18.6157 2413.00
18.6809 2403.00
18.7461 2565.00
18.8112 2433.00
18.8764 2333.00
18.9416 2304.00
19.0068 2324.00
19.072 2268.00
19.1372 2175.00
19.2024 2293.00
19.2676 2188.00
19.3328 2236.00
19.398 2054.00
19.4632 2184.00
19.5284 2051.00
19.5936 2070.00
19.6588 2154.00
19.724 2087.00
19.7892 2135.00
19.8544 2109.00
19.9196 2169.00
19.9848 2099.00
20.05 2015.00
20.1152 2034.00
20.1804 2019.00
20.2456 1997.00
20.3108 1988.00
20.376 1917.00
20.4412 2095.00
20.5064 1997.00
20.5716 2091.00
20.6368 1995.00
20.702 2101.00
20.7672 1997.00
20.8324 2060.00
20.8976 1975.00
20.9628 2062.00
21.028 1917.00
21.0932 1966.00
21.1584 1988.00
21.2236 2037.00
21.2888 2023.00
21.354 1911.00
21.4192 2048.00
21.4844 1907.00
21.5496 1946.00
21.6148 2014.00
21.68 2055.00
21.7452 1962.00
21.8104 1941.00
21.8756 1996.00
21.9408 2010.00
22.006 1924.00
22.0712 1954.00
22.1364 1874.00
22.2016 1974.00
22.2668 1965.00
22.332 1918.00
22.3972 1933.00
22.4624 1957.00
22.5276 1986.00
22.5928 1962.00
22.658 2023.00
22.7232 2035.00
22.7884 2005.00
22.8536 1944.00
22.9188 1954.00
22.984 1990.00
23.0492 1937.00
23.1144 1996.00
23.1796 2048.00
23.2448 1988.00
23.31 2015.00
23.3752 2000.00
23.4404 1995.00
23.5056 2066.00
23.5708 2003.00
23.6359 1986.00
23.7011 2033.00
23.7663 2075.00
23.8315 2145.00
23.8967 2192.00
23.9619 2124.00
24.0271 2282.00
24.0923 2326.00
24.1575 2188.00
24.2227 2249.00
24.2879 2295.00
24.3531 2248.00
24.4183 2255.00
24.4835 2203.00
24.5487 2240.00
24.6139 2228.00
24.6791 2224.00
24.7443 2135.00
24.8095 2140.00
24.8747 2207.00
24.9399 2090.00
25.0051 2115.00
25.0703 1997.00
25.1355 1956.00
25.2007 1943.00
25.2659 1858.00
25.3311 1933.00
25.3963 1869.00
25.4615 1890.00
25.5267 1873.00
25.5919 1744.00
25.6571 1900.00
25.7223 1841.00
25.7875 1875.00
25.8527 1928.00
25.9179 1970.00
25.9831 1808.00
26.0483 1785.00
26.1135 1788.00
26.1787 1851.00
26.2439 1806.00
26.3091 1801.00
26.3743 1796.00
26.4395 1822.00
26.5047 1856.00
26.5699 1791.00
26.6351 1845.00
26.7003 1906.00
26.7655 1977.00
26.8307 1918.00
26.8959 1836.00
26.9611 2050.00
27.0263 2028.00
27.0915 2094.00
27.1567 2156.00
27.2219 2305.00
27.2871 2707.00
27.3523 3370.00
27.4175 4343.00
27.4827 5809.00
27.5479 7245.00
27.6131 6978.00
27.6783 5287.00
27.7435 4031.00
27.8087 3197.00
27.8739 2885.00
27.9391 2953.00
28.0043 3305.00
28.0695 4167.00
28.1347 5845.00
28.1999 8299.00
28.2651 9672.00
28.3303 8763.00
28.3955 6117.00
28.4606 3995.00
28.5258 2946.00
28.591 2539.00
28.6562 2220.00
28.7214 2088.00
28.7866 2039.00
28.8518 1897.00
28.917 1931.00
28.9822 1858.00
29.0474 1815.00
29.1126 1783.00
29.1778 1825.00
29.243 1774.00
29.3082 1822.00
29.3734 1748.00
29.4386 1821.00
29.5038 1747.00
29.569 1714.00
29.6342 1744.00
29.6994 1712.00
29.7646 1732.00
29.8298 1741.00
29.895 1817.00
29.9602 1793.00
30.0254 1818.00
30.0906 1758.00
30.1558 1796.00
30.221 1827.00
30.2862 1709.00
30.3514 1694.00
30.4166 1708.00
30.4818 1707.00
30.547 1634.00
30.6122 1652.00
30.6774 1668.00
30.7426 1605.00
30.8078 1693.00
30.873 1654.00
30.9382 1635.00
31.0034 1662.00
31.0686 1729.00
31.1338 1681.00
31.199 1684.00
31.2642 1680.00
31.3294 1692.00
31.3946 1685.00
31.4598 1766.00
31.525 1739.00
31.5902 1792.00
31.6554 1874.00
31.7206 2086.00
31.7858 2477.00
31.851 2784.00
31.9162 3005.00
31.9814 2618.00
32.0466 2279.00
32.1118 1875.00
32.177 1808.00
32.2422 1726.00
32.3074 1660.00
32.3726 1640.00
32.4378 1579.00
32.503 1680.00
32.5682 1657.00
32.6334 1593.00
32.6986 1592.00
32.7638 1658.00
32.829 1603.00
32.8942 1542.00
32.9594 1503.00
33.0246 1622.00
33.0898 1556.00
33.1549 1528.00
33.2201 1617.00
33.2853 1545.00
33.3505 1598.00
33.4157 1555.00
33.4809 1548.00
33.5461 1607.00
33.6113 1565.00
33.6765 1583.00
33.7417 1571.00
33.8069 1610.00
33.8721 1628.00
33.9373 1632.00
34.0025 1640.00
34.0677 1594.00
34.1329 1641.00
34.1981 1604.00
34.2633 1660.00
34.3285 1498.00
34.3937 1576.00
34.4589 1582.00
34.5241 1517.00
34.5893 1586.00
34.6545 1519.00
34.7197 1520.00
34.7849 1521.00
34.8501 1538.00
34.9153 1529.00
34.9805 1574.00
35.0457 1546.00
35.1109 1462.00
35.1761 1463.00
35.2413 1588.00
35.3065 1529.00
35.3717 1549.00
35.4369 1422.00
35.5021 1547.00
35.5673 1537.00
35.6325 1581.00
35.6977 1450.00
35.7629 1531.00
35.8281 1522.00
35.8933 1585.00
35.9585 1633.00
36.0237 1635.00
36.0889 1675.00
36.1541 1764.00
36.2193 1823.00
36.2845 1962.00
36.3497 1970.00
36.4149 1771.00
36.4801 1774.00
36.5453 1597.00
36.6105 1528.00
36.6757 1574.00
36.7409 1566.00
36.8061 1528.00
36.8713 1584.00
36.9365 1483.00
37.0017 1483.00
37.0669 1438.00
37.1321 1532.00
37.1973 1470.00
37.2625 1505.00
37.3277 1476.00
37.3929 1479.00
37.4581 1513.00
37.5233 1545.00
37.5885 1530.00
37.6537 1519.00
37.7189 1529.00
37.7841 1535.00
37.8493 1503.00
37.9145 1576.00
37.9796 1487.00
38.0448 1502.00
38.11 1466.00
38.1752 1558.00
38.2404 1539.00
38.3056 1520.00
38.3708 1567.00
38.436 1571.00
38.5012 1575.00
38.5664 1616.00
38.6316 1615.00
38.6968 1597.00
38.762 1511.00
38.8272 1548.00
38.8924 1564.00
38.9576 1563.00
39.0228 1614.00
39.088 1658.00
39.1532 1645.00
39.2184 1685.00
39.2836 1763.00
39.3488 1897.00
39.414 2074.00
39.4792 2434.00
39.5444 3002.00
39.6096 3986.00
39.6748 5385.00
39.74 6362.00
39.8052 6180.00
39.8704 5286.00
39.9356 3942.00
40.0008 2874.00
40.066 2366.00
40.1312 2053.00
40.1964 1828.00
40.2616 1720.00
40.3268 1649.00
40.392 1573.00
40.4572 1608.00
40.5224 1574.00
40.5876 1540.00
40.6528 1494.00
40.718 1492.00
40.7832 1491.00
40.8484 1524.00
40.9136 1424.00
40.9788 1432.00
41.044 1473.00
41.1092 1456.00
41.1744 1477.00
41.2396 1509.00
41.3048 1460.00
41.37 1485.00
41.4352 1418.00
41.5004 1385.00
41.5656 1379.00
41.6308 1487.00
41.696 1461.00
41.7612 1409.00
41.8264 1398.00
41.8916 1380.00
41.9568 1504.00
42.022 1441.00
42.0872 1513.00
42.1524 1528.00
42.2176 1533.00
42.2828 1722.00
42.348 1746.00
42.4132 2006.00
42.4784 2240.00
42.5436 2147.00
42.6088 2023.00
42.6739 1837.00
42.7392 1715.00
42.8043 1590.00
42.8695 1543.00
42.9347 1492.00
42.9999 1438.00
43.0651 1350.00
43.1303 1422.00
43.1955 1471.00
43.2607 1426.00
43.3259 1453.00
43.3911 1389.00
43.4563 1386.00
43.5215 1384.00
43.5867 1409.00
43.6519 1429.00
43.7171 1333.00
43.7823 1397.00
43.8475 1299.00
43.9127 1380.00
43.9779 1398.00
44.0431 1319.00
44.1083 1412.00
44.1735 1435.00
44.2387 1347.00
44.3039 1360.00
44.3691 1323.00
44.4343 1389.00
44.4995 1353.00
44.5647 1348.00
44.6299 1279.00
44.6951 1376.00
44.7603 1370.00
44.8255 1340.00
44.8907 1379.00
44.9559 1405.00
45.0211 1307.00
45.0863 1378.00
45.1515 1410.00
45.2167 1399.00
45.2819 1355.00
45.3471 1383.00
45.4123 1385.00
45.4775 1348.00
45.5427 1362.00
45.6079 1342.00
45.6731 1397.00
45.7383 1349.00
45.8035 1396.00
45.8687 1319.00
45.9339 1391.00
45.9991 1331.00
46.0643 1331.00
46.1295 1346.00
46.1947 1407.00
46.2599 1402.00
46.3251 1343.00
46.3903 1343.00
46.4555 1409.00
46.5207 1433.00
46.5859 1364.00
46.6511 1406.00
46.7163 1410.00
46.7815 1357.00
46.8467 1446.00
46.9119 1431.00
46.9771 1426.00
47.0423 1524.00
47.1075 1613.00
47.1727 1625.00
47.2379 1817.00
47.3031 2139.00
47.3683 2280.00
47.4335 2125.00
47.4986 2015.00
47.5639 1773.00
47.629 1689.00
47.6942 1610.00
47.7594 1590.00
47.8246 1445.00
47.8898 1526.00
47.955 1603.00
48.0202 1581.00
48.0854 1656.00
48.1506 1786.00
48.2158 1879.00
48.281 2182.00
48.3462 2433.00
48.4114 2952.00
48.4766 3197.00
48.5418 3367.00
48.607 3367.00
48.6722 3296.00
48.7374 3767.00
48.8026 4167.00
48.8678 4987.00
48.933 5370.00
48.9982 4768.00
49.0634 4062.00
49.1286 3262.00
49.1938 2649.00
49.259 2178.00
49.3242 1981.00
49.3894 1821.00
49.4546 1757.00
49.5198 1598.00
49.585 1524.00
49.6502 1591.00
49.7154 1545.00
49.7806 1474.00
49.8458 1480.00
49.911 1607.00
49.9762 1611.00
50.0414 1668.00
50.1066 1890.00
50.1718 1898.00
50.237 1945.00
50.3022 1821.00
50.3674 1708.00
50.4326 1631.00
50.4978 1553.00
50.563 1454.00
50.6282 1454.00
50.6934 1396.00
50.7586 1317.00
50.8238 1438.00
50.889 1297.00
50.9542 1342.00
51.0194 1405.00
51.0846 1392.00
51.1498 1362.00
51.215 1289.00
51.2802 1392.00
51.3454 1366.00
51.4106 1347.00
51.4758 1313.00
51.541 1400.00
51.6062 1342.00
51.6714 1385.00
51.7366 1344.00
51.8018 1385.00
51.867 1331.00
51.9322 1316.00
51.9974 1319.00
52.0626 1333.00
52.1278 1354.00
52.193 1270.00
52.2582 1305.00
52.3233 1296.00
52.3886 1315.00
52.4537 1350.00
52.5189 1339.00
52.5841 1351.00
52.6493 1324.00
52.7145 1221.00
52.7797 1385.00
52.8449 1329.00
52.9101 1271.00
52.9753 1340.00
53.0405 1281.00
53.1057 1259.00
53.1709 1267.00
53.2361 1340.00
53.3013 1330.00
53.3665 1317.00
53.4317 1329.00
53.4969 1295.00
53.5621 1306.00
53.6273 1360.00
53.6925 1242.00
53.7577 1338.00
53.8229 1307.00
53.8881 1262.00
53.9533 1329.00
54.0185 1331.00
54.0837 1317.00
54.1489 1330.00
54.2141 1279.00
54.2793 1262.00
54.3445 1343.00
54.4097 1244.00
54.4749 1306.00
54.5401 1324.00
54.6053 1323.00
54.6705 1296.00
54.7357 1322.00
54.8009 1324.00
54.8661 1304.00
54.9313 1296.00
54.9965 1342.00
55.0617 1375.00
55.1269 1407.00
55.1921 1446.00
55.2573 1549.00
55.3225 1625.00
55.3877 1872.00
55.4529 2167.00
55.5181 2234.00
55.5833 2410.00
55.6485 2328.00
55.7137 2052.00
55.7789 1750.00
55.8441 1673.00
55.9093 1582.00
55.9745 1406.00
56.0397 1453.00
56.1049 1480.00
56.1701 1491.00
56.2353 1455.00
56.3005 1525.00
56.3657 1594.00
56.4309 1629.00
56.4961 1802.00
56.5613 1732.00
56.6265 1762.00
56.6917 1700.00
56.7569 1591.00
56.8221 1478.00
56.8873 1484.00
56.9525 1432.00
57.0177 1334.00
57.0829 1396.00
57.148 1326.00
57.2132 1321.00
57.2784 1346.00
57.3436 1288.00
57.4088 1360.00
57.474 1233.00
57.5392 1280.00
57.6044 1324.00
57.6696 1426.00
57.7348 1329.00
57.8 1323.00
57.8652 1348.00
57.9304 1446.00
57.9956 1524.00
58.0608 1610.00
58.126 1540.00
58.1912 1532.00
58.2564 1503.00
58.3216 1479.00
58.3868 1382.00
58.452 1357.00
58.5172 1375.00
58.5824 1383.00
58.6476 1335.00
58.7128 1378.00
58.778 1409.00
58.8432 1325.00
58.9084 1482.00
58.9736 1544.00
59.0388 1484.00
59.104 1628.00
59.1692 1495.00
59.2344 1454.00
59.2996 1434.00
59.3648 1254.00
59.43 1393.00
59.4952 1311.00
59.5604 1345.00
59.6256 1222.00
59.6908 1307.00
59.756 1283.00
59.8212 1299.00
59.8864 1270.00
59.9516 1241.00
60.0168 1242.00
60.082 1229.00
60.1472 1303.00
60.2124 1238.00
60.2776 1274.00
60.3428 1178.00
60.408 1274.00
60.4732 1263.00
60.5384 1222.00
60.6036 1226.00
60.6688 1270.00
60.734 1200.00
60.7992 1258.00
60.8644 1252.00
60.9296 1194.00
60.9948 1251.00
61.06 1282.00
61.1252 1248.00
61.1904 1263.00
61.2556 1266.00
61.3208 1275.00
61.386 1209.00
61.4512 1324.00
61.5164 1237.00
61.5816 1240.00
61.6468 1256.00
61.712 1177.00
61.7772 1287.00
61.8424 1192.00
61.9076 1239.00
61.9727 1216.00
62.0379 1203.00
62.1031 1274.00
62.1683 1248.00
62.2335 1273.00
62.2987 1197.00
62.3639 1308.00
62.4291 1258.00
62.4943 1270.00
62.5595 1284.00
62.6247 1330.00
62.6899 1285.00
62.7551 1225.00
62.8203 1270.00
62.8855 1267.00
62.9507 1275.00
63.0159 1313.00
63.0811 1302.00
63.1463 1318.00
63.2115 1234.00
63.2767 1293.00
63.3419 1182.00
63.4071 1303.00
63.4723 1248.00
63.5375 1286.00
63.6027 1285.00
63.6679 1287.00
63.7331 1315.00
63.7983 1321.00
63.8635 1472.00
63.9287 1530.00
63.9939 1540.00
64.0591 1793.00
64.1243 1855.00
64.1895 1934.00
64.2547 2065.00
64.3199 1947.00
64.3851 2035.00
64.4503 1854.00
64.5155 1650.00
64.5807 1588.00
64.6459 1469.00
64.7111 1451.00
64.7763 1454.00
64.8415 1375.00
64.9067 1368.00
64.9719 1376.00
65.0371 1438.00
65.1023 1376.00
65.1675 1468.00
65.2327 1534.00
65.2979 1569.00
65.3631 1579.00
65.4283 1493.00
65.4935 1458.00
65.5587 1468.00
65.6239 1379.00
65.6891 1338.00
65.7543 1279.00
65.8195 1295.00
65.8847 1293.00
65.9499 1353.00
66.0151 1271.00
66.0803 1322.00
66.1455 1308.00
66.2107 1358.00
66.2759 1356.00
66.3411 1345.00
66.4063 1316.00
66.4715 1292.00
66.5367 1288.00
66.6019 1291.00
66.6671 1273.00
66.7322 1262.00
66.7974 1233.00
66.8626 1262.00
66.9278 1249.00
66.993 1207.00
67.0582 1208.00
67.1234 1222.00
67.1886 1172.00
67.2538 1194.00
67.319 1209.00
67.3842 1251.00
67.4494 1221.00
67.5146 1137.00
67.5798 1241.00
67.645 1166.00
67.7102 1195.00
67.7754 1182.00
67.8406 1275.00
67.9058 1287.00
67.971 1213.00
68.0362 1237.00
68.1014 1206.00
68.1666 1213.00
68.2318 1217.00
68.297 1184.00
68.3622 1237.00
68.4274 1245.00
68.4926 1210.00
68.5578 1212.00
68.623 1253.00
68.6882 1211.00
68.7534 1160.00
68.8186 1234.00
68.8838 1214.00
68.949 1254.00
69.0142 1112.00
69.0794 1219.00
69.1446 1246.00
69.2098 1277.00
69.275 1331.00
69.3402 1270.00
69.4054 1272.00
69.4706 1295.00
69.5358 1319.00
69.601 1413.00
69.6662 1491.00
69.7314 1559.00
69.7966 1649.00
69.8618 1801.00
69.927 1937.00
69.9922 1856.00
70.0574 1742.00
70.1226 1690.00
70.1878 1575.00
70.253 1549.00
70.3182 1393.00
70.3834 1391.00
70.4486 1370.00
70.5138 1299.00
70.579 1293.00
70.6442 1294.00
70.7094 1287.00
70.7746 1335.00
70.8398 1322.00
70.905 1267.00
70.9702 1374.00
71.0354 1444.00
71.1006 1388.00
71.1658 1448.00
71.231 1366.00
71.2962 1512.00
71.3614 1393.00
71.4266 1357.00
71.4918 1248.00
71.5569 1290.00
71.6221 1343.00
71.6873 1195.00
71.7525 1271.00
71.8177 1252.00
71.8829 1282.00
71.9481 1216.00
72.0133 1166.00
72.0785 1147.00
72.1437 1241.00
72.2089 1178.00
72.2741 1155.00
72.3393 1195.00
72.4045 1222.00
72.4697 1225.00
72.5349 1196.00
72.6001 1252.00
72.6653 1286.00
72.7305 1194.00
72.7957 1315.00
72.8609 1226.00
72.9261 1311.00
72.9913 1319.00
73.0565 1378.00
73.1217 1270.00
73.1869 1288.00
73.2521 1368.00
73.3173 1310.00
73.3825 1254.00
73.4477 1203.00
73.5129 1219.00
73.5781 1195.00
73.6433 1209.00
73.7085 1185.00
73.7737 1222.00
73.8389 1129.00
73.9041 1115.00
73.9693 1213.00
74.0345 1212.00
74.0997 1201.00
74.1649 1167.00
74.2301 1175.00
74.2953 1191.00
74.3605 1203.00
74.4257 1163.00
74.4909 1188.00
74.5561 1257.00
74.6213 1186.00
74.6865 1255.00
74.7517 1214.00
74.8169 1210.00
74.8821 1174.00
74.9473 1222.00
75.0125 1150.00
75.0777 1200.00
75.1429 1227.00
75.2081 1265.00
75.2733 1233.00
75.3385 1167.00
75.4037 1278.00
75.4689 1253.00
75.5341 1298.00
75.5993 1251.00
75.6645 1265.00
75.7297 1307.00
75.7949 1340.00
75.8601 1384.00
75.9253 1406.00
75.9905 1499.00
76.0557 1502.00
76.1209 1551.00
76.186 1509.00
76.2513 1517.00
76.3165 1552.00
76.3816 1475.00
76.4468 1545.00
76.512 1587.00
76.5772 1561.00
76.6424 1623.00
76.7076 1584.00
76.7728 1514.00
76.838 1494.00
76.9032 1503.00
76.9684 1510.00
77.0336 1439.00
77.0988 1446.00
77.164 1512.00
77.2292 1558.00
77.2944 1708.00
77.3596 1723.00
77.4248 1787.00
77.49 1845.00
77.5552 1890.00
77.6204 1988.00
77.6856 2076.00
77.7508 2021.00
77.816 1920.00
77.8812 1868.00
77.9464 1863.00
78.0116 1711.00
78.0768 1670.00
78.142 1538.00
78.2072 1476.00
78.2724 1455.00
78.3376 1413.00
78.4028 1397.00
78.468 1389.00
78.5332 1427.00
78.5984 1460.00
78.6636 1377.00
78.7288 1412.00
78.794 1419.00
78.8592 1393.00
78.9244 1369.00
78.9896 1307.00
79.0548 1341.00
79.12 1293.00
79.1852 1303.00
79.2504 1274.00
79.3156 1231.00
79.3808 1346.00
79.446 1223.00
79.5112 1274.00
79.5764 1170.00
79.6416 1240.00
79.7068 1252.00
79.772 1205.00
79.8372 1182.00
79.9024 1170.00
79.9676 1188.00
80.0328 1233.00
80.098 1197.00
80.1632 1174.00
80.2284 1150.00
80.2936 1206.00
80.3588 1194.00
80.424 1228.00
80.4892 1211.00
80.5544 1261.00
80.6196 1253.00
80.6848 1216.00
80.75 1187.00
80.8152 1179.00
80.8804 1165.00
80.9456 1208.00
81.0108 1213.00
81.076 1191.00
81.1412 1199.00
81.2063 1220.00
81.2715 1237.00
81.3367 1219.00
81.4019 1221.00
81.4671 1132.00
81.5323 1195.00
81.5975 1151.00
81.6627 1193.00
81.7279 1194.00
81.7931 1124.00
81.8583 1210.00
81.9235 1263.00
81.9887 1246.00
82.0539 1232.00
82.1191 1210.00
82.1843 1269.00
82.2495 1328.00
82.3147 1285.00
82.3799 1416.00
82.4451 1440.00
82.5103 1452.00
82.5755 1384.00
82.6407 1419.00
82.7059 1421.00
82.7711 1385.00
82.8363 1325.00
82.9015 1351.00
82.9667 1277.00
83.0319 1259.00
83.0971 1283.00
83.1623 1223.00
83.2275 1155.00
83.2927 1224.00
83.3579 1208.00
83.4231 1174.00
83.4883 1124.00
83.5535 1178.00
83.6187 1191.00
83.6839 1208.00
83.7491 1208.00
83.8143 1217.00
83.8795 1207.00
83.9447 1157.00
84.0099 1196.00
84.0751 1218.00
84.1403 1246.00
84.2055 1192.00
84.2707 1224.00
84.3359 1214.00
84.4011 1198.00
84.4663 1178.00
84.5315 1212.00
84.5967 1168.00
84.6619 1177.00
84.7271 1234.00
84.7923 1171.00
84.8575 1226.00
84.9227 1207.00
84.9879 1261.00
85.0531 1222.00
85.1183 1232.00
85.1835 1284.00
85.2487 1320.00
85.3139 1313.00
85.3791 1184.00
85.4443 1245.00
85.5095 1271.00
85.5747 1226.00
85.6399 1236.00
85.7051 1259.00
85.7703 1227.00
85.8354 1255.00
85.9006 1228.00
85.9659 1219.00
86.031 1199.00
86.0962 1152.00
86.1614 1213.00
86.2266 1187.00
86.2918 1231.00
86.357 1157.00
86.4222 1181.00
86.4874 1231.00
86.5526 1201.00
86.6178 1217.00
86.683 1215.00
86.7482 1122.00
86.8134 1140.00
86.8786 1169.00
86.9438 1198.00
87.009 1127.00
87.0742 1170.00
87.1394 1198.00
87.2046 1169.00
87.2698 1239.00
87.335 1182.00
87.4002 1168.00
87.4654 1181.00
87.5306 1216.00
87.5958 1164.00
87.661 1174.00
87.7262 1189.00
87.7914 1180.00
87.8566 1137.00
87.9218 1138.00
87.987 1198.00
88.0522 1256.00
88.1174 1242.00
88.1826 1192.00
88.2478 1269.00
88.313 1189.00
88.3782 1236.00
88.4434 1272.00
88.5086 1242.00
88.5738 1263.00
88.639 1310.00
88.7042 1352.00
88.7694 1390.00
88.8346 1435.00
88.8998 1528.00
88.965 1488.00
89.0302 1533.00
89.0954 1506.00
89.1606 1508.00
89.2258 1465.00
89.291 1376.00
89.3562 1350.00
89.4214 1325.00
89.4866 1256.00
89.5518 1260.00
89.617 1312.00
89.6822 1265.00
89.7474 1256.00
89.8126 1229.00
89.8778 1263.00
89.943 1275.00
90.0082 1285.00
90.0734 1274.00
90.1386 1311.00
90.2038 1288.00
90.269 1345.00
90.3342 1350.00
90.3994 1345.00
90.4646 1418.00
90.5298 1387.00
90.595 1413.00
90.6601 1381.00
90.7253 1414.00
90.7905 1351.00
90.8557 1372.00
90.9209 1252.00
90.9861 1273.00
91.0513 1293.00
91.1165 1294.00
91.1817 1308.00
91.2469 1262.00
91.3121 1201.00
91.3773 1293.00
91.4425 1281.00
91.5077 1285.00
91.5729 1191.00
91.6381 1293.00
91.7033 1253.00
91.7685 1281.00
91.8337 1306.00
91.8989 1306.00
91.9641 1216.00
92.0293 1262.00
92.0945 1216.00
92.1597 1235.00
92.2249 1201.00
92.2901 1268.00
92.3553 1264.00
92.4205 1149.00
92.4857 1187.00
92.5509 1251.00
92.6161 1226.00
92.6813 1205.00
92.7465 1181.00
92.8117 1187.00
92.8769 1160.00
92.9421 1163.00
93.0073 1216.00
93.0725 1196.00
93.1377 1203.00
93.2029 1173.00
93.2681 1133.00
93.3333 1167.00
93.3985 1126.00
93.4637 1102.00
93.5289 1232.00
93.5941 1169.00
93.6593 1198.00
93.7245 1170.00
93.7897 1202.00
93.8549 1141.00
93.9201 1161.00
93.9853 1212.00
94.0505 1195.00
94.1157 1158.00
94.1809 1178.00
94.2461 1165.00
94.3113 1177.00
94.3765 1166.00
94.4417 1219.00
94.5069 1251.00
94.5721 1191.00
94.6373 1228.00
94.7025 1248.00
94.7677 1188.00
94.8329 1174.00
94.8981 1175.00
94.9633 1215.00
95.0285 1188.00
95.0937 1291.00
95.1589 1227.00
95.2241 1297.00
95.2893 1282.00
95.3545 1265.00
95.4197 1398.00
95.4848 1295.00
95.55 1375.00
95.6153 1370.00
95.6804 1494.00
95.7456 1572.00
95.8108 1537.00
95.876 1499.00
95.9412 1515.00
96.0064 1464.00
96.0716 1480.00
96.1368 1386.00
96.202 1419.00
96.2672 1412.00
96.3324 1285.00
96.3976 1317.00
96.4628 1327.00
96.528 1355.00
96.5932 1356.00
96.6584 1390.00
96.7236 1412.00
96.7888 1428.00
96.854 1488.00
96.9192 1444.00
96.9844 1412.00
97.0496 1510.00
97.1148 1386.00
97.18 1367.00
97.2452 1419.00
97.3104 1370.00
97.3756 1295.00
97.4408 1296.00
97.506 1271.00
97.5712 1245.00
97.6364 1219.00
97.7016 1309.00
97.7668 1236.00
97.832 1271.00
97.8972 1251.00
97.9624 1243.00
98.0276 1204.00
98.0928 1226.00
98.158 1142.00
98.2232 1216.00
98.2884 1261.00
98.3536 1187.00
98.4188 1190.00
98.484 1267.00
98.5492 1254.00
98.6144 1255.00
98.6796 1241.00
98.7448 1212.00
98.81 1102.00
98.8752 1188.00
98.9404 1216.00
99.0056 1188.00
99.0708 1222.00
99.136 1255.00
99.2012 1206.00
99.2664 1199.00
99.3316 1200.00
99.3968 1177.00
99.462 1184.00
99.5272 1216.00
99.5924 1187.00
99.6576 1213.00
99.7228 1106.00
99.788 1186.00
99.8532 1209.00
99.9184 1179.00
99.9836 1195.00
99.9944 1248.00