File: data/xrd_creation/results/PG_1852-1.xy
9.903433 2514.00
9.968632 2515.00
10.0338 2497.00
10.099 2455.00
10.1642 2413.00
10.2294 2397.00
10.2946 2354.00
10.3598 2330.00
10.425 2357.00
10.4902 2256.00
10.5554 2407.00
10.6206 2336.00
10.6858 2261.00
10.751 2271.00
10.8162 2234.00
10.8814 2113.00
10.9466 2178.00
11.0118 2161.00
11.077 2171.00
11.1422 2203.00
11.2074 2181.00
11.2726 2195.00
11.3378 2072.00
11.403 2066.00
11.4682 2091.00
11.5334 2087.00
11.5986 2012.00
11.6638 2118.00
11.729 2004.00
11.7942 1937.00
11.8594 2007.00
11.9246 1910.00
11.9898 1957.00
12.055 1905.00
12.1202 1924.00
12.1854 1832.00
12.2506 1835.00
12.3158 1872.00
12.381 1818.00
12.4462 1855.00
12.5114 1788.00
12.5766 1775.00
12.6418 1828.00
12.707 1790.00
12.7722 1758.00
12.8374 1798.00
12.9026 1684.00
12.9678 1722.00
13.033 1695.00
13.0982 1798.00
13.1634 1783.00
13.2286 1713.00
13.2938 1702.00
13.359 1701.00
13.4242 1633.00
13.4894 1724.00
13.5546 1696.00
13.6198 1624.00
13.685 1651.00
13.7502 1663.00
13.8154 1690.00
13.8805 1658.00
13.9457 1680.00
14.0109 1704.00
14.0761 1663.00
14.1413 1598.00
14.2065 1636.00
14.2717 1665.00
14.3369 1600.00
14.4021 1565.00
14.4673 1656.00
14.5325 1640.00
14.5977 1590.00
14.6629 1565.00
14.7281 1617.00
14.7933 1595.00
14.8585 1535.00
14.9237 1623.00
14.9889 1600.00
15.0541 1563.00
15.1193 1563.00
15.1845 1544.00
15.2497 1547.00
15.3149 1533.00
15.3801 1559.00
15.4453 1543.00
15.5105 1543.00
15.5757 1528.00
15.6409 1504.00
15.7061 1550.00
15.7713 1519.00
15.8365 1508.00
15.9017 1600.00
15.9669 1577.00
16.0321 1491.00
16.0973 1465.00
16.1625 1484.00
16.2277 1590.00
16.2929 1473.00
16.3581 1600.00
16.4233 1499.00
16.4885 1510.00
16.5537 1459.00
16.6189 1477.00
16.6841 1526.00
16.7493 1549.00
16.8145 1504.00
16.8797 1475.00
16.9449 1440.00
17.0101 1406.00
17.0753 1461.00
17.1405 1380.00
17.2057 1433.00
17.2709 1454.00
17.3361 1434.00
17.4013 1436.00
17.4665 1373.00
17.5317 1520.00
17.5969 1483.00
17.6621 1395.00
17.7273 1492.00
17.7925 1395.00
17.8577 1389.00
17.9229 1399.00
17.9881 1461.00
18.0533 1314.00
18.1185 1364.00
18.1837 1430.00
18.2489 1386.00
18.3141 1372.00
18.3793 1410.00
18.4445 1365.00
18.5097 1301.00
18.5749 1251.00
18.6401 1279.00
18.7052 1348.00
18.7704 1338.00
18.8356 1328.00
18.9008 1316.00
18.966 1340.00
19.0312 1267.00
19.0964 1304.00
19.1616 1273.00
19.2268 1343.00
19.292 1206.00
19.3572 1311.00
19.4224 1297.00
19.4876 1276.00
19.5528 1294.00
19.618 1240.00
19.6832 1279.00
19.7484 1269.00
19.8136 1305.00
19.8788 1282.00
19.944 1242.00
20.0092 1216.00
20.0744 1245.00
20.1396 1269.00
20.2048 1218.00
20.27 1258.00
20.3352 1235.00
20.4004 1221.00
20.4656 1219.00
20.5308 1247.00
20.596 1236.00
20.6612 1229.00
20.7264 1222.00
20.7916 1258.00
20.8568 1169.00
20.922 1171.00
20.9872 1198.00
21.0524 1259.00
21.1176 1167.00
21.1828 1201.00
21.248 1167.00
21.3132 1247.00
21.3784 1218.00
21.4436 1236.00
21.5088 1342.00
21.574 1346.00
21.6392 1483.00
21.7044 1608.00
21.7696 1676.00
21.8348 1642.00
21.9 1305.00
21.9652 1201.00
22.0304 1196.00
22.0956 1158.00
22.1608 1189.00
22.226 1216.00
22.2912 1193.00
22.3564 1191.00
22.4216 1235.00
22.4868 1211.00
22.552 1134.00
22.6172 1118.00
22.6824 1169.00
22.7476 1162.00
22.8128 1093.00
22.878 1209.00
22.9432 1143.00
23.0084 1157.00
23.0736 1190.00
23.1388 1186.00
23.204 1179.00
23.2692 1113.00
23.3344 1154.00
23.3996 1098.00
23.4647 1102.00
23.5299 1193.00
23.5951 1114.00
23.6603 1112.00
23.7255 1121.00
23.7907 1184.00
23.8559 1118.00
23.9211 1186.00
23.9863 1203.00
24.0515 1234.00
24.1167 1283.00
24.1819 1272.00
24.2471 1332.00
24.3123 1459.00
24.3775 1451.00
24.4427 1326.00
24.5079 1209.00
24.5731 1253.00
24.6383 1255.00
24.7035 1344.00
24.7687 1297.00
24.8339 1242.00
24.8991 1123.00
24.9643 1083.00
25.0295 1125.00
25.0947 1142.00
25.1599 1131.00
25.2251 1023.00
25.2903 1120.00
25.3555 1039.00
25.4207 1155.00
25.4859 1061.00
25.5511 1076.00
25.6163 1072.00
25.6815 1116.00
25.7467 1034.00
25.8119 1011.00
25.8771 1101.00
25.9423 1023.00
26.0075 1047.00
26.0727 1066.00
26.1379 1082.00
26.2031 1030.00
26.2683 1086.00
26.3335 1077.00
26.3987 1138.00
26.4639 1084.00
26.5291 1046.00
26.5943 1002.00
26.6595 1031.00
26.7247 1055.00
26.7899 1061.00
26.8551 1027.00
26.9203 1015.00
26.9855 1023.00
27.0507 1030.00
27.1159 1029.00
27.1811 1054.00
27.2463 1051.00
27.3115 1116.00
27.3767 973.00
27.4419 1038.00
27.5071 1116.00
27.5723 1076.00
27.6375 1087.00
27.7027 1114.00
27.7679 1023.00
27.8331 1086.00
27.8983 1088.00
27.9635 1122.00
28.0287 1270.00
28.0939 1238.00
28.1591 1366.00
28.2243 1652.00
28.2894 1958.00
28.3546 2576.00
28.4198 3083.00
28.485 3292.00
28.5502 2563.00
28.6154 1699.00
28.6806 1344.00
28.7458 1256.00
28.811 1126.00
28.8762 1128.00
28.9414 1111.00
29.0066 1075.00
29.0718 1063.00
29.137 1015.00
29.2022 976.00
29.2674 1021.00
29.3326 972.00
29.3978 1017.00
29.463 950.00
29.5282 1002.00
29.5934 1005.00
29.6586 1010.00
29.7238 976.00
29.789 1025.00
29.8542 1020.00
29.9194 1005.00
29.9846 1045.00
30.0498 1075.00
30.115 1083.00
30.1802 1093.00
30.2454 1155.00
30.3106 1205.00
30.3758 1353.00
30.441 1440.00
30.5062 1686.00
30.5714 2015.00
30.6366 2826.00
30.7018 4001.00
30.767 5809.00
30.8322 7981.00
30.8974 7399.00
30.9626 4320.00
31.0278 2077.00
31.093 1345.00
31.1582 1250.00
31.2234 1208.00
31.2886 1164.00
31.3538 1175.00
31.419 1242.00
31.4842 1425.00
31.5494 1627.00
31.6146 1983.00
31.6798 2383.00
31.745 2597.00
31.8102 2265.00
31.8754 1656.00
31.9406 1208.00
32.0058 1192.00
32.071 1010.00
32.1362 1008.00
32.2014 936.00
32.2666 946.00
32.3318 958.00
32.397 1009.00
32.4622 914.00
32.5274 941.00
32.5926 883.00
32.6578 931.00
32.723 920.00
32.7882 936.00
32.8534 896.00
32.9186 958.00
32.9838 998.00
33.0489 975.00
33.1141 996.00
33.1793 945.00
33.2445 921.00
33.3097 1002.00
33.3749 1012.00
33.4401 990.00
33.5053 915.00
33.5705 903.00
33.6357 906.00
33.7009 913.00
33.7661 951.00
33.8313 932.00
33.8965 923.00
33.9617 974.00
34.0269 899.00
34.0921 953.00
34.1573 1038.00
34.2225 1155.00
34.2877 1253.00
34.3529 1320.00
34.4181 1421.00
34.4833 1341.00
34.5485 1217.00
34.6137 1184.00
34.6789 1272.00
34.7441 1175.00
34.8093 1137.00
34.8745 1042.00
34.9397 1011.00
35.0049 925.00
35.0701 1012.00
35.1353 1033.00
35.2005 976.00
35.2657 1119.00
35.3309 1165.00
35.3961 1279.00
35.4613 1503.00
35.5265 1904.00
35.5917 2296.00
35.6569 2870.00
35.7221 3444.00
35.7873 2850.00
35.8525 1886.00
35.9177 1215.00
35.9829 1026.00
36.0481 989.00
36.1133 1012.00
36.1785 963.00
36.2437 882.00
36.3089 853.00
36.3741 841.00
36.4393 855.00
36.5045 868.00
36.5697 850.00
36.6349 866.00
36.7001 855.00
36.7653 889.00
36.8305 876.00
36.8957 845.00
36.9609 838.00
37.0261 834.00
37.0913 866.00
37.1565 866.00
37.2217 843.00
37.2869 859.00
37.3521 889.00
37.4173 847.00
37.4825 820.00
37.5477 856.00
37.6129 895.00
37.6781 907.00
37.7433 906.00
37.8085 1039.00
37.8736 1178.00
37.9388 1325.00
38.004 1204.00
38.0692 1038.00
38.1344 971.00
38.1996 879.00
38.2648 844.00
38.33 889.00
38.3952 890.00
38.4604 819.00
38.5256 874.00
38.5908 865.00
38.656 867.00
38.7212 939.00
38.7864 969.00
38.8516 935.00
38.9168 950.00
38.982 855.00
39.0472 823.00
39.1124 952.00
39.1776 881.00
39.2428 827.00
39.308 857.00
39.3732 848.00
39.4384 825.00
39.5036 824.00
39.5688 844.00
39.634 834.00
39.6992 868.00
39.7644 897.00
39.8296 863.00
39.8948 875.00
39.96 972.00
40.0252 973.00
40.0904 925.00
40.1556 926.00
40.2208 891.00
40.286 808.00
40.3512 808.00
40.4164 833.00
40.4816 843.00
40.5468 847.00
40.612 843.00
40.6772 864.00
40.7424 907.00
40.8076 945.00
40.8728 1032.00
40.938 1165.00
41.0032 1143.00
41.0684 1136.00
41.1336 1106.00
41.1988 936.00
41.264 962.00
41.3292 1006.00
41.3944 1011.00
41.4596 991.00
41.5248 906.00
41.59 982.00
41.6552 935.00
41.7204 955.00
41.7856 949.00
41.8508 931.00
41.916 960.00
41.9812 1025.00
42.0464 1161.00
42.1116 1295.00
42.1768 1178.00
42.242 1000.00
42.3072 838.00
42.3724 816.00
42.4376 769.00
42.5028 784.00
42.568 744.00
42.6332 760.00
42.6983 840.00
42.7635 811.00
42.8287 812.00
42.8939 808.00
42.9591 808.00
43.0243 764.00
43.0895 846.00
43.1547 815.00
43.2199 783.00
43.2851 800.00
43.3503 766.00
43.4155 805.00
43.4807 825.00
43.5459 818.00
43.6111 793.00
43.6763 771.00
43.7415 790.00
43.8067 779.00
43.8719 778.00
43.9371 840.00
44.0023 818.00
44.0675 873.00
44.1327 851.00
44.1979 810.00
44.2631 779.00
44.3283 806.00
44.3935 777.00
44.4587 826.00
44.5239 834.00
44.5891 794.00
44.6543 812.00
44.7195 820.00
44.7847 820.00
44.8499 834.00
44.9151 926.00
44.9803 1034.00
45.0455 981.00
45.1107 958.00
45.1759 881.00
45.2411 842.00
45.3063 825.00
45.3715 817.00
45.4367 828.00
45.5019 853.00
45.5671 924.00
45.6323 988.00
45.6975 1103.00
45.7627 1201.00
45.8279 1416.00
45.8931 1569.00
45.9583 1648.00
46.0235 1287.00
46.0887 1202.00
46.1539 958.00
46.2191 819.00
46.2843 782.00
46.3495 787.00
46.4147 776.00
46.4799 786.00
46.5451 754.00
46.6103 749.00
46.6755 837.00
46.7407 724.00
46.8059 746.00
46.8711 802.00
46.9363 817.00
47.0015 722.00
47.0667 747.00
47.1319 744.00
47.1971 840.00
47.2623 794.00
47.3275 813.00
47.3927 757.00
47.4579 783.00
47.523 732.00
47.5882 779.00
47.6534 763.00
47.7186 765.00
47.7838 739.00
47.849 748.00
47.9142 780.00
47.9794 761.00
48.0446 759.00
48.1098 753.00
48.175 823.00
48.2402 762.00
48.3054 766.00
48.3706 825.00
48.4358 766.00
48.501 771.00
48.5662 788.00
48.6314 802.00
48.6966 783.00
48.7618 725.00
48.827 761.00
48.8922 807.00
48.9574 847.00
49.0226 814.00
49.0878 895.00
49.153 968.00
49.2182 935.00
49.2834 996.00
49.3486 1099.00
49.4138 1340.00
49.479 1559.00
49.5442 1603.00
49.6094 1423.00
49.6746 1287.00
49.7398 1053.00
49.805 925.00
49.8702 889.00
49.9354 923.00
50.0006 905.00
50.0658 852.00
50.131 937.00
50.1962 1128.00
50.2614 1218.00
50.3266 1536.00
50.3918 1633.00
50.457 1460.00
50.5222 1390.00
50.5874 1284.00
50.6526 1140.00
50.7178 1247.00
50.783 1337.00
50.8482 1323.00
50.9134 1425.00
50.9786 1369.00
51.0438 1615.00
51.109 2054.00
51.1742 3097.00
51.2394 4293.00
51.3046 4143.00
51.3698 3137.00
51.435 2573.00
51.5002 1595.00
51.5654 1181.00
51.6306 1015.00
51.6958 912.00
51.761 899.00
51.8262 840.00
51.8914 789.00
51.9566 762.00
52.0218 836.00
52.087 759.00
52.1522 800.00
52.2174 866.00
52.2826 765.00
52.3477 811.00
52.4129 773.00
52.4781 828.00
52.5433 806.00
52.6085 828.00
52.6737 823.00
52.7389 839.00
52.8041 856.00
52.8693 913.00
52.9345 1020.00
52.9997 963.00
53.0649 896.00
53.1301 876.00
53.1953 831.00
53.2605 782.00
53.3257 744.00
53.3909 785.00
53.4561 800.00
53.5213 825.00
53.5865 776.00
53.6517 705.00
53.7169 805.00
53.7821 813.00
53.8473 846.00
53.9125 802.00
53.9777 836.00
54.0429 916.00
54.1081 929.00
54.1733 1027.00
54.2385 1082.00
54.3037 1166.00
54.3689 1141.00
54.4341 1097.00
54.4993 1068.00
54.5645 935.00
54.6297 848.00
54.6949 835.00
54.7601 822.00
54.8253 788.00
54.8905 756.00
54.9557 804.00
55.0209 754.00
55.0861 832.00
55.1513 824.00
55.2165 847.00
55.2817 871.00
55.3469 926.00
55.4121 1023.00
55.4773 1159.00
55.5425 1199.00
55.6077 1331.00
55.6729 1240.00
55.7381 1100.00
55.8033 1216.00
55.8685 1122.00
55.9337 1107.00
55.9989 1143.00
56.0641 1252.00
56.1293 1422.00
56.1945 1612.00
56.2597 1487.00
56.3249 1317.00
56.3901 1134.00
56.4553 980.00
56.5205 856.00
56.5857 811.00
56.6509 843.00
56.7161 825.00
56.7813 745.00
56.8465 865.00
56.9117 794.00
56.9769 783.00
57.042 859.00
57.1073 782.00
57.1724 838.00
57.2376 932.00
57.3028 940.00
57.368 1063.00
57.4332 1077.00
57.4984 1073.00
57.5636 948.00
57.6288 994.00
57.694 989.00
57.7592 940.00
57.8244 967.00
57.8896 918.00
57.9548 860.00
58.02 921.00
58.0852 986.00
58.1504 969.00
58.2156 961.00
58.2808 882.00
58.346 903.00
58.4112 937.00
58.4764 915.00
58.5416 895.00
58.6068 941.00
58.672 914.00
58.7372 883.00
58.8024 824.00
58.8676 819.00
58.9328 794.00
58.998 875.00
59.0632 811.00
59.1284 883.00
59.1936 962.00
59.2588 1058.00
59.324 1256.00
59.3892 1252.00
59.4544 1039.00
59.5196 980.00
59.5848 970.00
59.65 914.00
59.7152 859.00
59.7804 896.00
59.8456 888.00
59.9108 1006.00
59.976 1131.00
60.0412 1149.00
60.1064 1189.00
60.1716 1120.00
60.2368 1218.00
60.302 1211.00
60.3672 1150.00
60.4324 1102.00
60.4976 1044.00
60.5628 1111.00
60.628 1292.00
60.6932 1437.00
60.7584 1977.00
60.8236 3012.00
60.8888 3742.00
60.954 2851.00
61.0192 2427.00
61.0844 2207.00
61.1496 1373.00
61.2148 1044.00
61.28 1008.00
61.3452 939.00
61.4104 976.00
61.4756 898.00
61.5408 944.00
61.606 1030.00
61.6712 1022.00
61.7364 957.00
61.8016 955.00
61.8667 875.00
61.932 909.00
61.9971 921.00
62.0623 1011.00
62.1275 1056.00
62.1927 1177.00
62.2579 1255.00
62.3231 1326.00
62.3883 1506.00
62.4535 1377.00
62.5187 1137.00
62.5839 1059.00
62.6491 1043.00
62.7143 923.00
62.7795 927.00
62.8447 972.00
62.9099 1035.00
62.9751 1024.00
63.0403 1130.00
63.1055 1153.00
63.1707 1048.00
63.2359 960.00
63.3011 952.00
63.3663 900.00
63.4315 804.00
63.4967 739.00
63.5619 861.00
63.6271 866.00
63.6923 834.00
63.7575 993.00
63.8227 1199.00
63.8879 1320.00
63.9531 1127.00
64.0183 1148.00
64.0835 1046.00
64.1487 940.00
64.2139 852.00
64.2791 895.00
64.3443 883.00
64.4095 922.00
64.4747 862.00
64.5399 910.00
64.6051 838.00
64.6703 810.00
64.7355 862.00
64.8007 853.00
64.8659 828.00
64.9311 854.00
64.9963 758.00
65.0615 825.00
65.1267 808.00
65.1919 814.00
65.2571 890.00
65.3223 1062.00
65.3875 1019.00
65.4527 897.00
65.5179 969.00
65.5831 963.00
65.6483 927.00
65.7135 938.00
65.7787 972.00
65.8439 1080.00
65.9091 1056.00
65.9743 1088.00
66.0395 1024.00
66.1047 971.00
66.1699 906.00
66.2351 889.00
66.3003 894.00
66.3655 824.00
66.4307 775.00
66.4959 809.00
66.561 798.00
66.6263 803.00
66.6915 818.00
66.7566 910.00
66.8218 971.00
66.887 877.00
66.9522 881.00
67.0174 749.00
67.0826 822.00
67.1478 778.00
67.213 785.00
67.2782 781.00
67.3434 792.00
67.4086 747.00
67.4738 709.00
67.539 756.00
67.6042 784.00
67.6694 723.00
67.7346 763.00
67.7998 822.00
67.865 764.00
67.9302 791.00
67.9954 746.00
68.0606 768.00
68.1258 912.00
68.191 1025.00
68.2562 1083.00
68.3214 917.00
68.3866 927.00
68.4518 932.00
68.517 838.00
68.5822 785.00
68.6474 791.00
68.7126 767.00
68.7778 733.00
68.843 752.00
68.9082 741.00
68.9734 782.00
69.0386 835.00
69.1038 794.00
69.169 841.00
69.2342 862.00
69.2994 854.00
69.3646 932.00
69.4298 838.00
69.495 800.00
69.5602 883.00
69.6254 888.00
69.6906 933.00
69.7558 819.00
69.821 901.00
69.8862 843.00
69.9514 854.00
70.0166 793.00
70.0818 741.00
70.147 784.00
70.2122 746.00
70.2774 779.00
70.3426 760.00
70.4078 798.00
70.473 818.00
70.5382 687.00
70.6034 803.00
70.6686 764.00
70.7338 737.00
70.799 807.00
70.8642 711.00
70.9294 813.00
70.9946 797.00
71.0598 769.00
71.125 861.00
71.1902 878.00
71.2554 895.00
71.3205 912.00
71.3858 930.00
71.451 981.00
71.5162 976.00
71.5813 889.00
71.6465 839.00
71.7117 766.00
71.7769 748.00
71.8421 775.00
71.9073 837.00
71.9725 794.00
72.0377 822.00
72.1029 754.00
72.1681 876.00
72.2333 785.00
72.2985 832.00
72.3637 800.00
72.4289 797.00
72.4941 866.00
72.5593 785.00
72.6245 856.00
72.6897 771.00
72.7549 845.00
72.8201 849.00
72.8853 813.00
72.9505 817.00
73.0157 772.00
73.0809 846.00
73.1461 782.00
73.2113 781.00
73.2765 825.00
73.3417 811.00
73.4069 811.00
73.4721 838.00
73.5373 780.00
73.6025 727.00
73.6677 846.00
73.7329 891.00
73.7981 948.00
73.8633 974.00
73.9285 944.00
73.9937 873.00
74.0589 898.00
74.1241 817.00
74.1893 791.00
74.2545 775.00
74.3197 811.00
74.3849 782.00
74.4501 785.00
74.5153 761.00
74.5805 755.00
74.6457 764.00
74.7109 818.00
74.7761 898.00
74.8413 826.00
74.9065 846.00
74.9717 877.00
75.0369 904.00
75.1021 1026.00
75.1673 1048.00
75.2325 1306.00
75.2977 1253.00
75.3629 1165.00
75.4281 1091.00
75.4933 1045.00
75.5585 950.00
75.6237 896.00
75.6889 846.00
75.7541 864.00
75.8193 752.00
75.8845 778.00
75.9497 794.00
76.0149 823.00
76.0801 836.00
76.1452 796.00
76.2104 790.00
76.2756 810.00
76.3409 817.00
76.406 906.00
76.4712 965.00
76.5364 1078.00
76.6016 1280.00
76.6668 1158.00
76.732 1044.00
76.7972 1051.00
76.8624 946.00
76.9276 878.00
76.9928 868.00
77.058 834.00
77.1232 820.00
77.1884 765.00
77.2536 781.00
77.3188 773.00
77.384 859.00
77.4492 832.00
77.5144 815.00
77.5796 802.00
77.6448 785.00
77.71 845.00
77.7752 859.00
77.8404 916.00
77.9056 979.00
77.9708 1040.00
78.036 904.00
78.1012 921.00
78.1664 966.00
78.2316 978.00
78.2968 805.00
78.362 808.00
78.4272 815.00
78.4924 818.00
78.5576 816.00
78.6228 805.00
78.688 830.00
78.7532 778.00
78.8184 811.00
78.8836 800.00
78.9488 834.00
79.014 836.00
79.0792 851.00
79.1444 939.00
79.2096 994.00
79.2748 1019.00
79.34 1104.00
79.4052 980.00
79.4704 913.00
79.5356 877.00
79.6008 939.00
79.666 796.00
79.7312 810.00
79.7964 753.00
79.8616 764.00
79.9268 776.00
79.992 798.00
80.0572 723.00
80.1224 725.00
80.1876 784.00
80.2528 755.00
80.318 840.00
80.3832 775.00
80.4484 762.00
80.5136 832.00
80.5788 864.00
80.644 921.00
80.7092 905.00
80.7744 899.00
80.8396 869.00
80.9048 857.00
80.9699 842.00
81.0351 816.00
81.1003 809.00
81.1655 794.00
81.2307 760.00
81.2959 790.00
81.3611 830.00
81.4263 799.00
81.4915 856.00
81.5567 848.00
81.6219 852.00
81.6871 869.00
81.7523 919.00
81.8175 987.00
81.8827 970.00
81.9479 1063.00
82.0131 1221.00
82.0783 1051.00
82.1435 974.00
82.2087 958.00
82.2739 953.00
82.3391 912.00
82.4043 839.00
82.4695 780.00
82.5347 792.00
82.5999 788.00
82.6651 879.00
82.7303 894.00
82.7955 889.00
82.8607 914.00
82.9259 856.00
82.9911 901.00
83.0563 970.00
83.1215 1009.00
83.1867 1109.00
83.2519 1287.00
83.3171 1544.00
83.3823 1572.00
83.4475 1287.00
83.5127 1233.00
83.5779 1297.00
83.6431 1206.00
83.7083 988.00
83.7735 993.00
83.8387 850.00
83.9039 892.00
83.9691 840.00
84.0343 959.00
84.0995 857.00
84.1647 893.00
84.2299 922.00
84.2951 945.00
84.3603 879.00
84.4255 895.00
84.4907 901.00
84.5559 902.00
84.6211 869.00
84.6863 817.00
84.7515 860.00
84.8167 898.00
84.8819 843.00
84.9471 806.00
85.0123 821.00
85.0775 877.00
85.1427 821.00
85.2079 833.00
85.2731 820.00
85.3383 821.00
85.4035 875.00
85.4687 838.00
85.5339 825.00
85.5991 770.00
85.6643 811.00
85.7295 845.00
85.7946 892.00
85.8598 935.00
85.925 1135.00
85.9903 1256.00
86.0554 1302.00
86.1206 1084.00
86.1858 1097.00
86.251 1124.00
86.3162 1081.00
86.3814 952.00
86.4466 844.00
86.5118 843.00
86.577 818.00
86.6422 844.00
86.7074 770.00
86.7726 837.00
86.8378 839.00
86.903 797.00
86.9682 827.00
87.0334 824.00
87.0986 780.00
87.1638 809.00
87.229 817.00
87.2942 899.00
87.3594 942.00
87.4246 872.00
87.4898 911.00
87.555 887.00
87.6202 947.00
87.6854 905.00
87.7506 899.00
87.8158 811.00
87.881 828.00
87.9462 793.00
88.0114 824.00
88.0766 873.00
88.1418 860.00
88.207 936.00
88.2722 929.00
88.3374 930.00
88.4026 938.00
88.4678 908.00
88.533 949.00
88.5982 998.00
88.6634 1110.00
88.7286 1009.00
88.7938 945.00
88.859 884.00
88.9242 907.00
88.9894 959.00
89.0546 841.00
89.1198 851.00
89.185 864.00
89.2502 848.00
89.3154 880.00
89.3806 826.00
89.4458 825.00
89.511 846.00
89.5762 893.00
89.6414 885.00
89.7066 884.00
89.7718 905.00
89.837 989.00
89.9022 1079.00
89.9674 1069.00
90.0326 1180.00
90.0978 1006.00
90.163 967.00
90.2282 1052.00
90.2934 1043.00
90.3586 919.00
90.4238 879.00
90.489 747.00
90.5542 806.00
90.6193 751.00
90.6845 847.00
90.7497 859.00
90.8149 804.00
90.8801 835.00
90.9453 775.00
91.0105 836.00
91.0757 833.00
91.1409 817.00
91.2061 795.00
91.2713 809.00
91.3365 841.00
91.4017 849.00
91.4669 856.00
91.5321 797.00
91.5973 777.00
91.6625 796.00
91.7277 803.00
91.7929 773.00
91.8581 778.00
91.9233 818.00
91.9885 792.00
92.0537 831.00
92.1189 770.00
92.1841 794.00
92.2493 722.00
92.3145 756.00
92.3797 822.00
92.4449 849.00
92.5101 874.00
92.5753 966.00
92.6405 937.00
92.7057 996.00
92.7709 920.00
92.8361 915.00
92.9013 1005.00
92.9665 940.00
93.0317 857.00
93.0969 854.00
93.1621 815.00
93.2273 754.00
93.2925 793.00
93.3577 787.00
93.4229 739.00
93.4881 798.00
93.5533 816.00
93.6185 764.00
93.6837 773.00
93.7489 756.00
93.8141 898.00
93.8793 803.00
93.9445 833.00
94.0097 871.00
94.0749 853.00
94.1401 852.00
94.2053 873.00
94.2705 872.00
94.3357 753.00
94.4009 824.00
94.4661 867.00
94.5313 739.00
94.5965 816.00
94.6617 811.00
94.7269 813.00
94.7921 834.00
94.8573 812.00
94.9225 889.00
94.9877 887.00
95.0529 886.00
95.1181 931.00
95.1833 1069.00
95.2485 1070.00
95.3137 1146.00
95.3789 1088.00
95.444 1005.00
95.5092 966.00
95.5744 901.00
95.6396 974.00
95.7048 932.00
95.77 817.00
95.8352 816.00
95.9004 883.00
95.9656 842.00
96.0308 815.00
96.096 884.00
96.1612 929.00
96.2264 899.00
96.2916 987.00
96.3568 992.00
96.422 995.00
96.4872 1044.00
96.5524 1316.00
96.6176 1513.00
96.6828 1340.00
96.748 1204.00
96.8132 1167.00
96.8784 1209.00
96.9436 1174.00
97.0088 1180.00
97.074 1060.00
97.1392 942.00
97.2044 937.00
97.2696 900.00
97.3348 884.00
97.4 859.00
97.4652 843.00
97.5304 828.00
97.5956 874.00
97.6608 843.00
97.726 861.00
97.7912 850.00
97.8564 953.00
97.9216 997.00
97.9868 1063.00
98.052 1083.00
98.1172 984.00
98.1824 951.00
98.2476 988.00
98.3128 976.00
98.378 928.00
98.4432 909.00
98.5084 880.00
98.5736 857.00
98.6388 880.00
98.704 831.00
98.7692 857.00
98.8344 928.00
98.8996 978.00
98.9648 955.00
99.03 940.00
99.0952 912.00
99.1604 969.00
99.2256 998.00
99.2908 1105.00
99.356 1077.00
99.4212 1011.00
99.4864 938.00
99.5516 1004.00
99.6168 1061.00
99.682 977.00
99.7472 913.00
99.8124 981.00
99.8776 917.00
99.9428 880.00
100.008 864.00
100.073 841.00
100.095 921.00