File: data/xrd_creation/results/PG_1946-1.xy
9.903433 2585.00
9.968632 2639.00
10.0338 2545.00
10.099 2478.00
10.1642 2502.00
10.2294 2512.00
10.2946 2455.00
10.3598 2371.00
10.425 2477.00
10.4902 2444.00
10.5554 2269.00
10.6206 2383.00
10.6858 2378.00
10.751 2385.00
10.8162 2278.00
10.8814 2449.00
10.9466 2372.00
11.0118 2259.00
11.077 2186.00
11.1422 2245.00
11.2074 2201.00
11.2726 2159.00
11.3378 2153.00
11.403 2324.00
11.4682 2283.00
11.5334 2198.00
11.5986 2365.00
11.6638 2265.00
11.729 2440.00
11.7942 2419.00
11.8594 2474.00
11.9246 2095.00
11.9898 2080.00
12.055 2015.00
12.1202 1988.00
12.1854 2003.00
12.2506 1936.00
12.3158 1981.00
12.381 1865.00
12.4462 1914.00
12.5114 1897.00
12.5766 1879.00
12.6418 1871.00
12.707 1824.00
12.7722 1812.00
12.8374 1721.00
12.9026 1941.00
12.9678 1851.00
13.033 1845.00
13.0982 2005.00
13.1634 1926.00
13.2286 1720.00
13.2938 1781.00
13.359 1706.00
13.4242 1694.00
13.4894 1701.00
13.5546 1592.00
13.6198 1663.00
13.685 1756.00
13.7502 1601.00
13.8154 1655.00
13.8805 1573.00
13.9457 1617.00
14.0109 1533.00
14.0761 1673.00
14.1413 1614.00
14.2065 1547.00
14.2717 1624.00
14.3369 1609.00
14.4021 1574.00
14.4673 1546.00
14.5325 1503.00
14.5977 1518.00
14.6629 1533.00
14.7281 1518.00
14.7933 1517.00
14.8585 1516.00
14.9237 1491.00
14.9889 1478.00
15.0541 1533.00
15.1193 1463.00
15.1845 1561.00
15.2497 1522.00
15.3149 1485.00
15.3801 1487.00
15.4453 1442.00
15.5105 1472.00
15.5757 1496.00
15.6409 1459.00
15.7061 1446.00
15.7713 1434.00
15.8365 1464.00
15.9017 1341.00
15.9669 1444.00
16.0321 1403.00
16.0973 1379.00
16.1625 1434.00
16.2277 1466.00
16.2929 1422.00
16.3581 1366.00
16.4233 1345.00
16.4885 1386.00
16.5537 1377.00
16.6189 1433.00
16.6841 1417.00
16.7493 1296.00
16.8145 1412.00
16.8797 1386.00
16.9449 1363.00
17.0101 1342.00
17.0753 1291.00
17.1405 1377.00
17.2057 1337.00
17.2709 1315.00
17.3361 1309.00
17.4013 1315.00
17.4665 1274.00
17.5317 1226.00
17.5969 1294.00
17.6621 1303.00
17.7273 1258.00
17.7925 1323.00
17.8577 1251.00
17.9229 1289.00
17.9881 1249.00
18.0533 1296.00
18.1185 1272.00
18.1837 1238.00
18.2489 1280.00
18.3141 1227.00
18.3793 1167.00
18.4445 1288.00
18.5097 1191.00
18.5749 1181.00
18.6401 1224.00
18.7052 1241.00
18.7704 1229.00
18.8356 1175.00
18.9008 1221.00
18.966 1200.00
19.0312 1139.00
19.0964 1129.00
19.1616 1143.00
19.2268 1097.00
19.292 1057.00
19.3572 1156.00
19.4224 1213.00
19.4876 1107.00
19.5528 1158.00
19.618 1143.00
19.6832 1130.00
19.7484 1139.00
19.8136 1112.00
19.8788 1103.00
19.944 1131.00
20.0092 1074.00
20.0744 1048.00
20.1396 1082.00
20.2048 1087.00
20.27 1090.00
20.3352 1174.00
20.4004 1091.00
20.4656 1135.00
20.5308 1138.00
20.596 1027.00
20.6612 1025.00
20.7264 1056.00
20.7916 1044.00
20.8568 999.00
20.922 1090.00
20.9872 1027.00
21.0524 1080.00
21.1176 1041.00
21.1828 1089.00
21.248 1015.00
21.3132 974.00
21.3784 1015.00
21.4436 1067.00
21.5088 1111.00
21.574 1052.00
21.6392 1061.00
21.7044 1105.00
21.7696 1003.00
21.8348 1031.00
21.9 1037.00
21.9652 1030.00
22.0304 1024.00
22.0956 1014.00
22.1608 978.00
22.226 969.00
22.2912 945.00
22.3564 962.00
22.4216 958.00
22.4868 1022.00
22.552 931.00
22.6172 993.00
22.6824 940.00
22.7476 962.00
22.8128 932.00
22.878 914.00
22.9432 961.00
23.0084 948.00
23.0736 912.00
23.1388 937.00
23.204 977.00
23.2692 1029.00
23.3344 1173.00
23.3996 1430.00
23.4647 1633.00
23.5299 1368.00
23.5951 928.00
23.6603 981.00
23.7255 948.00
23.7907 862.00
23.8559 936.00
23.9211 902.00
23.9863 930.00
24.0515 931.00
24.1167 915.00
24.1819 969.00
24.2471 970.00
24.3123 906.00
24.3775 965.00
24.4427 951.00
24.5079 947.00
24.5731 962.00
24.6383 996.00
24.7035 913.00
24.7687 992.00
24.8339 999.00
24.8991 969.00
24.9643 947.00
25.0295 992.00
25.0947 1068.00
25.1599 1187.00
25.2251 1229.00
25.2903 1431.00
25.3555 2075.00
25.4207 3453.00
25.4859 6498.00
25.5511 12208.00
25.6163 16424.00
25.6815 10004.00
25.7467 3546.00
25.8119 1752.00
25.8771 1347.00
25.9423 1274.00
26.0075 1327.00
26.0727 1317.00
26.1379 1079.00
26.2031 957.00
26.2683 879.00
26.3335 912.00
26.3987 849.00
26.4639 859.00
26.5291 834.00
26.5943 830.00
26.6595 796.00
26.7247 847.00
26.7899 865.00
26.8551 853.00
26.9203 827.00
26.9855 817.00
27.0507 927.00
27.1159 837.00
27.1811 927.00
27.2463 889.00
27.3115 859.00
27.3767 797.00
27.4419 780.00
27.5071 804.00
27.5723 834.00
27.6375 876.00
27.7027 982.00
27.7679 929.00
27.8331 859.00
27.8983 864.00
27.9635 831.00
28.0287 833.00
28.0939 771.00
28.1591 776.00
28.2243 750.00
28.2894 805.00
28.3546 751.00
28.4198 828.00
28.485 779.00
28.5502 793.00
28.6154 791.00
28.6806 803.00
28.7458 884.00
28.811 936.00
28.8762 1106.00
28.9414 1401.00
29.0066 1300.00
29.0718 1038.00
29.137 883.00
29.2022 950.00
29.2674 978.00
29.3326 1061.00
29.3978 1002.00
29.463 990.00
29.5282 917.00
29.5934 912.00
29.6586 886.00
29.7238 868.00
29.789 854.00
29.8542 966.00
29.9194 1207.00
29.9846 1399.00
30.0498 1308.00
30.115 1396.00
30.1802 1025.00
30.2454 950.00
30.3106 785.00
30.3758 754.00
30.441 733.00
30.5062 762.00
30.5714 748.00
30.6366 734.00
30.7018 795.00
30.767 874.00
30.8322 989.00
30.8974 1427.00
30.9626 2424.00
31.0278 3214.00
31.093 3132.00
31.1582 2036.00
31.2234 1362.00
31.2886 851.00
31.3538 808.00
31.419 735.00
31.4842 821.00
31.5494 819.00
31.6146 782.00
31.6798 829.00
31.745 945.00
31.8102 1225.00
31.8754 2195.00
31.9406 3899.00
32.0058 2962.00
32.071 1589.00
32.1362 843.00
32.2014 878.00
32.2666 791.00
32.3318 1006.00
32.397 1337.00
32.4622 1575.00
32.5274 1398.00
32.5926 1426.00
32.6578 1557.00
32.723 1099.00
32.7882 1022.00
32.8534 1272.00
32.9186 1786.00
32.9838 1285.00
33.0489 966.00
33.1141 692.00
33.1793 700.00
33.2445 674.00
33.3097 661.00
33.3749 652.00
33.4401 666.00
33.5053 653.00
33.5705 597.00
33.6357 671.00
33.7009 649.00
33.7661 640.00
33.8313 743.00
33.8965 713.00
33.9617 840.00
34.0269 749.00
34.0921 660.00
34.1573 612.00
34.2225 602.00
34.2877 618.00
34.3529 692.00
34.4181 753.00
34.4833 972.00
34.5485 1120.00
34.6137 829.00
34.6789 656.00
34.7441 583.00
34.8093 625.00
34.8745 564.00
34.9397 626.00
35.0049 633.00
35.0701 598.00
35.1353 576.00
35.2005 637.00
35.2657 629.00
35.3309 592.00
35.3961 610.00
35.4613 686.00
35.5265 642.00
35.5917 605.00
35.6569 542.00
35.7221 573.00
35.7873 552.00
35.8525 582.00
35.9177 610.00
35.9829 655.00
36.0481 638.00
36.1133 581.00
36.1785 626.00
36.2437 632.00
36.3089 740.00
36.3741 1182.00
36.4393 1792.00
36.5045 1374.00
36.5697 1090.00
36.6349 678.00
36.7001 626.00
36.7653 596.00
36.8305 605.00
36.8957 554.00
36.9609 614.00
37.0261 646.00
37.0913 689.00
37.1565 962.00
37.2217 1361.00
37.2869 1307.00
37.3521 969.00
37.4173 700.00
37.4825 635.00
37.5477 609.00
37.6129 614.00
37.6781 665.00
37.7433 657.00
37.8085 719.00
37.8736 841.00
37.9388 1085.00
38.004 1981.00
38.0692 3610.00
38.1344 3540.00
38.1996 2570.00
38.2648 1541.00
38.33 1203.00
38.3952 1288.00
38.4604 1020.00
38.5256 858.00
38.5908 701.00
38.656 823.00
38.7212 999.00
38.7864 1423.00
38.8516 1835.00
38.9168 1683.00
38.982 1479.00
39.0472 1546.00
39.1124 1785.00
39.1776 1557.00
39.2428 1248.00
39.308 1029.00
39.3732 914.00
39.4384 784.00
39.5036 679.00
39.5688 579.00
39.634 539.00
39.6992 548.00
39.7644 507.00
39.8296 563.00
39.8948 548.00
39.96 615.00
40.0252 717.00
40.0904 696.00
40.1556 732.00
40.2208 526.00
40.286 541.00
40.3512 520.00
40.4164 499.00
40.4816 490.00
40.5468 522.00
40.612 482.00
40.6772 587.00
40.7424 607.00
40.8076 539.00
40.8728 475.00
40.938 443.00
41.0032 481.00
41.0684 461.00
41.1336 492.00
41.1988 461.00
41.264 487.00
41.3292 494.00
41.3944 520.00
41.4596 629.00
41.5248 763.00
41.59 873.00
41.6552 682.00
41.7204 653.00
41.7856 524.00
41.8508 576.00
41.916 686.00
41.9812 591.00
42.0464 642.00
42.1116 525.00
42.1768 474.00
42.242 452.00
42.3072 476.00
42.3724 454.00
42.4376 391.00
42.5028 442.00
42.568 436.00
42.6332 464.00
42.6983 464.00
42.7635 430.00
42.8287 447.00
42.8939 439.00
42.9591 381.00
43.0243 385.00
43.0895 441.00
43.1547 394.00
43.2199 445.00
43.2851 471.00
43.3503 492.00
43.4155 454.00
43.4807 489.00
43.5459 634.00
43.6111 767.00
43.6763 667.00
43.7415 581.00
43.8067 447.00
43.8719 456.00
43.9371 374.00
44.0023 431.00
44.0675 447.00
44.1327 429.00
44.1979 412.00
44.2631 371.00
44.3283 408.00
44.3935 413.00
44.4587 452.00
44.5239 417.00
44.5891 419.00
44.6543 415.00
44.7195 413.00
44.7847 419.00
44.8499 381.00
44.9151 481.00
44.9803 415.00
45.0455 431.00
45.1107 515.00
45.1759 576.00
45.2411 597.00
45.3063 624.00
45.3715 498.00
45.4367 464.00
45.5019 407.00
45.5671 433.00
45.6323 425.00
45.6975 412.00
45.7627 398.00
45.8279 406.00
45.8931 371.00
45.9583 400.00
46.0235 339.00
46.0887 400.00
46.1539 421.00
46.2191 357.00
46.2843 420.00
46.3495 520.00
46.4147 517.00
46.4799 467.00
46.5451 487.00
46.6103 482.00
46.6755 411.00
46.7407 404.00
46.8059 445.00
46.8711 450.00
46.9363 476.00
47.0015 443.00
47.0667 457.00
47.1319 470.00
47.1971 452.00
47.2623 448.00
47.3275 392.00
47.3927 450.00
47.4579 464.00
47.523 545.00
47.5882 708.00
47.6534 823.00
47.7186 672.00
47.7838 693.00
47.849 610.00
47.9142 682.00
47.9794 629.00
48.0446 764.00
48.1098 900.00
48.175 1319.00
48.2402 2863.00
48.3054 5033.00
48.3706 3569.00
48.4358 2936.00
48.501 1590.00
48.5662 752.00
48.6314 578.00
48.6966 509.00
48.7618 514.00
48.827 462.00
48.8922 530.00
48.9574 493.00
49.0226 495.00
49.0878 430.00
49.153 406.00
49.2182 405.00
49.2834 439.00
49.3486 395.00
49.4138 420.00
49.479 397.00
49.5442 504.00
49.6094 663.00
49.6746 566.00
49.7398 562.00
49.805 734.00
49.8702 751.00
49.9354 694.00
50.0006 746.00
50.0658 521.00
50.131 451.00
50.1962 409.00
50.2614 404.00
50.3266 354.00
50.3918 324.00
50.457 347.00
50.5222 365.00
50.5874 322.00
50.6526 351.00
50.7178 363.00
50.783 452.00
50.8482 381.00
50.9134 409.00
50.9786 398.00
51.0438 470.00
51.109 393.00
51.1742 380.00
51.2394 374.00
51.3046 337.00
51.3698 349.00
51.435 352.00
51.5002 370.00
51.5654 369.00
51.6306 449.00
51.6958 582.00
51.761 521.00
51.8262 530.00
51.8914 442.00
51.9566 408.00
52.0218 368.00
52.087 374.00
52.1522 396.00
52.2174 391.00
52.2826 364.00
52.3477 386.00
52.4129 384.00
52.4781 426.00
52.5433 407.00
52.6085 485.00
52.6737 637.00
52.7389 691.00
52.8041 503.00
52.8693 544.00
52.9345 384.00
52.9997 354.00
53.0649 354.00
53.1301 380.00
53.1953 420.00
53.2605 351.00
53.3257 355.00
53.3909 377.00
53.4561 356.00
53.5213 403.00
53.5865 375.00
53.6517 352.00
53.7169 360.00
53.7821 459.00
53.8473 477.00
53.9125 528.00
53.9777 696.00
54.0429 984.00
54.1081 2158.00
54.1733 3125.00
54.2385 1877.00
54.3037 1850.00
54.3689 1152.00
54.4341 589.00
54.4993 492.00
54.5645 509.00
54.6297 486.00
54.6949 455.00
54.7601 407.00
54.8253 392.00
54.8905 416.00
54.9557 411.00
55.0209 433.00
55.0861 492.00
55.1513 605.00
55.2165 1041.00
55.2817 2289.00
55.3469 3005.00
55.4121 1812.00
55.4773 1902.00
55.5425 1047.00
55.6077 740.00
55.6729 636.00
55.7381 497.00
55.8033 489.00
55.8685 395.00
55.9337 418.00
55.9989 408.00
56.0641 392.00
56.1293 391.00
56.1945 362.00
56.2597 341.00
56.3249 325.00
56.3901 327.00
56.4553 366.00
56.5205 315.00
56.5857 334.00
56.6509 316.00
56.7161 330.00
56.7813 359.00
56.8465 321.00
56.9117 377.00
56.9769 351.00
57.042 358.00
57.1073 316.00
57.1724 353.00
57.2376 380.00
57.3028 393.00
57.368 486.00
57.4332 509.00
57.4984 468.00
57.5636 462.00
57.6288 403.00
57.694 489.00
57.7592 527.00
57.8244 461.00
57.8896 406.00
57.9548 383.00
58.02 430.00
58.0852 400.00
58.1504 326.00
58.2156 328.00
58.2808 333.00
58.346 295.00
58.4112 312.00
58.4764 335.00
58.5416 304.00
58.6068 329.00
58.672 328.00
58.7372 335.00
58.8024 330.00
58.8676 277.00
58.9328 323.00
58.998 322.00
59.0632 287.00
59.1284 320.00
59.1936 285.00
59.2588 287.00
59.324 294.00
59.3892 274.00
59.4544 250.00
59.5196 293.00
59.5848 285.00
59.65 309.00
59.7152 306.00
59.7804 299.00
59.8456 298.00
59.9108 357.00
59.976 333.00
60.0412 311.00
60.1064 321.00
60.1716 323.00
60.2368 310.00
60.302 301.00
60.3672 265.00
60.4324 310.00
60.4976 301.00
60.5628 298.00
60.628 291.00
60.6932 298.00
60.7584 326.00
60.8236 324.00
60.8888 307.00
60.954 278.00
61.0192 279.00
61.0844 330.00
61.1496 292.00
61.2148 280.00
61.28 312.00
61.3452 317.00
61.4104 270.00
61.4756 230.00
61.5408 277.00
61.606 321.00
61.6712 279.00
61.7364 298.00
61.8016 277.00
61.8667 332.00
61.932 319.00
61.9971 329.00
62.0623 288.00
62.1275 355.00
62.1927 380.00
62.2579 439.00
62.3231 741.00
62.3883 725.00
62.4535 527.00
62.5187 643.00
62.5839 538.00
62.6491 444.00
62.7143 503.00
62.7795 585.00
62.8447 1012.00
62.9099 2067.00
62.9751 2170.00
63.0403 1246.00
63.1055 1444.00
63.1707 1034.00
63.2359 543.00
63.3011 462.00
63.3663 405.00
63.4315 315.00
63.4967 332.00
63.5619 315.00
63.6271 331.00
63.6923 292.00
63.7575 336.00
63.8227 304.00
63.8879 270.00
63.9531 307.00
64.0183 276.00
64.0835 294.00
64.1487 291.00
64.2139 287.00
64.2791 268.00
64.3443 246.00
64.4095 318.00
64.4747 275.00
64.5399 264.00
64.6051 278.00
64.6703 291.00
64.7355 249.00
64.8007 249.00
64.8659 239.00
64.9311 285.00
64.9963 280.00
65.0615 300.00
65.1267 283.00
65.1919 276.00
65.2571 303.00
65.3223 287.00
65.3875 275.00
65.4527 249.00
65.5179 281.00
65.5831 269.00
65.6483 230.00
65.7135 299.00
65.7787 267.00
65.8439 267.00
65.9091 241.00
65.9743 218.00
66.0395 245.00
66.1047 268.00
66.1699 248.00
66.2351 305.00
66.3003 346.00
66.3655 371.00
66.4307 308.00
66.4959 363.00
66.561 378.00
66.6263 325.00
66.6915 299.00
66.7566 295.00
66.8218 241.00
66.887 270.00
66.9522 267.00
67.0174 266.00
67.0826 277.00
67.1478 296.00
67.213 321.00
67.2782 341.00
67.3434 317.00
67.4086 286.00
67.4738 312.00
67.539 315.00
67.6042 297.00
67.6694 300.00
67.7346 292.00
67.7998 333.00
67.865 339.00
67.9302 326.00
67.9954 306.00
68.0606 336.00
68.1258 293.00
68.191 291.00
68.2562 293.00
68.3214 311.00
68.3866 291.00
68.4518 338.00
68.517 365.00
68.5822 336.00
68.6474 344.00
68.7126 325.00
68.7778 351.00
68.843 402.00
68.9082 499.00
68.9734 915.00
69.0386 1109.00
69.1038 706.00
69.169 745.00
69.2342 758.00
69.2994 442.00
69.3646 410.00
69.4298 378.00
69.495 298.00
69.5602 319.00
69.6254 306.00
69.6906 304.00
69.7558 288.00
69.821 267.00
69.8862 301.00
69.9514 282.00
70.0166 316.00
70.0818 294.00
70.147 295.00
70.2122 344.00
70.2774 382.00
70.3426 427.00
70.4078 514.00
70.473 896.00
70.5382 1203.00
70.6034 703.00
70.6686 590.00
70.7338 779.00
70.799 498.00
70.8642 346.00
70.9294 320.00
70.9946 360.00
71.0598 355.00
71.125 352.00
71.1902 355.00
71.2554 330.00
71.3205 294.00
71.3858 283.00
71.451 274.00
71.5162 239.00
71.5813 232.00
71.6465 232.00
71.7117 228.00
71.7769 218.00
71.8421 230.00
71.9073 277.00
71.9725 245.00
72.0377 237.00
72.1029 277.00
72.1681 267.00
72.2333 261.00
72.2985 225.00
72.3637 269.00
72.4289 259.00
72.4941 279.00
72.5593 241.00
72.6245 245.00
72.6897 338.00
72.7549 262.00
72.8201 315.00
72.8853 304.00
72.9505 302.00
73.0157 246.00
73.0809 279.00
73.1461 245.00
73.2113 224.00
73.2765 238.00
73.3417 230.00
73.4069 235.00
73.4721 249.00
73.5373 238.00
73.6025 258.00
73.6677 249.00
73.7329 305.00
73.7981 214.00
73.8633 248.00
73.9285 240.00
73.9937 260.00
74.0589 243.00
74.1241 261.00
74.1893 265.00
74.2545 324.00
74.3197 321.00
74.3849 300.00
74.4501 308.00
74.5153 319.00
74.5805 275.00
74.6457 272.00
74.7109 246.00
74.7761 238.00
74.8413 239.00
74.9065 270.00
74.9717 296.00
75.0369 315.00
75.1021 401.00
75.1673 639.00
75.2325 1209.00
75.2977 1695.00
75.3629 977.00
75.4281 713.00
75.4933 995.00
75.5585 716.00
75.6237 436.00
75.6889 328.00
75.7541 301.00
75.8193 307.00
75.8845 272.00
75.9497 269.00
76.0149 296.00
76.0801 319.00
76.1452 314.00
76.2104 500.00
76.2756 629.00
76.3409 415.00
76.406 331.00
76.4712 457.00
76.5364 362.00
76.6016 294.00
76.6668 243.00
76.732 221.00
76.7972 238.00
76.8624 241.00
76.9276 247.00
76.9928 224.00
77.058 214.00
77.1232 235.00
77.1884 229.00
77.2536 228.00
77.3188 260.00
77.384 218.00
77.4492 205.00
77.5144 214.00
77.5796 223.00
77.6448 246.00
77.71 215.00
77.7752 240.00
77.8404 240.00
77.9056 211.00
77.9708 212.00
78.036 236.00
78.1012 227.00
78.1664 211.00
78.2316 239.00
78.2968 285.00
78.362 250.00
78.4272 265.00
78.4924 208.00
78.5576 276.00
78.6228 203.00
78.688 237.00
78.7532 230.00
78.8184 240.00
78.8836 229.00
78.9488 223.00
79.014 251.00
79.0792 236.00
79.1444 309.00
79.2096 274.00
79.2748 225.00
79.34 265.00
79.4052 256.00
79.4704 258.00
79.5356 213.00
79.6008 237.00
79.666 192.00
79.7312 208.00
79.7964 225.00
79.8616 226.00
79.9268 219.00
79.992 217.00
80.0572 249.00
80.1224 188.00
80.1876 232.00
80.2528 227.00
80.318 228.00
80.3832 235.00
80.4484 224.00
80.5136 236.00
80.5788 226.00
80.644 236.00
80.7092 271.00
80.7744 240.00
80.8396 261.00
80.9048 279.00
80.9699 326.00
81.0351 286.00
81.1003 295.00
81.1655 313.00
81.2307 291.00
81.2959 213.00
81.3611 209.00
81.4263 249.00
81.4915 223.00
81.5567 194.00
81.6219 216.00
81.6871 229.00
81.7523 228.00
81.8175 205.00
81.8827 228.00
81.9479 232.00
82.0131 284.00
82.0783 238.00
82.1435 285.00
82.2087 266.00
82.2739 299.00
82.3391 365.00
82.4043 370.00
82.4695 374.00
82.5347 328.00
82.5999 371.00
82.6651 348.00
82.7303 387.00
82.7955 490.00
82.8607 840.00
82.9259 832.00
82.9911 493.00
83.0563 488.00
83.1215 565.00
83.1867 595.00
83.2519 382.00
83.3171 482.00
83.3823 562.00
83.4475 447.00
83.5127 312.00
83.5779 363.00
83.6431 378.00
83.7083 276.00
83.7735 263.00
83.8387 244.00
83.9039 203.00
83.9691 237.00
84.0343 206.00
84.0995 219.00
84.1647 270.00
84.2299 223.00
84.2951 204.00
84.3603 195.00
84.4255 242.00
84.4907 200.00
84.5559 191.00
84.6211 207.00
84.6863 205.00
84.7515 204.00
84.8167 186.00
84.8819 188.00
84.9471 230.00
85.0123 221.00
85.0775 223.00
85.1427 219.00
85.2079 230.00
85.2731 248.00
85.3383 216.00
85.4035 258.00
85.4687 260.00
85.5339 208.00
85.5991 207.00
85.6643 238.00
85.7295 226.00
85.7946 261.00
85.8598 210.00
85.925 220.00
85.9903 232.00
86.0554 225.00
86.1206 221.00
86.1858 210.00
86.251 218.00
86.3162 204.00
86.3814 180.00
86.4466 213.00
86.5118 206.00
86.577 222.00
86.6422 187.00
86.7074 217.00
86.7726 219.00
86.8378 226.00
86.903 204.00
86.9682 220.00
87.0334 189.00
87.0986 217.00
87.1638 191.00
87.229 222.00
87.2942 206.00
87.3594 217.00
87.4246 174.00
87.4898 183.00
87.555 203.00
87.6202 204.00
87.6854 187.00
87.7506 235.00
87.8158 208.00
87.881 189.00
87.9462 171.00
88.0114 171.00
88.0766 224.00
88.1418 194.00
88.207 197.00
88.2722 206.00
88.3374 180.00
88.4026 209.00
88.4678 188.00
88.533 174.00
88.5982 176.00
88.6634 203.00
88.7286 209.00
88.7938 193.00
88.859 203.00
88.9242 208.00
88.9894 191.00
89.0546 198.00
89.1198 195.00
89.185 176.00
89.2502 198.00
89.3154 193.00
89.3806 202.00
89.4458 223.00
89.511 217.00
89.5762 235.00
89.6414 242.00
89.7066 239.00
89.7718 187.00
89.837 236.00
89.9022 219.00
89.9674 209.00
90.0326 204.00
90.0978 233.00
90.163 215.00
90.2282 186.00
90.2934 184.00
90.3586 204.00
90.4238 222.00
90.489 184.00
90.5542 215.00
90.6193 174.00
90.6845 201.00
90.7497 186.00
90.8149 203.00
90.8801 198.00
90.9453 207.00
91.0105 215.00
91.0757 192.00
91.1409 186.00
91.2061 191.00
91.2713 205.00
91.3365 188.00
91.4017 197.00
91.4669 216.00
91.5321 190.00
91.5973 207.00
91.6625 191.00
91.7277 205.00
91.7929 170.00
91.8581 196.00
91.9233 171.00
91.9885 179.00
92.0537 199.00
92.1189 208.00
92.1841 185.00
92.2493 189.00
92.3145 196.00
92.3797 223.00
92.4449 166.00
92.5101 202.00
92.5753 191.00
92.6405 187.00
92.7057 184.00
92.7709 199.00
92.8361 209.00
92.9013 199.00
92.9665 221.00
93.0317 235.00
93.0969 215.00
93.1621 208.00
93.2273 191.00
93.2925 225.00
93.3577 272.00
93.4229 306.00
93.4881 271.00
93.5533 231.00
93.6185 224.00
93.6837 246.00
93.7489 236.00
93.8141 225.00
93.8793 208.00
93.9445 183.00
94.0097 214.00
94.0749 188.00
94.1401 221.00
94.2053 250.00
94.2705 281.00
94.3357 447.00
94.4009 497.00
94.4661 462.00
94.5313 337.00
94.5965 330.00
94.6617 354.00
94.7269 368.00
94.7921 284.00
94.8573 289.00
94.9225 217.00
94.9877 235.00
95.0529 238.00
95.1181 223.00
95.1833 267.00
95.2485 363.00
95.3137 477.00
95.3789 577.00
95.444 373.00
95.5092 317.00
95.5744 326.00
95.6396 430.00
95.7048 373.00
95.77 292.00
95.8352 233.00
95.9004 226.00
95.9656 202.00
96.0308 232.00
96.096 239.00
96.1612 208.00
96.2264 202.00
96.2916 224.00
96.3568 194.00
96.422 211.00
96.4872 200.00
96.5524 223.00
96.6176 207.00
96.6828 191.00
96.748 179.00
96.8132 193.00
96.8784 188.00
96.9436 214.00
97.0088 199.00
97.074 193.00
97.1392 191.00
97.2044 188.00
97.2696 180.00
97.3348 211.00
97.4 210.00
97.4652 200.00
97.5304 179.00
97.5956 184.00
97.6608 209.00
97.726 185.00
97.7912 185.00
97.8564 218.00
97.9216 214.00
97.9868 222.00
98.052 191.00
98.1172 210.00
98.1824 209.00
98.2476 209.00
98.3128 208.00
98.378 250.00
98.4432 312.00
98.5084 365.00
98.5736 459.00
98.6388 299.00
98.704 250.00
98.7692 220.00
98.8344 325.00
98.8996 296.00
98.9648 234.00
99.03 217.00
99.0952 230.00
99.1604 188.00
99.2256 197.00
99.2908 202.00
99.356 230.00
99.4212 233.00
99.4864 182.00
99.5516 214.00
99.6168 210.00
99.682 197.00
99.7472 198.00
99.8124 232.00
99.8776 241.00
99.9428 322.00
100.008 360.00
100.073 288.00
100.095 309.00