File: data/xrd_creation/results/PG_1952-1.xy
9.903433 2918.00
9.968632 2857.00
10.0338 2934.00
10.099 2840.00
10.1642 2885.00
10.2294 2792.00
10.2946 2803.00
10.3598 2734.00
10.425 2869.00
10.4902 2705.00
10.5554 2769.00
10.6206 2555.00
10.6858 2686.00
10.751 2725.00
10.8162 2671.00
10.8814 2630.00
10.9466 2697.00
11.0118 2635.00
11.077 2607.00
11.1422 2614.00
11.2074 2611.00
11.2726 2525.00
11.3378 2574.00
11.403 2614.00
11.4682 2494.00
11.5334 2542.00
11.5986 2589.00
11.6638 2631.00
11.729 2500.00
11.7942 2550.00
11.8594 2615.00
11.9246 2506.00
11.9898 2576.00
12.055 2494.00
12.1202 2545.00
12.1854 2404.00
12.2506 2393.00
12.3158 2468.00
12.381 2446.00
12.4462 2441.00
12.5114 2416.00
12.5766 2420.00
12.6418 2403.00
12.707 2406.00
12.7722 2557.00
12.8374 2523.00
12.9026 2564.00
12.9678 2637.00
13.033 3025.00
13.0982 3131.00
13.1634 3185.00
13.2286 2720.00
13.2938 2472.00
13.359 2392.00
13.4242 2370.00
13.4894 2289.00
13.5546 2412.00
13.6198 2301.00
13.685 2321.00
13.7502 2342.00
13.8154 2255.00
13.8805 2286.00
13.9457 2274.00
14.0109 2295.00
14.0761 2362.00
14.1413 2226.00
14.2065 2299.00
14.2717 2334.00
14.3369 2317.00
14.4021 2341.00
14.4673 2264.00
14.5325 2383.00
14.5977 2313.00
14.6629 2261.00
14.7281 2294.00
14.7933 2334.00
14.8585 2306.00
14.9237 2275.00
14.9889 2265.00
15.0541 2170.00
15.1193 2265.00
15.1845 2229.00
15.2497 2295.00
15.3149 2344.00
15.3801 2235.00
15.4453 2311.00
15.5105 2280.00
15.5757 2305.00
15.6409 2283.00
15.7061 2299.00
15.7713 2096.00
15.8365 2139.00
15.9017 2246.00
15.9669 2342.00
16.0321 2251.00
16.0973 2233.00
16.1625 2232.00
16.2277 2171.00
16.2929 2114.00
16.3581 2212.00
16.4233 2197.00
16.4885 2199.00
16.5537 2178.00
16.6189 2143.00
16.6841 2173.00
16.7493 2206.00
16.8145 2164.00
16.8797 2187.00
16.9449 2140.00
17.0101 2137.00
17.0753 2079.00
17.1405 2192.00
17.2057 2225.00
17.2709 2195.00
17.3361 2262.00
17.4013 2164.00
17.4665 2231.00
17.5317 2395.00
17.5969 2345.00
17.6621 2553.00
17.7273 2754.00
17.7925 2918.00
17.8577 2655.00
17.9229 2389.00
17.9881 2199.00
18.0533 2042.00
18.1185 2183.00
18.1837 2052.00
18.2489 2068.00
18.3141 1976.00
18.3793 2026.00
18.4445 2120.00
18.5097 1975.00
18.5749 2113.00
18.6401 2138.00
18.7052 2062.00
18.7704 2022.00
18.8356 2021.00
18.9008 2043.00
18.966 2004.00
19.0312 2049.00
19.0964 2042.00
19.1616 1918.00
19.2268 1944.00
19.292 1917.00
19.3572 2049.00
19.4224 1944.00
19.4876 1988.00
19.5528 1921.00
19.618 1959.00
19.6832 1954.00
19.7484 1938.00
19.8136 1893.00
19.8788 1919.00
19.944 1920.00
20.0092 1915.00
20.0744 1957.00
20.1396 1841.00
20.2048 1899.00
20.27 1890.00
20.3352 1932.00
20.4004 1830.00
20.4656 1899.00
20.5308 1944.00
20.596 1856.00
20.6612 1898.00
20.7264 1929.00
20.7916 1886.00
20.8568 1875.00
20.922 1930.00
20.9872 1853.00
21.0524 1900.00
21.1176 1907.00
21.1828 1875.00
21.248 1954.00
21.3132 1832.00
21.3784 1869.00
21.4436 1922.00
21.5088 1846.00
21.574 1807.00
21.6392 1871.00
21.7044 1886.00
21.7696 1802.00
21.8348 1898.00
21.9 1900.00
21.9652 1868.00
22.0304 1903.00
22.0956 1806.00
22.1608 1901.00
22.226 1901.00
22.2912 1866.00
22.3564 1850.00
22.4216 1899.00
22.4868 1775.00
22.552 1872.00
22.6172 1861.00
22.6824 1873.00
22.7476 1793.00
22.8128 1772.00
22.878 1867.00
22.9432 1799.00
23.0084 1772.00
23.0736 1827.00
23.1388 1847.00
23.204 1829.00
23.2692 1931.00
23.3344 1955.00
23.3996 2046.00
23.4647 1981.00
23.5299 1965.00
23.5951 1856.00
23.6603 1825.00
23.7255 1893.00
23.7907 1846.00
23.8559 1875.00
23.9211 1873.00
23.9863 1960.00
24.0515 1889.00
24.1167 2146.00
24.1819 2454.00
24.2471 2936.00
24.3123 3839.00
24.3775 4794.00
24.4427 4274.00
24.5079 3286.00
24.5731 2721.00
24.6383 2883.00
24.7035 3282.00
24.7687 3803.00
24.8339 3655.00
24.8991 2818.00
24.9643 2244.00
25.0295 1953.00
25.0947 1883.00
25.1599 1833.00
25.2251 1854.00
25.2903 1814.00
25.3555 1830.00
25.4207 1909.00
25.4859 1794.00
25.5511 1876.00
25.6163 1773.00
25.6815 1846.00
25.7467 1804.00
25.8119 1905.00
25.8771 1898.00
25.9423 1977.00
26.0075 2166.00
26.0727 2511.00
26.1379 2300.00
26.2031 2005.00
26.2683 1833.00
26.3335 1734.00
26.3987 1804.00
26.4639 1717.00
26.5291 1938.00
26.5943 1804.00
26.6595 1854.00
26.7247 1752.00
26.7899 1798.00
26.8551 1816.00
26.9203 1794.00
26.9855 1730.00
27.0507 1762.00
27.1159 1845.00
27.1811 1981.00
27.2463 2096.00
27.3115 1884.00
27.3767 1711.00
27.4419 1660.00
27.5071 1836.00
27.5723 1768.00
27.6375 1838.00
27.7027 1988.00
27.7679 1895.00
27.8331 1922.00
27.8983 1994.00
27.9635 2182.00
28.0287 2198.00
28.0939 2507.00
28.1591 2747.00
28.2243 3293.00
28.2894 4453.00
28.3546 7078.00
28.4198 11783.00
28.485 18815.00
28.5502 19663.00
28.6154 12182.00
28.6806 6284.00
28.7458 4226.00
28.811 3304.00
28.8762 2740.00
28.9414 2520.00
29.0066 2410.00
29.0718 2116.00
29.137 2063.00
29.2022 1920.00
29.2674 1948.00
29.3326 1954.00
29.3978 1904.00
29.463 1919.00
29.5282 1845.00
29.5934 1873.00
29.6586 1806.00
29.7238 1835.00
29.789 1995.00
29.8542 2144.00
29.9194 2702.00
29.9846 3094.00
30.0498 3131.00
30.115 2589.00
30.1802 2155.00
30.2454 1897.00
30.3106 2048.00
30.3758 2010.00
30.441 1934.00
30.5062 1871.00
30.5714 1862.00
30.6366 1776.00
30.7018 1862.00
30.767 1858.00
30.8322 1946.00
30.8974 1982.00
30.9626 2320.00
31.0278 2742.00
31.093 2843.00
31.1582 2665.00
31.2234 2315.00
31.2886 2227.00
31.3538 2365.00
31.419 2498.00
31.4842 2862.00
31.5494 3493.00
31.6146 4691.00
31.6798 7018.00
31.745 11266.00
31.8102 14916.00
31.8754 11600.00
31.9406 7360.00
32.0058 4900.00
32.071 3468.00
32.1362 2686.00
32.2014 2473.00
32.2666 2578.00
32.3318 2920.00
32.397 3741.00
32.4622 4435.00
32.5274 4108.00
32.5926 3963.00
32.6578 4385.00
32.723 3672.00
32.7882 2936.00
32.8534 3130.00
32.9186 4178.00
32.9838 4443.00
33.0489 3170.00
33.1141 2219.00
33.1793 1914.00
33.2445 1818.00
33.3097 1754.00
33.3749 1614.00
33.4401 1699.00
33.5053 1613.00
33.5705 1719.00
33.6357 1735.00
33.7009 1661.00
33.7661 1694.00
33.8313 1747.00
33.8965 1717.00
33.9617 1793.00
34.0269 1746.00
34.0921 1805.00
34.1573 1911.00
34.2225 2035.00
34.2877 2391.00
34.3529 3096.00
34.4181 4523.00
34.4833 5896.00
34.5485 5378.00
34.6137 4627.00
34.6789 4193.00
34.7441 4255.00
34.8093 3576.00
34.8745 2756.00
34.9397 2093.00
35.0049 2045.00
35.0701 1974.00
35.1353 1947.00
35.2005 1837.00
35.2657 1852.00
35.3309 1886.00
35.3961 2088.00
35.4613 2492.00
35.5265 3200.00
35.5917 4149.00
35.6569 4356.00
35.7221 3285.00
35.7873 2546.00
35.8525 1863.00
35.9177 1770.00
35.9829 1744.00
36.0481 1736.00
36.1133 1782.00
36.1785 1975.00
36.2437 2037.00
36.3089 1836.00
36.3741 1789.00
36.4393 1658.00
36.5045 1771.00
36.5697 1711.00
36.6349 1564.00
36.7001 1489.00
36.7653 1512.00
36.8305 1477.00
36.8957 1511.00
36.9609 1444.00
37.0261 1450.00
37.0913 1507.00
37.1565 1449.00
37.2217 1463.00
37.2869 1431.00
37.3521 1436.00
37.4173 1483.00
37.4825 1344.00
37.5477 1381.00
37.6129 1428.00
37.6781 1422.00
37.7433 1495.00
37.8085 1466.00
37.8736 1413.00
37.9388 1607.00
38.004 1584.00
38.0692 1621.00
38.1344 1500.00
38.1996 1524.00
38.2648 1567.00
38.33 1569.00
38.3952 1640.00
38.4604 1642.00
38.5256 1597.00
38.5908 1710.00
38.656 1802.00
38.7212 1959.00
38.7864 2482.00
38.8516 3018.00
38.9168 3087.00
38.982 2854.00
39.0472 2364.00
39.1124 2078.00
39.1776 2041.00
39.2428 1970.00
39.308 2004.00
39.3732 2088.00
39.4384 1995.00
39.5036 1874.00
39.5688 1762.00
39.634 1700.00
39.6992 1720.00
39.7644 1649.00
39.8296 1752.00
39.8948 1701.00
39.96 1870.00
40.0252 2125.00
40.0904 1953.00
40.1556 2003.00
40.2208 1927.00
40.286 1741.00
40.3512 1657.00
40.4164 1771.00
40.4816 1653.00
40.5468 1662.00
40.612 1641.00
40.6772 1803.00
40.7424 2087.00
40.8076 2071.00
40.8728 2206.00
40.938 2612.00
41.0032 3324.00
41.0684 3692.00
41.1336 3298.00
41.1988 2689.00
41.264 2195.00
41.3292 2180.00
41.3944 2311.00
41.4596 2703.00
41.5248 2884.00
41.59 3088.00
41.6552 3446.00
41.7204 3072.00
41.7856 2536.00
41.8508 2195.00
41.916 2233.00
41.9812 1981.00
42.0464 1863.00
42.1116 1772.00
42.1768 1607.00
42.242 1537.00
42.3072 1454.00
42.3724 1445.00
42.4376 1508.00
42.5028 1435.00
42.568 1460.00
42.6332 1457.00
42.6983 1521.00
42.7635 1404.00
42.8287 1465.00
42.8939 1291.00
42.9591 1399.00
43.0243 1459.00
43.0895 1455.00
43.1547 1507.00
43.2199 1450.00
43.2851 1539.00
43.3503 1500.00
43.4155 1412.00
43.4807 1366.00
43.5459 1385.00
43.6111 1509.00
43.6763 1544.00
43.7415 1555.00
43.8067 1453.00
43.8719 1435.00
43.9371 1387.00
44.0023 1382.00
44.0675 1336.00
44.1327 1417.00
44.1979 1362.00
44.2631 1398.00
44.3283 1344.00
44.3935 1465.00
44.4587 1343.00
44.5239 1364.00
44.5891 1431.00
44.6543 1443.00
44.7195 1458.00
44.7847 1491.00
44.8499 1517.00
44.9151 1675.00
44.9803 1614.00
45.0455 1931.00
45.1107 2482.00
45.1759 2646.00
45.2411 2353.00
45.3063 2038.00
45.3715 1797.00
45.4367 1664.00
45.5019 1634.00
45.5671 1604.00
45.6323 1674.00
45.6975 1828.00
45.7627 2156.00
45.8279 2561.00
45.8931 2371.00
45.9583 2126.00
46.0235 1812.00
46.0887 1588.00
46.1539 1521.00
46.2191 1483.00
46.2843 1461.00
46.3495 1297.00
46.4147 1407.00
46.4799 1475.00
46.5451 1259.00
46.6103 1420.00
46.6755 1416.00
46.7407 1473.00
46.8059 1384.00
46.8711 1378.00
46.9363 1265.00
47.0015 1352.00
47.0667 1316.00
47.1319 1401.00
47.1971 1390.00
47.2623 1330.00
47.3275 1298.00
47.3927 1287.00
47.4579 1392.00
47.523 1281.00
47.5882 1288.00
47.6534 1402.00
47.7186 1245.00
47.7838 1270.00
47.849 1333.00
47.9142 1406.00
47.9794 1350.00
48.0446 1436.00
48.1098 1417.00
48.175 1419.00
48.2402 1465.00
48.3054 1360.00
48.3706 1552.00
48.4358 1474.00
48.501 1506.00
48.5662 1486.00
48.6314 1445.00
48.6966 1425.00
48.7618 1421.00
48.827 1559.00
48.8922 1663.00
48.9574 1765.00
49.0226 1610.00
49.0878 1723.00
49.153 1812.00
49.2182 1939.00
49.2834 2080.00
49.3486 2091.00
49.4138 2319.00
49.479 3201.00
49.5442 4544.00
49.6094 4877.00
49.6746 4049.00
49.7398 3456.00
49.805 2424.00
49.8702 2190.00
49.9354 1933.00
50.0006 1807.00
50.0658 1770.00
50.131 1956.00
50.1962 2101.00
50.2614 2525.00
50.3266 3293.00
50.3918 5221.00
50.457 5511.00
50.5222 4561.00
50.5874 3977.00
50.6526 2761.00
50.7178 2685.00
50.783 2950.00
50.8482 3653.00
50.9134 3610.00
50.9786 3115.00
51.0438 2747.00
51.109 2191.00
51.1742 2005.00
51.2394 1905.00
51.3046 1782.00
51.3698 1940.00
51.435 2114.00
51.5002 2444.00
51.5654 2163.00
51.6306 2158.00
51.6958 2066.00
51.761 1855.00
51.8262 1685.00
51.8914 1717.00
51.9566 1562.00
52.0218 1453.00
52.087 1510.00
52.1522 1463.00
52.2174 1497.00
52.2826 1460.00
52.3477 1452.00
52.4129 1371.00
52.4781 1374.00
52.5433 1326.00
52.6085 1372.00
52.6737 1356.00
52.7389 1455.00
52.8041 1426.00
52.8693 1321.00
52.9345 1331.00
52.9997 1373.00
53.0649 1364.00
53.1301 1340.00
53.1953 1415.00
53.2605 1479.00
53.3257 1376.00
53.3909 1376.00
53.4561 1397.00
53.5213 1428.00
53.5865 1439.00
53.6517 1394.00
53.7169 1509.00
53.7821 1438.00
53.8473 1538.00
53.9125 1604.00
53.9777 1688.00
54.0429 1695.00
54.1081 1848.00
54.1733 1790.00
54.2385 2066.00
54.3037 2385.00
54.3689 3073.00
54.4341 3411.00
54.4993 2819.00
54.5645 2661.00
54.6297 2116.00
54.6949 1770.00
54.7601 1657.00
54.8253 1616.00
54.8905 1505.00
54.9557 1480.00
55.0209 1506.00
55.0861 1598.00
55.1513 1549.00
55.2165 1537.00
55.2817 1495.00
55.3469 1692.00
55.4121 1765.00
55.4773 2090.00
55.5425 2480.00
55.6077 3165.00
55.6729 3541.00
55.7381 3413.00
55.8033 3219.00
55.8685 3371.00
55.9337 3021.00
55.9989 2668.00
56.0641 2737.00
56.1293 2554.00
56.1945 2856.00
56.2597 2571.00
56.3249 2488.00
56.3901 2148.00
56.4553 1882.00
56.5205 1644.00
56.5857 1598.00
56.6509 1463.00
56.7161 1409.00
56.7813 1427.00
56.8465 1365.00
56.9117 1438.00
56.9769 1454.00
57.042 1397.00
57.1073 1456.00
57.1724 1609.00
57.2376 1589.00
57.3028 1811.00
57.368 2145.00
57.4332 2569.00
57.4984 2710.00
57.5636 2377.00
57.6288 2309.00
57.694 2034.00
57.7592 1797.00
57.8244 1662.00
57.8896 1596.00
57.9548 1648.00
58.02 1681.00
58.0852 1982.00
58.1504 2217.00
58.2156 2177.00
58.2808 2070.00
58.346 1999.00
58.4112 1953.00
58.4764 1812.00
58.5416 2047.00
58.6068 2001.00
58.672 1748.00
58.7372 1744.00
58.8024 1614.00
58.8676 1436.00
58.9328 1428.00
58.998 1373.00
59.0632 1338.00
59.1284 1338.00
59.1936 1395.00
59.2588 1349.00
59.324 1301.00
59.3892 1385.00
59.4544 1334.00
59.5196 1429.00
59.5848 1393.00
59.65 1413.00
59.7152 1427.00
59.7804 1493.00
59.8456 1581.00
59.9108 1765.00
59.976 2090.00
60.0412 2808.00
60.1064 2929.00
60.1716 2658.00
60.2368 2884.00
60.302 2880.00
60.3672 2718.00
60.4324 2311.00
60.4976 2173.00
60.5628 1873.00
60.628 1603.00
60.6932 1615.00
60.7584 1560.00
60.8236 1476.00
60.8888 1515.00
60.954 1401.00
61.0192 1428.00
61.0844 1423.00
61.1496 1473.00
61.2148 1487.00
61.28 1442.00
61.3452 1441.00
61.4104 1557.00
61.4756 1595.00
61.5408 1698.00
61.606 2066.00
61.6712 2435.00
61.7364 2126.00
61.8016 2010.00
61.8667 1896.00
61.932 1722.00
61.9971 1593.00
62.0623 1679.00
62.1275 1736.00
62.1927 2086.00
62.2579 2326.00
62.3231 2264.00
62.3883 1978.00
62.4535 1994.00
62.5187 1740.00
62.5839 1552.00
62.6491 1559.00
62.7143 1566.00
62.7795 1491.00
62.8447 1534.00
62.9099 1718.00
62.9751 1814.00
63.0403 2221.00
63.1055 2855.00
63.1707 2855.00
63.2359 2433.00
63.3011 2373.00
63.3663 1998.00
63.4315 1613.00
63.4967 1525.00
63.5619 1472.00
63.6271 1395.00
63.6923 1334.00
63.7575 1315.00
63.8227 1353.00
63.8879 1249.00
63.9531 1318.00
64.0183 1388.00
64.0835 1287.00
64.1487 1404.00
64.2139 1259.00
64.2791 1442.00
64.3443 1508.00
64.4095 1568.00
64.4747 1652.00
64.5399 1697.00
64.6051 1794.00
64.6703 1677.00
64.7355 1609.00
64.8007 1518.00
64.8659 1408.00
64.9311 1359.00
64.9963 1328.00
65.0615 1287.00
65.1267 1312.00
65.1919 1372.00
65.2571 1442.00
65.3223 1621.00
65.3875 1460.00
65.4527 1508.00
65.5179 1542.00
65.5831 1625.00
65.6483 1801.00
65.7135 1806.00
65.7787 1830.00
65.8439 1926.00
65.9091 2137.00
65.9743 2369.00
66.0395 2359.00
66.1047 2130.00
66.1699 2102.00
66.2351 1873.00
66.3003 1590.00
66.3655 1518.00
66.4307 1438.00
66.4959 1458.00
66.561 1344.00
66.6263 1321.00
66.6915 1320.00
66.7566 1276.00
66.8218 1248.00
66.887 1203.00
66.9522 1349.00
67.0174 1281.00
67.0826 1231.00
67.1478 1309.00
67.213 1342.00
67.2782 1318.00
67.3434 1264.00
67.4086 1317.00
67.4738 1316.00
67.539 1336.00
67.6042 1320.00
67.6694 1209.00
67.7346 1254.00
67.7998 1261.00
67.865 1175.00
67.9302 1178.00
67.9954 1285.00
68.0606 1327.00
68.1258 1226.00
68.191 1239.00
68.2562 1247.00
68.3214 1196.00
68.3866 1259.00
68.4518 1295.00
68.517 1267.00
68.5822 1231.00
68.6474 1265.00
68.7126 1214.00
68.7778 1263.00
68.843 1210.00
68.9082 1226.00
68.9734 1321.00
69.0386 1376.00
69.1038 1307.00
69.169 1535.00
69.2342 1634.00
69.2994 1463.00
69.3646 1501.00
69.4298 1503.00
69.495 1379.00
69.5602 1324.00
69.6254 1330.00
69.6906 1299.00
69.7558 1442.00
69.821 1356.00
69.8862 1503.00
69.9514 1485.00
70.0166 1281.00
70.0818 1291.00
70.147 1431.00
70.2122 1327.00
70.2774 1327.00
70.3426 1294.00
70.4078 1304.00
70.473 1373.00
70.5382 1390.00
70.6034 1318.00
70.6686 1353.00
70.7338 1280.00
70.799 1332.00
70.8642 1335.00
70.9294 1320.00
70.9946 1343.00
71.0598 1361.00
71.125 1376.00
71.1902 1453.00
71.2554 1529.00
71.3205 1719.00
71.3858 1749.00
71.451 1865.00
71.5162 1846.00
71.5813 2039.00
71.6465 1769.00
71.7117 1637.00
71.7769 1715.00
71.8421 1600.00
71.9073 1417.00
71.9725 1448.00
72.0377 1337.00
72.1029 1316.00
72.1681 1432.00
72.2333 1426.00
72.2985 1433.00
72.3637 1594.00
72.4289 1478.00
72.4941 1441.00
72.5593 1436.00
72.6245 1520.00
72.6897 1432.00
72.7549 1459.00
72.8201 1530.00
72.8853 1500.00
72.9505 1543.00
73.0157 1333.00
73.0809 1416.00
73.1461 1385.00
73.2113 1265.00
73.2765 1287.00
73.3417 1239.00
73.4069 1275.00
73.4721 1227.00
73.5373 1258.00
73.6025 1245.00
73.6677 1286.00
73.7329 1289.00
73.7981 1249.00
73.8633 1342.00
73.9285 1348.00
73.9937 1287.00
74.0589 1278.00
74.1241 1268.00
74.1893 1216.00
74.2545 1255.00
74.3197 1163.00
74.3849 1315.00
74.4501 1294.00
74.5153 1227.00
74.5805 1230.00
74.6457 1244.00
74.7109 1298.00
74.7761 1338.00
74.8413 1385.00
74.9065 1472.00
74.9717 1587.00
75.0369 1450.00
75.1021 1493.00
75.1673 1507.00
75.2325 1662.00
75.2977 1889.00
75.3629 1992.00
75.4281 1809.00
75.4933 1722.00
75.5585 1710.00
75.6237 1593.00
75.6889 1430.00
75.7541 1429.00
75.8193 1369.00
75.8845 1342.00
75.9497 1263.00
76.0149 1286.00
76.0801 1297.00
76.1452 1266.00
76.2104 1184.00
76.2756 1279.00
76.3409 1289.00
76.406 1313.00
76.4712 1397.00
76.5364 1304.00
76.6016 1348.00
76.6668 1451.00
76.732 1531.00
76.7972 1389.00
76.8624 1416.00
76.9276 1379.00
76.9928 1392.00
77.058 1291.00
77.1232 1304.00
77.1884 1248.00
77.2536 1310.00
77.3188 1285.00
77.384 1329.00
77.4492 1313.00
77.5144 1378.00
77.5796 1383.00
77.6448 1447.00
77.71 1405.00
77.7752 1374.00
77.8404 1373.00
77.9056 1341.00
77.9708 1307.00
78.036 1375.00
78.1012 1312.00
78.1664 1317.00
78.2316 1345.00
78.2968 1358.00
78.362 1405.00
78.4272 1333.00
78.4924 1330.00
78.5576 1273.00
78.6228 1405.00
78.688 1224.00
78.7532 1231.00
78.8184 1310.00
78.8836 1313.00
78.9488 1379.00
79.014 1377.00
79.0792 1452.00
79.1444 1667.00
79.2096 1647.00
79.2748 1405.00
79.34 1406.00
79.4052 1449.00
79.4704 1363.00
79.5356 1303.00
79.6008 1300.00
79.666 1265.00
79.7312 1164.00
79.7964 1204.00
79.8616 1255.00
79.9268 1240.00
79.992 1228.00
80.0572 1150.00
80.1224 1229.00
80.1876 1323.00
80.2528 1195.00
80.318 1232.00
80.3832 1203.00
80.4484 1187.00
80.5136 1288.00
80.5788 1240.00
80.644 1286.00
80.7092 1334.00
80.7744 1286.00
80.8396 1280.00
80.9048 1249.00
80.9699 1272.00
81.0351 1270.00
81.1003 1300.00
81.1655 1239.00
81.2307 1257.00
81.2959 1239.00
81.3611 1269.00
81.4263 1299.00
81.4915 1245.00
81.5567 1351.00
81.6219 1362.00
81.6871 1368.00
81.7523 1354.00
81.8175 1474.00
81.8827 1547.00
81.9479 1417.00
82.0131 1342.00
82.0783 1450.00
82.1435 1341.00
82.2087 1372.00
82.2739 1326.00
82.3391 1401.00
82.4043 1303.00
82.4695 1396.00
82.5347 1330.00
82.5999 1331.00
82.6651 1373.00
82.7303 1494.00
82.7955 1537.00
82.8607 1619.00
82.9259 1451.00
82.9911 1478.00
83.0563 1459.00
83.1215 1463.00
83.1867 1440.00
83.2519 1549.00
83.3171 1669.00
83.3823 1671.00
83.4475 1559.00
83.5127 1505.00
83.5779 1506.00
83.6431 1573.00
83.7083 1469.00
83.7735 1461.00
83.8387 1465.00
83.9039 1415.00
83.9691 1451.00
84.0343 1487.00
84.0995 1552.00
84.1647 1641.00
84.2299 1589.00
84.2951 1551.00
84.3603 1663.00
84.4255 1556.00
84.4907 1441.00
84.5559 1464.00
84.6211 1458.00
84.6863 1366.00
84.7515 1318.00
84.8167 1278.00
84.8819 1301.00
84.9471 1350.00
85.0123 1392.00
85.0775 1432.00
85.1427 1532.00
85.2079 1424.00
85.2731 1378.00
85.3383 1353.00
85.4035 1351.00
85.4687 1246.00
85.5339 1201.00
85.5991 1206.00
85.6643 1222.00
85.7295 1209.00
85.7946 1216.00
85.8598 1205.00
85.925 1231.00
85.9903 1281.00
86.0554 1213.00
86.1206 1297.00
86.1858 1278.00
86.251 1356.00
86.3162 1372.00
86.3814 1424.00
86.4466 1447.00
86.5118 1448.00
86.577 1431.00
86.6422 1322.00
86.7074 1350.00
86.7726 1271.00
86.8378 1257.00
86.903 1243.00
86.9682 1292.00
87.0334 1221.00
87.0986 1256.00
87.1638 1321.00
87.229 1227.00
87.2942 1281.00
87.3594 1283.00
87.4246 1410.00
87.4898 1356.00
87.555 1416.00
87.6202 1499.00
87.6854 1469.00
87.7506 1421.00
87.8158 1472.00
87.881 1378.00
87.9462 1439.00
88.0114 1405.00
88.0766 1313.00
88.1418 1318.00
88.207 1359.00
88.2722 1416.00
88.3374 1433.00
88.4026 1588.00
88.4678 1656.00
88.533 1524.00
88.5982 1565.00
88.6634 1633.00
88.7286 1763.00
88.7938 1719.00
88.859 1614.00
88.9242 1552.00
88.9894 1470.00
89.0546 1481.00
89.1198 1482.00
89.185 1302.00
89.2502 1348.00
89.3154 1297.00
89.3806 1292.00
89.4458 1309.00
89.511 1342.00
89.5762 1434.00
89.6414 1411.00
89.7066 1387.00
89.7718 1463.00
89.837 1454.00
89.9022 1493.00
89.9674 1506.00
90.0326 1610.00
90.0978 1623.00
90.163 1510.00
90.2282 1540.00
90.2934 1507.00
90.3586 1518.00
90.4238 1354.00
90.489 1326.00
90.5542 1325.00
90.6193 1346.00
90.6845 1286.00
90.7497 1337.00
90.8149 1314.00
90.8801 1336.00
90.9453 1329.00
91.0105 1256.00
91.0757 1279.00
91.1409 1283.00
91.2061 1269.00
91.2713 1342.00
91.3365 1196.00
91.4017 1295.00
91.4669 1287.00
91.5321 1339.00
91.5973 1319.00
91.6625 1308.00
91.7277 1225.00
91.7929 1257.00
91.8581 1270.00
91.9233 1251.00
91.9885 1234.00
92.0537 1238.00
92.1189 1187.00
92.1841 1166.00
92.2493 1230.00
92.3145 1227.00
92.3797 1100.00
92.4449 1242.00
92.5101 1133.00
92.5753 1153.00
92.6405 1185.00
92.7057 1092.00
92.7709 1122.00
92.8361 1164.00
92.9013 1190.00
92.9665 1218.00
93.0317 1073.00
93.0969 1227.00
93.1621 1190.00
93.2273 1264.00
93.2925 1213.00
93.3577 1175.00
93.4229 1197.00
93.4881 1185.00
93.5533 1246.00
93.6185 1309.00
93.6837 1235.00
93.7489 1212.00
93.8141 1282.00
93.8793 1274.00
93.9445 1319.00
94.0097 1423.00
94.0749 1438.00
94.1401 1356.00
94.2053 1382.00
94.2705 1414.00
94.3357 1381.00
94.4009 1270.00
94.4661 1227.00
94.5313 1315.00
94.5965 1263.00
94.6617 1252.00
94.7269 1322.00
94.7921 1358.00
94.8573 1316.00
94.9225 1248.00
94.9877 1410.00
95.0529 1376.00
95.1181 1343.00
95.1833 1318.00
95.2485 1491.00
95.3137 1452.00
95.3789 1467.00
95.444 1513.00
95.5092 1432.00
95.5744 1419.00
95.6396 1374.00
95.7048 1374.00
95.77 1398.00
95.8352 1327.00
95.9004 1305.00
95.9656 1328.00
96.0308 1295.00
96.096 1319.00
96.1612 1334.00
96.2264 1399.00
96.2916 1415.00
96.3568 1564.00
96.422 1579.00
96.4872 1559.00
96.5524 1435.00
96.6176 1591.00
96.6828 1718.00
96.748 1853.00
96.8132 1837.00
96.8784 1630.00
96.9436 1652.00
97.0088 1611.00
97.074 1590.00
97.1392 1637.00
97.2044 1669.00
97.2696 1602.00
97.3348 1554.00
97.4 1445.00
97.4652 1422.00
97.5304 1432.00
97.5956 1464.00
97.6608 1365.00
97.726 1269.00
97.7912 1308.00
97.8564 1240.00
97.9216 1215.00
97.9868 1290.00
98.052 1316.00
98.1172 1510.00
98.1824 1430.00
98.2476 1361.00
98.3128 1359.00
98.378 1343.00
98.4432 1366.00
98.5084 1486.00
98.5736 1366.00
98.6388 1339.00
98.704 1303.00
98.7692 1393.00
98.8344 1405.00
98.8996 1293.00
98.9648 1422.00
99.03 1489.00
99.0952 1421.00
99.1604 1366.00
99.2256 1426.00
99.2908 1444.00
99.356 1465.00
99.4212 1499.00
99.4864 1570.00
99.5516 1607.00
99.6168 1658.00
99.682 1660.00
99.7472 1548.00
99.8124 1482.00
99.8776 1606.00
99.9428 1445.00
100.008 1464.00
100.073 1375.00
100.095 1433.00