File: data/xrd_creation/results/PG_1951-1.xy
9.903433 2467.00
9.968632 2399.00
10.0338 2381.00
10.099 2405.00
10.1642 2375.00
10.2294 2298.00
10.2946 2246.00
10.3598 2255.00
10.425 2206.00
10.4902 2242.00
10.5554 2194.00
10.6206 2182.00
10.6858 2170.00
10.751 2167.00
10.8162 2220.00
10.8814 2104.00
10.9466 2117.00
11.0118 2220.00
11.077 2107.00
11.1422 2128.00
11.2074 2067.00
11.2726 2042.00
11.3378 1953.00
11.403 2036.00
11.4682 2034.00
11.5334 1994.00
11.5986 1936.00
11.6638 1894.00
11.729 1950.00
11.7942 1927.00
11.8594 1910.00
11.9246 1983.00
11.9898 1965.00
12.055 1897.00
12.1202 1821.00
12.1854 1842.00
12.2506 1754.00
12.3158 1815.00
12.381 1802.00
12.4462 1764.00
12.5114 1733.00
12.5766 1748.00
12.6418 1714.00
12.707 1619.00
12.7722 1735.00
12.8374 1745.00
12.9026 1903.00
12.9678 1992.00
13.033 2095.00
13.0982 2322.00
13.1634 2550.00
13.2286 2891.00
13.2938 2493.00
13.359 1828.00
13.4242 1661.00
13.4894 1689.00
13.5546 1596.00
13.6198 1600.00
13.685 1576.00
13.7502 1587.00
13.8154 1584.00
13.8805 1438.00
13.9457 1662.00
14.0109 1617.00
14.0761 1500.00
14.1413 1616.00
14.2065 1585.00
14.2717 1499.00
14.3369 1519.00
14.4021 1620.00
14.4673 1556.00
14.5325 1427.00
14.5977 1503.00
14.6629 1443.00
14.7281 1451.00
14.7933 1465.00
14.8585 1413.00
14.9237 1465.00
14.9889 1493.00
15.0541 1435.00
15.1193 1505.00
15.1845 1430.00
15.2497 1354.00
15.3149 1476.00
15.3801 1393.00
15.4453 1404.00
15.5105 1418.00
15.5757 1360.00
15.6409 1441.00
15.7061 1431.00
15.7713 1393.00
15.8365 1465.00
15.9017 1393.00
15.9669 1348.00
16.0321 1409.00
16.0973 1404.00
16.1625 1370.00
16.2277 1350.00
16.2929 1282.00
16.3581 1317.00
16.4233 1343.00
16.4885 1358.00
16.5537 1340.00
16.6189 1271.00
16.6841 1306.00
16.7493 1329.00
16.8145 1307.00
16.8797 1244.00
16.9449 1246.00
17.0101 1217.00
17.0753 1277.00
17.1405 1307.00
17.2057 1341.00
17.2709 1306.00
17.3361 1235.00
17.4013 1299.00
17.4665 1249.00
17.5317 1277.00
17.5969 1282.00
17.6621 1222.00
17.7273 1220.00
17.7925 1234.00
17.8577 1131.00
17.9229 1181.00
17.9881 1241.00
18.0533 1233.00
18.1185 1215.00
18.1837 1174.00
18.2489 1184.00
18.3141 1203.00
18.3793 1147.00
18.4445 1164.00
18.5097 1116.00
18.5749 1117.00
18.6401 1089.00
18.7052 1074.00
18.7704 1161.00
18.8356 1113.00
18.9008 1179.00
18.966 1046.00
19.0312 1082.00
19.0964 1073.00
19.1616 1116.00
19.2268 1097.00
19.292 1091.00
19.3572 1087.00
19.4224 1116.00
19.4876 1060.00
19.5528 1097.00
19.618 1167.00
19.6832 1091.00
19.7484 1038.00
19.8136 1055.00
19.8788 1101.00
19.944 1008.00
20.0092 1031.00
20.0744 1044.00
20.1396 1019.00
20.2048 1037.00
20.27 1058.00
20.3352 1017.00
20.4004 961.00
20.4656 1028.00
20.5308 1064.00
20.596 997.00
20.6612 1031.00
20.7264 942.00
20.7916 1013.00
20.8568 995.00
20.922 976.00
20.9872 1052.00
21.0524 1021.00
21.1176 977.00
21.1828 935.00
21.248 962.00
21.3132 925.00
21.3784 1002.00
21.4436 1003.00
21.5088 1008.00
21.574 956.00
21.6392 990.00
21.7044 993.00
21.7696 938.00
21.8348 992.00
21.9 918.00
21.9652 965.00
22.0304 970.00
22.0956 914.00
22.1608 918.00
22.226 914.00
22.2912 926.00
22.3564 941.00
22.4216 904.00
22.4868 958.00
22.552 936.00
22.6172 970.00
22.6824 895.00
22.7476 891.00
22.8128 907.00
22.878 922.00
22.9432 913.00
23.0084 838.00
23.0736 898.00
23.1388 883.00
23.204 945.00
23.2692 974.00
23.3344 988.00
23.3996 1081.00
23.4647 1139.00
23.5299 1130.00
23.5951 1164.00
23.6603 1029.00
23.7255 921.00
23.7907 905.00
23.8559 882.00
23.9211 919.00
23.9863 826.00
24.0515 914.00
24.1167 890.00
24.1819 872.00
24.2471 855.00
24.3123 808.00
24.3775 829.00
24.4427 803.00
24.5079 841.00
24.5731 845.00
24.6383 874.00
24.7035 774.00
24.7687 836.00
24.8339 851.00
24.8991 815.00
24.9643 750.00
25.0295 811.00
25.0947 826.00
25.1599 787.00
25.2251 765.00
25.2903 757.00
25.3555 795.00
25.4207 805.00
25.4859 788.00
25.5511 831.00
25.6163 785.00
25.6815 783.00
25.7467 777.00
25.8119 810.00
25.8771 808.00
25.9423 888.00
26.0075 1011.00
26.0727 1217.00
26.1379 1602.00
26.2031 1811.00
26.2683 1375.00
26.3335 946.00
26.3987 865.00
26.4639 859.00
26.5291 762.00
26.5943 780.00
26.6595 811.00
26.7247 847.00
26.7899 774.00
26.8551 848.00
26.9203 936.00
26.9855 980.00
27.0507 875.00
27.1159 814.00
27.1811 884.00
27.2463 1058.00
27.3115 1197.00
27.3767 1137.00
27.4419 864.00
27.5071 801.00
27.5723 751.00
27.6375 807.00
27.7027 755.00
27.7679 769.00
27.8331 775.00
27.8983 768.00
27.9635 785.00
28.0287 844.00
28.0939 772.00
28.1591 766.00
28.2243 780.00
28.2894 702.00
28.3546 713.00
28.4198 723.00
28.485 763.00
28.5502 772.00
28.6154 777.00
28.6806 820.00
28.7458 801.00
28.811 748.00
28.8762 820.00
28.9414 823.00
29.0066 1094.00
29.0718 1128.00
29.137 980.00
29.2022 794.00
29.2674 763.00
29.3326 722.00
29.3978 744.00
29.463 791.00
29.5282 819.00
29.5934 767.00
29.6586 762.00
29.7238 837.00
29.789 854.00
29.8542 945.00
29.9194 1185.00
29.9846 1706.00
30.0498 2565.00
30.115 2970.00
30.1802 2561.00
30.2454 1749.00
30.3106 1185.00
30.3758 952.00
30.441 826.00
30.5062 767.00
30.5714 792.00
30.6366 752.00
30.7018 753.00
30.767 827.00
30.8322 878.00
30.8974 923.00
30.9626 1072.00
31.0278 1579.00
31.093 2375.00
31.1582 3139.00
31.2234 2939.00
31.2886 2029.00
31.3538 1542.00
31.419 1343.00
31.4842 1148.00
31.5494 1171.00
31.6146 1207.00
31.6798 1227.00
31.745 1294.00
31.8102 1330.00
31.8754 1709.00
31.9406 2383.00
32.0058 4499.00
32.071 8690.00
32.1362 15236.00
32.2014 22449.00
32.2666 15032.00
32.3318 7082.00
32.397 3040.00
32.4622 3154.00
32.5274 4639.00
32.5926 5315.00
32.6578 4501.00
32.723 4890.00
32.7882 5046.00
32.8534 3555.00
32.9186 2993.00
32.9838 4011.00
33.0489 5672.00
33.1141 4345.00
33.1793 2299.00
33.2445 1289.00
33.3097 1090.00
33.3749 1060.00
33.4401 839.00
33.5053 840.00
33.5705 800.00
33.6357 848.00
33.7009 832.00
33.7661 836.00
33.8313 888.00
33.8965 895.00
33.9617 963.00
34.0269 918.00
34.0921 966.00
34.1573 926.00
34.2225 946.00
34.2877 879.00
34.3529 860.00
34.4181 976.00
34.4833 1114.00
34.5485 1255.00
34.6137 1783.00
34.6789 3259.00
34.7441 6618.00
34.8093 13301.00
34.8745 15786.00
34.9397 9067.00
35.0049 3288.00
35.0701 1497.00
35.1353 1212.00
35.2005 1122.00
35.2657 1077.00
35.3309 924.00
35.3961 979.00
35.4613 1073.00
35.5265 1200.00
35.5917 1383.00
35.6569 1280.00
35.7221 1087.00
35.7873 1008.00
35.8525 1000.00
35.9177 1007.00
35.9829 1014.00
36.0481 1105.00
36.1133 1156.00
36.1785 1305.00
36.2437 1336.00
36.3089 1638.00
36.3741 2114.00
36.4393 3076.00
36.5045 6105.00
36.5697 13887.00
36.6349 28453.00
36.7001 35938.00
36.7653 21521.00
36.8305 9119.00
36.8957 3206.00
36.9609 1981.00
37.0261 1562.00
37.0913 1301.00
37.1565 1068.00
37.2217 947.00
37.2869 854.00
37.3521 854.00
37.4173 830.00
37.4825 837.00
37.5477 771.00
37.6129 770.00
37.6781 782.00
37.7433 720.00
37.8085 762.00
37.8736 757.00
37.9388 738.00
38.004 730.00
38.0692 730.00
38.1344 783.00
38.1996 742.00
38.2648 808.00
38.33 873.00
38.3952 960.00
38.4604 1071.00
38.5256 1011.00
38.5908 1058.00
38.656 924.00
38.7212 944.00
38.7864 1100.00
38.8516 1286.00
38.9168 1723.00
38.982 1746.00
39.0472 1962.00
39.1124 1711.00
39.1776 1682.00
39.2428 1522.00
39.308 1487.00
39.3732 1547.00
39.4384 1692.00
39.5036 1632.00
39.5688 1455.00
39.634 1190.00
39.6992 1035.00
39.7644 828.00
39.8296 794.00
39.8948 783.00
39.96 821.00
40.0252 985.00
40.0904 1345.00
40.1556 1670.00
40.2208 1562.00
40.286 1490.00
40.3512 1063.00
40.4164 953.00
40.4816 982.00
40.5468 863.00
40.612 812.00
40.6772 783.00
40.7424 834.00
40.8076 1109.00
40.8728 1193.00
40.938 928.00
41.0032 809.00
41.0684 584.00
41.1336 580.00
41.1988 585.00
41.264 588.00
41.3292 604.00
41.3944 637.00
41.4596 683.00
41.5248 773.00
41.59 1015.00
41.6552 1380.00
41.7204 2067.00
41.7856 1747.00
41.8508 1400.00
41.916 1007.00
41.9812 1128.00
42.0464 1352.00
42.1116 1159.00
42.1768 1106.00
42.242 914.00
42.3072 792.00
42.3724 690.00
42.4376 655.00
42.5028 629.00
42.568 598.00
42.6332 605.00
42.6983 581.00
42.7635 634.00
42.8287 735.00
42.8939 626.00
42.9591 586.00
43.0243 526.00
43.0895 538.00
43.1547 547.00
43.2199 520.00
43.2851 581.00
43.3503 607.00
43.4155 689.00
43.4807 579.00
43.5459 579.00
43.6111 531.00
43.6763 699.00
43.7415 787.00
43.8067 796.00
43.8719 796.00
43.9371 673.00
44.0023 554.00
44.0675 515.00
44.1327 476.00
44.1979 482.00
44.2631 468.00
44.3283 391.00
44.3935 467.00
44.4587 524.00
44.5239 513.00
44.5891 492.00
44.6543 460.00
44.7195 553.00
44.7847 508.00
44.8499 486.00
44.9151 487.00
44.9803 500.00
45.0455 550.00
45.1107 532.00
45.1759 530.00
45.2411 563.00
45.3063 636.00
45.3715 661.00
45.4367 679.00
45.5019 747.00
45.5671 620.00
45.6323 565.00
45.6975 495.00
45.7627 477.00
45.8279 484.00
45.8931 478.00
45.9583 499.00
46.0235 453.00
46.0887 455.00
46.1539 487.00
46.2191 481.00
46.2843 491.00
46.3495 484.00
46.4147 553.00
46.4799 596.00
46.5451 562.00
46.6103 585.00
46.6755 642.00
46.7407 598.00
46.8059 552.00
46.8711 547.00
46.9363 534.00
47.0015 532.00
47.0667 561.00
47.1319 513.00
47.1971 584.00
47.2623 540.00
47.3275 552.00
47.3927 577.00
47.4579 632.00
47.523 616.00
47.5882 714.00
47.6534 879.00
47.7186 1133.00
47.7838 1655.00
47.849 3459.00
47.9142 7252.00
47.9794 7341.00
48.0446 4910.00
48.1098 3585.00
48.175 1495.00
48.2402 956.00
48.3054 819.00
48.3706 695.00
48.4358 664.00
48.501 671.00
48.5662 717.00
48.6314 722.00
48.6966 647.00
48.7618 606.00
48.827 567.00
48.8922 601.00
48.9574 762.00
49.0226 920.00
49.0878 833.00
49.153 698.00
49.2182 585.00
49.2834 476.00
49.3486 466.00
49.4138 495.00
49.479 432.00
49.5442 493.00
49.6094 551.00
49.6746 789.00
49.7398 971.00
49.805 828.00
49.8702 822.00
49.9354 825.00
50.0006 808.00
50.0658 717.00
50.131 660.00
50.1962 612.00
50.2614 547.00
50.3266 519.00
50.3918 447.00
50.457 435.00
50.5222 534.00
50.5874 479.00
50.6526 470.00
50.7178 473.00
50.783 482.00
50.8482 466.00
50.9134 499.00
50.9786 520.00
51.0438 657.00
51.109 700.00
51.1742 773.00
51.2394 743.00
51.3046 656.00
51.3698 632.00
51.435 573.00
51.5002 526.00
51.5654 576.00
51.6306 553.00
51.6958 670.00
51.761 773.00
51.8262 1045.00
51.8914 927.00
51.9566 864.00
52.0218 730.00
52.087 652.00
52.1522 601.00
52.2174 640.00
52.2826 562.00
52.3477 564.00
52.4129 544.00
52.4781 492.00
52.5433 475.00
52.6085 481.00
52.6737 465.00
52.7389 580.00
52.8041 645.00
52.8693 586.00
52.9345 533.00
52.9997 579.00
53.0649 533.00
53.1301 505.00
53.1953 541.00
53.2605 602.00
53.3257 586.00
53.3909 525.00
53.4561 557.00
53.5213 529.00
53.5865 507.00
53.6517 539.00
53.7169 505.00
53.7821 491.00
53.8473 498.00
53.9125 577.00
53.9777 599.00
54.0429 668.00
54.1081 721.00
54.1733 579.00
54.2385 546.00
54.3037 475.00
54.3689 427.00
54.4341 447.00
54.4993 436.00
54.5645 449.00
54.6297 507.00
54.6949 527.00
54.7601 550.00
54.8253 535.00
54.8905 486.00
54.9557 452.00
55.0209 458.00
55.0861 467.00
55.1513 449.00
55.2165 448.00
55.2817 420.00
55.3469 464.00
55.4121 441.00
55.4773 522.00
55.5425 510.00
55.6077 529.00
55.6729 593.00
55.7381 702.00
55.8033 682.00
55.8685 633.00
55.9337 603.00
55.9989 585.00
56.0641 601.00
56.1293 614.00
56.1945 611.00
56.2597 584.00
56.3249 624.00
56.3901 594.00
56.4553 610.00
56.5205 679.00
56.5857 778.00
56.6509 845.00
56.7161 1043.00
56.7813 1471.00
56.8465 2489.00
56.9117 6129.00
56.9769 12212.00
57.042 8021.00
57.1073 6282.00
57.1724 5249.00
57.2376 1755.00
57.3028 1066.00
57.368 852.00
57.4332 718.00
57.4984 775.00
57.5636 815.00
57.6288 836.00
57.694 677.00
57.7592 698.00
57.8244 720.00
57.8896 667.00
57.9548 606.00
58.02 661.00
58.0852 641.00
58.1504 687.00
58.2156 671.00
58.2808 581.00
58.346 592.00
58.4112 455.00
58.4764 498.00
58.5416 466.00
58.6068 432.00
58.672 502.00
58.7372 445.00
58.8024 446.00
58.8676 416.00
58.9328 417.00
58.998 430.00
59.0632 408.00
59.1284 436.00
59.1936 430.00
59.2588 413.00
59.324 366.00
59.3892 457.00
59.4544 423.00
59.5196 402.00
59.5848 404.00
59.65 445.00
59.7152 456.00
59.7804 380.00
59.8456 433.00
59.9108 428.00
59.976 460.00
60.0412 485.00
60.1064 544.00
60.1716 494.00
60.2368 481.00
60.302 444.00
60.3672 390.00
60.4324 422.00
60.4976 394.00
60.5628 414.00
60.628 435.00
60.6932 444.00
60.7584 515.00
60.8236 567.00
60.8888 560.00
60.954 544.00
61.0192 586.00
61.0844 537.00
61.1496 512.00
61.2148 567.00
61.28 540.00
61.3452 480.00
61.4104 473.00
61.4756 480.00
61.5408 460.00
61.606 440.00
61.6712 463.00
61.7364 448.00
61.8016 452.00
61.8667 421.00
61.932 454.00
61.9971 438.00
62.0623 448.00
62.1275 492.00
62.1927 473.00
62.2579 491.00
62.3231 478.00
62.3883 451.00
62.4535 521.00
62.5187 553.00
62.5839 505.00
62.6491 523.00
62.7143 613.00
62.7795 629.00
62.8447 722.00
62.9099 871.00
62.9751 991.00
63.0403 1363.00
63.1055 2661.00
63.1707 6269.00
63.2359 10882.00
63.3011 5728.00
63.3663 5337.00
63.4315 5344.00
63.4967 1916.00
63.5619 1036.00
63.6271 802.00
63.6923 643.00
63.7575 536.00
63.8227 538.00
63.8879 451.00
63.9531 476.00
64.0183 449.00
64.0835 427.00
64.1487 437.00
64.2139 439.00
64.2791 398.00
64.3443 498.00
64.4095 492.00
64.4747 444.00
64.5399 483.00
64.6051 436.00
64.6703 488.00
64.7355 462.00
64.8007 481.00
64.8659 429.00
64.9311 387.00
64.9963 416.00
65.0615 407.00
65.1267 418.00
65.1919 456.00
65.2571 415.00
65.3223 440.00
65.3875 418.00
65.4527 448.00
65.5179 454.00
65.5831 478.00
65.6483 493.00
65.7135 400.00
65.7787 478.00
65.8439 467.00
65.9091 406.00
65.9743 415.00
66.0395 450.00
66.1047 484.00
66.1699 449.00
66.2351 471.00
66.3003 449.00
66.3655 495.00
66.4307 495.00
66.4959 573.00
66.561 604.00
66.6263 885.00
66.6915 1504.00
66.7566 1960.00
66.8218 1077.00
66.887 1081.00
66.9522 1172.00
67.0174 706.00
67.0826 552.00
67.1478 571.00
67.213 562.00
67.2782 541.00
67.3434 611.00
67.4086 598.00
67.4738 638.00
67.539 585.00
67.6042 626.00
67.6694 626.00
67.7346 589.00
67.7998 669.00
67.865 670.00
67.9302 761.00
67.9954 813.00
68.0606 1003.00
68.1258 1293.00
68.191 2485.00
68.2562 5781.00
68.3214 8923.00
68.3866 4418.00
68.4518 3850.00
68.517 4747.00
68.5822 2156.00
68.6474 1006.00
68.7126 762.00
68.7778 678.00
68.843 621.00
68.9082 607.00
68.9734 548.00
69.0386 572.00
69.1038 614.00
69.169 671.00
69.2342 741.00
69.2994 1195.00
69.3646 2216.00
69.4298 4285.00
69.495 3522.00
69.5602 1984.00
69.6254 2540.00
69.6906 2006.00
69.7558 1000.00
69.821 728.00
69.8862 634.00
69.9514 564.00
70.0166 565.00
70.0818 506.00
70.147 504.00
70.2122 469.00
70.2774 520.00
70.3426 521.00
70.4078 506.00
70.473 488.00
70.5382 512.00
70.6034 455.00
70.6686 450.00
70.7338 456.00
70.799 454.00
70.8642 440.00
70.9294 454.00
70.9946 477.00
71.0598 443.00
71.125 426.00
71.1902 424.00
71.2554 437.00
71.3205 457.00
71.3858 483.00
71.451 503.00
71.5162 423.00
71.5813 380.00
71.6465 430.00
71.7117 443.00
71.7769 431.00
71.8421 423.00
71.9073 409.00
71.9725 392.00
72.0377 478.00
72.1029 437.00
72.1681 434.00
72.2333 430.00
72.2985 418.00
72.3637 387.00
72.4289 389.00
72.4941 420.00
72.5593 391.00
72.6245 395.00
72.6897 397.00
72.7549 479.00
72.8201 596.00
72.8853 963.00
72.9505 1038.00
73.0157 574.00
73.0809 665.00
73.1461 710.00
73.2113 497.00
73.2765 396.00
73.3417 400.00
73.4069 380.00
73.4721 364.00
73.5373 397.00
73.6025 418.00
73.6677 404.00
73.7329 407.00
73.7981 446.00
73.8633 412.00
73.9285 421.00
73.9937 406.00
74.0589 395.00
74.1241 437.00
74.1893 436.00
74.2545 413.00
74.3197 414.00
74.3849 409.00
74.4501 373.00
74.5153 404.00
74.5805 377.00
74.6457 362.00
74.7109 377.00
74.7761 380.00
74.8413 354.00
74.9065 343.00
74.9717 377.00
75.0369 376.00
75.1021 366.00
75.1673 371.00
75.2325 439.00
75.2977 408.00
75.3629 439.00
75.4281 471.00
75.4933 430.00
75.5585 437.00
75.6237 428.00
75.6889 468.00
75.7541 426.00
75.8193 395.00
75.8845 377.00
75.9497 405.00
76.0149 368.00
76.0801 393.00
76.1452 398.00
76.2104 405.00
76.2756 408.00
76.3409 410.00
76.406 388.00
76.4712 382.00
76.5364 375.00
76.6016 376.00
76.6668 359.00
76.732 364.00
76.7972 357.00
76.8624 377.00
76.9276 375.00
76.9928 421.00
77.058 433.00
77.1232 477.00
77.1884 694.00
77.2536 1216.00
77.3188 1537.00
77.384 922.00
77.4492 810.00
77.5144 1035.00
77.5796 766.00
77.6448 492.00
77.71 449.00
77.7752 431.00
77.8404 394.00
77.9056 365.00
77.9708 407.00
78.036 321.00
78.1012 348.00
78.1664 335.00
78.2316 347.00
78.2968 335.00
78.362 358.00
78.4272 332.00
78.4924 336.00
78.5576 329.00
78.6228 354.00
78.688 308.00
78.7532 322.00
78.8184 348.00
78.8836 386.00
78.9488 366.00
79.014 348.00
79.0792 351.00
79.1444 365.00
79.2096 413.00
79.2748 387.00
79.34 324.00
79.4052 361.00
79.4704 391.00
79.5356 382.00
79.6008 437.00
79.666 441.00
79.7312 375.00
79.7964 377.00
79.8616 413.00
79.9268 332.00
79.992 315.00
80.0572 319.00
80.1224 342.00
80.1876 378.00
80.2528 381.00
80.318 338.00
80.3832 348.00
80.4484 372.00
80.5136 374.00
80.5788 332.00
80.644 334.00
80.7092 355.00
80.7744 356.00
80.8396 408.00
80.9048 411.00
80.9699 355.00
81.0351 382.00
81.1003 407.00
81.1655 389.00
81.2307 416.00
81.2959 420.00
81.3611 414.00
81.4263 429.00
81.4915 449.00
81.5567 460.00
81.6219 637.00
81.6871 875.00
81.7523 892.00
81.8175 586.00
81.8827 600.00
81.9479 664.00
82.0131 615.00
82.0783 460.00
82.1435 399.00
82.2087 407.00
82.2739 434.00
82.3391 425.00
82.4043 389.00
82.4695 415.00
82.5347 370.00
82.5999 401.00
82.6651 363.00
82.7303 342.00
82.7955 320.00
82.8607 353.00
82.9259 346.00
82.9911 355.00
83.0563 418.00
83.1215 318.00
83.1867 325.00
83.2519 314.00
83.3171 322.00
83.3823 310.00
83.4475 330.00
83.5127 280.00
83.5779 347.00
83.6431 307.00
83.7083 325.00
83.7735 336.00
83.8387 328.00
83.9039 334.00
83.9691 304.00
84.0343 325.00
84.0995 339.00
84.1647 370.00
84.2299 406.00
84.2951 423.00
84.3603 388.00
84.4255 336.00
84.4907 357.00
84.5559 381.00
84.6211 334.00
84.6863 340.00
84.7515 351.00
84.8167 355.00
84.8819 339.00
84.9471 341.00
85.0123 327.00
85.0775 350.00
85.1427 339.00
85.2079 301.00
85.2731 325.00
85.3383 334.00
85.4035 331.00
85.4687 360.00
85.5339 369.00
85.5991 333.00
85.6643 315.00
85.7295 339.00
85.7946 372.00
85.8598 377.00
85.925 323.00
85.9903 323.00
86.0554 333.00
86.1206 322.00
86.1858 367.00
86.251 307.00
86.3162 374.00
86.3814 324.00
86.4466 311.00
86.5118 341.00
86.577 365.00
86.6422 378.00
86.7074 390.00
86.7726 350.00
86.8378 345.00
86.903 382.00
86.9682 339.00
87.0334 384.00
87.0986 355.00
87.1638 320.00
87.229 340.00
87.2942 349.00
87.3594 409.00
87.4246 351.00
87.4898 373.00
87.555 354.00
87.6202 361.00
87.6854 332.00
87.7506 346.00
87.8158 317.00
87.881 320.00
87.9462 355.00
88.0114 325.00
88.0766 307.00
88.1418 314.00
88.207 360.00
88.2722 355.00
88.3374 317.00
88.4026 334.00
88.4678 348.00
88.533 349.00
88.5982 315.00
88.6634 403.00
88.7286 357.00
88.7938 378.00
88.859 363.00
88.9242 360.00
88.9894 354.00
89.0546 370.00
89.1198 344.00
89.185 336.00
89.2502 362.00
89.3154 369.00
89.3806 391.00
89.4458 429.00
89.511 417.00
89.5762 431.00
89.6414 486.00
89.7066 622.00
89.7718 870.00
89.837 1488.00
89.9022 2801.00
89.9674 2352.00
90.0326 1088.00
90.0978 1021.00
90.163 1452.00
90.2282 1656.00
90.2934 842.00
90.3586 507.00
90.4238 432.00
90.489 445.00
90.5542 377.00
90.6193 398.00
90.6845 403.00
90.7497 402.00
90.8149 379.00
90.8801 367.00
90.9453 346.00
91.0105 386.00
91.0757 387.00
91.1409 383.00
91.2061 344.00
91.2713 368.00
91.3365 382.00
91.4017 349.00
91.4669 360.00
91.5321 366.00
91.5973 372.00
91.6625 321.00
91.7277 340.00
91.7929 331.00
91.8581 289.00
91.9233 333.00
91.9885 356.00
92.0537 312.00
92.1189 358.00
92.1841 331.00
92.2493 343.00
92.3145 302.00
92.3797 344.00
92.4449 319.00
92.5101 337.00
92.5753 361.00
92.6405 331.00
92.7057 371.00
92.7709 358.00
92.8361 396.00
92.9013 420.00
92.9665 591.00
93.0317 964.00
93.0969 1261.00
93.1621 805.00
93.2273 532.00
93.2925 563.00
93.3577 782.00
93.4229 752.00
93.4881 502.00
93.5533 378.00
93.6185 372.00
93.6837 404.00
93.7489 370.00
93.8141 373.00
93.8793 369.00
93.9445 356.00
94.0097 340.00
94.0749 341.00
94.1401 356.00
94.2053 418.00
94.2705 383.00
94.3357 374.00
94.4009 435.00
94.4661 413.00
94.5313 394.00
94.5965 344.00
94.6617 367.00
94.7269 399.00
94.7921 367.00
94.8573 337.00
94.9225 406.00
94.9877 376.00
95.0529 431.00
95.1181 408.00
95.1833 451.00
95.2485 406.00
95.3137 516.00
95.3789 637.00
95.444 893.00
95.5092 1413.00
95.5744 2878.00
95.6396 2514.00
95.7048 1245.00
95.77 872.00
95.8352 1211.00
95.9004 1700.00
95.9656 1312.00
96.0308 707.00
96.096 527.00
96.1612 408.00
96.2264 408.00
96.2916 398.00
96.3568 410.00
96.422 387.00
96.4872 357.00
96.5524 345.00
96.6176 385.00
96.6828 335.00
96.748 339.00
96.8132 339.00
96.8784 326.00
96.9436 322.00
97.0088 343.00
97.074 308.00
97.1392 357.00
97.2044 355.00
97.2696 335.00
97.3348 344.00
97.4 328.00
97.4652 340.00
97.5304 304.00
97.5956 297.00
97.6608 353.00
97.726 336.00
97.7912 357.00
97.8564 370.00
97.9216 363.00
97.9868 333.00
98.052 327.00
98.1172 347.00
98.1824 331.00
98.2476 387.00
98.3128 351.00
98.378 404.00
98.4432 369.00
98.5084 389.00
98.5736 391.00
98.6388 406.00
98.704 527.00
98.7692 681.00
98.8344 1165.00
98.8996 1789.00
98.9648 1160.00
99.03 677.00
99.0952 562.00
99.1604 759.00
99.2256 1070.00
99.2908 789.00
99.356 499.00
99.4212 437.00
99.4864 398.00
99.5516 401.00
99.6168 405.00
99.682 395.00
99.7472 417.00
99.8124 362.00
99.8776 386.00
99.9428 385.00
100.008 369.00
100.073 336.00
100.095 327.00