File: data/xrd_creation/results/PG_1222-1.xy
10.0094 5411.00
10.0746 5477.00
10.1398 5473.00
10.205 5410.00
10.2702 5477.00
10.3354 5583.00
10.4006 5641.00
10.4658 5574.00
10.531 5470.00
10.5962 5450.00
10.6614 5535.00
10.7266 5559.00
10.7918 5625.00
10.857 5392.00
10.9222 5566.00
10.9874 5402.00
11.0526 5455.00
11.1178 5628.00
11.183 5613.00
11.2482 5576.00
11.3134 5587.00
11.3786 5433.00
11.4438 5380.00
11.509 5487.00
11.5742 5455.00
11.6394 5359.00
11.7046 5381.00
11.7698 5663.00
11.835 5528.00
11.9002 5617.00
11.9654 5581.00
12.0306 5526.00
12.0958 5513.00
12.161 5458.00
12.2262 5472.00
12.2914 5559.00
12.3566 5604.00
12.4218 5531.00
12.487 5594.00
12.5522 5554.00
12.6174 5607.00
12.6826 5467.00
12.7478 5473.00
12.813 5588.00
12.8782 5602.00
12.9434 5545.00
13.0086 5652.00
13.0738 5542.00
13.139 5531.00
13.2042 5614.00
13.2694 5484.00
13.3346 5614.00
13.3998 5700.00
13.465 5556.00
13.5302 5682.00
13.5954 5733.00
13.6606 5526.00
13.7258 5562.00
13.791 5615.00
13.8562 5599.00
13.9214 5637.00
13.9865 5773.00
14.0517 5673.00
14.1169 5608.00
14.1821 5631.00
14.2473 5651.00
14.3125 5641.00
14.3777 5704.00
14.4429 5750.00
14.5081 5791.00
14.5733 5611.00
14.6385 5698.00
14.7037 5731.00
14.7689 5888.00
14.8341 5841.00
14.8993 5669.00
14.9645 5701.00
15.0297 5664.00
15.0949 5938.00
15.1601 5725.00
15.2253 5793.00
15.2905 5978.00
15.3557 6054.00
15.4209 5935.00
15.4861 5899.00
15.5513 5915.00
15.6165 5776.00
15.6817 5809.00
15.7469 5866.00
15.8121 5595.00
15.8773 5754.00
15.9425 5813.00
16.0077 5771.00
16.0729 5879.00
16.1381 5741.00
16.2033 5951.00
16.2685 5662.00
16.3337 5712.00
16.3989 5687.00
16.4641 5737.00
16.5293 5889.00
16.5945 5805.00
16.6597 5915.00
16.7249 5663.00
16.7901 5932.00
16.8553 5833.00
16.9205 5838.00
16.9857 5741.00
17.0509 5901.00
17.1161 5995.00
17.1813 5839.00
17.2465 5887.00
17.3117 5970.00
17.3769 5887.00
17.4421 5921.00
17.5073 6068.00
17.5725 5773.00
17.6377 5814.00
17.7029 5948.00
17.7681 5942.00
17.8333 5888.00
17.8985 5885.00
17.9637 5932.00
18.0289 6078.00
18.0941 5746.00
18.1593 5938.00
18.2245 6072.00
18.2897 5906.00
18.3549 5864.00
18.4201 5870.00
18.4853 5920.00
18.5505 5996.00
18.6157 6021.00
18.6809 6101.00
18.7461 6084.00
18.8112 6323.00
18.8764 6197.00
18.9416 5976.00
19.0068 6164.00
19.072 5939.00
19.1372 5822.00
19.2024 5999.00
19.2676 5959.00
19.3328 6053.00
19.398 6094.00
19.4632 5949.00
19.5284 6123.00
19.5936 6047.00
19.6588 6146.00
19.724 6035.00
19.7892 5945.00
19.8544 6057.00
19.9196 6001.00
19.9848 6084.00
20.05 6002.00
20.1152 6114.00
20.1804 5949.00
20.2456 5990.00
20.3108 6059.00
20.376 5997.00
20.4412 5988.00
20.5064 6024.00
20.5716 6115.00
20.6368 6088.00
20.702 6127.00
20.7672 6090.00
20.8324 5969.00
20.8976 6013.00
20.9628 5977.00
21.028 6021.00
21.0932 6071.00
21.1584 6171.00
21.2236 6115.00
21.2888 6087.00
21.354 6134.00
21.4192 5931.00
21.4844 6108.00
21.5496 6144.00
21.6148 6449.00
21.68 6728.00
21.7452 7236.00
21.8104 6714.00
21.8756 6273.00
21.9408 6180.00
22.006 6144.00
22.0712 6229.00
22.1364 6130.00
22.2016 6136.00
22.2668 5931.00
22.332 5998.00
22.3972 6158.00
22.4624 6124.00
22.5276 6162.00
22.5928 6117.00
22.658 6108.00
22.7232 6054.00
22.7884 6121.00
22.8536 6111.00
22.9188 6197.00
22.984 6151.00
23.0492 6198.00
23.1144 6152.00
23.1796 6108.00
23.2448 6044.00
23.31 6209.00
23.3752 6041.00
23.4404 6146.00
23.5056 6210.00
23.5708 6193.00
23.6359 6257.00
23.7011 6247.00
23.7663 6198.00
23.8315 6302.00
23.8967 6284.00
23.9619 6250.00
24.0271 6334.00
24.0923 6288.00
24.1575 6312.00
24.2227 6557.00
24.2879 6608.00
24.3531 6606.00
24.4183 6206.00
24.4835 6162.00
24.5487 6240.00
24.6139 6282.00
24.6791 6247.00
24.7443 6072.00
24.8095 6076.00
24.8747 6189.00
24.9399 6080.00
25.0051 6293.00
25.0703 6258.00
25.1355 6298.00
25.2007 6250.00
25.2659 6147.00
25.3311 6214.00
25.3963 6025.00
25.4615 6261.00
25.5267 6183.00
25.5919 6202.00
25.6571 6129.00
25.7223 6100.00
25.7875 6222.00
25.8527 6209.00
25.9179 6249.00
25.9831 6349.00
26.0483 6326.00
26.1135 6144.00
26.1787 6328.00
26.2439 6308.00
26.3091 6316.00
26.3743 6278.00
26.4395 6360.00
26.5047 6494.00
26.5699 6656.00
26.6351 6370.00
26.7003 6205.00
26.7655 6273.00
26.8307 6190.00
26.8959 6189.00
26.9611 6046.00
27.0263 6149.00
27.0915 6223.00
27.1567 6028.00
27.2219 6226.00
27.2871 5943.00
27.3523 6101.00
27.4175 6218.00
27.4827 6153.00
27.5479 6090.00
27.6131 6188.00
27.6783 6332.00
27.7435 6276.00
27.8087 6231.00
27.8739 6148.00
27.9391 6219.00
28.0043 6109.00
28.0695 6110.00
28.1347 6220.00
28.1999 6155.00
28.2651 6133.00
28.3303 6302.00
28.3955 6251.00
28.4606 6003.00
28.5258 6060.00
28.591 6139.00
28.6562 6242.00
28.7214 6054.00
28.7866 6102.00
28.8518 6128.00
28.917 6150.00
28.9822 6131.00
29.0474 6067.00
29.1126 6274.00
29.1778 6158.00
29.243 6142.00
29.3082 6124.00
29.3734 6165.00
29.4386 6117.00
29.5038 6233.00
29.569 6315.00
29.6342 6233.00
29.6994 6202.00
29.7646 6350.00
29.8298 6346.00
29.895 6458.00
29.9602 6429.00
30.0254 6206.00
30.0906 6246.00
30.1558 6248.00
30.221 6058.00
30.2862 6369.00
30.3514 6478.00
30.4166 6469.00
30.4818 6719.00
30.547 7306.00
30.6122 8632.00
30.6774 10655.00
30.7426 9640.00
30.8078 7772.00
30.873 6855.00
30.9382 6899.00
31.0034 6982.00
31.0686 6946.00
31.1338 6493.00
31.199 6331.00
31.2642 6383.00
31.3294 6169.00
31.3946 6259.00
31.4598 6236.00
31.525 6314.00
31.5902 6137.00
31.6554 6352.00
31.7206 6173.00
31.7858 6195.00
31.851 6109.00
31.9162 6434.00
31.9814 6489.00
32.0466 6563.00
32.1118 7264.00
32.177 8480.00
32.2422 8198.00
32.3074 7334.00
32.3726 6662.00
32.4378 6432.00
32.503 6310.00
32.5682 6321.00
32.6334 6216.00
32.6986 6227.00
32.7638 6369.00
32.829 6257.00
32.8942 6235.00
32.9594 6097.00
33.0246 6166.00
33.0898 6170.00
33.1549 6184.00
33.2201 6220.00
33.2853 6143.00
33.3505 6263.00
33.4157 6183.00
33.4809 6162.00
33.5461 6180.00
33.6113 6071.00
33.6765 6134.00
33.7417 6259.00
33.8069 6083.00
33.8721 6153.00
33.9373 6154.00
34.0025 6311.00
34.0677 6377.00
34.1329 6366.00
34.1981 6283.00
34.2633 6266.00
34.3285 6426.00
34.3937 6493.00
34.4589 6471.00
34.5241 6682.00
34.5893 6499.00
34.6545 6428.00
34.7197 6196.00
34.7849 6443.00
34.8501 6299.00
34.9153 6262.00
34.9805 6312.00
35.0457 6119.00
35.1109 6260.00
35.1761 6292.00
35.2413 6222.00
35.3065 6307.00
35.3717 6291.00
35.4369 6286.00
35.5021 6413.00
35.5673 6335.00
35.6325 6412.00
35.6977 6617.00
35.7629 6679.00
35.8281 7072.00
35.8933 7976.00
35.9585 10760.00
36.0237 17053.00
36.0889 18320.00
36.1541 14010.00
36.2193 9378.00
36.2845 7400.00
36.3497 6840.00
36.4149 7086.00
36.4801 7462.00
36.5453 7051.00
36.6105 6783.00
36.6757 6415.00
36.7409 6221.00
36.8061 6197.00
36.8713 6100.00
36.9365 6348.00
37.0017 6254.00
37.0669 6349.00
37.1321 6300.00
37.1973 6296.00
37.2625 6371.00
37.3277 6584.00
37.3929 6732.00
37.4581 6465.00
37.5233 6228.00
37.5885 6337.00
37.6537 6514.00
37.7189 6511.00
37.7841 6533.00
37.8493 6345.00
37.9145 6238.00
37.9796 6127.00
38.0448 6247.00
38.11 6201.00
38.1752 6088.00
38.2404 6181.00
38.3056 6195.00
38.3708 6144.00
38.436 6168.00
38.5012 6078.00
38.5664 6152.00
38.6316 6024.00
38.6968 6263.00
38.762 6264.00
38.8272 6431.00
38.8924 6092.00
38.9576 6121.00
39.0228 6196.00
39.088 6279.00
39.1532 6212.00
39.2184 6271.00
39.2836 6183.00
39.3488 6096.00
39.414 6332.00
39.4792 6112.00
39.5444 6152.00
39.6096 6266.00
39.6748 6242.00
39.74 6250.00
39.8052 6240.00
39.8704 6104.00
39.9356 6453.00
40.0008 6559.00
40.066 6373.00
40.1312 6209.00
40.1964 6109.00
40.2616 6245.00
40.3268 6239.00
40.392 6222.00
40.4572 6291.00
40.5224 6193.00
40.5876 6183.00
40.6528 6259.00
40.718 6116.00
40.7832 6138.00
40.8484 6174.00
40.9136 6108.00
40.9788 6316.00
41.044 6242.00
41.1092 6213.00
41.1744 6289.00
41.2396 6177.00
41.3048 6282.00
41.37 6203.00
41.4352 6056.00
41.5004 6210.00
41.5656 6196.00
41.6308 6254.00
41.696 6087.00
41.7612 6084.00
41.8264 6282.00
41.8916 6251.00
41.9568 6097.00
42.022 6143.00
42.0872 6324.00
42.1524 6260.00
42.2176 6196.00
42.2828 6249.00
42.348 6178.00
42.4132 6144.00
42.4784 6236.00
42.5436 6231.00
42.6088 6231.00
42.6739 6112.00
42.7392 6275.00
42.8043 6200.00
42.8695 6157.00
42.9347 6241.00
42.9999 6223.00
43.0651 6332.00
43.1303 6237.00
43.1955 6109.00
43.2607 6161.00
43.3259 6315.00
43.3911 6465.00
43.4563 6184.00
43.5215 6344.00
43.5867 6548.00
43.6519 7296.00
43.7171 8590.00
43.7823 7963.00
43.8475 7755.00
43.9127 6970.00
43.9779 6435.00
44.0431 6277.00
44.1083 6102.00
44.1735 6273.00
44.2387 6236.00
44.3039 6347.00
44.3691 6316.00
44.4343 6314.00
44.4995 6240.00
44.5647 6188.00
44.6299 6118.00
44.6951 6064.00
44.7603 6197.00
44.8255 6350.00
44.8907 6239.00
44.9559 6324.00
45.0211 6071.00
45.0863 6268.00
45.1515 6025.00
45.2167 6386.00
45.2819 6367.00
45.3471 6250.00
45.4123 6287.00
45.4775 6228.00
45.5427 6262.00
45.6079 6237.00
45.6731 6221.00
45.7383 6077.00
45.8035 6230.00
45.8687 6235.00
45.9339 6150.00
45.9991 6155.00
46.0643 6190.00
46.1295 6235.00
46.1947 6053.00
46.2599 6081.00
46.3251 6178.00
46.3903 6136.00
46.4555 6229.00
46.5207 6260.00
46.5859 6237.00
46.6511 6160.00
46.7163 6239.00
46.7815 6207.00
46.8467 6095.00
46.9119 6210.00
46.9771 6225.00
47.0423 6134.00
47.1075 6111.00
47.1727 6101.00
47.2379 6107.00
47.3031 6168.00
47.3683 6181.00
47.4335 6068.00
47.4986 6127.00
47.5639 6035.00
47.629 6221.00
47.6942 6157.00
47.7594 6104.00
47.8246 6249.00
47.8898 6157.00
47.955 6169.00
48.0202 6132.00
48.0854 6195.00
48.1506 6164.00
48.2158 6183.00
48.281 6061.00
48.3462 6254.00
48.4114 6135.00
48.4766 6119.00
48.5418 6196.00
48.607 6227.00
48.6722 6199.00
48.7374 6182.00
48.8026 6190.00
48.8678 6056.00
48.933 6063.00
48.9982 6254.00
49.0634 6275.00
49.1286 6345.00
49.1938 6198.00
49.259 6311.00
49.3242 6293.00
49.3894 6337.00
49.4546 6163.00
49.5198 6278.00
49.585 6044.00
49.6502 6154.00
49.7154 6298.00
49.7806 6150.00
49.8458 6222.00
49.911 6073.00
49.9762 6183.00
50.0414 6182.00
50.1066 6238.00
50.1718 6278.00
50.237 6135.00
50.3022 6110.00
50.3674 6382.00
50.4326 6324.00
50.4978 6342.00
50.563 6200.00
50.6282 6389.00
50.6934 6298.00
50.7586 6261.00
50.8238 6279.00
50.889 6240.00
50.9542 6189.00
51.0194 6195.00
51.0846 6099.00
51.1498 6237.00
51.215 6249.00
51.2802 6247.00
51.3454 6142.00
51.4106 6122.00
51.4758 6128.00
51.541 6145.00
51.6062 6119.00
51.6714 6131.00
51.7366 6206.00
51.8018 6016.00
51.867 6240.00
51.9322 6187.00
51.9974 6244.00
52.0626 6102.00
52.1278 6193.00
52.193 6197.00
52.2582 6414.00
52.3233 6233.00
52.3886 6310.00
52.4537 6225.00
52.5189 6090.00
52.5841 6252.00
52.6493 6308.00
52.7145 6196.00
52.7797 6243.00
52.8449 6152.00
52.9101 6081.00
52.9753 6243.00
53.0405 6196.00
53.1057 6243.00
53.1709 6157.00
53.2361 6279.00
53.3013 6248.00
53.3665 6222.00
53.4317 6106.00
53.4969 6166.00
53.5621 6209.00
53.6273 6320.00
53.6925 5986.00
53.7577 6098.00
53.8229 6024.00
53.8881 6289.00
53.9533 6257.00
54.0185 6513.00
54.0837 7010.00
54.1489 7650.00
54.2141 7015.00
54.2793 7102.00
54.3445 6639.00
54.4097 6468.00
54.4749 6295.00
54.5401 6211.00
54.6053 6232.00
54.6705 6130.00
54.7357 6158.00
54.8009 6202.00
54.8661 6137.00
54.9313 6185.00
54.9965 6338.00
55.0617 6205.00
55.1269 6123.00
55.1921 6238.00
55.2573 6222.00
55.3225 6280.00
55.3877 6269.00
55.4529 6281.00
55.5181 6248.00
55.5833 6175.00
55.6485 6098.00
55.7137 6301.00
55.7789 6076.00
55.8441 6254.00
55.9093 6218.00
55.9745 6193.00
56.0397 6278.00
56.1049 6091.00
56.1701 6246.00
56.2353 6223.00
56.3005 6275.00
56.3657 6232.00
56.4309 6295.00
56.4961 6218.00
56.5613 6180.00
56.6265 6510.00
56.6917 6099.00
56.7569 6270.00
56.8221 6265.00
56.8873 6309.00
56.9525 6313.00
57.0177 6467.00
57.0829 6149.00
57.148 6383.00
57.2132 6303.00
57.2784 6379.00
57.3436 6531.00
57.4088 6459.00
57.474 6417.00
57.5392 6733.00
57.6044 7731.00
57.6696 9423.00
57.7348 8855.00
57.8 8231.00
57.8652 8005.00
57.9304 6937.00
57.9956 6598.00
58.0608 6503.00
58.126 6523.00
58.1912 6330.00
58.2564 6543.00
58.3216 6257.00
58.3868 6336.00
58.452 6201.00
58.5172 6260.00
58.5824 6206.00
58.6476 6371.00
58.7128 6248.00
58.778 6449.00
58.8432 6314.00
58.9084 6220.00
58.9736 6288.00
59.0388 6292.00
59.104 6335.00
59.1692 6174.00
59.2344 6299.00
59.2996 6302.00
59.3648 6224.00
59.43 6336.00
59.4952 6244.00
59.5604 6299.00
59.6256 6111.00
59.6908 6283.00
59.756 6194.00
59.8212 6173.00
59.8864 6382.00
59.9516 6394.00
60.0168 6338.00
60.082 6320.00
60.1472 6466.00
60.2124 6273.00
60.2776 6247.00
60.3428 6278.00
60.408 6345.00
60.4732 6209.00
60.5384 6179.00
60.6036 6295.00
60.6688 6253.00
60.734 6352.00
60.7992 6214.00
60.8644 6284.00
60.9296 6232.00
60.9948 6404.00
61.06 6275.00
61.1252 6235.00
61.1904 6363.00
61.2556 6243.00
61.3208 6345.00
61.386 6313.00
61.4512 6313.00
61.5164 6245.00
61.5816 6206.00
61.6468 6279.00
61.712 6378.00
61.7772 6254.00
61.8424 6315.00
61.9076 6224.00
61.9727 6302.00
62.0379 6151.00
62.1031 6213.00
62.1683 6264.00
62.2335 6178.00
62.2987 6140.00
62.3639 6319.00
62.4291 6291.00
62.4943 6475.00
62.5595 6139.00
62.6247 6210.00
62.6899 6178.00
62.7551 6364.00
62.8203 6352.00
62.8855 6281.00
62.9507 6384.00
63.0159 6421.00
63.0811 6515.00
63.1463 6724.00
63.2115 7790.00
63.2767 10454.00
63.3419 10211.00
63.4071 8687.00
63.4723 9125.00
63.5375 8028.00
63.6027 7020.00
63.6679 6654.00
63.7331 6445.00
63.7983 6263.00
63.8635 6338.00
63.9287 6264.00
63.9939 6419.00
64.0591 6239.00
64.1243 6356.00
64.1895 6350.00
64.2547 6193.00
64.3199 6188.00
64.3851 6312.00
64.4503 6241.00
64.5155 6225.00
64.5807 6213.00
64.6459 6304.00
64.7111 6412.00
64.7763 6127.00
64.8415 6266.00
64.9067 6194.00
64.9719 6339.00
65.0371 6153.00
65.1023 6202.00
65.1675 6260.00
65.2327 6330.00
65.2979 6286.00
65.3631 6328.00
65.4283 6147.00
65.4935 6391.00
65.5587 6279.00
65.6239 6173.00
65.6891 6202.00
65.7543 6251.00
65.8195 6391.00
65.8847 6176.00
65.9499 6238.00
66.0151 6253.00
66.0803 6194.00
66.1455 6230.00
66.2107 6326.00
66.2759 6346.00
66.3411 6141.00
66.4063 6100.00
66.4715 6206.00
66.5367 6320.00
66.6019 6294.00
66.6671 6162.00
66.7322 6309.00
66.7974 6348.00
66.8626 6102.00
66.9278 6252.00
66.993 6019.00
67.0582 6165.00
67.1234 6204.00
67.1886 6279.00
67.2538 6093.00
67.319 6129.00
67.3842 6360.00
67.4494 6239.00
67.5146 6326.00
67.5798 6292.00
67.645 6335.00
67.7102 6303.00
67.7754 6180.00
67.8406 6195.00
67.9058 6313.00
67.971 6082.00
68.0362 6229.00
68.1014 6225.00
68.1666 6144.00
68.2318 6158.00
68.297 6233.00
68.3622 6247.00
68.4274 6204.00
68.4926 6192.00
68.5578 6412.00
68.623 6359.00
68.6882 6231.00
68.7534 6204.00
68.8186 6187.00
68.8838 6474.00
68.949 6214.00
69.0142 6328.00
69.0794 6089.00
69.1446 6216.00
69.2098 6142.00
69.275 6227.00
69.3402 6247.00
69.4054 6230.00
69.4706 6247.00
69.5358 6289.00
69.601 6177.00
69.6662 6211.00
69.7314 6300.00
69.7966 6250.00
69.8618 6321.00
69.927 6241.00
69.9922 6265.00
70.0574 6167.00
70.1226 6265.00
70.1878 6220.00
70.253 6189.00
70.3182 6263.00
70.3834 6161.00
70.4486 6194.00
70.5138 6309.00
70.579 6123.00
70.6442 6250.00
70.7094 6161.00
70.7746 6107.00
70.8398 6199.00
70.905 6297.00
70.9702 6322.00
71.0354 6221.00
71.1006 6159.00
71.1658 6323.00
71.231 6257.00
71.2962 6248.00
71.3614 6265.00
71.4266 6165.00
71.4918 6349.00
71.5569 6329.00
71.6221 6270.00
71.6873 6425.00
71.7525 6653.00
71.8177 6266.00
71.8829 6485.00
71.9481 6502.00
72.0133 6538.00
72.0785 6456.00
72.1437 6225.00
72.2089 6372.00
72.2741 6158.00
72.3393 6330.00
72.4045 6287.00
72.4697 6314.00
72.5349 6221.00
72.6001 6179.00
72.6653 6306.00
72.7305 6374.00
72.7957 6339.00
72.8609 6183.00
72.9261 6399.00
72.9913 6296.00
73.0565 6246.00
73.1217 6303.00
73.1869 6250.00
73.2521 6186.00
73.3173 6179.00
73.3825 6244.00
73.4477 6313.00
73.5129 6244.00
73.5781 6342.00
73.6433 6315.00
73.7085 6037.00
73.7737 6236.00
73.8389 6290.00
73.9041 6313.00
73.9693 6308.00
74.0345 6158.00
74.0997 6255.00
74.1649 6343.00
74.2301 6327.00
74.2953 6320.00
74.3605 6289.00
74.4257 6303.00
74.4909 6204.00
74.5561 6295.00
74.6213 6331.00
74.6865 6494.00
74.7517 6752.00
74.8169 7113.00
74.8821 6917.00
74.9473 6757.00
75.0125 6712.00
75.0777 6602.00
75.1429 6432.00
75.2081 6443.00
75.2733 6254.00
75.3385 6185.00
75.4037 6279.00
75.4689 6358.00
75.5341 6200.00
75.5993 6174.00
75.6645 6307.00
75.7297 6170.00
75.7949 6337.00
75.8601 6391.00
75.9253 6352.00
75.9905 6240.00
76.0557 6257.00
76.1209 6318.00
76.186 6324.00
76.2513 6280.00
76.3165 6206.00
76.3816 6323.00
76.4468 6218.00
76.512 6153.00
76.5772 6284.00
76.6424 6376.00
76.7076 6306.00
76.7728 6315.00
76.838 6394.00
76.9032 6304.00
76.9684 6183.00
77.0336 6201.00
77.0988 6261.00
77.164 6150.00
77.2292 6162.00
77.2944 6232.00
77.3596 6228.00
77.4248 6162.00
77.49 6227.00
77.5552 6254.00
77.6204 6271.00
77.6856 6117.00
77.7508 6216.00
77.816 6208.00
77.8812 6178.00
77.9464 6331.00
78.0116 6114.00
78.0768 6175.00
78.142 6233.00
78.2072 6260.00
78.2724 6355.00
78.3376 6236.00
78.4028 6322.00
78.468 6317.00
78.5332 6209.00
78.5984 6312.00
78.6636 6254.00
78.7288 6137.00
78.794 6297.00
78.8592 6165.00
78.9244 6277.00
78.9896 6162.00
79.0548 6279.00
79.12 6135.00
79.1852 6358.00
79.2504 6285.00
79.3156 6138.00
79.3808 6152.00
79.446 6300.00
79.5112 6249.00
79.5764 6236.00
79.6416 6257.00
79.7068 6294.00
79.772 6338.00
79.8372 6210.00
79.9024 6381.00
79.9676 6342.00
80.0328 6522.00
80.098 6458.00
80.1632 6105.00
80.2284 6255.00
80.2936 6188.00
80.3588 6193.00
80.424 6249.00
80.4892 6214.00
80.5544 6127.00
80.6196 6335.00
80.6848 6236.00
80.75 6212.00
80.8152 6025.00
80.8804 6335.00
80.9456 6199.00
81.0108 6329.00
81.076 6233.00
81.1412 6162.00
81.2063 6196.00
81.2715 6249.00
81.3367 6309.00
81.4019 6207.00
81.4671 6214.00
81.5323 6145.00
81.5975 6283.00
81.6627 6209.00
81.7279 6163.00
81.7931 6162.00
81.8583 6203.00
81.9235 6236.00
81.9887 6143.00
82.0539 6249.00
82.1191 6270.00
82.1843 6426.00
82.2495 6273.00
82.3147 6214.00
82.3799 6116.00
82.4451 6259.00
82.5103 6156.00
82.5755 6124.00
82.6407 6246.00
82.7059 6138.00
82.7711 6313.00
82.8363 6191.00
82.9015 6342.00
82.9667 6241.00
83.0319 6276.00
83.0971 6189.00
83.1623 6325.00
83.2275 6238.00
83.2927 6347.00
83.3579 6219.00
83.4231 6273.00
83.4883 6291.00
83.5535 6165.00
83.6187 6287.00
83.6839 6267.00
83.7491 6272.00
83.8143 6331.00
83.8795 6288.00
83.9447 6313.00
84.0099 6156.00
84.0751 6169.00
84.1403 6324.00
84.2055 6406.00
84.2707 6146.00
84.3359 6341.00
84.4011 6294.00
84.4663 6189.00
84.5315 6204.00
84.5967 6323.00
84.6619 6314.00
84.7271 6217.00
84.7923 6203.00
84.8575 6194.00
84.9227 6306.00
84.9879 6262.00
85.0531 6219.00
85.1183 6152.00
85.1835 6203.00
85.2487 6220.00
85.3139 6262.00
85.3791 6274.00
85.4443 6204.00
85.5095 6286.00
85.5747 6330.00
85.6399 6240.00
85.7051 6241.00
85.7703 6285.00
85.8354 6218.00
85.9006 6246.00
85.9659 6328.00
86.031 6232.00
86.0962 6397.00
86.1614 6258.00
86.2266 6332.00
86.2918 6188.00
86.357 6133.00
86.4222 6228.00
86.4874 6281.00
86.5526 6263.00
86.6178 6262.00
86.683 6218.00
86.7482 6228.00
86.8134 6310.00
86.8786 6283.00
86.9438 6072.00
87.009 6236.00
87.0742 6177.00
87.1394 6284.00
87.2046 6380.00
87.2698 6197.00
87.335 6204.00
87.4002 6214.00
87.4654 6335.00
87.5306 6366.00
87.5958 6347.00
87.661 6629.00
87.7262 6505.00
87.7914 6347.00
87.8566 6487.00
87.9218 6554.00
87.987 6520.00
88.0522 6347.00
88.1174 6348.00
88.1826 6305.00
88.2478 6283.00
88.313 6362.00
88.3782 6308.00
88.4434 6317.00
88.5086 6155.00
88.5738 6274.00
88.639 6311.00
88.7042 6341.00
88.7694 6284.00
88.8346 6092.00
88.8998 6248.00
88.965 6335.00
89.0302 6321.00
89.0954 6388.00
89.1606 6226.00
89.2258 6271.00
89.291 6250.00
89.3562 6337.00
89.4214 6330.00
89.4866 6276.00
89.5518 6267.00
89.617 6280.00
89.6822 6222.00
89.7474 6324.00
89.8126 6325.00
89.8778 6149.00
89.943 6292.00
90.0082 6136.00
90.0734 6267.00
90.1386 6295.00
90.2038 6355.00
90.269 6395.00
90.3342 6280.00
90.3994 6508.00
90.4646 6765.00
90.5298 7008.00
90.595 7261.00
90.6601 7161.00
90.7253 6691.00
90.7905 6591.00
90.8557 6809.00
90.9209 6590.00
90.9861 6648.00
91.0513 6402.00
91.1165 6460.00
91.1817 6241.00
91.2469 6335.00
91.3121 6383.00
91.3773 6254.00
91.4425 6208.00
91.5077 6368.00
91.5729 6193.00
91.6381 6190.00
91.7033 6323.00
91.7685 6265.00
91.8337 6402.00
91.8989 6284.00
91.9641 6191.00
92.0293 6253.00
92.0945 6306.00
92.1597 6339.00
92.2249 6205.00
92.2901 6225.00
92.3553 6364.00
92.4205 6313.00
92.4857 6334.00
92.5509 6298.00
92.6161 6263.00
92.6813 6317.00
92.7465 6259.00
92.8117 6232.00
92.8769 6124.00
92.9421 6184.00
93.0073 6294.00
93.0725 6332.00
93.1377 6293.00
93.2029 6337.00
93.2681 6397.00
93.3333 6418.00
93.3985 6247.00
93.4637 6312.00
93.5289 6384.00
93.5941 6211.00
93.6593 6205.00
93.7245 6208.00
93.7897 6371.00
93.8549 6265.00
93.9201 6197.00
93.9853 6152.00
94.0505 6236.00
94.1157 6309.00
94.1809 6297.00
94.2461 6333.00
94.3113 6278.00
94.3765 6474.00
94.4417 6323.00
94.5069 6353.00
94.5721 6228.00
94.6373 6349.00
94.7025 6347.00
94.7677 6399.00
94.8329 6253.00
94.8981 6295.00
94.9633 6350.00
95.0285 6220.00
95.0937 6340.00
95.1589 6252.00
95.2241 6448.00
95.2893 6326.00
95.3545 6367.00
95.4197 6717.00
95.4848 6634.00
95.55 6403.00
95.6153 6415.00
95.6804 6596.00
95.7456 6518.00
95.8108 6426.00
95.876 6395.00
95.9412 6263.00
96.0064 6212.00
96.0716 6264.00
96.1368 6215.00
96.202 6168.00
96.2672 6239.00
96.3324 6339.00
96.3976 6341.00
96.4628 6317.00
96.528 6288.00
96.5932 6271.00
96.6584 6371.00
96.7236 6178.00
96.7888 6200.00
96.854 6210.00
96.9192 6365.00
96.9844 6368.00
97.0496 6249.00
97.1148 6235.00
97.18 6307.00
97.2452 6226.00
97.3104 6387.00
97.3756 6357.00
97.4408 6333.00
97.506 6329.00
97.5712 6246.00
97.6364 6378.00
97.7016 6302.00
97.7668 6351.00
97.832 6293.00
97.8972 6211.00
97.9624 6367.00
98.0276 6309.00
98.0928 6243.00
98.158 6276.00
98.2232 6292.00
98.2884 6209.00
98.3536 6333.00
98.4188 6382.00
98.484 6359.00
98.5492 6353.00
98.6144 6452.00
98.6796 6164.00
98.7448 6251.00
98.81 6386.00
98.8752 6269.00
98.9404 6093.00
99.0056 6185.00
99.0708 6272.00
99.136 6271.00
99.2012 6341.00
99.2664 6355.00
99.3316 6523.00
99.3968 6333.00
99.462 6205.00
99.5272 6310.00
99.5924 6310.00
99.6576 6324.00
99.7228 6385.00
99.788 6320.00
99.8532 6232.00
99.9184 6253.00
99.9836 6385.00
99.9944 6229.00