File: data/xrd_creation/results/PG_1948-1.xy
9.903433 2421.00
9.968632 2489.00
10.0338 2459.00
10.099 2434.00
10.1642 2349.00
10.2294 2415.00
10.2946 2381.00
10.3598 2280.00
10.425 2256.00
10.4902 2328.00
10.5554 2320.00
10.6206 2287.00
10.6858 2220.00
10.751 2159.00
10.8162 2191.00
10.8814 2147.00
10.9466 2163.00
11.0118 2100.00
11.077 2099.00
11.1422 2048.00
11.2074 1984.00
11.2726 2104.00
11.3378 1929.00
11.403 2037.00
11.4682 1967.00
11.5334 1916.00
11.5986 1972.00
11.6638 1887.00
11.729 1953.00
11.7942 1955.00
11.8594 1941.00
11.9246 1937.00
11.9898 1856.00
12.055 1881.00
12.1202 1875.00
12.1854 1821.00
12.2506 1783.00
12.3158 1730.00
12.381 1779.00
12.4462 1705.00
12.5114 1726.00
12.5766 1684.00
12.6418 1642.00
12.707 1609.00
12.7722 1626.00
12.8374 1663.00
12.9026 1681.00
12.9678 1627.00
13.033 1581.00
13.0982 1605.00
13.1634 1610.00
13.2286 1554.00
13.2938 1633.00
13.359 1561.00
13.4242 1477.00
13.4894 1520.00
13.5546 1506.00
13.6198 1565.00
13.685 1512.00
13.7502 1450.00
13.8154 1487.00
13.8805 1497.00
13.9457 1378.00
14.0109 1426.00
14.0761 1411.00
14.1413 1469.00
14.2065 1433.00
14.2717 1346.00
14.3369 1441.00
14.4021 1427.00
14.4673 1355.00
14.5325 1353.00
14.5977 1366.00
14.6629 1342.00
14.7281 1310.00
14.7933 1336.00
14.8585 1334.00
14.9237 1314.00
14.9889 1350.00
15.0541 1341.00
15.1193 1330.00
15.1845 1292.00
15.2497 1259.00
15.3149 1360.00
15.3801 1296.00
15.4453 1278.00
15.5105 1246.00
15.5757 1294.00
15.6409 1279.00
15.7061 1236.00
15.7713 1308.00
15.8365 1284.00
15.9017 1296.00
15.9669 1240.00
16.0321 1261.00
16.0973 1214.00
16.1625 1316.00
16.2277 1246.00
16.2929 1218.00
16.3581 1279.00
16.4233 1200.00
16.4885 1231.00
16.5537 1220.00
16.6189 1197.00
16.6841 1164.00
16.7493 1239.00
16.8145 1174.00
16.8797 1228.00
16.9449 1225.00
17.0101 1241.00
17.0753 1122.00
17.1405 1129.00
17.2057 1094.00
17.2709 1193.00
17.3361 1094.00
17.4013 1065.00
17.4665 1149.00
17.5317 1122.00
17.5969 1050.00
17.6621 1123.00
17.7273 1109.00
17.7925 1066.00
17.8577 1080.00
17.9229 1043.00
17.9881 1031.00
18.0533 1048.00
18.1185 1094.00
18.1837 1089.00
18.2489 1033.00
18.3141 1064.00
18.3793 1025.00
18.4445 1064.00
18.5097 1046.00
18.5749 1026.00
18.6401 1115.00
18.7052 961.00
18.7704 1055.00
18.8356 979.00
18.9008 1044.00
18.966 992.00
19.0312 960.00
19.0964 981.00
19.1616 1031.00
19.2268 998.00
19.292 945.00
19.3572 931.00
19.4224 1020.00
19.4876 907.00
19.5528 968.00
19.618 938.00
19.6832 985.00
19.7484 947.00
19.8136 997.00
19.8788 971.00
19.944 896.00
20.0092 903.00
20.0744 944.00
20.1396 924.00
20.2048 934.00
20.27 958.00
20.3352 950.00
20.4004 917.00
20.4656 885.00
20.5308 936.00
20.596 911.00
20.6612 911.00
20.7264 874.00
20.7916 867.00
20.8568 814.00
20.922 900.00
20.9872 796.00
21.0524 865.00
21.1176 881.00
21.1828 830.00
21.248 832.00
21.3132 885.00
21.3784 825.00
21.4436 857.00
21.5088 820.00
21.574 802.00
21.6392 876.00
21.7044 800.00
21.7696 843.00
21.8348 831.00
21.9 863.00
21.9652 807.00
22.0304 802.00
22.0956 802.00
22.1608 815.00
22.226 793.00
22.2912 830.00
22.3564 823.00
22.4216 833.00
22.4868 854.00
22.552 900.00
22.6172 846.00
22.6824 765.00
22.7476 783.00
22.8128 782.00
22.878 852.00
22.9432 813.00
23.0084 788.00
23.0736 782.00
23.1388 804.00
23.204 761.00
23.2692 773.00
23.3344 735.00
23.3996 733.00
23.4647 763.00
23.5299 735.00
23.5951 799.00
23.6603 805.00
23.7255 759.00
23.7907 788.00
23.8559 761.00
23.9211 759.00
23.9863 747.00
24.0515 716.00
24.1167 749.00
24.1819 756.00
24.2471 712.00
24.3123 731.00
24.3775 777.00
24.4427 760.00
24.5079 694.00
24.5731 730.00
24.6383 784.00
24.7035 710.00
24.7687 727.00
24.8339 695.00
24.8991 728.00
24.9643 702.00
25.0295 759.00
25.0947 675.00
25.1599 694.00
25.2251 711.00
25.2903 694.00
25.3555 706.00
25.4207 670.00
25.4859 682.00
25.5511 678.00
25.6163 642.00
25.6815 679.00
25.7467 646.00
25.8119 659.00
25.8771 655.00
25.9423 633.00
26.0075 689.00
26.0727 663.00
26.1379 717.00
26.2031 700.00
26.2683 706.00
26.3335 700.00
26.3987 653.00
26.4639 679.00
26.5291 687.00
26.5943 656.00
26.6595 644.00
26.7247 605.00
26.7899 624.00
26.8551 640.00
26.9203 658.00
26.9855 646.00
27.0507 671.00
27.1159 635.00
27.1811 678.00
27.2463 618.00
27.3115 679.00
27.3767 673.00
27.4419 667.00
27.5071 651.00
27.5723 621.00
27.6375 593.00
27.7027 583.00
27.7679 632.00
27.8331 621.00
27.8983 602.00
27.9635 682.00
28.0287 677.00
28.0939 633.00
28.1591 686.00
28.2243 716.00
28.2894 729.00
28.3546 842.00
28.4198 1044.00
28.485 791.00
28.5502 694.00
28.6154 596.00
28.6806 574.00
28.7458 587.00
28.811 573.00
28.8762 582.00
28.9414 632.00
29.0066 582.00
29.0718 606.00
29.137 576.00
29.2022 608.00
29.2674 562.00
29.3326 604.00
29.3978 554.00
29.463 588.00
29.5282 564.00
29.5934 550.00
29.6586 556.00
29.7238 572.00
29.789 604.00
29.8542 597.00
29.9194 553.00
29.9846 570.00
30.0498 562.00
30.115 551.00
30.1802 583.00
30.2454 514.00
30.3106 590.00
30.3758 582.00
30.441 552.00
30.5062 532.00
30.5714 553.00
30.6366 555.00
30.7018 523.00
30.767 498.00
30.8322 534.00
30.8974 529.00
30.9626 546.00
31.0278 495.00
31.093 561.00
31.1582 565.00
31.2234 676.00
31.2886 710.00
31.3538 585.00
31.419 565.00
31.4842 533.00
31.5494 524.00
31.6146 540.00
31.6798 533.00
31.745 538.00
31.8102 495.00
31.8754 515.00
31.9406 517.00
32.0058 487.00
32.071 519.00
32.1362 472.00
32.2014 484.00
32.2666 473.00
32.3318 523.00
32.397 491.00
32.4622 527.00
32.5274 527.00
32.5926 451.00
32.6578 485.00
32.723 510.00
32.7882 489.00
32.8534 456.00
32.9186 491.00
32.9838 515.00
33.0489 496.00
33.1141 477.00
33.1793 490.00
33.2445 468.00
33.3097 500.00
33.3749 447.00
33.4401 441.00
33.5053 471.00
33.5705 505.00
33.6357 471.00
33.7009 522.00
33.7661 489.00
33.8313 481.00
33.8965 455.00
33.9617 459.00
34.0269 480.00
34.0921 533.00
34.1573 479.00
34.2225 427.00
34.2877 473.00
34.3529 468.00
34.4181 492.00
34.4833 511.00
34.5485 490.00
34.6137 462.00
34.6789 483.00
34.7441 398.00
34.8093 442.00
34.8745 450.00
34.9397 461.00
35.0049 438.00
35.0701 404.00
35.1353 444.00
35.2005 400.00
35.2657 403.00
35.3309 441.00
35.3961 456.00
35.4613 449.00
35.5265 422.00
35.5917 425.00
35.6569 408.00
35.7221 414.00
35.7873 438.00
35.8525 427.00
35.9177 406.00
35.9829 385.00
36.0481 394.00
36.1133 464.00
36.1785 439.00
36.2437 451.00
36.3089 385.00
36.3741 435.00
36.4393 372.00
36.5045 434.00
36.5697 410.00
36.6349 446.00
36.7001 425.00
36.7653 472.00
36.8305 394.00
36.8957 382.00
36.9609 425.00
37.0261 419.00
37.0913 422.00
37.1565 389.00
37.2217 442.00
37.2869 413.00
37.3521 410.00
37.4173 405.00
37.4825 394.00
37.5477 383.00
37.6129 375.00
37.6781 394.00
37.7433 389.00
37.8085 392.00
37.8736 397.00
37.9388 366.00
38.004 383.00
38.0692 413.00
38.1344 383.00
38.1996 390.00
38.2648 377.00
38.33 381.00
38.3952 403.00
38.4604 369.00
38.5256 382.00
38.5908 398.00
38.656 422.00
38.7212 371.00
38.7864 375.00
38.8516 388.00
38.9168 415.00
38.982 356.00
39.0472 373.00
39.1124 371.00
39.1776 342.00
39.2428 349.00
39.308 364.00
39.3732 339.00
39.4384 387.00
39.5036 379.00
39.5688 358.00
39.634 343.00
39.6992 386.00
39.7644 323.00
39.8296 388.00
39.8948 328.00
39.96 354.00
40.0252 325.00
40.0904 341.00
40.1556 363.00
40.2208 345.00
40.286 373.00
40.3512 375.00
40.4164 336.00
40.4816 347.00
40.5468 361.00
40.612 377.00
40.6772 357.00
40.7424 347.00
40.8076 335.00
40.8728 331.00
40.938 325.00
41.0032 297.00
41.0684 353.00
41.1336 305.00
41.1988 324.00
41.264 317.00
41.3292 336.00
41.3944 327.00
41.4596 357.00
41.5248 316.00
41.59 350.00
41.6552 323.00
41.7204 328.00
41.7856 327.00
41.8508 336.00
41.916 306.00
41.9812 324.00
42.0464 336.00
42.1116 333.00
42.1768 313.00
42.242 313.00
42.3072 309.00
42.3724 294.00
42.4376 336.00
42.5028 313.00
42.568 318.00
42.6332 328.00
42.6983 338.00
42.7635 311.00
42.8287 359.00
42.8939 333.00
42.9591 361.00
43.0243 341.00
43.0895 386.00
43.1547 380.00
43.2199 363.00
43.2851 352.00
43.3503 305.00
43.4155 311.00
43.4807 331.00
43.5459 330.00
43.6111 300.00
43.6763 294.00
43.7415 334.00
43.8067 338.00
43.8719 327.00
43.9371 322.00
44.0023 289.00
44.0675 330.00
44.1327 311.00
44.1979 313.00
44.2631 296.00
44.3283 292.00
44.3935 296.00
44.4587 317.00
44.5239 296.00
44.5891 271.00
44.6543 297.00
44.7195 337.00
44.7847 296.00
44.8499 277.00
44.9151 312.00
44.9803 306.00
45.0455 317.00
45.1107 262.00
45.1759 292.00
45.2411 304.00
45.3063 332.00
45.3715 292.00
45.4367 301.00
45.5019 301.00
45.5671 287.00
45.6323 273.00
45.6975 323.00
45.7627 319.00
45.8279 256.00
45.8931 284.00
45.9583 277.00
46.0235 288.00
46.0887 294.00
46.1539 311.00
46.2191 310.00
46.2843 283.00
46.3495 317.00
46.4147 285.00
46.4799 304.00
46.5451 298.00
46.6103 285.00
46.6755 238.00
46.7407 286.00
46.8059 272.00
46.8711 271.00
46.9363 278.00
47.0015 276.00
47.0667 283.00
47.1319 288.00
47.1971 316.00
47.2623 329.00
47.3275 299.00
47.3927 309.00
47.4579 262.00
47.523 279.00
47.5882 307.00
47.6534 315.00
47.7186 264.00
47.7838 230.00
47.849 303.00
47.9142 283.00
47.9794 282.00
48.0446 272.00
48.1098 283.00
48.175 304.00
48.2402 307.00
48.3054 296.00
48.3706 331.00
48.4358 290.00
48.501 264.00
48.5662 301.00
48.6314 289.00
48.6966 247.00
48.7618 282.00
48.827 285.00
48.8922 267.00
48.9574 274.00
49.0226 284.00
49.0878 302.00
49.153 310.00
49.2182 239.00
49.2834 265.00
49.3486 284.00
49.4138 236.00
49.479 275.00
49.5442 246.00
49.6094 249.00
49.6746 270.00
49.7398 295.00
49.805 268.00
49.8702 307.00
49.9354 244.00
50.0006 269.00
50.0658 226.00
50.131 274.00
50.1962 240.00
50.2614 273.00
50.3266 261.00
50.3918 266.00
50.457 239.00
50.5222 269.00
50.5874 261.00
50.6526 277.00
50.7178 284.00
50.783 249.00
50.8482 275.00
50.9134 281.00
50.9786 270.00
51.0438 278.00
51.109 244.00
51.1742 239.00
51.2394 259.00
51.3046 281.00
51.3698 279.00
51.435 278.00
51.5002 298.00
51.5654 292.00
51.6306 256.00
51.6958 301.00
51.761 264.00
51.8262 268.00
51.8914 239.00
51.9566 267.00
52.0218 241.00
52.087 256.00
52.1522 235.00
52.2174 240.00
52.2826 270.00
52.3477 264.00
52.4129 249.00
52.4781 302.00
52.5433 242.00
52.6085 247.00
52.6737 256.00
52.7389 262.00
52.8041 243.00
52.8693 258.00
52.9345 240.00
52.9997 257.00
53.0649 277.00
53.1301 263.00
53.1953 239.00
53.2605 266.00
53.3257 229.00
53.3909 242.00
53.4561 258.00
53.5213 264.00
53.5865 258.00
53.6517 198.00
53.7169 268.00
53.7821 257.00
53.8473 266.00
53.9125 233.00
53.9777 239.00
54.0429 289.00
54.1081 286.00
54.1733 269.00
54.2385 281.00
54.3037 222.00
54.3689 271.00
54.4341 213.00
54.4993 268.00
54.5645 241.00
54.6297 258.00
54.6949 219.00
54.7601 275.00
54.8253 213.00
54.8905 230.00
54.9557 220.00
55.0209 239.00
55.0861 261.00
55.1513 238.00
55.2165 231.00
55.2817 272.00
55.3469 203.00
55.4121 216.00
55.4773 234.00
55.5425 257.00
55.6077 262.00
55.6729 236.00
55.7381 228.00
55.8033 260.00
55.8685 261.00
55.9337 223.00
55.9989 221.00
56.0641 220.00
56.1293 222.00
56.1945 222.00
56.2597 221.00
56.3249 217.00
56.3901 209.00
56.4553 248.00
56.5205 223.00
56.5857 224.00
56.6509 219.00
56.7161 228.00
56.7813 209.00
56.8465 220.00
56.9117 246.00
56.9769 225.00
57.042 216.00
57.1073 208.00
57.1724 243.00
57.2376 224.00
57.3028 227.00
57.368 222.00
57.4332 232.00
57.4984 209.00
57.5636 225.00
57.6288 218.00
57.694 212.00
57.7592 208.00
57.8244 218.00
57.8896 237.00
57.9548 211.00
58.02 202.00
58.0852 212.00
58.1504 245.00
58.2156 232.00
58.2808 215.00
58.346 210.00
58.4112 203.00
58.4764 207.00
58.5416 185.00
58.6068 257.00
58.672 205.00
58.7372 166.00
58.8024 256.00
58.8676 230.00
58.9328 239.00
58.998 214.00
59.0632 226.00
59.1284 229.00
59.1936 229.00
59.2588 209.00
59.324 212.00
59.3892 222.00
59.4544 221.00
59.5196 197.00
59.5848 232.00
59.65 206.00
59.7152 195.00
59.7804 195.00
59.8456 214.00
59.9108 222.00
59.976 197.00
60.0412 197.00
60.1064 194.00
60.1716 219.00
60.2368 230.00
60.302 194.00
60.3672 186.00
60.4324 223.00
60.4976 211.00
60.5628 197.00
60.628 170.00
60.6932 197.00
60.7584 195.00
60.8236 201.00
60.8888 215.00
60.954 198.00
61.0192 193.00
61.0844 182.00
61.1496 189.00
61.2148 189.00
61.28 200.00
61.3452 168.00
61.4104 211.00
61.4756 207.00
61.5408 256.00
61.606 195.00
61.6712 222.00
61.7364 214.00
61.8016 219.00
61.8667 194.00
61.932 164.00
61.9971 201.00
62.0623 207.00
62.1275 203.00
62.1927 190.00
62.2579 210.00
62.3231 208.00
62.3883 195.00
62.4535 207.00
62.5187 191.00
62.5839 230.00
62.6491 211.00
62.7143 203.00
62.7795 247.00
62.8447 239.00
62.9099 205.00
62.9751 236.00
63.0403 204.00
63.1055 206.00
63.1707 195.00
63.2359 217.00
63.3011 179.00
63.3663 200.00
63.4315 180.00
63.4967 202.00
63.5619 215.00
63.6271 202.00
63.6923 202.00
63.7575 181.00
63.8227 202.00
63.8879 204.00
63.9531 203.00
64.0183 177.00
64.0835 198.00
64.1487 192.00
64.2139 208.00
64.2791 199.00
64.3443 205.00
64.4095 200.00
64.4747 178.00
64.5399 213.00
64.6051 189.00
64.6703 205.00
64.7355 196.00
64.8007 205.00
64.8659 185.00
64.9311 187.00
64.9963 199.00
65.0615 189.00
65.1267 211.00
65.1919 200.00
65.2571 209.00
65.3223 202.00
65.3875 188.00
65.4527 219.00
65.5179 197.00
65.5831 187.00
65.6483 170.00
65.7135 205.00
65.7787 214.00
65.8439 190.00
65.9091 198.00
65.9743 192.00
66.0395 204.00
66.1047 205.00
66.1699 194.00
66.2351 198.00
66.3003 248.00
66.3655 191.00
66.4307 190.00
66.4959 163.00
66.561 201.00
66.6263 189.00
66.6915 181.00
66.7566 190.00
66.8218 192.00
66.887 197.00
66.9522 193.00
67.0174 223.00
67.0826 208.00
67.1478 168.00
67.213 162.00
67.2782 178.00
67.3434 176.00
67.4086 202.00
67.4738 188.00
67.539 184.00
67.6042 185.00
67.6694 191.00
67.7346 226.00
67.7998 187.00
67.865 200.00
67.9302 216.00
67.9954 168.00
68.0606 181.00
68.1258 174.00
68.191 176.00
68.2562 200.00
68.3214 172.00
68.3866 209.00
68.4518 194.00
68.517 195.00
68.5822 201.00
68.6474 195.00
68.7126 197.00
68.7778 165.00
68.843 184.00
68.9082 189.00
68.9734 204.00
69.0386 206.00
69.1038 186.00
69.169 190.00
69.2342 189.00
69.2994 187.00
69.3646 184.00
69.4298 174.00
69.495 176.00
69.5602 194.00
69.6254 179.00
69.6906 193.00
69.7558 186.00
69.821 186.00
69.8862 199.00
69.9514 194.00
70.0166 183.00
70.0818 198.00
70.147 154.00
70.2122 195.00
70.2774 201.00
70.3426 195.00
70.4078 215.00
70.473 186.00
70.5382 211.00
70.6034 195.00
70.6686 172.00
70.7338 192.00
70.799 209.00
70.8642 189.00
70.9294 205.00
70.9946 168.00
71.0598 204.00
71.125 176.00
71.1902 197.00
71.2554 187.00
71.3205 178.00
71.3858 183.00
71.451 198.00
71.5162 198.00
71.5813 201.00
71.6465 196.00
71.7117 245.00
71.7769 207.00
71.8421 189.00
71.9073 198.00
71.9725 209.00
72.0377 221.00
72.1029 193.00
72.1681 200.00
72.2333 191.00
72.2985 195.00
72.3637 182.00
72.4289 181.00
72.4941 193.00
72.5593 200.00
72.6245 201.00
72.6897 186.00
72.7549 204.00
72.8201 176.00
72.8853 227.00
72.9505 205.00
73.0157 199.00
73.0809 214.00
73.1461 204.00
73.2113 197.00
73.2765 216.00
73.3417 176.00
73.4069 219.00
73.4721 192.00
73.5373 202.00
73.6025 218.00
73.6677 198.00
73.7329 181.00
73.7981 187.00
73.8633 210.00
73.9285 184.00
73.9937 202.00
74.0589 188.00
74.1241 189.00
74.1893 184.00
74.2545 185.00
74.3197 202.00
74.3849 207.00
74.4501 193.00
74.5153 192.00
74.5805 229.00
74.6457 171.00
74.7109 191.00
74.7761 207.00
74.8413 206.00
74.9065 183.00
74.9717 184.00
75.0369 187.00
75.1021 199.00
75.1673 225.00
75.2325 201.00
75.2977 178.00
75.3629 178.00
75.4281 205.00
75.4933 205.00
75.5585 202.00
75.6237 221.00
75.6889 196.00
75.7541 201.00
75.8193 201.00
75.8845 215.00
75.9497 249.00
76.0149 188.00
76.0801 233.00
76.1452 221.00
76.2104 188.00
76.2756 225.00
76.3409 238.00
76.406 202.00
76.4712 208.00
76.5364 190.00
76.6016 193.00
76.6668 225.00
76.732 205.00
76.7972 191.00
76.8624 202.00
76.9276 221.00
76.9928 209.00
77.058 193.00
77.1232 198.00
77.1884 235.00
77.2536 185.00
77.3188 223.00
77.384 229.00
77.4492 198.00
77.5144 213.00
77.5796 190.00
77.6448 195.00
77.71 240.00
77.7752 222.00
77.8404 179.00
77.9056 204.00
77.9708 220.00
78.036 205.00
78.1012 196.00
78.1664 212.00
78.2316 215.00
78.2968 224.00
78.362 195.00
78.4272 209.00
78.4924 208.00
78.5576 207.00
78.6228 236.00
78.688 199.00
78.7532 232.00
78.8184 211.00
78.8836 231.00
78.9488 210.00
79.014 231.00
79.0792 220.00
79.1444 220.00
79.2096 232.00
79.2748 230.00
79.34 194.00
79.4052 212.00
79.4704 249.00
79.5356 223.00
79.6008 219.00
79.666 191.00
79.7312 218.00
79.7964 236.00
79.8616 211.00
79.9268 195.00
79.992 241.00
80.0572 200.00
80.1224 218.00
80.1876 215.00
80.2528 232.00
80.318 172.00
80.3832 219.00
80.4484 208.00
80.5136 233.00
80.5788 260.00
80.644 211.00
80.7092 267.00
80.7744 217.00
80.8396 189.00
80.9048 228.00
80.9699 216.00
81.0351 213.00
81.1003 239.00
81.1655 238.00
81.2307 223.00
81.2959 202.00
81.3611 224.00
81.4263 211.00
81.4915 267.00
81.5567 211.00
81.6219 237.00
81.6871 245.00
81.7523 219.00
81.8175 200.00
81.8827 195.00
81.9479 241.00
82.0131 222.00
82.0783 221.00
82.1435 240.00
82.2087 243.00
82.2739 227.00
82.3391 238.00
82.4043 243.00
82.4695 257.00
82.5347 223.00
82.5999 262.00
82.6651 227.00
82.7303 249.00
82.7955 219.00
82.8607 209.00
82.9259 229.00
82.9911 207.00
83.0563 214.00
83.1215 217.00
83.1867 227.00
83.2519 220.00
83.3171 211.00
83.3823 217.00
83.4475 192.00
83.5127 210.00
83.5779 221.00
83.6431 227.00
83.7083 259.00
83.7735 233.00
83.8387 195.00
83.9039 230.00
83.9691 227.00
84.0343 195.00
84.0995 202.00
84.1647 211.00
84.2299 235.00
84.2951 223.00
84.3603 271.00
84.4255 196.00
84.4907 229.00
84.5559 217.00
84.6211 211.00
84.6863 248.00
84.7515 196.00
84.8167 200.00
84.8819 217.00
84.9471 188.00
85.0123 190.00
85.0775 194.00
85.1427 215.00
85.2079 191.00
85.2731 206.00
85.3383 214.00
85.4035 202.00
85.4687 203.00
85.5339 210.00
85.5991 221.00
85.6643 208.00
85.7295 220.00
85.7946 186.00
85.8598 194.00
85.925 224.00
85.9903 207.00
86.0554 180.00
86.1206 186.00
86.1858 194.00
86.251 234.00
86.3162 218.00
86.3814 177.00
86.4466 195.00
86.5118 195.00
86.577 173.00
86.6422 220.00
86.7074 194.00
86.7726 189.00
86.8378 223.00
86.903 210.00
86.9682 203.00
87.0334 195.00
87.0986 187.00
87.1638 210.00
87.229 193.00
87.2942 219.00
87.3594 210.00
87.4246 182.00
87.4898 162.00
87.555 204.00
87.6202 193.00
87.6854 218.00
87.7506 180.00
87.8158 200.00
87.881 189.00
87.9462 200.00
88.0114 161.00
88.0766 185.00
88.1418 194.00
88.207 218.00
88.2722 180.00
88.3374 208.00
88.4026 184.00
88.4678 204.00
88.533 218.00
88.5982 191.00
88.6634 193.00
88.7286 187.00
88.7938 192.00
88.859 177.00
88.9242 194.00
88.9894 197.00
89.0546 202.00
89.1198 203.00
89.185 185.00
89.2502 206.00
89.3154 200.00
89.3806 223.00
89.4458 163.00
89.511 178.00
89.5762 190.00
89.6414 199.00
89.7066 184.00
89.7718 185.00
89.837 196.00
89.9022 189.00
89.9674 179.00
90.0326 189.00
90.0978 204.00
90.163 194.00
90.2282 211.00
90.2934 172.00
90.3586 188.00
90.4238 186.00
90.489 207.00
90.5542 172.00
90.6193 187.00
90.6845 193.00
90.7497 182.00
90.8149 189.00
90.8801 192.00
90.9453 186.00
91.0105 201.00
91.0757 216.00
91.1409 198.00
91.2061 159.00
91.2713 204.00
91.3365 186.00
91.4017 186.00
91.4669 193.00
91.5321 185.00
91.5973 212.00
91.6625 191.00
91.7277 216.00
91.7929 150.00
91.8581 196.00
91.9233 182.00
91.9885 191.00
92.0537 207.00
92.1189 193.00
92.1841 175.00
92.2493 168.00
92.3145 187.00
92.3797 198.00
92.4449 182.00
92.5101 192.00
92.5753 207.00
92.6405 166.00
92.7057 197.00
92.7709 180.00
92.8361 189.00
92.9013 204.00
92.9665 178.00
93.0317 174.00
93.0969 165.00
93.1621 187.00
93.2273 174.00
93.2925 200.00
93.3577 192.00
93.4229 196.00
93.4881 191.00
93.5533 205.00
93.6185 206.00
93.6837 197.00
93.7489 182.00
93.8141 178.00
93.8793 179.00
93.9445 187.00
94.0097 193.00
94.0749 195.00
94.1401 177.00
94.2053 184.00
94.2705 197.00
94.3357 177.00
94.4009 189.00
94.4661 202.00
94.5313 164.00
94.5965 194.00
94.6617 168.00
94.7269 191.00
94.7921 168.00
94.8573 169.00
94.9225 195.00
94.9877 169.00
95.0529 175.00
95.1181 181.00
95.1833 189.00
95.2485 172.00
95.3137 170.00
95.3789 188.00
95.444 161.00
95.5092 171.00
95.5744 184.00
95.6396 155.00
95.7048 206.00
95.77 172.00
95.8352 196.00
95.9004 181.00
95.9656 173.00
96.0308 188.00
96.096 188.00
96.1612 199.00
96.2264 175.00
96.2916 172.00
96.3568 205.00
96.422 193.00
96.4872 181.00
96.5524 171.00
96.6176 178.00
96.6828 203.00
96.748 194.00
96.8132 193.00
96.8784 166.00
96.9436 174.00
97.0088 186.00
97.074 167.00
97.1392 179.00
97.2044 181.00
97.2696 173.00
97.3348 180.00
97.4 171.00
97.4652 195.00
97.5304 175.00
97.5956 178.00
97.6608 190.00
97.726 189.00
97.7912 165.00
97.8564 168.00
97.9216 184.00
97.9868 190.00
98.052 199.00
98.1172 192.00
98.1824 177.00
98.2476 172.00
98.3128 170.00
98.378 178.00
98.4432 173.00
98.5084 190.00
98.5736 172.00
98.6388 163.00
98.704 190.00
98.7692 182.00
98.8344 190.00
98.8996 169.00
98.9648 185.00
99.03 175.00
99.0952 196.00
99.1604 180.00
99.2256 137.00
99.2908 196.00
99.356 207.00
99.4212 168.00
99.4864 150.00
99.5516 163.00
99.6168 162.00
99.682 201.00
99.7472 185.00
99.8124 174.00
99.8776 183.00
99.9428 183.00
100.008 213.00
100.073 188.00
100.095 172.00