File: data/xrd_creation/results/PG_1022-1.xy
10.0094 2551.00
10.0746 2419.00
10.1398 2541.00
10.205 2539.00
10.2702 2397.00
10.3354 2533.00
10.4006 2495.00
10.4658 2367.00
10.531 2378.00
10.5962 2337.00
10.6614 2423.00
10.7266 2400.00
10.7918 2416.00
10.857 2392.00
10.9222 2325.00
10.9874 2202.00
11.0526 2309.00
11.1178 2210.00
11.183 2219.00
11.2482 2192.00
11.3134 2208.00
11.3786 2200.00
11.4438 2215.00
11.509 2158.00
11.5742 2169.00
11.6394 2167.00
11.7046 2104.00
11.7698 2097.00
11.835 2114.00
11.9002 2118.00
11.9654 2127.00
12.0306 2049.00
12.0958 1993.00
12.161 1990.00
12.2262 2139.00
12.2914 1944.00
12.3566 1922.00
12.4218 1999.00
12.487 1997.00
12.5522 1957.00
12.6174 1954.00
12.6826 1866.00
12.7478 1948.00
12.813 1980.00
12.8782 1948.00
12.9434 1944.00
13.0086 1951.00
13.0738 1894.00
13.139 1910.00
13.2042 1876.00
13.2694 1920.00
13.3346 1880.00
13.3998 1846.00
13.465 1877.00
13.5302 1877.00
13.5954 1862.00
13.6606 1864.00
13.7258 1786.00
13.791 1782.00
13.8562 1849.00
13.9214 1775.00
13.9865 1660.00
14.0517 1729.00
14.1169 1822.00
14.1821 1780.00
14.2473 1823.00
14.3125 1756.00
14.3777 1774.00
14.4429 1813.00
14.5081 1740.00
14.5733 1728.00
14.6385 1751.00
14.7037 1813.00
14.7689 1724.00
14.8341 1729.00
14.8993 1644.00
14.9645 1646.00
15.0297 1801.00
15.0949 1728.00
15.1601 1769.00
15.2253 1742.00
15.2905 1747.00
15.3557 1706.00
15.4209 1626.00
15.4861 1729.00
15.5513 1698.00
15.6165 1758.00
15.6817 1671.00
15.7469 1594.00
15.8121 1660.00
15.8773 1698.00
15.9425 1768.00
16.0077 1667.00
16.0729 1649.00
16.1381 1770.00
16.2033 1705.00
16.2685 1647.00
16.3337 1645.00
16.3989 1705.00
16.4641 1655.00
16.5293 1657.00
16.5945 1643.00
16.6597 1708.00
16.7249 1675.00
16.7901 1699.00
16.8553 1631.00
16.9205 1662.00
16.9857 1650.00
17.0509 1610.00
17.1161 1689.00
17.1813 1678.00
17.2465 1628.00
17.3117 1679.00
17.3769 1601.00
17.4421 1665.00
17.5073 1624.00
17.5725 1610.00
17.6377 1666.00
17.7029 1600.00
17.7681 1577.00
17.8333 1600.00
17.8985 1561.00
17.9637 1604.00
18.0289 1551.00
18.0941 1619.00
18.1593 1597.00
18.2245 1585.00
18.2897 1632.00
18.3549 1574.00
18.4201 1541.00
18.4853 1536.00
18.5505 1567.00
18.6157 1489.00
18.6809 1598.00
18.7461 1601.00
18.8112 1543.00
18.8764 1555.00
18.9416 1587.00
19.0068 1528.00
19.072 1529.00
19.1372 1494.00
19.2024 1541.00
19.2676 1586.00
19.3328 1550.00
19.398 1516.00
19.4632 1435.00
19.5284 1498.00
19.5936 1466.00
19.6588 1512.00
19.724 1550.00
19.7892 1467.00
19.8544 1545.00
19.9196 1495.00
19.9848 1545.00
20.05 1489.00
20.1152 1464.00
20.1804 1462.00
20.2456 1423.00
20.3108 1531.00
20.376 1499.00
20.4412 1552.00
20.5064 1417.00
20.5716 1444.00
20.6368 1463.00
20.702 1484.00
20.7672 1470.00
20.8324 1446.00
20.8976 1482.00
20.9628 1375.00
21.028 1435.00
21.0932 1378.00
21.1584 1483.00
21.2236 1463.00
21.2888 1535.00
21.354 1510.00
21.4192 1594.00
21.4844 1658.00
21.5496 1858.00
21.6148 1934.00
21.68 1704.00
21.7452 1415.00
21.8104 1440.00
21.8756 1357.00
21.9408 1357.00
22.006 1508.00
22.0712 1426.00
22.1364 1406.00
22.2016 1365.00
22.2668 1448.00
22.332 1364.00
22.3972 1335.00
22.4624 1362.00
22.5276 1363.00
22.5928 1428.00
22.658 1448.00
22.7232 1407.00
22.7884 1360.00
22.8536 1449.00
22.9188 1325.00
22.984 1350.00
23.0492 1393.00
23.1144 1315.00
23.1796 1309.00
23.2448 1374.00
23.31 1403.00
23.3752 1462.00
23.4404 1384.00
23.5056 1444.00
23.5708 1349.00
23.6359 1434.00
23.7011 1406.00
23.7663 1439.00
23.8315 1372.00
23.8967 1266.00
23.9619 1357.00
24.0271 1315.00
24.0923 1288.00
24.1575 1348.00
24.2227 1436.00
24.2879 1312.00
24.3531 1430.00
24.4183 1412.00
24.4835 1538.00
24.5487 1836.00
24.6139 2031.00
24.6791 2911.00
24.7443 3568.00
24.8095 3492.00
24.8747 2250.00
24.9399 1508.00
25.0051 1425.00
25.0703 1376.00
25.1355 1286.00
25.2007 1322.00
25.2659 1328.00
25.3311 1272.00
25.3963 1322.00
25.4615 1247.00
25.5267 1315.00
25.5919 1284.00
25.6571 1276.00
25.7223 1254.00
25.7875 1293.00
25.8527 1321.00
25.9179 1295.00
25.9831 1330.00
26.0483 1316.00
26.1135 1249.00
26.1787 1319.00
26.2439 1330.00
26.3091 1279.00
26.3743 1257.00
26.4395 1273.00
26.5047 1271.00
26.5699 1293.00
26.6351 1207.00
26.7003 1248.00
26.7655 1256.00
26.8307 1298.00
26.8959 1186.00
26.9611 1209.00
27.0263 1186.00
27.0915 1249.00
27.1567 1175.00
27.2219 1269.00
27.2871 1283.00
27.3523 1209.00
27.4175 1212.00
27.4827 1225.00
27.5479 1249.00
27.6131 1243.00
27.6783 1261.00
27.7435 1262.00
27.8087 1177.00
27.8739 1241.00
27.9391 1212.00
28.0043 1202.00
28.0695 1246.00
28.1347 1215.00
28.1999 1176.00
28.2651 1158.00
28.3303 1218.00
28.3955 1227.00
28.4606 1127.00
28.5258 1139.00
28.591 1137.00
28.6562 1207.00
28.7214 1223.00
28.7866 1174.00
28.8518 1218.00
28.917 1244.00
28.9822 1203.00
29.0474 1168.00
29.1126 1192.00
29.1778 1186.00
29.243 1159.00
29.3082 1188.00
29.3734 1182.00
29.4386 1190.00
29.5038 1229.00
29.569 1242.00
29.6342 1229.00
29.6994 1334.00
29.7646 1318.00
29.8298 1272.00
29.895 1200.00
29.9602 1212.00
30.0254 1212.00
30.0906 1171.00
30.1558 1166.00
30.221 1156.00
30.2862 1093.00
30.3514 1166.00
30.4166 1143.00
30.4818 1254.00
30.547 1195.00
30.6122 1267.00
30.6774 1238.00
30.7426 1346.00
30.8078 1597.00
30.873 1746.00
30.9382 1633.00
31.0034 1325.00
31.0686 1208.00
31.1338 1197.00
31.199 1172.00
31.2642 1227.00
31.3294 1149.00
31.3946 1173.00
31.4598 1180.00
31.525 1198.00
31.5902 1178.00
31.6554 1161.00
31.7206 1150.00
31.7858 1198.00
31.851 1349.00
31.9162 1371.00
31.9814 1731.00
32.0466 1919.00
32.1118 1693.00
32.177 1515.00
32.2422 1229.00
32.3074 1190.00
32.3726 1118.00
32.4378 1146.00
32.503 1158.00
32.5682 1148.00
32.6334 1203.00
32.6986 1141.00
32.7638 1143.00
32.829 1131.00
32.8942 1193.00
32.9594 1153.00
33.0246 1187.00
33.0898 1133.00
33.1549 1122.00
33.2201 1161.00
33.2853 1110.00
33.3505 1196.00
33.4157 1190.00
33.4809 1272.00
33.5461 1306.00
33.6113 1494.00
33.6765 1962.00
33.7417 2614.00
33.8069 4092.00
33.8721 4854.00
33.9373 3772.00
34.0025 2280.00
34.0677 1463.00
34.1329 1282.00
34.1981 1305.00
34.2633 1284.00
34.3285 1272.00
34.3937 1333.00
34.4589 1262.00
34.5241 1184.00
34.5893 1163.00
34.6545 1089.00
34.7197 1086.00
34.7849 1089.00
34.8501 1085.00
34.9153 1103.00
34.9805 1086.00
35.0457 1111.00
35.1109 1059.00
35.1761 1036.00
35.2413 1060.00
35.3065 1094.00
35.3717 1169.00
35.4369 1186.00
35.5021 1105.00
35.5673 1088.00
35.6325 1072.00
35.6977 1105.00
35.7629 1164.00
35.8281 1080.00
35.8933 1066.00
35.9585 1108.00
36.0237 1163.00
36.0889 1183.00
36.1541 1334.00
36.2193 1585.00
36.2845 2033.00
36.3497 2818.00
36.4149 3842.00
36.4801 4426.00
36.5453 3331.00
36.6105 2167.00
36.6757 1430.00
36.7409 1219.00
36.8061 1192.00
36.8713 1087.00
36.9365 1053.00
37.0017 1114.00
37.0669 1229.00
37.1321 1205.00
37.1973 1345.00
37.2625 1319.00
37.3277 1229.00
37.3929 1148.00
37.4581 1092.00
37.5233 1059.00
37.5885 1038.00
37.6537 1084.00
37.7189 1091.00
37.7841 1077.00
37.8493 983.00
37.9145 1054.00
37.9796 1043.00
38.0448 1051.00
38.11 1040.00
38.1752 1025.00
38.2404 1050.00
38.3056 1020.00
38.3708 1048.00
38.436 1032.00
38.5012 1107.00
38.5664 1036.00
38.6316 1016.00
38.6968 1014.00
38.762 973.00
38.8272 1066.00
38.8924 1057.00
38.9576 1014.00
39.0228 1008.00
39.088 1037.00
39.1532 1018.00
39.2184 1023.00
39.2836 1045.00
39.3488 1012.00
39.414 1056.00
39.4792 1080.00
39.5444 1016.00
39.6096 1037.00
39.6748 1064.00
39.74 1065.00
39.8052 1160.00
39.8704 1260.00
39.9356 1219.00
40.0008 1308.00
40.066 1182.00
40.1312 1244.00
40.1964 1150.00
40.2616 1138.00
40.3268 1070.00
40.392 1025.00
40.4572 1014.00
40.5224 979.00
40.5876 1015.00
40.6528 994.00
40.718 1040.00
40.7832 1028.00
40.8484 1001.00
40.9136 988.00
40.9788 1032.00
41.044 1051.00
41.1092 970.00
41.1744 986.00
41.2396 992.00
41.3048 1063.00
41.37 1037.00
41.4352 1050.00
41.5004 1142.00
41.5656 1264.00
41.6308 1564.00
41.696 2066.00
41.7612 2279.00
41.8264 1805.00
41.8916 1462.00
41.9568 1050.00
42.022 1038.00
42.0872 969.00
42.1524 1053.00
42.2176 981.00
42.2828 930.00
42.348 978.00
42.4132 950.00
42.4784 971.00
42.5436 994.00
42.6088 966.00
42.6739 986.00
42.7392 1013.00
42.8043 1024.00
42.8695 998.00
42.9347 1003.00
42.9999 988.00
43.0651 952.00
43.1303 986.00
43.1955 999.00
43.2607 963.00
43.3259 967.00
43.3911 945.00
43.4563 1005.00
43.5215 1047.00
43.5867 959.00
43.6519 1026.00
43.7171 1093.00
43.7823 1061.00
43.8475 1013.00
43.9127 987.00
43.9779 998.00
44.0431 1050.00
44.1083 959.00
44.1735 992.00
44.2387 1021.00
44.3039 1064.00
44.3691 1154.00
44.4343 1149.00
44.4995 1170.00
44.5647 1109.00
44.6299 1045.00
44.6951 1017.00
44.7603 1008.00
44.8255 1066.00
44.8907 985.00
44.9559 979.00
45.0211 921.00
45.0863 994.00
45.1515 986.00
45.2167 966.00
45.2819 1007.00
45.3471 994.00
45.4123 940.00
45.4775 920.00
45.5427 1028.00
45.6079 959.00
45.6731 944.00
45.7383 1017.00
45.8035 953.00
45.8687 955.00
45.9339 934.00
45.9991 961.00
46.0643 951.00
46.1295 1008.00
46.1947 979.00
46.2599 1021.00
46.3251 984.00
46.3903 993.00
46.4555 969.00
46.5207 954.00
46.5859 1010.00
46.6511 943.00
46.7163 932.00
46.7815 966.00
46.8467 973.00
46.9119 976.00
46.9771 971.00
47.0423 955.00
47.1075 1010.00
47.1727 1001.00
47.2379 1007.00
47.3031 942.00
47.3683 1028.00
47.4335 1022.00
47.4986 915.00
47.5639 965.00
47.629 951.00
47.6942 1003.00
47.7594 986.00
47.8246 1000.00
47.8898 927.00
47.955 994.00
48.0202 978.00
48.0854 970.00
48.1506 949.00
48.2158 1026.00
48.281 1004.00
48.3462 964.00
48.4114 979.00
48.4766 940.00
48.5418 929.00
48.607 1017.00
48.6722 973.00
48.7374 950.00
48.8026 1002.00
48.8678 978.00
48.933 1094.00
48.9982 1126.00
49.0634 1043.00
49.1286 1039.00
49.1938 964.00
49.259 1052.00
49.3242 1017.00
49.3894 1010.00
49.4546 980.00
49.5198 1005.00
49.585 1050.00
49.6502 982.00
49.7154 966.00
49.7806 945.00
49.8458 1062.00
49.911 962.00
49.9762 910.00
50.0414 1004.00
50.1066 986.00
50.1718 1108.00
50.237 1193.00
50.3022 1352.00
50.3674 1757.00
50.4326 2408.00
50.4978 2397.00
50.563 1859.00
50.6282 1674.00
50.6934 1249.00
50.7586 1092.00
50.8238 1054.00
50.889 1017.00
50.9542 909.00
51.0194 959.00
51.0846 985.00
51.1498 948.00
51.215 956.00
51.2802 978.00
51.3454 945.00
51.4106 1008.00
51.4758 950.00
51.541 984.00
51.6062 1003.00
51.6714 944.00
51.7366 970.00
51.8018 890.00
51.867 971.00
51.9322 967.00
51.9974 987.00
52.0626 979.00
52.1278 1015.00
52.193 875.00
52.2582 943.00
52.3233 927.00
52.3886 995.00
52.4537 936.00
52.5189 945.00
52.5841 906.00
52.6493 988.00
52.7145 908.00
52.7797 938.00
52.8449 932.00
52.9101 950.00
52.9753 909.00
53.0405 998.00
53.1057 1015.00
53.1709 1036.00
53.2361 980.00
53.3013 981.00
53.3665 951.00
53.4317 922.00
53.4969 907.00
53.5621 954.00
53.6273 959.00
53.6925 952.00
53.7577 983.00
53.8229 922.00
53.8881 932.00
53.9533 971.00
54.0185 956.00
54.0837 961.00
54.1489 1001.00
54.2141 925.00
54.2793 977.00
54.3445 1072.00
54.4097 961.00
54.4749 1014.00
54.5401 1073.00
54.6053 1050.00
54.6705 1090.00
54.7357 1160.00
54.8009 1302.00
54.8661 1502.00
54.9313 2058.00
54.9965 3094.00
55.0617 4155.00
55.1269 4026.00
55.1921 3202.00
55.2573 2653.00
55.3225 1702.00
55.3877 1305.00
55.4529 1160.00
55.5181 1047.00
55.5833 1036.00
55.6485 977.00
55.7137 977.00
55.7789 955.00
55.8441 994.00
55.9093 1028.00
55.9745 963.00
56.0397 980.00
56.1049 925.00
56.1701 903.00
56.2353 957.00
56.3005 983.00
56.3657 982.00
56.4309 992.00
56.4961 942.00
56.5613 932.00
56.6265 930.00
56.6917 961.00
56.7569 930.00
56.8221 1027.00
56.8873 952.00
56.9525 974.00
57.0177 983.00
57.0829 978.00
57.148 952.00
57.2132 1056.00
57.2784 933.00
57.3436 968.00
57.4088 984.00
57.474 983.00
57.5392 983.00
57.6044 933.00
57.6696 1000.00
57.7348 937.00
57.8 961.00
57.8652 964.00
57.9304 998.00
57.9956 1019.00
58.0608 944.00
58.126 1045.00
58.1912 938.00
58.2564 1007.00
58.3216 1028.00
58.3868 1050.00
58.452 1119.00
58.5172 1094.00
58.5824 1214.00
58.6476 1241.00
58.7128 1184.00
58.778 1147.00
58.8432 1122.00
58.9084 1107.00
58.9736 978.00
59.0388 992.00
59.104 962.00
59.1692 1007.00
59.2344 1033.00
59.2996 952.00
59.3648 981.00
59.43 987.00
59.4952 966.00
59.5604 1019.00
59.6256 929.00
59.6908 998.00
59.756 867.00
59.8212 988.00
59.8864 990.00
59.9516 1039.00
60.0168 1033.00
60.082 940.00
60.1472 995.00
60.2124 952.00
60.2776 957.00
60.3428 975.00
60.408 969.00
60.4732 953.00
60.5384 946.00
60.6036 928.00
60.6688 958.00
60.734 922.00
60.7992 920.00
60.8644 924.00
60.9296 869.00
60.9948 950.00
61.06 944.00
61.1252 955.00
61.1904 957.00
61.2556 939.00
61.3208 971.00
61.386 964.00
61.4512 988.00
61.5164 964.00
61.5816 1020.00
61.6468 997.00
61.712 996.00
61.7772 1015.00
61.8424 974.00
61.9076 933.00
61.9727 981.00
62.0379 914.00
62.1031 949.00
62.1683 939.00
62.2335 911.00
62.2987 918.00
62.3639 913.00
62.4291 921.00
62.4943 1006.00
62.5595 958.00
62.6247 893.00
62.6899 897.00
62.7551 924.00
62.8203 938.00
62.8855 995.00
62.9507 955.00
63.0159 923.00
63.0811 965.00
63.1463 953.00
63.2115 961.00
63.2767 1011.00
63.3419 1056.00
63.4071 1075.00
63.4723 1220.00
63.5375 1367.00
63.6027 1711.00
63.6679 1903.00
63.7331 1859.00
63.7983 1670.00
63.8635 1611.00
63.9287 1315.00
63.9939 1140.00
64.0591 1059.00
64.1243 1031.00
64.1895 974.00
64.2547 992.00
64.3199 987.00
64.3851 910.00
64.4503 945.00
64.5155 1003.00
64.5807 1004.00
64.6459 959.00
64.7111 950.00
64.7763 962.00
64.8415 1004.00
64.9067 1023.00
64.9719 1074.00
65.0371 1104.00
65.1023 1270.00
65.1675 1381.00
65.2327 1769.00
65.2979 2159.00
65.3631 2183.00
65.4283 1899.00
65.4935 1708.00
65.5587 1531.00
65.6239 1272.00
65.6891 1093.00
65.7543 1001.00
65.8195 999.00
65.8847 1009.00
65.9499 945.00
66.0151 963.00
66.0803 940.00
66.1455 953.00
66.2107 922.00
66.2759 961.00
66.3411 902.00
66.4063 991.00
66.4715 897.00
66.5367 895.00
66.6019 911.00
66.6671 991.00
66.7322 931.00
66.7974 962.00
66.8626 943.00
66.9278 944.00
66.993 880.00
67.0582 948.00
67.1234 938.00
67.1886 915.00
67.2538 984.00
67.319 948.00
67.3842 1003.00
67.4494 957.00
67.5146 921.00
67.5798 949.00
67.645 948.00
67.7102 924.00
67.7754 905.00
67.8406 946.00
67.9058 967.00
67.971 978.00
68.0362 891.00
68.1014 916.00
68.1666 976.00
68.2318 929.00
68.297 937.00
68.3622 943.00
68.4274 910.00
68.4926 923.00
68.5578 917.00
68.623 946.00
68.6882 941.00
68.7534 894.00
68.8186 952.00
68.8838 884.00
68.949 980.00
69.0142 914.00
69.0794 927.00
69.1446 878.00
69.2098 939.00
69.275 964.00
69.3402 893.00
69.4054 918.00
69.4706 898.00
69.5358 924.00
69.601 916.00
69.6662 968.00
69.7314 967.00
69.7966 921.00
69.8618 954.00
69.927 881.00
69.9922 927.00
70.0574 909.00
70.1226 945.00
70.1878 957.00
70.253 973.00
70.3182 952.00
70.3834 963.00
70.4486 936.00
70.5138 937.00
70.579 911.00
70.6442 936.00
70.7094 989.00
70.7746 930.00
70.8398 917.00
70.905 961.00
70.9702 920.00
71.0354 910.00
71.1006 898.00
71.1658 966.00
71.231 905.00
71.2962 952.00
71.3614 884.00
71.4266 931.00
71.4918 956.00
71.5569 951.00
71.6221 952.00
71.6873 980.00
71.7525 936.00
71.8177 927.00
71.8829 896.00
71.9481 891.00
72.0133 933.00
72.0785 964.00
72.1437 952.00
72.2089 920.00
72.2741 954.00
72.3393 907.00
72.4045 904.00
72.4697 898.00
72.5349 985.00
72.6001 1071.00
72.6653 935.00
72.7305 928.00
72.7957 1005.00
72.8609 1027.00
72.9261 985.00
72.9913 1199.00
73.0565 1300.00
73.1217 1431.00
73.1869 1383.00
73.2521 1286.00
73.3173 1247.00
73.3825 1139.00
73.4477 1137.00
73.5129 1141.00
73.5781 1066.00
73.6433 1056.00
73.7085 1021.00
73.7737 1004.00
73.8389 1046.00
73.9041 988.00
73.9693 889.00
74.0345 1016.00
74.0997 892.00
74.1649 949.00
74.2301 993.00
74.2953 953.00
74.3605 911.00
74.4257 912.00
74.4909 920.00
74.5561 947.00
74.6213 956.00
74.6865 962.00
74.7517 914.00
74.8169 922.00
74.8821 901.00
74.9473 918.00
75.0125 964.00
75.0777 895.00
75.1429 920.00
75.2081 905.00
75.2733 922.00
75.3385 1016.00
75.4037 964.00
75.4689 991.00
75.5341 948.00
75.5993 947.00
75.6645 965.00
75.7297 940.00
75.7949 962.00
75.8601 985.00
75.9253 933.00
75.9905 937.00
76.0557 903.00
76.1209 946.00
76.186 916.00
76.2513 905.00
76.3165 938.00
76.3816 877.00
76.4468 907.00
76.512 1020.00
76.5772 926.00
76.6424 947.00
76.7076 967.00
76.7728 1004.00
76.838 993.00
76.9032 1076.00
76.9684 1062.00
77.0336 1268.00
77.0988 1198.00
77.164 1121.00
77.2292 1108.00
77.2944 1010.00
77.3596 966.00
77.4248 1001.00
77.49 959.00
77.5552 1011.00
77.6204 943.00
77.6856 941.00
77.7508 999.00
77.816 940.00
77.8812 952.00
77.9464 955.00
78.0116 912.00
78.0768 898.00
78.142 968.00
78.2072 932.00
78.2724 941.00
78.3376 956.00
78.4028 924.00
78.468 948.00
78.5332 921.00
78.5984 924.00
78.6636 949.00
78.7288 940.00
78.794 939.00
78.8592 988.00
78.9244 914.00
78.9896 965.00
79.0548 990.00
79.12 1047.00
79.1852 1123.00
79.2504 1131.00
79.3156 1170.00
79.3808 1042.00
79.446 1028.00
79.5112 1084.00
79.5764 1038.00
79.6416 979.00
79.7068 929.00
79.772 940.00
79.8372 913.00
79.9024 983.00
79.9676 922.00
80.0328 964.00
80.098 910.00
80.1632 859.00
80.2284 942.00
80.2936 968.00
80.3588 1009.00
80.424 1013.00
80.4892 990.00
80.5544 931.00
80.6196 962.00
80.6848 1037.00
80.75 909.00
80.8152 925.00
80.8804 915.00
80.9456 913.00
81.0108 938.00
81.076 935.00
81.1412 924.00
81.2063 970.00
81.2715 918.00
81.3367 932.00
81.4019 933.00
81.4671 929.00
81.5323 929.00
81.5975 895.00
81.6627 964.00
81.7279 945.00
81.7931 940.00
81.8583 887.00
81.9235 876.00
81.9887 959.00
82.0539 973.00
82.1191 1020.00
82.1843 971.00
82.2495 1054.00
82.3147 1072.00
82.3799 1040.00
82.4451 1009.00
82.5103 1056.00
82.5755 996.00
82.6407 939.00
82.7059 986.00
82.7711 904.00
82.8363 977.00
82.9015 992.00
82.9667 945.00
83.0319 865.00
83.0971 921.00
83.1623 969.00
83.2275 948.00
83.2927 954.00
83.3579 935.00
83.4231 906.00
83.4883 941.00
83.5535 983.00
83.6187 958.00
83.6839 979.00
83.7491 940.00
83.8143 932.00
83.8795 967.00
83.9447 917.00
84.0099 924.00
84.0751 935.00
84.1403 960.00
84.2055 968.00
84.2707 1034.00
84.3359 1104.00
84.4011 1135.00
84.4663 1105.00
84.5315 1120.00
84.5967 1116.00
84.6619 1055.00
84.7271 1022.00
84.7923 1003.00
84.8575 966.00
84.9227 935.00
84.9879 919.00
85.0531 952.00
85.1183 949.00
85.1835 943.00
85.2487 940.00
85.3139 984.00
85.3791 968.00
85.4443 981.00
85.5095 946.00
85.5747 915.00
85.6399 1029.00
85.7051 958.00
85.7703 969.00
85.8354 998.00
85.9006 975.00
85.9659 984.00
86.031 1031.00
86.0962 971.00
86.1614 947.00
86.2266 943.00
86.2918 938.00
86.357 950.00
86.4222 956.00
86.4874 997.00
86.5526 1074.00
86.6178 1087.00
86.683 1245.00
86.7482 1146.00
86.8134 1114.00
86.8786 1145.00
86.9438 1137.00
87.009 1066.00
87.0742 1067.00
87.1394 943.00
87.2046 968.00
87.2698 1023.00
87.335 956.00
87.4002 898.00
87.4654 931.00
87.5306 879.00
87.5958 965.00
87.661 903.00
87.7262 958.00
87.7914 962.00
87.8566 907.00
87.9218 933.00
87.987 945.00
88.0522 891.00
88.1174 947.00
88.1826 923.00
88.2478 945.00
88.313 899.00
88.3782 1011.00
88.4434 964.00
88.5086 919.00
88.5738 861.00
88.639 919.00
88.7042 919.00
88.7694 916.00
88.8346 974.00
88.8998 927.00
88.965 992.00
89.0302 925.00
89.0954 984.00
89.1606 962.00
89.2258 983.00
89.291 947.00
89.3562 937.00
89.4214 886.00
89.4866 951.00
89.5518 950.00
89.617 938.00
89.6822 945.00
89.7474 980.00
89.8126 923.00
89.8778 1010.00
89.943 1004.00
90.0082 994.00
90.0734 1004.00
90.1386 962.00
90.2038 1126.00
90.269 1244.00
90.3342 1317.00
90.3994 1378.00
90.4646 1340.00
90.5298 1173.00
90.595 1152.00
90.6601 1240.00
90.7253 1105.00
90.7905 1052.00
90.8557 994.00
90.9209 997.00
90.9861 962.00
91.0513 936.00
91.1165 933.00
91.1817 959.00
91.2469 969.00
91.3121 978.00
91.3773 890.00
91.4425 944.00
91.5077 944.00
91.5729 915.00
91.6381 910.00
91.7033 926.00
91.7685 910.00
91.8337 893.00
91.8989 964.00
91.9641 948.00
92.0293 955.00
92.0945 948.00
92.1597 956.00
92.2249 902.00
92.2901 956.00
92.3553 951.00
92.4205 1018.00
92.4857 978.00
92.5509 1027.00
92.6161 1001.00
92.6813 971.00
92.7465 886.00
92.8117 967.00
92.8769 924.00
92.9421 945.00
93.0073 961.00
93.0725 990.00
93.1377 992.00
93.2029 987.00
93.2681 996.00
93.3333 994.00
93.3985 1080.00
93.4637 984.00
93.5289 987.00
93.5941 952.00
93.6593 985.00
93.7245 1023.00
93.7897 951.00
93.8549 934.00
93.9201 942.00
93.9853 955.00
94.0505 949.00
94.1157 960.00
94.1809 945.00
94.2461 952.00
94.3113 879.00
94.3765 912.00
94.4417 980.00
94.5069 970.00
94.5721 1018.00
94.6373 970.00
94.7025 932.00
94.7677 944.00
94.8329 940.00
94.8981 997.00
94.9633 927.00
95.0285 961.00
95.0937 930.00
95.1589 984.00
95.2241 1064.00
95.2893 1058.00
95.3545 1196.00
95.4197 1309.00
95.4848 1308.00
95.55 1257.00
95.6153 1139.00
95.6804 1170.00
95.7456 1198.00
95.8108 1207.00
95.876 1077.00
95.9412 1018.00
96.0064 1019.00
96.0716 982.00
96.1368 977.00
96.202 999.00
96.2672 988.00
96.3324 962.00
96.3976 930.00
96.4628 961.00
96.528 975.00
96.5932 1024.00
96.6584 963.00
96.7236 925.00
96.7888 1015.00
96.854 940.00
96.9192 988.00
96.9844 1015.00
97.0496 1046.00
97.1148 984.00
97.18 941.00
97.2452 947.00
97.3104 999.00
97.3756 927.00
97.4408 927.00
97.506 942.00
97.5712 975.00
97.6364 1016.00
97.7016 1014.00
97.7668 973.00
97.832 1022.00
97.8972 989.00
97.9624 980.00
98.0276 984.00
98.0928 999.00
98.158 1017.00
98.2232 943.00
98.2884 987.00
98.3536 972.00
98.4188 924.00
98.484 961.00
98.5492 994.00
98.6144 901.00
98.6796 922.00
98.7448 966.00
98.81 949.00
98.8752 1016.00
98.9404 892.00
99.0056 950.00
99.0708 969.00
99.136 916.00
99.2012 961.00
99.2664 939.00
99.3316 915.00
99.3968 938.00
99.462 925.00
99.5272 940.00
99.5924 984.00
99.6576 970.00
99.7228 965.00
99.788 961.00
99.8532 1009.00
99.9184 1021.00
99.9836 892.00
99.9944 915.00