File: data/xrd_creation/results/PG_1835-1.xy
9.903433 2682.00
9.968632 2598.00
10.0338 2619.00
10.099 2595.00
10.1642 2604.00
10.2294 2643.00
10.2946 2589.00
10.3598 2507.00
10.425 2645.00
10.4902 2518.00
10.5554 2499.00
10.6206 2544.00
10.6858 2475.00
10.751 2362.00
10.8162 2435.00
10.8814 2411.00
10.9466 2401.00
11.0118 2443.00
11.077 2366.00
11.1422 2343.00
11.2074 2324.00
11.2726 2295.00
11.3378 2326.00
11.403 2278.00
11.4682 2228.00
11.5334 2280.00
11.5986 2208.00
11.6638 2193.00
11.729 2250.00
11.7942 2176.00
11.8594 2244.00
11.9246 2178.00
11.9898 2173.00
12.055 2167.00
12.1202 2194.00
12.1854 2164.00
12.2506 2100.00
12.3158 2058.00
12.381 2092.00
12.4462 2080.00
12.5114 2145.00
12.5766 2043.00
12.6418 2075.00
12.707 2054.00
12.7722 1955.00
12.8374 2005.00
12.9026 1928.00
12.9678 2015.00
13.033 1917.00
13.0982 1954.00
13.1634 1917.00
13.2286 1946.00
13.2938 1955.00
13.359 1873.00
13.4242 1934.00
13.4894 1823.00
13.5546 1845.00
13.6198 1856.00
13.685 1852.00
13.7502 1822.00
13.8154 1825.00
13.8805 1831.00
13.9457 1807.00
14.0109 1819.00
14.0761 1858.00
14.1413 1792.00
14.2065 1872.00
14.2717 1834.00
14.3369 1870.00
14.4021 1819.00
14.4673 1737.00
14.5325 1821.00
14.5977 1811.00
14.6629 1835.00
14.7281 1881.00
14.7933 1788.00
14.8585 1792.00
14.9237 1736.00
14.9889 1783.00
15.0541 1754.00
15.1193 1763.00
15.1845 1679.00
15.2497 1786.00
15.3149 1674.00
15.3801 1755.00
15.4453 1749.00
15.5105 1772.00
15.5757 1704.00
15.6409 1706.00
15.7061 1695.00
15.7713 1723.00
15.8365 1728.00
15.9017 1770.00
15.9669 1645.00
16.0321 1641.00
16.0973 1632.00
16.1625 1662.00
16.2277 1695.00
16.2929 1643.00
16.3581 1666.00
16.4233 1667.00
16.4885 1641.00
16.5537 1658.00
16.6189 1636.00
16.6841 1642.00
16.7493 1628.00
16.8145 1653.00
16.8797 1643.00
16.9449 1607.00
17.0101 1619.00
17.0753 1645.00
17.1405 1597.00
17.2057 1567.00
17.2709 1535.00
17.3361 1641.00
17.4013 1579.00
17.4665 1596.00
17.5317 1586.00
17.5969 1503.00
17.6621 1544.00
17.7273 1609.00
17.7925 1618.00
17.8577 1635.00
17.9229 1598.00
17.9881 1552.00
18.0533 1576.00
18.1185 1617.00
18.1837 1546.00
18.2489 1572.00
18.3141 1518.00
18.3793 1527.00
18.4445 1486.00
18.5097 1550.00
18.5749 1459.00
18.6401 1499.00
18.7052 1435.00
18.7704 1495.00
18.8356 1493.00
18.9008 1469.00
18.966 1449.00
19.0312 1480.00
19.0964 1502.00
19.1616 1434.00
19.2268 1365.00
19.292 1393.00
19.3572 1451.00
19.4224 1444.00
19.4876 1407.00
19.5528 1332.00
19.618 1383.00
19.6832 1407.00
19.7484 1388.00
19.8136 1361.00
19.8788 1401.00
19.944 1373.00
20.0092 1385.00
20.0744 1360.00
20.1396 1384.00
20.2048 1389.00
20.27 1361.00
20.3352 1388.00
20.4004 1322.00
20.4656 1314.00
20.5308 1318.00
20.596 1309.00
20.6612 1258.00
20.7264 1372.00
20.7916 1340.00
20.8568 1303.00
20.922 1269.00
20.9872 1336.00
21.0524 1327.00
21.1176 1362.00
21.1828 1371.00
21.248 1322.00
21.3132 1291.00
21.3784 1363.00
21.4436 1463.00
21.5088 1472.00
21.574 1610.00
21.6392 1960.00
21.7044 2675.00
21.7696 3856.00
21.8348 5596.00
21.9 4069.00
21.9652 2096.00
22.0304 1506.00
22.0956 1407.00
22.1608 1378.00
22.226 1368.00
22.2912 1260.00
22.3564 1315.00
22.4216 1288.00
22.4868 1273.00
22.552 1207.00
22.6172 1178.00
22.6824 1215.00
22.7476 1199.00
22.8128 1296.00
22.878 1212.00
22.9432 1155.00
23.0084 1223.00
23.0736 1230.00
23.1388 1220.00
23.204 1192.00
23.2692 1148.00
23.3344 1208.00
23.3996 1173.00
23.4647 1167.00
23.5299 1130.00
23.5951 1103.00
23.6603 1143.00
23.7255 1169.00
23.7907 1108.00
23.8559 1167.00
23.9211 1156.00
23.9863 1157.00
24.0515 1200.00
24.1167 1100.00
24.1819 1066.00
24.2471 1171.00
24.3123 1077.00
24.3775 1135.00
24.4427 1060.00
24.5079 1137.00
24.5731 1126.00
24.6383 1149.00
24.7035 1089.00
24.7687 1083.00
24.8339 1103.00
24.8991 1073.00
24.9643 1115.00
25.0295 1040.00
25.0947 1103.00
25.1599 1046.00
25.2251 1043.00
25.2903 1024.00
25.3555 1139.00
25.4207 1071.00
25.4859 1065.00
25.5511 1060.00
25.6163 999.00
25.6815 1057.00
25.7467 1060.00
25.8119 969.00
25.8771 1027.00
25.9423 991.00
26.0075 1054.00
26.0727 1052.00
26.1379 986.00
26.2031 1037.00
26.2683 1005.00
26.3335 1087.00
26.3987 1060.00
26.4639 1102.00
26.5291 1025.00
26.5943 999.00
26.6595 1020.00
26.7247 958.00
26.7899 986.00
26.8551 978.00
26.9203 998.00
26.9855 924.00
27.0507 1047.00
27.1159 989.00
27.1811 993.00
27.2463 950.00
27.3115 952.00
27.3767 1023.00
27.4419 939.00
27.5071 931.00
27.5723 972.00
27.6375 986.00
27.7027 997.00
27.7679 965.00
27.8331 992.00
27.8983 1194.00
27.9635 1158.00
28.0287 1057.00
28.0939 996.00
28.1591 974.00
28.2243 922.00
28.2894 1024.00
28.3546 956.00
28.4198 1022.00
28.485 967.00
28.5502 984.00
28.6154 958.00
28.6806 948.00
28.7458 980.00
28.811 953.00
28.8762 938.00
28.9414 965.00
29.0066 919.00
29.0718 953.00
29.137 888.00
29.2022 965.00
29.2674 977.00
29.3326 934.00
29.3978 946.00
29.463 938.00
29.5282 909.00
29.5934 960.00
29.6586 910.00
29.7238 958.00
29.789 1076.00
29.8542 1094.00
29.9194 1193.00
29.9846 1211.00
30.0498 1143.00
30.115 1229.00
30.1802 1296.00
30.2454 1319.00
30.3106 1552.00
30.3758 1847.00
30.441 2300.00
30.5062 2600.00
30.5714 2504.00
30.6366 2898.00
30.7018 4745.00
30.767 9450.00
30.8322 20899.00
30.8974 41606.00
30.9626 38252.00
31.0278 19839.00
31.093 6451.00
31.1582 3765.00
31.2234 2855.00
31.2886 2167.00
31.3538 1688.00
31.419 1374.00
31.4842 1364.00
31.5494 1258.00
31.6146 1165.00
31.6798 1133.00
31.745 1189.00
31.8102 1103.00
31.8754 1090.00
31.9406 1084.00
32.0058 1059.00
32.071 978.00
32.1362 1016.00
32.2014 1029.00
32.2666 1025.00
32.3318 1011.00
32.397 943.00
32.4622 979.00
32.5274 944.00
32.5926 891.00
32.6578 889.00
32.723 888.00
32.7882 922.00
32.8534 970.00
32.9186 914.00
32.9838 944.00
33.0489 920.00
33.1141 928.00
33.1793 978.00
33.2445 996.00
33.3097 1158.00
33.3749 1367.00
33.4401 1649.00
33.5053 1343.00
33.5705 1088.00
33.6357 926.00
33.7009 921.00
33.7661 863.00
33.8313 946.00
33.8965 885.00
33.9617 836.00
34.0269 906.00
34.0921 866.00
34.1573 825.00
34.2225 922.00
34.2877 890.00
34.3529 813.00
34.4181 915.00
34.4833 1099.00
34.5485 1177.00
34.6137 1139.00
34.6789 953.00
34.7441 1074.00
34.8093 1160.00
34.8745 1163.00
34.9397 1088.00
35.0049 984.00
35.0701 1025.00
35.1353 961.00
35.2005 944.00
35.2657 1048.00
35.3309 1097.00
35.3961 1251.00
35.4613 1366.00
35.5265 1939.00
35.5917 2572.00
35.6569 4029.00
35.7221 8125.00
35.7873 14337.00
35.8525 10194.00
35.9177 6034.00
35.9829 2407.00
36.0481 1635.00
36.1133 1409.00
36.1785 1169.00
36.2437 1035.00
36.3089 912.00
36.3741 861.00
36.4393 887.00
36.5045 824.00
36.5697 827.00
36.6349 807.00
36.7001 823.00
36.7653 827.00
36.8305 785.00
36.8957 769.00
36.9609 831.00
37.0261 820.00
37.0913 783.00
37.1565 800.00
37.2217 819.00
37.2869 817.00
37.3521 785.00
37.4173 766.00
37.4825 746.00
37.5477 760.00
37.6129 756.00
37.6781 850.00
37.7433 873.00
37.8085 950.00
37.8736 1195.00
37.9388 1957.00
38.004 3134.00
38.0692 2538.00
38.1344 1968.00
38.1996 1261.00
38.2648 1309.00
38.33 1443.00
38.3952 1309.00
38.4604 1179.00
38.5256 943.00
38.5908 796.00
38.656 782.00
38.7212 752.00
38.7864 718.00
38.8516 763.00
38.9168 727.00
38.982 712.00
39.0472 723.00
39.1124 702.00
39.1776 676.00
39.2428 707.00
39.308 755.00
39.3732 709.00
39.4384 724.00
39.5036 685.00
39.5688 725.00
39.634 753.00
39.6992 768.00
39.7644 790.00
39.8296 744.00
39.8948 796.00
39.96 752.00
40.0252 824.00
40.0904 1095.00
40.1556 1255.00
40.2208 1221.00
40.286 1122.00
40.3512 967.00
40.4164 864.00
40.4816 782.00
40.5468 673.00
40.612 656.00
40.6772 631.00
40.7424 623.00
40.8076 662.00
40.8728 646.00
40.938 681.00
41.0032 646.00
41.0684 628.00
41.1336 641.00
41.1988 677.00
41.264 706.00
41.3292 732.00
41.3944 816.00
41.4596 903.00
41.5248 810.00
41.59 806.00
41.6552 783.00
41.7204 884.00
41.7856 938.00
41.8508 1046.00
41.916 949.00
41.9812 967.00
42.0464 1218.00
42.1116 1988.00
42.1768 2757.00
42.242 1978.00
42.3072 1525.00
42.3724 919.00
42.4376 813.00
42.5028 718.00
42.568 727.00
42.6332 676.00
42.6983 731.00
42.7635 676.00
42.8287 617.00
42.8939 626.00
42.9591 627.00
43.0243 627.00
43.0895 634.00
43.1547 598.00
43.2199 630.00
43.2851 602.00
43.3503 566.00
43.4155 581.00
43.4807 587.00
43.5459 632.00
43.6111 590.00
43.6763 649.00
43.7415 609.00
43.8067 664.00
43.8719 631.00
43.9371 616.00
44.0023 693.00
44.0675 859.00
44.1327 990.00
44.1979 840.00
44.2631 811.00
44.3283 665.00
44.3935 665.00
44.4587 595.00
44.5239 633.00
44.5891 651.00
44.6543 569.00
44.7195 664.00
44.7847 678.00
44.8499 729.00
44.9151 712.00
44.9803 631.00
45.0455 637.00
45.1107 600.00
45.1759 621.00
45.2411 592.00
45.3063 590.00
45.3715 621.00
45.4367 607.00
45.5019 593.00
45.5671 652.00
45.6323 725.00
45.6975 725.00
45.7627 842.00
45.8279 951.00
45.8931 1590.00
45.9583 3205.00
46.0235 4264.00
46.0887 2845.00
46.1539 2244.00
46.2191 1072.00
46.2843 884.00
46.3495 727.00
46.4147 720.00
46.4799 634.00
46.5451 620.00
46.6103 630.00
46.6755 664.00
46.7407 695.00
46.8059 812.00
46.8711 824.00
46.9363 743.00
47.0015 640.00
47.0667 586.00
47.1319 557.00
47.1971 611.00
47.2623 603.00
47.3275 626.00
47.3927 626.00
47.4579 599.00
47.523 564.00
47.5882 549.00
47.6534 549.00
47.7186 572.00
47.7838 552.00
47.849 556.00
47.9142 542.00
47.9794 525.00
48.0446 577.00
48.1098 570.00
48.175 575.00
48.2402 596.00
48.3054 552.00
48.3706 548.00
48.4358 566.00
48.501 679.00
48.5662 797.00
48.6314 713.00
48.6966 736.00
48.7618 664.00
48.827 613.00
48.8922 589.00
48.9574 593.00
49.0226 600.00
49.0878 535.00
49.153 581.00
49.2182 588.00
49.2834 550.00
49.3486 662.00
49.4138 697.00
49.479 832.00
49.5442 1212.00
49.6094 1811.00
49.6746 1271.00
49.7398 1267.00
49.805 801.00
49.8702 751.00
49.9354 676.00
50.0006 702.00
50.0658 652.00
50.131 638.00
50.1962 640.00
50.2614 622.00
50.3266 626.00
50.3918 595.00
50.457 640.00
50.5222 691.00
50.5874 667.00
50.6526 711.00
50.7178 707.00
50.783 742.00
50.8482 858.00
50.9134 978.00
50.9786 1198.00
51.0438 1368.00
51.109 1728.00
51.1742 2766.00
51.2394 5904.00
51.3046 14595.00
51.3698 12605.00
51.435 9227.00
51.5002 7191.00
51.5654 2802.00
51.6306 1752.00
51.6958 1291.00
51.761 1093.00
51.8262 897.00
51.8914 779.00
51.9566 729.00
52.0218 753.00
52.087 637.00
52.1522 659.00
52.2174 610.00
52.2826 583.00
52.3477 583.00
52.4129 589.00
52.4781 575.00
52.5433 627.00
52.6085 562.00
52.6737 630.00
52.7389 621.00
52.8041 630.00
52.8693 702.00
52.9345 909.00
52.9997 1436.00
53.0649 1288.00
53.1301 1033.00
53.1953 903.00
53.2605 666.00
53.3257 546.00
53.3909 610.00
53.4561 617.00
53.5213 585.00
53.5865 592.00
53.6517 599.00
53.7169 629.00
53.7821 640.00
53.8473 638.00
53.9125 613.00
53.9777 598.00
54.0429 587.00
54.1081 559.00
54.1733 524.00
54.2385 513.00
54.3037 567.00
54.3689 566.00
54.4341 553.00
54.4993 558.00
54.5645 586.00
54.6297 763.00
54.6949 719.00
54.7601 689.00
54.8253 719.00
54.8905 650.00
54.9557 620.00
55.0209 638.00
55.0861 564.00
55.1513 571.00
55.2165 549.00
55.2817 534.00
55.3469 485.00
55.4121 575.00
55.4773 534.00
55.5425 533.00
55.6077 585.00
55.6729 556.00
55.7381 582.00
55.8033 536.00
55.8685 593.00
55.9337 625.00
55.9989 645.00
56.0641 718.00
56.1293 786.00
56.1945 1336.00
56.2597 2430.00
56.3249 1907.00
56.3901 1629.00
56.4553 1436.00
56.5205 863.00
56.5857 767.00
56.6509 683.00
56.7161 588.00
56.7813 608.00
56.8465 571.00
56.9117 548.00
56.9769 548.00
57.042 579.00
57.1073 507.00
57.1724 533.00
57.2376 552.00
57.3028 573.00
57.368 572.00
57.4332 570.00
57.4984 525.00
57.5636 482.00
57.6288 572.00
57.694 592.00
57.7592 621.00
57.8244 849.00
57.8896 961.00
57.9548 748.00
58.02 847.00
58.0852 671.00
58.1504 509.00
58.2156 570.00
58.2808 524.00
58.346 520.00
58.4112 531.00
58.4764 514.00
58.5416 500.00
58.6068 572.00
58.672 567.00
58.7372 585.00
58.8024 628.00
58.8676 577.00
58.9328 635.00
58.998 595.00
59.0632 599.00
59.1284 622.00
59.1936 682.00
59.2588 793.00
59.324 1046.00
59.3892 1925.00
59.4544 1959.00
59.5196 1355.00
59.5848 1492.00
59.65 959.00
59.7152 691.00
59.7804 660.00
59.8456 639.00
59.9108 589.00
59.976 624.00
60.0412 604.00
60.1064 613.00
60.1716 566.00
60.2368 639.00
60.302 636.00
60.3672 660.00
60.4324 707.00
60.4976 716.00
60.5628 862.00
60.628 1067.00
60.6932 1238.00
60.7584 1611.00
60.8236 2559.00
60.8888 5922.00
60.954 11406.00
61.0192 6321.00
61.0844 5959.00
61.1496 5599.00
61.2148 2348.00
61.28 1439.00
61.3452 1123.00
61.4104 878.00
61.4756 813.00
61.5408 686.00
61.606 614.00
61.6712 637.00
61.7364 653.00
61.8016 584.00
61.8667 562.00
61.932 609.00
61.9971 588.00
62.0623 569.00
62.1275 695.00
62.1927 739.00
62.2579 720.00
62.3231 957.00
62.3883 1510.00
62.4535 2676.00
62.5187 1962.00
62.5839 1487.00
62.6491 1708.00
62.7143 982.00
62.7795 736.00
62.8447 668.00
62.9099 680.00
62.9751 595.00
63.0403 634.00
63.1055 623.00
63.1707 556.00
63.2359 538.00
63.3011 544.00
63.3663 523.00
63.4315 472.00
63.4967 561.00
63.5619 580.00
63.6271 616.00
63.6923 595.00
63.7575 707.00
63.8227 900.00
63.8879 1583.00
63.9531 2525.00
64.0183 1621.00
64.0835 1453.00
64.1487 1535.00
64.2139 914.00
64.2791 704.00
64.3443 613.00
64.4095 569.00
64.4747 559.00
64.5399 493.00
64.6051 481.00
64.6703 479.00
64.7355 472.00
64.8007 511.00
64.8659 494.00
64.9311 522.00
64.9963 502.00
65.0615 512.00
65.1267 492.00
65.1919 555.00
65.2571 573.00
65.3223 669.00
65.3875 1095.00
65.4527 1171.00
65.5179 782.00
65.5831 890.00
65.6483 823.00
65.7135 578.00
65.7787 506.00
65.8439 499.00
65.9091 492.00
65.9743 496.00
66.0395 529.00
66.1047 464.00
66.1699 498.00
66.2351 430.00
66.3003 489.00
66.3655 478.00
66.4307 469.00
66.4959 480.00
66.561 495.00
66.6263 456.00
66.6915 550.00
66.7566 519.00
66.8218 724.00
66.887 935.00
66.9522 651.00
67.0174 727.00
67.0826 726.00
67.1478 530.00
67.213 456.00
67.2782 462.00
67.3434 454.00
67.4086 492.00
67.4738 477.00
67.539 482.00
67.6042 463.00
67.6694 493.00
67.7346 469.00
67.7998 456.00
67.865 483.00
67.9302 514.00
67.9954 492.00
68.0606 520.00
68.1258 556.00
68.191 705.00
68.2562 1036.00
68.3214 1596.00
68.3866 988.00
68.4518 927.00
68.517 1030.00
68.5822 651.00
68.6474 611.00
68.7126 486.00
68.7778 468.00
68.843 440.00
68.9082 442.00
68.9734 426.00
69.0386 426.00
69.1038 422.00
69.169 446.00
69.2342 435.00
69.2994 469.00
69.3646 503.00
69.4298 479.00
69.495 521.00
69.5602 502.00
69.6254 610.00
69.6906 861.00
69.7558 1030.00
69.821 659.00
69.8862 700.00
69.9514 767.00
70.0166 581.00
70.0818 500.00
70.147 505.00
70.2122 440.00
70.2774 438.00
70.3426 431.00
70.4078 412.00
70.473 445.00
70.5382 408.00
70.6034 429.00
70.6686 412.00
70.7338 397.00
70.799 434.00
70.8642 429.00
70.9294 442.00
70.9946 415.00
71.0598 412.00
71.125 437.00
71.1902 432.00
71.2554 382.00
71.3205 445.00
71.3858 440.00
71.451 381.00
71.5162 433.00
71.5813 410.00
71.6465 435.00
71.7117 435.00
71.7769 417.00
71.8421 398.00
71.9073 430.00
71.9725 409.00
72.0377 424.00
72.1029 422.00
72.1681 448.00
72.2333 439.00
72.2985 481.00
72.3637 421.00
72.4289 429.00
72.4941 451.00
72.5593 484.00
72.6245 470.00
72.6897 394.00
72.7549 421.00
72.8201 439.00
72.8853 403.00
72.9505 396.00
73.0157 442.00
73.0809 422.00
73.1461 412.00
73.2113 417.00
73.2765 408.00
73.3417 401.00
73.4069 440.00
73.4721 482.00
73.5373 480.00
73.6025 487.00
73.6677 488.00
73.7329 519.00
73.7981 589.00
73.8633 872.00
73.9285 1312.00
73.9937 877.00
74.0589 730.00
74.1241 837.00
74.1893 699.00
74.2545 545.00
74.3197 506.00
74.3849 477.00
74.4501 441.00
74.5153 410.00
74.5805 471.00
74.6457 414.00
74.7109 453.00
74.7761 488.00
74.8413 522.00
74.9065 508.00
74.9717 519.00
75.0369 537.00
75.1021 542.00
75.1673 734.00
75.2325 1010.00
75.2977 1671.00
75.3629 1201.00
75.4281 919.00
75.4933 1016.00
75.5585 996.00
75.6237 655.00
75.6889 584.00
75.7541 521.00
75.8193 471.00
75.8845 440.00
75.9497 439.00
76.0149 464.00
76.0801 427.00
76.1452 482.00
76.2104 450.00
76.2756 472.00
76.3409 460.00
76.406 492.00
76.4712 573.00
76.5364 673.00
76.6016 1056.00
76.6668 1652.00
76.732 1268.00
76.7972 845.00
76.8624 996.00
76.9276 1027.00
76.9928 636.00
77.058 593.00
77.1232 474.00
77.1884 439.00
77.2536 450.00
77.3188 430.00
77.384 434.00
77.4492 444.00
77.5144 423.00
77.5796 479.00
77.6448 443.00
77.71 483.00
77.7752 510.00
77.8404 529.00
77.9056 560.00
77.9708 816.00
78.036 1109.00
78.1012 792.00
78.1664 666.00
78.2316 771.00
78.2968 790.00
78.362 541.00
78.4272 480.00
78.4924 454.00
78.5576 445.00
78.6228 423.00
78.688 419.00
78.7532 382.00
78.8184 432.00
78.8836 473.00
78.9488 445.00
79.014 455.00
79.0792 429.00
79.1444 459.00
79.2096 523.00
79.2748 624.00
79.34 909.00
79.4052 1101.00
79.4704 778.00
79.5356 641.00
79.6008 797.00
79.666 784.00
79.7312 562.00
79.7964 557.00
79.8616 467.00
79.9268 443.00
79.992 430.00
80.0572 450.00
80.1224 422.00
80.1876 460.00
80.2528 435.00
80.318 419.00
80.3832 469.00
80.4484 456.00
80.5136 497.00
80.5788 553.00
80.644 600.00
80.7092 869.00
80.7744 828.00
80.8396 631.00
80.9048 653.00
80.9699 697.00
81.0351 526.00
81.1003 481.00
81.1655 482.00
81.2307 447.00
81.2959 421.00
81.3611 428.00
81.4263 427.00
81.4915 435.00
81.5567 444.00
81.6219 424.00
81.6871 497.00
81.7523 468.00
81.8175 520.00
81.8827 515.00
81.9479 666.00
82.0131 1010.00
82.0783 1580.00
82.1435 989.00
82.2087 818.00
82.2739 850.00
82.3391 994.00
82.4043 711.00
82.4695 546.00
82.5347 475.00
82.5999 486.00
82.6651 465.00
82.7303 448.00
82.7955 488.00
82.8607 496.00
82.9259 520.00
82.9911 548.00
83.0563 552.00
83.1215 569.00
83.1867 640.00
83.2519 752.00
83.3171 1226.00
83.3823 2236.00
83.4475 2345.00
83.5127 1336.00
83.5779 1170.00
83.6431 1576.00
83.7083 1310.00
83.7735 851.00
83.8387 622.00
83.9039 566.00
83.9691 485.00
84.0343 532.00
84.0995 466.00
84.1647 453.00
84.2299 442.00
84.2951 385.00
84.3603 411.00
84.4255 415.00
84.4907 421.00
84.5559 441.00
84.6211 456.00
84.6863 411.00
84.7515 468.00
84.8167 443.00
84.8819 433.00
84.9471 451.00
85.0123 424.00
85.0775 392.00
85.1427 439.00
85.2079 451.00
85.2731 404.00
85.3383 413.00
85.4035 447.00
85.4687 429.00
85.5339 448.00
85.5991 467.00
85.6643 534.00
85.7295 518.00
85.7946 516.00
85.8598 597.00
85.925 732.00
85.9903 1100.00
86.0554 1980.00
86.1206 1618.00
86.1858 1034.00
86.251 957.00
86.3162 1248.00
86.3814 1039.00
86.4466 732.00
86.5118 583.00
86.577 460.00
86.6422 508.00
86.7074 429.00
86.7726 476.00
86.8378 447.00
86.903 451.00
86.9682 428.00
87.0334 453.00
87.0986 418.00
87.1638 476.00
87.229 428.00
87.2942 564.00
87.3594 659.00
87.4246 673.00
87.4898 569.00
87.555 530.00
87.6202 517.00
87.6854 518.00
87.7506 491.00
87.8158 447.00
87.881 432.00
87.9462 395.00
88.0114 446.00
88.0766 446.00
88.1418 408.00
88.207 435.00
88.2722 387.00
88.3374 444.00
88.4026 403.00
88.4678 386.00
88.533 437.00
88.5982 476.00
88.6634 605.00
88.7286 797.00
88.7938 551.00
88.859 549.00
88.9242 520.00
88.9894 589.00
89.0546 597.00
89.1198 475.00
89.185 471.00
89.2502 414.00
89.3154 427.00
89.3806 427.00
89.4458 405.00
89.511 414.00
89.5762 452.00
89.6414 466.00
89.7066 434.00
89.7718 454.00
89.837 475.00
89.9022 539.00
89.9674 723.00
90.0326 1053.00
90.0978 1016.00
90.163 664.00
90.2282 619.00
90.2934 687.00
90.3586 768.00
90.4238 659.00
90.489 496.00
90.5542 438.00
90.6193 434.00
90.6845 412.00
90.7497 411.00
90.8149 434.00
90.8801 424.00
90.9453 428.00
91.0105 389.00
91.0757 395.00
91.1409 397.00
91.2061 454.00
91.2713 404.00
91.3365 407.00
91.4017 422.00
91.4669 382.00
91.5321 424.00
91.5973 416.00
91.6625 437.00
91.7277 441.00
91.7929 424.00
91.8581 390.00
91.9233 375.00
91.9885 395.00
92.0537 385.00
92.1189 438.00
92.1841 413.00
92.2493 463.00
92.3145 427.00
92.3797 486.00
92.4449 496.00
92.5101 490.00
92.5753 575.00
92.6405 842.00
92.7057 1122.00
92.7709 861.00
92.8361 649.00
92.9013 638.00
92.9665 688.00
93.0317 742.00
93.0969 555.00
93.1621 469.00
93.2273 432.00
93.2925 386.00
93.3577 432.00
93.4229 464.00
93.4881 422.00
93.5533 419.00
93.6185 437.00
93.6837 398.00
93.7489 389.00
93.8141 397.00
93.8793 420.00
93.9445 396.00
94.0097 393.00
94.0749 391.00
94.1401 397.00
94.2053 399.00
94.2705 425.00
94.3357 395.00
94.4009 391.00
94.4661 391.00
94.5313 411.00
94.5965 410.00
94.6617 437.00
94.7269 415.00
94.7921 393.00
94.8573 424.00
94.9225 431.00
94.9877 455.00
95.0529 475.00
95.1181 476.00
95.1833 492.00
95.2485 602.00
95.3137 897.00
95.3789 1017.00
95.444 767.00
95.5092 629.00
95.5744 556.00
95.6396 755.00
95.7048 734.00
95.77 529.00
95.8352 487.00
95.9004 483.00
95.9656 472.00
96.0308 476.00
96.096 450.00
96.1612 488.00
96.2264 513.00
96.2916 476.00
96.3568 470.00
96.422 491.00
96.4872 611.00
96.5524 715.00
96.6176 1167.00
96.6828 1706.00
96.748 1415.00
96.8132 938.00
96.8784 793.00
96.9436 925.00
97.0088 1128.00
97.074 963.00
97.1392 622.00
97.2044 524.00
97.2696 484.00
97.3348 480.00
97.4 473.00
97.4652 499.00
97.5304 446.00
97.5956 475.00
97.6608 446.00
97.726 440.00
97.7912 532.00
97.8564 530.00
97.9216 671.00
97.9868 960.00
98.052 1034.00
98.1172 772.00
98.1824 555.00
98.2476 611.00
98.3128 742.00
98.378 784.00
98.4432 651.00
98.5084 487.00
98.5736 475.00
98.6388 426.00
98.704 442.00
98.7692 439.00
98.8344 486.00
98.8996 455.00
98.9648 458.00
99.03 461.00
99.0952 446.00
99.1604 465.00
99.2256 574.00
99.2908 719.00
99.356 862.00
99.4212 810.00
99.4864 604.00
99.5516 530.00
99.6168 566.00
99.682 633.00
99.7472 580.00
99.8124 466.00
99.8776 502.00
99.9428 468.00
100.008 396.00
100.073 400.00
100.095 391.00