File: data/xrd_creation/results/PG_1120-1.xy
10.0094 2696.00
10.0746 2732.00
10.1398 2651.00
10.205 2588.00
10.2702 2597.00
10.3354 2621.00
10.4006 2506.00
10.4658 2546.00
10.531 2511.00
10.5962 2445.00
10.6614 2453.00
10.7266 2554.00
10.7918 2417.00
10.857 2492.00
10.9222 2475.00
10.9874 2408.00
11.0526 2457.00
11.1178 2302.00
11.183 2334.00
11.2482 2286.00
11.3134 2243.00
11.3786 2354.00
11.4438 2361.00
11.509 2285.00
11.5742 2196.00
11.6394 2251.00
11.7046 2249.00
11.7698 2126.00
11.835 2081.00
11.9002 2208.00
11.9654 2238.00
12.0306 2177.00
12.0958 2124.00
12.161 2078.00
12.2262 2130.00
12.2914 2126.00
12.3566 2048.00
12.4218 2064.00
12.487 2109.00
12.5522 2053.00
12.6174 2047.00
12.6826 2006.00
12.7478 2003.00
12.813 2002.00
12.8782 1926.00
12.9434 1975.00
13.0086 1936.00
13.0738 2043.00
13.139 1992.00
13.2042 1889.00
13.2694 1934.00
13.3346 1852.00
13.3998 1896.00
13.465 1907.00
13.5302 1926.00
13.5954 1815.00
13.6606 1860.00
13.7258 1846.00
13.791 1785.00
13.8562 1872.00
13.9214 1791.00
13.9865 1861.00
14.0517 1779.00
14.1169 1763.00
14.1821 1811.00
14.2473 1790.00
14.3125 1813.00
14.3777 1740.00
14.4429 1824.00
14.5081 1681.00
14.5733 1811.00
14.6385 1750.00
14.7037 1680.00
14.7689 1794.00
14.8341 1726.00
14.8993 1841.00
14.9645 1693.00
15.0297 1749.00
15.0949 1785.00
15.1601 1699.00
15.2253 1683.00
15.2905 1724.00
15.3557 1681.00
15.4209 1757.00
15.4861 1712.00
15.5513 1688.00
15.6165 1734.00
15.6817 1764.00
15.7469 1701.00
15.8121 1700.00
15.8773 1676.00
15.9425 1764.00
16.0077 1719.00
16.0729 1804.00
16.1381 1667.00
16.2033 1681.00
16.2685 1658.00
16.3337 1631.00
16.3989 1653.00
16.4641 1750.00
16.5293 1692.00
16.5945 1734.00
16.6597 1588.00
16.7249 1676.00
16.7901 1693.00
16.8553 1710.00
16.9205 1608.00
16.9857 1700.00
17.0509 1728.00
17.1161 1863.00
17.1813 2098.00
17.2465 2498.00
17.3117 2778.00
17.3769 2568.00
17.4421 2101.00
17.5073 1771.00
17.5725 1618.00
17.6377 1491.00
17.7029 1589.00
17.7681 1616.00
17.8333 1491.00
17.8985 1607.00
17.9637 1552.00
18.0289 1536.00
18.0941 1564.00
18.1593 1562.00
18.2245 1593.00
18.2897 1520.00
18.3549 1586.00
18.4201 1564.00
18.4853 1561.00
18.5505 1542.00
18.6157 1534.00
18.6809 1520.00
18.7461 1505.00
18.8112 1494.00
18.8764 1521.00
18.9416 1560.00
19.0068 1557.00
19.072 1507.00
19.1372 1555.00
19.2024 1443.00
19.2676 1531.00
19.3328 1484.00
19.398 1464.00
19.4632 1533.00
19.5284 1487.00
19.5936 1539.00
19.6588 1483.00
19.724 1366.00
19.7892 1457.00
19.8544 1489.00
19.9196 1449.00
19.9848 1487.00
20.05 1437.00
20.1152 1458.00
20.1804 1462.00
20.2456 1390.00
20.3108 1376.00
20.376 1374.00
20.4412 1475.00
20.5064 1382.00
20.5716 1457.00
20.6368 1496.00
20.702 1418.00
20.7672 1382.00
20.8324 1451.00
20.8976 1422.00
20.9628 1416.00
21.028 1408.00
21.0932 1450.00
21.1584 1364.00
21.2236 1415.00
21.2888 1348.00
21.354 1397.00
21.4192 1430.00
21.4844 1398.00
21.5496 1322.00
21.6148 1424.00
21.68 1419.00
21.7452 1397.00
21.8104 1388.00
21.8756 1330.00
21.9408 1350.00
22.006 1349.00
22.0712 1395.00
22.1364 1358.00
22.2016 1242.00
22.2668 1407.00
22.332 1358.00
22.3972 1331.00
22.4624 1324.00
22.5276 1328.00
22.5928 1355.00
22.658 1343.00
22.7232 1288.00
22.7884 1348.00
22.8536 1415.00
22.9188 1337.00
22.984 1270.00
23.0492 1360.00
23.1144 1441.00
23.1796 1375.00
23.2448 1401.00
23.31 1381.00
23.3752 1552.00
23.4404 1634.00
23.5056 1691.00
23.5708 2185.00
23.6359 3595.00
23.7011 6537.00
23.7663 9090.00
23.8315 7767.00
23.8967 4279.00
23.9619 2370.00
24.0271 1674.00
24.0923 1457.00
24.1575 1462.00
24.2227 1423.00
24.2879 1346.00
24.3531 1292.00
24.4183 1289.00
24.4835 1324.00
24.5487 1298.00
24.6139 1345.00
24.6791 1304.00
24.7443 1315.00
24.8095 1331.00
24.8747 1258.00
24.9399 1322.00
25.0051 1284.00
25.0703 1276.00
25.1355 1232.00
25.2007 1260.00
25.2659 1295.00
25.3311 1237.00
25.3963 1290.00
25.4615 1192.00
25.5267 1189.00
25.5919 1258.00
25.6571 1210.00
25.7223 1281.00
25.7875 1326.00
25.8527 1228.00
25.9179 1247.00
25.9831 1191.00
26.0483 1277.00
26.1135 1270.00
26.1787 1245.00
26.2439 1206.00
26.3091 1241.00
26.3743 1237.00
26.4395 1198.00
26.5047 1234.00
26.5699 1280.00
26.6351 1211.00
26.7003 1197.00
26.7655 1200.00
26.8307 1243.00
26.8959 1233.00
26.9611 1215.00
27.0263 1325.00
27.0915 1197.00
27.1567 1222.00
27.2219 1153.00
27.2871 1159.00
27.3523 1219.00
27.4175 1215.00
27.4827 1246.00
27.5479 1233.00
27.6131 1253.00
27.6783 1253.00
27.7435 1196.00
27.8087 1194.00
27.8739 1260.00
27.9391 1216.00
28.0043 1249.00
28.0695 1223.00
28.1347 1233.00
28.1999 1174.00
28.2651 1229.00
28.3303 1172.00
28.3955 1115.00
28.4606 1159.00
28.5258 1178.00
28.591 1211.00
28.6562 1123.00
28.7214 1170.00
28.7866 1160.00
28.8518 1195.00
28.917 1193.00
28.9822 1244.00
29.0474 1222.00
29.1126 1214.00
29.1778 1211.00
29.243 1149.00
29.3082 1175.00
29.3734 1199.00
29.4386 1257.00
29.5038 1608.00
29.569 2073.00
29.6342 2063.00
29.6994 1730.00
29.7646 1331.00
29.8298 1262.00
29.895 1185.00
29.9602 1220.00
30.0254 1206.00
30.0906 1224.00
30.1558 1214.00
30.221 1267.00
30.2862 1223.00
30.3514 1452.00
30.4166 1679.00
30.4818 2485.00
30.547 4793.00
30.6122 8151.00
30.6774 7975.00
30.7426 5202.00
30.8078 2709.00
30.873 1667.00
30.9382 1408.00
31.0034 1296.00
31.0686 1241.00
31.1338 1155.00
31.199 1129.00
31.2642 1181.00
31.3294 1200.00
31.3946 1157.00
31.4598 1202.00
31.525 1185.00
31.5902 1142.00
31.6554 1092.00
31.7206 1179.00
31.7858 1169.00
31.851 1208.00
31.9162 1127.00
31.9814 1131.00
32.0466 1133.00
32.1118 1126.00
32.177 1183.00
32.2422 1267.00
32.3074 1322.00
32.3726 1393.00
32.4378 1422.00
32.503 1379.00
32.5682 1287.00
32.6334 1172.00
32.6986 1156.00
32.7638 1120.00
32.829 1096.00
32.8942 1125.00
32.9594 1082.00
33.0246 1136.00
33.0898 1054.00
33.1549 1069.00
33.2201 1178.00
33.2853 1067.00
33.3505 1131.00
33.4157 1078.00
33.4809 1096.00
33.5461 1101.00
33.6113 1110.00
33.6765 1190.00
33.7417 1328.00
33.8069 1790.00
33.8721 2544.00
33.9373 2764.00
34.0025 2311.00
34.0677 1643.00
34.1329 1365.00
34.1981 1225.00
34.2633 1169.00
34.3285 1119.00
34.3937 1128.00
34.4589 1167.00
34.5241 1140.00
34.5893 1233.00
34.6545 1108.00
34.7197 1166.00
34.7849 1125.00
34.8501 1269.00
34.9153 1387.00
34.9805 1530.00
35.0457 1799.00
35.1109 2334.00
35.1761 2813.00
35.2413 3316.00
35.3065 4037.00
35.3717 4626.00
35.4369 5056.00
35.5021 4505.00
35.5673 3712.00
35.6325 2792.00
35.6977 2155.00
35.7629 1727.00
35.8281 1583.00
35.8933 1429.00
35.9585 1205.00
36.0237 1189.00
36.0889 1203.00
36.1541 1097.00
36.2193 1150.00
36.2845 1082.00
36.3497 1088.00
36.4149 1094.00
36.4801 1097.00
36.5453 1103.00
36.6105 1047.00
36.6757 1101.00
36.7409 1012.00
36.8061 1093.00
36.8713 1024.00
36.9365 1059.00
37.0017 1042.00
37.0669 1022.00
37.1321 1136.00
37.1973 1075.00
37.2625 1080.00
37.3277 1116.00
37.3929 1104.00
37.4581 1105.00
37.5233 1092.00
37.5885 1116.00
37.6537 1134.00
37.7189 1190.00
37.7841 1207.00
37.8493 1172.00
37.9145 1406.00
37.9796 1443.00
38.0448 1689.00
38.11 1800.00
38.1752 1817.00
38.2404 2109.00
38.3056 2740.00
38.3708 3124.00
38.436 3580.00
38.5012 3725.00
38.5664 3993.00
38.6316 4436.00
38.6968 4153.00
38.762 3643.00
38.8272 3348.00
38.8924 2770.00
38.9576 2315.00
39.0228 1959.00
39.088 1764.00
39.1532 1564.00
39.2184 1393.00
39.2836 1287.00
39.3488 1184.00
39.414 1154.00
39.4792 1092.00
39.5444 1084.00
39.6096 1026.00
39.6748 1026.00
39.74 970.00
39.8052 1025.00
39.8704 1042.00
39.9356 993.00
40.0008 1005.00
40.066 998.00
40.1312 993.00
40.1964 1015.00
40.2616 998.00
40.3268 992.00
40.392 1110.00
40.4572 1187.00
40.5224 1319.00
40.5876 1304.00
40.6528 1180.00
40.718 963.00
40.7832 1016.00
40.8484 968.00
40.9136 965.00
40.9788 936.00
41.044 978.00
41.1092 983.00
41.1744 915.00
41.2396 951.00
41.3048 960.00
41.37 964.00
41.4352 905.00
41.5004 839.00
41.5656 878.00
41.6308 937.00
41.696 937.00
41.7612 922.00
41.8264 883.00
41.8916 918.00
41.9568 877.00
42.022 901.00
42.0872 905.00
42.1524 936.00
42.2176 940.00
42.2828 892.00
42.348 924.00
42.4132 1004.00
42.4784 875.00
42.5436 946.00
42.6088 907.00
42.6739 968.00
42.7392 952.00
42.8043 908.00
42.8695 927.00
42.9347 932.00
42.9999 900.00
43.0651 849.00
43.1303 918.00
43.1955 909.00
43.2607 898.00
43.3259 891.00
43.3911 861.00
43.4563 912.00
43.5215 881.00
43.5867 882.00
43.6519 892.00
43.7171 900.00
43.7823 851.00
43.8475 893.00
43.9127 902.00
43.9779 900.00
44.0431 934.00
44.1083 922.00
44.1735 896.00
44.2387 891.00
44.3039 862.00
44.3691 908.00
44.4343 830.00
44.4995 878.00
44.5647 901.00
44.6299 854.00
44.6951 862.00
44.7603 914.00
44.8255 886.00
44.8907 989.00
44.9559 838.00
45.0211 827.00
45.0863 921.00
45.1515 849.00
45.2167 853.00
45.2819 870.00
45.3471 912.00
45.4123 912.00
45.4775 983.00
45.5427 1136.00
45.6079 1501.00
45.6731 1698.00
45.7383 1579.00
45.8035 1364.00
45.8687 1068.00
45.9339 1039.00
45.9991 1020.00
46.0643 1081.00
46.1295 1090.00
46.1947 1149.00
46.2599 1766.00
46.3251 3337.00
46.3903 4284.00
46.4555 3642.00
46.5207 2788.00
46.5859 1811.00
46.6511 1229.00
46.7163 1009.00
46.7815 941.00
46.8467 936.00
46.9119 932.00
46.9771 945.00
47.0423 870.00
47.1075 883.00
47.1727 910.00
47.2379 896.00
47.3031 890.00
47.3683 917.00
47.4335 887.00
47.4986 1008.00
47.5639 1079.00
47.629 1170.00
47.6942 1075.00
47.7594 1008.00
47.8246 909.00
47.8898 852.00
47.955 876.00
48.0202 925.00
48.0854 895.00
48.1506 899.00
48.2158 934.00
48.281 961.00
48.3462 1042.00
48.4114 1059.00
48.4766 1098.00
48.5418 1303.00
48.607 1526.00
48.6722 1571.00
48.7374 1704.00
48.8026 1650.00
48.8678 1483.00
48.933 1288.00
48.9982 1173.00
49.0634 1081.00
49.1286 1066.00
49.1938 974.00
49.259 956.00
49.3242 930.00
49.3894 887.00
49.4546 872.00
49.5198 898.00
49.585 850.00
49.6502 869.00
49.7154 855.00
49.7806 837.00
49.8458 836.00
49.911 784.00
49.9762 839.00
50.0414 862.00
50.1066 821.00
50.1718 862.00
50.237 850.00
50.3022 816.00
50.3674 807.00
50.4326 832.00
50.4978 800.00
50.563 748.00
50.6282 812.00
50.6934 830.00
50.7586 809.00
50.8238 774.00
50.889 847.00
50.9542 871.00
51.0194 840.00
51.0846 780.00
51.1498 836.00
51.215 832.00
51.2802 891.00
51.3454 818.00
51.4106 808.00
51.4758 819.00
51.541 828.00
51.6062 814.00
51.6714 798.00
51.7366 785.00
51.8018 883.00
51.867 832.00
51.9322 913.00
51.9974 825.00
52.0626 825.00
52.1278 894.00
52.193 901.00
52.2582 886.00
52.3233 867.00
52.3886 835.00
52.4537 805.00
52.5189 867.00
52.5841 818.00
52.6493 839.00
52.7145 843.00
52.7797 861.00
52.8449 861.00
52.9101 863.00
52.9753 856.00
53.0405 868.00
53.1057 919.00
53.1709 978.00
53.2361 909.00
53.3013 977.00
53.3665 909.00
53.4317 944.00
53.4969 936.00
53.5621 933.00
53.6273 893.00
53.6925 923.00
53.7577 884.00
53.8229 923.00
53.8881 898.00
53.9533 838.00
54.0185 861.00
54.0837 872.00
54.1489 881.00
54.2141 739.00
54.2793 781.00
54.3445 742.00
54.4097 744.00
54.4749 797.00
54.5401 756.00
54.6053 774.00
54.6705 818.00
54.7357 814.00
54.8009 840.00
54.8661 944.00
54.9313 1207.00
54.9965 1216.00
55.0617 1280.00
55.1269 1077.00
55.1921 958.00
55.2573 869.00
55.3225 817.00
55.3877 767.00
55.4529 759.00
55.5181 785.00
55.5833 783.00
55.6485 779.00
55.7137 773.00
55.7789 749.00
55.8441 786.00
55.9093 761.00
55.9745 804.00
56.0397 841.00
56.1049 735.00
56.1701 799.00
56.2353 762.00
56.3005 767.00
56.3657 728.00
56.4309 760.00
56.4961 762.00
56.5613 749.00
56.6265 768.00
56.6917 756.00
56.7569 790.00
56.8221 747.00
56.8873 784.00
56.9525 780.00
57.0177 751.00
57.0829 785.00
57.148 743.00
57.2132 774.00
57.2784 782.00
57.3436 781.00
57.4088 799.00
57.474 859.00
57.5392 793.00
57.6044 824.00
57.6696 842.00
57.7348 808.00
57.8 780.00
57.8652 865.00
57.9304 911.00
57.9956 961.00
58.0608 1015.00
58.126 1067.00
58.1912 1141.00
58.2564 1454.00
58.3216 1568.00
58.3868 1318.00
58.452 1261.00
58.5172 1114.00
58.5824 1004.00
58.6476 1121.00
58.7128 1367.00
58.778 1218.00
58.8432 1199.00
58.9084 1072.00
58.9736 915.00
59.0388 852.00
59.104 758.00
59.1692 768.00
59.2344 727.00
59.2996 717.00
59.3648 732.00
59.43 759.00
59.4952 755.00
59.5604 731.00
59.6256 750.00
59.6908 864.00
59.756 837.00
59.8212 841.00
59.8864 866.00
59.9516 825.00
60.0168 731.00
60.082 731.00
60.1472 724.00
60.2124 719.00
60.2776 659.00
60.3428 777.00
60.408 754.00
60.4732 723.00
60.5384 740.00
60.6036 793.00
60.6688 742.00
60.734 791.00
60.7992 697.00
60.8644 749.00
60.9296 800.00
60.9948 793.00
61.06 845.00
61.1252 839.00
61.1904 891.00
61.2556 994.00
61.3208 994.00
61.386 1080.00
61.4512 1142.00
61.5164 1207.00
61.5816 1191.00
61.6468 1118.00
61.712 1054.00
61.7772 902.00
61.8424 837.00
61.9076 783.00
61.9727 841.00
62.0379 781.00
62.1031 796.00
62.1683 759.00
62.2335 741.00
62.2987 773.00
62.3639 780.00
62.4291 726.00
62.4943 706.00
62.5595 745.00
62.6247 721.00
62.6899 709.00
62.7551 690.00
62.8203 686.00
62.8855 743.00
62.9507 732.00
63.0159 722.00
63.0811 724.00
63.1463 742.00
63.2115 735.00
63.2767 776.00
63.3419 706.00
63.4071 754.00
63.4723 783.00
63.5375 786.00
63.6027 717.00
63.6679 785.00
63.7331 809.00
63.7983 892.00
63.8635 1222.00
63.9287 1126.00
63.9939 1044.00
64.0591 1051.00
64.1243 915.00
64.1895 804.00
64.2547 772.00
64.3199 794.00
64.3851 748.00
64.4503 797.00
64.5155 779.00
64.5807 732.00
64.6459 746.00
64.7111 798.00
64.7763 789.00
64.8415 743.00
64.9067 744.00
64.9719 763.00
65.0371 748.00
65.1023 789.00
65.1675 782.00
65.2327 772.00
65.2979 828.00
65.3631 828.00
65.4283 870.00
65.4935 848.00
65.5587 872.00
65.6239 924.00
65.6891 983.00
65.7543 943.00
65.8195 1028.00
65.8847 1039.00
65.9499 951.00
66.0151 1012.00
66.0803 1034.00
66.1455 1112.00
66.2107 1112.00
66.2759 1082.00
66.3411 1073.00
66.4063 1016.00
66.4715 995.00
66.5367 933.00
66.6019 885.00
66.6671 824.00
66.7322 780.00
66.7974 766.00
66.8626 814.00
66.9278 776.00
66.993 804.00
67.0582 780.00
67.1234 826.00
67.1886 747.00
67.2538 804.00
67.319 766.00
67.3842 762.00
67.4494 800.00
67.5146 822.00
67.5798 891.00
67.645 877.00
67.7102 883.00
67.7754 987.00
67.8406 1065.00
67.9058 1050.00
67.971 1034.00
68.0362 1077.00
68.1014 1040.00
68.1666 1017.00
68.2318 977.00
68.297 883.00
68.3622 862.00
68.4274 821.00
68.4926 831.00
68.5578 763.00
68.623 751.00
68.6882 647.00
68.7534 782.00
68.8186 711.00
68.8838 721.00
68.949 682.00
69.0142 728.00
69.0794 709.00
69.1446 726.00
69.2098 727.00
69.275 701.00
69.3402 709.00
69.4054 730.00
69.4706 734.00
69.5358 951.00
69.601 1137.00
69.6662 1132.00
69.7314 897.00
69.7966 916.00
69.8618 906.00
69.927 815.00
69.9922 753.00
70.0574 693.00
70.1226 645.00
70.1878 666.00
70.253 648.00
70.3182 683.00
70.3834 703.00
70.4486 648.00
70.5138 669.00
70.579 678.00
70.6442 640.00
70.7094 669.00
70.7746 686.00
70.8398 656.00
70.905 692.00
70.9702 650.00
71.0354 640.00
71.1006 690.00
71.1658 682.00
71.231 664.00
71.2962 683.00
71.3614 729.00
71.4266 772.00
71.4918 874.00
71.5569 751.00
71.6221 804.00
71.6873 844.00
71.7525 752.00
71.8177 734.00
71.8829 700.00
71.9481 740.00
72.0133 706.00
72.0785 762.00
72.1437 714.00
72.2089 764.00
72.2741 834.00
72.3393 713.00
72.4045 838.00
72.4697 777.00
72.5349 750.00
72.6001 796.00
72.6653 738.00
72.7305 737.00
72.7957 735.00
72.8609 697.00
72.9261 710.00
72.9913 713.00
73.0565 656.00
73.1217 681.00
73.1869 670.00
73.2521 692.00
73.3173 687.00
73.3825 643.00
73.4477 691.00
73.5129 715.00
73.5781 656.00
73.6433 710.00
73.7085 681.00
73.7737 669.00
73.8389 661.00
73.9041 689.00
73.9693 680.00
74.0345 668.00
74.0997 729.00
74.1649 723.00
74.2301 742.00
74.2953 800.00
74.3605 1120.00
74.4257 1029.00
74.4909 861.00
74.5561 929.00
74.6213 943.00
74.6865 831.00
74.7517 824.00
74.8169 794.00
74.8821 828.00
74.9473 882.00
75.0125 804.00
75.0777 819.00
75.1429 813.00
75.2081 814.00
75.2733 774.00
75.3385 792.00
75.4037 795.00
75.4689 712.00
75.5341 720.00
75.5993 718.00
75.6645 722.00
75.7297 703.00
75.7949 694.00
75.8601 681.00
75.9253 647.00
75.9905 671.00
76.0557 695.00
76.1209 637.00
76.186 679.00
76.2513 734.00
76.3165 602.00
76.3816 667.00
76.4468 660.00
76.512 735.00
76.5772 741.00
76.6424 756.00
76.7076 643.00
76.7728 708.00
76.838 745.00
76.9032 657.00
76.9684 641.00
77.0336 610.00
77.0988 635.00
77.164 654.00
77.2292 645.00
77.2944 671.00
77.3596 609.00
77.4248 621.00
77.49 665.00
77.5552 650.00
77.6204 664.00
77.6856 633.00
77.7508 659.00
77.816 658.00
77.8812 646.00
77.9464 644.00
78.0116 635.00
78.0768 684.00
78.142 665.00
78.2072 624.00
78.2724 625.00
78.3376 629.00
78.4028 664.00
78.468 657.00
78.5332 628.00
78.5984 673.00
78.6636 671.00
78.7288 647.00
78.794 628.00
78.8592 639.00
78.9244 656.00
78.9896 646.00
79.0548 656.00
79.12 653.00
79.1852 648.00
79.2504 731.00
79.3156 798.00
79.3808 990.00
79.446 953.00
79.5112 786.00
79.5764 801.00
79.6416 902.00
79.7068 911.00
79.772 1080.00
79.8372 917.00
79.9024 731.00
79.9676 796.00
80.0328 898.00
80.098 808.00
80.1632 746.00
80.2284 676.00
80.2936 734.00
80.3588 637.00
80.424 666.00
80.4892 715.00
80.5544 673.00
80.6196 665.00
80.6848 656.00
80.75 626.00
80.8152 664.00
80.8804 692.00
80.9456 678.00
81.0108 645.00
81.076 686.00
81.1412 654.00
81.2063 690.00
81.2715 622.00
81.3367 650.00
81.4019 704.00
81.4671 720.00
81.5323 837.00
81.5975 883.00
81.6627 729.00
81.7279 682.00
81.7931 714.00
81.8583 763.00
81.9235 741.00
81.9887 661.00
82.0539 716.00
82.1191 664.00
82.1843 706.00
82.2495 780.00
82.3147 776.00
82.3799 734.00
82.4451 774.00
82.5103 761.00
82.5755 713.00
82.6407 740.00
82.7059 746.00
82.7711 675.00
82.8363 727.00
82.9015 744.00
82.9667 725.00
83.0319 752.00
83.0971 718.00
83.1623 683.00
83.2275 708.00
83.2927 710.00
83.3579 711.00
83.4231 699.00
83.4883 659.00
83.5535 707.00
83.6187 762.00
83.6839 676.00
83.7491 761.00
83.8143 692.00
83.8795 641.00
83.9447 632.00
84.0099 628.00
84.0751 627.00
84.1403 662.00
84.2055 634.00
84.2707 708.00
84.3359 626.00
84.4011 628.00
84.4663 633.00
84.5315 635.00
84.5967 637.00
84.6619 645.00
84.7271 625.00
84.7923 652.00
84.8575 641.00
84.9227 644.00
84.9879 646.00
85.0531 650.00
85.1183 608.00
85.1835 618.00
85.2487 642.00
85.3139 672.00
85.3791 736.00
85.4443 717.00
85.5095 619.00
85.5747 649.00
85.6399 730.00
85.7051 666.00
85.7703 671.00
85.8354 585.00
85.9006 652.00
85.9659 609.00
86.031 607.00
86.0962 643.00
86.1614 625.00
86.2266 622.00
86.2918 644.00
86.357 674.00
86.4222 645.00
86.4874 635.00
86.5526 660.00
86.6178 621.00
86.683 682.00
86.7482 687.00
86.8134 641.00
86.8786 652.00
86.9438 647.00
87.009 589.00
87.0742 639.00
87.1394 624.00
87.2046 630.00
87.2698 639.00
87.335 657.00
87.4002 642.00
87.4654 610.00
87.5306 649.00
87.5958 592.00
87.661 647.00
87.7262 611.00
87.7914 655.00
87.8566 594.00
87.9218 634.00
87.987 592.00
88.0522 583.00
88.1174 626.00
88.1826 661.00
88.2478 632.00
88.313 640.00
88.3782 625.00
88.4434 635.00
88.5086 632.00
88.5738 602.00
88.639 586.00
88.7042 607.00
88.7694 591.00
88.8346 661.00
88.8998 578.00
88.965 610.00
89.0302 648.00
89.0954 652.00
89.1606 575.00
89.2258 697.00
89.291 643.00
89.3562 662.00
89.4214 642.00
89.4866 640.00
89.5518 645.00
89.617 644.00
89.6822 664.00
89.7474 663.00
89.8126 648.00
89.8778 668.00
89.943 625.00
90.0082 604.00
90.0734 631.00
90.1386 649.00
90.2038 631.00
90.269 616.00
90.3342 606.00
90.3994 658.00
90.4646 606.00
90.5298 652.00
90.595 629.00
90.6601 632.00
90.7253 607.00
90.7905 622.00
90.8557 599.00
90.9209 590.00
90.9861 593.00
91.0513 593.00
91.1165 597.00
91.1817 575.00
91.2469 652.00
91.3121 609.00
91.3773 603.00
91.4425 620.00
91.5077 597.00
91.5729 611.00
91.6381 591.00
91.7033 597.00
91.7685 621.00
91.8337 622.00
91.8989 645.00
91.9641 596.00
92.0293 620.00
92.0945 597.00
92.1597 612.00
92.2249 618.00
92.2901 612.00
92.3553 577.00
92.4205 646.00
92.4857 561.00
92.5509 562.00
92.6161 607.00
92.6813 638.00
92.7465 576.00
92.8117 560.00
92.8769 570.00
92.9421 588.00
93.0073 560.00
93.0725 534.00
93.1377 607.00
93.2029 650.00
93.2681 601.00
93.3333 633.00
93.3985 558.00
93.4637 582.00
93.5289 584.00
93.5941 610.00
93.6593 625.00
93.7245 578.00
93.7897 594.00
93.8549 593.00
93.9201 621.00
93.9853 596.00
94.0505 636.00
94.1157 641.00
94.1809 589.00
94.2461 622.00
94.3113 583.00
94.3765 604.00
94.4417 612.00
94.5069 664.00
94.5721 584.00
94.6373 567.00
94.7025 563.00
94.7677 589.00
94.8329 600.00
94.8981 614.00
94.9633 549.00
95.0285 599.00
95.0937 649.00
95.1589 700.00
95.2241 746.00
95.2893 670.00
95.3545 627.00
95.4197 667.00
95.4848 652.00
95.55 683.00
95.6153 636.00
95.6804 618.00
95.7456 558.00
95.8108 647.00
95.876 610.00
95.9412 583.00
96.0064 587.00
96.0716 574.00
96.1368 594.00
96.202 642.00
96.2672 692.00
96.3324 649.00
96.3976 630.00
96.4628 608.00
96.528 579.00
96.5932 603.00
96.6584 642.00
96.7236 607.00
96.7888 601.00
96.854 595.00
96.9192 583.00
96.9844 621.00
97.0496 607.00
97.1148 592.00
97.18 629.00
97.2452 582.00
97.3104 548.00
97.3756 583.00
97.4408 555.00
97.506 572.00
97.5712 599.00
97.6364 584.00
97.7016 594.00
97.7668 534.00
97.832 611.00
97.8972 583.00
97.9624 558.00
98.0276 572.00
98.0928 586.00
98.158 636.00
98.2232 602.00
98.2884 565.00
98.3536 609.00
98.4188 611.00
98.484 555.00
98.5492 597.00
98.6144 654.00
98.6796 594.00
98.7448 606.00
98.81 606.00
98.8752 584.00
98.9404 635.00
99.0056 646.00
99.0708 620.00
99.136 698.00
99.2012 684.00
99.2664 655.00
99.3316 648.00
99.3968 743.00
99.462 849.00
99.5272 811.00
99.5924 702.00
99.6576 639.00
99.7228 703.00
99.788 710.00
99.8532 693.00
99.9184 684.00
99.9836 636.00
99.9944 597.00