File: data/xrd_creation/results/PG_1947-1.xy
9.903433 2624.00
9.968632 2717.00
10.0338 2536.00
10.099 2504.00
10.1642 2492.00
10.2294 2507.00
10.2946 2452.00
10.3598 2517.00
10.425 2424.00
10.4902 2329.00
10.5554 2389.00
10.6206 2363.00
10.6858 2409.00
10.751 2354.00
10.8162 2334.00
10.8814 2286.00
10.9466 2350.00
11.0118 2281.00
11.077 2170.00
11.1422 2236.00
11.2074 2130.00
11.2726 2098.00
11.3378 2097.00
11.403 2184.00
11.4682 2092.00
11.5334 2095.00
11.5986 2049.00
11.6638 1983.00
11.729 2106.00
11.7942 2029.00
11.8594 2020.00
11.9246 1998.00
11.9898 1968.00
12.055 1927.00
12.1202 1969.00
12.1854 1962.00
12.2506 1923.00
12.3158 1882.00
12.381 1887.00
12.4462 1932.00
12.5114 1863.00
12.5766 1819.00
12.6418 1836.00
12.707 1722.00
12.7722 1810.00
12.8374 1853.00
12.9026 1751.00
12.9678 1744.00
13.033 1772.00
13.0982 1761.00
13.1634 1679.00
13.2286 1698.00
13.2938 1662.00
13.359 1687.00
13.4242 1734.00
13.4894 1524.00
13.5546 1589.00
13.6198 1668.00
13.685 1635.00
13.7502 1594.00
13.8154 1549.00
13.8805 1584.00
13.9457 1567.00
14.0109 1627.00
14.0761 1598.00
14.1413 1589.00
14.2065 1578.00
14.2717 1573.00
14.3369 1552.00
14.4021 1565.00
14.4673 1549.00
14.5325 1572.00
14.5977 1595.00
14.6629 1554.00
14.7281 1545.00
14.7933 1511.00
14.8585 1512.00
14.9237 1458.00
14.9889 1496.00
15.0541 1465.00
15.1193 1439.00
15.1845 1536.00
15.2497 1523.00
15.3149 1470.00
15.3801 1452.00
15.4453 1475.00
15.5105 1433.00
15.5757 1433.00
15.6409 1442.00
15.7061 1431.00
15.7713 1426.00
15.8365 1459.00
15.9017 1407.00
15.9669 1438.00
16.0321 1463.00
16.0973 1435.00
16.1625 1390.00
16.2277 1397.00
16.2929 1457.00
16.3581 1436.00
16.4233 1456.00
16.4885 1485.00
16.5537 1552.00
16.6189 1630.00
16.6841 1761.00
16.7493 1808.00
16.8145 1482.00
16.8797 1438.00
16.9449 1551.00
17.0101 1539.00
17.0753 1648.00
17.1405 1706.00
17.2057 1876.00
17.2709 1787.00
17.3361 2055.00
17.4013 2565.00
17.4665 2112.00
17.5317 1492.00
17.5969 1323.00
17.6621 1236.00
17.7273 1250.00
17.7925 1245.00
17.8577 1229.00
17.9229 1272.00
17.9881 1212.00
18.0533 1275.00
18.1185 1205.00
18.1837 1188.00
18.2489 1241.00
18.3141 1212.00
18.3793 1201.00
18.4445 1190.00
18.5097 1191.00
18.5749 1204.00
18.6401 1169.00
18.7052 1144.00
18.7704 1156.00
18.8356 1125.00
18.9008 1117.00
18.966 1171.00
19.0312 1182.00
19.0964 1127.00
19.1616 1083.00
19.2268 1116.00
19.292 1123.00
19.3572 1078.00
19.4224 1103.00
19.4876 1104.00
19.5528 1058.00
19.618 1057.00
19.6832 1131.00
19.7484 1121.00
19.8136 1042.00
19.8788 1112.00
19.944 1019.00
20.0092 1075.00
20.0744 1062.00
20.1396 1044.00
20.2048 1052.00
20.27 1085.00
20.3352 1010.00
20.4004 1065.00
20.4656 1073.00
20.5308 1055.00
20.596 994.00
20.6612 996.00
20.7264 1054.00
20.7916 949.00
20.8568 1038.00
20.922 1003.00
20.9872 979.00
21.0524 1004.00
21.1176 946.00
21.1828 1017.00
21.248 1012.00
21.3132 970.00
21.3784 958.00
21.4436 959.00
21.5088 979.00
21.574 998.00
21.6392 936.00
21.7044 956.00
21.7696 1035.00
21.8348 993.00
21.9 938.00
21.9652 959.00
22.0304 990.00
22.0956 1034.00
22.1608 906.00
22.226 955.00
22.2912 932.00
22.3564 967.00
22.4216 1054.00
22.4868 975.00
22.552 1031.00
22.6172 1097.00
22.6824 1140.00
22.7476 1264.00
22.8128 1250.00
22.878 1500.00
22.9432 1828.00
23.0084 2244.00
23.0736 1406.00
23.1388 1021.00
23.204 953.00
23.2692 915.00
23.3344 939.00
23.3996 915.00
23.4647 900.00
23.5299 924.00
23.5951 973.00
23.6603 999.00
23.7255 1028.00
23.7907 1147.00
23.8559 1115.00
23.9211 1268.00
23.9863 1538.00
24.0515 2211.00
24.1167 2380.00
24.1819 1479.00
24.2471 955.00
24.3123 963.00
24.3775 1008.00
24.4427 991.00
24.5079 1156.00
24.5731 1178.00
24.6383 1057.00
24.7035 1012.00
24.7687 1029.00
24.8339 1111.00
24.8991 1284.00
24.9643 1366.00
25.0295 1111.00
25.0947 895.00
25.1599 796.00
25.2251 845.00
25.2903 818.00
25.3555 800.00
25.4207 849.00
25.4859 801.00
25.5511 779.00
25.6163 819.00
25.6815 765.00
25.7467 780.00
25.8119 836.00
25.8771 841.00
25.9423 788.00
26.0075 838.00
26.0727 761.00
26.1379 801.00
26.2031 735.00
26.2683 790.00
26.3335 726.00
26.3987 777.00
26.4639 765.00
26.5291 811.00
26.5943 826.00
26.6595 781.00
26.7247 771.00
26.7899 711.00
26.8551 717.00
26.9203 720.00
26.9855 720.00
27.0507 729.00
27.1159 728.00
27.1811 708.00
27.2463 686.00
27.3115 761.00
27.3767 741.00
27.4419 684.00
27.5071 741.00
27.5723 719.00
27.6375 678.00
27.7027 726.00
27.7679 737.00
27.8331 775.00
27.8983 784.00
27.9635 806.00
28.0287 833.00
28.0939 843.00
28.1591 891.00
28.2243 939.00
28.2894 1110.00
28.3546 1384.00
28.4198 1732.00
28.485 2253.00
28.5502 2616.00
28.6154 2979.00
28.6806 3681.00
28.7458 5896.00
28.811 10142.00
28.8762 11414.00
28.9414 5995.00
29.0066 2055.00
29.0718 1261.00
29.137 1089.00
29.2022 937.00
29.2674 785.00
29.3326 795.00
29.3978 783.00
29.463 709.00
29.5282 717.00
29.5934 712.00
29.6586 770.00
29.7238 698.00
29.789 732.00
29.8542 679.00
29.9194 737.00
29.9846 760.00
30.0498 733.00
30.115 706.00
30.1802 698.00
30.2454 825.00
30.3106 899.00
30.3758 983.00
30.441 829.00
30.5062 740.00
30.5714 676.00
30.6366 707.00
30.7018 683.00
30.767 638.00
30.8322 634.00
30.8974 666.00
30.9626 728.00
31.0278 741.00
31.093 726.00
31.1582 784.00
31.2234 846.00
31.2886 1009.00
31.3538 1264.00
31.419 1425.00
31.4842 1637.00
31.5494 1888.00
31.6146 2724.00
31.6798 4594.00
31.745 4643.00
31.8102 2735.00
31.8754 1062.00
31.9406 873.00
32.0058 852.00
32.071 840.00
32.1362 787.00
32.2014 653.00
32.2666 704.00
32.3318 632.00
32.397 654.00
32.4622 603.00
32.5274 575.00
32.5926 603.00
32.6578 635.00
32.723 635.00
32.7882 617.00
32.8534 614.00
32.9186 609.00
32.9838 599.00
33.0489 624.00
33.1141 670.00
33.1793 748.00
33.2445 800.00
33.3097 933.00
33.3749 999.00
33.4401 1413.00
33.5053 1294.00
33.5705 969.00
33.6357 683.00
33.7009 611.00
33.7661 586.00
33.8313 615.00
33.8965 675.00
33.9617 677.00
34.0269 693.00
34.0921 723.00
34.1573 833.00
34.2225 957.00
34.2877 1072.00
34.3529 1521.00
34.4181 2363.00
34.4833 2371.00
34.5485 1638.00
34.6137 1061.00
34.6789 1038.00
34.7441 1168.00
34.8093 1544.00
34.8745 2342.00
34.9397 2185.00
35.0049 1476.00
35.0701 780.00
35.1353 655.00
35.2005 612.00
35.2657 600.00
35.3309 647.00
35.3961 620.00
35.4613 643.00
35.5265 625.00
35.5917 539.00
35.6569 515.00
35.7221 545.00
35.7873 528.00
35.8525 610.00
35.9177 730.00
35.9829 644.00
36.0481 623.00
36.1133 558.00
36.1785 531.00
36.2437 552.00
36.3089 570.00
36.3741 588.00
36.4393 601.00
36.5045 615.00
36.5697 642.00
36.6349 587.00
36.7001 563.00
36.7653 680.00
36.8305 730.00
36.8957 804.00
36.9609 1065.00
37.0261 1404.00
37.0913 2344.00
37.1565 2056.00
37.2217 1668.00
37.2869 888.00
37.3521 743.00
37.4173 624.00
37.4825 635.00
37.5477 591.00
37.6129 599.00
37.6781 660.00
37.7433 817.00
37.8085 1143.00
37.8736 988.00
37.9388 871.00
38.004 604.00
38.0692 641.00
38.1344 586.00
38.1996 552.00
38.2648 498.00
38.33 527.00
38.3952 491.00
38.4604 514.00
38.5256 518.00
38.5908 482.00
38.656 514.00
38.7212 594.00
38.7864 626.00
38.8516 624.00
38.9168 584.00
38.982 630.00
39.0472 609.00
39.1124 657.00
39.1776 733.00
39.2428 948.00
39.308 1446.00
39.3732 1749.00
39.4384 1328.00
39.5036 1148.00
39.5688 795.00
39.634 632.00
39.6992 548.00
39.7644 471.00
39.8296 511.00
39.8948 469.00
39.96 499.00
40.0252 450.00
40.0904 502.00
40.1556 433.00
40.2208 423.00
40.286 456.00
40.3512 443.00
40.4164 435.00
40.4816 494.00
40.5468 489.00
40.612 478.00
40.6772 530.00
40.7424 471.00
40.8076 470.00
40.8728 517.00
40.938 532.00
41.0032 541.00
41.0684 485.00
41.1336 513.00
41.1988 551.00
41.264 528.00
41.3292 510.00
41.3944 469.00
41.4596 450.00
41.5248 507.00
41.59 464.00
41.6552 479.00
41.7204 433.00
41.7856 434.00
41.8508 391.00
41.916 432.00
41.9812 486.00
42.0464 479.00
42.1116 490.00
42.1768 519.00
42.242 445.00
42.3072 444.00
42.3724 468.00
42.4376 455.00
42.5028 408.00
42.568 437.00
42.6332 426.00
42.6983 385.00
42.7635 476.00
42.8287 421.00
42.8939 403.00
42.9591 456.00
43.0243 466.00
43.0895 459.00
43.1547 505.00
43.2199 617.00
43.2851 696.00
43.3503 569.00
43.4155 571.00
43.4807 503.00
43.5459 437.00
43.6111 445.00
43.6763 457.00
43.7415 400.00
43.8067 397.00
43.8719 417.00
43.9371 380.00
44.0023 389.00
44.0675 374.00
44.1327 429.00
44.1979 448.00
44.2631 451.00
44.3283 522.00
44.3935 705.00
44.4587 703.00
44.5239 599.00
44.5891 506.00
44.6543 445.00
44.7195 455.00
44.7847 462.00
44.8499 440.00
44.9151 427.00
44.9803 420.00
45.0455 401.00
45.1107 429.00
45.1759 451.00
45.2411 406.00
45.3063 399.00
45.3715 439.00
45.4367 422.00
45.5019 473.00
45.5671 496.00
45.6323 497.00
45.6975 601.00
45.7627 756.00
45.8279 553.00
45.8931 568.00
45.9583 463.00
46.0235 414.00
46.0887 428.00
46.1539 467.00
46.2191 462.00
46.2843 500.00
46.3495 627.00
46.4147 685.00
46.4799 854.00
46.5451 1428.00
46.6103 2025.00
46.6755 1293.00
46.7407 1228.00
46.8059 626.00
46.8711 417.00
46.9363 416.00
47.0015 441.00
47.0667 425.00
47.1319 433.00
47.1971 417.00
47.2623 439.00
47.3275 454.00
47.3927 499.00
47.4579 517.00
47.523 533.00
47.5882 706.00
47.6534 963.00
47.7186 1269.00
47.7838 923.00
47.849 795.00
47.9142 557.00
47.9794 473.00
48.0446 413.00
48.1098 396.00
48.175 427.00
48.2402 439.00
48.3054 444.00
48.3706 496.00
48.4358 649.00
48.501 757.00
48.5662 666.00
48.6314 728.00
48.6966 586.00
48.7618 545.00
48.827 508.00
48.8922 608.00
48.9574 719.00
49.0226 599.00
49.0878 562.00
49.153 452.00
49.2182 421.00
49.2834 417.00
49.3486 406.00
49.4138 358.00
49.479 413.00
49.5442 398.00
49.6094 402.00
49.6746 402.00
49.7398 408.00
49.805 411.00
49.8702 471.00
49.9354 419.00
50.0006 464.00
50.0658 429.00
50.131 462.00
50.1962 428.00
50.2614 412.00
50.3266 372.00
50.3918 371.00
50.457 377.00
50.5222 409.00
50.5874 363.00
50.6526 339.00
50.7178 399.00
50.783 396.00
50.8482 446.00
50.9134 413.00
50.9786 443.00
51.0438 446.00
51.109 460.00
51.1742 482.00
51.2394 529.00
51.3046 473.00
51.3698 465.00
51.435 491.00
51.5002 521.00
51.5654 542.00
51.6306 776.00
51.6958 1032.00
51.761 746.00
51.8262 717.00
51.8914 510.00
51.9566 426.00
52.0218 407.00
52.087 398.00
52.1522 410.00
52.2174 415.00
52.2826 446.00
52.3477 427.00
52.4129 454.00
52.4781 399.00
52.5433 410.00
52.6085 410.00
52.6737 402.00
52.7389 429.00
52.8041 426.00
52.8693 388.00
52.9345 375.00
52.9997 370.00
53.0649 362.00
53.1301 373.00
53.1953 430.00
53.2605 492.00
53.3257 446.00
53.3909 418.00
53.4561 426.00
53.5213 426.00
53.5865 423.00
53.6517 423.00
53.7169 454.00
53.7821 437.00
53.8473 438.00
53.9125 490.00
53.9777 571.00
54.0429 632.00
54.1081 991.00
54.1733 1163.00
54.2385 982.00
54.3037 1065.00
54.3689 1321.00
54.4341 1718.00
54.4993 1255.00
54.5645 1131.00
54.6297 861.00
54.6949 535.00
54.7601 451.00
54.8253 413.00
54.8905 369.00
54.9557 340.00
55.0209 382.00
55.0861 360.00
55.1513 364.00
55.2165 347.00
55.2817 345.00
55.3469 348.00
55.4121 371.00
55.4773 380.00
55.5425 411.00
55.6077 434.00
55.6729 401.00
55.7381 460.00
55.8033 412.00
55.8685 393.00
55.9337 415.00
55.9989 429.00
56.0641 430.00
56.1293 493.00
56.1945 409.00
56.2597 439.00
56.3249 426.00
56.3901 431.00
56.4553 483.00
56.5205 565.00
56.5857 582.00
56.6509 522.00
56.7161 580.00
56.7813 495.00
56.8465 453.00
56.9117 383.00
56.9769 368.00
57.042 281.00
57.1073 342.00
57.1724 330.00
57.2376 353.00
57.3028 345.00
57.368 353.00
57.4332 342.00
57.4984 346.00
57.5636 389.00
57.6288 377.00
57.694 392.00
57.7592 485.00
57.8244 489.00
57.8896 553.00
57.9548 610.00
58.02 525.00
58.0852 546.00
58.1504 592.00
58.2156 479.00
58.2808 473.00
58.346 501.00
58.4112 505.00
58.4764 620.00
58.5416 793.00
58.6068 1098.00
58.672 894.00
58.7372 786.00
58.8024 759.00
58.8676 506.00
58.9328 453.00
58.998 476.00
59.0632 401.00
59.1284 453.00
59.1936 526.00
59.2588 574.00
59.324 805.00
59.3892 778.00
59.4544 608.00
59.5196 672.00
59.5848 549.00
59.65 559.00
59.7152 608.00
59.7804 736.00
59.8456 492.00
59.9108 523.00
59.976 458.00
60.0412 401.00
60.1064 372.00
60.1716 330.00
60.2368 363.00
60.302 367.00
60.3672 286.00
60.4324 300.00
60.4976 348.00
60.5628 318.00
60.628 336.00
60.6932 330.00
60.7584 347.00
60.8236 369.00
60.8888 387.00
60.954 433.00
61.0192 508.00
61.0844 606.00
61.1496 560.00
61.2148 539.00
61.28 540.00
61.3452 549.00
61.4104 483.00
61.4756 403.00
61.5408 436.00
61.606 376.00
61.6712 417.00
61.7364 427.00
61.8016 494.00
61.8667 463.00
61.932 569.00
61.9971 647.00
62.0623 498.00
62.1275 506.00
62.1927 478.00
62.2579 383.00
62.3231 330.00
62.3883 394.00
62.4535 348.00
62.5187 367.00
62.5839 396.00
62.6491 383.00
62.7143 400.00
62.7795 384.00
62.8447 391.00
62.9099 399.00
62.9751 403.00
63.0403 469.00
63.1055 502.00
63.1707 491.00
63.2359 433.00
63.3011 487.00
63.3663 416.00
63.4315 410.00
63.4967 361.00
63.5619 399.00
63.6271 448.00
63.6923 432.00
63.7575 514.00
63.8227 584.00
63.8879 850.00
63.9531 1381.00
64.0183 1136.00
64.0835 870.00
64.1487 1003.00
64.2139 635.00
64.2791 431.00
64.3443 417.00
64.4095 411.00
64.4747 361.00
64.5399 336.00
64.6051 324.00
64.6703 340.00
64.7355 328.00
64.8007 347.00
64.8659 349.00
64.9311 296.00
64.9963 343.00
65.0615 345.00
65.1267 330.00
65.1919 319.00
65.2571 368.00
65.3223 417.00
65.3875 410.00
65.4527 437.00
65.5179 435.00
65.5831 451.00
65.6483 506.00
65.7135 643.00
65.7787 817.00
65.8439 815.00
65.9091 535.00
65.9743 637.00
66.0395 506.00
66.1047 360.00
66.1699 350.00
66.2351 355.00
66.3003 397.00
66.3655 339.00
66.4307 430.00
66.4959 493.00
66.561 500.00
66.6263 448.00
66.6915 432.00
66.7566 393.00
66.8218 349.00
66.887 329.00
66.9522 287.00
67.0174 330.00
67.0826 302.00
67.1478 328.00
67.213 291.00
67.2782 308.00
67.3434 299.00
67.4086 281.00
67.4738 322.00
67.539 322.00
67.6042 325.00
67.6694 325.00
67.7346 330.00
67.7998 328.00
67.865 304.00
67.9302 284.00
67.9954 306.00
68.0606 309.00
68.1258 364.00
68.191 333.00
68.2562 328.00
68.3214 333.00
68.3866 366.00
68.4518 403.00
68.517 418.00
68.5822 397.00
68.6474 360.00
68.7126 410.00
68.7778 391.00
68.843 433.00
68.9082 479.00
68.9734 445.00
69.0386 401.00
69.1038 377.00
69.169 387.00
69.2342 345.00
69.2994 290.00
69.3646 333.00
69.4298 320.00
69.495 317.00
69.5602 303.00
69.6254 302.00
69.6906 293.00
69.7558 344.00
69.821 359.00
69.8862 364.00
69.9514 370.00
70.0166 345.00
70.0818 371.00
70.147 323.00
70.2122 271.00
70.2774 341.00
70.3426 286.00
70.4078 315.00
70.473 321.00
70.5382 343.00
70.6034 334.00
70.6686 338.00
70.7338 339.00
70.799 353.00
70.8642 412.00
70.9294 489.00
70.9946 501.00
71.0598 496.00
71.125 416.00
71.1902 423.00
71.2554 446.00
71.3205 356.00
71.3858 344.00
71.451 349.00
71.5162 347.00
71.5813 325.00
71.6465 338.00
71.7117 373.00
71.7769 375.00
71.8421 402.00
71.9073 472.00
71.9725 539.00
72.0377 788.00
72.1029 817.00
72.1681 657.00
72.2333 610.00
72.2985 636.00
72.3637 503.00
72.4289 392.00
72.4941 392.00
72.5593 346.00
72.6245 310.00
72.6897 306.00
72.7549 294.00
72.8201 300.00
72.8853 311.00
72.9505 284.00
73.0157 299.00
73.0809 355.00
73.1461 358.00
73.2113 341.00
73.2765 315.00
73.3417 300.00
73.4069 339.00
73.4721 355.00
73.5373 326.00
73.6025 307.00
73.6677 323.00
73.7329 316.00
73.7981 358.00
73.8633 312.00
73.9285 307.00
73.9937 319.00
74.0589 326.00
74.1241 311.00
74.1893 288.00
74.2545 294.00
74.3197 267.00
74.3849 302.00
74.4501 274.00
74.5153 292.00
74.5805 286.00
74.6457 328.00
74.7109 331.00
74.7761 351.00
74.8413 304.00
74.9065 302.00
74.9717 361.00
75.0369 352.00
75.1021 336.00
75.1673 337.00
75.2325 345.00
75.2977 318.00
75.3629 330.00
75.4281 306.00
75.4933 333.00
75.5585 356.00
75.6237 333.00
75.6889 381.00
75.7541 330.00
75.8193 317.00
75.8845 350.00
75.9497 357.00
76.0149 297.00
76.0801 307.00
76.1452 320.00
76.2104 338.00
76.2756 352.00
76.3409 393.00
76.406 434.00
76.4712 496.00
76.5364 540.00
76.6016 591.00
76.6668 538.00
76.732 555.00
76.7972 597.00
76.8624 611.00
76.9276 471.00
76.9928 407.00
77.058 442.00
77.1232 404.00
77.1884 344.00
77.2536 296.00
77.3188 298.00
77.384 322.00
77.4492 307.00
77.5144 310.00
77.5796 313.00
77.6448 310.00
77.71 308.00
77.7752 313.00
77.8404 360.00
77.9056 327.00
77.9708 313.00
78.036 294.00
78.1012 299.00
78.1664 296.00
78.2316 307.00
78.2968 314.00
78.362 318.00
78.4272 311.00
78.4924 310.00
78.5576 363.00
78.6228 405.00
78.688 363.00
78.7532 402.00
78.8184 337.00
78.8836 341.00
78.9488 312.00
79.014 335.00
79.0792 357.00
79.1444 297.00
79.2096 319.00
79.2748 291.00
79.34 303.00
79.4052 305.00
79.4704 278.00
79.5356 286.00
79.6008 287.00
79.666 314.00
79.7312 341.00
79.7964 393.00
79.8616 402.00
79.9268 398.00
79.992 403.00
80.0572 435.00
80.1224 362.00
80.1876 356.00
80.2528 324.00
80.318 293.00
80.3832 296.00
80.4484 261.00
80.5136 267.00
80.5788 293.00
80.644 308.00
80.7092 317.00
80.7744 314.00
80.8396 327.00
80.9048 366.00
80.9699 338.00
81.0351 350.00
81.1003 353.00
81.1655 385.00
81.2307 313.00
81.2959 316.00
81.3611 326.00
81.4263 335.00
81.4915 312.00
81.5567 293.00
81.6219 302.00
81.6871 355.00
81.7523 303.00
81.8175 359.00
81.8827 348.00
81.9479 325.00
82.0131 340.00
82.0783 319.00
82.1435 345.00
82.2087 358.00
82.2739 428.00
82.3391 452.00
82.4043 604.00
82.4695 659.00
82.5347 493.00
82.5999 455.00
82.6651 505.00
82.7303 448.00
82.7955 397.00
82.8607 335.00
82.9259 327.00
82.9911 319.00
83.0563 341.00
83.1215 283.00
83.1867 311.00
83.2519 275.00
83.3171 297.00
83.3823 296.00
83.4475 287.00
83.5127 273.00
83.5779 316.00
83.6431 318.00
83.7083 291.00
83.7735 311.00
83.8387 321.00
83.9039 370.00
83.9691 323.00
84.0343 348.00
84.0995 340.00
84.1647 368.00
84.2299 380.00
84.2951 380.00
84.3603 311.00
84.4255 320.00
84.4907 327.00
84.5559 362.00
84.6211 323.00
84.6863 332.00
84.7515 349.00
84.8167 366.00
84.8819 356.00
84.9471 355.00
85.0123 372.00
85.0775 412.00
85.1427 455.00
85.2079 355.00
85.2731 352.00
85.3383 367.00
85.4035 367.00
85.4687 300.00
85.5339 284.00
85.5991 295.00
85.6643 317.00
85.7295 299.00
85.7946 321.00
85.8598 306.00
85.925 303.00
85.9903 327.00
86.0554 319.00
86.1206 301.00
86.1858 315.00
86.251 332.00
86.3162 272.00
86.3814 294.00
86.4466 271.00
86.5118 302.00
86.577 264.00
86.6422 278.00
86.7074 285.00
86.7726 288.00
86.8378 292.00
86.903 271.00
86.9682 280.00
87.0334 285.00
87.0986 280.00
87.1638 265.00
87.229 287.00
87.2942 299.00
87.3594 297.00
87.4246 322.00
87.4898 302.00
87.555 296.00
87.6202 276.00
87.6854 295.00
87.7506 299.00
87.8158 305.00
87.881 294.00
87.9462 298.00
88.0114 337.00
88.0766 306.00
88.1418 310.00
88.207 279.00
88.2722 328.00
88.3374 311.00
88.4026 301.00
88.4678 278.00
88.533 306.00
88.5982 273.00
88.6634 290.00
88.7286 313.00
88.7938 337.00
88.859 328.00
88.9242 326.00
88.9894 344.00
89.0546 424.00
89.1198 445.00
89.185 481.00
89.2502 393.00
89.3154 364.00
89.3806 415.00
89.4458 387.00
89.511 328.00
89.5762 314.00
89.6414 323.00
89.7066 309.00
89.7718 299.00
89.837 377.00
89.9022 382.00
89.9674 426.00
90.0326 504.00
90.0978 429.00
90.163 497.00
90.2282 556.00
90.2934 498.00
90.3586 411.00
90.4238 399.00
90.489 391.00
90.5542 434.00
90.6193 350.00
90.6845 285.00
90.7497 276.00
90.8149 313.00
90.8801 268.00
90.9453 308.00
91.0105 295.00
91.0757 285.00
91.1409 297.00
91.2061 332.00
91.2713 301.00
91.3365 276.00
91.4017 305.00
91.4669 288.00
91.5321 317.00
91.5973 289.00
91.6625 342.00
91.7277 310.00
91.7929 286.00
91.8581 283.00
91.9233 331.00
91.9885 303.00
92.0537 300.00
92.1189 292.00
92.1841 279.00
92.2493 306.00
92.3145 316.00
92.3797 358.00
92.4449 356.00
92.5101 306.00
92.5753 315.00
92.6405 312.00
92.7057 325.00
92.7709 310.00
92.8361 285.00
92.9013 290.00
92.9665 325.00
93.0317 338.00
93.0969 287.00
93.1621 317.00
93.2273 319.00
93.2925 336.00
93.3577 313.00
93.4229 278.00
93.4881 332.00
93.5533 345.00
93.6185 292.00
93.6837 324.00
93.7489 359.00
93.8141 362.00
93.8793 309.00
93.9445 303.00
94.0097 290.00
94.0749 312.00
94.1401 283.00
94.2053 281.00
94.2705 257.00
94.3357 298.00
94.4009 315.00
94.4661 304.00
94.5313 333.00
94.5965 324.00
94.6617 357.00
94.7269 387.00
94.7921 312.00
94.8573 353.00
94.9225 298.00
94.9877 323.00
95.0529 334.00
95.1181 353.00
95.1833 316.00
95.2485 280.00
95.3137 291.00
95.3789 309.00
95.444 322.00
95.5092 299.00
95.5744 300.00
95.6396 291.00
95.7048 277.00
95.77 276.00
95.8352 296.00
95.9004 291.00
95.9656 287.00
96.0308 267.00
96.096 250.00
96.1612 278.00
96.2264 288.00
96.2916 291.00
96.3568 290.00
96.422 302.00
96.4872 273.00
96.5524 275.00
96.6176 280.00
96.6828 295.00
96.748 297.00
96.8132 279.00
96.8784 267.00
96.9436 231.00
97.0088 306.00
97.074 274.00
97.1392 260.00
97.2044 249.00
97.2696 283.00
97.3348 278.00
97.4 260.00
97.4652 272.00
97.5304 295.00
97.5956 335.00
97.6608 283.00
97.726 290.00
97.7912 287.00
97.8564 312.00
97.9216 302.00
97.9868 303.00
98.052 262.00
98.1172 295.00
98.1824 297.00
98.2476 268.00
98.3128 279.00
98.378 263.00
98.4432 291.00
98.5084 274.00
98.5736 307.00
98.6388 341.00
98.704 312.00
98.7692 346.00
98.8344 311.00
98.8996 322.00
98.9648 337.00
99.03 329.00
99.0952 317.00
99.1604 361.00
99.2256 357.00
99.2908 398.00
99.356 352.00
99.4212 309.00
99.4864 325.00
99.5516 302.00
99.6168 327.00
99.682 316.00
99.7472 293.00
99.8124 313.00
99.8776 286.00
99.9428 298.00
100.008 273.00
100.073 232.00
100.095 287.00