File: data/xrd_creation/results/PG_1017-1.xy
10.0094 2220.00
10.0746 2216.00
10.1398 2248.00
10.205 2343.00
10.2702 2152.00
10.3354 2114.00
10.4006 2173.00
10.4658 2157.00
10.531 2019.00
10.5962 2106.00
10.6614 2022.00
10.7266 2124.00
10.7918 1944.00
10.857 2072.00
10.9222 2036.00
10.9874 2035.00
11.0526 1915.00
11.1178 1925.00
11.183 1929.00
11.2482 1997.00
11.3134 1931.00
11.3786 1874.00
11.4438 1897.00
11.509 1900.00
11.5742 1755.00
11.6394 1841.00
11.7046 1824.00
11.7698 1802.00
11.835 1745.00
11.9002 1740.00
11.9654 1786.00
12.0306 1747.00
12.0958 1694.00
12.161 1711.00
12.2262 1782.00
12.2914 1761.00
12.3566 1731.00
12.4218 1609.00
12.487 1705.00
12.5522 1681.00
12.6174 1673.00
12.6826 1530.00
12.7478 1598.00
12.813 1456.00
12.8782 1589.00
12.9434 1546.00
13.0086 1537.00
13.0738 1503.00
13.139 1570.00
13.2042 1502.00
13.2694 1506.00
13.3346 1488.00
13.3998 1469.00
13.465 1457.00
13.5302 1440.00
13.5954 1486.00
13.6606 1455.00
13.7258 1458.00
13.791 1466.00
13.8562 1396.00
13.9214 1386.00
13.9865 1368.00
14.0517 1443.00
14.1169 1361.00
14.1821 1363.00
14.2473 1407.00
14.3125 1362.00
14.3777 1370.00
14.4429 1381.00
14.5081 1299.00
14.5733 1332.00
14.6385 1363.00
14.7037 1360.00
14.7689 1260.00
14.8341 1320.00
14.8993 1348.00
14.9645 1294.00
15.0297 1314.00
15.0949 1291.00
15.1601 1257.00
15.2253 1324.00
15.2905 1243.00
15.3557 1302.00
15.4209 1236.00
15.4861 1333.00
15.5513 1268.00
15.6165 1261.00
15.6817 1235.00
15.7469 1223.00
15.8121 1184.00
15.8773 1272.00
15.9425 1254.00
16.0077 1230.00
16.0729 1263.00
16.1381 1245.00
16.2033 1228.00
16.2685 1214.00
16.3337 1222.00
16.3989 1230.00
16.4641 1189.00
16.5293 1247.00
16.5945 1167.00
16.6597 1149.00
16.7249 1272.00
16.7901 1178.00
16.8553 1196.00
16.9205 1194.00
16.9857 1134.00
17.0509 1184.00
17.1161 1148.00
17.1813 1124.00
17.2465 1149.00
17.3117 1129.00
17.3769 1180.00
17.4421 1200.00
17.5073 1214.00
17.5725 1241.00
17.6377 1301.00
17.7029 1322.00
17.7681 1304.00
17.8333 1266.00
17.8985 1166.00
17.9637 1168.00
18.0289 1116.00
18.0941 1158.00
18.1593 1137.00
18.2245 1058.00
18.2897 1145.00
18.3549 1092.00
18.4201 1022.00
18.4853 1095.00
18.5505 1038.00
18.6157 1099.00
18.6809 1036.00
18.7461 1096.00
18.8112 1004.00
18.8764 991.00
18.9416 1047.00
19.0068 1041.00
19.072 947.00
19.1372 1054.00
19.2024 1011.00
19.2676 1010.00
19.3328 990.00
19.398 997.00
19.4632 994.00
19.5284 1057.00
19.5936 987.00
19.6588 1069.00
19.724 999.00
19.7892 961.00
19.8544 1009.00
19.9196 1029.00
19.9848 914.00
20.05 987.00
20.1152 1009.00
20.1804 969.00
20.2456 991.00
20.3108 978.00
20.376 950.00
20.4412 977.00
20.5064 966.00
20.5716 910.00
20.6368 943.00
20.702 878.00
20.7672 949.00
20.8324 924.00
20.8976 934.00
20.9628 912.00
21.028 908.00
21.0932 966.00
21.1584 963.00
21.2236 862.00
21.2888 943.00
21.354 933.00
21.4192 815.00
21.4844 875.00
21.5496 896.00
21.6148 916.00
21.68 885.00
21.7452 965.00
21.8104 876.00
21.8756 903.00
21.9408 860.00
22.006 867.00
22.0712 894.00
22.1364 939.00
22.2016 871.00
22.2668 921.00
22.332 861.00
22.3972 885.00
22.4624 818.00
22.5276 806.00
22.5928 813.00
22.658 861.00
22.7232 863.00
22.7884 808.00
22.8536 783.00
22.9188 849.00
22.984 820.00
23.0492 897.00
23.1144 797.00
23.1796 818.00
23.2448 819.00
23.31 830.00
23.3752 819.00
23.4404 789.00
23.5056 846.00
23.5708 816.00
23.6359 790.00
23.7011 822.00
23.7663 824.00
23.8315 754.00
23.8967 831.00
23.9619 864.00
24.0271 870.00
24.0923 942.00
24.1575 993.00
24.2227 1157.00
24.2879 1281.00
24.3531 1597.00
24.4183 1677.00
24.4835 1659.00
24.5487 1459.00
24.6139 1383.00
24.6791 1537.00
24.7443 1645.00
24.8095 1840.00
24.8747 1529.00
24.9399 1159.00
25.0051 921.00
25.0703 835.00
25.1355 864.00
25.2007 757.00
25.2659 778.00
25.3311 743.00
25.3963 802.00
25.4615 788.00
25.5267 797.00
25.5919 679.00
25.6571 723.00
25.7223 759.00
25.7875 812.00
25.8527 762.00
25.9179 719.00
25.9831 733.00
26.0483 784.00
26.1135 735.00
26.1787 729.00
26.2439 728.00
26.3091 714.00
26.3743 680.00
26.4395 717.00
26.5047 710.00
26.5699 719.00
26.6351 754.00
26.7003 701.00
26.7655 692.00
26.8307 738.00
26.8959 695.00
26.9611 698.00
27.0263 684.00
27.0915 729.00
27.1567 754.00
27.2219 720.00
27.2871 729.00
27.3523 714.00
27.4175 722.00
27.4827 729.00
27.5479 747.00
27.6131 727.00
27.6783 779.00
27.7435 754.00
27.8087 781.00
27.8739 803.00
27.9391 851.00
28.0043 863.00
28.0695 994.00
28.1347 1119.00
28.1999 1211.00
28.2651 1640.00
28.3303 2129.00
28.3955 3056.00
28.4606 4392.00
28.5258 6085.00
28.591 6686.00
28.6562 5235.00
28.7214 3020.00
28.7866 1840.00
28.8518 1364.00
28.917 1058.00
28.9822 966.00
29.0474 872.00
29.1126 830.00
29.1778 772.00
29.243 759.00
29.3082 745.00
29.3734 746.00
29.4386 731.00
29.5038 728.00
29.569 719.00
29.6342 717.00
29.6994 710.00
29.7646 683.00
29.8298 618.00
29.895 677.00
29.9602 710.00
30.0254 688.00
30.0906 662.00
30.1558 635.00
30.221 645.00
30.2862 688.00
30.3514 683.00
30.4166 648.00
30.4818 663.00
30.547 670.00
30.6122 698.00
30.6774 743.00
30.7426 667.00
30.8078 677.00
30.873 664.00
30.9382 708.00
31.0034 738.00
31.0686 731.00
31.1338 749.00
31.199 749.00
31.2642 729.00
31.3294 779.00
31.3946 883.00
31.4598 1002.00
31.525 1176.00
31.5902 1428.00
31.6554 1982.00
31.7206 2811.00
31.7858 4139.00
31.851 5275.00
31.9162 5397.00
31.9814 3912.00
32.0466 2402.00
32.1118 1465.00
32.177 1182.00
32.2422 976.00
32.3074 861.00
32.3726 723.00
32.4378 700.00
32.503 666.00
32.5682 694.00
32.6334 668.00
32.6986 674.00
32.7638 666.00
32.829 672.00
32.8942 664.00
32.9594 632.00
33.0246 657.00
33.0898 625.00
33.1549 589.00
33.2201 662.00
33.2853 645.00
33.3505 606.00
33.4157 643.00
33.4809 692.00
33.5461 706.00
33.6113 743.00
33.6765 903.00
33.7417 1160.00
33.8069 1476.00
33.8721 1408.00
33.9373 1096.00
34.0025 779.00
34.0677 692.00
34.1329 728.00
34.1981 747.00
34.2633 882.00
34.3285 1040.00
34.3937 1395.00
34.4589 1935.00
34.5241 2332.00
34.5893 2438.00
34.6545 2069.00
34.7197 1846.00
34.7849 2030.00
34.8501 2086.00
34.9153 1964.00
34.9805 1399.00
35.0457 971.00
35.1109 793.00
35.1761 699.00
35.2413 706.00
35.3065 720.00
35.3717 744.00
35.4369 754.00
35.5021 887.00
35.5673 1044.00
35.6325 1540.00
35.6977 2190.00
35.7629 2357.00
35.8281 1882.00
35.8933 1299.00
35.9585 891.00
36.0237 833.00
36.0889 807.00
36.1541 916.00
36.2193 1048.00
36.2845 1317.00
36.3497 1531.00
36.4149 1620.00
36.4801 1438.00
36.5453 1042.00
36.6105 744.00
36.6757 626.00
36.7409 544.00
36.8061 605.00
36.8713 587.00
36.9365 546.00
37.0017 572.00
37.0669 548.00
37.1321 552.00
37.1973 566.00
37.2625 553.00
37.3277 535.00
37.3929 560.00
37.4581 523.00
37.5233 501.00
37.5885 523.00
37.6537 496.00
37.7189 517.00
37.7841 501.00
37.8493 548.00
37.9145 519.00
37.9796 525.00
38.0448 534.00
38.11 508.00
38.1752 507.00
38.2404 495.00
38.3056 532.00
38.3708 529.00
38.436 559.00
38.5012 542.00
38.5664 578.00
38.6316 530.00
38.6968 547.00
38.762 603.00
38.8272 616.00
38.8924 819.00
38.9576 1057.00
39.0228 1232.00
39.088 1083.00
39.1532 893.00
39.2184 752.00
39.2836 637.00
39.3488 577.00
39.414 542.00
39.4792 546.00
39.5444 474.00
39.6096 497.00
39.6748 525.00
39.74 545.00
39.8052 538.00
39.8704 567.00
39.9356 553.00
40.0008 589.00
40.066 603.00
40.1312 557.00
40.1964 549.00
40.2616 518.00
40.3268 575.00
40.392 572.00
40.4572 624.00
40.5224 539.00
40.5876 533.00
40.6528 542.00
40.718 586.00
40.7832 564.00
40.8484 644.00
40.9136 673.00
40.9788 782.00
41.044 908.00
41.1092 1163.00
41.1744 1402.00
41.2396 1493.00
41.3048 1340.00
41.37 1098.00
41.4352 918.00
41.5004 908.00
41.5656 1012.00
41.6308 1126.00
41.696 1142.00
41.7612 1132.00
41.8264 1016.00
41.8916 867.00
41.9568 737.00
42.022 629.00
42.0872 593.00
42.1524 555.00
42.2176 519.00
42.2828 481.00
42.348 506.00
42.4132 485.00
42.4784 494.00
42.5436 491.00
42.6088 557.00
42.6739 503.00
42.7392 491.00
42.8043 488.00
42.8695 524.00
42.9347 479.00
42.9999 450.00
43.0651 461.00
43.1303 470.00
43.1955 480.00
43.2607 468.00
43.3259 499.00
43.3911 504.00
43.4563 493.00
43.5215 471.00
43.5867 447.00
43.6519 456.00
43.7171 508.00
43.7823 479.00
43.8475 512.00
43.9127 447.00
43.9779 500.00
44.0431 466.00
44.1083 469.00
44.1735 494.00
44.2387 524.00
44.3039 488.00
44.3691 516.00
44.4343 550.00
44.4995 518.00
44.5647 539.00
44.6299 466.00
44.6951 484.00
44.7603 522.00
44.8255 491.00
44.8907 505.00
44.9559 551.00
45.0211 558.00
45.0863 576.00
45.1515 667.00
45.2167 710.00
45.2819 862.00
45.3471 817.00
45.4123 757.00
45.4775 662.00
45.5427 575.00
45.6079 599.00
45.6731 605.00
45.7383 626.00
45.8035 659.00
45.8687 828.00
45.9339 925.00
45.9991 1007.00
46.0643 890.00
46.1295 792.00
46.1947 649.00
46.2599 605.00
46.3251 564.00
46.3903 517.00
46.4555 554.00
46.5207 495.00
46.5859 478.00
46.6511 462.00
46.7163 518.00
46.7815 522.00
46.8467 476.00
46.9119 480.00
46.9771 488.00
47.0423 479.00
47.1075 452.00
47.1727 450.00
47.2379 472.00
47.3031 480.00
47.3683 442.00
47.4335 443.00
47.4986 466.00
47.5639 477.00
47.629 470.00
47.6942 490.00
47.7594 448.00
47.8246 457.00
47.8898 427.00
47.955 490.00
48.0202 452.00
48.0854 487.00
48.1506 474.00
48.2158 423.00
48.281 446.00
48.3462 480.00
48.4114 456.00
48.4766 501.00
48.5418 497.00
48.607 480.00
48.6722 460.00
48.7374 485.00
48.8026 502.00
48.8678 489.00
48.933 510.00
48.9982 540.00
49.0634 500.00
49.1286 485.00
49.1938 534.00
49.259 602.00
49.3242 616.00
49.3894 710.00
49.4546 753.00
49.5198 873.00
49.585 1006.00
49.6502 1339.00
49.7154 1787.00
49.7806 2157.00
49.8458 1887.00
49.911 1511.00
49.9762 1128.00
50.0414 775.00
50.1066 709.00
50.1718 686.00
50.237 764.00
50.3022 762.00
50.3674 1002.00
50.4326 1292.00
50.4978 1433.00
50.563 1965.00
50.6282 2547.00
50.6934 2578.00
50.7586 2145.00
50.8238 1758.00
50.889 1337.00
50.9542 1309.00
51.0194 1371.00
51.0846 1608.00
51.1498 1524.00
51.215 1225.00
51.2802 1001.00
51.3454 797.00
51.4106 644.00
51.4758 609.00
51.541 668.00
51.6062 763.00
51.6714 845.00
51.7366 853.00
51.8018 821.00
51.867 806.00
51.9322 689.00
51.9974 584.00
52.0626 544.00
52.1278 505.00
52.193 490.00
52.2582 485.00
52.3233 487.00
52.3886 476.00
52.4537 510.00
52.5189 495.00
52.5841 518.00
52.6493 487.00
52.7145 478.00
52.7797 483.00
52.8449 459.00
52.9101 474.00
52.9753 463.00
53.0405 518.00
53.1057 491.00
53.1709 443.00
53.2361 474.00
53.3013 490.00
53.3665 518.00
53.4317 490.00
53.4969 464.00
53.5621 528.00
53.6273 454.00
53.6925 467.00
53.7577 484.00
53.8229 474.00
53.8881 533.00
53.9533 508.00
54.0185 541.00
54.0837 541.00
54.1489 564.00
54.2141 581.00
54.2793 578.00
54.3445 705.00
54.4097 844.00
54.4749 1010.00
54.5401 1306.00
54.6053 1361.00
54.6705 1506.00
54.7357 1357.00
54.8009 1156.00
54.8661 987.00
54.9313 1103.00
54.9965 1396.00
55.0617 1580.00
55.1269 1373.00
55.1921 1276.00
55.2573 1064.00
55.3225 757.00
55.3877 763.00
55.4529 708.00
55.5181 700.00
55.5833 733.00
55.6485 928.00
55.7137 1067.00
55.7789 1368.00
55.8441 1685.00
55.9093 1836.00
55.9745 1742.00
56.0397 1816.00
56.1049 1601.00
56.1701 1374.00
56.2353 1217.00
56.3005 1109.00
56.3657 1078.00
56.4309 1262.00
56.4961 1368.00
56.5613 1254.00
56.6265 1078.00
56.6917 968.00
56.7569 768.00
56.8221 650.00
56.8873 607.00
56.9525 565.00
57.0177 569.00
57.0829 562.00
57.148 500.00
57.2132 565.00
57.2784 548.00
57.3436 550.00
57.4088 587.00
57.474 663.00
57.5392 702.00
57.6044 841.00
57.6696 1073.00
57.7348 1212.00
57.8 1184.00
57.8652 1077.00
57.9304 901.00
57.9956 770.00
58.0608 728.00
58.126 644.00
58.1912 622.00
58.2564 693.00
58.3216 746.00
58.3868 970.00
58.452 1102.00
58.5172 1093.00
58.5824 1060.00
58.6476 1050.00
58.7128 1015.00
58.778 982.00
58.8432 979.00
58.9084 900.00
58.9736 830.00
59.0388 744.00
59.104 714.00
59.1692 538.00
59.2344 521.00
59.2996 534.00
59.3648 542.00
59.43 506.00
59.4952 460.00
59.5604 518.00
59.6256 514.00
59.6908 507.00
59.756 519.00
59.8212 532.00
59.8864 534.00
59.9516 543.00
60.0168 595.00
60.082 574.00
60.1472 662.00
60.2124 746.00
60.2776 928.00
60.3428 1314.00
60.408 1523.00
60.4732 1403.00
60.5384 1518.00
60.6036 1334.00
60.6688 1205.00
60.734 1100.00
60.7992 894.00
60.8644 802.00
60.9296 652.00
60.9948 613.00
61.06 578.00
61.1252 572.00
61.1904 554.00
61.2556 521.00
61.3208 545.00
61.386 545.00
61.4512 530.00
61.5164 577.00
61.5816 567.00
61.6468 708.00
61.712 715.00
61.7772 820.00
61.8424 1005.00
61.9076 1101.00
61.9727 1083.00
62.0379 1026.00
62.1031 929.00
62.1683 873.00
62.2335 819.00
62.2987 821.00
62.3639 921.00
62.4291 1039.00
62.4943 1140.00
62.5595 1187.00
62.6247 1096.00
62.6899 1042.00
62.7551 891.00
62.8203 706.00
62.8855 618.00
62.9507 705.00
63.0159 653.00
63.0811 659.00
63.1463 668.00
63.2115 721.00
63.2767 901.00
63.3419 1210.00
63.4071 1351.00
63.4723 1506.00
63.5375 1437.00
63.6027 1317.00
63.6679 1293.00
63.7331 1057.00
63.7983 872.00
63.8635 780.00
63.9287 666.00
63.9939 557.00
64.0591 608.00
64.1243 562.00
64.1895 530.00
64.2547 567.00
64.3199 518.00
64.3851 586.00
64.4503 572.00
64.5155 583.00
64.5807 656.00
64.6459 698.00
64.7111 740.00
64.7763 854.00
64.8415 786.00
64.9067 848.00
64.9719 743.00
65.0371 739.00
65.1023 739.00
65.1675 706.00
65.2327 867.00
65.2979 900.00
65.3631 868.00
65.4283 866.00
65.4935 758.00
65.5587 720.00
65.6239 641.00
65.6891 599.00
65.7543 620.00
65.8195 622.00
65.8847 744.00
65.9499 796.00
66.0151 883.00
66.0803 922.00
66.1455 933.00
66.2107 1055.00
66.2759 1275.00
66.3411 1338.00
66.4063 1274.00
66.4715 1175.00
66.5367 1084.00
66.6019 883.00
66.6671 757.00
66.7322 718.00
66.7974 621.00
66.8626 559.00
66.9278 549.00
66.993 543.00
67.0582 507.00
67.1234 494.00
67.1886 488.00
67.2538 474.00
67.319 473.00
67.3842 503.00
67.4494 548.00
67.5146 444.00
67.5798 507.00
67.645 481.00
67.7102 499.00
67.7754 448.00
67.8406 461.00
67.9058 466.00
67.971 462.00
68.0362 487.00
68.1014 479.00
68.1666 481.00
68.2318 465.00
68.297 454.00
68.3622 468.00
68.4274 475.00
68.4926 503.00
68.5578 482.00
68.623 485.00
68.6882 476.00
68.7534 517.00
68.8186 444.00
68.8838 489.00
68.949 497.00
69.0142 503.00
69.0794 486.00
69.1446 512.00
69.2098 516.00
69.275 534.00
69.3402 500.00
69.4054 559.00
69.4706 688.00
69.5358 739.00
69.601 756.00
69.6662 723.00
69.7314 668.00
69.7966 658.00
69.8618 609.00
69.927 545.00
69.9922 522.00
70.0574 515.00
70.1226 558.00
70.1878 554.00
70.253 557.00
70.3182 610.00
70.3834 564.00
70.4486 525.00
70.5138 512.00
70.579 507.00
70.6442 499.00
70.7094 551.00
70.7746 555.00
70.8398 586.00
70.905 507.00
70.9702 514.00
71.0354 548.00
71.1006 531.00
71.1658 517.00
71.231 530.00
71.2962 549.00
71.3614 558.00
71.4266 594.00
71.4918 640.00
71.5569 710.00
71.6221 808.00
71.6873 930.00
71.7525 1021.00
71.8177 1034.00
71.8829 1096.00
71.9481 1028.00
72.0133 908.00
72.0785 762.00
72.1437 678.00
72.2089 669.00
72.2741 583.00
72.3393 608.00
72.4045 596.00
72.4697 623.00
72.5349 571.00
72.6001 625.00
72.6653 662.00
72.7305 690.00
72.7957 713.00
72.8609 702.00
72.9261 723.00
72.9913 744.00
73.0565 791.00
73.1217 858.00
73.1869 856.00
73.2521 805.00
73.3173 833.00
73.3825 786.00
73.4477 712.00
73.5129 677.00
73.5781 583.00
73.6433 588.00
73.7085 537.00
73.7737 567.00
73.8389 529.00
73.9041 521.00
73.9693 474.00
74.0345 536.00
74.0997 532.00
74.1649 559.00
74.2301 537.00
74.2953 477.00
74.3605 554.00
74.4257 532.00
74.4909 472.00
74.5561 496.00
74.6213 523.00
74.6865 526.00
74.7517 520.00
74.8169 489.00
74.8821 495.00
74.9473 485.00
75.0125 505.00
75.0777 538.00
75.1429 570.00
75.2081 624.00
75.2733 667.00
75.3385 709.00
75.4037 714.00
75.4689 700.00
75.5341 685.00
75.5993 717.00
75.6645 795.00
75.7297 871.00
75.7949 887.00
75.8601 867.00
75.9253 864.00
75.9905 853.00
76.0557 770.00
76.1209 712.00
76.186 622.00
76.2513 567.00
76.3165 594.00
76.3816 560.00
76.4468 545.00
76.512 513.00
76.5772 503.00
76.6424 557.00
76.7076 543.00
76.7728 533.00
76.838 577.00
76.9032 620.00
76.9684 701.00
77.0336 782.00
77.0988 853.00
77.164 823.00
77.2292 800.00
77.2944 746.00
77.3596 722.00
77.4248 632.00
77.49 644.00
77.5552 578.00
77.6204 602.00
77.6856 557.00
77.7508 633.00
77.816 631.00
77.8812 617.00
77.9464 656.00
78.0116 709.00
78.0768 737.00
78.142 681.00
78.2072 712.00
78.2724 748.00
78.3376 706.00
78.4028 651.00
78.468 618.00
78.5332 633.00
78.5984 658.00
78.6636 658.00
78.7288 665.00
78.794 632.00
78.8592 640.00
78.9244 637.00
78.9896 538.00
79.0548 573.00
79.12 582.00
79.1852 636.00
79.2504 657.00
79.3156 685.00
79.3808 626.00
79.446 707.00
79.5112 747.00
79.5764 770.00
79.6416 803.00
79.7068 757.00
79.772 744.00
79.8372 723.00
79.9024 697.00
79.9676 672.00
80.0328 626.00
80.098 550.00
80.1632 496.00
80.2284 526.00
80.2936 534.00
80.3588 523.00
80.424 547.00
80.4892 522.00
80.5544 517.00
80.6196 538.00
80.6848 535.00
80.75 520.00
80.8152 532.00
80.8804 490.00
80.9456 549.00
81.0108 585.00
81.076 563.00
81.1412 572.00
81.2063 546.00
81.2715 604.00
81.3367 567.00
81.4019 540.00
81.4671 597.00
81.5323 560.00
81.5975 506.00
81.6627 545.00
81.7279 603.00
81.7931 554.00
81.8583 596.00
81.9235 666.00
81.9887 630.00
82.0539 653.00
82.1191 706.00
82.1843 850.00
82.2495 855.00
82.3147 802.00
82.3799 742.00
82.4451 712.00
82.5103 671.00
82.5755 668.00
82.6407 586.00
82.7059 607.00
82.7711 603.00
82.8363 595.00
82.9015 623.00
82.9667 661.00
83.0319 649.00
83.0971 649.00
83.1623 676.00
83.2275 688.00
83.2927 762.00
83.3579 738.00
83.4231 798.00
83.4883 724.00
83.5535 751.00
83.6187 755.00
83.6839 758.00
83.7491 763.00
83.8143 811.00
83.8795 834.00
83.9447 797.00
84.0099 799.00
84.0751 806.00
84.1403 779.00
84.2055 763.00
84.2707 688.00
84.3359 748.00
84.4011 851.00
84.4663 775.00
84.5315 794.00
84.5967 871.00
84.6619 927.00
84.7271 888.00
84.7923 860.00
84.8575 817.00
84.9227 921.00
84.9879 789.00
85.0531 747.00
85.1183 716.00
85.1835 723.00
85.2487 648.00
85.3139 617.00
85.3791 699.00
85.4443 635.00
85.5095 623.00
85.5747 728.00
85.6399 811.00
85.7051 804.00
85.7703 716.00
85.8354 669.00
85.9006 616.00
85.9659 613.00
86.031 594.00
86.0962 582.00
86.1614 528.00
86.2266 575.00
86.2918 526.00
86.357 548.00
86.4222 598.00
86.4874 588.00
86.5526 642.00
86.6178 689.00
86.683 697.00
86.7482 691.00
86.8134 711.00
86.8786 760.00
86.9438 746.00
87.009 691.00
87.0742 716.00
87.1394 654.00
87.2046 643.00
87.2698 594.00
87.335 577.00
87.4002 566.00
87.4654 585.00
87.5306 534.00
87.5958 572.00
87.661 569.00
87.7262 551.00
87.7914 560.00
87.8566 548.00
87.9218 583.00
87.987 586.00
88.0522 652.00
88.1174 706.00
88.1826 755.00
88.2478 783.00
88.313 792.00
88.3782 762.00
88.4434 745.00
88.5086 739.00
88.5738 722.00
88.639 750.00
88.7042 729.00
88.7694 788.00
88.8346 781.00
88.8998 832.00
88.965 862.00
89.0302 841.00
89.0954 823.00
89.1606 848.00
89.2258 888.00
89.291 887.00
89.3562 867.00
89.4214 860.00
89.4866 794.00
89.5518 725.00
89.617 765.00
89.6822 745.00
89.7474 661.00
89.8126 636.00
89.8778 720.00
89.943 649.00
90.0082 701.00
90.0734 715.00
90.1386 768.00
90.2038 743.00
90.269 835.00
90.3342 837.00
90.3994 893.00
90.4646 905.00
90.5298 934.00
90.595 981.00
90.6601 919.00
90.7253 827.00
90.7905 803.00
90.8557 818.00
90.9209 699.00
90.9861 691.00
91.0513 704.00
91.1165 635.00
91.1817 656.00
91.2469 606.00
91.3121 614.00
91.3773 611.00
91.4425 689.00
91.5077 609.00
91.5729 591.00
91.6381 631.00
91.7033 650.00
91.7685 584.00
91.8337 617.00
91.8989 640.00
91.9641 591.00
92.0293 628.00
92.0945 632.00
92.1597 719.00
92.2249 641.00
92.2901 597.00
92.3553 637.00
92.4205 609.00
92.4857 584.00
92.5509 590.00
92.6161 586.00
92.6813 532.00
92.7465 562.00
92.8117 530.00
92.8769 580.00
92.9421 524.00
93.0073 535.00
93.0725 566.00
93.1377 544.00
93.2029 525.00
93.2681 588.00
93.3333 558.00
93.3985 551.00
93.4637 587.00
93.5289 519.00
93.5941 559.00
93.6593 533.00
93.7245 615.00
93.7897 582.00
93.8549 570.00
93.9201 568.00
93.9853 567.00
94.0505 579.00
94.1157 616.00
94.1809 612.00
94.2461 560.00
94.3113 558.00
94.3765 618.00
94.4417 623.00
94.5069 653.00
94.5721 669.00
94.6373 748.00
94.7025 742.00
94.7677 652.00
94.8329 625.00
94.8981 690.00
94.9633 681.00
95.0285 671.00
95.0937 682.00
95.1589 614.00
95.2241 665.00
95.2893 636.00
95.3545 717.00
95.4197 741.00
95.4848 765.00
95.55 818.00
95.6153 745.00
95.6804 830.00
95.7456 787.00
95.8108 852.00
95.876 873.00
95.9412 838.00
96.0064 824.00
96.0716 851.00
96.1368 793.00
96.202 757.00
96.2672 733.00
96.3324 735.00
96.3976 714.00
96.4628 666.00
96.528 655.00
96.5932 636.00
96.6584 653.00
96.7236 714.00
96.7888 750.00
96.854 753.00
96.9192 903.00
96.9844 804.00
97.0496 866.00
97.1148 866.00
97.18 777.00
97.2452 868.00
97.3104 910.00
97.3756 1010.00
97.4408 1000.00
97.506 1047.00
97.5712 1021.00
97.6364 1024.00
97.7016 982.00
97.7668 1041.00
97.832 1035.00
97.8972 918.00
97.9624 843.00
98.0276 822.00
98.0928 806.00
98.158 750.00
98.2232 697.00
98.2884 773.00
98.3536 652.00
98.4188 667.00
98.484 615.00
98.5492 599.00
98.6144 680.00
98.6796 665.00
98.7448 714.00
98.81 763.00
98.8752 795.00
98.9404 794.00
99.0056 783.00
99.0708 759.00
99.136 752.00
99.2012 814.00
99.2664 763.00
99.3316 807.00
99.3968 753.00
99.462 791.00
99.5272 815.00
99.5924 836.00
99.6576 835.00
99.7228 838.00
99.788 822.00
99.8532 843.00
99.9184 852.00
99.9836 888.00
99.9944 877.00