File: data/xrd_creation/results/PG_1117-1.xy
10.0094 2350.00
10.0746 2330.00
10.1398 2320.00
10.205 2263.00
10.2702 2228.00
10.3354 2288.00
10.4006 2258.00
10.4658 2198.00
10.531 2114.00
10.5962 2119.00
10.6614 2114.00
10.7266 2098.00
10.7918 2170.00
10.857 2101.00
10.9222 2119.00
10.9874 2111.00
11.0526 2073.00
11.1178 2048.00
11.183 2094.00
11.2482 1923.00
11.3134 1969.00
11.3786 1962.00
11.4438 1875.00
11.509 1905.00
11.5742 1992.00
11.6394 1900.00
11.7046 1999.00
11.7698 1849.00
11.835 1893.00
11.9002 1756.00
11.9654 1888.00
12.0306 1850.00
12.0958 1814.00
12.161 1760.00
12.2262 1834.00
12.2914 1779.00
12.3566 1779.00
12.4218 1724.00
12.487 1791.00
12.5522 1773.00
12.6174 1697.00
12.6826 1745.00
12.7478 1654.00
12.813 1676.00
12.8782 1709.00
12.9434 1724.00
13.0086 1663.00
13.0738 1648.00
13.139 1544.00
13.2042 1582.00
13.2694 1638.00
13.3346 1610.00
13.3998 1630.00
13.465 1605.00
13.5302 1526.00
13.5954 1569.00
13.6606 1601.00
13.7258 1628.00
13.791 1545.00
13.8562 1470.00
13.9214 1532.00
13.9865 1475.00
14.0517 1495.00
14.1169 1497.00
14.1821 1492.00
14.2473 1525.00
14.3125 1467.00
14.3777 1551.00
14.4429 1510.00
14.5081 1494.00
14.5733 1476.00
14.6385 1442.00
14.7037 1492.00
14.7689 1525.00
14.8341 1449.00
14.8993 1408.00
14.9645 1366.00
15.0297 1370.00
15.0949 1515.00
15.1601 1417.00
15.2253 1461.00
15.2905 1487.00
15.3557 1443.00
15.4209 1406.00
15.4861 1329.00
15.5513 1419.00
15.6165 1436.00
15.6817 1370.00
15.7469 1379.00
15.8121 1418.00
15.8773 1389.00
15.9425 1366.00
16.0077 1386.00
16.0729 1453.00
16.1381 1431.00
16.2033 1423.00
16.2685 1423.00
16.3337 1343.00
16.3989 1365.00
16.4641 1355.00
16.5293 1356.00
16.5945 1323.00
16.6597 1331.00
16.7249 1417.00
16.7901 1307.00
16.8553 1354.00
16.9205 1359.00
16.9857 1313.00
17.0509 1325.00
17.1161 1328.00
17.1813 1305.00
17.2465 1268.00
17.3117 1294.00
17.3769 1431.00
17.4421 1364.00
17.5073 1292.00
17.5725 1416.00
17.6377 1511.00
17.7029 1620.00
17.7681 1669.00
17.8333 1748.00
17.8985 1602.00
17.9637 1455.00
18.0289 1314.00
18.0941 1243.00
18.1593 1282.00
18.2245 1243.00
18.2897 1238.00
18.3549 1229.00
18.4201 1211.00
18.4853 1202.00
18.5505 1261.00
18.6157 1178.00
18.6809 1232.00
18.7461 1243.00
18.8112 1149.00
18.8764 1182.00
18.9416 1232.00
19.0068 1254.00
19.072 1305.00
19.1372 1168.00
19.2024 1216.00
19.2676 1181.00
19.3328 1266.00
19.398 1208.00
19.4632 1187.00
19.5284 1139.00
19.5936 1168.00
19.6588 1197.00
19.724 1183.00
19.7892 1197.00
19.8544 1161.00
19.9196 1125.00
19.9848 1218.00
20.05 1170.00
20.1152 1088.00
20.1804 1189.00
20.2456 1124.00
20.3108 1155.00
20.376 1179.00
20.4412 1128.00
20.5064 1078.00
20.5716 1111.00
20.6368 1137.00
20.702 1139.00
20.7672 1072.00
20.8324 1121.00
20.8976 1136.00
20.9628 1132.00
21.028 1092.00
21.0932 1100.00
21.1584 1090.00
21.2236 1129.00
21.2888 1125.00
21.354 1105.00
21.4192 1068.00
21.4844 1077.00
21.5496 1066.00
21.6148 1065.00
21.68 1082.00
21.7452 1072.00
21.8104 1063.00
21.8756 1063.00
21.9408 1079.00
22.006 1065.00
22.0712 1111.00
22.1364 1105.00
22.2016 1041.00
22.2668 1059.00
22.332 1100.00
22.3972 1082.00
22.4624 1111.00
22.5276 1028.00
22.5928 1066.00
22.658 1097.00
22.7232 1017.00
22.7884 1017.00
22.8536 1028.00
22.9188 1081.00
22.984 1059.00
23.0492 1043.00
23.1144 1009.00
23.1796 1048.00
23.2448 1120.00
23.31 1115.00
23.3752 1070.00
23.4404 1011.00
23.5056 1015.00
23.5708 1054.00
23.6359 1053.00
23.7011 1105.00
23.7663 1079.00
23.8315 1115.00
23.8967 1099.00
23.9619 1030.00
24.0271 1074.00
24.0923 1164.00
24.1575 1185.00
24.2227 1296.00
24.2879 1568.00
24.3531 1961.00
24.4183 2559.00
24.4835 2695.00
24.5487 2279.00
24.6139 1689.00
24.6791 1483.00
24.7443 1704.00
24.8095 2138.00
24.8747 2447.00
24.9399 2075.00
25.0051 1546.00
25.0703 1231.00
25.1355 1083.00
25.2007 1020.00
25.2659 1075.00
25.3311 1020.00
25.3963 988.00
25.4615 1014.00
25.5267 1025.00
25.5919 1010.00
25.6571 1019.00
25.7223 973.00
25.7875 1024.00
25.8527 1043.00
25.9179 1018.00
25.9831 954.00
26.0483 964.00
26.1135 1012.00
26.1787 980.00
26.2439 989.00
26.3091 961.00
26.3743 928.00
26.4395 951.00
26.5047 939.00
26.5699 974.00
26.6351 936.00
26.7003 1012.00
26.7655 919.00
26.8307 984.00
26.8959 965.00
26.9611 957.00
27.0263 947.00
27.0915 956.00
27.1567 940.00
27.2219 963.00
27.2871 906.00
27.3523 987.00
27.4175 928.00
27.4827 1040.00
27.5479 1036.00
27.6131 1038.00
27.6783 1024.00
27.7435 1045.00
27.8087 1114.00
27.8739 1178.00
27.9391 1136.00
28.0043 1221.00
28.0695 1252.00
28.1347 1420.00
28.1999 1567.00
28.2651 1812.00
28.3303 2359.00
28.3955 3474.00
28.4606 5525.00
28.5258 8640.00
28.591 12242.00
28.6562 11735.00
28.7214 7598.00
28.7866 4150.00
28.8518 2697.00
28.917 1907.00
28.9822 1632.00
29.0474 1455.00
29.1126 1339.00
29.1778 1193.00
29.243 1218.00
29.3082 1093.00
29.3734 1074.00
29.4386 1056.00
29.5038 1074.00
29.569 1054.00
29.6342 1047.00
29.6994 999.00
29.7646 1048.00
29.8298 1106.00
29.895 1002.00
29.9602 1004.00
30.0254 1005.00
30.0906 996.00
30.1558 1044.00
30.221 964.00
30.2862 920.00
30.3514 949.00
30.4166 954.00
30.4818 1004.00
30.547 964.00
30.6122 979.00
30.6774 967.00
30.7426 969.00
30.8078 1016.00
30.873 989.00
30.9382 1009.00
31.0034 1103.00
31.0686 1077.00
31.1338 1073.00
31.199 1127.00
31.2642 1235.00
31.3294 1194.00
31.3946 1315.00
31.4598 1389.00
31.525 1519.00
31.5902 1769.00
31.6554 2296.00
31.7206 3251.00
31.7858 4999.00
31.851 7708.00
31.9162 10060.00
31.9814 9113.00
32.0466 5990.00
32.1118 3335.00
32.177 2209.00
32.2422 1791.00
32.3074 1448.00
32.3726 1268.00
32.4378 1176.00
32.503 1077.00
32.5682 1064.00
32.6334 1114.00
32.6986 1086.00
32.7638 1187.00
32.829 1164.00
32.8942 1089.00
32.9594 976.00
33.0246 948.00
33.0898 933.00
33.1549 962.00
33.2201 920.00
33.2853 916.00
33.3505 1012.00
33.4157 905.00
33.4809 926.00
33.5461 892.00
33.6113 924.00
33.6765 951.00
33.7417 915.00
33.8069 1017.00
33.8721 923.00
33.9373 1003.00
34.0025 944.00
34.0677 951.00
34.1329 1052.00
34.1981 1043.00
34.2633 1124.00
34.3285 1398.00
34.3937 1572.00
34.4589 2243.00
34.5241 3247.00
34.5893 4256.00
34.6545 4184.00
34.7197 3356.00
34.7849 3305.00
34.8501 3805.00
34.9153 3838.00
34.9805 2910.00
35.0457 1908.00
35.1109 1419.00
35.1761 1250.00
35.2413 1118.00
35.3065 1140.00
35.3717 1186.00
35.4369 1248.00
35.5021 1368.00
35.5673 1837.00
35.6325 2962.00
35.6977 4620.00
35.7629 6194.00
35.8281 6389.00
35.8933 4571.00
35.9585 2672.00
36.0237 1644.00
36.0889 1405.00
36.1541 1332.00
36.2193 1420.00
36.2845 1644.00
36.3497 1807.00
36.4149 1612.00
36.4801 1288.00
36.5453 1116.00
36.6105 1031.00
36.6757 930.00
36.7409 885.00
36.8061 934.00
36.8713 891.00
36.9365 908.00
37.0017 862.00
37.0669 826.00
37.1321 891.00
37.1973 815.00
37.2625 781.00
37.3277 864.00
37.3929 829.00
37.4581 851.00
37.5233 803.00
37.5885 852.00
37.6537 840.00
37.7189 881.00
37.7841 895.00
37.8493 882.00
37.9145 837.00
37.9796 801.00
38.0448 853.00
38.11 847.00
38.1752 835.00
38.2404 862.00
38.3056 898.00
38.3708 879.00
38.436 931.00
38.5012 1008.00
38.5664 983.00
38.6316 1046.00
38.6968 1210.00
38.762 1483.00
38.8272 2030.00
38.8924 3032.00
38.9576 3898.00
39.0228 4291.00
39.088 3859.00
39.1532 2872.00
39.2184 2253.00
39.2836 1627.00
39.3488 1320.00
39.414 1106.00
39.4792 1011.00
39.5444 944.00
39.6096 895.00
39.6748 927.00
39.74 857.00
39.8052 892.00
39.8704 914.00
39.9356 882.00
40.0008 901.00
40.066 945.00
40.1312 858.00
40.1964 885.00
40.2616 876.00
40.3268 948.00
40.392 929.00
40.4572 991.00
40.5224 980.00
40.5876 941.00
40.6528 909.00
40.718 898.00
40.7832 968.00
40.8484 961.00
40.9136 1022.00
40.9788 1154.00
41.044 1283.00
41.1092 1735.00
41.1744 2266.00
41.2396 2673.00
41.3048 2417.00
41.37 1910.00
41.4352 1532.00
41.5004 1409.00
41.5656 1477.00
41.6308 1566.00
41.696 1503.00
41.7612 1488.00
41.8264 1467.00
41.8916 1449.00
41.9568 1366.00
42.022 1164.00
42.0872 1005.00
42.1524 922.00
42.2176 864.00
42.2828 811.00
42.348 825.00
42.4132 838.00
42.4784 798.00
42.5436 781.00
42.6088 793.00
42.6739 804.00
42.7392 808.00
42.8043 777.00
42.8695 781.00
42.9347 831.00
42.9999 832.00
43.0651 834.00
43.1303 806.00
43.1955 755.00
43.2607 773.00
43.3259 744.00
43.3911 831.00
43.4563 823.00
43.5215 837.00
43.5867 755.00
43.6519 797.00
43.7171 824.00
43.7823 827.00
43.8475 800.00
43.9127 813.00
43.9779 759.00
44.0431 776.00
44.1083 803.00
44.1735 798.00
44.2387 822.00
44.3039 845.00
44.3691 802.00
44.4343 789.00
44.4995 803.00
44.5647 777.00
44.6299 807.00
44.6951 801.00
44.7603 820.00
44.8255 816.00
44.8907 864.00
44.9559 774.00
45.0211 840.00
45.0863 936.00
45.1515 905.00
45.2167 1130.00
45.2819 1343.00
45.3471 1535.00
45.4123 1330.00
45.4775 1245.00
45.5427 1079.00
45.6079 987.00
45.6731 1023.00
45.7383 984.00
45.8035 1054.00
45.8687 1214.00
45.9339 1352.00
45.9991 1663.00
46.0643 1628.00
46.1295 1562.00
46.1947 1285.00
46.2599 1085.00
46.3251 927.00
46.3903 879.00
46.4555 856.00
46.5207 925.00
46.5859 886.00
46.6511 854.00
46.7163 821.00
46.7815 742.00
46.8467 776.00
46.9119 813.00
46.9771 780.00
47.0423 748.00
47.1075 820.00
47.1727 779.00
47.2379 779.00
47.3031 793.00
47.3683 790.00
47.4335 778.00
47.4986 793.00
47.5639 724.00
47.629 831.00
47.6942 756.00
47.7594 782.00
47.8246 786.00
47.8898 777.00
47.955 794.00
48.0202 777.00
48.0854 819.00
48.1506 838.00
48.2158 839.00
48.281 800.00
48.3462 833.00
48.4114 782.00
48.4766 834.00
48.5418 800.00
48.607 780.00
48.6722 844.00
48.7374 902.00
48.8026 924.00
48.8678 1115.00
48.933 1277.00
48.9982 1533.00
49.0634 1476.00
49.1286 1462.00
49.1938 1240.00
49.259 1197.00
49.3242 1080.00
49.3894 1074.00
49.4546 1246.00
49.5198 1233.00
49.585 1388.00
49.6502 1750.00
49.7154 2519.00
49.7806 3569.00
49.8458 3496.00
49.911 2862.00
49.9762 2194.00
50.0414 1600.00
50.1066 1160.00
50.1718 1122.00
50.237 1063.00
50.3022 1066.00
50.3674 1060.00
50.4326 1187.00
50.4978 1470.00
50.563 2156.00
50.6282 3475.00
50.6934 4404.00
50.7586 3822.00
50.8238 3161.00
50.889 2399.00
50.9542 1968.00
51.0194 2067.00
51.0846 2521.00
51.1498 2542.00
51.215 2160.00
51.2802 1683.00
51.3454 1314.00
51.4106 1205.00
51.4758 1036.00
51.541 1052.00
51.6062 1120.00
51.6714 1407.00
51.7366 1460.00
51.8018 1480.00
51.867 1424.00
51.9322 1315.00
51.9974 1101.00
52.0626 939.00
52.1278 956.00
52.193 861.00
52.2582 835.00
52.3233 843.00
52.3886 863.00
52.4537 809.00
52.5189 824.00
52.5841 812.00
52.6493 797.00
52.7145 829.00
52.7797 780.00
52.8449 812.00
52.9101 791.00
52.9753 831.00
53.0405 836.00
53.1057 826.00
53.1709 839.00
53.2361 807.00
53.3013 850.00
53.3665 831.00
53.4317 868.00
53.4969 858.00
53.5621 879.00
53.6273 949.00
53.6925 963.00
53.7577 1023.00
53.8229 1019.00
53.8881 965.00
53.9533 982.00
54.0185 922.00
54.0837 866.00
54.1489 927.00
54.2141 988.00
54.2793 977.00
54.3445 1030.00
54.4097 1075.00
54.4749 1317.00
54.5401 1567.00
54.6053 2082.00
54.6705 2487.00
54.7357 2403.00
54.8009 2029.00
54.8661 1741.00
54.9313 1372.00
54.9965 1137.00
55.0617 1010.00
55.1269 1050.00
55.1921 1116.00
55.2573 1112.00
55.3225 1066.00
55.3877 1131.00
55.4529 1018.00
55.5181 1057.00
55.5833 1066.00
55.6485 1160.00
55.7137 1320.00
55.7789 1824.00
55.8441 2299.00
55.9093 2918.00
55.9745 3044.00
56.0397 2884.00
56.1049 2788.00
56.1701 2533.00
56.2353 2065.00
56.3005 1817.00
56.3657 1704.00
56.4309 2031.00
56.4961 2352.00
56.5613 2154.00
56.6265 1956.00
56.6917 1673.00
56.7569 1301.00
56.8221 1112.00
56.8873 1009.00
56.9525 1001.00
57.0177 980.00
57.0829 915.00
57.148 910.00
57.2132 943.00
57.2784 903.00
57.3436 980.00
57.4088 971.00
57.474 1055.00
57.5392 1151.00
57.6044 1336.00
57.6696 1611.00
57.7348 1915.00
57.8 2144.00
57.8652 1823.00
57.9304 1702.00
57.9956 1405.00
58.0608 1225.00
58.126 1101.00
58.1912 1132.00
58.2564 1222.00
58.3216 1377.00
58.3868 1671.00
58.452 2012.00
58.5172 2128.00
58.5824 1938.00
58.6476 1781.00
58.7128 1639.00
58.778 1670.00
58.8432 1531.00
58.9084 1507.00
58.9736 1436.00
59.0388 1261.00
59.104 1154.00
59.1692 1038.00
59.2344 954.00
59.2996 923.00
59.3648 874.00
59.43 844.00
59.4952 871.00
59.5604 878.00
59.6256 910.00
59.6908 879.00
59.756 945.00
59.8212 899.00
59.8864 885.00
59.9516 956.00
60.0168 958.00
60.082 995.00
60.1472 1110.00
60.2124 1237.00
60.2776 1406.00
60.3428 1888.00
60.408 2293.00
60.4732 2302.00
60.5384 2367.00
60.6036 2315.00
60.6688 2231.00
60.734 1781.00
60.7992 1578.00
60.8644 1420.00
60.9296 1155.00
60.9948 1055.00
61.06 1039.00
61.1252 936.00
61.1904 897.00
61.2556 969.00
61.3208 959.00
61.386 942.00
61.4512 985.00
61.5164 1049.00
61.5816 1114.00
61.6468 1201.00
61.712 1431.00
61.7772 1639.00
61.8424 1904.00
61.9076 2060.00
61.9727 2174.00
62.0379 2004.00
62.1031 1825.00
62.1683 1602.00
62.2335 1500.00
62.2987 1322.00
62.3639 1432.00
62.4291 1583.00
62.4943 1918.00
62.5595 2102.00
62.6247 1975.00
62.6899 1693.00
62.7551 1580.00
62.8203 1382.00
62.8855 1118.00
62.9507 1094.00
63.0159 1060.00
63.0811 1036.00
63.1463 1092.00
63.2115 1136.00
63.2767 1295.00
63.3419 1493.00
63.4071 1937.00
63.4723 2328.00
63.5375 2218.00
63.6027 1941.00
63.6679 1823.00
63.7331 1512.00
63.7983 1263.00
63.8635 1108.00
63.9287 1007.00
63.9939 899.00
64.0591 965.00
64.1243 882.00
64.1895 882.00
64.2547 936.00
64.3199 957.00
64.3851 910.00
64.4503 907.00
64.5155 956.00
64.5807 1021.00
64.6459 1052.00
64.7111 1213.00
64.7763 1290.00
64.8415 1335.00
64.9067 1409.00
64.9719 1265.00
65.0371 1238.00
65.1023 1182.00
65.1675 1033.00
65.2327 964.00
65.2979 942.00
65.3631 917.00
65.4283 928.00
65.4935 944.00
65.5587 1012.00
65.6239 1078.00
65.6891 1047.00
65.7543 1044.00
65.8195 1231.00
65.8847 1334.00
65.9499 1480.00
66.0151 1742.00
66.0803 1667.00
66.1455 1806.00
66.2107 1903.00
66.2759 2078.00
66.3411 2429.00
66.4063 2446.00
66.4715 2388.00
66.5367 2199.00
66.6019 2033.00
66.6671 1608.00
66.7322 1369.00
66.7974 1154.00
66.8626 1100.00
66.9278 1009.00
66.993 921.00
67.0582 873.00
67.1234 858.00
67.1886 940.00
67.2538 896.00
67.319 903.00
67.3842 847.00
67.4494 897.00
67.5146 860.00
67.5798 808.00
67.645 876.00
67.7102 878.00
67.7754 932.00
67.8406 939.00
67.9058 992.00
67.971 1030.00
68.0362 1008.00
68.1014 1105.00
68.1666 1186.00
68.2318 1226.00
68.297 1285.00
68.3622 1189.00
68.4274 1128.00
68.4926 1051.00
68.5578 1042.00
68.623 975.00
68.6882 918.00
68.7534 849.00
68.8186 884.00
68.8838 805.00
68.949 850.00
69.0142 844.00
69.0794 834.00
69.1446 867.00
69.2098 842.00
69.275 911.00
69.3402 960.00
69.4054 980.00
69.4706 995.00
69.5358 1209.00
69.601 1259.00
69.6662 1246.00
69.7314 1231.00
69.7966 1090.00
69.8618 1039.00
69.927 963.00
69.9922 932.00
70.0574 889.00
70.1226 869.00
70.1878 951.00
70.253 955.00
70.3182 936.00
70.3834 1013.00
70.4486 872.00
70.5138 915.00
70.579 839.00
70.6442 942.00
70.7094 932.00
70.7746 932.00
70.8398 896.00
70.905 930.00
70.9702 896.00
71.0354 921.00
71.1006 937.00
71.1658 908.00
71.231 874.00
71.2962 898.00
71.3614 924.00
71.4266 962.00
71.4918 1008.00
71.5569 1058.00
71.6221 1191.00
71.6873 1464.00
71.7525 1579.00
71.8177 1682.00
71.8829 1677.00
71.9481 1632.00
72.0133 1516.00
72.0785 1429.00
72.1437 1248.00
72.2089 1128.00
72.2741 1057.00
72.3393 972.00
72.4045 1048.00
72.4697 1112.00
72.5349 1124.00
72.6001 1229.00
72.6653 1274.00
72.7305 1268.00
72.7957 1294.00
72.8609 1188.00
72.9261 1091.00
72.9913 1113.00
73.0565 1069.00
73.1217 1028.00
73.1869 1176.00
73.2521 1183.00
73.3173 1232.00
73.3825 1191.00
73.4477 1116.00
73.5129 988.00
73.5781 1040.00
73.6433 985.00
73.7085 942.00
73.7737 966.00
73.8389 825.00
73.9041 874.00
73.9693 908.00
74.0345 949.00
74.0997 865.00
74.1649 929.00
74.2301 982.00
74.2953 939.00
74.3605 917.00
74.4257 906.00
74.4909 901.00
74.5561 886.00
74.6213 875.00
74.6865 845.00
74.7517 877.00
74.8169 834.00
74.8821 852.00
74.9473 908.00
75.0125 959.00
75.0777 1036.00
75.1429 1123.00
75.2081 1162.00
75.2733 1206.00
75.3385 1331.00
75.4037 1444.00
75.4689 1418.00
75.5341 1293.00
75.5993 1337.00
75.6645 1357.00
75.7297 1535.00
75.7949 1617.00
75.8601 1584.00
75.9253 1448.00
75.9905 1408.00
76.0557 1394.00
76.1209 1201.00
76.186 1105.00
76.2513 948.00
76.3165 942.00
76.3816 916.00
76.4468 865.00
76.512 890.00
76.5772 863.00
76.6424 880.00
76.7076 866.00
76.7728 868.00
76.838 933.00
76.9032 928.00
76.9684 1035.00
77.0336 1140.00
77.0988 1225.00
77.164 1208.00
77.2292 1212.00
77.2944 1238.00
77.3596 1139.00
77.4248 1092.00
77.49 1040.00
77.5552 991.00
77.6204 996.00
77.6856 982.00
77.7508 988.00
77.816 1002.00
77.8812 991.00
77.9464 983.00
78.0116 1118.00
78.0768 1192.00
78.142 1076.00
78.2072 1156.00
78.2724 1163.00
78.3376 1124.00
78.4028 1103.00
78.468 1037.00
78.5332 1008.00
78.5984 1029.00
78.6636 1109.00
78.7288 1103.00
78.794 1124.00
78.8592 1024.00
78.9244 1042.00
78.9896 1047.00
79.0548 1042.00
79.12 999.00
79.1852 932.00
79.2504 969.00
79.3156 1039.00
79.3808 1034.00
79.446 1076.00
79.5112 1126.00
79.5764 1263.00
79.6416 1351.00
79.7068 1276.00
79.772 1215.00
79.8372 1193.00
79.9024 1168.00
79.9676 1057.00
80.0328 981.00
80.098 938.00
80.1632 911.00
80.2284 959.00
80.2936 890.00
80.3588 959.00
80.424 930.00
80.4892 911.00
80.5544 924.00
80.6196 919.00
80.6848 938.00
80.75 877.00
80.8152 928.00
80.8804 923.00
80.9456 899.00
81.0108 910.00
81.076 903.00
81.1412 963.00
81.2063 1003.00
81.2715 976.00
81.3367 962.00
81.4019 1024.00
81.4671 980.00
81.5323 927.00
81.5975 908.00
81.6627 953.00
81.7279 976.00
81.7931 945.00
81.8583 1014.00
81.9235 1065.00
81.9887 1024.00
82.0539 1075.00
82.1191 1066.00
82.1843 1248.00
82.2495 1276.00
82.3147 1364.00
82.3799 1293.00
82.4451 1247.00
82.5103 1172.00
82.5755 1211.00
82.6407 1128.00
82.7059 1099.00
82.7711 1153.00
82.8363 1052.00
82.9015 1090.00
82.9667 1088.00
83.0319 1139.00
83.0971 1175.00
83.1623 1166.00
83.2275 1271.00
83.2927 1393.00
83.3579 1320.00
83.4231 1371.00
83.4883 1297.00
83.5535 1369.00
83.6187 1264.00
83.6839 1330.00
83.7491 1293.00
83.8143 1435.00
83.8795 1450.00
83.9447 1445.00
84.0099 1368.00
84.0751 1408.00
84.1403 1389.00
84.2055 1206.00
84.2707 1206.00
84.3359 1121.00
84.4011 1216.00
84.4663 1154.00
84.5315 1179.00
84.5967 1272.00
84.6619 1358.00
84.7271 1454.00
84.7923 1322.00
84.8575 1335.00
84.9227 1456.00
84.9879 1445.00
85.0531 1280.00
85.1183 1260.00
85.1835 1173.00
85.2487 1129.00
85.3139 1095.00
85.3791 1074.00
85.4443 1048.00
85.5095 1002.00
85.5747 1084.00
85.6399 1207.00
85.7051 1261.00
85.7703 1139.00
85.8354 1068.00
85.9006 1063.00
85.9659 1080.00
86.031 1089.00
86.0962 984.00
86.1614 918.00
86.2266 917.00
86.2918 964.00
86.357 907.00
86.4222 923.00
86.4874 946.00
86.5526 958.00
86.6178 1029.00
86.683 1038.00
86.7482 1066.00
86.8134 1123.00
86.8786 1197.00
86.9438 1245.00
87.009 1113.00
87.0742 1079.00
87.1394 1131.00
87.2046 1032.00
87.2698 977.00
87.335 987.00
87.4002 993.00
87.4654 960.00
87.5306 901.00
87.5958 937.00
87.661 1003.00
87.7262 940.00
87.7914 982.00
87.8566 992.00
87.9218 1004.00
87.987 1027.00
88.0522 1032.00
88.1174 1101.00
88.1826 1201.00
88.2478 1274.00
88.313 1279.00
88.3782 1197.00
88.4434 1226.00
88.5086 1191.00
88.5738 1192.00
88.639 1175.00
88.7042 1150.00
88.7694 1167.00
88.8346 1135.00
88.8998 1283.00
88.965 1372.00
89.0302 1438.00
89.0954 1325.00
89.1606 1281.00
89.2258 1359.00
89.291 1428.00
89.3562 1534.00
89.4214 1484.00
89.4866 1325.00
89.5518 1257.00
89.617 1252.00
89.6822 1288.00
89.7474 1158.00
89.8126 1139.00
89.8778 1166.00
89.943 1223.00
90.0082 1247.00
90.0734 1238.00
90.1386 1178.00
90.2038 1254.00
90.269 1268.00
90.3342 1201.00
90.3994 1302.00
90.4646 1356.00
90.5298 1393.00
90.595 1446.00
90.6601 1378.00
90.7253 1416.00
90.7905 1296.00
90.8557 1289.00
90.9209 1192.00
90.9861 1211.00
91.0513 1087.00
91.1165 1068.00
91.1817 1020.00
91.2469 1004.00
91.3121 1018.00
91.3773 1040.00
91.4425 1061.00
91.5077 1074.00
91.5729 1062.00
91.6381 1042.00
91.7033 970.00
91.7685 1033.00
91.8337 1044.00
91.8989 1075.00
91.9641 1032.00
92.0293 1079.00
92.0945 1125.00
92.1597 1158.00
92.2249 1096.00
92.2901 1096.00
92.3553 1010.00
92.4205 1033.00
92.4857 1033.00
92.5509 1068.00
92.6161 973.00
92.6813 949.00
92.7465 946.00
92.8117 959.00
92.8769 936.00
92.9421 947.00
93.0073 941.00
93.0725 897.00
93.1377 888.00
93.2029 969.00
93.2681 913.00
93.3333 964.00
93.3985 964.00
93.4637 905.00
93.5289 952.00
93.5941 862.00
93.6593 939.00
93.7245 941.00
93.7897 1033.00
93.8549 1000.00
93.9201 938.00
93.9853 981.00
94.0505 953.00
94.1157 942.00
94.1809 992.00
94.2461 1025.00
94.3113 958.00
94.3765 977.00
94.4417 1028.00
94.5069 1083.00
94.5721 1099.00
94.6373 1181.00
94.7025 1235.00
94.7677 1230.00
94.8329 1049.00
94.8981 1153.00
94.9633 1114.00
95.0285 1136.00
95.0937 1018.00
95.1589 1055.00
95.2241 988.00
95.2893 970.00
95.3545 1116.00
95.4197 999.00
95.4848 1032.00
95.55 1154.00
95.6153 1117.00
95.6804 1221.00
95.7456 1187.00
95.8108 1253.00
95.876 1246.00
95.9412 1407.00
96.0064 1365.00
96.0716 1367.00
96.1368 1304.00
96.202 1252.00
96.2672 1192.00
96.3324 1236.00
96.3976 1217.00
96.4628 1081.00
96.528 1087.00
96.5932 1061.00
96.6584 1045.00
96.7236 1119.00
96.7888 1103.00
96.854 1123.00
96.9192 1259.00
96.9844 1287.00
97.0496 1413.00
97.1148 1319.00
97.18 1303.00
97.2452 1361.00
97.3104 1432.00
97.3756 1603.00
97.4408 1532.00
97.506 1582.00
97.5712 1559.00
97.6364 1466.00
97.7016 1566.00
97.7668 1668.00
97.832 1682.00
97.8972 1628.00
97.9624 1432.00
98.0276 1356.00
98.0928 1304.00
98.158 1336.00
98.2232 1238.00
98.2884 1219.00
98.3536 1217.00
98.4188 1160.00
98.484 1120.00
98.5492 1130.00
98.6144 1107.00
98.6796 1111.00
98.7448 1164.00
98.81 1225.00
98.8752 1428.00
98.9404 1439.00
99.0056 1327.00
99.0708 1330.00
99.136 1255.00
99.2012 1286.00
99.2664 1303.00
99.3316 1216.00
99.3968 1300.00
99.462 1298.00
99.5272 1320.00
99.5924 1330.00
99.6576 1413.00
99.7228 1441.00
99.788 1355.00
99.8532 1319.00
99.9184 1330.00
99.9836 1347.00
99.9944 1403.00