File: data/xrd_creation/results/PG_1839-1.xy
9.903433 2569.00
9.968632 2590.00
10.0338 2583.00
10.099 2639.00
10.1642 2557.00
10.2294 2508.00
10.2946 2514.00
10.3598 2493.00
10.425 2462.00
10.4902 2455.00
10.5554 2516.00
10.6206 2454.00
10.6858 2393.00
10.751 2443.00
10.8162 2426.00
10.8814 2340.00
10.9466 2355.00
11.0118 2368.00
11.077 2276.00
11.1422 2336.00
11.2074 2325.00
11.2726 2295.00
11.3378 2189.00
11.403 2269.00
11.4682 2258.00
11.5334 2210.00
11.5986 2248.00
11.6638 2259.00
11.729 2204.00
11.7942 2124.00
11.8594 2096.00
11.9246 2076.00
11.9898 2161.00
12.055 2089.00
12.1202 2135.00
12.1854 2095.00
12.2506 2097.00
12.3158 2043.00
12.381 2005.00
12.4462 2012.00
12.5114 1912.00
12.5766 2041.00
12.6418 1922.00
12.707 1878.00
12.7722 2067.00
12.8374 1948.00
12.9026 1940.00
12.9678 1955.00
13.033 1969.00
13.0982 1930.00
13.1634 1955.00
13.2286 1882.00
13.2938 1973.00
13.359 1863.00
13.4242 1898.00
13.4894 1898.00
13.5546 1769.00
13.6198 1818.00
13.685 1831.00
13.7502 1801.00
13.8154 1810.00
13.8805 1872.00
13.9457 1723.00
14.0109 1692.00
14.0761 1790.00
14.1413 1742.00
14.2065 1722.00
14.2717 1703.00
14.3369 1672.00
14.4021 1708.00
14.4673 1694.00
14.5325 1751.00
14.5977 1793.00
14.6629 1795.00
14.7281 1813.00
14.7933 1665.00
14.8585 1728.00
14.9237 1781.00
14.9889 1797.00
15.0541 1767.00
15.1193 1742.00
15.1845 1701.00
15.2497 1705.00
15.3149 1679.00
15.3801 1591.00
15.4453 1653.00
15.5105 1667.00
15.5757 1725.00
15.6409 1654.00
15.7061 1736.00
15.7713 1634.00
15.8365 1681.00
15.9017 1685.00
15.9669 1628.00
16.0321 1600.00
16.0973 1633.00
16.1625 1679.00
16.2277 1566.00
16.2929 1611.00
16.3581 1584.00
16.4233 1634.00
16.4885 1585.00
16.5537 1649.00
16.6189 1534.00
16.6841 1654.00
16.7493 1646.00
16.8145 1670.00
16.8797 1590.00
16.9449 1640.00
17.0101 1568.00
17.0753 1561.00
17.1405 1545.00
17.2057 1564.00
17.2709 1568.00
17.3361 1633.00
17.4013 1624.00
17.4665 1638.00
17.5317 1600.00
17.5969 1590.00
17.6621 1554.00
17.7273 1497.00
17.7925 1594.00
17.8577 1499.00
17.9229 1551.00
17.9881 1634.00
18.0533 1587.00
18.1185 1586.00
18.1837 1492.00
18.2489 1520.00
18.3141 1508.00
18.3793 1468.00
18.4445 1590.00
18.5097 1561.00
18.5749 1537.00
18.6401 1499.00
18.7052 1454.00
18.7704 1512.00
18.8356 1503.00
18.9008 1493.00
18.966 1482.00
19.0312 1509.00
19.0964 1540.00
19.1616 1493.00
19.2268 1463.00
19.292 1486.00
19.3572 1436.00
19.4224 1419.00
19.4876 1468.00
19.5528 1497.00
19.618 1427.00
19.6832 1516.00
19.7484 1418.00
19.8136 1404.00
19.8788 1468.00
19.944 1475.00
20.0092 1369.00
20.0744 1468.00
20.1396 1402.00
20.2048 1404.00
20.27 1399.00
20.3352 1451.00
20.4004 1374.00
20.4656 1390.00
20.5308 1362.00
20.596 1470.00
20.6612 1380.00
20.7264 1452.00
20.7916 1425.00
20.8568 1473.00
20.922 1386.00
20.9872 1409.00
21.0524 1437.00
21.1176 1431.00
21.1828 1344.00
21.248 1393.00
21.3132 1520.00
21.3784 1587.00
21.4436 1574.00
21.5088 1754.00
21.574 1834.00
21.6392 2038.00
21.7044 2091.00
21.7696 2418.00
21.8348 2253.00
21.9 1737.00
21.9652 1494.00
22.0304 1392.00
22.0956 1420.00
22.1608 1424.00
22.226 1382.00
22.2912 1375.00
22.3564 1338.00
22.4216 1305.00
22.4868 1384.00
22.552 1283.00
22.6172 1332.00
22.6824 1291.00
22.7476 1336.00
22.8128 1300.00
22.878 1268.00
22.9432 1320.00
23.0084 1308.00
23.0736 1393.00
23.1388 1295.00
23.204 1311.00
23.2692 1297.00
23.3344 1347.00
23.3996 1292.00
23.4647 1339.00
23.5299 1278.00
23.5951 1331.00
23.6603 1336.00
23.7255 1273.00
23.7907 1348.00
23.8559 1340.00
23.9211 1324.00
23.9863 1306.00
24.0515 1302.00
24.1167 1294.00
24.1819 1229.00
24.2471 1293.00
24.3123 1262.00
24.3775 1290.00
24.4427 1274.00
24.5079 1297.00
24.5731 1254.00
24.6383 1212.00
24.7035 1259.00
24.7687 1264.00
24.8339 1213.00
24.8991 1263.00
24.9643 1169.00
25.0295 1254.00
25.0947 1310.00
25.1599 1250.00
25.2251 1238.00
25.2903 1249.00
25.3555 1251.00
25.4207 1280.00
25.4859 1186.00
25.5511 1192.00
25.6163 1249.00
25.6815 1201.00
25.7467 1173.00
25.8119 1235.00
25.8771 1210.00
25.9423 1337.00
26.0075 1220.00
26.0727 1245.00
26.1379 1150.00
26.2031 1225.00
26.2683 1235.00
26.3335 1249.00
26.3987 1203.00
26.4639 1207.00
26.5291 1220.00
26.5943 1205.00
26.6595 1129.00
26.7247 1159.00
26.7899 1216.00
26.8551 1084.00
26.9203 1088.00
26.9855 1250.00
27.0507 1176.00
27.1159 1137.00
27.1811 1157.00
27.2463 1180.00
27.3115 1177.00
27.3767 1213.00
27.4419 1177.00
27.5071 1140.00
27.5723 1263.00
27.6375 1170.00
27.7027 1104.00
27.7679 1161.00
27.8331 1245.00
27.8983 1186.00
27.9635 1267.00
28.0287 1171.00
28.0939 1163.00
28.1591 1130.00
28.2243 1230.00
28.2894 1170.00
28.3546 1140.00
28.4198 1136.00
28.485 1177.00
28.5502 1141.00
28.6154 1162.00
28.6806 1080.00
28.7458 1096.00
28.811 1118.00
28.8762 1098.00
28.9414 1184.00
29.0066 1172.00
29.0718 1113.00
29.137 1153.00
29.2022 1134.00
29.2674 1194.00
29.3326 1192.00
29.3978 1104.00
29.463 1155.00
29.5282 1164.00
29.5934 1213.00
29.6586 1210.00
29.7238 1190.00
29.789 1189.00
29.8542 1105.00
29.9194 1245.00
29.9846 1264.00
30.0498 1284.00
30.115 1278.00
30.1802 1265.00
30.2454 1423.00
30.3106 1502.00
30.3758 1644.00
30.441 2015.00
30.5062 2779.00
30.5714 4124.00
30.6366 5821.00
30.7018 7657.00
30.767 9293.00
30.8322 12076.00
30.8974 13228.00
30.9626 7706.00
31.0278 3223.00
31.093 1956.00
31.1582 1610.00
31.2234 1504.00
31.2886 1382.00
31.3538 1295.00
31.419 1297.00
31.4842 1193.00
31.5494 1205.00
31.6146 1245.00
31.6798 1136.00
31.745 1158.00
31.8102 1184.00
31.8754 1181.00
31.9406 1157.00
32.0058 1205.00
32.071 1133.00
32.1362 1144.00
32.2014 1142.00
32.2666 1129.00
32.3318 1078.00
32.397 1133.00
32.4622 1210.00
32.5274 1116.00
32.5926 1087.00
32.6578 1073.00
32.723 1118.00
32.7882 1064.00
32.8534 1081.00
32.9186 1158.00
32.9838 1163.00
33.0489 1132.00
33.1141 1070.00
33.1793 1182.00
33.2445 1177.00
33.3097 1196.00
33.3749 1280.00
33.4401 1197.00
33.5053 1154.00
33.5705 1099.00
33.6357 1041.00
33.7009 1036.00
33.7661 1092.00
33.8313 1011.00
33.8965 1118.00
33.9617 1136.00
34.0269 1077.00
34.0921 1120.00
34.1573 1128.00
34.2225 1064.00
34.2877 1129.00
34.3529 1077.00
34.4181 1029.00
34.4833 1069.00
34.5485 1150.00
34.6137 1127.00
34.6789 1126.00
34.7441 1119.00
34.8093 1085.00
34.8745 1118.00
34.9397 1113.00
35.0049 1147.00
35.0701 1090.00
35.1353 1180.00
35.2005 1165.00
35.2657 1183.00
35.3309 1368.00
35.3961 1614.00
35.4613 2034.00
35.5265 2579.00
35.5917 3219.00
35.6569 3932.00
35.7221 4888.00
35.7873 4463.00
35.8525 2969.00
35.9177 1624.00
35.9829 1269.00
36.0481 1188.00
36.1133 1116.00
36.1785 1201.00
36.2437 1093.00
36.3089 1138.00
36.3741 1081.00
36.4393 1073.00
36.5045 1077.00
36.5697 1064.00
36.6349 1055.00
36.7001 1130.00
36.7653 1106.00
36.8305 1069.00
36.8957 1033.00
36.9609 1027.00
37.0261 1089.00
37.0913 1129.00
37.1565 1222.00
37.2217 1357.00
37.2869 1607.00
37.3521 1973.00
37.4173 2275.00
37.4825 2756.00
37.5477 3117.00
37.6129 2513.00
37.6781 1892.00
37.7433 1583.00
37.8085 1598.00
37.8736 1628.00
37.9388 1744.00
38.004 1795.00
38.0692 1454.00
38.1344 1232.00
38.1996 1062.00
38.2648 1053.00
38.33 1053.00
38.3952 1109.00
38.4604 1023.00
38.5256 1076.00
38.5908 1081.00
38.656 1012.00
38.7212 1046.00
38.7864 1097.00
38.8516 1035.00
38.9168 1076.00
38.982 1041.00
39.0472 1041.00
39.1124 1019.00
39.1776 1050.00
39.2428 1039.00
39.308 1006.00
39.3732 1088.00
39.4384 1017.00
39.5036 1032.00
39.5688 1007.00
39.634 999.00
39.6992 977.00
39.7644 1058.00
39.8296 1087.00
39.8948 1079.00
39.96 1083.00
40.0252 1121.00
40.0904 1194.00
40.1556 1135.00
40.2208 1109.00
40.286 1043.00
40.3512 1014.00
40.4164 980.00
40.4816 1033.00
40.5468 1004.00
40.612 1030.00
40.6772 1024.00
40.7424 1012.00
40.8076 976.00
40.8728 988.00
40.938 1035.00
41.0032 1014.00
41.0684 1028.00
41.1336 997.00
41.1988 1046.00
41.264 985.00
41.3292 972.00
41.3944 984.00
41.4596 993.00
41.5248 1010.00
41.59 1020.00
41.6552 1037.00
41.7204 1022.00
41.7856 1095.00
41.8508 1201.00
41.916 1231.00
41.9812 1362.00
42.0464 1508.00
42.1116 1624.00
42.1768 1486.00
42.242 1319.00
42.3072 1153.00
42.3724 988.00
42.4376 983.00
42.5028 1002.00
42.568 1044.00
42.6332 1035.00
42.6983 989.00
42.7635 1012.00
42.8287 1003.00
42.8939 1056.00
42.9591 982.00
43.0243 1068.00
43.0895 1048.00
43.1547 1083.00
43.2199 1339.00
43.2851 1751.00
43.3503 2232.00
43.4155 2701.00
43.4807 3541.00
43.5459 4602.00
43.6111 4037.00
43.6763 2864.00
43.7415 1845.00
43.8067 1265.00
43.8719 1162.00
43.9371 1155.00
44.0023 1169.00
44.0675 1192.00
44.1327 1121.00
44.1979 1066.00
44.2631 1060.00
44.3283 1046.00
44.3935 1036.00
44.4587 1002.00
44.5239 977.00
44.5891 987.00
44.6543 973.00
44.7195 1032.00
44.7847 948.00
44.8499 1017.00
44.9151 1010.00
44.9803 1048.00
45.0455 976.00
45.1107 992.00
45.1759 997.00
45.2411 983.00
45.3063 1002.00
45.3715 1021.00
45.4367 1040.00
45.5019 1096.00
45.5671 1069.00
45.6323 1140.00
45.6975 1288.00
45.7627 1521.00
45.8279 1710.00
45.8931 1936.00
45.9583 2457.00
46.0235 1834.00
46.0887 1656.00
46.1539 1196.00
46.2191 1047.00
46.2843 1057.00
46.3495 1008.00
46.4147 1014.00
46.4799 1002.00
46.5451 1015.00
46.6103 1011.00
46.6755 1007.00
46.7407 1033.00
46.8059 987.00
46.8711 1001.00
46.9363 960.00
47.0015 979.00
47.0667 1008.00
47.1319 955.00
47.1971 991.00
47.2623 973.00
47.3275 1059.00
47.3927 1018.00
47.4579 1034.00
47.523 902.00
47.5882 987.00
47.6534 997.00
47.7186 968.00
47.7838 1000.00
47.849 951.00
47.9142 976.00
47.9794 947.00
48.0446 952.00
48.1098 976.00
48.175 969.00
48.2402 939.00
48.3054 947.00
48.3706 1008.00
48.4358 969.00
48.501 909.00
48.5662 934.00
48.6314 943.00
48.6966 1003.00
48.7618 960.00
48.827 1011.00
48.8922 992.00
48.9574 973.00
49.0226 968.00
49.0878 982.00
49.153 1018.00
49.2182 1028.00
49.2834 1045.00
49.3486 1140.00
49.4138 1219.00
49.479 1219.00
49.5442 1375.00
49.6094 1291.00
49.6746 1227.00
49.7398 1174.00
49.805 1039.00
49.8702 1050.00
49.9354 993.00
50.0006 1039.00
50.0658 972.00
50.131 1021.00
50.1962 1033.00
50.2614 1028.00
50.3266 1030.00
50.3918 980.00
50.457 1059.00
50.5222 1089.00
50.5874 1082.00
50.6526 1057.00
50.7178 1101.00
50.783 1185.00
50.8482 1291.00
50.9134 1565.00
50.9786 1870.00
51.0438 2685.00
51.109 3421.00
51.1742 4218.00
51.2394 5884.00
51.3046 6384.00
51.3698 4158.00
51.435 3708.00
51.5002 2074.00
51.5654 1429.00
51.6306 1214.00
51.6958 1218.00
51.761 1142.00
51.8262 1123.00
51.8914 1119.00
51.9566 1001.00
52.0218 1024.00
52.087 996.00
52.1522 998.00
52.2174 1018.00
52.2826 953.00
52.3477 1038.00
52.4129 1010.00
52.4781 1003.00
52.5433 1039.00
52.6085 998.00
52.6737 1068.00
52.7389 1141.00
52.8041 1141.00
52.8693 1165.00
52.9345 1263.00
52.9997 1307.00
53.0649 1173.00
53.1301 1136.00
53.1953 1080.00
53.2605 1041.00
53.3257 1000.00
53.3909 988.00
53.4561 974.00
53.5213 1010.00
53.5865 947.00
53.6517 1009.00
53.7169 991.00
53.7821 967.00
53.8473 1014.00
53.9125 988.00
53.9777 968.00
54.0429 985.00
54.1081 1034.00
54.1733 975.00
54.2385 1027.00
54.3037 958.00
54.3689 1013.00
54.4341 1036.00
54.4993 1063.00
54.5645 1111.00
54.6297 1029.00
54.6949 1003.00
54.7601 978.00
54.8253 963.00
54.8905 978.00
54.9557 1026.00
55.0209 958.00
55.0861 977.00
55.1513 997.00
55.2165 969.00
55.2817 979.00
55.3469 962.00
55.4121 1050.00
55.4773 902.00
55.5425 999.00
55.6077 988.00
55.6729 987.00
55.7381 1017.00
55.8033 1083.00
55.8685 1038.00
55.9337 1171.00
55.9989 1257.00
56.0641 1363.00
56.1293 1412.00
56.1945 1636.00
56.2597 1696.00
56.3249 1392.00
56.3901 1315.00
56.4553 1226.00
56.5205 1081.00
56.5857 982.00
56.6509 923.00
56.7161 964.00
56.7813 976.00
56.8465 966.00
56.9117 935.00
56.9769 981.00
57.042 1000.00
57.1073 998.00
57.1724 998.00
57.2376 962.00
57.3028 957.00
57.368 984.00
57.4332 1002.00
57.4984 1037.00
57.5636 1007.00
57.6288 1076.00
57.694 1117.00
57.7592 1136.00
57.8244 1244.00
57.8896 1093.00
57.9548 1048.00
58.02 1056.00
58.0852 1017.00
58.1504 999.00
58.2156 953.00
58.2808 958.00
58.346 1012.00
58.4112 1008.00
58.4764 941.00
58.5416 1007.00
58.6068 993.00
58.672 1052.00
58.7372 989.00
58.8024 969.00
58.8676 1053.00
58.9328 1005.00
58.998 1038.00
59.0632 1083.00
59.1284 1183.00
59.1936 1275.00
59.2588 1390.00
59.324 1463.00
59.3892 1638.00
59.4544 1359.00
59.5196 1350.00
59.5848 1276.00
59.65 1102.00
59.7152 977.00
59.7804 1035.00
59.8456 1090.00
59.9108 1044.00
59.976 1064.00
60.0412 1044.00
60.1064 1024.00
60.1716 1032.00
60.2368 1077.00
60.302 1089.00
60.3672 1057.00
60.4324 1194.00
60.4976 1304.00
60.5628 1583.00
60.628 1858.00
60.6932 2460.00
60.7584 3055.00
60.8236 3701.00
60.8888 4910.00
60.954 4304.00
61.0192 3106.00
61.0844 2890.00
61.1496 1859.00
61.2148 1411.00
61.28 1322.00
61.3452 1150.00
61.4104 1074.00
61.4756 1098.00
61.5408 1072.00
61.606 1053.00
61.6712 1097.00
61.7364 986.00
61.8016 1047.00
61.8667 1030.00
61.932 1051.00
61.9971 1018.00
62.0623 1125.00
62.1275 1183.00
62.1927 1329.00
62.2579 1456.00
62.3231 1590.00
62.3883 1807.00
62.4535 1852.00
62.5187 1481.00
62.5839 1492.00
62.6491 1285.00
62.7143 1204.00
62.7795 1381.00
62.8447 1452.00
62.9099 1620.00
62.9751 1931.00
63.0403 2350.00
63.1055 2725.00
63.1707 2498.00
63.2359 2062.00
63.3011 1939.00
63.3663 1536.00
63.4315 1287.00
63.4967 1145.00
63.5619 1134.00
63.6271 1273.00
63.6923 1350.00
63.7575 1385.00
63.8227 1522.00
63.8879 1765.00
63.9531 1596.00
64.0183 1379.00
64.0835 1350.00
64.1487 1233.00
64.2139 1093.00
64.2791 1134.00
64.3443 1070.00
64.4095 1006.00
64.4747 1002.00
64.5399 948.00
64.6051 983.00
64.6703 1037.00
64.7355 1010.00
64.8007 1036.00
64.8659 1045.00
64.9311 972.00
64.9963 933.00
65.0615 1030.00
65.1267 1108.00
65.1919 1135.00
65.2571 1157.00
65.3223 1270.00
65.3875 1349.00
65.4527 1162.00
65.5179 1160.00
65.5831 1137.00
65.6483 1076.00
65.7135 1017.00
65.7787 983.00
65.8439 1018.00
65.9091 1016.00
65.9743 1003.00
66.0395 981.00
66.1047 995.00
66.1699 1039.00
66.2351 1004.00
66.3003 1016.00
66.3655 1002.00
66.4307 1003.00
66.4959 1022.00
66.561 1021.00
66.6263 1053.00
66.6915 1121.00
66.7566 1137.00
66.8218 1168.00
66.887 1146.00
66.9522 1131.00
67.0174 1100.00
67.0826 1045.00
67.1478 974.00
67.213 976.00
67.2782 1015.00
67.3434 1025.00
67.4086 991.00
67.4738 1032.00
67.539 1059.00
67.6042 1038.00
67.6694 1040.00
67.7346 1031.00
67.7998 1008.00
67.865 960.00
67.9302 1003.00
67.9954 1046.00
68.0606 1186.00
68.1258 1206.00
68.191 1302.00
68.2562 1483.00
68.3214 1354.00
68.3866 1222.00
68.4518 1208.00
68.517 1130.00
68.5822 1032.00
68.6474 986.00
68.7126 971.00
68.7778 1014.00
68.843 1049.00
68.9082 1017.00
68.9734 1004.00
69.0386 974.00
69.1038 995.00
69.169 964.00
69.2342 984.00
69.2994 1026.00
69.3646 1092.00
69.4298 1086.00
69.495 1121.00
69.5602 1098.00
69.6254 1208.00
69.6906 1223.00
69.7558 1139.00
69.821 1145.00
69.8862 1109.00
69.9514 1046.00
70.0166 1070.00
70.0818 1001.00
70.147 1008.00
70.2122 997.00
70.2774 1058.00
70.3426 976.00
70.4078 957.00
70.473 1002.00
70.5382 1016.00
70.6034 1025.00
70.6686 978.00
70.7338 1012.00
70.799 1021.00
70.8642 1016.00
70.9294 940.00
70.9946 989.00
71.0598 1003.00
71.125 996.00
71.1902 1003.00
71.2554 955.00
71.3205 952.00
71.3858 980.00
71.451 1053.00
71.5162 985.00
71.5813 957.00
71.6465 970.00
71.7117 1017.00
71.7769 977.00
71.8421 952.00
71.9073 1022.00
71.9725 933.00
72.0377 973.00
72.1029 1039.00
72.1681 1060.00
72.2333 964.00
72.2985 1038.00
72.3637 1019.00
72.4289 942.00
72.4941 1053.00
72.5593 1002.00
72.6245 1000.00
72.6897 1017.00
72.7549 962.00
72.8201 1032.00
72.8853 983.00
72.9505 999.00
73.0157 1021.00
73.0809 1030.00
73.1461 1034.00
73.2113 990.00
73.2765 975.00
73.3417 1010.00
73.4069 1026.00
73.4721 1041.00
73.5373 1025.00
73.6025 1053.00
73.6677 1094.00
73.7329 1199.00
73.7981 1208.00
73.8633 1299.00
73.9285 1287.00
73.9937 1160.00
74.0589 1151.00
74.1241 1210.00
74.1893 1145.00
74.2545 1039.00
74.3197 1078.00
74.3849 999.00
74.4501 1034.00
74.5153 990.00
74.5805 1033.00
74.6457 972.00
74.7109 1035.00
74.7761 1098.00
74.8413 1061.00
74.9065 1097.00
74.9717 1156.00
75.0369 1208.00
75.1021 1343.00
75.1673 1415.00
75.2325 1584.00
75.2977 1590.00
75.3629 1409.00
75.4281 1419.00
75.4933 1553.00
75.5585 1586.00
75.6237 1718.00
75.6889 1675.00
75.7541 1452.00
75.8193 1436.00
75.8845 1343.00
75.9497 1145.00
76.0149 1088.00
76.0801 1060.00
76.1452 1014.00
76.2104 990.00
76.2756 1098.00
76.3409 1190.00
76.406 1136.00
76.4712 1206.00
76.5364 1309.00
76.6016 1420.00
76.6668 1528.00
76.732 1328.00
76.7972 1252.00
76.8624 1240.00
76.9276 1099.00
76.9928 1084.00
77.058 1001.00
77.1232 1015.00
77.1884 1012.00
77.2536 1036.00
77.3188 1111.00
77.384 1075.00
77.4492 1029.00
77.5144 1045.00
77.5796 1013.00
77.6448 1083.00
77.71 1085.00
77.7752 1100.00
77.8404 1158.00
77.9056 1196.00
77.9708 1323.00
78.036 1349.00
78.1012 1209.00
78.1664 1158.00
78.2316 1212.00
78.2968 1087.00
78.362 1032.00
78.4272 1068.00
78.4924 1024.00
78.5576 1036.00
78.6228 1047.00
78.688 973.00
78.7532 1027.00
78.8184 1042.00
78.8836 1034.00
78.9488 1063.00
79.014 1034.00
79.0792 1156.00
79.1444 1136.00
79.2096 1242.00
79.2748 1276.00
79.34 1500.00
79.4052 1422.00
79.4704 1408.00
79.5356 1547.00
79.6008 1615.00
79.666 1443.00
79.7312 1340.00
79.7964 1344.00
79.8616 1333.00
79.9268 1220.00
79.992 1141.00
80.0572 1013.00
80.1224 1060.00
80.1876 1005.00
80.2528 1024.00
80.318 1033.00
80.3832 1065.00
80.4484 1090.00
80.5136 1148.00
80.5788 1122.00
80.644 1195.00
80.7092 1225.00
80.7744 1092.00
80.8396 1066.00
80.9048 1167.00
80.9699 1139.00
81.0351 1022.00
81.1003 1054.00
81.1655 1002.00
81.2307 1086.00
81.2959 1020.00
81.3611 1045.00
81.4263 1027.00
81.4915 1077.00
81.5567 998.00
81.6219 1110.00
81.6871 1092.00
81.7523 1179.00
81.8175 1193.00
81.8827 1261.00
81.9479 1384.00
82.0131 1544.00
82.0783 1436.00
82.1435 1255.00
82.2087 1175.00
82.2739 1327.00
82.3391 1221.00
82.4043 1087.00
82.4695 1088.00
82.5347 1105.00
82.5999 1067.00
82.6651 1057.00
82.7303 1064.00
82.7955 1106.00
82.8607 1056.00
82.9259 1134.00
82.9911 1175.00
83.0563 1227.00
83.1215 1376.00
83.1867 1475.00
83.2519 1683.00
83.3171 1924.00
83.3823 2033.00
83.4475 1685.00
83.5127 1531.00
83.5779 1539.00
83.6431 1428.00
83.7083 1269.00
83.7735 1166.00
83.8387 1113.00
83.9039 1086.00
83.9691 1063.00
84.0343 1017.00
84.0995 1097.00
84.1647 1093.00
84.2299 1072.00
84.2951 1081.00
84.3603 1084.00
84.4255 1038.00
84.4907 1063.00
84.5559 1059.00
84.6211 1015.00
84.6863 1088.00
84.7515 1045.00
84.8167 1000.00
84.8819 977.00
84.9471 1015.00
85.0123 1095.00
85.0775 1029.00
85.1427 1088.00
85.2079 1046.00
85.2731 1072.00
85.3383 1096.00
85.4035 1058.00
85.4687 1094.00
85.5339 1088.00
85.5991 1162.00
85.6643 1191.00
85.7295 1159.00
85.7946 1322.00
85.8598 1339.00
85.925 1513.00
85.9903 1686.00
86.0554 1656.00
86.1206 1420.00
86.1858 1315.00
86.251 1402.00
86.3162 1381.00
86.3814 1197.00
86.4466 1141.00
86.5118 1133.00
86.577 1016.00
86.6422 1057.00
86.7074 1042.00
86.7726 1069.00
86.8378 1038.00
86.903 1048.00
86.9682 1077.00
87.0334 1069.00
87.0986 1095.00
87.1638 1100.00
87.229 1074.00
87.2942 1108.00
87.3594 1162.00
87.4246 1140.00
87.4898 1110.00
87.555 1135.00
87.6202 1102.00
87.6854 1081.00
87.7506 1116.00
87.8158 1043.00
87.881 1049.00
87.9462 1049.00
88.0114 1039.00
88.0766 1083.00
88.1418 1050.00
88.207 1084.00
88.2722 1145.00
88.3374 1016.00
88.4026 1098.00
88.4678 1101.00
88.533 1201.00
88.5982 1173.00
88.6634 1200.00
88.7286 1196.00
88.7938 1128.00
88.859 1064.00
88.9242 1135.00
88.9894 1173.00
89.0546 1064.00
89.1198 1073.00
89.185 1060.00
89.2502 1042.00
89.3154 1079.00
89.3806 1065.00
89.4458 1169.00
89.511 1059.00
89.5762 1109.00
89.6414 1037.00
89.7066 1129.00
89.7718 1187.00
89.837 1176.00
89.9022 1285.00
89.9674 1366.00
90.0326 1348.00
90.0978 1256.00
90.163 1171.00
90.2282 1216.00
90.2934 1219.00
90.3586 1165.00
90.4238 1078.00
90.489 1121.00
90.5542 1022.00
90.6193 1128.00
90.6845 1055.00
90.7497 1071.00
90.8149 1110.00
90.8801 1084.00
90.9453 1032.00
91.0105 1079.00
91.0757 1111.00
91.1409 1019.00
91.2061 1065.00
91.2713 1080.00
91.3365 1158.00
91.4017 1024.00
91.4669 1078.00
91.5321 1094.00
91.5973 1069.00
91.6625 1085.00
91.7277 1057.00
91.7929 1086.00
91.8581 1004.00
91.9233 1001.00
91.9885 1083.00
92.0537 1078.00
92.1189 1048.00
92.1841 1082.00
92.2493 1112.00
92.3145 1139.00
92.3797 1122.00
92.4449 1201.00
92.5101 1208.00
92.5753 1315.00
92.6405 1408.00
92.7057 1377.00
92.7709 1192.00
92.8361 1231.00
92.9013 1235.00
92.9665 1287.00
93.0317 1109.00
93.0969 1092.00
93.1621 1080.00
93.2273 1056.00
93.2925 1102.00
93.3577 1066.00
93.4229 1058.00
93.4881 1126.00
93.5533 1119.00
93.6185 1068.00
93.6837 1071.00
93.7489 1070.00
93.8141 1073.00
93.8793 1036.00
93.9445 1116.00
94.0097 1106.00
94.0749 1114.00
94.1401 1051.00
94.2053 1097.00
94.2705 1042.00
94.3357 1135.00
94.4009 1087.00
94.4661 1048.00
94.5313 1081.00
94.5965 1102.00
94.6617 1111.00
94.7269 1100.00
94.7921 1092.00
94.8573 1122.00
94.9225 1172.00
94.9877 1177.00
95.0529 1214.00
95.1181 1369.00
95.1833 1473.00
95.2485 1496.00
95.3137 1528.00
95.3789 1422.00
95.444 1282.00
95.5092 1279.00
95.5744 1339.00
95.6396 1301.00
95.7048 1241.00
95.77 1209.00
95.8352 1114.00
95.9004 1167.00
95.9656 1120.00
96.0308 1088.00
96.096 1085.00
96.1612 1130.00
96.2264 1163.00
96.2916 1171.00
96.3568 1219.00
96.422 1259.00
96.4872 1456.00
96.5524 1530.00
96.6176 1593.00
96.6828 1688.00
96.748 1400.00
96.8132 1395.00
96.8784 1345.00
96.9436 1430.00
97.0088 1398.00
97.074 1159.00
97.1392 1182.00
97.2044 1139.00
97.2696 1152.00
97.3348 1135.00
97.4 1114.00
97.4652 1138.00
97.5304 1175.00
97.5956 1099.00
97.6608 1197.00
97.726 1174.00
97.7912 1260.00
97.8564 1283.00
97.9216 1427.00
97.9868 1430.00
98.052 1325.00
98.1172 1324.00
98.1824 1212.00
98.2476 1242.00
98.3128 1267.00
98.378 1176.00
98.4432 1155.00
98.5084 1161.00
98.5736 1118.00
98.6388 1157.00
98.704 1167.00
98.7692 1137.00
98.8344 1143.00
98.8996 1159.00
98.9648 1165.00
99.03 1161.00
99.0952 1179.00
99.1604 1159.00
99.2256 1275.00
99.2908 1347.00
99.356 1280.00
99.4212 1206.00
99.4864 1248.00
99.5516 1242.00
99.6168 1229.00
99.682 1195.00
99.7472 1157.00
99.8124 1139.00
99.8776 1106.00
99.9428 1078.00
100.008 1171.00
100.073 1096.00
100.095 1101.00