File: data/xrd_creation/results/PG_1517-1.xy
10.0094 2255.00
10.0746 2177.00
10.1398 2234.00
10.205 2176.00
10.2702 2093.00
10.3354 2145.00
10.4006 2089.00
10.4658 2181.00
10.531 1967.00
10.5962 2116.00
10.6614 2034.00
10.7266 1934.00
10.7918 1965.00
10.857 1967.00
10.9222 1961.00
10.9874 1879.00
11.0526 1933.00
11.1178 1917.00
11.183 1876.00
11.2482 1844.00
11.3134 1804.00
11.3786 1811.00
11.4438 1830.00
11.509 1760.00
11.5742 1799.00
11.6394 1720.00
11.7046 1800.00
11.7698 1681.00
11.835 1709.00
11.9002 1703.00
11.9654 1753.00
12.0306 1682.00
12.0958 1640.00
12.161 1715.00
12.2262 1643.00
12.2914 1665.00
12.3566 1644.00
12.4218 1558.00
12.487 1582.00
12.5522 1593.00
12.6174 1541.00
12.6826 1442.00
12.7478 1559.00
12.813 1492.00
12.8782 1547.00
12.9434 1459.00
13.0086 1459.00
13.0738 1522.00
13.139 1463.00
13.2042 1516.00
13.2694 1526.00
13.3346 1411.00
13.3998 1386.00
13.465 1427.00
13.5302 1346.00
13.5954 1454.00
13.6606 1351.00
13.7258 1430.00
13.791 1391.00
13.8562 1390.00
13.9214 1355.00
13.9865 1380.00
14.0517 1377.00
14.1169 1308.00
14.1821 1336.00
14.2473 1279.00
14.3125 1329.00
14.3777 1339.00
14.4429 1333.00
14.5081 1266.00
14.5733 1311.00
14.6385 1288.00
14.7037 1300.00
14.7689 1261.00
14.8341 1241.00
14.8993 1280.00
14.9645 1225.00
15.0297 1231.00
15.0949 1239.00
15.1601 1222.00
15.2253 1262.00
15.2905 1241.00
15.3557 1245.00
15.4209 1242.00
15.4861 1180.00
15.5513 1166.00
15.6165 1265.00
15.6817 1188.00
15.7469 1257.00
15.8121 1229.00
15.8773 1157.00
15.9425 1196.00
16.0077 1228.00
16.0729 1198.00
16.1381 1177.00
16.2033 1134.00
16.2685 1156.00
16.3337 1118.00
16.3989 1143.00
16.4641 1172.00
16.5293 1209.00
16.5945 1146.00
16.6597 1131.00
16.7249 1099.00
16.7901 1236.00
16.8553 1116.00
16.9205 1161.00
16.9857 1122.00
17.0509 1136.00
17.1161 1152.00
17.1813 1066.00
17.2465 1101.00
17.3117 1125.00
17.3769 1092.00
17.4421 1154.00
17.5073 1176.00
17.5725 1217.00
17.6377 1221.00
17.7029 1243.00
17.7681 1388.00
17.8333 1373.00
17.8985 1272.00
17.9637 1132.00
18.0289 1148.00
18.0941 1075.00
18.1593 1053.00
18.2245 1096.00
18.2897 1021.00
18.3549 1068.00
18.4201 1030.00
18.4853 1009.00
18.5505 1021.00
18.6157 985.00
18.6809 972.00
18.7461 1042.00
18.8112 1002.00
18.8764 1003.00
18.9416 1052.00
19.0068 1008.00
19.072 1041.00
19.1372 1045.00
19.2024 1058.00
19.2676 1169.00
19.3328 1000.00
19.398 982.00
19.4632 932.00
19.5284 922.00
19.5936 955.00
19.6588 947.00
19.724 938.00
19.7892 993.00
19.8544 921.00
19.9196 885.00
19.9848 914.00
20.05 900.00
20.1152 932.00
20.1804 947.00
20.2456 936.00
20.3108 917.00
20.376 902.00
20.4412 866.00
20.5064 878.00
20.5716 939.00
20.6368 883.00
20.702 865.00
20.7672 876.00
20.8324 866.00
20.8976 913.00
20.9628 839.00
21.028 870.00
21.0932 824.00
21.1584 843.00
21.2236 849.00
21.2888 884.00
21.354 879.00
21.4192 919.00
21.4844 855.00
21.5496 866.00
21.6148 824.00
21.68 836.00
21.7452 859.00
21.8104 844.00
21.8756 752.00
21.9408 823.00
22.006 859.00
22.0712 805.00
22.1364 796.00
22.2016 866.00
22.2668 796.00
22.332 803.00
22.3972 841.00
22.4624 765.00
22.5276 804.00
22.5928 791.00
22.658 811.00
22.7232 804.00
22.7884 814.00
22.8536 800.00
22.9188 719.00
22.984 804.00
23.0492 720.00
23.1144 832.00
23.1796 805.00
23.2448 831.00
23.31 789.00
23.3752 770.00
23.4404 793.00
23.5056 790.00
23.5708 769.00
23.6359 850.00
23.7011 779.00
23.7663 834.00
23.8315 783.00
23.8967 794.00
23.9619 872.00
24.0271 841.00
24.0923 878.00
24.1575 968.00
24.2227 1090.00
24.2879 1230.00
24.3531 1438.00
24.4183 1912.00
24.4835 1991.00
24.5487 1636.00
24.6139 1319.00
24.6791 1222.00
24.7443 1308.00
24.8095 1566.00
24.8747 1758.00
24.9399 1564.00
25.0051 1158.00
25.0703 846.00
25.1355 806.00
25.2007 821.00
25.2659 739.00
25.3311 758.00
25.3963 746.00
25.4615 754.00
25.5267 742.00
25.5919 701.00
25.6571 718.00
25.7223 757.00
25.7875 731.00
25.8527 656.00
25.9179 751.00
25.9831 697.00
26.0483 687.00
26.1135 722.00
26.1787 718.00
26.2439 697.00
26.3091 684.00
26.3743 655.00
26.4395 686.00
26.5047 669.00
26.5699 709.00
26.6351 669.00
26.7003 689.00
26.7655 656.00
26.8307 734.00
26.8959 636.00
26.9611 677.00
27.0263 691.00
27.0915 632.00
27.1567 668.00
27.2219 653.00
27.2871 710.00
27.3523 674.00
27.4175 728.00
27.4827 703.00
27.5479 673.00
27.6131 725.00
27.6783 717.00
27.7435 763.00
27.8087 800.00
27.8739 755.00
27.9391 809.00
28.0043 908.00
28.0695 990.00
28.1347 1106.00
28.1999 1275.00
28.2651 1563.00
28.3303 2057.00
28.3955 2863.00
28.4606 4403.00
28.5258 6720.00
28.591 9045.00
28.6562 8571.00
28.7214 5686.00
28.7866 3130.00
28.8518 1839.00
28.917 1378.00
28.9822 1128.00
29.0474 1061.00
29.1126 929.00
29.1778 847.00
29.243 804.00
29.3082 842.00
29.3734 799.00
29.4386 743.00
29.5038 760.00
29.569 721.00
29.6342 737.00
29.6994 713.00
29.7646 752.00
29.8298 770.00
29.895 714.00
29.9602 738.00
30.0254 836.00
30.0906 819.00
30.1558 884.00
30.221 990.00
30.2862 1113.00
30.3514 1145.00
30.4166 1180.00
30.4818 1105.00
30.547 1086.00
30.6122 1189.00
30.6774 1319.00
30.7426 1278.00
30.8078 1190.00
30.873 1081.00
30.9382 959.00
31.0034 865.00
31.0686 875.00
31.1338 836.00
31.199 873.00
31.2642 891.00
31.3294 958.00
31.3946 960.00
31.4598 1178.00
31.525 1341.00
31.5902 1674.00
31.6554 2108.00
31.7206 2899.00
31.7858 4538.00
31.851 6696.00
31.9162 8433.00
31.9814 7568.00
32.0466 5024.00
32.1118 2899.00
32.177 1880.00
32.2422 1359.00
32.3074 1112.00
32.3726 961.00
32.4378 844.00
32.503 821.00
32.5682 735.00
32.6334 667.00
32.6986 721.00
32.7638 727.00
32.829 703.00
32.8942 684.00
32.9594 610.00
33.0246 641.00
33.0898 613.00
33.1549 639.00
33.2201 672.00
33.2853 647.00
33.3505 620.00
33.4157 666.00
33.4809 662.00
33.5461 677.00
33.6113 724.00
33.6765 808.00
33.7417 855.00
33.8069 786.00
33.8721 722.00
33.9373 669.00
34.0025 706.00
34.0677 660.00
34.1329 709.00
34.1981 798.00
34.2633 876.00
34.3285 1045.00
34.3937 1350.00
34.4589 1991.00
34.5241 2685.00
34.5893 3255.00
34.6545 3114.00
34.7197 2515.00
34.7849 2234.00
34.8501 2757.00
34.9153 2943.00
34.9805 2154.00
35.0457 1466.00
35.1109 1170.00
35.1761 992.00
35.2413 1003.00
35.3065 1176.00
35.3717 1430.00
35.4369 1632.00
35.5021 1696.00
35.5673 1653.00
35.6325 1904.00
35.6977 2471.00
35.7629 3071.00
35.8281 3014.00
35.8933 2118.00
35.9585 1303.00
36.0237 929.00
36.0889 854.00
36.1541 891.00
36.2193 994.00
36.2845 1174.00
36.3497 1282.00
36.4149 1115.00
36.4801 894.00
36.5453 751.00
36.6105 613.00
36.6757 582.00
36.7409 593.00
36.8061 525.00
36.8713 548.00
36.9365 541.00
37.0017 555.00
37.0669 543.00
37.1321 571.00
37.1973 593.00
37.2625 595.00
37.3277 638.00
37.3929 606.00
37.4581 650.00
37.5233 678.00
37.5885 786.00
37.6537 857.00
37.7189 816.00
37.7841 752.00
37.8493 670.00
37.9145 615.00
37.9796 621.00
38.0448 610.00
38.11 614.00
38.1752 559.00
38.2404 606.00
38.3056 588.00
38.3708 708.00
38.436 764.00
38.5012 847.00
38.5664 957.00
38.6316 1051.00
38.6968 1048.00
38.762 945.00
38.8272 980.00
38.8924 942.00
38.9576 1117.00
39.0228 1439.00
39.088 1523.00
39.1532 1207.00
39.2184 960.00
39.2836 680.00
39.3488 656.00
39.414 536.00
39.4792 557.00
39.5444 550.00
39.6096 504.00
39.6748 516.00
39.74 517.00
39.8052 494.00
39.8704 532.00
39.9356 519.00
40.0008 564.00
40.066 581.00
40.1312 516.00
40.1964 527.00
40.2616 516.00
40.3268 597.00
40.392 601.00
40.4572 578.00
40.5224 589.00
40.5876 565.00
40.6528 574.00
40.718 551.00
40.7832 618.00
40.8484 585.00
40.9136 715.00
40.9788 731.00
41.044 914.00
41.1092 1285.00
41.1744 1589.00
41.2396 1929.00
41.3048 1869.00
41.37 1460.00
41.4352 1078.00
41.5004 978.00
41.5656 1047.00
41.6308 1131.00
41.696 1016.00
41.7612 967.00
41.8264 930.00
41.8916 995.00
41.9568 916.00
42.022 758.00
42.0872 622.00
42.1524 577.00
42.2176 527.00
42.2828 538.00
42.348 490.00
42.4132 514.00
42.4784 450.00
42.5436 483.00
42.6088 506.00
42.6739 511.00
42.7392 523.00
42.8043 500.00
42.8695 516.00
42.9347 512.00
42.9999 537.00
43.0651 546.00
43.1303 588.00
43.1955 588.00
43.2607 575.00
43.3259 594.00
43.3911 523.00
43.4563 511.00
43.5215 474.00
43.5867 487.00
43.6519 490.00
43.7171 522.00
43.7823 468.00
43.8475 490.00
43.9127 444.00
43.9779 448.00
44.0431 491.00
44.1083 469.00
44.1735 425.00
44.2387 478.00
44.3039 470.00
44.3691 464.00
44.4343 469.00
44.4995 445.00
44.5647 508.00
44.6299 485.00
44.6951 449.00
44.7603 496.00
44.8255 552.00
44.8907 568.00
44.9559 541.00
45.0211 557.00
45.0863 626.00
45.1515 642.00
45.2167 770.00
45.2819 919.00
45.3471 929.00
45.4123 894.00
45.4775 821.00
45.5427 672.00
45.6079 613.00
45.6731 677.00
45.7383 672.00
45.8035 768.00
45.8687 882.00
45.9339 1140.00
45.9991 1379.00
46.0643 1354.00
46.1295 1219.00
46.1947 998.00
46.2599 782.00
46.3251 609.00
46.3903 584.00
46.4555 552.00
46.5207 496.00
46.5859 464.00
46.6511 476.00
46.7163 468.00
46.7815 447.00
46.8467 470.00
46.9119 434.00
46.9771 438.00
47.0423 502.00
47.1075 460.00
47.1727 440.00
47.2379 429.00
47.3031 437.00
47.3683 483.00
47.4335 461.00
47.4986 446.00
47.5639 472.00
47.629 432.00
47.6942 486.00
47.7594 458.00
47.8246 438.00
47.8898 438.00
47.955 461.00
48.0202 417.00
48.0854 452.00
48.1506 470.00
48.2158 453.00
48.281 486.00
48.3462 494.00
48.4114 463.00
48.4766 478.00
48.5418 526.00
48.607 541.00
48.6722 527.00
48.7374 575.00
48.8026 650.00
48.8678 685.00
48.933 651.00
48.9982 648.00
49.0634 596.00
49.1286 558.00
49.1938 598.00
49.259 578.00
49.3242 678.00
49.3894 729.00
49.4546 830.00
49.5198 873.00
49.585 1090.00
49.6502 1303.00
49.7154 2050.00
49.7806 2720.00
49.8458 2779.00
49.911 2134.00
49.9762 1600.00
50.0414 1076.00
50.1066 797.00
50.1718 656.00
50.237 684.00
50.3022 692.00
50.3674 704.00
50.4326 885.00
50.4978 1106.00
50.563 1625.00
50.6282 2610.00
50.6934 3472.00
50.7586 3027.00
50.8238 2442.00
50.889 1874.00
50.9542 1387.00
51.0194 1605.00
51.0846 1878.00
51.1498 1931.00
51.215 1684.00
51.2802 1290.00
51.3454 883.00
51.4106 765.00
51.4758 674.00
51.541 679.00
51.6062 739.00
51.6714 890.00
51.7366 985.00
51.8018 1112.00
51.867 928.00
51.9322 818.00
51.9974 698.00
52.0626 617.00
52.1278 500.00
52.193 506.00
52.2582 533.00
52.3233 434.00
52.3886 429.00
52.4537 510.00
52.5189 472.00
52.5841 491.00
52.6493 519.00
52.7145 482.00
52.7797 488.00
52.8449 448.00
52.9101 487.00
52.9753 490.00
53.0405 469.00
53.1057 469.00
53.1709 417.00
53.2361 462.00
53.3013 475.00
53.3665 512.00
53.4317 472.00
53.4969 490.00
53.5621 456.00
53.6273 481.00
53.6925 494.00
53.7577 485.00
53.8229 485.00
53.8881 517.00
53.9533 468.00
54.0185 508.00
54.0837 518.00
54.1489 533.00
54.2141 550.00
54.2793 648.00
54.3445 660.00
54.4097 835.00
54.4749 1003.00
54.5401 1291.00
54.6053 1727.00
54.6705 1897.00
54.7357 1852.00
54.8009 1583.00
54.8661 1228.00
54.9313 918.00
54.9965 784.00
55.0617 726.00
55.1269 643.00
55.1921 657.00
55.2573 668.00
55.3225 694.00
55.3877 702.00
55.4529 671.00
55.5181 682.00
55.5833 698.00
55.6485 876.00
55.7137 1041.00
55.7789 1439.00
55.8441 1873.00
55.9093 2329.00
55.9745 2350.00
56.0397 2265.00
56.1049 2148.00
56.1701 1783.00
56.2353 1510.00
56.3005 1290.00
56.3657 1288.00
56.4309 1418.00
56.4961 1716.00
56.5613 1618.00
56.6265 1473.00
56.6917 1256.00
56.7569 992.00
56.8221 788.00
56.8873 667.00
56.9525 591.00
57.0177 583.00
57.0829 548.00
57.148 552.00
57.2132 560.00
57.2784 593.00
57.3436 626.00
57.4088 630.00
57.474 683.00
57.5392 794.00
57.6044 1004.00
57.6696 1251.00
57.7348 1631.00
57.8 1704.00
57.8652 1573.00
57.9304 1404.00
57.9956 1233.00
58.0608 896.00
58.126 773.00
58.1912 786.00
58.2564 750.00
58.3216 775.00
58.3868 1004.00
58.452 1155.00
58.5172 1428.00
58.5824 1169.00
58.6476 1237.00
58.7128 1119.00
58.778 1102.00
58.8432 1110.00
58.9084 1085.00
58.9736 996.00
59.0388 936.00
59.104 827.00
59.1692 701.00
59.2344 651.00
59.2996 647.00
59.3648 597.00
59.43 639.00
59.4952 599.00
59.5604 556.00
59.6256 551.00
59.6908 564.00
59.756 571.00
59.8212 596.00
59.8864 651.00
59.9516 672.00
60.0168 712.00
60.082 761.00
60.1472 878.00
60.2124 983.00
60.2776 1182.00
60.3428 1474.00
60.408 1828.00
60.4732 1887.00
60.5384 1879.00
60.6036 1931.00
60.6688 1766.00
60.734 1540.00
60.7992 1284.00
60.8644 1086.00
60.9296 897.00
60.9948 851.00
61.06 766.00
61.1252 781.00
61.1904 755.00
61.2556 760.00
61.3208 740.00
61.386 685.00
61.4512 623.00
61.5164 618.00
61.5816 630.00
61.6468 676.00
61.712 776.00
61.7772 856.00
61.8424 1031.00
61.9076 1230.00
61.9727 1357.00
62.0379 1212.00
62.1031 1183.00
62.1683 995.00
62.2335 955.00
62.2987 933.00
62.3639 1009.00
62.4291 1142.00
62.4943 1388.00
62.5595 1529.00
62.6247 1406.00
62.6899 1305.00
62.7551 1188.00
62.8203 929.00
62.8855 885.00
62.9507 771.00
63.0159 737.00
63.0811 728.00
63.1463 804.00
63.2115 777.00
63.2767 952.00
63.3419 1163.00
63.4071 1498.00
63.4723 1756.00
63.5375 1667.00
63.6027 1430.00
63.6679 1321.00
63.7331 996.00
63.7983 830.00
63.8635 757.00
63.9287 650.00
63.9939 628.00
64.0591 580.00
64.1243 600.00
64.1895 687.00
64.2547 648.00
64.3199 709.00
64.3851 764.00
64.4503 817.00
64.5155 783.00
64.5807 853.00
64.6459 998.00
64.7111 1101.00
64.7763 1321.00
64.8415 1529.00
64.9067 1581.00
64.9719 1400.00
65.0371 1307.00
65.1023 1113.00
65.1675 880.00
65.2327 731.00
65.2979 676.00
65.3631 615.00
65.4283 523.00
65.4935 593.00
65.5587 647.00
65.6239 637.00
65.6891 667.00
65.7543 660.00
65.8195 659.00
65.8847 746.00
65.9499 825.00
66.0151 999.00
66.0803 1072.00
66.1455 1044.00
66.2107 1261.00
66.2759 1476.00
66.3411 1656.00
66.4063 1593.00
66.4715 1427.00
66.5367 1326.00
66.6019 1183.00
66.6671 978.00
66.7322 799.00
66.7974 679.00
66.8626 639.00
66.9278 571.00
66.993 537.00
67.0582 504.00
67.1234 494.00
67.1886 458.00
67.2538 504.00
67.319 506.00
67.3842 506.00
67.4494 519.00
67.5146 489.00
67.5798 468.00
67.645 486.00
67.7102 491.00
67.7754 496.00
67.8406 477.00
67.9058 448.00
67.971 476.00
68.0362 435.00
68.1014 460.00
68.1666 470.00
68.2318 480.00
68.297 453.00
68.3622 472.00
68.4274 504.00
68.4926 489.00
68.5578 471.00
68.623 430.00
68.6882 476.00
68.7534 498.00
68.8186 511.00
68.8838 455.00
68.949 480.00
69.0142 524.00
69.0794 524.00
69.1446 525.00
69.2098 551.00
69.275 573.00
69.3402 645.00
69.4054 629.00
69.4706 745.00
69.5358 823.00
69.601 993.00
69.6662 918.00
69.7314 839.00
69.7966 829.00
69.8618 771.00
69.927 648.00
69.9922 634.00
70.0574 636.00
70.1226 626.00
70.1878 576.00
70.253 633.00
70.3182 638.00
70.3834 633.00
70.4486 647.00
70.5138 665.00
70.579 623.00
70.6442 636.00
70.7094 582.00
70.7746 655.00
70.8398 587.00
70.905 582.00
70.9702 590.00
71.0354 564.00
71.1006 567.00
71.1658 516.00
71.231 544.00
71.2962 564.00
71.3614 547.00
71.4266 580.00
71.4918 599.00
71.5569 708.00
71.6221 822.00
71.6873 975.00
71.7525 1206.00
71.8177 1182.00
71.8829 1214.00
71.9481 1241.00
72.0133 1007.00
72.0785 890.00
72.1437 772.00
72.2089 711.00
72.2741 654.00
72.3393 615.00
72.4045 658.00
72.4697 646.00
72.5349 684.00
72.6001 716.00
72.6653 758.00
72.7305 768.00
72.7957 817.00
72.8609 807.00
72.9261 681.00
72.9913 734.00
73.0565 677.00
73.1217 724.00
73.1869 753.00
73.2521 758.00
73.3173 765.00
73.3825 703.00
73.4477 718.00
73.5129 658.00
73.5781 610.00
73.6433 546.00
73.7085 571.00
73.7737 567.00
73.8389 564.00
73.9041 589.00
73.9693 569.00
74.0345 575.00
74.0997 550.00
74.1649 532.00
74.2301 582.00
74.2953 565.00
74.3605 539.00
74.4257 542.00
74.4909 523.00
74.5561 537.00
74.6213 517.00
74.6865 500.00
74.7517 508.00
74.8169 495.00
74.8821 461.00
74.9473 539.00
75.0125 510.00
75.0777 520.00
75.1429 591.00
75.2081 617.00
75.2733 642.00
75.3385 744.00
75.4037 808.00
75.4689 763.00
75.5341 766.00
75.5993 766.00
75.6645 795.00
75.7297 931.00
75.7949 1027.00
75.8601 1069.00
75.9253 1009.00
75.9905 986.00
76.0557 928.00
76.1209 757.00
76.186 725.00
76.2513 626.00
76.3165 554.00
76.3816 554.00
76.4468 537.00
76.512 556.00
76.5772 521.00
76.6424 493.00
76.7076 510.00
76.7728 538.00
76.838 566.00
76.9032 595.00
76.9684 603.00
77.0336 657.00
77.0988 747.00
77.164 838.00
77.2292 791.00
77.2944 754.00
77.3596 766.00
77.4248 640.00
77.49 682.00
77.5552 570.00
77.6204 600.00
77.6856 574.00
77.7508 589.00
77.816 599.00
77.8812 621.00
77.9464 677.00
78.0116 746.00
78.0768 804.00
78.142 821.00
78.2072 791.00
78.2724 775.00
78.3376 689.00
78.4028 670.00
78.468 618.00
78.5332 618.00
78.5984 651.00
78.6636 692.00
78.7288 694.00
78.794 676.00
78.8592 651.00
78.9244 631.00
78.9896 651.00
79.0548 622.00
79.12 615.00
79.1852 618.00
79.2504 589.00
79.3156 612.00
79.3808 612.00
79.446 707.00
79.5112 697.00
79.5764 852.00
79.6416 910.00
79.7068 921.00
79.772 786.00
79.8372 813.00
79.9024 716.00
79.9676 644.00
80.0328 580.00
80.098 565.00
80.1632 506.00
80.2284 487.00
80.2936 492.00
80.3588 470.00
80.424 505.00
80.4892 495.00
80.5544 507.00
80.6196 514.00
80.6848 518.00
80.75 478.00
80.8152 488.00
80.8804 543.00
80.9456 547.00
81.0108 561.00
81.076 579.00
81.1412 556.00
81.2063 567.00
81.2715 579.00
81.3367 598.00
81.4019 555.00
81.4671 557.00
81.5323 561.00
81.5975 518.00
81.6627 579.00
81.7279 515.00
81.7931 548.00
81.8583 545.00
81.9235 586.00
81.9887 646.00
82.0539 668.00
82.1191 731.00
82.1843 772.00
82.2495 817.00
82.3147 963.00
82.3799 799.00
82.4451 836.00
82.5103 726.00
82.5755 687.00
82.6407 674.00
82.7059 614.00
82.7711 624.00
82.8363 617.00
82.9015 669.00
82.9667 675.00
83.0319 604.00
83.0971 647.00
83.1623 663.00
83.2275 776.00
83.2927 831.00
83.3579 857.00
83.4231 814.00
83.4883 850.00
83.5535 823.00
83.6187 786.00
83.6839 775.00
83.7491 850.00
83.8143 1026.00
83.8795 918.00
83.9447 916.00
84.0099 869.00
84.0751 905.00
84.1403 897.00
84.2055 789.00
84.2707 769.00
84.3359 752.00
84.4011 747.00
84.4663 755.00
84.5315 839.00
84.5967 814.00
84.6619 1015.00
84.7271 959.00
84.7923 916.00
84.8575 983.00
84.9227 968.00
84.9879 924.00
85.0531 873.00
85.1183 852.00
85.1835 765.00
85.2487 732.00
85.3139 654.00
85.3791 646.00
85.4443 654.00
85.5095 671.00
85.5747 756.00
85.6399 832.00
85.7051 860.00
85.7703 755.00
85.8354 666.00
85.9006 699.00
85.9659 673.00
86.031 637.00
86.0962 571.00
86.1614 547.00
86.2266 552.00
86.2918 535.00
86.357 571.00
86.4222 528.00
86.4874 579.00
86.5526 571.00
86.6178 579.00
86.683 649.00
86.7482 627.00
86.8134 721.00
86.8786 772.00
86.9438 739.00
87.009 709.00
87.0742 674.00
87.1394 660.00
87.2046 597.00
87.2698 573.00
87.335 565.00
87.4002 536.00
87.4654 537.00
87.5306 531.00
87.5958 527.00
87.661 507.00
87.7262 557.00
87.7914 571.00
87.8566 525.00
87.9218 536.00
87.987 627.00
88.0522 632.00
88.1174 676.00
88.1826 823.00
88.2478 815.00
88.313 857.00
88.3782 811.00
88.4434 819.00
88.5086 773.00
88.5738 771.00
88.639 761.00
88.7042 732.00
88.7694 747.00
88.8346 816.00
88.8998 891.00
88.965 935.00
89.0302 958.00
89.0954 965.00
89.1606 918.00
89.2258 1002.00
89.291 1019.00
89.3562 1010.00
89.4214 1002.00
89.4866 849.00
89.5518 832.00
89.617 882.00
89.6822 737.00
89.7474 759.00
89.8126 696.00
89.8778 696.00
89.943 684.00
90.0082 736.00
90.0734 790.00
90.1386 767.00
90.2038 768.00
90.269 778.00
90.3342 810.00
90.3994 802.00
90.4646 815.00
90.5298 921.00
90.595 936.00
90.6601 939.00
90.7253 950.00
90.7905 864.00
90.8557 822.00
90.9209 744.00
90.9861 779.00
91.0513 729.00
91.1165 651.00
91.1817 641.00
91.2469 668.00
91.3121 597.00
91.3773 693.00
91.4425 665.00
91.5077 685.00
91.5729 699.00
91.6381 667.00
91.7033 645.00
91.7685 642.00
91.8337 651.00
91.8989 719.00
91.9641 668.00
92.0293 689.00
92.0945 699.00
92.1597 702.00
92.2249 732.00
92.2901 698.00
92.3553 637.00
92.4205 644.00
92.4857 668.00
92.5509 587.00
92.6161 595.00
92.6813 585.00
92.7465 576.00
92.8117 523.00
92.8769 546.00
92.9421 586.00
93.0073 561.00
93.0725 505.00
93.1377 576.00
93.2029 525.00
93.2681 553.00
93.3333 566.00
93.3985 504.00
93.4637 543.00
93.5289 561.00
93.5941 565.00
93.6593 591.00
93.7245 572.00
93.7897 635.00
93.8549 587.00
93.9201 581.00
93.9853 563.00
94.0505 617.00
94.1157 600.00
94.1809 546.00
94.2461 598.00
94.3113 580.00
94.3765 649.00
94.4417 657.00
94.5069 723.00
94.5721 779.00
94.6373 829.00
94.7025 790.00
94.7677 791.00
94.8329 781.00
94.8981 780.00
94.9633 726.00
95.0285 730.00
95.0937 712.00
95.1589 648.00
95.2241 654.00
95.2893 680.00
95.3545 662.00
95.4197 660.00
95.4848 723.00
95.55 688.00
95.6153 789.00
95.6804 776.00
95.7456 736.00
95.8108 899.00
95.876 873.00
95.9412 906.00
96.0064 984.00
96.0716 981.00
96.1368 1012.00
96.202 951.00
96.2672 901.00
96.3324 841.00
96.3976 843.00
96.4628 795.00
96.528 751.00
96.5932 754.00
96.6584 734.00
96.7236 768.00
96.7888 797.00
96.854 821.00
96.9192 945.00
96.9844 992.00
97.0496 946.00
97.1148 939.00
97.18 970.00
97.2452 861.00
97.3104 1047.00
97.3756 1093.00
97.4408 1102.00
97.506 1128.00
97.5712 1181.00
97.6364 1097.00
97.7016 1135.00
97.7668 1128.00
97.832 1165.00
97.8972 1039.00
97.9624 1003.00
98.0276 909.00
98.0928 878.00
98.158 827.00
98.2232 785.00
98.2884 819.00
98.3536 734.00
98.4188 683.00
98.484 633.00
98.5492 668.00
98.6144 697.00
98.6796 673.00
98.7448 753.00
98.81 751.00
98.8752 849.00
98.9404 910.00
99.0056 830.00
99.0708 928.00
99.136 857.00
99.2012 828.00
99.2664 884.00
99.3316 866.00
99.3968 874.00
99.462 876.00
99.5272 903.00
99.5924 949.00
99.6576 941.00
99.7228 868.00
99.788 901.00
99.8532 890.00
99.9184 904.00
99.9836 953.00
99.9944 932.00