File: data/xrd_creation/results/PG_1745-1.xy
9.903433 2592.00
9.968632 2534.00
10.0338 2557.00
10.099 2418.00
10.1642 2358.00
10.2294 2305.00
10.2946 2382.00
10.3598 2413.00
10.425 2363.00
10.4902 2309.00
10.5554 2255.00
10.6206 2284.00
10.6858 2300.00
10.751 2273.00
10.8162 2252.00
10.8814 2194.00
10.9466 2201.00
11.0118 2134.00
11.077 2161.00
11.1422 2248.00
11.2074 2174.00
11.2726 2106.00
11.3378 2161.00
11.403 2113.00
11.4682 2181.00
11.5334 2002.00
11.5986 2024.00
11.6638 1958.00
11.729 2029.00
11.7942 1968.00
11.8594 1946.00
11.9246 1981.00
11.9898 2009.00
12.055 1873.00
12.1202 1891.00
12.1854 1884.00
12.2506 1840.00
12.3158 1915.00
12.381 1864.00
12.4462 1829.00
12.5114 1854.00
12.5766 1839.00
12.6418 1854.00
12.707 1789.00
12.7722 1812.00
12.8374 1823.00
12.9026 1808.00
12.9678 1790.00
13.033 1771.00
13.0982 1685.00
13.1634 1736.00
13.2286 1712.00
13.2938 1688.00
13.359 1699.00
13.4242 1641.00
13.4894 1789.00
13.5546 1739.00
13.6198 1627.00
13.685 1649.00
13.7502 1553.00
13.8154 1610.00
13.8805 1620.00
13.9457 1661.00
14.0109 1633.00
14.0761 1581.00
14.1413 1699.00
14.2065 1572.00
14.2717 1595.00
14.3369 1601.00
14.4021 1615.00
14.4673 1565.00
14.5325 1578.00
14.5977 1512.00
14.6629 1675.00
14.7281 1562.00
14.7933 1474.00
14.8585 1557.00
14.9237 1504.00
14.9889 1630.00
15.0541 1570.00
15.1193 1480.00
15.1845 1525.00
15.2497 1475.00
15.3149 1545.00
15.3801 1516.00
15.4453 1522.00
15.5105 1456.00
15.5757 1521.00
15.6409 1492.00
15.7061 1532.00
15.7713 1490.00
15.8365 1464.00
15.9017 1470.00
15.9669 1481.00
16.0321 1457.00
16.0973 1433.00
16.1625 1501.00
16.2277 1498.00
16.2929 1460.00
16.3581 1453.00
16.4233 1381.00
16.4885 1460.00
16.5537 1381.00
16.6189 1414.00
16.6841 1443.00
16.7493 1473.00
16.8145 1510.00
16.8797 1415.00
16.9449 1413.00
17.0101 1423.00
17.0753 1404.00
17.1405 1412.00
17.2057 1420.00
17.2709 1494.00
17.3361 1400.00
17.4013 1378.00
17.4665 1427.00
17.5317 1446.00
17.5969 1464.00
17.6621 1517.00
17.7273 1546.00
17.7925 1702.00
17.8577 1715.00
17.9229 1588.00
17.9881 1406.00
18.0533 1347.00
18.1185 1368.00
18.1837 1346.00
18.2489 1324.00
18.3141 1307.00
18.3793 1307.00
18.4445 1321.00
18.5097 1264.00
18.5749 1261.00
18.6401 1292.00
18.7052 1289.00
18.7704 1299.00
18.8356 1343.00
18.9008 1257.00
18.966 1285.00
19.0312 1286.00
19.0964 1276.00
19.1616 1223.00
19.2268 1167.00
19.292 1211.00
19.3572 1265.00
19.4224 1198.00
19.4876 1195.00
19.5528 1216.00
19.618 1162.00
19.6832 1218.00
19.7484 1280.00
19.8136 1206.00
19.8788 1230.00
19.944 1283.00
20.0092 1208.00
20.0744 1219.00
20.1396 1152.00
20.2048 1228.00
20.27 1147.00
20.3352 1172.00
20.4004 1191.00
20.4656 1131.00
20.5308 1248.00
20.596 1276.00
20.6612 1248.00
20.7264 1275.00
20.7916 1197.00
20.8568 1146.00
20.922 1232.00
20.9872 1144.00
21.0524 1127.00
21.1176 1220.00
21.1828 1149.00
21.248 1137.00
21.3132 1151.00
21.3784 1194.00
21.4436 1256.00
21.5088 1337.00
21.574 1199.00
21.6392 1230.00
21.7044 1280.00
21.7696 1248.00
21.8348 1336.00
21.9 1431.00
21.9652 1382.00
22.0304 1378.00
22.0956 1384.00
22.1608 1350.00
22.226 1266.00
22.2912 1201.00
22.3564 1170.00
22.4216 1198.00
22.4868 1209.00
22.552 1162.00
22.6172 1116.00
22.6824 1101.00
22.7476 1106.00
22.8128 1121.00
22.878 1080.00
22.9432 1089.00
23.0084 1076.00
23.0736 1077.00
23.1388 1070.00
23.204 1024.00
23.2692 1047.00
23.3344 999.00
23.3996 1048.00
23.4647 1057.00
23.5299 1111.00
23.5951 972.00
23.6603 1108.00
23.7255 1028.00
23.7907 1053.00
23.8559 1060.00
23.9211 932.00
23.9863 1120.00
24.0515 1069.00
24.1167 1027.00
24.1819 1144.00
24.2471 1185.00
24.3123 1449.00
24.3775 1745.00
24.4427 2004.00
24.5079 2181.00
24.5731 1967.00
24.6383 1547.00
24.7035 1431.00
24.7687 1560.00
24.8339 1861.00
24.8991 1944.00
24.9643 1849.00
25.0295 1578.00
25.0947 1302.00
25.1599 1307.00
25.2251 1491.00
25.2903 2005.00
25.3555 2961.00
25.4207 3839.00
25.4859 4177.00
25.5511 3145.00
25.6163 1964.00
25.6815 1490.00
25.7467 1279.00
25.8119 1315.00
25.8771 1469.00
25.9423 1673.00
26.0075 2162.00
26.0727 2531.00
26.1379 2334.00
26.2031 1891.00
26.2683 1414.00
26.3335 1114.00
26.3987 1001.00
26.4639 1017.00
26.5291 1006.00
26.5943 1005.00
26.6595 953.00
26.7247 965.00
26.7899 905.00
26.8551 904.00
26.9203 950.00
26.9855 928.00
27.0507 935.00
27.1159 995.00
27.1811 978.00
27.2463 937.00
27.3115 949.00
27.3767 1001.00
27.4419 988.00
27.5071 978.00
27.5723 988.00
27.6375 934.00
27.7027 996.00
27.7679 1070.00
27.8331 1032.00
27.8983 1085.00
27.9635 1126.00
28.0287 1101.00
28.0939 1224.00
28.1591 1247.00
28.2243 1402.00
28.2894 1621.00
28.3546 2017.00
28.4198 2772.00
28.485 4354.00
28.5502 6502.00
28.6154 8347.00
28.6806 8330.00
28.7458 5867.00
28.811 3747.00
28.8762 2399.00
28.9414 1755.00
29.0066 1553.00
29.0718 1435.00
29.137 1224.00
29.2022 1191.00
29.2674 1140.00
29.3326 1090.00
29.3978 1057.00
29.463 1019.00
29.5282 1158.00
29.5934 1109.00
29.6586 1120.00
29.7238 1123.00
29.789 1275.00
29.8542 1299.00
29.9194 1412.00
29.9846 1346.00
30.0498 1153.00
30.115 1134.00
30.1802 1096.00
30.2454 1143.00
30.3106 1157.00
30.3758 1164.00
30.441 1176.00
30.5062 1324.00
30.5714 1328.00
30.6366 1459.00
30.7018 1509.00
30.767 1745.00
30.8322 1964.00
30.8974 2176.00
30.9626 2459.00
31.0278 2565.00
31.093 2760.00
31.1582 2775.00
31.2234 2772.00
31.2886 2662.00
31.3538 2612.00
31.419 2444.00
31.4842 2535.00
31.5494 2318.00
31.6146 2516.00
31.6798 2857.00
31.745 3525.00
31.8102 4998.00
31.8754 6448.00
31.9406 7231.00
32.0058 6510.00
32.071 4435.00
32.1362 2710.00
32.2014 2050.00
32.2666 1555.00
32.3318 1365.00
32.397 1254.00
32.4622 1106.00
32.5274 1082.00
32.5926 1008.00
32.6578 965.00
32.723 952.00
32.7882 990.00
32.8534 950.00
32.9186 987.00
32.9838 931.00
33.0489 937.00
33.1141 888.00
33.1793 827.00
33.2445 880.00
33.3097 863.00
33.3749 856.00
33.4401 903.00
33.5053 857.00
33.5705 872.00
33.6357 877.00
33.7009 857.00
33.7661 908.00
33.8313 868.00
33.8965 855.00
33.9617 831.00
34.0269 843.00
34.0921 977.00
34.1573 984.00
34.2225 1013.00
34.2877 1137.00
34.3529 1129.00
34.4181 1566.00
34.4833 2057.00
34.5485 2682.00
34.6137 3054.00
34.6789 2813.00
34.7441 2733.00
34.8093 2633.00
34.8745 2858.00
34.9397 2671.00
35.0049 2298.00
35.0701 1713.00
35.1353 1324.00
35.2005 1127.00
35.2657 1236.00
35.3309 1299.00
35.3961 1471.00
35.4613 1492.00
35.5265 1517.00
35.5917 1626.00
35.6569 1964.00
35.7221 2462.00
35.7873 2995.00
35.8525 2684.00
35.9177 2079.00
35.9829 1447.00
36.0481 1216.00
36.1133 1138.00
36.1785 1230.00
36.2437 1371.00
36.3089 1664.00
36.3741 1907.00
36.4393 2093.00
36.5045 1982.00
36.5697 1613.00
36.6349 1387.00
36.7001 1514.00
36.7653 1884.00
36.8305 2015.00
36.8957 1916.00
36.9609 1606.00
37.0261 1264.00
37.0913 994.00
37.1565 875.00
37.2217 821.00
37.2869 776.00
37.3521 772.00
37.4173 825.00
37.4825 804.00
37.5477 768.00
37.6129 739.00
37.6781 762.00
37.7433 776.00
37.8085 758.00
37.8736 759.00
37.9388 755.00
38.004 758.00
38.0692 776.00
38.1344 741.00
38.1996 796.00
38.2648 787.00
38.33 745.00
38.3952 773.00
38.4604 755.00
38.5256 748.00
38.5908 792.00
38.656 741.00
38.7212 831.00
38.7864 794.00
38.8516 845.00
38.9168 996.00
38.982 1233.00
39.0472 1420.00
39.1124 1466.00
39.1776 1267.00
39.2428 1028.00
39.308 916.00
39.3732 912.00
39.4384 730.00
39.5036 775.00
39.5688 820.00
39.634 782.00
39.6992 740.00
39.7644 719.00
39.8296 735.00
39.8948 759.00
39.96 751.00
40.0252 775.00
40.0904 822.00
40.1556 811.00
40.2208 758.00
40.286 794.00
40.3512 789.00
40.4164 846.00
40.4816 792.00
40.5468 810.00
40.612 813.00
40.6772 789.00
40.7424 816.00
40.8076 771.00
40.8728 838.00
40.938 881.00
41.0032 995.00
41.0684 1102.00
41.1336 1386.00
41.1988 1619.00
41.264 1796.00
41.3292 1774.00
41.3944 1538.00
41.4596 1384.00
41.5248 1407.00
41.59 1484.00
41.6552 1528.00
41.7204 1396.00
41.7856 1224.00
41.8508 1149.00
41.916 1140.00
41.9812 1079.00
42.0464 967.00
42.1116 813.00
42.1768 740.00
42.242 690.00
42.3072 723.00
42.3724 763.00
42.4376 752.00
42.5028 699.00
42.568 725.00
42.6332 728.00
42.6983 674.00
42.7635 723.00
42.8287 716.00
42.8939 782.00
42.9591 730.00
43.0243 772.00
43.0895 731.00
43.1547 801.00
43.2199 761.00
43.2851 894.00
43.3503 822.00
43.4155 743.00
43.4807 712.00
43.5459 765.00
43.6111 752.00
43.6763 784.00
43.7415 789.00
43.8067 813.00
43.8719 857.00
43.9371 833.00
44.0023 955.00
44.0675 1027.00
44.1327 1131.00
44.1979 1312.00
44.2631 1827.00
44.3283 2370.00
44.3935 2574.00
44.4587 2291.00
44.5239 1850.00
44.5891 1514.00
44.6543 1283.00
44.7195 1251.00
44.7847 1101.00
44.8499 1055.00
44.9151 1033.00
44.9803 991.00
45.0455 1009.00
45.1107 1001.00
45.1759 992.00
45.2411 1111.00
45.3063 1164.00
45.3715 1180.00
45.4367 1092.00
45.5019 1083.00
45.5671 996.00
45.6323 977.00
45.6975 964.00
45.7627 1197.00
45.8279 1331.00
45.8931 1600.00
45.9583 1732.00
46.0235 1672.00
46.0887 1542.00
46.1539 1269.00
46.2191 1022.00
46.2843 868.00
46.3495 888.00
46.4147 821.00
46.4799 756.00
46.5451 780.00
46.6103 860.00
46.6755 927.00
46.7407 1016.00
46.8059 1092.00
46.8711 1167.00
46.9363 1069.00
47.0015 992.00
47.0667 855.00
47.1319 775.00
47.1971 695.00
47.2623 723.00
47.3275 765.00
47.3927 688.00
47.4579 692.00
47.523 733.00
47.5882 731.00
47.6534 766.00
47.7186 833.00
47.7838 1021.00
47.849 1153.00
47.9142 1447.00
47.9794 1525.00
48.0446 1416.00
48.1098 1174.00
48.175 977.00
48.2402 827.00
48.3054 745.00
48.3706 743.00
48.4358 718.00
48.501 724.00
48.5662 732.00
48.6314 723.00
48.6966 759.00
48.7618 734.00
48.827 755.00
48.8922 735.00
48.9574 784.00
49.0226 755.00
49.0878 742.00
49.153 758.00
49.2182 768.00
49.2834 844.00
49.3486 909.00
49.4138 1008.00
49.479 1061.00
49.5442 1124.00
49.6094 1299.00
49.6746 1709.00
49.7398 2093.00
49.805 2421.00
49.8702 2394.00
49.9354 2136.00
50.0006 1847.00
50.0658 1755.00
50.131 1735.00
50.1962 1751.00
50.2614 1602.00
50.3266 1525.00
50.3918 1434.00
50.457 1541.00
50.5222 1873.00
50.5874 2242.00
50.6526 2853.00
50.7178 3052.00
50.783 2740.00
50.8482 2295.00
50.9134 1785.00
50.9786 1595.00
51.0438 1650.00
51.109 1822.00
51.1742 1764.00
51.2394 1559.00
51.3046 1284.00
51.3698 1096.00
51.435 954.00
51.5002 902.00
51.5654 921.00
51.6306 1013.00
51.6958 1022.00
51.761 1121.00
51.8262 1138.00
51.8914 1151.00
51.9566 1032.00
52.0218 909.00
52.087 843.00
52.1522 774.00
52.2174 767.00
52.2826 724.00
52.3477 681.00
52.4129 677.00
52.4781 734.00
52.5433 723.00
52.6085 703.00
52.6737 695.00
52.7389 680.00
52.8041 686.00
52.8693 695.00
52.9345 736.00
52.9997 637.00
53.0649 719.00
53.1301 709.00
53.1953 756.00
53.2605 781.00
53.3257 791.00
53.3909 739.00
53.4561 739.00
53.5213 792.00
53.5865 749.00
53.6517 714.00
53.7169 695.00
53.7821 713.00
53.8473 749.00
53.9125 768.00
53.9777 798.00
54.0429 792.00
54.1081 839.00
54.1733 884.00
54.2385 877.00
54.3037 942.00
54.3689 1047.00
54.4341 1200.00
54.4993 1325.00
54.5645 1611.00
54.6297 1801.00
54.6949 1900.00
54.7601 1936.00
54.8253 1651.00
54.8905 1607.00
54.9557 1467.00
55.0209 1438.00
55.0861 1524.00
55.1513 1548.00
55.2165 1546.00
55.2817 1601.00
55.3469 1568.00
55.4121 1487.00
55.4773 1537.00
55.5425 1442.00
55.6077 1339.00
55.6729 1390.00
55.7381 1543.00
55.8033 1851.00
55.8685 2051.00
55.9337 2273.00
55.9989 2320.00
56.0641 2033.00
56.1293 1875.00
56.1945 1719.00
56.2597 1516.00
56.3249 1403.00
56.3901 1400.00
56.4553 1487.00
56.5205 1593.00
56.5857 1556.00
56.6509 1371.00
56.7161 1288.00
56.7813 1110.00
56.8465 973.00
56.9117 905.00
56.9769 876.00
57.042 830.00
57.1073 810.00
57.1724 824.00
57.2376 805.00
57.3028 833.00
57.368 934.00
57.4332 1032.00
57.4984 1166.00
57.5636 1215.00
57.6288 1310.00
57.694 1389.00
57.7592 1531.00
57.8244 1535.00
57.8896 1324.00
57.9548 1229.00
58.02 1085.00
58.0852 976.00
58.1504 905.00
58.2156 936.00
58.2808 862.00
58.346 965.00
58.4112 1149.00
58.4764 1254.00
58.5416 1239.00
58.6068 1214.00
58.672 1226.00
58.7372 1169.00
58.8024 1193.00
58.8676 1229.00
58.9328 1194.00
58.998 1170.00
59.0632 1214.00
59.1284 1080.00
59.1936 1055.00
59.2588 925.00
59.324 906.00
59.3892 803.00
59.4544 801.00
59.5196 744.00
59.5848 776.00
59.65 782.00
59.7152 751.00
59.7804 748.00
59.8456 788.00
59.9108 863.00
59.976 920.00
60.0412 987.00
60.1064 1068.00
60.1716 1065.00
60.2368 1120.00
60.302 1360.00
60.3672 1450.00
60.4324 1738.00
60.4976 1596.00
60.5628 1683.00
60.628 1616.00
60.6932 1456.00
60.7584 1215.00
60.8236 1206.00
60.8888 970.00
60.954 953.00
61.0192 868.00
61.0844 827.00
61.1496 772.00
61.2148 826.00
61.28 773.00
61.3452 743.00
61.4104 767.00
61.4756 744.00
61.5408 812.00
61.606 797.00
61.6712 867.00
61.7364 960.00
61.8016 1102.00
61.8667 1233.00
61.932 1277.00
61.9971 1310.00
62.0623 1221.00
62.1275 1134.00
62.1927 1071.00
62.2579 1046.00
62.3231 1079.00
62.3883 1114.00
62.4535 1227.00
62.5187 1377.00
62.5839 1404.00
62.6491 1349.00
62.7143 1209.00
62.7795 1123.00
62.8447 992.00
62.9099 987.00
62.9751 939.00
63.0403 1002.00
63.1055 965.00
63.1707 1028.00
63.2359 1085.00
63.3011 1166.00
63.3663 1324.00
63.4315 1473.00
63.4967 1559.00
63.5619 1463.00
63.6271 1307.00
63.6923 1229.00
63.7575 1144.00
63.8227 1029.00
63.8879 973.00
63.9531 939.00
64.0183 1004.00
64.0835 955.00
64.1487 995.00
64.2139 1084.00
64.2791 1031.00
64.3443 1035.00
64.4095 976.00
64.4747 1064.00
64.5399 1014.00
64.6051 1103.00
64.6703 1108.00
64.7355 1118.00
64.8007 1113.00
64.8659 1225.00
64.9311 1206.00
64.9963 1105.00
65.0615 1099.00
65.1267 1000.00
65.1919 946.00
65.2571 869.00
65.3223 917.00
65.3875 865.00
65.4527 943.00
65.5179 959.00
65.5831 895.00
65.6483 951.00
65.7135 1022.00
65.7787 1015.00
65.8439 917.00
65.9091 1065.00
65.9743 1063.00
66.0395 1136.00
66.1047 1269.00
66.1699 1228.00
66.2351 1493.00
66.3003 1517.00
66.3655 1643.00
66.4307 1566.00
66.4959 1347.00
66.561 1293.00
66.6263 1186.00
66.6915 1022.00
66.7566 965.00
66.8218 907.00
66.887 822.00
66.9522 793.00
67.0174 700.00
67.0826 732.00
67.1478 704.00
67.213 752.00
67.2782 723.00
67.3434 737.00
67.4086 717.00
67.4738 698.00
67.539 697.00
67.6042 650.00
67.6694 626.00
67.7346 694.00
67.7998 664.00
67.865 709.00
67.9302 691.00
67.9954 706.00
68.0606 670.00
68.1258 677.00
68.191 640.00
68.2562 671.00
68.3214 674.00
68.3866 743.00
68.4518 709.00
68.517 707.00
68.5822 701.00
68.6474 730.00
68.7126 723.00
68.7778 719.00
68.843 719.00
68.9082 733.00
68.9734 726.00
69.0386 734.00
69.1038 745.00
69.169 781.00
69.2342 731.00
69.2994 752.00
69.3646 743.00
69.4298 819.00
69.495 863.00
69.5602 909.00
69.6254 967.00
69.6906 924.00
69.7558 897.00
69.821 777.00
69.8862 807.00
69.9514 752.00
70.0166 743.00
70.0818 689.00
70.147 770.00
70.2122 764.00
70.2774 756.00
70.3426 695.00
70.4078 776.00
70.473 703.00
70.5382 740.00
70.6034 741.00
70.6686 716.00
70.7338 728.00
70.799 677.00
70.8642 729.00
70.9294 701.00
70.9946 716.00
71.0598 750.00
71.125 715.00
71.1902 731.00
71.2554 787.00
71.3205 770.00
71.3858 803.00
71.451 817.00
71.5162 883.00
71.5813 955.00
71.6465 975.00
71.7117 1094.00
71.7769 1140.00
71.8421 1207.00
71.9073 1330.00
71.9725 1294.00
72.0377 1176.00
72.1029 1078.00
72.1681 1147.00
72.2333 1147.00
72.2985 1012.00
72.3637 973.00
72.4289 917.00
72.4941 987.00
72.5593 984.00
72.6245 974.00
72.6897 949.00
72.7549 961.00
72.8201 1059.00
72.8853 1022.00
72.9505 1060.00
73.0157 1125.00
73.0809 1143.00
73.1461 1203.00
73.2113 1175.00
73.2765 1152.00
73.3417 1082.00
73.4069 1147.00
73.4721 1069.00
73.5373 1111.00
73.6025 1029.00
73.6677 1017.00
73.7329 1058.00
73.7981 1129.00
73.8633 1077.00
73.9285 1151.00
73.9937 1164.00
74.0589 1097.00
74.1241 1061.00
74.1893 981.00
74.2545 912.00
74.3197 917.00
74.3849 883.00
74.4501 887.00
74.5153 870.00
74.5805 821.00
74.6457 841.00
74.7109 874.00
74.7761 833.00
74.8413 839.00
74.9065 851.00
74.9717 835.00
75.0369 807.00
75.1021 854.00
75.1673 848.00
75.2325 933.00
75.2977 1010.00
75.3629 1117.00
75.4281 1062.00
75.4933 1083.00
75.5585 1083.00
75.6237 1030.00
75.6889 1043.00
75.7541 1092.00
75.8193 1067.00
75.8845 1084.00
75.9497 1003.00
76.0149 1082.00
76.0801 1065.00
76.1452 1022.00
76.2104 950.00
76.2756 953.00
76.3409 918.00
76.406 880.00
76.4712 798.00
76.5364 770.00
76.6016 801.00
76.6668 771.00
76.732 765.00
76.7972 734.00
76.8624 839.00
76.9276 834.00
76.9928 860.00
77.058 856.00
77.1232 948.00
77.1884 986.00
77.2536 961.00
77.3188 897.00
77.384 885.00
77.4492 861.00
77.5144 832.00
77.5796 809.00
77.6448 847.00
77.71 860.00
77.7752 930.00
77.8404 1008.00
77.9056 998.00
77.9708 996.00
78.036 970.00
78.1012 1003.00
78.1664 969.00
78.2316 968.00
78.2968 872.00
78.362 956.00
78.4272 814.00
78.4924 866.00
78.5576 825.00
78.6228 803.00
78.688 869.00
78.7532 823.00
78.8184 808.00
78.8836 783.00
78.9488 799.00
79.014 799.00
79.0792 796.00
79.1444 824.00
79.2096 761.00
79.2748 743.00
79.34 778.00
79.4052 766.00
79.4704 829.00
79.5356 947.00
79.6008 913.00
79.666 961.00
79.7312 913.00
79.7964 939.00
79.8616 914.00
79.9268 881.00
79.992 854.00
80.0572 827.00
80.1224 810.00
80.1876 800.00
80.2528 845.00
80.318 866.00
80.3832 804.00
80.4484 800.00
80.5136 768.00
80.5788 764.00
80.644 730.00
80.7092 750.00
80.7744 753.00
80.8396 765.00
80.9048 752.00
80.9699 719.00
81.0351 780.00
81.1003 773.00
81.1655 773.00
81.2307 802.00
81.2959 758.00
81.3611 842.00
81.4263 798.00
81.4915 806.00
81.5567 820.00
81.6219 767.00
81.6871 816.00
81.7523 807.00
81.8175 815.00
81.8827 822.00
81.9479 943.00
82.0131 932.00
82.0783 972.00
82.1435 1055.00
82.2087 1098.00
82.2739 1101.00
82.3391 1116.00
82.4043 1107.00
82.4695 962.00
82.5347 936.00
82.5999 901.00
82.6651 840.00
82.7303 856.00
82.7955 842.00
82.8607 869.00
82.9259 893.00
82.9911 837.00
83.0563 868.00
83.1215 948.00
83.1867 952.00
83.2519 958.00
83.3171 1054.00
83.3823 1036.00
83.4475 1024.00
83.5127 1077.00
83.5779 973.00
83.6431 919.00
83.7083 1009.00
83.7735 1020.00
83.8387 1049.00
83.9039 984.00
83.9691 977.00
84.0343 992.00
84.0995 996.00
84.1647 985.00
84.2299 1018.00
84.2951 926.00
84.3603 936.00
84.4255 991.00
84.4907 950.00
84.5559 963.00
84.6211 1034.00
84.6863 1002.00
84.7515 1035.00
84.8167 991.00
84.8819 1037.00
84.9471 1069.00
85.0123 981.00
85.0775 983.00
85.1427 916.00
85.2079 941.00
85.2731 927.00
85.3383 928.00
85.4035 844.00
85.4687 880.00
85.5339 939.00
85.5991 934.00
85.6643 973.00
85.7295 941.00
85.7946 938.00
85.8598 892.00
85.925 898.00
85.9903 850.00
86.0554 807.00
86.1206 788.00
86.1858 813.00
86.251 797.00
86.3162 753.00
86.3814 745.00
86.4466 790.00
86.5118 758.00
86.577 784.00
86.6422 762.00
86.7074 809.00
86.7726 821.00
86.8378 876.00
86.903 871.00
86.9682 903.00
87.0334 867.00
87.0986 864.00
87.1638 823.00
87.229 835.00
87.2942 805.00
87.3594 787.00
87.4246 763.00
87.4898 773.00
87.555 764.00
87.6202 762.00
87.6854 774.00
87.7506 786.00
87.8158 798.00
87.881 827.00
87.9462 851.00
88.0114 812.00
88.0766 907.00
88.1418 895.00
88.207 973.00
88.2722 973.00
88.3374 990.00
88.4026 959.00
88.4678 986.00
88.533 981.00
88.5982 1007.00
88.6634 986.00
88.7286 972.00
88.7938 1036.00
88.859 998.00
88.9242 1067.00
88.9894 1159.00
89.0546 1107.00
89.1198 1159.00
89.185 1200.00
89.2502 1209.00
89.3154 1251.00
89.3806 1204.00
89.4458 1192.00
89.511 1150.00
89.5762 1173.00
89.6414 1178.00
89.7066 1106.00
89.7718 1059.00
89.837 1126.00
89.9022 1118.00
89.9674 1127.00
90.0326 1122.00
90.0978 1170.00
90.163 1083.00
90.2282 1115.00
90.2934 1099.00
90.3586 1064.00
90.4238 1102.00
90.489 1115.00
90.5542 1153.00
90.6193 1156.00
90.6845 1059.00
90.7497 1067.00
90.8149 1048.00
90.8801 1061.00
90.9453 973.00
91.0105 969.00
91.0757 942.00
91.1409 886.00
91.2061 846.00
91.2713 832.00
91.3365 865.00
91.4017 856.00
91.4669 832.00
91.5321 820.00
91.5973 864.00
91.6625 887.00
91.7277 855.00
91.7929 878.00
91.8581 862.00
91.9233 962.00
91.9885 900.00
92.0537 910.00
92.1189 912.00
92.1841 923.00
92.2493 805.00
92.3145 850.00
92.3797 797.00
92.4449 806.00
92.5101 822.00
92.5753 797.00
92.6405 735.00
92.7057 787.00
92.7709 717.00
92.8361 763.00
92.9013 759.00
92.9665 764.00
93.0317 740.00
93.0969 760.00
93.1621 676.00
93.2273 757.00
93.2925 754.00
93.3577 737.00
93.4229 686.00
93.4881 698.00
93.5533 754.00
93.6185 770.00
93.6837 830.00
93.7489 859.00
93.8141 761.00
93.8793 816.00
93.9445 803.00
94.0097 796.00
94.0749 865.00
94.1401 831.00
94.2053 803.00
94.2705 842.00
94.3357 813.00
94.4009 819.00
94.4661 884.00
94.5313 887.00
94.5965 909.00
94.6617 937.00
94.7269 914.00
94.7921 988.00
94.8573 1007.00
94.9225 1030.00
94.9877 984.00
95.0529 952.00
95.1181 869.00
95.1833 944.00
95.2485 930.00
95.3137 919.00
95.3789 871.00
95.444 903.00
95.5092 846.00
95.5744 920.00
95.6396 926.00
95.7048 936.00
95.77 964.00
95.8352 948.00
95.9004 1001.00
95.9656 987.00
96.0308 1031.00
96.096 1014.00
96.1612 1034.00
96.2264 950.00
96.2916 915.00
96.3568 944.00
96.422 832.00
96.4872 885.00
96.5524 886.00
96.6176 861.00
96.6828 921.00
96.748 883.00
96.8132 891.00
96.8784 980.00
96.9436 979.00
97.0088 1029.00
97.074 1058.00
97.1392 986.00
97.2044 1029.00
97.2696 1161.00
97.3348 1229.00
97.4 1251.00
97.4652 1249.00
97.5304 1290.00
97.5956 1253.00
97.6608 1197.00
97.726 1268.00
97.7912 1206.00
97.8564 1190.00
97.9216 1142.00
97.9868 1085.00
98.052 992.00
98.1172 999.00
98.1824 1005.00
98.2476 947.00
98.3128 890.00
98.378 926.00
98.4432 870.00
98.5084 850.00
98.5736 892.00
98.6388 830.00
98.704 873.00
98.7692 915.00
98.8344 991.00
98.8996 957.00
98.9648 988.00
99.03 1002.00
99.0952 968.00
99.1604 951.00
99.2256 929.00
99.2908 1002.00
99.356 1083.00
99.4212 1012.00
99.4864 1047.00
99.5516 1038.00
99.6168 1116.00
99.682 1063.00
99.7472 1098.00
99.8124 1055.00
99.8776 1016.00
99.9428 1043.00
100.008 1023.00
100.073 1070.00
100.095 1079.00