File: data/xrd_creation/results/PG_1944-1.xy
9.903433 2666.00
9.968632 2549.00
10.0338 2578.00
10.099 2526.00
10.1642 2510.00
10.2294 2542.00
10.2946 2415.00
10.3598 2515.00
10.425 2307.00
10.4902 2428.00
10.5554 2410.00
10.6206 2496.00
10.6858 2440.00
10.751 2403.00
10.8162 2359.00
10.8814 2255.00
10.9466 2274.00
11.0118 2407.00
11.077 2421.00
11.1422 2264.00
11.2074 2290.00
11.2726 2261.00
11.3378 2254.00
11.403 2282.00
11.4682 2151.00
11.5334 2218.00
11.5986 2208.00
11.6638 2223.00
11.729 2165.00
11.7942 2255.00
11.8594 2238.00
11.9246 2120.00
11.9898 2134.00
12.055 2147.00
12.1202 2169.00
12.1854 2079.00
12.2506 2083.00
12.3158 2053.00
12.381 2041.00
12.4462 2117.00
12.5114 1981.00
12.5766 1868.00
12.6418 1977.00
12.707 1980.00
12.7722 1949.00
12.8374 1870.00
12.9026 1948.00
12.9678 2003.00
13.033 1901.00
13.0982 2033.00
13.1634 2014.00
13.2286 1907.00
13.2938 1821.00
13.359 1924.00
13.4242 1892.00
13.4894 1818.00
13.5546 1784.00
13.6198 1789.00
13.685 1743.00
13.7502 1829.00
13.8154 1767.00
13.8805 1746.00
13.9457 1710.00
14.0109 1810.00
14.0761 1813.00
14.1413 1804.00
14.2065 1774.00
14.2717 1790.00
14.3369 1766.00
14.4021 1786.00
14.4673 1800.00
14.5325 1686.00
14.5977 1743.00
14.6629 1666.00
14.7281 1741.00
14.7933 1731.00
14.8585 1686.00
14.9237 1668.00
14.9889 1645.00
15.0541 1679.00
15.1193 1643.00
15.1845 1715.00
15.2497 1717.00
15.3149 1629.00
15.3801 1659.00
15.4453 1633.00
15.5105 1648.00
15.5757 1662.00
15.6409 1598.00
15.7061 1661.00
15.7713 1601.00
15.8365 1587.00
15.9017 1558.00
15.9669 1604.00
16.0321 1640.00
16.0973 1550.00
16.1625 1632.00
16.2277 1579.00
16.2929 1634.00
16.3581 1620.00
16.4233 1486.00
16.4885 1593.00
16.5537 1646.00
16.6189 1575.00
16.6841 1495.00
16.7493 1542.00
16.8145 1515.00
16.8797 1563.00
16.9449 1522.00
17.0101 1603.00
17.0753 1505.00
17.1405 1533.00
17.2057 1436.00
17.2709 1483.00
17.3361 1580.00
17.4013 1446.00
17.4665 1506.00
17.5317 1522.00
17.5969 1466.00
17.6621 1497.00
17.7273 1507.00
17.7925 1483.00
17.8577 1536.00
17.9229 1396.00
17.9881 1446.00
18.0533 1479.00
18.1185 1393.00
18.1837 1469.00
18.2489 1399.00
18.3141 1363.00
18.3793 1409.00
18.4445 1393.00
18.5097 1434.00
18.5749 1424.00
18.6401 1432.00
18.7052 1393.00
18.7704 1378.00
18.8356 1348.00
18.9008 1356.00
18.966 1361.00
19.0312 1295.00
19.0964 1328.00
19.1616 1360.00
19.2268 1349.00
19.292 1326.00
19.3572 1298.00
19.4224 1305.00
19.4876 1320.00
19.5528 1210.00
19.618 1282.00
19.6832 1354.00
19.7484 1273.00
19.8136 1329.00
19.8788 1337.00
19.944 1294.00
20.0092 1336.00
20.0744 1212.00
20.1396 1255.00
20.2048 1239.00
20.27 1338.00
20.3352 1326.00
20.4004 1255.00
20.4656 1227.00
20.5308 1246.00
20.596 1199.00
20.6612 1259.00
20.7264 1302.00
20.7916 1249.00
20.8568 1214.00
20.922 1218.00
20.9872 1242.00
21.0524 1275.00
21.1176 1252.00
21.1828 1191.00
21.248 1212.00
21.3132 1173.00
21.3784 1221.00
21.4436 1177.00
21.5088 1225.00
21.574 1236.00
21.6392 1211.00
21.7044 1225.00
21.7696 1196.00
21.8348 1196.00
21.9 1153.00
21.9652 1167.00
22.0304 1180.00
22.0956 1159.00
22.1608 1196.00
22.226 1182.00
22.2912 1146.00
22.3564 1140.00
22.4216 1231.00
22.4868 1126.00
22.552 1134.00
22.6172 1065.00
22.6824 1132.00
22.7476 1114.00
22.8128 1078.00
22.878 1102.00
22.9432 1170.00
23.0084 1088.00
23.0736 1116.00
23.1388 1135.00
23.204 1097.00
23.2692 1114.00
23.3344 1230.00
23.3996 1204.00
23.4647 1276.00
23.5299 1238.00
23.5951 1076.00
23.6603 1052.00
23.7255 1058.00
23.7907 1117.00
23.8559 1076.00
23.9211 1046.00
23.9863 1078.00
24.0515 1060.00
24.1167 1087.00
24.1819 1053.00
24.2471 1118.00
24.3123 1091.00
24.3775 1051.00
24.4427 998.00
24.5079 1041.00
24.5731 1079.00
24.6383 1043.00
24.7035 1038.00
24.7687 986.00
24.8339 1054.00
24.8991 995.00
24.9643 986.00
25.0295 1043.00
25.0947 1042.00
25.1599 993.00
25.2251 979.00
25.2903 958.00
25.3555 1013.00
25.4207 1073.00
25.4859 1009.00
25.5511 977.00
25.6163 1040.00
25.6815 1029.00
25.7467 1055.00
25.8119 1052.00
25.8771 1128.00
25.9423 1133.00
26.0075 1193.00
26.0727 1290.00
26.1379 1341.00
26.2031 1262.00
26.2683 1292.00
26.3335 1532.00
26.3987 1528.00
26.4639 1667.00
26.5291 2006.00
26.5943 2604.00
26.6595 3766.00
26.7247 6159.00
26.7899 10688.00
26.8551 17592.00
26.9203 19961.00
26.9855 12616.00
27.0507 5951.00
27.1159 3375.00
27.1811 2505.00
27.2463 1887.00
27.3115 1681.00
27.3767 1403.00
27.4419 1266.00
27.5071 1222.00
27.5723 1258.00
27.6375 1198.00
27.7027 1099.00
27.7679 1093.00
27.8331 1099.00
27.8983 1019.00
27.9635 1008.00
28.0287 1058.00
28.0939 948.00
28.1591 1037.00
28.2243 940.00
28.2894 969.00
28.3546 1000.00
28.4198 902.00
28.485 951.00
28.5502 943.00
28.6154 958.00
28.6806 909.00
28.7458 1000.00
28.811 937.00
28.8762 1061.00
28.9414 1169.00
29.0066 1065.00
29.0718 911.00
29.137 916.00
29.2022 900.00
29.2674 893.00
29.3326 917.00
29.3978 841.00
29.463 921.00
29.5282 843.00
29.5934 873.00
29.6586 855.00
29.7238 863.00
29.789 903.00
29.8542 915.00
29.9194 1111.00
29.9846 1163.00
30.0498 1216.00
30.115 1083.00
30.1802 1052.00
30.2454 921.00
30.3106 853.00
30.3758 818.00
30.441 835.00
30.5062 790.00
30.5714 838.00
30.6366 821.00
30.7018 868.00
30.767 898.00
30.8322 986.00
30.8974 1173.00
30.9626 1496.00
31.0278 1970.00
31.093 1891.00
31.1582 1471.00
31.2234 1147.00
31.2886 920.00
31.3538 877.00
31.419 834.00
31.4842 899.00
31.5494 876.00
31.6146 860.00
31.6798 886.00
31.745 871.00
31.8102 995.00
31.8754 1403.00
31.9406 2041.00
32.0058 1763.00
32.071 1253.00
32.1362 887.00
32.2014 861.00
32.2666 902.00
32.3318 973.00
32.397 1143.00
32.4622 1373.00
32.5274 1224.00
32.5926 1203.00
32.6578 1293.00
32.723 1075.00
32.7882 983.00
32.8534 1040.00
32.9186 1415.00
32.9838 1287.00
33.0489 1061.00
33.1141 937.00
33.1793 978.00
33.2445 874.00
33.3097 938.00
33.3749 945.00
33.4401 927.00
33.5053 1006.00
33.5705 1107.00
33.6357 1200.00
33.7009 1327.00
33.7661 1454.00
33.8313 1695.00
33.8965 2174.00
33.9617 3302.00
34.0269 5535.00
34.0921 9925.00
34.1573 16238.00
34.2225 15213.00
34.2877 9922.00
34.3529 4853.00
34.4181 2834.00
34.4833 2125.00
34.5485 1818.00
34.6137 1456.00
34.6789 1194.00
34.7441 1074.00
34.8093 959.00
34.8745 888.00
34.9397 855.00
35.0049 875.00
35.0701 884.00
35.1353 823.00
35.2005 795.00
35.2657 755.00
35.3309 822.00
35.3961 781.00
35.4613 858.00
35.5265 777.00
35.5917 772.00
35.6569 712.00
35.7221 738.00
35.7873 702.00
35.8525 679.00
35.9177 742.00
35.9829 758.00
36.0481 751.00
36.1133 691.00
36.1785 770.00
36.2437 698.00
36.3089 742.00
36.3741 855.00
36.4393 1209.00
36.5045 1075.00
36.5697 1013.00
36.6349 766.00
36.7001 734.00
36.7653 692.00
36.8305 664.00
36.8957 666.00
36.9609 675.00
37.0261 732.00
37.0913 748.00
37.1565 701.00
37.2217 708.00
37.2869 709.00
37.3521 679.00
37.4173 648.00
37.4825 693.00
37.5477 698.00
37.6129 733.00
37.6781 727.00
37.7433 759.00
37.8085 823.00
37.8736 854.00
37.9388 974.00
38.004 1180.00
38.0692 1518.00
38.1344 2483.00
38.1996 4243.00
38.2648 5529.00
38.33 4166.00
38.3952 2827.00
38.4604 1703.00
38.5256 1205.00
38.5908 972.00
38.656 807.00
38.7212 826.00
38.7864 888.00
38.8516 898.00
38.9168 938.00
38.982 875.00
39.0472 1027.00
39.1124 1331.00
39.1776 1466.00
39.2428 1805.00
39.308 1784.00
39.3732 1465.00
39.4384 1090.00
39.5036 802.00
39.5688 698.00
39.634 674.00
39.6992 633.00
39.7644 627.00
39.8296 663.00
39.8948 606.00
39.96 653.00
40.0252 732.00
40.0904 723.00
40.1556 748.00
40.2208 652.00
40.286 600.00
40.3512 637.00
40.4164 598.00
40.4816 577.00
40.5468 589.00
40.612 539.00
40.6772 632.00
40.7424 670.00
40.8076 579.00
40.8728 627.00
40.938 562.00
41.0032 579.00
41.0684 549.00
41.1336 584.00
41.1988 532.00
41.264 543.00
41.3292 567.00
41.3944 559.00
41.4596 547.00
41.5248 667.00
41.59 727.00
41.6552 740.00
41.7204 671.00
41.7856 588.00
41.8508 653.00
41.916 677.00
41.9812 647.00
42.0464 615.00
42.1116 624.00
42.1768 559.00
42.242 582.00
42.3072 533.00
42.3724 509.00
42.4376 570.00
42.5028 560.00
42.568 520.00
42.6332 595.00
42.6983 577.00
42.7635 552.00
42.8287 670.00
42.8939 769.00
42.9591 795.00
43.0243 802.00
43.0895 655.00
43.1547 631.00
43.2199 584.00
43.2851 558.00
43.3503 594.00
43.4155 586.00
43.4807 523.00
43.5459 561.00
43.6111 689.00
43.6763 632.00
43.7415 613.00
43.8067 577.00
43.8719 482.00
43.9371 503.00
44.0023 502.00
44.0675 491.00
44.1327 467.00
44.1979 490.00
44.2631 530.00
44.3283 502.00
44.3935 482.00
44.4587 506.00
44.5239 499.00
44.5891 492.00
44.6543 474.00
44.7195 489.00
44.7847 491.00
44.8499 476.00
44.9151 500.00
44.9803 519.00
45.0455 522.00
45.1107 494.00
45.1759 568.00
45.2411 549.00
45.3063 592.00
45.3715 590.00
45.4367 518.00
45.5019 471.00
45.5671 482.00
45.6323 519.00
45.6975 441.00
45.7627 494.00
45.8279 425.00
45.8931 465.00
45.9583 450.00
46.0235 456.00
46.0887 463.00
46.1539 457.00
46.2191 513.00
46.2843 493.00
46.3495 508.00
46.4147 498.00
46.4799 501.00
46.5451 529.00
46.6103 498.00
46.6755 481.00
46.7407 500.00
46.8059 551.00
46.8711 503.00
46.9363 479.00
47.0015 487.00
47.0667 494.00
47.1319 470.00
47.1971 466.00
47.2623 462.00
47.3275 435.00
47.3927 443.00
47.4579 438.00
47.523 503.00
47.5882 576.00
47.6534 590.00
47.7186 508.00
47.7838 546.00
47.849 453.00
47.9142 473.00
47.9794 457.00
48.0446 469.00
48.1098 458.00
48.175 452.00
48.2402 469.00
48.3054 462.00
48.3706 448.00
48.4358 472.00
48.501 475.00
48.5662 470.00
48.6314 469.00
48.6966 485.00
48.7618 476.00
48.827 461.00
48.8922 509.00
48.9574 502.00
49.0226 488.00
49.0878 476.00
49.153 473.00
49.2182 434.00
49.2834 458.00
49.3486 467.00
49.4138 479.00
49.479 529.00
49.5442 531.00
49.6094 600.00
49.6746 584.00
49.7398 575.00
49.805 583.00
49.8702 668.00
49.9354 576.00
50.0006 633.00
50.0658 532.00
50.131 533.00
50.1962 515.00
50.2614 486.00
50.3266 538.00
50.3918 520.00
50.457 511.00
50.5222 522.00
50.5874 520.00
50.6526 496.00
50.7178 538.00
50.783 532.00
50.8482 523.00
50.9134 522.00
50.9786 569.00
51.0438 636.00
51.109 591.00
51.1742 599.00
51.2394 603.00
51.3046 626.00
51.3698 641.00
51.435 713.00
51.5002 807.00
51.5654 924.00
51.6306 1075.00
51.6958 1272.00
51.761 1532.00
51.8262 2058.00
51.8914 3165.00
51.9566 6197.00
52.0218 11887.00
52.087 12797.00
52.1522 9422.00
52.2174 7511.00
52.2826 3782.00
52.3477 2150.00
52.4129 1548.00
52.4781 1161.00
52.5433 919.00
52.6085 877.00
52.6737 810.00
52.7389 794.00
52.8041 700.00
52.8693 676.00
52.9345 614.00
52.9997 572.00
53.0649 542.00
53.1301 598.00
53.1953 531.00
53.2605 503.00
53.3257 557.00
53.3909 482.00
53.4561 522.00
53.5213 495.00
53.5865 476.00
53.6517 511.00
53.7169 510.00
53.7821 475.00
53.8473 482.00
53.9125 531.00
53.9777 522.00
54.0429 448.00
54.1081 515.00
54.1733 493.00
54.2385 475.00
54.3037 478.00
54.3689 481.00
54.4341 518.00
54.4993 498.00
54.5645 579.00
54.6297 579.00
54.6949 669.00
54.7601 765.00
54.8253 922.00
54.8905 1280.00
54.9557 2052.00
55.0209 3471.00
55.0861 2935.00
55.1513 2321.00
55.2165 1875.00
55.2817 1165.00
55.3469 828.00
55.4121 708.00
55.4773 603.00
55.5425 547.00
55.6077 528.00
55.6729 625.00
55.7381 507.00
55.8033 508.00
55.8685 449.00
55.9337 458.00
55.9989 498.00
56.0641 499.00
56.1293 428.00
56.1945 439.00
56.2597 456.00
56.3249 450.00
56.3901 439.00
56.4553 446.00
56.5205 475.00
56.5857 402.00
56.6509 389.00
56.7161 474.00
56.7813 410.00
56.8465 444.00
56.9117 435.00
56.9769 407.00
57.042 429.00
57.1073 420.00
57.1724 432.00
57.2376 469.00
57.3028 409.00
57.368 464.00
57.4332 526.00
57.4984 530.00
57.5636 529.00
57.6288 532.00
57.694 591.00
57.7592 590.00
57.8244 627.00
57.8896 694.00
57.9548 857.00
58.02 1247.00
58.0852 1669.00
58.1504 1560.00
58.2156 1344.00
58.2808 1267.00
58.346 777.00
58.4112 600.00
58.4764 521.00
58.5416 496.00
58.6068 457.00
58.672 438.00
58.7372 420.00
58.8024 443.00
58.8676 435.00
58.9328 407.00
58.998 403.00
59.0632 419.00
59.1284 432.00
59.1936 419.00
59.2588 407.00
59.324 412.00
59.3892 387.00
59.4544 431.00
59.5196 364.00
59.5848 395.00
59.65 370.00
59.7152 391.00
59.7804 368.00
59.8456 413.00
59.9108 428.00
59.976 432.00
60.0412 404.00
60.1064 396.00
60.1716 415.00
60.2368 380.00
60.302 407.00
60.3672 367.00
60.4324 417.00
60.4976 389.00
60.5628 395.00
60.628 399.00
60.6932 366.00
60.7584 409.00
60.8236 384.00
60.8888 437.00
60.954 399.00
61.0192 384.00
61.0844 390.00
61.1496 405.00
61.2148 409.00
61.28 419.00
61.3452 424.00
61.4104 406.00
61.4756 379.00
61.5408 431.00
61.606 461.00
61.6712 440.00
61.7364 540.00
61.8016 558.00
61.8667 614.00
61.932 720.00
61.9971 1007.00
62.0623 1699.00
62.1275 2825.00
62.1927 2611.00
62.2579 1970.00
62.3231 1989.00
62.3883 1337.00
62.4535 878.00
62.5187 680.00
62.5839 576.00
62.6491 534.00
62.7143 472.00
62.7795 476.00
62.8447 439.00
62.9099 481.00
62.9751 411.00
63.0403 503.00
63.1055 439.00
63.1707 433.00
63.2359 434.00
63.3011 417.00
63.3663 433.00
63.4315 398.00
63.4967 402.00
63.5619 431.00
63.6271 427.00
63.6923 399.00
63.7575 397.00
63.8227 427.00
63.8879 374.00
63.9531 422.00
64.0183 412.00
64.0835 438.00
64.1487 450.00
64.2139 439.00
64.2791 437.00
64.3443 464.00
64.4095 464.00
64.4747 502.00
64.5399 554.00
64.6051 590.00
64.6703 620.00
64.7355 749.00
64.8007 904.00
64.8659 1273.00
64.9311 2168.00
64.9963 2959.00
65.0615 2230.00
65.1267 2003.00
65.1919 1890.00
65.2571 1238.00
65.3223 857.00
65.3875 692.00
65.4527 632.00
65.5179 558.00
65.5831 524.00
65.6483 580.00
65.7135 525.00
65.7787 605.00
65.8439 634.00
65.9091 691.00
65.9743 845.00
66.0395 1079.00
66.1047 1536.00
66.1699 2774.00
66.2351 3683.00
66.3003 2601.00
66.3655 2187.00
66.4307 2232.00
66.4959 1446.00
66.561 899.00
66.6263 712.00
66.6915 563.00
66.7566 508.00
66.8218 442.00
66.887 467.00
66.9522 434.00
67.0174 417.00
67.0826 427.00
67.1478 406.00
67.213 430.00
67.2782 430.00
67.3434 444.00
67.4086 409.00
67.4738 443.00
67.539 398.00
67.6042 394.00
67.6694 371.00
67.7346 334.00
67.7998 359.00
67.865 409.00
67.9302 403.00
67.9954 376.00
68.0606 386.00
68.1258 373.00
68.191 369.00
68.2562 337.00
68.3214 348.00
68.3866 368.00
68.4518 370.00
68.517 374.00
68.5822 388.00
68.6474 379.00
68.7126 383.00
68.7778 350.00
68.843 360.00
68.9082 345.00
68.9734 347.00
69.0386 387.00
69.1038 342.00
69.169 351.00
69.2342 364.00
69.2994 378.00
69.3646 396.00
69.4298 389.00
69.495 397.00
69.5602 342.00
69.6254 373.00
69.6906 376.00
69.7558 387.00
69.821 359.00
69.8862 347.00
69.9514 361.00
70.0166 366.00
70.0818 327.00
70.147 357.00
70.2122 375.00
70.2774 421.00
70.3426 384.00
70.4078 350.00
70.473 365.00
70.5382 321.00
70.6034 362.00
70.6686 334.00
70.7338 327.00
70.799 356.00
70.8642 383.00
70.9294 361.00
70.9946 418.00
71.0598 422.00
71.125 431.00
71.1902 466.00
71.2554 524.00
71.3205 524.00
71.3858 716.00
71.451 1171.00
71.5162 1559.00
71.5813 1335.00
71.6465 1058.00
71.7117 1164.00
71.7769 891.00
71.8421 636.00
71.9073 516.00
71.9725 443.00
72.0377 455.00
72.1029 419.00
72.1681 399.00
72.2333 343.00
72.2985 368.00
72.3637 318.00
72.4289 358.00
72.4941 360.00
72.5593 386.00
72.6245 303.00
72.6897 367.00
72.7549 347.00
72.8201 380.00
72.8853 366.00
72.9505 364.00
73.0157 339.00
73.0809 308.00
73.1461 317.00
73.2113 331.00
73.2765 321.00
73.3417 335.00
73.4069 348.00
73.4721 295.00
73.5373 354.00
73.6025 305.00
73.6677 348.00
73.7329 292.00
73.7981 307.00
73.8633 339.00
73.9285 338.00
73.9937 342.00
74.0589 343.00
74.1241 337.00
74.1893 331.00
74.2545 322.00
74.3197 329.00
74.3849 347.00
74.4501 356.00
74.5153 375.00
74.5805 335.00
74.6457 408.00
74.7109 371.00
74.7761 371.00
74.8413 318.00
74.9065 338.00
74.9717 341.00
75.0369 344.00
75.1021 304.00
75.1673 347.00
75.2325 284.00
75.2977 341.00
75.3629 348.00
75.4281 319.00
75.4933 302.00
75.5585 332.00
75.6237 356.00
75.6889 312.00
75.7541 333.00
75.8193 315.00
75.8845 256.00
75.9497 363.00
76.0149 303.00
76.0801 299.00
76.1452 313.00
76.2104 321.00
76.2756 355.00
76.3409 315.00
76.406 314.00
76.4712 328.00
76.5364 310.00
76.6016 332.00
76.6668 292.00
76.732 368.00
76.7972 289.00
76.8624 303.00
76.9276 331.00
76.9928 325.00
77.058 294.00
77.1232 328.00
77.1884 299.00
77.2536 331.00
77.3188 318.00
77.384 316.00
77.4492 335.00
77.5144 312.00
77.5796 290.00
77.6448 326.00
77.71 353.00
77.7752 313.00
77.8404 349.00
77.9056 360.00
77.9708 321.00
78.036 336.00
78.1012 347.00
78.1664 360.00
78.2316 337.00
78.2968 359.00
78.362 373.00
78.4272 410.00
78.4924 412.00
78.5576 444.00
78.6228 492.00
78.688 591.00
78.7532 664.00
78.8184 1071.00
78.8836 1728.00
78.9488 2339.00
79.014 1591.00
79.0792 1321.00
79.1444 1392.00
79.2096 1324.00
79.2748 847.00
79.34 601.00
79.4052 537.00
79.4704 449.00
79.5356 392.00
79.6008 427.00
79.666 416.00
79.7312 339.00
79.7964 325.00
79.8616 319.00
79.9268 349.00
79.992 324.00
80.0572 306.00
80.1224 340.00
80.1876 323.00
80.2528 327.00
80.318 360.00
80.3832 307.00
80.4484 333.00
80.5136 334.00
80.5788 357.00
80.644 315.00
80.7092 338.00
80.7744 334.00
80.8396 334.00
80.9048 346.00
80.9699 368.00
81.0351 369.00
81.1003 413.00
81.1655 475.00
81.2307 555.00
81.2959 702.00
81.3611 815.00
81.4263 832.00
81.4915 638.00
81.5567 599.00
81.6219 655.00
81.6871 556.00
81.7523 440.00
81.8175 388.00
81.8827 359.00
81.9479 376.00
82.0131 351.00
82.0783 345.00
82.1435 326.00
82.2087 316.00
82.2739 320.00
82.3391 372.00
82.4043 327.00
82.4695 401.00
82.5347 337.00
82.5999 347.00
82.6651 339.00
82.7303 338.00
82.7955 319.00
82.8607 291.00
82.9259 324.00
82.9911 302.00
83.0563 303.00
83.1215 303.00
83.1867 289.00
83.2519 342.00
83.3171 347.00
83.3823 366.00
83.4475 344.00
83.5127 395.00
83.5779 424.00
83.6431 403.00
83.7083 493.00
83.7735 638.00
83.8387 1015.00
83.9039 1481.00
83.9691 1557.00
84.0343 1051.00
84.0995 873.00
84.1647 1142.00
84.2299 984.00
84.2951 669.00
84.3603 521.00
84.4255 427.00
84.4907 404.00
84.5559 349.00
84.6211 379.00
84.6863 362.00
84.7515 322.00
84.8167 343.00
84.8819 326.00
84.9471 346.00
85.0123 342.00
85.0775 349.00
85.1427 293.00
85.2079 330.00
85.2731 279.00
85.3383 298.00
85.4035 327.00
85.4687 297.00
85.5339 294.00
85.5991 311.00
85.6643 339.00
85.7295 307.00
85.7946 328.00
85.8598 294.00
85.925 316.00
85.9903 296.00
86.0554 306.00
86.1206 288.00
86.1858 349.00
86.251 285.00
86.3162 314.00
86.3814 330.00
86.4466 295.00
86.5118 323.00
86.577 318.00
86.6422 319.00
86.7074 283.00
86.7726 313.00
86.8378 311.00
86.903 331.00
86.9682 353.00
87.0334 362.00
87.0986 351.00
87.1638 387.00
87.229 387.00
87.2942 523.00
87.3594 641.00
87.4246 867.00
87.4898 816.00
87.555 618.00
87.6202 549.00
87.6854 644.00
87.7506 623.00
87.8158 489.00
87.881 384.00
87.9462 382.00
88.0114 354.00
88.0766 353.00
88.1418 356.00
88.207 327.00
88.2722 349.00
88.3374 306.00
88.4026 336.00
88.4678 323.00
88.533 301.00
88.5982 337.00
88.6634 350.00
88.7286 327.00
88.7938 331.00
88.859 331.00
88.9242 307.00
88.9894 298.00
89.0546 294.00
89.1198 329.00
89.185 319.00
89.2502 329.00
89.3154 347.00
89.3806 371.00
89.4458 367.00
89.511 428.00
89.5762 458.00
89.6414 460.00
89.7066 526.00
89.7718 654.00
89.837 754.00
89.9022 1124.00
89.9674 1634.00
90.0326 1667.00
90.0978 1173.00
90.163 996.00
90.2282 1072.00
90.2934 1252.00
90.3586 879.00
90.4238 626.00
90.489 560.00
90.5542 513.00
90.6193 507.00
90.6845 476.00
90.7497 550.00
90.8149 541.00
90.8801 621.00
90.9453 785.00
91.0105 1131.00
91.0757 1755.00
91.1409 1813.00
91.2061 1273.00
91.2713 981.00
91.3365 1092.00
91.4017 1228.00
91.4669 945.00
91.5321 627.00
91.5973 548.00
91.6625 493.00
91.7277 420.00
91.7929 385.00
91.8581 355.00
91.9233 374.00
91.9885 331.00
92.0537 376.00
92.1189 320.00
92.1841 339.00
92.2493 319.00
92.3145 285.00
92.3797 325.00
92.4449 318.00
92.5101 313.00
92.5753 291.00
92.6405 301.00
92.7057 312.00
92.7709 314.00
92.8361 291.00
92.9013 348.00
92.9665 352.00
93.0317 385.00
93.0969 355.00
93.1621 414.00
93.2273 431.00
93.2925 508.00
93.3577 598.00
93.4229 792.00
93.4881 1013.00
93.5533 856.00
93.6185 703.00
93.6837 637.00
93.7489 617.00
93.8141 743.00
93.8793 575.00
93.9445 440.00
94.0097 392.00
94.0749 330.00
94.1401 364.00
94.2053 332.00
94.2705 341.00
94.3357 336.00
94.4009 329.00
94.4661 341.00
94.5313 307.00
94.5965 303.00
94.6617 307.00
94.7269 329.00
94.7921 318.00
94.8573 296.00
94.9225 294.00
94.9877 310.00
95.0529 295.00
95.1181 313.00
95.1833 284.00
95.2485 312.00
95.3137 260.00
95.3789 296.00
95.444 314.00
95.5092 279.00
95.5744 308.00
95.6396 338.00
95.7048 339.00
95.77 339.00
95.8352 369.00
95.9004 384.00
95.9656 425.00
96.0308 481.00
96.096 570.00
96.1612 754.00
96.2264 875.00
96.2916 726.00
96.3568 583.00
96.422 583.00
96.4872 612.00
96.5524 626.00
96.6176 489.00
96.6828 438.00
96.748 378.00
96.8132 382.00
96.8784 326.00
96.9436 306.00
97.0088 314.00
97.074 312.00
97.1392 292.00
97.2044 271.00
97.2696 291.00
97.3348 291.00
97.4 339.00
97.4652 260.00
97.5304 280.00
97.5956 284.00
97.6608 269.00
97.726 262.00
97.7912 286.00
97.8564 280.00
97.9216 294.00
97.9868 272.00
98.052 268.00
98.1172 307.00
98.1824 259.00
98.2476 285.00
98.3128 309.00
98.378 314.00
98.4432 283.00
98.5084 287.00
98.5736 236.00
98.6388 295.00
98.704 276.00
98.7692 259.00
98.8344 282.00
98.8996 241.00
98.9648 285.00
99.03 279.00
99.0952 329.00
99.1604 273.00
99.2256 275.00
99.2908 316.00
99.356 245.00
99.4212 283.00
99.4864 281.00
99.5516 284.00
99.6168 272.00
99.682 308.00
99.7472 268.00
99.8124 260.00
99.8776 267.00
99.9428 285.00
100.008 294.00
100.073 235.00
100.095 265.00