File: data/xrd_creation/results/PG_2639-1.xy
10.0094 3210.00
10.0746 3172.00
10.1398 3093.00
10.205 3059.00
10.2702 3002.00
10.3354 2972.00
10.4006 3137.00
10.4658 3060.00
10.531 2959.00
10.5962 3043.00
10.6614 3023.00
10.7266 2959.00
10.7918 2917.00
10.857 2977.00
10.9222 3046.00
10.9874 3064.00
11.0526 2992.00
11.1178 3001.00
11.183 3074.00
11.2482 3067.00
11.3134 2949.00
11.3786 2869.00
11.4438 2871.00
11.509 2973.00
11.5742 2888.00
11.6394 2957.00
11.7046 2880.00
11.7698 2953.00
11.835 2845.00
11.9002 2909.00
11.9654 2890.00
12.0306 2940.00
12.0958 2868.00
12.161 2865.00
12.2262 2866.00
12.2914 2872.00
12.3566 2794.00
12.4218 2740.00
12.487 2816.00
12.5522 2858.00
12.6174 2846.00
12.6826 2852.00
12.7478 2911.00
12.813 2750.00
12.8782 2808.00
12.9434 2871.00
13.0086 2819.00
13.0738 2738.00
13.139 2841.00
13.2042 2741.00
13.2694 2809.00
13.3346 2756.00
13.3998 2730.00
13.465 2778.00
13.5302 2738.00
13.5954 2866.00
13.6606 2768.00
13.7258 2845.00
13.791 2780.00
13.8562 2846.00
13.9214 2730.00
13.9865 2712.00
14.0517 2776.00
14.1169 2784.00
14.1821 2757.00
14.2473 2775.00
14.3125 2877.00
14.3777 2791.00
14.4429 2686.00
14.5081 2848.00
14.5733 2783.00
14.6385 2695.00
14.7037 2762.00
14.7689 2866.00
14.8341 2838.00
14.8993 2759.00
14.9645 2786.00
15.0297 2836.00
15.0949 2802.00
15.1601 2876.00
15.2253 2877.00
15.2905 2866.00
15.3557 2920.00
15.4209 2835.00
15.4861 2776.00
15.5513 2794.00
15.6165 2804.00
15.6817 2846.00
15.7469 2808.00
15.8121 2863.00
15.8773 2916.00
15.9425 2756.00
16.0077 2798.00
16.0729 2802.00
16.1381 2813.00
16.2033 2801.00
16.2685 2787.00
16.3337 2879.00
16.3989 2821.00
16.4641 2855.00
16.5293 2791.00
16.5945 2897.00
16.6597 2818.00
16.7249 2834.00
16.7901 2914.00
16.8553 2848.00
16.9205 2743.00
16.9857 2786.00
17.0509 2768.00
17.1161 2794.00
17.1813 2837.00
17.2465 2849.00
17.3117 2922.00
17.3769 2804.00
17.4421 2816.00
17.5073 2926.00
17.5725 2879.00
17.6377 2777.00
17.7029 3008.00
17.7681 2769.00
17.8333 2784.00
17.8985 2772.00
17.9637 2813.00
18.0289 2811.00
18.0941 2764.00
18.1593 2940.00
18.2245 2967.00
18.2897 3034.00
18.3549 3179.00
18.4201 3235.00
18.4853 3640.00
18.5505 3856.00
18.6157 3934.00
18.6809 3525.00
18.7461 3024.00
18.8112 2873.00
18.8764 2962.00
18.9416 2878.00
19.0068 2833.00
19.072 2835.00
19.1372 2848.00
19.2024 2826.00
19.2676 2790.00
19.3328 2881.00
19.398 2763.00
19.4632 2792.00
19.5284 2838.00
19.5936 2946.00
19.6588 2875.00
19.724 2912.00
19.7892 2787.00
19.8544 2859.00
19.9196 2741.00
19.9848 2808.00
20.05 2845.00
20.1152 2733.00
20.1804 2795.00
20.2456 2907.00
20.3108 2928.00
20.376 2875.00
20.4412 2755.00
20.5064 2815.00
20.5716 2811.00
20.6368 2948.00
20.702 2792.00
20.7672 2817.00
20.8324 2871.00
20.8976 2890.00
20.9628 2905.00
21.028 2929.00
21.0932 2788.00
21.1584 2867.00
21.2236 2833.00
21.2888 2897.00
21.354 2903.00
21.4192 2899.00
21.4844 2914.00
21.5496 2862.00
21.6148 2850.00
21.68 2861.00
21.7452 2872.00
21.8104 2843.00
21.8756 2825.00
21.9408 2915.00
22.006 2841.00
22.0712 2908.00
22.1364 2914.00
22.2016 2876.00
22.2668 2861.00
22.332 2837.00
22.3972 2838.00
22.4624 2908.00
22.5276 2831.00
22.5928 2917.00
22.658 2952.00
22.7232 2927.00
22.7884 2916.00
22.8536 2858.00
22.9188 2930.00
22.984 3028.00
23.0492 2909.00
23.1144 3060.00
23.1796 2915.00
23.2448 3052.00
23.31 2909.00
23.3752 3005.00
23.4404 3111.00
23.5056 3019.00
23.5708 3021.00
23.6359 2981.00
23.7011 2915.00
23.7663 2925.00
23.8315 3043.00
23.8967 2910.00
23.9619 2928.00
24.0271 3021.00
24.0923 2910.00
24.1575 2852.00
24.2227 2864.00
24.2879 2912.00
24.3531 2891.00
24.4183 2846.00
24.4835 2872.00
24.5487 2974.00
24.6139 3009.00
24.6791 2898.00
24.7443 2853.00
24.8095 2911.00
24.8747 2935.00
24.9399 2951.00
25.0051 2972.00
25.0703 2914.00
25.1355 2954.00
25.2007 2847.00
25.2659 2921.00
25.3311 2904.00
25.3963 2930.00
25.4615 2980.00
25.5267 2976.00
25.5919 2927.00
25.6571 2851.00
25.7223 2953.00
25.7875 2874.00
25.8527 2976.00
25.9179 2895.00
25.9831 2841.00
26.0483 2972.00
26.1135 2929.00
26.1787 3008.00
26.2439 2844.00
26.3091 2871.00
26.3743 2913.00
26.4395 2966.00
26.5047 2917.00
26.5699 2995.00
26.6351 2892.00
26.7003 3002.00
26.7655 3107.00
26.8307 3005.00
26.8959 2980.00
26.9611 2972.00
27.0263 2987.00
27.0915 2888.00
27.1567 2973.00
27.2219 2851.00
27.2871 2908.00
27.3523 2950.00
27.4175 2908.00
27.4827 2917.00
27.5479 2941.00
27.6131 2895.00
27.6783 2991.00
27.7435 2989.00
27.8087 3016.00
27.8739 2821.00
27.9391 2953.00
28.0043 2904.00
28.0695 2939.00
28.1347 3027.00
28.1999 3015.00
28.2651 2913.00
28.3303 2975.00
28.3955 2948.00
28.4606 3015.00
28.5258 2942.00
28.591 2851.00
28.6562 2938.00
28.7214 2900.00
28.7866 2904.00
28.8518 2938.00
28.917 3002.00
28.9822 2809.00
29.0474 2948.00
29.1126 3008.00
29.1778 2951.00
29.243 2898.00
29.3082 3033.00
29.3734 2988.00
29.4386 3086.00
29.5038 3035.00
29.569 3044.00
29.6342 3019.00
29.6994 2999.00
29.7646 2999.00
29.8298 2893.00
29.895 3007.00
29.9602 3059.00
30.0254 3065.00
30.0906 3253.00
30.1558 3612.00
30.221 3987.00
30.2862 4676.00
30.3514 4882.00
30.4166 4868.00
30.4818 4723.00
30.547 4164.00
30.6122 3431.00
30.6774 3130.00
30.7426 3111.00
30.8078 3001.00
30.873 3029.00
30.9382 3004.00
31.0034 2990.00
31.0686 3083.00
31.1338 3003.00
31.199 2951.00
31.2642 3039.00
31.3294 2992.00
31.3946 3024.00
31.4598 3071.00
31.525 2972.00
31.5902 3142.00
31.6554 2961.00
31.7206 3054.00
31.7858 2931.00
31.851 2996.00
31.9162 2996.00
31.9814 2959.00
32.0466 2932.00
32.1118 2978.00
32.177 3055.00
32.2422 2944.00
32.3074 3035.00
32.3726 3008.00
32.4378 3145.00
32.503 3148.00
32.5682 3068.00
32.6334 3123.00
32.6986 3060.00
32.7638 2991.00
32.829 2942.00
32.8942 3053.00
32.9594 3100.00
33.0246 3130.00
33.0898 3331.00
33.1549 3534.00
33.2201 3838.00
33.2853 3889.00
33.3505 3704.00
33.4157 3397.00
33.4809 3135.00
33.5461 3082.00
33.6113 2966.00
33.6765 3050.00
33.7417 2951.00
33.8069 3021.00
33.8721 3045.00
33.9373 2967.00
34.0025 2984.00
34.0677 2952.00
34.1329 3008.00
34.1981 2942.00
34.2633 3099.00
34.3285 3030.00
34.3937 3159.00
34.4589 3092.00
34.5241 3070.00
34.5893 3057.00
34.6545 3059.00
34.7197 3058.00
34.7849 3178.00
34.8501 3097.00
34.9153 3060.00
34.9805 3068.00
35.0457 3085.00
35.1109 3100.00
35.1761 3139.00
35.2413 3285.00
35.3065 3428.00
35.3717 3561.00
35.4369 4231.00
35.5021 5295.00
35.5673 6759.00
35.6325 8123.00
35.6977 8821.00
35.7629 9266.00
35.8281 9323.00
35.8933 7721.00
35.9585 5593.00
36.0237 4088.00
36.0889 3482.00
36.1541 3191.00
36.2193 3332.00
36.2845 3169.00
36.3497 3252.00
36.4149 3319.00
36.4801 3136.00
36.5453 3177.00
36.6105 3138.00
36.6757 3222.00
36.7409 3224.00
36.8061 3122.00
36.8713 3165.00
36.9365 3060.00
37.0017 3208.00
37.0669 3297.00
37.1321 3363.00
37.1973 3586.00
37.2625 3813.00
37.3277 4207.00
37.3929 5044.00
37.4581 7256.00
37.5233 8613.00
37.5885 7105.00
37.6537 4965.00
37.7189 3728.00
37.7841 3310.00
37.8493 3216.00
37.9145 3176.00
37.9796 3028.00
38.0448 3093.00
38.11 3023.00
38.1752 3122.00
38.2404 3151.00
38.3056 3186.00
38.3708 3220.00
38.436 3138.00
38.5012 3198.00
38.5664 3221.00
38.6316 3239.00
38.6968 3236.00
38.762 2948.00
38.8272 3149.00
38.8924 2978.00
38.9576 3081.00
39.0228 3077.00
39.088 3119.00
39.1532 3010.00
39.2184 2912.00
39.2836 3019.00
39.3488 3042.00
39.414 2996.00
39.4792 3045.00
39.5444 3108.00
39.6096 3053.00
39.6748 3002.00
39.74 3193.00
39.8052 3037.00
39.8704 2986.00
39.9356 2973.00
40.0008 2980.00
40.066 3157.00
40.1312 3038.00
40.1964 3068.00
40.2616 3129.00
40.3268 2959.00
40.392 3056.00
40.4572 3104.00
40.5224 3013.00
40.5876 3126.00
40.6528 3064.00
40.718 3043.00
40.7832 3100.00
40.8484 3140.00
40.9136 3039.00
40.9788 3136.00
41.044 2954.00
41.1092 3072.00
41.1744 3040.00
41.2396 3036.00
41.3048 3060.00
41.37 3016.00
41.4352 3042.00
41.5004 3103.00
41.5656 3031.00
41.6308 3081.00
41.696 3014.00
41.7612 3095.00
41.8264 3175.00
41.8916 3021.00
41.9568 3169.00
42.022 3138.00
42.0872 3077.00
42.1524 3145.00
42.2176 3110.00
42.2828 3087.00
42.348 3071.00
42.4132 3147.00
42.4784 3157.00
42.5436 3128.00
42.6088 3097.00
42.6739 3099.00
42.7392 3174.00
42.8043 3051.00
42.8695 3238.00
42.9347 3224.00
42.9999 3411.00
43.0651 3485.00
43.1303 3823.00
43.1955 4222.00
43.2607 4442.00
43.3259 4825.00
43.3911 5805.00
43.4563 7802.00
43.5215 12521.00
43.5867 10513.00
43.6519 8596.00
43.7171 5226.00
43.7823 3775.00
43.8475 3485.00
43.9127 3308.00
43.9779 3198.00
44.0431 3160.00
44.1083 3156.00
44.1735 3035.00
44.2387 3187.00
44.3039 3086.00
44.3691 3184.00
44.4343 3002.00
44.4995 3116.00
44.5647 3086.00
44.6299 3195.00
44.6951 3228.00
44.7603 3137.00
44.8255 3168.00
44.8907 3139.00
44.9559 3039.00
45.0211 3120.00
45.0863 3125.00
45.1515 3114.00
45.2167 3235.00
45.2819 3091.00
45.3471 3125.00
45.4123 3241.00
45.4775 3215.00
45.5427 3159.00
45.6079 3145.00
45.6731 3141.00
45.7383 3188.00
45.8035 3111.00
45.8687 3221.00
45.9339 3119.00
45.9991 3130.00
46.0643 3142.00
46.1295 3128.00
46.1947 3026.00
46.2599 3222.00
46.3251 3080.00
46.3903 3162.00
46.4555 3045.00
46.5207 3174.00
46.5859 3131.00
46.6511 3153.00
46.7163 3070.00
46.7815 3120.00
46.8467 3046.00
46.9119 3102.00
46.9771 3051.00
47.0423 3247.00
47.1075 3117.00
47.1727 3054.00
47.2379 3239.00
47.3031 3066.00
47.3683 3148.00
47.4335 3142.00
47.4986 3150.00
47.5639 3085.00
47.629 3143.00
47.6942 3064.00
47.7594 3174.00
47.8246 3179.00
47.8898 3233.00
47.955 3033.00
48.0202 3148.00
48.0854 3113.00
48.1506 3076.00
48.2158 3076.00
48.281 3055.00
48.3462 3119.00
48.4114 3106.00
48.4766 3096.00
48.5418 3201.00
48.607 3053.00
48.6722 3140.00
48.7374 3204.00
48.8026 3171.00
48.8678 3105.00
48.933 3070.00
48.9982 3144.00
49.0634 3122.00
49.1286 3190.00
49.1938 3224.00
49.259 3222.00
49.3242 3177.00
49.3894 3205.00
49.4546 3196.00
49.5198 3265.00
49.585 3215.00
49.6502 3216.00
49.7154 3349.00
49.7806 3154.00
49.8458 3166.00
49.911 3097.00
49.9762 3127.00
50.0414 3236.00
50.1066 3139.00
50.1718 3145.00
50.237 3128.00
50.3022 3159.00
50.3674 3203.00
50.4326 3213.00
50.4978 3090.00
50.563 3134.00
50.6282 3090.00
50.6934 3155.00
50.7586 3121.00
50.8238 3073.00
50.889 3293.00
50.9542 3255.00
51.0194 3172.00
51.0846 3157.00
51.1498 3254.00
51.215 3101.00
51.2802 3142.00
51.3454 3253.00
51.4106 3131.00
51.4758 3135.00
51.541 3119.00
51.6062 3087.00
51.6714 3169.00
51.7366 3151.00
51.8018 3076.00
51.867 3122.00
51.9322 3109.00
51.9974 3166.00
52.0626 3176.00
52.1278 3143.00
52.193 3178.00
52.2582 3178.00
52.3233 3171.00
52.3886 3047.00
52.4537 3128.00
52.5189 3253.00
52.5841 3085.00
52.6493 3222.00
52.7145 3148.00
52.7797 3285.00
52.8449 3228.00
52.9101 3180.00
52.9753 3186.00
53.0405 3093.00
53.1057 3223.00
53.1709 3194.00
53.2361 3185.00
53.3013 3325.00
53.3665 3184.00
53.4317 3259.00
53.4969 3333.00
53.5621 3563.00
53.6273 3566.00
53.6925 3468.00
53.7577 3585.00
53.8229 3596.00
53.8881 3644.00
53.9533 3563.00
54.0185 3466.00
54.0837 3317.00
54.1489 3289.00
54.2141 3274.00
54.2793 3231.00
54.3445 3201.00
54.4097 3200.00
54.4749 3192.00
54.5401 3264.00
54.6053 3226.00
54.6705 3138.00
54.7357 3093.00
54.8009 3105.00
54.8661 3174.00
54.9313 3185.00
54.9965 3154.00
55.0617 3136.00
55.1269 3255.00
55.1921 3293.00
55.2573 3388.00
55.3225 3268.00
55.3877 3352.00
55.4529 3498.00
55.5181 3427.00
55.5833 3466.00
55.6485 3326.00
55.7137 3399.00
55.7789 3215.00
55.8441 3265.00
55.9093 3184.00
55.9745 3173.00
56.0397 3251.00
56.1049 3233.00
56.1701 3204.00
56.2353 3219.00
56.3005 3231.00
56.3657 3167.00
56.4309 3214.00
56.4961 3435.00
56.5613 3246.00
56.6265 3227.00
56.6917 3369.00
56.7569 3281.00
56.8221 3640.00
56.8873 3661.00
56.9525 3935.00
57.0177 4267.00
57.0829 4454.00
57.148 4546.00
57.2132 4764.00
57.2784 4753.00
57.3436 4924.00
57.4088 4959.00
57.474 4769.00
57.5392 4345.00
57.6044 3989.00
57.6696 3832.00
57.7348 3528.00
57.8 3235.00
57.8652 3374.00
57.9304 3283.00
57.9956 3215.00
58.0608 3173.00
58.126 3141.00
58.1912 3202.00
58.2564 3249.00
58.3216 3270.00
58.3868 3309.00
58.452 3175.00
58.5172 3229.00
58.5824 3185.00
58.6476 3172.00
58.7128 3326.00
58.778 3219.00
58.8432 3229.00
58.9084 3280.00
58.9736 3187.00
59.0388 3248.00
59.104 3248.00
59.1692 3340.00
59.2344 3213.00
59.2996 3277.00
59.3648 3202.00
59.43 3013.00
59.4952 3143.00
59.5604 3147.00
59.6256 3254.00
59.6908 3240.00
59.756 3234.00
59.8212 3305.00
59.8864 3290.00
59.9516 3200.00
60.0168 3190.00
60.082 3403.00
60.1472 3195.00
60.2124 3365.00
60.2776 3283.00
60.3428 3275.00
60.408 3267.00
60.4732 3166.00
60.5384 3195.00
60.6036 3188.00
60.6688 3204.00
60.734 3297.00
60.7992 3232.00
60.8644 3254.00
60.9296 3260.00
60.9948 3176.00
61.06 3267.00
61.1252 3224.00
61.1904 3232.00
61.2556 3269.00
61.3208 3166.00
61.386 3336.00
61.4512 3232.00
61.5164 3348.00
61.5816 3274.00
61.6468 3312.00
61.712 3211.00
61.7772 3178.00
61.8424 3363.00
61.9076 3175.00
61.9727 3372.00
62.0379 3260.00
62.1031 3318.00
62.1683 3341.00
62.2335 3429.00
62.2987 3496.00
62.3639 3607.00
62.4291 3936.00
62.4943 4065.00
62.5595 4239.00
62.6247 4614.00
62.6899 4799.00
62.7551 4876.00
62.8203 5012.00
62.8855 5320.00
62.9507 5852.00
63.0159 7154.00
63.0811 8228.00
63.1463 7714.00
63.2115 6289.00
63.2767 5747.00
63.3419 5047.00
63.4071 3919.00
63.4723 3537.00
63.5375 3574.00
63.6027 3469.00
63.6679 3369.00
63.7331 3395.00
63.7983 3270.00
63.8635 3357.00
63.9287 3374.00
63.9939 3146.00
64.0591 3248.00
64.1243 3245.00
64.1895 3390.00
64.2547 3233.00
64.3199 3316.00
64.3851 3382.00
64.4503 3402.00
64.5155 3295.00
64.5807 3375.00
64.6459 3300.00
64.7111 3239.00
64.7763 3238.00
64.8415 3449.00
64.9067 3282.00
64.9719 3377.00
65.0371 3360.00
65.1023 3295.00
65.1675 3275.00
65.2327 3272.00
65.2979 3391.00
65.3631 3352.00
65.4283 3297.00
65.4935 3238.00
65.5587 3329.00
65.6239 3274.00
65.6891 3224.00
65.7543 3287.00
65.8195 3413.00
65.8847 3290.00
65.9499 3483.00
66.0151 3409.00
66.0803 3547.00
66.1455 3505.00
66.2107 3522.00
66.2759 3370.00
66.3411 3392.00
66.4063 3374.00
66.4715 3306.00
66.5367 3258.00
66.6019 3212.00
66.6671 3290.00
66.7322 3271.00
66.7974 3286.00
66.8626 3280.00
66.9278 3266.00
66.993 3309.00
67.0582 3251.00
67.1234 3342.00
67.1886 3283.00
67.2538 3250.00
67.319 3286.00
67.3842 3295.00
67.4494 3260.00
67.5146 3203.00
67.5798 3190.00
67.645 3241.00
67.7102 3381.00
67.7754 3314.00
67.8406 3191.00
67.9058 3229.00
67.971 3333.00
68.0362 3334.00
68.1014 3208.00
68.1666 3251.00
68.2318 3250.00
68.297 3210.00
68.3622 3288.00
68.4274 3258.00
68.4926 3249.00
68.5578 3368.00
68.623 3338.00
68.6882 3295.00
68.7534 3260.00
68.8186 3214.00
68.8838 3273.00
68.949 3224.00
69.0142 3294.00
69.0794 3200.00
69.1446 3313.00
69.2098 3181.00
69.275 3324.00
69.3402 3314.00
69.4054 3294.00
69.4706 3312.00
69.5358 3383.00
69.601 3334.00
69.6662 3300.00
69.7314 3256.00
69.7966 3341.00
69.8618 3242.00
69.927 3256.00
69.9922 3284.00
70.0574 3330.00
70.1226 3306.00
70.1878 3253.00
70.253 3433.00
70.3182 3251.00
70.3834 3341.00
70.4486 3311.00
70.5138 3432.00
70.579 3228.00
70.6442 3379.00
70.7094 3361.00
70.7746 3421.00
70.8398 3285.00
70.905 3352.00
70.9702 3445.00
71.0354 3376.00
71.1006 3321.00
71.1658 3441.00
71.231 3411.00
71.2962 3426.00
71.3614 3428.00
71.4266 3410.00
71.4918 3429.00
71.5569 3387.00
71.6221 3288.00
71.6873 3333.00
71.7525 3405.00
71.8177 3358.00
71.8829 3327.00
71.9481 3278.00
72.0133 3283.00
72.0785 3370.00
72.1437 3383.00
72.2089 3410.00
72.2741 3265.00
72.3393 3281.00
72.4045 3338.00
72.4697 3423.00
72.5349 3272.00
72.6001 3250.00
72.6653 3257.00
72.7305 3354.00
72.7957 3389.00
72.8609 3357.00
72.9261 3345.00
72.9913 3324.00
73.0565 3304.00
73.1217 3249.00
73.1869 3366.00
73.2521 3264.00
73.3173 3288.00
73.3825 3312.00
73.4477 3256.00
73.5129 3347.00
73.5781 3282.00
73.6433 3437.00
73.7085 3245.00
73.7737 3476.00
73.8389 3370.00
73.9041 3412.00
73.9693 3466.00
74.0345 3571.00
74.0997 3587.00
74.1649 3453.00
74.2301 3651.00
74.2953 3599.00
74.3605 3636.00
74.4257 3663.00
74.4909 3622.00
74.5561 3575.00
74.6213 3638.00
74.6865 3625.00
74.7517 3518.00
74.8169 3505.00
74.8821 3432.00
74.9473 3550.00
75.0125 3465.00
75.0777 3423.00
75.1429 3567.00
75.2081 3518.00
75.2733 3715.00
75.3385 3611.00
75.4037 3630.00
75.4689 3792.00
75.5341 4331.00
75.5993 4799.00
75.6645 4539.00
75.7297 4138.00
75.7949 4130.00
75.8601 4097.00
75.9253 3793.00
75.9905 3428.00
76.0557 3499.00
76.1209 3388.00
76.186 3383.00
76.2513 3275.00
76.3165 3432.00
76.3816 3465.00
76.4468 3305.00
76.512 3305.00
76.5772 3389.00
76.6424 3268.00
76.7076 3275.00
76.7728 3397.00
76.838 3370.00
76.9032 3325.00
76.9684 3281.00
77.0336 3384.00
77.0988 3317.00
77.164 3372.00
77.2292 3364.00
77.2944 3364.00
77.3596 3318.00
77.4248 3173.00
77.49 3356.00
77.5552 3362.00
77.6204 3337.00
77.6856 3302.00
77.7508 3324.00
77.816 3369.00
77.8812 3293.00
77.9464 3305.00
78.0116 3199.00
78.0768 3313.00
78.142 3331.00
78.2072 3250.00
78.2724 3380.00
78.3376 3371.00
78.4028 3386.00
78.468 3337.00
78.5332 3182.00
78.5984 3378.00
78.6636 3308.00
78.7288 3429.00
78.794 3318.00
78.8592 3362.00
78.9244 3381.00
78.9896 3461.00
79.0548 3409.00
79.12 3465.00
79.1852 3447.00
79.2504 3519.00
79.3156 3510.00
79.3808 3525.00
79.446 3674.00
79.5112 4024.00
79.5764 4451.00
79.6416 3910.00
79.7068 3907.00
79.772 4108.00
79.8372 3780.00
79.9024 3619.00
79.9676 3520.00
80.0328 3588.00
80.098 3368.00
80.1632 3404.00
80.2284 3350.00
80.2936 3402.00
80.3588 3335.00
80.424 3308.00
80.4892 3305.00
80.5544 3280.00
80.6196 3337.00
80.6848 3254.00
80.75 3400.00
80.8152 3475.00
80.8804 3440.00
80.9456 3358.00
81.0108 3297.00
81.076 3386.00
81.1412 3358.00
81.2063 3330.00
81.2715 3261.00
81.3367 3431.00
81.4019 3304.00
81.4671 3372.00
81.5323 3335.00
81.5975 3325.00
81.6627 3379.00
81.7279 3408.00
81.7931 3399.00
81.8583 3393.00
81.9235 3307.00
81.9887 3331.00
82.0539 3459.00
82.1191 3334.00
82.1843 3337.00
82.2495 3494.00
82.3147 3459.00
82.3799 3363.00
82.4451 3358.00
82.5103 3385.00
82.5755 3300.00
82.6407 3356.00
82.7059 3192.00
82.7711 3394.00
82.8363 3421.00
82.9015 3330.00
82.9667 3358.00
83.0319 3344.00
83.0971 3513.00
83.1623 3402.00
83.2275 3344.00
83.2927 3406.00
83.3579 3321.00
83.4231 3346.00
83.4883 3374.00
83.5535 3351.00
83.6187 3349.00
83.6839 3408.00
83.7491 3431.00
83.8143 3442.00
83.8795 3541.00
83.9447 3420.00
84.0099 3418.00
84.0751 3377.00
84.1403 3362.00
84.2055 3356.00
84.2707 3383.00
84.3359 3407.00
84.4011 3365.00
84.4663 3403.00
84.5315 3497.00
84.5967 3248.00
84.6619 3388.00
84.7271 3297.00
84.7923 3281.00
84.8575 3323.00
84.9227 3239.00
84.9879 3393.00
85.0531 3273.00
85.1183 3305.00
85.1835 3326.00
85.2487 3397.00
85.3139 3426.00
85.3791 3418.00
85.4443 3520.00
85.5095 3343.00
85.5747 3251.00
85.6399 3313.00
85.7051 3307.00
85.7703 3328.00
85.8354 3352.00
85.9006 3264.00
85.9659 3329.00
86.031 3405.00
86.0962 3453.00
86.1614 3435.00
86.2266 3344.00
86.2918 3481.00
86.357 3304.00
86.4222 3352.00
86.4874 3288.00
86.5526 3450.00
86.6178 3504.00
86.683 3570.00
86.7482 3389.00
86.8134 3479.00
86.8786 3475.00
86.9438 3480.00
87.009 3512.00
87.0742 3443.00
87.1394 3524.00
87.2046 3517.00
87.2698 3392.00
87.335 3518.00
87.4002 3424.00
87.4654 3453.00
87.5306 3435.00
87.5958 3454.00
87.661 3413.00
87.7262 3443.00
87.7914 3435.00
87.8566 3359.00
87.9218 3475.00
87.987 3383.00
88.0522 3350.00
88.1174 3376.00
88.1826 3395.00
88.2478 3354.00
88.313 3347.00
88.3782 3521.00
88.4434 3369.00
88.5086 3405.00
88.5738 3531.00
88.639 3346.00
88.7042 3360.00
88.7694 3337.00
88.8346 3520.00
88.8998 3365.00
88.965 3422.00
89.0302 3446.00
89.0954 3525.00
89.1606 3465.00
89.2258 3437.00
89.291 3489.00
89.3562 3490.00
89.4214 3501.00
89.4866 3705.00
89.5518 3620.00
89.617 3728.00
89.6822 3719.00
89.7474 3663.00
89.8126 3770.00
89.8778 3657.00
89.943 3725.00
90.0082 3722.00
90.0734 3716.00
90.1386 3719.00
90.2038 3822.00
90.269 3830.00
90.3342 3759.00
90.3994 3777.00
90.4646 3664.00
90.5298 3538.00
90.595 3456.00
90.6601 3410.00
90.7253 3517.00
90.7905 3365.00
90.8557 3517.00
90.9209 3469.00
90.9861 3425.00
91.0513 3486.00
91.1165 3419.00
91.1817 3488.00
91.2469 3456.00
91.3121 3344.00
91.3773 3416.00
91.4425 3403.00
91.5077 3410.00
91.5729 3328.00
91.6381 3363.00
91.7033 3380.00
91.7685 3417.00
91.8337 3483.00
91.8989 3343.00
91.9641 3478.00
92.0293 3451.00
92.0945 3402.00
92.1597 3385.00
92.2249 3326.00
92.2901 3288.00
92.3553 3352.00
92.4205 3348.00
92.4857 3386.00
92.5509 3453.00
92.6161 3358.00
92.6813 3384.00
92.7465 3446.00
92.8117 3483.00
92.8769 3462.00
92.9421 3435.00
93.0073 3450.00
93.0725 3324.00
93.1377 3322.00
93.2029 3409.00
93.2681 3368.00
93.3333 3599.00
93.3985 3459.00
93.4637 3437.00
93.5289 3536.00
93.5941 3540.00
93.6593 3501.00
93.7245 3414.00
93.7897 3353.00
93.8549 3391.00
93.9201 3456.00
93.9853 3388.00
94.0505 3477.00
94.1157 3396.00
94.1809 3486.00
94.2461 3525.00
94.3113 3444.00
94.3765 3498.00
94.4417 3460.00
94.5069 3512.00
94.5721 3445.00
94.6373 3559.00
94.7025 3584.00
94.7677 3580.00
94.8329 3593.00
94.8981 3552.00
94.9633 3535.00
95.0285 3548.00
95.0937 3572.00
95.1589 3770.00
95.2241 3856.00
95.2893 3772.00
95.3545 3593.00
95.4197 3652.00
95.4848 3650.00
95.55 3602.00
95.6153 3514.00
95.6804 3363.00
95.7456 3462.00
95.8108 3497.00
95.876 3420.00
95.9412 3464.00
96.0064 3346.00
96.0716 3386.00
96.1368 3443.00
96.202 3400.00
96.2672 3473.00
96.3324 3422.00
96.3976 3324.00
96.4628 3458.00
96.528 3459.00
96.5932 3372.00
96.6584 3451.00
96.7236 3550.00
96.7888 3491.00
96.854 3375.00
96.9192 3383.00
96.9844 3409.00
97.0496 3392.00
97.1148 3462.00
97.18 3368.00
97.2452 3449.00
97.3104 3367.00
97.3756 3536.00
97.4408 3397.00
97.506 3388.00
97.5712 3466.00
97.6364 3461.00
97.7016 3497.00
97.7668 3430.00
97.832 3410.00
97.8972 3462.00
97.9624 3425.00
98.0276 3431.00
98.0928 3437.00
98.158 3455.00
98.2232 3354.00
98.2884 3406.00
98.3536 3432.00
98.4188 3429.00
98.484 3448.00
98.5492 3376.00
98.6144 3465.00
98.6796 3364.00
98.7448 3278.00
98.81 3332.00
98.8752 3347.00
98.9404 3455.00
99.0056 3465.00
99.0708 3463.00
99.136 3425.00
99.2012 3381.00
99.2664 3463.00
99.3316 3490.00
99.3968 3465.00
99.462 3460.00
99.5272 3413.00
99.5924 3448.00
99.6576 3383.00
99.7228 3358.00
99.788 3354.00
99.8532 3529.00
99.9184 3406.00
99.9836 3490.00
99.9944 3342.00