File: data/xrd_creation/results/PG_2248-1.xy
9.903433 2471.00
9.968632 2425.00
10.0338 2502.00
10.099 2470.00
10.1642 2477.00
10.2294 2330.00
10.2946 2381.00
10.3598 2378.00
10.425 2347.00
10.4902 2404.00
10.5554 2295.00
10.6206 2308.00
10.6858 2205.00
10.751 2190.00
10.8162 2208.00
10.8814 2194.00
10.9466 2161.00
11.0118 2210.00
11.077 2201.00
11.1422 2148.00
11.2074 2042.00
11.2726 2086.00
11.3378 2120.00
11.403 2149.00
11.4682 2119.00
11.5334 2043.00
11.5986 2127.00
11.6638 2103.00
11.729 1979.00
11.7942 2029.00
11.8594 1913.00
11.9246 1949.00
11.9898 1981.00
12.055 1942.00
12.1202 1945.00
12.1854 1860.00
12.2506 2020.00
12.3158 1877.00
12.381 1922.00
12.4462 1798.00
12.5114 1831.00
12.5766 1849.00
12.6418 1829.00
12.707 1899.00
12.7722 1823.00
12.8374 1732.00
12.9026 1891.00
12.9678 1822.00
13.033 1751.00
13.0982 1821.00
13.1634 1752.00
13.2286 1690.00
13.2938 1718.00
13.359 1794.00
13.4242 1751.00
13.4894 1775.00
13.5546 1799.00
13.6198 1654.00
13.685 1857.00
13.7502 1955.00
13.8154 2070.00
13.8805 2112.00
13.9457 2326.00
14.0109 2547.00
14.0761 3090.00
14.1413 3574.00
14.2065 4245.00
14.2717 4653.00
14.3369 3662.00
14.4021 2394.00
14.4673 1731.00
14.5325 1671.00
14.5977 1738.00
14.6629 1668.00
14.7281 1577.00
14.7933 1633.00
14.8585 1643.00
14.9237 1555.00
14.9889 1637.00
15.0541 1593.00
15.1193 1580.00
15.1845 1509.00
15.2497 1545.00
15.3149 1565.00
15.3801 1560.00
15.4453 1493.00
15.5105 1616.00
15.5757 1592.00
15.6409 1675.00
15.7061 1791.00
15.7713 1778.00
15.8365 1786.00
15.9017 1567.00
15.9669 1615.00
16.0321 1508.00
16.0973 1444.00
16.1625 1529.00
16.2277 1434.00
16.2929 1427.00
16.3581 1393.00
16.4233 1410.00
16.4885 1443.00
16.5537 1462.00
16.6189 1420.00
16.6841 1482.00
16.7493 1414.00
16.8145 1413.00
16.8797 1451.00
16.9449 1388.00
17.0101 1445.00
17.0753 1389.00
17.1405 1448.00
17.2057 1318.00
17.2709 1369.00
17.3361 1341.00
17.4013 1341.00
17.4665 1347.00
17.5317 1405.00
17.5969 1335.00
17.6621 1318.00
17.7273 1367.00
17.7925 1346.00
17.8577 1317.00
17.9229 1319.00
17.9881 1380.00
18.0533 1328.00
18.1185 1270.00
18.1837 1232.00
18.2489 1330.00
18.3141 1262.00
18.3793 1329.00
18.4445 1212.00
18.5097 1302.00
18.5749 1291.00
18.6401 1256.00
18.7052 1269.00
18.7704 1383.00
18.8356 1365.00
18.9008 1539.00
18.966 1511.00
19.0312 1384.00
19.0964 1320.00
19.1616 1214.00
19.2268 1231.00
19.292 1228.00
19.3572 1216.00
19.4224 1248.00
19.4876 1235.00
19.5528 1219.00
19.618 1198.00
19.6832 1174.00
19.7484 1223.00
19.8136 1244.00
19.8788 1152.00
19.944 1214.00
20.0092 1230.00
20.0744 1150.00
20.1396 1156.00
20.2048 1156.00
20.27 1192.00
20.3352 1128.00
20.4004 1123.00
20.4656 1179.00
20.5308 1134.00
20.596 1149.00
20.6612 1125.00
20.7264 1065.00
20.7916 1074.00
20.8568 1086.00
20.922 1127.00
20.9872 1119.00
21.0524 1124.00
21.1176 1141.00
21.1828 1073.00
21.248 1205.00
21.3132 1179.00
21.3784 1186.00
21.4436 1201.00
21.5088 1279.00
21.574 1232.00
21.6392 1386.00
21.7044 1248.00
21.7696 1141.00
21.8348 1112.00
21.9 1076.00
21.9652 1050.00
22.0304 1113.00
22.0956 1067.00
22.1608 1078.00
22.226 1116.00
22.2912 1006.00
22.3564 1039.00
22.4216 1050.00
22.4868 1058.00
22.552 1061.00
22.6172 1004.00
22.6824 1056.00
22.7476 1030.00
22.8128 1056.00
22.878 1069.00
22.9432 1073.00
23.0084 1028.00
23.0736 1105.00
23.1388 1055.00
23.204 1116.00
23.2692 1147.00
23.3344 1168.00
23.3996 1248.00
23.4647 1395.00
23.5299 1602.00
23.5951 1938.00
23.6603 2036.00
23.7255 1585.00
23.7907 1157.00
23.8559 1053.00
23.9211 1034.00
23.9863 1001.00
24.0515 950.00
24.1167 940.00
24.1819 994.00
24.2471 937.00
24.3123 940.00
24.3775 941.00
24.4427 937.00
24.5079 1031.00
24.5731 936.00
24.6383 955.00
24.7035 921.00
24.7687 949.00
24.8339 944.00
24.8991 939.00
24.9643 955.00
25.0295 935.00
25.0947 922.00
25.1599 857.00
25.2251 926.00
25.2903 942.00
25.3555 937.00
25.4207 881.00
25.4859 922.00
25.5511 900.00
25.6163 909.00
25.6815 891.00
25.7467 851.00
25.8119 945.00
25.8771 918.00
25.9423 894.00
26.0075 997.00
26.0727 1012.00
26.1379 1193.00
26.2031 1234.00
26.2683 1332.00
26.3335 1129.00
26.3987 916.00
26.4639 898.00
26.5291 917.00
26.5943 968.00
26.6595 994.00
26.7247 959.00
26.7899 986.00
26.8551 1052.00
26.9203 1015.00
26.9855 1055.00
27.0507 973.00
27.1159 896.00
27.1811 944.00
27.2463 848.00
27.3115 882.00
27.3767 939.00
27.4419 927.00
27.5071 900.00
27.5723 904.00
27.6375 968.00
27.7027 1016.00
27.7679 1068.00
27.8331 1274.00
27.8983 1511.00
27.9635 1761.00
28.0287 1780.00
28.0939 1486.00
28.1591 1200.00
28.2243 1152.00
28.2894 1179.00
28.3546 1283.00
28.4198 1545.00
28.485 2042.00
28.5502 2602.00
28.6154 4151.00
28.6806 5250.00
28.7458 4934.00
28.811 2938.00
28.8762 1631.00
28.9414 1110.00
29.0066 1087.00
29.0718 955.00
29.137 962.00
29.2022 928.00
29.2674 978.00
29.3326 1002.00
29.3978 1046.00
29.463 1030.00
29.5282 1084.00
29.5934 1135.00
29.6586 1122.00
29.7238 1041.00
29.789 928.00
29.8542 888.00
29.9194 824.00
29.9846 798.00
30.0498 853.00
30.115 882.00
30.1802 909.00
30.2454 957.00
30.3106 1018.00
30.3758 1130.00
30.441 1074.00
30.5062 1020.00
30.5714 928.00
30.6366 1011.00
30.7018 1134.00
30.767 1319.00
30.8322 1537.00
30.8974 2018.00
30.9626 2263.00
31.0278 2552.00
31.093 2811.00
31.1582 2549.00
31.2234 1811.00
31.2886 1166.00
31.3538 963.00
31.419 908.00
31.4842 957.00
31.5494 935.00
31.6146 925.00
31.6798 786.00
31.745 892.00
31.8102 790.00
31.8754 873.00
31.9406 895.00
32.0058 1114.00
32.071 1276.00
32.1362 1050.00
32.2014 902.00
32.2666 859.00
32.3318 770.00
32.397 798.00
32.4622 777.00
32.5274 768.00
32.5926 751.00
32.6578 777.00
32.723 753.00
32.7882 775.00
32.8534 772.00
32.9186 754.00
32.9838 744.00
33.0489 750.00
33.1141 709.00
33.1793 714.00
33.2445 709.00
33.3097 690.00
33.3749 719.00
33.4401 724.00
33.5053 686.00
33.5705 659.00
33.6357 692.00
33.7009 642.00
33.7661 681.00
33.8313 637.00
33.8965 683.00
33.9617 630.00
34.0269 664.00
34.0921 720.00
34.1573 723.00
34.2225 657.00
34.2877 781.00
34.3529 788.00
34.4181 915.00
34.4833 924.00
34.5485 965.00
34.6137 868.00
34.6789 723.00
34.7441 685.00
34.8093 681.00
34.8745 723.00
34.9397 854.00
35.0049 788.00
35.0701 740.00
35.1353 691.00
35.2005 561.00
35.2657 603.00
35.3309 638.00
35.3961 608.00
35.4613 621.00
35.5265 646.00
35.5917 670.00
35.6569 685.00
35.7221 594.00
35.7873 603.00
35.8525 627.00
35.9177 585.00
35.9829 615.00
36.0481 567.00
36.1133 592.00
36.1785 633.00
36.2437 635.00
36.3089 709.00
36.3741 769.00
36.4393 664.00
36.5045 688.00
36.5697 636.00
36.6349 660.00
36.7001 656.00
36.7653 603.00
36.8305 632.00
36.8957 608.00
36.9609 621.00
37.0261 618.00
37.0913 721.00
37.1565 757.00
37.2217 789.00
37.2869 743.00
37.3521 678.00
37.4173 633.00
37.4825 597.00
37.5477 610.00
37.6129 646.00
37.6781 673.00
37.7433 670.00
37.8085 701.00
37.8736 610.00
37.9388 621.00
38.004 598.00
38.0692 592.00
38.1344 579.00
38.1996 578.00
38.2648 583.00
38.33 561.00
38.3952 578.00
38.4604 568.00
38.5256 577.00
38.5908 566.00
38.656 614.00
38.7212 556.00
38.7864 536.00
38.8516 565.00
38.9168 561.00
38.982 564.00
39.0472 557.00
39.1124 563.00
39.1776 547.00
39.2428 604.00
39.308 624.00
39.3732 595.00
39.4384 662.00
39.5036 758.00
39.5688 995.00
39.634 1045.00
39.6992 922.00
39.7644 788.00
39.8296 705.00
39.8948 686.00
39.96 608.00
40.0252 643.00
40.0904 597.00
40.1556 675.00
40.2208 673.00
40.286 615.00
40.3512 558.00
40.4164 633.00
40.4816 661.00
40.5468 640.00
40.612 684.00
40.6772 673.00
40.7424 670.00
40.8076 653.00
40.8728 706.00
40.938 776.00
41.0032 899.00
41.0684 976.00
41.1336 1175.00
41.1988 1578.00
41.264 2098.00
41.3292 2076.00
41.3944 1524.00
41.4596 993.00
41.5248 784.00
41.59 622.00
41.6552 611.00
41.7204 591.00
41.7856 578.00
41.8508 623.00
41.916 584.00
41.9812 578.00
42.0464 553.00
42.1116 589.00
42.1768 668.00
42.242 671.00
42.3072 792.00
42.3724 896.00
42.4376 1313.00
42.5028 1797.00
42.568 1828.00
42.6332 1444.00
42.6983 1003.00
42.7635 661.00
42.8287 621.00
42.8939 666.00
42.9591 747.00
43.0243 702.00
43.0895 701.00
43.1547 639.00
43.2199 562.00
43.2851 567.00
43.3503 534.00
43.4155 518.00
43.4807 509.00
43.5459 531.00
43.6111 540.00
43.6763 555.00
43.7415 585.00
43.8067 572.00
43.8719 563.00
43.9371 511.00
44.0023 524.00
44.0675 468.00
44.1327 538.00
44.1979 495.00
44.2631 525.00
44.3283 559.00
44.3935 540.00
44.4587 528.00
44.5239 574.00
44.5891 643.00
44.6543 799.00
44.7195 960.00
44.7847 880.00
44.8499 773.00
44.9151 703.00
44.9803 599.00
45.0455 549.00
45.1107 511.00
45.1759 523.00
45.2411 502.00
45.3063 520.00
45.3715 537.00
45.4367 502.00
45.5019 533.00
45.5671 563.00
45.6323 543.00
45.6975 594.00
45.7627 551.00
45.8279 494.00
45.8931 547.00
45.9583 544.00
46.0235 529.00
46.0887 554.00
46.1539 608.00
46.2191 619.00
46.2843 714.00
46.3495 800.00
46.4147 732.00
46.4799 657.00
46.5451 613.00
46.6103 553.00
46.6755 526.00
46.7407 541.00
46.8059 491.00
46.8711 501.00
46.9363 507.00
47.0015 517.00
47.0667 507.00
47.1319 501.00
47.1971 574.00
47.2623 499.00
47.3275 539.00
47.3927 513.00
47.4579 498.00
47.523 497.00
47.5882 493.00
47.6534 519.00
47.7186 514.00
47.7838 510.00
47.849 516.00
47.9142 538.00
47.9794 566.00
48.0446 506.00
48.1098 488.00
48.175 493.00
48.2402 499.00
48.3054 487.00
48.3706 499.00
48.4358 481.00
48.501 538.00
48.5662 529.00
48.6314 596.00
48.6966 578.00
48.7618 633.00
48.827 561.00
48.8922 629.00
48.9574 631.00
49.0226 658.00
49.0878 736.00
49.153 850.00
49.2182 941.00
49.2834 824.00
49.3486 740.00
49.4138 604.00
49.479 587.00
49.5442 583.00
49.6094 592.00
49.6746 594.00
49.7398 634.00
49.805 595.00
49.8702 543.00
49.9354 538.00
50.0006 496.00
50.0658 470.00
50.131 452.00
50.1962 503.00
50.2614 482.00
50.3266 479.00
50.3918 499.00
50.457 540.00
50.5222 511.00
50.5874 495.00
50.6526 541.00
50.7178 569.00
50.783 698.00
50.8482 926.00
50.9134 1531.00
50.9786 1995.00
51.0438 1583.00
51.109 1347.00
51.1742 926.00
51.2394 597.00
51.3046 541.00
51.3698 544.00
51.435 507.00
51.5002 477.00
51.5654 580.00
51.6306 601.00
51.6958 533.00
51.761 517.00
51.8262 490.00
51.8914 506.00
51.9566 531.00
52.0218 598.00
52.087 622.00
52.1522 734.00
52.2174 630.00
52.2826 570.00
52.3477 555.00
52.4129 494.00
52.4781 489.00
52.5433 553.00
52.6085 509.00
52.6737 464.00
52.7389 474.00
52.8041 472.00
52.8693 483.00
52.9345 546.00
52.9997 570.00
53.0649 695.00
53.1301 819.00
53.1953 701.00
53.2605 698.00
53.3257 557.00
53.3909 511.00
53.4561 528.00
53.5213 460.00
53.5865 515.00
53.6517 529.00
53.7169 527.00
53.7821 473.00
53.8473 469.00
53.9125 454.00
53.9777 469.00
54.0429 485.00
54.1081 445.00
54.1733 484.00
54.2385 492.00
54.3037 521.00
54.3689 513.00
54.4341 541.00
54.4993 549.00
54.5645 525.00
54.6297 526.00
54.6949 557.00
54.7601 501.00
54.8253 489.00
54.8905 500.00
54.9557 519.00
55.0209 507.00
55.0861 511.00
55.1513 513.00
55.2165 498.00
55.2817 520.00
55.3469 569.00
55.4121 611.00
55.4773 629.00
55.5425 640.00
55.6077 550.00
55.6729 586.00
55.7381 549.00
55.8033 624.00
55.8685 666.00
55.9337 607.00
55.9989 584.00
56.0641 530.00
56.1293 513.00
56.1945 528.00
56.2597 525.00
56.3249 490.00
56.3901 539.00
56.4553 529.00
56.5205 570.00
56.5857 568.00
56.6509 559.00
56.7161 649.00
56.7813 719.00
56.8465 637.00
56.9117 628.00
56.9769 695.00
57.042 787.00
57.1073 890.00
57.1724 941.00
57.2376 815.00
57.3028 769.00
57.368 672.00
57.4332 520.00
57.4984 492.00
57.5636 488.00
57.6288 445.00
57.694 459.00
57.7592 501.00
57.8244 514.00
57.8896 520.00
57.9548 494.00
58.02 510.00
58.0852 509.00
58.1504 463.00
58.2156 504.00
58.2808 447.00
58.346 501.00
58.4112 508.00
58.4764 461.00
58.5416 504.00
58.6068 557.00
58.672 499.00
58.7372 562.00
58.8024 511.00
58.8676 559.00
58.9328 643.00
58.998 680.00
59.0632 700.00
59.1284 603.00
59.1936 606.00
59.2588 543.00
59.324 501.00
59.3892 472.00
59.4544 507.00
59.5196 436.00
59.5848 469.00
59.65 453.00
59.7152 434.00
59.7804 432.00
59.8456 509.00
59.9108 518.00
59.976 549.00
60.0412 578.00
60.1064 542.00
60.1716 518.00
60.2368 517.00
60.302 586.00
60.3672 677.00
60.4324 795.00
60.4976 1045.00
60.5628 1159.00
60.628 1145.00
60.6932 1208.00
60.7584 1343.00
60.8236 1152.00
60.8888 937.00
60.954 805.00
61.0192 659.00
61.0844 585.00
61.1496 613.00
61.2148 595.00
61.28 565.00
61.3452 549.00
61.4104 550.00
61.4756 519.00
61.5408 637.00
61.606 619.00
61.6712 647.00
61.7364 621.00
61.8016 649.00
61.8667 670.00
61.932 658.00
61.9971 645.00
62.0623 680.00
62.1275 661.00
62.1927 728.00
62.2579 854.00
62.3231 837.00
62.3883 691.00
62.4535 740.00
62.5187 676.00
62.5839 625.00
62.6491 651.00
62.7143 591.00
62.7795 597.00
62.8447 607.00
62.9099 540.00
62.9751 479.00
63.0403 475.00
63.1055 504.00
63.1707 479.00
63.2359 505.00
63.3011 507.00
63.3663 580.00
63.4315 521.00
63.4967 570.00
63.5619 525.00
63.6271 550.00
63.6923 587.00
63.7575 494.00
63.8227 476.00
63.8879 503.00
63.9531 478.00
64.0183 486.00
64.0835 524.00
64.1487 515.00
64.2139 504.00
64.2791 561.00
64.3443 581.00
64.4095 573.00
64.4747 649.00
64.5399 581.00
64.6051 572.00
64.6703 532.00
64.7355 514.00
64.8007 476.00
64.8659 472.00
64.9311 461.00
64.9963 489.00
65.0615 527.00
65.1267 509.00
65.1919 512.00
65.2571 516.00
65.3223 513.00
65.3875 546.00
65.4527 628.00
65.5179 684.00
65.5831 588.00
65.6483 538.00
65.7135 594.00
65.7787 545.00
65.8439 486.00
65.9091 491.00
65.9743 479.00
66.0395 521.00
66.1047 537.00
66.1699 628.00
66.2351 524.00
66.3003 560.00
66.3655 558.00
66.4307 511.00
66.4959 497.00
66.561 490.00
66.6263 456.00
66.6915 514.00
66.7566 475.00
66.8218 474.00
66.887 454.00
66.9522 512.00
67.0174 506.00
67.0826 515.00
67.1478 549.00
67.213 670.00
67.2782 741.00
67.3434 925.00
67.4086 1152.00
67.4738 946.00
67.539 774.00
67.6042 784.00
67.6694 654.00
67.7346 574.00
67.7998 496.00
67.865 507.00
67.9302 564.00
67.9954 535.00
68.0606 599.00
68.1258 629.00
68.191 734.00
68.2562 797.00
68.3214 902.00
68.3866 757.00
68.4518 748.00
68.517 692.00
68.5822 676.00
68.6474 572.00
68.7126 609.00
68.7778 571.00
68.843 608.00
68.9082 613.00
68.9734 585.00
69.0386 579.00
69.1038 560.00
69.169 540.00
69.2342 513.00
69.2994 496.00
69.3646 498.00
69.4298 464.00
69.495 507.00
69.5602 461.00
69.6254 473.00
69.6906 474.00
69.7558 530.00
69.821 515.00
69.8862 504.00
69.9514 523.00
70.0166 500.00
70.0818 551.00
70.147 525.00
70.2122 522.00
70.2774 530.00
70.3426 476.00
70.4078 469.00
70.473 433.00
70.5382 492.00
70.6034 452.00
70.6686 456.00
70.7338 459.00
70.799 443.00
70.8642 483.00
70.9294 459.00
70.9946 505.00
71.0598 523.00
71.125 561.00
71.1902 574.00
71.2554 536.00
71.3205 484.00
71.3858 465.00
71.451 455.00
71.5162 527.00
71.5813 444.00
71.6465 411.00
71.7117 465.00
71.7769 429.00
71.8421 393.00
71.9073 431.00
71.9725 438.00
72.0377 441.00
72.1029 466.00
72.1681 449.00
72.2333 459.00
72.2985 444.00
72.3637 438.00
72.4289 446.00
72.4941 439.00
72.5593 412.00
72.6245 443.00
72.6897 420.00
72.7549 414.00
72.8201 455.00
72.8853 416.00
72.9505 445.00
73.0157 439.00
73.0809 440.00
73.1461 461.00
73.2113 476.00
73.2765 537.00
73.3417 531.00
73.4069 549.00
73.4721 481.00
73.5373 512.00
73.6025 526.00
73.6677 459.00
73.7329 461.00
73.7981 457.00
73.8633 462.00
73.9285 453.00
73.9937 443.00
74.0589 486.00
74.1241 455.00
74.1893 473.00
74.2545 445.00
74.3197 435.00
74.3849 435.00
74.4501 417.00
74.5153 443.00
74.5805 451.00
74.6457 459.00
74.7109 509.00
74.7761 535.00
74.8413 545.00
74.9065 501.00
74.9717 485.00
75.0369 496.00
75.1021 457.00
75.1673 498.00
75.2325 459.00
75.2977 448.00
75.3629 437.00
75.4281 430.00
75.4933 456.00
75.5585 473.00
75.6237 409.00
75.6889 488.00
75.7541 463.00
75.8193 423.00
75.8845 432.00
75.9497 449.00
76.0149 434.00
76.0801 437.00
76.1452 441.00
76.2104 482.00
76.2756 482.00
76.3409 505.00
76.406 529.00
76.4712 548.00
76.5364 505.00
76.6016 625.00
76.6668 643.00
76.732 654.00
76.7972 592.00
76.8624 566.00
76.9276 560.00
76.9928 519.00
77.058 492.00
77.1232 478.00
77.1884 486.00
77.2536 463.00
77.3188 435.00
77.384 486.00
77.4492 491.00
77.5144 409.00
77.5796 458.00
77.6448 473.00
77.71 468.00
77.7752 457.00
77.8404 454.00
77.9056 426.00
77.9708 481.00
78.036 526.00
78.1012 497.00
78.1664 487.00
78.2316 489.00
78.2968 497.00
78.362 542.00
78.4272 465.00
78.4924 488.00
78.5576 509.00
78.6228 442.00
78.688 481.00
78.7532 458.00
78.8184 426.00
78.8836 459.00
78.9488 418.00
79.014 444.00
79.0792 463.00
79.1444 452.00
79.2096 425.00
79.2748 453.00
79.34 490.00
79.4052 474.00
79.4704 416.00
79.5356 433.00
79.6008 421.00
79.666 412.00
79.7312 480.00
79.7964 422.00
79.8616 404.00
79.9268 412.00
79.992 436.00
80.0572 432.00
80.1224 437.00
80.1876 470.00
80.2528 427.00
80.318 468.00
80.3832 513.00
80.4484 502.00
80.5136 526.00
80.5788 496.00
80.644 480.00
80.7092 466.00
80.7744 428.00
80.8396 452.00
80.9048 458.00
80.9699 453.00
81.0351 460.00
81.1003 431.00
81.1655 455.00
81.2307 421.00
81.2959 463.00
81.3611 434.00
81.4263 403.00
81.4915 435.00
81.5567 446.00
81.6219 408.00
81.6871 440.00
81.7523 585.00
81.8175 574.00
81.8827 526.00
81.9479 490.00
82.0131 482.00
82.0783 554.00
82.1435 543.00
82.2087 492.00
82.2739 461.00
82.3391 421.00
82.4043 448.00
82.4695 512.00
82.5347 443.00
82.5999 403.00
82.6651 436.00
82.7303 462.00
82.7955 425.00
82.8607 476.00
82.9259 418.00
82.9911 473.00
83.0563 404.00
83.1215 429.00
83.1867 430.00
83.2519 417.00
83.3171 402.00
83.3823 463.00
83.4475 441.00
83.5127 413.00
83.5779 476.00
83.6431 458.00
83.7083 510.00
83.7735 484.00
83.8387 491.00
83.9039 443.00
83.9691 448.00
84.0343 466.00
84.0995 450.00
84.1647 498.00
84.2299 507.00
84.2951 540.00
84.3603 543.00
84.4255 522.00
84.4907 498.00
84.5559 456.00
84.6211 502.00
84.6863 481.00
84.7515 458.00
84.8167 453.00
84.8819 482.00
84.9471 447.00
85.0123 444.00
85.0775 447.00
85.1427 454.00
85.2079 456.00
85.2731 424.00
85.3383 430.00
85.4035 490.00
85.4687 454.00
85.5339 455.00
85.5991 480.00
85.6643 453.00
85.7295 385.00
85.7946 460.00
85.8598 463.00
85.925 452.00
85.9903 420.00
86.0554 452.00
86.1206 481.00
86.1858 512.00
86.251 557.00
86.3162 554.00
86.3814 550.00
86.4466 526.00
86.5118 523.00
86.577 534.00
86.6422 488.00
86.7074 458.00
86.7726 477.00
86.8378 455.00
86.903 446.00
86.9682 517.00
87.0334 465.00
87.0986 497.00
87.1638 518.00
87.229 558.00
87.2942 537.00
87.3594 506.00
87.4246 555.00
87.4898 496.00
87.555 466.00
87.6202 438.00
87.6854 435.00
87.7506 442.00
87.8158 448.00
87.881 481.00
87.9462 515.00
88.0114 477.00
88.0766 487.00
88.1418 488.00
88.207 521.00
88.2722 558.00
88.3374 490.00
88.4026 524.00
88.4678 501.00
88.533 467.00
88.5982 496.00
88.6634 465.00
88.7286 469.00
88.7938 484.00
88.859 452.00
88.9242 476.00
88.9894 475.00
89.0546 465.00
89.1198 475.00
89.185 457.00
89.2502 445.00
89.3154 410.00
89.3806 458.00
89.4458 423.00
89.511 436.00
89.5762 424.00
89.6414 461.00
89.7066 462.00
89.7718 440.00
89.837 449.00
89.9022 429.00
89.9674 426.00
90.0326 395.00
90.0978 399.00
90.163 422.00
90.2282 424.00
90.2934 429.00
90.3586 434.00
90.4238 464.00
90.489 457.00
90.5542 435.00
90.6193 451.00
90.6845 433.00
90.7497 505.00
90.8149 497.00
90.8801 433.00
90.9453 436.00
91.0105 444.00
91.0757 447.00
91.1409 470.00
91.2061 478.00
91.2713 518.00
91.3365 459.00
91.4017 485.00
91.4669 461.00
91.5321 482.00
91.5973 434.00
91.6625 407.00
91.7277 425.00
91.7929 444.00
91.8581 453.00
91.9233 414.00
91.9885 406.00
92.0537 421.00
92.1189 414.00
92.1841 441.00
92.2493 448.00
92.3145 442.00
92.3797 481.00
92.4449 512.00
92.5101 447.00
92.5753 518.00
92.6405 496.00
92.7057 484.00
92.7709 451.00
92.8361 470.00
92.9013 426.00
92.9665 426.00
93.0317 438.00
93.0969 431.00
93.1621 430.00
93.2273 392.00
93.2925 426.00
93.3577 430.00
93.4229 438.00
93.4881 457.00
93.5533 435.00
93.6185 421.00
93.6837 440.00
93.7489 412.00
93.8141 416.00
93.8793 452.00
93.9445 406.00
94.0097 445.00
94.0749 430.00
94.1401 434.00
94.2053 462.00
94.2705 449.00
94.3357 471.00
94.4009 428.00
94.4661 469.00
94.5313 440.00
94.5965 446.00
94.6617 442.00
94.7269 468.00
94.7921 503.00
94.8573 469.00
94.9225 452.00
94.9877 483.00
95.0529 474.00
95.1181 464.00
95.1833 516.00
95.2485 486.00
95.3137 465.00
95.3789 460.00
95.444 425.00
95.5092 444.00
95.5744 422.00
95.6396 425.00
95.7048 433.00
95.77 462.00
95.8352 452.00
95.9004 483.00
95.9656 506.00
96.0308 463.00
96.096 453.00
96.1612 476.00
96.2264 470.00
96.2916 442.00
96.3568 474.00
96.422 461.00
96.4872 468.00
96.5524 475.00
96.6176 452.00
96.6828 429.00
96.748 464.00
96.8132 533.00
96.8784 553.00
96.9436 513.00
97.0088 509.00
97.074 509.00
97.1392 525.00
97.2044 559.00
97.2696 578.00
97.3348 506.00
97.4 509.00
97.4652 528.00
97.5304 507.00
97.5956 491.00
97.6608 514.00
97.726 516.00
97.7912 450.00
97.8564 462.00
97.9216 445.00
97.9868 482.00
98.052 449.00
98.1172 489.00
98.1824 453.00
98.2476 480.00
98.3128 453.00
98.378 463.00
98.4432 501.00
98.5084 447.00
98.5736 459.00
98.6388 419.00
98.704 459.00
98.7692 434.00
98.8344 482.00
98.8996 449.00
98.9648 438.00
99.03 473.00
99.0952 454.00
99.1604 426.00
99.2256 381.00
99.2908 495.00
99.356 452.00
99.4212 459.00
99.4864 481.00
99.5516 392.00
99.6168 408.00
99.682 423.00
99.7472 443.00
99.8124 450.00
99.8776 436.00
99.9428 442.00
100.008 422.00
100.073 444.00
100.095 435.00