File: data/xrd_creation/results/PG_2740-1.xy
9.903433 2459.00
9.968632 2502.00
10.0338 2463.00
10.099 2475.00
10.1642 2441.00
10.2294 2370.00
10.2946 2339.00
10.3598 2371.00
10.425 2338.00
10.4902 2265.00
10.5554 2354.00
10.6206 2338.00
10.6858 2308.00
10.751 2331.00
10.8162 2201.00
10.8814 2266.00
10.9466 2182.00
11.0118 2308.00
11.077 2130.00
11.1422 2195.00
11.2074 2161.00
11.2726 2135.00
11.3378 2052.00
11.403 2069.00
11.4682 2051.00
11.5334 2097.00
11.5986 2067.00
11.6638 2115.00
11.729 2094.00
11.7942 2055.00
11.8594 2035.00
11.9246 2021.00
11.9898 1998.00
12.055 2005.00
12.1202 1992.00
12.1854 1962.00
12.2506 1860.00
12.3158 1906.00
12.381 1886.00
12.4462 1865.00
12.5114 1879.00
12.5766 1954.00
12.6418 1907.00
12.707 1854.00
12.7722 1866.00
12.8374 1837.00
12.9026 1844.00
12.9678 1745.00
13.033 1820.00
13.0982 1781.00
13.1634 1776.00
13.2286 1710.00
13.2938 1718.00
13.359 1815.00
13.4242 1690.00
13.4894 1712.00
13.5546 1743.00
13.6198 1773.00
13.685 1674.00
13.7502 1708.00
13.8154 1716.00
13.8805 1678.00
13.9457 1696.00
14.0109 1694.00
14.0761 1715.00
14.1413 1669.00
14.2065 1727.00
14.2717 1739.00
14.3369 2011.00
14.4021 2054.00
14.4673 2358.00
14.5325 2687.00
14.5977 2046.00
14.6629 1691.00
14.7281 1663.00
14.7933 1593.00
14.8585 1619.00
14.9237 1581.00
14.9889 1591.00
15.0541 1582.00
15.1193 1550.00
15.1845 1626.00
15.2497 1604.00
15.3149 1624.00
15.3801 1581.00
15.4453 1617.00
15.5105 1568.00
15.5757 1613.00
15.6409 1592.00
15.7061 1474.00
15.7713 1573.00
15.8365 1609.00
15.9017 1503.00
15.9669 1537.00
16.0321 1562.00
16.0973 1539.00
16.1625 1514.00
16.2277 1511.00
16.2929 1506.00
16.3581 1486.00
16.4233 1482.00
16.4885 1419.00
16.5537 1471.00
16.6189 1506.00
16.6841 1512.00
16.7493 1516.00
16.8145 1496.00
16.8797 1572.00
16.9449 1463.00
17.0101 1481.00
17.0753 1450.00
17.1405 1498.00
17.2057 1414.00
17.2709 1482.00
17.3361 1468.00
17.4013 1451.00
17.4665 1429.00
17.5317 1458.00
17.5969 1421.00
17.6621 1425.00
17.7273 1393.00
17.7925 1395.00
17.8577 1482.00
17.9229 1485.00
17.9881 1428.00
18.0533 1510.00
18.1185 1492.00
18.1837 1499.00
18.2489 1511.00
18.3141 1506.00
18.3793 1529.00
18.4445 1469.00
18.5097 1398.00
18.5749 1432.00
18.6401 1367.00
18.7052 1346.00
18.7704 1399.00
18.8356 1344.00
18.9008 1407.00
18.966 1369.00
19.0312 1343.00
19.0964 1398.00
19.1616 1423.00
19.2268 1356.00
19.292 1403.00
19.3572 1394.00
19.4224 1320.00
19.4876 1411.00
19.5528 1369.00
19.618 1382.00
19.6832 1305.00
19.7484 1350.00
19.8136 1343.00
19.8788 1296.00
19.944 1333.00
20.0092 1312.00
20.0744 1371.00
20.1396 1350.00
20.2048 1269.00
20.27 1329.00
20.3352 1371.00
20.4004 1400.00
20.4656 1373.00
20.5308 1339.00
20.596 1302.00
20.6612 1284.00
20.7264 1304.00
20.7916 1340.00
20.8568 1350.00
20.922 1350.00
20.9872 1334.00
21.0524 1323.00
21.1176 1241.00
21.1828 1299.00
21.248 1251.00
21.3132 1316.00
21.3784 1285.00
21.4436 1254.00
21.5088 1245.00
21.574 1262.00
21.6392 1206.00
21.7044 1223.00
21.7696 1305.00
21.8348 1283.00
21.9 1282.00
21.9652 1320.00
22.0304 1232.00
22.0956 1263.00
22.1608 1265.00
22.226 1167.00
22.2912 1281.00
22.3564 1260.00
22.4216 1267.00
22.4868 1239.00
22.552 1243.00
22.6172 1226.00
22.6824 1313.00
22.7476 1261.00
22.8128 1279.00
22.878 1292.00
22.9432 1255.00
23.0084 1250.00
23.0736 1198.00
23.1388 1186.00
23.204 1317.00
23.2692 1210.00
23.3344 1218.00
23.3996 1193.00
23.4647 1170.00
23.5299 1222.00
23.5951 1227.00
23.6603 1166.00
23.7255 1226.00
23.7907 1136.00
23.8559 1219.00
23.9211 1196.00
23.9863 1183.00
24.0515 1258.00
24.1167 1158.00
24.1819 1134.00
24.2471 1237.00
24.3123 1186.00
24.3775 1194.00
24.4427 1234.00
24.5079 1311.00
24.5731 1321.00
24.6383 1412.00
24.7035 1335.00
24.7687 1271.00
24.8339 1231.00
24.8991 1305.00
24.9643 1246.00
25.0295 1214.00
25.0947 1210.00
25.1599 1283.00
25.2251 1235.00
25.2903 1216.00
25.3555 1153.00
25.4207 1194.00
25.4859 1187.00
25.5511 1246.00
25.6163 1186.00
25.6815 1245.00
25.7467 1283.00
25.8119 1256.00
25.8771 1260.00
25.9423 1281.00
26.0075 1301.00
26.0727 1378.00
26.1379 1495.00
26.2031 1591.00
26.2683 1755.00
26.3335 2124.00
26.3987 2713.00
26.4639 3815.00
26.5291 5709.00
26.5943 8721.00
26.6595 11199.00
26.7247 9645.00
26.7899 5728.00
26.8551 3539.00
26.9203 2493.00
26.9855 2028.00
27.0507 1730.00
27.1159 1592.00
27.1811 1442.00
27.2463 1445.00
27.3115 1619.00
27.3767 1704.00
27.4419 2029.00
27.5071 1783.00
27.5723 1473.00
27.6375 1299.00
27.7027 1272.00
27.7679 1307.00
27.8331 1311.00
27.8983 1316.00
27.9635 1312.00
28.0287 1391.00
28.0939 1256.00
28.1591 1337.00
28.2243 1343.00
28.2894 1259.00
28.3546 1380.00
28.4198 1407.00
28.485 1397.00
28.5502 1385.00
28.6154 1390.00
28.6806 1486.00
28.7458 1588.00
28.811 1876.00
28.8762 2790.00
28.9414 3673.00
29.0066 2860.00
29.0718 2014.00
29.137 1973.00
29.2022 1878.00
29.2674 1752.00
29.3326 1705.00
29.3978 1614.00
29.463 1517.00
29.5282 1357.00
29.5934 1310.00
29.6586 1306.00
29.7238 1191.00
29.789 1215.00
29.8542 1271.00
29.9194 1269.00
29.9846 1222.00
30.0498 1232.00
30.115 1302.00
30.1802 1239.00
30.2454 1231.00
30.3106 1301.00
30.3758 1224.00
30.441 1234.00
30.5062 1275.00
30.5714 1429.00
30.6366 1525.00
30.7018 1472.00
30.767 1554.00
30.8322 1643.00
30.8974 1923.00
30.9626 3099.00
31.0278 5507.00
31.093 7088.00
31.1582 4571.00
31.2234 2275.00
31.2886 1742.00
31.3538 1662.00
31.419 1556.00
31.4842 1499.00
31.5494 1380.00
31.6146 1437.00
31.6798 1427.00
31.745 1506.00
31.8102 1461.00
31.8754 1592.00
31.9406 1746.00
32.0058 1933.00
32.071 2135.00
32.1362 2469.00
32.2014 2878.00
32.2666 3613.00
32.3318 4699.00
32.397 5095.00
32.4622 4645.00
32.5274 3923.00
32.5926 3449.00
32.6578 2985.00
32.723 2404.00
32.7882 1931.00
32.8534 1633.00
32.9186 1551.00
32.9838 1570.00
33.0489 1352.00
33.1141 1341.00
33.1793 1298.00
33.2445 1273.00
33.3097 1214.00
33.3749 1209.00
33.4401 1136.00
33.5053 1182.00
33.5705 1231.00
33.6357 1174.00
33.7009 1182.00
33.7661 1183.00
33.8313 1207.00
33.8965 1277.00
33.9617 1269.00
34.0269 1397.00
34.0921 1646.00
34.1573 1965.00
34.2225 2736.00
34.2877 3685.00
34.3529 4084.00
34.4181 3234.00
34.4833 2312.00
34.5485 1708.00
34.6137 1419.00
34.6789 1300.00
34.7441 1164.00
34.8093 1195.00
34.8745 1127.00
34.9397 1110.00
35.0049 1063.00
35.0701 1119.00
35.1353 1040.00
35.2005 1068.00
35.2657 1038.00
35.3309 1117.00
35.3961 1067.00
35.4613 1062.00
35.5265 1065.00
35.5917 1058.00
35.6569 1049.00
35.7221 1135.00
35.7873 1103.00
35.8525 1125.00
35.9177 1101.00
35.9829 1111.00
36.0481 1143.00
36.1133 1176.00
36.1785 1274.00
36.2437 1411.00
36.3089 1645.00
36.3741 2153.00
36.4393 2211.00
36.5045 1971.00
36.5697 1565.00
36.6349 1370.00
36.7001 1267.00
36.7653 1249.00
36.8305 1268.00
36.8957 1271.00
36.9609 1267.00
37.0261 1246.00
37.0913 1165.00
37.1565 1155.00
37.2217 1140.00
37.2869 1054.00
37.3521 1026.00
37.4173 1032.00
37.4825 1003.00
37.5477 980.00
37.6129 1055.00
37.6781 980.00
37.7433 979.00
37.8085 989.00
37.8736 995.00
37.9388 979.00
38.004 994.00
38.0692 1093.00
38.1344 1116.00
38.1996 1142.00
38.2648 1214.00
38.33 1176.00
38.3952 1136.00
38.4604 1003.00
38.5256 1141.00
38.5908 1051.00
38.656 985.00
38.7212 983.00
38.7864 976.00
38.8516 960.00
38.9168 994.00
38.982 961.00
39.0472 923.00
39.1124 1003.00
39.1776 954.00
39.2428 1016.00
39.308 963.00
39.3732 1002.00
39.4384 1046.00
39.5036 1226.00
39.5688 1375.00
39.634 1394.00
39.6992 1303.00
39.7644 1143.00
39.8296 1157.00
39.8948 1119.00
39.96 1072.00
40.0252 1104.00
40.0904 1496.00
40.1556 1927.00
40.2208 1563.00
40.286 1410.00
40.3512 1108.00
40.4164 1007.00
40.4816 982.00
40.5468 964.00
40.612 996.00
40.6772 984.00
40.7424 934.00
40.8076 944.00
40.8728 994.00
40.938 1001.00
41.0032 971.00
41.0684 989.00
41.1336 1027.00
41.1988 1016.00
41.264 1027.00
41.3292 961.00
41.3944 1037.00
41.4596 1000.00
41.5248 1002.00
41.59 992.00
41.6552 980.00
41.7204 989.00
41.7856 1052.00
41.8508 945.00
41.916 970.00
41.9812 976.00
42.0464 1005.00
42.1116 1078.00
42.1768 1061.00
42.242 1070.00
42.3072 1048.00
42.3724 1050.00
42.4376 1054.00
42.5028 990.00
42.568 965.00
42.6332 993.00
42.6983 970.00
42.7635 1027.00
42.8287 926.00
42.8939 1006.00
42.9591 940.00
43.0243 1021.00
43.0895 999.00
43.1547 938.00
43.2199 960.00
43.2851 974.00
43.3503 984.00
43.4155 1014.00
43.4807 1046.00
43.5459 949.00
43.6111 1001.00
43.6763 1031.00
43.7415 1071.00
43.8067 1104.00
43.8719 1157.00
43.9371 1092.00
44.0023 1052.00
44.0675 1001.00
44.1327 1007.00
44.1979 987.00
44.2631 1039.00
44.3283 1153.00
44.3935 1155.00
44.4587 1243.00
44.5239 1294.00
44.5891 1382.00
44.6543 1544.00
44.7195 1760.00
44.7847 1905.00
44.8499 1825.00
44.9151 1747.00
44.9803 1536.00
45.0455 1387.00
45.1107 1209.00
45.1759 1248.00
45.2411 1163.00
45.3063 1149.00
45.3715 1114.00
45.4367 1093.00
45.5019 1103.00
45.5671 1003.00
45.6323 1095.00
45.6975 1044.00
45.7627 1067.00
45.8279 1091.00
45.8931 1080.00
45.9583 1072.00
46.0235 1205.00
46.0887 1348.00
46.1539 1471.00
46.2191 1639.00
46.2843 1913.00
46.3495 1788.00
46.4147 1752.00
46.4799 1733.00
46.5451 1592.00
46.6103 1517.00
46.6755 1390.00
46.7407 1304.00
46.8059 1234.00
46.8711 1114.00
46.9363 1110.00
47.0015 1110.00
47.0667 1010.00
47.1319 1012.00
47.1971 1039.00
47.2623 1049.00
47.3275 1130.00
47.3927 1105.00
47.4579 1147.00
47.523 1123.00
47.5882 1382.00
47.6534 1853.00
47.7186 2841.00
47.7838 3490.00
47.849 2886.00
47.9142 2465.00
47.9794 1701.00
48.0446 1327.00
48.1098 1182.00
48.175 1119.00
48.2402 1105.00
48.3054 1105.00
48.3706 1065.00
48.4358 1074.00
48.501 1044.00
48.5662 1063.00
48.6314 991.00
48.6966 1064.00
48.7618 990.00
48.827 1054.00
48.8922 1062.00
48.9574 1004.00
49.0226 1051.00
49.0878 1019.00
49.153 1027.00
49.2182 1052.00
49.2834 1106.00
49.3486 1083.00
49.4138 1110.00
49.479 1196.00
49.5442 1212.00
49.6094 1288.00
49.6746 1282.00
49.7398 1413.00
49.805 1448.00
49.8702 1706.00
49.9354 1928.00
50.0006 2253.00
50.0658 2452.00
50.131 2613.00
50.1962 2341.00
50.2614 2030.00
50.3266 1794.00
50.3918 1699.00
50.457 1478.00
50.5222 1347.00
50.5874 1243.00
50.6526 1279.00
50.7178 1209.00
50.783 1221.00
50.8482 1229.00
50.9134 1244.00
50.9786 1405.00
51.0438 1319.00
51.109 1259.00
51.1742 1196.00
51.2394 1215.00
51.3046 1100.00
51.3698 1093.00
51.435 1093.00
51.5002 1123.00
51.5654 1080.00
51.6306 1086.00
51.6958 1028.00
51.761 1088.00
51.8262 1081.00
51.8914 1134.00
51.9566 1101.00
52.0218 1196.00
52.087 1240.00
52.1522 1320.00
52.2174 1891.00
52.2826 3533.00
52.3477 5471.00
52.4129 3654.00
52.4781 3616.00
52.5433 2210.00
52.6085 1525.00
52.6737 1222.00
52.7389 1162.00
52.8041 1142.00
52.8693 1098.00
52.9345 1033.00
52.9997 1117.00
53.0649 1083.00
53.1301 1128.00
53.1953 1090.00
53.2605 1113.00
53.3257 1068.00
53.3909 1115.00
53.4561 1118.00
53.5213 1068.00
53.5865 1040.00
53.6517 1126.00
53.7169 1072.00
53.7821 1009.00
53.8473 1026.00
53.9125 1098.00
53.9777 1128.00
54.0429 1195.00
54.1081 1237.00
54.1733 1214.00
54.2385 1204.00
54.3037 1158.00
54.3689 1176.00
54.4341 1177.00
54.4993 1136.00
54.5645 1187.00
54.6297 1134.00
54.6949 1051.00
54.7601 1060.00
54.8253 1057.00
54.8905 1078.00
54.9557 1078.00
55.0209 1045.00
55.0861 1059.00
55.1513 1048.00
55.2165 1060.00
55.2817 1079.00
55.3469 1057.00
55.4121 1063.00
55.4773 1076.00
55.5425 1068.00
55.6077 1068.00
55.6729 1051.00
55.7381 1013.00
55.8033 1057.00
55.8685 1018.00
55.9337 1105.00
55.9989 1091.00
56.0641 1127.00
56.1293 1225.00
56.1945 1598.00
56.2597 2325.00
56.3249 1662.00
56.3901 1738.00
56.4553 1471.00
56.5205 1192.00
56.5857 1150.00
56.6509 1195.00
56.7161 1145.00
56.7813 1101.00
56.8465 1089.00
56.9117 1030.00
56.9769 986.00
57.042 1019.00
57.1073 997.00
57.1724 971.00
57.2376 1034.00
57.3028 1073.00
57.368 1036.00
57.4332 1050.00
57.4984 1059.00
57.5636 1061.00
57.6288 1049.00
57.694 1060.00
57.7592 1113.00
57.8244 1116.00
57.8896 1245.00
57.9548 1204.00
58.02 1330.00
58.0852 1442.00
58.1504 1504.00
58.2156 1592.00
58.2808 1765.00
58.346 1819.00
58.4112 1741.00
58.4764 1675.00
58.5416 1576.00
58.6068 1459.00
58.672 1388.00
58.7372 1462.00
58.8024 1398.00
58.8676 1448.00
58.9328 1417.00
58.998 1321.00
59.0632 1199.00
59.1284 1168.00
59.1936 1094.00
59.2588 1072.00
59.324 1117.00
59.3892 1155.00
59.4544 1410.00
59.5196 1889.00
59.5848 1519.00
59.65 1544.00
59.7152 1485.00
59.7804 1315.00
59.8456 1189.00
59.9108 1230.00
59.976 1318.00
60.0412 1468.00
60.1064 1622.00
60.1716 1577.00
60.2368 1552.00
60.302 1476.00
60.3672 1425.00
60.4324 1372.00
60.4976 1317.00
60.5628 1420.00
60.628 1489.00
60.6932 1594.00
60.7584 1675.00
60.8236 1576.00
60.8888 1538.00
60.954 1453.00
61.0192 1324.00
61.0844 1244.00
61.1496 1243.00
61.2148 1137.00
61.28 1206.00
61.3452 1141.00
61.4104 1140.00
61.4756 1193.00
61.5408 1133.00
61.606 1101.00
61.6712 1145.00
61.7364 1142.00
61.8016 999.00
61.8667 1008.00
61.932 1020.00
61.9971 1015.00
62.0623 972.00
62.1275 1000.00
62.1927 968.00
62.2579 926.00
62.3231 911.00
62.3883 928.00
62.4535 970.00
62.5187 974.00
62.5839 928.00
62.6491 971.00
62.7143 964.00
62.7795 911.00
62.8447 1033.00
62.9099 997.00
62.9751 1035.00
63.0403 997.00
63.1055 1101.00
63.1707 1105.00
63.2359 1182.00
63.3011 1178.00
63.3663 1225.00
63.4315 1224.00
63.4967 1249.00
63.5619 1254.00
63.6271 1241.00
63.6923 1167.00
63.7575 1158.00
63.8227 1169.00
63.8879 1058.00
63.9531 1092.00
64.0183 1132.00
64.0835 1042.00
64.1487 1047.00
64.2139 1112.00
64.2791 1242.00
64.3443 1426.00
64.4095 1170.00
64.4747 1209.00
64.5399 1237.00
64.6051 1048.00
64.6703 1014.00
64.7355 1047.00
64.8007 1016.00
64.8659 1065.00
64.9311 1169.00
64.9963 1171.00
65.0615 1171.00
65.1267 1120.00
65.1919 1075.00
65.2571 1046.00
65.3223 979.00
65.3875 975.00
65.4527 972.00
65.5179 984.00
65.5831 1016.00
65.6483 955.00
65.7135 972.00
65.7787 1001.00
65.8439 1065.00
65.9091 1038.00
65.9743 1214.00
66.0395 1181.00
66.1047 1410.00
66.1699 1671.00
66.2351 2122.00
66.3003 2087.00
66.3655 1794.00
66.4307 1790.00
66.4959 1609.00
66.561 1397.00
66.6263 1158.00
66.6915 1116.00
66.7566 1090.00
66.8218 992.00
66.887 971.00
66.9522 982.00
67.0174 1037.00
67.0826 981.00
67.1478 942.00
67.213 957.00
67.2782 1004.00
67.3434 952.00
67.4086 959.00
67.4738 925.00
67.539 1009.00
67.6042 935.00
67.6694 939.00
67.7346 964.00
67.7998 1027.00
67.865 917.00
67.9302 1015.00
67.9954 1007.00
68.0606 1010.00
68.1258 1021.00
68.191 971.00
68.2562 1008.00
68.3214 992.00
68.3866 1018.00
68.4518 1044.00
68.517 1081.00
68.5822 1088.00
68.6474 1048.00
68.7126 1010.00
68.7778 1011.00
68.843 1015.00
68.9082 1014.00
68.9734 976.00
69.0386 1069.00
69.1038 1040.00
69.169 1002.00
69.2342 929.00
69.2994 985.00
69.3646 955.00
69.4298 940.00
69.495 1027.00
69.5602 1008.00
69.6254 963.00
69.6906 1026.00
69.7558 998.00
69.821 1060.00
69.8862 1124.00
69.9514 1285.00
70.0166 1316.00
70.0818 1191.00
70.147 1220.00
70.2122 1163.00
70.2774 1098.00
70.3426 994.00
70.4078 1035.00
70.473 913.00
70.5382 934.00
70.6034 987.00
70.6686 899.00
70.7338 939.00
70.799 937.00
70.8642 918.00
70.9294 943.00
70.9946 903.00
71.0598 920.00
71.125 900.00
71.1902 960.00
71.2554 913.00
71.3205 911.00
71.3858 979.00
71.451 1021.00
71.5162 935.00
71.5813 978.00
71.6465 1010.00
71.7117 972.00
71.7769 993.00
71.8421 997.00
71.9073 1079.00
71.9725 1052.00
72.0377 1122.00
72.1029 1185.00
72.1681 1268.00
72.2333 1233.00
72.2985 1227.00
72.3637 1171.00
72.4289 1229.00
72.4941 1124.00
72.5593 1135.00
72.6245 1055.00
72.6897 1062.00
72.7549 1010.00
72.8201 1003.00
72.8853 997.00
72.9505 967.00
73.0157 1011.00
73.0809 956.00
73.1461 932.00
73.2113 973.00
73.2765 924.00
73.3417 934.00
73.4069 962.00
73.4721 989.00
73.5373 914.00
73.6025 996.00
73.6677 1020.00
73.7329 1084.00
73.7981 1038.00
73.8633 1065.00
73.9285 1092.00
73.9937 1124.00
74.0589 1121.00
74.1241 1130.00
74.1893 1054.00
74.2545 1168.00
74.3197 1075.00
74.3849 1090.00
74.4501 1156.00
74.5153 1146.00
74.5805 988.00
74.6457 1064.00
74.7109 1000.00
74.7761 1006.00
74.8413 958.00
74.9065 1033.00
74.9717 988.00
75.0369 1008.00
75.1021 987.00
75.1673 1035.00
75.2325 1068.00
75.2977 1053.00
75.3629 1134.00
75.4281 1205.00
75.4933 1242.00
75.5585 1346.00
75.6237 1232.00
75.6889 1207.00
75.7541 1204.00
75.8193 1121.00
75.8845 1077.00
75.9497 1038.00
76.0149 1036.00
76.0801 1015.00
76.1452 1039.00
76.2104 992.00
76.2756 979.00
76.3409 962.00
76.406 969.00
76.4712 1057.00
76.5364 1210.00
76.6016 1424.00
76.6668 1372.00
76.732 1288.00
76.7972 1299.00
76.8624 1310.00
76.9276 1174.00
76.9928 1060.00
77.058 986.00
77.1232 966.00
77.1884 982.00
77.2536 913.00
77.3188 944.00
77.384 920.00
77.4492 980.00
77.5144 937.00
77.5796 974.00
77.6448 1017.00
77.71 957.00
77.7752 949.00
77.8404 979.00
77.9056 991.00
77.9708 956.00
78.036 931.00
78.1012 963.00
78.1664 957.00
78.2316 1006.00
78.2968 989.00
78.362 968.00
78.4272 979.00
78.4924 972.00
78.5576 969.00
78.6228 906.00
78.688 917.00
78.7532 903.00
78.8184 910.00
78.8836 905.00
78.9488 991.00
79.014 964.00
79.0792 961.00
79.1444 955.00
79.2096 963.00
79.2748 960.00
79.34 995.00
79.4052 1014.00
79.4704 974.00
79.5356 1065.00
79.6008 1031.00
79.666 1015.00
79.7312 1028.00
79.7964 1048.00
79.8616 1009.00
79.9268 1038.00
79.992 1051.00
80.0572 1007.00
80.1224 1041.00
80.1876 1008.00
80.2528 996.00
80.318 1019.00
80.3832 1019.00
80.4484 1047.00
80.5136 1037.00
80.5788 1001.00
80.644 968.00
80.7092 1013.00
80.7744 1045.00
80.8396 1050.00
80.9048 1012.00
80.9699 1075.00
81.0351 1024.00
81.1003 1016.00
81.1655 991.00
81.2307 1031.00
81.2959 1047.00
81.3611 978.00
81.4263 969.00
81.4915 980.00
81.5567 1005.00
81.6219 949.00
81.6871 951.00
81.7523 1003.00
81.8175 914.00
81.8827 1030.00
81.9479 998.00
82.0131 1009.00
82.0783 1016.00
82.1435 1053.00
82.2087 1001.00
82.2739 1018.00
82.3391 986.00
82.4043 996.00
82.4695 980.00
82.5347 1076.00
82.5999 1031.00
82.6651 1053.00
82.7303 1073.00
82.7955 1124.00
82.8607 1168.00
82.9259 1241.00
82.9911 1377.00
83.0563 1321.00
83.1215 1306.00
83.1867 1324.00
83.2519 1336.00
83.3171 1276.00
83.3823 1177.00
83.4475 1167.00
83.5127 1250.00
83.5779 1223.00
83.6431 1136.00
83.7083 1216.00
83.7735 1189.00
83.8387 1266.00
83.9039 1161.00
83.9691 1155.00
84.0343 1103.00
84.0995 1222.00
84.1647 1067.00
84.2299 1073.00
84.2951 1078.00
84.3603 1055.00
84.4255 1118.00
84.4907 1179.00
84.5559 1268.00
84.6211 1283.00
84.6863 1387.00
84.7515 1397.00
84.8167 1343.00
84.8819 1262.00
84.9471 1250.00
85.0123 1230.00
85.0775 1216.00
85.1427 1133.00
85.2079 1134.00
85.2731 1097.00
85.3383 1049.00
85.4035 1038.00
85.4687 981.00
85.5339 1050.00
85.5991 1022.00
85.6643 1061.00
85.7295 984.00
85.7946 1071.00
85.8598 1043.00
85.925 1041.00
85.9903 1108.00
86.0554 1106.00
86.1206 1243.00
86.1858 1264.00
86.251 1243.00
86.3162 1166.00
86.3814 1169.00
86.4466 1192.00
86.5118 1056.00
86.577 1032.00
86.6422 1025.00
86.7074 1064.00
86.7726 1006.00
86.8378 1094.00
86.903 1016.00
86.9682 1006.00
87.0334 1064.00
87.0986 1018.00
87.1638 1063.00
87.229 1047.00
87.2942 1049.00
87.3594 1074.00
87.4246 1071.00
87.4898 1001.00
87.555 998.00
87.6202 1021.00
87.6854 1023.00
87.7506 1121.00
87.8158 1057.00
87.881 1201.00
87.9462 1118.00
88.0114 1116.00
88.0766 1106.00
88.1418 1096.00
88.207 1036.00
88.2722 1048.00
88.3374 982.00
88.4026 1037.00
88.4678 1048.00
88.533 1005.00
88.5982 942.00
88.6634 1001.00
88.7286 980.00
88.7938 985.00
88.859 1004.00
88.9242 1011.00
88.9894 959.00
89.0546 945.00
89.1198 1017.00
89.185 1136.00
89.2502 1068.00
89.3154 1045.00
89.3806 1122.00
89.4458 1108.00
89.511 1047.00
89.5762 1118.00
89.6414 1132.00
89.7066 1135.00
89.7718 1156.00
89.837 1189.00
89.9022 1145.00
89.9674 1112.00
90.0326 1099.00
90.0978 1061.00
90.163 999.00
90.2282 1087.00
90.2934 1032.00
90.3586 1072.00
90.4238 1090.00
90.489 1007.00
90.5542 1070.00
90.6193 961.00
90.6845 973.00
90.7497 1010.00
90.8149 1034.00
90.8801 1095.00
90.9453 1082.00
91.0105 1074.00
91.0757 1112.00
91.1409 1042.00
91.2061 1053.00
91.2713 1101.00
91.3365 1140.00
91.4017 1225.00
91.4669 1221.00
91.5321 1086.00
91.5973 1094.00
91.6625 1111.00
91.7277 1094.00
91.7929 1102.00
91.8581 999.00
91.9233 974.00
91.9885 989.00
92.0537 1058.00
92.1189 971.00
92.1841 1008.00
92.2493 956.00
92.3145 1004.00
92.3797 1005.00
92.4449 1039.00
92.5101 958.00
92.5753 1079.00
92.6405 1029.00
92.7057 997.00
92.7709 1001.00
92.8361 991.00
92.9013 997.00
92.9665 1060.00
93.0317 1029.00
93.0969 1151.00
93.1621 1107.00
93.2273 1125.00
93.2925 1116.00
93.3577 1083.00
93.4229 1145.00
93.4881 1075.00
93.5533 1102.00
93.6185 1027.00
93.6837 1003.00
93.7489 957.00
93.8141 1014.00
93.8793 982.00
93.9445 998.00
94.0097 960.00
94.0749 982.00
94.1401 956.00
94.2053 968.00
94.2705 1018.00
94.3357 964.00
94.4009 940.00
94.4661 975.00
94.5313 990.00
94.5965 967.00
94.6617 863.00
94.7269 909.00
94.7921 906.00
94.8573 894.00
94.9225 977.00
94.9877 969.00
95.0529 872.00
95.1181 966.00
95.1833 959.00
95.2485 922.00
95.3137 987.00
95.3789 968.00
95.444 963.00
95.5092 879.00
95.5744 949.00
95.6396 914.00
95.7048 920.00
95.77 969.00
95.8352 1031.00
95.9004 1085.00
95.9656 1050.00
96.0308 1062.00
96.096 963.00
96.1612 1015.00
96.2264 1068.00
96.2916 983.00
96.3568 1072.00
96.422 940.00
96.4872 986.00
96.5524 971.00
96.6176 1037.00
96.6828 1043.00
96.748 1032.00
96.8132 1074.00
96.8784 930.00
96.9436 981.00
97.0088 1017.00
97.074 1016.00
97.1392 1003.00
97.2044 977.00
97.2696 1016.00
97.3348 944.00
97.4 996.00
97.4652 1031.00
97.5304 1066.00
97.5956 1061.00
97.6608 1116.00
97.726 1146.00
97.7912 1105.00
97.8564 1064.00
97.9216 1076.00
97.9868 1126.00
98.052 1119.00
98.1172 1095.00
98.1824 1089.00
98.2476 1058.00
98.3128 1010.00
98.378 995.00
98.4432 1041.00
98.5084 1033.00
98.5736 1018.00
98.6388 1083.00
98.704 995.00
98.7692 1016.00
98.8344 1025.00
98.8996 1037.00
98.9648 1004.00
99.03 978.00
99.0952 990.00
99.1604 982.00
99.2256 961.00
99.2908 962.00
99.356 935.00
99.4212 984.00
99.4864 993.00
99.5516 982.00
99.6168 1014.00
99.682 991.00
99.7472 961.00
99.8124 969.00
99.8776 949.00
99.9428 941.00
100.008 972.00
100.073 1008.00
100.095 940.00