File: data/xrd_creation/results/PG_2439-1.xy
9.903433 2569.00
9.968632 2512.00
10.0338 2481.00
10.099 2530.00
10.1642 2535.00
10.2294 2460.00
10.2946 2395.00
10.3598 2419.00
10.425 2495.00
10.4902 2413.00
10.5554 2319.00
10.6206 2360.00
10.6858 2248.00
10.751 2299.00
10.8162 2379.00
10.8814 2286.00
10.9466 2336.00
11.0118 2276.00
11.077 2263.00
11.1422 2210.00
11.2074 2255.00
11.2726 2251.00
11.3378 2226.00
11.403 2104.00
11.4682 2093.00
11.5334 1981.00
11.5986 2098.00
11.6638 2155.00
11.729 2034.00
11.7942 2034.00
11.8594 1898.00
11.9246 1979.00
11.9898 1950.00
12.055 1923.00
12.1202 1953.00
12.1854 1913.00
12.2506 1862.00
12.3158 1767.00
12.381 1792.00
12.4462 1798.00
12.5114 1839.00
12.5766 1846.00
12.6418 1789.00
12.707 1750.00
12.7722 1807.00
12.8374 1755.00
12.9026 1793.00
12.9678 1617.00
13.033 1714.00
13.0982 1662.00
13.1634 1696.00
13.2286 1663.00
13.2938 1675.00
13.359 1610.00
13.4242 1599.00
13.4894 1667.00
13.5546 1559.00
13.6198 1517.00
13.685 1536.00
13.7502 1592.00
13.8154 1572.00
13.8805 1591.00
13.9457 1503.00
14.0109 1473.00
14.0761 1553.00
14.1413 1561.00
14.2065 1509.00
14.2717 1425.00
14.3369 1437.00
14.4021 1495.00
14.4673 1472.00
14.5325 1430.00
14.5977 1399.00
14.6629 1318.00
14.7281 1396.00
14.7933 1470.00
14.8585 1345.00
14.9237 1335.00
14.9889 1410.00
15.0541 1360.00
15.1193 1300.00
15.1845 1348.00
15.2497 1377.00
15.3149 1343.00
15.3801 1408.00
15.4453 1322.00
15.5105 1376.00
15.5757 1409.00
15.6409 1357.00
15.7061 1337.00
15.7713 1325.00
15.8365 1307.00
15.9017 1263.00
15.9669 1344.00
16.0321 1328.00
16.0973 1275.00
16.1625 1289.00
16.2277 1320.00
16.2929 1301.00
16.3581 1282.00
16.4233 1274.00
16.4885 1346.00
16.5537 1266.00
16.6189 1249.00
16.6841 1253.00
16.7493 1272.00
16.8145 1280.00
16.8797 1272.00
16.9449 1358.00
17.0101 1220.00
17.0753 1236.00
17.1405 1188.00
17.2057 1202.00
17.2709 1125.00
17.3361 1184.00
17.4013 1253.00
17.4665 1164.00
17.5317 1212.00
17.5969 1144.00
17.6621 1246.00
17.7273 1181.00
17.7925 1163.00
17.8577 1173.00
17.9229 1139.00
17.9881 1070.00
18.0533 1124.00
18.1185 1178.00
18.1837 1064.00
18.2489 1116.00
18.3141 1122.00
18.3793 1106.00
18.4445 1176.00
18.5097 1116.00
18.5749 1132.00
18.6401 1119.00
18.7052 1184.00
18.7704 1120.00
18.8356 1126.00
18.9008 1043.00
18.966 1063.00
19.0312 1121.00
19.0964 1088.00
19.1616 1110.00
19.2268 1037.00
19.292 1090.00
19.3572 1017.00
19.4224 1033.00
19.4876 1065.00
19.5528 1046.00
19.618 994.00
19.6832 1016.00
19.7484 1003.00
19.8136 980.00
19.8788 956.00
19.944 938.00
20.0092 1004.00
20.0744 941.00
20.1396 960.00
20.2048 1001.00
20.27 942.00
20.3352 985.00
20.4004 1031.00
20.4656 1028.00
20.5308 1019.00
20.596 983.00
20.6612 936.00
20.7264 939.00
20.7916 956.00
20.8568 973.00
20.922 972.00
20.9872 877.00
21.0524 928.00
21.1176 943.00
21.1828 917.00
21.248 910.00
21.3132 961.00
21.3784 972.00
21.4436 930.00
21.5088 971.00
21.574 902.00
21.6392 937.00
21.7044 888.00
21.7696 942.00
21.8348 894.00
21.9 886.00
21.9652 888.00
22.0304 856.00
22.0956 872.00
22.1608 958.00
22.226 940.00
22.2912 948.00
22.3564 903.00
22.4216 886.00
22.4868 914.00
22.552 817.00
22.6172 826.00
22.6824 936.00
22.7476 871.00
22.8128 889.00
22.878 893.00
22.9432 881.00
23.0084 857.00
23.0736 905.00
23.1388 798.00
23.204 850.00
23.2692 789.00
23.3344 859.00
23.3996 806.00
23.4647 810.00
23.5299 846.00
23.5951 841.00
23.6603 805.00
23.7255 853.00
23.7907 808.00
23.8559 808.00
23.9211 783.00
23.9863 784.00
24.0515 859.00
24.1167 800.00
24.1819 824.00
24.2471 792.00
24.3123 820.00
24.3775 795.00
24.4427 790.00
24.5079 785.00
24.5731 847.00
24.6383 800.00
24.7035 785.00
24.7687 792.00
24.8339 789.00
24.8991 815.00
24.9643 821.00
25.0295 798.00
25.0947 799.00
25.1599 857.00
25.2251 762.00
25.2903 783.00
25.3555 773.00
25.4207 714.00
25.4859 804.00
25.5511 752.00
25.6163 724.00
25.6815 734.00
25.7467 807.00
25.8119 753.00
25.8771 808.00
25.9423 765.00
26.0075 763.00
26.0727 740.00
26.1379 740.00
26.2031 749.00
26.2683 741.00
26.3335 731.00
26.3987 764.00
26.4639 754.00
26.5291 744.00
26.5943 703.00
26.6595 715.00
26.7247 745.00
26.7899 737.00
26.8551 714.00
26.9203 746.00
26.9855 724.00
27.0507 763.00
27.1159 707.00
27.1811 721.00
27.2463 736.00
27.3115 716.00
27.3767 709.00
27.4419 777.00
27.5071 768.00
27.5723 747.00
27.6375 763.00
27.7027 758.00
27.7679 762.00
27.8331 734.00
27.8983 729.00
27.9635 703.00
28.0287 733.00
28.0939 765.00
28.1591 741.00
28.2243 774.00
28.2894 835.00
28.3546 783.00
28.4198 761.00
28.485 696.00
28.5502 664.00
28.6154 737.00
28.6806 647.00
28.7458 695.00
28.811 701.00
28.8762 735.00
28.9414 713.00
29.0066 694.00
29.0718 728.00
29.137 672.00
29.2022 701.00
29.2674 703.00
29.3326 667.00
29.3978 655.00
29.463 653.00
29.5282 678.00
29.5934 697.00
29.6586 709.00
29.7238 699.00
29.789 691.00
29.8542 688.00
29.9194 701.00
29.9846 666.00
30.0498 672.00
30.115 682.00
30.1802 705.00
30.2454 705.00
30.3106 668.00
30.3758 716.00
30.441 760.00
30.5062 635.00
30.5714 642.00
30.6366 586.00
30.7018 599.00
30.767 599.00
30.8322 622.00
30.8974 587.00
30.9626 630.00
31.0278 634.00
31.093 573.00
31.1582 637.00
31.2234 603.00
31.2886 607.00
31.3538 638.00
31.419 663.00
31.4842 628.00
31.5494 620.00
31.6146 588.00
31.6798 569.00
31.745 586.00
31.8102 572.00
31.8754 580.00
31.9406 568.00
32.0058 596.00
32.071 578.00
32.1362 547.00
32.2014 601.00
32.2666 585.00
32.3318 570.00
32.397 571.00
32.4622 583.00
32.5274 552.00
32.5926 525.00
32.6578 544.00
32.723 564.00
32.7882 569.00
32.8534 539.00
32.9186 567.00
32.9838 561.00
33.0489 621.00
33.1141 585.00
33.1793 584.00
33.2445 535.00
33.3097 580.00
33.3749 546.00
33.4401 514.00
33.5053 531.00
33.5705 531.00
33.6357 605.00
33.7009 642.00
33.7661 583.00
33.8313 568.00
33.8965 563.00
33.9617 556.00
34.0269 540.00
34.0921 542.00
34.1573 560.00
34.2225 580.00
34.2877 497.00
34.3529 483.00
34.4181 560.00
34.4833 549.00
34.5485 526.00
34.6137 512.00
34.6789 519.00
34.7441 536.00
34.8093 457.00
34.8745 507.00
34.9397 534.00
35.0049 533.00
35.0701 505.00
35.1353 524.00
35.2005 509.00
35.2657 548.00
35.3309 564.00
35.3961 533.00
35.4613 506.00
35.5265 534.00
35.5917 513.00
35.6569 527.00
35.7221 481.00
35.7873 525.00
35.8525 475.00
35.9177 510.00
35.9829 522.00
36.0481 512.00
36.1133 469.00
36.1785 492.00
36.2437 457.00
36.3089 514.00
36.3741 474.00
36.4393 446.00
36.5045 458.00
36.5697 519.00
36.6349 504.00
36.7001 453.00
36.7653 524.00
36.8305 470.00
36.8957 533.00
36.9609 462.00
37.0261 529.00
37.0913 486.00
37.1565 482.00
37.2217 467.00
37.2869 502.00
37.3521 480.00
37.4173 451.00
37.4825 461.00
37.5477 448.00
37.6129 452.00
37.6781 448.00
37.7433 516.00
37.8085 425.00
37.8736 391.00
37.9388 462.00
38.004 481.00
38.0692 431.00
38.1344 436.00
38.1996 467.00
38.2648 455.00
38.33 468.00
38.3952 459.00
38.4604 464.00
38.5256 449.00
38.5908 431.00
38.656 418.00
38.7212 447.00
38.7864 438.00
38.8516 447.00
38.9168 430.00
38.982 474.00
39.0472 410.00
39.1124 460.00
39.1776 417.00
39.2428 410.00
39.308 420.00
39.3732 430.00
39.4384 439.00
39.5036 385.00
39.5688 448.00
39.634 431.00
39.6992 398.00
39.7644 420.00
39.8296 417.00
39.8948 419.00
39.96 436.00
40.0252 428.00
40.0904 391.00
40.1556 414.00
40.2208 409.00
40.286 417.00
40.3512 400.00
40.4164 374.00
40.4816 428.00
40.5468 419.00
40.612 415.00
40.6772 418.00
40.7424 408.00
40.8076 395.00
40.8728 405.00
40.938 383.00
41.0032 387.00
41.0684 405.00
41.1336 424.00
41.1988 434.00
41.264 434.00
41.3292 358.00
41.3944 403.00
41.4596 424.00
41.5248 363.00
41.59 407.00
41.6552 392.00
41.7204 408.00
41.7856 389.00
41.8508 404.00
41.916 385.00
41.9812 405.00
42.0464 399.00
42.1116 399.00
42.1768 423.00
42.242 386.00
42.3072 441.00
42.3724 413.00
42.4376 404.00
42.5028 382.00
42.568 398.00
42.6332 408.00
42.6983 400.00
42.7635 419.00
42.8287 413.00
42.8939 390.00
42.9591 416.00
43.0243 425.00
43.0895 410.00
43.1547 445.00
43.2199 447.00
43.2851 396.00
43.3503 440.00
43.4155 385.00
43.4807 396.00
43.5459 434.00
43.6111 370.00
43.6763 394.00
43.7415 399.00
43.8067 375.00
43.8719 385.00
43.9371 397.00
44.0023 419.00
44.0675 397.00
44.1327 405.00
44.1979 430.00
44.2631 375.00
44.3283 357.00
44.3935 340.00
44.4587 379.00
44.5239 384.00
44.5891 353.00
44.6543 439.00
44.7195 384.00
44.7847 347.00
44.8499 358.00
44.9151 355.00
44.9803 342.00
45.0455 335.00
45.1107 386.00
45.1759 342.00
45.2411 352.00
45.3063 336.00
45.3715 361.00
45.4367 358.00
45.5019 370.00
45.5671 334.00
45.6323 402.00
45.6975 340.00
45.7627 359.00
45.8279 378.00
45.8931 357.00
45.9583 304.00
46.0235 403.00
46.0887 345.00
46.1539 308.00
46.2191 330.00
46.2843 348.00
46.3495 346.00
46.4147 369.00
46.4799 358.00
46.5451 362.00
46.6103 349.00
46.6755 368.00
46.7407 351.00
46.8059 331.00
46.8711 314.00
46.9363 334.00
47.0015 317.00
47.0667 333.00
47.1319 379.00
47.1971 374.00
47.2623 342.00
47.3275 376.00
47.3927 376.00
47.4579 382.00
47.523 384.00
47.5882 344.00
47.6534 333.00
47.7186 356.00
47.7838 346.00
47.849 297.00
47.9142 348.00
47.9794 326.00
48.0446 350.00
48.1098 351.00
48.175 349.00
48.2402 349.00
48.3054 372.00
48.3706 333.00
48.4358 322.00
48.501 358.00
48.5662 330.00
48.6314 355.00
48.6966 335.00
48.7618 359.00
48.827 332.00
48.8922 349.00
48.9574 348.00
49.0226 347.00
49.0878 294.00
49.153 363.00
49.2182 355.00
49.2834 315.00
49.3486 303.00
49.4138 343.00
49.479 339.00
49.5442 348.00
49.6094 320.00
49.6746 324.00
49.7398 324.00
49.805 344.00
49.8702 361.00
49.9354 331.00
50.0006 302.00
50.0658 328.00
50.131 325.00
50.1962 337.00
50.2614 317.00
50.3266 315.00
50.3918 325.00
50.457 320.00
50.5222 311.00
50.5874 306.00
50.6526 306.00
50.7178 339.00
50.783 296.00
50.8482 340.00
50.9134 331.00
50.9786 345.00
51.0438 331.00
51.109 355.00
51.1742 340.00
51.2394 300.00
51.3046 339.00
51.3698 323.00
51.435 331.00
51.5002 345.00
51.5654 349.00
51.6306 337.00
51.6958 354.00
51.761 337.00
51.8262 335.00
51.8914 319.00
51.9566 301.00
52.0218 313.00
52.087 319.00
52.1522 336.00
52.2174 290.00
52.2826 308.00
52.3477 339.00
52.4129 333.00
52.4781 313.00
52.5433 352.00
52.6085 342.00
52.6737 309.00
52.7389 296.00
52.8041 274.00
52.8693 355.00
52.9345 334.00
52.9997 313.00
53.0649 292.00
53.1301 356.00
53.1953 309.00
53.2605 299.00
53.3257 300.00
53.3909 372.00
53.4561 301.00
53.5213 361.00
53.5865 304.00
53.6517 302.00
53.7169 306.00
53.7821 341.00
53.8473 294.00
53.9125 295.00
53.9777 307.00
54.0429 314.00
54.1081 308.00
54.1733 305.00
54.2385 308.00
54.3037 287.00
54.3689 294.00
54.4341 319.00
54.4993 327.00
54.5645 281.00
54.6297 311.00
54.6949 300.00
54.7601 291.00
54.8253 322.00
54.8905 318.00
54.9557 316.00
55.0209 310.00
55.0861 324.00
55.1513 291.00
55.2165 313.00
55.2817 316.00
55.3469 305.00
55.4121 293.00
55.4773 297.00
55.5425 280.00
55.6077 278.00
55.6729 295.00
55.7381 266.00
55.8033 296.00
55.8685 242.00
55.9337 305.00
55.9989 296.00
56.0641 276.00
56.1293 306.00
56.1945 275.00
56.2597 310.00
56.3249 238.00
56.3901 271.00
56.4553 279.00
56.5205 323.00
56.5857 302.00
56.6509 267.00
56.7161 299.00
56.7813 314.00
56.8465 283.00
56.9117 279.00
56.9769 313.00
57.042 284.00
57.1073 297.00
57.1724 261.00
57.2376 276.00
57.3028 299.00
57.368 304.00
57.4332 261.00
57.4984 286.00
57.5636 293.00
57.6288 289.00
57.694 281.00
57.7592 275.00
57.8244 261.00
57.8896 289.00
57.9548 281.00
58.02 286.00
58.0852 284.00
58.1504 257.00
58.2156 278.00
58.2808 290.00
58.346 257.00
58.4112 291.00
58.4764 280.00
58.5416 256.00
58.6068 246.00
58.672 248.00
58.7372 297.00
58.8024 272.00
58.8676 296.00
58.9328 269.00
58.998 283.00
59.0632 273.00
59.1284 304.00
59.1936 249.00
59.2588 278.00
59.324 257.00
59.3892 268.00
59.4544 246.00
59.5196 228.00
59.5848 277.00
59.65 256.00
59.7152 287.00
59.7804 283.00
59.8456 273.00
59.9108 298.00
59.976 258.00
60.0412 244.00
60.1064 271.00
60.1716 262.00
60.2368 286.00
60.302 272.00
60.3672 261.00
60.4324 275.00
60.4976 265.00
60.5628 256.00
60.628 266.00
60.6932 260.00
60.7584 237.00
60.8236 235.00
60.8888 264.00
60.954 273.00
61.0192 261.00
61.0844 285.00
61.1496 257.00
61.2148 268.00
61.28 248.00
61.3452 230.00
61.4104 236.00
61.4756 273.00
61.5408 238.00
61.606 240.00
61.6712 302.00
61.7364 281.00
61.8016 290.00
61.8667 243.00
61.932 275.00
61.9971 262.00
62.0623 217.00
62.1275 290.00
62.1927 306.00
62.2579 250.00
62.3231 281.00
62.3883 224.00
62.4535 267.00
62.5187 279.00
62.5839 287.00
62.6491 274.00
62.7143 261.00
62.7795 244.00
62.8447 247.00
62.9099 279.00
62.9751 295.00
63.0403 242.00
63.1055 266.00
63.1707 246.00
63.2359 263.00
63.3011 290.00
63.3663 241.00
63.4315 243.00
63.4967 276.00
63.5619 231.00
63.6271 274.00
63.6923 276.00
63.7575 236.00
63.8227 272.00
63.8879 246.00
63.9531 259.00
64.0183 234.00
64.0835 256.00
64.1487 237.00
64.2139 238.00
64.2791 238.00
64.3443 248.00
64.4095 259.00
64.4747 245.00
64.5399 236.00
64.6051 259.00
64.6703 292.00
64.7355 216.00
64.8007 217.00
64.8659 260.00
64.9311 223.00
64.9963 266.00
65.0615 249.00
65.1267 224.00
65.1919 232.00
65.2571 277.00
65.3223 212.00
65.3875 241.00
65.4527 233.00
65.5179 248.00
65.5831 264.00
65.6483 256.00
65.7135 230.00
65.7787 264.00
65.8439 239.00
65.9091 292.00
65.9743 259.00
66.0395 235.00
66.1047 235.00
66.1699 257.00
66.2351 204.00
66.3003 245.00
66.3655 269.00
66.4307 267.00
66.4959 231.00
66.561 218.00
66.6263 263.00
66.6915 220.00
66.7566 245.00
66.8218 245.00
66.887 229.00
66.9522 236.00
67.0174 234.00
67.0826 261.00
67.1478 243.00
67.213 238.00
67.2782 237.00
67.3434 245.00
67.4086 234.00
67.4738 243.00
67.539 248.00
67.6042 278.00
67.6694 259.00
67.7346 229.00
67.7998 256.00
67.865 257.00
67.9302 261.00
67.9954 237.00
68.0606 270.00
68.1258 221.00
68.191 260.00
68.2562 242.00
68.3214 242.00
68.3866 263.00
68.4518 222.00
68.517 262.00
68.5822 235.00
68.6474 275.00
68.7126 224.00
68.7778 241.00
68.843 221.00
68.9082 240.00
68.9734 256.00
69.0386 266.00
69.1038 243.00
69.169 232.00
69.2342 236.00
69.2994 230.00
69.3646 237.00
69.4298 237.00
69.495 208.00
69.5602 244.00
69.6254 269.00
69.6906 259.00
69.7558 246.00
69.821 270.00
69.8862 209.00
69.9514 247.00
70.0166 217.00
70.0818 245.00
70.147 240.00
70.2122 246.00
70.2774 225.00
70.3426 233.00
70.4078 236.00
70.473 246.00
70.5382 256.00
70.6034 240.00
70.6686 212.00
70.7338 245.00
70.799 262.00
70.8642 264.00
70.9294 275.00
70.9946 238.00
71.0598 260.00
71.125 227.00
71.1902 242.00
71.2554 267.00
71.3205 241.00
71.3858 228.00
71.451 261.00
71.5162 274.00
71.5813 234.00
71.6465 284.00
71.7117 225.00
71.7769 247.00
71.8421 232.00
71.9073 216.00
71.9725 247.00
72.0377 262.00
72.1029 242.00
72.1681 278.00
72.2333 228.00
72.2985 240.00
72.3637 245.00
72.4289 274.00
72.4941 221.00
72.5593 257.00
72.6245 243.00
72.6897 280.00
72.7549 261.00
72.8201 257.00
72.8853 227.00
72.9505 271.00
73.0157 221.00
73.0809 256.00
73.1461 261.00
73.2113 246.00
73.2765 245.00
73.3417 260.00
73.4069 227.00
73.4721 237.00
73.5373 240.00
73.6025 238.00
73.6677 273.00
73.7329 243.00
73.7981 246.00
73.8633 270.00
73.9285 243.00
73.9937 276.00
74.0589 256.00
74.1241 243.00
74.1893 241.00
74.2545 258.00
74.3197 295.00
74.3849 231.00
74.4501 243.00
74.5153 243.00
74.5805 260.00
74.6457 259.00
74.7109 261.00
74.7761 243.00
74.8413 243.00
74.9065 246.00
74.9717 282.00
75.0369 286.00
75.1021 244.00
75.1673 231.00
75.2325 269.00
75.2977 248.00
75.3629 258.00
75.4281 275.00
75.4933 251.00
75.5585 249.00
75.6237 277.00
75.6889 260.00
75.7541 268.00
75.8193 216.00
75.8845 233.00
75.9497 259.00
76.0149 263.00
76.0801 246.00
76.1452 244.00
76.2104 246.00
76.2756 257.00
76.3409 231.00
76.406 293.00
76.4712 264.00
76.5364 247.00
76.6016 244.00
76.6668 247.00
76.732 265.00
76.7972 250.00
76.8624 308.00
76.9276 241.00
76.9928 270.00
77.058 248.00
77.1232 242.00
77.1884 242.00
77.2536 275.00
77.3188 284.00
77.384 272.00
77.4492 262.00
77.5144 240.00
77.5796 262.00
77.6448 239.00
77.71 221.00
77.7752 259.00
77.8404 230.00
77.9056 259.00
77.9708 259.00
78.036 266.00
78.1012 264.00
78.1664 257.00
78.2316 264.00
78.2968 265.00
78.362 242.00
78.4272 260.00
78.4924 217.00
78.5576 227.00
78.6228 268.00
78.688 270.00
78.7532 267.00
78.8184 268.00
78.8836 280.00
78.9488 266.00
79.014 281.00
79.0792 262.00
79.1444 266.00
79.2096 229.00
79.2748 270.00
79.34 273.00
79.4052 261.00
79.4704 259.00
79.5356 248.00
79.6008 272.00
79.666 275.00
79.7312 284.00
79.7964 250.00
79.8616 273.00
79.9268 275.00
79.992 311.00
80.0572 240.00
80.1224 272.00
80.1876 257.00
80.2528 268.00
80.318 244.00
80.3832 259.00
80.4484 250.00
80.5136 263.00
80.5788 279.00
80.644 236.00
80.7092 273.00
80.7744 233.00
80.8396 239.00
80.9048 239.00
80.9699 279.00
81.0351 259.00
81.1003 315.00
81.1655 267.00
81.2307 282.00
81.2959 241.00
81.3611 262.00
81.4263 251.00
81.4915 257.00
81.5567 268.00
81.6219 288.00
81.6871 297.00
81.7523 299.00
81.8175 299.00
81.8827 266.00
81.9479 271.00
82.0131 234.00
82.0783 222.00
82.1435 276.00
82.2087 296.00
82.2739 272.00
82.3391 248.00
82.4043 226.00
82.4695 281.00
82.5347 247.00
82.5999 264.00
82.6651 261.00
82.7303 286.00
82.7955 259.00
82.8607 296.00
82.9259 299.00
82.9911 263.00
83.0563 272.00
83.1215 277.00
83.1867 273.00
83.2519 295.00
83.3171 284.00
83.3823 268.00
83.4475 295.00
83.5127 268.00
83.5779 246.00
83.6431 249.00
83.7083 260.00
83.7735 256.00
83.8387 260.00
83.9039 288.00
83.9691 222.00
84.0343 274.00
84.0995 241.00
84.1647 264.00
84.2299 237.00
84.2951 258.00
84.3603 271.00
84.4255 239.00
84.4907 287.00
84.5559 265.00
84.6211 296.00
84.6863 231.00
84.7515 268.00
84.8167 262.00
84.8819 274.00
84.9471 260.00
85.0123 260.00
85.0775 242.00
85.1427 274.00
85.2079 273.00
85.2731 222.00
85.3383 249.00
85.4035 284.00
85.4687 248.00
85.5339 268.00
85.5991 256.00
85.6643 243.00
85.7295 257.00
85.7946 245.00
85.8598 217.00
85.925 261.00
85.9903 248.00
86.0554 273.00
86.1206 261.00
86.1858 262.00
86.251 238.00
86.3162 271.00
86.3814 236.00
86.4466 223.00
86.5118 228.00
86.577 251.00
86.6422 195.00
86.7074 260.00
86.7726 221.00
86.8378 278.00
86.903 239.00
86.9682 263.00
87.0334 217.00
87.0986 263.00
87.1638 204.00
87.229 258.00
87.2942 283.00
87.3594 235.00
87.4246 234.00
87.4898 244.00
87.555 248.00
87.6202 264.00
87.6854 227.00
87.7506 231.00
87.8158 245.00
87.881 239.00
87.9462 231.00
88.0114 225.00
88.0766 232.00
88.1418 238.00
88.207 218.00
88.2722 246.00
88.3374 236.00
88.4026 261.00
88.4678 244.00
88.533 267.00
88.5982 260.00
88.6634 211.00
88.7286 258.00
88.7938 278.00
88.859 246.00
88.9242 239.00
88.9894 239.00
89.0546 214.00
89.1198 218.00
89.185 238.00
89.2502 209.00
89.3154 233.00
89.3806 233.00
89.4458 218.00
89.511 222.00
89.5762 225.00
89.6414 267.00
89.7066 231.00
89.7718 249.00
89.837 239.00
89.9022 187.00
89.9674 247.00
90.0326 237.00
90.0978 250.00
90.163 215.00
90.2282 241.00
90.2934 248.00
90.3586 236.00
90.4238 260.00
90.489 226.00
90.5542 218.00
90.6193 235.00
90.6845 227.00
90.7497 205.00
90.8149 200.00
90.8801 220.00
90.9453 233.00
91.0105 235.00
91.0757 230.00
91.1409 237.00
91.2061 249.00
91.2713 248.00
91.3365 213.00
91.4017 230.00
91.4669 234.00
91.5321 247.00
91.5973 218.00
91.6625 258.00
91.7277 211.00
91.7929 229.00
91.8581 223.00
91.9233 227.00
91.9885 227.00
92.0537 237.00
92.1189 192.00
92.1841 235.00
92.2493 245.00
92.3145 240.00
92.3797 245.00
92.4449 250.00
92.5101 236.00
92.5753 204.00
92.6405 232.00
92.7057 257.00
92.7709 226.00
92.8361 222.00
92.9013 214.00
92.9665 231.00
93.0317 240.00
93.0969 242.00
93.1621 238.00
93.2273 238.00
93.2925 219.00
93.3577 224.00
93.4229 206.00
93.4881 213.00
93.5533 213.00
93.6185 216.00
93.6837 229.00
93.7489 228.00
93.8141 215.00
93.8793 232.00
93.9445 267.00
94.0097 229.00
94.0749 226.00
94.1401 225.00
94.2053 229.00
94.2705 259.00
94.3357 231.00
94.4009 223.00
94.4661 209.00
94.5313 223.00
94.5965 215.00
94.6617 229.00
94.7269 232.00
94.7921 259.00
94.8573 262.00
94.9225 239.00
94.9877 230.00
95.0529 249.00
95.1181 218.00
95.1833 223.00
95.2485 241.00
95.3137 218.00
95.3789 218.00
95.444 236.00
95.5092 225.00
95.5744 222.00
95.6396 250.00
95.7048 211.00
95.77 233.00
95.8352 211.00
95.9004 224.00
95.9656 229.00
96.0308 217.00
96.096 227.00
96.1612 250.00
96.2264 201.00
96.2916 226.00
96.3568 203.00
96.422 215.00
96.4872 224.00
96.5524 243.00
96.6176 226.00
96.6828 220.00
96.748 217.00
96.8132 209.00
96.8784 233.00
96.9436 207.00
97.0088 229.00
97.074 225.00
97.1392 185.00
97.2044 224.00
97.2696 231.00
97.3348 235.00
97.4 221.00
97.4652 218.00
97.5304 211.00
97.5956 244.00
97.6608 223.00
97.726 230.00
97.7912 237.00
97.8564 240.00
97.9216 212.00
97.9868 201.00
98.052 245.00
98.1172 213.00
98.1824 233.00
98.2476 226.00
98.3128 204.00
98.378 217.00
98.4432 211.00
98.5084 213.00
98.5736 234.00
98.6388 216.00
98.704 235.00
98.7692 210.00
98.8344 210.00
98.8996 230.00
98.9648 217.00
99.03 206.00
99.0952 228.00
99.1604 224.00
99.2256 216.00
99.2908 218.00
99.356 203.00
99.4212 222.00
99.4864 212.00
99.5516 238.00
99.6168 226.00
99.682 192.00
99.7472 213.00
99.8124 197.00
99.8776 200.00
99.9428 197.00
100.008 216.00
100.073 234.00
100.095 234.00