File: data/xrd_creation/results/PG_2648-1.xy
9.903433 3091.00
9.968632 3067.00
10.0338 2943.00
10.099 2920.00
10.1642 2921.00
10.2294 2954.00
10.2946 2928.00
10.3598 2904.00
10.425 2891.00
10.4902 2846.00
10.5554 2789.00
10.6206 2828.00
10.6858 2755.00
10.751 2769.00
10.8162 2747.00
10.8814 2692.00
10.9466 2749.00
11.0118 2825.00
11.077 2709.00
11.1422 2740.00
11.2074 2618.00
11.2726 2682.00
11.3378 2691.00
11.403 2648.00
11.4682 2644.00
11.5334 2578.00
11.5986 2651.00
11.6638 2613.00
11.729 2612.00
11.7942 2505.00
11.8594 2622.00
11.9246 2481.00
11.9898 2442.00
12.055 2481.00
12.1202 2475.00
12.1854 2473.00
12.2506 2546.00
12.3158 2491.00
12.381 2402.00
12.4462 2432.00
12.5114 2393.00
12.5766 2353.00
12.6418 2375.00
12.707 2393.00
12.7722 2446.00
12.8374 2367.00
12.9026 2406.00
12.9678 2339.00
13.033 2329.00
13.0982 2327.00
13.1634 2325.00
13.2286 2410.00
13.2938 2311.00
13.359 2290.00
13.4242 2299.00
13.4894 2385.00
13.5546 2295.00
13.6198 2315.00
13.685 2186.00
13.7502 2268.00
13.8154 2308.00
13.8805 2226.00
13.9457 2301.00
14.0109 2347.00
14.0761 2273.00
14.1413 2346.00
14.2065 2235.00
14.2717 2275.00
14.3369 2143.00
14.4021 2381.00
14.4673 2240.00
14.5325 2259.00
14.5977 2253.00
14.6629 2271.00
14.7281 2247.00
14.7933 2298.00
14.8585 2306.00
14.9237 2295.00
14.9889 2259.00
15.0541 2223.00
15.1193 2258.00
15.1845 2188.00
15.2497 2140.00
15.3149 2247.00
15.3801 2263.00
15.4453 2360.00
15.5105 2482.00
15.5757 2548.00
15.6409 2844.00
15.7061 3387.00
15.7713 3581.00
15.8365 2615.00
15.9017 2365.00
15.9669 2265.00
16.0321 2226.00
16.0973 2184.00
16.1625 2172.00
16.2277 2154.00
16.2929 2181.00
16.3581 2200.00
16.4233 2204.00
16.4885 2112.00
16.5537 2090.00
16.6189 2093.00
16.6841 2097.00
16.7493 2089.00
16.8145 2111.00
16.8797 2175.00
16.9449 2129.00
17.0101 2163.00
17.0753 2111.00
17.1405 2138.00
17.2057 2140.00
17.2709 2132.00
17.3361 2189.00
17.4013 2151.00
17.4665 2123.00
17.5317 2099.00
17.5969 2091.00
17.6621 2033.00
17.7273 2115.00
17.7925 2038.00
17.8577 2109.00
17.9229 2062.00
17.9881 2050.00
18.0533 2197.00
18.1185 2209.00
18.1837 2139.00
18.2489 2188.00
18.3141 2297.00
18.3793 2262.00
18.4445 2290.00
18.5097 2106.00
18.5749 2056.00
18.6401 2072.00
18.7052 2151.00
18.7704 2029.00
18.8356 2049.00
18.9008 1981.00
18.966 1941.00
19.0312 1979.00
19.0964 1968.00
19.1616 1987.00
19.2268 2067.00
19.292 2005.00
19.3572 2038.00
19.4224 2088.00
19.4876 1957.00
19.5528 2041.00
19.618 1962.00
19.6832 1969.00
19.7484 2042.00
19.8136 2048.00
19.8788 1916.00
19.944 2020.00
20.0092 2020.00
20.0744 2023.00
20.1396 1987.00
20.2048 2141.00
20.27 2182.00
20.3352 2266.00
20.4004 2598.00
20.4656 3078.00
20.5308 3997.00
20.596 6063.00
20.6612 7661.00
20.7264 5681.00
20.7916 3121.00
20.8568 2412.00
20.922 2215.00
20.9872 2174.00
21.0524 2116.00
21.1176 1980.00
21.1828 1995.00
21.248 2003.00
21.3132 1998.00
21.3784 1967.00
21.4436 1951.00
21.5088 1985.00
21.574 1921.00
21.6392 1986.00
21.7044 2069.00
21.7696 2071.00
21.8348 2101.00
21.9 2279.00
21.9652 2489.00
22.0304 3188.00
22.0956 3522.00
22.1608 2918.00
22.226 2249.00
22.2912 2010.00
22.3564 1960.00
22.4216 1977.00
22.4868 1953.00
22.552 1898.00
22.6172 1872.00
22.6824 1931.00
22.7476 1909.00
22.8128 1900.00
22.878 1866.00
22.9432 1827.00
23.0084 1945.00
23.0736 1787.00
23.1388 1864.00
23.204 1872.00
23.2692 1927.00
23.3344 1888.00
23.3996 1816.00
23.4647 1885.00
23.5299 1874.00
23.5951 1844.00
23.6603 1806.00
23.7255 1802.00
23.7907 1832.00
23.8559 1734.00
23.9211 1862.00
23.9863 1839.00
24.0515 1806.00
24.1167 1910.00
24.1819 1894.00
24.2471 1792.00
24.3123 1860.00
24.3775 1785.00
24.4427 1706.00
24.5079 1766.00
24.5731 1838.00
24.6383 1793.00
24.7035 1835.00
24.7687 1800.00
24.8339 1773.00
24.8991 1720.00
24.9643 1727.00
25.0295 1916.00
25.0947 1731.00
25.1599 1758.00
25.2251 1733.00
25.2903 1824.00
25.3555 1806.00
25.4207 1783.00
25.4859 1809.00
25.5511 1825.00
25.6163 1794.00
25.6815 1846.00
25.7467 1776.00
25.8119 1899.00
25.8771 1962.00
25.9423 1963.00
26.0075 1918.00
26.0727 1841.00
26.1379 1883.00
26.2031 1887.00
26.2683 1936.00
26.3335 2187.00
26.3987 2919.00
26.4639 4431.00
26.5291 5457.00
26.5943 3651.00
26.6595 2148.00
26.7247 1858.00
26.7899 1804.00
26.8551 1769.00
26.9203 1744.00
26.9855 1809.00
27.0507 1745.00
27.1159 1765.00
27.1811 1800.00
27.2463 1797.00
27.3115 1831.00
27.3767 1878.00
27.4419 1785.00
27.5071 1851.00
27.5723 1915.00
27.6375 1925.00
27.7027 1895.00
27.7679 1956.00
27.8331 2076.00
27.8983 2216.00
27.9635 2050.00
28.0287 2017.00
28.0939 1915.00
28.1591 1885.00
28.2243 1881.00
28.2894 1910.00
28.3546 1856.00
28.4198 1841.00
28.485 1891.00
28.5502 1905.00
28.6154 1842.00
28.6806 1849.00
28.7458 1887.00
28.811 1788.00
28.8762 1918.00
28.9414 1886.00
29.0066 1896.00
29.0718 1957.00
29.137 2063.00
29.2022 2122.00
29.2674 1991.00
29.3326 2094.00
29.3978 2036.00
29.463 1990.00
29.5282 1917.00
29.5934 1862.00
29.6586 1807.00
29.7238 1817.00
29.789 1703.00
29.8542 1766.00
29.9194 1746.00
29.9846 1766.00
30.0498 1717.00
30.115 1693.00
30.1802 1666.00
30.2454 1806.00
30.3106 1688.00
30.3758 1770.00
30.441 1752.00
30.5062 1668.00
30.5714 1691.00
30.6366 1667.00
30.7018 1717.00
30.767 1739.00
30.8322 1687.00
30.8974 1717.00
30.9626 1832.00
31.0278 1796.00
31.093 1816.00
31.1582 2008.00
31.2234 2485.00
31.2886 3545.00
31.3538 4472.00
31.419 4516.00
31.4842 3274.00
31.5494 2263.00
31.6146 1891.00
31.6798 1801.00
31.745 1694.00
31.8102 1719.00
31.8754 1733.00
31.9406 1799.00
32.0058 1736.00
32.071 1728.00
32.1362 1689.00
32.2014 1785.00
32.2666 1757.00
32.3318 1809.00
32.397 1901.00
32.4622 1937.00
32.5274 2067.00
32.5926 2336.00
32.6578 2891.00
32.723 3593.00
32.7882 3311.00
32.8534 2623.00
32.9186 2096.00
32.9838 2044.00
33.0489 1875.00
33.1141 1816.00
33.1793 1758.00
33.2445 1752.00
33.3097 1748.00
33.3749 1621.00
33.4401 1715.00
33.5053 1688.00
33.5705 1826.00
33.6357 2024.00
33.7009 2079.00
33.7661 1890.00
33.8313 1749.00
33.8965 1732.00
33.9617 1692.00
34.0269 1697.00
34.0921 1709.00
34.1573 1732.00
34.2225 1716.00
34.2877 1699.00
34.3529 1700.00
34.4181 1751.00
34.4833 1833.00
34.5485 2013.00
34.6137 2687.00
34.6789 3123.00
34.7441 2526.00
34.8093 1974.00
34.8745 1720.00
34.9397 1653.00
35.0049 1799.00
35.0701 1848.00
35.1353 2211.00
35.2005 3074.00
35.2657 4416.00
35.3309 4134.00
35.3961 3023.00
35.4613 2136.00
35.5265 1803.00
35.5917 1731.00
35.6569 1706.00
35.7221 1708.00
35.7873 1680.00
35.8525 1764.00
35.9177 1769.00
35.9829 1714.00
36.0481 1849.00
36.1133 1875.00
36.1785 1946.00
36.2437 2103.00
36.3089 2198.00
36.3741 2309.00
36.4393 2313.00
36.5045 2215.00
36.5697 2114.00
36.6349 2063.00
36.7001 1959.00
36.7653 1954.00
36.8305 1961.00
36.8957 1822.00
36.9609 1741.00
37.0261 1762.00
37.0913 1698.00
37.1565 1668.00
37.2217 1634.00
37.2869 1624.00
37.3521 1663.00
37.4173 1676.00
37.4825 1528.00
37.5477 1595.00
37.6129 1581.00
37.6781 1720.00
37.7433 1719.00
37.8085 1627.00
37.8736 1662.00
37.9388 1622.00
38.004 1582.00
38.0692 1583.00
38.1344 1572.00
38.1996 1609.00
38.2648 1613.00
38.33 1635.00
38.3952 1605.00
38.4604 1617.00
38.5256 1624.00
38.5908 1485.00
38.656 1628.00
38.7212 1578.00
38.7864 1687.00
38.8516 1564.00
38.9168 1614.00
38.982 1620.00
39.0472 1572.00
39.1124 1567.00
39.1776 1501.00
39.2428 1585.00
39.308 1544.00
39.3732 1480.00
39.4384 1482.00
39.5036 1562.00
39.5688 1530.00
39.634 1568.00
39.6992 1528.00
39.7644 1506.00
39.8296 1598.00
39.8948 1540.00
39.96 1603.00
40.0252 1561.00
40.0904 1495.00
40.1556 1528.00
40.2208 1590.00
40.286 1677.00
40.3512 1599.00
40.4164 1697.00
40.4816 1658.00
40.5468 1820.00
40.612 1853.00
40.6772 2065.00
40.7424 2613.00
40.8076 3817.00
40.8728 5412.00
40.938 5587.00
41.0032 4566.00
41.0684 3033.00
41.1336 2137.00
41.1988 1845.00
41.264 1747.00
41.3292 1732.00
41.3944 1732.00
41.4596 1781.00
41.5248 2079.00
41.59 2241.00
41.6552 2283.00
41.7204 2070.00
41.7856 1790.00
41.8508 1693.00
41.916 1600.00
41.9812 1639.00
42.0464 1538.00
42.1116 1558.00
42.1768 1587.00
42.242 1658.00
42.3072 1718.00
42.3724 1911.00
42.4376 1786.00
42.5028 1777.00
42.568 1622.00
42.6332 1572.00
42.6983 1616.00
42.7635 1558.00
42.8287 1511.00
42.8939 1544.00
42.9591 1545.00
43.0243 1505.00
43.0895 1462.00
43.1547 1504.00
43.2199 1530.00
43.2851 1516.00
43.3503 1470.00
43.4155 1528.00
43.4807 1489.00
43.5459 1499.00
43.6111 1509.00
43.6763 1530.00
43.7415 1518.00
43.8067 1497.00
43.8719 1484.00
43.9371 1443.00
44.0023 1490.00
44.0675 1537.00
44.1327 1547.00
44.1979 1506.00
44.2631 1487.00
44.3283 1483.00
44.3935 1516.00
44.4587 1601.00
44.5239 1632.00
44.5891 1612.00
44.6543 1628.00
44.7195 1587.00
44.7847 1662.00
44.8499 1549.00
44.9151 1597.00
44.9803 1598.00
45.0455 1605.00
45.1107 1552.00
45.1759 1444.00
45.2411 1478.00
45.3063 1556.00
45.3715 1591.00
45.4367 1563.00
45.5019 1448.00
45.5671 1507.00
45.6323 1512.00
45.6975 1657.00
45.7627 1949.00
45.8279 2117.00
45.8931 1911.00
45.9583 1754.00
46.0235 1650.00
46.0887 1562.00
46.1539 1486.00
46.2191 1521.00
46.2843 1598.00
46.3495 1495.00
46.4147 1485.00
46.4799 1517.00
46.5451 1503.00
46.6103 1483.00
46.6755 1516.00
46.7407 1517.00
46.8059 1574.00
46.8711 1498.00
46.9363 1532.00
47.0015 1467.00
47.0667 1459.00
47.1319 1495.00
47.1971 1509.00
47.2623 1466.00
47.3275 1452.00
47.3927 1570.00
47.4579 1535.00
47.523 1555.00
47.5882 1816.00
47.6534 2392.00
47.7186 2208.00
47.7838 2022.00
47.849 1783.00
47.9142 1680.00
47.9794 1596.00
48.0446 1641.00
48.1098 1826.00
48.175 2020.00
48.2402 1949.00
48.3054 1870.00
48.3706 1751.00
48.4358 1531.00
48.501 1554.00
48.5662 1544.00
48.6314 1499.00
48.6966 1547.00
48.7618 1491.00
48.827 1491.00
48.8922 1476.00
48.9574 1490.00
49.0226 1581.00
49.0878 1794.00
49.153 2041.00
49.2182 1909.00
49.2834 1816.00
49.3486 1670.00
49.4138 1561.00
49.479 1532.00
49.5442 1605.00
49.6094 1527.00
49.6746 1583.00
49.7398 1482.00
49.805 1503.00
49.8702 1577.00
49.9354 1576.00
50.0006 1573.00
50.0658 1469.00
50.131 1524.00
50.1962 1483.00
50.2614 1493.00
50.3266 1490.00
50.3918 1531.00
50.457 1469.00
50.5222 1482.00
50.5874 1449.00
50.6526 1504.00
50.7178 1597.00
50.783 1544.00
50.8482 1560.00
50.9134 1550.00
50.9786 1533.00
51.0438 1580.00
51.109 1514.00
51.1742 1569.00
51.2394 1591.00
51.3046 1591.00
51.3698 1671.00
51.435 1713.00
51.5002 2194.00
51.5654 2548.00
51.6306 2056.00
51.6958 2012.00
51.761 1732.00
51.8262 1685.00
51.8914 1618.00
51.9566 1654.00
52.0218 1583.00
52.087 1486.00
52.1522 1518.00
52.2174 1591.00
52.2826 1834.00
52.3477 1965.00
52.4129 1705.00
52.4781 1689.00
52.5433 1605.00
52.6085 1488.00
52.6737 1517.00
52.7389 1543.00
52.8041 1521.00
52.8693 1547.00
52.9345 1535.00
52.9997 1541.00
53.0649 1493.00
53.1301 1483.00
53.1953 1540.00
53.2605 1427.00
53.3257 1467.00
53.3909 1451.00
53.4561 1415.00
53.5213 1467.00
53.5865 1453.00
53.6517 1494.00
53.7169 1505.00
53.7821 1442.00
53.8473 1539.00
53.9125 1500.00
53.9777 1460.00
54.0429 1537.00
54.1081 1676.00
54.1733 1553.00
54.2385 1581.00
54.3037 1545.00
54.3689 1547.00
54.4341 1512.00
54.4993 1520.00
54.5645 1474.00
54.6297 1469.00
54.6949 1409.00
54.7601 1557.00
54.8253 1455.00
54.8905 1470.00
54.9557 1473.00
55.0209 1399.00
55.0861 1460.00
55.1513 1492.00
55.2165 1433.00
55.2817 1456.00
55.3469 1473.00
55.4121 1476.00
55.4773 1450.00
55.5425 1432.00
55.6077 1477.00
55.6729 1471.00
55.7381 1559.00
55.8033 1523.00
55.8685 1640.00
55.9337 1764.00
55.9989 1821.00
56.0641 1725.00
56.1293 1632.00
56.1945 1582.00
56.2597 1476.00
56.3249 1495.00
56.3901 1518.00
56.4553 1542.00
56.5205 1596.00
56.5857 1610.00
56.6509 1652.00
56.7161 1582.00
56.7813 1514.00
56.8465 1520.00
56.9117 1467.00
56.9769 1453.00
57.042 1497.00
57.1073 1477.00
57.1724 1531.00
57.2376 1485.00
57.3028 1438.00
57.368 1532.00
57.4332 1487.00
57.4984 1457.00
57.5636 1421.00
57.6288 1471.00
57.694 1461.00
57.7592 1467.00
57.8244 1529.00
57.8896 1498.00
57.9548 1517.00
58.02 1461.00
58.0852 1464.00
58.1504 1477.00
58.2156 1519.00
58.2808 1548.00
58.346 1539.00
58.4112 1607.00
58.4764 1623.00
58.5416 1643.00
58.6068 1723.00
58.672 1780.00
58.7372 1865.00
58.8024 2054.00
58.8676 2403.00
58.9328 2896.00
58.998 3537.00
59.0632 3387.00
59.1284 2862.00
59.1936 2625.00
59.2588 2404.00
59.324 2217.00
59.3892 1993.00
59.4544 1893.00
59.5196 1819.00
59.5848 1726.00
59.65 1664.00
59.7152 1697.00
59.7804 1597.00
59.8456 1658.00
59.9108 1601.00
59.976 1706.00
60.0412 1699.00
60.1064 1769.00
60.1716 1727.00
60.2368 1790.00
60.302 1765.00
60.3672 1779.00
60.4324 1781.00
60.4976 1684.00
60.5628 1706.00
60.628 1597.00
60.6932 1650.00
60.7584 1562.00
60.8236 1579.00
60.8888 1651.00
60.954 1547.00
61.0192 1543.00
61.0844 1474.00
61.1496 1479.00
61.2148 1491.00
61.28 1559.00
61.3452 1828.00
61.4104 2076.00
61.4756 1726.00
61.5408 1756.00
61.606 1786.00
61.6712 1552.00
61.7364 1551.00
61.8016 1523.00
61.8667 1428.00
61.932 1503.00
61.9971 1431.00
62.0623 1513.00
62.1275 1461.00
62.1927 1571.00
62.2579 1554.00
62.3231 1756.00
62.3883 1944.00
62.4535 1914.00
62.5187 1742.00
62.5839 1827.00
62.6491 1622.00
62.7143 1492.00
62.7795 1484.00
62.8447 1545.00
62.9099 1436.00
62.9751 1339.00
63.0403 1406.00
63.1055 1433.00
63.1707 1395.00
63.2359 1399.00
63.3011 1398.00
63.3663 1436.00
63.4315 1387.00
63.4967 1467.00
63.5619 1469.00
63.6271 1393.00
63.6923 1426.00
63.7575 1364.00
63.8227 1446.00
63.8879 1483.00
63.9531 1427.00
64.0183 1393.00
64.0835 1557.00
64.1487 1495.00
64.2139 1498.00
64.2791 1422.00
64.3443 1517.00
64.4095 1481.00
64.4747 1501.00
64.5399 1543.00
64.6051 1597.00
64.6703 1600.00
64.7355 1646.00
64.8007 1618.00
64.8659 1700.00
64.9311 1727.00
64.9963 1613.00
65.0615 1591.00
65.1267 1560.00
65.1919 1619.00
65.2571 1564.00
65.3223 1485.00
65.3875 1540.00
65.4527 1542.00
65.5179 1501.00
65.5831 1491.00
65.6483 1504.00
65.7135 1455.00
65.7787 1470.00
65.8439 1469.00
65.9091 1452.00
65.9743 1454.00
66.0395 1473.00
66.1047 1398.00
66.1699 1442.00
66.2351 1427.00
66.3003 1565.00
66.3655 1626.00
66.4307 1577.00
66.4959 1504.00
66.561 1433.00
66.6263 1477.00
66.6915 1456.00
66.7566 1412.00
66.8218 1316.00
66.887 1411.00
66.9522 1412.00
67.0174 1400.00
67.0826 1431.00
67.1478 1352.00
67.213 1370.00
67.2782 1420.00
67.3434 1433.00
67.4086 1377.00
67.4738 1460.00
67.539 1363.00
67.6042 1438.00
67.6694 1443.00
67.7346 1401.00
67.7998 1447.00
67.865 1496.00
67.9302 1388.00
67.9954 1466.00
68.0606 1510.00
68.1258 1574.00
68.191 1509.00
68.2562 1512.00
68.3214 1513.00
68.3866 1484.00
68.4518 1430.00
68.517 1459.00
68.5822 1499.00
68.6474 1515.00
68.7126 1570.00
68.7778 1566.00
68.843 1488.00
68.9082 1505.00
68.9734 1461.00
69.0386 1525.00
69.1038 1615.00
69.169 1631.00
69.2342 1532.00
69.2994 1541.00
69.3646 1583.00
69.4298 1508.00
69.495 1534.00
69.5602 1450.00
69.6254 1506.00
69.6906 1467.00
69.7558 1508.00
69.821 1548.00
69.8862 1534.00
69.9514 1662.00
70.0166 1614.00
70.0818 1599.00
70.147 1624.00
70.2122 1616.00
70.2774 1706.00
70.3426 1821.00
70.4078 1981.00
70.473 2202.00
70.5382 2028.00
70.6034 1913.00
70.6686 1897.00
70.7338 1800.00
70.799 1643.00
70.8642 1617.00
70.9294 1575.00
70.9946 1479.00
71.0598 1496.00
71.125 1548.00
71.1902 1433.00
71.2554 1392.00
71.3205 1479.00
71.3858 1479.00
71.451 1398.00
71.5162 1413.00
71.5813 1449.00
71.6465 1338.00
71.7117 1446.00
71.7769 1443.00
71.8421 1431.00
71.9073 1443.00
71.9725 1460.00
72.0377 1556.00
72.1029 1618.00
72.1681 1471.00
72.2333 1518.00
72.2985 1549.00
72.3637 1495.00
72.4289 1546.00
72.4941 1496.00
72.5593 1768.00
72.6245 1778.00
72.6897 1640.00
72.7549 1615.00
72.8201 1640.00
72.8853 1581.00
72.9505 1594.00
73.0157 1669.00
73.0809 1633.00
73.1461 1542.00
73.2113 1588.00
73.2765 1518.00
73.3417 1487.00
73.4069 1494.00
73.4721 1456.00
73.5373 1391.00
73.6025 1427.00
73.6677 1475.00
73.7329 1498.00
73.7981 1495.00
73.8633 1527.00
73.9285 1712.00
73.9937 1719.00
74.0589 1829.00
74.1241 1795.00
74.1893 1749.00
74.2545 1692.00
74.3197 1697.00
74.3849 1627.00
74.4501 1492.00
74.5153 1513.00
74.5805 1576.00
74.6457 1514.00
74.7109 1587.00
74.7761 1682.00
74.8413 1616.00
74.9065 1577.00
74.9717 1578.00
75.0369 1625.00
75.1021 1522.00
75.1673 1522.00
75.2325 1437.00
75.2977 1438.00
75.3629 1453.00
75.4281 1408.00
75.4933 1411.00
75.5585 1388.00
75.6237 1474.00
75.6889 1434.00
75.7541 1438.00
75.8193 1441.00
75.8845 1446.00
75.9497 1408.00
76.0149 1350.00
76.0801 1424.00
76.1452 1454.00
76.2104 1558.00
76.2756 1609.00
76.3409 1540.00
76.406 1485.00
76.4712 1442.00
76.5364 1490.00
76.6016 1496.00
76.6668 1465.00
76.732 1467.00
76.7972 1439.00
76.8624 1432.00
76.9276 1416.00
76.9928 1436.00
77.058 1413.00
77.1232 1433.00
77.1884 1480.00
77.2536 1466.00
77.3188 1397.00
77.384 1383.00
77.4492 1392.00
77.5144 1549.00
77.5796 1457.00
77.6448 1477.00
77.71 1491.00
77.7752 1488.00
77.8404 1433.00
77.9056 1498.00
77.9708 1467.00
78.036 1472.00
78.1012 1441.00
78.1664 1443.00
78.2316 1507.00
78.2968 1478.00
78.362 1472.00
78.4272 1551.00
78.4924 1652.00
78.5576 1546.00
78.6228 1452.00
78.688 1476.00
78.7532 1455.00
78.8184 1489.00
78.8836 1382.00
78.9488 1420.00
79.014 1449.00
79.0792 1385.00
79.1444 1372.00
79.2096 1398.00
79.2748 1385.00
79.34 1399.00
79.4052 1371.00
79.4704 1361.00
79.5356 1440.00
79.6008 1374.00
79.666 1396.00
79.7312 1416.00
79.7964 1364.00
79.8616 1372.00
79.9268 1405.00
79.992 1434.00
80.0572 1427.00
80.1224 1366.00
80.1876 1460.00
80.2528 1421.00
80.318 1373.00
80.3832 1363.00
80.4484 1399.00
80.5136 1403.00
80.5788 1364.00
80.644 1454.00
80.7092 1399.00
80.7744 1414.00
80.8396 1457.00
80.9048 1455.00
80.9699 1401.00
81.0351 1412.00
81.1003 1420.00
81.1655 1365.00
81.2307 1434.00
81.2959 1406.00
81.3611 1405.00
81.4263 1423.00
81.4915 1442.00
81.5567 1493.00
81.6219 1473.00
81.6871 1441.00
81.7523 1374.00
81.8175 1386.00
81.8827 1426.00
81.9479 1419.00
82.0131 1384.00
82.0783 1369.00
82.1435 1394.00
82.2087 1413.00
82.2739 1440.00
82.3391 1407.00
82.4043 1363.00
82.4695 1358.00
82.5347 1377.00
82.5999 1414.00
82.6651 1443.00
82.7303 1376.00
82.7955 1459.00
82.8607 1403.00
82.9259 1372.00
82.9911 1525.00
83.0563 1469.00
83.1215 1488.00
83.1867 1410.00
83.2519 1437.00
83.3171 1424.00
83.3823 1467.00
83.4475 1449.00
83.5127 1386.00
83.5779 1458.00
83.6431 1425.00
83.7083 1415.00
83.7735 1369.00
83.8387 1386.00
83.9039 1401.00
83.9691 1387.00
84.0343 1387.00
84.0995 1422.00
84.1647 1389.00
84.2299 1410.00
84.2951 1398.00
84.3603 1469.00
84.4255 1476.00
84.4907 1487.00
84.5559 1488.00
84.6211 1461.00
84.6863 1397.00
84.7515 1392.00
84.8167 1403.00
84.8819 1467.00
84.9471 1416.00
85.0123 1429.00
85.0775 1437.00
85.1427 1438.00
85.2079 1459.00
85.2731 1419.00
85.3383 1433.00
85.4035 1441.00
85.4687 1455.00
85.5339 1402.00
85.5991 1464.00
85.6643 1481.00
85.7295 1417.00
85.7946 1524.00
85.8598 1467.00
85.925 1404.00
85.9903 1496.00
86.0554 1384.00
86.1206 1366.00
86.1858 1427.00
86.251 1447.00
86.3162 1473.00
86.3814 1400.00
86.4466 1425.00
86.5118 1428.00
86.577 1471.00
86.6422 1488.00
86.7074 1435.00
86.7726 1503.00
86.8378 1543.00
86.903 1516.00
86.9682 1530.00
87.0334 1456.00
87.0986 1493.00
87.1638 1470.00
87.229 1417.00
87.2942 1445.00
87.3594 1401.00
87.4246 1424.00
87.4898 1454.00
87.555 1449.00
87.6202 1502.00
87.6854 1474.00
87.7506 1460.00
87.8158 1464.00
87.881 1450.00
87.9462 1556.00
88.0114 1512.00
88.0766 1616.00
88.1418 1573.00
88.207 1518.00
88.2722 1549.00
88.3374 1435.00
88.4026 1469.00
88.4678 1448.00
88.533 1449.00
88.5982 1419.00
88.6634 1455.00
88.7286 1569.00
88.7938 1497.00
88.859 1455.00
88.9242 1560.00
88.9894 1460.00
89.0546 1519.00
89.1198 1421.00
89.185 1455.00
89.2502 1450.00
89.3154 1422.00
89.3806 1383.00
89.4458 1475.00
89.511 1415.00
89.5762 1395.00
89.6414 1356.00
89.7066 1470.00
89.7718 1472.00
89.837 1437.00
89.9022 1424.00
89.9674 1372.00
90.0326 1432.00
90.0978 1416.00
90.163 1484.00
90.2282 1439.00
90.2934 1423.00
90.3586 1481.00
90.4238 1406.00
90.489 1498.00
90.5542 1417.00
90.6193 1462.00
90.6845 1428.00
90.7497 1474.00
90.8149 1513.00
90.8801 1436.00
90.9453 1544.00
91.0105 1547.00
91.0757 1483.00
91.1409 1453.00
91.2061 1440.00
91.2713 1511.00
91.3365 1468.00
91.4017 1435.00
91.4669 1496.00
91.5321 1476.00
91.5973 1430.00
91.6625 1385.00
91.7277 1459.00
91.7929 1364.00
91.8581 1396.00
91.9233 1425.00
91.9885 1396.00
92.0537 1344.00
92.1189 1380.00
92.1841 1453.00
92.2493 1444.00
92.3145 1429.00
92.3797 1468.00
92.4449 1410.00
92.5101 1390.00
92.5753 1382.00
92.6405 1389.00
92.7057 1407.00
92.7709 1393.00
92.8361 1423.00
92.9013 1404.00
92.9665 1402.00
93.0317 1405.00
93.0969 1496.00
93.1621 1439.00
93.2273 1524.00
93.2925 1456.00
93.3577 1425.00
93.4229 1483.00
93.4881 1391.00
93.5533 1523.00
93.6185 1506.00
93.6837 1518.00
93.7489 1567.00
93.8141 1559.00
93.8793 1459.00
93.9445 1446.00
94.0097 1463.00
94.0749 1504.00
94.1401 1430.00
94.2053 1488.00
94.2705 1380.00
94.3357 1453.00
94.4009 1475.00
94.4661 1459.00
94.5313 1430.00
94.5965 1499.00
94.6617 1379.00
94.7269 1433.00
94.7921 1481.00
94.8573 1408.00
94.9225 1427.00
94.9877 1421.00
95.0529 1413.00
95.1181 1430.00
95.1833 1431.00
95.2485 1381.00
95.3137 1495.00
95.3789 1499.00
95.444 1480.00
95.5092 1442.00
95.5744 1402.00
95.6396 1427.00
95.7048 1502.00
95.77 1461.00
95.8352 1463.00
95.9004 1441.00
95.9656 1456.00
96.0308 1345.00
96.096 1315.00
96.1612 1383.00
96.2264 1449.00
96.2916 1400.00
96.3568 1377.00
96.422 1440.00
96.4872 1322.00
96.5524 1380.00
96.6176 1427.00
96.6828 1455.00
96.748 1400.00
96.8132 1417.00
96.8784 1395.00
96.9436 1418.00
97.0088 1343.00
97.074 1437.00
97.1392 1446.00
97.2044 1417.00
97.2696 1468.00
97.3348 1472.00
97.4 1441.00
97.4652 1442.00
97.5304 1464.00
97.5956 1373.00
97.6608 1498.00
97.726 1407.00
97.7912 1455.00
97.8564 1468.00
97.9216 1482.00
97.9868 1425.00
98.052 1516.00
98.1172 1545.00
98.1824 1484.00
98.2476 1555.00
98.3128 1572.00
98.378 1607.00
98.4432 1503.00
98.5084 1579.00
98.5736 1642.00
98.6388 1436.00
98.704 1583.00
98.7692 1532.00
98.8344 1464.00
98.8996 1530.00
98.9648 1464.00
99.03 1469.00
99.0952 1487.00
99.1604 1455.00
99.2256 1467.00
99.2908 1434.00
99.356 1450.00
99.4212 1416.00
99.4864 1486.00
99.5516 1423.00
99.6168 1515.00
99.682 1425.00
99.7472 1537.00
99.8124 1442.00
99.8776 1509.00
99.9428 1507.00
100.008 1352.00
100.073 1436.00
100.095 1438.00