File: data/xrd_creation/results/PG_2546-1.xy
9.903433 2451.00
9.968632 2404.00
10.0338 2581.00
10.099 2454.00
10.1642 2383.00
10.2294 2451.00
10.2946 2296.00
10.3598 2312.00
10.425 2344.00
10.4902 2317.00
10.5554 2366.00
10.6206 2301.00
10.6858 2237.00
10.751 2242.00
10.8162 2160.00
10.8814 2189.00
10.9466 2099.00
11.0118 2234.00
11.077 2061.00
11.1422 2094.00
11.2074 2062.00
11.2726 2070.00
11.3378 2030.00
11.403 2065.00
11.4682 1977.00
11.5334 2010.00
11.5986 1986.00
11.6638 2053.00
11.729 2002.00
11.7942 1984.00
11.8594 1926.00
11.9246 1862.00
11.9898 1840.00
12.055 1827.00
12.1202 1856.00
12.1854 1785.00
12.2506 1885.00
12.3158 1868.00
12.381 1786.00
12.4462 1718.00
12.5114 1784.00
12.5766 1711.00
12.6418 1757.00
12.707 1760.00
12.7722 1819.00
12.8374 1714.00
12.9026 1724.00
12.9678 1814.00
13.033 1671.00
13.0982 1766.00
13.1634 1778.00
13.2286 1709.00
13.2938 1609.00
13.359 1602.00
13.4242 1688.00
13.4894 1610.00
13.5546 1596.00
13.6198 1569.00
13.685 1531.00
13.7502 1576.00
13.8154 1544.00
13.8805 1531.00
13.9457 1446.00
14.0109 1601.00
14.0761 1547.00
14.1413 1484.00
14.2065 1555.00
14.2717 1490.00
14.3369 1477.00
14.4021 1584.00
14.4673 1479.00
14.5325 1453.00
14.5977 1493.00
14.6629 1409.00
14.7281 1518.00
14.7933 1450.00
14.8585 1484.00
14.9237 1474.00
14.9889 1493.00
15.0541 1455.00
15.1193 1513.00
15.1845 1388.00
15.2497 1432.00
15.3149 1440.00
15.3801 1409.00
15.4453 1384.00
15.5105 1453.00
15.5757 1414.00
15.6409 1369.00
15.7061 1338.00
15.7713 1408.00
15.8365 1417.00
15.9017 1434.00
15.9669 1385.00
16.0321 1356.00
16.0973 1326.00
16.1625 1467.00
16.2277 1338.00
16.2929 1343.00
16.3581 1351.00
16.4233 1364.00
16.4885 1328.00
16.5537 1351.00
16.6189 1355.00
16.6841 1326.00
16.7493 1260.00
16.8145 1367.00
16.8797 1359.00
16.9449 1329.00
17.0101 1366.00
17.0753 1343.00
17.1405 1235.00
17.2057 1287.00
17.2709 1250.00
17.3361 1256.00
17.4013 1245.00
17.4665 1291.00
17.5317 1227.00
17.5969 1217.00
17.6621 1138.00
17.7273 1270.00
17.7925 1247.00
17.8577 1234.00
17.9229 1250.00
17.9881 1182.00
18.0533 1228.00
18.1185 1209.00
18.1837 1213.00
18.2489 1216.00
18.3141 1153.00
18.3793 1181.00
18.4445 1218.00
18.5097 1230.00
18.5749 1187.00
18.6401 1130.00
18.7052 1243.00
18.7704 1151.00
18.8356 1193.00
18.9008 1205.00
18.966 1277.00
19.0312 1230.00
19.0964 1440.00
19.1616 1545.00
19.2268 1822.00
19.292 1891.00
19.3572 2577.00
19.4224 3186.00
19.4876 2748.00
19.5528 1637.00
19.618 1176.00
19.6832 1134.00
19.7484 1168.00
19.8136 1111.00
19.8788 1081.00
19.944 1061.00
20.0092 1096.00
20.0744 1042.00
20.1396 1092.00
20.2048 1079.00
20.27 1052.00
20.3352 1107.00
20.4004 1028.00
20.4656 1032.00
20.5308 988.00
20.596 1006.00
20.6612 983.00
20.7264 1010.00
20.7916 1064.00
20.8568 1040.00
20.922 1059.00
20.9872 1126.00
21.0524 1075.00
21.1176 1153.00
21.1828 1243.00
21.248 1383.00
21.3132 1593.00
21.3784 1746.00
21.4436 2278.00
21.5088 2939.00
21.574 3610.00
21.6392 2291.00
21.7044 1187.00
21.7696 1031.00
21.8348 992.00
21.9 1047.00
21.9652 1012.00
22.0304 895.00
22.0956 978.00
22.1608 951.00
22.226 946.00
22.2912 929.00
22.3564 946.00
22.4216 1019.00
22.4868 914.00
22.552 946.00
22.6172 925.00
22.6824 905.00
22.7476 886.00
22.8128 886.00
22.878 930.00
22.9432 908.00
23.0084 879.00
23.0736 877.00
23.1388 879.00
23.204 814.00
23.2692 888.00
23.3344 884.00
23.3996 893.00
23.4647 842.00
23.5299 907.00
23.5951 878.00
23.6603 904.00
23.7255 928.00
23.7907 952.00
23.8559 1066.00
23.9211 1168.00
23.9863 1373.00
24.0515 1603.00
24.1167 1986.00
24.1819 2606.00
24.2471 3828.00
24.3123 4901.00
24.3775 2958.00
24.4427 1366.00
24.5079 946.00
24.5731 811.00
24.6383 896.00
24.7035 869.00
24.7687 804.00
24.8339 809.00
24.8991 863.00
24.9643 851.00
25.0295 848.00
25.0947 806.00
25.1599 808.00
25.2251 828.00
25.2903 790.00
25.3555 782.00
25.4207 787.00
25.4859 779.00
25.5511 798.00
25.6163 819.00
25.6815 824.00
25.7467 857.00
25.8119 853.00
25.8771 820.00
25.9423 733.00
26.0075 740.00
26.0727 749.00
26.1379 741.00
26.2031 724.00
26.2683 736.00
26.3335 746.00
26.3987 738.00
26.4639 761.00
26.5291 758.00
26.5943 701.00
26.6595 705.00
26.7247 710.00
26.7899 716.00
26.8551 753.00
26.9203 718.00
26.9855 732.00
27.0507 664.00
27.1159 701.00
27.1811 685.00
27.2463 650.00
27.3115 693.00
27.3767 716.00
27.4419 656.00
27.5071 701.00
27.5723 644.00
27.6375 624.00
27.7027 743.00
27.7679 630.00
27.8331 641.00
27.8983 645.00
27.9635 622.00
28.0287 665.00
28.0939 702.00
28.1591 697.00
28.2243 638.00
28.2894 617.00
28.3546 621.00
28.4198 658.00
28.485 649.00
28.5502 600.00
28.6154 598.00
28.6806 626.00
28.7458 693.00
28.811 635.00
28.8762 612.00
28.9414 612.00
29.0066 632.00
29.0718 622.00
29.137 589.00
29.2022 663.00
29.2674 664.00
29.3326 641.00
29.3978 637.00
29.463 600.00
29.5282 639.00
29.5934 624.00
29.6586 624.00
29.7238 573.00
29.789 563.00
29.8542 572.00
29.9194 624.00
29.9846 591.00
30.0498 586.00
30.115 541.00
30.1802 556.00
30.2454 586.00
30.3106 575.00
30.3758 569.00
30.441 601.00
30.5062 517.00
30.5714 538.00
30.6366 549.00
30.7018 580.00
30.767 544.00
30.8322 535.00
30.8974 573.00
30.9626 552.00
31.0278 535.00
31.093 539.00
31.1582 531.00
31.2234 571.00
31.2886 557.00
31.3538 571.00
31.419 526.00
31.4842 541.00
31.5494 548.00
31.6146 525.00
31.6798 534.00
31.745 527.00
31.8102 544.00
31.8754 530.00
31.9406 563.00
32.0058 597.00
32.071 561.00
32.1362 570.00
32.2014 569.00
32.2666 569.00
32.3318 627.00
32.397 636.00
32.4622 635.00
32.5274 640.00
32.5926 686.00
32.6578 757.00
32.723 933.00
32.7882 1183.00
32.8534 1577.00
32.9186 2296.00
32.9838 3262.00
33.0489 5128.00
33.1141 8864.00
33.1793 12172.00
33.2445 7416.00
33.3097 3261.00
33.3749 1163.00
33.4401 827.00
33.5053 694.00
33.5705 656.00
33.6357 612.00
33.7009 531.00
33.7661 580.00
33.8313 527.00
33.8965 534.00
33.9617 549.00
34.0269 569.00
34.0921 527.00
34.1573 501.00
34.2225 509.00
34.2877 487.00
34.3529 492.00
34.4181 506.00
34.4833 519.00
34.5485 519.00
34.6137 547.00
34.6789 532.00
34.7441 494.00
34.8093 516.00
34.8745 527.00
34.9397 503.00
35.0049 552.00
35.0701 523.00
35.1353 511.00
35.2005 537.00
35.2657 569.00
35.3309 719.00
35.3961 842.00
35.4613 960.00
35.5265 1379.00
35.5917 1967.00
35.6569 2914.00
35.7221 5070.00
35.7873 6589.00
35.8525 4070.00
35.9177 2031.00
35.9829 795.00
36.0481 659.00
36.1133 605.00
36.1785 531.00
36.2437 488.00
36.3089 491.00
36.3741 469.00
36.4393 502.00
36.5045 445.00
36.5697 468.00
36.6349 463.00
36.7001 421.00
36.7653 449.00
36.8305 522.00
36.8957 478.00
36.9609 435.00
37.0261 418.00
37.0913 482.00
37.1565 433.00
37.2217 446.00
37.2869 449.00
37.3521 429.00
37.4173 443.00
37.4825 402.00
37.5477 421.00
37.6129 417.00
37.6781 436.00
37.7433 409.00
37.8085 454.00
37.8736 422.00
37.9388 412.00
38.004 391.00
38.0692 402.00
38.1344 360.00
38.1996 400.00
38.2648 448.00
38.33 443.00
38.3952 447.00
38.4604 420.00
38.5256 484.00
38.5908 519.00
38.656 449.00
38.7212 408.00
38.7864 429.00
38.8516 357.00
38.9168 401.00
38.982 382.00
39.0472 444.00
39.1124 417.00
39.1776 419.00
39.2428 407.00
39.308 412.00
39.3732 377.00
39.4384 414.00
39.5036 430.00
39.5688 414.00
39.634 445.00
39.6992 394.00
39.7644 419.00
39.8296 432.00
39.8948 382.00
39.96 422.00
40.0252 453.00
40.0904 398.00
40.1556 412.00
40.2208 385.00
40.286 438.00
40.3512 474.00
40.4164 503.00
40.4816 600.00
40.5468 770.00
40.612 1034.00
40.6772 1550.00
40.7424 2214.00
40.8076 3709.00
40.8728 6630.00
40.938 7377.00
41.0032 4317.00
41.0684 2214.00
41.1336 728.00
41.1988 529.00
41.264 535.00
41.3292 449.00
41.3944 440.00
41.4596 433.00
41.5248 391.00
41.59 391.00
41.6552 372.00
41.7204 378.00
41.7856 387.00
41.8508 376.00
41.916 398.00
41.9812 454.00
42.0464 385.00
42.1116 402.00
42.1768 360.00
42.242 367.00
42.3072 344.00
42.3724 351.00
42.4376 390.00
42.5028 352.00
42.568 358.00
42.6332 348.00
42.6983 344.00
42.7635 321.00
42.8287 352.00
42.8939 327.00
42.9591 359.00
43.0243 354.00
43.0895 378.00
43.1547 404.00
43.2199 363.00
43.2851 344.00
43.3503 332.00
43.4155 379.00
43.4807 382.00
43.5459 413.00
43.6111 428.00
43.6763 396.00
43.7415 330.00
43.8067 347.00
43.8719 342.00
43.9371 333.00
44.0023 322.00
44.0675 333.00
44.1327 321.00
44.1979 303.00
44.2631 321.00
44.3283 318.00
44.3935 336.00
44.4587 328.00
44.5239 354.00
44.5891 327.00
44.6543 363.00
44.7195 346.00
44.7847 342.00
44.8499 312.00
44.9151 326.00
44.9803 359.00
45.0455 332.00
45.1107 322.00
45.1759 322.00
45.2411 331.00
45.3063 332.00
45.3715 309.00
45.4367 339.00
45.5019 308.00
45.5671 335.00
45.6323 336.00
45.6975 301.00
45.7627 338.00
45.8279 305.00
45.8931 305.00
45.9583 314.00
46.0235 297.00
46.0887 302.00
46.1539 282.00
46.2191 310.00
46.2843 290.00
46.3495 341.00
46.4147 313.00
46.4799 308.00
46.5451 296.00
46.6103 291.00
46.6755 323.00
46.7407 292.00
46.8059 264.00
46.8711 311.00
46.9363 308.00
47.0015 309.00
47.0667 291.00
47.1319 266.00
47.1971 306.00
47.2623 293.00
47.3275 241.00
47.3927 293.00
47.4579 317.00
47.523 305.00
47.5882 315.00
47.6534 297.00
47.7186 337.00
47.7838 301.00
47.849 301.00
47.9142 318.00
47.9794 309.00
48.0446 318.00
48.1098 311.00
48.175 322.00
48.2402 279.00
48.3054 332.00
48.3706 313.00
48.4358 319.00
48.501 309.00
48.5662 326.00
48.6314 343.00
48.6966 325.00
48.7618 338.00
48.827 378.00
48.8922 372.00
48.9574 434.00
49.0226 539.00
49.0878 602.00
49.153 841.00
49.2182 1250.00
49.2834 1872.00
49.3486 3149.00
49.4138 5317.00
49.479 3739.00
49.5442 2847.00
49.6094 1599.00
49.6746 592.00
49.7398 461.00
49.805 374.00
49.8702 350.00
49.9354 324.00
50.0006 310.00
50.0658 315.00
50.131 282.00
50.1962 337.00
50.2614 319.00
50.3266 321.00
50.3918 301.00
50.457 302.00
50.5222 365.00
50.5874 376.00
50.6526 504.00
50.7178 516.00
50.783 392.00
50.8482 356.00
50.9134 305.00
50.9786 319.00
51.0438 258.00
51.109 284.00
51.1742 269.00
51.2394 292.00
51.3046 283.00
51.3698 293.00
51.435 264.00
51.5002 284.00
51.5654 246.00
51.6306 313.00
51.6958 279.00
51.761 266.00
51.8262 276.00
51.8914 309.00
51.9566 284.00
52.0218 309.00
52.087 330.00
52.1522 314.00
52.2174 283.00
52.2826 293.00
52.3477 319.00
52.4129 333.00
52.4781 312.00
52.5433 321.00
52.6085 299.00
52.6737 284.00
52.7389 276.00
52.8041 304.00
52.8693 307.00
52.9345 327.00
52.9997 301.00
53.0649 283.00
53.1301 275.00
53.1953 325.00
53.2605 307.00
53.3257 337.00
53.3909 442.00
53.4561 472.00
53.5213 621.00
53.5865 854.00
53.6517 1343.00
53.7169 2028.00
53.7821 3159.00
53.8473 6107.00
53.9125 6876.00
53.9777 3770.00
54.0429 3622.00
54.1081 1364.00
54.1733 644.00
54.2385 499.00
54.3037 444.00
54.3689 343.00
54.4341 332.00
54.4993 269.00
54.5645 290.00
54.6297 305.00
54.6949 298.00
54.7601 283.00
54.8253 285.00
54.8905 289.00
54.9557 250.00
55.0209 278.00
55.0861 278.00
55.1513 310.00
55.2165 249.00
55.2817 281.00
55.3469 287.00
55.4121 280.00
55.4773 261.00
55.5425 257.00
55.6077 295.00
55.6729 290.00
55.7381 299.00
55.8033 319.00
55.8685 330.00
55.9337 291.00
55.9989 298.00
56.0641 390.00
56.1293 565.00
56.1945 656.00
56.2597 454.00
56.3249 430.00
56.3901 340.00
56.4553 295.00
56.5205 285.00
56.5857 270.00
56.6509 275.00
56.7161 265.00
56.7813 269.00
56.8465 305.00
56.9117 320.00
56.9769 406.00
57.042 466.00
57.1073 669.00
57.1724 976.00
57.2376 1466.00
57.3028 1090.00
57.368 976.00
57.4332 1044.00
57.4984 562.00
57.5636 400.00
57.6288 386.00
57.694 320.00
57.7592 303.00
57.8244 285.00
57.8896 250.00
57.9548 272.00
58.02 241.00
58.0852 246.00
58.1504 224.00
58.2156 260.00
58.2808 233.00
58.346 246.00
58.4112 231.00
58.4764 213.00
58.5416 244.00
58.6068 239.00
58.672 219.00
58.7372 278.00
58.8024 224.00
58.8676 261.00
58.9328 289.00
58.998 268.00
59.0632 250.00
59.1284 270.00
59.1936 228.00
59.2588 235.00
59.324 239.00
59.3892 256.00
59.4544 259.00
59.5196 238.00
59.5848 239.00
59.65 232.00
59.7152 261.00
59.7804 265.00
59.8456 258.00
59.9108 258.00
59.976 259.00
60.0412 241.00
60.1064 267.00
60.1716 234.00
60.2368 269.00
60.302 233.00
60.3672 227.00
60.4324 270.00
60.4976 261.00
60.5628 224.00
60.628 244.00
60.6932 278.00
60.7584 282.00
60.8236 228.00
60.8888 244.00
60.954 244.00
61.0192 224.00
61.0844 224.00
61.1496 250.00
61.2148 260.00
61.28 229.00
61.3452 234.00
61.4104 261.00
61.4756 259.00
61.5408 274.00
61.606 282.00
61.6712 275.00
61.7364 331.00
61.8016 315.00
61.8667 382.00
61.932 370.00
61.9971 470.00
62.0623 635.00
62.1275 919.00
62.1927 1377.00
62.2579 2477.00
62.3231 4177.00
62.3883 2696.00
62.4535 1948.00
62.5187 2061.00
62.5839 815.00
62.6491 488.00
62.7143 396.00
62.7795 326.00
62.8447 306.00
62.9099 285.00
62.9751 317.00
63.0403 276.00
63.1055 257.00
63.1707 333.00
63.2359 337.00
63.3011 425.00
63.3663 491.00
63.4315 647.00
63.4967 512.00
63.5619 514.00
63.6271 672.00
63.6923 694.00
63.7575 978.00
63.8227 1471.00
63.8879 2568.00
63.9531 4626.00
64.0183 3591.00
64.0835 2074.00
64.1487 2551.00
64.2139 1273.00
64.2791 539.00
64.3443 399.00
64.4095 339.00
64.4747 316.00
64.5399 289.00
64.6051 278.00
64.6703 238.00
64.7355 241.00
64.8007 211.00
64.8659 264.00
64.9311 272.00
64.9963 236.00
65.0615 208.00
65.1267 249.00
65.1919 241.00
65.2571 223.00
65.3223 213.00
65.3875 234.00
65.4527 216.00
65.5179 225.00
65.5831 231.00
65.6483 257.00
65.7135 237.00
65.7787 270.00
65.8439 339.00
65.9091 262.00
65.9743 272.00
66.0395 280.00
66.1047 263.00
66.1699 227.00
66.2351 214.00
66.3003 233.00
66.3655 203.00
66.4307 249.00
66.4959 214.00
66.561 209.00
66.6263 218.00
66.6915 214.00
66.7566 224.00
66.8218 259.00
66.887 262.00
66.9522 225.00
67.0174 256.00
67.0826 203.00
67.1478 242.00
67.213 279.00
67.2782 282.00
67.3434 320.00
67.4086 498.00
67.4738 492.00
67.539 327.00
67.6042 361.00
67.6694 332.00
67.7346 267.00
67.7998 221.00
67.865 220.00
67.9302 212.00
67.9954 200.00
68.0606 196.00
68.1258 231.00
68.191 202.00
68.2562 234.00
68.3214 229.00
68.3866 212.00
68.4518 215.00
68.517 222.00
68.5822 232.00
68.6474 220.00
68.7126 210.00
68.7778 223.00
68.843 243.00
68.9082 227.00
68.9734 270.00
69.0386 284.00
69.1038 334.00
69.169 529.00
69.2342 439.00
69.2994 334.00
69.3646 361.00
69.4298 326.00
69.495 266.00
69.5602 232.00
69.6254 218.00
69.6906 185.00
69.7558 213.00
69.821 207.00
69.8862 204.00
69.9514 208.00
70.0166 201.00
70.0818 214.00
70.147 199.00
70.2122 178.00
70.2774 198.00
70.3426 200.00
70.4078 212.00
70.473 215.00
70.5382 230.00
70.6034 221.00
70.6686 218.00
70.7338 201.00
70.799 224.00
70.8642 234.00
70.9294 233.00
70.9946 289.00
71.0598 326.00
71.125 470.00
71.1902 547.00
71.2554 844.00
71.3205 1354.00
71.3858 1355.00
71.451 707.00
71.5162 812.00
71.5813 896.00
71.6465 574.00
71.7117 593.00
71.7769 781.00
71.8421 542.00
71.9073 489.00
71.9725 467.00
72.0377 349.00
72.1029 292.00
72.1681 222.00
72.2333 219.00
72.2985 213.00
72.3637 203.00
72.4289 195.00
72.4941 206.00
72.5593 221.00
72.6245 179.00
72.6897 187.00
72.7549 214.00
72.8201 236.00
72.8853 206.00
72.9505 202.00
73.0157 228.00
73.0809 209.00
73.1461 183.00
73.2113 210.00
73.2765 211.00
73.3417 199.00
73.4069 194.00
73.4721 222.00
73.5373 201.00
73.6025 232.00
73.6677 189.00
73.7329 203.00
73.7981 191.00
73.8633 201.00
73.9285 215.00
73.9937 192.00
74.0589 203.00
74.1241 194.00
74.1893 200.00
74.2545 235.00
74.3197 216.00
74.3849 187.00
74.4501 214.00
74.5153 232.00
74.5805 213.00
74.6457 259.00
74.7109 267.00
74.7761 351.00
74.8413 464.00
74.9065 332.00
74.9717 311.00
75.0369 347.00
75.1021 373.00
75.1673 397.00
75.2325 506.00
75.2977 719.00
75.3629 887.00
75.4281 494.00
75.4933 481.00
75.5585 550.00
75.6237 390.00
75.6889 236.00
75.7541 217.00
75.8193 210.00
75.8845 175.00
75.9497 206.00
76.0149 197.00
76.0801 196.00
76.1452 223.00
76.2104 210.00
76.2756 166.00
76.3409 205.00
76.406 187.00
76.4712 193.00
76.5364 189.00
76.6016 199.00
76.6668 166.00
76.732 203.00
76.7972 210.00
76.8624 201.00
76.9276 186.00
76.9928 214.00
77.058 229.00
77.1232 183.00
77.1884 206.00
77.2536 230.00
77.3188 269.00
77.384 316.00
77.4492 350.00
77.5144 267.00
77.5796 234.00
77.6448 283.00
77.71 231.00
77.7752 194.00
77.8404 210.00
77.9056 198.00
77.9708 201.00
78.036 174.00
78.1012 202.00
78.1664 215.00
78.2316 211.00
78.2968 197.00
78.362 265.00
78.4272 316.00
78.4924 385.00
78.5576 488.00
78.6228 520.00
78.688 337.00
78.7532 301.00
78.8184 384.00
78.8836 308.00
78.9488 260.00
79.014 229.00
79.0792 228.00
79.1444 217.00
79.2096 269.00
79.2748 292.00
79.34 365.00
79.4052 263.00
79.4704 245.00
79.5356 272.00
79.6008 280.00
79.666 222.00
79.7312 211.00
79.7964 197.00
79.8616 196.00
79.9268 214.00
79.992 269.00
80.0572 335.00
80.1224 417.00
80.1876 571.00
80.2528 729.00
80.318 514.00
80.3832 595.00
80.4484 637.00
80.5136 422.00
80.5788 336.00
80.644 350.00
80.7092 278.00
80.7744 224.00
80.8396 196.00
80.9048 209.00
80.9699 195.00
81.0351 190.00
81.1003 176.00
81.1655 180.00
81.2307 175.00
81.2959 175.00
81.3611 205.00
81.4263 182.00
81.4915 185.00
81.5567 176.00
81.6219 193.00
81.6871 182.00
81.7523 173.00
81.8175 233.00
81.8827 200.00
81.9479 213.00
82.0131 202.00
82.0783 297.00
82.1435 377.00
82.2087 587.00
82.2739 785.00
82.3391 631.00
82.4043 386.00
82.4695 377.00
82.5347 480.00
82.5999 376.00
82.6651 226.00
82.7303 202.00
82.7955 193.00
82.8607 197.00
82.9259 197.00
82.9911 179.00
83.0563 185.00
83.1215 175.00
83.1867 197.00
83.2519 185.00
83.3171 194.00
83.3823 198.00
83.4475 186.00
83.5127 241.00
83.5779 225.00
83.6431 233.00
83.7083 199.00
83.7735 178.00
83.8387 214.00
83.9039 221.00
83.9691 176.00
84.0343 213.00
84.0995 199.00
84.1647 214.00
84.2299 217.00
84.2951 223.00
84.3603 270.00
84.4255 321.00
84.4907 364.00
84.5559 628.00
84.6211 932.00
84.6863 1089.00
84.7515 594.00
84.8167 423.00
84.8819 568.00
84.9471 608.00
85.0123 340.00
85.0775 229.00
85.1427 235.00
85.2079 196.00
85.2731 183.00
85.3383 193.00
85.4035 175.00
85.4687 184.00
85.5339 159.00
85.5991 167.00
85.6643 176.00
85.7295 196.00
85.7946 180.00
85.8598 186.00
85.925 173.00
85.9903 188.00
86.0554 186.00
86.1206 181.00
86.1858 176.00
86.251 157.00
86.3162 167.00
86.3814 170.00
86.4466 181.00
86.5118 182.00
86.577 202.00
86.6422 181.00
86.7074 194.00
86.7726 181.00
86.8378 188.00
86.903 183.00
86.9682 172.00
87.0334 175.00
87.0986 209.00
87.1638 171.00
87.229 202.00
87.2942 181.00
87.3594 194.00
87.4246 198.00
87.4898 167.00
87.555 184.00
87.6202 222.00
87.6854 199.00
87.7506 231.00
87.8158 277.00
87.881 321.00
87.9462 362.00
88.0114 523.00
88.0766 780.00
88.1418 1190.00
88.207 880.00
88.2722 472.00
88.3374 534.00
88.4026 642.00
88.4678 609.00
88.533 339.00
88.5982 249.00
88.6634 209.00
88.7286 207.00
88.7938 185.00
88.859 176.00
88.9242 153.00
88.9894 176.00
89.0546 205.00
89.1198 179.00
89.185 194.00
89.2502 184.00
89.3154 177.00
89.3806 179.00
89.4458 168.00
89.511 211.00
89.5762 205.00
89.6414 194.00
89.7066 237.00
89.7718 193.00
89.837 211.00
89.9022 207.00
89.9674 243.00
90.0326 216.00
90.0978 197.00
90.163 188.00
90.2282 218.00
90.2934 217.00
90.3586 182.00
90.4238 191.00
90.489 192.00
90.5542 193.00
90.6193 179.00
90.6845 173.00
90.7497 173.00
90.8149 191.00
90.8801 169.00
90.9453 216.00
91.0105 256.00
91.0757 308.00
91.1409 263.00
91.2061 217.00
91.2713 201.00
91.3365 258.00
91.4017 227.00
91.4669 191.00
91.5321 186.00
91.5973 175.00
91.6625 179.00
91.7277 174.00
91.7929 186.00
91.8581 150.00
91.9233 179.00
91.9885 176.00
92.0537 182.00
92.1189 174.00
92.1841 190.00
92.2493 182.00
92.3145 209.00
92.3797 219.00
92.4449 200.00
92.5101 221.00
92.5753 238.00
92.6405 249.00
92.7057 315.00
92.7709 449.00
92.8361 678.00
92.9013 1015.00
92.9665 1068.00
93.0317 556.00
93.0969 459.00
93.1621 534.00
93.2273 664.00
93.2925 489.00
93.3577 283.00
93.4229 263.00
93.4881 214.00
93.5533 208.00
93.6185 200.00
93.6837 195.00
93.7489 210.00
93.8141 187.00
93.8793 176.00
93.9445 202.00
94.0097 179.00
94.0749 206.00
94.1401 225.00
94.2053 268.00
94.2705 314.00
94.3357 188.00
94.4009 211.00
94.4661 219.00
94.5313 222.00
94.5965 216.00
94.6617 180.00
94.7269 181.00
94.7921 185.00
94.8573 192.00
94.9225 153.00
94.9877 187.00
95.0529 227.00
95.1181 250.00
95.1833 291.00
95.2485 352.00
95.3137 437.00
95.3789 331.00
95.444 257.00
95.5092 261.00
95.5744 341.00
95.6396 287.00
95.7048 220.00
95.77 206.00
95.8352 199.00
95.9004 212.00
95.9656 228.00
96.0308 207.00
96.096 215.00
96.1612 215.00
96.2264 228.00
96.2916 262.00
96.3568 221.00
96.422 189.00
96.4872 198.00
96.5524 216.00
96.6176 190.00
96.6828 187.00
96.748 200.00
96.8132 178.00
96.8784 194.00
96.9436 158.00
97.0088 175.00
97.074 168.00
97.1392 181.00
97.2044 154.00
97.2696 167.00
97.3348 151.00
97.4 170.00
97.4652 186.00
97.5304 170.00
97.5956 150.00
97.6608 177.00
97.726 222.00
97.7912 159.00
97.8564 189.00
97.9216 166.00
97.9868 166.00
98.052 188.00
98.1172 181.00
98.1824 171.00
98.2476 191.00
98.3128 160.00
98.378 162.00
98.4432 176.00
98.5084 199.00
98.5736 179.00
98.6388 178.00
98.704 203.00
98.7692 172.00
98.8344 193.00
98.8996 162.00
98.9648 180.00
99.03 153.00
99.0952 173.00
99.1604 172.00
99.2256 188.00
99.2908 178.00
99.356 155.00
99.4212 205.00
99.4864 211.00
99.5516 182.00
99.6168 172.00
99.682 177.00
99.7472 199.00
99.8124 142.00
99.8776 172.00
99.9428 171.00
100.008 161.00
100.073 197.00
100.095 189.00