File: data/xrd_creation/results/PG_2250-1.xy
9.903433 2574.00
9.968632 2598.00
10.0338 2565.00
10.099 2596.00
10.1642 2552.00
10.2294 2545.00
10.2946 2566.00
10.3598 2618.00
10.425 2554.00
10.4902 2453.00
10.5554 2367.00
10.6206 2331.00
10.6858 2443.00
10.751 2289.00
10.8162 2221.00
10.8814 2338.00
10.9466 2341.00
11.0118 2262.00
11.077 2319.00
11.1422 2315.00
11.2074 2186.00
11.2726 2201.00
11.3378 2113.00
11.403 2147.00
11.4682 2233.00
11.5334 2106.00
11.5986 2182.00
11.6638 2067.00
11.729 2105.00
11.7942 2021.00
11.8594 2025.00
11.9246 2050.00
11.9898 2001.00
12.055 2045.00
12.1202 1873.00
12.1854 1878.00
12.2506 1921.00
12.3158 1883.00
12.381 1890.00
12.4462 1886.00
12.5114 1829.00
12.5766 1850.00
12.6418 1753.00
12.707 1888.00
12.7722 1762.00
12.8374 1739.00
12.9026 1759.00
12.9678 1803.00
13.033 1777.00
13.0982 1697.00
13.1634 1818.00
13.2286 1695.00
13.2938 1689.00
13.359 1661.00
13.4242 1674.00
13.4894 1625.00
13.5546 1581.00
13.6198 1672.00
13.685 1593.00
13.7502 1572.00
13.8154 1647.00
13.8805 1547.00
13.9457 1537.00
14.0109 1623.00
14.0761 1510.00
14.1413 1575.00
14.2065 1601.00
14.2717 1529.00
14.3369 1535.00
14.4021 1570.00
14.4673 1525.00
14.5325 1550.00
14.5977 1548.00
14.6629 1493.00
14.7281 1522.00
14.7933 1432.00
14.8585 1499.00
14.9237 1515.00
14.9889 1418.00
15.0541 1437.00
15.1193 1452.00
15.1845 1477.00
15.2497 1417.00
15.3149 1512.00
15.3801 1552.00
15.4453 1424.00
15.5105 1473.00
15.5757 1489.00
15.6409 1409.00
15.7061 1455.00
15.7713 1366.00
15.8365 1362.00
15.9017 1400.00
15.9669 1433.00
16.0321 1391.00
16.0973 1371.00
16.1625 1375.00
16.2277 1309.00
16.2929 1319.00
16.3581 1288.00
16.4233 1309.00
16.4885 1333.00
16.5537 1341.00
16.6189 1407.00
16.6841 1302.00
16.7493 1290.00
16.8145 1304.00
16.8797 1263.00
16.9449 1295.00
17.0101 1319.00
17.0753 1304.00
17.1405 1321.00
17.2057 1316.00
17.2709 1259.00
17.3361 1270.00
17.4013 1360.00
17.4665 1247.00
17.5317 1218.00
17.5969 1218.00
17.6621 1263.00
17.7273 1220.00
17.7925 1187.00
17.8577 1264.00
17.9229 1223.00
17.9881 1219.00
18.0533 1270.00
18.1185 1167.00
18.1837 1283.00
18.2489 1294.00
18.3141 1248.00
18.3793 1215.00
18.4445 1231.00
18.5097 1227.00
18.5749 1171.00
18.6401 1177.00
18.7052 1182.00
18.7704 1161.00
18.8356 1205.00
18.9008 1182.00
18.966 1127.00
19.0312 1051.00
19.0964 1153.00
19.1616 1066.00
19.2268 1128.00
19.292 1113.00
19.3572 1178.00
19.4224 1137.00
19.4876 1099.00
19.5528 1070.00
19.618 1123.00
19.6832 1083.00
19.7484 1063.00
19.8136 1159.00
19.8788 1078.00
19.944 1071.00
20.0092 1074.00
20.0744 1086.00
20.1396 1204.00
20.2048 1223.00
20.27 1427.00
20.3352 1568.00
20.4004 1863.00
20.4656 1601.00
20.5308 1393.00
20.596 1192.00
20.6612 1150.00
20.7264 1086.00
20.7916 1049.00
20.8568 1041.00
20.922 987.00
20.9872 1083.00
21.0524 1036.00
21.1176 1101.00
21.1828 1131.00
21.248 1193.00
21.3132 1176.00
21.3784 1047.00
21.4436 1013.00
21.5088 983.00
21.574 1031.00
21.6392 976.00
21.7044 1008.00
21.7696 995.00
21.8348 984.00
21.9 963.00
21.9652 941.00
22.0304 924.00
22.0956 917.00
22.1608 942.00
22.226 923.00
22.2912 991.00
22.3564 1101.00
22.4216 1142.00
22.4868 1206.00
22.552 970.00
22.6172 954.00
22.6824 935.00
22.7476 906.00
22.8128 928.00
22.878 872.00
22.9432 882.00
23.0084 930.00
23.0736 929.00
23.1388 900.00
23.204 915.00
23.2692 905.00
23.3344 970.00
23.3996 923.00
23.4647 885.00
23.5299 928.00
23.5951 866.00
23.6603 869.00
23.7255 938.00
23.7907 839.00
23.8559 842.00
23.9211 865.00
23.9863 928.00
24.0515 923.00
24.1167 896.00
24.1819 873.00
24.2471 796.00
24.3123 800.00
24.3775 853.00
24.4427 876.00
24.5079 909.00
24.5731 884.00
24.6383 872.00
24.7035 786.00
24.7687 766.00
24.8339 798.00
24.8991 834.00
24.9643 814.00
25.0295 817.00
25.0947 868.00
25.1599 873.00
25.2251 898.00
25.2903 789.00
25.3555 795.00
25.4207 860.00
25.4859 799.00
25.5511 801.00
25.6163 822.00
25.6815 763.00
25.7467 866.00
25.8119 816.00
25.8771 768.00
25.9423 826.00
26.0075 733.00
26.0727 776.00
26.1379 860.00
26.2031 839.00
26.2683 834.00
26.3335 867.00
26.3987 931.00
26.4639 814.00
26.5291 841.00
26.5943 749.00
26.6595 726.00
26.7247 779.00
26.7899 820.00
26.8551 736.00
26.9203 769.00
26.9855 804.00
27.0507 793.00
27.1159 752.00
27.1811 748.00
27.2463 816.00
27.3115 765.00
27.3767 750.00
27.4419 751.00
27.5071 787.00
27.5723 744.00
27.6375 832.00
27.7027 803.00
27.7679 857.00
27.8331 945.00
27.8983 837.00
27.9635 885.00
28.0287 938.00
28.0939 1014.00
28.1591 1176.00
28.2243 1214.00
28.2894 1079.00
28.3546 919.00
28.4198 889.00
28.485 887.00
28.5502 859.00
28.6154 877.00
28.6806 1050.00
28.7458 1179.00
28.811 1399.00
28.8762 1981.00
28.9414 3388.00
29.0066 5852.00
29.0718 6631.00
29.137 5286.00
29.2022 3266.00
29.2674 2063.00
29.3326 1371.00
29.3978 1064.00
29.463 955.00
29.5282 826.00
29.5934 818.00
29.6586 757.00
29.7238 757.00
29.789 748.00
29.8542 782.00
29.9194 767.00
29.9846 760.00
30.0498 756.00
30.115 757.00
30.1802 795.00
30.2454 747.00
30.3106 751.00
30.3758 717.00
30.441 831.00
30.5062 929.00
30.5714 829.00
30.6366 819.00
30.7018 769.00
30.767 720.00
30.8322 686.00
30.8974 689.00
30.9626 687.00
31.0278 744.00
31.093 655.00
31.1582 668.00
31.2234 679.00
31.2886 676.00
31.3538 732.00
31.419 789.00
31.4842 875.00
31.5494 914.00
31.6146 955.00
31.6798 903.00
31.745 832.00
31.8102 830.00
31.8754 752.00
31.9406 693.00
32.0058 639.00
32.071 687.00
32.1362 670.00
32.2014 647.00
32.2666 627.00
32.3318 631.00
32.397 669.00
32.4622 698.00
32.5274 694.00
32.5926 657.00
32.6578 681.00
32.723 619.00
32.7882 678.00
32.8534 610.00
32.9186 628.00
32.9838 630.00
33.0489 670.00
33.1141 698.00
33.1793 654.00
33.2445 637.00
33.3097 636.00
33.3749 676.00
33.4401 751.00
33.5053 794.00
33.5705 1117.00
33.6357 1642.00
33.7009 1952.00
33.7661 1735.00
33.8313 1340.00
33.8965 999.00
33.9617 802.00
34.0269 756.00
34.0921 701.00
34.1573 696.00
34.2225 697.00
34.2877 668.00
34.3529 678.00
34.4181 688.00
34.4833 678.00
34.5485 602.00
34.6137 557.00
34.6789 582.00
34.7441 647.00
34.8093 565.00
34.8745 613.00
34.9397 580.00
35.0049 557.00
35.0701 582.00
35.1353 608.00
35.2005 568.00
35.2657 680.00
35.3309 626.00
35.3961 616.00
35.4613 612.00
35.5265 605.00
35.5917 571.00
35.6569 575.00
35.7221 712.00
35.7873 832.00
35.8525 866.00
35.9177 812.00
35.9829 655.00
36.0481 642.00
36.1133 575.00
36.1785 594.00
36.2437 620.00
36.3089 555.00
36.3741 608.00
36.4393 644.00
36.5045 613.00
36.5697 561.00
36.6349 499.00
36.7001 575.00
36.7653 553.00
36.8305 627.00
36.8957 612.00
36.9609 572.00
37.0261 562.00
37.0913 480.00
37.1565 522.00
37.2217 513.00
37.2869 508.00
37.3521 493.00
37.4173 505.00
37.4825 541.00
37.5477 516.00
37.6129 482.00
37.6781 544.00
37.7433 561.00
37.8085 556.00
37.8736 543.00
37.9388 489.00
38.004 486.00
38.0692 504.00
38.1344 496.00
38.1996 497.00
38.2648 457.00
38.33 458.00
38.3952 469.00
38.4604 515.00
38.5256 504.00
38.5908 522.00
38.656 458.00
38.7212 490.00
38.7864 501.00
38.8516 480.00
38.9168 489.00
38.982 478.00
39.0472 488.00
39.1124 517.00
39.1776 483.00
39.2428 486.00
39.308 489.00
39.3732 496.00
39.4384 566.00
39.5036 502.00
39.5688 549.00
39.634 588.00
39.6992 665.00
39.7644 791.00
39.8296 791.00
39.8948 657.00
39.96 524.00
40.0252 521.00
40.0904 439.00
40.1556 501.00
40.2208 503.00
40.286 485.00
40.3512 454.00
40.4164 442.00
40.4816 467.00
40.5468 449.00
40.612 457.00
40.6772 494.00
40.7424 450.00
40.8076 441.00
40.8728 498.00
40.938 447.00
41.0032 470.00
41.0684 426.00
41.1336 422.00
41.1988 462.00
41.264 420.00
41.3292 455.00
41.3944 450.00
41.4596 460.00
41.5248 468.00
41.59 512.00
41.6552 416.00
41.7204 454.00
41.7856 507.00
41.8508 444.00
41.916 469.00
41.9812 401.00
42.0464 450.00
42.1116 447.00
42.1768 434.00
42.242 429.00
42.3072 417.00
42.3724 449.00
42.4376 426.00
42.5028 422.00
42.568 407.00
42.6332 456.00
42.6983 456.00
42.7635 436.00
42.8287 470.00
42.8939 453.00
42.9591 420.00
43.0243 398.00
43.0895 455.00
43.1547 448.00
43.2199 472.00
43.2851 620.00
43.3503 719.00
43.4155 804.00
43.4807 767.00
43.5459 645.00
43.6111 574.00
43.6763 560.00
43.7415 418.00
43.8067 440.00
43.8719 428.00
43.9371 439.00
44.0023 438.00
44.0675 404.00
44.1327 424.00
44.1979 415.00
44.2631 340.00
44.3283 429.00
44.3935 420.00
44.4587 406.00
44.5239 401.00
44.5891 429.00
44.6543 419.00
44.7195 402.00
44.7847 405.00
44.8499 415.00
44.9151 435.00
44.9803 441.00
45.0455 400.00
45.1107 435.00
45.1759 359.00
45.2411 433.00
45.3063 384.00
45.3715 385.00
45.4367 439.00
45.5019 383.00
45.5671 430.00
45.6323 414.00
45.6975 445.00
45.7627 419.00
45.8279 398.00
45.8931 403.00
45.9583 427.00
46.0235 431.00
46.0887 445.00
46.1539 430.00
46.2191 396.00
46.2843 416.00
46.3495 427.00
46.4147 380.00
46.4799 385.00
46.5451 400.00
46.6103 416.00
46.6755 401.00
46.7407 506.00
46.8059 507.00
46.8711 448.00
46.9363 468.00
47.0015 399.00
47.0667 398.00
47.1319 385.00
47.1971 411.00
47.2623 397.00
47.3275 408.00
47.3927 374.00
47.4579 382.00
47.523 354.00
47.5882 389.00
47.6534 418.00
47.7186 403.00
47.7838 413.00
47.849 410.00
47.9142 429.00
47.9794 449.00
48.0446 437.00
48.1098 436.00
48.175 458.00
48.2402 595.00
48.3054 891.00
48.3706 1598.00
48.4358 2235.00
48.501 2056.00
48.5662 1811.00
48.6314 1182.00
48.6966 776.00
48.7618 609.00
48.827 473.00
48.8922 466.00
48.9574 423.00
49.0226 427.00
49.0878 363.00
49.153 378.00
49.2182 431.00
49.2834 432.00
49.3486 396.00
49.4138 434.00
49.479 417.00
49.5442 407.00
49.6094 461.00
49.6746 403.00
49.7398 401.00
49.805 420.00
49.8702 387.00
49.9354 394.00
50.0006 467.00
50.0658 444.00
50.131 470.00
50.1962 449.00
50.2614 450.00
50.3266 417.00
50.3918 389.00
50.457 366.00
50.5222 359.00
50.5874 411.00
50.6526 410.00
50.7178 418.00
50.783 363.00
50.8482 418.00
50.9134 432.00
50.9786 379.00
51.0438 399.00
51.109 370.00
51.1742 354.00
51.2394 378.00
51.3046 381.00
51.3698 390.00
51.435 387.00
51.5002 364.00
51.5654 422.00
51.6306 433.00
51.6958 391.00
51.761 371.00
51.8262 400.00
51.8914 360.00
51.9566 339.00
52.0218 345.00
52.087 326.00
52.1522 379.00
52.2174 382.00
52.2826 360.00
52.3477 355.00
52.4129 367.00
52.4781 353.00
52.5433 356.00
52.6085 354.00
52.6737 310.00
52.7389 360.00
52.8041 391.00
52.8693 411.00
52.9345 334.00
52.9997 408.00
53.0649 502.00
53.1301 543.00
53.1953 564.00
53.2605 487.00
53.3257 453.00
53.3909 400.00
53.4561 379.00
53.5213 357.00
53.5865 350.00
53.6517 347.00
53.7169 327.00
53.7821 346.00
53.8473 320.00
53.9125 372.00
53.9777 323.00
54.0429 346.00
54.1081 371.00
54.1733 355.00
54.2385 355.00
54.3037 392.00
54.3689 374.00
54.4341 365.00
54.4993 402.00
54.5645 370.00
54.6297 404.00
54.6949 405.00
54.7601 397.00
54.8253 386.00
54.8905 404.00
54.9557 386.00
55.0209 381.00
55.0861 365.00
55.1513 371.00
55.2165 361.00
55.2817 371.00
55.3469 412.00
55.4121 346.00
55.4773 389.00
55.5425 358.00
55.6077 352.00
55.6729 366.00
55.7381 361.00
55.8033 316.00
55.8685 389.00
55.9337 393.00
55.9989 395.00
56.0641 493.00
56.1293 511.00
56.1945 498.00
56.2597 427.00
56.3249 394.00
56.3901 377.00
56.4553 358.00
56.5205 317.00
56.5857 328.00
56.6509 349.00
56.7161 335.00
56.7813 344.00
56.8465 316.00
56.9117 316.00
56.9769 362.00
57.042 318.00
57.1073 354.00
57.1724 367.00
57.2376 360.00
57.3028 451.00
57.368 485.00
57.4332 795.00
57.4984 1300.00
57.5636 1332.00
57.6288 1296.00
57.694 1031.00
57.7592 753.00
57.8244 522.00
57.8896 413.00
57.9548 375.00
58.02 370.00
58.0852 342.00
58.1504 332.00
58.2156 352.00
58.2808 341.00
58.346 362.00
58.4112 348.00
58.4764 301.00
58.5416 319.00
58.6068 307.00
58.672 322.00
58.7372 338.00
58.8024 376.00
58.8676 439.00
58.9328 517.00
58.998 488.00
59.0632 437.00
59.1284 429.00
59.1936 390.00
59.2588 336.00
59.324 379.00
59.3892 309.00
59.4544 323.00
59.5196 332.00
59.5848 313.00
59.65 325.00
59.7152 296.00
59.7804 281.00
59.8456 334.00
59.9108 322.00
59.976 312.00
60.0412 316.00
60.1064 326.00
60.1716 306.00
60.2368 350.00
60.302 464.00
60.3672 437.00
60.4324 404.00
60.4976 450.00
60.5628 386.00
60.628 362.00
60.6932 348.00
60.7584 310.00
60.8236 333.00
60.8888 315.00
60.954 301.00
61.0192 321.00
61.0844 292.00
61.1496 272.00
61.2148 288.00
61.28 299.00
61.3452 289.00
61.4104 302.00
61.4756 308.00
61.5408 299.00
61.606 343.00
61.6712 334.00
61.7364 384.00
61.8016 352.00
61.8667 349.00
61.932 343.00
61.9971 324.00
62.0623 306.00
62.1275 280.00
62.1927 299.00
62.2579 282.00
62.3231 306.00
62.3883 297.00
62.4535 293.00
62.5187 334.00
62.5839 294.00
62.6491 280.00
62.7143 292.00
62.7795 297.00
62.8447 307.00
62.9099 302.00
62.9751 341.00
63.0403 327.00
63.1055 338.00
63.1707 374.00
63.2359 303.00
63.3011 338.00
63.3663 299.00
63.4315 298.00
63.4967 323.00
63.5619 300.00
63.6271 281.00
63.6923 260.00
63.7575 293.00
63.8227 300.00
63.8879 286.00
63.9531 245.00
64.0183 274.00
64.0835 295.00
64.1487 262.00
64.2139 307.00
64.2791 355.00
64.3443 314.00
64.4095 383.00
64.4747 372.00
64.5399 344.00
64.6051 338.00
64.6703 327.00
64.7355 337.00
64.8007 321.00
64.8659 270.00
64.9311 310.00
64.9963 261.00
65.0615 303.00
65.1267 261.00
65.1919 292.00
65.2571 279.00
65.3223 281.00
65.3875 258.00
65.4527 275.00
65.5179 329.00
65.5831 261.00
65.6483 306.00
65.7135 337.00
65.7787 340.00
65.8439 330.00
65.9091 302.00
65.9743 316.00
66.0395 289.00
66.1047 279.00
66.1699 285.00
66.2351 264.00
66.3003 273.00
66.3655 305.00
66.4307 279.00
66.4959 297.00
66.561 273.00
66.6263 279.00
66.6915 227.00
66.7566 271.00
66.8218 274.00
66.887 276.00
66.9522 273.00
67.0174 275.00
67.0826 301.00
67.1478 305.00
67.213 250.00
67.2782 273.00
67.3434 299.00
67.4086 259.00
67.4738 256.00
67.539 260.00
67.6042 240.00
67.6694 261.00
67.7346 279.00
67.7998 237.00
67.865 242.00
67.9302 272.00
67.9954 293.00
68.0606 269.00
68.1258 302.00
68.191 257.00
68.2562 266.00
68.3214 264.00
68.3866 266.00
68.4518 276.00
68.517 318.00
68.5822 298.00
68.6474 272.00
68.7126 293.00
68.7778 231.00
68.843 273.00
68.9082 263.00
68.9734 262.00
69.0386 273.00
69.1038 289.00
69.169 239.00
69.2342 244.00
69.2994 247.00
69.3646 258.00
69.4298 275.00
69.495 282.00
69.5602 270.00
69.6254 307.00
69.6906 332.00
69.7558 282.00
69.821 333.00
69.8862 298.00
69.9514 307.00
70.0166 262.00
70.0818 268.00
70.147 281.00
70.2122 258.00
70.2774 263.00
70.3426 293.00
70.4078 242.00
70.473 289.00
70.5382 222.00
70.6034 277.00
70.6686 289.00
70.7338 277.00
70.799 311.00
70.8642 328.00
70.9294 402.00
70.9946 380.00
71.0598 383.00
71.125 368.00
71.1902 360.00
71.2554 321.00
71.3205 296.00
71.3858 259.00
71.451 246.00
71.5162 279.00
71.5813 268.00
71.6465 268.00
71.7117 243.00
71.7769 279.00
71.8421 295.00
71.9073 245.00
71.9725 262.00
72.0377 307.00
72.1029 281.00
72.1681 324.00
72.2333 373.00
72.2985 359.00
72.3637 370.00
72.4289 366.00
72.4941 329.00
72.5593 276.00
72.6245 280.00
72.6897 293.00
72.7549 302.00
72.8201 260.00
72.8853 249.00
72.9505 243.00
73.0157 292.00
73.0809 244.00
73.1461 242.00
73.2113 240.00
73.2765 292.00
73.3417 248.00
73.4069 270.00
73.4721 303.00
73.5373 335.00
73.6025 323.00
73.6677 278.00
73.7329 295.00
73.7981 281.00
73.8633 322.00
73.9285 280.00
73.9937 315.00
74.0589 269.00
74.1241 257.00
74.1893 260.00
74.2545 282.00
74.3197 293.00
74.3849 285.00
74.4501 288.00
74.5153 241.00
74.5805 268.00
74.6457 248.00
74.7109 295.00
74.7761 326.00
74.8413 315.00
74.9065 293.00
74.9717 279.00
75.0369 296.00
75.1021 288.00
75.1673 304.00
75.2325 268.00
75.2977 219.00
75.3629 274.00
75.4281 280.00
75.4933 258.00
75.5585 262.00
75.6237 241.00
75.6889 245.00
75.7541 286.00
75.8193 215.00
75.8845 269.00
75.9497 281.00
76.0149 314.00
76.0801 317.00
76.1452 289.00
76.2104 322.00
76.2756 289.00
76.3409 293.00
76.406 294.00
76.4712 293.00
76.5364 268.00
76.6016 276.00
76.6668 291.00
76.732 292.00
76.7972 264.00
76.8624 300.00
76.9276 284.00
76.9928 295.00
77.058 259.00
77.1232 301.00
77.1884 361.00
77.2536 353.00
77.3188 347.00
77.384 371.00
77.4492 300.00
77.5144 342.00
77.5796 320.00
77.6448 264.00
77.71 256.00
77.7752 287.00
77.8404 294.00
77.9056 276.00
77.9708 287.00
78.036 288.00
78.1012 309.00
78.1664 286.00
78.2316 292.00
78.2968 288.00
78.362 296.00
78.4272 394.00
78.4924 469.00
78.5576 450.00
78.6228 457.00
78.688 389.00
78.7532 431.00
78.8184 392.00
78.8836 338.00
78.9488 294.00
79.014 324.00
79.0792 317.00
79.1444 287.00
79.2096 316.00
79.2748 306.00
79.34 328.00
79.4052 271.00
79.4704 272.00
79.5356 291.00
79.6008 285.00
79.666 265.00
79.7312 281.00
79.7964 299.00
79.8616 284.00
79.9268 289.00
79.992 297.00
80.0572 305.00
80.1224 269.00
80.1876 290.00
80.2528 296.00
80.318 275.00
80.3832 298.00
80.4484 266.00
80.5136 299.00
80.5788 281.00
80.644 297.00
80.7092 302.00
80.7744 282.00
80.8396 346.00
80.9048 371.00
80.9699 408.00
81.0351 396.00
81.1003 352.00
81.1655 353.00
81.2307 382.00
81.2959 317.00
81.3611 272.00
81.4263 299.00
81.4915 261.00
81.5567 248.00
81.6219 287.00
81.6871 312.00
81.7523 259.00
81.8175 265.00
81.8827 314.00
81.9479 277.00
82.0131 295.00
82.0783 302.00
82.1435 306.00
82.2087 301.00
82.2739 297.00
82.3391 330.00
82.4043 296.00
82.4695 265.00
82.5347 288.00
82.5999 275.00
82.6651 258.00
82.7303 296.00
82.7955 292.00
82.8607 234.00
82.9259 247.00
82.9911 283.00
83.0563 302.00
83.1215 281.00
83.1867 305.00
83.2519 296.00
83.3171 312.00
83.3823 308.00
83.4475 304.00
83.5127 327.00
83.5779 323.00
83.6431 295.00
83.7083 325.00
83.7735 314.00
83.8387 277.00
83.9039 257.00
83.9691 263.00
84.0343 249.00
84.0995 259.00
84.1647 268.00
84.2299 291.00
84.2951 282.00
84.3603 309.00
84.4255 263.00
84.4907 278.00
84.5559 311.00
84.6211 334.00
84.6863 335.00
84.7515 272.00
84.8167 298.00
84.8819 313.00
84.9471 313.00
85.0123 275.00
85.0775 289.00
85.1427 292.00
85.2079 250.00
85.2731 249.00
85.3383 247.00
85.4035 276.00
85.4687 248.00
85.5339 282.00
85.5991 275.00
85.6643 245.00
85.7295 272.00
85.7946 258.00
85.8598 289.00
85.925 271.00
85.9903 262.00
86.0554 228.00
86.1206 274.00
86.1858 248.00
86.251 275.00
86.3162 277.00
86.3814 280.00
86.4466 240.00
86.5118 231.00
86.577 242.00
86.6422 272.00
86.7074 266.00
86.7726 273.00
86.8378 284.00
86.903 276.00
86.9682 292.00
87.0334 314.00
87.0986 274.00
87.1638 332.00
87.229 276.00
87.2942 304.00
87.3594 265.00
87.4246 288.00
87.4898 274.00
87.555 232.00
87.6202 257.00
87.6854 266.00
87.7506 278.00
87.8158 259.00
87.881 270.00
87.9462 235.00
88.0114 246.00
88.0766 231.00
88.1418 222.00
88.207 266.00
88.2722 234.00
88.3374 260.00
88.4026 275.00
88.4678 241.00
88.533 233.00
88.5982 297.00
88.6634 229.00
88.7286 227.00
88.7938 234.00
88.859 270.00
88.9242 260.00
88.9894 226.00
89.0546 265.00
89.1198 241.00
89.185 249.00
89.2502 285.00
89.3154 287.00
89.3806 312.00
89.4458 282.00
89.511 313.00
89.5762 285.00
89.6414 286.00
89.7066 248.00
89.7718 275.00
89.837 266.00
89.9022 245.00
89.9674 265.00
90.0326 272.00
90.0978 219.00
90.163 245.00
90.2282 238.00
90.2934 264.00
90.3586 244.00
90.4238 232.00
90.489 266.00
90.5542 303.00
90.6193 329.00
90.6845 359.00
90.7497 388.00
90.8149 340.00
90.8801 318.00
90.9453 346.00
91.0105 307.00
91.0757 312.00
91.1409 241.00
91.2061 261.00
91.2713 263.00
91.3365 257.00
91.4017 219.00
91.4669 224.00
91.5321 214.00
91.5973 228.00
91.6625 230.00
91.7277 237.00
91.7929 315.00
91.8581 313.00
91.9233 302.00
91.9885 289.00
92.0537 243.00
92.1189 262.00
92.1841 250.00
92.2493 257.00
92.3145 259.00
92.3797 250.00
92.4449 288.00
92.5101 224.00
92.5753 224.00
92.6405 250.00
92.7057 226.00
92.7709 276.00
92.8361 236.00
92.9013 239.00
92.9665 216.00
93.0317 238.00
93.0969 276.00
93.1621 271.00
93.2273 264.00
93.2925 279.00
93.3577 257.00
93.4229 236.00
93.4881 256.00
93.5533 240.00
93.6185 259.00
93.6837 236.00
93.7489 251.00
93.8141 261.00
93.8793 219.00
93.9445 223.00
94.0097 226.00
94.0749 226.00
94.1401 246.00
94.2053 215.00
94.2705 225.00
94.3357 237.00
94.4009 240.00
94.4661 234.00
94.5313 242.00
94.5965 287.00
94.6617 235.00
94.7269 246.00
94.7921 257.00
94.8573 256.00
94.9225 235.00
94.9877 228.00
95.0529 260.00
95.1181 228.00
95.1833 239.00
95.2485 265.00
95.3137 263.00
95.3789 226.00
95.444 276.00
95.5092 329.00
95.5744 290.00
95.6396 302.00
95.7048 287.00
95.77 269.00
95.8352 250.00
95.9004 283.00
95.9656 269.00
96.0308 257.00
96.096 290.00
96.1612 225.00
96.2264 229.00
96.2916 227.00
96.3568 240.00
96.422 239.00
96.4872 274.00
96.5524 238.00
96.6176 235.00
96.6828 231.00
96.748 258.00
96.8132 274.00
96.8784 236.00
96.9436 228.00
97.0088 226.00
97.074 239.00
97.1392 248.00
97.2044 235.00
97.2696 187.00
97.3348 240.00
97.4 291.00
97.4652 258.00
97.5304 248.00
97.5956 262.00
97.6608 244.00
97.726 268.00
97.7912 286.00
97.8564 270.00
97.9216 348.00
97.9868 383.00
98.052 327.00
98.1172 280.00
98.1824 284.00
98.2476 299.00
98.3128 299.00
98.378 270.00
98.4432 264.00
98.5084 217.00
98.5736 247.00
98.6388 227.00
98.704 239.00
98.7692 266.00
98.8344 226.00
98.8996 238.00
98.9648 257.00
99.03 230.00
99.0952 258.00
99.1604 329.00
99.2256 298.00
99.2908 262.00
99.356 260.00
99.4212 295.00
99.4864 283.00
99.5516 286.00
99.6168 287.00
99.682 257.00
99.7472 214.00
99.8124 207.00
99.8776 221.00
99.9428 257.00
100.008 267.00
100.073 274.00
100.095 232.00