File: data/xrd_creation/results/PG_2548-1.xy
9.903433 2823.00
9.968632 2851.00
10.0338 2771.00
10.099 2703.00
10.1642 2815.00
10.2294 2745.00
10.2946 2574.00
10.3598 2545.00
10.425 2509.00
10.4902 2454.00
10.5554 2432.00
10.6206 2449.00
10.6858 2414.00
10.751 2433.00
10.8162 2445.00
10.8814 2335.00
10.9466 2348.00
11.0118 2257.00
11.077 2279.00
11.1422 2236.00
11.2074 2216.00
11.2726 2204.00
11.3378 2204.00
11.403 2293.00
11.4682 2243.00
11.5334 2132.00
11.5986 2268.00
11.6638 2174.00
11.729 2190.00
11.7942 2084.00
11.8594 2177.00
11.9246 1996.00
11.9898 2046.00
12.055 1966.00
12.1202 1961.00
12.1854 1916.00
12.2506 2007.00
12.3158 2070.00
12.381 1955.00
12.4462 1969.00
12.5114 1868.00
12.5766 1933.00
12.6418 1890.00
12.707 1892.00
12.7722 1842.00
12.8374 1827.00
12.9026 1878.00
12.9678 1888.00
13.033 1933.00
13.0982 1815.00
13.1634 1784.00
13.2286 1760.00
13.2938 1774.00
13.359 1810.00
13.4242 1655.00
13.4894 1678.00
13.5546 1744.00
13.6198 1685.00
13.685 1649.00
13.7502 1691.00
13.8154 1690.00
13.8805 1698.00
13.9457 1751.00
14.0109 1633.00
14.0761 1718.00
14.1413 1716.00
14.2065 1666.00
14.2717 1713.00
14.3369 1730.00
14.4021 1693.00
14.4673 1703.00
14.5325 1696.00
14.5977 1691.00
14.6629 1642.00
14.7281 1586.00
14.7933 1517.00
14.8585 1623.00
14.9237 1643.00
14.9889 1574.00
15.0541 1557.00
15.1193 1655.00
15.1845 1658.00
15.2497 1573.00
15.3149 1692.00
15.3801 1811.00
15.4453 1934.00
15.5105 2251.00
15.5757 2568.00
15.6409 3008.00
15.7061 2902.00
15.7713 1945.00
15.8365 1638.00
15.9017 1626.00
15.9669 1581.00
16.0321 1474.00
16.0973 1556.00
16.1625 1529.00
16.2277 1568.00
16.2929 1542.00
16.3581 1499.00
16.4233 1486.00
16.4885 1500.00
16.5537 1419.00
16.6189 1475.00
16.6841 1497.00
16.7493 1490.00
16.8145 1446.00
16.8797 1433.00
16.9449 1399.00
17.0101 1509.00
17.0753 1449.00
17.1405 1358.00
17.2057 1354.00
17.2709 1338.00
17.3361 1420.00
17.4013 1384.00
17.4665 1444.00
17.5317 1382.00
17.5969 1399.00
17.6621 1426.00
17.7273 1301.00
17.7925 1403.00
17.8577 1399.00
17.9229 1363.00
17.9881 1372.00
18.0533 1355.00
18.1185 1309.00
18.1837 1306.00
18.2489 1387.00
18.3141 1343.00
18.3793 1410.00
18.4445 1351.00
18.5097 1288.00
18.5749 1313.00
18.6401 1335.00
18.7052 1347.00
18.7704 1324.00
18.8356 1344.00
18.9008 1305.00
18.966 1317.00
19.0312 1272.00
19.0964 1319.00
19.1616 1346.00
19.2268 1202.00
19.292 1319.00
19.3572 1220.00
19.4224 1336.00
19.4876 1209.00
19.5528 1322.00
19.618 1281.00
19.6832 1253.00
19.7484 1238.00
19.8136 1267.00
19.8788 1327.00
19.944 1364.00
20.0092 1352.00
20.0744 1394.00
20.1396 1489.00
20.2048 1551.00
20.27 1849.00
20.3352 2385.00
20.4004 3087.00
20.4656 4255.00
20.5308 5672.00
20.596 6070.00
20.6612 3984.00
20.7264 2096.00
20.7916 1531.00
20.8568 1387.00
20.922 1357.00
20.9872 1338.00
21.0524 1281.00
21.1176 1214.00
21.1828 1221.00
21.248 1169.00
21.3132 1196.00
21.3784 1118.00
21.4436 1196.00
21.5088 1150.00
21.574 1168.00
21.6392 1253.00
21.7044 1393.00
21.7696 1589.00
21.8348 1783.00
21.9 2083.00
21.9652 2476.00
22.0304 2538.00
22.0956 1950.00
22.1608 1374.00
22.226 1286.00
22.2912 1194.00
22.3564 1184.00
22.4216 1120.00
22.4868 1156.00
22.552 1049.00
22.6172 1039.00
22.6824 1095.00
22.7476 1149.00
22.8128 1107.00
22.878 1130.00
22.9432 1085.00
23.0084 1073.00
23.0736 1098.00
23.1388 1099.00
23.204 1070.00
23.2692 1055.00
23.3344 991.00
23.3996 1002.00
23.4647 1076.00
23.5299 1024.00
23.5951 1022.00
23.6603 1065.00
23.7255 1066.00
23.7907 984.00
23.8559 993.00
23.9211 1069.00
23.9863 1052.00
24.0515 957.00
24.1167 974.00
24.1819 917.00
24.2471 971.00
24.3123 1003.00
24.3775 931.00
24.4427 990.00
24.5079 959.00
24.5731 951.00
24.6383 945.00
24.7035 956.00
24.7687 947.00
24.8339 939.00
24.8991 959.00
24.9643 945.00
25.0295 957.00
25.0947 949.00
25.1599 989.00
25.2251 969.00
25.2903 889.00
25.3555 1003.00
25.4207 1005.00
25.4859 951.00
25.5511 1016.00
25.6163 985.00
25.6815 1032.00
25.7467 1161.00
25.8119 1119.00
25.8771 1157.00
25.9423 1120.00
26.0075 1112.00
26.0727 1105.00
26.1379 1222.00
26.2031 1511.00
26.2683 2202.00
26.3335 3487.00
26.3987 4921.00
26.4639 4875.00
26.5291 2601.00
26.5943 1366.00
26.6595 1049.00
26.7247 994.00
26.7899 980.00
26.8551 927.00
26.9203 865.00
26.9855 914.00
27.0507 931.00
27.1159 850.00
27.1811 902.00
27.2463 890.00
27.3115 835.00
27.3767 875.00
27.4419 877.00
27.5071 945.00
27.5723 872.00
27.6375 889.00
27.7027 926.00
27.7679 867.00
27.8331 904.00
27.8983 949.00
27.9635 917.00
28.0287 865.00
28.0939 858.00
28.1591 885.00
28.2243 846.00
28.2894 845.00
28.3546 854.00
28.4198 884.00
28.485 909.00
28.5502 950.00
28.6154 971.00
28.6806 929.00
28.7458 899.00
28.811 884.00
28.8762 901.00
28.9414 805.00
29.0066 868.00
29.0718 863.00
29.137 895.00
29.2022 951.00
29.2674 980.00
29.3326 961.00
29.3978 996.00
29.463 1036.00
29.5282 957.00
29.5934 974.00
29.6586 866.00
29.7238 890.00
29.789 809.00
29.8542 782.00
29.9194 800.00
29.9846 790.00
30.0498 746.00
30.115 790.00
30.1802 826.00
30.2454 801.00
30.3106 866.00
30.3758 778.00
30.441 807.00
30.5062 848.00
30.5714 780.00
30.6366 786.00
30.7018 815.00
30.767 808.00
30.8322 880.00
30.8974 871.00
30.9626 997.00
31.0278 1210.00
31.093 1577.00
31.1582 2354.00
31.2234 3350.00
31.2886 4112.00
31.3538 3572.00
31.419 2146.00
31.4842 1230.00
31.5494 981.00
31.6146 935.00
31.6798 825.00
31.745 826.00
31.8102 751.00
31.8754 817.00
31.9406 771.00
32.0058 787.00
32.071 756.00
32.1362 779.00
32.2014 751.00
32.2666 800.00
32.3318 809.00
32.397 910.00
32.4622 1040.00
32.5274 1417.00
32.5926 1904.00
32.6578 2259.00
32.723 1821.00
32.7882 1257.00
32.8534 925.00
32.9186 824.00
32.9838 801.00
33.0489 776.00
33.1141 725.00
33.1793 763.00
33.2445 747.00
33.3097 731.00
33.3749 744.00
33.4401 840.00
33.5053 1021.00
33.5705 1245.00
33.6357 1110.00
33.7009 932.00
33.7661 747.00
33.8313 750.00
33.8965 690.00
33.9617 699.00
34.0269 712.00
34.0921 690.00
34.1573 692.00
34.2225 744.00
34.2877 774.00
34.3529 887.00
34.4181 1079.00
34.4833 1547.00
34.5485 2226.00
34.6137 2107.00
34.6789 1470.00
34.7441 874.00
34.8093 743.00
34.8745 702.00
34.9397 665.00
35.0049 684.00
35.0701 648.00
35.1353 657.00
35.2005 619.00
35.2657 618.00
35.3309 602.00
35.3961 602.00
35.4613 590.00
35.5265 621.00
35.5917 609.00
35.6569 612.00
35.7221 635.00
35.7873 650.00
35.8525 603.00
35.9177 590.00
35.9829 651.00
36.0481 657.00
36.1133 656.00
36.1785 725.00
36.2437 759.00
36.3089 761.00
36.3741 720.00
36.4393 686.00
36.5045 604.00
36.5697 632.00
36.6349 581.00
36.7001 601.00
36.7653 566.00
36.8305 628.00
36.8957 602.00
36.9609 631.00
37.0261 668.00
37.0913 780.00
37.1565 945.00
37.2217 1010.00
37.2869 873.00
37.3521 660.00
37.4173 622.00
37.4825 634.00
37.5477 683.00
37.6129 734.00
37.6781 715.00
37.7433 587.00
37.8085 598.00
37.8736 585.00
37.9388 542.00
38.004 552.00
38.0692 543.00
38.1344 571.00
38.1996 565.00
38.2648 552.00
38.33 550.00
38.3952 560.00
38.4604 537.00
38.5256 563.00
38.5908 551.00
38.656 546.00
38.7212 580.00
38.7864 585.00
38.8516 558.00
38.9168 566.00
38.982 559.00
39.0472 546.00
39.1124 645.00
39.1776 588.00
39.2428 533.00
39.308 569.00
39.3732 527.00
39.4384 580.00
39.5036 539.00
39.5688 503.00
39.634 567.00
39.6992 554.00
39.7644 581.00
39.8296 540.00
39.8948 526.00
39.96 531.00
40.0252 524.00
40.0904 536.00
40.1556 554.00
40.2208 533.00
40.286 542.00
40.3512 554.00
40.4164 581.00
40.4816 560.00
40.5468 614.00
40.612 568.00
40.6772 540.00
40.7424 600.00
40.8076 574.00
40.8728 539.00
40.938 569.00
41.0032 567.00
41.0684 641.00
41.1336 617.00
41.1988 659.00
41.264 654.00
41.3292 791.00
41.3944 963.00
41.4596 1211.00
41.5248 1341.00
41.59 1244.00
41.6552 1030.00
41.7204 787.00
41.7856 656.00
41.8508 648.00
41.916 647.00
41.9812 619.00
42.0464 648.00
42.1116 708.00
42.1768 767.00
42.242 863.00
42.3072 974.00
42.3724 874.00
42.4376 744.00
42.5028 615.00
42.568 631.00
42.6332 600.00
42.6983 640.00
42.7635 644.00
42.8287 726.00
42.8939 794.00
42.9591 1099.00
43.0243 1854.00
43.0895 3354.00
43.1547 5375.00
43.2199 4833.00
43.2851 3296.00
43.3503 1663.00
43.4155 851.00
43.4807 706.00
43.5459 668.00
43.6111 599.00
43.6763 610.00
43.7415 532.00
43.8067 505.00
43.8719 551.00
43.9371 529.00
44.0023 517.00
44.0675 516.00
44.1327 494.00
44.1979 542.00
44.2631 509.00
44.3283 548.00
44.3935 546.00
44.4587 531.00
44.5239 547.00
44.5891 601.00
44.6543 549.00
44.7195 534.00
44.7847 530.00
44.8499 508.00
44.9151 519.00
44.9803 487.00
45.0455 491.00
45.1107 524.00
45.1759 477.00
45.2411 486.00
45.3063 502.00
45.3715 503.00
45.4367 553.00
45.5019 644.00
45.5671 678.00
45.6323 849.00
45.6975 1089.00
45.7627 1116.00
45.8279 927.00
45.8931 791.00
45.9583 625.00
46.0235 559.00
46.0887 542.00
46.1539 518.00
46.2191 552.00
46.2843 551.00
46.3495 470.00
46.4147 536.00
46.4799 499.00
46.5451 530.00
46.6103 471.00
46.6755 525.00
46.7407 512.00
46.8059 462.00
46.8711 484.00
46.9363 547.00
47.0015 511.00
47.0667 548.00
47.1319 579.00
47.1971 611.00
47.2623 586.00
47.3275 573.00
47.3927 735.00
47.4579 927.00
47.523 1277.00
47.5882 1589.00
47.6534 1249.00
47.7186 1172.00
47.7838 784.00
47.849 671.00
47.9142 704.00
47.9794 821.00
48.0446 953.00
48.1098 1115.00
48.175 965.00
48.2402 860.00
48.3054 692.00
48.3706 572.00
48.4358 521.00
48.501 538.00
48.5662 560.00
48.6314 531.00
48.6966 559.00
48.7618 553.00
48.827 571.00
48.8922 669.00
48.9574 756.00
49.0226 959.00
49.0878 1055.00
49.153 956.00
49.2182 854.00
49.2834 720.00
49.3486 576.00
49.4138 520.00
49.479 501.00
49.5442 524.00
49.6094 491.00
49.6746 601.00
49.7398 617.00
49.805 617.00
49.8702 566.00
49.9354 536.00
50.0006 492.00
50.0658 529.00
50.131 441.00
50.1962 513.00
50.2614 497.00
50.3266 441.00
50.3918 446.00
50.457 540.00
50.5222 434.00
50.5874 478.00
50.6526 513.00
50.7178 483.00
50.783 480.00
50.8482 468.00
50.9134 486.00
50.9786 469.00
51.0438 518.00
51.109 495.00
51.1742 498.00
51.2394 565.00
51.3046 796.00
51.3698 1081.00
51.435 1628.00
51.5002 1612.00
51.5654 1246.00
51.6306 1053.00
51.6958 710.00
51.761 631.00
51.8262 559.00
51.8914 519.00
51.9566 529.00
52.0218 528.00
52.087 588.00
52.1522 700.00
52.2174 903.00
52.2826 904.00
52.3477 791.00
52.4129 723.00
52.4781 590.00
52.5433 553.00
52.6085 547.00
52.6737 544.00
52.7389 542.00
52.8041 560.00
52.8693 501.00
52.9345 508.00
52.9997 499.00
53.0649 467.00
53.1301 468.00
53.1953 457.00
53.2605 361.00
53.3257 418.00
53.3909 430.00
53.4561 471.00
53.5213 429.00
53.5865 406.00
53.6517 463.00
53.7169 465.00
53.7821 465.00
53.8473 463.00
53.9125 466.00
53.9777 494.00
54.0429 526.00
54.1081 527.00
54.1733 515.00
54.2385 419.00
54.3037 442.00
54.3689 472.00
54.4341 446.00
54.4993 435.00
54.5645 434.00
54.6297 465.00
54.6949 420.00
54.7601 415.00
54.8253 432.00
54.8905 448.00
54.9557 482.00
55.0209 416.00
55.0861 472.00
55.1513 421.00
55.2165 429.00
55.2817 435.00
55.3469 434.00
55.4121 442.00
55.4773 469.00
55.5425 487.00
55.6077 469.00
55.6729 522.00
55.7381 578.00
55.8033 785.00
55.8685 893.00
55.9337 882.00
55.9989 706.00
56.0641 701.00
56.1293 514.00
56.1945 484.00
56.2597 494.00
56.3249 474.00
56.3901 533.00
56.4553 574.00
56.5205 626.00
56.5857 562.00
56.6509 530.00
56.7161 441.00
56.7813 467.00
56.8465 387.00
56.9117 434.00
56.9769 434.00
57.042 445.00
57.1073 445.00
57.1724 438.00
57.2376 456.00
57.3028 407.00
57.368 448.00
57.4332 482.00
57.4984 384.00
57.5636 435.00
57.6288 424.00
57.694 445.00
57.7592 409.00
57.8244 467.00
57.8896 415.00
57.9548 426.00
58.02 422.00
58.0852 460.00
58.1504 459.00
58.2156 459.00
58.2808 488.00
58.346 450.00
58.4112 493.00
58.4764 494.00
58.5416 432.00
58.6068 523.00
58.672 592.00
58.7372 639.00
58.8024 677.00
58.8676 544.00
58.9328 578.00
58.998 525.00
59.0632 535.00
59.1284 677.00
59.1936 750.00
59.2588 858.00
59.324 767.00
59.3892 699.00
59.4544 607.00
59.5196 549.00
59.5848 477.00
59.65 467.00
59.7152 430.00
59.7804 437.00
59.8456 465.00
59.9108 452.00
59.976 445.00
60.0412 478.00
60.1064 502.00
60.1716 526.00
60.2368 605.00
60.302 665.00
60.3672 554.00
60.4324 526.00
60.4976 551.00
60.5628 527.00
60.628 471.00
60.6932 445.00
60.7584 486.00
60.8236 497.00
60.8888 501.00
60.954 467.00
61.0192 537.00
61.0844 556.00
61.1496 626.00
61.2148 808.00
61.28 1041.00
61.3452 1101.00
61.4104 885.00
61.4756 870.00
61.5408 710.00
61.606 531.00
61.6712 514.00
61.7364 541.00
61.8016 495.00
61.8667 478.00
61.932 491.00
61.9971 524.00
62.0623 565.00
62.1275 677.00
62.1927 832.00
62.2579 1126.00
62.3231 1567.00
62.3883 1634.00
62.4535 2240.00
62.5187 3147.00
62.5839 2506.00
62.6491 1847.00
62.7143 1634.00
62.7795 1054.00
62.8447 635.00
62.9099 547.00
62.9751 481.00
63.0403 487.00
63.1055 499.00
63.1707 420.00
63.2359 460.00
63.3011 419.00
63.3663 426.00
63.4315 427.00
63.4967 434.00
63.5619 404.00
63.6271 419.00
63.6923 429.00
63.7575 412.00
63.8227 443.00
63.8879 410.00
63.9531 399.00
64.0183 450.00
64.0835 463.00
64.1487 445.00
64.2139 470.00
64.2791 409.00
64.3443 448.00
64.4095 514.00
64.4747 478.00
64.5399 515.00
64.6051 577.00
64.6703 579.00
64.7355 607.00
64.8007 646.00
64.8659 599.00
64.9311 553.00
64.9963 527.00
65.0615 439.00
65.1267 431.00
65.1919 452.00
65.2571 458.00
65.3223 507.00
65.3875 473.00
65.4527 478.00
65.5179 450.00
65.5831 446.00
65.6483 422.00
65.7135 399.00
65.7787 437.00
65.8439 445.00
65.9091 423.00
65.9743 410.00
66.0395 447.00
66.1047 446.00
66.1699 559.00
66.2351 619.00
66.3003 692.00
66.3655 573.00
66.4307 554.00
66.4959 581.00
66.561 470.00
66.6263 416.00
66.6915 434.00
66.7566 432.00
66.8218 391.00
66.887 419.00
66.9522 428.00
67.0174 381.00
67.0826 347.00
67.1478 407.00
67.213 401.00
67.2782 409.00
67.3434 396.00
67.4086 385.00
67.4738 394.00
67.539 421.00
67.6042 388.00
67.6694 413.00
67.7346 424.00
67.7998 455.00
67.865 464.00
67.9302 520.00
67.9954 567.00
68.0606 554.00
68.1258 487.00
68.191 498.00
68.2562 469.00
68.3214 453.00
68.3866 512.00
68.4518 486.00
68.517 575.00
68.5822 563.00
68.6474 544.00
68.7126 500.00
68.7778 576.00
68.843 483.00
68.9082 494.00
68.9734 527.00
69.0386 576.00
69.1038 640.00
69.169 568.00
69.2342 528.00
69.2994 522.00
69.3646 487.00
69.4298 495.00
69.495 475.00
69.5602 459.00
69.6254 513.00
69.6906 473.00
69.7558 495.00
69.821 566.00
69.8862 604.00
69.9514 585.00
70.0166 579.00
70.0818 536.00
70.147 492.00
70.2122 537.00
70.2774 421.00
70.3426 501.00
70.4078 553.00
70.473 564.00
70.5382 612.00
70.6034 660.00
70.6686 601.00
70.7338 571.00
70.799 499.00
70.8642 481.00
70.9294 447.00
70.9946 434.00
71.0598 422.00
71.125 405.00
71.1902 407.00
71.2554 391.00
71.3205 410.00
71.3858 397.00
71.451 403.00
71.5162 429.00
71.5813 384.00
71.6465 430.00
71.7117 429.00
71.7769 439.00
71.8421 471.00
71.9073 497.00
71.9725 555.00
72.0377 518.00
72.1029 536.00
72.1681 539.00
72.2333 488.00
72.2985 516.00
72.3637 535.00
72.4289 675.00
72.4941 819.00
72.5593 697.00
72.6245 667.00
72.6897 685.00
72.7549 693.00
72.8201 687.00
72.8853 721.00
72.9505 698.00
73.0157 600.00
73.0809 571.00
73.1461 509.00
73.2113 482.00
73.2765 468.00
73.3417 448.00
73.4069 413.00
73.4721 405.00
73.5373 408.00
73.6025 396.00
73.6677 421.00
73.7329 396.00
73.7981 389.00
73.8633 406.00
73.9285 395.00
73.9937 428.00
74.0589 377.00
74.1241 403.00
74.1893 395.00
74.2545 408.00
74.3197 409.00
74.3849 445.00
74.4501 488.00
74.5153 528.00
74.5805 542.00
74.6457 685.00
74.7109 690.00
74.7761 727.00
74.8413 779.00
74.9065 904.00
74.9717 679.00
75.0369 615.00
75.1021 617.00
75.1673 518.00
75.2325 444.00
75.2977 388.00
75.3629 388.00
75.4281 398.00
75.4933 375.00
75.5585 388.00
75.6237 385.00
75.6889 361.00
75.7541 391.00
75.8193 379.00
75.8845 369.00
75.9497 425.00
76.0149 403.00
76.0801 512.00
76.1452 563.00
76.2104 587.00
76.2756 522.00
76.3409 459.00
76.406 491.00
76.4712 489.00
76.5364 435.00
76.6016 425.00
76.6668 443.00
76.732 393.00
76.7972 393.00
76.8624 396.00
76.9276 385.00
76.9928 392.00
77.058 383.00
77.1232 358.00
77.1884 371.00
77.2536 411.00
77.3188 445.00
77.384 434.00
77.4492 440.00
77.5144 479.00
77.5796 479.00
77.6448 417.00
77.71 413.00
77.7752 441.00
77.8404 391.00
77.9056 422.00
77.9708 435.00
78.036 438.00
78.1012 429.00
78.1664 454.00
78.2316 463.00
78.2968 506.00
78.362 571.00
78.4272 555.00
78.4924 536.00
78.5576 557.00
78.6228 594.00
78.688 615.00
78.7532 835.00
78.8184 996.00
78.8836 863.00
78.9488 672.00
79.014 706.00
79.0792 713.00
79.1444 577.00
79.2096 424.00
79.2748 412.00
79.34 384.00
79.4052 386.00
79.4704 365.00
79.5356 406.00
79.6008 362.00
79.666 399.00
79.7312 384.00
79.7964 408.00
79.8616 398.00
79.9268 414.00
79.992 376.00
80.0572 355.00
80.1224 349.00
80.1876 349.00
80.2528 384.00
80.318 368.00
80.3832 395.00
80.4484 388.00
80.5136 353.00
80.5788 353.00
80.644 349.00
80.7092 351.00
80.7744 401.00
80.8396 336.00
80.9048 386.00
80.9699 397.00
81.0351 331.00
81.1003 367.00
81.1655 346.00
81.2307 352.00
81.2959 374.00
81.3611 347.00
81.4263 404.00
81.4915 394.00
81.5567 457.00
81.6219 424.00
81.6871 414.00
81.7523 420.00
81.8175 397.00
81.8827 385.00
81.9479 378.00
82.0131 383.00
82.0783 347.00
82.1435 407.00
82.2087 372.00
82.2739 368.00
82.3391 354.00
82.4043 390.00
82.4695 403.00
82.5347 380.00
82.5999 346.00
82.6651 364.00
82.7303 393.00
82.7955 367.00
82.8607 448.00
82.9259 449.00
82.9911 466.00
83.0563 408.00
83.1215 404.00
83.1867 437.00
83.2519 417.00
83.3171 396.00
83.3823 421.00
83.4475 393.00
83.5127 430.00
83.5779 377.00
83.6431 378.00
83.7083 400.00
83.7735 381.00
83.8387 355.00
83.9039 402.00
83.9691 375.00
84.0343 446.00
84.0995 386.00
84.1647 409.00
84.2299 433.00
84.2951 408.00
84.3603 386.00
84.4255 417.00
84.4907 414.00
84.5559 411.00
84.6211 396.00
84.6863 434.00
84.7515 409.00
84.8167 399.00
84.8819 442.00
84.9471 396.00
85.0123 416.00
85.0775 369.00
85.1427 359.00
85.2079 394.00
85.2731 451.00
85.3383 398.00
85.4035 418.00
85.4687 412.00
85.5339 393.00
85.5991 453.00
85.6643 446.00
85.7295 399.00
85.7946 407.00
85.8598 405.00
85.925 410.00
85.9903 397.00
86.0554 378.00
86.1206 352.00
86.1858 378.00
86.251 382.00
86.3162 372.00
86.3814 375.00
86.4466 435.00
86.5118 407.00
86.577 388.00
86.6422 397.00
86.7074 439.00
86.7726 397.00
86.8378 444.00
86.903 475.00
86.9682 466.00
87.0334 499.00
87.0986 472.00
87.1638 402.00
87.229 416.00
87.2942 400.00
87.3594 368.00
87.4246 389.00
87.4898 387.00
87.555 407.00
87.6202 402.00
87.6854 406.00
87.7506 405.00
87.8158 377.00
87.881 368.00
87.9462 410.00
88.0114 387.00
88.0766 376.00
88.1418 413.00
88.207 380.00
88.2722 377.00
88.3374 412.00
88.4026 419.00
88.4678 405.00
88.533 414.00
88.5982 432.00
88.6634 459.00
88.7286 518.00
88.7938 454.00
88.859 430.00
88.9242 430.00
88.9894 422.00
89.0546 404.00
89.1198 398.00
89.185 402.00
89.2502 361.00
89.3154 403.00
89.3806 388.00
89.4458 387.00
89.511 387.00
89.5762 367.00
89.6414 380.00
89.7066 334.00
89.7718 391.00
89.837 416.00
89.9022 428.00
89.9674 428.00
90.0326 450.00
90.0978 386.00
90.163 437.00
90.2282 402.00
90.2934 412.00
90.3586 425.00
90.4238 395.00
90.489 397.00
90.5542 375.00
90.6193 415.00
90.6845 436.00
90.7497 456.00
90.8149 479.00
90.8801 481.00
90.9453 510.00
91.0105 467.00
91.0757 426.00
91.1409 444.00
91.2061 433.00
91.2713 425.00
91.3365 414.00
91.4017 399.00
91.4669 394.00
91.5321 369.00
91.5973 385.00
91.6625 388.00
91.7277 383.00
91.7929 374.00
91.8581 398.00
91.9233 377.00
91.9885 365.00
92.0537 342.00
92.1189 355.00
92.1841 327.00
92.2493 411.00
92.3145 380.00
92.3797 380.00
92.4449 377.00
92.5101 371.00
92.5753 368.00
92.6405 372.00
92.7057 399.00
92.7709 417.00
92.8361 426.00
92.9013 462.00
92.9665 423.00
93.0317 483.00
93.0969 457.00
93.1621 429.00
93.2273 417.00
93.2925 422.00
93.3577 437.00
93.4229 471.00
93.4881 445.00
93.5533 458.00
93.6185 485.00
93.6837 488.00
93.7489 447.00
93.8141 462.00
93.8793 439.00
93.9445 458.00
94.0097 487.00
94.0749 520.00
94.1401 578.00
94.2053 625.00
94.2705 583.00
94.3357 540.00
94.4009 535.00
94.4661 566.00
94.5313 507.00
94.5965 555.00
94.6617 448.00
94.7269 457.00
94.7921 377.00
94.8573 391.00
94.9225 417.00
94.9877 410.00
95.0529 427.00
95.1181 446.00
95.1833 440.00
95.2485 500.00
95.3137 452.00
95.3789 430.00
95.444 423.00
95.5092 478.00
95.5744 448.00
95.6396 479.00
95.7048 447.00
95.77 428.00
95.8352 421.00
95.9004 400.00
95.9656 394.00
96.0308 391.00
96.096 357.00
96.1612 427.00
96.2264 336.00
96.2916 404.00
96.3568 365.00
96.422 357.00
96.4872 343.00
96.5524 381.00
96.6176 371.00
96.6828 352.00
96.748 380.00
96.8132 392.00
96.8784 367.00
96.9436 367.00
97.0088 374.00
97.074 359.00
97.1392 376.00
97.2044 382.00
97.2696 359.00
97.3348 396.00
97.4 354.00
97.4652 360.00
97.5304 385.00
97.5956 378.00
97.6608 383.00
97.726 388.00
97.7912 391.00
97.8564 384.00
97.9216 400.00
97.9868 394.00
98.052 387.00
98.1172 399.00
98.1824 371.00
98.2476 425.00
98.3128 388.00
98.378 408.00
98.4432 408.00
98.5084 422.00
98.5736 403.00
98.6388 362.00
98.704 384.00
98.7692 366.00
98.8344 359.00
98.8996 389.00
98.9648 339.00
99.03 359.00
99.0952 407.00
99.1604 391.00
99.2256 378.00
99.2908 398.00
99.356 430.00
99.4212 407.00
99.4864 432.00
99.5516 418.00
99.6168 430.00
99.682 429.00
99.7472 471.00
99.8124 453.00
99.8776 451.00
99.9428 409.00
100.008 420.00
100.073 443.00
100.095 458.00