File: data/xrd_creation/results/PG_2035-1.xy
9.903433 2727.00
9.968632 2716.00
10.0338 2772.00
10.099 2621.00
10.1642 2601.00
10.2294 2518.00
10.2946 2639.00
10.3598 2459.00
10.425 2548.00
10.4902 2524.00
10.5554 2545.00
10.6206 2462.00
10.6858 2553.00
10.751 2417.00
10.8162 2390.00
10.8814 2381.00
10.9466 2279.00
11.0118 2339.00
11.077 2264.00
11.1422 2365.00
11.2074 2425.00
11.2726 2167.00
11.3378 2272.00
11.403 2247.00
11.4682 2249.00
11.5334 2256.00
11.5986 2106.00
11.6638 2195.00
11.729 2193.00
11.7942 2157.00
11.8594 2184.00
11.9246 2151.00
11.9898 2193.00
12.055 2135.00
12.1202 2008.00
12.1854 2099.00
12.2506 2073.00
12.3158 2037.00
12.381 2094.00
12.4462 2038.00
12.5114 2065.00
12.5766 2022.00
12.6418 1978.00
12.707 1976.00
12.7722 2006.00
12.8374 1968.00
12.9026 1973.00
12.9678 1937.00
13.033 1926.00
13.0982 1960.00
13.1634 1903.00
13.2286 1967.00
13.2938 1911.00
13.359 1864.00
13.4242 1946.00
13.4894 1897.00
13.5546 1897.00
13.6198 1865.00
13.685 1788.00
13.7502 1811.00
13.8154 1858.00
13.8805 1809.00
13.9457 1795.00
14.0109 1814.00
14.0761 1704.00
14.1413 1867.00
14.2065 1738.00
14.2717 1757.00
14.3369 1787.00
14.4021 1733.00
14.4673 1771.00
14.5325 1715.00
14.5977 1751.00
14.6629 1629.00
14.7281 1718.00
14.7933 1723.00
14.8585 1671.00
14.9237 1676.00
14.9889 1861.00
15.0541 1691.00
15.1193 1686.00
15.1845 1608.00
15.2497 1692.00
15.3149 1639.00
15.3801 1673.00
15.4453 1665.00
15.5105 1688.00
15.5757 1614.00
15.6409 1611.00
15.7061 1596.00
15.7713 1745.00
15.8365 1673.00
15.9017 1656.00
15.9669 1659.00
16.0321 1623.00
16.0973 1611.00
16.1625 1648.00
16.2277 1590.00
16.2929 1530.00
16.3581 1584.00
16.4233 1588.00
16.4885 1519.00
16.5537 1540.00
16.6189 1559.00
16.6841 1552.00
16.7493 1529.00
16.8145 1680.00
16.8797 1562.00
16.9449 1645.00
17.0101 1642.00
17.0753 1588.00
17.1405 1570.00
17.2057 1549.00
17.2709 1466.00
17.3361 1407.00
17.4013 1495.00
17.4665 1521.00
17.5317 1456.00
17.5969 1456.00
17.6621 1582.00
17.7273 1648.00
17.7925 1737.00
17.8577 1836.00
17.9229 1998.00
17.9881 2423.00
18.0533 2531.00
18.1185 1845.00
18.1837 1593.00
18.2489 1604.00
18.3141 1509.00
18.3793 1593.00
18.4445 1629.00
18.5097 1600.00
18.5749 1507.00
18.6401 1484.00
18.7052 1493.00
18.7704 1569.00
18.8356 1499.00
18.9008 1510.00
18.966 1483.00
19.0312 1551.00
19.0964 1605.00
19.1616 1661.00
19.2268 1901.00
19.292 2105.00
19.3572 2129.00
19.4224 1706.00
19.4876 1612.00
19.5528 1631.00
19.618 1616.00
19.6832 1685.00
19.7484 1594.00
19.8136 1513.00
19.8788 1485.00
19.944 1376.00
20.0092 1425.00
20.0744 1369.00
20.1396 1316.00
20.2048 1338.00
20.27 1318.00
20.3352 1323.00
20.4004 1422.00
20.4656 1313.00
20.5308 1331.00
20.596 1388.00
20.6612 1413.00
20.7264 1450.00
20.7916 1561.00
20.8568 1714.00
20.922 2150.00
20.9872 2903.00
21.0524 3952.00
21.1176 4490.00
21.1828 2678.00
21.248 2021.00
21.3132 2332.00
21.3784 2535.00
21.4436 1819.00
21.5088 1444.00
21.574 1294.00
21.6392 1266.00
21.7044 1241.00
21.7696 1241.00
21.8348 1253.00
21.9 1248.00
21.9652 1244.00
22.0304 1154.00
22.0956 1202.00
22.1608 1234.00
22.226 1185.00
22.2912 1208.00
22.3564 1266.00
22.4216 1212.00
22.4868 1159.00
22.552 1220.00
22.6172 1353.00
22.6824 1387.00
22.7476 1344.00
22.8128 1693.00
22.878 2088.00
22.9432 2596.00
23.0084 2668.00
23.0736 1857.00
23.1388 1281.00
23.204 1207.00
23.2692 1152.00
23.3344 1165.00
23.3996 1234.00
23.4647 1199.00
23.5299 1188.00
23.5951 1161.00
23.6603 1118.00
23.7255 1039.00
23.7907 1060.00
23.8559 1130.00
23.9211 1118.00
23.9863 1174.00
24.0515 1114.00
24.1167 1076.00
24.1819 1128.00
24.2471 1153.00
24.3123 1216.00
24.3775 1390.00
24.4427 1357.00
24.5079 1172.00
24.5731 1083.00
24.6383 1120.00
24.7035 1088.00
24.7687 1051.00
24.8339 1097.00
24.8991 1051.00
24.9643 1106.00
25.0295 1151.00
25.0947 1265.00
25.1599 1556.00
25.2251 1979.00
25.2903 2344.00
25.3555 1830.00
25.4207 1342.00
25.4859 1196.00
25.5511 1231.00
25.6163 1372.00
25.6815 1399.00
25.7467 1123.00
25.8119 1100.00
25.8771 1049.00
25.9423 1009.00
26.0075 1032.00
26.0727 1040.00
26.1379 1068.00
26.2031 1049.00
26.2683 1100.00
26.3335 1044.00
26.3987 1081.00
26.4639 1051.00
26.5291 1056.00
26.5943 1106.00
26.6595 1112.00
26.7247 1127.00
26.7899 1203.00
26.8551 1204.00
26.9203 1116.00
26.9855 1114.00
27.0507 1082.00
27.1159 1053.00
27.1811 1077.00
27.2463 1085.00
27.3115 1054.00
27.3767 1077.00
27.4419 1166.00
27.5071 1225.00
27.5723 1320.00
27.6375 1591.00
27.7027 2082.00
27.7679 2511.00
27.8331 2985.00
27.8983 3602.00
27.9635 3055.00
28.0287 1774.00
28.0939 1208.00
28.1591 1154.00
28.2243 1063.00
28.2894 1010.00
28.3546 1041.00
28.4198 1025.00
28.485 1064.00
28.5502 1015.00
28.6154 1004.00
28.6806 1033.00
28.7458 1049.00
28.811 1038.00
28.8762 1045.00
28.9414 1066.00
29.0066 1150.00
29.0718 1186.00
29.137 1275.00
29.2022 1519.00
29.2674 1463.00
29.3326 1114.00
29.3978 1054.00
29.463 1013.00
29.5282 1043.00
29.5934 1005.00
29.6586 1016.00
29.7238 1048.00
29.789 1050.00
29.8542 1004.00
29.9194 1036.00
29.9846 993.00
30.0498 963.00
30.115 1010.00
30.1802 997.00
30.2454 965.00
30.3106 963.00
30.3758 1029.00
30.441 1001.00
30.5062 937.00
30.5714 991.00
30.6366 989.00
30.7018 980.00
30.767 1067.00
30.8322 1089.00
30.8974 1110.00
30.9626 1242.00
31.0278 1411.00
31.093 1748.00
31.1582 2331.00
31.2234 3191.00
31.2886 3247.00
31.3538 2919.00
31.419 3027.00
31.4842 4243.00
31.5494 5453.00
31.6146 4723.00
31.6798 4576.00
31.745 4872.00
31.8102 6618.00
31.8754 9598.00
31.9406 7209.00
32.0058 4392.00
32.071 3143.00
32.1362 3617.00
32.2014 4753.00
32.2666 7010.00
32.3318 8935.00
32.397 5564.00
32.4622 2789.00
32.5274 1778.00
32.5926 1603.00
32.6578 1480.00
32.723 1494.00
32.7882 1454.00
32.8534 1350.00
32.9186 1323.00
32.9838 1386.00
33.0489 1459.00
33.1141 1743.00
33.1793 2083.00
33.2445 1762.00
33.3097 1368.00
33.3749 1046.00
33.4401 1002.00
33.5053 1006.00
33.5705 999.00
33.6357 940.00
33.7009 996.00
33.7661 964.00
33.8313 961.00
33.8965 915.00
33.9617 965.00
34.0269 977.00
34.0921 1004.00
34.1573 1024.00
34.2225 1068.00
34.2877 1213.00
34.3529 1583.00
34.4181 2322.00
34.4833 3967.00
34.5485 5690.00
34.6137 4455.00
34.6789 2718.00
34.7441 1359.00
34.8093 1139.00
34.8745 1256.00
34.9397 1356.00
35.0049 1729.00
35.0701 2139.00
35.1353 2158.00
35.2005 1607.00
35.2657 1130.00
35.3309 953.00
35.3961 910.00
35.4613 991.00
35.5265 949.00
35.5917 876.00
35.6569 856.00
35.7221 839.00
35.7873 849.00
35.8525 859.00
35.9177 886.00
35.9829 920.00
36.0481 959.00
36.1133 1164.00
36.1785 1264.00
36.2437 1055.00
36.3089 916.00
36.3741 871.00
36.4393 781.00
36.5045 742.00
36.5697 773.00
36.6349 805.00
36.7001 827.00
36.7653 823.00
36.8305 953.00
36.8957 984.00
36.9609 949.00
37.0261 867.00
37.0913 873.00
37.1565 808.00
37.2217 857.00
37.2869 820.00
37.3521 874.00
37.4173 874.00
37.4825 827.00
37.5477 910.00
37.6129 1095.00
37.6781 1445.00
37.7433 1748.00
37.8085 1463.00
37.8736 1322.00
37.9388 1277.00
38.004 1678.00
38.0692 1741.00
38.1344 1406.00
38.1996 1129.00
38.2648 860.00
38.33 754.00
38.3952 764.00
38.4604 727.00
38.5256 760.00
38.5908 759.00
38.656 837.00
38.7212 898.00
38.7864 1075.00
38.8516 1411.00
38.9168 1403.00
38.982 1218.00
39.0472 1215.00
39.1124 1548.00
39.1776 1603.00
39.2428 1315.00
39.308 1001.00
39.3732 803.00
39.4384 805.00
39.5036 709.00
39.5688 757.00
39.634 762.00
39.6992 775.00
39.7644 702.00
39.8296 672.00
39.8948 701.00
39.96 694.00
40.0252 721.00
40.0904 687.00
40.1556 662.00
40.2208 700.00
40.286 637.00
40.3512 653.00
40.4164 660.00
40.4816 664.00
40.5468 675.00
40.612 741.00
40.6772 770.00
40.7424 780.00
40.8076 892.00
40.8728 1223.00
40.938 1667.00
41.0032 1753.00
41.0684 1452.00
41.1336 1320.00
41.1988 1420.00
41.264 2181.00
41.3292 3010.00
41.3944 2146.00
41.4596 1577.00
41.5248 917.00
41.59 863.00
41.6552 1017.00
41.7204 911.00
41.7856 804.00
41.8508 700.00
41.916 653.00
41.9812 733.00
42.0464 760.00
42.1116 821.00
42.1768 801.00
42.242 819.00
42.3072 773.00
42.3724 793.00
42.4376 751.00
42.5028 808.00
42.568 852.00
42.6332 853.00
42.6983 737.00
42.7635 668.00
42.8287 639.00
42.8939 664.00
42.9591 636.00
43.0243 653.00
43.0895 671.00
43.1547 688.00
43.2199 655.00
43.2851 684.00
43.3503 670.00
43.4155 736.00
43.4807 665.00
43.5459 629.00
43.6111 640.00
43.6763 627.00
43.7415 641.00
43.8067 724.00
43.8719 811.00
43.9371 1008.00
44.0023 846.00
44.0675 882.00
44.1327 672.00
44.1979 625.00
44.2631 647.00
44.3283 645.00
44.3935 618.00
44.4587 645.00
44.5239 642.00
44.5891 623.00
44.6543 618.00
44.7195 571.00
44.7847 626.00
44.8499 610.00
44.9151 646.00
44.9803 689.00
45.0455 734.00
45.1107 800.00
45.1759 803.00
45.2411 707.00
45.3063 712.00
45.3715 686.00
45.4367 677.00
45.5019 693.00
45.5671 849.00
45.6323 938.00
45.6975 1020.00
45.7627 1065.00
45.8279 904.00
45.8931 848.00
45.9583 744.00
46.0235 912.00
46.0887 1066.00
46.1539 1153.00
46.2191 1002.00
46.2843 839.00
46.3495 812.00
46.4147 759.00
46.4799 862.00
46.5451 870.00
46.6103 1076.00
46.6755 1415.00
46.7407 1589.00
46.8059 1254.00
46.8711 1204.00
46.9363 985.00
47.0015 854.00
47.0667 752.00
47.1319 777.00
47.1971 674.00
47.2623 636.00
47.3275 555.00
47.3927 520.00
47.4579 547.00
47.523 584.00
47.5882 530.00
47.6534 546.00
47.7186 510.00
47.7838 575.00
47.849 586.00
47.9142 582.00
47.9794 564.00
48.0446 568.00
48.1098 500.00
48.175 501.00
48.2402 526.00
48.3054 527.00
48.3706 506.00
48.4358 524.00
48.501 532.00
48.5662 592.00
48.6314 646.00
48.6966 648.00
48.7618 706.00
48.827 666.00
48.8922 623.00
48.9574 634.00
49.0226 598.00
49.0878 698.00
49.153 999.00
49.2182 1434.00
49.2834 2076.00
49.3486 1981.00
49.4138 1490.00
49.479 1237.00
49.5442 847.00
49.6094 739.00
49.6746 611.00
49.7398 599.00
49.805 517.00
49.8702 514.00
49.9354 522.00
50.0006 537.00
50.0658 515.00
50.131 501.00
50.1962 546.00
50.2614 533.00
50.3266 541.00
50.3918 517.00
50.457 530.00
50.5222 614.00
50.5874 714.00
50.6526 828.00
50.7178 985.00
50.783 1232.00
50.8482 1040.00
50.9134 1006.00
50.9786 744.00
51.0438 597.00
51.109 593.00
51.1742 533.00
51.2394 466.00
51.3046 539.00
51.3698 538.00
51.435 520.00
51.5002 626.00
51.5654 632.00
51.6306 566.00
51.6958 639.00
51.761 613.00
51.8262 714.00
51.8914 999.00
51.9566 1179.00
52.0218 924.00
52.087 882.00
52.1522 692.00
52.2174 580.00
52.2826 703.00
52.3477 711.00
52.4129 602.00
52.4781 614.00
52.5433 513.00
52.6085 494.00
52.6737 482.00
52.7389 478.00
52.8041 499.00
52.8693 504.00
52.9345 594.00
52.9997 745.00
53.0649 623.00
53.1301 617.00
53.1953 578.00
53.2605 580.00
53.3257 705.00
53.3909 956.00
53.4561 1112.00
53.5213 1228.00
53.5865 1136.00
53.6517 1277.00
53.7169 1297.00
53.7821 1099.00
53.8473 1071.00
53.9125 891.00
53.9777 615.00
54.0429 595.00
54.1081 532.00
54.1733 501.00
54.2385 465.00
54.3037 453.00
54.3689 490.00
54.4341 447.00
54.4993 429.00
54.5645 437.00
54.6297 443.00
54.6949 460.00
54.7601 462.00
54.8253 505.00
54.8905 565.00
54.9557 642.00
55.0209 843.00
55.0861 812.00
55.1513 808.00
55.2165 1055.00
55.2817 1344.00
55.3469 1418.00
55.4121 961.00
55.4773 947.00
55.5425 655.00
55.6077 485.00
55.6729 478.00
55.7381 495.00
55.8033 508.00
55.8685 468.00
55.9337 478.00
55.9989 532.00
56.0641 588.00
56.1293 566.00
56.1945 528.00
56.2597 536.00
56.3249 499.00
56.3901 607.00
56.4553 780.00
56.5205 1033.00
56.5857 1119.00
56.6509 856.00
56.7161 873.00
56.7813 639.00
56.8465 531.00
56.9117 524.00
56.9769 501.00
57.042 467.00
57.1073 527.00
57.1724 553.00
57.2376 587.00
57.3028 616.00
57.368 699.00
57.4332 672.00
57.4984 627.00
57.5636 567.00
57.6288 528.00
57.694 443.00
57.7592 469.00
57.8244 452.00
57.8896 469.00
57.9548 466.00
58.02 474.00
58.0852 480.00
58.1504 494.00
58.2156 574.00
58.2808 854.00
58.346 816.00
58.4112 702.00
58.4764 659.00
58.5416 506.00
58.6068 436.00
58.672 387.00
58.7372 438.00
58.8024 420.00
58.8676 409.00
58.9328 423.00
58.998 420.00
59.0632 397.00
59.1284 415.00
59.1936 409.00
59.2588 437.00
59.324 395.00
59.3892 423.00
59.4544 420.00
59.5196 476.00
59.5848 433.00
59.65 448.00
59.7152 444.00
59.7804 372.00
59.8456 417.00
59.9108 401.00
59.976 456.00
60.0412 537.00
60.1064 750.00
60.1716 823.00
60.2368 728.00
60.302 653.00
60.3672 668.00
60.4324 564.00
60.4976 604.00
60.5628 595.00
60.628 624.00
60.6932 710.00
60.7584 921.00
60.8236 1030.00
60.8888 768.00
60.954 744.00
61.0192 712.00
61.0844 547.00
61.1496 562.00
61.2148 736.00
61.28 780.00
61.3452 617.00
61.4104 716.00
61.4756 729.00
61.5408 701.00
61.606 600.00
61.6712 569.00
61.7364 534.00
61.8016 471.00
61.8667 461.00
61.932 430.00
61.9971 417.00
62.0623 433.00
62.1275 448.00
62.1927 571.00
62.2579 606.00
62.3231 561.00
62.3883 605.00
62.4535 705.00
62.5187 678.00
62.5839 569.00
62.6491 514.00
62.7143 484.00
62.7795 470.00
62.8447 429.00
62.9099 498.00
62.9751 552.00
63.0403 516.00
63.1055 511.00
63.1707 464.00
63.2359 446.00
63.3011 382.00
63.3663 350.00
63.4315 405.00
63.4967 361.00
63.5619 407.00
63.6271 375.00
63.6923 442.00
63.7575 417.00
63.8227 477.00
63.8879 542.00
63.9531 567.00
64.0183 791.00
64.0835 908.00
64.1487 712.00
64.2139 632.00
64.2791 637.00
64.3443 457.00
64.4095 458.00
64.4747 414.00
64.5399 375.00
64.6051 438.00
64.6703 469.00
64.7355 560.00
64.8007 509.00
64.8659 469.00
64.9311 511.00
64.9963 438.00
65.0615 467.00
65.1267 435.00
65.1919 520.00
65.2571 502.00
65.3223 596.00
65.3875 578.00
65.4527 512.00
65.5179 539.00
65.5831 510.00
65.6483 447.00
65.7135 444.00
65.7787 456.00
65.8439 440.00
65.9091 419.00
65.9743 417.00
66.0395 461.00
66.1047 538.00
66.1699 802.00
66.2351 1027.00
66.3003 950.00
66.3655 841.00
66.4307 784.00
66.4959 687.00
66.561 502.00
66.6263 455.00
66.6915 494.00
66.7566 489.00
66.8218 432.00
66.887 419.00
66.9522 410.00
67.0174 429.00
67.0826 452.00
67.1478 444.00
67.213 455.00
67.2782 473.00
67.3434 497.00
67.4086 575.00
67.4738 681.00
67.539 495.00
67.6042 497.00
67.6694 587.00
67.7346 483.00
67.7998 448.00
67.865 407.00
67.9302 383.00
67.9954 392.00
68.0606 401.00
68.1258 490.00
68.191 536.00
68.2562 651.00
68.3214 698.00
68.3866 697.00
68.4518 712.00
68.517 720.00
68.5822 569.00
68.6474 462.00
68.7126 520.00
68.7778 468.00
68.843 538.00
68.9082 594.00
68.9734 526.00
69.0386 518.00
69.1038 571.00
69.169 631.00
69.2342 666.00
69.2994 510.00
69.3646 432.00
69.4298 495.00
69.495 427.00
69.5602 356.00
69.6254 398.00
69.6906 381.00
69.7558 369.00
69.821 368.00
69.8862 340.00
69.9514 430.00
70.0166 385.00
70.0818 352.00
70.147 350.00
70.2122 368.00
70.2774 341.00
70.3426 385.00
70.4078 390.00
70.473 370.00
70.5382 344.00
70.6034 353.00
70.6686 341.00
70.7338 313.00
70.799 363.00
70.8642 331.00
70.9294 357.00
70.9946 357.00
71.0598 381.00
71.125 442.00
71.1902 463.00
71.2554 365.00
71.3205 444.00
71.3858 453.00
71.451 393.00
71.5162 343.00
71.5813 340.00
71.6465 331.00
71.7117 349.00
71.7769 355.00
71.8421 354.00
71.9073 376.00
71.9725 436.00
72.0377 498.00
72.1029 428.00
72.1681 391.00
72.2333 442.00
72.2985 389.00
72.3637 388.00
72.4289 405.00
72.4941 357.00
72.5593 380.00
72.6245 401.00
72.6897 379.00
72.7549 339.00
72.8201 324.00
72.8853 338.00
72.9505 349.00
73.0157 320.00
73.0809 339.00
73.1461 363.00
73.2113 370.00
73.2765 393.00
73.3417 397.00
73.4069 390.00
73.4721 353.00
73.5373 432.00
73.6025 407.00
73.6677 409.00
73.7329 369.00
73.7981 404.00
73.8633 332.00
73.9285 343.00
73.9937 310.00
74.0589 341.00
74.1241 272.00
74.1893 343.00
74.2545 330.00
74.3197 334.00
74.3849 343.00
74.4501 347.00
74.5153 408.00
74.5805 454.00
74.6457 445.00
74.7109 485.00
74.7761 436.00
74.8413 397.00
74.9065 372.00
74.9717 325.00
75.0369 325.00
75.1021 308.00
75.1673 319.00
75.2325 317.00
75.2977 315.00
75.3629 323.00
75.4281 308.00
75.4933 311.00
75.5585 296.00
75.6237 318.00
75.6889 314.00
75.7541 351.00
75.8193 339.00
75.8845 419.00
75.9497 462.00
76.0149 494.00
76.0801 453.00
76.1452 400.00
76.2104 400.00
76.2756 449.00
76.3409 410.00
76.406 446.00
76.4712 506.00
76.5364 562.00
76.6016 640.00
76.6668 588.00
76.732 528.00
76.7972 489.00
76.8624 449.00
76.9276 428.00
76.9928 422.00
77.058 350.00
77.1232 369.00
77.1884 463.00
77.2536 499.00
77.3188 462.00
77.384 397.00
77.4492 460.00
77.5144 420.00
77.5796 405.00
77.6448 408.00
77.71 366.00
77.7752 395.00
77.8404 372.00
77.9056 389.00
77.9708 412.00
78.036 486.00
78.1012 597.00
78.1664 661.00
78.2316 521.00
78.2968 549.00
78.362 597.00
78.4272 621.00
78.4924 540.00
78.5576 462.00
78.6228 446.00
78.688 465.00
78.7532 382.00
78.8184 376.00
78.8836 317.00
78.9488 327.00
79.014 346.00
79.0792 345.00
79.1444 367.00
79.2096 354.00
79.2748 339.00
79.34 342.00
79.4052 367.00
79.4704 331.00
79.5356 323.00
79.6008 345.00
79.666 336.00
79.7312 347.00
79.7964 388.00
79.8616 380.00
79.9268 351.00
79.992 307.00
80.0572 390.00
80.1224 347.00
80.1876 355.00
80.2528 379.00
80.318 410.00
80.3832 437.00
80.4484 417.00
80.5136 411.00
80.5788 456.00
80.644 396.00
80.7092 429.00
80.7744 408.00
80.8396 373.00
80.9048 339.00
80.9699 347.00
81.0351 357.00
81.1003 373.00
81.1655 306.00
81.2307 358.00
81.2959 386.00
81.3611 345.00
81.4263 382.00
81.4915 362.00
81.5567 395.00
81.6219 395.00
81.6871 380.00
81.7523 360.00
81.8175 325.00
81.8827 345.00
81.9479 301.00
82.0131 329.00
82.0783 324.00
82.1435 338.00
82.2087 319.00
82.2739 333.00
82.3391 356.00
82.4043 388.00
82.4695 415.00
82.5347 521.00
82.5999 645.00
82.6651 590.00
82.7303 463.00
82.7955 469.00
82.8607 530.00
82.9259 469.00
82.9911 358.00
83.0563 360.00
83.1215 332.00
83.1867 326.00
83.2519 311.00
83.3171 342.00
83.3823 324.00
83.4475 315.00
83.5127 354.00
83.5779 388.00
83.6431 334.00
83.7083 381.00
83.7735 362.00
83.8387 374.00
83.9039 337.00
83.9691 311.00
84.0343 329.00
84.0995 358.00
84.1647 403.00
84.2299 364.00
84.2951 347.00
84.3603 419.00
84.4255 449.00
84.4907 602.00
84.5559 594.00
84.6211 485.00
84.6863 451.00
84.7515 568.00
84.8167 639.00
84.8819 450.00
84.9471 434.00
85.0123 395.00
85.0775 386.00
85.1427 378.00
85.2079 284.00
85.2731 309.00
85.3383 328.00
85.4035 299.00
85.4687 309.00
85.5339 320.00
85.5991 332.00
85.6643 329.00
85.7295 325.00
85.7946 353.00
85.8598 324.00
85.925 322.00
85.9903 336.00
86.0554 296.00
86.1206 338.00
86.1858 295.00
86.251 350.00
86.3162 276.00
86.3814 301.00
86.4466 288.00
86.5118 299.00
86.577 317.00
86.6422 295.00
86.7074 311.00
86.7726 315.00
86.8378 312.00
86.903 337.00
86.9682 365.00
87.0334 310.00
87.0986 372.00
87.1638 305.00
87.229 302.00
87.2942 304.00
87.3594 319.00
87.4246 306.00
87.4898 277.00
87.555 270.00
87.6202 283.00
87.6854 328.00
87.7506 279.00
87.8158 323.00
87.881 315.00
87.9462 312.00
88.0114 304.00
88.0766 277.00
88.1418 282.00
88.207 323.00
88.2722 324.00
88.3374 353.00
88.4026 393.00
88.4678 476.00
88.533 451.00
88.5982 403.00
88.6634 368.00
88.7286 372.00
88.7938 383.00
88.859 321.00
88.9242 302.00
88.9894 307.00
89.0546 310.00
89.1198 359.00
89.185 329.00
89.2502 353.00
89.3154 290.00
89.3806 320.00
89.4458 339.00
89.511 303.00
89.5762 334.00
89.6414 354.00
89.7066 361.00
89.7718 406.00
89.837 393.00
89.9022 432.00
89.9674 431.00
90.0326 419.00
90.0978 378.00
90.163 429.00
90.2282 368.00
90.2934 430.00
90.3586 476.00
90.4238 401.00
90.489 444.00
90.5542 536.00
90.6193 618.00
90.6845 531.00
90.7497 423.00
90.8149 496.00
90.8801 564.00
90.9453 654.00
91.0105 505.00
91.0757 389.00
91.1409 379.00
91.2061 397.00
91.2713 405.00
91.3365 349.00
91.4017 311.00
91.4669 351.00
91.5321 377.00
91.5973 352.00
91.6625 367.00
91.7277 357.00
91.7929 354.00
91.8581 374.00
91.9233 370.00
91.9885 320.00
92.0537 303.00
92.1189 311.00
92.1841 258.00
92.2493 297.00
92.3145 313.00
92.3797 360.00
92.4449 372.00
92.5101 391.00
92.5753 369.00
92.6405 337.00
92.7057 367.00
92.7709 398.00
92.8361 393.00
92.9013 369.00
92.9665 349.00
93.0317 307.00
93.0969 313.00
93.1621 297.00
93.2273 341.00
93.2925 310.00
93.3577 318.00
93.4229 354.00
93.4881 419.00
93.5533 431.00
93.6185 448.00
93.6837 370.00
93.7489 337.00
93.8141 351.00
93.8793 382.00
93.9445 346.00
94.0097 332.00
94.0749 333.00
94.1401 287.00
94.2053 335.00
94.2705 316.00
94.3357 330.00
94.4009 382.00
94.4661 309.00
94.5313 388.00
94.5965 375.00
94.6617 382.00
94.7269 419.00
94.7921 417.00
94.8573 410.00
94.9225 418.00
94.9877 376.00
95.0529 356.00
95.1181 342.00
95.1833 302.00
95.2485 290.00
95.3137 311.00
95.3789 310.00
95.444 310.00
95.5092 313.00
95.5744 277.00
95.6396 278.00
95.7048 333.00
95.77 339.00
95.8352 337.00
95.9004 299.00
95.9656 333.00
96.0308 304.00
96.096 286.00
96.1612 318.00
96.2264 322.00
96.2916 329.00
96.3568 294.00
96.422 278.00
96.4872 297.00
96.5524 301.00
96.6176 282.00
96.6828 259.00
96.748 325.00
96.8132 314.00
96.8784 316.00
96.9436 330.00
97.0088 333.00
97.074 316.00
97.1392 295.00
97.2044 373.00
97.2696 331.00
97.3348 352.00
97.4 346.00
97.4652 366.00
97.5304 356.00
97.5956 420.00
97.6608 348.00
97.726 339.00
97.7912 291.00
97.8564 332.00
97.9216 333.00
97.9868 288.00
98.052 294.00
98.1172 320.00
98.1824 288.00
98.2476 272.00
98.3128 268.00
98.378 289.00
98.4432 315.00
98.5084 273.00
98.5736 329.00
98.6388 315.00
98.704 272.00
98.7692 277.00
98.8344 284.00
98.8996 281.00
98.9648 284.00
99.03 277.00
99.0952 238.00
99.1604 247.00
99.2256 335.00
99.2908 295.00
99.356 296.00
99.4212 280.00
99.4864 291.00
99.5516 266.00
99.6168 239.00
99.682 259.00
99.7472 280.00
99.8124 242.00
99.8776 240.00
99.9428 294.00
100.008 290.00
100.073 231.00
100.095 257.00